hall_1,hall_2,hall_3,flex_t,flex_i,flex_m,flex_r,flex_p,accel_x,accel_y,accel_z,gyro_x,gyro_y,gyro_z,sign
3949.0,3692.0,2730.0,4095.0,2752.0,2496.0,2801.0,2273.0,0.93,8.26,9.74,-0.47,0.54,0.28,a
3949.0,3692.0,2730.0,4095.0,2752.0,2496.0,2801.0,2273.0,0.93,8.26,9.74,-0.47,0.54,0.28,a
3949.0,3692.0,2730.0,4095.0,2752.0,2496.0,2801.0,2273.0,0.93,8.26,9.74,-0.47,0.54,0.28,a
3949.0,3692.0,2730.0,4095.0,2752.0,2496.0,2801.0,2273.0,0.93,8.26,9.74,-0.47,0.54,0.28,a
3949.0,3692.0,2730.0,4095.0,2752.0,2496.0,2801.0,2273.0,0.93,8.26,9.74,-0.47,0.54,0.28,a
3949.0,3692.0,2730.0,4095.0,2752.0,2496.0,2801.0,2273.0,0.93,8.26,9.74,-0.47,0.54,0.28,a
3949.0,3692.0,2730.0,4095.0,2752.0,2496.0,2801.0,2273.0,0.93,8.26,9.74,-0.47,0.54,0.28,a
3949.0,3692.0,2730.0,4095.0,2752.0,2496.0,2801.0,2273.0,0.93,8.26,9.74,-0.47,0.54,0.28,a
3949.0,3692.0,2730.0,4095.0,2752.0,2496.0,2801.0,2273.0,0.93,8.26,9.74,-0.47,0.54,0.28,a
3949.0,3692.0,2730.0,4095.0,2752.0,2496.0,2801.0,2273.0,0.93,8.26,9.74,-0.47,0.54,0.28,a
3949.0,3692.0,2730.0,4095.0,2752.0,2496.0,2801.0,2273.0,0.93,8.26,9.74,-0.47,0.54,0.28,a
3949.0,3692.0,2730.0,4095.0,2752.0,2496.0,2801.0,2273.0,0.93,8.26,9.74,-0.47,0.54,0.28,a
3949.0,3692.0,2730.0,4095.0,2752.0,2496.0,2801.0,2273.0,0.93,8.26,9.74,-0.47,0.54,0.28,a
3949.0,3692.0,2730.0,4095.0,2752.0,2496.0,2801.0,2273.0,0.93,8.26,9.74,-0.47,0.54,0.28,a
3949.0,3692.0,2730.0,4095.0,2752.0,2496.0,2801.0,2273.0,0.93,8.26,9.74,-0.47,0.54,0.28,a
3949.0,3692.0,2730.0,4095.0,2752.0,2496.0,2801.0,2273.0,0.93,8.26,9.74,-0.47,0.54,0.28,a
3949.0,3692.0,2730.0,4095.0,2752.0,2496.0,2801.0,2273.0,0.93,8.26,9.74,-0.47,0.54,0.28,a
3949.0,3692.0,2730.0,4095.0,2752.0,2496.0,2801.0,2273.0,0.93,8.26,9.74,-0.47,0.54,0.28,a
3949.0,3692.0,2730.0,4095.0,2752.0,2496.0,2801.0,2273.0,0.93,8.26,9.74,-0.47,0.54,0.28,a
3949.0,3692.0,2730.0,4095.0,2752.0,2496.0,2801.0,2273.0,0.93,8.26,9.74,-0.47,0.54,0.28,a
3930.0,3685.0,2719.0,4095.0,2757.0,2491.0,2800.0,2275.0,1.15,8.47,10.31,-0.36,0.14,0.12,a
3930.0,3685.0,2719.0,4095.0,2757.0,2491.0,2800.0,2275.0,1.15,8.47,10.31,-0.36,0.14,0.12,a
3930.0,3685.0,2719.0,4095.0,2757.0,2491.0,2800.0,2275.0,1.15,8.47,10.31,-0.36,0.14,0.12,a
3930.0,3685.0,2719.0,4095.0,2757.0,2491.0,2800.0,2275.0,1.15,8.47,10.31,-0.36,0.14,0.12,a
3930.0,3685.0,2719.0,4095.0,2757.0,2491.0,2800.0,2275.0,1.15,8.47,10.31,-0.36,0.14,0.12,a
3930.0,3685.0,2719.0,4095.0,2757.0,2491.0,2800.0,2275.0,1.15,8.47,10.31,-0.36,0.14,0.12,a
3930.0,3685.0,2719.0,4095.0,2757.0,2491.0,2800.0,2275.0,1.15,8.47,10.31,-0.36,0.14,0.12,a
3930.0,3685.0,2719.0,4095.0,2757.0,2491.0,2800.0,2275.0,1.15,8.47,10.31,-0.36,0.14,0.12,a
3930.0,3685.0,2719.0,4095.0,2757.0,2491.0,2800.0,2275.0,1.15,8.47,10.31,-0.36,0.14,0.12,a
3930.0,3685.0,2719.0,4095.0,2757.0,2491.0,2800.0,2275.0,1.15,8.47,10.31,-0.36,0.14,0.12,a
3930.0,3685.0,2719.0,4095.0,2757.0,2491.0,2800.0,2275.0,1.15,8.47,10.31,-0.36,0.14,0.12,a
3930.0,3685.0,2719.0,4095.0,2757.0,2491.0,2800.0,2275.0,1.15,8.47,10.31,-0.36,0.14,0.12,a
3930.0,3685.0,2719.0,4095.0,2757.0,2491.0,2800.0,2275.0,1.15,8.47,10.31,-0.36,0.14,0.12,a
3930.0,3685.0,2719.0,4095.0,2757.0,2491.0,2800.0,2275.0,1.15,8.47,10.31,-0.36,0.14,0.12,a
3930.0,3685.0,2719.0,4095.0,2757.0,2491.0,2800.0,2275.0,1.15,8.47,10.31,-0.36,0.14,0.12,a
3930.0,3685.0,2719.0,4095.0,2757.0,2491.0,2800.0,2275.0,1.15,8.47,10.31,-0.36,0.14,0.12,a
3930.0,3685.0,2719.0,4095.0,2757.0,2491.0,2800.0,2275.0,1.15,8.47,10.31,-0.36,0.14,0.12,a
3930.0,3685.0,2719.0,4095.0,2757.0,2491.0,2800.0,2275.0,1.15,8.47,10.31,-0.36,0.14,0.12,a
3930.0,3685.0,2719.0,4095.0,2757.0,2491.0,2800.0,2275.0,1.15,8.47,10.31,-0.36,0.14,0.12,a
3930.0,3685.0,2719.0,4095.0,2757.0,2491.0,2800.0,2275.0,1.15,8.47,10.31,-0.36,0.14,0.12,a
3952.0,3686.0,2726.0,4095.0,2757.0,2494.0,2800.0,2281.0,1.51,8.65,10.26,-0.16,-0.04,-0.07,a
3952.0,3686.0,2726.0,4095.0,2757.0,2494.0,2800.0,2281.0,1.51,8.65,10.26,-0.16,-0.04,-0.07,a
3952.0,3686.0,2726.0,4095.0,2757.0,2494.0,2800.0,2281.0,1.51,8.65,10.26,-0.16,-0.04,-0.07,a
3952.0,3686.0,2726.0,4095.0,2757.0,2494.0,2800.0,2281.0,1.51,8.65,10.26,-0.16,-0.04,-0.07,a
3952.0,3686.0,2726.0,4095.0,2757.0,2494.0,2800.0,2281.0,1.51,8.65,10.26,-0.16,-0.04,-0.07,a
3952.0,3686.0,2726.0,4095.0,2757.0,2494.0,2800.0,2281.0,1.51,8.65,10.26,-0.16,-0.04,-0.07,a
3952.0,3686.0,2726.0,4095.0,2757.0,2494.0,2800.0,2281.0,1.51,8.65,10.26,-0.16,-0.04,-0.07,a
3952.0,3686.0,2726.0,4095.0,2757.0,2494.0,2800.0,2281.0,1.51,8.65,10.26,-0.16,-0.04,-0.07,a
3952.0,3686.0,2726.0,4095.0,2757.0,2494.0,2800.0,2281.0,1.51,8.65,10.26,-0.16,-0.04,-0.07,a
3952.0,3686.0,2726.0,4095.0,2757.0,2494.0,2800.0,2281.0,1.51,8.65,10.26,-0.16,-0.04,-0.07,a
3952.0,3686.0,2726.0,4095.0,2757.0,2494.0,2800.0,2281.0,1.51,8.65,10.26,-0.16,-0.04,-0.07,a
3952.0,3686.0,2726.0,4095.0,2757.0,2494.0,2800.0,2281.0,1.51,8.65,10.26,-0.16,-0.04,-0.07,a
3952.0,3686.0,2726.0,4095.0,2757.0,2494.0,2800.0,2281.0,1.51,8.65,10.26,-0.16,-0.04,-0.07,a
3952.0,3686.0,2726.0,4095.0,2757.0,2494.0,2800.0,2281.0,1.51,8.65,10.26,-0.16,-0.04,-0.07,a
3952.0,3686.0,2726.0,4095.0,2757.0,2494.0,2800.0,2281.0,1.51,8.65,10.26,-0.16,-0.04,-0.07,a
3952.0,3686.0,2726.0,4095.0,2757.0,2494.0,2800.0,2281.0,1.51,8.65,10.26,-0.16,-0.04,-0.07,a
3952.0,3686.0,2726.0,4095.0,2757.0,2494.0,2800.0,2281.0,1.51,8.65,10.26,-0.16,-0.04,-0.07,a
3952.0,3686.0,2726.0,4095.0,2757.0,2494.0,2800.0,2281.0,1.51,8.65,10.26,-0.16,-0.04,-0.07,a
3952.0,3686.0,2726.0,4095.0,2757.0,2494.0,2800.0,2281.0,1.51,8.65,10.26,-0.16,-0.04,-0.07,a
3952.0,3686.0,2726.0,4095.0,2757.0,2494.0,2800.0,2281.0,1.51,8.65,10.26,-0.16,-0.04,-0.07,a
3945.0,3673.0,2721.0,4095.0,2761.0,2494.0,2801.0,2286.0,1.37,8.62,10.02,-0.03,-0.09,-0.26,a
3945.0,3673.0,2721.0,4095.0,2761.0,2494.0,2801.0,2286.0,1.37,8.62,10.02,-0.03,-0.09,-0.26,a
3945.0,3673.0,2721.0,4095.0,2761.0,2494.0,2801.0,2286.0,1.37,8.62,10.02,-0.03,-0.09,-0.26,a
3945.0,3673.0,2721.0,4095.0,2761.0,2494.0,2801.0,2286.0,1.37,8.62,10.02,-0.03,-0.09,-0.26,a
3945.0,3673.0,2721.0,4095.0,2761.0,2494.0,2801.0,2286.0,1.37,8.62,10.02,-0.03,-0.09,-0.26,a
3945.0,3673.0,2721.0,4095.0,2761.0,2494.0,2801.0,2286.0,1.37,8.62,10.02,-0.03,-0.09,-0.26,a
3945.0,3673.0,2721.0,4095.0,2761.0,2494.0,2801.0,2286.0,1.37,8.62,10.02,-0.03,-0.09,-0.26,a
3945.0,3673.0,2721.0,4095.0,2761.0,2494.0,2801.0,2286.0,1.37,8.62,10.02,-0.03,-0.09,-0.26,a
3945.0,3673.0,2721.0,4095.0,2761.0,2494.0,2801.0,2286.0,1.37,8.62,10.02,-0.03,-0.09,-0.26,a
3945.0,3673.0,2721.0,4095.0,2761.0,2494.0,2801.0,2286.0,1.37,8.62,10.02,-0.03,-0.09,-0.26,a
3945.0,3673.0,2721.0,4095.0,2761.0,2494.0,2801.0,2286.0,1.37,8.62,10.02,-0.03,-0.09,-0.26,a
3945.0,3673.0,2721.0,4095.0,2761.0,2494.0,2801.0,2286.0,1.37,8.62,10.02,-0.03,-0.09,-0.26,a
3945.0,3673.0,2721.0,4095.0,2761.0,2494.0,2801.0,2286.0,1.37,8.62,10.02,-0.03,-0.09,-0.26,a
3945.0,3673.0,2721.0,4095.0,2761.0,2494.0,2801.0,2286.0,1.37,8.62,10.02,-0.03,-0.09,-0.26,a
3945.0,3673.0,2721.0,4095.0,2761.0,2494.0,2801.0,2286.0,1.37,8.62,10.02,-0.03,-0.09,-0.26,a
3945.0,3673.0,2721.0,4095.0,2761.0,2494.0,2801.0,2286.0,1.37,8.62,10.02,-0.03,-0.09,-0.26,a
3945.0,3673.0,2721.0,4095.0,2761.0,2494.0,2801.0,2286.0,1.37,8.62,10.02,-0.03,-0.09,-0.26,a
3945.0,3673.0,2721.0,4095.0,2761.0,2494.0,2801.0,2286.0,1.37,8.62,10.02,-0.03,-0.09,-0.26,a
3945.0,3673.0,2721.0,4095.0,2761.0,2494.0,2801.0,2286.0,1.37,8.62,10.02,-0.03,-0.09,-0.26,a
3945.0,3673.0,2721.0,4095.0,2761.0,2494.0,2801.0,2286.0,1.37,8.62,10.02,-0.03,-0.09,-0.26,a
3950.0,3691.0,2727.0,4095.0,2762.0,2497.0,2806.0,2288.0,1.05,8.37,9.7,0.12,-0.11,-0.38,a
3950.0,3691.0,2727.0,4095.0,2762.0,2497.0,2806.0,2288.0,1.05,8.37,9.7,0.12,-0.11,-0.38,a
3950.0,3691.0,2727.0,4095.0,2762.0,2497.0,2806.0,2288.0,1.05,8.37,9.7,0.12,-0.11,-0.38,a
3950.0,3691.0,2727.0,4095.0,2762.0,2497.0,2806.0,2288.0,1.05,8.37,9.7,0.12,-0.11,-0.38,a
3950.0,3691.0,2727.0,4095.0,2762.0,2497.0,2806.0,2288.0,1.05,8.37,9.7,0.12,-0.11,-0.38,a
3950.0,3691.0,2727.0,4095.0,2762.0,2497.0,2806.0,2288.0,1.05,8.37,9.7,0.12,-0.11,-0.38,a
3950.0,3691.0,2727.0,4095.0,2762.0,2497.0,2806.0,2288.0,1.05,8.37,9.7,0.12,-0.11,-0.38,a
3950.0,3691.0,2727.0,4095.0,2762.0,2497.0,2806.0,2288.0,1.05,8.37,9.7,0.12,-0.11,-0.38,a
3950.0,3691.0,2727.0,4095.0,2762.0,2497.0,2806.0,2288.0,1.05,8.37,9.7,0.12,-0.11,-0.38,a
3950.0,3691.0,2727.0,4095.0,2762.0,2497.0,2806.0,2288.0,1.05,8.37,9.7,0.12,-0.11,-0.38,a
3950.0,3691.0,2727.0,4095.0,2762.0,2497.0,2806.0,2288.0,1.05,8.37,9.7,0.12,-0.11,-0.38,a
3950.0,3691.0,2727.0,4095.0,2762.0,2497.0,2806.0,2288.0,1.05,8.37,9.7,0.12,-0.11,-0.38,a
3950.0,3691.0,2727.0,4095.0,2762.0,2497.0,2806.0,2288.0,1.05,8.37,9.7,0.12,-0.11,-0.38,a
3950.0,3691.0,2727.0,4095.0,2762.0,2497.0,2806.0,2288.0,1.05,8.37,9.7,0.12,-0.11,-0.38,a
3950.0,3691.0,2727.0,4095.0,2762.0,2497.0,2806.0,2288.0,1.05,8.37,9.7,0.12,-0.11,-0.38,a
3950.0,3691.0,2727.0,4095.0,2762.0,2497.0,2806.0,2288.0,1.05,8.37,9.7,0.12,-0.11,-0.38,a
3950.0,3691.0,2727.0,4095.0,2762.0,2497.0,2806.0,2288.0,1.05,8.37,9.7,0.12,-0.11,-0.38,a
3950.0,3691.0,2727.0,4095.0,2762.0,2497.0,2806.0,2288.0,1.05,8.37,9.7,0.12,-0.11,-0.38,a
3950.0,3691.0,2727.0,4095.0,2762.0,2497.0,2806.0,2288.0,1.05,8.37,9.7,0.12,-0.11,-0.38,a
3950.0,3691.0,2727.0,4095.0,2762.0,2497.0,2806.0,2288.0,1.05,8.37,9.7,0.12,-0.11,-0.38,a
3949.0,3691.0,2718.0,4095.0,2755.0,2496.0,2801.0,2287.0,0.57,8.25,9.37,0.23,-0.06,-0.39,a
3949.0,3691.0,2718.0,4095.0,2755.0,2496.0,2801.0,2287.0,0.57,8.25,9.37,0.23,-0.06,-0.39,a
3949.0,3691.0,2718.0,4095.0,2755.0,2496.0,2801.0,2287.0,0.57,8.25,9.37,0.23,-0.06,-0.39,a
3949.0,3691.0,2718.0,4095.0,2755.0,2496.0,2801.0,2287.0,0.57,8.25,9.37,0.23,-0.06,-0.39,a
3949.0,3691.0,2718.0,4095.0,2755.0,2496.0,2801.0,2287.0,0.57,8.25,9.37,0.23,-0.06,-0.39,a
3949.0,3691.0,2718.0,4095.0,2755.0,2496.0,2801.0,2287.0,0.57,8.25,9.37,0.23,-0.06,-0.39,a
3949.0,3691.0,2718.0,4095.0,2755.0,2496.0,2801.0,2287.0,0.57,8.25,9.37,0.23,-0.06,-0.39,a
3949.0,3691.0,2718.0,4095.0,2755.0,2496.0,2801.0,2287.0,0.57,8.25,9.37,0.23,-0.06,-0.39,a
3949.0,3691.0,2718.0,4095.0,2755.0,2496.0,2801.0,2287.0,0.57,8.25,9.37,0.23,-0.06,-0.39,a
3949.0,3691.0,2718.0,4095.0,2755.0,2496.0,2801.0,2287.0,0.57,8.25,9.37,0.23,-0.06,-0.39,a
3949.0,3691.0,2718.0,4095.0,2755.0,2496.0,2801.0,2287.0,0.57,8.25,9.37,0.23,-0.06,-0.39,a
3949.0,3691.0,2718.0,4095.0,2755.0,2496.0,2801.0,2287.0,0.57,8.25,9.37,0.23,-0.06,-0.39,a
3949.0,3691.0,2718.0,4095.0,2755.0,2496.0,2801.0,2287.0,0.57,8.25,9.37,0.23,-0.06,-0.39,a
3949.0,3691.0,2718.0,4095.0,2755.0,2496.0,2801.0,2287.0,0.57,8.25,9.37,0.23,-0.06,-0.39,a
3949.0,3691.0,2718.0,4095.0,2755.0,2496.0,2801.0,2287.0,0.57,8.25,9.37,0.23,-0.06,-0.39,a
3949.0,3691.0,2718.0,4095.0,2755.0,2496.0,2801.0,2287.0,0.57,8.25,9.37,0.23,-0.06,-0.39,a
3949.0,3691.0,2718.0,4095.0,2755.0,2496.0,2801.0,2287.0,0.57,8.25,9.37,0.23,-0.06,-0.39,a
3949.0,3691.0,2718.0,4095.0,2755.0,2496.0,2801.0,2287.0,0.57,8.25,9.37,0.23,-0.06,-0.39,a
3949.0,3691.0,2718.0,4095.0,2755.0,2496.0,2801.0,2287.0,0.57,8.25,9.37,0.23,-0.06,-0.39,a
3949.0,3691.0,2718.0,4095.0,2755.0,2496.0,2801.0,2287.0,0.57,8.25,9.37,0.23,-0.06,-0.39,a
3938.0,3679.0,2736.0,4095.0,2762.0,2496.0,2801.0,2284.0,0.32,8.68,8.76,0.21,-0.01,-0.31,a
3938.0,3679.0,2736.0,4095.0,2762.0,2496.0,2801.0,2284.0,0.32,8.68,8.76,0.21,-0.01,-0.31,a
3938.0,3679.0,2736.0,4095.0,2762.0,2496.0,2801.0,2284.0,0.32,8.68,8.76,0.21,-0.01,-0.31,a
3938.0,3679.0,2736.0,4095.0,2762.0,2496.0,2801.0,2284.0,0.32,8.68,8.76,0.21,-0.01,-0.31,a
3938.0,3679.0,2736.0,4095.0,2762.0,2496.0,2801.0,2284.0,0.32,8.68,8.76,0.21,-0.01,-0.31,a
3938.0,3679.0,2736.0,4095.0,2762.0,2496.0,2801.0,2284.0,0.32,8.68,8.76,0.21,-0.01,-0.31,a
3938.0,3679.0,2736.0,4095.0,2762.0,2496.0,2801.0,2284.0,0.32,8.68,8.76,0.21,-0.01,-0.31,a
3938.0,3679.0,2736.0,4095.0,2762.0,2496.0,2801.0,2284.0,0.32,8.68,8.76,0.21,-0.01,-0.31,a
3938.0,3679.0,2736.0,4095.0,2762.0,2496.0,2801.0,2284.0,0.32,8.68,8.76,0.21,-0.01,-0.31,a
3938.0,3679.0,2736.0,4095.0,2762.0,2496.0,2801.0,2284.0,0.32,8.68,8.76,0.21,-0.01,-0.31,a
3938.0,3679.0,2736.0,4095.0,2762.0,2496.0,2801.0,2284.0,0.32,8.68,8.76,0.21,-0.01,-0.31,a
3938.0,3679.0,2736.0,4095.0,2762.0,2496.0,2801.0,2284.0,0.32,8.68,8.76,0.21,-0.01,-0.31,a
3938.0,3679.0,2736.0,4095.0,2762.0,2496.0,2801.0,2284.0,0.32,8.68,8.76,0.21,-0.01,-0.31,a
3938.0,3679.0,2736.0,4095.0,2762.0,2496.0,2801.0,2284.0,0.32,8.68,8.76,0.21,-0.01,-0.31,a
3938.0,3679.0,2736.0,4095.0,2762.0,2496.0,2801.0,2284.0,0.32,8.68,8.76,0.21,-0.01,-0.31,a
3938.0,3679.0,2736.0,4095.0,2762.0,2496.0,2801.0,2284.0,0.32,8.68,8.76,0.21,-0.01,-0.31,a
3938.0,3679.0,2736.0,4095.0,2762.0,2496.0,2801.0,2284.0,0.32,8.68,8.76,0.21,-0.01,-0.31,a
3938.0,3679.0,2736.0,4095.0,2762.0,2496.0,2801.0,2284.0,0.32,8.68,8.76,0.21,-0.01,-0.31,a
3938.0,3679.0,2736.0,4095.0,2762.0,2496.0,2801.0,2284.0,0.32,8.68,8.76,0.21,-0.01,-0.31,a
3938.0,3679.0,2736.0,4095.0,2762.0,2496.0,2801.0,2284.0,0.32,8.68,8.76,0.21,-0.01,-0.31,a
3953.0,3692.0,2733.0,4095.0,2761.0,2497.0,2805.0,2288.0,0.39,8.9,9.12,0.04,0.01,-0.19,a
3953.0,3692.0,2733.0,4095.0,2761.0,2497.0,2805.0,2288.0,0.39,8.9,9.12,0.04,0.01,-0.19,a
3953.0,3692.0,2733.0,4095.0,2761.0,2497.0,2805.0,2288.0,0.39,8.9,9.12,0.04,0.01,-0.19,a
3953.0,3692.0,2733.0,4095.0,2761.0,2497.0,2805.0,2288.0,0.39,8.9,9.12,0.04,0.01,-0.19,a
3953.0,3692.0,2733.0,4095.0,2761.0,2497.0,2805.0,2288.0,0.39,8.9,9.12,0.04,0.01,-0.19,a
3953.0,3692.0,2733.0,4095.0,2761.0,2497.0,2805.0,2288.0,0.39,8.9,9.12,0.04,0.01,-0.19,a
3953.0,3692.0,2733.0,4095.0,2761.0,2497.0,2805.0,2288.0,0.39,8.9,9.12,0.04,0.01,-0.19,a
3953.0,3692.0,2733.0,4095.0,2761.0,2497.0,2805.0,2288.0,0.39,8.9,9.12,0.04,0.01,-0.19,a
3953.0,3692.0,2733.0,4095.0,2761.0,2497.0,2805.0,2288.0,0.39,8.9,9.12,0.04,0.01,-0.19,a
3953.0,3692.0,2733.0,4095.0,2761.0,2497.0,2805.0,2288.0,0.39,8.9,9.12,0.04,0.01,-0.19,a
3953.0,3692.0,2733.0,4095.0,2761.0,2497.0,2805.0,2288.0,0.39,8.9,9.12,0.04,0.01,-0.19,a
3953.0,3692.0,2733.0,4095.0,2761.0,2497.0,2805.0,2288.0,0.39,8.9,9.12,0.04,0.01,-0.19,a
3953.0,3692.0,2733.0,4095.0,2761.0,2497.0,2805.0,2288.0,0.39,8.9,9.12,0.04,0.01,-0.19,a
3953.0,3692.0,2733.0,4095.0,2761.0,2497.0,2805.0,2288.0,0.39,8.9,9.12,0.04,0.01,-0.19,a
3953.0,3692.0,2733.0,4095.0,2761.0,2497.0,2805.0,2288.0,0.39,8.9,9.12,0.04,0.01,-0.19,a
3953.0,3692.0,2733.0,4095.0,2761.0,2497.0,2805.0,2288.0,0.39,8.9,9.12,0.04,0.01,-0.19,a
3953.0,3692.0,2733.0,4095.0,2761.0,2497.0,2805.0,2288.0,0.39,8.9,9.12,0.04,0.01,-0.19,a
3953.0,3692.0,2733.0,4095.0,2761.0,2497.0,2805.0,2288.0,0.39,8.9,9.12,0.04,0.01,-0.19,a
3953.0,3692.0,2733.0,4095.0,2761.0,2497.0,2805.0,2288.0,0.39,8.9,9.12,0.04,0.01,-0.19,a
3953.0,3692.0,2733.0,4095.0,2761.0,2497.0,2805.0,2288.0,0.39,8.9,9.12,0.04,0.01,-0.19,a
3958.0,3687.0,2727.0,4095.0,2764.0,2500.0,2802.0,2287.0,0.6,8.67,9.47,0.07,0.05,-0.18,a
3958.0,3687.0,2727.0,4095.0,2764.0,2500.0,2802.0,2287.0,0.6,8.67,9.47,0.07,0.05,-0.18,a
3958.0,3687.0,2727.0,4095.0,2764.0,2500.0,2802.0,2287.0,0.6,8.67,9.47,0.07,0.05,-0.18,a
3958.0,3687.0,2727.0,4095.0,2764.0,2500.0,2802.0,2287.0,0.6,8.67,9.47,0.07,0.05,-0.18,a
3958.0,3687.0,2727.0,4095.0,2764.0,2500.0,2802.0,2287.0,0.6,8.67,9.47,0.07,0.05,-0.18,a
3958.0,3687.0,2727.0,4095.0,2764.0,2500.0,2802.0,2287.0,0.6,8.67,9.47,0.07,0.05,-0.18,a
3958.0,3687.0,2727.0,4095.0,2764.0,2500.0,2802.0,2287.0,0.6,8.67,9.47,0.07,0.05,-0.18,a
3958.0,3687.0,2727.0,4095.0,2764.0,2500.0,2802.0,2287.0,0.6,8.67,9.47,0.07,0.05,-0.18,a
3958.0,3687.0,2727.0,4095.0,2764.0,2500.0,2802.0,2287.0,0.6,8.67,9.47,0.07,0.05,-0.18,a
3958.0,3687.0,2727.0,4095.0,2764.0,2500.0,2802.0,2287.0,0.6,8.67,9.47,0.07,0.05,-0.18,a
3958.0,3687.0,2727.0,4095.0,2764.0,2500.0,2802.0,2287.0,0.6,8.67,9.47,0.07,0.05,-0.18,a
3958.0,3687.0,2727.0,4095.0,2764.0,2500.0,2802.0,2287.0,0.6,8.67,9.47,0.07,0.05,-0.18,a
3958.0,3687.0,2727.0,4095.0,2764.0,2500.0,2802.0,2287.0,0.6,8.67,9.47,0.07,0.05,-0.18,a
3958.0,3687.0,2727.0,4095.0,2764.0,2500.0,2802.0,2287.0,0.6,8.67,9.47,0.07,0.05,-0.18,a
3958.0,3687.0,2727.0,4095.0,2764.0,2500.0,2802.0,2287.0,0.6,8.67,9.47,0.07,0.05,-0.18,a
3958.0,3687.0,2727.0,4095.0,2764.0,2500.0,2802.0,2287.0,0.6,8.67,9.47,0.07,0.05,-0.18,a
3958.0,3687.0,2727.0,4095.0,2764.0,2500.0,2802.0,2287.0,0.6,8.67,9.47,0.07,0.05,-0.18,a
3958.0,3687.0,2727.0,4095.0,2764.0,2500.0,2802.0,2287.0,0.6,8.67,9.47,0.07,0.05,-0.18,a
3958.0,3687.0,2727.0,4095.0,2764.0,2500.0,2802.0,2287.0,0.6,8.67,9.47,0.07,0.05,-0.18,a
3958.0,3687.0,2727.0,4095.0,2764.0,2500.0,2802.0,2287.0,0.6,8.67,9.47,0.07,0.05,-0.18,a
3943.0,3678.0,2715.0,4095.0,2756.0,2495.0,2801.0,2287.0,0.68,8.54,9.17,0.18,0.07,-0.23,a
3943.0,3678.0,2715.0,4095.0,2756.0,2495.0,2801.0,2287.0,0.68,8.54,9.17,0.18,0.07,-0.23,a
3943.0,3678.0,2715.0,4095.0,2756.0,2495.0,2801.0,2287.0,0.68,8.54,9.17,0.18,0.07,-0.23,a
3943.0,3678.0,2715.0,4095.0,2756.0,2495.0,2801.0,2287.0,0.68,8.54,9.17,0.18,0.07,-0.23,a
3943.0,3678.0,2715.0,4095.0,2756.0,2495.0,2801.0,2287.0,0.68,8.54,9.17,0.18,0.07,-0.23,a
3943.0,3678.0,2715.0,4095.0,2756.0,2495.0,2801.0,2287.0,0.68,8.54,9.17,0.18,0.07,-0.23,a
3943.0,3678.0,2715.0,4095.0,2756.0,2495.0,2801.0,2287.0,0.68,8.54,9.17,0.18,0.07,-0.23,a
3943.0,3678.0,2715.0,4095.0,2756.0,2495.0,2801.0,2287.0,0.68,8.54,9.17,0.18,0.07,-0.23,a
3943.0,3678.0,2715.0,4095.0,2756.0,2495.0,2801.0,2287.0,0.68,8.54,9.17,0.18,0.07,-0.23,a
3943.0,3678.0,2715.0,4095.0,2756.0,2495.0,2801.0,2287.0,0.68,8.54,9.17,0.18,0.07,-0.23,a
3943.0,3678.0,2715.0,4095.0,2756.0,2495.0,2801.0,2287.0,0.68,8.54,9.17,0.18,0.07,-0.23,a
3943.0,3678.0,2715.0,4095.0,2756.0,2495.0,2801.0,2287.0,0.68,8.54,9.17,0.18,0.07,-0.23,a
3943.0,3678.0,2715.0,4095.0,2756.0,2495.0,2801.0,2287.0,0.68,8.54,9.17,0.18,0.07,-0.23,a
3943.0,3678.0,2715.0,4095.0,2756.0,2495.0,2801.0,2287.0,0.68,8.54,9.17,0.18,0.07,-0.23,a
3943.0,3678.0,2715.0,4095.0,2756.0,2495.0,2801.0,2287.0,0.68,8.54,9.17,0.18,0.07,-0.23,a
3943.0,3678.0,2715.0,4095.0,2756.0,2495.0,2801.0,2287.0,0.68,8.54,9.17,0.18,0.07,-0.23,a
3943.0,3678.0,2715.0,4095.0,2756.0,2495.0,2801.0,2287.0,0.68,8.54,9.17,0.18,0.07,-0.23,a
3943.0,3678.0,2715.0,4095.0,2756.0,2495.0,2801.0,2287.0,0.68,8.54,9.17,0.18,0.07,-0.23,a
3943.0,3678.0,2715.0,4095.0,2756.0,2495.0,2801.0,2287.0,0.68,8.54,9.17,0.18,0.07,-0.23,a
3943.0,3678.0,2715.0,4095.0,2756.0,2495.0,2801.0,2287.0,0.68,8.54,9.17,0.18,0.07,-0.23,a
3942.0,3680.0,2727.0,4095.0,2758.0,2498.0,2801.0,2287.0,0.67,8.51,8.78,0.2,0.07,-0.29,a
3942.0,3680.0,2727.0,4095.0,2758.0,2498.0,2801.0,2287.0,0.67,8.51,8.78,0.2,0.07,-0.29,a
3942.0,3680.0,2727.0,4095.0,2758.0,2498.0,2801.0,2287.0,0.67,8.51,8.78,0.2,0.07,-0.29,a
3942.0,3680.0,2727.0,4095.0,2758.0,2498.0,2801.0,2287.0,0.67,8.51,8.78,0.2,0.07,-0.29,a
3942.0,3680.0,2727.0,4095.0,2758.0,2498.0,2801.0,2287.0,0.67,8.51,8.78,0.2,0.07,-0.29,a
3942.0,3680.0,2727.0,4095.0,2758.0,2498.0,2801.0,2287.0,0.67,8.51,8.78,0.2,0.07,-0.29,a
3942.0,3680.0,2727.0,4095.0,2758.0,2498.0,2801.0,2287.0,0.67,8.51,8.78,0.2,0.07,-0.29,a
3942.0,3680.0,2727.0,4095.0,2758.0,2498.0,2801.0,2287.0,0.67,8.51,8.78,0.2,0.07,-0.29,a
3942.0,3680.0,2727.0,4095.0,2758.0,2498.0,2801.0,2287.0,0.67,8.51,8.78,0.2,0.07,-0.29,a
3942.0,3680.0,2727.0,4095.0,2758.0,2498.0,2801.0,2287.0,0.67,8.51,8.78,0.2,0.07,-0.29,a
3942.0,3680.0,2727.0,4095.0,2758.0,2498.0,2801.0,2287.0,0.67,8.51,8.78,0.2,0.07,-0.29,a
3942.0,3680.0,2727.0,4095.0,2758.0,2498.0,2801.0,2287.0,0.67,8.51,8.78,0.2,0.07,-0.29,a
3942.0,3680.0,2727.0,4095.0,2758.0,2498.0,2801.0,2287.0,0.67,8.51,8.78,0.2,0.07,-0.29,a
3942.0,3680.0,2727.0,4095.0,2758.0,2498.0,2801.0,2287.0,0.67,8.51,8.78,0.2,0.07,-0.29,a
3942.0,3680.0,2727.0,4095.0,2758.0,2498.0,2801.0,2287.0,0.67,8.51,8.78,0.2,0.07,-0.29,a
3942.0,3680.0,2727.0,4095.0,2758.0,2498.0,2801.0,2287.0,0.67,8.51,8.78,0.2,0.07,-0.29,a
3942.0,3680.0,2727.0,4095.0,2758.0,2498.0,2801.0,2287.0,0.67,8.51,8.78,0.2,0.07,-0.29,a
3942.0,3680.0,2727.0,4095.0,2758.0,2498.0,2801.0,2287.0,0.67,8.51,8.78,0.2,0.07,-0.29,a
3942.0,3680.0,2727.0,4095.0,2758.0,2498.0,2801.0,2287.0,0.67,8.51,8.78,0.2,0.07,-0.29,a
3942.0,3680.0,2727.0,4095.0,2758.0,2498.0,2801.0,2287.0,0.67,8.51,8.78,0.2,0.07,-0.29,a
3930.0,3674.0,2723.0,4095.0,2756.0,2496.0,2800.0,2288.0,0.51,8.74,8.52,0.19,0.01,-0.33,a
3930.0,3674.0,2723.0,4095.0,2756.0,2496.0,2800.0,2288.0,0.51,8.74,8.52,0.19,0.01,-0.33,a
3930.0,3674.0,2723.0,4095.0,2756.0,2496.0,2800.0,2288.0,0.51,8.74,8.52,0.19,0.01,-0.33,a
3930.0,3674.0,2723.0,4095.0,2756.0,2496.0,2800.0,2288.0,0.51,8.74,8.52,0.19,0.01,-0.33,a
3930.0,3674.0,2723.0,4095.0,2756.0,2496.0,2800.0,2288.0,0.51,8.74,8.52,0.19,0.01,-0.33,a
3930.0,3674.0,2723.0,4095.0,2756.0,2496.0,2800.0,2288.0,0.51,8.74,8.52,0.19,0.01,-0.33,a
3930.0,3674.0,2723.0,4095.0,2756.0,2496.0,2800.0,2288.0,0.51,8.74,8.52,0.19,0.01,-0.33,a
3930.0,3674.0,2723.0,4095.0,2756.0,2496.0,2800.0,2288.0,0.51,8.74,8.52,0.19,0.01,-0.33,a
3930.0,3674.0,2723.0,4095.0,2756.0,2496.0,2800.0,2288.0,0.51,8.74,8.52,0.19,0.01,-0.33,a
3930.0,3674.0,2723.0,4095.0,2756.0,2496.0,2800.0,2288.0,0.51,8.74,8.52,0.19,0.01,-0.33,a
3930.0,3674.0,2723.0,4095.0,2756.0,2496.0,2800.0,2288.0,0.51,8.74,8.52,0.19,0.01,-0.33,a
3930.0,3674.0,2723.0,4095.0,2756.0,2496.0,2800.0,2288.0,0.51,8.74,8.52,0.19,0.01,-0.33,a
3930.0,3674.0,2723.0,4095.0,2756.0,2496.0,2800.0,2288.0,0.51,8.74,8.52,0.19,0.01,-0.33,a
3930.0,3674.0,2723.0,4095.0,2756.0,2496.0,2800.0,2288.0,0.51,8.74,8.52,0.19,0.01,-0.33,a
3930.0,3674.0,2723.0,4095.0,2756.0,2496.0,2800.0,2288.0,0.51,8.74,8.52,0.19,0.01,-0.33,a
3930.0,3674.0,2723.0,4095.0,2756.0,2496.0,2800.0,2288.0,0.51,8.74,8.52,0.19,0.01,-0.33,a
3930.0,3674.0,2723.0,4095.0,2756.0,2496.0,2800.0,2288.0,0.51,8.74,8.52,0.19,0.01,-0.33,a
3930.0,3674.0,2723.0,4095.0,2756.0,2496.0,2800.0,2288.0,0.51,8.74,8.52,0.19,0.01,-0.33,a
3930.0,3674.0,2723.0,4095.0,2756.0,2496.0,2800.0,2288.0,0.51,8.74,8.52,0.19,0.01,-0.33,a
3930.0,3674.0,2723.0,4095.0,2756.0,2496.0,2800.0,2288.0,0.51,8.74,8.52,0.19,0.01,-0.33,a
3949.0,3707.0,2731.0,4095.0,2762.0,2497.0,2802.0,2288.0,0.33,9.03,8.26,0.07,-0.08,-0.29,a
3949.0,3707.0,2731.0,4095.0,2762.0,2497.0,2802.0,2288.0,0.33,9.03,8.26,0.07,-0.08,-0.29,a
3949.0,3707.0,2731.0,4095.0,2762.0,2497.0,2802.0,2288.0,0.33,9.03,8.26,0.07,-0.08,-0.29,a
3949.0,3707.0,2731.0,4095.0,2762.0,2497.0,2802.0,2288.0,0.33,9.03,8.26,0.07,-0.08,-0.29,a
3949.0,3707.0,2731.0,4095.0,2762.0,2497.0,2802.0,2288.0,0.33,9.03,8.26,0.07,-0.08,-0.29,a
3949.0,3707.0,2731.0,4095.0,2762.0,2497.0,2802.0,2288.0,0.33,9.03,8.26,0.07,-0.08,-0.29,a
3949.0,3707.0,2731.0,4095.0,2762.0,2497.0,2802.0,2288.0,0.33,9.03,8.26,0.07,-0.08,-0.29,a
3949.0,3707.0,2731.0,4095.0,2762.0,2497.0,2802.0,2288.0,0.33,9.03,8.26,0.07,-0.08,-0.29,a
3949.0,3707.0,2731.0,4095.0,2762.0,2497.0,2802.0,2288.0,0.33,9.03,8.26,0.07,-0.08,-0.29,a
3949.0,3707.0,2731.0,4095.0,2762.0,2497.0,2802.0,2288.0,0.33,9.03,8.26,0.07,-0.08,-0.29,a
3949.0,3707.0,2731.0,4095.0,2762.0,2497.0,2802.0,2288.0,0.33,9.03,8.26,0.07,-0.08,-0.29,a
3949.0,3707.0,2731.0,4095.0,2762.0,2497.0,2802.0,2288.0,0.33,9.03,8.26,0.07,-0.08,-0.29,a
3949.0,3707.0,2731.0,4095.0,2762.0,2497.0,2802.0,2288.0,0.33,9.03,8.26,0.07,-0.08,-0.29,a
3949.0,3707.0,2731.0,4095.0,2762.0,2497.0,2802.0,2288.0,0.33,9.03,8.26,0.07,-0.08,-0.29,a
3949.0,3707.0,2731.0,4095.0,2762.0,2497.0,2802.0,2288.0,0.33,9.03,8.26,0.07,-0.08,-0.29,a
3949.0,3707.0,2731.0,4095.0,2762.0,2497.0,2802.0,2288.0,0.33,9.03,8.26,0.07,-0.08,-0.29,a
3949.0,3707.0,2731.0,4095.0,2762.0,2497.0,2802.0,2288.0,0.33,9.03,8.26,0.07,-0.08,-0.29,a
3949.0,3707.0,2731.0,4095.0,2762.0,2497.0,2802.0,2288.0,0.33,9.03,8.26,0.07,-0.08,-0.29,a
3949.0,3707.0,2731.0,4095.0,2762.0,2497.0,2802.0,2288.0,0.33,9.03,8.26,0.07,-0.08,-0.29,a
3949.0,3707.0,2731.0,4095.0,2762.0,2497.0,2802.0,2288.0,0.33,9.03,8.26,0.07,-0.08,-0.29,a
3945.0,3677.0,2732.0,4095.0,2759.0,2503.0,2801.0,2290.0,0.21,8.91,8.68,-0.09,0.0,-0.21,a
3945.0,3677.0,2732.0,4095.0,2759.0,2503.0,2801.0,2290.0,0.21,8.91,8.68,-0.09,0.0,-0.21,a
3945.0,3677.0,2732.0,4095.0,2759.0,2503.0,2801.0,2290.0,0.21,8.91,8.68,-0.09,0.0,-0.21,a
3945.0,3677.0,2732.0,4095.0,2759.0,2503.0,2801.0,2290.0,0.21,8.91,8.68,-0.09,0.0,-0.21,a
3945.0,3677.0,2732.0,4095.0,2759.0,2503.0,2801.0,2290.0,0.21,8.91,8.68,-0.09,0.0,-0.21,a
3945.0,3677.0,2732.0,4095.0,2759.0,2503.0,2801.0,2290.0,0.21,8.91,8.68,-0.09,0.0,-0.21,a
3945.0,3677.0,2732.0,4095.0,2759.0,2503.0,2801.0,2290.0,0.21,8.91,8.68,-0.09,0.0,-0.21,a
3945.0,3677.0,2732.0,4095.0,2759.0,2503.0,2801.0,2290.0,0.21,8.91,8.68,-0.09,0.0,-0.21,a
3945.0,3677.0,2732.0,4095.0,2759.0,2503.0,2801.0,2290.0,0.21,8.91,8.68,-0.09,0.0,-0.21,a
3945.0,3677.0,2732.0,4095.0,2759.0,2503.0,2801.0,2290.0,0.21,8.91,8.68,-0.09,0.0,-0.21,a
3945.0,3677.0,2732.0,4095.0,2759.0,2503.0,2801.0,2290.0,0.21,8.91,8.68,-0.09,0.0,-0.21,a
3945.0,3677.0,2732.0,4095.0,2759.0,2503.0,2801.0,2290.0,0.21,8.91,8.68,-0.09,0.0,-0.21,a
3945.0,3677.0,2732.0,4095.0,2759.0,2503.0,2801.0,2290.0,0.21,8.91,8.68,-0.09,0.0,-0.21,a
3945.0,3677.0,2732.0,4095.0,2759.0,2503.0,2801.0,2290.0,0.21,8.91,8.68,-0.09,0.0,-0.21,a
3945.0,3677.0,2732.0,4095.0,2759.0,2503.0,2801.0,2290.0,0.21,8.91,8.68,-0.09,0.0,-0.21,a
3945.0,3677.0,2732.0,4095.0,2759.0,2503.0,2801.0,2290.0,0.21,8.91,8.68,-0.09,0.0,-0.21,a
3945.0,3677.0,2732.0,4095.0,2759.0,2503.0,2801.0,2290.0,0.21,8.91,8.68,-0.09,0.0,-0.21,a
3945.0,3677.0,2732.0,4095.0,2759.0,2503.0,2801.0,2290.0,0.21,8.91,8.68,-0.09,0.0,-0.21,a
3945.0,3677.0,2732.0,4095.0,2759.0,2503.0,2801.0,2290.0,0.21,8.91,8.68,-0.09,0.0,-0.21,a
3945.0,3677.0,2732.0,4095.0,2759.0,2503.0,2801.0,2290.0,0.21,8.91,8.68,-0.09,0.0,-0.21,a
3952.0,3687.0,2725.0,4095.0,2759.0,2500.0,2800.0,2287.0,0.15,8.53,9.31,-0.05,0.02,-0.19,a
3952.0,3687.0,2725.0,4095.0,2759.0,2500.0,2800.0,2287.0,0.15,8.53,9.31,-0.05,0.02,-0.19,a
3952.0,3687.0,2725.0,4095.0,2759.0,2500.0,2800.0,2287.0,0.15,8.53,9.31,-0.05,0.02,-0.19,a
3952.0,3687.0,2725.0,4095.0,2759.0,2500.0,2800.0,2287.0,0.15,8.53,9.31,-0.05,0.02,-0.19,a
3952.0,3687.0,2725.0,4095.0,2759.0,2500.0,2800.0,2287.0,0.15,8.53,9.31,-0.05,0.02,-0.19,a
3952.0,3687.0,2725.0,4095.0,2759.0,2500.0,2800.0,2287.0,0.15,8.53,9.31,-0.05,0.02,-0.19,a
3952.0,3687.0,2725.0,4095.0,2759.0,2500.0,2800.0,2287.0,0.15,8.53,9.31,-0.05,0.02,-0.19,a
3952.0,3687.0,2725.0,4095.0,2759.0,2500.0,2800.0,2287.0,0.15,8.53,9.31,-0.05,0.02,-0.19,a
3952.0,3687.0,2725.0,4095.0,2759.0,2500.0,2800.0,2287.0,0.15,8.53,9.31,-0.05,0.02,-0.19,a
3952.0,3687.0,2725.0,4095.0,2759.0,2500.0,2800.0,2287.0,0.15,8.53,9.31,-0.05,0.02,-0.19,a
3952.0,3687.0,2725.0,4095.0,2759.0,2500.0,2800.0,2287.0,0.15,8.53,9.31,-0.05,0.02,-0.19,a
3952.0,3687.0,2725.0,4095.0,2759.0,2500.0,2800.0,2287.0,0.15,8.53,9.31,-0.05,0.02,-0.19,a
3952.0,3687.0,2725.0,4095.0,2759.0,2500.0,2800.0,2287.0,0.15,8.53,9.31,-0.05,0.02,-0.19,a
3952.0,3687.0,2725.0,4095.0,2759.0,2500.0,2800.0,2287.0,0.15,8.53,9.31,-0.05,0.02,-0.19,a
3952.0,3687.0,2725.0,4095.0,2759.0,2500.0,2800.0,2287.0,0.15,8.53,9.31,-0.05,0.02,-0.19,a
3952.0,3687.0,2725.0,4095.0,2759.0,2500.0,2800.0,2287.0,0.15,8.53,9.31,-0.05,0.02,-0.19,a
3952.0,3687.0,2725.0,4095.0,2759.0,2500.0,2800.0,2287.0,0.15,8.53,9.31,-0.05,0.02,-0.19,a
3952.0,3687.0,2725.0,4095.0,2759.0,2500.0,2800.0,2287.0,0.15,8.53,9.31,-0.05,0.02,-0.19,a
3952.0,3687.0,2725.0,4095.0,2759.0,2500.0,2800.0,2287.0,0.15,8.53,9.31,-0.05,0.02,-0.19,a
3952.0,3687.0,2725.0,4095.0,2759.0,2500.0,2800.0,2287.0,0.15,8.53,9.31,-0.05,0.02,-0.19,a
3943.0,3685.0,2727.0,4095.0,2756.0,2496.0,2801.0,2288.0,0.26,8.49,8.96,0.09,0.05,-0.2,a
3943.0,3685.0,2727.0,4095.0,2756.0,2496.0,2801.0,2288.0,0.26,8.49,8.96,0.09,0.05,-0.2,a
3943.0,3685.0,2727.0,4095.0,2756.0,2496.0,2801.0,2288.0,0.26,8.49,8.96,0.09,0.05,-0.2,a
3943.0,3685.0,2727.0,4095.0,2756.0,2496.0,2801.0,2288.0,0.26,8.49,8.96,0.09,0.05,-0.2,a
3943.0,3685.0,2727.0,4095.0,2756.0,2496.0,2801.0,2288.0,0.26,8.49,8.96,0.09,0.05,-0.2,a
3943.0,3685.0,2727.0,4095.0,2756.0,2496.0,2801.0,2288.0,0.26,8.49,8.96,0.09,0.05,-0.2,a
3943.0,3685.0,2727.0,4095.0,2756.0,2496.0,2801.0,2288.0,0.26,8.49,8.96,0.09,0.05,-0.2,a
3943.0,3685.0,2727.0,4095.0,2756.0,2496.0,2801.0,2288.0,0.26,8.49,8.96,0.09,0.05,-0.2,a
3943.0,3685.0,2727.0,4095.0,2756.0,2496.0,2801.0,2288.0,0.26,8.49,8.96,0.09,0.05,-0.2,a
3943.0,3685.0,2727.0,4095.0,2756.0,2496.0,2801.0,2288.0,0.26,8.49,8.96,0.09,0.05,-0.2,a
3943.0,3685.0,2727.0,4095.0,2756.0,2496.0,2801.0,2288.0,0.26,8.49,8.96,0.09,0.05,-0.2,a
3943.0,3685.0,2727.0,4095.0,2756.0,2496.0,2801.0,2288.0,0.26,8.49,8.96,0.09,0.05,-0.2,a
3943.0,3685.0,2727.0,4095.0,2756.0,2496.0,2801.0,2288.0,0.26,8.49,8.96,0.09,0.05,-0.2,a
3943.0,3685.0,2727.0,4095.0,2756.0,2496.0,2801.0,2288.0,0.26,8.49,8.96,0.09,0.05,-0.2,a
3943.0,3685.0,2727.0,4095.0,2756.0,2496.0,2801.0,2288.0,0.26,8.49,8.96,0.09,0.05,-0.2,a
3943.0,3685.0,2727.0,4095.0,2756.0,2496.0,2801.0,2288.0,0.26,8.49,8.96,0.09,0.05,-0.2,a
3943.0,3685.0,2727.0,4095.0,2756.0,2496.0,2801.0,2288.0,0.26,8.49,8.96,0.09,0.05,-0.2,a
3943.0,3685.0,2727.0,4095.0,2756.0,2496.0,2801.0,2288.0,0.26,8.49,8.96,0.09,0.05,-0.2,a
3943.0,3685.0,2727.0,4095.0,2756.0,2496.0,2801.0,2288.0,0.26,8.49,8.96,0.09,0.05,-0.2,a
3943.0,3685.0,2727.0,4095.0,2756.0,2496.0,2801.0,2288.0,0.26,8.49,8.96,0.09,0.05,-0.2,a
3939.0,3679.0,2717.0,4095.0,2758.0,2496.0,2800.0,2288.0,0.24,8.82,8.32,0.12,-0.01,-0.23,a
3939.0,3679.0,2717.0,4095.0,2758.0,2496.0,2800.0,2288.0,0.24,8.82,8.32,0.12,-0.01,-0.23,a
3939.0,3679.0,2717.0,4095.0,2758.0,2496.0,2800.0,2288.0,0.24,8.82,8.32,0.12,-0.01,-0.23,a
3939.0,3679.0,2717.0,4095.0,2758.0,2496.0,2800.0,2288.0,0.24,8.82,8.32,0.12,-0.01,-0.23,a
3939.0,3679.0,2717.0,4095.0,2758.0,2496.0,2800.0,2288.0,0.24,8.82,8.32,0.12,-0.01,-0.23,a
3939.0,3679.0,2717.0,4095.0,2758.0,2496.0,2800.0,2288.0,0.24,8.82,8.32,0.12,-0.01,-0.23,a
3939.0,3679.0,2717.0,4095.0,2758.0,2496.0,2800.0,2288.0,0.24,8.82,8.32,0.12,-0.01,-0.23,a
3939.0,3679.0,2717.0,4095.0,2758.0,2496.0,2800.0,2288.0,0.24,8.82,8.32,0.12,-0.01,-0.23,a
3939.0,3679.0,2717.0,4095.0,2758.0,2496.0,2800.0,2288.0,0.24,8.82,8.32,0.12,-0.01,-0.23,a
3939.0,3679.0,2717.0,4095.0,2758.0,2496.0,2800.0,2288.0,0.24,8.82,8.32,0.12,-0.01,-0.23,a
3939.0,3679.0,2717.0,4095.0,2758.0,2496.0,2800.0,2288.0,0.24,8.82,8.32,0.12,-0.01,-0.23,a
3939.0,3679.0,2717.0,4095.0,2758.0,2496.0,2800.0,2288.0,0.24,8.82,8.32,0.12,-0.01,-0.23,a
3939.0,3679.0,2717.0,4095.0,2758.0,2496.0,2800.0,2288.0,0.24,8.82,8.32,0.12,-0.01,-0.23,a
3939.0,3679.0,2717.0,4095.0,2758.0,2496.0,2800.0,2288.0,0.24,8.82,8.32,0.12,-0.01,-0.23,a
3939.0,3679.0,2717.0,4095.0,2758.0,2496.0,2800.0,2288.0,0.24,8.82,8.32,0.12,-0.01,-0.23,a
3939.0,3679.0,2717.0,4095.0,2758.0,2496.0,2800.0,2288.0,0.24,8.82,8.32,0.12,-0.01,-0.23,a
3939.0,3679.0,2717.0,4095.0,2758.0,2496.0,2800.0,2288.0,0.24,8.82,8.32,0.12,-0.01,-0.23,a
3939.0,3679.0,2717.0,4095.0,2758.0,2496.0,2800.0,2288.0,0.24,8.82,8.32,0.12,-0.01,-0.23,a
3939.0,3679.0,2717.0,4095.0,2758.0,2496.0,2800.0,2288.0,0.24,8.82,8.32,0.12,-0.01,-0.23,a
3939.0,3679.0,2717.0,4095.0,2758.0,2496.0,2800.0,2288.0,0.24,8.82,8.32,0.12,-0.01,-0.23,a
3933.0,3681.0,2727.0,4095.0,2755.0,2496.0,2800.0,2293.0,0.13,9.17,8.26,-0.03,-0.03,-0.18,a
3933.0,3681.0,2727.0,4095.0,2755.0,2496.0,2800.0,2293.0,0.13,9.17,8.26,-0.03,-0.03,-0.18,a
3933.0,3681.0,2727.0,4095.0,2755.0,2496.0,2800.0,2293.0,0.13,9.17,8.26,-0.03,-0.03,-0.18,a
3933.0,3681.0,2727.0,4095.0,2755.0,2496.0,2800.0,2293.0,0.13,9.17,8.26,-0.03,-0.03,-0.18,a
3933.0,3681.0,2727.0,4095.0,2755.0,2496.0,2800.0,2293.0,0.13,9.17,8.26,-0.03,-0.03,-0.18,a
3933.0,3681.0,2727.0,4095.0,2755.0,2496.0,2800.0,2293.0,0.13,9.17,8.26,-0.03,-0.03,-0.18,a
3933.0,3681.0,2727.0,4095.0,2755.0,2496.0,2800.0,2293.0,0.13,9.17,8.26,-0.03,-0.03,-0.18,a
3933.0,3681.0,2727.0,4095.0,2755.0,2496.0,2800.0,2293.0,0.13,9.17,8.26,-0.03,-0.03,-0.18,a
3933.0,3681.0,2727.0,4095.0,2755.0,2496.0,2800.0,2293.0,0.13,9.17,8.26,-0.03,-0.03,-0.18,a
3933.0,3681.0,2727.0,4095.0,2755.0,2496.0,2800.0,2293.0,0.13,9.17,8.26,-0.03,-0.03,-0.18,a
3933.0,3681.0,2727.0,4095.0,2755.0,2496.0,2800.0,2293.0,0.13,9.17,8.26,-0.03,-0.03,-0.18,a
3933.0,3681.0,2727.0,4095.0,2755.0,2496.0,2800.0,2293.0,0.13,9.17,8.26,-0.03,-0.03,-0.18,a
3933.0,3681.0,2727.0,4095.0,2755.0,2496.0,2800.0,2293.0,0.13,9.17,8.26,-0.03,-0.03,-0.18,a
3933.0,3681.0,2727.0,4095.0,2755.0,2496.0,2800.0,2293.0,0.13,9.17,8.26,-0.03,-0.03,-0.18,a
3933.0,3681.0,2727.0,4095.0,2755.0,2496.0,2800.0,2293.0,0.13,9.17,8.26,-0.03,-0.03,-0.18,a
3933.0,3681.0,2727.0,4095.0,2755.0,2496.0,2800.0,2293.0,0.13,9.17,8.26,-0.03,-0.03,-0.18,a
3933.0,3681.0,2727.0,4095.0,2755.0,2496.0,2800.0,2293.0,0.13,9.17,8.26,-0.03,-0.03,-0.18,a
3933.0,3681.0,2727.0,4095.0,2755.0,2496.0,2800.0,2293.0,0.13,9.17,8.26,-0.03,-0.03,-0.18,a
3933.0,3681.0,2727.0,4095.0,2755.0,2496.0,2800.0,2293.0,0.13,9.17,8.26,-0.03,-0.03,-0.18,a
3933.0,3681.0,2727.0,4095.0,2755.0,2496.0,2800.0,2293.0,0.13,9.17,8.26,-0.03,-0.03,-0.18,a
3949.0,3685.0,2731.0,4095.0,2767.0,2497.0,2801.0,2288.0,0.04,8.99,8.86,-0.15,-0.0,-0.15,a
3949.0,3685.0,2731.0,4095.0,2767.0,2497.0,2801.0,2288.0,0.04,8.99,8.86,-0.15,-0.0,-0.15,a
3949.0,3685.0,2731.0,4095.0,2767.0,2497.0,2801.0,2288.0,0.04,8.99,8.86,-0.15,-0.0,-0.15,a
3949.0,3685.0,2731.0,4095.0,2767.0,2497.0,2801.0,2288.0,0.04,8.99,8.86,-0.15,-0.0,-0.15,a
3949.0,3685.0,2731.0,4095.0,2767.0,2497.0,2801.0,2288.0,0.04,8.99,8.86,-0.15,-0.0,-0.15,a
3949.0,3685.0,2731.0,4095.0,2767.0,2497.0,2801.0,2288.0,0.04,8.99,8.86,-0.15,-0.0,-0.15,a
3949.0,3685.0,2731.0,4095.0,2767.0,2497.0,2801.0,2288.0,0.04,8.99,8.86,-0.15,-0.0,-0.15,a
3949.0,3685.0,2731.0,4095.0,2767.0,2497.0,2801.0,2288.0,0.04,8.99,8.86,-0.15,-0.0,-0.15,a
3949.0,3685.0,2731.0,4095.0,2767.0,2497.0,2801.0,2288.0,0.04,8.99,8.86,-0.15,-0.0,-0.15,a
3949.0,3685.0,2731.0,4095.0,2767.0,2497.0,2801.0,2288.0,0.04,8.99,8.86,-0.15,-0.0,-0.15,a
3949.0,3685.0,2731.0,4095.0,2767.0,2497.0,2801.0,2288.0,0.04,8.99,8.86,-0.15,-0.0,-0.15,a
3949.0,3685.0,2731.0,4095.0,2767.0,2497.0,2801.0,2288.0,0.04,8.99,8.86,-0.15,-0.0,-0.15,a
3949.0,3685.0,2731.0,4095.0,2767.0,2497.0,2801.0,2288.0,0.04,8.99,8.86,-0.15,-0.0,-0.15,a
3949.0,3685.0,2731.0,4095.0,2767.0,2497.0,2801.0,2288.0,0.04,8.99,8.86,-0.15,-0.0,-0.15,a
3949.0,3685.0,2731.0,4095.0,2767.0,2497.0,2801.0,2288.0,0.04,8.99,8.86,-0.15,-0.0,-0.15,a
3949.0,3685.0,2731.0,4095.0,2767.0,2497.0,2801.0,2288.0,0.04,8.99,8.86,-0.15,-0.0,-0.15,a
3949.0,3685.0,2731.0,4095.0,2767.0,2497.0,2801.0,2288.0,0.04,8.99,8.86,-0.15,-0.0,-0.15,a
3949.0,3685.0,2731.0,4095.0,2767.0,2497.0,2801.0,2288.0,0.04,8.99,8.86,-0.15,-0.0,-0.15,a
3949.0,3685.0,2731.0,4095.0,2767.0,2497.0,2801.0,2288.0,0.04,8.99,8.86,-0.15,-0.0,-0.15,a
3949.0,3685.0,2731.0,4095.0,2767.0,2497.0,2801.0,2288.0,0.04,8.99,8.86,-0.15,-0.0,-0.15,a
3953.0,3670.0,2729.0,4095.0,2757.0,2497.0,2800.0,2288.0,0.18,8.8,9.29,-0.03,0.02,-0.16,a
3953.0,3670.0,2729.0,4095.0,2757.0,2497.0,2800.0,2288.0,0.18,8.8,9.29,-0.03,0.02,-0.16,a
3953.0,3670.0,2729.0,4095.0,2757.0,2497.0,2800.0,2288.0,0.18,8.8,9.29,-0.03,0.02,-0.16,a
3953.0,3670.0,2729.0,4095.0,2757.0,2497.0,2800.0,2288.0,0.18,8.8,9.29,-0.03,0.02,-0.16,a
3953.0,3670.0,2729.0,4095.0,2757.0,2497.0,2800.0,2288.0,0.18,8.8,9.29,-0.03,0.02,-0.16,a
3953.0,3670.0,2729.0,4095.0,2757.0,2497.0,2800.0,2288.0,0.18,8.8,9.29,-0.03,0.02,-0.16,a
3953.0,3670.0,2729.0,4095.0,2757.0,2497.0,2800.0,2288.0,0.18,8.8,9.29,-0.03,0.02,-0.16,a
3953.0,3670.0,2729.0,4095.0,2757.0,2497.0,2800.0,2288.0,0.18,8.8,9.29,-0.03,0.02,-0.16,a
3953.0,3670.0,2729.0,4095.0,2757.0,2497.0,2800.0,2288.0,0.18,8.8,9.29,-0.03,0.02,-0.16,a
3953.0,3670.0,2729.0,4095.0,2757.0,2497.0,2800.0,2288.0,0.18,8.8,9.29,-0.03,0.02,-0.16,a
3953.0,3670.0,2729.0,4095.0,2757.0,2497.0,2800.0,2288.0,0.18,8.8,9.29,-0.03,0.02,-0.16,a
3953.0,3670.0,2729.0,4095.0,2757.0,2497.0,2800.0,2288.0,0.18,8.8,9.29,-0.03,0.02,-0.16,a
3953.0,3670.0,2729.0,4095.0,2757.0,2497.0,2800.0,2288.0,0.18,8.8,9.29,-0.03,0.02,-0.16,a
3953.0,3670.0,2729.0,4095.0,2757.0,2497.0,2800.0,2288.0,0.18,8.8,9.29,-0.03,0.02,-0.16,a
3953.0,3670.0,2729.0,4095.0,2757.0,2497.0,2800.0,2288.0,0.18,8.8,9.29,-0.03,0.02,-0.16,a
3953.0,3670.0,2729.0,4095.0,2757.0,2497.0,2800.0,2288.0,0.18,8.8,9.29,-0.03,0.02,-0.16,a
3953.0,3670.0,2729.0,4095.0,2757.0,2497.0,2800.0,2288.0,0.18,8.8,9.29,-0.03,0.02,-0.16,a
3953.0,3670.0,2729.0,4095.0,2757.0,2497.0,2800.0,2288.0,0.18,8.8,9.29,-0.03,0.02,-0.16,a
3953.0,3670.0,2729.0,4095.0,2757.0,2497.0,2800.0,2288.0,0.18,8.8,9.29,-0.03,0.02,-0.16,a
3953.0,3670.0,2729.0,4095.0,2757.0,2497.0,2800.0,2288.0,0.18,8.8,9.29,-0.03,0.02,-0.16,a
3962.0,3679.0,2730.0,4095.0,2765.0,2495.0,2800.0,2288.0,0.23,8.78,8.93,0.09,0.0,-0.21,a
3962.0,3679.0,2730.0,4095.0,2765.0,2495.0,2800.0,2288.0,0.23,8.78,8.93,0.09,0.0,-0.21,a
3962.0,3679.0,2730.0,4095.0,2765.0,2495.0,2800.0,2288.0,0.23,8.78,8.93,0.09,0.0,-0.21,a
3962.0,3679.0,2730.0,4095.0,2765.0,2495.0,2800.0,2288.0,0.23,8.78,8.93,0.09,0.0,-0.21,a
3962.0,3679.0,2730.0,4095.0,2765.0,2495.0,2800.0,2288.0,0.23,8.78,8.93,0.09,0.0,-0.21,a
3962.0,3679.0,2730.0,4095.0,2765.0,2495.0,2800.0,2288.0,0.23,8.78,8.93,0.09,0.0,-0.21,a
3962.0,3679.0,2730.0,4095.0,2765.0,2495.0,2800.0,2288.0,0.23,8.78,8.93,0.09,0.0,-0.21,a
3962.0,3679.0,2730.0,4095.0,2765.0,2495.0,2800.0,2288.0,0.23,8.78,8.93,0.09,0.0,-0.21,a
3962.0,3679.0,2730.0,4095.0,2765.0,2495.0,2800.0,2288.0,0.23,8.78,8.93,0.09,0.0,-0.21,a
3962.0,3679.0,2730.0,4095.0,2765.0,2495.0,2800.0,2288.0,0.23,8.78,8.93,0.09,0.0,-0.21,a
3962.0,3679.0,2730.0,4095.0,2765.0,2495.0,2800.0,2288.0,0.23,8.78,8.93,0.09,0.0,-0.21,a
3962.0,3679.0,2730.0,4095.0,2765.0,2495.0,2800.0,2288.0,0.23,8.78,8.93,0.09,0.0,-0.21,a
3962.0,3679.0,2730.0,4095.0,2765.0,2495.0,2800.0,2288.0,0.23,8.78,8.93,0.09,0.0,-0.21,a
3962.0,3679.0,2730.0,4095.0,2765.0,2495.0,2800.0,2288.0,0.23,8.78,8.93,0.09,0.0,-0.21,a
3962.0,3679.0,2730.0,4095.0,2765.0,2495.0,2800.0,2288.0,0.23,8.78,8.93,0.09,0.0,-0.21,a
3962.0,3679.0,2730.0,4095.0,2765.0,2495.0,2800.0,2288.0,0.23,8.78,8.93,0.09,0.0,-0.21,a
3962.0,3679.0,2730.0,4095.0,2765.0,2495.0,2800.0,2288.0,0.23,8.78,8.93,0.09,0.0,-0.21,a
3962.0,3679.0,2730.0,4095.0,2765.0,2495.0,2800.0,2288.0,0.23,8.78,8.93,0.09,0.0,-0.21,a
3962.0,3679.0,2730.0,4095.0,2765.0,2495.0,2800.0,2288.0,0.23,8.78,8.93,0.09,0.0,-0.21,a
3962.0,3679.0,2730.0,4095.0,2765.0,2495.0,2800.0,2288.0,0.23,8.78,8.93,0.09,0.0,-0.21,a
3954.0,3678.0,2718.0,4095.0,2756.0,2495.0,2800.0,2288.0,0.15,8.9,8.69,0.11,0.0,-0.23,a
3954.0,3678.0,2718.0,4095.0,2756.0,2495.0,2800.0,2288.0,0.15,8.9,8.69,0.11,0.0,-0.23,a
3954.0,3678.0,2718.0,4095.0,2756.0,2495.0,2800.0,2288.0,0.15,8.9,8.69,0.11,0.0,-0.23,a
3954.0,3678.0,2718.0,4095.0,2756.0,2495.0,2800.0,2288.0,0.15,8.9,8.69,0.11,0.0,-0.23,a
3954.0,3678.0,2718.0,4095.0,2756.0,2495.0,2800.0,2288.0,0.15,8.9,8.69,0.11,0.0,-0.23,a
3954.0,3678.0,2718.0,4095.0,2756.0,2495.0,2800.0,2288.0,0.15,8.9,8.69,0.11,0.0,-0.23,a
3954.0,3678.0,2718.0,4095.0,2756.0,2495.0,2800.0,2288.0,0.15,8.9,8.69,0.11,0.0,-0.23,a
3954.0,3678.0,2718.0,4095.0,2756.0,2495.0,2800.0,2288.0,0.15,8.9,8.69,0.11,0.0,-0.23,a
3954.0,3678.0,2718.0,4095.0,2756.0,2495.0,2800.0,2288.0,0.15,8.9,8.69,0.11,0.0,-0.23,a
3954.0,3678.0,2718.0,4095.0,2756.0,2495.0,2800.0,2288.0,0.15,8.9,8.69,0.11,0.0,-0.23,a
3954.0,3678.0,2718.0,4095.0,2756.0,2495.0,2800.0,2288.0,0.15,8.9,8.69,0.11,0.0,-0.23,a
3954.0,3678.0,2718.0,4095.0,2756.0,2495.0,2800.0,2288.0,0.15,8.9,8.69,0.11,0.0,-0.23,a
3954.0,3678.0,2718.0,4095.0,2756.0,2495.0,2800.0,2288.0,0.15,8.9,8.69,0.11,0.0,-0.23,a
3954.0,3678.0,2718.0,4095.0,2756.0,2495.0,2800.0,2288.0,0.15,8.9,8.69,0.11,0.0,-0.23,a
3954.0,3678.0,2718.0,4095.0,2756.0,2495.0,2800.0,2288.0,0.15,8.9,8.69,0.11,0.0,-0.23,a
3954.0,3678.0,2718.0,4095.0,2756.0,2495.0,2800.0,2288.0,0.15,8.9,8.69,0.11,0.0,-0.23,a
3954.0,3678.0,2718.0,4095.0,2756.0,2495.0,2800.0,2288.0,0.15,8.9,8.69,0.11,0.0,-0.23,a
3954.0,3678.0,2718.0,4095.0,2756.0,2495.0,2800.0,2288.0,0.15,8.9,8.69,0.11,0.0,-0.23,a
3954.0,3678.0,2718.0,4095.0,2756.0,2495.0,2800.0,2288.0,0.15,8.9,8.69,0.11,0.0,-0.23,a
3954.0,3678.0,2718.0,4095.0,2756.0,2495.0,2800.0,2288.0,0.15,8.9,8.69,0.11,0.0,-0.23,a
3959.0,3680.0,2735.0,4095.0,2767.0,2504.0,2802.0,2288.0,0.09,9.07,8.49,0.03,-0.02,-0.19,a
3959.0,3680.0,2735.0,4095.0,2767.0,2504.0,2802.0,2288.0,0.09,9.07,8.49,0.03,-0.02,-0.19,a
3959.0,3680.0,2735.0,4095.0,2767.0,2504.0,2802.0,2288.0,0.09,9.07,8.49,0.03,-0.02,-0.19,a
3959.0,3680.0,2735.0,4095.0,2767.0,2504.0,2802.0,2288.0,0.09,9.07,8.49,0.03,-0.02,-0.19,a
3959.0,3680.0,2735.0,4095.0,2767.0,2504.0,2802.0,2288.0,0.09,9.07,8.49,0.03,-0.02,-0.19,a
3959.0,3680.0,2735.0,4095.0,2767.0,2504.0,2802.0,2288.0,0.09,9.07,8.49,0.03,-0.02,-0.19,a
3959.0,3680.0,2735.0,4095.0,2767.0,2504.0,2802.0,2288.0,0.09,9.07,8.49,0.03,-0.02,-0.19,a
3959.0,3680.0,2735.0,4095.0,2767.0,2504.0,2802.0,2288.0,0.09,9.07,8.49,0.03,-0.02,-0.19,a
3959.0,3680.0,2735.0,4095.0,2767.0,2504.0,2802.0,2288.0,0.09,9.07,8.49,0.03,-0.02,-0.19,a
3959.0,3680.0,2735.0,4095.0,2767.0,2504.0,2802.0,2288.0,0.09,9.07,8.49,0.03,-0.02,-0.19,a
3959.0,3680.0,2735.0,4095.0,2767.0,2504.0,2802.0,2288.0,0.09,9.07,8.49,0.03,-0.02,-0.19,a
3959.0,3680.0,2735.0,4095.0,2767.0,2504.0,2802.0,2288.0,0.09,9.07,8.49,0.03,-0.02,-0.19,a
3959.0,3680.0,2735.0,4095.0,2767.0,2504.0,2802.0,2288.0,0.09,9.07,8.49,0.03,-0.02,-0.19,a
3959.0,3680.0,2735.0,4095.0,2767.0,2504.0,2802.0,2288.0,0.09,9.07,8.49,0.03,-0.02,-0.19,a
3959.0,3680.0,2735.0,4095.0,2767.0,2504.0,2802.0,2288.0,0.09,9.07,8.49,0.03,-0.02,-0.19,a
3959.0,3680.0,2735.0,4095.0,2767.0,2504.0,2802.0,2288.0,0.09,9.07,8.49,0.03,-0.02,-0.19,a
3959.0,3680.0,2735.0,4095.0,2767.0,2504.0,2802.0,2288.0,0.09,9.07,8.49,0.03,-0.02,-0.19,a
3959.0,3680.0,2735.0,4095.0,2767.0,2504.0,2802.0,2288.0,0.09,9.07,8.49,0.03,-0.02,-0.19,a
3959.0,3680.0,2735.0,4095.0,2767.0,2504.0,2802.0,2288.0,0.09,9.07,8.49,0.03,-0.02,-0.19,a
3959.0,3680.0,2735.0,4095.0,2767.0,2504.0,2802.0,2288.0,0.09,9.07,8.49,0.03,-0.02,-0.19,a
3925.0,3671.0,2723.0,4095.0,2765.0,2503.0,2800.0,2290.0,0.13,8.84,8.85,0.02,-0.04,-0.19,a
3925.0,3671.0,2723.0,4095.0,2765.0,2503.0,2800.0,2290.0,0.13,8.84,8.85,0.02,-0.04,-0.19,a
3925.0,3671.0,2723.0,4095.0,2765.0,2503.0,2800.0,2290.0,0.13,8.84,8.85,0.02,-0.04,-0.19,a
3925.0,3671.0,2723.0,4095.0,2765.0,2503.0,2800.0,2290.0,0.13,8.84,8.85,0.02,-0.04,-0.19,a
3925.0,3671.0,2723.0,4095.0,2765.0,2503.0,2800.0,2290.0,0.13,8.84,8.85,0.02,-0.04,-0.19,a
3925.0,3671.0,2723.0,4095.0,2765.0,2503.0,2800.0,2290.0,0.13,8.84,8.85,0.02,-0.04,-0.19,a
3925.0,3671.0,2723.0,4095.0,2765.0,2503.0,2800.0,2290.0,0.13,8.84,8.85,0.02,-0.04,-0.19,a
3925.0,3671.0,2723.0,4095.0,2765.0,2503.0,2800.0,2290.0,0.13,8.84,8.85,0.02,-0.04,-0.19,a
3925.0,3671.0,2723.0,4095.0,2765.0,2503.0,2800.0,2290.0,0.13,8.84,8.85,0.02,-0.04,-0.19,a
3925.0,3671.0,2723.0,4095.0,2765.0,2503.0,2800.0,2290.0,0.13,8.84,8.85,0.02,-0.04,-0.19,a
3925.0,3671.0,2723.0,4095.0,2765.0,2503.0,2800.0,2290.0,0.13,8.84,8.85,0.02,-0.04,-0.19,a
3925.0,3671.0,2723.0,4095.0,2765.0,2503.0,2800.0,2290.0,0.13,8.84,8.85,0.02,-0.04,-0.19,a
3925.0,3671.0,2723.0,4095.0,2765.0,2503.0,2800.0,2290.0,0.13,8.84,8.85,0.02,-0.04,-0.19,a
3925.0,3671.0,2723.0,4095.0,2765.0,2503.0,2800.0,2290.0,0.13,8.84,8.85,0.02,-0.04,-0.19,a
3925.0,3671.0,2723.0,4095.0,2765.0,2503.0,2800.0,2290.0,0.13,8.84,8.85,0.02,-0.04,-0.19,a
3925.0,3671.0,2723.0,4095.0,2765.0,2503.0,2800.0,2290.0,0.13,8.84,8.85,0.02,-0.04,-0.19,a
3925.0,3671.0,2723.0,4095.0,2765.0,2503.0,2800.0,2290.0,0.13,8.84,8.85,0.02,-0.04,-0.19,a
3925.0,3671.0,2723.0,4095.0,2765.0,2503.0,2800.0,2290.0,0.13,8.84,8.85,0.02,-0.04,-0.19,a
3925.0,3671.0,2723.0,4095.0,2765.0,2503.0,2800.0,2290.0,0.13,8.84,8.85,0.02,-0.04,-0.19,a
3925.0,3671.0,2723.0,4095.0,2765.0,2503.0,2800.0,2290.0,0.13,8.84,8.85,0.02,-0.04,-0.19,a
3943.0,3664.0,2719.0,4095.0,2763.0,2506.0,2806.0,2289.0,0.25,8.77,8.91,0.06,-0.01,-0.21,a
3943.0,3664.0,2719.0,4095.0,2763.0,2506.0,2806.0,2289.0,0.25,8.77,8.91,0.06,-0.01,-0.21,a
3943.0,3664.0,2719.0,4095.0,2763.0,2506.0,2806.0,2289.0,0.25,8.77,8.91,0.06,-0.01,-0.21,a
3943.0,3664.0,2719.0,4095.0,2763.0,2506.0,2806.0,2289.0,0.25,8.77,8.91,0.06,-0.01,-0.21,a
3943.0,3664.0,2719.0,4095.0,2763.0,2506.0,2806.0,2289.0,0.25,8.77,8.91,0.06,-0.01,-0.21,a
3943.0,3664.0,2719.0,4095.0,2763.0,2506.0,2806.0,2289.0,0.25,8.77,8.91,0.06,-0.01,-0.21,a
3943.0,3664.0,2719.0,4095.0,2763.0,2506.0,2806.0,2289.0,0.25,8.77,8.91,0.06,-0.01,-0.21,a
3943.0,3664.0,2719.0,4095.0,2763.0,2506.0,2806.0,2289.0,0.25,8.77,8.91,0.06,-0.01,-0.21,a
3943.0,3664.0,2719.0,4095.0,2763.0,2506.0,2806.0,2289.0,0.25,8.77,8.91,0.06,-0.01,-0.21,a
3943.0,3664.0,2719.0,4095.0,2763.0,2506.0,2806.0,2289.0,0.25,8.77,8.91,0.06,-0.01,-0.21,a
3943.0,3664.0,2719.0,4095.0,2763.0,2506.0,2806.0,2289.0,0.25,8.77,8.91,0.06,-0.01,-0.21,a
3943.0,3664.0,2719.0,4095.0,2763.0,2506.0,2806.0,2289.0,0.25,8.77,8.91,0.06,-0.01,-0.21,a
3943.0,3664.0,2719.0,4095.0,2763.0,2506.0,2806.0,2289.0,0.25,8.77,8.91,0.06,-0.01,-0.21,a
3943.0,3664.0,2719.0,4095.0,2763.0,2506.0,2806.0,2289.0,0.25,8.77,8.91,0.06,-0.01,-0.21,a
3943.0,3664.0,2719.0,4095.0,2763.0,2506.0,2806.0,2289.0,0.25,8.77,8.91,0.06,-0.01,-0.21,a
3943.0,3664.0,2719.0,4095.0,2763.0,2506.0,2806.0,2289.0,0.25,8.77,8.91,0.06,-0.01,-0.21,a
3943.0,3664.0,2719.0,4095.0,2763.0,2506.0,2806.0,2289.0,0.25,8.77,8.91,0.06,-0.01,-0.21,a
3943.0,3664.0,2719.0,4095.0,2763.0,2506.0,2806.0,2289.0,0.25,8.77,8.91,0.06,-0.01,-0.21,a
3943.0,3664.0,2719.0,4095.0,2763.0,2506.0,2806.0,2289.0,0.25,8.77,8.91,0.06,-0.01,-0.21,a
3943.0,3664.0,2719.0,4095.0,2763.0,2506.0,2806.0,2289.0,0.25,8.77,8.91,0.06,-0.01,-0.21,a
3947.0,3645.0,2729.0,4095.0,2764.0,2501.0,2804.0,2294.0,0.47,8.55,9.44,0.19,-0.11,-0.33,a
3947.0,3645.0,2729.0,4095.0,2764.0,2501.0,2804.0,2294.0,0.47,8.55,9.44,0.19,-0.11,-0.33,a
3947.0,3645.0,2729.0,4095.0,2764.0,2501.0,2804.0,2294.0,0.47,8.55,9.44,0.19,-0.11,-0.33,a
3947.0,3645.0,2729.0,4095.0,2764.0,2501.0,2804.0,2294.0,0.47,8.55,9.44,0.19,-0.11,-0.33,a
3947.0,3645.0,2729.0,4095.0,2764.0,2501.0,2804.0,2294.0,0.47,8.55,9.44,0.19,-0.11,-0.33,a
3947.0,3645.0,2729.0,4095.0,2764.0,2501.0,2804.0,2294.0,0.47,8.55,9.44,0.19,-0.11,-0.33,a
3947.0,3645.0,2729.0,4095.0,2764.0,2501.0,2804.0,2294.0,0.47,8.55,9.44,0.19,-0.11,-0.33,a
3947.0,3645.0,2729.0,4095.0,2764.0,2501.0,2804.0,2294.0,0.47,8.55,9.44,0.19,-0.11,-0.33,a
3947.0,3645.0,2729.0,4095.0,2764.0,2501.0,2804.0,2294.0,0.47,8.55,9.44,0.19,-0.11,-0.33,a
3947.0,3645.0,2729.0,4095.0,2764.0,2501.0,2804.0,2294.0,0.47,8.55,9.44,0.19,-0.11,-0.33,a
3947.0,3645.0,2729.0,4095.0,2764.0,2501.0,2804.0,2294.0,0.47,8.55,9.44,0.19,-0.11,-0.33,a
3947.0,3645.0,2729.0,4095.0,2764.0,2501.0,2804.0,2294.0,0.47,8.55,9.44,0.19,-0.11,-0.33,a
3947.0,3645.0,2729.0,4095.0,2764.0,2501.0,2804.0,2294.0,0.47,8.55,9.44,0.19,-0.11,-0.33,a
3947.0,3645.0,2729.0,4095.0,2764.0,2501.0,2804.0,2294.0,0.47,8.55,9.44,0.19,-0.11,-0.33,a
3947.0,3645.0,2729.0,4095.0,2764.0,2501.0,2804.0,2294.0,0.47,8.55,9.44,0.19,-0.11,-0.33,a
3947.0,3645.0,2729.0,4095.0,2764.0,2501.0,2804.0,2294.0,0.47,8.55,9.44,0.19,-0.11,-0.33,a
3947.0,3645.0,2729.0,4095.0,2764.0,2501.0,2804.0,2294.0,0.47,8.55,9.44,0.19,-0.11,-0.33,a
3947.0,3645.0,2729.0,4095.0,2764.0,2501.0,2804.0,2294.0,0.47,8.55,9.44,0.19,-0.11,-0.33,a
3947.0,3645.0,2729.0,4095.0,2764.0,2501.0,2804.0,2294.0,0.47,8.55,9.44,0.19,-0.11,-0.33,a
3947.0,3645.0,2729.0,4095.0,2764.0,2501.0,2804.0,2294.0,0.47,8.55,9.44,0.19,-0.11,-0.33,a
3937.0,3634.0,2724.0,4095.0,2762.0,2497.0,2801.0,2294.0,0.15,8.98,10.05,0.42,-0.3,-0.53,a
3937.0,3634.0,2724.0,4095.0,2762.0,2497.0,2801.0,2294.0,0.15,8.98,10.05,0.42,-0.3,-0.53,a
3937.0,3634.0,2724.0,4095.0,2762.0,2497.0,2801.0,2294.0,0.15,8.98,10.05,0.42,-0.3,-0.53,a
3937.0,3634.0,2724.0,4095.0,2762.0,2497.0,2801.0,2294.0,0.15,8.98,10.05,0.42,-0.3,-0.53,a
3937.0,3634.0,2724.0,4095.0,2762.0,2497.0,2801.0,2294.0,0.15,8.98,10.05,0.42,-0.3,-0.53,a
3937.0,3634.0,2724.0,4095.0,2762.0,2497.0,2801.0,2294.0,0.15,8.98,10.05,0.42,-0.3,-0.53,a
3937.0,3634.0,2724.0,4095.0,2762.0,2497.0,2801.0,2294.0,0.15,8.98,10.05,0.42,-0.3,-0.53,a
3937.0,3634.0,2724.0,4095.0,2762.0,2497.0,2801.0,2294.0,0.15,8.98,10.05,0.42,-0.3,-0.53,a
3937.0,3634.0,2724.0,4095.0,2762.0,2497.0,2801.0,2294.0,0.15,8.98,10.05,0.42,-0.3,-0.53,a
3937.0,3634.0,2724.0,4095.0,2762.0,2497.0,2801.0,2294.0,0.15,8.98,10.05,0.42,-0.3,-0.53,a
3937.0,3634.0,2724.0,4095.0,2762.0,2497.0,2801.0,2294.0,0.15,8.98,10.05,0.42,-0.3,-0.53,a
3937.0,3634.0,2724.0,4095.0,2762.0,2497.0,2801.0,2294.0,0.15,8.98,10.05,0.42,-0.3,-0.53,a
3937.0,3634.0,2724.0,4095.0,2762.0,2497.0,2801.0,2294.0,0.15,8.98,10.05,0.42,-0.3,-0.53,a
3937.0,3634.0,2724.0,4095.0,2762.0,2497.0,2801.0,2294.0,0.15,8.98,10.05,0.42,-0.3,-0.53,a
3937.0,3634.0,2724.0,4095.0,2762.0,2497.0,2801.0,2294.0,0.15,8.98,10.05,0.42,-0.3,-0.53,a
3937.0,3634.0,2724.0,4095.0,2762.0,2497.0,2801.0,2294.0,0.15,8.98,10.05,0.42,-0.3,-0.53,a
3937.0,3634.0,2724.0,4095.0,2762.0,2497.0,2801.0,2294.0,0.15,8.98,10.05,0.42,-0.3,-0.53,a
3937.0,3634.0,2724.0,4095.0,2762.0,2497.0,2801.0,2294.0,0.15,8.98,10.05,0.42,-0.3,-0.53,a
3937.0,3634.0,2724.0,4095.0,2762.0,2497.0,2801.0,2294.0,0.15,8.98,10.05,0.42,-0.3,-0.53,a
3937.0,3634.0,2724.0,4095.0,2762.0,2497.0,2801.0,2294.0,0.15,8.98,10.05,0.42,-0.3,-0.53,a
3934.0,3623.0,2717.0,4095.0,2763.0,2499.0,2805.0,2293.0,-0.55,9.25,8.88,0.65,-0.44,-0.4,a
3934.0,3623.0,2717.0,4095.0,2763.0,2499.0,2805.0,2293.0,-0.55,9.25,8.88,0.65,-0.44,-0.4,a
3934.0,3623.0,2717.0,4095.0,2763.0,2499.0,2805.0,2293.0,-0.55,9.25,8.88,0.65,-0.44,-0.4,a
3934.0,3623.0,2717.0,4095.0,2763.0,2499.0,2805.0,2293.0,-0.55,9.25,8.88,0.65,-0.44,-0.4,a
3934.0,3623.0,2717.0,4095.0,2763.0,2499.0,2805.0,2293.0,-0.55,9.25,8.88,0.65,-0.44,-0.4,a
3934.0,3623.0,2717.0,4095.0,2763.0,2499.0,2805.0,2293.0,-0.55,9.25,8.88,0.65,-0.44,-0.4,a
3934.0,3623.0,2717.0,4095.0,2763.0,2499.0,2805.0,2293.0,-0.55,9.25,8.88,0.65,-0.44,-0.4,a
3934.0,3623.0,2717.0,4095.0,2763.0,2499.0,2805.0,2293.0,-0.55,9.25,8.88,0.65,-0.44,-0.4,a
3934.0,3623.0,2717.0,4095.0,2763.0,2499.0,2805.0,2293.0,-0.55,9.25,8.88,0.65,-0.44,-0.4,a
3934.0,3623.0,2717.0,4095.0,2763.0,2499.0,2805.0,2293.0,-0.55,9.25,8.88,0.65,-0.44,-0.4,a
3934.0,3623.0,2717.0,4095.0,2763.0,2499.0,2805.0,2293.0,-0.55,9.25,8.88,0.65,-0.44,-0.4,a
3934.0,3623.0,2717.0,4095.0,2763.0,2499.0,2805.0,2293.0,-0.55,9.25,8.88,0.65,-0.44,-0.4,a
3934.0,3623.0,2717.0,4095.0,2763.0,2499.0,2805.0,2293.0,-0.55,9.25,8.88,0.65,-0.44,-0.4,a
3934.0,3623.0,2717.0,4095.0,2763.0,2499.0,2805.0,2293.0,-0.55,9.25,8.88,0.65,-0.44,-0.4,a
3934.0,3623.0,2717.0,4095.0,2763.0,2499.0,2805.0,2293.0,-0.55,9.25,8.88,0.65,-0.44,-0.4,a
3934.0,3623.0,2717.0,4095.0,2763.0,2499.0,2805.0,2293.0,-0.55,9.25,8.88,0.65,-0.44,-0.4,a
3934.0,3623.0,2717.0,4095.0,2763.0,2499.0,2805.0,2293.0,-0.55,9.25,8.88,0.65,-0.44,-0.4,a
3934.0,3623.0,2717.0,4095.0,2763.0,2499.0,2805.0,2293.0,-0.55,9.25,8.88,0.65,-0.44,-0.4,a
3934.0,3623.0,2717.0,4095.0,2763.0,2499.0,2805.0,2293.0,-0.55,9.25,8.88,0.65,-0.44,-0.4,a
3934.0,3623.0,2717.0,4095.0,2763.0,2499.0,2805.0,2293.0,-0.55,9.25,8.88,0.65,-0.44,-0.4,a
3941.0,3634.0,2726.0,4095.0,2763.0,2490.0,2800.0,2290.0,0.12,9.44,7.84,0.64,-0.4,-0.39,a
3941.0,3634.0,2726.0,4095.0,2763.0,2490.0,2800.0,2290.0,0.12,9.44,7.84,0.64,-0.4,-0.39,a
3941.0,3634.0,2726.0,4095.0,2763.0,2490.0,2800.0,2290.0,0.12,9.44,7.84,0.64,-0.4,-0.39,a
3941.0,3634.0,2726.0,4095.0,2763.0,2490.0,2800.0,2290.0,0.12,9.44,7.84,0.64,-0.4,-0.39,a
3941.0,3634.0,2726.0,4095.0,2763.0,2490.0,2800.0,2290.0,0.12,9.44,7.84,0.64,-0.4,-0.39,a
3941.0,3634.0,2726.0,4095.0,2763.0,2490.0,2800.0,2290.0,0.12,9.44,7.84,0.64,-0.4,-0.39,a
3941.0,3634.0,2726.0,4095.0,2763.0,2490.0,2800.0,2290.0,0.12,9.44,7.84,0.64,-0.4,-0.39,a
3941.0,3634.0,2726.0,4095.0,2763.0,2490.0,2800.0,2290.0,0.12,9.44,7.84,0.64,-0.4,-0.39,a
3941.0,3634.0,2726.0,4095.0,2763.0,2490.0,2800.0,2290.0,0.12,9.44,7.84,0.64,-0.4,-0.39,a
3941.0,3634.0,2726.0,4095.0,2763.0,2490.0,2800.0,2290.0,0.12,9.44,7.84,0.64,-0.4,-0.39,a
3941.0,3634.0,2726.0,4095.0,2763.0,2490.0,2800.0,2290.0,0.12,9.44,7.84,0.64,-0.4,-0.39,a
3941.0,3634.0,2726.0,4095.0,2763.0,2490.0,2800.0,2290.0,0.12,9.44,7.84,0.64,-0.4,-0.39,a
3941.0,3634.0,2726.0,4095.0,2763.0,2490.0,2800.0,2290.0,0.12,9.44,7.84,0.64,-0.4,-0.39,a
3941.0,3634.0,2726.0,4095.0,2763.0,2490.0,2800.0,2290.0,0.12,9.44,7.84,0.64,-0.4,-0.39,a
3941.0,3634.0,2726.0,4095.0,2763.0,2490.0,2800.0,2290.0,0.12,9.44,7.84,0.64,-0.4,-0.39,a
3941.0,3634.0,2726.0,4095.0,2763.0,2490.0,2800.0,2290.0,0.12,9.44,7.84,0.64,-0.4,-0.39,a
3941.0,3634.0,2726.0,4095.0,2763.0,2490.0,2800.0,2290.0,0.12,9.44,7.84,0.64,-0.4,-0.39,a
3941.0,3634.0,2726.0,4095.0,2763.0,2490.0,2800.0,2290.0,0.12,9.44,7.84,0.64,-0.4,-0.39,a
3941.0,3634.0,2726.0,4095.0,2763.0,2490.0,2800.0,2290.0,0.12,9.44,7.84,0.64,-0.4,-0.39,a
3941.0,3634.0,2726.0,4095.0,2763.0,2490.0,2800.0,2290.0,0.12,9.44,7.84,0.64,-0.4,-0.39,a
3943.0,3632.0,2722.0,4095.0,2763.0,2494.0,2800.0,2291.0,1.66,9.37,6.95,0.58,-0.49,-0.61,a
3943.0,3632.0,2722.0,4095.0,2763.0,2494.0,2800.0,2291.0,1.66,9.37,6.95,0.58,-0.49,-0.61,a
3943.0,3632.0,2722.0,4095.0,2763.0,2494.0,2800.0,2291.0,1.66,9.37,6.95,0.58,-0.49,-0.61,a
3943.0,3632.0,2722.0,4095.0,2763.0,2494.0,2800.0,2291.0,1.66,9.37,6.95,0.58,-0.49,-0.61,a
3943.0,3632.0,2722.0,4095.0,2763.0,2494.0,2800.0,2291.0,1.66,9.37,6.95,0.58,-0.49,-0.61,a
3943.0,3632.0,2722.0,4095.0,2763.0,2494.0,2800.0,2291.0,1.66,9.37,6.95,0.58,-0.49,-0.61,a
3943.0,3632.0,2722.0,4095.0,2763.0,2494.0,2800.0,2291.0,1.66,9.37,6.95,0.58,-0.49,-0.61,a
3943.0,3632.0,2722.0,4095.0,2763.0,2494.0,2800.0,2291.0,1.66,9.37,6.95,0.58,-0.49,-0.61,a
3943.0,3632.0,2722.0,4095.0,2763.0,2494.0,2800.0,2291.0,1.66,9.37,6.95,0.58,-0.49,-0.61,a
3943.0,3632.0,2722.0,4095.0,2763.0,2494.0,2800.0,2291.0,1.66,9.37,6.95,0.58,-0.49,-0.61,a
3943.0,3632.0,2722.0,4095.0,2763.0,2494.0,2800.0,2291.0,1.66,9.37,6.95,0.58,-0.49,-0.61,a
3943.0,3632.0,2722.0,4095.0,2763.0,2494.0,2800.0,2291.0,1.66,9.37,6.95,0.58,-0.49,-0.61,a
3943.0,3632.0,2722.0,4095.0,2763.0,2494.0,2800.0,2291.0,1.66,9.37,6.95,0.58,-0.49,-0.61,a
3943.0,3632.0,2722.0,4095.0,2763.0,2494.0,2800.0,2291.0,1.66,9.37,6.95,0.58,-0.49,-0.61,a
3943.0,3632.0,2722.0,4095.0,2763.0,2494.0,2800.0,2291.0,1.66,9.37,6.95,0.58,-0.49,-0.61,a
3943.0,3632.0,2722.0,4095.0,2763.0,2494.0,2800.0,2291.0,1.66,9.37,6.95,0.58,-0.49,-0.61,a
3943.0,3632.0,2722.0,4095.0,2763.0,2494.0,2800.0,2291.0,1.66,9.37,6.95,0.58,-0.49,-0.61,a
3943.0,3632.0,2722.0,4095.0,2763.0,2494.0,2800.0,2291.0,1.66,9.37,6.95,0.58,-0.49,-0.61,a
3943.0,3632.0,2722.0,4095.0,2763.0,2494.0,2800.0,2291.0,1.66,9.37,6.95,0.58,-0.49,-0.61,a
3943.0,3632.0,2722.0,4095.0,2763.0,2494.0,2800.0,2291.0,1.66,9.37,6.95,0.58,-0.49,-0.61,a
3935.0,3626.0,2715.0,4095.0,2761.0,2497.0,2802.0,2295.0,1.65,9.17,6.27,0.36,-0.56,-0.98,a
3935.0,3626.0,2715.0,4095.0,2761.0,2497.0,2802.0,2295.0,1.65,9.17,6.27,0.36,-0.56,-0.98,a
3935.0,3626.0,2715.0,4095.0,2761.0,2497.0,2802.0,2295.0,1.65,9.17,6.27,0.36,-0.56,-0.98,a
3935.0,3626.0,2715.0,4095.0,2761.0,2497.0,2802.0,2295.0,1.65,9.17,6.27,0.36,-0.56,-0.98,a
3935.0,3626.0,2715.0,4095.0,2761.0,2497.0,2802.0,2295.0,1.65,9.17,6.27,0.36,-0.56,-0.98,a
3935.0,3626.0,2715.0,4095.0,2761.0,2497.0,2802.0,2295.0,1.65,9.17,6.27,0.36,-0.56,-0.98,a
3935.0,3626.0,2715.0,4095.0,2761.0,2497.0,2802.0,2295.0,1.65,9.17,6.27,0.36,-0.56,-0.98,a
3935.0,3626.0,2715.0,4095.0,2761.0,2497.0,2802.0,2295.0,1.65,9.17,6.27,0.36,-0.56,-0.98,a
3935.0,3626.0,2715.0,4095.0,2761.0,2497.0,2802.0,2295.0,1.65,9.17,6.27,0.36,-0.56,-0.98,a
3935.0,3626.0,2715.0,4095.0,2761.0,2497.0,2802.0,2295.0,1.65,9.17,6.27,0.36,-0.56,-0.98,a
3935.0,3626.0,2715.0,4095.0,2761.0,2497.0,2802.0,2295.0,1.65,9.17,6.27,0.36,-0.56,-0.98,a
3935.0,3626.0,2715.0,4095.0,2761.0,2497.0,2802.0,2295.0,1.65,9.17,6.27,0.36,-0.56,-0.98,a
3935.0,3626.0,2715.0,4095.0,2761.0,2497.0,2802.0,2295.0,1.65,9.17,6.27,0.36,-0.56,-0.98,a
3935.0,3626.0,2715.0,4095.0,2761.0,2497.0,2802.0,2295.0,1.65,9.17,6.27,0.36,-0.56,-0.98,a
3935.0,3626.0,2715.0,4095.0,2761.0,2497.0,2802.0,2295.0,1.65,9.17,6.27,0.36,-0.56,-0.98,a
3935.0,3626.0,2715.0,4095.0,2761.0,2497.0,2802.0,2295.0,1.65,9.17,6.27,0.36,-0.56,-0.98,a
3935.0,3626.0,2715.0,4095.0,2761.0,2497.0,2802.0,2295.0,1.65,9.17,6.27,0.36,-0.56,-0.98,a
3935.0,3626.0,2715.0,4095.0,2761.0,2497.0,2802.0,2295.0,1.65,9.17,6.27,0.36,-0.56,-0.98,a
3935.0,3626.0,2715.0,4095.0,2761.0,2497.0,2802.0,2295.0,1.65,9.17,6.27,0.36,-0.56,-0.98,a
3935.0,3626.0,2715.0,4095.0,2761.0,2497.0,2802.0,2295.0,1.65,9.17,6.27,0.36,-0.56,-0.98,a
3952.0,3631.0,2720.0,4095.0,2766.0,2501.0,2807.0,2294.0,-1.32,9.0,6.93,0.24,-0.69,-1.35,a
3952.0,3631.0,2720.0,4095.0,2766.0,2501.0,2807.0,2294.0,-1.32,9.0,6.93,0.24,-0.69,-1.35,a
3952.0,3631.0,2720.0,4095.0,2766.0,2501.0,2807.0,2294.0,-1.32,9.0,6.93,0.24,-0.69,-1.35,a
3952.0,3631.0,2720.0,4095.0,2766.0,2501.0,2807.0,2294.0,-1.32,9.0,6.93,0.24,-0.69,-1.35,a
3952.0,3631.0,2720.0,4095.0,2766.0,2501.0,2807.0,2294.0,-1.32,9.0,6.93,0.24,-0.69,-1.35,a
3952.0,3631.0,2720.0,4095.0,2766.0,2501.0,2807.0,2294.0,-1.32,9.0,6.93,0.24,-0.69,-1.35,a
3952.0,3631.0,2720.0,4095.0,2766.0,2501.0,2807.0,2294.0,-1.32,9.0,6.93,0.24,-0.69,-1.35,a
3952.0,3631.0,2720.0,4095.0,2766.0,2501.0,2807.0,2294.0,-1.32,9.0,6.93,0.24,-0.69,-1.35,a
3952.0,3631.0,2720.0,4095.0,2766.0,2501.0,2807.0,2294.0,-1.32,9.0,6.93,0.24,-0.69,-1.35,a
3952.0,3631.0,2720.0,4095.0,2766.0,2501.0,2807.0,2294.0,-1.32,9.0,6.93,0.24,-0.69,-1.35,a
3952.0,3631.0,2720.0,4095.0,2766.0,2501.0,2807.0,2294.0,-1.32,9.0,6.93,0.24,-0.69,-1.35,a
3952.0,3631.0,2720.0,4095.0,2766.0,2501.0,2807.0,2294.0,-1.32,9.0,6.93,0.24,-0.69,-1.35,a
3952.0,3631.0,2720.0,4095.0,2766.0,2501.0,2807.0,2294.0,-1.32,9.0,6.93,0.24,-0.69,-1.35,a
3952.0,3631.0,2720.0,4095.0,2766.0,2501.0,2807.0,2294.0,-1.32,9.0,6.93,0.24,-0.69,-1.35,a
3952.0,3631.0,2720.0,4095.0,2766.0,2501.0,2807.0,2294.0,-1.32,9.0,6.93,0.24,-0.69,-1.35,a
3952.0,3631.0,2720.0,4095.0,2766.0,2501.0,2807.0,2294.0,-1.32,9.0,6.93,0.24,-0.69,-1.35,a
3952.0,3631.0,2720.0,4095.0,2766.0,2501.0,2807.0,2294.0,-1.32,9.0,6.93,0.24,-0.69,-1.35,a
3952.0,3631.0,2720.0,4095.0,2766.0,2501.0,2807.0,2294.0,-1.32,9.0,6.93,0.24,-0.69,-1.35,a
3952.0,3631.0,2720.0,4095.0,2766.0,2501.0,2807.0,2294.0,-1.32,9.0,6.93,0.24,-0.69,-1.35,a
3952.0,3631.0,2720.0,4095.0,2766.0,2501.0,2807.0,2294.0,-1.32,9.0,6.93,0.24,-0.69,-1.35,a
3948.0,3637.0,2717.0,4095.0,2759.0,2496.0,2801.0,2292.0,-1.23,9.06,6.19,0.02,-1.06,-1.33,a
3948.0,3637.0,2717.0,4095.0,2759.0,2496.0,2801.0,2292.0,-1.23,9.06,6.19,0.02,-1.06,-1.33,a
3948.0,3637.0,2717.0,4095.0,2759.0,2496.0,2801.0,2292.0,-1.23,9.06,6.19,0.02,-1.06,-1.33,a
3948.0,3637.0,2717.0,4095.0,2759.0,2496.0,2801.0,2292.0,-1.23,9.06,6.19,0.02,-1.06,-1.33,a
3948.0,3637.0,2717.0,4095.0,2759.0,2496.0,2801.0,2292.0,-1.23,9.06,6.19,0.02,-1.06,-1.33,a
3948.0,3637.0,2717.0,4095.0,2759.0,2496.0,2801.0,2292.0,-1.23,9.06,6.19,0.02,-1.06,-1.33,a
3948.0,3637.0,2717.0,4095.0,2759.0,2496.0,2801.0,2292.0,-1.23,9.06,6.19,0.02,-1.06,-1.33,a
3948.0,3637.0,2717.0,4095.0,2759.0,2496.0,2801.0,2292.0,-1.23,9.06,6.19,0.02,-1.06,-1.33,a
3948.0,3637.0,2717.0,4095.0,2759.0,2496.0,2801.0,2292.0,-1.23,9.06,6.19,0.02,-1.06,-1.33,a
3948.0,3637.0,2717.0,4095.0,2759.0,2496.0,2801.0,2292.0,-1.23,9.06,6.19,0.02,-1.06,-1.33,a
3948.0,3637.0,2717.0,4095.0,2759.0,2496.0,2801.0,2292.0,-1.23,9.06,6.19,0.02,-1.06,-1.33,a
3948.0,3637.0,2717.0,4095.0,2759.0,2496.0,2801.0,2292.0,-1.23,9.06,6.19,0.02,-1.06,-1.33,a
3948.0,3637.0,2717.0,4095.0,2759.0,2496.0,2801.0,2292.0,-1.23,9.06,6.19,0.02,-1.06,-1.33,a
3948.0,3637.0,2717.0,4095.0,2759.0,2496.0,2801.0,2292.0,-1.23,9.06,6.19,0.02,-1.06,-1.33,a
3948.0,3637.0,2717.0,4095.0,2759.0,2496.0,2801.0,2292.0,-1.23,9.06,6.19,0.02,-1.06,-1.33,a
3948.0,3637.0,2717.0,4095.0,2759.0,2496.0,2801.0,2292.0,-1.23,9.06,6.19,0.02,-1.06,-1.33,a
3948.0,3637.0,2717.0,4095.0,2759.0,2496.0,2801.0,2292.0,-1.23,9.06,6.19,0.02,-1.06,-1.33,a
3948.0,3637.0,2717.0,4095.0,2759.0,2496.0,2801.0,2292.0,-1.23,9.06,6.19,0.02,-1.06,-1.33,a
3948.0,3637.0,2717.0,4095.0,2759.0,2496.0,2801.0,2292.0,-1.23,9.06,6.19,0.02,-1.06,-1.33,a
3948.0,3637.0,2717.0,4095.0,2759.0,2496.0,2801.0,2292.0,-1.23,9.06,6.19,0.02,-1.06,-1.33,a
3954.0,3603.0,2714.0,4095.0,2761.0,2496.0,2803.0,2292.0,-4.82,8.98,7.03,-0.13,-0.27,-1.08,a
3954.0,3603.0,2714.0,4095.0,2761.0,2496.0,2803.0,2292.0,-4.82,8.98,7.03,-0.13,-0.27,-1.08,a
3954.0,3603.0,2714.0,4095.0,2761.0,2496.0,2803.0,2292.0,-4.82,8.98,7.03,-0.13,-0.27,-1.08,a
3954.0,3603.0,2714.0,4095.0,2761.0,2496.0,2803.0,2292.0,-4.82,8.98,7.03,-0.13,-0.27,-1.08,a
3954.0,3603.0,2714.0,4095.0,2761.0,2496.0,2803.0,2292.0,-4.82,8.98,7.03,-0.13,-0.27,-1.08,a
3954.0,3603.0,2714.0,4095.0,2761.0,2496.0,2803.0,2292.0,-4.82,8.98,7.03,-0.13,-0.27,-1.08,a
3954.0,3603.0,2714.0,4095.0,2761.0,2496.0,2803.0,2292.0,-4.82,8.98,7.03,-0.13,-0.27,-1.08,a
3954.0,3603.0,2714.0,4095.0,2761.0,2496.0,2803.0,2292.0,-4.82,8.98,7.03,-0.13,-0.27,-1.08,a
3954.0,3603.0,2714.0,4095.0,2761.0,2496.0,2803.0,2292.0,-4.82,8.98,7.03,-0.13,-0.27,-1.08,a
3954.0,3603.0,2714.0,4095.0,2761.0,2496.0,2803.0,2292.0,-4.82,8.98,7.03,-0.13,-0.27,-1.08,a
3954.0,3603.0,2714.0,4095.0,2761.0,2496.0,2803.0,2292.0,-4.82,8.98,7.03,-0.13,-0.27,-1.08,a
3954.0,3603.0,2714.0,4095.0,2761.0,2496.0,2803.0,2292.0,-4.82,8.98,7.03,-0.13,-0.27,-1.08,a
3954.0,3603.0,2714.0,4095.0,2761.0,2496.0,2803.0,2292.0,-4.82,8.98,7.03,-0.13,-0.27,-1.08,a
3954.0,3603.0,2714.0,4095.0,2761.0,2496.0,2803.0,2292.0,-4.82,8.98,7.03,-0.13,-0.27,-1.08,a
3954.0,3603.0,2714.0,4095.0,2761.0,2496.0,2803.0,2292.0,-4.82,8.98,7.03,-0.13,-0.27,-1.08,a
3954.0,3603.0,2714.0,4095.0,2761.0,2496.0,2803.0,2292.0,-4.82,8.98,7.03,-0.13,-0.27,-1.08,a
3954.0,3603.0,2714.0,4095.0,2761.0,2496.0,2803.0,2292.0,-4.82,8.98,7.03,-0.13,-0.27,-1.08,a
3954.0,3603.0,2714.0,4095.0,2761.0,2496.0,2803.0,2292.0,-4.82,8.98,7.03,-0.13,-0.27,-1.08,a
3954.0,3603.0,2714.0,4095.0,2761.0,2496.0,2803.0,2292.0,-4.82,8.98,7.03,-0.13,-0.27,-1.08,a
3954.0,3603.0,2714.0,4095.0,2761.0,2496.0,2803.0,2292.0,-4.82,8.98,7.03,-0.13,-0.27,-1.08,a
3952.0,3618.0,2727.0,4095.0,2762.0,2498.0,2807.0,2294.0,-5.27,8.88,8.09,-0.14,0.03,-0.12,a
3952.0,3618.0,2727.0,4095.0,2762.0,2498.0,2807.0,2294.0,-5.27,8.88,8.09,-0.14,0.03,-0.12,a
3952.0,3618.0,2727.0,4095.0,2762.0,2498.0,2807.0,2294.0,-5.27,8.88,8.09,-0.14,0.03,-0.12,a
3952.0,3618.0,2727.0,4095.0,2762.0,2498.0,2807.0,2294.0,-5.27,8.88,8.09,-0.14,0.03,-0.12,a
3952.0,3618.0,2727.0,4095.0,2762.0,2498.0,2807.0,2294.0,-5.27,8.88,8.09,-0.14,0.03,-0.12,a
3952.0,3618.0,2727.0,4095.0,2762.0,2498.0,2807.0,2294.0,-5.27,8.88,8.09,-0.14,0.03,-0.12,a
3952.0,3618.0,2727.0,4095.0,2762.0,2498.0,2807.0,2294.0,-5.27,8.88,8.09,-0.14,0.03,-0.12,a
3952.0,3618.0,2727.0,4095.0,2762.0,2498.0,2807.0,2294.0,-5.27,8.88,8.09,-0.14,0.03,-0.12,a
3952.0,3618.0,2727.0,4095.0,2762.0,2498.0,2807.0,2294.0,-5.27,8.88,8.09,-0.14,0.03,-0.12,a
3952.0,3618.0,2727.0,4095.0,2762.0,2498.0,2807.0,2294.0,-5.27,8.88,8.09,-0.14,0.03,-0.12,a
3952.0,3618.0,2727.0,4095.0,2762.0,2498.0,2807.0,2294.0,-5.27,8.88,8.09,-0.14,0.03,-0.12,a
3952.0,3618.0,2727.0,4095.0,2762.0,2498.0,2807.0,2294.0,-5.27,8.88,8.09,-0.14,0.03,-0.12,a
3952.0,3618.0,2727.0,4095.0,2762.0,2498.0,2807.0,2294.0,-5.27,8.88,8.09,-0.14,0.03,-0.12,a
3952.0,3618.0,2727.0,4095.0,2762.0,2498.0,2807.0,2294.0,-5.27,8.88,8.09,-0.14,0.03,-0.12,a
3952.0,3618.0,2727.0,4095.0,2762.0,2498.0,2807.0,2294.0,-5.27,8.88,8.09,-0.14,0.03,-0.12,a
3952.0,3618.0,2727.0,4095.0,2762.0,2498.0,2807.0,2294.0,-5.27,8.88,8.09,-0.14,0.03,-0.12,a
3952.0,3618.0,2727.0,4095.0,2762.0,2498.0,2807.0,2294.0,-5.27,8.88,8.09,-0.14,0.03,-0.12,a
3952.0,3618.0,2727.0,4095.0,2762.0,2498.0,2807.0,2294.0,-5.27,8.88,8.09,-0.14,0.03,-0.12,a
3952.0,3618.0,2727.0,4095.0,2762.0,2498.0,2807.0,2294.0,-5.27,8.88,8.09,-0.14,0.03,-0.12,a
3952.0,3618.0,2727.0,4095.0,2762.0,2498.0,2807.0,2294.0,-5.27,8.88,8.09,-0.14,0.03,-0.12,a
3952.0,3632.0,2729.0,4095.0,2768.0,2497.0,2802.0,2295.0,-2.74,8.79,7.17,-0.14,0.34,0.49,a
3952.0,3632.0,2729.0,4095.0,2768.0,2497.0,2802.0,2295.0,-2.74,8.79,7.17,-0.14,0.34,0.49,a
3952.0,3632.0,2729.0,4095.0,2768.0,2497.0,2802.0,2295.0,-2.74,8.79,7.17,-0.14,0.34,0.49,a
3952.0,3632.0,2729.0,4095.0,2768.0,2497.0,2802.0,2295.0,-2.74,8.79,7.17,-0.14,0.34,0.49,a
3952.0,3632.0,2729.0,4095.0,2768.0,2497.0,2802.0,2295.0,-2.74,8.79,7.17,-0.14,0.34,0.49,a
3952.0,3632.0,2729.0,4095.0,2768.0,2497.0,2802.0,2295.0,-2.74,8.79,7.17,-0.14,0.34,0.49,a
3952.0,3632.0,2729.0,4095.0,2768.0,2497.0,2802.0,2295.0,-2.74,8.79,7.17,-0.14,0.34,0.49,a
3952.0,3632.0,2729.0,4095.0,2768.0,2497.0,2802.0,2295.0,-2.74,8.79,7.17,-0.14,0.34,0.49,a
3952.0,3632.0,2729.0,4095.0,2768.0,2497.0,2802.0,2295.0,-2.74,8.79,7.17,-0.14,0.34,0.49,a
3952.0,3632.0,2729.0,4095.0,2768.0,2497.0,2802.0,2295.0,-2.74,8.79,7.17,-0.14,0.34,0.49,a
3952.0,3632.0,2729.0,4095.0,2768.0,2497.0,2802.0,2295.0,-2.74,8.79,7.17,-0.14,0.34,0.49,a
3952.0,3632.0,2729.0,4095.0,2768.0,2497.0,2802.0,2295.0,-2.74,8.79,7.17,-0.14,0.34,0.49,a
3952.0,3632.0,2729.0,4095.0,2768.0,2497.0,2802.0,2295.0,-2.74,8.79,7.17,-0.14,0.34,0.49,a
3952.0,3632.0,2729.0,4095.0,2768.0,2497.0,2802.0,2295.0,-2.74,8.79,7.17,-0.14,0.34,0.49,a
3952.0,3632.0,2729.0,4095.0,2768.0,2497.0,2802.0,2295.0,-2.74,8.79,7.17,-0.14,0.34,0.49,a
3952.0,3632.0,2729.0,4095.0,2768.0,2497.0,2802.0,2295.0,-2.74,8.79,7.17,-0.14,0.34,0.49,a
3952.0,3632.0,2729.0,4095.0,2768.0,2497.0,2802.0,2295.0,-2.74,8.79,7.17,-0.14,0.34,0.49,a
3952.0,3632.0,2729.0,4095.0,2768.0,2497.0,2802.0,2295.0,-2.74,8.79,7.17,-0.14,0.34,0.49,a
3952.0,3632.0,2729.0,4095.0,2768.0,2497.0,2802.0,2295.0,-2.74,8.79,7.17,-0.14,0.34,0.49,a
3952.0,3632.0,2729.0,4095.0,2768.0,2497.0,2802.0,2295.0,-2.74,8.79,7.17,-0.14,0.34,0.49,a
3946.0,3631.0,2727.0,4095.0,2766.0,2498.0,2803.0,2294.0,-0.91,8.61,6.81,-0.4,0.29,0.48,a
3946.0,3631.0,2727.0,4095.0,2766.0,2498.0,2803.0,2294.0,-0.91,8.61,6.81,-0.4,0.29,0.48,a
3946.0,3631.0,2727.0,4095.0,2766.0,2498.0,2803.0,2294.0,-0.91,8.61,6.81,-0.4,0.29,0.48,a
3946.0,3631.0,2727.0,4095.0,2766.0,2498.0,2803.0,2294.0,-0.91,8.61,6.81,-0.4,0.29,0.48,a
3946.0,3631.0,2727.0,4095.0,2766.0,2498.0,2803.0,2294.0,-0.91,8.61,6.81,-0.4,0.29,0.48,a
3946.0,3631.0,2727.0,4095.0,2766.0,2498.0,2803.0,2294.0,-0.91,8.61,6.81,-0.4,0.29,0.48,a
3946.0,3631.0,2727.0,4095.0,2766.0,2498.0,2803.0,2294.0,-0.91,8.61,6.81,-0.4,0.29,0.48,a
3946.0,3631.0,2727.0,4095.0,2766.0,2498.0,2803.0,2294.0,-0.91,8.61,6.81,-0.4,0.29,0.48,a
3946.0,3631.0,2727.0,4095.0,2766.0,2498.0,2803.0,2294.0,-0.91,8.61,6.81,-0.4,0.29,0.48,a
3946.0,3631.0,2727.0,4095.0,2766.0,2498.0,2803.0,2294.0,-0.91,8.61,6.81,-0.4,0.29,0.48,a
3946.0,3631.0,2727.0,4095.0,2766.0,2498.0,2803.0,2294.0,-0.91,8.61,6.81,-0.4,0.29,0.48,a
3946.0,3631.0,2727.0,4095.0,2766.0,2498.0,2803.0,2294.0,-0.91,8.61,6.81,-0.4,0.29,0.48,a
3946.0,3631.0,2727.0,4095.0,2766.0,2498.0,2803.0,2294.0,-0.91,8.61,6.81,-0.4,0.29,0.48,a
3946.0,3631.0,2727.0,4095.0,2766.0,2498.0,2803.0,2294.0,-0.91,8.61,6.81,-0.4,0.29,0.48,a
3946.0,3631.0,2727.0,4095.0,2766.0,2498.0,2803.0,2294.0,-0.91,8.61,6.81,-0.4,0.29,0.48,a
3946.0,3631.0,2727.0,4095.0,2766.0,2498.0,2803.0,2294.0,-0.91,8.61,6.81,-0.4,0.29,0.48,a
3946.0,3631.0,2727.0,4095.0,2766.0,2498.0,2803.0,2294.0,-0.91,8.61,6.81,-0.4,0.29,0.48,a
3946.0,3631.0,2727.0,4095.0,2766.0,2498.0,2803.0,2294.0,-0.91,8.61,6.81,-0.4,0.29,0.48,a
3946.0,3631.0,2727.0,4095.0,2766.0,2498.0,2803.0,2294.0,-0.91,8.61,6.81,-0.4,0.29,0.48,a
3946.0,3631.0,2727.0,4095.0,2766.0,2498.0,2803.0,2294.0,-0.91,8.61,6.81,-0.4,0.29,0.48,a
3958.0,3629.0,2720.0,4095.0,2765.0,2495.0,2805.0,2293.0,-0.91,8.59,7.64,-0.49,0.26,0.39,a
3958.0,3629.0,2720.0,4095.0,2765.0,2495.0,2805.0,2293.0,-0.91,8.59,7.64,-0.49,0.26,0.39,a
3958.0,3629.0,2720.0,4095.0,2765.0,2495.0,2805.0,2293.0,-0.91,8.59,7.64,-0.49,0.26,0.39,a
3958.0,3629.0,2720.0,4095.0,2765.0,2495.0,2805.0,2293.0,-0.91,8.59,7.64,-0.49,0.26,0.39,a
3958.0,3629.0,2720.0,4095.0,2765.0,2495.0,2805.0,2293.0,-0.91,8.59,7.64,-0.49,0.26,0.39,a
3958.0,3629.0,2720.0,4095.0,2765.0,2495.0,2805.0,2293.0,-0.91,8.59,7.64,-0.49,0.26,0.39,a
3958.0,3629.0,2720.0,4095.0,2765.0,2495.0,2805.0,2293.0,-0.91,8.59,7.64,-0.49,0.26,0.39,a
3958.0,3629.0,2720.0,4095.0,2765.0,2495.0,2805.0,2293.0,-0.91,8.59,7.64,-0.49,0.26,0.39,a
3958.0,3629.0,2720.0,4095.0,2765.0,2495.0,2805.0,2293.0,-0.91,8.59,7.64,-0.49,0.26,0.39,a
3958.0,3629.0,2720.0,4095.0,2765.0,2495.0,2805.0,2293.0,-0.91,8.59,7.64,-0.49,0.26,0.39,a
3958.0,3629.0,2720.0,4095.0,2765.0,2495.0,2805.0,2293.0,-0.91,8.59,7.64,-0.49,0.26,0.39,a
3958.0,3629.0,2720.0,4095.0,2765.0,2495.0,2805.0,2293.0,-0.91,8.59,7.64,-0.49,0.26,0.39,a
3958.0,3629.0,2720.0,4095.0,2765.0,2495.0,2805.0,2293.0,-0.91,8.59,7.64,-0.49,0.26,0.39,a
3958.0,3629.0,2720.0,4095.0,2765.0,2495.0,2805.0,2293.0,-0.91,8.59,7.64,-0.49,0.26,0.39,a
3958.0,3629.0,2720.0,4095.0,2765.0,2495.0,2805.0,2293.0,-0.91,8.59,7.64,-0.49,0.26,0.39,a
3958.0,3629.0,2720.0,4095.0,2765.0,2495.0,2805.0,2293.0,-0.91,8.59,7.64,-0.49,0.26,0.39,a
3958.0,3629.0,2720.0,4095.0,2765.0,2495.0,2805.0,2293.0,-0.91,8.59,7.64,-0.49,0.26,0.39,a
3958.0,3629.0,2720.0,4095.0,2765.0,2495.0,2805.0,2293.0,-0.91,8.59,7.64,-0.49,0.26,0.39,a
3958.0,3629.0,2720.0,4095.0,2765.0,2495.0,2805.0,2293.0,-0.91,8.59,7.64,-0.49,0.26,0.39,a
3958.0,3629.0,2720.0,4095.0,2765.0,2495.0,2805.0,2293.0,-0.91,8.59,7.64,-0.49,0.26,0.39,a
3946.0,3623.0,2729.0,4095.0,2767.0,2502.0,2803.0,2291.0,-0.84,8.81,8.55,-0.52,0.11,0.37,a
3946.0,3623.0,2729.0,4095.0,2767.0,2502.0,2803.0,2291.0,-0.84,8.81,8.55,-0.52,0.11,0.37,a
3946.0,3623.0,2729.0,4095.0,2767.0,2502.0,2803.0,2291.0,-0.84,8.81,8.55,-0.52,0.11,0.37,a
3946.0,3623.0,2729.0,4095.0,2767.0,2502.0,2803.0,2291.0,-0.84,8.81,8.55,-0.52,0.11,0.37,a
3946.0,3623.0,2729.0,4095.0,2767.0,2502.0,2803.0,2291.0,-0.84,8.81,8.55,-0.52,0.11,0.37,a
3946.0,3623.0,2729.0,4095.0,2767.0,2502.0,2803.0,2291.0,-0.84,8.81,8.55,-0.52,0.11,0.37,a
3946.0,3623.0,2729.0,4095.0,2767.0,2502.0,2803.0,2291.0,-0.84,8.81,8.55,-0.52,0.11,0.37,a
3946.0,3623.0,2729.0,4095.0,2767.0,2502.0,2803.0,2291.0,-0.84,8.81,8.55,-0.52,0.11,0.37,a
3946.0,3623.0,2729.0,4095.0,2767.0,2502.0,2803.0,2291.0,-0.84,8.81,8.55,-0.52,0.11,0.37,a
3946.0,3623.0,2729.0,4095.0,2767.0,2502.0,2803.0,2291.0,-0.84,8.81,8.55,-0.52,0.11,0.37,a
3946.0,3623.0,2729.0,4095.0,2767.0,2502.0,2803.0,2291.0,-0.84,8.81,8.55,-0.52,0.11,0.37,a
3946.0,3623.0,2729.0,4095.0,2767.0,2502.0,2803.0,2291.0,-0.84,8.81,8.55,-0.52,0.11,0.37,a
3946.0,3623.0,2729.0,4095.0,2767.0,2502.0,2803.0,2291.0,-0.84,8.81,8.55,-0.52,0.11,0.37,a
3946.0,3623.0,2729.0,4095.0,2767.0,2502.0,2803.0,2291.0,-0.84,8.81,8.55,-0.52,0.11,0.37,a
3946.0,3623.0,2729.0,4095.0,2767.0,2502.0,2803.0,2291.0,-0.84,8.81,8.55,-0.52,0.11,0.37,a
3946.0,3623.0,2729.0,4095.0,2767.0,2502.0,2803.0,2291.0,-0.84,8.81,8.55,-0.52,0.11,0.37,a
3946.0,3623.0,2729.0,4095.0,2767.0,2502.0,2803.0,2291.0,-0.84,8.81,8.55,-0.52,0.11,0.37,a
3946.0,3623.0,2729.0,4095.0,2767.0,2502.0,2803.0,2291.0,-0.84,8.81,8.55,-0.52,0.11,0.37,a
3946.0,3623.0,2729.0,4095.0,2767.0,2502.0,2803.0,2291.0,-0.84,8.81,8.55,-0.52,0.11,0.37,a
3946.0,3623.0,2729.0,4095.0,2767.0,2502.0,2803.0,2291.0,-0.84,8.81,8.55,-0.52,0.11,0.37,a
3967.0,3634.0,2723.0,4095.0,2762.0,2498.0,2805.0,2291.0,-1.25,9.13,7.86,-0.37,0.09,0.38,a
3967.0,3634.0,2723.0,4095.0,2762.0,2498.0,2805.0,2291.0,-1.25,9.13,7.86,-0.37,0.09,0.38,a
3967.0,3634.0,2723.0,4095.0,2762.0,2498.0,2805.0,2291.0,-1.25,9.13,7.86,-0.37,0.09,0.38,a
3967.0,3634.0,2723.0,4095.0,2762.0,2498.0,2805.0,2291.0,-1.25,9.13,7.86,-0.37,0.09,0.38,a
3967.0,3634.0,2723.0,4095.0,2762.0,2498.0,2805.0,2291.0,-1.25,9.13,7.86,-0.37,0.09,0.38,a
3967.0,3634.0,2723.0,4095.0,2762.0,2498.0,2805.0,2291.0,-1.25,9.13,7.86,-0.37,0.09,0.38,a
3967.0,3634.0,2723.0,4095.0,2762.0,2498.0,2805.0,2291.0,-1.25,9.13,7.86,-0.37,0.09,0.38,a
3967.0,3634.0,2723.0,4095.0,2762.0,2498.0,2805.0,2291.0,-1.25,9.13,7.86,-0.37,0.09,0.38,a
3967.0,3634.0,2723.0,4095.0,2762.0,2498.0,2805.0,2291.0,-1.25,9.13,7.86,-0.37,0.09,0.38,a
3967.0,3634.0,2723.0,4095.0,2762.0,2498.0,2805.0,2291.0,-1.25,9.13,7.86,-0.37,0.09,0.38,a
3967.0,3634.0,2723.0,4095.0,2762.0,2498.0,2805.0,2291.0,-1.25,9.13,7.86,-0.37,0.09,0.38,a
3967.0,3634.0,2723.0,4095.0,2762.0,2498.0,2805.0,2291.0,-1.25,9.13,7.86,-0.37,0.09,0.38,a
3967.0,3634.0,2723.0,4095.0,2762.0,2498.0,2805.0,2291.0,-1.25,9.13,7.86,-0.37,0.09,0.38,a
3967.0,3634.0,2723.0,4095.0,2762.0,2498.0,2805.0,2291.0,-1.25,9.13,7.86,-0.37,0.09,0.38,a
3967.0,3634.0,2723.0,4095.0,2762.0,2498.0,2805.0,2291.0,-1.25,9.13,7.86,-0.37,0.09,0.38,a
3967.0,3634.0,2723.0,4095.0,2762.0,2498.0,2805.0,2291.0,-1.25,9.13,7.86,-0.37,0.09,0.38,a
3967.0,3634.0,2723.0,4095.0,2762.0,2498.0,2805.0,2291.0,-1.25,9.13,7.86,-0.37,0.09,0.38,a
3967.0,3634.0,2723.0,4095.0,2762.0,2498.0,2805.0,2291.0,-1.25,9.13,7.86,-0.37,0.09,0.38,a
3967.0,3634.0,2723.0,4095.0,2762.0,2498.0,2805.0,2291.0,-1.25,9.13,7.86,-0.37,0.09,0.38,a
3967.0,3634.0,2723.0,4095.0,2762.0,2498.0,2805.0,2291.0,-1.25,9.13,7.86,-0.37,0.09,0.38,a
3945.0,3628.0,2729.0,4095.0,2766.0,2501.0,2806.0,2291.0,-0.49,9.24,7.71,-0.56,-0.1,0.35,a
3945.0,3628.0,2729.0,4095.0,2766.0,2501.0,2806.0,2291.0,-0.49,9.24,7.71,-0.56,-0.1,0.35,a
3945.0,3628.0,2729.0,4095.0,2766.0,2501.0,2806.0,2291.0,-0.49,9.24,7.71,-0.56,-0.1,0.35,a
3945.0,3628.0,2729.0,4095.0,2766.0,2501.0,2806.0,2291.0,-0.49,9.24,7.71,-0.56,-0.1,0.35,a
3945.0,3628.0,2729.0,4095.0,2766.0,2501.0,2806.0,2291.0,-0.49,9.24,7.71,-0.56,-0.1,0.35,a
3945.0,3628.0,2729.0,4095.0,2766.0,2501.0,2806.0,2291.0,-0.49,9.24,7.71,-0.56,-0.1,0.35,a
3945.0,3628.0,2729.0,4095.0,2766.0,2501.0,2806.0,2291.0,-0.49,9.24,7.71,-0.56,-0.1,0.35,a
3945.0,3628.0,2729.0,4095.0,2766.0,2501.0,2806.0,2291.0,-0.49,9.24,7.71,-0.56,-0.1,0.35,a
3945.0,3628.0,2729.0,4095.0,2766.0,2501.0,2806.0,2291.0,-0.49,9.24,7.71,-0.56,-0.1,0.35,a
3945.0,3628.0,2729.0,4095.0,2766.0,2501.0,2806.0,2291.0,-0.49,9.24,7.71,-0.56,-0.1,0.35,a
3945.0,3628.0,2729.0,4095.0,2766.0,2501.0,2806.0,2291.0,-0.49,9.24,7.71,-0.56,-0.1,0.35,a
3945.0,3628.0,2729.0,4095.0,2766.0,2501.0,2806.0,2291.0,-0.49,9.24,7.71,-0.56,-0.1,0.35,a
3945.0,3628.0,2729.0,4095.0,2766.0,2501.0,2806.0,2291.0,-0.49,9.24,7.71,-0.56,-0.1,0.35,a
3945.0,3628.0,2729.0,4095.0,2766.0,2501.0,2806.0,2291.0,-0.49,9.24,7.71,-0.56,-0.1,0.35,a
3945.0,3628.0,2729.0,4095.0,2766.0,2501.0,2806.0,2291.0,-0.49,9.24,7.71,-0.56,-0.1,0.35,a
3945.0,3628.0,2729.0,4095.0,2766.0,2501.0,2806.0,2291.0,-0.49,9.24,7.71,-0.56,-0.1,0.35,a
3945.0,3628.0,2729.0,4095.0,2766.0,2501.0,2806.0,2291.0,-0.49,9.24,7.71,-0.56,-0.1,0.35,a
3945.0,3628.0,2729.0,4095.0,2766.0,2501.0,2806.0,2291.0,-0.49,9.24,7.71,-0.56,-0.1,0.35,a
3945.0,3628.0,2729.0,4095.0,2766.0,2501.0,2806.0,2291.0,-0.49,9.24,7.71,-0.56,-0.1,0.35,a
3945.0,3628.0,2729.0,4095.0,2766.0,2501.0,2806.0,2291.0,-0.49,9.24,7.71,-0.56,-0.1,0.35,a
3959.0,3619.0,2721.0,4095.0,2767.0,2502.0,2809.0,2293.0,0.14,8.91,8.41,-0.66,-0.05,0.09,a
3959.0,3619.0,2721.0,4095.0,2767.0,2502.0,2809.0,2293.0,0.14,8.91,8.41,-0.66,-0.05,0.09,a
3959.0,3619.0,2721.0,4095.0,2767.0,2502.0,2809.0,2293.0,0.14,8.91,8.41,-0.66,-0.05,0.09,a
3959.0,3619.0,2721.0,4095.0,2767.0,2502.0,2809.0,2293.0,0.14,8.91,8.41,-0.66,-0.05,0.09,a
3959.0,3619.0,2721.0,4095.0,2767.0,2502.0,2809.0,2293.0,0.14,8.91,8.41,-0.66,-0.05,0.09,a
3959.0,3619.0,2721.0,4095.0,2767.0,2502.0,2809.0,2293.0,0.14,8.91,8.41,-0.66,-0.05,0.09,a
3959.0,3619.0,2721.0,4095.0,2767.0,2502.0,2809.0,2293.0,0.14,8.91,8.41,-0.66,-0.05,0.09,a
3959.0,3619.0,2721.0,4095.0,2767.0,2502.0,2809.0,2293.0,0.14,8.91,8.41,-0.66,-0.05,0.09,a
3959.0,3619.0,2721.0,4095.0,2767.0,2502.0,2809.0,2293.0,0.14,8.91,8.41,-0.66,-0.05,0.09,a
3959.0,3619.0,2721.0,4095.0,2767.0,2502.0,2809.0,2293.0,0.14,8.91,8.41,-0.66,-0.05,0.09,a
3959.0,3619.0,2721.0,4095.0,2767.0,2502.0,2809.0,2293.0,0.14,8.91,8.41,-0.66,-0.05,0.09,a
3959.0,3619.0,2721.0,4095.0,2767.0,2502.0,2809.0,2293.0,0.14,8.91,8.41,-0.66,-0.05,0.09,a
3959.0,3619.0,2721.0,4095.0,2767.0,2502.0,2809.0,2293.0,0.14,8.91,8.41,-0.66,-0.05,0.09,a
3959.0,3619.0,2721.0,4095.0,2767.0,2502.0,2809.0,2293.0,0.14,8.91,8.41,-0.66,-0.05,0.09,a
3959.0,3619.0,2721.0,4095.0,2767.0,2502.0,2809.0,2293.0,0.14,8.91,8.41,-0.66,-0.05,0.09,a
3959.0,3619.0,2721.0,4095.0,2767.0,2502.0,2809.0,2293.0,0.14,8.91,8.41,-0.66,-0.05,0.09,a
3959.0,3619.0,2721.0,4095.0,2767.0,2502.0,2809.0,2293.0,0.14,8.91,8.41,-0.66,-0.05,0.09,a
3959.0,3619.0,2721.0,4095.0,2767.0,2502.0,2809.0,2293.0,0.14,8.91,8.41,-0.66,-0.05,0.09,a
3959.0,3619.0,2721.0,4095.0,2767.0,2502.0,2809.0,2293.0,0.14,8.91,8.41,-0.66,-0.05,0.09,a
3959.0,3619.0,2721.0,4095.0,2767.0,2502.0,2809.0,2293.0,0.14,8.91,8.41,-0.66,-0.05,0.09,a
3945.0,3614.0,2720.0,4095.0,2765.0,2497.0,2806.0,2294.0,0.52,8.18,10.25,-0.66,0.01,-0.12,a
3945.0,3614.0,2720.0,4095.0,2765.0,2497.0,2806.0,2294.0,0.52,8.18,10.25,-0.66,0.01,-0.12,a
3945.0,3614.0,2720.0,4095.0,2765.0,2497.0,2806.0,2294.0,0.52,8.18,10.25,-0.66,0.01,-0.12,a
3945.0,3614.0,2720.0,4095.0,2765.0,2497.0,2806.0,2294.0,0.52,8.18,10.25,-0.66,0.01,-0.12,a
3945.0,3614.0,2720.0,4095.0,2765.0,2497.0,2806.0,2294.0,0.52,8.18,10.25,-0.66,0.01,-0.12,a
3945.0,3614.0,2720.0,4095.0,2765.0,2497.0,2806.0,2294.0,0.52,8.18,10.25,-0.66,0.01,-0.12,a
3945.0,3614.0,2720.0,4095.0,2765.0,2497.0,2806.0,2294.0,0.52,8.18,10.25,-0.66,0.01,-0.12,a
3945.0,3614.0,2720.0,4095.0,2765.0,2497.0,2806.0,2294.0,0.52,8.18,10.25,-0.66,0.01,-0.12,a
3945.0,3614.0,2720.0,4095.0,2765.0,2497.0,2806.0,2294.0,0.52,8.18,10.25,-0.66,0.01,-0.12,a
3945.0,3614.0,2720.0,4095.0,2765.0,2497.0,2806.0,2294.0,0.52,8.18,10.25,-0.66,0.01,-0.12,a
3945.0,3614.0,2720.0,4095.0,2765.0,2497.0,2806.0,2294.0,0.52,8.18,10.25,-0.66,0.01,-0.12,a
3945.0,3614.0,2720.0,4095.0,2765.0,2497.0,2806.0,2294.0,0.52,8.18,10.25,-0.66,0.01,-0.12,a
3945.0,3614.0,2720.0,4095.0,2765.0,2497.0,2806.0,2294.0,0.52,8.18,10.25,-0.66,0.01,-0.12,a
3945.0,3614.0,2720.0,4095.0,2765.0,2497.0,2806.0,2294.0,0.52,8.18,10.25,-0.66,0.01,-0.12,a
3945.0,3614.0,2720.0,4095.0,2765.0,2497.0,2806.0,2294.0,0.52,8.18,10.25,-0.66,0.01,-0.12,a
3945.0,3614.0,2720.0,4095.0,2765.0,2497.0,2806.0,2294.0,0.52,8.18,10.25,-0.66,0.01,-0.12,a
3945.0,3614.0,2720.0,4095.0,2765.0,2497.0,2806.0,2294.0,0.52,8.18,10.25,-0.66,0.01,-0.12,a
3945.0,3614.0,2720.0,4095.0,2765.0,2497.0,2806.0,2294.0,0.52,8.18,10.25,-0.66,0.01,-0.12,a
3945.0,3614.0,2720.0,4095.0,2765.0,2497.0,2806.0,2294.0,0.52,8.18,10.25,-0.66,0.01,-0.12,a
3945.0,3614.0,2720.0,4095.0,2765.0,2497.0,2806.0,2294.0,0.52,8.18,10.25,-0.66,0.01,-0.12,a
3950.0,3633.0,2733.0,4095.0,2768.0,2500.0,2811.0,2294.0,-0.19,8.03,12.16,-0.38,0.11,-0.14,a
3950.0,3633.0,2733.0,4095.0,2768.0,2500.0,2811.0,2294.0,-0.19,8.03,12.16,-0.38,0.11,-0.14,a
3950.0,3633.0,2733.0,4095.0,2768.0,2500.0,2811.0,2294.0,-0.19,8.03,12.16,-0.38,0.11,-0.14,a
3950.0,3633.0,2733.0,4095.0,2768.0,2500.0,2811.0,2294.0,-0.19,8.03,12.16,-0.38,0.11,-0.14,a
3950.0,3633.0,2733.0,4095.0,2768.0,2500.0,2811.0,2294.0,-0.19,8.03,12.16,-0.38,0.11,-0.14,a
3950.0,3633.0,2733.0,4095.0,2768.0,2500.0,2811.0,2294.0,-0.19,8.03,12.16,-0.38,0.11,-0.14,a
3950.0,3633.0,2733.0,4095.0,2768.0,2500.0,2811.0,2294.0,-0.19,8.03,12.16,-0.38,0.11,-0.14,a
3950.0,3633.0,2733.0,4095.0,2768.0,2500.0,2811.0,2294.0,-0.19,8.03,12.16,-0.38,0.11,-0.14,a
3950.0,3633.0,2733.0,4095.0,2768.0,2500.0,2811.0,2294.0,-0.19,8.03,12.16,-0.38,0.11,-0.14,a
3950.0,3633.0,2733.0,4095.0,2768.0,2500.0,2811.0,2294.0,-0.19,8.03,12.16,-0.38,0.11,-0.14,a
3950.0,3633.0,2733.0,4095.0,2768.0,2500.0,2811.0,2294.0,-0.19,8.03,12.16,-0.38,0.11,-0.14,a
3950.0,3633.0,2733.0,4095.0,2768.0,2500.0,2811.0,2294.0,-0.19,8.03,12.16,-0.38,0.11,-0.14,a
3950.0,3633.0,2733.0,4095.0,2768.0,2500.0,2811.0,2294.0,-0.19,8.03,12.16,-0.38,0.11,-0.14,a
3950.0,3633.0,2733.0,4095.0,2768.0,2500.0,2811.0,2294.0,-0.19,8.03,12.16,-0.38,0.11,-0.14,a
3950.0,3633.0,2733.0,4095.0,2768.0,2500.0,2811.0,2294.0,-0.19,8.03,12.16,-0.38,0.11,-0.14,a
3950.0,3633.0,2733.0,4095.0,2768.0,2500.0,2811.0,2294.0,-0.19,8.03,12.16,-0.38,0.11,-0.14,a
3950.0,3633.0,2733.0,4095.0,2768.0,2500.0,2811.0,2294.0,-0.19,8.03,12.16,-0.38,0.11,-0.14,a
3950.0,3633.0,2733.0,4095.0,2768.0,2500.0,2811.0,2294.0,-0.19,8.03,12.16,-0.38,0.11,-0.14,a
3950.0,3633.0,2733.0,4095.0,2768.0,2500.0,2811.0,2294.0,-0.19,8.03,12.16,-0.38,0.11,-0.14,a
3950.0,3633.0,2733.0,4095.0,2768.0,2500.0,2811.0,2294.0,-0.19,8.03,12.16,-0.38,0.11,-0.14,a
3954.0,3638.0,2729.0,4095.0,2768.0,2501.0,2815.0,2303.0,-0.37,7.86,13.44,0.13,0.22,-0.13,a
3954.0,3638.0,2729.0,4095.0,2768.0,2501.0,2815.0,2303.0,-0.37,7.86,13.44,0.13,0.22,-0.13,a
3954.0,3638.0,2729.0,4095.0,2768.0,2501.0,2815.0,2303.0,-0.37,7.86,13.44,0.13,0.22,-0.13,a
3954.0,3638.0,2729.0,4095.0,2768.0,2501.0,2815.0,2303.0,-0.37,7.86,13.44,0.13,0.22,-0.13,a
3954.0,3638.0,2729.0,4095.0,2768.0,2501.0,2815.0,2303.0,-0.37,7.86,13.44,0.13,0.22,-0.13,a
3954.0,3638.0,2729.0,4095.0,2768.0,2501.0,2815.0,2303.0,-0.37,7.86,13.44,0.13,0.22,-0.13,a
3954.0,3638.0,2729.0,4095.0,2768.0,2501.0,2815.0,2303.0,-0.37,7.86,13.44,0.13,0.22,-0.13,a
3954.0,3638.0,2729.0,4095.0,2768.0,2501.0,2815.0,2303.0,-0.37,7.86,13.44,0.13,0.22,-0.13,a
3954.0,3638.0,2729.0,4095.0,2768.0,2501.0,2815.0,2303.0,-0.37,7.86,13.44,0.13,0.22,-0.13,a
3954.0,3638.0,2729.0,4095.0,2768.0,2501.0,2815.0,2303.0,-0.37,7.86,13.44,0.13,0.22,-0.13,a
3954.0,3638.0,2729.0,4095.0,2768.0,2501.0,2815.0,2303.0,-0.37,7.86,13.44,0.13,0.22,-0.13,a
3954.0,3638.0,2729.0,4095.0,2768.0,2501.0,2815.0,2303.0,-0.37,7.86,13.44,0.13,0.22,-0.13,a
3954.0,3638.0,2729.0,4095.0,2768.0,2501.0,2815.0,2303.0,-0.37,7.86,13.44,0.13,0.22,-0.13,a
3954.0,3638.0,2729.0,4095.0,2768.0,2501.0,2815.0,2303.0,-0.37,7.86,13.44,0.13,0.22,-0.13,a
3954.0,3638.0,2729.0,4095.0,2768.0,2501.0,2815.0,2303.0,-0.37,7.86,13.44,0.13,0.22,-0.13,a
3954.0,3638.0,2729.0,4095.0,2768.0,2501.0,2815.0,2303.0,-0.37,7.86,13.44,0.13,0.22,-0.13,a
3954.0,3638.0,2729.0,4095.0,2768.0,2501.0,2815.0,2303.0,-0.37,7.86,13.44,0.13,0.22,-0.13,a
3954.0,3638.0,2729.0,4095.0,2768.0,2501.0,2815.0,2303.0,-0.37,7.86,13.44,0.13,0.22,-0.13,a
3954.0,3638.0,2729.0,4095.0,2768.0,2501.0,2815.0,2303.0,-0.37,7.86,13.44,0.13,0.22,-0.13,a
3954.0,3638.0,2729.0,4095.0,2768.0,2501.0,2815.0,2303.0,-0.37,7.86,13.44,0.13,0.22,-0.13,a
3947.0,3630.0,2729.0,4095.0,2768.0,2502.0,2811.0,2299.0,-0.43,8.28,11.98,0.66,0.09,-0.07,a
3947.0,3630.0,2729.0,4095.0,2768.0,2502.0,2811.0,2299.0,-0.43,8.28,11.98,0.66,0.09,-0.07,a
3947.0,3630.0,2729.0,4095.0,2768.0,2502.0,2811.0,2299.0,-0.43,8.28,11.98,0.66,0.09,-0.07,a
3947.0,3630.0,2729.0,4095.0,2768.0,2502.0,2811.0,2299.0,-0.43,8.28,11.98,0.66,0.09,-0.07,a
3947.0,3630.0,2729.0,4095.0,2768.0,2502.0,2811.0,2299.0,-0.43,8.28,11.98,0.66,0.09,-0.07,a
3947.0,3630.0,2729.0,4095.0,2768.0,2502.0,2811.0,2299.0,-0.43,8.28,11.98,0.66,0.09,-0.07,a
3947.0,3630.0,2729.0,4095.0,2768.0,2502.0,2811.0,2299.0,-0.43,8.28,11.98,0.66,0.09,-0.07,a
3947.0,3630.0,2729.0,4095.0,2768.0,2502.0,2811.0,2299.0,-0.43,8.28,11.98,0.66,0.09,-0.07,a
3947.0,3630.0,2729.0,4095.0,2768.0,2502.0,2811.0,2299.0,-0.43,8.28,11.98,0.66,0.09,-0.07,a
3947.0,3630.0,2729.0,4095.0,2768.0,2502.0,2811.0,2299.0,-0.43,8.28,11.98,0.66,0.09,-0.07,a
3947.0,3630.0,2729.0,4095.0,2768.0,2502.0,2811.0,2299.0,-0.43,8.28,11.98,0.66,0.09,-0.07,a
3947.0,3630.0,2729.0,4095.0,2768.0,2502.0,2811.0,2299.0,-0.43,8.28,11.98,0.66,0.09,-0.07,a
3947.0,3630.0,2729.0,4095.0,2768.0,2502.0,2811.0,2299.0,-0.43,8.28,11.98,0.66,0.09,-0.07,a
3947.0,3630.0,2729.0,4095.0,2768.0,2502.0,2811.0,2299.0,-0.43,8.28,11.98,0.66,0.09,-0.07,a
3947.0,3630.0,2729.0,4095.0,2768.0,2502.0,2811.0,2299.0,-0.43,8.28,11.98,0.66,0.09,-0.07,a
3947.0,3630.0,2729.0,4095.0,2768.0,2502.0,2811.0,2299.0,-0.43,8.28,11.98,0.66,0.09,-0.07,a
3947.0,3630.0,2729.0,4095.0,2768.0,2502.0,2811.0,2299.0,-0.43,8.28,11.98,0.66,0.09,-0.07,a
3947.0,3630.0,2729.0,4095.0,2768.0,2502.0,2811.0,2299.0,-0.43,8.28,11.98,0.66,0.09,-0.07,a
3947.0,3630.0,2729.0,4095.0,2768.0,2502.0,2811.0,2299.0,-0.43,8.28,11.98,0.66,0.09,-0.07,a
3947.0,3630.0,2729.0,4095.0,2768.0,2502.0,2811.0,2299.0,-0.43,8.28,11.98,0.66,0.09,-0.07,a
3971.0,3631.0,2723.0,4095.0,2771.0,2506.0,2813.0,2304.0,0.15,8.37,10.02,0.99,0.17,-0.14,a
3971.0,3631.0,2723.0,4095.0,2771.0,2506.0,2813.0,2304.0,0.15,8.37,10.02,0.99,0.17,-0.14,a
3971.0,3631.0,2723.0,4095.0,2771.0,2506.0,2813.0,2304.0,0.15,8.37,10.02,0.99,0.17,-0.14,a
3971.0,3631.0,2723.0,4095.0,2771.0,2506.0,2813.0,2304.0,0.15,8.37,10.02,0.99,0.17,-0.14,a
3971.0,3631.0,2723.0,4095.0,2771.0,2506.0,2813.0,2304.0,0.15,8.37,10.02,0.99,0.17,-0.14,a
3971.0,3631.0,2723.0,4095.0,2771.0,2506.0,2813.0,2304.0,0.15,8.37,10.02,0.99,0.17,-0.14,a
3971.0,3631.0,2723.0,4095.0,2771.0,2506.0,2813.0,2304.0,0.15,8.37,10.02,0.99,0.17,-0.14,a
3971.0,3631.0,2723.0,4095.0,2771.0,2506.0,2813.0,2304.0,0.15,8.37,10.02,0.99,0.17,-0.14,a
3971.0,3631.0,2723.0,4095.0,2771.0,2506.0,2813.0,2304.0,0.15,8.37,10.02,0.99,0.17,-0.14,a
3971.0,3631.0,2723.0,4095.0,2771.0,2506.0,2813.0,2304.0,0.15,8.37,10.02,0.99,0.17,-0.14,a
3971.0,3631.0,2723.0,4095.0,2771.0,2506.0,2813.0,2304.0,0.15,8.37,10.02,0.99,0.17,-0.14,a
3971.0,3631.0,2723.0,4095.0,2771.0,2506.0,2813.0,2304.0,0.15,8.37,10.02,0.99,0.17,-0.14,a
3971.0,3631.0,2723.0,4095.0,2771.0,2506.0,2813.0,2304.0,0.15,8.37,10.02,0.99,0.17,-0.14,a
3971.0,3631.0,2723.0,4095.0,2771.0,2506.0,2813.0,2304.0,0.15,8.37,10.02,0.99,0.17,-0.14,a
3971.0,3631.0,2723.0,4095.0,2771.0,2506.0,2813.0,2304.0,0.15,8.37,10.02,0.99,0.17,-0.14,a
3971.0,3631.0,2723.0,4095.0,2771.0,2506.0,2813.0,2304.0,0.15,8.37,10.02,0.99,0.17,-0.14,a
3971.0,3631.0,2723.0,4095.0,2771.0,2506.0,2813.0,2304.0,0.15,8.37,10.02,0.99,0.17,-0.14,a
3971.0,3631.0,2723.0,4095.0,2771.0,2506.0,2813.0,2304.0,0.15,8.37,10.02,0.99,0.17,-0.14,a
3971.0,3631.0,2723.0,4095.0,2771.0,2506.0,2813.0,2304.0,0.15,8.37,10.02,0.99,0.17,-0.14,a
3971.0,3631.0,2723.0,4095.0,2771.0,2506.0,2813.0,2304.0,0.15,8.37,10.02,0.99,0.17,-0.14,a
3943.0,3604.0,2717.0,4095.0,2759.0,2496.0,2803.0,2301.0,-0.38,8.6,7.58,1.05,0.51,-0.44,a
3943.0,3604.0,2717.0,4095.0,2759.0,2496.0,2803.0,2301.0,-0.38,8.6,7.58,1.05,0.51,-0.44,a
3943.0,3604.0,2717.0,4095.0,2759.0,2496.0,2803.0,2301.0,-0.38,8.6,7.58,1.05,0.51,-0.44,a
3943.0,3604.0,2717.0,4095.0,2759.0,2496.0,2803.0,2301.0,-0.38,8.6,7.58,1.05,0.51,-0.44,a
3943.0,3604.0,2717.0,4095.0,2759.0,2496.0,2803.0,2301.0,-0.38,8.6,7.58,1.05,0.51,-0.44,a
3943.0,3604.0,2717.0,4095.0,2759.0,2496.0,2803.0,2301.0,-0.38,8.6,7.58,1.05,0.51,-0.44,a
3943.0,3604.0,2717.0,4095.0,2759.0,2496.0,2803.0,2301.0,-0.38,8.6,7.58,1.05,0.51,-0.44,a
3943.0,3604.0,2717.0,4095.0,2759.0,2496.0,2803.0,2301.0,-0.38,8.6,7.58,1.05,0.51,-0.44,a
3943.0,3604.0,2717.0,4095.0,2759.0,2496.0,2803.0,2301.0,-0.38,8.6,7.58,1.05,0.51,-0.44,a
3943.0,3604.0,2717.0,4095.0,2759.0,2496.0,2803.0,2301.0,-0.38,8.6,7.58,1.05,0.51,-0.44,a
3943.0,3604.0,2717.0,4095.0,2759.0,2496.0,2803.0,2301.0,-0.38,8.6,7.58,1.05,0.51,-0.44,a
3943.0,3604.0,2717.0,4095.0,2759.0,2496.0,2803.0,2301.0,-0.38,8.6,7.58,1.05,0.51,-0.44,a
3943.0,3604.0,2717.0,4095.0,2759.0,2496.0,2803.0,2301.0,-0.38,8.6,7.58,1.05,0.51,-0.44,a
3943.0,3604.0,2717.0,4095.0,2759.0,2496.0,2803.0,2301.0,-0.38,8.6,7.58,1.05,0.51,-0.44,a
3943.0,3604.0,2717.0,4095.0,2759.0,2496.0,2803.0,2301.0,-0.38,8.6,7.58,1.05,0.51,-0.44,a
3943.0,3604.0,2717.0,4095.0,2759.0,2496.0,2803.0,2301.0,-0.38,8.6,7.58,1.05,0.51,-0.44,a
3943.0,3604.0,2717.0,4095.0,2759.0,2496.0,2803.0,2301.0,-0.38,8.6,7.58,1.05,0.51,-0.44,a
3943.0,3604.0,2717.0,4095.0,2759.0,2496.0,2803.0,2301.0,-0.38,8.6,7.58,1.05,0.51,-0.44,a
3943.0,3604.0,2717.0,4095.0,2759.0,2496.0,2803.0,2301.0,-0.38,8.6,7.58,1.05,0.51,-0.44,a
3943.0,3604.0,2717.0,4095.0,2759.0,2496.0,2803.0,2301.0,-0.38,8.6,7.58,1.05,0.51,-0.44,a
3947.0,3617.0,2725.0,4095.0,2764.0,2497.0,2802.0,2303.0,-0.79,9.16,6.43,0.77,0.21,-0.45,a
3947.0,3617.0,2725.0,4095.0,2764.0,2497.0,2802.0,2303.0,-0.79,9.16,6.43,0.77,0.21,-0.45,a
3947.0,3617.0,2725.0,4095.0,2764.0,2497.0,2802.0,2303.0,-0.79,9.16,6.43,0.77,0.21,-0.45,a
3947.0,3617.0,2725.0,4095.0,2764.0,2497.0,2802.0,2303.0,-0.79,9.16,6.43,0.77,0.21,-0.45,a
3947.0,3617.0,2725.0,4095.0,2764.0,2497.0,2802.0,2303.0,-0.79,9.16,6.43,0.77,0.21,-0.45,a
3947.0,3617.0,2725.0,4095.0,2764.0,2497.0,2802.0,2303.0,-0.79,9.16,6.43,0.77,0.21,-0.45,a
3947.0,3617.0,2725.0,4095.0,2764.0,2497.0,2802.0,2303.0,-0.79,9.16,6.43,0.77,0.21,-0.45,a
3947.0,3617.0,2725.0,4095.0,2764.0,2497.0,2802.0,2303.0,-0.79,9.16,6.43,0.77,0.21,-0.45,a
3947.0,3617.0,2725.0,4095.0,2764.0,2497.0,2802.0,2303.0,-0.79,9.16,6.43,0.77,0.21,-0.45,a
3947.0,3617.0,2725.0,4095.0,2764.0,2497.0,2802.0,2303.0,-0.79,9.16,6.43,0.77,0.21,-0.45,a
3947.0,3617.0,2725.0,4095.0,2764.0,2497.0,2802.0,2303.0,-0.79,9.16,6.43,0.77,0.21,-0.45,a
3947.0,3617.0,2725.0,4095.0,2764.0,2497.0,2802.0,2303.0,-0.79,9.16,6.43,0.77,0.21,-0.45,a
3947.0,3617.0,2725.0,4095.0,2764.0,2497.0,2802.0,2303.0,-0.79,9.16,6.43,0.77,0.21,-0.45,a
3947.0,3617.0,2725.0,4095.0,2764.0,2497.0,2802.0,2303.0,-0.79,9.16,6.43,0.77,0.21,-0.45,a
3947.0,3617.0,2725.0,4095.0,2764.0,2497.0,2802.0,2303.0,-0.79,9.16,6.43,0.77,0.21,-0.45,a
3947.0,3617.0,2725.0,4095.0,2764.0,2497.0,2802.0,2303.0,-0.79,9.16,6.43,0.77,0.21,-0.45,a
3947.0,3617.0,2725.0,4095.0,2764.0,2497.0,2802.0,2303.0,-0.79,9.16,6.43,0.77,0.21,-0.45,a
3947.0,3617.0,2725.0,4095.0,2764.0,2497.0,2802.0,2303.0,-0.79,9.16,6.43,0.77,0.21,-0.45,a
3947.0,3617.0,2725.0,4095.0,2764.0,2497.0,2802.0,2303.0,-0.79,9.16,6.43,0.77,0.21,-0.45,a
3947.0,3617.0,2725.0,4095.0,2764.0,2497.0,2802.0,2303.0,-0.79,9.16,6.43,0.77,0.21,-0.45,a
3954.0,3635.0,2722.0,4095.0,2766.0,2497.0,2800.0,2300.0,-0.94,9.22,6.88,0.49,0.28,-0.39,a
3954.0,3635.0,2722.0,4095.0,2766.0,2497.0,2800.0,2300.0,-0.94,9.22,6.88,0.49,0.28,-0.39,a
3954.0,3635.0,2722.0,4095.0,2766.0,2497.0,2800.0,2300.0,-0.94,9.22,6.88,0.49,0.28,-0.39,a
3954.0,3635.0,2722.0,4095.0,2766.0,2497.0,2800.0,2300.0,-0.94,9.22,6.88,0.49,0.28,-0.39,a
3954.0,3635.0,2722.0,4095.0,2766.0,2497.0,2800.0,2300.0,-0.94,9.22,6.88,0.49,0.28,-0.39,a
3954.0,3635.0,2722.0,4095.0,2766.0,2497.0,2800.0,2300.0,-0.94,9.22,6.88,0.49,0.28,-0.39,a
3954.0,3635.0,2722.0,4095.0,2766.0,2497.0,2800.0,2300.0,-0.94,9.22,6.88,0.49,0.28,-0.39,a
3954.0,3635.0,2722.0,4095.0,2766.0,2497.0,2800.0,2300.0,-0.94,9.22,6.88,0.49,0.28,-0.39,a
3954.0,3635.0,2722.0,4095.0,2766.0,2497.0,2800.0,2300.0,-0.94,9.22,6.88,0.49,0.28,-0.39,a
3954.0,3635.0,2722.0,4095.0,2766.0,2497.0,2800.0,2300.0,-0.94,9.22,6.88,0.49,0.28,-0.39,a
3954.0,3635.0,2722.0,4095.0,2766.0,2497.0,2800.0,2300.0,-0.94,9.22,6.88,0.49,0.28,-0.39,a
3954.0,3635.0,2722.0,4095.0,2766.0,2497.0,2800.0,2300.0,-0.94,9.22,6.88,0.49,0.28,-0.39,a
3954.0,3635.0,2722.0,4095.0,2766.0,2497.0,2800.0,2300.0,-0.94,9.22,6.88,0.49,0.28,-0.39,a
3954.0,3635.0,2722.0,4095.0,2766.0,2497.0,2800.0,2300.0,-0.94,9.22,6.88,0.49,0.28,-0.39,a
3954.0,3635.0,2722.0,4095.0,2766.0,2497.0,2800.0,2300.0,-0.94,9.22,6.88,0.49,0.28,-0.39,a
3954.0,3635.0,2722.0,4095.0,2766.0,2497.0,2800.0,2300.0,-0.94,9.22,6.88,0.49,0.28,-0.39,a
3954.0,3635.0,2722.0,4095.0,2766.0,2497.0,2800.0,2300.0,-0.94,9.22,6.88,0.49,0.28,-0.39,a
3954.0,3635.0,2722.0,4095.0,2766.0,2497.0,2800.0,2300.0,-0.94,9.22,6.88,0.49,0.28,-0.39,a
3954.0,3635.0,2722.0,4095.0,2766.0,2497.0,2800.0,2300.0,-0.94,9.22,6.88,0.49,0.28,-0.39,a
3954.0,3635.0,2722.0,4095.0,2766.0,2497.0,2800.0,2300.0,-0.94,9.22,6.88,0.49,0.28,-0.39,a
3950.0,3626.0,2710.0,4095.0,2768.0,2499.0,2810.0,2303.0,-1.57,9.25,7.16,0.44,0.19,-0.29,a
3950.0,3626.0,2710.0,4095.0,2768.0,2499.0,2810.0,2303.0,-1.57,9.25,7.16,0.44,0.19,-0.29,a
3950.0,3626.0,2710.0,4095.0,2768.0,2499.0,2810.0,2303.0,-1.57,9.25,7.16,0.44,0.19,-0.29,a
3950.0,3626.0,2710.0,4095.0,2768.0,2499.0,2810.0,2303.0,-1.57,9.25,7.16,0.44,0.19,-0.29,a
3950.0,3626.0,2710.0,4095.0,2768.0,2499.0,2810.0,2303.0,-1.57,9.25,7.16,0.44,0.19,-0.29,a
3950.0,3626.0,2710.0,4095.0,2768.0,2499.0,2810.0,2303.0,-1.57,9.25,7.16,0.44,0.19,-0.29,a
3950.0,3626.0,2710.0,4095.0,2768.0,2499.0,2810.0,2303.0,-1.57,9.25,7.16,0.44,0.19,-0.29,a
3950.0,3626.0,2710.0,4095.0,2768.0,2499.0,2810.0,2303.0,-1.57,9.25,7.16,0.44,0.19,-0.29,a
3950.0,3626.0,2710.0,4095.0,2768.0,2499.0,2810.0,2303.0,-1.57,9.25,7.16,0.44,0.19,-0.29,a
3950.0,3626.0,2710.0,4095.0,2768.0,2499.0,2810.0,2303.0,-1.57,9.25,7.16,0.44,0.19,-0.29,a
3950.0,3626.0,2710.0,4095.0,2768.0,2499.0,2810.0,2303.0,-1.57,9.25,7.16,0.44,0.19,-0.29,a
3950.0,3626.0,2710.0,4095.0,2768.0,2499.0,2810.0,2303.0,-1.57,9.25,7.16,0.44,0.19,-0.29,a
3950.0,3626.0,2710.0,4095.0,2768.0,2499.0,2810.0,2303.0,-1.57,9.25,7.16,0.44,0.19,-0.29,a
3950.0,3626.0,2710.0,4095.0,2768.0,2499.0,2810.0,2303.0,-1.57,9.25,7.16,0.44,0.19,-0.29,a
3950.0,3626.0,2710.0,4095.0,2768.0,2499.0,2810.0,2303.0,-1.57,9.25,7.16,0.44,0.19,-0.29,a
3950.0,3626.0,2710.0,4095.0,2768.0,2499.0,2810.0,2303.0,-1.57,9.25,7.16,0.44,0.19,-0.29,a
3950.0,3626.0,2710.0,4095.0,2768.0,2499.0,2810.0,2303.0,-1.57,9.25,7.16,0.44,0.19,-0.29,a
3950.0,3626.0,2710.0,4095.0,2768.0,2499.0,2810.0,2303.0,-1.57,9.25,7.16,0.44,0.19,-0.29,a
3950.0,3626.0,2710.0,4095.0,2768.0,2499.0,2810.0,2303.0,-1.57,9.25,7.16,0.44,0.19,-0.29,a
3950.0,3626.0,2710.0,4095.0,2768.0,2499.0,2810.0,2303.0,-1.57,9.25,7.16,0.44,0.19,-0.29,a
3951.0,3625.0,2711.0,4095.0,2768.0,2501.0,2805.0,2303.0,-1.64,9.57,6.66,0.43,0.09,-0.19,a
3951.0,3625.0,2711.0,4095.0,2768.0,2501.0,2805.0,2303.0,-1.64,9.57,6.66,0.43,0.09,-0.19,a
3951.0,3625.0,2711.0,4095.0,2768.0,2501.0,2805.0,2303.0,-1.64,9.57,6.66,0.43,0.09,-0.19,a
3951.0,3625.0,2711.0,4095.0,2768.0,2501.0,2805.0,2303.0,-1.64,9.57,6.66,0.43,0.09,-0.19,a
3951.0,3625.0,2711.0,4095.0,2768.0,2501.0,2805.0,2303.0,-1.64,9.57,6.66,0.43,0.09,-0.19,a
3951.0,3625.0,2711.0,4095.0,2768.0,2501.0,2805.0,2303.0,-1.64,9.57,6.66,0.43,0.09,-0.19,a
3951.0,3625.0,2711.0,4095.0,2768.0,2501.0,2805.0,2303.0,-1.64,9.57,6.66,0.43,0.09,-0.19,a
3951.0,3625.0,2711.0,4095.0,2768.0,2501.0,2805.0,2303.0,-1.64,9.57,6.66,0.43,0.09,-0.19,a
3951.0,3625.0,2711.0,4095.0,2768.0,2501.0,2805.0,2303.0,-1.64,9.57,6.66,0.43,0.09,-0.19,a
3951.0,3625.0,2711.0,4095.0,2768.0,2501.0,2805.0,2303.0,-1.64,9.57,6.66,0.43,0.09,-0.19,a
3951.0,3625.0,2711.0,4095.0,2768.0,2501.0,2805.0,2303.0,-1.64,9.57,6.66,0.43,0.09,-0.19,a
3951.0,3625.0,2711.0,4095.0,2768.0,2501.0,2805.0,2303.0,-1.64,9.57,6.66,0.43,0.09,-0.19,a
3951.0,3625.0,2711.0,4095.0,2768.0,2501.0,2805.0,2303.0,-1.64,9.57,6.66,0.43,0.09,-0.19,a
3951.0,3625.0,2711.0,4095.0,2768.0,2501.0,2805.0,2303.0,-1.64,9.57,6.66,0.43,0.09,-0.19,a
3951.0,3625.0,2711.0,4095.0,2768.0,2501.0,2805.0,2303.0,-1.64,9.57,6.66,0.43,0.09,-0.19,a
3951.0,3625.0,2711.0,4095.0,2768.0,2501.0,2805.0,2303.0,-1.64,9.57,6.66,0.43,0.09,-0.19,a
3951.0,3625.0,2711.0,4095.0,2768.0,2501.0,2805.0,2303.0,-1.64,9.57,6.66,0.43,0.09,-0.19,a
3951.0,3625.0,2711.0,4095.0,2768.0,2501.0,2805.0,2303.0,-1.64,9.57,6.66,0.43,0.09,-0.19,a
3951.0,3625.0,2711.0,4095.0,2768.0,2501.0,2805.0,2303.0,-1.64,9.57,6.66,0.43,0.09,-0.19,a
3951.0,3625.0,2711.0,4095.0,2768.0,2501.0,2805.0,2303.0,-1.64,9.57,6.66,0.43,0.09,-0.19,a
3950.0,3630.0,2726.0,4095.0,2769.0,2504.0,2811.0,2304.0,-1.58,9.45,5.93,0.37,0.29,-0.06,a
3950.0,3630.0,2726.0,4095.0,2769.0,2504.0,2811.0,2304.0,-1.58,9.45,5.93,0.37,0.29,-0.06,a
3950.0,3630.0,2726.0,4095.0,2769.0,2504.0,2811.0,2304.0,-1.58,9.45,5.93,0.37,0.29,-0.06,a
3950.0,3630.0,2726.0,4095.0,2769.0,2504.0,2811.0,2304.0,-1.58,9.45,5.93,0.37,0.29,-0.06,a
3950.0,3630.0,2726.0,4095.0,2769.0,2504.0,2811.0,2304.0,-1.58,9.45,5.93,0.37,0.29,-0.06,a
3950.0,3630.0,2726.0,4095.0,2769.0,2504.0,2811.0,2304.0,-1.58,9.45,5.93,0.37,0.29,-0.06,a
3950.0,3630.0,2726.0,4095.0,2769.0,2504.0,2811.0,2304.0,-1.58,9.45,5.93,0.37,0.29,-0.06,a
3950.0,3630.0,2726.0,4095.0,2769.0,2504.0,2811.0,2304.0,-1.58,9.45,5.93,0.37,0.29,-0.06,a
3950.0,3630.0,2726.0,4095.0,2769.0,2504.0,2811.0,2304.0,-1.58,9.45,5.93,0.37,0.29,-0.06,a
3950.0,3630.0,2726.0,4095.0,2769.0,2504.0,2811.0,2304.0,-1.58,9.45,5.93,0.37,0.29,-0.06,a
3950.0,3630.0,2726.0,4095.0,2769.0,2504.0,2811.0,2304.0,-1.58,9.45,5.93,0.37,0.29,-0.06,a
3950.0,3630.0,2726.0,4095.0,2769.0,2504.0,2811.0,2304.0,-1.58,9.45,5.93,0.37,0.29,-0.06,a
3950.0,3630.0,2726.0,4095.0,2769.0,2504.0,2811.0,2304.0,-1.58,9.45,5.93,0.37,0.29,-0.06,a
3950.0,3630.0,2726.0,4095.0,2769.0,2504.0,2811.0,2304.0,-1.58,9.45,5.93,0.37,0.29,-0.06,a
3950.0,3630.0,2726.0,4095.0,2769.0,2504.0,2811.0,2304.0,-1.58,9.45,5.93,0.37,0.29,-0.06,a
3950.0,3630.0,2726.0,4095.0,2769.0,2504.0,2811.0,2304.0,-1.58,9.45,5.93,0.37,0.29,-0.06,a
3950.0,3630.0,2726.0,4095.0,2769.0,2504.0,2811.0,2304.0,-1.58,9.45,5.93,0.37,0.29,-0.06,a
3950.0,3630.0,2726.0,4095.0,2769.0,2504.0,2811.0,2304.0,-1.58,9.45,5.93,0.37,0.29,-0.06,a
3950.0,3630.0,2726.0,4095.0,2769.0,2504.0,2811.0,2304.0,-1.58,9.45,5.93,0.37,0.29,-0.06,a
3950.0,3630.0,2726.0,4095.0,2769.0,2504.0,2811.0,2304.0,-1.58,9.45,5.93,0.37,0.29,-0.06,a
3955.0,3628.0,2718.0,4095.0,2763.0,2502.0,2802.0,2302.0,-1.62,9.75,4.0,-0.03,0.37,0.01,a
3955.0,3628.0,2718.0,4095.0,2763.0,2502.0,2802.0,2302.0,-1.62,9.75,4.0,-0.03,0.37,0.01,a
3955.0,3628.0,2718.0,4095.0,2763.0,2502.0,2802.0,2302.0,-1.62,9.75,4.0,-0.03,0.37,0.01,a
3955.0,3628.0,2718.0,4095.0,2763.0,2502.0,2802.0,2302.0,-1.62,9.75,4.0,-0.03,0.37,0.01,a
3955.0,3628.0,2718.0,4095.0,2763.0,2502.0,2802.0,2302.0,-1.62,9.75,4.0,-0.03,0.37,0.01,a
3955.0,3628.0,2718.0,4095.0,2763.0,2502.0,2802.0,2302.0,-1.62,9.75,4.0,-0.03,0.37,0.01,a
3955.0,3628.0,2718.0,4095.0,2763.0,2502.0,2802.0,2302.0,-1.62,9.75,4.0,-0.03,0.37,0.01,a
3955.0,3628.0,2718.0,4095.0,2763.0,2502.0,2802.0,2302.0,-1.62,9.75,4.0,-0.03,0.37,0.01,a
3955.0,3628.0,2718.0,4095.0,2763.0,2502.0,2802.0,2302.0,-1.62,9.75,4.0,-0.03,0.37,0.01,a
3955.0,3628.0,2718.0,4095.0,2763.0,2502.0,2802.0,2302.0,-1.62,9.75,4.0,-0.03,0.37,0.01,a
3955.0,3628.0,2718.0,4095.0,2763.0,2502.0,2802.0,2302.0,-1.62,9.75,4.0,-0.03,0.37,0.01,a
3955.0,3628.0,2718.0,4095.0,2763.0,2502.0,2802.0,2302.0,-1.62,9.75,4.0,-0.03,0.37,0.01,a
3955.0,3628.0,2718.0,4095.0,2763.0,2502.0,2802.0,2302.0,-1.62,9.75,4.0,-0.03,0.37,0.01,a
3955.0,3628.0,2718.0,4095.0,2763.0,2502.0,2802.0,2302.0,-1.62,9.75,4.0,-0.03,0.37,0.01,a
3955.0,3628.0,2718.0,4095.0,2763.0,2502.0,2802.0,2302.0,-1.62,9.75,4.0,-0.03,0.37,0.01,a
3955.0,3628.0,2718.0,4095.0,2763.0,2502.0,2802.0,2302.0,-1.62,9.75,4.0,-0.03,0.37,0.01,a
3955.0,3628.0,2718.0,4095.0,2763.0,2502.0,2802.0,2302.0,-1.62,9.75,4.0,-0.03,0.37,0.01,a
3955.0,3628.0,2718.0,4095.0,2763.0,2502.0,2802.0,2302.0,-1.62,9.75,4.0,-0.03,0.37,0.01,a
3955.0,3628.0,2718.0,4095.0,2763.0,2502.0,2802.0,2302.0,-1.62,9.75,4.0,-0.03,0.37,0.01,a
3955.0,3628.0,2718.0,4095.0,2763.0,2502.0,2802.0,2302.0,-1.62,9.75,4.0,-0.03,0.37,0.01,a
3948.0,3621.0,2720.0,4095.0,2763.0,2498.0,2802.0,2306.0,-1.74,9.27,4.62,-0.53,0.41,0.09,a
3948.0,3621.0,2720.0,4095.0,2763.0,2498.0,2802.0,2306.0,-1.74,9.27,4.62,-0.53,0.41,0.09,a
3948.0,3621.0,2720.0,4095.0,2763.0,2498.0,2802.0,2306.0,-1.74,9.27,4.62,-0.53,0.41,0.09,a
3948.0,3621.0,2720.0,4095.0,2763.0,2498.0,2802.0,2306.0,-1.74,9.27,4.62,-0.53,0.41,0.09,a
3948.0,3621.0,2720.0,4095.0,2763.0,2498.0,2802.0,2306.0,-1.74,9.27,4.62,-0.53,0.41,0.09,a
3948.0,3621.0,2720.0,4095.0,2763.0,2498.0,2802.0,2306.0,-1.74,9.27,4.62,-0.53,0.41,0.09,a
3948.0,3621.0,2720.0,4095.0,2763.0,2498.0,2802.0,2306.0,-1.74,9.27,4.62,-0.53,0.41,0.09,a
3948.0,3621.0,2720.0,4095.0,2763.0,2498.0,2802.0,2306.0,-1.74,9.27,4.62,-0.53,0.41,0.09,a
3948.0,3621.0,2720.0,4095.0,2763.0,2498.0,2802.0,2306.0,-1.74,9.27,4.62,-0.53,0.41,0.09,a
3948.0,3621.0,2720.0,4095.0,2763.0,2498.0,2802.0,2306.0,-1.74,9.27,4.62,-0.53,0.41,0.09,a
3948.0,3621.0,2720.0,4095.0,2763.0,2498.0,2802.0,2306.0,-1.74,9.27,4.62,-0.53,0.41,0.09,a
3948.0,3621.0,2720.0,4095.0,2763.0,2498.0,2802.0,2306.0,-1.74,9.27,4.62,-0.53,0.41,0.09,a
3948.0,3621.0,2720.0,4095.0,2763.0,2498.0,2802.0,2306.0,-1.74,9.27,4.62,-0.53,0.41,0.09,a
3948.0,3621.0,2720.0,4095.0,2763.0,2498.0,2802.0,2306.0,-1.74,9.27,4.62,-0.53,0.41,0.09,a
3948.0,3621.0,2720.0,4095.0,2763.0,2498.0,2802.0,2306.0,-1.74,9.27,4.62,-0.53,0.41,0.09,a
3948.0,3621.0,2720.0,4095.0,2763.0,2498.0,2802.0,2306.0,-1.74,9.27,4.62,-0.53,0.41,0.09,a
3948.0,3621.0,2720.0,4095.0,2763.0,2498.0,2802.0,2306.0,-1.74,9.27,4.62,-0.53,0.41,0.09,a
3948.0,3621.0,2720.0,4095.0,2763.0,2498.0,2802.0,2306.0,-1.74,9.27,4.62,-0.53,0.41,0.09,a
3948.0,3621.0,2720.0,4095.0,2763.0,2498.0,2802.0,2306.0,-1.74,9.27,4.62,-0.53,0.41,0.09,a
3948.0,3621.0,2720.0,4095.0,2763.0,2498.0,2802.0,2306.0,-1.74,9.27,4.62,-0.53,0.41,0.09,a
3953.0,3619.0,2726.0,4095.0,2764.0,2496.0,2800.0,2304.0,-0.93,8.77,6.58,-0.87,0.24,0.28,a
3953.0,3619.0,2726.0,4095.0,2764.0,2496.0,2800.0,2304.0,-0.93,8.77,6.58,-0.87,0.24,0.28,a
3953.0,3619.0,2726.0,4095.0,2764.0,2496.0,2800.0,2304.0,-0.93,8.77,6.58,-0.87,0.24,0.28,a
3953.0,3619.0,2726.0,4095.0,2764.0,2496.0,2800.0,2304.0,-0.93,8.77,6.58,-0.87,0.24,0.28,a
3953.0,3619.0,2726.0,4095.0,2764.0,2496.0,2800.0,2304.0,-0.93,8.77,6.58,-0.87,0.24,0.28,a
3953.0,3619.0,2726.0,4095.0,2764.0,2496.0,2800.0,2304.0,-0.93,8.77,6.58,-0.87,0.24,0.28,a
3953.0,3619.0,2726.0,4095.0,2764.0,2496.0,2800.0,2304.0,-0.93,8.77,6.58,-0.87,0.24,0.28,a
3953.0,3619.0,2726.0,4095.0,2764.0,2496.0,2800.0,2304.0,-0.93,8.77,6.58,-0.87,0.24,0.28,a
3953.0,3619.0,2726.0,4095.0,2764.0,2496.0,2800.0,2304.0,-0.93,8.77,6.58,-0.87,0.24,0.28,a
3953.0,3619.0,2726.0,4095.0,2764.0,2496.0,2800.0,2304.0,-0.93,8.77,6.58,-0.87,0.24,0.28,a
3953.0,3619.0,2726.0,4095.0,2764.0,2496.0,2800.0,2304.0,-0.93,8.77,6.58,-0.87,0.24,0.28,a
3953.0,3619.0,2726.0,4095.0,2764.0,2496.0,2800.0,2304.0,-0.93,8.77,6.58,-0.87,0.24,0.28,a
3953.0,3619.0,2726.0,4095.0,2764.0,2496.0,2800.0,2304.0,-0.93,8.77,6.58,-0.87,0.24,0.28,a
3953.0,3619.0,2726.0,4095.0,2764.0,2496.0,2800.0,2304.0,-0.93,8.77,6.58,-0.87,0.24,0.28,a
3953.0,3619.0,2726.0,4095.0,2764.0,2496.0,2800.0,2304.0,-0.93,8.77,6.58,-0.87,0.24,0.28,a
3953.0,3619.0,2726.0,4095.0,2764.0,2496.0,2800.0,2304.0,-0.93,8.77,6.58,-0.87,0.24,0.28,a
3953.0,3619.0,2726.0,4095.0,2764.0,2496.0,2800.0,2304.0,-0.93,8.77,6.58,-0.87,0.24,0.28,a
3953.0,3619.0,2726.0,4095.0,2764.0,2496.0,2800.0,2304.0,-0.93,8.77,6.58,-0.87,0.24,0.28,a
3953.0,3619.0,2726.0,4095.0,2764.0,2496.0,2800.0,2304.0,-0.93,8.77,6.58,-0.87,0.24,0.28,a
3953.0,3619.0,2726.0,4095.0,2764.0,2496.0,2800.0,2304.0,-0.93,8.77,6.58,-0.87,0.24,0.28,a
3943.0,3614.0,2723.0,4095.0,2767.0,2499.0,2804.0,2305.0,-0.38,8.83,7.58,-0.84,0.01,0.21,a
3943.0,3614.0,2723.0,4095.0,2767.0,2499.0,2804.0,2305.0,-0.38,8.83,7.58,-0.84,0.01,0.21,a
3943.0,3614.0,2723.0,4095.0,2767.0,2499.0,2804.0,2305.0,-0.38,8.83,7.58,-0.84,0.01,0.21,a
3943.0,3614.0,2723.0,4095.0,2767.0,2499.0,2804.0,2305.0,-0.38,8.83,7.58,-0.84,0.01,0.21,a
3943.0,3614.0,2723.0,4095.0,2767.0,2499.0,2804.0,2305.0,-0.38,8.83,7.58,-0.84,0.01,0.21,a
3943.0,3614.0,2723.0,4095.0,2767.0,2499.0,2804.0,2305.0,-0.38,8.83,7.58,-0.84,0.01,0.21,a
3943.0,3614.0,2723.0,4095.0,2767.0,2499.0,2804.0,2305.0,-0.38,8.83,7.58,-0.84,0.01,0.21,a
3943.0,3614.0,2723.0,4095.0,2767.0,2499.0,2804.0,2305.0,-0.38,8.83,7.58,-0.84,0.01,0.21,a
3943.0,3614.0,2723.0,4095.0,2767.0,2499.0,2804.0,2305.0,-0.38,8.83,7.58,-0.84,0.01,0.21,a
3943.0,3614.0,2723.0,4095.0,2767.0,2499.0,2804.0,2305.0,-0.38,8.83,7.58,-0.84,0.01,0.21,a
3943.0,3614.0,2723.0,4095.0,2767.0,2499.0,2804.0,2305.0,-0.38,8.83,7.58,-0.84,0.01,0.21,a
3943.0,3614.0,2723.0,4095.0,2767.0,2499.0,2804.0,2305.0,-0.38,8.83,7.58,-0.84,0.01,0.21,a
3943.0,3614.0,2723.0,4095.0,2767.0,2499.0,2804.0,2305.0,-0.38,8.83,7.58,-0.84,0.01,0.21,a
3943.0,3614.0,2723.0,4095.0,2767.0,2499.0,2804.0,2305.0,-0.38,8.83,7.58,-0.84,0.01,0.21,a
3943.0,3614.0,2723.0,4095.0,2767.0,2499.0,2804.0,2305.0,-0.38,8.83,7.58,-0.84,0.01,0.21,a
3943.0,3614.0,2723.0,4095.0,2767.0,2499.0,2804.0,2305.0,-0.38,8.83,7.58,-0.84,0.01,0.21,a
3943.0,3614.0,2723.0,4095.0,2767.0,2499.0,2804.0,2305.0,-0.38,8.83,7.58,-0.84,0.01,0.21,a
3943.0,3614.0,2723.0,4095.0,2767.0,2499.0,2804.0,2305.0,-0.38,8.83,7.58,-0.84,0.01,0.21,a
3943.0,3614.0,2723.0,4095.0,2767.0,2499.0,2804.0,2305.0,-0.38,8.83,7.58,-0.84,0.01,0.21,a
3943.0,3614.0,2723.0,4095.0,2767.0,2499.0,2804.0,2305.0,-0.38,8.83,7.58,-0.84,0.01,0.21,a
3956.0,3634.0,2727.0,4095.0,2768.0,2501.0,2804.0,2304.0,0.73,9.06,8.54,-0.86,-0.35,0.03,a
3956.0,3634.0,2727.0,4095.0,2768.0,2501.0,2804.0,2304.0,0.73,9.06,8.54,-0.86,-0.35,0.03,a
3956.0,3634.0,2727.0,4095.0,2768.0,2501.0,2804.0,2304.0,0.73,9.06,8.54,-0.86,-0.35,0.03,a
3956.0,3634.0,2727.0,4095.0,2768.0,2501.0,2804.0,2304.0,0.73,9.06,8.54,-0.86,-0.35,0.03,a
3956.0,3634.0,2727.0,4095.0,2768.0,2501.0,2804.0,2304.0,0.73,9.06,8.54,-0.86,-0.35,0.03,a
3956.0,3634.0,2727.0,4095.0,2768.0,2501.0,2804.0,2304.0,0.73,9.06,8.54,-0.86,-0.35,0.03,a
3956.0,3634.0,2727.0,4095.0,2768.0,2501.0,2804.0,2304.0,0.73,9.06,8.54,-0.86,-0.35,0.03,a
3956.0,3634.0,2727.0,4095.0,2768.0,2501.0,2804.0,2304.0,0.73,9.06,8.54,-0.86,-0.35,0.03,a
3956.0,3634.0,2727.0,4095.0,2768.0,2501.0,2804.0,2304.0,0.73,9.06,8.54,-0.86,-0.35,0.03,a
3956.0,3634.0,2727.0,4095.0,2768.0,2501.0,2804.0,2304.0,0.73,9.06,8.54,-0.86,-0.35,0.03,a
3956.0,3634.0,2727.0,4095.0,2768.0,2501.0,2804.0,2304.0,0.73,9.06,8.54,-0.86,-0.35,0.03,a
3956.0,3634.0,2727.0,4095.0,2768.0,2501.0,2804.0,2304.0,0.73,9.06,8.54,-0.86,-0.35,0.03,a
3956.0,3634.0,2727.0,4095.0,2768.0,2501.0,2804.0,2304.0,0.73,9.06,8.54,-0.86,-0.35,0.03,a
3956.0,3634.0,2727.0,4095.0,2768.0,2501.0,2804.0,2304.0,0.73,9.06,8.54,-0.86,-0.35,0.03,a
3956.0,3634.0,2727.0,4095.0,2768.0,2501.0,2804.0,2304.0,0.73,9.06,8.54,-0.86,-0.35,0.03,a
3956.0,3634.0,2727.0,4095.0,2768.0,2501.0,2804.0,2304.0,0.73,9.06,8.54,-0.86,-0.35,0.03,a
3956.0,3634.0,2727.0,4095.0,2768.0,2501.0,2804.0,2304.0,0.73,9.06,8.54,-0.86,-0.35,0.03,a
3956.0,3634.0,2727.0,4095.0,2768.0,2501.0,2804.0,2304.0,0.73,9.06,8.54,-0.86,-0.35,0.03,a
3956.0,3634.0,2727.0,4095.0,2768.0,2501.0,2804.0,2304.0,0.73,9.06,8.54,-0.86,-0.35,0.03,a
3956.0,3634.0,2727.0,4095.0,2768.0,2501.0,2804.0,2304.0,0.73,9.06,8.54,-0.86,-0.35,0.03,a
3949.0,3621.0,2721.0,4095.0,2768.0,2498.0,2802.0,2306.0,0.69,8.94,10.11,-0.63,-0.33,-0.24,a
3949.0,3621.0,2721.0,4095.0,2768.0,2498.0,2802.0,2306.0,0.69,8.94,10.11,-0.63,-0.33,-0.24,a
3949.0,3621.0,2721.0,4095.0,2768.0,2498.0,2802.0,2306.0,0.69,8.94,10.11,-0.63,-0.33,-0.24,a
3949.0,3621.0,2721.0,4095.0,2768.0,2498.0,2802.0,2306.0,0.69,8.94,10.11,-0.63,-0.33,-0.24,a
3949.0,3621.0,2721.0,4095.0,2768.0,2498.0,2802.0,2306.0,0.69,8.94,10.11,-0.63,-0.33,-0.24,a
3949.0,3621.0,2721.0,4095.0,2768.0,2498.0,2802.0,2306.0,0.69,8.94,10.11,-0.63,-0.33,-0.24,a
3949.0,3621.0,2721.0,4095.0,2768.0,2498.0,2802.0,2306.0,0.69,8.94,10.11,-0.63,-0.33,-0.24,a
3949.0,3621.0,2721.0,4095.0,2768.0,2498.0,2802.0,2306.0,0.69,8.94,10.11,-0.63,-0.33,-0.24,a
3949.0,3621.0,2721.0,4095.0,2768.0,2498.0,2802.0,2306.0,0.69,8.94,10.11,-0.63,-0.33,-0.24,a
3949.0,3621.0,2721.0,4095.0,2768.0,2498.0,2802.0,2306.0,0.69,8.94,10.11,-0.63,-0.33,-0.24,a
3949.0,3621.0,2721.0,4095.0,2768.0,2498.0,2802.0,2306.0,0.69,8.94,10.11,-0.63,-0.33,-0.24,a
3949.0,3621.0,2721.0,4095.0,2768.0,2498.0,2802.0,2306.0,0.69,8.94,10.11,-0.63,-0.33,-0.24,a
3949.0,3621.0,2721.0,4095.0,2768.0,2498.0,2802.0,2306.0,0.69,8.94,10.11,-0.63,-0.33,-0.24,a
3949.0,3621.0,2721.0,4095.0,2768.0,2498.0,2802.0,2306.0,0.69,8.94,10.11,-0.63,-0.33,-0.24,a
3949.0,3621.0,2721.0,4095.0,2768.0,2498.0,2802.0,2306.0,0.69,8.94,10.11,-0.63,-0.33,-0.24,a
3949.0,3621.0,2721.0,4095.0,2768.0,2498.0,2802.0,2306.0,0.69,8.94,10.11,-0.63,-0.33,-0.24,a
3949.0,3621.0,2721.0,4095.0,2768.0,2498.0,2802.0,2306.0,0.69,8.94,10.11,-0.63,-0.33,-0.24,a
3949.0,3621.0,2721.0,4095.0,2768.0,2498.0,2802.0,2306.0,0.69,8.94,10.11,-0.63,-0.33,-0.24,a
3949.0,3621.0,2721.0,4095.0,2768.0,2498.0,2802.0,2306.0,0.69,8.94,10.11,-0.63,-0.33,-0.24,a
3949.0,3621.0,2721.0,4095.0,2768.0,2498.0,2802.0,2306.0,0.69,8.94,10.11,-0.63,-0.33,-0.24,a
3963.0,3583.0,2720.0,4095.0,2765.0,2500.0,2788.0,2306.0,1.23,8.92,10.39,-0.31,-0.75,-0.5,a
3963.0,3583.0,2720.0,4095.0,2765.0,2500.0,2788.0,2306.0,1.23,8.92,10.39,-0.31,-0.75,-0.5,a
3963.0,3583.0,2720.0,4095.0,2765.0,2500.0,2788.0,2306.0,1.23,8.92,10.39,-0.31,-0.75,-0.5,a
3963.0,3583.0,2720.0,4095.0,2765.0,2500.0,2788.0,2306.0,1.23,8.92,10.39,-0.31,-0.75,-0.5,a
3963.0,3583.0,2720.0,4095.0,2765.0,2500.0,2788.0,2306.0,1.23,8.92,10.39,-0.31,-0.75,-0.5,a
3963.0,3583.0,2720.0,4095.0,2765.0,2500.0,2788.0,2306.0,1.23,8.92,10.39,-0.31,-0.75,-0.5,a
3963.0,3583.0,2720.0,4095.0,2765.0,2500.0,2788.0,2306.0,1.23,8.92,10.39,-0.31,-0.75,-0.5,a
3963.0,3583.0,2720.0,4095.0,2765.0,2500.0,2788.0,2306.0,1.23,8.92,10.39,-0.31,-0.75,-0.5,a
3963.0,3583.0,2720.0,4095.0,2765.0,2500.0,2788.0,2306.0,1.23,8.92,10.39,-0.31,-0.75,-0.5,a
3963.0,3583.0,2720.0,4095.0,2765.0,2500.0,2788.0,2306.0,1.23,8.92,10.39,-0.31,-0.75,-0.5,a
3963.0,3583.0,2720.0,4095.0,2765.0,2500.0,2788.0,2306.0,1.23,8.92,10.39,-0.31,-0.75,-0.5,a
3963.0,3583.0,2720.0,4095.0,2765.0,2500.0,2788.0,2306.0,1.23,8.92,10.39,-0.31,-0.75,-0.5,a
3963.0,3583.0,2720.0,4095.0,2765.0,2500.0,2788.0,2306.0,1.23,8.92,10.39,-0.31,-0.75,-0.5,a
3963.0,3583.0,2720.0,4095.0,2765.0,2500.0,2788.0,2306.0,1.23,8.92,10.39,-0.31,-0.75,-0.5,a
3963.0,3583.0,2720.0,4095.0,2765.0,2500.0,2788.0,2306.0,1.23,8.92,10.39,-0.31,-0.75,-0.5,a
3963.0,3583.0,2720.0,4095.0,2765.0,2500.0,2788.0,2306.0,1.23,8.92,10.39,-0.31,-0.75,-0.5,a
3963.0,3583.0,2720.0,4095.0,2765.0,2500.0,2788.0,2306.0,1.23,8.92,10.39,-0.31,-0.75,-0.5,a
3963.0,3583.0,2720.0,4095.0,2765.0,2500.0,2788.0,2306.0,1.23,8.92,10.39,-0.31,-0.75,-0.5,a
3963.0,3583.0,2720.0,4095.0,2765.0,2500.0,2788.0,2306.0,1.23,8.92,10.39,-0.31,-0.75,-0.5,a
3963.0,3583.0,2720.0,4095.0,2765.0,2500.0,2788.0,2306.0,1.23,8.92,10.39,-0.31,-0.75,-0.5,a
3952.0,3599.0,2718.0,4095.0,2768.0,2505.0,2783.0,2295.0,-0.52,8.77,10.41,0.04,-0.57,-0.7,a
3952.0,3599.0,2718.0,4095.0,2768.0,2505.0,2783.0,2295.0,-0.52,8.77,10.41,0.04,-0.57,-0.7,a
3952.0,3599.0,2718.0,4095.0,2768.0,2505.0,2783.0,2295.0,-0.52,8.77,10.41,0.04,-0.57,-0.7,a
3952.0,3599.0,2718.0,4095.0,2768.0,2505.0,2783.0,2295.0,-0.52,8.77,10.41,0.04,-0.57,-0.7,a
3952.0,3599.0,2718.0,4095.0,2768.0,2505.0,2783.0,2295.0,-0.52,8.77,10.41,0.04,-0.57,-0.7,a
3952.0,3599.0,2718.0,4095.0,2768.0,2505.0,2783.0,2295.0,-0.52,8.77,10.41,0.04,-0.57,-0.7,a
3952.0,3599.0,2718.0,4095.0,2768.0,2505.0,2783.0,2295.0,-0.52,8.77,10.41,0.04,-0.57,-0.7,a
3952.0,3599.0,2718.0,4095.0,2768.0,2505.0,2783.0,2295.0,-0.52,8.77,10.41,0.04,-0.57,-0.7,a
3952.0,3599.0,2718.0,4095.0,2768.0,2505.0,2783.0,2295.0,-0.52,8.77,10.41,0.04,-0.57,-0.7,a
3952.0,3599.0,2718.0,4095.0,2768.0,2505.0,2783.0,2295.0,-0.52,8.77,10.41,0.04,-0.57,-0.7,a
3952.0,3599.0,2718.0,4095.0,2768.0,2505.0,2783.0,2295.0,-0.52,8.77,10.41,0.04,-0.57,-0.7,a
3952.0,3599.0,2718.0,4095.0,2768.0,2505.0,2783.0,2295.0,-0.52,8.77,10.41,0.04,-0.57,-0.7,a
3952.0,3599.0,2718.0,4095.0,2768.0,2505.0,2783.0,2295.0,-0.52,8.77,10.41,0.04,-0.57,-0.7,a
3952.0,3599.0,2718.0,4095.0,2768.0,2505.0,2783.0,2295.0,-0.52,8.77,10.41,0.04,-0.57,-0.7,a
3952.0,3599.0,2718.0,4095.0,2768.0,2505.0,2783.0,2295.0,-0.52,8.77,10.41,0.04,-0.57,-0.7,a
3952.0,3599.0,2718.0,4095.0,2768.0,2505.0,2783.0,2295.0,-0.52,8.77,10.41,0.04,-0.57,-0.7,a
3952.0,3599.0,2718.0,4095.0,2768.0,2505.0,2783.0,2295.0,-0.52,8.77,10.41,0.04,-0.57,-0.7,a
3952.0,3599.0,2718.0,4095.0,2768.0,2505.0,2783.0,2295.0,-0.52,8.77,10.41,0.04,-0.57,-0.7,a
3952.0,3599.0,2718.0,4095.0,2768.0,2505.0,2783.0,2295.0,-0.52,8.77,10.41,0.04,-0.57,-0.7,a
3952.0,3599.0,2718.0,4095.0,2768.0,2505.0,2783.0,2295.0,-0.52,8.77,10.41,0.04,-0.57,-0.7,a
3966.0,3554.0,2705.0,4095.0,2762.0,2507.0,2778.0,2309.0,-1.27,8.74,9.43,0.21,-0.66,-0.73,a
3966.0,3554.0,2705.0,4095.0,2762.0,2507.0,2778.0,2309.0,-1.27,8.74,9.43,0.21,-0.66,-0.73,a
3966.0,3554.0,2705.0,4095.0,2762.0,2507.0,2778.0,2309.0,-1.27,8.74,9.43,0.21,-0.66,-0.73,a
3966.0,3554.0,2705.0,4095.0,2762.0,2507.0,2778.0,2309.0,-1.27,8.74,9.43,0.21,-0.66,-0.73,a
3966.0,3554.0,2705.0,4095.0,2762.0,2507.0,2778.0,2309.0,-1.27,8.74,9.43,0.21,-0.66,-0.73,a
3966.0,3554.0,2705.0,4095.0,2762.0,2507.0,2778.0,2309.0,-1.27,8.74,9.43,0.21,-0.66,-0.73,a
3966.0,3554.0,2705.0,4095.0,2762.0,2507.0,2778.0,2309.0,-1.27,8.74,9.43,0.21,-0.66,-0.73,a
3966.0,3554.0,2705.0,4095.0,2762.0,2507.0,2778.0,2309.0,-1.27,8.74,9.43,0.21,-0.66,-0.73,a
3966.0,3554.0,2705.0,4095.0,2762.0,2507.0,2778.0,2309.0,-1.27,8.74,9.43,0.21,-0.66,-0.73,a
3966.0,3554.0,2705.0,4095.0,2762.0,2507.0,2778.0,2309.0,-1.27,8.74,9.43,0.21,-0.66,-0.73,a
3966.0,3554.0,2705.0,4095.0,2762.0,2507.0,2778.0,2309.0,-1.27,8.74,9.43,0.21,-0.66,-0.73,a
3966.0,3554.0,2705.0,4095.0,2762.0,2507.0,2778.0,2309.0,-1.27,8.74,9.43,0.21,-0.66,-0.73,a
3966.0,3554.0,2705.0,4095.0,2762.0,2507.0,2778.0,2309.0,-1.27,8.74,9.43,0.21,-0.66,-0.73,a
3966.0,3554.0,2705.0,4095.0,2762.0,2507.0,2778.0,2309.0,-1.27,8.74,9.43,0.21,-0.66,-0.73,a
3966.0,3554.0,2705.0,4095.0,2762.0,2507.0,2778.0,2309.0,-1.27,8.74,9.43,0.21,-0.66,-0.73,a
3966.0,3554.0,2705.0,4095.0,2762.0,2507.0,2778.0,2309.0,-1.27,8.74,9.43,0.21,-0.66,-0.73,a
3966.0,3554.0,2705.0,4095.0,2762.0,2507.0,2778.0,2309.0,-1.27,8.74,9.43,0.21,-0.66,-0.73,a
3966.0,3554.0,2705.0,4095.0,2762.0,2507.0,2778.0,2309.0,-1.27,8.74,9.43,0.21,-0.66,-0.73,a
3966.0,3554.0,2705.0,4095.0,2762.0,2507.0,2778.0,2309.0,-1.27,8.74,9.43,0.21,-0.66,-0.73,a
3966.0,3554.0,2705.0,4095.0,2762.0,2507.0,2778.0,2309.0,-1.27,8.74,9.43,0.21,-0.66,-0.73,a
3966.0,3563.0,2700.0,4095.0,2768.0,2512.0,2785.0,2319.0,-1.3,8.67,9.18,0.25,-0.45,-0.61,a
3966.0,3563.0,2700.0,4095.0,2768.0,2512.0,2785.0,2319.0,-1.3,8.67,9.18,0.25,-0.45,-0.61,a
3966.0,3563.0,2700.0,4095.0,2768.0,2512.0,2785.0,2319.0,-1.3,8.67,9.18,0.25,-0.45,-0.61,a
3966.0,3563.0,2700.0,4095.0,2768.0,2512.0,2785.0,2319.0,-1.3,8.67,9.18,0.25,-0.45,-0.61,a
3966.0,3563.0,2700.0,4095.0,2768.0,2512.0,2785.0,2319.0,-1.3,8.67,9.18,0.25,-0.45,-0.61,a
3966.0,3563.0,2700.0,4095.0,2768.0,2512.0,2785.0,2319.0,-1.3,8.67,9.18,0.25,-0.45,-0.61,a
3966.0,3563.0,2700.0,4095.0,2768.0,2512.0,2785.0,2319.0,-1.3,8.67,9.18,0.25,-0.45,-0.61,a
3966.0,3563.0,2700.0,4095.0,2768.0,2512.0,2785.0,2319.0,-1.3,8.67,9.18,0.25,-0.45,-0.61,a
3966.0,3563.0,2700.0,4095.0,2768.0,2512.0,2785.0,2319.0,-1.3,8.67,9.18,0.25,-0.45,-0.61,a
3966.0,3563.0,2700.0,4095.0,2768.0,2512.0,2785.0,2319.0,-1.3,8.67,9.18,0.25,-0.45,-0.61,a
3966.0,3563.0,2700.0,4095.0,2768.0,2512.0,2785.0,2319.0,-1.3,8.67,9.18,0.25,-0.45,-0.61,a
3966.0,3563.0,2700.0,4095.0,2768.0,2512.0,2785.0,2319.0,-1.3,8.67,9.18,0.25,-0.45,-0.61,a
3966.0,3563.0,2700.0,4095.0,2768.0,2512.0,2785.0,2319.0,-1.3,8.67,9.18,0.25,-0.45,-0.61,a
3966.0,3563.0,2700.0,4095.0,2768.0,2512.0,2785.0,2319.0,-1.3,8.67,9.18,0.25,-0.45,-0.61,a
3966.0,3563.0,2700.0,4095.0,2768.0,2512.0,2785.0,2319.0,-1.3,8.67,9.18,0.25,-0.45,-0.61,a
3966.0,3563.0,2700.0,4095.0,2768.0,2512.0,2785.0,2319.0,-1.3,8.67,9.18,0.25,-0.45,-0.61,a
3966.0,3563.0,2700.0,4095.0,2768.0,2512.0,2785.0,2319.0,-1.3,8.67,9.18,0.25,-0.45,-0.61,a
3966.0,3563.0,2700.0,4095.0,2768.0,2512.0,2785.0,2319.0,-1.3,8.67,9.18,0.25,-0.45,-0.61,a
3966.0,3563.0,2700.0,4095.0,2768.0,2512.0,2785.0,2319.0,-1.3,8.67,9.18,0.25,-0.45,-0.61,a
3966.0,3563.0,2700.0,4095.0,2768.0,2512.0,2785.0,2319.0,-1.3,8.67,9.18,0.25,-0.45,-0.61,a
3957.0,3567.0,2699.0,4095.0,2770.0,2512.0,2789.0,2321.0,-1.84,8.49,9.76,0.34,-0.08,-0.43,a
3957.0,3567.0,2699.0,4095.0,2770.0,2512.0,2789.0,2321.0,-1.84,8.49,9.76,0.34,-0.08,-0.43,a
3957.0,3567.0,2699.0,4095.0,2770.0,2512.0,2789.0,2321.0,-1.84,8.49,9.76,0.34,-0.08,-0.43,a
3957.0,3567.0,2699.0,4095.0,2770.0,2512.0,2789.0,2321.0,-1.84,8.49,9.76,0.34,-0.08,-0.43,a
3957.0,3567.0,2699.0,4095.0,2770.0,2512.0,2789.0,2321.0,-1.84,8.49,9.76,0.34,-0.08,-0.43,a
3957.0,3567.0,2699.0,4095.0,2770.0,2512.0,2789.0,2321.0,-1.84,8.49,9.76,0.34,-0.08,-0.43,a
3957.0,3567.0,2699.0,4095.0,2770.0,2512.0,2789.0,2321.0,-1.84,8.49,9.76,0.34,-0.08,-0.43,a
3957.0,3567.0,2699.0,4095.0,2770.0,2512.0,2789.0,2321.0,-1.84,8.49,9.76,0.34,-0.08,-0.43,a
3957.0,3567.0,2699.0,4095.0,2770.0,2512.0,2789.0,2321.0,-1.84,8.49,9.76,0.34,-0.08,-0.43,a
3957.0,3567.0,2699.0,4095.0,2770.0,2512.0,2789.0,2321.0,-1.84,8.49,9.76,0.34,-0.08,-0.43,a
3957.0,3567.0,2699.0,4095.0,2770.0,2512.0,2789.0,2321.0,-1.84,8.49,9.76,0.34,-0.08,-0.43,a
3957.0,3567.0,2699.0,4095.0,2770.0,2512.0,2789.0,2321.0,-1.84,8.49,9.76,0.34,-0.08,-0.43,a
3957.0,3567.0,2699.0,4095.0,2770.0,2512.0,2789.0,2321.0,-1.84,8.49,9.76,0.34,-0.08,-0.43,a
3957.0,3567.0,2699.0,4095.0,2770.0,2512.0,2789.0,2321.0,-1.84,8.49,9.76,0.34,-0.08,-0.43,a
3957.0,3567.0,2699.0,4095.0,2770.0,2512.0,2789.0,2321.0,-1.84,8.49,9.76,0.34,-0.08,-0.43,a
3957.0,3567.0,2699.0,4095.0,2770.0,2512.0,2789.0,2321.0,-1.84,8.49,9.76,0.34,-0.08,-0.43,a
3957.0,3567.0,2699.0,4095.0,2770.0,2512.0,2789.0,2321.0,-1.84,8.49,9.76,0.34,-0.08,-0.43,a
3957.0,3567.0,2699.0,4095.0,2770.0,2512.0,2789.0,2321.0,-1.84,8.49,9.76,0.34,-0.08,-0.43,a
3957.0,3567.0,2699.0,4095.0,2770.0,2512.0,2789.0,2321.0,-1.84,8.49,9.76,0.34,-0.08,-0.43,a
3957.0,3567.0,2699.0,4095.0,2770.0,2512.0,2789.0,2321.0,-1.84,8.49,9.76,0.34,-0.08,-0.43,a
3953.0,3562.0,2704.0,4095.0,2768.0,2512.0,2787.0,2322.0,-1.64,8.57,9.32,0.52,-0.06,-0.27,a
3953.0,3562.0,2704.0,4095.0,2768.0,2512.0,2787.0,2322.0,-1.64,8.57,9.32,0.52,-0.06,-0.27,a
3953.0,3562.0,2704.0,4095.0,2768.0,2512.0,2787.0,2322.0,-1.64,8.57,9.32,0.52,-0.06,-0.27,a
3953.0,3562.0,2704.0,4095.0,2768.0,2512.0,2787.0,2322.0,-1.64,8.57,9.32,0.52,-0.06,-0.27,a
3953.0,3562.0,2704.0,4095.0,2768.0,2512.0,2787.0,2322.0,-1.64,8.57,9.32,0.52,-0.06,-0.27,a
3953.0,3562.0,2704.0,4095.0,2768.0,2512.0,2787.0,2322.0,-1.64,8.57,9.32,0.52,-0.06,-0.27,a
3953.0,3562.0,2704.0,4095.0,2768.0,2512.0,2787.0,2322.0,-1.64,8.57,9.32,0.52,-0.06,-0.27,a
3953.0,3562.0,2704.0,4095.0,2768.0,2512.0,2787.0,2322.0,-1.64,8.57,9.32,0.52,-0.06,-0.27,a
3953.0,3562.0,2704.0,4095.0,2768.0,2512.0,2787.0,2322.0,-1.64,8.57,9.32,0.52,-0.06,-0.27,a
3953.0,3562.0,2704.0,4095.0,2768.0,2512.0,2787.0,2322.0,-1.64,8.57,9.32,0.52,-0.06,-0.27,a
3953.0,3562.0,2704.0,4095.0,2768.0,2512.0,2787.0,2322.0,-1.64,8.57,9.32,0.52,-0.06,-0.27,a
3953.0,3562.0,2704.0,4095.0,2768.0,2512.0,2787.0,2322.0,-1.64,8.57,9.32,0.52,-0.06,-0.27,a
3953.0,3562.0,2704.0,4095.0,2768.0,2512.0,2787.0,2322.0,-1.64,8.57,9.32,0.52,-0.06,-0.27,a
3953.0,3562.0,2704.0,4095.0,2768.0,2512.0,2787.0,2322.0,-1.64,8.57,9.32,0.52,-0.06,-0.27,a
3953.0,3562.0,2704.0,4095.0,2768.0,2512.0,2787.0,2322.0,-1.64,8.57,9.32,0.52,-0.06,-0.27,a
3953.0,3562.0,2704.0,4095.0,2768.0,2512.0,2787.0,2322.0,-1.64,8.57,9.32,0.52,-0.06,-0.27,a
3953.0,3562.0,2704.0,4095.0,2768.0,2512.0,2787.0,2322.0,-1.64,8.57,9.32,0.52,-0.06,-0.27,a
3953.0,3562.0,2704.0,4095.0,2768.0,2512.0,2787.0,2322.0,-1.64,8.57,9.32,0.52,-0.06,-0.27,a
3953.0,3562.0,2704.0,4095.0,2768.0,2512.0,2787.0,2322.0,-1.64,8.57,9.32,0.52,-0.06,-0.27,a
3953.0,3562.0,2704.0,4095.0,2768.0,2512.0,2787.0,2322.0,-1.64,8.57,9.32,0.52,-0.06,-0.27,a
3966.0,3568.0,2693.0,4095.0,2766.0,2511.0,2790.0,2324.0,-1.55,8.76,8.15,0.6,0.2,-0.15,a
3966.0,3568.0,2693.0,4095.0,2766.0,2511.0,2790.0,2324.0,-1.55,8.76,8.15,0.6,0.2,-0.15,a
3966.0,3568.0,2693.0,4095.0,2766.0,2511.0,2790.0,2324.0,-1.55,8.76,8.15,0.6,0.2,-0.15,a
3966.0,3568.0,2693.0,4095.0,2766.0,2511.0,2790.0,2324.0,-1.55,8.76,8.15,0.6,0.2,-0.15,a
3966.0,3568.0,2693.0,4095.0,2766.0,2511.0,2790.0,2324.0,-1.55,8.76,8.15,0.6,0.2,-0.15,a
3966.0,3568.0,2693.0,4095.0,2766.0,2511.0,2790.0,2324.0,-1.55,8.76,8.15,0.6,0.2,-0.15,a
3966.0,3568.0,2693.0,4095.0,2766.0,2511.0,2790.0,2324.0,-1.55,8.76,8.15,0.6,0.2,-0.15,a
3966.0,3568.0,2693.0,4095.0,2766.0,2511.0,2790.0,2324.0,-1.55,8.76,8.15,0.6,0.2,-0.15,a
3966.0,3568.0,2693.0,4095.0,2766.0,2511.0,2790.0,2324.0,-1.55,8.76,8.15,0.6,0.2,-0.15,a
3966.0,3568.0,2693.0,4095.0,2766.0,2511.0,2790.0,2324.0,-1.55,8.76,8.15,0.6,0.2,-0.15,a
3966.0,3568.0,2693.0,4095.0,2766.0,2511.0,2790.0,2324.0,-1.55,8.76,8.15,0.6,0.2,-0.15,a
3966.0,3568.0,2693.0,4095.0,2766.0,2511.0,2790.0,2324.0,-1.55,8.76,8.15,0.6,0.2,-0.15,a
3966.0,3568.0,2693.0,4095.0,2766.0,2511.0,2790.0,2324.0,-1.55,8.76,8.15,0.6,0.2,-0.15,a
3966.0,3568.0,2693.0,4095.0,2766.0,2511.0,2790.0,2324.0,-1.55,8.76,8.15,0.6,0.2,-0.15,a
3966.0,3568.0,2693.0,4095.0,2766.0,2511.0,2790.0,2324.0,-1.55,8.76,8.15,0.6,0.2,-0.15,a
3966.0,3568.0,2693.0,4095.0,2766.0,2511.0,2790.0,2324.0,-1.55,8.76,8.15,0.6,0.2,-0.15,a
3966.0,3568.0,2693.0,4095.0,2766.0,2511.0,2790.0,2324.0,-1.55,8.76,8.15,0.6,0.2,-0.15,a
3966.0,3568.0,2693.0,4095.0,2766.0,2511.0,2790.0,2324.0,-1.55,8.76,8.15,0.6,0.2,-0.15,a
3966.0,3568.0,2693.0,4095.0,2766.0,2511.0,2790.0,2324.0,-1.55,8.76,8.15,0.6,0.2,-0.15,a
3966.0,3568.0,2693.0,4095.0,2766.0,2511.0,2790.0,2324.0,-1.55,8.76,8.15,0.6,0.2,-0.15,a
3968.0,3559.0,2688.0,4095.0,2768.0,2511.0,2785.0,2320.0,-1.72,8.98,7.28,0.5,0.23,-0.02,a
3968.0,3559.0,2688.0,4095.0,2768.0,2511.0,2785.0,2320.0,-1.72,8.98,7.28,0.5,0.23,-0.02,a
3968.0,3559.0,2688.0,4095.0,2768.0,2511.0,2785.0,2320.0,-1.72,8.98,7.28,0.5,0.23,-0.02,a
3968.0,3559.0,2688.0,4095.0,2768.0,2511.0,2785.0,2320.0,-1.72,8.98,7.28,0.5,0.23,-0.02,a
3968.0,3559.0,2688.0,4095.0,2768.0,2511.0,2785.0,2320.0,-1.72,8.98,7.28,0.5,0.23,-0.02,a
3968.0,3559.0,2688.0,4095.0,2768.0,2511.0,2785.0,2320.0,-1.72,8.98,7.28,0.5,0.23,-0.02,a
3968.0,3559.0,2688.0,4095.0,2768.0,2511.0,2785.0,2320.0,-1.72,8.98,7.28,0.5,0.23,-0.02,a
3968.0,3559.0,2688.0,4095.0,2768.0,2511.0,2785.0,2320.0,-1.72,8.98,7.28,0.5,0.23,-0.02,a
3968.0,3559.0,2688.0,4095.0,2768.0,2511.0,2785.0,2320.0,-1.72,8.98,7.28,0.5,0.23,-0.02,a
3968.0,3559.0,2688.0,4095.0,2768.0,2511.0,2785.0,2320.0,-1.72,8.98,7.28,0.5,0.23,-0.02,a
3968.0,3559.0,2688.0,4095.0,2768.0,2511.0,2785.0,2320.0,-1.72,8.98,7.28,0.5,0.23,-0.02,a
3968.0,3559.0,2688.0,4095.0,2768.0,2511.0,2785.0,2320.0,-1.72,8.98,7.28,0.5,0.23,-0.02,a
3968.0,3559.0,2688.0,4095.0,2768.0,2511.0,2785.0,2320.0,-1.72,8.98,7.28,0.5,0.23,-0.02,a
