hall_1,hall_2,hall_3,flex_t,flex_i,flex_m,flex_r,flex_p,accel_x,accel_y,accel_z,gyro_x,gyro_y,gyro_z,hand,sign
3349.0,3107.0,3165.0,4095.0,3204.0,2675.0,3061.0,2794.0,2.78,8.67,8.36,0.01,-0.01,-0.15,0.0,o
3352.0,3105.0,3165.0,4095.0,3209.0,2673.0,3063.0,2793.0,2.75,8.69,8.37,0.02,-0.01,-0.15,0.0,o
3351.0,3088.0,3162.0,4095.0,3213.0,2673.0,3056.0,2794.0,2.7,8.68,8.25,0.03,0.01,-0.15,0.0,o
3354.0,3109.0,3171.0,4095.0,3216.0,2679.0,3059.0,2798.0,2.73,8.69,8.24,0.02,-0.01,-0.15,0.0,o
3354.0,3115.0,3169.0,4095.0,3215.0,2683.0,3061.0,2795.0,2.8,8.7,8.21,0.0,-0.02,-0.14,0.0,o
3354.0,3109.0,3159.0,4095.0,3216.0,2687.0,3069.0,2791.0,2.81,8.66,8.34,0.0,-0.0,-0.15,0.0,o
3367.0,3104.0,3177.0,4095.0,3216.0,2683.0,3062.0,2798.0,2.75,8.64,8.37,0.01,-0.01,-0.15,0.0,o
3356.0,3105.0,3169.0,4095.0,3218.0,2687.0,3068.0,2799.0,2.84,8.68,8.37,0.01,-0.01,-0.14,0.0,o
3355.0,3114.0,3170.0,4095.0,3227.0,2688.0,3059.0,2797.0,2.8,8.63,8.39,0.02,0.0,-0.15,0.0,o
3339.0,3097.0,3162.0,4095.0,3215.0,2682.0,3059.0,2790.0,2.7,8.68,8.32,0.03,-0.01,-0.15,0.0,o
3344.0,3101.0,3163.0,4095.0,3221.0,2682.0,3058.0,2790.0,2.8,8.68,8.34,0.02,-0.0,-0.14,0.0,o
3359.0,3111.0,3177.0,4095.0,3226.0,2686.0,3065.0,2799.0,2.86,8.71,8.2,0.02,-0.01,-0.15,0.0,o
3370.0,3100.0,3173.0,4095.0,3215.0,2675.0,3062.0,2788.0,2.86,8.68,8.34,-0.01,-0.01,-0.16,0.0,o
3351.0,3103.0,3156.0,4095.0,3221.0,2682.0,3059.0,2795.0,2.76,8.65,8.4,0.02,0.0,-0.16,0.0,o
3359.0,3101.0,3165.0,4095.0,3221.0,2678.0,3058.0,2797.0,2.72,8.66,8.34,0.01,-0.01,-0.15,0.0,o
3362.0,3113.0,3170.0,4095.0,3218.0,2684.0,3062.0,2799.0,2.75,8.7,8.37,0.03,-0.01,-0.15,0.0,o
3357.0,3119.0,3180.0,4095.0,3215.0,2688.0,3065.0,2799.0,2.75,8.67,8.31,0.03,0.0,-0.15,0.0,o
3357.0,3102.0,3184.0,4095.0,3216.0,2688.0,3055.0,2791.0,2.77,8.68,8.29,0.02,-0.0,-0.15,0.0,o
3363.0,3104.0,3167.0,4095.0,3221.0,2685.0,3063.0,2800.0,2.77,8.72,8.27,0.02,-0.02,-0.14,0.0,o
3365.0,3110.0,3152.0,4095.0,3214.0,2671.0,3016.0,2752.0,2.82,8.75,8.26,-0.07,0.03,-0.12,0.0,o
3799.0,3119.0,3139.0,3463.0,2986.0,2524.0,2750.0,2521.0,2.77,8.55,8.62,0.04,-0.03,-0.17,0.0,o
3867.0,3116.0,3152.0,3413.0,2957.0,2509.0,2714.0,2487.0,2.78,8.55,8.38,-0.1,-0.05,-0.13,0.0,o
3938.0,3107.0,3139.0,3367.0,2943.0,2493.0,2689.0,2458.0,2.72,8.51,8.72,-0.04,0.05,-0.13,0.0,o
3984.0,3120.0,3138.0,3345.0,2935.0,2482.0,2690.0,2465.0,2.87,8.39,8.7,-0.03,0.02,-0.18,0.0,o
4030.0,3116.0,3148.0,3335.0,2943.0,2491.0,2707.0,2481.0,2.81,8.52,8.72,0.06,-0.08,-0.21,0.0,o
4030.0,3114.0,3143.0,3349.0,2944.0,2501.0,2723.0,2493.0,2.85,8.52,8.51,0.08,-0.01,-0.18,0.0,o
4007.0,3117.0,3149.0,3433.0,2980.0,2519.0,2771.0,2534.0,2.85,8.43,8.68,0.18,0.03,-0.26,0.0,o
3943.0,3123.0,3156.0,3535.0,3007.0,2549.0,2815.0,2587.0,2.7,8.65,8.46,0.26,0.03,-0.32,0.0,o
3856.0,3133.0,3167.0,3643.0,3041.0,2559.0,2857.0,2644.0,2.66,8.63,8.42,0.28,0.04,-0.34,0.0,o
3783.0,3121.0,3171.0,3775.0,3070.0,2607.0,2954.0,2721.0,2.27,8.86,8.23,0.3,-0.09,-0.28,0.0,o
3759.0,3121.0,3188.0,3979.0,3129.0,2640.0,3041.0,2788.0,2.51,8.83,8.04,0.15,-0.06,-0.2,0.0,o
3710.0,3122.0,3189.0,4095.0,3168.0,2672.0,3114.0,2839.0,2.45,8.94,7.96,0.14,-0.01,-0.18,0.0,o
3663.0,3124.0,3186.0,4095.0,3199.0,2694.0,3153.0,2876.0,2.66,8.94,7.92,0.2,0.05,-0.19,0.0,o
3606.0,3120.0,3190.0,4095.0,3222.0,2711.0,3190.0,2914.0,2.54,8.94,7.99,0.28,0.02,-0.28,0.0,o
3575.0,3104.0,3207.0,4095.0,3268.0,2742.0,3250.0,2941.0,2.46,8.98,7.81,0.37,-0.07,-0.3,0.0,o
3524.0,3119.0,3212.0,4095.0,3309.0,2751.0,3317.0,2970.0,2.28,9.12,7.47,0.42,-0.07,-0.34,0.0,o
3527.0,3106.0,3203.0,4095.0,3339.0,2779.0,3382.0,3003.0,2.17,9.24,7.16,0.41,0.04,-0.23,0.0,o
3514.0,3112.0,3212.0,4095.0,3365.0,2809.0,3423.0,3034.0,2.05,9.41,6.96,0.23,0.06,-0.15,0.0,o
3524.0,3114.0,3221.0,4095.0,3404.0,2836.0,3463.0,3054.0,2.15,9.34,6.9,0.05,0.06,-0.08,0.0,o
3488.0,3118.0,3211.0,4095.0,3396.0,2843.0,3467.0,3050.0,2.18,9.28,7.12,-0.01,-0.03,-0.08,0.0,o
4095.0,3132.0,3152.0,3379.0,2909.0,2512.0,2735.0,2533.0,2.81,8.42,8.7,-0.15,0.02,-0.07,0.0,o
4095.0,3126.0,3163.0,3409.0,2929.0,2524.0,2753.0,2551.0,2.92,8.43,8.83,0.04,-0.04,-0.14,0.0,o
4095.0,3121.0,3142.0,3453.0,2954.0,2541.0,2783.0,2591.0,2.85,8.47,8.78,0.13,0.01,-0.2,0.0,o
4095.0,3131.0,3161.0,3500.0,2973.0,2555.0,2816.0,2624.0,2.91,8.51,8.56,0.13,-0.02,-0.2,0.0,o
4095.0,3122.0,3167.0,3569.0,2992.0,2559.0,2867.0,2667.0,2.77,8.61,8.59,0.18,0.01,-0.24,0.0,o
4095.0,3120.0,3185.0,3649.0,2994.0,2587.0,2903.0,2704.0,2.82,8.64,8.36,0.16,-0.04,-0.22,0.0,o
4095.0,3135.0,3174.0,3789.0,3024.0,2603.0,2961.0,2752.0,2.6,8.82,8.33,0.25,0.06,-0.27,0.0,o
4095.0,3123.0,3175.0,3850.0,3041.0,2626.0,3015.0,2800.0,2.59,8.82,8.22,0.18,-0.09,-0.21,0.0,o
4027.0,3127.0,3169.0,3998.0,3065.0,2638.0,3059.0,2819.0,2.57,8.76,8.07,0.18,0.04,-0.14,0.0,o
4017.0,3125.0,3187.0,4063.0,3071.0,2640.0,3069.0,2829.0,2.61,8.82,8.02,0.01,0.01,-0.12,0.0,o
3951.0,3120.0,3189.0,4095.0,3120.0,2672.0,3103.0,2860.0,2.67,8.73,8.23,0.09,0.05,-0.15,0.0,o
3844.0,3120.0,3180.0,4095.0,3152.0,2687.0,3136.0,2890.0,2.75,8.82,8.03,0.19,-0.05,-0.26,0.0,o
3803.0,3110.0,3184.0,4095.0,3174.0,2705.0,3174.0,2905.0,2.65,8.8,8.14,0.28,0.03,-0.27,0.0,o
3747.0,3125.0,3184.0,4095.0,3216.0,2738.0,3226.0,2942.0,2.49,9.03,7.8,0.24,-0.04,-0.27,0.0,o
3728.0,3133.0,3184.0,4095.0,3249.0,2751.0,3248.0,2951.0,2.41,8.97,7.81,0.17,0.01,-0.22,0.0,o
3712.0,3123.0,3179.0,4095.0,3303.0,2787.0,3311.0,2974.0,2.3,9.06,7.52,0.12,-0.05,-0.17,0.0,o
3691.0,3117.0,3195.0,4095.0,3328.0,2803.0,3338.0,2983.0,2.49,9.0,7.6,0.01,0.03,-0.11,0.0,o
3698.0,3113.0,3200.0,4095.0,3342.0,2816.0,3350.0,2992.0,2.48,9.0,7.62,0.12,-0.01,-0.13,0.0,o
3689.0,3113.0,3198.0,4095.0,3339.0,2823.0,3359.0,2992.0,2.48,9.11,7.59,-0.01,-0.05,-0.15,0.0,o
3699.0,3105.0,3187.0,4095.0,3333.0,2813.0,3351.0,2985.0,2.43,9.01,7.72,0.01,-0.0,-0.14,0.0,o
3971.0,3120.0,3181.0,4095.0,3113.0,2644.0,3088.0,2832.0,2.49,9.0,7.79,0.03,-0.08,-0.16,0.0,o
3900.0,3117.0,3185.0,4095.0,3154.0,2678.0,3152.0,2903.0,2.51,8.97,7.92,0.03,-0.03,-0.15,0.0,o
3882.0,3114.0,3199.0,4095.0,3206.0,2726.0,3226.0,2962.0,2.38,8.91,7.94,0.06,-0.06,-0.18,0.0,o
3822.0,3093.0,3215.0,4095.0,3248.0,2758.0,3317.0,3045.0,2.48,9.04,7.76,0.09,-0.16,-0.19,0.0,o
3821.0,3103.0,3206.0,4095.0,3287.0,2790.0,3393.0,3071.0,2.55,9.04,7.82,0.06,-0.1,-0.18,0.0,o
3798.0,3065.0,3215.0,4095.0,3329.0,2826.0,3473.0,3134.0,2.45,8.95,7.67,0.1,-0.07,-0.18,0.0,o
3792.0,3069.0,3213.0,4095.0,3333.0,2826.0,3506.0,3152.0,2.53,9.01,7.77,0.05,0.01,-0.14,0.0,o
3789.0,3071.0,3221.0,4095.0,3362.0,2863.0,3583.0,3159.0,2.45,9.01,7.77,0.07,-0.05,-0.09,0.0,o
3786.0,3085.0,3216.0,4095.0,3369.0,2865.0,3623.0,3184.0,2.67,8.98,7.58,0.01,0.02,-0.13,0.0,o
3819.0,3065.0,3221.0,4095.0,3369.0,2868.0,3617.0,3188.0,2.64,9.09,7.6,0.01,0.01,-0.12,0.0,o
3814.0,3058.0,3202.0,4095.0,3344.0,2844.0,3521.0,3136.0,2.58,8.96,7.7,-0.0,0.01,-0.14,0.0,o
3856.0,3091.0,3215.0,4095.0,3321.0,2822.0,3405.0,3043.0,2.49,8.99,7.77,-0.0,0.05,-0.15,0.0,o
3886.0,3095.0,3206.0,4095.0,3280.0,2780.0,3307.0,3003.0,2.57,8.94,7.7,-0.0,-0.01,-0.15,0.0,o
3916.0,3089.0,3212.0,4095.0,3230.0,2747.0,3253.0,2992.0,2.49,9.01,7.68,-0.07,0.02,-0.14,0.0,o
3942.0,3105.0,3197.0,3935.0,3187.0,2719.0,3215.0,2970.0,2.71,8.88,7.67,-0.02,0.05,-0.14,0.0,o
3991.0,3107.0,3198.0,3795.0,3161.0,2698.0,3183.0,2943.0,2.52,9.01,7.79,-0.01,0.02,-0.13,0.0,o
4032.0,3088.0,3181.0,3677.0,3145.0,2693.0,3184.0,2949.0,2.69,8.93,7.82,-0.05,0.02,-0.17,0.0,o
4035.0,3098.0,3191.0,3569.0,3123.0,2689.0,3182.0,2951.0,2.57,8.91,7.86,-0.01,-0.03,-0.14,0.0,o
4066.0,3094.0,3197.0,3516.0,3120.0,2690.0,3180.0,2949.0,2.57,8.95,7.81,-0.08,-0.07,-0.14,0.0,o
4095.0,3109.0,3189.0,3431.0,3095.0,2679.0,3159.0,2940.0,2.6,8.89,7.9,-0.05,0.01,-0.13,0.0,o
4095.0,3149.0,3041.0,3155.0,2772.0,2307.0,2394.0,2220.0,2.39,8.9,7.98,-0.07,-0.05,-0.15,0.0,o
4095.0,3143.0,3043.0,3142.0,2772.0,2320.0,2405.0,2223.0,2.36,8.89,8.22,-0.0,-0.0,-0.14,0.0,o
4095.0,3175.0,3051.0,3129.0,2775.0,2291.0,2375.0,2191.0,2.34,8.85,7.98,-0.02,0.01,-0.15,0.0,o
4095.0,3162.0,3026.0,3117.0,2780.0,2293.0,2370.0,2188.0,2.38,8.87,8.2,0.0,0.02,-0.15,0.0,o
4095.0,3166.0,3031.0,3120.0,2786.0,2301.0,2384.0,2196.0,2.43,8.84,8.13,0.02,0.01,-0.17,0.0,o
4095.0,3154.0,3035.0,3120.0,2790.0,2311.0,2390.0,2202.0,2.32,8.88,8.17,0.03,-0.03,-0.16,0.0,o
4095.0,3181.0,3034.0,3120.0,2787.0,2309.0,2401.0,2215.0,2.39,8.87,8.09,0.04,0.01,-0.16,0.0,o
4095.0,3167.0,3024.0,3141.0,2789.0,2323.0,2429.0,2246.0,2.4,8.88,8.09,0.03,0.03,-0.14,0.0,o
4095.0,3190.0,3034.0,3184.0,2810.0,2354.0,2477.0,2288.0,2.35,8.95,8.02,0.06,-0.03,-0.15,0.0,o
4095.0,3178.0,3046.0,3207.0,2821.0,2359.0,2496.0,2295.0,2.27,8.91,8.02,0.02,0.03,-0.14,0.0,o
4095.0,3184.0,3040.0,3232.0,2819.0,2379.0,2502.0,2311.0,2.32,8.94,7.99,0.01,-0.02,-0.13,0.0,o
4095.0,3182.0,3038.0,3233.0,2832.0,2380.0,2511.0,2309.0,2.39,8.9,8.09,-0.01,-0.01,-0.15,0.0,o
4095.0,3174.0,3031.0,3232.0,2832.0,2375.0,2511.0,2310.0,2.33,8.9,8.13,0.01,-0.06,-0.13,0.0,o
4095.0,3184.0,3038.0,3251.0,2835.0,2375.0,2512.0,2304.0,2.43,8.83,8.13,-0.0,-0.04,-0.16,0.0,o
4095.0,3183.0,3046.0,3216.0,2833.0,2355.0,2480.0,2285.0,2.36,8.92,8.07,0.03,-0.11,-0.16,0.0,o
4095.0,3169.0,3043.0,3199.0,2833.0,2334.0,2454.0,2267.0,2.44,8.9,8.06,0.0,-0.01,-0.15,0.0,o
4095.0,3177.0,3024.0,3145.0,2827.0,2303.0,2419.0,2227.0,2.64,8.87,8.0,-0.01,0.08,-0.18,0.0,o
4095.0,3168.0,3028.0,3108.0,2831.0,2279.0,2379.0,2191.0,2.39,8.91,8.12,0.06,-0.01,-0.22,0.0,o
4095.0,3159.0,3023.0,3099.0,2829.0,2249.0,2343.0,2154.0,2.33,8.9,8.05,-0.0,0.01,-0.24,0.0,o
4095.0,3179.0,3010.0,3091.0,2830.0,2228.0,2320.0,2128.0,2.14,8.9,8.13,-0.01,-0.01,-0.16,0.0,o
4095.0,3194.0,3041.0,3234.0,2891.0,2325.0,2446.0,2226.0,2.47,8.84,8.17,0.08,0.1,-0.14,0.0,o
4095.0,3184.0,3030.0,3280.0,2886.0,2349.0,2496.0,2279.0,2.55,8.9,8.06,0.07,0.02,-0.18,0.0,o
4095.0,3190.0,3049.0,3364.0,2918.0,2373.0,2551.0,2322.0,2.29,8.94,8.07,0.06,0.05,-0.13,0.0,o
4095.0,3197.0,3056.0,3391.0,2926.0,2388.0,2559.0,2339.0,2.36,8.92,7.97,-0.01,0.02,-0.12,0.0,o
4095.0,3199.0,3045.0,3409.0,2927.0,2389.0,2559.0,2343.0,2.34,8.93,8.11,0.01,0.04,-0.12,0.0,o
4095.0,3191.0,3046.0,3393.0,2915.0,2382.0,2550.0,2323.0,2.4,8.84,8.09,-0.0,-0.0,-0.14,0.0,o
4095.0,3200.0,3054.0,3381.0,2903.0,2380.0,2524.0,2310.0,2.39,8.86,8.18,0.01,-0.02,-0.14,0.0,o
4095.0,3202.0,3056.0,3314.0,2891.0,2341.0,2480.0,2272.0,2.42,8.86,8.14,-0.01,-0.06,-0.16,0.0,o
4095.0,3184.0,3049.0,3284.0,2875.0,2315.0,2451.0,2251.0,2.4,8.85,8.18,-0.0,-0.02,-0.1,0.0,o
4095.0,3197.0,3043.0,3235.0,2858.0,2298.0,2416.0,2213.0,2.59,8.79,7.97,-0.03,-0.06,-0.16,0.0,o
4095.0,3178.0,3038.0,3202.0,2844.0,2275.0,2401.0,2192.0,2.48,8.82,8.14,-0.01,-0.04,-0.17,0.0,o
4095.0,3170.0,3041.0,3180.0,2845.0,2266.0,2390.0,2187.0,2.41,8.82,8.08,-0.04,-0.03,-0.16,0.0,o
4095.0,3181.0,3043.0,3181.0,2848.0,2274.0,2390.0,2193.0,2.43,8.72,8.37,-0.03,-0.01,-0.11,0.0,o
4095.0,3186.0,3039.0,3171.0,2844.0,2261.0,2385.0,2179.0,2.57,8.78,8.18,-0.0,-0.03,-0.17,0.0,o
4095.0,3182.0,3035.0,3162.0,2847.0,2253.0,2365.0,2159.0,2.4,8.79,8.06,-0.02,0.04,-0.16,0.0,o
4095.0,3189.0,3038.0,3168.0,2855.0,2262.0,2381.0,2159.0,2.53,8.75,8.18,0.02,-0.03,-0.17,0.0,o
4095.0,3187.0,3042.0,3167.0,2861.0,2265.0,2384.0,2169.0,2.45,8.78,8.2,0.03,-0.0,-0.17,0.0,o
4095.0,3187.0,3039.0,3169.0,2863.0,2262.0,2395.0,2176.0,2.41,8.86,8.11,0.01,-0.04,-0.16,0.0,o
4095.0,3197.0,3038.0,3183.0,2869.0,2287.0,2403.0,2188.0,2.42,8.78,8.31,0.01,-0.01,-0.13,0.0,o
4095.0,3183.0,3031.0,3179.0,2864.0,2287.0,2404.0,2192.0,2.5,8.83,8.18,0.02,-0.01,-0.14,0.0,o
4095.0,3237.0,3060.0,3470.0,2955.0,2458.0,2701.0,2471.0,2.64,8.89,8.12,0.01,-0.02,-0.13,0.0,o
4095.0,3216.0,3071.0,3481.0,2945.0,2445.0,2698.0,2480.0,2.61,8.8,8.19,0.04,0.04,-0.16,0.0,o
4095.0,3222.0,3057.0,3497.0,2957.0,2447.0,2704.0,2496.0,2.62,8.84,8.09,0.01,-0.0,-0.14,0.0,o
4095.0,3223.0,3057.0,3506.0,2960.0,2454.0,2707.0,2501.0,2.57,8.8,8.15,0.0,-0.0,-0.14,0.0,o
4095.0,3245.0,3067.0,3520.0,2961.0,2448.0,2688.0,2481.0,2.56,8.79,8.12,-0.0,0.01,-0.12,0.0,o
4095.0,3227.0,3079.0,3517.0,2959.0,2431.0,2652.0,2447.0,2.66,8.79,8.28,0.01,0.03,-0.12,0.0,o
4095.0,3227.0,3057.0,3482.0,2943.0,2391.0,2601.0,2401.0,2.61,8.8,8.18,0.04,0.0,-0.14,0.0,o
4095.0,3216.0,3068.0,3452.0,2928.0,2371.0,2551.0,2357.0,2.66,8.8,8.06,-0.01,-0.0,-0.14,0.0,o
4095.0,3216.0,3055.0,3401.0,2901.0,2338.0,2512.0,2307.0,2.62,8.77,8.15,-0.02,0.01,-0.14,0.0,o
4095.0,3213.0,3053.0,3358.0,2898.0,2323.0,2463.0,2289.0,2.6,8.71,8.2,-0.01,0.02,-0.14,0.0,o
4095.0,3215.0,3052.0,3317.0,2890.0,2304.0,2432.0,2252.0,2.59,8.76,8.21,-0.02,0.02,-0.15,0.0,o
4095.0,3217.0,3057.0,3280.0,2880.0,2288.0,2414.0,2230.0,2.49,8.79,8.24,-0.06,-0.01,-0.09,0.0,o
4095.0,3215.0,3042.0,3241.0,2874.0,2278.0,2394.0,2198.0,2.7,8.74,8.28,-0.04,0.01,-0.13,0.0,o
4095.0,3228.0,3029.0,3200.0,2868.0,2267.0,2378.0,2188.0,2.65,8.72,8.32,-0.04,-0.02,-0.13,0.0,o
4095.0,3232.0,3024.0,3184.0,2879.0,2259.0,2370.0,2178.0,2.77,8.61,8.42,-0.04,0.0,-0.15,0.0,o
4095.0,3228.0,3021.0,3163.0,2867.0,2257.0,2365.0,2166.0,2.73,8.61,8.32,-0.02,-0.04,-0.19,0.0,o
4095.0,3239.0,3013.0,3138.0,2864.0,2256.0,2349.0,2154.0,2.63,8.66,8.47,0.0,-0.04,-0.18,0.0,o
4095.0,3233.0,3011.0,3149.0,2871.0,2261.0,2352.0,2158.0,2.65,8.68,8.39,0.02,-0.03,-0.16,0.0,o
4095.0,3229.0,3007.0,3155.0,2875.0,2271.0,2363.0,2171.0,2.68,8.62,8.39,0.04,0.01,-0.15,0.0,o
4095.0,3221.0,3025.0,3185.0,2889.0,2294.0,2410.0,2204.0,2.7,8.73,8.38,0.05,0.01,-0.15,0.0,o
3811.0,3354.0,2947.0,3920.0,2954.0,2589.0,2907.0,2723.0,0.75,8.28,9.55,0.03,0.1,-0.09,0.0,o
3808.0,3354.0,2949.0,3942.0,2960.0,2583.0,2900.0,2711.0,0.7,8.36,9.3,0.02,0.38,-0.08,0.0,o
3793.0,3348.0,2962.0,3946.0,2959.0,2544.0,2797.0,2621.0,0.22,8.46,9.46,-0.05,0.7,-0.05,0.0,o
3832.0,3327.0,2970.0,3905.0,2943.0,2478.0,2674.0,2495.0,0.34,8.12,9.53,-0.12,0.82,0.01,0.0,o
3866.0,3330.0,2993.0,3826.0,2929.0,2416.0,2581.0,2414.0,-0.27,8.32,9.67,-0.06,0.97,-0.05,0.0,o
3901.0,3312.0,2988.0,3722.0,2897.0,2383.0,2512.0,2353.0,0.08,8.15,9.79,0.06,1.24,0.01,0.0,o
3906.0,3306.0,2997.0,3658.0,2896.0,2373.0,2497.0,2357.0,-0.92,8.27,9.57,-0.05,1.37,0.08,0.0,o
3830.0,3312.0,3008.0,3627.0,2905.0,2395.0,2542.0,2405.0,-1.0,8.34,9.77,-0.0,0.87,0.08,0.0,o
3661.0,3323.0,3016.0,3632.0,2933.0,2419.0,2609.0,2462.0,-0.72,8.18,9.79,0.01,0.41,0.06,0.0,o
3609.0,3323.0,3028.0,3637.0,2942.0,2451.0,2648.0,2497.0,-0.74,8.31,9.68,-0.01,0.03,-0.07,0.0,o
3504.0,3326.0,3029.0,3664.0,2961.0,2481.0,2699.0,2557.0,-0.91,8.32,9.92,0.11,-0.38,-0.09,0.0,o
3518.0,3315.0,3042.0,3681.0,2960.0,2486.0,2721.0,2559.0,-0.58,8.26,9.98,0.21,-1.44,-0.2,0.0,o
3533.0,3331.0,3050.0,3686.0,2960.0,2492.0,2725.0,2559.0,-0.22,8.32,9.89,0.38,-2.07,-0.41,0.0,o
3553.0,3331.0,3026.0,3683.0,2966.0,2507.0,2759.0,2624.0,0.37,8.46,9.55,0.56,-2.05,-0.56,0.0,o
3606.0,3332.0,3021.0,3660.0,2965.0,2514.0,2785.0,2633.0,0.71,8.64,8.92,0.54,-2.48,-0.41,0.0,o
3648.0,3322.0,3024.0,3670.0,2986.0,2540.0,2813.0,2651.0,1.11,8.81,8.37,0.53,-1.61,-0.41,0.0,o
3685.0,3341.0,3032.0,3674.0,2990.0,2542.0,2818.0,2649.0,1.6,8.92,7.94,0.31,-1.47,-0.28,0.0,o
3695.0,3326.0,3015.0,3674.0,2993.0,2539.0,2823.0,2650.0,1.57,9.08,7.81,0.29,-0.86,-0.25,0.0,o
3742.0,3325.0,3015.0,3644.0,2995.0,2542.0,2778.0,2613.0,1.75,9.02,7.58,0.1,-0.6,-0.24,0.0,o
3792.0,3312.0,3005.0,3565.0,2978.0,2496.0,2709.0,2538.0,1.65,9.21,7.85,0.13,-0.32,-0.27,0.0,o
4095.0,3332.0,2970.0,3519.0,2984.0,2542.0,2782.0,2611.0,2.35,8.9,8.04,-0.0,-0.0,-0.14,0.0,o
4095.0,3319.0,2977.0,3521.0,2992.0,2540.0,2786.0,2614.0,2.37,8.9,8.09,0.01,0.0,-0.15,0.0,o
4095.0,3327.0,2983.0,3508.0,2990.0,2535.0,2770.0,2613.0,2.4,8.89,8.1,0.01,-0.02,-0.16,0.0,o
4095.0,3323.0,2988.0,3488.0,2967.0,2503.0,2734.0,2557.0,2.38,8.82,8.1,0.02,-0.01,-0.18,0.0,o
4095.0,3318.0,2986.0,3459.0,2950.0,2471.0,2672.0,2499.0,2.28,9.02,8.03,0.02,-0.03,-0.16,0.0,o
4095.0,3317.0,2974.0,3442.0,2927.0,2445.0,2622.0,2439.0,2.32,8.85,8.11,0.02,-0.01,-0.16,0.0,o
4095.0,3319.0,2987.0,3424.0,2915.0,2432.0,2597.0,2412.0,2.42,8.87,8.05,0.01,0.02,-0.15,0.0,o
4095.0,3312.0,2992.0,3408.0,2902.0,2403.0,2548.0,2366.0,2.4,8.88,8.04,0.02,0.07,-0.19,0.0,o
4095.0,3312.0,2992.0,3402.0,2896.0,2395.0,2539.0,2345.0,2.26,9.0,8.08,0.04,-0.01,-0.18,0.0,o
4095.0,3323.0,2992.0,3393.0,2891.0,2385.0,2513.0,2320.0,2.22,8.85,8.05,0.01,0.01,-0.15,0.0,o
4095.0,3314.0,2967.0,3377.0,2871.0,2366.0,2479.0,2290.0,2.25,8.97,8.11,0.01,-0.07,-0.17,0.0,o
4095.0,3305.0,2980.0,3344.0,2848.0,2351.0,2448.0,2266.0,2.2,8.98,8.14,0.03,0.03,-0.14,0.0,o
4095.0,3308.0,2988.0,3333.0,2837.0,2345.0,2441.0,2256.0,2.09,9.13,7.88,0.05,0.19,-0.07,0.0,o
4095.0,3295.0,2973.0,3317.0,2830.0,2333.0,2429.0,2255.0,2.34,8.96,8.02,0.0,-0.05,-0.16,0.0,o
4095.0,3305.0,2986.0,3329.0,2850.0,2352.0,2458.0,2282.0,2.3,8.89,8.07,0.01,-0.06,-0.18,0.0,o
4095.0,3307.0,2991.0,3344.0,2847.0,2368.0,2496.0,2293.0,2.19,8.85,8.08,-0.0,-0.01,-0.15,0.0,o
4095.0,3312.0,2999.0,3366.0,2875.0,2396.0,2531.0,2333.0,2.29,8.94,8.16,0.02,-0.02,-0.14,0.0,o
4095.0,3312.0,3007.0,3394.0,2880.0,2415.0,2550.0,2359.0,2.33,8.92,8.06,0.01,-0.05,-0.14,0.0,o
4095.0,3314.0,3014.0,3405.0,2890.0,2426.0,2590.0,2387.0,2.33,8.84,8.11,0.02,-0.03,-0.14,0.0,o
4095.0,3330.0,3003.0,3425.0,2907.0,2451.0,2645.0,2458.0,2.34,8.94,8.03,0.05,-0.11,-0.13,0.0,o
4095.0,3328.0,3020.0,3632.0,3002.0,2583.0,2897.0,2741.0,2.56,8.97,7.93,-0.04,-0.02,-0.12,0.0,o
4095.0,3325.0,3023.0,3739.0,3040.0,2608.0,2941.0,2770.0,2.39,8.86,8.14,-0.05,0.05,-0.1,0.0,o
4095.0,3315.0,3018.0,3780.0,3050.0,2617.0,2944.0,2782.0,2.54,8.82,8.27,0.02,0.02,-0.14,0.0,o
4095.0,3339.0,3010.0,3792.0,3054.0,2615.0,2948.0,2774.0,2.48,8.83,8.15,0.03,-0.03,-0.15,0.0,o
4095.0,3323.0,3031.0,3760.0,3039.0,2601.0,2925.0,2759.0,2.51,8.84,8.15,0.04,-0.01,-0.15,0.0,o
4095.0,3322.0,3015.0,3718.0,3034.0,2559.0,2890.0,2727.0,2.46,8.88,8.02,0.05,-0.01,-0.16,0.0,o
4095.0,3310.0,3023.0,3691.0,3017.0,2544.0,2833.0,2675.0,2.4,8.99,7.97,0.03,0.01,-0.15,0.0,o
4095.0,3314.0,3038.0,3632.0,2994.0,2521.0,2766.0,2608.0,2.46,8.83,8.09,0.02,-0.02,-0.16,0.0,o
4095.0,3326.0,3047.0,3610.0,2975.0,2499.0,2741.0,2589.0,2.47,8.8,8.06,0.01,-0.02,-0.16,0.0,o
4095.0,3303.0,3043.0,3575.0,2962.0,2480.0,2725.0,2559.0,2.42,8.91,8.09,0.0,-0.01,-0.14,0.0,o
4095.0,3317.0,3051.0,3543.0,2943.0,2453.0,2687.0,2527.0,2.47,8.82,8.23,0.02,0.03,-0.14,0.0,o
4095.0,3312.0,3057.0,3522.0,2916.0,2430.0,2623.0,2460.0,2.5,8.82,8.04,0.02,-0.0,-0.19,0.0,o
4095.0,3295.0,3056.0,3511.0,2896.0,2401.0,2559.0,2419.0,2.4,8.93,8.1,0.02,0.0,-0.17,0.0,o
4095.0,3299.0,3057.0,3494.0,2886.0,2381.0,2536.0,2383.0,2.45,8.88,8.05,0.02,-0.0,-0.17,0.0,o
4095.0,3312.0,3058.0,3458.0,2871.0,2374.0,2530.0,2371.0,2.43,8.89,8.05,0.01,-0.04,-0.15,0.0,o
4095.0,3293.0,3047.0,3423.0,2859.0,2373.0,2521.0,2365.0,2.45,8.85,8.12,-0.0,-0.01,-0.14,0.0,o
4095.0,3303.0,3045.0,3443.0,2862.0,2379.0,2536.0,2369.0,2.49,8.82,8.18,0.02,-0.01,-0.14,0.0,o
4095.0,3322.0,3065.0,3455.0,2869.0,2395.0,2557.0,2391.0,2.47,8.84,8.13,0.02,0.0,-0.14,0.0,o
4095.0,3303.0,3056.0,3463.0,2883.0,2411.0,2559.0,2416.0,2.46,8.8,8.09,0.03,-0.02,-0.14,0.0,o
4095.0,3307.0,3055.0,3491.0,2894.0,2443.0,2640.0,2467.0,2.49,8.74,8.14,0.02,-0.01,-0.14,0.0,o
3796.0,3138.0,2951.0,3617.0,3111.0,2557.0,2774.0,2559.0,2.86,8.77,7.94,-0.02,-0.05,-0.14,0.0,o
3831.0,3145.0,2957.0,3583.0,3085.0,2531.0,2753.0,2520.0,2.94,8.67,8.13,-0.03,-0.04,-0.14,0.0,o
3851.0,3137.0,2956.0,3525.0,3037.0,2525.0,2735.0,2511.0,2.97,8.77,8.14,-0.04,-0.02,-0.14,0.0,o
3877.0,3139.0,2955.0,3494.0,3019.0,2516.0,2717.0,2517.0,3.05,8.65,8.3,-0.01,0.02,-0.13,0.0,o
3888.0,3133.0,2959.0,3500.0,3021.0,2516.0,2725.0,2527.0,2.94,8.64,8.25,0.03,-0.04,-0.16,0.0,o
3888.0,3136.0,2945.0,3504.0,3029.0,2529.0,2737.0,2530.0,2.97,8.71,8.18,0.03,-0.04,-0.14,0.0,o
3898.0,3136.0,2956.0,3510.0,3031.0,2531.0,2745.0,2544.0,3.01,8.65,8.08,0.0,-0.05,-0.14,0.0,o
3908.0,3140.0,2963.0,3520.0,3026.0,2530.0,2749.0,2544.0,3.0,8.71,8.16,0.04,-0.04,-0.15,0.0,o
3920.0,3142.0,2962.0,3577.0,3050.0,2551.0,2775.0,2591.0,3.13,8.57,8.12,0.05,-0.03,-0.15,0.0,o
3893.0,3157.0,2960.0,3653.0,3094.0,2559.0,2844.0,2674.0,2.98,8.74,8.11,0.16,0.01,-0.21,0.0,o
3915.0,3154.0,2976.0,3715.0,3094.0,2603.0,2903.0,2757.0,3.06,8.69,8.1,0.16,0.08,-0.25,0.0,o
3918.0,3153.0,2990.0,3759.0,3121.0,2626.0,2950.0,2810.0,2.87,8.87,7.81,0.15,-0.06,-0.24,0.0,o
3922.0,3157.0,2987.0,3801.0,3136.0,2628.0,2981.0,2853.0,2.91,8.78,7.75,0.07,0.02,-0.27,0.0,o
3901.0,3139.0,2997.0,3855.0,3130.0,2643.0,2986.0,2875.0,1.78,8.93,8.19,0.18,-0.55,-0.29,0.0,o
3899.0,3151.0,2996.0,3862.0,3151.0,2645.0,2975.0,2862.0,3.55,8.9,7.68,0.24,-1.52,-0.44,0.0,o
3863.0,3140.0,2981.0,3843.0,3121.0,2615.0,2918.0,2726.0,2.45,9.01,7.51,0.31,-1.23,-0.3,0.0,o
3859.0,3137.0,2989.0,3829.0,3133.0,2607.0,2899.0,2691.0,3.43,9.02,6.65,0.36,-1.94,-0.24,0.0,o
3836.0,3118.0,2969.0,3792.0,3103.0,2559.0,2885.0,2677.0,3.85,9.11,6.06,0.23,-1.2,-0.25,0.0,o
3842.0,3104.0,2974.0,3777.0,3108.0,2590.0,2882.0,2673.0,3.88,9.22,5.86,0.14,-0.84,-0.34,0.0,o
3849.0,3126.0,2960.0,3741.0,3120.0,2598.0,2891.0,2673.0,3.96,9.16,5.65,0.01,-0.09,-0.25,0.0,o
3761.0,3087.0,3007.0,4095.0,3390.0,2789.0,3235.0,3209.0,3.13,8.88,7.36,-0.04,0.03,-0.11,0.0,o
3783.0,3114.0,3024.0,4095.0,3381.0,2781.0,3219.0,3163.0,3.16,8.9,7.54,0.02,0.04,-0.13,0.0,o
3806.0,3101.0,3013.0,4095.0,3322.0,2739.0,3139.0,3043.0,3.14,8.91,7.51,0.05,0.07,-0.17,0.0,o
3823.0,3106.0,3017.0,4095.0,3273.0,2723.0,3071.0,2982.0,3.15,8.96,7.52,0.07,-0.02,-0.19,0.0,o
3834.0,3097.0,2999.0,3982.0,3205.0,2678.0,3011.0,2928.0,3.07,8.99,7.45,0.07,0.0,-0.19,0.0,o
3862.0,3106.0,3006.0,3903.0,3188.0,2671.0,2993.0,2913.0,3.0,8.96,7.39,0.02,0.01,-0.16,0.0,o
3856.0,3102.0,3010.0,3891.0,3186.0,2669.0,3008.0,2926.0,3.04,8.96,7.4,0.03,0.04,-0.14,0.0,o
3861.0,3102.0,3014.0,3824.0,3164.0,2661.0,3005.0,2927.0,3.1,8.99,7.35,0.0,0.03,-0.11,0.0,o
3867.0,3116.0,3006.0,3757.0,3138.0,2651.0,2992.0,2927.0,3.29,8.93,7.42,0.01,0.17,-0.15,0.0,o
3879.0,3109.0,3015.0,3649.0,3107.0,2647.0,2998.0,2925.0,3.0,8.94,7.44,0.03,0.15,-0.13,0.0,o
3908.0,3101.0,3008.0,3583.0,3093.0,2645.0,2997.0,2932.0,2.99,8.96,7.51,0.04,0.17,-0.16,0.0,o
3871.0,3105.0,3005.0,3664.0,3107.0,2645.0,2999.0,2928.0,2.9,8.92,7.43,0.01,0.0,-0.15,0.0,o
3841.0,3103.0,3008.0,3719.0,3125.0,2650.0,2961.0,2877.0,3.03,8.98,7.51,0.0,0.03,-0.15,0.0,o
3870.0,3106.0,3003.0,3802.0,3139.0,2639.0,2930.0,2832.0,3.0,8.96,7.46,0.04,-0.03,-0.18,0.0,o
3950.0,3107.0,2992.0,3866.0,3146.0,2627.0,2914.0,2797.0,3.14,8.98,7.44,0.04,-0.02,-0.16,0.0,o
4091.0,3107.0,2998.0,3920.0,3142.0,2630.0,2922.0,2795.0,2.96,8.95,7.44,0.03,0.07,-0.14,0.0,o
4095.0,3120.0,2989.0,3952.0,3152.0,2637.0,2933.0,2799.0,2.88,8.87,7.4,0.03,-0.0,-0.15,0.0,o
4095.0,3113.0,2992.0,3954.0,3152.0,2641.0,2944.0,2809.0,2.92,8.97,7.59,0.07,-0.05,-0.18,0.0,o
4095.0,3120.0,2977.0,4016.0,3170.0,2645.0,2992.0,2832.0,2.99,9.01,7.56,0.12,-0.07,-0.19,0.0,o
4095.0,3091.0,2992.0,4077.0,3210.0,2670.0,3043.0,2896.0,2.94,8.97,7.33,0.1,-0.01,-0.17,0.0,o
4095.0,3115.0,3025.0,3869.0,3248.0,2731.0,3115.0,3023.0,3.04,8.94,7.44,0.03,-0.01,-0.11,0.0,o
4075.0,3113.0,3027.0,3727.0,3201.0,2706.0,3082.0,2990.0,3.0,8.95,7.44,0.02,0.01,-0.13,0.0,o
4095.0,3117.0,3021.0,3605.0,3151.0,2682.0,3031.0,2951.0,3.02,8.91,7.38,0.04,-0.02,-0.12,0.0,o
4095.0,3123.0,3017.0,3525.0,3120.0,2673.0,3038.0,2943.0,2.98,9.0,7.32,0.01,0.01,-0.13,0.0,o
4095.0,3112.0,3008.0,3467.0,3088.0,2657.0,3010.0,2929.0,3.02,9.01,7.36,0.02,-0.0,-0.15,0.0,o
4095.0,3111.0,3027.0,3474.0,3088.0,2643.0,2987.0,2907.0,2.98,8.93,7.42,0.01,-0.01,-0.16,0.0,o
4095.0,3111.0,3023.0,3578.0,3111.0,2639.0,2992.0,2905.0,2.95,9.0,7.41,0.01,0.06,-0.14,0.0,o
4095.0,3110.0,3016.0,3664.0,3123.0,2667.0,3024.0,2947.0,3.06,9.02,7.34,-0.03,0.11,-0.11,0.0,o
4095.0,3117.0,3013.0,3687.0,3119.0,2687.0,3055.0,2991.0,2.99,9.0,7.37,-0.03,0.16,-0.11,0.0,o
4095.0,3121.0,3025.0,3583.0,3110.0,2694.0,3067.0,3011.0,3.05,8.94,7.33,-0.08,0.14,-0.13,0.0,o
4095.0,3119.0,3027.0,3538.0,3117.0,2699.0,3087.0,3030.0,3.0,8.85,7.61,-0.07,0.16,-0.16,0.0,o
4095.0,3118.0,3039.0,3610.0,3135.0,2718.0,3099.0,3042.0,2.79,8.91,7.75,-0.01,0.07,-0.16,0.0,o
4095.0,3120.0,3030.0,3707.0,3155.0,2719.0,3110.0,3059.0,2.8,8.81,7.74,-0.02,0.04,-0.15,0.0,o
4095.0,3121.0,3029.0,3833.0,3183.0,2731.0,3119.0,3058.0,2.84,8.94,7.59,0.01,-0.04,-0.12,0.0,o
4095.0,3115.0,3033.0,3951.0,3172.0,2739.0,3134.0,3085.0,3.15,8.86,7.6,0.01,0.08,-0.14,0.0,o
4095.0,3117.0,3022.0,3975.0,3154.0,2743.0,3154.0,3102.0,2.96,9.0,7.58,0.03,0.02,-0.18,0.0,o
4095.0,3115.0,3022.0,3935.0,3119.0,2751.0,3194.0,3159.0,2.86,8.94,7.57,-0.02,0.03,-0.13,0.0,o
4095.0,3114.0,3046.0,4035.0,3091.0,2761.0,3248.0,3225.0,2.85,8.9,7.86,0.0,-0.06,-0.14,0.0,o
4095.0,3107.0,3039.0,4095.0,3099.0,2781.0,3309.0,3297.0,2.84,8.88,7.7,0.02,-0.13,-0.2,0.0,o
4095.0,3091.0,3046.0,4095.0,3090.0,2779.0,3331.0,3323.0,3.04,8.78,7.81,0.06,-0.06,-0.2,0.0,o
4095.0,3184.0,2992.0,3573.0,2896.0,2450.0,2701.0,2624.0,3.26,8.87,7.53,-0.0,0.01,-0.14,0.0,o
4095.0,3179.0,2999.0,3583.0,2906.0,2448.0,2697.0,2610.0,3.31,8.83,7.53,0.0,0.02,-0.17,0.0,o
4095.0,3159.0,2974.0,3617.0,2920.0,2443.0,2672.0,2582.0,3.26,8.84,7.61,0.04,0.03,-0.27,0.0,o
4095.0,3178.0,2991.0,3612.0,2925.0,2446.0,2682.0,2599.0,2.99,8.88,7.54,0.01,-0.02,-0.24,0.0,o
4095.0,3184.0,2992.0,3644.0,2930.0,2463.0,2715.0,2637.0,3.04,8.89,7.62,-0.01,-0.02,-0.15,0.0,o
4095.0,3173.0,2993.0,3681.0,2961.0,2499.0,2755.0,2704.0,3.44,8.72,7.67,-0.02,0.04,-0.31,0.0,o
4095.0,3184.0,2993.0,3731.0,2992.0,2513.0,2782.0,2738.0,3.31,9.03,7.55,0.09,0.01,-0.42,0.0,o
4095.0,3190.0,3002.0,3810.0,3015.0,2546.0,2837.0,2781.0,5.05,8.92,6.21,-0.18,1.13,-0.57,0.0,o
4089.0,3216.0,3004.0,3862.0,3041.0,2559.0,2859.0,2809.0,1.6,9.24,7.6,-0.31,1.6,-0.56,0.0,o
3969.0,3214.0,3002.0,3879.0,3040.0,2559.0,2868.0,2829.0,1.62,9.12,8.25,-0.19,1.58,-0.58,0.0,o
3943.0,3223.0,3015.0,3878.0,3062.0,2559.0,2871.0,2815.0,0.84,8.74,8.46,-0.27,1.43,-0.49,0.0,o
3989.0,3223.0,2993.0,3878.0,3053.0,2558.0,2848.0,2800.0,-0.28,9.04,8.65,-0.34,0.72,-0.18,0.0,o
4095.0,3230.0,3008.0,3881.0,3041.0,2543.0,2833.0,2787.0,-0.4,8.68,8.66,-0.57,0.82,0.25,0.0,o
4095.0,3236.0,3011.0,3868.0,3009.0,2530.0,2804.0,2748.0,0.96,8.46,9.14,-0.54,0.92,0.16,0.0,o
4095.0,3211.0,2979.0,3838.0,2990.0,2510.0,2766.0,2716.0,0.79,8.31,9.6,-0.42,0.67,0.08,0.0,o
4095.0,3215.0,2989.0,3837.0,2982.0,2483.0,2727.0,2655.0,0.25,8.21,9.89,-0.29,0.86,-0.06,0.0,o
4095.0,3214.0,2992.0,3824.0,2977.0,2480.0,2724.0,2647.0,0.4,8.1,9.97,-0.26,0.64,-0.05,0.0,o
4095.0,3231.0,2999.0,3821.0,2993.0,2509.0,2768.0,2700.0,-0.13,8.01,10.15,-0.08,0.86,-0.07,0.0,o
4095.0,3219.0,3023.0,3835.0,3018.0,2548.0,2864.0,2828.0,-0.35,8.15,9.79,-0.18,0.82,-0.0,0.0,o
4095.0,3217.0,3045.0,3824.0,3034.0,2605.0,2929.0,2911.0,-0.31,8.08,9.96,-0.09,0.57,-0.1,0.0,o
4095.0,3120.0,3009.0,3700.0,3123.0,2625.0,2951.0,2907.0,1.79,9.57,6.35,0.02,0.02,-0.1,0.0,o
4095.0,3119.0,3011.0,3670.0,3120.0,2635.0,2958.0,2910.0,1.85,9.53,6.3,0.04,-0.03,-0.12,0.0,o
4095.0,3115.0,2999.0,3622.0,3103.0,2638.0,2953.0,2914.0,1.86,9.53,6.25,0.01,-0.13,-0.09,0.0,o
4095.0,3121.0,3013.0,3583.0,3084.0,2633.0,2955.0,2919.0,2.0,9.59,6.28,0.03,-0.02,-0.13,0.0,o
4095.0,3118.0,3019.0,3566.0,3049.0,2638.0,2963.0,2930.0,2.13,9.5,6.28,0.02,-0.04,-0.11,0.0,o
4095.0,3133.0,3021.0,3579.0,3061.0,2659.0,2995.0,2963.0,2.07,9.62,6.37,0.06,-0.04,-0.15,0.0,o
4095.0,3120.0,3025.0,3568.0,3059.0,2669.0,3025.0,3012.0,2.13,9.54,6.33,0.06,-0.05,-0.19,0.0,o
4095.0,3111.0,3031.0,3623.0,3057.0,2668.0,3022.0,3013.0,1.74,9.53,6.33,0.1,0.0,-0.16,0.0,o
4095.0,3114.0,3022.0,3703.0,3083.0,2663.0,3013.0,2997.0,1.87,9.65,5.94,0.11,-0.02,-0.17,0.0,o
4095.0,3117.0,3024.0,3792.0,3097.0,2652.0,2994.0,2970.0,1.92,9.58,5.97,0.03,-0.08,-0.14,0.0,o
4095.0,3111.0,3021.0,3819.0,3101.0,2640.0,2979.0,2953.0,1.93,9.66,5.88,0.01,-0.0,-0.11,0.0,o
4095.0,3101.0,3008.0,3824.0,3099.0,2624.0,2960.0,2922.0,1.95,9.57,6.03,-0.02,0.03,-0.12,0.0,o
4095.0,3118.0,3027.0,3824.0,3103.0,2621.0,2951.0,2910.0,1.99,9.5,6.17,-0.03,0.02,-0.13,0.0,o
4095.0,3103.0,3011.0,3863.0,3106.0,2622.0,2928.0,2895.0,1.84,9.61,6.17,-0.04,0.02,-0.11,0.0,o
4095.0,3114.0,3024.0,3867.0,3107.0,2615.0,2927.0,2886.0,2.08,9.45,6.39,-0.05,0.04,-0.08,0.0,o
4095.0,3111.0,3014.0,3855.0,3107.0,2618.0,2935.0,2887.0,2.17,9.52,6.45,-0.0,0.04,-0.11,0.0,o
4095.0,3119.0,3020.0,3886.0,3108.0,2631.0,2951.0,2896.0,2.26,9.53,6.32,0.03,0.01,-0.16,0.0,o
4095.0,3115.0,3010.0,3906.0,3131.0,2647.0,2965.0,2928.0,2.19,9.57,6.21,0.02,0.01,-0.16,0.0,o
4095.0,3104.0,3014.0,3958.0,3147.0,2658.0,2993.0,2945.0,2.13,9.57,6.16,0.02,0.06,-0.21,0.0,o
4095.0,3125.0,3017.0,3977.0,3179.0,2667.0,3006.0,2959.0,1.88,9.57,6.19,0.01,0.03,-0.21,0.0,o
4095.0,3121.0,3004.0,4032.0,3234.0,2725.0,3057.0,2995.0,1.91,9.47,6.49,0.02,-0.0,-0.14,0.0,o
4095.0,3120.0,3003.0,4021.0,3229.0,2721.0,3061.0,2992.0,1.95,9.49,6.51,0.01,-0.0,-0.13,0.0,o
4095.0,3117.0,2993.0,4049.0,3231.0,2711.0,3059.0,2990.0,2.02,9.5,6.52,0.0,-0.01,-0.14,0.0,o
4095.0,3120.0,3006.0,4041.0,3239.0,2723.0,3066.0,2992.0,1.97,9.45,6.55,0.01,-0.01,-0.14,0.0,o
4095.0,3123.0,3007.0,4048.0,3234.0,2719.0,3057.0,2987.0,2.02,9.47,6.57,-0.01,0.0,-0.13,0.0,o
4095.0,3131.0,3005.0,4055.0,3239.0,2729.0,3065.0,2993.0,1.97,9.45,6.64,-0.0,-0.0,-0.14,0.0,o
4095.0,3119.0,2995.0,4049.0,3248.0,2726.0,3060.0,2992.0,2.04,9.46,6.63,0.02,0.0,-0.16,0.0,o
4095.0,3113.0,2998.0,4019.0,3233.0,2722.0,3057.0,2990.0,1.93,9.45,6.61,0.03,0.01,-0.18,0.0,o
4095.0,3120.0,3005.0,4027.0,3233.0,2721.0,3056.0,2992.0,1.91,9.42,6.63,0.04,0.04,-0.15,0.0,o
4095.0,3109.0,3008.0,4032.0,3232.0,2723.0,3059.0,2994.0,1.97,9.45,6.59,0.07,-0.0,-0.17,0.0,o
4095.0,3120.0,3007.0,4039.0,3245.0,2713.0,3062.0,2991.0,1.97,9.54,6.45,0.12,-0.08,-0.2,0.0,o
4095.0,3110.0,2986.0,4048.0,3230.0,2688.0,3003.0,2881.0,1.91,9.56,6.32,0.07,-0.05,-0.16,0.0,o
4095.0,3106.0,2993.0,4068.0,3224.0,2679.0,2978.0,2843.0,1.93,9.45,6.41,0.05,-0.0,-0.12,0.0,o
4095.0,3109.0,2976.0,4050.0,3221.0,2682.0,2983.0,2847.0,1.95,9.51,6.35,-0.0,-0.01,-0.14,0.0,o
4095.0,3103.0,2982.0,4066.0,3232.0,2681.0,2980.0,2842.0,1.92,9.51,6.42,-0.0,-0.04,-0.13,0.0,o
4095.0,3101.0,2974.0,4041.0,3225.0,2677.0,2981.0,2850.0,2.03,9.48,6.46,-0.02,-0.0,-0.13,0.0,o
4095.0,3115.0,2986.0,4031.0,3221.0,2685.0,3010.0,2896.0,2.04,9.51,6.51,0.01,0.16,-0.08,0.0,o
4095.0,3103.0,3010.0,3979.0,3200.0,2699.0,3038.0,2949.0,1.97,9.5,6.54,-0.0,0.14,-0.08,0.0,o
4095.0,3102.0,3005.0,3967.0,3207.0,2706.0,3059.0,2983.0,2.0,9.55,6.6,0.02,0.09,-0.15,0.0,o
4095.0,3108.0,3007.0,3984.0,3214.0,2718.0,3087.0,2992.0,2.04,9.51,6.42,0.01,-0.05,-0.15,0.0,o
4095.0,3109.0,2972.0,4095.0,3223.0,2704.0,3012.0,2929.0,2.01,9.47,6.38,0.09,0.19,-0.09,0.0,o
4095.0,3136.0,2989.0,4095.0,3229.0,2710.0,3024.0,2928.0,2.11,9.49,6.34,0.09,0.2,-0.08,0.0,o
4095.0,3119.0,2980.0,4095.0,3222.0,2709.0,3010.0,2925.0,2.22,9.52,6.31,0.07,0.22,-0.08,0.0,o
4095.0,3131.0,2981.0,4095.0,3227.0,2709.0,3024.0,2928.0,2.16,9.5,6.29,0.07,0.24,-0.09,0.0,o
4095.0,3120.0,2981.0,4095.0,3219.0,2705.0,3009.0,2928.0,2.15,9.54,6.28,0.05,0.25,-0.09,0.0,o
4095.0,3115.0,2985.0,4095.0,3229.0,2706.0,3021.0,2933.0,2.21,9.51,6.3,0.04,0.24,-0.09,0.0,o
4095.0,3113.0,2977.0,4095.0,3222.0,2704.0,3013.0,2928.0,2.15,9.5,6.39,0.02,0.25,-0.1,0.0,o
4095.0,3116.0,2972.0,4095.0,3229.0,2707.0,3019.0,2927.0,2.07,9.47,6.45,0.03,0.24,-0.11,0.0,o
4095.0,3119.0,2963.0,4095.0,3222.0,2704.0,3018.0,2928.0,1.96,9.45,6.47,0.04,0.23,-0.11,0.0,o
4095.0,3120.0,2969.0,4095.0,3220.0,2699.0,3015.0,2928.0,1.95,9.48,6.43,0.05,0.22,-0.09,0.0,o
4095.0,3115.0,2975.0,4095.0,3229.0,2707.0,3024.0,2930.0,2.07,9.52,6.43,0.05,0.2,-0.09,0.0,o
4095.0,3118.0,2977.0,4095.0,3229.0,2707.0,3019.0,2928.0,2.05,9.54,6.36,0.06,0.17,-0.11,0.0,o
4095.0,3110.0,2980.0,4095.0,3232.0,2709.0,3024.0,2929.0,1.93,9.48,6.34,0.07,0.15,-0.12,0.0,o
4095.0,3129.0,2979.0,4095.0,3234.0,2708.0,3021.0,2931.0,1.98,9.57,6.36,0.05,0.15,-0.12,0.0,o
4095.0,3110.0,2971.0,4094.0,3219.0,2704.0,3018.0,2927.0,1.88,9.53,6.49,0.1,0.11,-0.13,0.0,o
4095.0,3117.0,2975.0,4091.0,3217.0,2706.0,3011.0,2928.0,1.87,9.56,6.24,0.13,0.07,-0.15,0.0,o
4095.0,3115.0,2981.0,4095.0,3228.0,2705.0,3024.0,2929.0,1.83,9.58,6.04,0.11,0.04,-0.15,0.0,o
4095.0,3102.0,2975.0,4095.0,3232.0,2709.0,3014.0,2923.0,1.88,9.57,5.9,0.07,-0.01,-0.15,0.0,o
4095.0,3110.0,2976.0,4082.0,3219.0,2706.0,3015.0,2926.0,1.87,9.58,5.95,0.02,-0.04,-0.13,0.0,o
4095.0,3120.0,2982.0,4095.0,3232.0,2706.0,3023.0,2930.0,2.15,9.57,6.22,-0.02,-0.04,-0.11,0.0,o
4095.0,3121.0,3015.0,3981.0,3206.0,2655.0,2876.0,2716.0,2.21,9.51,6.48,0.05,0.01,-0.16,0.0,o
4095.0,3134.0,3009.0,3920.0,3179.0,2617.0,2781.0,2618.0,2.12,9.5,6.38,0.04,0.01,-0.16,0.0,o
4095.0,3139.0,2998.0,3869.0,3163.0,2559.0,2705.0,2511.0,2.09,9.41,6.4,0.02,-0.0,-0.18,0.0,o
4095.0,3133.0,2989.0,3829.0,3139.0,2547.0,2673.0,2495.0,2.04,9.51,6.39,0.01,-0.03,-0.15,0.0,o
4095.0,3149.0,2997.0,3825.0,3150.0,2537.0,2656.0,2478.0,2.18,9.45,6.44,0.0,-0.02,-0.15,0.0,o
4095.0,3136.0,2988.0,3811.0,3135.0,2532.0,2644.0,2452.0,2.11,9.49,6.39,0.0,0.02,-0.15,0.0,o
4095.0,3135.0,2992.0,3799.0,3135.0,2526.0,2631.0,2446.0,2.13,9.49,6.43,-0.01,0.04,-0.16,0.0,o
4095.0,3137.0,2992.0,3806.0,3137.0,2527.0,2627.0,2435.0,2.09,9.39,6.53,0.03,0.07,-0.17,0.0,o
4095.0,3136.0,2983.0,3824.0,3131.0,2528.0,2641.0,2454.0,2.07,9.4,6.62,0.02,0.04,-0.17,0.0,o
4095.0,3143.0,2987.0,3873.0,3159.0,2559.0,2725.0,2545.0,2.07,9.41,6.64,0.08,0.03,-0.18,0.0,o
4095.0,3162.0,2994.0,3915.0,3183.0,2611.0,2837.0,2703.0,2.07,9.52,6.37,0.11,-0.01,-0.19,0.0,o
4095.0,3135.0,3026.0,3954.0,3199.0,2660.0,2947.0,2846.0,1.99,9.59,6.19,0.05,-0.06,-0.17,0.0,o
4095.0,3136.0,3050.0,3969.0,3216.0,2698.0,3055.0,3008.0,1.95,9.6,6.17,-0.01,-0.07,-0.12,0.0,o
4095.0,3120.0,3031.0,3986.0,3227.0,2734.0,3151.0,3131.0,2.04,9.53,6.29,-0.06,-0.06,-0.09,0.0,o
4095.0,3104.0,3050.0,4021.0,3247.0,2764.0,3225.0,3210.0,2.18,9.49,6.49,-0.03,-0.02,-0.11,0.0,o
4095.0,3101.0,3046.0,4037.0,3247.0,2769.0,3255.0,3228.0,2.18,9.45,6.5,-0.02,-0.02,-0.14,0.0,o
4095.0,3097.0,3037.0,4053.0,3263.0,2782.0,3273.0,3264.0,2.12,9.5,6.58,0.04,0.01,-0.16,0.0,o
4095.0,3099.0,3043.0,4060.0,3265.0,2789.0,3274.0,3248.0,2.12,9.56,6.43,0.04,-0.02,-0.14,0.0,o
4095.0,3094.0,3038.0,4048.0,3267.0,2754.0,3141.0,3041.0,2.01,9.52,6.39,0.01,0.08,-0.12,0.0,o
4095.0,3104.0,3024.0,4059.0,3249.0,2727.0,3026.0,2861.0,2.26,9.54,6.37,0.02,-0.0,-0.17,0.0,o
4095.0,3107.0,2974.0,3838.0,3238.0,2640.0,2796.0,2595.0,2.28,9.38,6.57,-0.02,0.03,-0.16,0.0,o
4095.0,3107.0,2974.0,3838.0,3238.0,2640.0,2796.0,2595.0,2.28,9.38,6.57,-0.02,0.03,-0.16,0.0,o
4095.0,3093.0,2970.0,3822.0,3236.0,2625.0,2769.0,2559.0,1.93,9.44,6.74,-0.0,0.02,-0.15,0.0,o
4095.0,3107.0,2969.0,3815.0,3239.0,2629.0,2774.0,2559.0,2.1,9.39,6.68,-0.01,-0.01,-0.14,0.0,o
4095.0,3104.0,2970.0,3824.0,3238.0,2645.0,2802.0,2625.0,2.11,9.3,6.79,0.01,-0.02,-0.13,0.0,o
4095.0,3102.0,2983.0,3894.0,3264.0,2698.0,2915.0,2762.0,2.14,9.47,6.73,0.02,0.04,-0.15,0.0,o
4095.0,3115.0,2996.0,3958.0,3280.0,2736.0,3027.0,2919.0,2.15,9.39,6.61,0.01,-0.01,-0.18,0.0,o
4095.0,3109.0,3002.0,4080.0,3297.0,2763.0,3108.0,3024.0,2.13,9.48,6.54,0.01,-0.1,-0.16,0.0,o
4095.0,3093.0,2998.0,4095.0,3328.0,2783.0,3143.0,3068.0,1.97,9.44,6.68,-0.03,0.03,-0.11,0.0,o
4095.0,3095.0,2997.0,4095.0,3346.0,2793.0,3152.0,3084.0,2.26,9.4,6.68,-0.01,0.0,-0.12,0.0,o
4095.0,3106.0,3010.0,4095.0,3350.0,2790.0,3167.0,3084.0,2.13,9.39,6.77,0.02,-0.02,-0.14,0.0,o
4095.0,3102.0,3001.0,4095.0,3363.0,2796.0,3168.0,3082.0,2.11,9.35,6.76,0.03,0.02,-0.14,0.0,o
4095.0,3105.0,3002.0,4095.0,3363.0,2800.0,3161.0,3082.0,2.19,9.43,6.68,0.03,-0.01,-0.15,0.0,o
4095.0,3108.0,3005.0,4095.0,3362.0,2797.0,3155.0,3071.0,2.11,9.45,6.65,0.03,0.01,-0.14,0.0,o
4095.0,3095.0,3003.0,4095.0,3347.0,2768.0,3115.0,3024.0,2.14,9.41,6.68,0.03,0.02,-0.14,0.0,o
4095.0,3088.0,3014.0,4095.0,3306.0,2747.0,3055.0,2953.0,2.18,9.41,6.63,0.02,-0.02,-0.15,0.0,o
4095.0,3109.0,2998.0,3958.0,3237.0,2690.0,2957.0,2863.0,2.1,9.4,6.7,0.02,-0.05,-0.15,0.0,o
4095.0,3110.0,2997.0,3804.0,3195.0,2638.0,2870.0,2773.0,2.07,9.4,6.74,0.03,-0.03,-0.15,0.0,o
4095.0,3117.0,2997.0,3696.0,3153.0,2607.0,2810.0,2718.0,2.09,9.38,6.64,0.01,-0.02,-0.09,0.0,o
4095.0,3117.0,2986.0,3632.0,3120.0,2559.0,2751.0,2651.0,2.17,9.39,6.69,0.01,-0.05,-0.12,0.0,o
4095.0,3129.0,2995.0,4095.0,3249.0,2698.0,2962.0,2800.0,2.76,8.51,8.64,-0.69,-0.12,0.14,0.0,o
4095.0,3127.0,2993.0,4027.0,3255.0,2695.0,2967.0,2789.0,2.95,8.05,9.14,-0.61,-0.02,0.14,0.0,o
4095.0,3136.0,2988.0,4049.0,3263.0,2704.0,2973.0,2784.0,3.46,7.84,9.81,-0.23,0.09,0.0,0.0,o
4095.0,3120.0,2990.0,4083.0,3266.0,2704.0,2981.0,2784.0,3.44,7.7,10.01,0.36,0.14,-0.11,0.0,o
4095.0,3125.0,2976.0,4095.0,3265.0,2691.0,2982.0,2801.0,3.04,7.94,9.65,0.93,0.41,-0.3,0.0,o
4095.0,3126.0,2987.0,4095.0,3255.0,2688.0,2989.0,2831.0,2.99,8.4,8.73,0.97,0.15,-0.45,0.0,o
4095.0,3131.0,2996.0,4095.0,3273.0,2683.0,2999.0,2849.0,2.37,8.76,8.11,1.07,0.19,-0.26,0.0,o
4095.0,3129.0,3004.0,4095.0,3271.0,2679.0,3007.0,2864.0,2.79,8.94,7.37,0.74,-0.1,-0.31,0.0,o
4095.0,3130.0,3002.0,4095.0,3268.0,2679.0,3006.0,2883.0,2.55,9.05,7.24,1.01,0.37,-0.32,0.0,o
4095.0,3146.0,3011.0,4095.0,3251.0,2675.0,3006.0,2889.0,2.9,9.23,6.86,1.08,0.41,-0.41,0.0,o
4095.0,3141.0,3011.0,4095.0,3262.0,2670.0,3014.0,2919.0,2.29,9.53,6.28,0.89,0.31,-0.42,0.0,o
4095.0,3136.0,3007.0,4095.0,3254.0,2663.0,3015.0,2923.0,2.01,9.55,5.96,0.89,0.52,-0.45,0.0,o
4095.0,3135.0,3024.0,4095.0,3243.0,2656.0,3015.0,2929.0,2.15,9.55,5.36,0.56,0.05,-0.36,0.0,o
4095.0,3142.0,3025.0,4095.0,3243.0,2665.0,3021.0,2933.0,1.65,9.87,5.3,0.73,0.65,-0.37,0.0,o
4095.0,3152.0,3025.0,4095.0,3251.0,2655.0,3019.0,2931.0,1.51,10.06,4.58,0.22,-0.1,-0.12,0.0,o
4095.0,3136.0,3021.0,4095.0,3237.0,2657.0,3009.0,2929.0,1.28,9.98,4.58,-0.12,-0.04,-0.04,0.0,o
4095.0,3136.0,3024.0,4095.0,3248.0,2672.0,3014.0,2944.0,1.16,9.74,4.69,-0.59,-0.36,0.18,0.0,o
4095.0,3139.0,3023.0,4095.0,3255.0,2677.0,3017.0,2937.0,2.21,9.63,5.23,-0.66,-0.14,0.01,0.0,o
4095.0,3150.0,3023.0,4095.0,3261.0,2685.0,3018.0,2943.0,2.0,9.7,6.0,-0.61,-0.33,0.02,0.0,o
4095.0,3147.0,3018.0,4095.0,3258.0,2688.0,3009.0,2927.0,2.75,9.16,5.89,-0.93,-0.39,0.06,0.0,o
4095.0,3120.0,3028.0,4095.0,3277.0,2706.0,3082.0,3009.0,2.33,9.45,6.16,-0.25,-0.12,-0.06,0.0,o
4095.0,3141.0,3031.0,4095.0,3281.0,2707.0,3087.0,3007.0,2.36,9.5,6.36,-0.17,0.01,-0.13,0.0,o
4095.0,3132.0,3025.0,4095.0,3297.0,2704.0,3071.0,3006.0,2.29,9.41,6.42,-0.13,0.03,-0.14,0.0,o
4095.0,3131.0,3033.0,4095.0,3280.0,2704.0,3069.0,3011.0,2.11,9.53,6.33,-0.13,-0.05,-0.13,0.0,o
4095.0,3120.0,3024.0,4085.0,3249.0,2690.0,3030.0,2953.0,2.43,9.32,6.44,-0.21,-0.09,-0.19,0.0,o
4095.0,3127.0,3023.0,3854.0,3186.0,2626.0,2921.0,2850.0,2.1,9.61,6.51,-0.26,-0.09,-0.21,0.0,o
4095.0,3120.0,3014.0,3726.0,3135.0,2559.0,2817.0,2736.0,2.3,9.13,6.68,-0.25,0.03,-0.13,0.0,o
4095.0,3132.0,2992.0,3635.0,3083.0,2530.0,2746.0,2656.0,2.21,9.35,6.9,-0.21,-0.04,-0.16,0.0,o
4095.0,3127.0,2993.0,3583.0,3046.0,2502.0,2701.0,2594.0,2.48,9.2,7.07,-0.08,-0.08,-0.2,0.0,o
4095.0,3132.0,2989.0,3549.0,3015.0,2479.0,2653.0,2547.0,2.03,9.29,7.11,0.02,0.02,-0.18,0.0,o
4095.0,3118.0,2979.0,3504.0,2995.0,2463.0,2638.0,2530.0,2.33,9.3,7.01,0.04,-0.03,-0.16,0.0,o
4095.0,3119.0,2975.0,3498.0,2989.0,2471.0,2640.0,2541.0,2.26,9.37,6.85,0.06,-0.1,-0.16,0.0,o
4095.0,3120.0,2988.0,3502.0,2981.0,2471.0,2651.0,2559.0,2.21,9.32,6.81,0.01,-0.01,-0.15,0.0,o
4095.0,3119.0,2971.0,3505.0,2989.0,2487.0,2688.0,2608.0,2.25,9.3,6.93,0.05,-0.01,-0.13,0.0,o
4095.0,3122.0,2999.0,3605.0,3041.0,2541.0,2787.0,2736.0,2.33,9.28,6.85,0.03,-0.04,-0.12,0.0,o
4095.0,3115.0,3014.0,3761.0,3132.0,2614.0,2951.0,2911.0,2.33,9.33,6.93,0.1,-0.11,-0.2,0.0,o
4095.0,3135.0,3029.0,4046.0,3216.0,2687.0,3105.0,3085.0,2.34,9.37,6.73,0.22,-0.14,-0.26,0.0,o
4095.0,3117.0,3026.0,4095.0,3259.0,2715.0,3177.0,3177.0,2.5,9.34,6.57,0.18,-0.08,-0.31,0.0,o
4095.0,3114.0,3055.0,4095.0,3305.0,2755.0,3248.0,3245.0,2.01,9.53,6.58,0.3,0.06,-0.28,0.0,o
4095.0,3117.0,3055.0,4095.0,3330.0,2769.0,3283.0,3260.0,1.99,9.34,6.63,0.36,0.26,-0.18,0.0,o
3264.0,3601.0,3090.0,4003.0,3239.0,2691.0,2990.0,3025.0,2.76,8.72,8.07,0.02,0.07,-0.2,0.0,o
3281.0,3600.0,3088.0,3991.0,3248.0,2698.0,2994.0,3027.0,2.53,8.77,8.06,0.02,-0.01,-0.17,0.0,o
3264.0,3600.0,3070.0,4000.0,3241.0,2694.0,2991.0,3024.0,2.8,8.69,8.22,-0.01,-0.01,-0.13,0.0,o
3261.0,3572.0,3071.0,3998.0,3248.0,2700.0,2991.0,3027.0,2.8,8.76,8.11,0.03,-0.04,-0.14,0.0,o
3280.0,3583.0,3081.0,4002.0,3248.0,2699.0,2995.0,3027.0,2.91,8.79,8.01,0.01,0.0,-0.12,0.0,o
3285.0,3600.0,3081.0,3987.0,3245.0,2705.0,2992.0,3030.0,2.91,8.74,8.12,0.01,-0.02,-0.14,0.0,o
3274.0,3621.0,3083.0,3999.0,3243.0,2703.0,3001.0,3031.0,2.9,8.74,8.07,0.0,-0.01,-0.14,0.0,o
3282.0,3583.0,3071.0,4005.0,3248.0,2704.0,2991.0,3031.0,2.93,8.74,8.14,-0.0,-0.03,-0.15,0.0,o
3279.0,3613.0,3082.0,3999.0,3249.0,2701.0,2994.0,3034.0,2.91,8.71,8.19,0.01,-0.02,-0.16,0.0,o
3266.0,3604.0,3068.0,4013.0,3248.0,2704.0,2987.0,3026.0,2.82,8.71,8.23,0.0,-0.01,-0.16,0.0,o
3261.0,3616.0,3084.0,4010.0,3261.0,2710.0,2997.0,3032.0,2.85,8.71,8.18,0.02,-0.04,-0.15,0.0,o
3271.0,3583.0,3062.0,3999.0,3268.0,2706.0,3003.0,3041.0,2.87,8.72,8.08,0.02,-0.03,-0.14,0.0,o
3257.0,3600.0,3056.0,3987.0,3273.0,2704.0,3003.0,3056.0,2.83,8.77,7.99,0.02,-0.03,-0.15,0.0,o
3255.0,3580.0,3071.0,3985.0,3258.0,2722.0,3008.0,3049.0,2.86,8.78,8.04,-0.01,-0.01,-0.14,0.0,o
3262.0,3583.0,3067.0,3983.0,3271.0,2711.0,3009.0,3055.0,2.98,8.74,8.11,-0.02,-0.04,-0.14,0.0,o
3270.0,3566.0,3067.0,3977.0,3268.0,2709.0,3006.0,3056.0,2.96,8.66,8.22,-0.01,-0.04,-0.15,0.0,o
3248.0,3570.0,3067.0,3966.0,3266.0,2705.0,3005.0,3056.0,2.9,8.7,8.27,0.02,-0.0,-0.17,0.0,o
3258.0,3568.0,3062.0,3951.0,3265.0,2705.0,3010.0,3049.0,2.87,8.72,8.2,0.04,0.01,-0.17,0.0,o
3262.0,3568.0,3063.0,3931.0,3267.0,2704.0,3003.0,3045.0,2.82,8.75,8.16,0.06,0.05,-0.18,0.0,o
3264.0,3568.0,3062.0,3945.0,3269.0,2704.0,2998.0,3045.0,2.91,8.76,8.06,0.03,-0.02,-0.17,0.0,o
3361.0,3403.0,3045.0,3911.0,3200.0,2656.0,2961.0,2987.0,2.68,8.86,7.87,0.06,-0.0,-0.13,0.0,o
3362.0,3413.0,3037.0,4095.0,3252.0,2687.0,3024.0,3028.0,2.74,8.98,7.76,0.08,-0.03,-0.16,0.0,o
3348.0,3418.0,3022.0,4095.0,3278.0,2704.0,3043.0,3041.0,2.69,9.01,7.66,0.06,-0.0,-0.18,0.0,o
3329.0,3437.0,3029.0,4095.0,3311.0,2723.0,3059.0,3051.0,2.59,8.97,7.68,0.05,0.0,-0.18,0.0,o
3313.0,3431.0,3020.0,4095.0,3329.0,2731.0,3091.0,3062.0,2.42,8.98,7.73,0.09,0.01,-0.19,0.0,o
3312.0,3431.0,3023.0,4095.0,3345.0,2742.0,3089.0,3069.0,2.58,9.0,7.69,0.08,0.01,-0.19,0.0,o
3317.0,3442.0,3008.0,4095.0,3345.0,2736.0,3094.0,3071.0,2.6,9.03,7.53,0.1,-0.03,-0.21,0.0,o
3321.0,3433.0,3015.0,4095.0,3358.0,2745.0,3101.0,3083.0,2.59,9.11,7.49,0.02,-0.01,-0.22,0.0,o
3326.0,3441.0,3017.0,4093.0,3317.0,2725.0,3064.0,3062.0,2.52,9.06,7.52,-0.01,0.03,-0.18,0.0,o
3357.0,3418.0,3019.0,3910.0,3273.0,2688.0,3022.0,3020.0,2.38,9.05,7.69,-0.01,0.04,-0.16,0.0,o
3348.0,3418.0,3024.0,3734.0,3194.0,2653.0,2976.0,3008.0,2.34,9.02,7.63,-0.04,-0.0,-0.15,0.0,o
3369.0,3407.0,3024.0,3619.0,3133.0,2610.0,2927.0,2945.0,2.49,8.99,7.78,-0.03,0.02,-0.15,0.0,o
3378.0,3405.0,3029.0,3472.0,3071.0,2559.0,2877.0,2910.0,2.51,9.07,7.75,0.01,-0.07,-0.23,0.0,o
3376.0,3399.0,3030.0,3474.0,3042.0,2558.0,2859.0,2870.0,2.42,9.06,7.61,-0.04,-0.04,-0.24,0.0,o
3397.0,3390.0,3035.0,3446.0,3024.0,2541.0,2835.0,2846.0,2.29,9.07,7.67,-0.02,-0.05,-0.18,0.0,o
3396.0,3377.0,3047.0,3429.0,3018.0,2535.0,2827.0,2841.0,2.25,9.05,7.66,-0.09,-0.09,-0.1,0.0,o
3437.0,3370.0,3055.0,3371.0,2983.0,2495.0,2775.0,2757.0,2.45,9.0,7.76,-0.13,-0.22,-0.11,0.0,o
3453.0,3351.0,3024.0,3312.0,2946.0,2470.0,2718.0,2684.0,2.54,8.84,7.84,-0.06,-0.15,-0.17,0.0,o
3490.0,3331.0,3040.0,3284.0,2907.0,2450.0,2673.0,2640.0,2.56,8.9,7.9,-0.04,-0.16,-0.28,0.0,o
3530.0,3334.0,3037.0,3248.0,2886.0,2430.0,2639.0,2609.0,2.55,8.92,7.78,0.04,-0.06,-0.32,0.0,o
3455.0,3389.0,2955.0,3879.0,3406.0,2777.0,3165.0,3098.0,2.28,9.18,7.59,0.01,-0.02,-0.2,0.0,o
3471.0,3382.0,2962.0,3835.0,3376.0,2767.0,3161.0,3088.0,2.1,9.14,7.46,-0.1,0.04,-0.09,0.0,o
3467.0,3378.0,2964.0,3837.0,3376.0,2768.0,3162.0,3082.0,2.22,9.06,7.77,-0.13,0.03,-0.08,0.0,o
3463.0,3387.0,2960.0,3794.0,3355.0,2766.0,3136.0,3079.0,2.44,9.05,7.8,-0.08,-0.02,-0.1,0.0,o
3472.0,3374.0,2958.0,3753.0,3330.0,2752.0,3129.0,3061.0,2.46,9.03,7.75,-0.13,-0.03,-0.12,0.0,o
3472.0,3383.0,2957.0,3756.0,3323.0,2737.0,3110.0,3033.0,2.38,8.88,7.9,-0.05,-0.06,-0.14,0.0,o
3490.0,3376.0,2961.0,3776.0,3322.0,2727.0,3090.0,3012.0,2.42,8.92,7.95,0.01,-0.06,-0.16,0.0,o
3477.0,3378.0,2962.0,3749.0,3284.0,2701.0,3041.0,2966.0,2.4,8.92,7.76,-0.01,-0.02,-0.13,0.0,o
3503.0,3353.0,2961.0,3717.0,3217.0,2649.0,2973.0,2917.0,2.43,9.07,7.83,0.01,-0.03,-0.11,0.0,o
3533.0,3364.0,2988.0,3654.0,3166.0,2613.0,2912.0,2876.0,2.67,8.96,7.78,-0.03,-0.03,-0.14,0.0,o
3563.0,3359.0,2991.0,3542.0,3113.0,2559.0,2857.0,2827.0,2.31,9.02,7.84,-0.1,-0.11,-0.12,0.0,o
3555.0,3359.0,3003.0,3568.0,3107.0,2559.0,2826.0,2801.0,2.59,8.89,7.9,-0.08,-0.04,-0.14,0.0,o
3567.0,3376.0,3019.0,3531.0,3062.0,2537.0,2782.0,2785.0,2.3,8.88,7.96,-0.1,-0.12,-0.12,0.0,o
3530.0,3359.0,3027.0,3523.0,3071.0,2530.0,2765.0,2795.0,2.72,8.85,8.03,-0.04,0.15,-0.17,0.0,o
3536.0,3374.0,3035.0,3490.0,3057.0,2508.0,2732.0,2763.0,2.47,8.84,8.17,-0.01,0.01,-0.16,0.0,o
3549.0,3365.0,3034.0,3472.0,3054.0,2509.0,2705.0,2734.0,2.51,8.96,8.09,0.07,0.09,-0.2,0.0,o
3526.0,3359.0,3050.0,3426.0,3017.0,2495.0,2682.0,2694.0,2.49,8.9,7.97,0.01,-0.07,-0.16,0.0,o
3529.0,3376.0,3054.0,3423.0,3024.0,2494.0,2675.0,2688.0,2.43,8.89,7.98,0.01,-0.04,-0.15,0.0,o
3541.0,3363.0,3050.0,3417.0,3031.0,2505.0,2694.0,2706.0,2.49,8.83,8.0,-0.0,0.03,-0.13,0.0,o
3531.0,3376.0,3057.0,3502.0,3060.0,2530.0,2732.0,2773.0,2.56,8.7,8.24,0.04,0.09,-0.13,0.0,o
3583.0,3358.0,3018.0,3981.0,3248.0,2643.0,2941.0,2925.0,2.2,9.15,7.5,0.05,0.02,-0.15,0.0,o
3573.0,3353.0,3021.0,4026.0,3264.0,2655.0,2958.0,2934.0,2.26,9.14,7.39,0.03,0.0,-0.12,0.0,o
3568.0,3362.0,3009.0,4033.0,3269.0,2653.0,2962.0,2937.0,2.38,9.12,7.49,0.01,0.0,-0.12,0.0,o
3568.0,3366.0,3005.0,4095.0,3283.0,2671.0,2980.0,2950.0,2.43,9.13,7.41,0.03,0.01,-0.15,0.0,o
3555.0,3376.0,2999.0,4095.0,3333.0,2695.0,3024.0,2992.0,2.49,9.12,7.49,0.05,0.02,-0.2,0.0,o
3535.0,3385.0,2982.0,4095.0,3376.0,2726.0,3071.0,3039.0,2.38,9.15,7.52,0.1,-0.01,-0.23,0.0,o
3536.0,3373.0,2987.0,4095.0,3426.0,2755.0,3133.0,3091.0,2.27,9.16,7.42,0.14,0.01,-0.27,0.0,o
3535.0,3387.0,2988.0,4095.0,3446.0,2768.0,3141.0,3104.0,2.06,9.27,7.26,0.11,-0.0,-0.23,0.0,o
3534.0,3380.0,2975.0,4095.0,3465.0,2782.0,3154.0,3104.0,2.14,9.25,7.27,0.1,0.02,-0.21,0.0,o
3526.0,3375.0,2965.0,4095.0,3471.0,2782.0,3155.0,3105.0,2.18,9.22,7.13,0.05,-0.01,-0.16,0.0,o
3505.0,3383.0,2971.0,4095.0,3478.0,2781.0,3164.0,3105.0,2.16,9.33,7.16,0.07,0.03,-0.18,0.0,o
3521.0,3376.0,2962.0,4095.0,3477.0,2795.0,3171.0,3119.0,2.21,9.15,7.28,0.08,-0.0,-0.17,0.0,o
3540.0,3407.0,2976.0,4095.0,3509.0,2835.0,3263.0,3189.0,1.8,9.33,7.45,0.35,0.17,-0.22,0.0,o
3568.0,3422.0,2949.0,4095.0,3503.0,2842.0,3277.0,3194.0,2.0,9.42,6.7,0.16,0.03,-0.18,0.0,o
3600.0,3407.0,2945.0,4095.0,3507.0,2871.0,3300.0,3226.0,1.87,9.42,6.87,-0.0,-0.02,-0.13,0.0,o
3621.0,3401.0,2937.0,4095.0,3507.0,2882.0,3346.0,3259.0,2.1,9.36,6.8,-0.03,-0.09,-0.12,0.0,o
3620.0,3414.0,2943.0,4095.0,3511.0,2890.0,3359.0,3264.0,2.08,9.33,7.02,-0.09,0.01,-0.11,0.0,o
3632.0,3405.0,2945.0,4095.0,3504.0,2877.0,3322.0,3251.0,2.2,9.28,7.13,-0.02,0.02,-0.12,0.0,o
3631.0,3391.0,2955.0,4095.0,3501.0,2864.0,3306.0,3233.0,2.15,9.3,7.19,0.01,-0.03,-0.16,0.0,o
3626.0,3383.0,2943.0,4095.0,3500.0,2867.0,3310.0,3243.0,2.01,9.32,7.14,0.04,0.0,-0.1,0.0,o
3650.0,3349.0,3067.0,3877.0,3108.0,2591.0,2877.0,2922.0,3.11,8.67,8.12,-0.01,-0.11,-0.16,0.0,o
3650.0,3349.0,3067.0,3877.0,3108.0,2591.0,2877.0,2922.0,3.11,8.67,8.12,-0.01,-0.11,-0.16,0.0,o
3645.0,3363.0,3058.0,3920.0,3138.0,2617.0,2919.0,2960.0,3.06,8.68,8.19,0.01,-0.1,-0.22,0.0,o
3635.0,3329.0,3062.0,4095.0,3207.0,2665.0,3018.0,3060.0,3.18,8.65,8.25,0.11,-0.06,-0.31,0.0,o
3633.0,3328.0,3038.0,4095.0,3285.0,2707.0,3105.0,3151.0,3.08,8.7,8.21,0.24,-0.05,-0.39,0.0,o
3618.0,3314.0,3039.0,4095.0,3387.0,2775.0,3216.0,3251.0,3.21,8.59,8.01,0.35,0.04,-0.48,0.0,o
3648.0,3331.0,3034.0,4095.0,3410.0,2823.0,3279.0,3280.0,2.44,9.06,7.97,0.59,0.12,-0.43,0.0,o
3664.0,3342.0,3029.0,4095.0,3421.0,2864.0,3348.0,3331.0,2.11,9.09,7.31,0.29,0.1,-0.34,0.0,o
3734.0,3313.0,3012.0,4095.0,3419.0,2896.0,3439.0,3405.0,2.13,9.2,7.31,0.12,-0.02,-0.18,0.0,o
3780.0,3323.0,3019.0,4095.0,3435.0,2922.0,3483.0,3452.0,2.31,9.11,7.4,0.0,-0.06,-0.12,0.0,o
3799.0,3293.0,3015.0,4095.0,3457.0,2944.0,3525.0,3487.0,2.55,9.1,7.42,0.0,-0.07,-0.06,0.0,o
3809.0,3290.0,3012.0,4095.0,3487.0,2959.0,3568.0,3514.0,2.66,9.1,7.35,0.02,-0.04,-0.14,0.0,o
3803.0,3284.0,3008.0,4095.0,3495.0,2960.0,3574.0,3520.0,2.58,9.16,7.35,0.02,-0.1,-0.13,0.0,o
3793.0,3271.0,2999.0,4095.0,3479.0,2962.0,3566.0,3525.0,2.69,9.09,7.38,-0.01,-0.08,-0.16,0.0,o
3818.0,3280.0,2997.0,4095.0,3487.0,2969.0,3575.0,3535.0,2.57,9.07,7.47,-0.02,0.01,-0.13,0.0,o
3825.0,3264.0,3001.0,4095.0,3472.0,2967.0,3569.0,3520.0,2.55,9.07,7.43,-0.02,-0.0,-0.09,0.0,o
3847.0,3269.0,2995.0,4095.0,3484.0,2958.0,3563.0,3519.0,2.55,9.15,7.37,-0.05,-0.02,-0.1,0.0,o
3876.0,3257.0,2992.0,4095.0,3447.0,2923.0,3479.0,3436.0,2.7,8.93,7.3,-0.2,0.04,-0.03,0.0,o
3919.0,3258.0,3024.0,4095.0,3389.0,2847.0,3285.0,3232.0,2.84,9.03,7.46,-0.2,0.11,-0.07,0.0,o
3915.0,3271.0,3031.0,4095.0,3314.0,2767.0,3121.0,3062.0,2.74,8.94,7.73,-0.21,0.19,-0.15,0.0,o
4087.0,3263.0,2838.0,4095.0,3283.0,2713.0,3013.0,2974.0,2.23,9.65,5.54,-0.23,-0.22,-0.63,0.0,o
4066.0,3281.0,2825.0,4053.0,3280.0,2707.0,3021.0,2975.0,0.93,9.58,6.38,-0.32,0.01,-0.73,0.0,o
4049.0,3296.0,2832.0,4076.0,3283.0,2715.0,3020.0,2987.0,0.53,9.78,7.25,-0.36,0.03,-0.57,0.0,o
4053.0,3280.0,2829.0,4095.0,3290.0,2716.0,3033.0,2986.0,0.05,9.47,7.1,0.04,0.11,-0.22,0.0,o
4049.0,3281.0,2825.0,4095.0,3290.0,2720.0,3026.0,2983.0,0.7,9.76,5.84,0.25,-0.03,0.02,0.0,o
4068.0,3266.0,2832.0,4079.0,3281.0,2719.0,3024.0,2988.0,1.12,9.83,5.25,0.13,0.12,0.0,0.0,o
4075.0,3275.0,2838.0,4057.0,3280.0,2709.0,3010.0,2960.0,1.03,9.88,5.33,0.04,0.07,-0.02,0.0,o
4083.0,3280.0,2834.0,4067.0,3277.0,2701.0,2977.0,2910.0,1.39,9.76,5.42,-0.07,0.08,-0.05,0.0,o
4095.0,3265.0,2846.0,4071.0,3283.0,2700.0,2960.0,2874.0,1.16,9.76,5.8,-0.11,0.35,-0.1,0.0,o
4095.0,3271.0,2850.0,3982.0,3259.0,2669.0,2921.0,2855.0,0.81,9.7,6.04,-0.06,0.32,-0.09,0.0,o
4095.0,3267.0,2881.0,3774.0,3173.0,2583.0,2800.0,2784.0,0.76,9.8,5.91,-0.04,0.11,-0.08,0.0,o
4095.0,3261.0,2899.0,3619.0,3067.0,2519.0,2705.0,2719.0,1.07,9.55,6.05,-0.04,-0.01,-0.1,0.0,o
4095.0,3273.0,2921.0,3534.0,3021.0,2496.0,2679.0,2702.0,1.27,9.65,5.73,0.09,-0.11,-0.3,0.0,o
4095.0,3254.0,2943.0,3447.0,2988.0,2476.0,2655.0,2694.0,1.65,9.67,5.85,0.01,-0.33,-0.66,0.0,o
4095.0,3248.0,2949.0,3397.0,2992.0,2484.0,2676.0,2689.0,0.77,9.76,6.17,0.05,-0.31,-0.73,0.0,o
4095.0,3248.0,2947.0,3394.0,2994.0,2495.0,2699.0,2700.0,0.21,9.93,5.84,0.17,-0.26,-0.52,0.0,o
4095.0,3243.0,2946.0,3405.0,2998.0,2496.0,2706.0,2703.0,0.44,9.85,5.83,0.06,-0.01,-0.27,0.0,o
4095.0,3227.0,2959.0,3397.0,2994.0,2494.0,2701.0,2705.0,0.17,9.85,5.83,0.1,0.13,-0.11,0.0,o
4095.0,3233.0,2947.0,3412.0,2998.0,2495.0,2702.0,2697.0,0.31,9.71,5.17,0.21,-0.33,-0.05,0.0,o
4095.0,3235.0,2952.0,3433.0,2999.0,2494.0,2704.0,2701.0,1.07,9.69,4.95,0.3,-0.08,-0.39,0.0,o
4095.0,3250.0,2774.0,4095.0,3442.0,2819.0,3149.0,3060.0,1.41,9.59,6.62,-0.26,0.17,0.02,0.0,o
4095.0,3264.0,2783.0,4095.0,3431.0,2814.0,3139.0,3040.0,1.66,9.7,7.07,-0.21,0.33,0.19,0.0,o
4095.0,3255.0,2774.0,4095.0,3413.0,2805.0,3120.0,2963.0,2.31,9.15,7.07,-0.48,0.29,0.34,0.0,o
4095.0,3238.0,2783.0,4095.0,3373.0,2789.0,3086.0,2955.0,1.66,9.3,7.29,-0.09,0.45,-0.03,0.0,o
4095.0,3253.0,2827.0,4069.0,3275.0,2704.0,2949.0,2871.0,1.56,9.62,6.48,-0.02,-0.03,-0.34,0.0,o
4095.0,3269.0,2861.0,3790.0,3168.0,2614.0,2807.0,2789.0,1.28,9.6,6.17,-0.05,-0.15,-0.5,0.0,o
4095.0,3287.0,2890.0,3554.0,3031.0,2512.0,2658.0,2701.0,1.39,9.72,6.28,-0.23,-0.26,-0.56,0.0,o
4095.0,3270.0,2903.0,3510.0,3012.0,2497.0,2639.0,2677.0,1.31,9.67,6.68,-0.55,-0.33,-0.46,0.0,o
4095.0,3285.0,2911.0,3536.0,3023.0,2511.0,2658.0,2704.0,0.99,9.31,7.45,-0.37,-0.06,-0.29,0.0,o
4095.0,3295.0,2912.0,3583.0,3038.0,2527.0,2679.0,2736.0,0.66,9.26,7.56,0.08,0.08,-0.17,0.0,o
4095.0,3287.0,2909.0,3651.0,3071.0,2559.0,2733.0,2765.0,0.59,9.27,7.37,0.24,0.12,-0.04,0.0,o
4095.0,3285.0,2891.0,3781.0,3135.0,2608.0,2802.0,2829.0,0.72,9.45,7.29,0.32,0.01,0.08,0.0,o
4095.0,3282.0,2863.0,3970.0,3189.0,2645.0,2897.0,2899.0,1.12,9.52,6.95,0.3,-0.18,0.25,0.0,o
4095.0,3285.0,2811.0,4095.0,3246.0,2711.0,2999.0,2982.0,1.68,9.59,6.67,-0.04,-0.11,0.3,0.0,o
4095.0,3263.0,2767.0,4095.0,3280.0,2752.0,3082.0,3029.0,2.02,9.42,6.85,-0.15,0.07,0.01,0.0,o
4095.0,3267.0,2747.0,4095.0,3289.0,2765.0,3109.0,3063.0,2.03,9.4,7.02,-0.07,-0.06,-0.15,0.0,o
4095.0,3271.0,2746.0,4095.0,3282.0,2759.0,3107.0,3054.0,1.77,9.43,7.08,-0.06,-0.01,-0.34,0.0,o
4095.0,3255.0,2800.0,4095.0,3249.0,2721.0,3019.0,2970.0,1.3,9.48,7.06,0.03,0.01,-0.35,0.0,o
4095.0,3243.0,2839.0,3924.0,3199.0,2650.0,2871.0,2827.0,1.14,9.4,7.04,-0.0,-0.09,-0.39,0.0,o
4095.0,3246.0,2868.0,3808.0,3155.0,2596.0,2781.0,2751.0,0.87,9.53,7.09,-0.06,-0.21,-0.29,0.0,o
4095.0,3251.0,2826.0,4095.0,3280.0,2762.0,3151.0,3111.0,1.64,8.92,7.14,-0.18,0.51,0.47,0.0,o
4095.0,3251.0,2826.0,4095.0,3280.0,2762.0,3151.0,3111.0,1.64,8.92,7.14,-0.18,0.51,0.47,0.0,o
4095.0,3253.0,2793.0,4095.0,3315.0,2801.0,3211.0,3152.0,2.35,9.45,6.19,-0.11,0.31,0.36,0.0,o
4095.0,3253.0,2768.0,4095.0,3378.0,2864.0,3313.0,3216.0,3.29,9.43,5.94,-0.07,0.11,0.22,0.0,o
4095.0,3248.0,2743.0,4095.0,3397.0,2899.0,3374.0,3245.0,3.6,9.29,6.35,-0.14,0.02,0.12,0.0,o
4095.0,3226.0,2723.0,4095.0,3427.0,2928.0,3440.0,3281.0,3.46,8.99,6.56,0.08,0.12,-0.2,0.0,o
4095.0,3219.0,2718.0,4095.0,3439.0,2928.0,3463.0,3270.0,3.51,9.35,6.39,0.09,0.32,-0.2,0.0,o
4095.0,3217.0,2736.0,4095.0,3440.0,2940.0,3472.0,3258.0,3.27,9.26,6.57,0.1,0.37,-0.3,0.0,o
4095.0,3216.0,2755.0,4095.0,3427.0,2909.0,3419.0,3210.0,2.78,9.28,6.52,-0.15,0.24,-0.24,0.0,o
4095.0,3219.0,2778.0,4095.0,3386.0,2870.0,3334.0,3142.0,2.38,9.12,7.1,-0.12,0.12,-0.25,0.0,o
4095.0,3211.0,2797.0,4095.0,3345.0,2805.0,3205.0,3054.0,2.27,9.08,7.25,-0.14,-0.02,-0.3,0.0,o
4095.0,3209.0,2827.0,4047.0,3296.0,2736.0,3060.0,2974.0,2.39,9.12,7.27,-0.02,-0.13,-0.27,0.0,o
4095.0,3226.0,2864.0,3875.0,3226.0,2691.0,2954.0,2885.0,2.46,9.22,7.08,-0.12,-0.25,-0.13,0.0,o
4095.0,3226.0,2899.0,3725.0,3184.0,2640.0,2863.0,2807.0,2.76,9.13,7.09,-0.09,-0.23,-0.13,0.0,o
4095.0,3242.0,2923.0,3613.0,3121.0,2586.0,2768.0,2753.0,3.0,9.12,7.03,-0.13,-0.28,-0.12,0.0,o
4095.0,3247.0,2945.0,3599.0,3109.0,2559.0,2739.0,2741.0,3.0,9.13,7.05,-0.16,-0.2,-0.15,0.0,o
4095.0,3248.0,2941.0,3636.0,3113.0,2559.0,2754.0,2750.0,3.09,8.98,7.29,-0.23,-0.28,-0.2,0.0,o
4095.0,3232.0,2927.0,3687.0,3126.0,2598.0,2800.0,2778.0,3.14,8.89,7.79,-0.13,-0.25,-0.26,0.0,o
4095.0,3241.0,2928.0,3778.0,3162.0,2625.0,2836.0,2832.0,2.94,8.79,7.69,0.1,-0.32,-0.41,0.0,o
4095.0,3245.0,2879.0,3898.0,3215.0,2679.0,2960.0,2947.0,2.79,9.13,7.36,0.21,-0.28,-0.46,0.0,o
4095.0,3259.0,2800.0,4095.0,3328.0,2800.0,3155.0,3024.0,1.12,9.6,6.31,-0.12,-0.11,-0.06,0.0,o
4095.0,3259.0,2800.0,4095.0,3328.0,2800.0,3155.0,3024.0,1.12,9.6,6.31,-0.12,-0.11,-0.06,0.0,o
4095.0,3260.0,2850.0,4063.0,3289.0,2718.0,2995.0,2896.0,1.1,9.59,6.53,0.02,0.05,-0.12,0.0,o
4095.0,3248.0,2871.0,3921.0,3251.0,2674.0,2909.0,2846.0,1.15,9.73,6.32,-0.07,-0.08,-0.12,0.0,o
4095.0,3261.0,2896.0,3731.0,3176.0,2617.0,2823.0,2774.0,1.06,9.67,6.41,-0.21,-0.1,-0.11,0.0,o
4095.0,3237.0,2942.0,3479.0,3046.0,2528.0,2713.0,2699.0,1.12,9.65,6.37,-0.39,-0.1,-0.06,0.0,o
4095.0,3231.0,2959.0,3393.0,2986.0,2488.0,2640.0,2641.0,1.39,9.37,6.89,-0.26,0.01,-0.23,0.0,o
4095.0,3232.0,2970.0,3345.0,2927.0,2445.0,2559.0,2559.0,1.17,9.47,7.2,-0.28,-0.08,-0.27,0.0,o
4095.0,3214.0,2977.0,3347.0,2926.0,2451.0,2559.0,2559.0,1.01,9.33,7.22,-0.14,-0.16,-0.24,0.0,o
4095.0,3230.0,2965.0,3447.0,3005.0,2496.0,2649.0,2647.0,1.19,9.21,7.31,-0.01,-0.12,-0.23,0.0,o
4095.0,3241.0,2928.0,3600.0,3120.0,2590.0,2773.0,2755.0,1.1,9.48,7.31,0.13,-0.07,-0.21,0.0,o
4095.0,3266.0,2877.0,3823.0,3226.0,2663.0,2886.0,2829.0,1.08,9.57,7.01,0.14,-0.04,-0.21,0.0,o
4095.0,3253.0,2832.0,4032.0,3312.0,2715.0,2976.0,2894.0,0.96,9.58,6.84,0.09,-0.0,-0.17,0.0,o
4095.0,3261.0,2798.0,4095.0,3360.0,2751.0,3042.0,2948.0,0.97,9.52,6.81,0.0,-0.04,-0.12,0.0,o
4095.0,3264.0,2771.0,4095.0,3415.0,2795.0,3110.0,3003.0,0.93,9.47,6.89,0.03,0.07,-0.15,0.0,o
4095.0,3258.0,2736.0,4095.0,3456.0,2826.0,3152.0,3042.0,1.16,9.45,7.04,0.06,0.01,-0.13,0.0,o
4095.0,3267.0,2703.0,4095.0,3505.0,2871.0,3222.0,3094.0,1.01,9.49,7.09,0.21,0.1,-0.11,0.0,o
4095.0,3269.0,2688.0,4095.0,3507.0,2882.0,3254.0,3126.0,1.09,9.66,6.65,0.09,-0.02,-0.11,0.0,o
4095.0,3259.0,2690.0,4095.0,3511.0,2882.0,3258.0,3130.0,0.96,9.54,6.73,0.02,0.05,-0.1,0.0,o
4095.0,3266.0,2679.0,4095.0,3509.0,2887.0,3265.0,3136.0,1.14,9.55,6.71,0.02,-0.0,-0.14,0.0,o
4095.0,3233.0,2749.0,4095.0,3347.0,2805.0,3149.0,3047.0,1.56,9.47,6.59,-0.01,-0.02,-0.19,0.0,o
4095.0,3232.0,2767.0,4095.0,3356.0,2809.0,3152.0,3056.0,1.44,9.48,6.76,-0.02,-0.03,-0.2,0.0,o
4095.0,3227.0,2765.0,4095.0,3365.0,2810.0,3152.0,3056.0,1.42,9.47,6.73,-0.01,-0.03,-0.17,0.0,o
4095.0,3241.0,2768.0,4095.0,3361.0,2810.0,3152.0,3056.0,1.56,9.46,6.78,-0.03,-0.03,-0.14,0.0,o
4095.0,3227.0,2766.0,4095.0,3345.0,2800.0,3145.0,3047.0,1.67,9.47,6.9,-0.01,-0.01,-0.14,0.0,o
4095.0,3227.0,2766.0,4095.0,3339.0,2800.0,3141.0,3056.0,1.8,9.31,6.88,0.02,0.01,-0.14,0.0,o
4095.0,3231.0,2752.0,4095.0,3326.0,2781.0,3153.0,3058.0,1.58,9.5,6.9,0.19,0.13,-0.19,0.0,o
4095.0,3215.0,2739.0,4089.0,3299.0,2751.0,3127.0,3039.0,1.64,9.56,6.5,0.06,-0.02,-0.14,0.0,o
4095.0,3231.0,2742.0,4039.0,3296.0,2736.0,3095.0,3021.0,1.57,9.53,6.71,-0.01,-0.03,-0.14,0.0,o
4095.0,3211.0,2737.0,4022.0,3290.0,2734.0,3071.0,3008.0,1.58,9.53,6.58,-0.02,-0.09,-0.12,0.0,o
4095.0,3222.0,2753.0,4050.0,3287.0,2736.0,3084.0,3007.0,1.62,9.53,6.72,-0.05,0.02,-0.1,0.0,o
4095.0,3216.0,2746.0,4053.0,3290.0,2739.0,3088.0,3011.0,1.8,9.41,6.81,-0.03,0.02,-0.11,0.0,o
4095.0,3221.0,2748.0,4071.0,3293.0,2739.0,3088.0,3010.0,1.81,9.51,6.82,-0.01,-0.05,-0.15,0.0,o
4095.0,3215.0,2751.0,4083.0,3291.0,2741.0,3087.0,3009.0,1.65,9.46,6.83,-0.05,-0.01,-0.13,0.0,o
4095.0,3216.0,2765.0,4095.0,3291.0,2745.0,3088.0,3011.0,1.61,9.4,6.88,-0.01,0.04,-0.12,0.0,o
4095.0,3221.0,2750.0,4095.0,3295.0,2749.0,3102.0,3022.0,1.55,9.45,6.81,0.03,-0.01,-0.14,0.0,o
4095.0,3222.0,2754.0,4089.0,3298.0,2743.0,3089.0,3023.0,1.65,9.49,6.68,0.01,-0.03,-0.11,0.0,o
4095.0,3230.0,2743.0,4095.0,3307.0,2751.0,3089.0,3018.0,1.81,9.47,6.68,-0.02,-0.02,-0.11,0.0,o
4095.0,3219.0,2747.0,4095.0,3302.0,2754.0,3092.0,3024.0,1.82,9.45,6.85,-0.01,-0.02,-0.14,0.0,o
4095.0,3220.0,2756.0,4095.0,3306.0,2755.0,3118.0,3021.0,1.75,9.4,6.89,0.01,-0.01,-0.14,0.0,o
4095.0,2013.0,1891.0,4081.0,3270.0,2746.0,3372.0,3231.0,1.48,9.12,7.43,0.1,1.41,-0.32,0.0,o
4095.0,1069.0,1862.0,4095.0,3280.0,2749.0,3390.0,3234.0,1.22,9.08,7.71,-0.18,1.75,-0.09,0.0,o
4095.0,915.0,1833.0,4095.0,3312.0,2759.0,3404.0,3243.0,0.92,8.83,8.57,0.01,0.91,-0.19,0.0,o
4095.0,884.0,1821.0,4095.0,3327.0,2768.0,3399.0,3216.0,1.21,8.97,8.53,0.18,0.42,-0.34,0.0,o
4095.0,886.0,1817.0,4095.0,3344.0,2769.0,3403.0,3223.0,1.04,9.02,8.49,0.25,-0.03,-0.47,0.0,o
4095.0,855.0,1807.0,4095.0,3350.0,2775.0,3408.0,3226.0,0.93,9.17,8.04,0.25,-0.19,-0.44,0.0,o
4095.0,852.0,1805.0,4095.0,3362.0,2775.0,3394.0,3204.0,0.76,9.23,7.79,0.15,-0.15,-0.35,0.0,o
4095.0,877.0,1809.0,4095.0,3391.0,2785.0,3411.0,3210.0,0.79,9.14,7.87,0.14,0.05,-0.26,0.0,o
4095.0,859.0,1783.0,4095.0,3391.0,2790.0,3406.0,3199.0,0.52,9.24,7.62,0.15,0.14,-0.18,0.0,o
4095.0,846.0,1770.0,4095.0,3418.0,2793.0,3399.0,3203.0,0.57,9.26,7.64,0.07,0.05,-0.15,0.0,o
4095.0,851.0,1761.0,4095.0,3429.0,2797.0,3406.0,3211.0,0.64,9.23,7.63,0.11,0.0,-0.15,0.0,o
4095.0,848.0,1746.0,4095.0,3429.0,2798.0,3412.0,3213.0,0.81,9.27,7.68,0.06,0.05,-0.14,0.0,o
4095.0,847.0,1741.0,4095.0,3440.0,2815.0,3417.0,3216.0,0.81,9.25,7.69,0.13,0.07,-0.17,0.0,o
4095.0,855.0,1750.0,4095.0,3439.0,2800.0,3411.0,3193.0,0.73,9.34,7.43,0.04,0.0,-0.14,0.0,o
4095.0,869.0,1764.0,4085.0,3430.0,2793.0,3392.0,3173.0,0.66,9.31,7.53,0.03,0.05,-0.21,0.0,o
4095.0,865.0,1776.0,4010.0,3415.0,2768.0,3376.0,3164.0,0.66,9.28,7.51,-0.03,-0.04,-0.16,0.0,o
4095.0,854.0,1783.0,3953.0,3391.0,2743.0,3349.0,3151.0,0.58,9.29,7.75,0.0,0.04,-0.13,0.0,o
4095.0,869.0,1817.0,3884.0,3370.0,2717.0,3312.0,3136.0,0.74,9.4,7.5,-0.11,-0.05,-0.05,0.0,o
4095.0,855.0,1845.0,3847.0,3357.0,2693.0,3276.0,3088.0,0.68,9.21,7.66,-0.16,0.02,-0.03,0.0,o
4095.0,865.0,1913.0,3840.0,3336.0,2673.0,3206.0,3025.0,0.83,9.16,7.81,-0.19,-0.05,-0.04,0.0,o
4095.0,905.0,1579.0,4034.0,3283.0,2774.0,3490.0,3387.0,0.98,9.17,7.78,-0.08,-0.11,-0.17,0.0,o
4095.0,906.0,1623.0,4067.0,3291.0,2768.0,3458.0,3311.0,0.58,9.11,8.11,-0.05,0.03,-0.19,0.0,o
4095.0,893.0,1747.0,4059.0,3281.0,2735.0,3313.0,3149.0,0.52,9.03,8.17,-0.05,0.05,-0.11,0.0,o
4095.0,869.0,1866.0,4022.0,3275.0,2692.0,3205.0,3056.0,0.47,9.06,8.18,0.01,-0.01,-0.07,0.0,o
4095.0,874.0,1951.0,3966.0,3246.0,2673.0,3136.0,2997.0,0.87,9.14,8.05,0.02,0.0,-0.05,0.0,o
4095.0,883.0,2030.0,3908.0,3250.0,2667.0,3071.0,2925.0,1.08,9.23,7.98,0.02,-0.03,-0.07,0.0,o
4095.0,870.0,2089.0,3855.0,3248.0,2659.0,3037.0,2886.0,1.15,9.19,7.99,-0.08,-0.04,0.02,0.0,o
4095.0,865.0,2032.0,3863.0,3269.0,2679.0,3087.0,2928.0,0.93,8.88,8.18,0.0,0.15,-0.05,0.0,o
4095.0,865.0,1903.0,3934.0,3297.0,2705.0,3165.0,3008.0,0.95,9.03,8.17,0.05,-0.05,-0.14,0.0,o
4095.0,864.0,1757.0,3931.0,3300.0,2715.0,3216.0,3066.0,0.93,9.14,7.87,0.09,-0.18,-0.19,0.0,o
4095.0,859.0,1713.0,3984.0,3312.0,2721.0,3238.0,3101.0,1.06,9.22,7.82,0.04,-0.07,-0.2,0.0,o
4095.0,855.0,1655.0,4019.0,3316.0,2736.0,3279.0,3129.0,0.97,9.15,7.99,-0.01,-0.03,-0.15,0.0,o
4095.0,860.0,1579.0,4026.0,3331.0,2743.0,3332.0,3167.0,0.92,9.04,8.06,0.09,0.09,-0.17,0.0,o
4095.0,851.0,1534.0,4042.0,3333.0,2747.0,3358.0,3190.0,0.56,9.1,8.07,0.4,0.31,-0.07,0.0,o
4095.0,862.0,1504.0,4095.0,3360.0,2761.0,3383.0,3210.0,1.02,9.04,7.74,0.56,0.3,-0.11,0.0,o
4095.0,859.0,1456.0,4095.0,3365.0,2779.0,3412.0,3221.0,0.84,9.59,7.46,0.7,0.19,-0.22,0.0,o
4095.0,854.0,1637.0,4095.0,3361.0,2782.0,3407.0,3145.0,1.14,9.52,6.87,0.16,-0.09,-0.18,0.0,o
4095.0,859.0,1921.0,4095.0,3361.0,2779.0,3399.0,3081.0,0.79,9.73,7.04,-0.09,-0.09,-0.05,0.0,o
4095.0,860.0,2028.0,4095.0,3353.0,2760.0,3344.0,3050.0,0.76,9.33,7.2,-0.2,0.03,0.08,0.0,o
4095.0,844.0,2094.0,4056.0,3344.0,2741.0,3318.0,3035.0,0.88,9.3,7.42,-0.2,0.11,-0.0,0.0,o
4095.0,894.0,1285.0,4095.0,3222.0,2741.0,3517.0,3527.0,0.92,9.73,6.62,-0.16,0.06,0.02,0.0,o
4095.0,913.0,1504.0,4095.0,3235.0,2714.0,3426.0,3245.0,1.26,9.35,6.9,-0.32,0.02,-0.01,0.0,o
4095.0,897.0,1724.0,4095.0,3218.0,2699.0,3326.0,3094.0,1.28,9.51,7.09,-0.37,-0.05,-0.07,0.0,o
4095.0,903.0,1922.0,4013.0,3200.0,2657.0,3242.0,2990.0,1.33,9.38,7.17,-0.27,-0.09,-0.07,0.0,o
4095.0,894.0,2043.0,3867.0,3123.0,2624.0,3186.0,2928.0,1.56,9.3,7.29,-0.33,-0.07,-0.01,0.0,o
4095.0,911.0,2100.0,3837.0,3113.0,2614.0,3171.0,2938.0,1.9,9.19,7.64,-0.2,0.09,-0.13,0.0,o
4095.0,933.0,2103.0,3811.0,3107.0,2611.0,3170.0,2959.0,1.6,9.27,7.82,-0.18,0.09,-0.16,0.0,o
4095.0,937.0,2076.0,3823.0,3102.0,2618.0,3188.0,2992.0,1.39,9.14,8.0,-0.1,-0.02,-0.25,0.0,o
4095.0,988.0,1931.0,3774.0,3083.0,2630.0,3255.0,3091.0,1.1,9.03,8.15,-0.13,-0.26,-0.18,0.0,o
4095.0,1220.0,1799.0,3813.0,3099.0,2653.0,3321.0,3200.0,1.25,9.07,8.1,0.12,-0.31,-0.27,0.0,o
4095.0,1271.0,1745.0,3920.0,3147.0,2673.0,3347.0,3243.0,1.13,9.04,8.03,0.28,-0.49,-0.22,0.0,o
4095.0,1257.0,1776.0,4075.0,3191.0,2699.0,3357.0,3246.0,1.3,9.38,7.47,0.38,-0.58,-0.08,0.0,o
4095.0,1344.0,1819.0,4095.0,3223.0,2707.0,3344.0,3223.0,2.1,9.19,7.05,0.21,-0.24,-0.11,0.0,o
4095.0,1476.0,1835.0,4095.0,3230.0,2719.0,3328.0,3216.0,1.56,9.45,7.04,0.19,-0.04,-0.07,0.0,o
4095.0,1467.0,1847.0,4095.0,3245.0,2722.0,3345.0,3216.0,1.85,9.33,6.89,0.16,0.06,-0.04,0.0,o
4095.0,1476.0,1837.0,4095.0,3258.0,2735.0,3365.0,3242.0,1.79,9.51,6.98,0.12,-0.07,-0.01,0.0,o
4095.0,1429.0,1794.0,4095.0,3279.0,2746.0,3397.0,3263.0,2.46,9.24,7.08,0.17,0.06,0.11,0.0,o
4095.0,1402.0,1796.0,4095.0,3275.0,2746.0,3406.0,3281.0,2.23,9.45,7.09,0.11,0.18,-0.06,0.0,o
4095.0,1200.0,1787.0,4095.0,3274.0,2741.0,3402.0,3271.0,2.25,9.34,6.85,0.01,0.34,-0.05,0.0,o
4095.0,989.0,1777.0,4095.0,3265.0,2739.0,3415.0,3295.0,1.94,9.47,6.7,-0.35,0.62,-0.11,0.0,o
4095.0,906.0,1518.0,3946.0,3347.0,2832.0,3611.0,3613.0,1.3,9.17,7.91,-0.03,-0.25,-0.42,0.0,o
4095.0,892.0,1434.0,3987.0,3375.0,2833.0,3617.0,3663.0,1.24,9.27,7.81,0.17,-0.19,-0.39,0.0,o
4095.0,895.0,1371.0,4021.0,3371.0,2841.0,3623.0,3695.0,1.43,9.23,7.56,0.21,-0.31,-0.36,0.0,o
4095.0,895.0,1345.0,4095.0,3402.0,2857.0,3643.0,3728.0,0.9,9.52,7.52,0.26,-0.66,-0.37,0.0,o
4095.0,895.0,1342.0,4095.0,3458.0,2873.0,3679.0,3722.0,1.69,9.34,7.16,0.23,-0.8,-0.39,0.0,o
4095.0,905.0,1353.0,4095.0,3479.0,2891.0,3690.0,3711.0,0.74,9.62,7.17,0.2,-0.81,-0.31,0.0,o
4095.0,953.0,1417.0,4095.0,3482.0,2896.0,3694.0,3664.0,1.71,9.33,6.82,0.12,-0.82,-0.24,0.0,o
4095.0,1771.0,1535.0,4095.0,3446.0,2870.0,3663.0,3537.0,1.16,9.56,6.81,0.17,-0.63,-0.18,0.0,o
4095.0,2384.0,1661.0,4095.0,3395.0,2825.0,3555.0,3392.0,1.67,9.42,6.64,0.07,-0.31,-0.05,0.0,o
4095.0,2512.0,1747.0,4095.0,3342.0,2781.0,3468.0,3283.0,1.41,9.54,6.68,0.0,0.12,0.0,0.0,o
4095.0,2485.0,1850.0,4095.0,3315.0,2746.0,3376.0,3184.0,1.67,9.36,6.79,-0.07,0.21,0.08,0.0,o
4095.0,2304.0,1951.0,4095.0,3265.0,2701.0,3272.0,3087.0,1.47,9.45,6.91,-0.08,0.25,0.04,0.0,o
4095.0,1667.0,2081.0,4095.0,3245.0,2673.0,3173.0,2963.0,1.76,9.38,6.86,-0.09,0.17,0.07,0.0,o
4095.0,1023.0,2127.0,4007.0,3211.0,2635.0,3089.0,2877.0,1.95,9.32,7.09,-0.09,0.31,-0.06,0.0,o
4095.0,929.0,2123.0,3905.0,3167.0,2606.0,3008.0,2819.0,1.98,9.4,7.25,-0.1,0.1,-0.04,0.0,o
4095.0,927.0,2053.0,3843.0,3147.0,2590.0,2998.0,2801.0,2.06,9.31,7.13,-0.07,0.27,-0.13,0.0,o
4095.0,929.0,1981.0,3792.0,3121.0,2559.0,2994.0,2807.0,2.0,9.18,7.24,-0.17,0.34,-0.13,0.0,o
4095.0,942.0,1837.0,3749.0,3107.0,2580.0,3063.0,2864.0,1.57,9.28,7.44,-0.17,0.6,-0.25,0.0,o
4095.0,976.0,1603.0,3716.0,3088.0,2593.0,3120.0,2993.0,1.51,9.21,7.69,-0.15,0.26,-0.26,0.0,o
4095.0,1008.0,1247.0,3701.0,3089.0,2609.0,3184.0,3070.0,1.48,9.18,7.65,-0.08,0.41,-0.31,0.0,o
4095.0,1424.0,908.0,4095.0,3408.0,2849.0,3598.0,3646.0,0.43,9.5,6.93,0.26,-0.21,-0.38,0.0,o
4095.0,1439.0,919.0,4095.0,3423.0,2863.0,3621.0,3691.0,0.41,9.61,6.78,0.25,-0.4,-0.34,0.0,o
4095.0,1456.0,919.0,4095.0,3414.0,2853.0,3632.0,3673.0,-0.07,9.61,6.66,0.2,-0.5,-0.26,0.0,o
4095.0,2055.0,928.0,4095.0,3390.0,2853.0,3653.0,3553.0,0.71,9.65,6.38,0.07,-0.77,-0.21,0.0,o
4095.0,2432.0,960.0,4095.0,3376.0,2835.0,3614.0,3400.0,0.66,9.74,6.33,0.05,-0.39,-0.12,0.0,o
4095.0,2640.0,976.0,4095.0,3347.0,2832.0,3605.0,3344.0,0.8,9.62,6.23,-0.0,-0.22,-0.07,0.0,o
4095.0,2752.0,979.0,4095.0,3369.0,2827.0,3562.0,3231.0,0.73,9.69,6.3,-0.06,-0.03,-0.08,0.0,o
4095.0,2703.0,1009.0,4095.0,3351.0,2819.0,3504.0,3126.0,0.69,9.6,6.52,-0.1,-0.02,-0.02,0.0,o
4095.0,2670.0,1125.0,4095.0,3344.0,2799.0,3471.0,2994.0,0.82,9.62,6.52,-0.14,-0.16,0.04,0.0,o
4095.0,2649.0,1203.0,4095.0,3353.0,2807.0,3463.0,2961.0,1.01,9.46,6.82,-0.17,-0.02,0.03,0.0,o
4095.0,2624.0,1238.0,4095.0,3342.0,2795.0,3429.0,2921.0,1.09,9.51,6.82,-0.16,-0.04,0.01,0.0,o
4095.0,2593.0,1273.0,4095.0,3351.0,2790.0,3405.0,2898.0,0.9,9.26,7.15,-0.18,0.12,0.18,0.0,o
4095.0,2545.0,1279.0,4095.0,3312.0,2773.0,3379.0,2895.0,1.22,9.47,6.91,-0.31,0.2,0.12,0.0,o
4095.0,2608.0,1259.0,4095.0,3266.0,2762.0,3361.0,2910.0,1.42,9.23,7.17,-0.25,0.63,0.2,0.0,o
4095.0,2452.0,1189.0,4013.0,3243.0,2758.0,3376.0,2991.0,1.21,9.4,7.33,-0.23,0.97,0.09,0.0,o
4095.0,2221.0,1088.0,3971.0,3228.0,2757.0,3403.0,3071.0,1.55,9.17,7.65,-0.24,0.46,0.06,0.0,o
4095.0,1961.0,991.0,3952.0,3227.0,2758.0,3440.0,3169.0,1.64,9.26,7.87,-0.07,0.29,-0.15,0.0,o
4095.0,1632.0,971.0,4016.0,3225.0,2768.0,3453.0,3264.0,1.72,9.1,7.82,-0.02,0.03,-0.23,0.0,o
4095.0,1310.0,945.0,4094.0,3248.0,2775.0,3467.0,3301.0,1.3,9.21,7.78,0.1,0.14,-0.34,0.0,o
4095.0,968.0,936.0,4095.0,3242.0,2786.0,3472.0,3331.0,1.3,9.27,7.52,0.08,0.06,-0.35,0.0,o
4095.0,861.0,895.0,4095.0,3323.0,2866.0,3728.0,3599.0,0.95,9.25,7.9,0.11,-0.48,-0.24,0.0,o
4095.0,862.0,895.0,4095.0,3338.0,2852.0,3717.0,3569.0,1.06,9.32,7.76,0.15,-0.55,-0.31,0.0,o
4095.0,976.0,898.0,4095.0,3330.0,2835.0,3664.0,3457.0,0.73,9.26,7.93,0.29,-0.45,-0.34,0.0,o
4095.0,1853.0,915.0,4095.0,3317.0,2827.0,3632.0,3335.0,0.22,9.37,7.72,0.37,-0.41,-0.12,0.0,o
4095.0,2255.0,953.0,4095.0,3317.0,2819.0,3600.0,3251.0,1.13,9.24,7.34,0.31,-0.52,-0.02,0.0,o
4095.0,2321.0,958.0,4095.0,3328.0,2815.0,3547.0,3203.0,0.79,9.5,7.02,0.17,-0.29,-0.11,0.0,o
4095.0,2361.0,970.0,4095.0,3334.0,2815.0,3523.0,3165.0,1.02,9.4,6.9,0.02,-0.23,0.0,0.0,o
4095.0,2339.0,970.0,4095.0,3333.0,2834.0,3490.0,3110.0,1.14,9.49,7.08,0.0,0.15,-0.09,0.0,o
4095.0,2323.0,981.0,4095.0,3337.0,2815.0,3462.0,3034.0,1.26,9.41,7.03,-0.07,0.15,0.01,0.0,o
4095.0,2227.0,1005.0,4095.0,3344.0,2802.0,3421.0,3003.0,1.33,9.37,7.08,-0.17,0.22,-0.01,0.0,o
4095.0,2128.0,1021.0,4095.0,3325.0,2794.0,3370.0,2977.0,1.13,9.41,7.21,-0.2,0.42,0.02,0.0,o
4095.0,2035.0,1022.0,4095.0,3302.0,2778.0,3338.0,2967.0,1.46,9.18,7.45,-0.11,0.46,-0.1,0.0,o
4095.0,1938.0,1031.0,4095.0,3292.0,2757.0,3282.0,2967.0,1.06,9.51,7.53,-0.0,0.48,-0.24,0.0,o
4095.0,1904.0,1023.0,4095.0,3267.0,2736.0,3229.0,2969.0,0.91,9.31,7.54,-0.08,0.26,-0.15,0.0,o
4095.0,1904.0,1007.0,4095.0,3267.0,2737.0,3216.0,2975.0,0.96,9.23,7.67,-0.11,0.34,-0.12,0.0,o
4095.0,1939.0,1007.0,4095.0,3253.0,2736.0,3216.0,2962.0,0.83,9.21,7.72,-0.18,0.58,-0.08,0.0,o
4095.0,1891.0,997.0,4095.0,3255.0,2741.0,3243.0,3004.0,0.84,9.19,7.93,-0.11,0.65,-0.12,0.0,o
4095.0,1321.0,960.0,4062.0,3255.0,2759.0,3353.0,3095.0,0.79,9.16,8.04,-0.13,0.33,-0.23,0.0,o
4095.0,1008.0,935.0,3952.0,3229.0,2767.0,3447.0,3216.0,0.74,9.18,8.14,-0.04,-0.12,-0.33,0.0,o
4095.0,1041.0,931.0,3904.0,3216.0,2790.0,3520.0,3295.0,0.6,9.19,7.98,0.0,-0.04,-0.36,0.0,o
4095.0,855.0,3038.0,4095.0,3443.0,2901.0,3527.0,3343.0,1.09,9.21,8.0,0.02,0.0,-0.21,0.0,o
4095.0,859.0,3129.0,4095.0,3437.0,2908.0,3529.0,3374.0,0.92,9.17,7.93,0.03,-0.07,-0.19,0.0,o
4095.0,877.0,3556.0,4095.0,3423.0,2898.0,3525.0,3392.0,0.89,9.24,7.77,0.01,-0.1,-0.2,0.0,o
4095.0,853.0,3952.0,4095.0,3436.0,2907.0,3531.0,3406.0,0.97,9.07,7.88,0.06,0.01,-0.3,0.0,o
4095.0,850.0,4022.0,4095.0,3403.0,2889.0,3507.0,3383.0,0.77,9.21,7.91,0.25,0.06,-0.35,0.0,o
4095.0,848.0,4033.0,4095.0,3353.0,2855.0,3439.0,3338.0,0.56,9.41,7.69,0.23,0.05,-0.34,0.0,o
4095.0,851.0,4048.0,4095.0,3344.0,2847.0,3402.0,3265.0,-0.11,9.65,7.24,-0.09,-0.35,-0.1,0.0,o
4095.0,849.0,3974.0,4095.0,3330.0,2832.0,3393.0,3259.0,1.16,8.87,7.57,-0.34,-0.45,-0.16,0.0,o
4095.0,848.0,3994.0,4095.0,3269.0,2789.0,3324.0,3229.0,0.55,9.34,8.02,-0.19,-0.13,-0.18,0.0,o
4095.0,846.0,3965.0,4071.0,3247.0,2751.0,3280.0,3198.0,0.78,9.11,8.07,-0.17,-0.07,-0.19,0.0,o
4095.0,851.0,4001.0,4018.0,3237.0,2741.0,3262.0,3178.0,0.7,9.18,8.21,-0.1,-0.35,-0.12,0.0,o
4095.0,851.0,3989.0,4064.0,3247.0,2741.0,3255.0,3178.0,0.92,9.07,8.25,-0.03,-0.54,-0.12,0.0,o
4095.0,856.0,4016.0,4048.0,3255.0,2747.0,3262.0,3173.0,0.84,9.14,8.04,0.05,-0.57,-0.06,0.0,o
4095.0,860.0,4032.0,4095.0,3265.0,2752.0,3271.0,3174.0,1.54,9.05,8.01,0.22,-0.25,-0.13,0.0,o
4095.0,848.0,4037.0,4095.0,3271.0,2774.0,3291.0,3170.0,1.52,8.99,7.94,0.45,0.13,-0.06,0.0,o
4095.0,865.0,4051.0,4095.0,3318.0,2813.0,3335.0,3222.0,0.98,9.65,7.39,0.39,0.32,0.02,0.0,o
4095.0,858.0,4045.0,4095.0,3371.0,2871.0,3377.0,3246.0,1.21,9.15,7.3,0.09,0.36,-0.02,0.0,o
4095.0,853.0,4050.0,4095.0,3401.0,2874.0,3408.0,3265.0,1.16,9.38,7.34,0.08,0.03,-0.11,0.0,o
4095.0,850.0,4026.0,4095.0,3395.0,2875.0,3397.0,3264.0,1.46,9.09,7.64,0.3,0.36,-0.11,0.0,o
4095.0,850.0,4064.0,4095.0,3386.0,2861.0,3406.0,3271.0,1.07,9.58,7.34,0.38,0.41,-0.07,0.0,o
4095.0,860.0,4095.0,3886.0,3514.0,2906.0,3459.0,3179.0,2.1,8.89,8.23,-0.06,0.05,-0.1,0.0,o
4095.0,848.0,4095.0,3874.0,3414.0,2845.0,3375.0,3152.0,1.86,8.94,8.22,0.03,0.03,-0.2,0.0,o
4095.0,855.0,4095.0,4003.0,3405.0,2865.0,3434.0,3195.0,1.92,8.75,8.35,0.37,-0.12,-0.34,0.0,o
4095.0,852.0,4095.0,4095.0,3453.0,2926.0,3535.0,3294.0,1.86,9.08,7.77,0.41,-0.29,-0.56,0.0,o
4095.0,858.0,4081.0,4095.0,3471.0,2960.0,3632.0,3393.0,1.53,9.37,7.58,0.26,-0.37,-0.56,0.0,o
4095.0,858.0,3985.0,4095.0,3423.0,2953.0,3650.0,3440.0,1.9,9.11,7.69,0.1,-0.24,-0.54,0.0,o
4095.0,851.0,3959.0,4095.0,3411.0,2944.0,3664.0,3470.0,1.58,9.2,7.92,0.2,-0.15,-0.49,0.0,o
4095.0,848.0,3984.0,4095.0,3419.0,2942.0,3657.0,3471.0,1.21,9.47,7.71,0.25,-0.09,-0.4,0.0,o
4095.0,851.0,3981.0,4095.0,3415.0,2931.0,3635.0,3456.0,1.16,9.3,7.37,0.17,-0.06,-0.24,0.0,o
4095.0,849.0,4003.0,4095.0,3435.0,2929.0,3649.0,3443.0,0.92,9.43,7.11,0.15,-0.18,-0.2,0.0,o
4095.0,841.0,4009.0,4095.0,3431.0,2935.0,3632.0,3441.0,1.16,9.35,6.91,0.09,-0.16,-0.18,0.0,o
4095.0,846.0,4029.0,4095.0,3440.0,2945.0,3623.0,3426.0,1.0,9.48,6.8,0.06,0.01,-0.14,0.0,o
4095.0,866.0,4030.0,4095.0,3434.0,2928.0,3614.0,3407.0,1.26,9.46,6.86,-0.11,-0.06,-0.05,0.0,o
4095.0,855.0,4028.0,4095.0,3440.0,2928.0,3631.0,3423.0,1.4,9.41,7.39,-0.04,-0.01,-0.17,0.0,o
4095.0,851.0,4017.0,4095.0,3441.0,2931.0,3632.0,3431.0,1.52,9.33,7.38,-0.02,-0.05,-0.18,0.0,o
4095.0,848.0,4047.0,4095.0,3465.0,2937.0,3634.0,3434.0,1.29,9.35,7.53,0.02,0.03,-0.2,0.0,o
4095.0,850.0,4013.0,4095.0,3440.0,2932.0,3632.0,3431.0,1.17,9.3,7.53,0.1,0.01,-0.19,0.0,o
4095.0,846.0,4032.0,4095.0,3434.0,2935.0,3634.0,3440.0,1.18,9.33,7.35,0.17,0.04,-0.22,0.0,o
4095.0,842.0,4015.0,4095.0,3428.0,2921.0,3623.0,3433.0,1.08,9.39,6.89,0.26,0.01,-0.26,0.0,o
4095.0,851.0,4041.0,4095.0,3382.0,2899.0,3627.0,3431.0,1.03,9.56,6.73,0.23,0.03,-0.26,0.0,o
4095.0,951.0,4095.0,4095.0,3435.0,2895.0,3600.0,3227.0,2.89,9.67,4.09,0.03,-0.04,-0.21,0.0,o
4095.0,951.0,4095.0,4095.0,3435.0,2895.0,3600.0,3227.0,2.89,9.67,4.09,0.03,-0.04,-0.21,0.0,o
4095.0,951.0,4095.0,4095.0,3438.0,2894.0,3598.0,3221.0,2.49,9.59,4.48,0.04,-0.03,-0.24,0.0,o
4095.0,947.0,4095.0,4095.0,3437.0,2893.0,3579.0,3226.0,2.0,9.65,4.34,0.21,-0.56,-0.23,0.0,o
4095.0,962.0,4095.0,4095.0,3429.0,2886.0,3567.0,3207.0,1.3,9.84,4.05,0.13,-1.52,0.08,0.0,o
4095.0,990.0,4095.0,4095.0,3431.0,2885.0,3565.0,3196.0,2.81,9.66,3.25,-0.02,-3.14,0.34,0.0,o
4095.0,994.0,4095.0,4095.0,3440.0,2895.0,3570.0,3194.0,3.91,9.29,2.95,-0.16,-1.79,-0.16,0.0,o
4095.0,989.0,4095.0,4095.0,3433.0,2895.0,3575.0,3187.0,2.84,9.65,2.97,0.05,-1.04,-0.21,0.0,o
4095.0,988.0,4095.0,4095.0,3431.0,2898.0,3568.0,3187.0,3.04,9.47,2.64,-0.01,-0.38,-0.2,0.0,o
4095.0,990.0,4095.0,4095.0,3437.0,2906.0,3583.0,3201.0,2.48,9.56,2.76,0.03,0.26,-0.24,0.0,o
4095.0,1065.0,4070.0,4095.0,3419.0,2918.0,3636.0,3226.0,2.29,9.58,2.72,-0.06,0.33,-0.18,0.0,o
4095.0,1213.0,3968.0,4095.0,3437.0,2929.0,3673.0,3275.0,2.44,9.58,2.96,-0.05,0.33,-0.21,0.0,o
4095.0,1280.0,3952.0,4095.0,3434.0,2933.0,3699.0,3314.0,2.97,9.5,3.07,-0.09,0.47,-0.33,0.0,o
4095.0,1287.0,3931.0,4095.0,3439.0,2933.0,3700.0,3325.0,2.38,9.68,3.51,-0.07,0.96,-0.44,0.0,o
4095.0,1301.0,3982.0,4095.0,3418.0,2909.0,3663.0,3312.0,1.97,9.58,3.46,0.0,0.7,-0.46,0.0,o
4095.0,1385.0,3984.0,3951.0,3405.0,2882.0,3633.0,3313.0,1.72,9.83,3.53,-0.13,0.63,-0.3,0.0,o
4095.0,1569.0,3954.0,3846.0,3363.0,2849.0,3583.0,3310.0,1.93,9.62,3.95,-0.24,0.07,-0.1,0.0,o
4095.0,1644.0,3965.0,3793.0,3339.0,2833.0,3614.0,3328.0,2.05,9.83,4.0,-0.2,-0.03,-0.14,0.0,o
4095.0,1802.0,3977.0,3702.0,3312.0,2800.0,3549.0,3319.0,2.33,9.61,3.98,-0.12,-0.24,-0.22,0.0,o
4095.0,1943.0,4048.0,3738.0,3308.0,2768.0,3456.0,3258.0,2.14,9.72,4.01,0.01,-0.13,-0.31,0.0,o
4095.0,2133.0,4095.0,4095.0,3568.0,2990.0,3648.0,3197.0,1.16,9.84,4.29,0.02,-0.04,-0.15,0.0,o
4095.0,2120.0,4095.0,4095.0,3551.0,2991.0,3637.0,3183.0,1.36,9.9,4.34,-0.06,-0.07,-0.09,0.0,o
4095.0,2118.0,4095.0,4095.0,3564.0,2988.0,3648.0,3201.0,1.54,9.72,4.53,-0.05,0.26,-0.05,0.0,o
4095.0,2021.0,4095.0,4095.0,3537.0,2976.0,3635.0,3227.0,1.75,9.86,4.54,-0.08,0.52,-0.14,0.0,o
4095.0,1840.0,4095.0,4095.0,3498.0,2947.0,3582.0,3202.0,1.06,9.8,4.88,-0.05,0.49,-0.21,0.0,o
4095.0,1758.0,4095.0,4095.0,3458.0,2896.0,3457.0,3099.0,0.45,9.94,5.17,0.05,-0.19,-0.1,0.0,o
4095.0,1715.0,4095.0,4095.0,3386.0,2830.0,3377.0,3003.0,1.81,9.76,4.66,0.03,-0.98,-0.11,0.0,o
4095.0,2183.0,4095.0,4095.0,3344.0,2801.0,3376.0,2955.0,1.55,9.83,4.47,-0.0,-0.36,-0.17,0.0,o
4095.0,2626.0,4095.0,3985.0,3290.0,2775.0,3366.0,2943.0,1.61,9.85,4.35,-0.08,-0.04,-0.14,0.0,o
4095.0,2679.0,4095.0,3938.0,3306.0,2781.0,3375.0,2965.0,1.62,9.83,4.37,-0.12,0.54,-0.14,0.0,o
4095.0,2754.0,4095.0,4017.0,3340.0,2815.0,3447.0,3042.0,1.55,9.78,4.61,-0.21,0.76,-0.12,0.0,o
4095.0,2653.0,4095.0,4095.0,3351.0,2841.0,3552.0,3157.0,1.13,9.75,5.23,-0.1,0.61,-0.15,0.0,o
4095.0,2301.0,3942.0,4095.0,3392.0,2906.0,3649.0,3274.0,1.44,9.84,5.4,0.04,0.0,-0.21,0.0,o
4095.0,1973.0,3920.0,4095.0,3425.0,2935.0,3690.0,3338.0,1.51,9.85,5.28,0.12,-0.12,-0.25,0.0,o
4095.0,1929.0,3970.0,4095.0,3445.0,2949.0,3663.0,3298.0,1.14,9.96,5.07,0.13,-0.21,-0.23,0.0,o
4095.0,1905.0,4091.0,4095.0,3478.0,2954.0,3605.0,3204.0,1.12,9.79,4.97,0.09,-0.15,-0.1,0.0,o
4095.0,2090.0,4095.0,4095.0,3483.0,2928.0,3583.0,3183.0,1.37,9.73,4.62,0.03,-0.05,-0.14,0.0,o
4095.0,2214.0,4095.0,4095.0,3472.0,2918.0,3579.0,3193.0,1.23,9.92,4.6,0.02,0.1,-0.13,0.0,o
4095.0,2326.0,4095.0,4095.0,3439.0,2890.0,3568.0,3218.0,1.12,9.84,4.75,0.07,0.19,-0.14,0.0,o
4095.0,2342.0,4095.0,4095.0,3434.0,2897.0,3583.0,3234.0,1.17,9.97,4.85,0.02,-0.03,-0.14,0.0,o
4095.0,4095.0,905.0,4095.0,3752.0,3046.0,3404.0,3303.0,2.61,9.08,7.41,-0.0,0.16,-0.08,0.0,o
4095.0,4095.0,896.0,4095.0,3634.0,2965.0,3331.0,3216.0,2.68,8.93,7.71,-0.05,0.11,-0.01,0.0,o
4095.0,4095.0,911.0,4078.0,3526.0,2861.0,3264.0,3183.0,2.94,8.98,7.83,-0.15,0.04,-0.17,0.0,o
4095.0,4095.0,907.0,3910.0,3470.0,2810.0,3197.0,3160.0,2.85,8.88,7.99,-0.19,-0.15,-0.19,0.0,o
4095.0,4095.0,918.0,3809.0,3450.0,2782.0,3167.0,3143.0,2.34,8.98,8.05,-0.08,-0.17,-0.16,0.0,o
4095.0,4095.0,894.0,3802.0,3451.0,2785.0,3173.0,3134.0,3.0,8.69,7.96,-0.04,-0.2,-0.21,0.0,o
4095.0,4095.0,903.0,3781.0,3472.0,2800.0,3203.0,3159.0,2.62,8.77,7.95,0.02,-0.01,-0.16,0.0,o
4095.0,4095.0,905.0,3826.0,3503.0,2830.0,3263.0,3196.0,2.62,9.14,7.8,0.19,0.01,-0.17,0.0,o
4095.0,4095.0,908.0,3827.0,3520.0,2845.0,3275.0,3199.0,2.8,8.87,7.53,0.02,-0.14,-0.13,0.0,o
4095.0,4095.0,901.0,3926.0,3568.0,2853.0,3278.0,3188.0,2.66,8.8,8.08,0.13,-0.19,-0.22,0.0,o
4095.0,4095.0,896.0,4095.0,3675.0,2905.0,3303.0,3178.0,2.88,8.91,7.74,0.4,-0.4,-0.29,0.0,o
4095.0,4095.0,903.0,4095.0,3756.0,2992.0,3357.0,3178.0,2.9,9.22,7.24,0.48,-0.33,-0.32,0.0,o
4095.0,4095.0,901.0,4095.0,3786.0,3023.0,3424.0,3260.0,2.87,9.04,7.0,0.59,0.14,-0.27,0.0,o
4095.0,4095.0,903.0,4095.0,3814.0,3055.0,3451.0,3299.0,2.67,9.24,6.95,0.61,0.27,-0.37,0.0,o
4095.0,4095.0,911.0,4095.0,3834.0,3063.0,3456.0,3303.0,2.08,9.53,6.56,0.4,0.34,-0.26,0.0,o
4095.0,4095.0,903.0,4095.0,3806.0,3027.0,3387.0,3250.0,2.22,9.65,5.82,-0.09,0.08,-0.14,0.0,o
4095.0,4095.0,896.0,4095.0,3664.0,2925.0,3251.0,3131.0,2.33,9.34,6.31,-0.42,0.23,-0.01,0.0,o
4095.0,4095.0,919.0,4095.0,3569.0,2864.0,3191.0,3088.0,2.49,9.16,7.02,-0.27,0.05,-0.06,0.0,o
4095.0,4095.0,908.0,4094.0,3543.0,2858.0,3156.0,3069.0,2.27,9.28,7.2,-0.1,-0.07,-0.05,0.0,o
4095.0,4095.0,900.0,4095.0,3599.0,2883.0,3190.0,3086.0,2.42,9.03,7.29,0.09,-0.12,-0.18,0.0,o
4095.0,4095.0,926.0,4095.0,3506.0,2915.0,3429.0,3344.0,2.48,9.43,6.27,-0.14,0.14,-0.11,0.0,o
4095.0,4095.0,917.0,4095.0,3503.0,2926.0,3443.0,3431.0,2.82,9.29,6.38,-0.2,0.11,-0.14,0.0,o
4095.0,4095.0,912.0,4095.0,3504.0,2920.0,3449.0,3447.0,2.49,9.48,6.4,-0.14,0.26,-0.12,0.0,o
4095.0,4095.0,912.0,4095.0,3479.0,2916.0,3447.0,3447.0,2.69,9.33,6.45,-0.15,0.27,-0.13,0.0,o
4095.0,4095.0,931.0,4095.0,3469.0,2894.0,3430.0,3374.0,2.52,9.5,6.48,-0.11,0.42,-0.16,0.0,o
4095.0,4095.0,922.0,4095.0,3455.0,2871.0,3407.0,3264.0,2.58,9.48,6.62,-0.21,0.26,-0.05,0.0,o
4095.0,4095.0,930.0,4095.0,3426.0,2834.0,3326.0,3189.0,2.55,9.42,6.84,-0.36,0.22,-0.15,0.0,o
4095.0,4095.0,939.0,4066.0,3419.0,2826.0,3296.0,3171.0,2.39,9.13,6.96,-0.53,-0.09,-0.11,0.0,o
4095.0,4095.0,930.0,4023.0,3419.0,2815.0,3326.0,3227.0,2.42,8.94,7.4,-0.39,0.02,-0.19,0.0,o
4095.0,4095.0,933.0,4082.0,3425.0,2835.0,3360.0,3311.0,2.13,8.97,7.73,-0.02,0.13,-0.22,0.0,o
4095.0,4095.0,917.0,4095.0,3436.0,2862.0,3385.0,3335.0,2.36,8.94,7.75,0.23,0.12,-0.22,0.0,o
4095.0,4095.0,927.0,4095.0,3457.0,2879.0,3396.0,3350.0,2.25,9.16,7.71,0.39,0.12,-0.19,0.0,o
4095.0,4095.0,912.0,4095.0,3467.0,2890.0,3385.0,3346.0,2.25,9.28,7.3,0.29,-0.07,-0.12,0.0,o
4095.0,4095.0,923.0,4095.0,3461.0,2887.0,3395.0,3333.0,2.53,9.36,7.04,0.06,-0.14,-0.11,0.0,o
4095.0,4095.0,921.0,4095.0,3472.0,2895.0,3405.0,3339.0,2.38,9.27,7.09,-0.0,0.09,-0.08,0.0,o
4095.0,4095.0,918.0,4095.0,3472.0,2895.0,3401.0,3333.0,2.48,9.13,6.94,0.04,-0.02,-0.13,0.0,o
4095.0,4095.0,919.0,4095.0,3459.0,2890.0,3392.0,3324.0,2.59,9.25,7.04,-0.02,-0.01,-0.13,0.0,o
4095.0,4095.0,915.0,4095.0,3478.0,2896.0,3407.0,3325.0,2.63,9.31,7.2,0.04,-0.09,-0.21,0.0,o
4095.0,4095.0,931.0,4095.0,3473.0,2896.0,3399.0,3343.0,2.22,9.22,7.42,0.14,-0.18,-0.21,0.0,o
4095.0,4095.0,935.0,4095.0,3466.0,2882.0,3393.0,3289.0,2.22,9.36,6.85,0.15,-0.36,-0.1,0.0,o
4095.0,4095.0,927.0,4095.0,3344.0,2826.0,3355.0,3290.0,2.41,9.45,5.93,0.24,-0.08,-0.16,0.0,o
4095.0,4095.0,927.0,4095.0,3344.0,2826.0,3355.0,3290.0,2.41,9.45,5.93,0.24,-0.08,-0.16,0.0,o
4095.0,4095.0,939.0,4095.0,3351.0,2830.0,3370.0,3297.0,2.21,9.46,5.88,0.11,0.2,-0.12,0.0,o
4095.0,4095.0,931.0,4095.0,3355.0,2834.0,3377.0,3306.0,2.46,9.44,5.87,0.01,-0.04,-0.12,0.0,o
4095.0,4095.0,940.0,4095.0,3365.0,2832.0,3374.0,3303.0,2.92,9.46,5.97,-0.13,-0.16,-0.12,0.0,o
4095.0,4095.0,927.0,4095.0,3362.0,2832.0,3374.0,3300.0,3.09,9.38,6.75,-0.15,-0.17,-0.19,0.0,o
4095.0,4095.0,934.0,4095.0,3358.0,2833.0,3381.0,3303.0,2.77,9.17,7.14,-0.03,-0.03,-0.22,0.0,o
4095.0,4095.0,939.0,4095.0,3370.0,2838.0,3376.0,3303.0,2.1,9.22,6.88,0.05,0.05,-0.16,0.0,o
4095.0,4095.0,928.0,4095.0,3365.0,2834.0,3378.0,3303.0,2.15,9.26,6.71,0.07,0.11,-0.02,0.0,o
4095.0,4095.0,939.0,4095.0,3350.0,2832.0,3376.0,3295.0,2.47,9.39,6.89,0.2,-0.58,-0.05,0.0,o
4095.0,4095.0,934.0,4095.0,3351.0,2832.0,3377.0,3289.0,3.38,9.36,6.22,0.32,-1.5,-0.37,0.0,o
4095.0,4095.0,931.0,4095.0,3353.0,2833.0,3376.0,3254.0,2.96,9.49,5.35,0.34,-1.48,-0.51,0.0,o
4095.0,4095.0,935.0,4095.0,3337.0,2832.0,3375.0,3231.0,2.68,9.57,4.96,0.19,-0.26,-0.39,0.0,o
4095.0,4095.0,933.0,4095.0,3312.0,2831.0,3349.0,3231.0,2.34,9.62,4.95,0.05,0.69,-0.16,0.0,o
4095.0,4095.0,934.0,4095.0,3315.0,2827.0,3369.0,3248.0,1.75,9.45,5.92,0.06,0.19,-0.06,0.0,o
4095.0,4095.0,942.0,4095.0,3327.0,2833.0,3377.0,3247.0,3.4,9.23,5.81,0.35,-1.64,-0.29,0.0,o
4095.0,4095.0,938.0,4095.0,3328.0,2821.0,3377.0,3248.0,4.71,9.5,4.05,0.26,-0.14,-0.5,0.0,o
4095.0,4095.0,938.0,4095.0,3331.0,2821.0,3370.0,3218.0,1.13,10.03,4.55,-0.03,2.28,-0.22,0.0,o
4095.0,4095.0,933.0,4095.0,3328.0,2821.0,3363.0,3238.0,1.57,9.72,5.37,-0.08,0.71,0.13,0.0,o
4095.0,4095.0,944.0,4095.0,3334.0,2828.0,3365.0,3229.0,2.49,9.31,6.27,-0.09,-0.62,-0.12,0.0,o
4095.0,4095.0,934.0,4095.0,3424.0,2911.0,3503.0,3344.0,1.98,9.5,6.34,0.11,-0.51,-0.11,0.0,o
4095.0,4095.0,932.0,4095.0,3440.0,2914.0,3523.0,3343.0,2.77,9.58,5.88,-0.09,-1.2,-0.12,0.0,o
4095.0,4095.0,935.0,4095.0,3437.0,2906.0,3507.0,3333.0,3.05,9.37,6.17,-0.15,-0.8,-0.26,0.0,o
4095.0,4095.0,931.0,4095.0,3448.0,2910.0,3509.0,3327.0,2.86,9.33,6.07,0.06,-0.3,-0.23,0.0,o
4095.0,4095.0,939.0,4095.0,3470.0,2915.0,3506.0,3327.0,2.62,9.45,5.74,0.07,-0.07,-0.21,0.0,o
4095.0,4095.0,914.0,4095.0,3472.0,2918.0,3501.0,3325.0,2.86,9.47,5.69,-0.06,0.29,-0.16,0.0,o
4095.0,4095.0,930.0,4095.0,3506.0,2933.0,3520.0,3329.0,2.62,9.45,5.85,-0.15,0.7,-0.1,0.0,o
4095.0,4095.0,931.0,4095.0,3510.0,2941.0,3510.0,3324.0,2.61,9.46,6.05,-0.25,0.89,-0.09,0.0,o
4095.0,4095.0,933.0,4095.0,3513.0,2941.0,3521.0,3328.0,2.2,9.39,6.7,-0.35,0.74,-0.13,0.0,o
4095.0,4095.0,929.0,4095.0,3536.0,2951.0,3527.0,3350.0,2.21,9.33,6.69,-0.28,-0.05,-0.2,0.0,o
4095.0,4095.0,935.0,4095.0,3529.0,2945.0,3529.0,3345.0,2.64,9.32,7.01,-0.44,-0.2,-0.34,0.0,o
4095.0,4095.0,929.0,4095.0,3520.0,2954.0,3534.0,3349.0,2.31,9.01,7.74,-0.49,-0.37,-0.35,0.0,o
4095.0,4095.0,943.0,4095.0,3514.0,2932.0,3495.0,3315.0,2.22,8.95,7.74,-0.47,-0.25,-0.31,0.0,o
4095.0,4095.0,931.0,4095.0,3443.0,2867.0,3404.0,3255.0,2.09,8.4,8.01,-0.01,0.04,-0.35,0.0,o
4095.0,4095.0,941.0,3721.0,3271.0,2719.0,3201.0,3191.0,1.29,9.36,7.8,0.43,0.51,-0.27,0.0,o
4095.0,4095.0,946.0,3583.0,3244.0,2662.0,3115.0,3145.0,1.92,9.25,6.96,0.2,0.03,-0.16,0.0,o
4095.0,4095.0,948.0,3555.0,3239.0,2643.0,3099.0,3136.0,2.15,9.38,6.83,0.0,-0.2,0.01,0.0,o
4095.0,4095.0,947.0,3619.0,3262.0,2657.0,3105.0,3120.0,2.47,9.29,7.25,-0.13,-0.12,-0.04,0.0,o
4095.0,4095.0,946.0,3730.0,3316.0,2710.0,3158.0,3168.0,2.04,9.19,7.41,0.05,0.04,-0.1,0.0,o
4095.0,4095.0,935.0,4095.0,3430.0,2790.0,3257.0,3247.0,2.37,9.15,7.32,0.18,0.12,-0.17,0.0,o
4095.0,4095.0,944.0,4095.0,3625.0,2965.0,3403.0,3210.0,2.09,9.22,7.15,-0.04,0.06,-0.11,0.0,o
4095.0,4095.0,960.0,4095.0,3599.0,2953.0,3387.0,3200.0,2.28,9.18,7.57,-0.1,0.22,-0.04,0.0,o
4095.0,4095.0,957.0,4095.0,3600.0,2949.0,3389.0,3207.0,2.03,8.99,8.08,0.04,0.5,-0.02,0.0,o
4095.0,4095.0,944.0,4095.0,3583.0,2945.0,3397.0,3207.0,1.7,9.14,7.68,0.26,0.05,-0.07,0.0,o
4095.0,4095.0,955.0,4095.0,3601.0,2954.0,3403.0,3214.0,2.17,9.41,6.72,0.3,-0.2,-0.11,0.0,o
4095.0,4095.0,962.0,4095.0,3597.0,2949.0,3393.0,3210.0,2.55,9.32,6.7,0.15,-0.12,-0.12,0.0,o
4095.0,4095.0,960.0,4095.0,3612.0,2951.0,3404.0,3203.0,2.53,9.62,6.52,0.15,-0.1,-0.13,0.0,o
4095.0,4095.0,951.0,4095.0,3634.0,2960.0,3413.0,3216.0,2.33,9.4,6.24,0.16,-0.07,-0.24,0.0,o
4095.0,4095.0,955.0,4095.0,3631.0,2969.0,3410.0,3218.0,1.52,9.6,6.14,0.02,-0.15,-0.19,0.0,o
4095.0,4095.0,955.0,4095.0,3643.0,2971.0,3418.0,3222.0,1.9,9.46,5.84,-0.08,-0.2,-0.11,0.0,o
4095.0,4095.0,963.0,4095.0,3628.0,2971.0,3414.0,3216.0,2.34,9.42,6.29,-0.35,-0.2,-0.04,0.0,o
4095.0,4095.0,959.0,4095.0,3634.0,2976.0,3435.0,3217.0,3.35,9.21,7.25,-0.46,-0.17,-0.06,0.0,o
4095.0,4095.0,966.0,4095.0,3652.0,2969.0,3430.0,3210.0,3.07,8.92,8.25,-0.4,-0.06,-0.14,0.0,o
4095.0,4095.0,954.0,4095.0,3632.0,2970.0,3421.0,3216.0,2.64,8.94,8.11,-0.15,-0.12,-0.22,0.0,o
4095.0,4095.0,962.0,4095.0,3647.0,2989.0,3420.0,3218.0,2.21,8.88,8.04,-0.09,0.02,-0.2,0.0,o
4095.0,4095.0,954.0,4095.0,3643.0,2977.0,3425.0,3226.0,2.5,8.96,7.83,-0.04,0.06,-0.15,0.0,o
4095.0,4095.0,961.0,4095.0,3647.0,2976.0,3431.0,3227.0,2.43,9.08,7.84,-0.01,0.19,-0.16,0.0,o
4095.0,4095.0,959.0,4095.0,3650.0,2978.0,3430.0,3220.0,2.39,9.05,7.64,0.08,0.06,-0.19,0.0,o
4095.0,4095.0,965.0,4095.0,3661.0,2970.0,3419.0,3218.0,2.31,9.15,7.41,0.03,0.03,-0.18,0.0,o
4095.0,4095.0,959.0,4095.0,3649.0,2981.0,3427.0,3227.0,2.11,9.15,7.48,0.02,0.06,-0.16,0.0,o
4095.0,4095.0,989.0,4095.0,3536.0,2895.0,3356.0,3116.0,2.16,9.17,7.5,-0.0,-0.01,-0.15,0.0,o
4095.0,4095.0,987.0,4095.0,3531.0,2897.0,3362.0,3116.0,2.26,9.16,7.39,-0.02,-0.05,-0.13,0.0,o
4095.0,4095.0,991.0,4095.0,3533.0,2894.0,3360.0,3115.0,2.46,9.16,7.53,-0.06,-0.02,-0.16,0.0,o
4095.0,4095.0,992.0,4095.0,3529.0,2890.0,3355.0,3104.0,2.25,9.11,7.61,-0.02,0.01,-0.19,0.0,o
4095.0,4095.0,978.0,4095.0,3539.0,2895.0,3366.0,3120.0,2.02,9.08,7.72,-0.03,-0.01,-0.19,0.0,o
4095.0,4095.0,989.0,4095.0,3536.0,2896.0,3350.0,3118.0,1.98,9.0,7.71,-0.04,-0.04,-0.16,0.0,o
4095.0,4095.0,986.0,4095.0,3526.0,2892.0,3351.0,3119.0,1.96,9.03,7.86,-0.01,0.02,-0.12,0.0,o
4095.0,4095.0,991.0,4095.0,3536.0,2899.0,3367.0,3117.0,2.07,9.17,7.4,-0.0,-0.02,-0.1,0.0,o
4095.0,4095.0,992.0,4095.0,3540.0,2896.0,3366.0,3115.0,2.3,9.15,7.67,-0.12,0.03,-0.03,0.0,o
4095.0,4095.0,993.0,4095.0,3536.0,2895.0,3354.0,3104.0,2.42,9.02,7.84,-0.07,0.07,-0.12,0.0,o
4095.0,4095.0,981.0,4095.0,3542.0,2911.0,3354.0,3106.0,2.15,8.98,7.93,-0.05,-0.0,-0.13,0.0,o
4095.0,4095.0,985.0,4095.0,3517.0,2896.0,3366.0,3118.0,2.15,9.0,7.89,-0.04,-0.02,-0.15,0.0,o
4095.0,4095.0,983.0,4095.0,3486.0,2881.0,3360.0,3107.0,2.44,8.87,8.01,-0.09,0.07,-0.11,0.0,o
4095.0,4095.0,980.0,4095.0,3481.0,2880.0,3374.0,3118.0,2.46,8.92,8.21,-0.09,0.18,-0.11,0.0,o
4095.0,4095.0,976.0,4095.0,3450.0,2870.0,3376.0,3149.0,2.49,8.97,8.08,-0.01,0.16,-0.17,0.0,o
4095.0,4095.0,976.0,4095.0,3443.0,2867.0,3380.0,3165.0,2.07,9.01,8.03,0.02,0.06,-0.17,0.0,o
4095.0,4095.0,979.0,4095.0,3451.0,2877.0,3403.0,3175.0,2.04,8.89,8.2,0.01,-0.01,-0.2,0.0,o
4095.0,4095.0,974.0,4095.0,3451.0,2882.0,3399.0,3196.0,1.92,8.98,8.01,0.03,-0.15,-0.18,0.0,o
4095.0,4095.0,985.0,4095.0,3466.0,2885.0,3396.0,3203.0,2.2,8.92,8.06,-0.01,-0.09,-0.12,0.0,o
4095.0,4095.0,976.0,4095.0,3472.0,2891.0,3407.0,3207.0,2.55,8.89,8.12,-0.02,0.05,-0.1,0.0,o
4095.0,4095.0,997.0,4055.0,3456.0,2798.0,3145.0,2951.0,1.88,9.31,7.08,-0.14,0.11,-0.09,0.0,o
4095.0,4095.0,1007.0,3905.0,3403.0,2752.0,3099.0,2940.0,1.86,9.31,7.21,-0.14,0.05,-0.11,0.0,o
4095.0,4095.0,1007.0,3743.0,3361.0,2720.0,3102.0,2960.0,1.93,9.21,7.25,-0.2,0.01,-0.1,0.0,o
4095.0,4095.0,982.0,3706.0,3342.0,2726.0,3137.0,3043.0,1.9,9.21,7.5,-0.14,0.14,-0.15,0.0,o
4095.0,4095.0,973.0,3679.0,3355.0,2761.0,3234.0,3153.0,1.89,9.27,7.55,0.01,-0.02,-0.19,0.0,o
4095.0,4095.0,951.0,3841.0,3392.0,2823.0,3342.0,3248.0,1.96,9.17,7.54,0.05,0.01,-0.26,0.0,o
4095.0,4095.0,945.0,4095.0,3458.0,2915.0,3463.0,3349.0,1.69,9.22,7.54,0.2,-0.05,-0.33,0.0,o
4095.0,4095.0,950.0,4095.0,3519.0,2984.0,3548.0,3431.0,1.73,9.42,7.19,0.19,-0.05,-0.27,0.0,o
4095.0,4095.0,945.0,4095.0,3533.0,3013.0,3569.0,3437.0,1.54,9.44,7.14,0.14,0.06,-0.18,0.0,o
4095.0,4095.0,941.0,4095.0,3551.0,3019.0,3581.0,3429.0,1.36,9.42,7.12,0.09,0.02,-0.04,0.0,o
4095.0,4095.0,944.0,4095.0,3555.0,3015.0,3568.0,3409.0,1.81,9.25,7.12,-0.06,0.03,-0.05,0.0,o
4095.0,4095.0,931.0,4095.0,3565.0,3019.0,3579.0,3417.0,1.84,9.36,7.33,-0.0,-0.07,-0.13,0.0,o
4095.0,4095.0,944.0,4095.0,3567.0,3010.0,3568.0,3401.0,1.91,9.4,7.1,-0.02,-0.05,-0.13,0.0,o
4095.0,4095.0,944.0,4095.0,3562.0,3009.0,3563.0,3398.0,1.77,9.27,7.55,-0.06,0.02,-0.13,0.0,o
4095.0,4095.0,945.0,4095.0,3567.0,3011.0,3563.0,3394.0,1.67,9.16,7.63,0.05,0.03,-0.13,0.0,o
4095.0,4095.0,946.0,4095.0,3568.0,3007.0,3559.0,3390.0,1.65,9.27,7.39,0.06,0.05,-0.09,0.0,o
4095.0,4095.0,955.0,4095.0,3550.0,2997.0,3535.0,3359.0,1.78,9.29,7.17,0.11,0.07,-0.06,0.0,o
4095.0,4095.0,945.0,4095.0,3506.0,2965.0,3500.0,3326.0,1.88,9.36,7.12,0.1,0.05,-0.03,0.0,o
4095.0,4095.0,960.0,4095.0,3456.0,2912.0,3441.0,3283.0,1.94,9.35,7.0,0.1,0.05,-0.18,0.0,o
4095.0,4095.0,958.0,4049.0,3349.0,2832.0,3375.0,3257.0,1.84,9.45,6.94,0.05,0.02,-0.21,0.0,o
4095.0,4095.0,1104.0,4095.0,3431.0,2800.0,3190.0,3031.0,2.72,8.69,8.55,0.04,-0.19,-0.16,0.0,o
4095.0,4095.0,1090.0,4095.0,3440.0,2811.0,3221.0,3061.0,2.72,9.0,8.07,0.12,-0.04,-0.09,0.0,o
4095.0,4095.0,1092.0,4095.0,3439.0,2816.0,3246.0,3086.0,2.57,9.08,7.37,0.13,0.15,0.03,0.0,o
4095.0,4095.0,1109.0,3951.0,3318.0,2741.0,3171.0,3058.0,2.09,9.55,6.72,-0.1,0.21,0.12,0.0,o
4095.0,4095.0,1155.0,3803.0,3242.0,2677.0,3083.0,2983.0,2.32,9.24,6.93,-0.26,0.09,0.09,0.0,o
4095.0,4095.0,1167.0,3756.0,3222.0,2655.0,3046.0,2965.0,2.31,8.97,7.69,-0.17,0.12,-0.09,0.0,o
4095.0,4095.0,1157.0,3853.0,3264.0,2689.0,3088.0,2997.0,2.42,8.82,8.12,0.02,-0.08,-0.22,0.0,o
4095.0,4095.0,1120.0,4021.0,3322.0,2736.0,3155.0,3066.0,2.48,8.84,8.03,0.09,-0.31,-0.24,0.0,o
4095.0,4095.0,1089.0,4095.0,3349.0,2767.0,3184.0,3083.0,2.7,9.08,7.76,0.13,-0.26,-0.26,0.0,o
4095.0,4095.0,1106.0,4074.0,3351.0,2771.0,3186.0,3086.0,2.8,9.11,7.38,0.02,0.04,-0.16,0.0,o
4095.0,4095.0,1108.0,3945.0,3335.0,2761.0,3187.0,3088.0,2.14,9.23,7.26,-0.03,0.08,-0.09,0.0,o
4095.0,4095.0,1110.0,3945.0,3333.0,2758.0,3170.0,3071.0,2.01,8.92,7.7,-0.13,0.05,0.03,0.0,o
4095.0,4095.0,1111.0,3983.0,3341.0,2759.0,3183.0,3081.0,2.51,8.84,8.12,-0.02,-0.06,0.01,0.0,o
4095.0,4095.0,1122.0,3999.0,3351.0,2767.0,3174.0,3067.0,3.3,8.9,7.74,0.03,-0.16,0.01,0.0,o
4095.0,4095.0,1117.0,4017.0,3345.0,2759.0,3175.0,3057.0,3.48,9.02,7.44,0.01,-0.08,-0.14,0.0,o
4095.0,4095.0,1120.0,4016.0,3349.0,2769.0,3183.0,3069.0,3.17,9.06,7.47,-0.09,0.03,-0.16,0.0,o
4095.0,4095.0,1123.0,3967.0,3333.0,2765.0,3184.0,3066.0,2.89,8.77,8.08,-0.18,0.12,-0.18,0.0,o
4095.0,4095.0,1133.0,3917.0,3324.0,2754.0,3183.0,3087.0,2.54,8.71,8.31,-0.03,-0.04,-0.23,0.0,o
4095.0,4095.0,1108.0,3893.0,3333.0,2754.0,3189.0,3091.0,2.52,8.71,8.17,0.06,-0.06,-0.25,0.0,o
4095.0,4095.0,1079.0,3891.0,3353.0,2763.0,3207.0,3125.0,2.63,8.83,8.07,0.18,-0.05,-0.29,0.0,o
4095.0,4095.0,1051.0,4095.0,3583.0,2955.0,3399.0,3228.0,2.12,9.13,7.48,0.12,-0.12,-0.23,0.0,o
4095.0,4095.0,1049.0,4095.0,3602.0,2965.0,3402.0,3227.0,2.09,9.21,7.31,0.04,-0.0,-0.2,0.0,o
4095.0,4095.0,1047.0,4095.0,3626.0,2969.0,3414.0,3228.0,2.04,9.23,7.3,0.0,0.02,-0.22,0.0,o
4095.0,4095.0,1049.0,4095.0,3610.0,2965.0,3399.0,3228.0,2.05,9.11,7.65,-0.08,-0.04,-0.21,0.0,o
4095.0,4095.0,1050.0,4095.0,3583.0,2960.0,3398.0,3217.0,1.99,9.06,7.87,-0.06,-0.05,-0.22,0.0,o
4095.0,4095.0,1066.0,4095.0,3578.0,2946.0,3410.0,3210.0,1.98,9.09,8.15,-0.03,-0.09,-0.2,0.0,o
4095.0,4095.0,1071.0,4095.0,3600.0,2958.0,3395.0,3216.0,1.5,9.06,7.56,0.12,-0.12,-0.21,0.0,o
4095.0,4095.0,1066.0,4095.0,3617.0,2962.0,3408.0,3217.0,1.9,9.1,7.24,-0.07,-0.31,-0.03,0.0,o
4095.0,4095.0,1069.0,4095.0,3639.0,2987.0,3405.0,3222.0,2.2,9.12,7.71,-0.04,-0.08,-0.14,0.0,o
4095.0,4095.0,1057.0,4095.0,3659.0,2991.0,3411.0,3222.0,2.4,9.05,7.73,-0.03,-0.14,-0.16,0.0,o
4095.0,4095.0,1072.0,4095.0,3691.0,2997.0,3408.0,3218.0,2.42,9.0,7.79,-0.07,-0.04,-0.15,0.0,o
4095.0,4095.0,1058.0,4095.0,3685.0,2999.0,3410.0,3223.0,2.27,9.0,8.08,-0.04,-0.01,-0.14,0.0,o
4095.0,4095.0,1070.0,4095.0,3693.0,3005.0,3414.0,3219.0,2.18,8.97,7.91,0.03,-0.02,-0.17,0.0,o
4095.0,4095.0,1069.0,4095.0,3696.0,3001.0,3408.0,3219.0,2.14,9.03,7.71,0.0,-0.03,-0.19,0.0,o
4095.0,4095.0,1077.0,4095.0,3667.0,2992.0,3407.0,3211.0,2.27,9.05,7.91,-0.01,-0.05,-0.21,0.0,o
4095.0,4095.0,1082.0,4095.0,3664.0,2977.0,3383.0,3184.0,2.11,9.05,7.82,0.03,-0.06,-0.21,0.0,o
4095.0,4095.0,1094.0,4095.0,3663.0,2974.0,3377.0,3183.0,2.23,9.12,7.78,-0.03,-0.03,-0.12,0.0,o
4095.0,4095.0,1071.0,4095.0,3678.0,2987.0,3396.0,3184.0,2.26,9.0,7.75,-0.04,0.08,-0.09,0.0,o
4095.0,4095.0,1072.0,4095.0,3690.0,2997.0,3410.0,3200.0,2.18,8.99,7.91,-0.04,0.1,-0.08,0.0,o
4095.0,4095.0,1073.0,4095.0,3671.0,2995.0,3402.0,3200.0,2.14,9.08,8.04,-0.08,0.1,-0.1,0.0,o
2960.0,2961.0,2859.0,4095.0,4095.0,2875.0,3062.0,2807.0,3.98,-2.47,12.88,-0.35,-0.19,0.19,0.0,p
2966.0,2975.0,2856.0,4095.0,4095.0,2887.0,3071.0,2815.0,4.57,-2.89,13.25,-0.41,0.0,0.13,0.0,p
2960.0,2983.0,2857.0,4095.0,4095.0,2908.0,3070.0,2816.0,4.38,-3.23,13.36,0.01,-0.04,-0.21,0.0,p
2960.0,2991.0,2864.0,4095.0,4095.0,2919.0,3071.0,2819.0,4.18,-2.98,12.79,0.13,-0.02,-0.23,0.0,p
2969.0,2973.0,2857.0,4095.0,4095.0,2913.0,3071.0,2811.0,4.36,-2.71,13.01,0.08,-0.02,-0.33,0.0,p
2965.0,2983.0,2861.0,4095.0,4095.0,2924.0,3081.0,2817.0,4.18,-2.66,12.72,0.16,-0.01,-0.29,0.0,p
2967.0,2979.0,2852.0,4095.0,4095.0,2919.0,3082.0,2814.0,4.26,-2.68,12.98,-0.03,0.04,-0.29,0.0,p
2961.0,2976.0,2860.0,4095.0,4095.0,2899.0,3082.0,2816.0,4.07,-2.79,12.94,0.01,-0.01,-0.35,0.0,p
2959.0,2974.0,2861.0,4095.0,4095.0,2905.0,3069.0,2818.0,4.24,-2.47,12.77,0.0,0.03,-0.22,0.0,p
2960.0,2971.0,2853.0,4095.0,4095.0,2899.0,3067.0,2814.0,4.24,-2.55,12.93,-0.06,0.01,-0.2,0.0,p
2960.0,2973.0,2848.0,4095.0,4095.0,2906.0,3067.0,2815.0,4.15,-2.87,13.04,-0.08,-0.01,-0.12,0.0,p
2961.0,2987.0,2865.0,4095.0,4095.0,2916.0,3071.0,2818.0,4.3,-2.69,13.18,0.03,0.02,-0.06,0.0,p
2962.0,2983.0,2851.0,4095.0,4095.0,2915.0,3082.0,2815.0,4.2,-2.6,12.78,0.08,-0.07,-0.18,0.0,p
2950.0,2990.0,2860.0,4095.0,4095.0,2928.0,3071.0,2816.0,4.4,-2.62,12.8,-0.04,-0.02,-0.1,0.0,p
2977.0,2980.0,2864.0,4095.0,4095.0,2921.0,3083.0,2812.0,4.47,-2.96,12.92,-0.02,0.0,-0.18,0.0,p
2970.0,2973.0,2858.0,4095.0,4095.0,2919.0,3071.0,2816.0,4.2,-2.76,12.99,0.01,0.03,-0.17,0.0,p
2972.0,2971.0,2860.0,4095.0,4095.0,2930.0,3081.0,2817.0,4.15,-2.51,12.82,-0.02,0.02,-0.1,0.0,p
2960.0,2983.0,2845.0,4095.0,4095.0,2934.0,3066.0,2812.0,4.27,-2.83,13.0,-0.07,-0.01,-0.16,0.0,p
2960.0,2985.0,2851.0,4095.0,4095.0,2950.0,3071.0,2807.0,4.45,-2.91,13.03,-0.05,-0.07,-0.28,0.0,p
2960.0,2960.0,2890.0,4095.0,4095.0,2850.0,2902.0,2622.0,3.99,-2.43,13.04,-0.03,-0.0,-0.2,0.0,p
2957.0,2953.0,2890.0,4095.0,4095.0,2849.0,2902.0,2621.0,3.89,-2.43,13.24,0.08,0.07,-0.15,0.0,p
2956.0,2957.0,2880.0,4095.0,4095.0,2849.0,2898.0,2622.0,3.84,-2.34,13.16,0.01,-0.03,-0.13,0.0,p
2962.0,2960.0,2884.0,4095.0,4095.0,2845.0,2901.0,2624.0,3.85,-2.26,12.69,-0.22,0.02,0.11,0.0,p
2965.0,2954.0,2880.0,4095.0,4095.0,2855.0,2902.0,2632.0,3.86,-2.82,13.43,-0.41,-0.04,-0.08,0.0,p
2965.0,2950.0,2891.0,4095.0,4095.0,2837.0,2902.0,2639.0,3.62,-2.86,13.28,-0.11,0.03,-0.0,0.0,p
2949.0,2948.0,2880.0,4095.0,4095.0,2819.0,2909.0,2640.0,3.75,-2.81,13.24,-0.19,-0.03,-0.07,0.0,p
2955.0,2960.0,2882.0,4095.0,4095.0,2797.0,2906.0,2643.0,3.71,-2.96,13.0,0.02,-0.03,0.01,0.0,p
2959.0,2960.0,2880.0,4095.0,4095.0,2778.0,2911.0,2648.0,3.5,-2.8,12.66,-0.12,-0.17,0.22,0.0,p
2962.0,2947.0,2865.0,4095.0,4095.0,2779.0,2906.0,2653.0,4.03,-3.06,13.04,-0.24,-0.13,0.36,0.0,p
2963.0,2954.0,2886.0,4095.0,4095.0,2795.0,2911.0,2666.0,4.18,-3.49,13.43,0.05,-0.04,-0.15,0.0,p
2947.0,2961.0,2886.0,4095.0,4095.0,2786.0,2913.0,2660.0,3.71,-3.07,12.78,0.1,0.02,-0.19,0.0,p
2953.0,2945.0,2881.0,4095.0,4095.0,2787.0,2910.0,2666.0,3.64,-3.18,13.38,0.18,-0.03,-0.36,0.0,p
2960.0,2963.0,2885.0,4095.0,4095.0,2781.0,2919.0,2672.0,3.68,-2.96,13.21,0.34,-0.01,-0.38,0.0,p
2955.0,2961.0,2899.0,4095.0,4095.0,2771.0,2909.0,2672.0,4.03,-2.82,13.06,0.47,-0.0,-0.31,0.0,p
2947.0,2954.0,2886.0,4095.0,4095.0,2766.0,2915.0,2670.0,4.02,-2.61,13.17,0.41,-0.02,-0.33,0.0,p
2957.0,2955.0,2879.0,4095.0,4095.0,2760.0,2914.0,2677.0,4.12,-2.37,13.28,0.49,0.12,-0.45,0.0,p
2949.0,2958.0,2885.0,4095.0,4095.0,2752.0,2923.0,2673.0,3.94,-2.02,12.92,0.4,-0.01,-0.47,0.0,p
2943.0,2948.0,2894.0,4095.0,4095.0,2763.0,2918.0,2679.0,3.72,-1.7,13.18,0.21,-0.05,-0.37,0.0,p
2960.0,2955.0,2880.0,4095.0,4095.0,2757.0,2925.0,2678.0,3.71,-1.67,13.04,-0.02,0.03,-0.14,0.0,p
2955.0,2957.0,2883.0,4095.0,4095.0,2823.0,2947.0,2736.0,3.88,-3.58,13.45,0.39,0.0,-0.36,0.0,p
2970.0,2957.0,2883.0,4095.0,4095.0,2823.0,2949.0,2736.0,3.69,-3.14,12.86,0.48,0.02,-0.41,0.0,p
2960.0,2963.0,2895.0,4095.0,4095.0,2827.0,2955.0,2736.0,3.8,-2.81,12.82,0.32,0.03,-0.34,0.0,p
2949.0,2957.0,2878.0,4095.0,4095.0,2817.0,2948.0,2733.0,3.91,-2.77,13.14,0.17,-0.01,-0.35,0.0,p
2967.0,2959.0,2896.0,4095.0,4095.0,2819.0,2950.0,2736.0,3.82,-2.73,13.22,0.31,-0.03,-0.35,0.0,p
2965.0,2962.0,2896.0,4095.0,4095.0,2821.0,2960.0,2740.0,3.94,-2.5,13.09,0.2,-0.0,-0.33,0.0,p
2963.0,2959.0,2894.0,4095.0,4095.0,2821.0,2958.0,2737.0,3.88,-2.29,13.16,0.38,-0.02,-0.32,0.0,p
2959.0,2949.0,2890.0,4095.0,4095.0,2813.0,2959.0,2734.0,3.85,-2.06,12.89,0.12,-0.05,-0.24,0.0,p
2945.0,2944.0,2887.0,4095.0,4095.0,2815.0,2951.0,2736.0,4.03,-2.06,13.35,0.07,0.0,-0.21,0.0,p
2962.0,2963.0,2890.0,4095.0,4095.0,2822.0,2950.0,2736.0,3.9,-2.08,13.18,0.18,-0.02,-0.26,0.0,p
2966.0,2957.0,2888.0,4095.0,4095.0,2815.0,2960.0,2734.0,3.75,-1.9,13.09,-0.01,-0.02,-0.17,0.0,p
2959.0,2950.0,2892.0,4095.0,4095.0,2817.0,2976.0,2737.0,3.8,-1.84,13.0,-0.06,-0.01,-0.04,0.0,p
2960.0,2963.0,2890.0,4095.0,4095.0,2822.0,2955.0,2735.0,3.81,-2.0,12.88,-0.34,-0.01,0.17,0.0,p
2955.0,2961.0,2887.0,4095.0,4095.0,2817.0,2954.0,2736.0,3.92,-2.42,13.33,-0.39,0.07,0.25,0.0,p
2960.0,2948.0,2889.0,4095.0,4095.0,2819.0,2960.0,2742.0,4.09,-2.99,13.62,-0.25,0.08,-0.06,0.0,p
2961.0,2959.0,2889.0,4095.0,4095.0,2827.0,2970.0,2745.0,3.88,-2.99,13.36,-0.03,-0.02,-0.28,0.0,p
2945.0,2956.0,2887.0,4095.0,4095.0,2818.0,2960.0,2743.0,3.61,-2.75,13.2,-0.03,0.0,-0.32,0.0,p
2958.0,2950.0,2885.0,4095.0,4095.0,2813.0,2960.0,2750.0,3.65,-2.66,13.23,-0.03,-0.07,-0.24,0.0,p
2960.0,2960.0,2899.0,4095.0,4095.0,2810.0,2961.0,2752.0,3.78,-2.63,13.11,-0.01,-0.01,-0.11,0.0,p
2959.0,2973.0,2894.0,4095.0,4095.0,2816.0,2958.0,2752.0,3.93,-2.71,13.11,0.05,-0.03,-0.15,0.0,p
2953.0,2954.0,2880.0,4095.0,4095.0,2823.0,2966.0,2750.0,3.7,-0.88,12.83,0.75,-0.01,-0.38,0.0,p
2965.0,2960.0,2895.0,4095.0,4095.0,2829.0,2967.0,2752.0,3.93,-0.52,13.07,0.51,0.01,-0.29,0.0,p
2967.0,2947.0,2903.0,4095.0,4095.0,2820.0,2970.0,2746.0,3.95,-0.61,13.43,0.35,0.04,-0.32,0.0,p
2956.0,2954.0,2894.0,4095.0,4095.0,2837.0,2975.0,2757.0,3.92,-0.35,13.32,0.34,0.04,-0.25,0.0,p
2960.0,2974.0,2895.0,4095.0,4095.0,2833.0,2981.0,2751.0,3.68,-0.04,13.2,0.12,-0.01,-0.09,0.0,p
2964.0,2956.0,2894.0,4095.0,4095.0,2833.0,2971.0,2750.0,3.26,-0.1,12.68,-0.36,-0.09,0.32,0.0,p
2959.0,2957.0,2885.0,4095.0,4095.0,2836.0,2970.0,2749.0,3.83,-0.68,13.21,-1.01,0.24,0.45,0.0,p
2964.0,2954.0,2885.0,4095.0,4095.0,2842.0,2974.0,2749.0,4.22,-1.78,13.78,-0.9,-0.03,0.13,0.0,p
2961.0,2958.0,2889.0,4095.0,4095.0,2849.0,2971.0,2758.0,4.37,-2.12,13.62,-0.58,0.01,0.08,0.0,p
2971.0,2962.0,2888.0,4095.0,4095.0,2832.0,2976.0,2757.0,3.72,-2.14,13.69,-0.28,-0.06,-0.13,0.0,p
2965.0,2951.0,2887.0,4095.0,4095.0,2807.0,2977.0,2758.0,3.63,-2.05,13.26,-0.2,0.09,0.01,0.0,p
2962.0,2957.0,2892.0,4095.0,4095.0,2810.0,2975.0,2769.0,3.74,-2.26,13.53,-0.14,-0.01,-0.07,0.0,p
2955.0,2953.0,2899.0,4095.0,4095.0,2783.0,2965.0,2747.0,3.78,-2.54,13.11,-0.09,-0.02,-0.1,0.0,p
2961.0,2969.0,2883.0,4095.0,4095.0,2774.0,2949.0,2743.0,3.85,-2.6,13.56,-0.11,0.05,-0.21,0.0,p
2959.0,2957.0,2889.0,4095.0,4095.0,2771.0,2928.0,2743.0,3.68,-2.54,13.34,0.18,-0.02,-0.26,0.0,p
2958.0,2974.0,2891.0,4095.0,4095.0,2774.0,2896.0,2727.0,3.78,-2.39,13.46,0.23,-0.07,-0.29,0.0,p
2962.0,2974.0,2895.0,4095.0,4095.0,2779.0,2890.0,2731.0,3.7,-2.25,13.36,0.38,-0.03,-0.22,0.0,p
2960.0,2970.0,2886.0,4095.0,4095.0,2749.0,2893.0,2719.0,3.86,-1.88,12.88,0.14,-0.03,-0.27,0.0,p
2973.0,2961.0,2886.0,4095.0,4095.0,2681.0,2863.0,2708.0,4.02,-1.96,13.31,-0.07,-0.05,-0.21,0.0,p
2961.0,2966.0,2885.0,4095.0,4095.0,2655.0,2839.0,2692.0,3.75,-1.87,12.98,-0.12,0.03,-0.17,0.0,p
2978.0,2960.0,2866.0,4095.0,4095.0,3094.0,3254.0,2943.0,3.6,-1.44,13.83,0.17,-0.08,-0.23,0.0,p
2973.0,2955.0,2864.0,4095.0,4095.0,3103.0,3255.0,2947.0,3.85,-1.43,13.14,0.05,-0.15,-0.13,0.0,p
2970.0,2960.0,2880.0,4095.0,4095.0,3013.0,3207.0,2925.0,3.86,-1.48,13.38,-0.28,-0.18,-0.16,0.0,p
2975.0,2951.0,2882.0,4095.0,4095.0,2864.0,3088.0,2871.0,4.15,-1.92,13.26,-0.25,-0.15,-0.13,0.0,p
2970.0,2961.0,2891.0,4095.0,4095.0,2778.0,2972.0,2826.0,3.88,-1.63,13.39,-0.11,-0.04,-0.18,0.0,p
2965.0,2958.0,2886.0,4095.0,4095.0,2711.0,2890.0,2751.0,3.87,-1.68,13.46,-0.06,0.08,-0.15,0.0,p
2969.0,2944.0,2896.0,4095.0,4095.0,2678.0,2826.0,2716.0,3.92,-1.79,13.34,-0.04,0.03,-0.13,0.0,p
2974.0,2961.0,2894.0,4095.0,4095.0,2611.0,2772.0,2669.0,3.99,-1.98,13.33,0.06,0.05,-0.19,0.0,p
2967.0,2962.0,2896.0,4095.0,4095.0,2592.0,2775.0,2663.0,4.01,-1.86,13.22,0.04,-0.01,-0.23,0.0,p
2962.0,2961.0,2894.0,4095.0,4095.0,2592.0,2786.0,2672.0,3.85,-1.81,13.3,-0.05,0.1,-0.23,0.0,p
2963.0,2965.0,2895.0,4095.0,4095.0,2559.0,2782.0,2671.0,3.78,-1.71,13.51,-0.01,0.1,-0.14,0.0,p
2961.0,2966.0,2896.0,4095.0,4095.0,2555.0,2770.0,2643.0,3.76,-1.98,13.57,-0.04,0.06,-0.17,0.0,p
2960.0,2971.0,2898.0,4095.0,4095.0,2587.0,2785.0,2659.0,3.65,-1.98,13.6,0.25,0.05,-0.16,0.0,p
2971.0,2958.0,2896.0,4095.0,4095.0,2609.0,2791.0,2658.0,3.79,-1.67,13.12,0.03,-0.05,-0.18,0.0,p
2960.0,2962.0,2896.0,4095.0,4095.0,2671.0,2810.0,2679.0,3.9,-1.64,13.71,0.31,-0.01,-0.17,0.0,p
2960.0,2960.0,2883.0,4095.0,4095.0,2704.0,2821.0,2685.0,3.48,-1.53,12.73,-0.07,0.01,-0.13,0.0,p
2954.0,2959.0,2882.0,4095.0,4095.0,2741.0,2818.0,2683.0,3.9,-1.52,13.86,-0.08,0.02,-0.16,0.0,p
2954.0,2959.0,2896.0,4095.0,4095.0,2759.0,2827.0,2684.0,3.68,-1.76,13.29,-0.09,-0.02,-0.16,0.0,p
2958.0,2963.0,2885.0,4095.0,4095.0,2768.0,2826.0,2691.0,3.74,-1.71,13.72,0.12,0.03,-0.18,0.0,p
2955.0,2965.0,2893.0,4095.0,4067.0,2768.0,2830.0,2694.0,3.71,-1.53,13.18,0.04,0.04,-0.1,0.0,p
2960.0,2957.0,2882.0,4095.0,4095.0,2825.0,2898.0,2735.0,3.87,-1.11,13.43,0.04,0.03,-0.14,0.0,p
2956.0,2969.0,2889.0,4095.0,4095.0,2823.0,2899.0,2735.0,3.85,-1.13,13.45,-0.0,0.02,-0.15,0.0,p
2954.0,2951.0,2887.0,4095.0,4095.0,2818.0,2902.0,2734.0,3.76,-1.15,13.44,0.03,0.03,-0.14,0.0,p
2965.0,2960.0,2893.0,4095.0,4095.0,2827.0,2905.0,2738.0,3.75,-1.13,13.48,-0.02,-0.01,-0.14,0.0,p
2960.0,2957.0,2883.0,4095.0,4095.0,2815.0,2900.0,2736.0,3.85,-1.22,13.61,0.08,-0.02,-0.18,0.0,p
2958.0,2970.0,2886.0,4095.0,4095.0,2807.0,2911.0,2736.0,3.72,-1.08,13.45,0.05,-0.03,-0.15,0.0,p
2961.0,2963.0,2895.0,4095.0,4095.0,2809.0,2910.0,2736.0,3.77,-1.03,13.45,0.02,-0.01,-0.14,0.0,p
2963.0,2961.0,2885.0,4095.0,4095.0,2810.0,2913.0,2739.0,3.85,-1.21,13.54,0.03,-0.02,-0.13,0.0,p
2961.0,2964.0,2895.0,4095.0,4095.0,2803.0,2919.0,2737.0,3.95,-1.11,13.58,0.11,-0.07,-0.22,0.0,p
2960.0,2953.0,2890.0,4095.0,4095.0,2799.0,2910.0,2737.0,3.77,-1.02,13.39,0.09,-0.03,-0.17,0.0,p
2966.0,2967.0,2893.0,4095.0,4095.0,2799.0,2923.0,2749.0,3.9,-0.91,13.58,0.11,-0.06,-0.19,0.0,p
2971.0,2950.0,2886.0,4095.0,4095.0,2786.0,2922.0,2741.0,3.87,-0.91,13.36,0.06,-0.02,-0.17,0.0,p
2959.0,2953.0,2892.0,4095.0,4095.0,2789.0,2928.0,2749.0,3.99,-0.87,13.41,-0.01,-0.01,-0.17,0.0,p
2969.0,2962.0,2887.0,4095.0,4095.0,2787.0,2929.0,2743.0,3.82,-0.91,13.58,0.08,-0.04,-0.18,0.0,p
2969.0,2973.0,2886.0,4095.0,4095.0,2800.0,2934.0,2761.0,3.77,-0.94,13.52,0.01,0.0,-0.12,0.0,p
2962.0,2966.0,2887.0,4095.0,4095.0,2797.0,2931.0,2754.0,4.05,-0.92,13.57,0.09,-0.0,-0.15,0.0,p
2960.0,2957.0,2878.0,4095.0,4095.0,2785.0,2931.0,2752.0,3.94,-0.91,13.32,0.02,-0.01,-0.17,0.0,p
2975.0,2959.0,2894.0,4095.0,4095.0,2791.0,2934.0,2755.0,3.95,-0.75,13.54,0.01,0.01,-0.19,0.0,p
2966.0,2951.0,2884.0,4095.0,4095.0,2783.0,2930.0,2749.0,3.8,-0.85,13.23,-0.11,0.04,-0.13,0.0,p
2964.0,2964.0,2896.0,4095.0,4095.0,2785.0,2942.0,2753.0,3.91,-0.89,13.78,-0.06,0.05,-0.15,0.0,p
2963.0,2955.0,2890.0,4095.0,4095.0,2784.0,2945.0,2762.0,3.93,-0.88,13.5,-0.09,0.04,-0.13,0.0,p
2961.0,2960.0,2885.0,4095.0,4095.0,2786.0,2941.0,2749.0,3.95,-0.93,13.51,0.02,-0.01,-0.17,0.0,p
2960.0,2974.0,2887.0,4095.0,4095.0,2791.0,2942.0,2756.0,3.81,-0.96,13.42,-0.02,0.01,-0.14,0.0,p
2953.0,2958.0,2875.0,4095.0,4095.0,2784.0,2938.0,2755.0,4.01,-1.01,13.79,0.04,-0.02,-0.17,0.0,p
2960.0,2957.0,2881.0,4095.0,4095.0,2790.0,2928.0,2768.0,3.78,-0.98,13.34,0.11,-0.01,-0.18,0.0,p
2968.0,2960.0,2896.0,4095.0,4095.0,2787.0,2946.0,2758.0,4.07,-0.88,13.65,0.09,-0.01,-0.19,0.0,p
2955.0,2963.0,2896.0,4095.0,4095.0,2789.0,2957.0,2755.0,3.89,-0.91,13.49,0.2,-0.02,-0.23,0.0,p
2960.0,2961.0,2891.0,4095.0,4095.0,2750.0,2945.0,2752.0,3.93,-0.67,13.16,0.05,-0.01,-0.15,0.0,p
2969.0,2959.0,2891.0,4095.0,4095.0,2694.0,2934.0,2756.0,3.83,-0.67,13.38,-0.19,-0.01,-0.14,0.0,p
2964.0,2960.0,2887.0,4095.0,4095.0,2672.0,2944.0,2761.0,4.02,-0.83,13.58,-0.07,0.01,-0.12,0.0,p
2973.0,2969.0,2887.0,4095.0,4095.0,2669.0,2944.0,2753.0,3.83,-0.83,13.46,-0.08,-0.02,-0.18,0.0,p
2958.0,2957.0,2887.0,4095.0,4095.0,2666.0,2937.0,2754.0,3.92,-1.08,13.68,0.04,-0.01,-0.12,0.0,p
2961.0,2955.0,2896.0,4095.0,4095.0,2665.0,2933.0,2753.0,4.01,-0.81,13.37,-0.0,-0.0,-0.1,0.0,p
2960.0,2965.0,2896.0,4095.0,4095.0,2661.0,2954.0,2757.0,3.95,-0.96,13.52,0.1,-0.02,-0.15,0.0,p
2967.0,2958.0,2879.0,4095.0,4095.0,2666.0,2946.0,2751.0,3.91,-0.85,13.28,-0.06,0.02,-0.09,0.0,p
2971.0,2957.0,2896.0,4095.0,4095.0,2671.0,2946.0,2755.0,4.0,-0.93,13.45,-0.01,-0.03,-0.16,0.0,p
2975.0,2965.0,2899.0,4095.0,4095.0,2688.0,2941.0,2763.0,4.01,-1.01,13.44,-0.11,0.03,-0.14,0.0,p
2972.0,2967.0,2896.0,4095.0,4095.0,2710.0,2935.0,2754.0,4.3,-1.12,13.73,0.02,-0.02,-0.2,0.0,p
2969.0,2967.0,2881.0,4095.0,4095.0,2757.0,2941.0,2753.0,3.8,-0.95,13.3,0.13,-0.01,-0.22,0.0,p
2967.0,2951.0,2881.0,4095.0,4095.0,2786.0,2937.0,2758.0,3.96,-0.86,13.51,-0.02,0.03,-0.15,0.0,p
2971.0,2960.0,2891.0,4095.0,4095.0,2858.0,2985.0,2810.0,3.56,-2.43,13.36,-0.04,0.06,-0.09,0.0,p
2965.0,2957.0,2886.0,4095.0,4095.0,2872.0,2986.0,2790.0,3.75,-2.67,13.35,-0.0,0.06,-0.04,0.0,p
2965.0,2963.0,2896.0,4095.0,4095.0,2827.0,2983.0,2800.0,3.72,-2.6,13.54,0.07,-0.02,-0.14,0.0,p
2971.0,2962.0,2877.0,4095.0,4095.0,2813.0,2992.0,2803.0,3.49,-2.21,13.17,0.06,-0.03,-0.19,0.0,p
2965.0,2967.0,2892.0,4095.0,4095.0,2850.0,2988.0,2802.0,3.57,-2.04,13.16,-0.11,0.02,-0.15,0.0,p
2973.0,2957.0,2878.0,4095.0,4095.0,2896.0,2975.0,2783.0,3.56,-2.33,13.26,-0.11,0.01,-0.13,0.0,p
2979.0,2955.0,2883.0,4095.0,4095.0,2942.0,2983.0,2802.0,3.6,-2.62,13.32,-0.08,0.01,-0.12,0.0,p
2973.0,2969.0,2895.0,4095.0,4095.0,2950.0,2981.0,2803.0,3.7,-2.81,13.48,0.0,-0.01,-0.16,0.0,p
2976.0,2954.0,2885.0,4095.0,4095.0,2807.0,2987.0,2800.0,3.64,-2.6,13.49,0.15,-0.05,-0.18,0.0,p
2983.0,2954.0,2891.0,4095.0,4095.0,2719.0,2988.0,2800.0,3.67,-2.33,13.34,0.15,-0.08,-0.23,0.0,p
2967.0,2953.0,2886.0,4095.0,4095.0,2672.0,2982.0,2800.0,3.64,-1.96,12.91,0.12,0.0,-0.15,0.0,p
2951.0,2966.0,2883.0,4095.0,4095.0,2672.0,2981.0,2795.0,3.53,-2.15,13.35,-0.02,-0.04,-0.2,0.0,p
2967.0,2965.0,2882.0,4095.0,4095.0,2670.0,2981.0,2798.0,3.65,-2.25,13.16,-0.0,-0.02,-0.18,0.0,p
2963.0,2960.0,2886.0,4095.0,4095.0,2671.0,2991.0,2800.0,3.68,-2.34,13.3,-0.06,0.02,-0.18,0.0,p
2977.0,2957.0,2897.0,4095.0,4095.0,2703.0,2978.0,2800.0,3.61,-2.65,13.53,-0.11,-0.01,-0.19,0.0,p
2959.0,2951.0,2889.0,4095.0,4095.0,2725.0,2983.0,2800.0,3.68,-2.51,13.31,0.03,-0.01,-0.19,0.0,p
2966.0,2960.0,2891.0,4095.0,4095.0,2784.0,2985.0,2806.0,3.7,-2.41,13.24,-0.03,0.02,-0.16,0.0,p
2992.0,2959.0,2883.0,4095.0,4095.0,2841.0,2981.0,2805.0,3.84,-2.35,13.3,0.1,-0.02,-0.19,0.0,p
2981.0,2959.0,2887.0,4095.0,4095.0,2880.0,2987.0,2807.0,3.68,-2.19,12.84,-0.0,0.01,-0.14,0.0,p
2994.0,2952.0,2884.0,4095.0,4095.0,2893.0,2981.0,2803.0,3.78,-2.27,13.31,-0.06,0.02,-0.16,0.0,p
2967.0,2954.0,2873.0,4095.0,4095.0,2732.0,3001.0,2832.0,3.89,-2.94,13.53,0.2,-0.2,-0.21,0.0,p
2965.0,2958.0,2892.0,4095.0,4095.0,2725.0,2994.0,2817.0,3.88,-2.22,13.04,0.42,-0.22,-0.18,0.0,p
2960.0,2951.0,2881.0,4095.0,4095.0,2703.0,3003.0,2823.0,3.85,-1.91,12.9,0.3,-0.12,-0.02,0.0,p
2962.0,2960.0,2888.0,4095.0,4095.0,2702.0,3004.0,2827.0,4.24,-2.03,13.01,0.2,-0.15,0.0,0.0,p
2959.0,2947.0,2877.0,4095.0,4095.0,2692.0,2998.0,2822.0,4.46,-2.5,13.13,0.13,-0.18,-0.14,0.0,p
2965.0,2951.0,2880.0,4095.0,4095.0,2697.0,2999.0,2823.0,4.31,-2.2,13.29,0.19,-0.17,-0.26,0.0,p
2967.0,2957.0,2889.0,4095.0,4095.0,2699.0,3007.0,2830.0,4.13,-1.58,12.68,0.21,-0.15,-0.21,0.0,p
2964.0,2958.0,2882.0,4095.0,4095.0,2695.0,3004.0,2831.0,4.38,-1.44,12.67,0.01,-0.08,-0.12,0.0,p
2967.0,2947.0,2880.0,4095.0,4095.0,2698.0,3005.0,2829.0,4.5,-1.74,12.93,0.0,-0.01,-0.06,0.0,p
2969.0,2949.0,2881.0,4095.0,4095.0,2693.0,3003.0,2823.0,4.51,-2.15,13.2,-0.02,-0.01,-0.08,0.0,p
2968.0,2951.0,2875.0,4095.0,4095.0,2709.0,2999.0,2829.0,4.2,-2.07,13.22,0.02,-0.09,-0.13,0.0,p
2970.0,2959.0,2880.0,4095.0,4095.0,2716.0,3003.0,2831.0,4.28,-1.86,12.96,-0.08,-0.07,-0.13,0.0,p
2965.0,2956.0,2885.0,4095.0,4095.0,2727.0,3009.0,2837.0,4.51,-1.82,13.07,-0.06,0.02,-0.06,0.0,p
2961.0,2949.0,2886.0,4095.0,4095.0,2723.0,3004.0,2832.0,4.6,-1.94,12.87,0.05,0.03,-0.13,0.0,p
2961.0,2959.0,2880.0,4095.0,4095.0,2725.0,3002.0,2833.0,4.5,-2.01,12.87,-0.03,0.07,-0.13,0.0,p
2960.0,2957.0,2893.0,4095.0,4095.0,2733.0,3014.0,2835.0,4.32,-2.0,12.83,-0.09,0.08,-0.15,0.0,p
2962.0,2972.0,2880.0,4095.0,4095.0,2736.0,3009.0,2831.0,4.17,-2.22,12.87,-0.29,0.07,-0.09,0.0,p
2967.0,2955.0,2887.0,4095.0,4095.0,2734.0,3003.0,2838.0,4.21,-2.62,13.32,-0.39,0.09,-0.07,0.0,p
2966.0,2951.0,2885.0,4095.0,4095.0,2732.0,3010.0,2843.0,4.06,-3.09,13.47,-0.18,0.05,-0.15,0.0,p
2962.0,2943.0,2878.0,4095.0,4095.0,2704.0,2999.0,2833.0,3.97,-2.7,13.22,0.06,0.06,-0.11,0.0,p
3022.0,2960.0,2886.0,4095.0,4095.0,2979.0,3009.0,2851.0,3.96,-2.55,13.12,0.08,0.02,-0.14,0.0,p
3002.0,2960.0,2881.0,4095.0,4095.0,2965.0,3008.0,2843.0,4.09,-2.42,13.12,0.19,-0.01,-0.14,0.0,p
3006.0,2967.0,2882.0,4095.0,4095.0,2969.0,3013.0,2850.0,4.07,-2.5,12.8,0.04,-0.02,-0.15,0.0,p
3012.0,2958.0,2880.0,4095.0,4095.0,2976.0,3007.0,2847.0,4.24,-2.56,13.1,-0.05,0.01,-0.15,0.0,p
3003.0,2956.0,2881.0,4095.0,4095.0,2961.0,3008.0,2841.0,4.09,-2.59,13.02,0.01,-0.01,-0.17,0.0,p
2987.0,2958.0,2885.0,4095.0,4095.0,2957.0,3011.0,2838.0,4.15,-2.47,13.0,0.01,-0.0,-0.12,0.0,p
2997.0,2951.0,2877.0,4095.0,4095.0,2951.0,3007.0,2839.0,4.29,-2.76,13.01,-0.04,-0.02,-0.13,0.0,p
3015.0,2952.0,2881.0,4095.0,4095.0,2955.0,3011.0,2843.0,4.3,-2.83,13.27,0.06,-0.03,-0.24,0.0,p
3001.0,2950.0,2896.0,4095.0,4095.0,2922.0,3011.0,2842.0,4.13,-2.49,12.9,0.07,0.01,-0.23,0.0,p
2999.0,2950.0,2893.0,4095.0,4095.0,2911.0,3015.0,2842.0,4.06,-2.38,13.12,0.03,-0.04,-0.2,0.0,p
2996.0,2964.0,2882.0,4095.0,4095.0,2906.0,3015.0,2844.0,4.15,-2.49,12.91,0.02,0.01,-0.12,0.0,p
2986.0,2957.0,2882.0,4095.0,4095.0,2902.0,3023.0,2837.0,4.17,-2.9,13.33,0.03,-0.0,-0.12,0.0,p
2987.0,2948.0,2876.0,4095.0,4095.0,2890.0,3019.0,2838.0,3.91,-2.01,12.9,0.07,-0.06,-0.18,0.0,p
2982.0,2951.0,2881.0,4095.0,4095.0,2883.0,3015.0,2843.0,4.15,-1.96,12.63,-0.03,0.01,-0.03,0.0,p
2995.0,2960.0,2879.0,4095.0,4095.0,2889.0,3021.0,2850.0,4.23,-3.31,13.29,-0.14,-0.04,-0.12,0.0,p
2995.0,2962.0,2872.0,4095.0,4095.0,2890.0,3024.0,2849.0,4.55,-2.98,13.3,0.05,0.01,-0.07,0.0,p
2992.0,2963.0,2880.0,4095.0,4095.0,2893.0,3024.0,2846.0,4.36,-1.55,12.5,0.12,0.03,-0.21,0.0,p
2992.0,2960.0,2877.0,4095.0,4095.0,2885.0,3024.0,2849.0,4.21,-2.18,12.69,-0.21,0.04,-0.17,0.0,p
2991.0,2960.0,2886.0,4095.0,4095.0,2883.0,3027.0,2849.0,4.15,-3.26,13.52,-0.14,0.03,-0.19,0.0,p
2988.0,2951.0,2879.0,4095.0,4095.0,2880.0,3022.0,2848.0,4.06,-3.39,13.33,0.13,0.01,-0.17,0.0,p
2971.0,2954.0,2874.0,4095.0,4095.0,2832.0,3037.0,2863.0,4.24,-3.32,12.76,-0.06,-0.02,0.05,0.0,p
2971.0,2954.0,2874.0,4095.0,4095.0,2832.0,3037.0,2863.0,4.24,-3.32,12.76,-0.06,-0.02,0.05,0.0,p
2973.0,2966.0,2886.0,4095.0,4095.0,2832.0,3041.0,2864.0,4.34,-3.4,13.03,-0.16,0.01,-0.05,0.0,p
2975.0,2947.0,2875.0,4095.0,4095.0,2831.0,3031.0,2863.0,4.15,-3.4,13.4,0.04,-0.11,-0.33,0.0,p
2990.0,2954.0,2883.0,4095.0,4095.0,2837.0,3039.0,2864.0,3.77,-2.81,12.31,0.19,-0.04,-0.27,0.0,p
2967.0,2955.0,2879.0,4095.0,4095.0,2834.0,3038.0,2862.0,3.78,-2.7,12.45,-0.15,0.01,-0.07,0.0,p
2985.0,2960.0,2889.0,4095.0,4095.0,2838.0,3043.0,2868.0,4.13,-3.15,13.04,-0.1,0.04,0.03,0.0,p
2973.0,2958.0,2878.0,4095.0,4095.0,2837.0,3034.0,2863.0,4.07,-3.5,13.02,0.01,0.03,-0.03,0.0,p
2981.0,2960.0,2877.0,4095.0,4095.0,2833.0,3041.0,2865.0,3.95,-3.56,12.97,-0.06,0.02,-0.06,0.0,p
2977.0,2955.0,2883.0,4095.0,4095.0,2832.0,3035.0,2863.0,4.11,-3.33,13.2,0.01,-0.05,-0.25,0.0,p
2965.0,2945.0,2886.0,4095.0,4095.0,2830.0,3031.0,2862.0,3.99,-3.16,12.68,0.14,0.03,-0.21,0.0,p
2987.0,2951.0,2883.0,4095.0,4095.0,2831.0,3041.0,2867.0,3.96,-3.21,12.63,-0.02,0.07,-0.21,0.0,p
2983.0,2955.0,2886.0,4095.0,4095.0,2821.0,3033.0,2862.0,3.97,-3.47,12.98,-0.09,0.05,-0.18,0.0,p
2984.0,2960.0,2883.0,4095.0,4095.0,2802.0,3025.0,2862.0,3.98,-3.06,13.01,0.04,0.04,-0.22,0.0,p
2969.0,2955.0,2877.0,4095.0,4095.0,2797.0,3026.0,2859.0,3.64,-3.2,12.9,0.01,-0.01,-0.21,0.0,p
2971.0,2949.0,2886.0,4095.0,4095.0,2800.0,3025.0,2859.0,3.74,-2.92,13.17,0.06,-0.01,-0.13,0.0,p
2963.0,2955.0,2874.0,4095.0,4095.0,2799.0,3027.0,2863.0,3.86,-3.18,12.75,0.12,-0.03,-0.14,0.0,p
2962.0,2960.0,2891.0,4095.0,4095.0,2806.0,3024.0,2864.0,3.96,-3.35,12.85,-0.05,-0.05,-0.13,0.0,p
2975.0,2951.0,2880.0,4095.0,4095.0,2809.0,3029.0,2863.0,4.08,-3.29,12.97,0.05,-0.01,-0.14,0.0,p
2981.0,2961.0,2879.0,4095.0,4095.0,2804.0,3027.0,2861.0,3.9,-3.12,12.72,0.05,0.0,-0.14,0.0,p
2977.0,3047.0,2896.0,4095.0,4095.0,3525.0,2917.0,2512.0,2.38,5.36,12.65,-0.02,0.03,-0.15,0.0,p
2983.0,3050.0,2901.0,4095.0,4095.0,3536.0,2926.0,2511.0,2.54,5.23,12.51,0.01,0.04,-0.15,0.0,p
2969.0,3045.0,2880.0,4095.0,4095.0,3533.0,2922.0,2510.0,2.56,5.08,12.37,0.06,0.05,-0.17,0.0,p
2981.0,3041.0,2903.0,4095.0,4095.0,3549.0,2923.0,2512.0,2.65,5.09,12.42,0.07,0.01,-0.19,0.0,p
3002.0,3024.0,2902.0,4095.0,4095.0,3542.0,2925.0,2513.0,2.52,5.3,12.34,0.05,0.02,-0.16,0.0,p
2974.0,3028.0,2889.0,4095.0,4095.0,3555.0,2925.0,2511.0,2.46,5.3,12.3,0.0,-0.03,-0.18,0.0,p
2979.0,3043.0,2899.0,4095.0,4095.0,3498.0,2922.0,2514.0,2.3,5.33,12.4,-0.07,-0.04,-0.14,0.0,p
2981.0,3031.0,2893.0,4095.0,4095.0,3275.0,2912.0,2512.0,2.65,5.12,12.5,-0.14,-0.06,-0.1,0.0,p
2974.0,3053.0,2896.0,4095.0,4095.0,3191.0,2916.0,2512.0,2.4,5.2,12.41,0.0,-0.05,-0.15,0.0,p
2965.0,3043.0,2900.0,4095.0,4095.0,3116.0,2906.0,2512.0,2.59,5.12,12.52,-0.07,-0.02,-0.14,0.0,p
2971.0,3056.0,2899.0,4095.0,4095.0,3107.0,2921.0,2514.0,2.47,5.15,12.4,0.06,-0.03,-0.17,0.0,p
2988.0,3056.0,2890.0,4095.0,4095.0,3046.0,2921.0,2513.0,2.71,5.11,12.56,-0.13,-0.06,-0.16,0.0,p
2990.0,3055.0,2895.0,4095.0,4095.0,3027.0,2919.0,2512.0,2.67,5.07,12.44,0.11,-0.03,-0.19,0.0,p
2974.0,3056.0,2889.0,4095.0,4095.0,3007.0,2915.0,2512.0,2.51,5.15,12.47,0.03,-0.06,-0.17,0.0,p
2983.0,3062.0,2889.0,4095.0,4095.0,3008.0,2919.0,2515.0,2.62,5.25,12.44,0.05,-0.02,-0.14,0.0,p
2977.0,3061.0,2895.0,4095.0,4095.0,2992.0,2928.0,2515.0,2.5,5.19,12.33,-0.03,-0.04,-0.14,0.0,p
2977.0,3046.0,2893.0,4095.0,4095.0,2956.0,2918.0,2512.0,2.57,5.08,12.53,0.03,-0.0,-0.16,0.0,p
2976.0,3056.0,2896.0,4095.0,4095.0,2927.0,2921.0,2512.0,2.55,5.24,12.48,-0.01,-0.04,-0.13,0.0,p
2969.0,3053.0,2895.0,4095.0,4095.0,2870.0,2925.0,2513.0,2.64,5.12,12.54,-0.0,-0.05,-0.15,0.0,p
2966.0,3045.0,2896.0,4095.0,4095.0,2845.0,2917.0,2512.0,2.51,5.11,12.46,0.04,-0.01,-0.14,0.0,p
2989.0,3023.0,2894.0,4095.0,4095.0,3343.0,2929.0,2529.0,2.46,5.3,12.47,0.04,0.0,-0.13,0.0,p
2989.0,3024.0,2896.0,4095.0,4095.0,3234.0,2927.0,2525.0,2.56,5.33,12.26,-0.0,-0.01,-0.14,0.0,p
2986.0,3021.0,2891.0,4095.0,4095.0,3190.0,2928.0,2526.0,2.56,5.38,12.17,-0.03,-0.01,-0.14,0.0,p
2986.0,3041.0,2895.0,4095.0,4095.0,3111.0,2927.0,2523.0,2.49,5.31,12.37,-0.06,-0.03,-0.15,0.0,p
2988.0,3026.0,2903.0,4095.0,4095.0,3056.0,2928.0,2523.0,2.51,5.22,12.37,-0.1,-0.06,-0.11,0.0,p
2981.0,3025.0,2895.0,4095.0,4095.0,3017.0,2928.0,2528.0,2.68,5.25,12.54,-0.01,-0.02,-0.15,0.0,p
2971.0,3037.0,2896.0,4095.0,4095.0,2978.0,2927.0,2522.0,2.6,5.18,12.45,0.01,-0.02,-0.15,0.0,p
2982.0,3024.0,2909.0,4095.0,4095.0,2942.0,2931.0,2523.0,2.59,5.18,12.58,0.04,-0.03,-0.2,0.0,p
2974.0,3031.0,2897.0,4095.0,4095.0,2917.0,2928.0,2523.0,2.49,5.27,12.34,0.03,0.0,-0.16,0.0,p
2971.0,3024.0,2889.0,4095.0,4095.0,2870.0,2928.0,2531.0,2.6,5.2,12.36,0.03,-0.01,-0.15,0.0,p
2984.0,3033.0,2895.0,4095.0,4095.0,2835.0,2925.0,2522.0,2.64,5.19,12.34,-0.01,-0.03,-0.15,0.0,p
2990.0,3019.0,2887.0,4095.0,4095.0,2779.0,2926.0,2519.0,2.34,5.13,12.43,-0.06,-0.02,-0.16,0.0,p
2972.0,3035.0,2900.0,4095.0,4095.0,2800.0,2927.0,2523.0,2.44,5.15,12.73,0.03,-0.0,-0.17,0.0,p
2971.0,3017.0,2898.0,4095.0,4095.0,2815.0,2928.0,2523.0,2.59,5.21,12.45,0.04,0.01,-0.14,0.0,p
2975.0,3025.0,2899.0,4095.0,4095.0,2858.0,2925.0,2522.0,2.49,5.13,12.43,0.12,0.05,-0.19,0.0,p
2983.0,3030.0,2896.0,4095.0,4095.0,2983.0,2930.0,2527.0,2.51,5.33,12.41,-0.01,0.03,-0.13,0.0,p
2974.0,3030.0,2885.0,4095.0,4095.0,3070.0,2925.0,2525.0,2.56,5.19,12.4,0.02,-0.0,-0.16,0.0,p
2982.0,3025.0,2887.0,4095.0,4095.0,3207.0,2926.0,2525.0,2.37,5.27,12.41,0.01,0.08,-0.13,0.0,p
2987.0,3024.0,2897.0,4095.0,4095.0,3267.0,2913.0,2522.0,2.45,5.26,12.38,-0.12,0.08,-0.06,0.0,p
2992.0,3013.0,2903.0,4095.0,4095.0,3261.0,2913.0,2526.0,2.51,4.94,12.34,-0.39,0.01,-0.11,0.0,p
2967.0,3015.0,2895.0,4095.0,4095.0,3071.0,2922.0,2533.0,2.59,4.87,12.65,-0.09,0.01,-0.09,0.0,p
2987.0,3019.0,2896.0,4095.0,4095.0,3088.0,2928.0,2535.0,2.53,4.75,12.7,-0.05,-0.02,-0.14,0.0,p
2979.0,3012.0,2886.0,4095.0,4095.0,3098.0,2929.0,2542.0,2.52,4.81,12.91,-0.04,-0.03,-0.13,0.0,p
2974.0,3013.0,2896.0,4095.0,4095.0,3105.0,2916.0,2538.0,2.47,4.86,12.72,-0.06,0.02,-0.12,0.0,p
2985.0,3023.0,2898.0,4095.0,4095.0,3113.0,2928.0,2535.0,2.5,4.75,12.84,-0.01,-0.02,-0.14,0.0,p
2989.0,3024.0,2896.0,4095.0,4095.0,3120.0,2928.0,2544.0,2.61,4.66,12.75,-0.02,-0.0,-0.12,0.0,p
2989.0,3021.0,2896.0,4095.0,3973.0,3137.0,2927.0,2543.0,2.52,4.74,12.6,0.03,-0.02,-0.17,0.0,p
2992.0,3023.0,2899.0,4095.0,3834.0,3141.0,2926.0,2544.0,2.57,4.66,12.68,-0.02,0.0,-0.12,0.0,p
2989.0,3031.0,2896.0,4095.0,3744.0,3149.0,2928.0,2542.0,2.57,4.67,12.78,0.02,-0.03,-0.16,0.0,p
2998.0,3027.0,2897.0,4095.0,3773.0,3152.0,2927.0,2543.0,2.53,4.63,12.92,-0.01,0.03,-0.12,0.0,p
2990.0,3023.0,2896.0,4095.0,3780.0,3152.0,2927.0,2541.0,2.62,4.7,12.79,0.06,-0.02,-0.18,0.0,p
2993.0,3018.0,2899.0,4095.0,3943.0,3155.0,2931.0,2544.0,2.54,4.71,12.79,0.1,0.06,-0.15,0.0,p
2982.0,3017.0,2896.0,4095.0,4095.0,3153.0,2924.0,2541.0,2.48,4.74,12.67,0.05,0.02,-0.15,0.0,p
2992.0,3015.0,2898.0,4095.0,4095.0,3187.0,2929.0,2543.0,2.76,4.73,12.74,0.13,0.0,-0.18,0.0,p
3007.0,3019.0,2897.0,4095.0,4095.0,3232.0,2927.0,2539.0,2.42,4.89,12.64,0.24,0.02,-0.26,0.0,p
3001.0,3008.0,2899.0,4095.0,4095.0,3287.0,2929.0,2537.0,2.37,4.79,12.42,0.14,0.0,-0.23,0.0,p
3002.0,3014.0,2896.0,4095.0,4095.0,3392.0,2939.0,2542.0,2.33,5.18,12.52,0.1,0.05,-0.17,0.0,p
3007.0,3008.0,2898.0,4095.0,4095.0,3519.0,2946.0,2545.0,2.46,4.98,12.48,-0.06,-0.02,-0.11,0.0,p
3024.0,3010.0,2897.0,4095.0,4095.0,3733.0,2956.0,2551.0,2.41,4.97,12.63,-0.04,-0.04,-0.14,0.0,p
3020.0,3010.0,2887.0,4095.0,4095.0,3877.0,2942.0,2550.0,2.52,4.82,12.58,-0.16,-0.11,-0.13,0.0,p
2974.0,3002.0,2883.0,4095.0,4095.0,3536.0,2889.0,2533.0,2.57,4.83,12.74,0.05,-0.03,-0.12,0.0,p
2978.0,3028.0,2894.0,4095.0,4095.0,3419.0,2880.0,2539.0,2.63,4.66,12.71,-0.06,-0.05,-0.11,0.0,p
2970.0,3031.0,2891.0,4095.0,4095.0,3389.0,2865.0,2527.0,2.64,4.64,12.84,0.11,0.04,-0.27,0.0,p
