hall_1,hall_2,hall_3,flex_t,flex_i,flex_m,flex_r,flex_p,accel_x,accel_y,accel_z,gyro_x,gyro_y,gyro_z,hand,sign
3125.0,3438.0,3120.0,4070.0,3795.0,3133.0,3182.0,2304.0,0.36,9.88,2.11,-0.15,-0.02,-0.01,1.0,a
3127.0,3438.0,3123.0,4074.0,3808.0,3138.0,3189.0,2298.0,0.55,9.82,2.45,-0.11,-0.0,-0.05,1.0,a
3107.0,3421.0,3115.0,4062.0,3805.0,3137.0,3184.0,2289.0,0.35,9.84,2.18,-0.14,0.02,0.02,1.0,a
3119.0,3440.0,3127.0,4094.0,3824.0,3149.0,3188.0,2320.0,0.68,9.75,2.84,-0.08,-0.05,-0.08,1.0,a
3115.0,3421.0,3116.0,4071.0,3809.0,3145.0,3187.0,2587.0,0.23,9.78,2.27,-0.06,-0.03,-0.02,1.0,a
3120.0,3448.0,3117.0,4087.0,3825.0,3145.0,3189.0,2613.0,0.67,9.76,2.79,-0.04,-0.07,-0.09,1.0,a
3125.0,3432.0,3123.0,4095.0,3833.0,3152.0,3195.0,2593.0,0.12,9.9,1.84,-0.03,-0.01,-0.1,1.0,a
3109.0,3423.0,3111.0,4061.0,3819.0,3145.0,3184.0,2640.0,0.5,9.79,2.69,-0.09,-0.07,-0.1,1.0,a
3130.0,3439.0,3122.0,4060.0,3825.0,3152.0,3193.0,2646.0,0.05,9.89,1.77,-0.03,0.01,-0.1,1.0,a
3120.0,3437.0,3117.0,4090.0,3797.0,3136.0,3184.0,2659.0,0.41,9.89,2.5,-0.15,-0.06,-0.11,1.0,a
3120.0,3439.0,3120.0,4095.0,3821.0,3148.0,3185.0,2683.0,-0.02,9.77,2.45,-0.01,-0.03,-0.14,1.0,a
3118.0,3446.0,3119.0,4075.0,3803.0,3137.0,3177.0,2658.0,-0.15,9.81,2.1,-0.11,0.04,0.03,1.0,a
3121.0,3447.0,3120.0,4093.0,3812.0,3141.0,3184.0,2672.0,0.24,9.79,2.51,-0.07,0.03,0.0,1.0,a
3120.0,3439.0,3120.0,4080.0,3815.0,3136.0,3187.0,2678.0,0.15,9.84,2.06,-0.08,0.03,0.0,1.0,a
3113.0,3439.0,3117.0,4078.0,3811.0,3151.0,3188.0,2682.0,0.35,9.83,2.7,-0.15,0.06,-0.01,1.0,a
3124.0,3443.0,3120.0,4095.0,3824.0,3143.0,3175.0,2678.0,0.18,9.74,2.68,0.05,0.09,-0.08,1.0,a
3118.0,3453.0,3129.0,4095.0,3842.0,3161.0,3200.0,2677.0,0.0,9.93,1.71,0.08,0.08,0.08,1.0,a
3127.0,3441.0,3119.0,4095.0,3857.0,3157.0,3200.0,2698.0,0.32,9.88,2.03,-0.12,0.07,-0.02,1.0,a
3120.0,3443.0,3117.0,4095.0,3825.0,3152.0,3187.0,2695.0,0.3,9.8,2.45,-0.1,0.06,0.03,1.0,a
3120.0,3429.0,3120.0,4095.0,3840.0,3159.0,3200.0,2705.0,0.39,9.9,2.31,-0.03,0.07,-0.0,1.0,a
3105.0,3422.0,3115.0,4095.0,3829.0,3152.0,3191.0,2694.0,0.4,9.76,2.63,-0.14,-0.01,0.0,1.0,a
3120.0,3439.0,3123.0,4095.0,3825.0,3155.0,3198.0,2704.0,0.58,9.88,2.28,0.03,0.12,-0.05,1.0,a
3104.0,3429.0,3120.0,4095.0,3829.0,3152.0,3195.0,2701.0,0.17,9.85,2.19,-0.17,-0.03,-0.01,1.0,a
3126.0,3442.0,3125.0,4095.0,3858.0,3163.0,3200.0,2709.0,0.61,9.84,2.61,-0.02,0.1,0.04,1.0,a
3121.0,3429.0,3120.0,4095.0,3840.0,3155.0,3206.0,2710.0,0.52,9.97,2.01,-0.21,0.11,0.06,1.0,a
3123.0,3441.0,3118.0,4095.0,3824.0,3152.0,3194.0,2697.0,0.81,9.48,3.52,-0.06,-0.09,-0.05,1.0,a
3120.0,3446.0,3122.0,4095.0,3856.0,3165.0,3202.0,2703.0,0.12,9.84,2.07,-0.12,0.02,-0.02,1.0,a
3121.0,3440.0,3104.0,4095.0,3833.0,3152.0,3195.0,2710.0,0.68,9.53,3.56,-0.12,-0.05,-0.01,1.0,a
3121.0,3447.0,3120.0,4095.0,3844.0,3159.0,3200.0,2719.0,0.4,9.79,2.22,-0.09,0.06,-0.02,1.0,a
3107.0,3433.0,3117.0,4095.0,3845.0,3159.0,3199.0,2710.0,0.86,9.64,3.45,-0.08,-0.07,-0.09,1.0,a
3139.0,3440.0,3120.0,4095.0,3847.0,3165.0,3201.0,2709.0,0.23,9.79,2.23,-0.01,0.09,-0.02,1.0,a
3107.0,3440.0,3119.0,4095.0,3834.0,3152.0,3198.0,2721.0,0.67,9.72,3.0,-0.14,-0.03,-0.03,1.0,a
3122.0,3445.0,3121.0,4095.0,3859.0,3168.0,3205.0,2726.0,0.5,9.73,2.83,0.03,0.06,-0.05,1.0,a
3114.0,3436.0,3110.0,4095.0,3828.0,3158.0,3202.0,2723.0,0.34,9.74,2.57,-0.14,-0.07,-0.01,1.0,a
3121.0,3456.0,3126.0,4095.0,3856.0,3165.0,3207.0,2730.0,0.67,9.55,3.37,-0.04,-0.03,-0.06,1.0,a
3123.0,3440.0,3109.0,4095.0,3845.0,3157.0,3199.0,2715.0,0.18,9.73,2.45,-0.12,0.09,0.0,1.0,a
3120.0,3441.0,3125.0,4095.0,3850.0,3155.0,3193.0,2717.0,0.66,9.63,3.24,-0.08,0.02,-0.03,1.0,a
3123.0,3443.0,3116.0,4095.0,3854.0,3152.0,3202.0,2733.0,0.39,9.75,2.69,-0.08,0.09,0.01,1.0,a
3120.0,3440.0,3117.0,4095.0,3856.0,3161.0,3201.0,2714.0,0.73,9.7,3.06,-0.07,0.02,-0.02,1.0,a
3120.0,3441.0,3130.0,4095.0,3845.0,3162.0,3201.0,2725.0,0.4,9.73,2.73,-0.09,0.06,-0.02,1.0,a
3119.0,3440.0,3106.0,4087.0,3857.0,3166.0,3205.0,2715.0,0.45,9.62,3.1,-0.05,-0.04,-0.05,1.0,a
3122.0,3445.0,3126.0,4095.0,3863.0,3167.0,3211.0,2736.0,0.52,9.73,2.74,-0.06,-0.01,-0.05,1.0,a
3122.0,3445.0,3111.0,4086.0,3846.0,3152.0,3200.0,2731.0,0.59,9.67,3.13,-0.05,-0.09,-0.09,1.0,a
3126.0,3451.0,3120.0,4095.0,3866.0,3171.0,3201.0,2722.0,0.38,9.74,2.7,-0.1,-0.04,-0.06,1.0,a
3115.0,3440.0,3120.0,4095.0,3854.0,3165.0,3210.0,2720.0,0.66,9.61,3.42,-0.07,-0.14,-0.08,1.0,a
3110.0,3445.0,3120.0,4095.0,3854.0,3164.0,3201.0,2718.0,0.24,9.72,2.68,-0.05,0.05,-0.07,1.0,a
3126.0,3454.0,3124.0,4095.0,3864.0,3166.0,3209.0,2733.0,0.81,9.76,3.0,-0.08,-0.04,-0.14,1.0,a
3120.0,3447.0,3122.0,4095.0,3847.0,3164.0,3203.0,2731.0,0.06,9.73,2.58,-0.11,-0.03,-0.15,1.0,a
3130.0,3442.0,3123.0,4095.0,3872.0,3165.0,3210.0,2736.0,0.41,9.73,2.95,-0.15,-0.07,-0.12,1.0,a
3121.0,3446.0,3122.0,4095.0,3844.0,3163.0,3201.0,2736.0,0.0,9.63,2.9,-0.25,-0.0,-0.11,1.0,a
3120.0,3466.0,3122.0,4095.0,3875.0,3163.0,3203.0,2726.0,0.25,9.52,3.62,-0.28,-0.06,-0.1,1.0,a
3120.0,3442.0,3123.0,4095.0,3854.0,3167.0,3199.0,2730.0,-0.22,9.42,3.59,-0.19,0.06,-0.09,1.0,a
3127.0,3472.0,3125.0,4095.0,3856.0,3174.0,3210.0,2736.0,0.3,9.48,3.78,-0.17,-0.04,-0.08,1.0,a
3119.0,3440.0,3115.0,4095.0,3858.0,3169.0,3203.0,2745.0,-0.26,9.42,3.55,-0.18,0.03,-0.11,1.0,a
3130.0,3461.0,3121.0,4095.0,3862.0,3173.0,3210.0,2752.0,0.1,9.34,4.02,-0.18,-0.08,-0.03,1.0,a
3122.0,3440.0,3115.0,4095.0,3856.0,3157.0,3209.0,2748.0,-0.06,9.35,3.95,-0.15,0.01,-0.1,1.0,a
3118.0,3440.0,3119.0,4095.0,3861.0,3169.0,3203.0,2739.0,-0.16,9.34,3.86,-0.22,-0.03,-0.05,1.0,a
3121.0,3452.0,3122.0,4095.0,3869.0,3182.0,3207.0,2752.0,0.04,9.19,4.41,-0.22,-0.02,-0.1,1.0,a
3123.0,3449.0,3117.0,4095.0,3861.0,3174.0,3211.0,2741.0,-0.44,9.04,4.45,-0.2,-0.02,-0.07,1.0,a
3120.0,3451.0,3127.0,4095.0,3865.0,3158.0,3210.0,2749.0,-0.23,9.06,4.65,-0.17,0.01,-0.05,1.0,a
3123.0,3467.0,3123.0,4095.0,3879.0,3171.0,3203.0,2747.0,-0.36,8.5,5.37,-0.19,0.06,0.04,1.0,a
3127.0,3449.0,3120.0,4095.0,3850.0,3169.0,3212.0,2745.0,0.22,8.46,5.94,-0.17,-0.02,0.03,1.0,a
3121.0,3455.0,3121.0,4095.0,3875.0,3174.0,3216.0,2741.0,-0.17,8.42,5.56,-0.15,0.05,0.07,1.0,a
3114.0,3455.0,3106.0,4095.0,3860.0,3163.0,3214.0,2734.0,0.25,8.37,6.06,-0.15,-0.02,0.07,1.0,a
3129.0,3447.0,3125.0,4095.0,3871.0,3169.0,3209.0,2742.0,0.08,8.36,5.63,-0.11,0.05,0.07,1.0,a
3120.0,3453.0,3114.0,4095.0,3871.0,3167.0,3206.0,2737.0,0.39,8.27,6.11,-0.13,0.03,0.07,1.0,a
3117.0,3455.0,3121.0,4095.0,3885.0,3181.0,3215.0,2739.0,0.09,8.26,5.68,-0.09,0.11,0.08,1.0,a
3118.0,3451.0,3120.0,4095.0,3862.0,3170.0,3205.0,2741.0,0.68,8.24,6.27,-0.09,0.01,0.1,1.0,a
3136.0,3462.0,3125.0,4095.0,3890.0,3184.0,3206.0,2736.0,0.44,8.26,5.71,-0.04,0.06,0.08,1.0,a
3115.0,3456.0,3113.0,4095.0,3856.0,3171.0,3214.0,2736.0,0.91,8.31,6.03,-0.09,0.02,0.05,1.0,a
3126.0,3469.0,3123.0,4095.0,3877.0,3174.0,3213.0,2738.0,0.53,8.26,5.94,-0.08,0.05,0.02,1.0,a
3118.0,3446.0,3120.0,4095.0,3871.0,3184.0,3219.0,2746.0,0.82,8.21,6.25,-0.05,-0.03,0.03,1.0,a
3119.0,3449.0,3120.0,4095.0,3877.0,3169.0,3210.0,2727.0,0.55,8.22,5.92,-0.01,0.05,0.06,1.0,a
3120.0,3453.0,3123.0,4095.0,3899.0,3184.0,3214.0,2733.0,1.02,8.26,6.08,-0.01,-0.0,0.07,1.0,a
3111.0,3458.0,3120.0,4095.0,3873.0,3167.0,3207.0,2735.0,0.88,8.32,5.78,-0.01,0.05,0.03,1.0,a
3131.0,3458.0,3122.0,4095.0,3884.0,3184.0,3214.0,2735.0,1.18,8.3,6.07,0.03,-0.05,-0.01,1.0,a
3119.0,3445.0,3120.0,4095.0,3873.0,3174.0,3216.0,2731.0,0.61,8.36,5.59,0.09,0.06,0.03,1.0,a
3113.0,3463.0,3133.0,4095.0,3884.0,3183.0,3216.0,2735.0,1.19,8.51,5.56,0.09,0.02,0.09,1.0,a
3120.0,3453.0,3120.0,4095.0,3874.0,3175.0,3210.0,2739.0,1.19,8.65,5.25,0.08,0.04,0.04,1.0,a
3120.0,3471.0,3120.0,4095.0,3895.0,3183.0,3218.0,2751.0,1.33,8.65,5.23,0.03,-0.02,0.02,1.0,a
3123.0,3456.0,3115.0,4095.0,3893.0,3184.0,3216.0,2753.0,1.41,8.97,4.69,0.05,0.04,-0.01,1.0,a
3115.0,3457.0,3119.0,4095.0,3861.0,3171.0,3210.0,2751.0,1.55,9.01,4.62,0.03,0.0,0.03,1.0,a
3132.0,3462.0,3123.0,4095.0,3904.0,3184.0,3226.0,2751.0,1.56,9.05,4.61,0.05,-0.01,-0.05,1.0,a
3115.0,3440.0,3120.0,4095.0,3888.0,3177.0,3216.0,2747.0,1.36,9.05,4.39,0.03,-0.0,0.01,1.0,a
3119.0,3461.0,3125.0,4095.0,3901.0,3181.0,3216.0,2766.0,1.62,9.09,4.54,0.03,-0.01,-0.05,1.0,a
3114.0,3454.0,3108.0,4095.0,3890.0,3167.0,3216.0,2751.0,1.44,9.13,4.27,0.01,-0.01,-0.02,1.0,a
3131.0,3458.0,3125.0,4095.0,3893.0,3183.0,3226.0,2762.0,1.6,9.14,4.42,0.04,-0.06,-0.08,1.0,a
3126.0,3449.0,3108.0,4095.0,3874.0,3171.0,3221.0,2753.0,1.49,9.18,4.19,0.05,-0.02,-0.06,1.0,a
3135.0,3472.0,3133.0,4095.0,3890.0,3174.0,3213.0,2753.0,1.69,9.24,4.22,0.07,-0.08,-0.11,1.0,a
3120.0,3450.0,3118.0,4095.0,3893.0,3186.0,3225.0,2751.0,1.36,9.31,3.82,0.07,-0.03,-0.1,1.0,a
3122.0,3455.0,3113.0,4095.0,3886.0,3175.0,3215.0,2746.0,1.39,9.35,3.82,0.03,-0.08,-0.1,1.0,a
3134.0,3462.0,3122.0,4095.0,3909.0,3184.0,3217.0,2755.0,1.24,9.35,3.67,0.0,-0.0,-0.07,1.0,a
3113.0,3450.0,3117.0,4095.0,3877.0,3177.0,3218.0,2758.0,1.32,9.38,3.8,-0.02,-0.01,-0.08,1.0,a
3123.0,3456.0,3119.0,4095.0,3892.0,3184.0,3226.0,2766.0,1.28,9.41,3.62,0.0,0.0,-0.04,1.0,a
3120.0,3447.0,3120.0,4095.0,3878.0,3178.0,3219.0,2763.0,1.52,9.49,3.6,0.0,-0.07,-0.09,1.0,a
3123.0,3470.0,3120.0,4095.0,3888.0,3184.0,3229.0,2768.0,1.23,9.42,3.56,0.0,-0.03,-0.13,1.0,a
3120.0,3454.0,3118.0,4095.0,3877.0,3173.0,3222.0,2762.0,1.19,9.49,3.5,0.01,-0.07,-0.14,1.0,a
3113.0,3456.0,3119.0,4095.0,3888.0,3184.0,3230.0,2757.0,0.85,9.5,3.25,0.02,-0.01,-0.12,1.0,a
3125.0,3462.0,3119.0,4095.0,3887.0,3183.0,3217.0,2751.0,1.19,9.62,3.24,0.01,-0.05,-0.1,1.0,a
3130.0,3447.0,3126.0,4095.0,3903.0,3184.0,3227.0,2764.0,1.02,9.62,3.09,0.0,-0.05,-0.12,1.0,a
3123.0,3450.0,3121.0,4095.0,3888.0,3185.0,3227.0,2768.0,0.62,9.71,3.06,-0.01,-0.11,-0.17,1.0,a
3120.0,3439.0,3115.0,4095.0,3893.0,3185.0,3216.0,2762.0,0.17,9.65,3.02,-0.0,-0.05,-0.18,1.0,a
3134.0,3465.0,3123.0,4095.0,3891.0,3190.0,3226.0,2768.0,-0.01,9.66,2.73,-0.04,-0.02,-0.14,1.0,a
3117.0,3455.0,3119.0,4095.0,3899.0,3184.0,3215.0,2755.0,0.18,9.75,2.85,-0.02,-0.08,-0.12,1.0,a
3123.0,3469.0,3123.0,4095.0,3904.0,3187.0,3232.0,2769.0,0.29,9.76,2.75,-0.02,-0.11,-0.16,1.0,a
3117.0,3456.0,3120.0,4095.0,3892.0,3182.0,3216.0,2759.0,-0.09,9.75,2.65,-0.08,-0.16,-0.24,1.0,a
3113.0,3455.0,3121.0,4095.0,3888.0,3177.0,3215.0,2759.0,-0.29,9.66,2.87,-0.09,-0.14,-0.27,1.0,a
3120.0,3465.0,3124.0,4095.0,3915.0,3191.0,3229.0,2774.0,-0.93,9.5,3.03,-0.03,-0.08,-0.22,1.0,a
3120.0,3455.0,3124.0,4095.0,3888.0,3178.0,3216.0,2758.0,-0.66,9.71,2.66,0.01,-0.1,-0.11,1.0,a
3127.0,3484.0,3119.0,4095.0,3888.0,3191.0,3223.0,2769.0,-0.45,9.75,2.64,0.01,-0.07,-0.12,1.0,a
3125.0,3456.0,3117.0,4095.0,3861.0,3181.0,3218.0,2768.0,-0.68,9.71,2.62,-0.04,-0.06,-0.14,1.0,a
3123.0,3468.0,3118.0,4095.0,3895.0,3185.0,3222.0,2767.0,-0.73,9.79,2.41,-0.06,-0.01,-0.15,1.0,a
3118.0,3440.0,3117.0,4095.0,3884.0,3184.0,3222.0,2758.0,-0.7,9.7,2.68,-0.12,-0.12,-0.16,1.0,a
3123.0,3458.0,3129.0,4095.0,3892.0,3191.0,3231.0,2768.0,-0.98,9.58,3.01,-0.12,-0.07,-0.17,1.0,a
3119.0,3454.0,3116.0,4095.0,3891.0,3185.0,3216.0,2765.0,-1.12,9.58,2.78,-0.11,0.02,-0.12,1.0,a
3126.0,3469.0,3120.0,4095.0,3907.0,3194.0,3229.0,2779.0,-1.21,9.57,2.82,-0.15,0.0,-0.12,1.0,a
3120.0,3457.0,3120.0,4095.0,3898.0,3184.0,3222.0,2762.0,-1.27,9.51,3.16,-0.18,-0.02,-0.09,1.0,a
3126.0,3472.0,3127.0,4095.0,3889.0,3182.0,3218.0,2762.0,-1.17,9.4,3.59,-0.12,-0.03,-0.13,1.0,a
3120.0,3469.0,3122.0,4095.0,3903.0,3184.0,3218.0,2770.0,-1.43,9.46,3.15,-0.1,-0.02,-0.09,1.0,a
3115.0,3459.0,3114.0,4095.0,3888.0,3195.0,3222.0,2790.0,-1.44,9.42,3.3,-0.1,0.0,-0.09,1.0,a
3114.0,3449.0,3121.0,4095.0,3895.0,3186.0,3225.0,2781.0,-1.5,9.33,3.47,-0.12,0.01,-0.1,1.0,a
3120.0,3470.0,3125.0,4095.0,3893.0,3186.0,3227.0,2773.0,-1.62,9.29,3.55,-0.13,0.03,-0.09,1.0,a
3117.0,3451.0,3115.0,4095.0,3901.0,3191.0,3231.0,2776.0,-1.52,9.28,3.65,-0.13,-0.01,-0.07,1.0,a
3126.0,3472.0,3130.0,4095.0,3920.0,3191.0,3226.0,2768.0,-1.83,9.22,3.74,-0.11,0.02,-0.07,1.0,a
3119.0,3453.0,3111.0,4095.0,3887.0,3183.0,3225.0,2777.0,-1.44,9.28,3.6,-0.13,-0.01,-0.06,1.0,a
3124.0,3470.0,3122.0,4095.0,3917.0,3189.0,3230.0,2791.0,-1.92,9.08,3.81,-0.23,0.03,-0.07,1.0,a
3116.0,3467.0,3127.0,4095.0,3905.0,3205.0,3238.0,2781.0,-1.7,9.01,4.31,-0.19,-0.0,-0.04,1.0,a
3119.0,3456.0,3126.0,4095.0,3914.0,3184.0,3217.0,2786.0,-1.83,9.01,4.14,-0.11,0.02,-0.07,1.0,a
3114.0,3455.0,3121.0,4095.0,3915.0,3199.0,3240.0,2778.0,-1.62,9.01,4.28,-0.11,-0.02,-0.04,1.0,a
3116.0,3458.0,3120.0,4095.0,3902.0,3184.0,3219.0,2779.0,-1.93,8.98,4.07,-0.1,0.03,-0.04,1.0,a
3120.0,3473.0,3123.0,4095.0,3908.0,3195.0,3235.0,2776.0,-1.69,8.97,4.27,-0.12,-0.0,-0.02,1.0,a
3120.0,3450.0,3108.0,4095.0,3898.0,3189.0,3229.0,2767.0,-1.87,8.95,4.25,-0.1,0.04,-0.03,1.0,a
3127.0,3469.0,3124.0,4095.0,3909.0,3197.0,3223.0,2771.0,-1.67,8.99,4.28,-0.13,-0.01,-0.02,1.0,a
3119.0,3467.0,3125.0,4095.0,3907.0,3187.0,3220.0,2768.0,-1.85,8.94,4.23,-0.11,0.04,-0.04,1.0,a
3133.0,3477.0,3122.0,4095.0,3903.0,3191.0,3223.0,2768.0,-1.75,8.91,4.41,-0.15,0.01,-0.0,1.0,a
3125.0,3452.0,3118.0,4095.0,3898.0,3186.0,3227.0,2782.0,-1.84,8.85,4.41,-0.12,0.05,-0.01,1.0,a
3136.0,3467.0,3122.0,4095.0,3915.0,3195.0,3243.0,2783.0,-1.6,8.87,4.56,-0.14,0.02,0.02,1.0,a
3120.0,3454.0,3117.0,4095.0,3895.0,3195.0,3231.0,2783.0,-1.82,8.78,4.58,-0.12,0.04,-0.01,1.0,a
3120.0,3469.0,3120.0,4095.0,3896.0,3185.0,3223.0,2768.0,-1.62,8.82,4.69,-0.13,0.01,0.03,1.0,a
3124.0,3473.0,3129.0,4095.0,3903.0,3195.0,3240.0,2784.0,-1.65,8.76,4.73,-0.12,0.04,0.01,1.0,a
3121.0,3456.0,3120.0,4095.0,3917.0,3198.0,3234.0,2770.0,-1.36,8.73,4.92,-0.08,-0.03,-0.0,1.0,a
3118.0,3476.0,3125.0,4095.0,3919.0,3201.0,3246.0,2781.0,-1.36,8.74,4.99,-0.08,0.02,-0.03,1.0,a
3125.0,3463.0,3115.0,4095.0,3930.0,3189.0,3225.0,2765.0,-1.65,8.71,4.87,-0.13,0.03,0.02,1.0,a
3125.0,3466.0,3125.0,4095.0,3905.0,3199.0,3230.0,2767.0,-1.51,8.64,5.08,-0.08,0.06,0.03,1.0,a
3121.0,3478.0,3124.0,4095.0,3904.0,3198.0,3235.0,2777.0,-1.21,8.78,4.89,-0.11,0.01,0.07,1.0,a
3115.0,3467.0,3119.0,4095.0,3888.0,3190.0,3222.0,2765.0,-1.1,8.67,5.25,-0.06,0.01,-0.0,1.0,a
3136.0,3473.0,3136.0,4095.0,3916.0,3198.0,3231.0,2768.0,-1.3,8.71,4.92,-0.08,0.01,0.03,1.0,a
3119.0,3461.0,3111.0,4095.0,3892.0,3191.0,3227.0,2767.0,-1.15,8.63,5.22,-0.06,0.0,0.0,1.0,a
3120.0,3467.0,3129.0,4095.0,3927.0,3206.0,3247.0,2768.0,-1.29,8.69,5.01,-0.07,0.04,0.06,1.0,a
3119.0,3447.0,3111.0,4095.0,3915.0,3199.0,3232.0,2766.0,-1.02,8.68,5.18,-0.07,0.01,0.07,1.0,a
3123.0,3475.0,3135.0,4095.0,3911.0,3194.0,3232.0,2787.0,-0.89,8.72,5.06,-0.08,0.02,0.07,1.0,a
3127.0,3470.0,3117.0,4095.0,3899.0,3185.0,3230.0,2771.0,-0.72,8.71,5.28,-0.06,0.01,0.05,1.0,a
3123.0,3471.0,3127.0,4095.0,3927.0,3211.0,3245.0,2771.0,-0.85,8.73,5.07,-0.06,0.01,0.09,1.0,a
3120.0,3459.0,3126.0,4095.0,3893.0,3203.0,3223.0,2768.0,-0.69,8.71,5.18,-0.07,-0.02,0.11,1.0,a
3120.0,3467.0,3118.0,4095.0,3909.0,3201.0,3238.0,2777.0,-0.39,8.75,5.17,-0.04,0.0,0.05,1.0,a
3109.0,3467.0,3119.0,4095.0,3918.0,3205.0,3239.0,2786.0,-0.25,8.77,5.26,-0.02,-0.02,-0.02,1.0,a
3119.0,3446.0,3120.0,4095.0,3907.0,3197.0,3235.0,2775.0,-0.63,8.83,4.89,-0.05,-0.01,0.01,1.0,a
3130.0,3459.0,3125.0,4095.0,3914.0,3209.0,3239.0,2794.0,-0.29,8.78,5.31,-0.07,-0.02,0.03,1.0,a
3122.0,3458.0,3120.0,4095.0,3899.0,3186.0,3231.0,2765.0,-0.48,8.72,5.21,-0.01,0.05,0.04,1.0,a
3119.0,3473.0,3119.0,4095.0,3911.0,3205.0,3242.0,2778.0,-0.14,8.82,5.2,0.03,0.01,-0.01,1.0,a
3127.0,3468.0,3129.0,4095.0,3931.0,3215.0,3241.0,2801.0,-0.22,9.06,4.61,0.0,-0.02,-0.04,1.0,a
3120.0,3459.0,3115.0,4095.0,3905.0,3193.0,3233.0,2805.0,-0.45,9.11,4.41,0.06,0.0,-0.05,1.0,a
3117.0,3467.0,3116.0,4095.0,3911.0,3206.0,3231.0,2782.0,-0.21,9.24,4.12,0.05,-0.04,-0.04,1.0,a
3119.0,3465.0,3120.0,4095.0,3923.0,3205.0,3236.0,2795.0,-0.3,9.26,4.1,0.09,-0.1,-0.09,1.0,a
3120.0,3456.0,3120.0,4095.0,3911.0,3191.0,3228.0,2800.0,-0.17,9.35,3.94,0.01,-0.04,-0.09,1.0,a
3133.0,3475.0,3132.0,4095.0,3920.0,3207.0,3253.0,2815.0,-0.37,9.28,4.13,-0.01,-0.01,-0.13,1.0,a
3121.0,3469.0,3115.0,4095.0,3904.0,3191.0,3234.0,2805.0,-0.41,9.33,3.94,0.07,-0.08,-0.13,1.0,a
3130.0,3472.0,3122.0,4095.0,3918.0,3201.0,3242.0,2811.0,-0.59,9.33,3.92,0.08,-0.01,-0.1,1.0,a
3125.0,3472.0,3124.0,4095.0,3905.0,3193.0,3232.0,2809.0,-0.61,9.42,3.57,0.09,-0.03,-0.08,1.0,a
3126.0,3470.0,3117.0,4095.0,3918.0,3210.0,3246.0,2807.0,-0.52,9.48,3.48,0.1,-0.07,-0.13,1.0,a
3125.0,3467.0,3118.0,4095.0,3927.0,3199.0,3232.0,2810.0,-0.79,9.54,3.22,0.09,-0.05,-0.1,1.0,a
3125.0,3472.0,3117.0,4095.0,3923.0,3201.0,3246.0,2811.0,-0.66,9.57,3.15,0.09,-0.1,-0.12,1.0,a
3127.0,3457.0,3122.0,4095.0,3903.0,3199.0,3234.0,2803.0,-0.78,9.6,2.94,0.04,-0.04,-0.08,1.0,a
3126.0,3454.0,3120.0,4095.0,3931.0,3216.0,3243.0,2805.0,-0.62,9.61,3.01,0.03,-0.05,-0.1,1.0,a
3136.0,3469.0,3127.0,4095.0,3910.0,3199.0,3246.0,2815.0,-0.91,9.61,2.82,-0.01,-0.0,-0.09,1.0,a
3121.0,3459.0,3115.0,4095.0,3904.0,3203.0,3237.0,2814.0,-0.89,9.62,2.93,0.02,-0.06,-0.14,1.0,a
3121.0,3466.0,3120.0,4095.0,3931.0,3206.0,3248.0,2822.0,-1.1,9.64,2.74,-0.01,-0.06,-0.12,1.0,a
3107.0,3467.0,3119.0,4095.0,3917.0,3206.0,3239.0,2814.0,-0.98,9.6,2.89,-0.01,-0.08,-0.11,1.0,a
3120.0,3475.0,3123.0,4095.0,3933.0,3219.0,3244.0,2817.0,-1.24,9.59,2.74,-0.03,-0.0,-0.08,1.0,a
3123.0,3467.0,3119.0,4095.0,3918.0,3205.0,3231.0,2811.0,-1.24,9.61,2.83,-0.02,-0.0,-0.07,1.0,a
3119.0,3459.0,3120.0,4095.0,3918.0,3203.0,3242.0,2818.0,-1.02,9.71,2.54,-0.12,0.1,0.11,1.0,a
3113.0,3459.0,3125.0,4095.0,3933.0,3213.0,3248.0,2815.0,-0.98,9.66,2.74,-0.08,0.1,0.05,1.0,a
3115.0,3455.0,3119.0,4095.0,3913.0,3202.0,3237.0,2805.0,-0.71,9.65,2.84,-0.08,-0.0,-0.02,1.0,a
3121.0,3477.0,3121.0,4095.0,3934.0,3213.0,3244.0,2807.0,-1.0,9.69,2.63,-0.09,0.04,0.01,1.0,a
3119.0,3469.0,3114.0,4077.0,3917.0,3205.0,3231.0,2806.0,-1.28,9.48,3.14,-0.08,-0.07,-0.06,1.0,a
3129.0,3473.0,3129.0,4086.0,3931.0,3209.0,3241.0,2815.0,-0.93,9.76,2.33,-0.18,-0.01,0.05,1.0,a
3113.0,3469.0,3115.0,4063.0,3921.0,3205.0,3239.0,2817.0,-0.56,9.33,4.13,-0.2,-0.03,0.0,1.0,a
3133.0,3472.0,3132.0,4075.0,3918.0,3203.0,3249.0,2825.0,-0.91,9.71,2.72,-0.08,0.15,-0.04,1.0,a
3122.0,3471.0,3125.0,4071.0,3898.0,3202.0,3235.0,2807.0,-0.91,9.46,3.49,-0.11,0.07,-0.03,1.0,a
3118.0,3471.0,3118.0,4074.0,3932.0,3210.0,3248.0,2807.0,-0.94,9.62,2.9,0.06,-0.08,-0.02,1.0,a
3120.0,3461.0,3111.0,4032.0,3914.0,3206.0,3245.0,2798.0,-0.97,9.61,2.9,-0.11,-0.05,0.01,1.0,a
3124.0,3467.0,3119.0,4032.0,3911.0,3210.0,3248.0,2810.0,-0.27,9.66,3.33,-0.08,0.02,0.02,1.0,a
3113.0,3472.0,3122.0,4022.0,3920.0,3201.0,3247.0,2815.0,-0.74,9.66,2.8,-0.07,-0.12,-0.19,1.0,a
3120.0,3471.0,3118.0,4020.0,3897.0,3201.0,3239.0,2793.0,-1.19,9.52,3.03,-0.17,-0.01,0.11,1.0,a
3121.0,3467.0,3123.0,4051.0,3914.0,3209.0,3246.0,2800.0,-0.4,9.4,3.85,-0.17,0.12,-0.09,1.0,a
3120.0,3457.0,3115.0,4037.0,3888.0,3197.0,3244.0,2781.0,-1.24,9.34,3.77,-0.04,-0.15,-0.09,1.0,a
3126.0,3472.0,3127.0,4079.0,3923.0,3210.0,3245.0,2789.0,-0.97,9.56,2.97,-0.05,0.09,0.1,1.0,a
3120.0,3473.0,3119.0,4048.0,3913.0,3201.0,3234.0,2783.0,-0.97,9.44,3.4,-0.12,0.21,0.12,1.0,a
3130.0,3482.0,3127.0,4058.0,3923.0,3207.0,3250.0,2793.0,-0.18,9.5,3.79,-0.05,-0.04,0.1,1.0,a
3122.0,3469.0,3118.0,4041.0,3905.0,3200.0,3233.0,2799.0,-0.03,9.62,3.21,-0.0,0.09,-0.0,1.0,a
3113.0,1535.0,3360.0,3469.0,3913.0,3242.0,3149.0,2290.0,-0.6,9.85,2.13,-0.09,-0.0,-0.02,1.0,a
3131.0,1535.0,3364.0,3498.0,3920.0,3248.0,3161.0,2306.0,-0.46,9.83,2.28,0.03,-0.23,-0.06,1.0,a
3120.0,1535.0,3355.0,3515.0,3910.0,3258.0,3155.0,2288.0,-0.93,9.77,2.26,-0.13,-0.13,-0.08,1.0,a
3130.0,1553.0,3349.0,3513.0,3909.0,3253.0,3159.0,2270.0,-0.84,9.77,2.24,-0.06,-0.15,0.01,1.0,a
3129.0,1555.0,3371.0,3530.0,3927.0,3262.0,3163.0,2266.0,-0.11,9.87,2.27,-0.11,-0.27,-0.02,1.0,a
3121.0,1558.0,3357.0,3525.0,3929.0,3263.0,3166.0,2258.0,-0.22,9.8,2.59,-0.33,-0.13,-0.14,1.0,a
3136.0,1567.0,3367.0,3546.0,3945.0,3277.0,3167.0,2287.0,-0.78,9.53,3.19,-0.31,-0.06,-0.22,1.0,a
3121.0,1559.0,3353.0,3531.0,3922.0,3265.0,3162.0,2267.0,-1.21,9.41,3.28,-0.25,-0.05,-0.16,1.0,a
3123.0,1559.0,3370.0,3551.0,3947.0,3280.0,3175.0,2279.0,-1.21,9.37,3.48,-0.23,-0.0,-0.07,1.0,a
3120.0,1562.0,3355.0,3553.0,3931.0,3271.0,3166.0,2275.0,-0.85,9.46,3.56,-0.06,-0.06,-0.05,1.0,a
3130.0,1559.0,3361.0,3553.0,3929.0,3265.0,3178.0,2246.0,-1.17,9.45,3.25,-0.04,0.0,-0.04,1.0,a
3124.0,1566.0,3354.0,3567.0,3934.0,3267.0,3165.0,2288.0,-0.93,9.55,3.25,-0.12,0.02,-0.04,1.0,a
3136.0,1562.0,3373.0,3583.0,3939.0,3278.0,3179.0,2277.0,-1.23,9.35,3.32,-0.24,0.04,0.0,1.0,a
3129.0,1563.0,3358.0,3583.0,3939.0,3270.0,3166.0,2310.0,-0.61,9.47,3.8,-0.24,-0.04,-0.05,1.0,a
3131.0,1553.0,3366.0,3599.0,3947.0,3275.0,3164.0,2320.0,-1.09,9.3,3.67,-0.25,-0.02,-0.07,1.0,a
3135.0,1535.0,3374.0,3611.0,3949.0,3277.0,3178.0,2320.0,-0.83,9.21,4.3,-0.29,-0.06,-0.08,1.0,a
3120.0,1535.0,3353.0,3605.0,3937.0,3266.0,3166.0,2333.0,-1.23,9.06,4.34,-0.28,-0.02,-0.06,1.0,a
3131.0,1535.0,3357.0,3627.0,3962.0,3281.0,3183.0,2333.0,-0.79,8.92,5.07,-0.2,-0.01,-0.03,1.0,a
3125.0,1530.0,3355.0,3621.0,3935.0,3275.0,3171.0,2285.0,-1.27,8.95,4.48,-0.12,-0.02,-0.06,1.0,a
3143.0,1535.0,3376.0,3648.0,3968.0,3270.0,3182.0,2290.0,-0.91,8.92,5.03,-0.09,-0.02,-0.04,1.0,a
3120.0,1535.0,3343.0,3645.0,3942.0,3269.0,3183.0,2258.0,-1.31,8.84,4.46,-0.09,0.04,0.03,1.0,a
3124.0,1535.0,3351.0,3645.0,3959.0,3281.0,3189.0,2272.0,-0.82,8.87,5.1,-0.04,0.03,0.01,1.0,a
3138.0,1535.0,3367.0,3651.0,3969.0,3285.0,3189.0,2256.0,-1.15,8.92,4.49,-0.02,0.03,0.02,1.0,a
3126.0,1535.0,3346.0,3649.0,3951.0,3277.0,3184.0,2473.0,-0.82,8.9,4.85,-0.07,0.04,0.0,1.0,a
3141.0,1535.0,3376.0,3663.0,3959.0,3280.0,3186.0,2495.0,-1.11,8.9,4.64,-0.03,0.03,0.02,1.0,a
3130.0,1535.0,3351.0,3642.0,3951.0,3282.0,3191.0,2556.0,-0.62,9.01,4.94,0.04,0.0,0.02,1.0,a
3122.0,1535.0,3377.0,3653.0,3967.0,3296.0,3202.0,2559.0,-1.08,9.0,4.23,0.05,0.1,0.02,1.0,a
3126.0,1535.0,3347.0,3636.0,3947.0,3281.0,3191.0,2554.0,-0.5,9.15,4.5,0.01,0.02,0.02,1.0,a
3135.0,1562.0,3376.0,3653.0,3974.0,3290.0,3193.0,2559.0,-1.08,9.07,4.09,0.01,0.1,0.03,1.0,a
3125.0,1557.0,3357.0,3632.0,3958.0,3293.0,3194.0,2559.0,-0.46,9.27,4.28,-0.02,0.08,0.03,1.0,a
3135.0,1560.0,3361.0,3648.0,3984.0,3295.0,3200.0,2583.0,-0.93,9.17,4.06,0.03,0.05,-0.02,1.0,a
3127.0,1569.0,3353.0,3648.0,3962.0,3285.0,3194.0,2559.0,-0.49,9.23,4.18,-0.01,0.07,0.03,1.0,a
3121.0,1567.0,3351.0,3648.0,3969.0,3294.0,3196.0,2597.0,-0.85,9.29,3.78,0.01,0.05,-0.02,1.0,a
3121.0,1581.0,3355.0,3637.0,3958.0,3298.0,3192.0,2604.0,-0.41,9.32,4.0,-0.02,0.01,0.0,1.0,a
3121.0,1583.0,3347.0,3639.0,3959.0,3286.0,3191.0,2598.0,-0.85,9.31,3.81,-0.02,0.04,-0.06,1.0,a
3126.0,1584.0,3344.0,3643.0,3973.0,3295.0,3198.0,2594.0,-0.67,9.35,3.79,-0.05,0.05,-0.02,1.0,a
3129.0,1571.0,3361.0,3635.0,3949.0,3286.0,3198.0,2609.0,-0.7,9.31,4.05,0.0,-0.0,-0.06,1.0,a
3134.0,1580.0,3370.0,3668.0,3979.0,3297.0,3195.0,2619.0,-0.85,9.32,3.81,0.01,0.01,-0.03,1.0,a
3123.0,1577.0,3359.0,3648.0,3958.0,3290.0,3189.0,2597.0,-0.57,9.39,3.87,0.04,0.04,-0.03,1.0,a
3137.0,1584.0,3359.0,3659.0,3975.0,3298.0,3202.0,2614.0,-0.86,9.39,3.44,0.03,0.02,-0.01,1.0,a
3133.0,1589.0,3366.0,3646.0,3987.0,3294.0,3207.0,2895.0,-0.71,9.85,2.18,-0.12,-0.05,-0.18,1.0,a
3136.0,1600.0,3350.0,3646.0,3969.0,3295.0,3205.0,2899.0,-1.38,9.61,2.56,-0.15,-0.05,-0.08,1.0,a
3121.0,1598.0,3372.0,3648.0,3982.0,3299.0,3205.0,2896.0,-1.09,9.6,2.84,-0.11,0.03,0.03,1.0,a
3129.0,1595.0,3353.0,3643.0,3967.0,3291.0,3200.0,2890.0,-0.6,9.75,2.62,-0.07,-0.01,-0.0,1.0,a
3131.0,1598.0,3365.0,3642.0,3982.0,3299.0,3216.0,2909.0,-0.65,9.79,2.62,-0.12,-0.07,-0.08,1.0,a
3129.0,1600.0,3366.0,3649.0,3978.0,3297.0,3206.0,2901.0,-0.98,9.65,2.8,-0.15,0.04,-0.13,1.0,a
3131.0,1597.0,3357.0,3655.0,3973.0,3301.0,3213.0,2907.0,-1.18,9.59,2.82,-0.13,0.03,-0.06,1.0,a
3120.0,1593.0,3359.0,3631.0,3963.0,3302.0,3207.0,2913.0,-1.13,9.58,2.9,-0.11,0.05,-0.01,1.0,a
3132.0,1600.0,3363.0,3643.0,3983.0,3297.0,3209.0,2907.0,-0.86,9.55,3.17,-0.07,0.02,-0.0,1.0,a
3127.0,1594.0,3349.0,3645.0,3964.0,3293.0,3211.0,2915.0,-1.04,9.64,2.83,-0.08,0.05,-0.0,1.0,a
3129.0,1600.0,3357.0,3659.0,4005.0,3307.0,3216.0,2917.0,-0.97,9.57,2.95,-0.05,-0.08,-0.07,1.0,a
3126.0,1591.0,3344.0,3639.0,3983.0,3303.0,3213.0,2922.0,-0.94,9.56,3.17,-0.01,-0.13,-0.08,1.0,a
3135.0,1605.0,3360.0,3648.0,3989.0,3312.0,3219.0,2930.0,-1.04,9.61,2.84,0.02,-0.01,-0.03,1.0,a
3122.0,1596.0,3346.0,3638.0,4000.0,3312.0,3215.0,2931.0,-0.76,9.72,2.63,-0.04,-0.03,-0.01,1.0,a
3130.0,1591.0,3355.0,3638.0,3961.0,3303.0,3210.0,2922.0,-0.71,9.69,2.89,-0.04,-0.1,-0.08,1.0,a
3141.0,1601.0,3365.0,3658.0,4001.0,3311.0,3213.0,2927.0,-0.87,9.59,3.15,-0.02,-0.0,-0.15,1.0,a
3128.0,1599.0,3356.0,3655.0,3968.0,3294.0,3213.0,2929.0,-1.21,9.63,2.69,0.04,0.03,-0.05,1.0,a
3135.0,1601.0,3365.0,3685.0,3984.0,3301.0,3215.0,2939.0,-1.0,9.68,2.74,0.02,0.0,-0.06,1.0,a
3129.0,1600.0,3363.0,3680.0,3990.0,3311.0,3220.0,2941.0,-0.9,9.81,2.42,0.01,-0.03,-0.14,1.0,a
3123.0,1591.0,3344.0,3668.0,3983.0,3307.0,3216.0,2932.0,-1.33,9.72,2.13,-0.03,0.01,-0.07,1.0,a
3138.0,1621.0,3374.0,3709.0,4016.0,3312.0,3227.0,2951.0,-0.68,9.19,4.23,0.16,0.03,0.05,1.0,a
3119.0,1623.0,3354.0,3694.0,3994.0,3315.0,3218.0,2945.0,-0.76,9.39,3.41,0.12,0.09,0.11,1.0,a
3127.0,1618.0,3360.0,3699.0,4029.0,3326.0,3243.0,2950.0,-0.11,9.53,3.7,0.04,0.03,0.03,1.0,a
3122.0,1616.0,3368.0,3707.0,4002.0,3310.0,3223.0,2949.0,-0.74,9.44,3.27,0.04,0.05,0.02,1.0,a
3136.0,1629.0,3371.0,3728.0,4006.0,3312.0,3231.0,2947.0,-0.2,9.54,3.55,-0.02,0.02,-0.0,1.0,a
3121.0,1616.0,3364.0,3707.0,4003.0,3317.0,3223.0,2942.0,-0.74,9.46,3.32,0.01,0.07,-0.03,1.0,a
3133.0,1622.0,3358.0,3696.0,4005.0,3313.0,3237.0,2959.0,-0.17,9.59,3.43,0.0,0.0,-0.01,1.0,a
3138.0,1627.0,3358.0,3728.0,4007.0,3315.0,3243.0,2959.0,-0.54,9.53,3.39,0.08,0.01,-0.07,1.0,a
3120.0,1626.0,3347.0,3697.0,4002.0,3312.0,3231.0,2943.0,-0.4,9.59,3.07,0.1,-0.01,-0.02,1.0,a
3133.0,1626.0,3366.0,3710.0,4020.0,3314.0,3231.0,2957.0,-0.49,9.67,2.92,0.09,0.01,-0.06,1.0,a
3124.0,1619.0,3344.0,3701.0,4002.0,3308.0,3232.0,2959.0,-0.5,9.76,2.55,0.01,0.03,-0.01,1.0,a
3138.0,1629.0,3362.0,3712.0,4015.0,3326.0,3238.0,2960.0,-0.03,9.73,3.01,0.03,-0.13,-0.14,1.0,a
3122.0,1620.0,3347.0,3726.0,4001.0,3314.0,3233.0,2958.0,-0.62,9.69,2.58,0.04,-0.11,-0.22,1.0,a
3130.0,1625.0,3363.0,3734.0,4021.0,3321.0,3245.0,2961.0,-0.89,9.65,2.75,0.02,-0.1,-0.16,1.0,a
3133.0,1616.0,3361.0,3714.0,4005.0,3311.0,3225.0,2951.0,-1.07,9.72,2.37,0.02,-0.02,-0.09,1.0,a
3127.0,1621.0,3365.0,3730.0,4000.0,3326.0,3242.0,2953.0,-0.63,9.78,2.62,-0.02,-0.03,-0.07,1.0,a
3132.0,1616.0,3350.0,3701.0,3999.0,3306.0,3232.0,2954.0,-1.05,9.75,2.21,-0.01,-0.01,-0.08,1.0,a
3139.0,1625.0,3359.0,3727.0,4034.0,3328.0,3247.0,2955.0,-0.72,9.79,2.5,-0.06,-0.04,-0.05,1.0,a
3126.0,1619.0,3353.0,3712.0,4010.0,3324.0,3244.0,2955.0,-1.1,9.73,2.32,-0.05,0.03,-0.07,1.0,a
3135.0,1611.0,3359.0,3725.0,4001.0,3309.0,3231.0,2941.0,-0.82,9.75,2.5,-0.06,0.01,-0.01,1.0,a
3127.0,1570.0,3358.0,3710.0,4026.0,3323.0,3245.0,2960.0,-1.8,9.51,2.51,-0.08,-0.02,-0.07,1.0,a
3122.0,1568.0,3355.0,3684.0,4016.0,3312.0,3234.0,2957.0,-1.26,9.56,2.96,-0.13,-0.01,-0.07,1.0,a
3136.0,1494.0,3359.0,3687.0,4015.0,3317.0,3250.0,2960.0,-1.86,9.56,2.64,-0.07,-0.02,-0.09,1.0,a
3127.0,1462.0,3355.0,3693.0,4014.0,3328.0,3245.0,2949.0,-1.47,9.52,2.92,-0.1,-0.03,-0.04,1.0,a
3136.0,1455.0,3363.0,3707.0,4025.0,3329.0,3245.0,2956.0,-1.77,9.53,2.66,-0.09,-0.01,-0.08,1.0,a
3130.0,1444.0,3355.0,3709.0,4003.0,3312.0,3238.0,2946.0,-1.4,9.59,2.45,-0.23,-0.01,-0.12,1.0,a
3145.0,1439.0,3367.0,3728.0,4037.0,3323.0,3247.0,2950.0,-1.59,9.39,3.04,-0.39,-0.07,-0.26,1.0,a
3136.0,1436.0,3358.0,3703.0,3997.0,3312.0,3247.0,2951.0,-2.18,9.01,4.01,-0.33,-0.13,-0.22,1.0,a
3130.0,1434.0,3366.0,3719.0,4015.0,3326.0,3248.0,2959.0,-2.43,8.87,4.32,-0.16,-0.03,-0.13,1.0,a
3123.0,1423.0,3348.0,3702.0,4007.0,3316.0,3239.0,2954.0,-2.16,9.05,3.74,-0.12,-0.02,0.01,1.0,a
3124.0,1425.0,3357.0,3727.0,4036.0,3322.0,3248.0,2944.0,-1.91,9.03,4.01,-0.14,-0.03,-0.07,1.0,a
3135.0,1425.0,3356.0,3712.0,4009.0,3327.0,3250.0,2962.0,-2.25,8.93,3.81,-0.17,0.02,-0.02,1.0,a
3130.0,1424.0,3349.0,3695.0,4001.0,3313.0,3245.0,2957.0,-2.02,8.91,4.62,-0.14,0.02,-0.12,1.0,a
3127.0,1419.0,3355.0,3715.0,4020.0,3326.0,3261.0,2960.0,-2.9,8.77,3.61,-0.19,-0.04,-0.03,1.0,a
3126.0,1414.0,3361.0,3701.0,4016.0,3323.0,3248.0,2955.0,-2.26,8.68,5.13,-0.17,0.03,0.09,1.0,a
3120.0,1413.0,3349.0,3711.0,4032.0,3326.0,3251.0,2964.0,-1.78,8.94,3.91,-0.04,0.08,0.01,1.0,a
3122.0,1413.0,3358.0,3713.0,4016.0,3314.0,3246.0,2949.0,-2.17,8.71,4.51,-0.22,-0.12,-0.03,1.0,a
3136.0,1413.0,3365.0,3707.0,4032.0,3323.0,3248.0,2950.0,-1.41,8.74,5.07,-0.0,-0.0,-0.04,1.0,a
3130.0,1401.0,3350.0,3680.0,4016.0,3317.0,3249.0,2958.0,-2.62,8.95,4.01,-0.22,-0.15,-0.06,1.0,a
3129.0,1393.0,3358.0,3691.0,4029.0,3328.0,3255.0,2964.0,-1.75,8.44,5.18,-0.19,0.02,-0.19,1.0,a
3135.0,1365.0,3363.0,3711.0,4042.0,3334.0,3255.0,2953.0,-0.68,8.79,5.22,-0.17,0.15,0.26,1.0,a
3130.0,1367.0,3349.0,3701.0,4032.0,3321.0,3248.0,2950.0,-0.96,8.76,4.85,-0.1,0.2,0.24,1.0,a
3127.0,1375.0,3348.0,3687.0,4027.0,3318.0,3253.0,2949.0,-0.46,8.83,5.17,-0.05,0.06,0.17,1.0,a
3141.0,1376.0,3363.0,3711.0,4041.0,3333.0,3258.0,2963.0,-0.29,8.87,4.9,0.01,0.08,0.1,1.0,a
3127.0,1363.0,3344.0,3681.0,4015.0,3309.0,3255.0,2957.0,-0.11,8.97,4.81,0.0,0.02,0.06,1.0,a
3132.0,1369.0,3363.0,3699.0,4029.0,3323.0,3255.0,2960.0,-0.53,8.93,4.75,-0.05,0.04,0.01,1.0,a
3125.0,1373.0,3365.0,3681.0,4016.0,3312.0,3248.0,2948.0,-0.25,9.01,4.7,0.01,0.04,0.05,1.0,a
3138.0,1374.0,3350.0,3696.0,4017.0,3321.0,3255.0,2957.0,-0.09,9.02,4.77,-0.02,0.01,0.06,1.0,a
3121.0,1365.0,3350.0,3696.0,4037.0,3314.0,3248.0,2949.0,-0.13,9.03,4.74,0.03,0.03,-0.01,1.0,a
3131.0,1365.0,3358.0,3696.0,4037.0,3329.0,3261.0,2948.0,-0.17,9.09,4.51,0.08,0.04,0.02,1.0,a
3131.0,1372.0,3344.0,3695.0,4012.0,3312.0,3258.0,2950.0,0.17,9.17,4.49,0.08,-0.02,-0.03,1.0,a
3137.0,1369.0,3371.0,3702.0,4031.0,3325.0,3257.0,2947.0,-0.18,9.22,4.3,0.13,-0.0,-0.05,1.0,a
3119.0,1363.0,3356.0,3712.0,4033.0,3323.0,3248.0,2944.0,-0.11,9.29,4.08,0.12,0.01,-0.03,1.0,a
3123.0,1364.0,3365.0,3717.0,4043.0,3331.0,3251.0,2950.0,-0.16,9.36,3.78,0.12,0.02,-0.03,1.0,a
3131.0,1366.0,3357.0,3716.0,4049.0,3331.0,3266.0,2958.0,0.05,9.48,3.64,0.07,-0.02,-0.03,1.0,a
3133.0,1354.0,3355.0,3701.0,4032.0,3313.0,3249.0,2958.0,0.0,9.52,3.49,0.09,-0.01,-0.06,1.0,a
3135.0,1353.0,3361.0,3712.0,4048.0,3328.0,3263.0,2960.0,-0.14,9.5,3.47,0.04,-0.02,-0.09,1.0,a
3133.0,1341.0,3345.0,3698.0,4031.0,3322.0,3257.0,2961.0,-0.25,9.6,3.14,-0.02,0.02,-0.05,1.0,a
3139.0,1345.0,3373.0,3712.0,4043.0,3325.0,3263.0,2967.0,-0.13,9.56,3.37,-0.0,0.02,-0.02,1.0,a
3119.0,1333.0,3343.0,3695.0,4019.0,3312.0,3248.0,2959.0,-0.23,9.56,3.37,-0.0,-0.01,-0.07,1.0,a
3123.0,1258.0,3349.0,3658.0,4061.0,3340.0,3280.0,2981.0,-0.51,10.02,1.01,-0.04,-0.3,-0.31,1.0,a
3135.0,1257.0,3344.0,3634.0,4037.0,3328.0,3269.0,2991.0,-0.7,9.91,1.5,-0.08,-0.22,-0.23,1.0,a
3131.0,1253.0,3357.0,3678.0,4066.0,3335.0,3278.0,2977.0,-0.6,9.98,1.4,-0.15,-0.16,-0.24,1.0,a
3134.0,1265.0,3345.0,3654.0,4047.0,3334.0,3268.0,2975.0,-1.02,9.84,1.67,-0.16,-0.21,-0.33,1.0,a
3131.0,1258.0,3361.0,3657.0,4056.0,3337.0,3269.0,2986.0,-1.72,9.67,1.81,-0.21,-0.04,-0.15,1.0,a
3130.0,1263.0,3347.0,3655.0,4037.0,3330.0,3268.0,2986.0,-1.27,9.72,2.26,-0.16,-0.08,-0.14,1.0,a
3133.0,1259.0,3355.0,3664.0,4052.0,3338.0,3276.0,2983.0,-1.39,9.77,2.06,-0.13,-0.02,-0.11,1.0,a
3136.0,1260.0,3355.0,3646.0,4035.0,3325.0,3280.0,2981.0,-1.3,9.73,2.33,-0.12,-0.05,-0.14,1.0,a
3136.0,1264.0,3359.0,3666.0,4047.0,3335.0,3275.0,2979.0,-1.79,9.63,2.21,-0.11,-0.01,-0.08,1.0,a
3130.0,1255.0,3348.0,3664.0,4070.0,3345.0,3284.0,2986.0,-1.26,9.71,2.42,-0.14,-0.01,-0.08,1.0,a
3126.0,1262.0,3351.0,3647.0,4038.0,3349.0,3273.0,2981.0,-1.68,9.7,2.08,-0.16,0.02,-0.1,1.0,a
3132.0,1257.0,3365.0,3671.0,4069.0,3342.0,3280.0,2974.0,-1.49,9.57,2.58,-0.23,-0.07,-0.11,1.0,a
3123.0,1251.0,3344.0,3663.0,4051.0,3335.0,3269.0,2974.0,-1.87,9.46,2.8,-0.18,-0.04,-0.14,1.0,a
3135.0,1264.0,3358.0,3662.0,4070.0,3339.0,3280.0,2986.0,-1.86,9.41,3.1,-0.15,-0.11,-0.07,1.0,a
3122.0,1251.0,3344.0,3651.0,4059.0,3334.0,3279.0,2975.0,-2.01,9.35,3.0,-0.14,-0.03,-0.06,1.0,a
3141.0,1264.0,3361.0,3669.0,4058.0,3343.0,3281.0,2985.0,-1.96,9.41,2.86,-0.15,0.03,0.03,1.0,a
3123.0,1257.0,3344.0,3654.0,4047.0,3328.0,3280.0,2981.0,-1.49,9.48,3.11,-0.18,0.02,-0.01,1.0,a
3129.0,1258.0,3358.0,3674.0,4064.0,3338.0,3280.0,2994.0,-1.9,9.31,3.34,-0.16,-0.0,-0.05,1.0,a
3124.0,1258.0,3346.0,3663.0,4048.0,3332.0,3278.0,2986.0,-1.66,9.23,3.7,-0.11,-0.03,-0.05,1.0,a
3135.0,1257.0,3357.0,3669.0,4075.0,3334.0,3278.0,2992.0,-1.87,9.3,3.37,-0.06,0.01,-0.06,1.0,a
3125.0,1257.0,3347.0,3649.0,4046.0,3337.0,3278.0,2991.0,-1.57,9.13,3.93,-0.1,0.03,-0.0,1.0,a
3127.0,1255.0,3357.0,3669.0,4074.0,3344.0,3274.0,2985.0,-1.67,9.02,4.22,-0.13,-0.03,-0.02,1.0,a
3131.0,1258.0,3351.0,3664.0,4034.0,3325.0,3274.0,2993.0,-1.93,9.02,4.03,-0.06,0.06,0.02,1.0,a
3140.0,1264.0,3355.0,3667.0,4050.0,3347.0,3283.0,2985.0,-1.54,9.09,4.09,-0.12,-0.05,0.06,1.0,a
3121.0,1257.0,3351.0,3681.0,4048.0,3330.0,3279.0,2990.0,-1.56,9.02,4.26,-0.06,0.02,0.04,1.0,a
3122.0,1253.0,3344.0,3684.0,4039.0,3342.0,3268.0,2981.0,-1.57,9.08,4.12,-0.14,0.01,0.1,1.0,a
3135.0,1259.0,3374.0,3707.0,4067.0,3337.0,3274.0,2973.0,-1.37,9.14,4.11,-0.08,0.09,0.15,1.0,a
3120.0,1260.0,3346.0,3699.0,4041.0,3340.0,3279.0,2979.0,-0.95,8.98,4.67,-0.13,-0.01,0.12,1.0,a
3126.0,1262.0,3367.0,3726.0,4055.0,3351.0,3283.0,2977.0,-1.13,9.11,4.31,0.01,0.04,0.09,1.0,a
3122.0,1259.0,3353.0,3792.0,4047.0,3341.0,3266.0,2969.0,-1.01,9.17,4.09,-0.03,0.04,0.08,1.0,a
3131.0,1261.0,3364.0,3855.0,4048.0,3350.0,3280.0,2976.0,-0.89,9.12,4.49,0.03,0.01,0.0,1.0,a
3127.0,1265.0,3346.0,3861.0,4026.0,3335.0,3264.0,2973.0,-1.09,9.18,3.9,0.02,0.01,0.06,1.0,a
3136.0,1264.0,3359.0,3876.0,4059.0,3344.0,3277.0,2977.0,-0.41,9.27,4.46,0.1,-0.04,-0.04,1.0,a
3121.0,1262.0,3352.0,3861.0,4048.0,3335.0,3271.0,2971.0,-0.96,9.29,3.73,0.2,-0.03,-0.09,1.0,a
3133.0,1268.0,3365.0,3865.0,4060.0,3344.0,3279.0,2979.0,-1.06,9.39,3.64,0.18,0.01,-0.05,1.0,a
3129.0,1264.0,3347.0,3839.0,4037.0,3332.0,3278.0,2987.0,-0.94,9.55,2.96,0.19,-0.01,-0.05,1.0,a
3131.0,1266.0,3349.0,3853.0,4049.0,3331.0,3267.0,2979.0,-0.81,9.62,2.94,0.09,-0.01,-0.02,1.0,a
3130.0,1266.0,3365.0,3858.0,4061.0,3335.0,3279.0,2995.0,-0.95,9.7,2.6,0.05,0.02,-0.04,1.0,a
3137.0,1261.0,3361.0,3863.0,4046.0,3340.0,3269.0,2982.0,-0.61,9.66,3.03,-0.01,-0.07,-0.08,1.0,a
3134.0,1262.0,3357.0,3856.0,4054.0,3345.0,3290.0,2987.0,-1.18,9.63,2.61,-0.01,0.02,-0.08,1.0,a
3125.0,1254.0,3357.0,3837.0,4048.0,3337.0,3286.0,2977.0,-1.23,9.7,2.45,0.01,0.03,-0.05,1.0,a
3125.0,1261.0,3349.0,3840.0,4044.0,3335.0,3270.0,2965.0,-0.74,9.69,2.8,-0.02,-0.02,-0.02,1.0,a
3133.0,1262.0,3357.0,3855.0,4064.0,3340.0,3281.0,2978.0,-1.13,9.78,2.32,0.04,0.04,-0.03,1.0,a
3131.0,1254.0,3359.0,3849.0,4045.0,3339.0,3280.0,2989.0,-0.69,9.77,2.56,-0.01,-0.03,-0.02,1.0,a
3139.0,1257.0,3357.0,3843.0,4033.0,3333.0,3273.0,2979.0,-1.04,9.82,2.14,0.02,0.02,-0.05,1.0,a
3132.0,1249.0,3360.0,3833.0,4053.0,3333.0,3278.0,2973.0,-0.81,9.74,2.53,-0.07,-0.06,-0.04,1.0,a
3127.0,1247.0,3344.0,3843.0,4040.0,3343.0,3280.0,2980.0,-1.13,9.75,2.19,-0.03,0.03,-0.05,1.0,a
3133.0,1258.0,3362.0,3849.0,4063.0,3344.0,3287.0,2987.0,-0.74,9.74,2.63,-0.1,-0.04,-0.02,1.0,a
3120.0,1255.0,3353.0,3840.0,4048.0,3344.0,3271.0,2975.0,-1.23,9.74,2.19,-0.03,0.06,-0.07,1.0,a
3136.0,1263.0,3361.0,3852.0,4047.0,3349.0,3282.0,2985.0,-0.88,9.77,2.49,-0.1,-0.04,-0.02,1.0,a
3120.0,1263.0,3349.0,3845.0,4051.0,3339.0,3270.0,2970.0,-1.05,9.71,2.46,0.01,0.03,-0.05,1.0,a
3131.0,1258.0,3347.0,3854.0,4061.0,3343.0,3281.0,2985.0,-0.9,9.74,2.43,-0.1,-0.04,-0.01,1.0,a
3120.0,1253.0,3354.0,3851.0,4055.0,3335.0,3265.0,2975.0,-1.1,9.71,2.46,-0.01,0.04,-0.04,1.0,a
3134.0,1259.0,3350.0,3841.0,4058.0,3344.0,3287.0,2992.0,-0.9,9.74,2.39,-0.1,-0.04,-0.01,1.0,a
3131.0,1265.0,3350.0,3856.0,4049.0,3344.0,3292.0,2980.0,-1.05,9.68,2.51,0.01,0.04,-0.06,1.0,a
3135.0,1262.0,3342.0,3815.0,4039.0,3338.0,3280.0,2978.0,-0.88,9.73,2.42,-0.05,-0.07,-0.03,1.0,a
3131.0,1264.0,3359.0,3834.0,4058.0,3347.0,3290.0,2991.0,-0.99,9.7,2.5,0.04,-0.03,-0.08,1.0,a
3122.0,1257.0,3353.0,3830.0,4046.0,3343.0,3271.0,2969.0,-1.28,9.67,2.23,-0.03,-0.01,0.01,1.0,a
3127.0,1258.0,3350.0,3840.0,4052.0,3342.0,3282.0,2983.0,-0.79,9.76,2.38,0.04,-0.0,-0.04,1.0,a
3120.0,1252.0,3351.0,3824.0,4047.0,3338.0,3276.0,2987.0,-0.86,9.84,2.0,-0.02,-0.05,-0.07,1.0,a
3129.0,1254.0,3356.0,3846.0,4047.0,3338.0,3274.0,2989.0,-1.35,9.84,1.8,-0.09,0.02,-0.03,1.0,a
3151.0,1269.0,3347.0,3851.0,4061.0,3344.0,3287.0,2992.0,-1.0,9.69,2.55,-0.07,-0.01,-0.03,1.0,a
3129.0,1259.0,3351.0,3846.0,4064.0,3346.0,3277.0,2977.0,-1.28,9.85,1.76,-0.09,0.03,0.0,1.0,a
3137.0,1264.0,3345.0,3845.0,4048.0,3344.0,3282.0,2992.0,-0.91,9.74,2.47,-0.09,0.02,-0.03,1.0,a
3142.0,1266.0,3361.0,3856.0,4077.0,3359.0,3290.0,2991.0,-1.27,9.82,1.89,-0.09,0.02,-0.02,1.0,a
3127.0,1255.0,3345.0,3838.0,4049.0,3343.0,3265.0,2980.0,-0.78,9.76,2.5,-0.08,-0.03,-0.07,1.0,a
3147.0,1263.0,3356.0,3866.0,4075.0,3352.0,3275.0,2989.0,-1.48,9.79,1.87,-0.08,0.03,-0.05,1.0,a
3123.0,1263.0,3339.0,3843.0,4042.0,3342.0,3280.0,2987.0,-0.92,9.77,2.46,-0.08,-0.02,-0.03,1.0,a
3141.0,1264.0,3364.0,3863.0,4063.0,3344.0,3281.0,2981.0,-1.41,9.8,1.85,-0.08,0.06,-0.02,1.0,a
3126.0,1264.0,3346.0,3857.0,4048.0,3344.0,3271.0,2978.0,-0.79,9.73,2.67,-0.1,-0.01,-0.03,1.0,a
3131.0,1262.0,3344.0,3861.0,4050.0,3344.0,3281.0,2991.0,-1.41,9.77,1.93,-0.06,0.05,-0.04,1.0,a
3126.0,1265.0,3342.0,3847.0,4051.0,3342.0,3281.0,2981.0,-0.87,9.7,2.57,-0.1,-0.01,-0.02,1.0,a
3134.0,1264.0,3361.0,3878.0,4074.0,3357.0,3297.0,2991.0,-1.34,9.79,2.03,-0.04,0.07,-0.04,1.0,a
3137.0,1264.0,3345.0,3856.0,4049.0,3334.0,3284.0,2982.0,-0.97,9.68,2.6,-0.1,-0.0,-0.02,1.0,a
3132.0,1254.0,3359.0,3865.0,4062.0,3346.0,3281.0,2992.0,-1.3,9.76,2.08,-0.05,0.06,-0.06,1.0,a
3130.0,1261.0,3363.0,3865.0,4076.0,3350.0,3283.0,2972.0,-1.18,9.65,2.61,-0.09,-0.02,-0.03,1.0,a
3133.0,1257.0,3341.0,3843.0,4070.0,3333.0,3279.0,2990.0,-1.24,9.84,1.93,-0.03,0.05,-0.02,1.0,a
3131.0,1257.0,3358.0,3862.0,4058.0,3345.0,3279.0,2991.0,-0.89,9.75,2.44,-0.09,-0.01,-0.06,1.0,a
3122.0,1254.0,3344.0,3853.0,4056.0,3344.0,3280.0,2983.0,-1.28,9.8,1.96,-0.13,0.06,-0.09,1.0,a
3125.0,1255.0,3351.0,3878.0,4070.0,3349.0,3283.0,2992.0,-1.31,9.59,2.89,-0.17,0.01,-0.03,1.0,a
3360.0,1950.0,3831.0,4037.0,3807.0,3129.0,3153.0,2592.0,-0.28,9.6,3.03,0.02,0.21,-0.22,1.0,a
3380.0,1974.0,3851.0,4079.0,3813.0,3133.0,3158.0,2595.0,-0.38,9.35,3.34,-0.1,0.02,-0.07,1.0,a
3360.0,1984.0,3834.0,4082.0,3809.0,3130.0,3159.0,2559.0,0.3,9.66,3.93,-0.05,0.01,-0.05,1.0,a
3367.0,1990.0,3841.0,4095.0,3822.0,3139.0,3195.0,2605.0,-0.85,9.44,3.21,0.02,0.07,-0.2,1.0,a
3355.0,1999.0,3827.0,4073.0,3823.0,3136.0,3169.0,2637.0,-1.15,9.53,2.78,-0.09,0.17,0.02,1.0,a
3376.0,1995.0,3854.0,4095.0,3817.0,3142.0,3170.0,2638.0,-0.2,9.32,4.22,-0.11,-0.34,0.09,1.0,a
3370.0,1984.0,3841.0,4095.0,3830.0,3149.0,3155.0,2480.0,0.8,9.79,4.02,0.32,-0.67,-0.09,1.0,a
3365.0,1999.0,3848.0,4095.0,3807.0,3150.0,3152.0,2538.0,0.16,9.91,2.52,0.25,-0.62,-0.2,1.0,a
3354.0,2010.0,3837.0,4095.0,3799.0,3150.0,3159.0,2518.0,-0.24,9.89,2.38,0.12,-0.52,-0.19,1.0,a
3344.0,2044.0,3841.0,4095.0,3783.0,3133.0,3145.0,2324.0,-0.19,9.75,2.58,-0.02,-0.31,-0.18,1.0,a
3355.0,2066.0,3834.0,4095.0,3798.0,3138.0,3151.0,2559.0,-0.23,9.7,2.69,-0.01,0.01,-0.2,1.0,a
3353.0,2067.0,3829.0,4095.0,3786.0,3133.0,3152.0,2621.0,-0.68,9.73,2.36,0.11,0.01,-0.09,1.0,a
3346.0,2071.0,3855.0,4095.0,3792.0,3147.0,3147.0,2639.0,-0.41,9.87,2.12,0.05,0.12,0.02,1.0,a
3354.0,2064.0,3824.0,4095.0,3789.0,3139.0,3152.0,2635.0,-0.18,9.92,1.88,0.04,0.02,0.03,1.0,a
3366.0,2064.0,3857.0,4095.0,3807.0,3150.0,3155.0,2654.0,0.79,10.27,1.25,-0.2,-0.02,-0.18,1.0,a
3365.0,2064.0,3824.0,4095.0,3792.0,3152.0,3153.0,2667.0,-0.11,9.67,2.62,-0.28,0.01,-0.49,1.0,a
3361.0,2081.0,3831.0,4095.0,3811.0,3154.0,3157.0,2674.0,-1.76,9.45,2.87,-0.1,-0.24,-0.35,1.0,a
3355.0,2081.0,3823.0,4095.0,3806.0,3167.0,3155.0,2688.0,-1.32,9.63,2.65,-0.16,-0.14,-0.18,1.0,a
3367.0,2086.0,3853.0,4095.0,3807.0,3162.0,3163.0,2678.0,-1.44,9.52,2.83,-0.23,-0.05,-0.13,1.0,a
3345.0,2085.0,3825.0,4095.0,3824.0,3158.0,3161.0,2665.0,-1.22,9.52,3.13,-0.17,-0.01,-0.08,1.0,a
3350.0,2106.0,3824.0,4095.0,3830.0,3169.0,3165.0,2608.0,-1.58,9.23,3.67,-0.22,0.03,-0.04,1.0,a
3351.0,2112.0,3830.0,4095.0,3862.0,3184.0,3180.0,2641.0,-1.23,9.13,4.12,-0.22,0.0,-0.01,1.0,a
3355.0,2128.0,3830.0,4095.0,3840.0,3184.0,3178.0,2645.0,-1.42,9.11,3.97,-0.19,0.09,-0.06,1.0,a
3370.0,2114.0,3846.0,4095.0,3835.0,3177.0,3187.0,2626.0,-1.49,9.04,4.23,-0.21,0.01,-0.02,1.0,a
3357.0,2114.0,3824.0,4095.0,3835.0,3173.0,3175.0,2633.0,-1.57,8.94,4.39,-0.23,0.04,-0.02,1.0,a
3367.0,2121.0,3839.0,4095.0,3847.0,3184.0,3186.0,2634.0,-1.41,8.84,4.7,-0.23,0.04,0.02,1.0,a
3365.0,2115.0,3846.0,4095.0,3861.0,3183.0,3178.0,2624.0,-1.44,8.8,4.7,-0.2,0.06,0.02,1.0,a
3353.0,2112.0,3840.0,4095.0,3830.0,3181.0,3177.0,2608.0,-1.18,8.82,4.94,-0.16,0.0,0.01,1.0,a
3363.0,2123.0,3858.0,4095.0,3856.0,3187.0,3187.0,2615.0,-1.6,8.69,4.84,-0.17,0.08,0.02,1.0,a
3350.0,2129.0,3840.0,4095.0,3841.0,3179.0,3187.0,2624.0,-1.24,8.66,5.19,-0.18,0.02,0.11,1.0,a
3362.0,2129.0,3857.0,4095.0,3861.0,3197.0,3184.0,2639.0,-1.23,8.64,5.23,-0.1,0.06,0.06,1.0,a
3344.0,2117.0,3839.0,4095.0,3855.0,3184.0,3174.0,2640.0,-1.22,8.68,5.03,-0.15,0.05,0.11,1.0,a
3349.0,2133.0,3835.0,4095.0,3840.0,3185.0,3183.0,2643.0,-1.13,8.6,5.42,-0.12,0.04,0.09,1.0,a
3349.0,2125.0,3840.0,4095.0,3855.0,3184.0,3184.0,2617.0,-1.09,8.77,4.84,-0.15,0.08,0.1,1.0,a
3377.0,2135.0,3855.0,4095.0,3859.0,3186.0,3187.0,2624.0,-0.82,8.49,5.64,-0.16,0.07,0.07,1.0,a
3346.0,2131.0,3845.0,4095.0,3861.0,3185.0,3184.0,2624.0,-0.99,8.62,5.3,-0.11,0.07,0.12,1.0,a
3364.0,2131.0,3853.0,4095.0,3868.0,3184.0,3189.0,2622.0,-0.58,8.5,5.6,-0.09,0.06,0.12,1.0,a
3347.0,2128.0,3831.0,4095.0,3878.0,3199.0,3197.0,2618.0,-0.59,8.6,5.53,-0.03,0.03,0.12,1.0,a
3352.0,2129.0,3841.0,4095.0,3856.0,3186.0,3185.0,2633.0,-0.32,8.61,5.54,0.01,-0.04,0.11,1.0,a
3361.0,2131.0,3856.0,4095.0,3854.0,3188.0,3187.0,2610.0,-0.49,8.68,5.29,0.07,-0.03,0.09,1.0,a
3349.0,2128.0,3833.0,4095.0,3857.0,3184.0,3186.0,2654.0,0.37,9.07,4.58,0.03,0.02,-0.04,1.0,a
3363.0,2144.0,3856.0,4095.0,3866.0,3195.0,3195.0,2654.0,0.2,9.1,4.71,0.07,-0.05,-0.01,1.0,a
3342.0,2147.0,3838.0,4095.0,3850.0,3191.0,3191.0,2646.0,0.23,9.08,4.52,0.06,-0.02,-0.05,1.0,a
3361.0,2142.0,3839.0,4095.0,3859.0,3190.0,3196.0,2639.0,0.09,9.15,4.45,0.02,-0.02,-0.02,1.0,a
3343.0,2140.0,3821.0,4095.0,3859.0,3195.0,3193.0,2635.0,0.09,9.2,4.07,0.05,0.04,0.05,1.0,a
3361.0,2149.0,3835.0,4095.0,3866.0,3194.0,3193.0,2632.0,0.67,9.27,4.34,0.05,-0.01,0.07,1.0,a
3361.0,2147.0,3851.0,4095.0,3876.0,3195.0,3197.0,2626.0,0.5,9.33,3.79,0.06,0.04,-0.01,1.0,a
3335.0,2142.0,3838.0,4095.0,3853.0,3198.0,3191.0,2588.0,0.79,9.46,3.75,0.04,-0.1,-0.02,1.0,a
3363.0,2155.0,3839.0,4095.0,3887.0,3210.0,3206.0,2605.0,0.44,9.37,3.83,0.02,-0.04,-0.08,1.0,a
3335.0,2142.0,3837.0,4095.0,3872.0,3210.0,3199.0,2592.0,0.55,9.39,3.88,0.01,0.04,0.01,1.0,a
3349.0,2209.0,3839.0,4095.0,3868.0,3199.0,3202.0,2618.0,0.64,9.4,3.89,0.06,0.02,-0.05,1.0,a
3345.0,2223.0,3824.0,4095.0,3874.0,3207.0,3199.0,2559.0,0.74,9.57,3.48,0.06,-0.04,-0.05,1.0,a
3343.0,2214.0,3850.0,4095.0,3878.0,3211.0,3197.0,2608.0,0.49,9.54,3.45,0.04,-0.09,-0.13,1.0,a
3355.0,2224.0,3834.0,4095.0,3863.0,3198.0,3187.0,2603.0,0.2,9.53,3.22,0.01,-0.0,-0.07,1.0,a
3362.0,2238.0,3845.0,4095.0,3861.0,3207.0,3201.0,2612.0,0.62,9.54,3.57,-0.02,-0.02,-0.07,1.0,a
3341.0,2250.0,3823.0,4095.0,3858.0,3203.0,3195.0,2614.0,0.25,9.58,3.15,0.04,-0.0,-0.06,1.0,a
3355.0,2389.0,3858.0,4095.0,3887.0,3203.0,3191.0,2614.0,0.7,9.69,3.24,0.03,-0.01,-0.05,1.0,a
3363.0,2598.0,3841.0,4095.0,3871.0,3211.0,3200.0,2603.0,0.33,9.66,2.94,0.07,-0.03,-0.13,1.0,a
3344.0,2673.0,3847.0,4095.0,3863.0,3216.0,3195.0,2597.0,0.42,9.78,2.72,0.04,-0.03,-0.09,1.0,a
3347.0,2715.0,3845.0,4095.0,3885.0,3219.0,3195.0,2603.0,0.41,9.77,2.81,0.02,-0.09,-0.19,1.0,a
3344.0,3116.0,3829.0,4095.0,3882.0,3206.0,3193.0,2679.0,-0.96,9.61,2.76,-0.08,-0.01,-0.28,1.0,a
3359.0,3264.0,3815.0,4095.0,3883.0,3223.0,3205.0,2624.0,-1.81,9.32,3.05,-0.21,0.35,-0.17,1.0,a
3339.0,3472.0,3834.0,4095.0,3891.0,3234.0,3207.0,2634.0,-2.49,9.28,2.82,-0.08,0.39,-0.15,1.0,a
3344.0,4095.0,3770.0,4095.0,3869.0,3238.0,3196.0,2641.0,-2.09,9.52,2.47,0.0,0.04,-0.14,1.0,a
3355.0,4095.0,3723.0,4095.0,3885.0,3254.0,3210.0,2639.0,-1.66,9.45,2.8,0.01,-0.07,-0.21,1.0,a
3335.0,4095.0,3690.0,4095.0,3872.0,3248.0,3205.0,2608.0,-2.13,9.55,2.38,-0.01,-0.16,-0.05,1.0,a
3342.0,4095.0,3695.0,4095.0,3906.0,3269.0,3216.0,2643.0,-1.58,9.53,2.96,-0.02,-0.17,-0.1,1.0,a
3333.0,4095.0,3665.0,4095.0,3888.0,3264.0,3206.0,2650.0,-1.99,9.36,2.48,0.32,-0.06,-0.12,1.0,a
3350.0,4095.0,3691.0,4095.0,3908.0,3269.0,3210.0,2659.0,-1.75,9.67,2.34,0.26,0.03,-0.03,1.0,a
3350.0,4095.0,3667.0,4095.0,3886.0,3263.0,3205.0,2607.0,-2.39,9.45,1.91,0.17,-0.16,-0.14,1.0,a
3343.0,4095.0,3671.0,4095.0,3905.0,3271.0,3214.0,2672.0,-1.56,9.65,1.8,-0.2,0.04,0.07,1.0,a
3344.0,4095.0,3665.0,4095.0,3899.0,3250.0,3210.0,2689.0,-1.76,9.43,2.44,-0.26,-0.05,-0.12,1.0,a
3343.0,4095.0,3669.0,4095.0,3926.0,3267.0,3216.0,2701.0,-1.84,9.77,2.1,-0.07,-0.07,-0.03,1.0,a
3339.0,4095.0,3655.0,4095.0,3905.0,3248.0,3201.0,2718.0,-1.57,9.76,2.18,-0.1,-0.05,-0.17,1.0,a
3329.0,4095.0,3680.0,4095.0,3898.0,3254.0,3211.0,2721.0,-2.18,9.62,2.15,0.0,-0.05,-0.1,1.0,a
3331.0,4095.0,3668.0,4095.0,3907.0,3237.0,3216.0,2720.0,-1.87,9.17,2.72,-0.06,-0.26,-0.06,1.0,a
3332.0,4095.0,3668.0,4095.0,3915.0,3229.0,3203.0,2695.0,-2.32,9.61,2.17,-0.07,-0.04,-0.05,1.0,a
3339.0,4095.0,3695.0,4095.0,3920.0,3238.0,3213.0,2713.0,-1.63,9.68,2.3,-0.14,0.08,-0.0,1.0,a
3338.0,4095.0,3674.0,4095.0,3913.0,3231.0,3202.0,2715.0,-2.21,9.58,2.42,-0.07,-0.0,-0.12,1.0,a
3335.0,4095.0,3669.0,4095.0,3935.0,3248.0,3216.0,2734.0,-1.78,9.68,2.33,-0.02,-0.04,-0.01,1.0,a
2982.0,4095.0,3571.0,4095.0,3984.0,3057.0,3178.0,2691.0,-2.08,9.12,3.63,0.01,-0.06,-0.05,1.0,a
2975.0,4095.0,3566.0,4095.0,3968.0,3062.0,3171.0,2692.0,-2.24,9.31,3.01,-0.04,-0.14,-0.09,1.0,a
2976.0,4095.0,3567.0,4095.0,3982.0,3082.0,3186.0,2698.0,-1.92,9.21,3.41,-0.07,-0.11,-0.21,1.0,a
2989.0,4095.0,3568.0,4095.0,3979.0,3067.0,3178.0,2683.0,-3.08,8.92,3.82,-0.13,-0.04,-0.16,1.0,a
2986.0,4095.0,3563.0,4095.0,3970.0,3087.0,3188.0,2685.0,-2.52,8.97,3.78,-0.14,-0.01,-0.01,1.0,a
2983.0,4095.0,3559.0,4095.0,3967.0,3071.0,3184.0,2675.0,-2.3,9.03,3.51,-0.11,0.04,-0.08,1.0,a
2990.0,4095.0,3568.0,4095.0,3968.0,3088.0,3184.0,2669.0,-2.36,8.94,3.77,-0.2,0.01,-0.1,1.0,a
2986.0,4095.0,3568.0,4095.0,3997.0,3093.0,3187.0,2657.0,-2.62,8.79,4.19,-0.18,-0.06,-0.14,1.0,a
2978.0,4095.0,3558.0,4095.0,3981.0,3089.0,3184.0,2666.0,-2.68,8.66,4.2,-0.18,-0.05,-0.07,1.0,a
2975.0,4095.0,3568.0,4095.0,3981.0,3093.0,3195.0,2671.0,-2.59,8.64,4.35,-0.19,0.02,-0.1,1.0,a
2979.0,4095.0,3555.0,4095.0,3968.0,3088.0,3202.0,2663.0,-2.89,8.69,4.17,-0.18,-0.01,-0.06,1.0,a
2992.0,4095.0,3583.0,4095.0,3988.0,3099.0,3199.0,2668.0,-2.8,8.54,4.56,-0.21,0.01,-0.08,1.0,a
2978.0,4095.0,3571.0,4095.0,3978.0,3094.0,3193.0,2625.0,-3.24,8.43,4.58,-0.17,0.0,-0.04,1.0,a
2987.0,4095.0,3568.0,4095.0,4005.0,3114.0,3211.0,2625.0,-2.76,8.48,4.82,-0.16,0.05,0.04,1.0,a
2979.0,4095.0,3568.0,4095.0,3989.0,3101.0,3198.0,2611.0,-2.93,8.43,4.72,-0.08,0.04,0.03,1.0,a
2982.0,4095.0,3567.0,4095.0,3997.0,3109.0,3203.0,2615.0,-2.3,8.54,4.7,-0.12,0.01,0.06,1.0,a
2969.0,4095.0,3571.0,4095.0,3971.0,3099.0,3198.0,2669.0,-2.5,8.35,5.09,-0.12,-0.03,-0.04,1.0,a
2987.0,4095.0,3569.0,4095.0,3990.0,3102.0,3200.0,2682.0,-2.67,8.5,4.64,-0.08,0.01,0.03,1.0,a
2979.0,4095.0,3577.0,4095.0,4001.0,3105.0,3200.0,2689.0,-2.63,8.31,5.17,-0.08,0.01,0.03,1.0,a
2987.0,4095.0,3568.0,4095.0,3984.0,3098.0,3199.0,2685.0,-2.48,8.56,4.62,-0.06,0.01,0.03,1.0,a
2981.0,4095.0,3568.0,4095.0,3998.0,3111.0,3199.0,2676.0,-2.3,8.56,4.72,-0.03,0.03,0.02,1.0,a
2989.0,4095.0,3559.0,4095.0,3991.0,3108.0,3200.0,2658.0,-2.26,8.49,4.95,-0.0,-0.01,-0.04,1.0,a
2986.0,4095.0,3561.0,4095.0,4002.0,3115.0,3209.0,2693.0,-2.55,8.62,4.45,-0.01,0.01,0.02,1.0,a
2979.0,4095.0,3558.0,4095.0,3996.0,3109.0,3199.0,2695.0,-2.39,8.49,4.68,-0.09,-0.02,0.03,1.0,a
2986.0,4095.0,3580.0,4095.0,4006.0,3122.0,3215.0,2706.0,-2.02,8.63,4.92,-0.06,-0.01,0.03,1.0,a
2980.0,4095.0,3563.0,4095.0,3986.0,3117.0,3203.0,2682.0,-2.02,8.64,4.86,0.02,-0.01,-0.08,1.0,a
2984.0,4095.0,3562.0,4095.0,3995.0,3115.0,3204.0,2702.0,-2.68,8.58,4.46,-0.01,0.0,-0.02,1.0,a
2983.0,4095.0,3565.0,4095.0,4007.0,3120.0,3216.0,2704.0,-2.34,8.56,4.83,0.0,0.05,0.05,1.0,a
2976.0,4095.0,3568.0,4095.0,3991.0,3109.0,3201.0,2705.0,-2.25,8.71,4.52,0.05,0.01,0.07,1.0,a
2991.0,4095.0,3568.0,4095.0,4005.0,3119.0,3213.0,2708.0,-1.96,8.82,4.38,0.05,0.01,0.03,1.0,a
2983.0,4095.0,3557.0,4095.0,3989.0,3115.0,3201.0,2708.0,-2.03,8.97,4.05,-0.04,-0.0,-0.01,1.0,a
2992.0,4095.0,3563.0,4095.0,4009.0,3123.0,3215.0,2710.0,-2.07,8.9,4.21,-0.08,0.08,-0.07,1.0,a
2978.0,4095.0,3563.0,4095.0,3997.0,3120.0,3215.0,2708.0,-2.23,8.82,4.37,-0.11,0.01,-0.01,1.0,a
2988.0,4095.0,3562.0,4095.0,4027.0,3131.0,3222.0,2704.0,-2.05,8.81,4.42,-0.03,0.05,-0.03,1.0,a
2985.0,4095.0,3565.0,4095.0,4010.0,3128.0,3207.0,2704.0,-1.98,8.87,4.36,-0.08,0.01,-0.01,1.0,a
2989.0,4095.0,3570.0,4095.0,4033.0,3135.0,3207.0,2695.0,-2.12,8.79,4.46,-0.03,0.04,-0.08,1.0,a
2973.0,4095.0,3558.0,4095.0,4007.0,3123.0,3215.0,2697.0,-2.35,8.91,4.01,-0.06,-0.03,-0.03,1.0,a
2985.0,4095.0,3567.0,4095.0,4032.0,3127.0,3216.0,2695.0,-2.13,8.77,4.58,-0.06,0.02,-0.02,1.0,a
2979.0,4095.0,3565.0,4095.0,4037.0,3137.0,3219.0,2691.0,-2.31,8.88,4.17,-0.07,-0.04,0.01,1.0,a
2979.0,4095.0,3569.0,4095.0,4017.0,3126.0,3210.0,2690.0,-1.85,8.82,4.59,-0.03,-0.01,0.01,1.0,a
2976.0,4095.0,3570.0,4095.0,4019.0,3134.0,3211.0,2694.0,-1.7,9.03,4.28,-0.1,0.02,0.04,1.0,a
2980.0,4095.0,3577.0,4095.0,4038.0,3142.0,3217.0,2704.0,-2.0,8.89,4.35,0.0,0.0,0.0,1.0,a
2975.0,4095.0,3563.0,4095.0,4026.0,3136.0,3207.0,2702.0,-1.75,9.03,4.22,0.03,0.01,0.06,1.0,a
2982.0,4095.0,3571.0,4095.0,4038.0,3138.0,3216.0,2710.0,-1.94,9.04,3.96,0.01,0.02,0.08,1.0,a
2981.0,4095.0,3550.0,4095.0,4005.0,3126.0,3210.0,2703.0,-1.53,9.14,4.05,0.02,0.02,0.17,1.0,a
2983.0,4095.0,3562.0,4095.0,4030.0,3136.0,3222.0,2722.0,-1.33,9.16,4.02,0.04,0.07,0.11,1.0,a
2993.0,4095.0,3581.0,4095.0,4066.0,3141.0,3219.0,2733.0,-1.33,9.27,3.68,0.07,0.04,0.08,1.0,a
2975.0,4095.0,3547.0,4095.0,4011.0,3127.0,3212.0,2722.0,-1.04,9.35,3.71,0.06,0.0,0.03,1.0,a
2987.0,4095.0,3568.0,4095.0,4038.0,3147.0,3221.0,2726.0,-1.27,9.38,3.44,0.04,-0.03,-0.01,1.0,a
2972.0,4095.0,3567.0,4095.0,4026.0,3135.0,3221.0,2723.0,-0.99,9.44,3.47,0.05,-0.0,-0.05,1.0,a
2985.0,4095.0,3561.0,4095.0,4019.0,3137.0,3220.0,2738.0,-1.19,9.44,3.35,0.08,-0.08,-0.11,1.0,a
2990.0,4095.0,3568.0,4095.0,4037.0,3134.0,3216.0,2725.0,-1.03,9.55,3.07,0.05,-0.04,-0.13,1.0,a
2992.0,4095.0,3568.0,4095.0,4042.0,3138.0,3222.0,2736.0,-1.61,9.47,2.98,-0.0,-0.08,-0.17,1.0,a
2971.0,4095.0,3552.0,4095.0,4035.0,3141.0,3218.0,2731.0,-1.43,9.53,2.97,-0.03,-0.03,-0.05,1.0,a
2990.0,4095.0,3583.0,4095.0,4053.0,3141.0,3220.0,2734.0,-1.39,9.5,3.04,-0.01,-0.05,-0.08,1.0,a
2980.0,4095.0,3569.0,4095.0,4027.0,3140.0,3217.0,2721.0,-1.26,9.56,2.96,-0.03,-0.04,-0.12,1.0,a
2978.0,4095.0,3574.0,4095.0,4053.0,3152.0,3226.0,2736.0,-1.7,9.38,3.23,-0.03,-0.08,-0.09,1.0,a
2976.0,4095.0,3549.0,4095.0,4021.0,3143.0,3229.0,2736.0,-1.56,9.53,2.85,-0.04,-0.05,-0.05,1.0,a
2983.0,4095.0,3562.0,4095.0,4042.0,3146.0,3217.0,2747.0,-1.64,9.41,3.17,-0.06,-0.05,-0.07,1.0,a
2991.0,4095.0,3568.0,4095.0,4042.0,3149.0,3229.0,2743.0,-1.88,9.43,2.9,-0.12,0.01,-0.02,1.0,a
2987.0,4095.0,3575.0,4095.0,4035.0,3138.0,3219.0,2763.0,-1.38,9.42,3.28,-0.08,0.04,-0.01,1.0,a
2989.0,4095.0,3573.0,4095.0,4049.0,3151.0,3221.0,2747.0,-1.87,9.48,2.73,-0.04,0.05,-0.11,1.0,a
2978.0,4095.0,3567.0,4095.0,4032.0,3143.0,3218.0,2739.0,-1.37,9.44,3.33,-0.14,0.02,0.01,1.0,a
2992.0,4095.0,3583.0,4095.0,4048.0,3152.0,3231.0,2750.0,-1.77,9.37,3.28,-0.05,0.01,-0.04,1.0,a
2979.0,4095.0,3559.0,4095.0,4033.0,3151.0,3229.0,2741.0,-1.41,9.52,2.94,-0.07,0.02,0.03,1.0,a
2991.0,4095.0,3575.0,4095.0,4053.0,3151.0,3239.0,2759.0,-1.34,9.39,3.43,-0.06,-0.04,-0.07,1.0,a
2978.0,4095.0,3565.0,4095.0,4030.0,3150.0,3221.0,2748.0,-1.62,9.42,3.13,-0.07,0.0,-0.01,1.0,a
2983.0,4095.0,3564.0,4095.0,4034.0,3147.0,3226.0,2744.0,-1.46,9.36,3.39,-0.02,-0.02,-0.06,1.0,a
2987.0,4095.0,3571.0,4095.0,4062.0,3153.0,3233.0,2752.0,-1.63,9.51,2.91,-0.07,0.0,0.0,1.0,a
2987.0,4095.0,3555.0,4095.0,4012.0,3143.0,3226.0,2757.0,-1.21,9.41,3.52,-0.06,-0.05,-0.08,1.0,a
2982.0,4095.0,3575.0,4095.0,4059.0,3159.0,3226.0,2746.0,-1.94,9.35,3.08,-0.03,0.0,-0.04,1.0,a
2981.0,4095.0,3565.0,4095.0,4023.0,3145.0,3215.0,2747.0,-1.28,9.44,3.3,-0.04,0.0,-0.02,1.0,a
2993.0,4095.0,3565.0,4095.0,4048.0,3155.0,3238.0,2764.0,-1.64,9.39,3.25,-0.05,0.0,-0.05,1.0,a
2981.0,4095.0,3558.0,4095.0,4023.0,3152.0,3223.0,2749.0,-1.57,9.48,2.99,-0.05,0.03,-0.05,1.0,a
2982.0,4095.0,3553.0,4095.0,4054.0,3157.0,3231.0,2763.0,-1.58,9.41,3.24,-0.08,0.01,-0.03,1.0,a
2985.0,4095.0,3568.0,4095.0,4039.0,3143.0,3219.0,2753.0,-1.52,9.43,3.31,-0.08,0.0,-0.01,1.0,a
2990.0,4095.0,3582.0,4095.0,4063.0,3162.0,3237.0,2747.0,-1.47,9.46,3.14,-0.07,0.02,-0.06,1.0,a
2987.0,4095.0,3558.0,4095.0,4035.0,3147.0,3222.0,2748.0,-1.69,9.37,3.2,-0.09,-0.01,-0.02,1.0,a
2987.0,4095.0,3574.0,4095.0,4059.0,3158.0,3231.0,2755.0,-1.52,9.48,3.07,-0.04,0.03,-0.02,1.0,a
2986.0,4095.0,3583.0,4095.0,4048.0,3155.0,3227.0,2750.0,-1.46,9.45,3.22,-0.08,-0.01,-0.02,1.0,a
2987.0,4095.0,3570.0,4095.0,4059.0,3169.0,3238.0,2747.0,-1.63,9.44,3.06,-0.07,-0.01,-0.01,1.0,a
2979.0,4095.0,3573.0,4095.0,4032.0,3152.0,3217.0,2750.0,-1.38,9.43,3.33,-0.07,0.01,-0.04,1.0,a
2989.0,4095.0,3562.0,4095.0,4068.0,3154.0,3231.0,2754.0,-1.58,9.49,2.92,-0.09,-0.0,-0.06,1.0,a
2977.0,4095.0,3562.0,4095.0,4049.0,3152.0,3227.0,2737.0,-1.29,9.33,3.71,-0.25,-0.1,-0.15,1.0,a
2987.0,4095.0,3566.0,4095.0,4050.0,3173.0,3235.0,2752.0,-1.86,9.25,3.56,-0.04,-0.01,-0.08,1.0,a
2983.0,4095.0,3562.0,4095.0,4029.0,3152.0,3222.0,2759.0,-1.7,9.4,3.17,-0.07,-0.01,-0.0,1.0,a
2980.0,4095.0,3557.0,4095.0,4051.0,3166.0,3246.0,2768.0,-1.51,9.39,3.29,-0.0,0.03,0.01,1.0,a
2978.0,4095.0,3562.0,4095.0,4043.0,3162.0,3235.0,2762.0,-1.58,9.37,3.31,-0.13,-0.06,0.0,1.0,a
2985.0,4095.0,3557.0,4095.0,4043.0,3152.0,3229.0,2759.0,-1.49,9.27,3.78,-0.05,-0.04,-0.04,1.0,a
2993.0,4095.0,3579.0,4095.0,4070.0,3157.0,3229.0,2751.0,-1.53,9.42,3.24,-0.1,0.06,0.03,1.0,a
2986.0,4095.0,3554.0,4095.0,4038.0,3157.0,3232.0,2754.0,-1.18,9.43,3.37,-0.04,0.09,-0.01,1.0,a
2990.0,4095.0,3575.0,4095.0,4048.0,3158.0,3230.0,2773.0,-1.57,9.32,3.47,-0.1,0.01,-0.01,1.0,a
2980.0,4095.0,3551.0,4095.0,4050.0,3152.0,3229.0,2757.0,-1.26,9.43,3.38,-0.06,-0.0,-0.0,1.0,a
2992.0,4095.0,3552.0,4095.0,4049.0,3162.0,3239.0,2766.0,-1.56,9.4,3.21,-0.04,-0.0,-0.06,1.0,a
2986.0,4095.0,3556.0,4095.0,4048.0,3155.0,3220.0,2754.0,-1.59,9.33,3.43,-0.06,-0.03,-0.02,1.0,a
2986.0,4095.0,3583.0,4095.0,4054.0,3165.0,3225.0,2768.0,-1.33,9.44,3.23,-0.11,0.04,-0.0,1.0,a
2975.0,4095.0,3568.0,4095.0,4034.0,3162.0,3235.0,2762.0,-1.33,9.36,3.6,-0.05,0.01,-0.02,1.0,a
2991.0,4095.0,3569.0,4095.0,4076.0,3169.0,3239.0,2757.0,-1.46,9.45,3.21,-0.1,0.07,-0.01,1.0,a
2987.0,4095.0,3577.0,4095.0,4041.0,3157.0,3235.0,2749.0,-1.23,9.36,3.74,-0.09,0.1,-0.02,1.0,a
2987.0,4095.0,3561.0,4095.0,4051.0,3156.0,3235.0,2752.0,-1.75,9.33,3.26,-0.07,0.03,-0.01,1.0,a
2981.0,4095.0,3562.0,4095.0,4050.0,3159.0,3231.0,2759.0,-1.45,9.35,3.46,-0.04,0.0,-0.06,1.0,a
2991.0,4095.0,3568.0,4095.0,4043.0,3165.0,3235.0,2761.0,-1.19,9.37,3.59,-0.09,-0.01,-0.03,1.0,a
2979.0,4095.0,3557.0,4095.0,4041.0,3167.0,3235.0,2766.0,-1.57,9.36,3.28,-0.06,0.01,-0.07,1.0,a
2991.0,4095.0,3568.0,4095.0,4054.0,3167.0,3248.0,2768.0,-1.28,9.33,3.63,-0.09,0.04,-0.02,1.0,a
2979.0,4095.0,3553.0,4095.0,4053.0,3159.0,3233.0,2763.0,-1.56,9.32,3.48,-0.03,0.01,-0.05,1.0,a
2990.0,4095.0,3568.0,4095.0,4048.0,3163.0,3242.0,2767.0,-1.31,9.38,3.51,-0.08,-0.0,0.01,1.0,a
2983.0,4095.0,3559.0,4095.0,4042.0,3154.0,3227.0,2772.0,-1.44,9.33,3.55,-0.05,0.0,-0.03,1.0,a
2989.0,4095.0,3573.0,4095.0,4066.0,3171.0,3248.0,2767.0,-1.31,9.47,3.31,-0.08,0.02,-0.01,1.0,a
2989.0,4095.0,3566.0,4095.0,4075.0,3173.0,3233.0,2766.0,-1.2,9.35,3.71,-0.08,-0.02,-0.08,1.0,a
2975.0,4095.0,3568.0,4095.0,4044.0,3167.0,3230.0,2767.0,-1.68,9.29,3.48,-0.04,0.01,-0.03,1.0,a
2986.0,4095.0,3568.0,4095.0,4075.0,3167.0,3243.0,2770.0,-1.1,9.47,3.39,-0.06,0.04,0.0,1.0,a
2982.0,4095.0,3557.0,4095.0,4066.0,3165.0,3232.0,2779.0,-1.54,9.21,3.83,-0.05,-0.07,-0.09,1.0,a
2990.0,4095.0,3567.0,4095.0,4053.0,3169.0,3248.0,2774.0,-1.43,9.43,3.22,-0.01,0.03,-0.01,1.0,a
2981.0,4095.0,3574.0,4095.0,4062.0,3165.0,3233.0,2768.0,-1.18,9.36,3.65,-0.19,-0.1,-0.08,1.0,a
2989.0,4095.0,3552.0,4095.0,4064.0,3177.0,3237.0,2781.0,-1.56,9.25,3.63,-0.01,-0.01,-0.04,1.0,a
2985.0,4095.0,3551.0,4095.0,4047.0,3165.0,3240.0,2764.0,-1.42,9.34,3.47,0.13,0.05,0.01,1.0,a
2989.0,4095.0,3568.0,4095.0,4062.0,3167.0,3235.0,2770.0,-1.31,9.38,3.34,0.09,-0.09,-0.09,1.0,a
2991.0,4095.0,3553.0,4095.0,4062.0,3168.0,3243.0,2762.0,-1.43,9.61,2.92,0.14,-0.04,-0.15,1.0,a
2986.0,4095.0,3573.0,4095.0,4095.0,3199.0,3263.0,2800.0,-1.54,9.55,2.77,0.05,-0.07,-0.2,1.0,a
2979.0,4095.0,3545.0,4095.0,4095.0,3216.0,3293.0,2624.0,-1.67,9.59,2.8,-0.19,0.08,-0.07,1.0,a
3343.0,2501.0,3280.0,3757.0,3858.0,3171.0,3159.0,2726.0,-1.69,9.81,1.17,0.01,-0.06,-0.06,1.0,a
3339.0,2495.0,3283.0,3774.0,3867.0,3195.0,3152.0,2768.0,-1.62,9.91,0.95,-0.04,-0.09,-0.09,1.0,a
3343.0,2477.0,3298.0,3780.0,3900.0,3203.0,3175.0,2769.0,-1.8,9.79,1.08,-0.1,-0.06,-0.11,1.0,a
3343.0,2384.0,3293.0,3751.0,3892.0,3213.0,3188.0,2809.0,-1.88,9.73,1.36,-0.14,-0.06,-0.14,1.0,a
3327.0,2351.0,3278.0,3730.0,3886.0,3201.0,3185.0,2785.0,-2.05,9.7,1.54,-0.09,-0.05,-0.07,1.0,a
3339.0,2350.0,3285.0,3742.0,3909.0,3216.0,3190.0,2791.0,-2.01,9.68,1.55,-0.07,0.02,-0.02,1.0,a
3325.0,2335.0,3289.0,3719.0,3901.0,3216.0,3185.0,2788.0,-1.82,9.75,1.41,-0.06,-0.02,-0.03,1.0,a
3338.0,2323.0,3286.0,3731.0,3927.0,3229.0,3200.0,2795.0,-1.97,9.79,1.38,-0.1,-0.02,-0.02,1.0,a
3338.0,2317.0,3270.0,3743.0,3898.0,3219.0,3200.0,2796.0,-1.88,9.75,1.44,-0.06,0.03,-0.03,1.0,a
3345.0,2315.0,3303.0,3773.0,3938.0,3242.0,3211.0,2798.0,-1.98,9.68,1.53,-0.07,0.01,-0.02,1.0,a
3333.0,2313.0,3280.0,3760.0,3920.0,3227.0,3203.0,2800.0,-1.79,9.77,1.46,-0.05,-0.01,-0.04,1.0,a
3342.0,2310.0,3285.0,3795.0,3935.0,3247.0,3206.0,2809.0,-2.06,9.61,1.47,-0.09,0.01,-0.02,1.0,a
3334.0,2304.0,3282.0,3785.0,3904.0,3236.0,3203.0,2800.0,-1.84,9.76,1.4,-0.08,0.04,-0.02,1.0,a
3334.0,2300.0,3280.0,3793.0,3927.0,3245.0,3210.0,2809.0,-1.81,9.74,1.56,-0.07,-0.02,-0.05,1.0,a
3342.0,2301.0,3280.0,3787.0,3920.0,3232.0,3195.0,2809.0,-1.86,9.77,1.32,-0.04,0.0,-0.04,1.0,a
3331.0,2303.0,3285.0,3808.0,3915.0,3241.0,3201.0,2793.0,-1.92,9.72,1.41,-0.08,0.03,-0.02,1.0,a
3345.0,2304.0,3285.0,3825.0,3921.0,3248.0,3212.0,2811.0,-1.9,9.72,1.42,-0.07,0.01,-0.05,1.0,a
3329.0,2299.0,3278.0,3792.0,3903.0,3233.0,3214.0,2795.0,-1.81,9.75,1.45,-0.03,-0.01,-0.04,1.0,a
3349.0,2300.0,3298.0,3824.0,3915.0,3242.0,3215.0,2797.0,-2.03,9.74,1.37,-0.05,-0.02,-0.04,1.0,a
3337.0,2299.0,3285.0,3815.0,3920.0,3233.0,3207.0,2799.0,-1.82,9.71,1.53,-0.05,-0.0,-0.03,1.0,a
3343.0,2301.0,3283.0,3840.0,3949.0,3253.0,3216.0,2798.0,-1.81,9.76,1.41,-0.07,-0.02,-0.02,1.0,a
3334.0,2295.0,3283.0,3824.0,3950.0,3247.0,3210.0,2795.0,-1.72,9.75,1.54,-0.06,0.01,-0.08,1.0,a
3357.0,2305.0,3295.0,3830.0,3955.0,3249.0,3215.0,2802.0,-2.03,9.7,1.57,-0.07,-0.05,-0.08,1.0,a
3333.0,2295.0,3287.0,3820.0,3942.0,3250.0,3214.0,2805.0,-1.99,9.7,1.44,-0.06,-0.01,-0.04,1.0,a
3335.0,2290.0,3280.0,3817.0,3947.0,3249.0,3219.0,2809.0,-1.84,9.77,1.47,-0.08,-0.01,-0.04,1.0,a
3344.0,2295.0,3276.0,3833.0,3954.0,3254.0,3226.0,2800.0,-1.97,9.66,1.6,-0.04,0.01,-0.04,1.0,a
3342.0,2297.0,3281.0,3831.0,3943.0,3248.0,3216.0,2773.0,-1.86,9.74,1.49,-0.08,-0.02,-0.02,1.0,a
3344.0,2295.0,3287.0,3840.0,3948.0,3258.0,3223.0,2796.0,-1.92,9.72,1.42,-0.02,0.04,-0.04,1.0,a
3335.0,2290.0,3275.0,3823.0,3943.0,3259.0,3216.0,2797.0,-1.84,9.72,1.61,-0.1,-0.04,-0.02,1.0,a
3333.0,2289.0,3291.0,3839.0,3968.0,3264.0,3222.0,2787.0,-2.08,9.65,1.37,-0.02,-0.02,-0.05,1.0,a
3319.0,2288.0,3277.0,3825.0,3952.0,3257.0,3217.0,2795.0,-1.93,9.8,1.01,-0.07,0.03,0.02,1.0,a
3343.0,2285.0,3279.0,3837.0,3943.0,3264.0,3221.0,2784.0,-1.74,9.68,1.86,-0.09,0.01,-0.05,1.0,a
3346.0,2285.0,3282.0,3842.0,3951.0,3250.0,3216.0,2800.0,-2.05,9.69,1.54,-0.07,-0.01,-0.03,1.0,a
3344.0,2288.0,3297.0,3862.0,3965.0,3263.0,3225.0,2800.0,-1.7,9.79,1.47,-0.02,0.01,-0.04,1.0,a
3344.0,2275.0,3268.0,3842.0,3952.0,3265.0,3221.0,2800.0,-1.96,9.72,1.3,-0.11,-0.03,-0.02,1.0,a
3344.0,2288.0,3279.0,3865.0,3951.0,3285.0,3232.0,2800.0,-1.79,9.74,1.78,-0.04,0.01,-0.06,1.0,a
3344.0,2286.0,3283.0,3877.0,3968.0,3277.0,3238.0,2822.0,-2.01,9.69,1.4,-0.09,-0.01,-0.02,1.0,a
3343.0,2279.0,3280.0,3865.0,3951.0,3262.0,3213.0,2813.0,-1.71,9.72,1.75,-0.05,0.01,-0.04,1.0,a
3340.0,2285.0,3289.0,3882.0,3986.0,3278.0,3231.0,2805.0,-2.05,9.7,1.34,-0.1,0.01,-0.01,1.0,a
3327.0,2279.0,3273.0,3844.0,3950.0,3264.0,3237.0,2814.0,-1.63,9.76,1.8,-0.05,-0.01,-0.05,1.0,a
3344.0,2287.0,3280.0,3875.0,3947.0,3262.0,3221.0,2829.0,-1.62,9.75,1.67,-0.06,0.0,-0.07,1.0,a
3344.0,2282.0,3287.0,3888.0,3984.0,3270.0,3228.0,2814.0,-1.84,9.75,1.4,-0.09,-0.0,-0.11,1.0,a
3342.0,2283.0,3281.0,3863.0,3930.0,3266.0,3239.0,2809.0,-1.54,10.01,1.19,-0.13,-0.13,-0.13,1.0,a
3342.0,2243.0,3272.0,3865.0,3958.0,3267.0,3237.0,2839.0,-2.22,9.65,1.59,-0.21,-0.18,-0.25,1.0,a
3343.0,2246.0,3280.0,3882.0,3983.0,3280.0,3242.0,2835.0,-2.02,9.51,2.26,-0.24,-0.27,-0.23,1.0,a
3334.0,2250.0,3294.0,3878.0,3965.0,3271.0,3225.0,2832.0,-2.59,9.33,2.41,-0.17,-0.08,-0.2,1.0,a
3348.0,2247.0,3290.0,3875.0,3973.0,3279.0,3245.0,2839.0,-2.94,9.28,2.35,-0.16,-0.01,-0.08,1.0,a
3335.0,2242.0,3280.0,3861.0,3963.0,3272.0,3230.0,2832.0,-2.55,9.33,2.6,-0.15,0.0,-0.04,1.0,a
3337.0,2239.0,3276.0,3867.0,3987.0,3280.0,3245.0,2839.0,-2.4,9.4,2.55,-0.14,-0.03,-0.04,1.0,a
3336.0,2246.0,3280.0,3876.0,3965.0,3277.0,3239.0,2825.0,-2.56,9.3,2.77,-0.13,-0.01,-0.08,1.0,a
3333.0,2245.0,3282.0,3886.0,3989.0,3278.0,3231.0,2830.0,-2.68,9.26,2.57,-0.15,-0.0,-0.02,1.0,a
3327.0,2245.0,3273.0,3869.0,3967.0,3277.0,3237.0,2834.0,-2.36,9.25,3.06,-0.14,-0.04,-0.04,1.0,a
3344.0,2237.0,3280.0,3877.0,3979.0,3285.0,3244.0,2844.0,-2.59,9.23,2.85,-0.13,-0.01,-0.03,1.0,a
3334.0,2237.0,3278.0,3898.0,3984.0,3274.0,3231.0,2823.0,-2.47,9.21,3.03,-0.15,0.02,-0.0,1.0,a
3344.0,2253.0,3287.0,3887.0,3977.0,3271.0,3232.0,2839.0,-2.56,9.15,3.13,-0.15,0.01,-0.0,1.0,a
3343.0,2246.0,3283.0,3898.0,3987.0,3285.0,3248.0,2842.0,-2.3,9.21,3.36,-0.13,0.02,-0.02,1.0,a
3344.0,2243.0,3271.0,3888.0,3967.0,3277.0,3233.0,2832.0,-2.64,9.16,3.12,-0.1,0.01,-0.02,1.0,a
3344.0,2231.0,3278.0,3883.0,4007.0,3285.0,3251.0,2853.0,-2.4,9.17,3.25,-0.14,0.02,0.03,1.0,a
3326.0,2238.0,3281.0,3889.0,3974.0,3277.0,3234.0,2832.0,-2.37,9.14,3.45,-0.11,0.02,0.01,1.0,a
3334.0,2236.0,3280.0,3893.0,3995.0,3285.0,3248.0,2838.0,-2.3,9.17,3.35,-0.12,0.01,0.04,1.0,a
3344.0,2241.0,3275.0,3909.0,3987.0,3292.0,3248.0,2858.0,-2.1,9.24,3.4,-0.09,0.02,0.02,1.0,a
3344.0,2244.0,3274.0,3888.0,3979.0,3283.0,3246.0,2853.0,-1.64,9.24,3.8,-0.08,0.03,0.04,1.0,a
3329.0,2231.0,3275.0,3891.0,3984.0,3282.0,3244.0,2848.0,-1.79,9.23,3.57,-0.03,-0.02,-0.0,1.0,a
3331.0,2237.0,3280.0,3905.0,3986.0,3286.0,3246.0,2861.0,-1.73,9.25,3.55,-0.08,0.04,0.02,1.0,a
3322.0,2226.0,3275.0,3883.0,3984.0,3276.0,3238.0,2852.0,-1.81,9.28,3.57,-0.07,0.03,0.01,1.0,a
3346.0,2235.0,3281.0,3886.0,3984.0,3285.0,3252.0,2865.0,-1.62,9.25,3.66,-0.07,0.05,0.04,1.0,a
3335.0,2239.0,3282.0,3888.0,3973.0,3279.0,3237.0,2844.0,-1.68,9.25,3.59,-0.04,0.03,0.0,1.0,a
3345.0,2233.0,3282.0,3886.0,3984.0,3291.0,3255.0,2870.0,-1.51,9.33,3.51,-0.04,0.02,0.03,1.0,a
3329.0,2231.0,3271.0,3887.0,3991.0,3282.0,3246.0,2864.0,-1.54,9.28,3.61,-0.05,0.03,-0.01,1.0,a
3334.0,2242.0,3286.0,3887.0,3997.0,3294.0,3248.0,2864.0,-1.5,9.32,3.53,-0.04,0.04,0.03,1.0,a
3327.0,2229.0,3278.0,3888.0,3981.0,3278.0,3238.0,2855.0,-1.46,9.31,3.59,-0.02,0.01,0.02,1.0,a
3341.0,2239.0,3285.0,3900.0,3998.0,3293.0,3248.0,2864.0,-1.62,9.37,3.35,-0.03,0.05,0.09,1.0,a
3339.0,2227.0,3280.0,3888.0,4000.0,3281.0,3249.0,2854.0,-1.19,9.38,3.53,-0.03,0.03,0.08,1.0,a
3330.0,2238.0,3277.0,3902.0,3987.0,3287.0,3242.0,2845.0,-1.14,9.43,3.45,-0.04,0.05,0.09,1.0,a
3345.0,2235.0,3282.0,3904.0,3984.0,3291.0,3250.0,2859.0,-0.83,9.46,3.59,0.01,0.01,-0.0,1.0,a
3339.0,2228.0,3281.0,3904.0,3983.0,3280.0,3248.0,2859.0,-1.25,9.42,3.34,0.01,0.03,0.0,1.0,a
3335.0,2240.0,3282.0,3889.0,3998.0,3285.0,3248.0,2871.0,-1.11,9.45,3.35,0.04,0.01,-0.0,1.0,a
3330.0,2234.0,3258.0,3875.0,3979.0,3281.0,3246.0,2859.0,-1.27,9.51,3.06,0.04,0.06,0.05,1.0,a
3350.0,2237.0,3265.0,3889.0,3987.0,3281.0,3251.0,2860.0,-0.86,9.59,3.04,0.04,0.04,0.06,1.0,a
3333.0,2236.0,3280.0,3893.0,3984.0,3286.0,3231.0,2838.0,-0.91,9.61,2.89,0.01,0.06,0.03,1.0,a
3331.0,2230.0,3280.0,3895.0,3983.0,3283.0,3247.0,2855.0,-0.51,9.88,2.18,0.03,-0.0,-0.0,1.0,a
3344.0,2225.0,3278.0,3893.0,4005.0,3293.0,3248.0,2870.0,-0.72,9.83,2.07,-0.0,-0.0,-0.06,1.0,a
3344.0,2227.0,3275.0,3884.0,3984.0,3281.0,3248.0,2864.0,-0.54,9.88,2.1,0.01,-0.02,-0.06,1.0,a
3347.0,2234.0,3280.0,3891.0,3995.0,3291.0,3250.0,2866.0,-0.68,9.83,2.14,0.02,-0.03,-0.11,1.0,a
3344.0,2224.0,3277.0,3899.0,3984.0,3283.0,3247.0,2858.0,-0.73,9.88,1.99,0.06,-0.03,-0.1,1.0,a
3331.0,2233.0,3277.0,3918.0,4016.0,3301.0,3249.0,2869.0,-0.86,9.88,1.84,0.06,-0.08,-0.14,1.0,a
3329.0,2212.0,3266.0,3883.0,4001.0,3285.0,3248.0,2863.0,-0.93,9.88,1.72,0.07,-0.07,-0.1,1.0,a
3338.0,2224.0,3282.0,3885.0,4015.0,3303.0,3262.0,2869.0,-0.97,9.9,1.58,0.03,-0.08,-0.12,1.0,a
3342.0,2224.0,3269.0,3878.0,4006.0,3281.0,3241.0,2859.0,-1.07,9.86,1.66,0.02,-0.06,-0.1,1.0,a
3329.0,2224.0,3283.0,3903.0,3983.0,3300.0,3258.0,2875.0,-1.12,9.89,1.48,0.04,-0.07,-0.13,1.0,a
3349.0,2218.0,3285.0,3911.0,3997.0,3289.0,3251.0,2864.0,-1.34,9.8,1.48,0.0,-0.04,-0.11,1.0,a
3322.0,2222.0,3277.0,3909.0,3984.0,3290.0,3241.0,2861.0,-1.26,9.84,1.44,0.05,-0.07,-0.15,1.0,a
3347.0,2224.0,3287.0,3892.0,4005.0,3298.0,3255.0,2863.0,-1.39,9.84,1.34,0.05,-0.1,-0.11,1.0,a
3330.0,2219.0,3267.0,3893.0,3980.0,3286.0,3248.0,2857.0,-1.67,9.82,1.1,0.03,-0.05,-0.08,1.0,a
3337.0,2224.0,3283.0,3909.0,4003.0,3298.0,3254.0,2863.0,-1.48,9.86,1.01,-0.01,-0.01,-0.06,1.0,a
3343.0,2211.0,3283.0,3897.0,3999.0,3289.0,3247.0,2862.0,-1.54,9.85,1.07,-0.03,-0.03,-0.08,1.0,a
3331.0,2225.0,3289.0,3903.0,4011.0,3294.0,3257.0,2870.0,-1.53,9.86,1.08,-0.03,-0.04,-0.08,1.0,a
3344.0,2211.0,3279.0,3903.0,3981.0,3294.0,3249.0,2864.0,-1.63,9.84,1.13,-0.02,-0.05,-0.09,1.0,a
3351.0,2225.0,3280.0,3908.0,4001.0,3299.0,3259.0,2865.0,-1.65,9.8,1.01,-0.0,-0.05,-0.07,1.0,a
3334.0,2215.0,3274.0,3898.0,3983.0,3290.0,3247.0,2848.0,-1.68,9.84,0.87,-0.02,-0.05,-0.09,1.0,a
3344.0,2220.0,3280.0,3907.0,3999.0,3290.0,3246.0,2851.0,-1.81,9.84,0.7,-0.05,-0.05,-0.09,1.0,a
3342.0,2219.0,3280.0,3906.0,4014.0,3302.0,3264.0,2850.0,-1.87,9.8,0.91,-0.07,-0.07,-0.13,1.0,a
3332.0,2214.0,3276.0,3915.0,3995.0,3291.0,3248.0,2841.0,-2.21,9.7,0.89,-0.11,-0.05,-0.09,1.0,a
3356.0,2224.0,3273.0,3909.0,4000.0,3302.0,3271.0,2865.0,-2.31,9.67,0.99,-0.12,0.01,-0.08,1.0,a
3331.0,2217.0,3280.0,3904.0,3991.0,3297.0,3254.0,2842.0,-2.1,9.66,1.27,-0.1,-0.02,-0.05,1.0,a
3344.0,2219.0,3291.0,3913.0,4029.0,3305.0,3259.0,2860.0,-2.11,9.71,1.09,-0.07,-0.03,-0.09,1.0,a
3328.0,2213.0,3271.0,3911.0,3994.0,3291.0,3248.0,2849.0,-2.31,9.67,1.13,-0.07,-0.04,-0.07,1.0,a
3344.0,2217.0,3279.0,3920.0,4023.0,3306.0,3268.0,2849.0,-2.23,9.68,1.19,-0.07,-0.01,-0.07,1.0,a
3341.0,2222.0,3280.0,3920.0,4006.0,3297.0,3250.0,2827.0,-2.39,9.63,1.1,-0.07,-0.01,-0.08,1.0,a
3345.0,2215.0,3278.0,3914.0,3991.0,3295.0,3257.0,2835.0,-2.28,9.68,1.11,-0.06,0.01,-0.07,1.0,a
3344.0,2207.0,3275.0,3930.0,4016.0,3308.0,3265.0,2859.0,-2.5,9.61,1.13,-0.1,-0.01,-0.07,1.0,a
3328.0,2218.0,3280.0,3916.0,3998.0,3294.0,3248.0,2825.0,-2.31,9.67,1.13,-0.1,0.06,-0.04,1.0,a
3344.0,2215.0,3280.0,3951.0,4012.0,3291.0,3250.0,2820.0,-2.56,9.61,1.15,-0.11,0.01,-0.07,1.0,a
3343.0,2218.0,3278.0,3918.0,3987.0,3295.0,3248.0,2828.0,-2.27,9.69,1.25,-0.07,0.0,-0.07,1.0,a
3334.0,2225.0,3290.0,3949.0,4019.0,3309.0,3263.0,2832.0,-2.6,9.58,1.2,-0.09,-0.05,-0.07,1.0,a
3325.0,2214.0,3275.0,3920.0,3999.0,3299.0,3250.0,2818.0,-2.37,9.67,1.2,-0.08,0.01,-0.06,1.0,a
3344.0,2213.0,3294.0,3943.0,4023.0,3303.0,3263.0,2827.0,-2.6,9.59,1.21,-0.1,-0.01,-0.07,1.0,a
3334.0,2219.0,3280.0,3916.0,4015.0,3283.0,3259.0,2832.0,-2.4,9.64,1.28,-0.1,-0.03,-0.08,1.0,a
3328.0,2221.0,3287.0,3933.0,4033.0,3305.0,3268.0,2827.0,-2.77,9.48,1.51,-0.11,-0.02,-0.09,1.0,a
3328.0,2218.0,3275.0,3925.0,4001.0,3296.0,3255.0,2809.0,-2.66,9.56,1.42,-0.07,0.04,-0.05,1.0,a
3344.0,2221.0,3280.0,3914.0,3994.0,3297.0,3251.0,2790.0,-2.87,9.47,1.45,-0.09,-0.01,-0.06,1.0,a
3345.0,2224.0,3284.0,3947.0,4022.0,3308.0,3262.0,2803.0,-2.55,9.52,1.52,-0.06,0.0,-0.03,1.0,a
3336.0,2227.0,3280.0,3933.0,4011.0,3291.0,3264.0,2770.0,-2.78,9.47,1.43,-0.06,-0.02,-0.08,1.0,a
3335.0,2224.0,3280.0,3952.0,4026.0,3309.0,3260.0,2786.0,-2.78,9.47,1.41,-0.09,0.03,-0.02,1.0,a
3342.0,2217.0,3281.0,3941.0,4005.0,3295.0,3253.0,2791.0,-2.74,9.5,1.5,-0.11,0.02,-0.06,1.0,a
3346.0,2218.0,3286.0,3942.0,4025.0,3306.0,3263.0,2789.0,-2.66,9.5,1.54,-0.07,-0.02,-0.05,1.0,a
3335.0,2224.0,3281.0,3933.0,4010.0,3299.0,3253.0,2800.0,-2.71,9.45,1.58,-0.08,-0.02,-0.1,1.0,a
3330.0,2224.0,3280.0,3936.0,4030.0,3309.0,3264.0,2800.0,-2.72,9.45,1.6,-0.1,-0.02,-0.06,1.0,a
3342.0,2224.0,3279.0,3920.0,3996.0,3292.0,3254.0,2799.0,-2.89,9.38,1.76,-0.09,-0.05,-0.11,1.0,a
3332.0,2224.0,3280.0,3922.0,4012.0,3305.0,3268.0,2800.0,-2.95,9.37,1.73,-0.08,-0.01,-0.03,1.0,a
3338.0,2222.0,3291.0,3943.0,4023.0,3311.0,3264.0,2781.0,-2.93,9.38,1.75,-0.07,-0.02,-0.06,1.0,a
3330.0,2224.0,3278.0,3926.0,4013.0,3301.0,3254.0,2784.0,-3.0,9.34,1.74,-0.12,0.01,-0.02,1.0,a
3344.0,2224.0,3280.0,3936.0,4026.0,3312.0,3277.0,2785.0,-2.81,9.38,1.87,-0.11,0.02,-0.07,1.0,a
3329.0,2209.0,3278.0,3927.0,4013.0,3303.0,3254.0,2775.0,-3.02,9.34,1.82,-0.1,-0.02,-0.03,1.0,a
3343.0,2219.0,3280.0,3930.0,4016.0,3312.0,3264.0,2797.0,-2.83,9.36,1.99,-0.08,-0.01,-0.04,1.0,a
3333.0,2218.0,3275.0,3919.0,3995.0,3303.0,3257.0,2795.0,-2.99,9.32,1.89,-0.11,0.0,-0.02,1.0,a
3345.0,2224.0,3285.0,3947.0,4019.0,3309.0,3259.0,2759.0,-2.74,9.42,1.91,-0.12,0.0,-0.06,1.0,a
3344.0,2225.0,3276.0,3926.0,4011.0,3298.0,3257.0,2768.0,-3.02,9.3,2.0,-0.13,-0.04,-0.06,1.0,a
3347.0,2236.0,3281.0,3952.0,4034.0,3312.0,3269.0,2783.0,-2.94,9.28,2.23,-0.12,-0.0,-0.06,1.0,a
3344.0,2215.0,3282.0,3921.0,4013.0,3309.0,3263.0,2752.0,-3.13,9.23,2.18,-0.13,0.04,-0.03,1.0,a
3339.0,2225.0,3279.0,3934.0,4015.0,3312.0,3262.0,2812.0,-3.05,9.32,2.17,-0.17,-0.01,-0.07,1.0,a
3344.0,2218.0,3271.0,3920.0,4027.0,3307.0,3262.0,2808.0,-2.91,9.28,2.42,-0.14,-0.01,-0.06,1.0,a
3343.0,2220.0,3282.0,3953.0,4045.0,3314.0,3267.0,2799.0,-3.27,9.18,2.39,-0.15,0.02,-0.04,1.0,a
3333.0,2224.0,3280.0,3931.0,3997.0,3300.0,3266.0,2800.0,-2.93,9.22,2.47,-0.14,0.05,0.01,1.0,a
3329.0,2224.0,3280.0,3937.0,4023.0,3314.0,3261.0,2768.0,-3.01,9.18,2.61,-0.14,-0.0,0.0,1.0,a
3331.0,2215.0,3278.0,3931.0,4016.0,3306.0,3254.0,2761.0,-2.73,9.22,2.72,-0.13,-0.02,-0.01,1.0,a
3345.0,2224.0,3296.0,3949.0,4035.0,3317.0,3267.0,2766.0,-2.94,9.13,2.9,-0.13,0.01,-0.03,1.0,a
3339.0,2224.0,3267.0,3917.0,4015.0,3297.0,3263.0,2797.0,-2.76,9.19,2.73,-0.1,0.03,-0.02,1.0,a
3339.0,2221.0,3289.0,3943.0,4023.0,3316.0,3269.0,2806.0,-3.11,9.11,2.79,-0.12,0.02,-0.03,1.0,a
3330.0,2224.0,3280.0,3925.0,4017.0,3308.0,3253.0,2790.0,-2.77,9.21,2.83,-0.1,0.0,-0.0,1.0,a
3344.0,2228.0,3285.0,3952.0,4016.0,3311.0,3271.0,2814.0,-2.93,9.11,3.0,-0.06,-0.02,-0.05,1.0,a
3333.0,2221.0,3273.0,3924.0,4009.0,3298.0,3259.0,2800.0,-2.89,9.16,2.79,-0.08,0.01,-0.0,1.0,a
3351.0,2228.0,3268.0,3941.0,4013.0,3303.0,3263.0,2785.0,-2.95,9.1,2.94,-0.08,0.02,0.0,1.0,a
3346.0,2227.0,3285.0,3934.0,4020.0,3312.0,3279.0,2799.0,-2.76,9.18,2.74,-0.12,0.06,0.03,1.0,a
3334.0,2219.0,3263.0,3925.0,4002.0,3307.0,3269.0,2746.0,-2.78,9.13,3.05,-0.14,0.12,0.02,1.0,a
3345.0,2230.0,3279.0,3935.0,4030.0,3315.0,3267.0,2736.0,-2.54,9.27,2.92,-0.09,-0.02,0.02,1.0,a
3328.0,2224.0,3280.0,3936.0,4018.0,3312.0,3259.0,2757.0,-2.45,9.18,3.22,-0.06,-0.02,-0.04,1.0,a
3346.0,2235.0,3274.0,3937.0,4023.0,3315.0,3266.0,2758.0,-2.76,9.21,2.89,-0.06,0.01,-0.02,1.0,a
3337.0,2234.0,3282.0,3933.0,4020.0,3303.0,3253.0,2740.0,-2.86,9.09,2.94,-0.08,0.02,-0.02,1.0,a
3350.0,2232.0,3282.0,3941.0,4023.0,3323.0,3273.0,2747.0,-2.57,9.22,3.01,-0.07,0.03,0.03,1.0,a
3334.0,2233.0,3280.0,3950.0,4026.0,3310.0,3265.0,2751.0,-2.43,9.19,3.2,-0.09,0.05,0.03,1.0,a
3343.0,2231.0,3273.0,3927.0,4017.0,3305.0,3258.0,2742.0,-2.29,9.22,3.16,-0.1,0.05,0.07,1.0,a
3341.0,2229.0,3283.0,3925.0,4029.0,3311.0,3271.0,2797.0,-2.04,9.27,3.27,-0.07,0.01,0.08,1.0,a
3328.0,2220.0,3265.0,3931.0,4015.0,3300.0,3264.0,2800.0,-1.98,9.32,3.18,-0.09,0.03,0.05,1.0,a
3344.0,2226.0,3280.0,3955.0,4043.0,3312.0,3264.0,2807.0,-1.84,9.3,3.38,-0.04,0.02,-0.01,1.0,a
3344.0,2230.0,3280.0,3920.0,4019.0,3291.0,3252.0,2813.0,-2.07,9.32,3.16,-0.06,0.02,0.04,1.0,a
3344.0,2231.0,3280.0,3927.0,4027.0,3312.0,3278.0,2817.0,-1.92,9.31,3.36,-0.05,0.02,0.03,1.0,a
3333.0,2227.0,3280.0,3933.0,4016.0,3307.0,3259.0,2801.0,-1.65,9.4,3.34,-0.01,-0.03,0.06,1.0,a
3345.0,2225.0,3281.0,3935.0,4030.0,3313.0,3274.0,2816.0,-1.71,9.37,3.2,-0.02,0.03,0.01,1.0,a
3329.0,2215.0,3277.0,3930.0,4016.0,3311.0,3258.0,2800.0,-1.63,9.43,3.23,0.02,0.03,-0.01,1.0,a
3344.0,2232.0,3283.0,3948.0,4038.0,3318.0,3269.0,2800.0,-1.9,9.45,2.87,0.04,0.01,-0.04,1.0,a
3347.0,2221.0,3266.0,3921.0,4034.0,3318.0,3267.0,2806.0,-1.6,9.52,2.87,0.02,-0.01,-0.0,1.0,a
3328.0,2224.0,3277.0,3924.0,4017.0,3307.0,3266.0,2818.0,-1.78,9.46,2.96,0.02,-0.01,-0.05,1.0,a
3347.0,2226.0,3291.0,3950.0,4048.0,3312.0,3280.0,2806.0,-1.57,9.5,2.89,0.07,-0.01,-0.03,1.0,a
3332.0,2226.0,3270.0,3938.0,4013.0,3305.0,3257.0,2791.0,-1.76,9.54,2.54,0.01,-0.01,-0.04,1.0,a
3348.0,2227.0,3287.0,3959.0,4041.0,3317.0,3263.0,2791.0,-1.59,9.6,2.65,0.01,-0.0,0.02,1.0,a
3333.0,2226.0,3281.0,3954.0,4023.0,3308.0,3264.0,2798.0,-1.61,9.6,2.6,0.01,0.01,-0.05,1.0,a
3343.0,2220.0,3274.0,3947.0,4027.0,3310.0,3263.0,2801.0,-1.57,9.61,2.4,0.02,0.01,-0.05,1.0,a
3340.0,2224.0,3275.0,3927.0,4016.0,3312.0,3274.0,2768.0,-1.73,9.62,2.32,0.01,-0.05,-0.12,1.0,a
3351.0,2225.0,3281.0,3949.0,4025.0,3311.0,3265.0,2778.0,-1.86,9.62,2.26,-0.04,-0.0,-0.03,1.0,a
3346.0,2224.0,3280.0,3941.0,4029.0,3313.0,3271.0,2781.0,-2.06,9.57,2.11,0.01,-0.03,-0.09,1.0,a
3343.0,2229.0,3280.0,3947.0,4045.0,3327.0,3280.0,2787.0,-2.02,9.6,2.07,-0.01,-0.03,-0.06,1.0,a
3328.0,2215.0,3280.0,3929.0,4018.0,3310.0,3259.0,2759.0,-1.92,9.62,1.98,0.0,-0.02,-0.06,1.0,a
3344.0,2224.0,3283.0,3946.0,4032.0,3314.0,3278.0,2781.0,-1.79,9.64,2.24,-0.02,-0.06,-0.09,1.0,a
3343.0,2222.0,3280.0,3935.0,4022.0,3311.0,3265.0,2705.0,-2.2,9.6,1.8,-0.05,0.01,-0.06,1.0,a
3344.0,2227.0,3294.0,3962.0,4038.0,3321.0,3275.0,2723.0,-2.17,9.54,2.24,-0.09,-0.01,-0.06,1.0,a
3338.0,2223.0,3278.0,3925.0,4021.0,3315.0,3266.0,2725.0,-1.96,9.58,2.08,-0.02,0.0,-0.06,1.0,a
3345.0,2227.0,3275.0,3938.0,4032.0,3312.0,3273.0,2707.0,-2.08,9.58,1.97,-0.03,-0.04,-0.1,1.0,a
3343.0,2217.0,3274.0,3951.0,4022.0,3302.0,3267.0,2668.0,-2.09,9.6,2.1,0.0,-0.11,-0.11,1.0,a
3344.0,2224.0,3277.0,3956.0,4033.0,3314.0,3274.0,2762.0,-2.48,9.5,1.87,-0.02,-0.04,-0.09,1.0,a
3337.0,2224.0,3283.0,3934.0,4028.0,3307.0,3262.0,2755.0,-2.34,9.53,1.88,0.02,0.03,-0.07,1.0,a
3354.0,2222.0,3281.0,3957.0,4046.0,3312.0,3278.0,2738.0,-2.35,9.56,1.79,-0.06,-0.01,-0.02,1.0,a
3346.0,2227.0,3275.0,3936.0,4016.0,3314.0,3276.0,2745.0,-2.16,9.6,1.94,-0.04,-0.0,-0.07,1.0,a
3333.0,2222.0,3266.0,3945.0,4034.0,3314.0,3271.0,2672.0,-2.72,9.47,1.86,-0.09,0.03,-0.05,1.0,a
3328.0,2224.0,3280.0,3946.0,4032.0,3311.0,3280.0,2769.0,-2.35,9.58,1.65,0.02,0.03,-0.08,1.0,a
3346.0,2225.0,3280.0,3930.0,4018.0,3309.0,3263.0,2768.0,-2.49,9.57,1.56,-0.08,-0.05,-0.05,1.0,a
3345.0,2237.0,3281.0,3957.0,4026.0,3312.0,3269.0,2777.0,-2.48,9.5,1.95,-0.06,0.0,-0.05,1.0,a
3337.0,2224.0,3279.0,3945.0,4037.0,3312.0,3264.0,2766.0,-2.44,9.56,1.62,-0.07,-0.0,-0.02,1.0,a
3349.0,2224.0,3278.0,3941.0,4021.0,3311.0,3271.0,2764.0,-2.21,9.56,1.86,-0.1,0.01,-0.07,1.0,a
3337.0,2215.0,3278.0,3937.0,4034.0,3311.0,3257.0,2801.0,-2.64,9.42,1.95,-0.08,0.01,-0.03,1.0,a
3648.0,3618.0,3950.0,3754.0,4095.0,3119.0,3274.0,3255.0,-0.07,9.76,2.78,0.08,-0.21,-0.11,1.0,a
3671.0,3632.0,3978.0,3788.0,4095.0,3123.0,3277.0,3269.0,-0.34,9.79,2.57,0.04,-0.07,-0.05,1.0,a
3653.0,3606.0,3967.0,3775.0,4095.0,3125.0,3271.0,3270.0,-0.26,9.78,2.66,-0.06,0.08,0.0,1.0,a
3662.0,3603.0,3970.0,3776.0,4095.0,3127.0,3281.0,3282.0,-0.01,9.79,2.43,-0.0,-0.0,-0.02,1.0,a
3659.0,3600.0,3968.0,3777.0,4095.0,3127.0,3280.0,3271.0,0.08,9.81,2.48,0.01,0.05,-0.04,1.0,a
3673.0,3622.0,3986.0,3794.0,4095.0,3130.0,3279.0,3279.0,-0.2,9.81,2.53,-0.08,-0.07,-0.16,1.0,a
3662.0,3607.0,3983.0,3807.0,4095.0,3114.0,3271.0,3277.0,-0.44,9.81,2.47,-0.1,-0.12,-0.07,1.0,a
3664.0,3613.0,3991.0,3824.0,4095.0,3123.0,3280.0,3294.0,-0.11,9.82,2.45,-0.03,-0.05,-0.08,1.0,a
3654.0,3600.0,3968.0,3819.0,4095.0,3127.0,3280.0,3279.0,-0.16,9.86,2.42,-0.07,-0.07,-0.13,1.0,a
3655.0,3632.0,3978.0,3839.0,4095.0,3129.0,3278.0,3248.0,-0.47,9.8,2.5,-0.13,-0.08,-0.21,1.0,a
3648.0,3603.0,3970.0,3834.0,4095.0,3126.0,3269.0,3241.0,-0.71,9.75,2.64,-0.14,-0.11,-0.15,1.0,a
3665.0,3611.0,3981.0,3826.0,4095.0,3138.0,3295.0,3270.0,-0.73,9.77,2.55,-0.16,0.14,-0.02,1.0,a
3651.0,3620.0,3971.0,3835.0,4095.0,3135.0,3283.0,3269.0,-0.48,9.7,2.83,-0.11,0.01,-0.06,1.0,a
3647.0,3607.0,3968.0,3802.0,4095.0,3134.0,3291.0,3274.0,-0.71,9.69,2.68,-0.17,-0.02,-0.14,1.0,a
3662.0,3609.0,3983.0,3793.0,4095.0,3146.0,3297.0,3311.0,-0.87,9.61,2.95,-0.12,0.03,-0.13,1.0,a
3645.0,3613.0,3968.0,3773.0,4095.0,3129.0,3286.0,3294.0,-0.95,9.54,3.17,-0.19,0.0,-0.1,1.0,a
3656.0,3626.0,3975.0,3795.0,4095.0,3139.0,3286.0,3299.0,-1.02,9.55,3.09,-0.1,0.05,-0.08,1.0,a
3652.0,3617.0,3975.0,3786.0,4095.0,3133.0,3281.0,3290.0,-1.02,9.52,3.29,-0.14,-0.05,-0.05,1.0,a
3662.0,3638.0,4007.0,3807.0,4095.0,3143.0,3280.0,3301.0,-0.96,9.45,3.28,-0.06,0.01,-0.06,1.0,a
3651.0,3607.0,3971.0,3798.0,4095.0,3136.0,3280.0,3293.0,-0.95,9.52,3.31,-0.13,-0.09,-0.09,1.0,a
3649.0,3620.0,3977.0,3813.0,4095.0,3143.0,3287.0,3295.0,-0.7,9.3,3.86,-0.08,0.06,-0.02,1.0,a
3667.0,3626.0,3985.0,3822.0,4095.0,3140.0,3293.0,3303.0,-0.84,9.38,3.63,-0.09,0.01,-0.01,1.0,a
3647.0,3605.0,3975.0,3809.0,4095.0,3137.0,3287.0,3306.0,-0.94,9.36,3.6,-0.16,0.04,0.01,1.0,a
3664.0,3619.0,3985.0,3795.0,4095.0,3138.0,3287.0,3308.0,-0.68,9.22,4.31,-0.11,0.03,0.07,1.0,a
3648.0,3605.0,3969.0,3804.0,4095.0,3141.0,3292.0,3285.0,-0.65,9.28,3.86,-0.11,0.06,0.02,1.0,a
3663.0,3627.0,3991.0,3824.0,4095.0,3149.0,3303.0,3283.0,-0.87,9.23,4.26,-0.1,0.05,0.13,1.0,a
3651.0,3606.0,3957.0,3799.0,4095.0,3151.0,3291.0,3253.0,-0.58,9.27,3.86,-0.1,0.11,0.21,1.0,a
3645.0,3630.0,3997.0,3822.0,4095.0,3152.0,3301.0,3259.0,0.15,9.24,4.45,-0.05,-0.01,0.19,1.0,a
3659.0,3619.0,3987.0,3793.0,4095.0,3136.0,3285.0,3258.0,0.28,9.25,4.33,0.03,0.07,0.13,1.0,a
3664.0,3630.0,3988.0,3790.0,4095.0,3141.0,3303.0,3266.0,0.15,9.33,4.07,0.1,0.11,0.11,1.0,a
3651.0,3613.0,3969.0,3787.0,4095.0,3147.0,3299.0,3265.0,0.24,9.4,3.79,0.08,0.01,0.06,1.0,a
3675.0,3628.0,3990.0,3783.0,4095.0,3136.0,3293.0,3259.0,0.34,9.42,3.76,0.13,0.02,0.06,1.0,a
3669.0,3632.0,3998.0,3802.0,4095.0,3145.0,3292.0,3268.0,0.38,9.51,3.49,0.13,-0.04,0.02,1.0,a
3655.0,3615.0,3978.0,3779.0,4095.0,3145.0,3293.0,3273.0,0.52,9.59,3.24,0.19,0.02,0.01,1.0,a
3663.0,3641.0,4009.0,3782.0,4095.0,3143.0,3297.0,3257.0,0.47,9.72,2.72,0.14,-0.0,-0.01,1.0,a
3647.0,3610.0,3963.0,3749.0,4095.0,3136.0,3293.0,3268.0,0.61,9.83,2.47,0.08,0.04,-0.01,1.0,a
3675.0,3627.0,3997.0,3767.0,4095.0,3146.0,3297.0,3277.0,0.56,9.79,2.5,-0.04,-0.04,-0.03,1.0,a
3647.0,3611.0,3968.0,3735.0,4095.0,3138.0,3297.0,3261.0,0.52,9.75,2.69,-0.05,0.0,-0.06,1.0,a
3667.0,3633.0,3994.0,3769.0,4095.0,3145.0,3294.0,3248.0,0.36,9.7,2.84,-0.09,-0.05,-0.04,1.0,a
3651.0,3606.0,3979.0,3760.0,4095.0,3146.0,3290.0,3293.0,0.6,9.73,2.87,-0.04,0.04,-0.05,1.0,a
3652.0,3623.0,3999.0,3763.0,4095.0,3139.0,3290.0,3293.0,0.17,9.76,2.59,-0.05,-0.03,-0.12,1.0,a
3659.0,3617.0,3982.0,3760.0,4095.0,3147.0,3303.0,3307.0,0.24,9.77,2.68,-0.07,-0.01,-0.04,1.0,a
3647.0,3613.0,3971.0,3747.0,4095.0,3145.0,3301.0,3287.0,0.56,9.79,2.76,-0.03,-0.01,-0.06,1.0,a
3675.0,3637.0,4005.0,3773.0,4095.0,3146.0,3303.0,3288.0,0.37,9.75,2.78,-0.04,-0.07,-0.09,1.0,a
3645.0,3600.0,3984.0,3763.0,4095.0,3147.0,3296.0,3282.0,0.34,9.77,2.66,-0.01,-0.06,-0.09,1.0,a
3669.0,3629.0,3999.0,3792.0,4095.0,3153.0,3297.0,3285.0,0.17,9.79,2.57,-0.08,-0.08,-0.08,1.0,a
3658.0,3629.0,3982.0,3818.0,4095.0,3150.0,3290.0,3282.0,0.3,9.74,2.61,-0.02,-0.11,-0.1,1.0,a
3661.0,3629.0,4009.0,3846.0,4095.0,3152.0,3303.0,3292.0,0.15,9.81,2.49,-0.08,-0.08,-0.12,1.0,a
3642.0,3618.0,3982.0,3824.0,4095.0,3142.0,3298.0,3290.0,0.42,9.79,2.68,-0.03,-0.15,-0.15,1.0,a
3668.0,3612.0,4005.0,3856.0,4095.0,3147.0,3302.0,3280.0,1.1,10.39,0.7,-0.49,0.04,-0.38,1.0,a
3655.0,3597.0,3998.0,3871.0,4095.0,3154.0,3295.0,3285.0,0.06,9.29,3.53,-0.63,-0.38,-0.69,1.0,a
3639.0,3607.0,3983.0,3874.0,4095.0,3147.0,3297.0,3232.0,-1.7,8.83,4.79,-0.48,-0.24,-0.57,1.0,a
3664.0,3632.0,4019.0,3918.0,4095.0,3153.0,3301.0,3312.0,-2.09,8.74,5.19,-0.18,-0.05,-0.3,1.0,a
3643.0,3607.0,4002.0,3886.0,4095.0,3151.0,3294.0,3311.0,-1.85,8.87,4.7,0.0,0.09,-0.1,1.0,a
3649.0,3623.0,4006.0,3906.0,4095.0,3154.0,3302.0,3312.0,-1.67,9.03,4.14,0.09,0.24,-0.02,1.0,a
3653.0,3611.0,4006.0,3893.0,4095.0,3146.0,3292.0,3310.0,-1.78,9.28,3.66,0.06,-0.01,-0.05,1.0,a
3659.0,3627.0,4016.0,3914.0,4095.0,3151.0,3303.0,3309.0,-1.61,9.24,3.64,0.05,-0.14,0.01,1.0,a
3663.0,3600.0,3985.0,3884.0,4095.0,3147.0,3299.0,3294.0,-1.56,9.27,3.58,-0.06,-0.04,0.02,1.0,a
3651.0,3621.0,4006.0,3897.0,4095.0,3141.0,3305.0,3299.0,-1.44,9.23,3.69,-0.08,-0.09,0.01,1.0,a
3646.0,3600.0,4007.0,3889.0,4095.0,3111.0,3276.0,3261.0,-1.24,9.24,3.9,-0.13,-0.12,-0.05,1.0,a
3603.0,3579.0,4009.0,3841.0,4095.0,3120.0,3277.0,3293.0,-1.59,9.22,3.8,-0.07,0.0,-0.03,1.0,a
3617.0,3600.0,4035.0,3858.0,4095.0,3130.0,3290.0,3312.0,-1.37,9.2,3.93,-0.1,0.02,0.02,1.0,a
3619.0,3571.0,4013.0,3826.0,4095.0,3120.0,3280.0,3293.0,-1.35,9.2,3.98,-0.09,0.01,0.0,1.0,a
3632.0,3583.0,4011.0,3850.0,4095.0,3130.0,3284.0,3309.0,-1.28,9.23,3.84,-0.09,0.0,-0.04,1.0,a
3626.0,3574.0,3994.0,3858.0,4095.0,3122.0,3280.0,3298.0,-1.36,9.17,4.11,-0.17,-0.05,-0.02,1.0,a
3619.0,3583.0,4017.0,3877.0,4095.0,3120.0,3279.0,3290.0,-1.31,9.09,4.19,-0.06,0.02,-0.0,1.0,a
3631.0,3571.0,4018.0,3853.0,4095.0,3137.0,3286.0,3312.0,-1.26,9.16,4.11,-0.06,-0.02,0.02,1.0,a
3622.0,3568.0,4004.0,3852.0,4095.0,3123.0,3280.0,3305.0,-1.19,9.15,4.12,-0.04,0.03,-0.01,1.0,a
3646.0,3583.0,4021.0,3866.0,4095.0,3127.0,3297.0,3297.0,-1.33,9.2,4.08,-0.01,0.01,0.0,1.0,a
3621.0,3569.0,4002.0,3881.0,4095.0,3127.0,3280.0,3295.0,-1.25,9.24,3.74,-0.02,0.01,0.03,1.0,a
3635.0,3597.0,4026.0,3873.0,4095.0,3130.0,3287.0,3309.0,-1.01,9.23,3.96,-0.1,0.03,0.06,1.0,a
3606.0,3574.0,4015.0,3861.0,4095.0,3130.0,3280.0,3298.0,-0.98,9.15,4.23,-0.05,0.05,-0.02,1.0,a
3633.0,3583.0,4015.0,3891.0,4095.0,3135.0,3287.0,3313.0,-1.11,9.24,4.07,-0.01,-0.03,0.02,1.0,a
3632.0,3578.0,4004.0,3878.0,4095.0,3122.0,3279.0,3307.0,-1.03,9.34,3.51,-0.04,0.03,0.01,1.0,a
3641.0,3575.0,4031.0,3907.0,4095.0,3136.0,3293.0,3314.0,-0.71,9.26,4.11,-0.11,0.02,0.05,1.0,a
3616.0,3583.0,4016.0,3872.0,4095.0,3130.0,3291.0,3313.0,-0.84,9.18,4.17,-0.07,0.06,-0.02,1.0,a
3630.0,3583.0,4005.0,3885.0,4095.0,3142.0,3292.0,3316.0,-0.93,9.28,3.97,-0.01,0.01,0.02,1.0,a
3631.0,3582.0,4026.0,3899.0,4095.0,3138.0,3296.0,3311.0,-0.92,9.32,3.68,-0.06,0.05,0.0,1.0,a
3632.0,3570.0,4014.0,3882.0,4095.0,3125.0,3283.0,3306.0,-0.6,9.28,4.1,-0.08,-0.01,0.0,1.0,a
3632.0,3579.0,4016.0,3890.0,4095.0,3136.0,3296.0,3313.0,-0.91,9.24,4.07,-0.07,0.01,-0.03,1.0,a
3632.0,3568.0,4039.0,3904.0,4095.0,3137.0,3296.0,3324.0,-0.69,9.29,4.07,-0.06,-0.02,-0.02,1.0,a
3614.0,3583.0,4003.0,3878.0,4095.0,3127.0,3286.0,3306.0,-0.87,9.28,3.91,-0.05,-0.01,-0.04,1.0,a
3634.0,3579.0,4041.0,3888.0,4095.0,3138.0,3297.0,3320.0,-0.82,9.23,4.18,-0.04,-0.01,0.01,1.0,a
3610.0,3577.0,4032.0,3905.0,4095.0,3143.0,3294.0,3321.0,-0.69,9.23,4.11,-0.0,0.01,0.03,1.0,a
3622.0,3558.0,4018.0,3894.0,4095.0,3136.0,3293.0,3314.0,-0.51,9.33,3.93,0.04,0.02,0.03,1.0,a
3617.0,3573.0,4016.0,3890.0,4095.0,3149.0,3300.0,3317.0,-0.48,9.46,3.61,0.02,-0.01,-0.0,1.0,a
3610.0,3569.0,4031.0,3889.0,4095.0,3137.0,3291.0,3307.0,-0.37,9.43,3.65,-0.02,-0.01,-0.01,1.0,a
3647.0,3600.0,4033.0,3890.0,4095.0,3137.0,3295.0,3325.0,-0.49,9.45,3.52,-0.07,0.03,-0.03,1.0,a
3625.0,3570.0,4004.0,3877.0,4095.0,3126.0,3294.0,3315.0,-0.41,9.42,3.84,-0.06,-0.03,-0.03,1.0,a
3639.0,3575.0,4038.0,3909.0,4095.0,3137.0,3295.0,3315.0,-0.56,9.4,3.73,-0.06,0.02,-0.02,1.0,a
3623.0,3575.0,4030.0,3882.0,4095.0,3134.0,3294.0,3312.0,-0.57,9.33,3.88,-0.02,0.01,-0.01,1.0,a
3618.0,3568.0,4025.0,3894.0,4095.0,3142.0,3301.0,3318.0,-0.57,9.41,3.74,0.03,0.0,0.05,1.0,a
3627.0,3563.0,4032.0,3882.0,4095.0,3133.0,3287.0,3325.0,-0.28,9.5,3.5,0.05,0.02,0.04,1.0,a
3640.0,3583.0,4043.0,3910.0,4095.0,3136.0,3301.0,3317.0,-0.19,9.53,3.37,0.01,-0.01,0.01,1.0,a
3602.0,3564.0,4027.0,3888.0,4095.0,3133.0,3286.0,3321.0,-0.14,9.57,3.32,-0.01,-0.01,-0.04,1.0,a
3632.0,3568.0,4027.0,3888.0,4095.0,3135.0,3291.0,3306.0,-0.32,9.54,3.36,-0.05,-0.02,-0.01,1.0,a
3632.0,3573.0,4048.0,3901.0,4095.0,3141.0,3307.0,3325.0,-0.14,9.54,3.43,-0.05,-0.0,-0.02,1.0,a
3632.0,3565.0,4039.0,3875.0,4095.0,3130.0,3283.0,3313.0,-0.32,9.54,3.29,-0.05,0.01,-0.01,1.0,a
3636.0,3574.0,4047.0,3895.0,4095.0,3135.0,3294.0,3323.0,-0.17,9.55,3.35,-0.05,-0.0,-0.02,1.0,a
3621.0,3570.0,4032.0,3892.0,4095.0,3130.0,3293.0,3313.0,-0.2,9.56,3.31,-0.03,0.01,-0.01,1.0,a
3633.0,3583.0,4055.0,3888.0,4095.0,3136.0,3302.0,3321.0,-0.22,9.62,3.13,-0.07,0.03,-0.02,1.0,a
3619.0,3568.0,4016.0,3893.0,4095.0,3136.0,3286.0,3299.0,-0.05,9.58,3.39,-0.06,0.01,-0.01,1.0,a
3632.0,3581.0,4011.0,3899.0,4095.0,3127.0,3303.0,3317.0,-0.26,9.61,3.21,-0.07,0.03,-0.04,1.0,a
3614.0,3559.0,4018.0,3863.0,4095.0,3136.0,3297.0,3265.0,-0.08,9.58,3.3,-0.04,0.01,-0.05,1.0,a
3631.0,3573.0,4043.0,3899.0,4095.0,3138.0,3286.0,3255.0,-0.0,9.6,3.18,-0.1,0.03,-0.05,1.0,a
3631.0,3573.0,4032.0,3886.0,4095.0,3137.0,3310.0,3351.0,0.21,9.59,3.44,-0.02,-0.02,-0.06,1.0,a
3614.0,3573.0,4026.0,3873.0,4095.0,3125.0,3294.0,3334.0,-1.16,9.57,2.59,-0.13,0.05,-0.2,1.0,a
3631.0,3568.0,4017.0,3872.0,4095.0,3139.0,3312.0,3361.0,-0.55,9.36,3.85,-0.17,-0.02,0.07,1.0,a
3618.0,3547.0,4030.0,3874.0,4095.0,3124.0,3297.0,3344.0,-0.13,9.46,3.77,-0.09,0.19,0.14,1.0,a
3632.0,3579.0,4048.0,3865.0,4095.0,3141.0,3295.0,3330.0,-0.06,9.42,3.79,-0.12,0.16,0.05,1.0,a
3627.0,3569.0,4017.0,3858.0,4095.0,3136.0,3284.0,3347.0,-0.03,9.48,3.68,-0.06,0.05,0.08,1.0,a
3654.0,3571.0,4049.0,3855.0,4095.0,3136.0,3312.0,3357.0,0.09,9.61,3.25,-0.01,0.04,-0.06,1.0,a
3619.0,3567.0,4034.0,3844.0,4095.0,3133.0,3296.0,3341.0,-0.26,9.54,3.27,-0.04,-0.05,-0.05,1.0,a
3634.0,3577.0,4037.0,3871.0,4095.0,3136.0,3318.0,3360.0,-0.22,9.59,3.27,-0.03,0.05,-0.02,1.0,a
3618.0,3568.0,4024.0,3853.0,4095.0,3137.0,3300.0,3367.0,-0.1,9.53,3.4,-0.09,-0.02,-0.03,1.0,a
3617.0,3563.0,4026.0,3867.0,4095.0,3135.0,3299.0,3361.0,-0.13,9.47,3.67,-0.08,-0.01,-0.06,1.0,a
3626.0,3571.0,4045.0,3866.0,4095.0,3143.0,3311.0,3379.0,-0.18,9.58,3.4,-0.04,0.03,-0.02,1.0,a
3630.0,3562.0,4023.0,3869.0,4095.0,3135.0,3287.0,3355.0,-0.12,9.54,3.39,-0.05,0.05,-0.03,1.0,a
3629.0,3570.0,4048.0,3862.0,4095.0,3138.0,3303.0,3363.0,-0.21,9.56,3.34,-0.02,0.03,-0.03,1.0,a
3631.0,3551.0,4026.0,3856.0,4095.0,3136.0,3297.0,3358.0,-0.19,9.53,3.33,-0.07,0.03,-0.02,1.0,a
3626.0,3583.0,4048.0,3971.0,4095.0,3152.0,3309.0,3353.0,-1.26,9.88,1.72,0.01,0.01,-0.1,1.0,a
3610.0,3569.0,4029.0,3952.0,4095.0,3142.0,3307.0,3364.0,-0.76,9.79,2.37,-0.07,-0.03,-0.03,1.0,a
3632.0,3567.0,4036.0,3952.0,4095.0,3147.0,3312.0,3364.0,-0.86,9.77,2.39,-0.02,0.02,-0.01,1.0,a
3610.0,3547.0,4017.0,3923.0,4095.0,3137.0,3303.0,3365.0,-0.6,9.76,2.54,-0.12,0.0,0.06,1.0,a
3622.0,3574.0,4048.0,3950.0,4095.0,3147.0,3300.0,3364.0,-0.56,9.68,2.85,-0.18,-0.02,0.03,1.0,a
3633.0,3562.0,4024.0,3920.0,4095.0,3141.0,3309.0,3359.0,-0.49,9.62,3.09,-0.09,-0.02,0.02,1.0,a
3623.0,3583.0,4047.0,3922.0,4095.0,3147.0,3303.0,3361.0,-0.24,9.78,2.56,-0.07,-0.01,-0.01,1.0,a
3615.0,3564.0,4011.0,3907.0,4095.0,3145.0,3310.0,3359.0,-0.29,9.77,2.78,-0.14,-0.1,-0.13,1.0,a
3632.0,3572.0,4033.0,3918.0,4095.0,3152.0,3312.0,3361.0,-0.47,9.67,2.92,-0.09,-0.08,-0.0,1.0,a
3612.0,3567.0,4019.0,3917.0,4095.0,3146.0,3307.0,3363.0,-0.57,9.69,2.88,-0.07,-0.03,-0.09,1.0,a
3619.0,3571.0,4027.0,3917.0,4095.0,3148.0,3306.0,3359.0,-0.37,9.61,3.19,-0.12,-0.06,-0.05,1.0,a
3619.0,3571.0,4035.0,3936.0,4095.0,3153.0,3313.0,3363.0,-0.46,9.62,3.06,-0.01,0.02,-0.08,1.0,a
3605.0,3563.0,4023.0,3931.0,4095.0,3150.0,3307.0,3351.0,-0.65,9.76,2.48,-0.07,0.0,-0.07,1.0,a
3631.0,3568.0,4031.0,3920.0,4095.0,3153.0,3319.0,3371.0,-0.45,9.62,3.14,-0.1,-0.09,-0.12,1.0,a
3623.0,3569.0,4027.0,3920.0,4095.0,3151.0,3312.0,3358.0,-0.86,9.68,2.83,-0.06,-0.03,-0.09,1.0,a
3635.0,3583.0,4051.0,3945.0,4095.0,3155.0,3313.0,3363.0,-0.5,9.63,3.07,-0.12,-0.01,-0.06,1.0,a
3616.0,3558.0,4032.0,3930.0,4095.0,3148.0,3311.0,3362.0,-0.8,9.53,3.24,-0.05,-0.03,-0.1,1.0,a
3632.0,3581.0,4032.0,3933.0,4095.0,3152.0,3312.0,3366.0,-0.7,9.65,2.85,-0.08,-0.01,-0.03,1.0,a
3607.0,3568.0,4037.0,3931.0,4095.0,3145.0,3301.0,3363.0,-0.64,9.58,3.08,-0.06,0.02,-0.09,1.0,a
3642.0,3578.0,4041.0,3923.0,4095.0,3150.0,3312.0,3355.0,-0.95,9.63,2.75,-0.16,-0.05,-0.07,1.0,a
3631.0,3568.0,4032.0,3925.0,4095.0,3146.0,3296.0,3351.0,-1.07,9.5,3.23,-0.15,-0.01,-0.14,1.0,a
3623.0,3574.0,4020.0,3926.0,4095.0,3157.0,3312.0,3363.0,-1.08,9.4,3.51,-0.1,-0.0,-0.06,1.0,a
3630.0,3563.0,4016.0,3919.0,4095.0,3154.0,3311.0,3363.0,-0.99,9.42,3.51,-0.06,-0.02,-0.07,1.0,a
3632.0,3575.0,4029.0,3920.0,4095.0,3158.0,3316.0,3367.0,-1.16,9.48,3.18,-0.11,0.01,-0.01,1.0,a
3605.0,3568.0,4046.0,3927.0,4095.0,3152.0,3305.0,3365.0,-0.97,9.38,3.61,-0.14,0.0,-0.07,1.0,a
3638.0,3583.0,4030.0,3927.0,4095.0,3152.0,3312.0,3374.0,-1.41,9.45,3.25,-0.2,0.06,-0.04,1.0,a
3632.0,3567.0,4027.0,3920.0,4095.0,3149.0,3298.0,3349.0,-0.98,9.31,3.9,-0.16,-0.0,-0.06,1.0,a
3633.0,3581.0,4037.0,3951.0,4095.0,3162.0,3314.0,3371.0,-1.32,9.31,3.67,-0.16,-0.01,-0.05,1.0,a
3603.0,3569.0,4022.0,3911.0,4095.0,3152.0,3312.0,3375.0,-0.95,9.26,3.91,-0.15,-0.01,-0.02,1.0,a
3625.0,3568.0,4028.0,3942.0,4095.0,3154.0,3322.0,3381.0,-1.21,9.21,3.99,-0.1,0.01,-0.09,1.0,a
3605.0,3561.0,4042.0,3936.0,4095.0,3153.0,3311.0,3362.0,-1.2,9.27,3.88,-0.13,-0.0,0.01,1.0,a
3621.0,3571.0,4029.0,3908.0,4095.0,3152.0,3304.0,3366.0,-1.08,9.14,4.19,-0.09,0.02,-0.02,1.0,a
3632.0,3583.0,4053.0,3949.0,4095.0,3154.0,3313.0,3366.0,-1.25,9.25,3.87,-0.12,0.06,0.06,1.0,a
3619.0,3581.0,4039.0,3925.0,4095.0,3152.0,3302.0,3365.0,-0.84,9.12,4.34,-0.14,-0.01,-0.02,1.0,a
3626.0,3568.0,4055.0,3947.0,4095.0,3159.0,3312.0,3364.0,-1.15,9.18,4.13,-0.11,0.04,-0.02,1.0,a
3623.0,3578.0,4031.0,3920.0,4095.0,3154.0,3306.0,3363.0,-0.75,9.11,4.43,-0.13,-0.03,-0.01,1.0,a
3637.0,3583.0,4058.0,3942.0,4095.0,3155.0,3312.0,3375.0,-1.09,9.04,4.39,-0.07,0.02,-0.03,1.0,a
3605.0,3568.0,4021.0,3920.0,4095.0,3152.0,3301.0,3355.0,-0.82,9.12,4.38,-0.07,-0.02,0.0,1.0,a
3613.0,3579.0,4032.0,3923.0,4095.0,3153.0,3303.0,3367.0,-1.02,9.09,4.26,-0.05,0.03,-0.02,1.0,a
3623.0,3553.0,4017.0,3914.0,4095.0,3148.0,3298.0,3360.0,-0.87,9.18,4.25,-0.1,0.0,0.02,1.0,a
3613.0,3572.0,4021.0,3904.0,4095.0,3151.0,3307.0,3371.0,-0.51,9.05,4.62,-0.11,-0.02,0.0,1.0,a
3635.0,3583.0,4029.0,3923.0,4095.0,3156.0,3309.0,3373.0,-0.95,9.03,4.64,0.0,0.02,-0.02,1.0,a
3599.0,3565.0,4029.0,3927.0,4095.0,3153.0,3302.0,3358.0,-0.67,9.11,4.46,0.05,-0.01,0.06,1.0,a
3643.0,3602.0,4033.0,3946.0,4095.0,3155.0,3314.0,3375.0,-0.63,9.21,4.13,0.07,0.01,0.04,1.0,a
3615.0,3562.0,4031.0,3923.0,4095.0,3152.0,3312.0,3376.0,-0.34,9.3,3.99,-0.01,-0.0,0.08,1.0,a
3623.0,3583.0,4028.0,3920.0,4095.0,3158.0,3313.0,3384.0,-0.14,9.27,4.23,-0.02,-0.01,-0.02,1.0,a
3600.0,3565.0,4021.0,3920.0,4095.0,3156.0,3312.0,3367.0,-0.59,9.25,4.0,-0.06,0.0,0.01,1.0,a
3623.0,3583.0,4025.0,3935.0,4095.0,3166.0,3311.0,3370.0,-0.18,9.23,4.3,-0.03,0.01,-0.0,1.0,a
3626.0,3573.0,4041.0,3920.0,4095.0,3152.0,3311.0,3360.0,-0.49,9.31,3.98,-0.03,0.03,-0.0,1.0,a
3630.0,3581.0,4046.0,3946.0,4095.0,3158.0,3310.0,3374.0,-0.08,9.29,4.16,-0.05,-0.02,-0.03,1.0,a
3634.0,3582.0,4032.0,3933.0,4095.0,3157.0,3323.0,3381.0,-0.6,9.28,3.87,-0.04,0.01,-0.05,1.0,a
3612.0,3571.0,4016.0,3920.0,4095.0,3157.0,3306.0,3370.0,-0.2,9.28,4.15,-0.02,-0.02,-0.02,1.0,a
3622.0,3583.0,4038.0,3941.0,4095.0,3159.0,3306.0,3377.0,-0.36,9.36,3.82,0.02,0.02,-0.03,1.0,a
3617.0,3571.0,4032.0,3920.0,4095.0,3152.0,3304.0,3364.0,-0.07,9.39,3.95,0.01,-0.03,-0.05,1.0,a
3611.0,3573.0,4059.0,3929.0,4095.0,3167.0,3321.0,3387.0,-0.41,9.42,3.74,0.04,-0.01,-0.07,1.0,a
3621.0,3575.0,4029.0,3919.0,4095.0,3149.0,3312.0,3376.0,-0.23,9.45,3.69,0.02,-0.03,-0.02,1.0,a
3638.0,3583.0,4062.0,3949.0,4095.0,3166.0,3309.0,3375.0,-0.31,9.47,3.65,0.06,-0.04,-0.08,1.0,a
3600.0,3568.0,4026.0,3931.0,4095.0,3158.0,3310.0,3372.0,-0.53,9.54,3.29,0.01,0.02,0.01,1.0,a
3622.0,3583.0,4042.0,3943.0,4095.0,3161.0,3315.0,3378.0,-0.23,9.52,3.49,0.01,-0.0,-0.03,1.0,a
3616.0,3566.0,4019.0,3926.0,4095.0,3162.0,3306.0,3365.0,-0.34,9.56,3.25,-0.02,0.01,0.01,1.0,a
3611.0,3583.0,4038.0,3950.0,4095.0,3165.0,3312.0,3381.0,-0.41,9.63,3.11,-0.05,0.01,-0.06,1.0,a
3607.0,3581.0,4017.0,3928.0,4095.0,3162.0,3309.0,3365.0,-0.08,9.59,3.35,-0.09,-0.02,-0.06,1.0,a
3619.0,3581.0,4039.0,3934.0,4095.0,3167.0,3312.0,3377.0,-0.67,9.53,3.36,-0.06,0.02,-0.06,1.0,a
3615.0,3568.0,4013.0,3903.0,4095.0,3155.0,3311.0,3380.0,-0.11,9.57,3.42,-0.06,-0.02,-0.02,1.0,a
3627.0,3568.0,4048.0,3937.0,4095.0,3158.0,3312.0,3381.0,-0.5,9.55,3.34,-0.05,0.03,-0.06,1.0,a
3607.0,3574.0,4023.0,3916.0,4095.0,3159.0,3311.0,3377.0,-0.31,9.58,3.27,-0.03,-0.01,-0.02,1.0,a
3617.0,3597.0,4033.0,3947.0,4095.0,3166.0,3319.0,3382.0,-0.39,9.52,3.38,-0.01,-0.03,-0.1,1.0,a
3609.0,3573.0,4032.0,3923.0,4095.0,3158.0,3311.0,3376.0,-0.57,9.55,3.21,0.01,-0.04,-0.07,1.0,a
3622.0,3568.0,4040.0,3942.0,4095.0,3165.0,3312.0,3379.0,-0.47,9.63,3.14,0.01,-0.05,-0.1,1.0,a
3619.0,3583.0,4032.0,3920.0,4095.0,3161.0,3312.0,3376.0,-0.88,9.65,2.72,-0.07,0.03,-0.02,1.0,a
3623.0,3566.0,4032.0,3915.0,4095.0,3157.0,3296.0,3378.0,-0.19,9.6,3.31,-0.1,-0.03,-0.04,1.0,a
3611.0,3563.0,4032.0,3937.0,4095.0,3161.0,3324.0,3386.0,-0.74,9.61,2.99,-0.08,0.05,-0.07,1.0,a
3599.0,3565.0,4017.0,3922.0,4095.0,3155.0,3312.0,3376.0,-0.47,9.59,3.25,-0.13,-0.01,-0.05,1.0,a
3627.0,3575.0,4032.0,3938.0,4095.0,3157.0,3312.0,3375.0,-0.88,9.49,3.4,0.01,0.05,-0.05,1.0,a
3632.0,3569.0,4010.0,3911.0,4095.0,3161.0,3310.0,3388.0,-0.49,9.68,2.86,-0.03,0.05,0.03,1.0,a
3621.0,3568.0,4032.0,3949.0,4095.0,3164.0,3310.0,3380.0,-0.63,9.56,3.13,-0.06,0.0,-0.07,1.0,a
3605.0,3570.0,4008.0,3927.0,4095.0,3163.0,3315.0,3376.0,-0.69,9.62,2.94,-0.07,0.01,0.01,1.0,a
3627.0,3578.0,4054.0,3936.0,4095.0,3171.0,3319.0,3390.0,-0.44,9.53,3.38,-0.08,-0.01,-0.06,1.0,a
3630.0,3561.0,4023.0,3925.0,4095.0,3155.0,3310.0,3376.0,-0.63,9.65,3.02,-0.05,0.01,-0.03,1.0,a
3630.0,3583.0,4044.0,3932.0,4095.0,3166.0,3311.0,3369.0,-0.23,9.66,3.15,-0.06,-0.05,-0.17,1.0,a
1527.0,877.0,914.0,2625.0,4095.0,4095.0,4095.0,4095.0,0.1,9.79,2.38,-0.13,-0.01,0.05,1.0,b
1503.0,878.0,913.0,2629.0,4095.0,4095.0,4095.0,4095.0,0.19,9.71,2.92,-0.15,0.02,-0.05,1.0,b
1479.0,870.0,915.0,2629.0,4095.0,4095.0,4095.0,4095.0,-0.01,9.69,3.06,-0.12,-0.01,-0.05,1.0,b
1478.0,878.0,914.0,2629.0,4095.0,4095.0,4095.0,4095.0,0.04,9.63,3.02,-0.05,0.05,-0.02,1.0,b
1491.0,865.0,909.0,2636.0,4095.0,4095.0,4095.0,4095.0,-0.05,9.7,2.68,-0.08,0.17,0.01,1.0,b
1511.0,880.0,914.0,2645.0,4095.0,4095.0,4095.0,4095.0,0.12,9.75,2.75,-0.1,0.1,0.05,1.0,b
1615.0,871.0,913.0,2638.0,4095.0,4095.0,4095.0,4095.0,0.19,9.72,2.83,-0.1,0.01,-0.05,1.0,b
1726.0,878.0,912.0,2641.0,4095.0,4095.0,4095.0,4095.0,0.07,9.62,3.04,-0.13,0.02,-0.06,1.0,b
1730.0,878.0,912.0,2643.0,4095.0,4095.0,4095.0,4095.0,0.14,9.66,3.09,-0.07,0.08,-0.05,1.0,b
1753.0,873.0,913.0,2651.0,4095.0,4095.0,4095.0,4095.0,0.02,9.65,2.95,-0.04,0.08,-0.04,1.0,b
1766.0,871.0,912.0,2665.0,4095.0,4095.0,4095.0,4095.0,0.21,9.79,2.76,-0.06,0.03,-0.02,1.0,b
1795.0,871.0,914.0,2659.0,4095.0,4095.0,4095.0,4095.0,0.06,9.68,3.04,-0.1,0.01,-0.08,1.0,b
1803.0,875.0,912.0,2665.0,4095.0,4095.0,4095.0,4095.0,-0.33,9.6,2.97,-0.09,0.06,-0.01,1.0,b
1811.0,878.0,911.0,2659.0,4095.0,4095.0,4095.0,4095.0,0.23,9.67,3.22,-0.04,0.03,-0.0,1.0,b
1840.0,881.0,917.0,2667.0,4095.0,4095.0,4095.0,4095.0,-0.22,9.63,2.79,-0.07,0.09,-0.01,1.0,b
1836.0,869.0,912.0,2665.0,4095.0,4095.0,4095.0,4095.0,0.11,9.69,3.07,-0.09,0.09,0.02,1.0,b
1838.0,878.0,911.0,2673.0,4095.0,4095.0,4095.0,4095.0,0.11,9.66,3.09,-0.06,0.03,-0.03,1.0,b
1837.0,871.0,911.0,2661.0,4095.0,4095.0,4095.0,4095.0,0.09,9.65,3.03,-0.05,0.04,-0.03,1.0,b
1877.0,867.0,912.0,2661.0,4095.0,4095.0,4095.0,4095.0,0.1,9.72,2.92,-0.03,-0.03,-0.05,1.0,b
1887.0,877.0,912.0,2666.0,4095.0,4095.0,4095.0,4095.0,0.04,9.71,2.91,-0.08,0.0,-0.03,1.0,b
1885.0,870.0,910.0,2672.0,4095.0,4095.0,4095.0,4095.0,0.25,9.72,3.04,-0.08,-0.0,-0.01,1.0,b
1881.0,881.0,911.0,2672.0,4095.0,4095.0,4095.0,4095.0,0.06,9.63,3.01,-0.06,0.06,-0.02,1.0,b
1877.0,875.0,909.0,2672.0,4095.0,4095.0,4095.0,4095.0,0.3,9.71,3.01,-0.04,-0.05,-0.05,1.0,b
1871.0,880.0,911.0,2667.0,4095.0,4095.0,4095.0,4095.0,0.01,9.65,2.94,-0.03,0.02,-0.05,1.0,b
1874.0,876.0,912.0,2672.0,4095.0,4095.0,4095.0,4095.0,0.3,9.77,2.92,-0.05,-0.06,-0.02,1.0,b
1875.0,877.0,912.0,2676.0,4095.0,4095.0,4095.0,4095.0,0.0,9.61,3.09,-0.03,0.01,-0.08,1.0,b
1870.0,885.0,912.0,2677.0,4095.0,4095.0,4095.0,4095.0,-0.05,9.74,2.75,-0.05,0.05,0.0,1.0,b
1863.0,873.0,913.0,2689.0,4095.0,4095.0,4095.0,4095.0,0.21,9.65,3.25,-0.05,-0.03,-0.04,1.0,b
1857.0,878.0,912.0,2674.0,4095.0,4095.0,4095.0,4095.0,-0.07,9.71,2.7,0.01,0.02,-0.01,1.0,b
1865.0,880.0,912.0,2685.0,4095.0,4095.0,4095.0,4095.0,0.41,9.77,2.99,-0.13,-0.0,-0.05,1.0,b
1869.0,880.0,912.0,2687.0,4095.0,4095.0,4095.0,4095.0,-0.23,9.61,2.94,-0.03,0.03,-0.08,1.0,b
1866.0,864.0,901.0,2689.0,4095.0,4095.0,4095.0,4095.0,0.18,9.72,2.88,-0.11,0.06,0.01,1.0,b
1857.0,877.0,913.0,2687.0,4095.0,4095.0,4095.0,4095.0,0.08,9.65,3.04,-0.06,0.04,-0.04,1.0,b
1859.0,880.0,910.0,2693.0,4095.0,4095.0,4095.0,4095.0,0.2,9.75,2.88,-0.09,0.02,0.01,1.0,b
1847.0,875.0,910.0,2688.0,4095.0,4095.0,4095.0,4095.0,0.11,9.63,3.22,-0.05,0.08,-0.07,1.0,b
1853.0,878.0,910.0,2688.0,4095.0,4095.0,4095.0,4095.0,0.03,9.68,2.82,-0.04,0.02,0.02,1.0,b
1839.0,878.0,915.0,2690.0,4095.0,4095.0,4095.0,4095.0,0.35,9.64,3.3,-0.07,0.01,-0.06,1.0,b
1829.0,885.0,912.0,2694.0,4095.0,4095.0,4095.0,4095.0,-0.14,9.65,2.77,-0.05,0.05,-0.01,1.0,b
1786.0,878.0,912.0,2686.0,4095.0,4095.0,4095.0,4095.0,0.45,9.72,3.1,-0.09,-0.07,-0.04,1.0,b
1755.0,881.0,912.0,2687.0,4095.0,4095.0,4095.0,4095.0,-0.19,9.64,2.94,-0.03,0.02,-0.06,1.0,b
1763.0,866.0,912.0,2694.0,4095.0,4095.0,4095.0,4095.0,0.31,9.77,2.89,-0.1,0.01,0.01,1.0,b
1731.0,871.0,912.0,2699.0,4095.0,4095.0,4095.0,4095.0,0.11,9.63,3.17,-0.05,-0.02,-0.09,1.0,b
1706.0,880.0,913.0,2700.0,4095.0,4095.0,4095.0,4095.0,0.19,9.74,2.94,-0.01,-0.06,-0.03,1.0,b
1712.0,875.0,910.0,2693.0,4095.0,4095.0,4095.0,4095.0,-0.01,9.71,2.73,-0.08,0.09,-0.03,1.0,b
1712.0,877.0,912.0,2697.0,4095.0,4095.0,4095.0,4095.0,0.35,9.73,3.07,-0.08,-0.05,-0.03,1.0,b
1705.0,878.0,912.0,2698.0,4095.0,4095.0,4095.0,4095.0,-0.02,9.65,3.02,-0.02,-0.01,-0.05,1.0,b
1715.0,874.0,905.0,2707.0,4095.0,4095.0,4095.0,4095.0,0.16,9.76,2.74,-0.08,0.03,0.02,1.0,b
1710.0,873.0,913.0,2700.0,4095.0,4095.0,4095.0,4095.0,0.22,9.6,3.3,-0.07,-0.02,-0.08,1.0,b
1712.0,880.0,911.0,2702.0,4095.0,4095.0,4095.0,4095.0,-0.07,9.7,2.73,-0.0,-0.02,-0.02,1.0,b
1712.0,880.0,912.0,2700.0,4095.0,4095.0,4095.0,4095.0,0.41,9.72,3.05,-0.1,-0.02,-0.07,1.0,b
1700.0,880.0,911.0,2710.0,4095.0,4095.0,4095.0,4095.0,-0.19,9.61,2.87,-0.05,0.02,-0.06,1.0,b
1711.0,881.0,913.0,2706.0,4095.0,4095.0,4095.0,4095.0,0.38,9.73,3.05,-0.07,-0.07,-0.04,1.0,b
1702.0,880.0,905.0,2704.0,4095.0,4095.0,4095.0,4095.0,0.06,9.72,2.94,0.01,-0.06,-0.15,1.0,b
1701.0,871.0,912.0,2708.0,4095.0,4095.0,4095.0,4095.0,-0.14,9.75,2.71,-0.08,-0.04,-0.06,1.0,b
1697.0,871.0,912.0,2711.0,4095.0,4095.0,4095.0,4095.0,-0.02,9.58,3.35,-0.05,0.02,-0.09,1.0,b
1705.0,875.0,903.0,2734.0,4095.0,4095.0,4095.0,4095.0,-0.11,9.76,2.68,-0.03,-0.01,-0.03,1.0,b
1693.0,880.0,910.0,2704.0,4095.0,4095.0,4095.0,4095.0,0.07,9.7,3.16,-0.06,-0.11,-0.1,1.0,b
1689.0,869.0,909.0,2704.0,4095.0,4095.0,4095.0,4095.0,-0.41,9.64,2.83,-0.05,0.05,-0.01,1.0,b
1686.0,880.0,910.0,2709.0,4095.0,4095.0,4095.0,4095.0,0.2,9.73,3.11,-0.12,0.02,0.0,1.0,b
1689.0,878.0,911.0,2716.0,4095.0,4095.0,4095.0,4095.0,-0.35,9.59,2.95,-0.05,0.05,-0.03,1.0,b
1685.0,874.0,909.0,2720.0,4095.0,4095.0,4095.0,4095.0,-0.28,9.59,3.05,-0.08,0.04,-0.04,1.0,b
1677.0,880.0,912.0,2715.0,4095.0,4095.0,4095.0,4095.0,0.23,9.8,2.96,-0.05,-0.03,-0.0,1.0,b
1680.0,879.0,919.0,2709.0,4095.0,4095.0,4095.0,4095.0,0.01,9.7,3.0,-0.01,-0.08,-0.12,1.0,b
1680.0,870.0,912.0,2713.0,4095.0,4095.0,4095.0,4095.0,-0.18,9.78,2.6,-0.07,-0.01,-0.06,1.0,b
1678.0,880.0,914.0,2718.0,4095.0,4095.0,4095.0,4095.0,-0.04,9.68,3.17,-0.14,-0.08,-0.08,1.0,b
1686.0,877.0,912.0,2725.0,4095.0,4095.0,4095.0,4095.0,-0.29,9.56,3.17,-0.06,-0.03,-0.06,1.0,b
1679.0,878.0,908.0,2721.0,4095.0,4095.0,4095.0,4095.0,-0.14,9.72,2.89,-0.09,-0.02,-0.03,1.0,b
1680.0,877.0,912.0,2719.0,4095.0,4095.0,4095.0,4095.0,-0.13,9.62,3.18,-0.15,-0.04,-0.07,1.0,b
1682.0,871.0,909.0,2711.0,4095.0,4095.0,4095.0,4095.0,-0.21,9.58,3.22,-0.14,0.03,-0.04,1.0,b
1687.0,871.0,907.0,2717.0,4095.0,4095.0,4095.0,4095.0,-0.22,9.55,3.32,-0.16,-0.01,-0.04,1.0,b
1682.0,875.0,909.0,2715.0,4095.0,4095.0,4095.0,4095.0,-0.28,9.51,3.5,-0.11,0.03,-0.05,1.0,b
1682.0,880.0,916.0,2721.0,4095.0,4095.0,4095.0,4095.0,-0.08,9.58,3.48,-0.05,-0.06,-0.06,1.0,b
1681.0,873.0,910.0,2716.0,4095.0,4095.0,4095.0,4095.0,-0.19,9.54,3.43,-0.06,0.01,-0.06,1.0,b
1679.0,871.0,911.0,2719.0,4095.0,4095.0,4095.0,4095.0,-0.33,9.49,3.41,-0.08,0.05,-0.02,1.0,b
1692.0,879.0,912.0,2731.0,4095.0,4095.0,4095.0,4095.0,-0.18,9.56,3.38,-0.05,-0.02,-0.05,1.0,b
1680.0,873.0,918.0,2726.0,4095.0,4095.0,4095.0,4095.0,-0.28,9.5,3.39,-0.06,-0.04,-0.03,1.0,b
1680.0,881.0,912.0,2719.0,4095.0,4095.0,4095.0,4095.0,-0.31,9.49,3.4,-0.09,0.08,-0.01,1.0,b
1677.0,871.0,912.0,2720.0,4095.0,4095.0,4095.0,4095.0,-0.25,9.56,3.38,-0.1,0.04,-0.03,1.0,b
1680.0,870.0,912.0,2727.0,4095.0,4095.0,4095.0,4095.0,-0.28,9.53,3.43,-0.1,-0.02,-0.03,1.0,b
1670.0,874.0,914.0,2727.0,4095.0,4095.0,4095.0,4095.0,-0.18,9.52,3.51,-0.13,-0.06,-0.04,1.0,b
1667.0,878.0,912.0,2725.0,4095.0,4095.0,4095.0,4095.0,-0.22,9.42,3.7,-0.07,0.02,-0.03,1.0,b
1680.0,867.0,907.0,2727.0,4095.0,4095.0,4095.0,4095.0,-0.22,9.45,3.59,-0.06,-0.01,-0.03,1.0,b
1674.0,882.0,906.0,2727.0,4095.0,4095.0,4095.0,4095.0,-0.17,9.45,3.58,-0.15,-0.04,-0.03,1.0,b
1669.0,875.0,918.0,2726.0,4095.0,4095.0,4095.0,4095.0,-0.14,9.39,3.88,-0.18,-0.06,-0.06,1.0,b
1663.0,869.0,913.0,2730.0,4095.0,4095.0,4095.0,4095.0,-0.28,9.28,4.05,-0.17,-0.03,-0.02,1.0,b
1648.0,881.0,912.0,2730.0,4095.0,4095.0,4095.0,4095.0,-0.09,9.31,4.15,-0.14,-0.02,-0.03,1.0,b
1646.0,878.0,912.0,2735.0,4095.0,4095.0,4095.0,4095.0,-0.01,9.3,4.26,-0.14,-0.01,-0.02,1.0,b
1631.0,875.0,909.0,2731.0,4095.0,4095.0,4095.0,4095.0,-0.29,9.18,4.25,-0.15,0.03,-0.02,1.0,b
1643.0,875.0,912.0,2740.0,4095.0,4095.0,4095.0,4095.0,-0.16,9.16,4.36,-0.15,0.03,0.02,1.0,b
1643.0,879.0,914.0,2731.0,4095.0,4095.0,4095.0,4095.0,-0.04,9.17,4.4,-0.17,-0.01,0.01,1.0,b
1634.0,880.0,912.0,2734.0,4095.0,4095.0,4095.0,4095.0,-0.19,9.11,4.45,-0.16,-0.04,0.02,1.0,b
1637.0,870.0,910.0,2731.0,4095.0,4095.0,4095.0,4095.0,0.13,9.0,4.78,-0.15,0.01,0.03,1.0,b
1638.0,875.0,913.0,2736.0,4095.0,4095.0,4095.0,4095.0,0.21,9.04,4.77,-0.13,0.03,0.01,1.0,b
1643.0,879.0,913.0,2736.0,4095.0,4095.0,4095.0,4095.0,-0.09,8.94,4.71,-0.12,-0.03,0.02,1.0,b
1623.0,873.0,909.0,2725.0,4095.0,4095.0,4095.0,4095.0,0.02,8.86,4.84,-0.12,-0.0,0.08,1.0,b
1621.0,875.0,912.0,2733.0,4095.0,4095.0,4095.0,4095.0,0.37,8.9,4.94,-0.07,-0.02,0.07,1.0,b
1626.0,877.0,916.0,2734.0,4095.0,4095.0,4095.0,4095.0,0.25,8.88,4.96,-0.11,0.07,0.09,1.0,b
1630.0,880.0,909.0,2737.0,4095.0,4095.0,4095.0,4095.0,0.52,8.94,4.92,-0.08,0.08,0.08,1.0,b
1629.0,878.0,908.0,2731.0,4095.0,4095.0,4095.0,4095.0,0.69,8.95,4.94,-0.07,0.03,0.04,1.0,b
1629.0,880.0,908.0,2737.0,4095.0,4095.0,4095.0,4095.0,0.7,8.9,4.98,-0.06,-0.02,0.04,1.0,b
1623.0,879.0,912.0,2737.0,4095.0,4095.0,4095.0,4095.0,0.8,8.91,4.98,-0.05,-0.0,0.02,1.0,b
1642.0,878.0,907.0,2742.0,4095.0,4095.0,4095.0,4095.0,0.85,8.88,4.98,-0.04,0.01,0.01,1.0,b
1622.0,877.0,912.0,2739.0,4095.0,4095.0,4095.0,4095.0,0.69,8.87,4.93,-0.03,0.04,0.04,1.0,b
1629.0,877.0,908.0,2739.0,4095.0,4095.0,4095.0,4095.0,0.92,8.9,4.81,-0.04,0.06,0.05,1.0,b
1617.0,877.0,901.0,2741.0,4095.0,4095.0,4095.0,4095.0,0.96,8.88,4.86,-0.06,0.02,0.05,1.0,b
1627.0,880.0,912.0,2736.0,4095.0,4095.0,4095.0,4095.0,1.1,8.9,4.96,-0.04,0.03,0.0,1.0,b
1630.0,869.0,908.0,2737.0,4095.0,4095.0,4095.0,4095.0,1.11,8.91,4.88,-0.02,0.01,0.0,1.0,b
1626.0,875.0,910.0,2736.0,4095.0,4095.0,4095.0,4095.0,1.11,8.97,4.79,0.01,-0.02,-0.04,1.0,b
1631.0,877.0,913.0,2746.0,4095.0,4095.0,4095.0,4095.0,1.07,8.95,4.78,0.0,-0.02,-0.02,1.0,b
1623.0,875.0,907.0,2736.0,4095.0,4095.0,4095.0,4095.0,1.09,8.98,4.71,-0.01,-0.01,-0.03,1.0,b
1629.0,876.0,910.0,2741.0,4095.0,4095.0,4095.0,4095.0,1.02,8.95,4.73,-0.05,0.05,0.01,1.0,b
1623.0,879.0,911.0,2742.0,4095.0,4095.0,4095.0,4095.0,1.13,9.03,4.68,-0.02,0.01,-0.01,1.0,b
1614.0,878.0,908.0,2736.0,4095.0,4095.0,4095.0,4095.0,1.12,9.01,4.69,-0.03,0.02,-0.01,1.0,b
1584.0,879.0,911.0,2742.0,4095.0,4095.0,4095.0,4095.0,1.09,9.03,4.59,-0.01,0.01,-0.02,1.0,b
1562.0,876.0,914.0,2737.0,4095.0,4095.0,4095.0,4095.0,1.12,9.11,4.46,-0.04,0.04,-0.03,1.0,b
1564.0,876.0,913.0,2739.0,4095.0,4095.0,4095.0,4095.0,1.14,9.1,4.53,-0.03,-0.0,-0.04,1.0,b
1565.0,878.0,907.0,2736.0,4095.0,4095.0,4095.0,4095.0,1.07,9.02,4.5,-0.06,0.03,-0.03,1.0,b
1556.0,876.0,910.0,2746.0,4095.0,4095.0,4095.0,4095.0,1.13,9.1,4.54,-0.03,0.02,-0.01,1.0,b
1565.0,877.0,914.0,2737.0,4095.0,4095.0,4095.0,4095.0,1.18,9.06,4.5,-0.05,0.04,-0.02,1.0,b
1555.0,875.0,912.0,2750.0,4095.0,4095.0,4095.0,4095.0,1.13,9.1,4.47,-0.03,0.01,-0.04,1.0,b
1535.0,877.0,911.0,2743.0,4095.0,4095.0,4095.0,4095.0,1.08,9.13,4.37,0.01,0.01,-0.03,1.0,b
1557.0,874.0,910.0,2745.0,4095.0,4095.0,4095.0,4095.0,1.18,9.16,4.28,-0.01,0.03,-0.01,1.0,b
1553.0,867.0,913.0,2747.0,4095.0,4095.0,4095.0,4095.0,1.16,9.18,4.19,0.01,-0.01,-0.04,1.0,b
1556.0,880.0,901.0,2738.0,4095.0,4095.0,4095.0,4095.0,1.22,9.25,4.22,-0.0,0.0,-0.04,1.0,b
1555.0,874.0,911.0,2748.0,4095.0,4095.0,4095.0,4095.0,1.12,9.22,4.19,-0.01,0.04,-0.05,1.0,b
1535.0,882.0,904.0,2741.0,4095.0,4095.0,4095.0,4095.0,1.12,9.21,4.21,0.03,0.02,-0.03,1.0,b
1553.0,879.0,910.0,2751.0,4095.0,4095.0,4095.0,4095.0,1.15,9.32,3.97,0.06,0.03,-0.03,1.0,b
1535.0,871.0,915.0,2739.0,4095.0,4095.0,4095.0,4095.0,1.07,9.38,3.79,0.07,-0.0,-0.03,1.0,b
1557.0,878.0,908.0,2746.0,4095.0,4095.0,4095.0,4095.0,1.07,9.48,3.58,0.04,0.03,-0.04,1.0,b
1508.0,877.0,912.0,2737.0,4095.0,4095.0,4095.0,4095.0,0.99,9.39,3.62,-0.0,0.04,-0.03,1.0,b
1502.0,879.0,910.0,2747.0,4095.0,4095.0,4095.0,4095.0,1.08,9.46,3.55,0.0,0.04,-0.03,1.0,b
1495.0,871.0,903.0,2736.0,4095.0,4095.0,4095.0,4095.0,1.09,9.52,3.43,0.01,-0.0,-0.03,1.0,b
1493.0,871.0,910.0,2743.0,4095.0,4095.0,4095.0,4095.0,1.02,9.48,3.46,-0.01,0.04,-0.03,1.0,b
1488.0,881.0,912.0,2750.0,4095.0,4095.0,4095.0,4095.0,1.08,9.56,3.35,0.0,0.03,-0.04,1.0,b
1491.0,874.0,910.0,2742.0,4095.0,4095.0,4095.0,4095.0,1.13,9.54,3.36,-0.01,-0.06,-0.06,1.0,b
1488.0,874.0,912.0,2748.0,4095.0,4095.0,4095.0,4095.0,1.07,9.57,3.32,-0.01,-0.01,-0.07,1.0,b
1486.0,872.0,904.0,2742.0,4095.0,4095.0,4095.0,4095.0,1.01,9.58,3.26,-0.02,0.02,-0.07,1.0,b
1482.0,879.0,911.0,2755.0,4095.0,4095.0,4095.0,4095.0,0.97,9.59,3.24,0.0,0.02,-0.09,1.0,b
1487.0,870.0,912.0,2747.0,4095.0,4095.0,4095.0,4095.0,0.88,9.63,3.14,0.03,0.01,-0.09,1.0,b
1484.0,880.0,907.0,2749.0,4095.0,4095.0,4095.0,4095.0,0.86,9.69,2.98,0.04,-0.02,-0.08,1.0,b
1482.0,879.0,912.0,2740.0,4095.0,4095.0,4095.0,4095.0,0.84,9.69,2.93,-0.01,-0.02,-0.1,1.0,b
1486.0,880.0,910.0,2747.0,4095.0,4095.0,4095.0,4095.0,0.59,9.7,2.77,-0.03,-0.01,-0.11,1.0,b
1479.0,876.0,906.0,2750.0,4095.0,4095.0,4095.0,4095.0,0.51,9.71,2.77,-0.04,-0.02,-0.07,1.0,b
1483.0,875.0,909.0,2747.0,4095.0,4095.0,4095.0,4095.0,0.66,9.77,2.81,-0.04,-0.06,-0.06,1.0,b
1471.0,874.0,911.0,2750.0,4095.0,4095.0,4095.0,4095.0,0.71,9.8,2.79,-0.05,-0.07,-0.09,1.0,b
1466.0,880.0,912.0,2742.0,4095.0,4095.0,4095.0,4095.0,0.35,9.67,2.76,-0.07,0.13,-0.06,1.0,b
1466.0,875.0,912.0,2757.0,4095.0,4095.0,4095.0,4095.0,0.48,9.8,2.67,-0.05,0.04,-0.08,1.0,b
1463.0,880.0,912.0,2743.0,4095.0,4095.0,4095.0,4095.0,0.37,9.78,2.7,-0.06,-0.01,-0.08,1.0,b
1473.0,876.0,912.0,2751.0,4095.0,4095.0,4095.0,4095.0,0.37,9.77,2.73,-0.05,0.01,-0.08,1.0,b
1462.0,873.0,901.0,2747.0,4095.0,4095.0,4095.0,4095.0,0.38,9.76,2.75,-0.05,0.01,-0.07,1.0,b
1471.0,880.0,910.0,2750.0,4095.0,4095.0,4095.0,4095.0,0.29,9.77,2.68,-0.05,0.0,-0.09,1.0,b
1471.0,873.0,917.0,2743.0,4095.0,4095.0,4095.0,4095.0,0.14,9.73,2.65,-0.05,0.03,-0.08,1.0,b
1456.0,881.0,917.0,2741.0,4095.0,4095.0,4095.0,4095.0,0.19,9.84,2.64,-0.06,0.06,-0.06,1.0,b
1455.0,873.0,910.0,2755.0,4095.0,4095.0,4095.0,4095.0,0.15,9.8,2.62,-0.04,-0.05,-0.09,1.0,b
1443.0,880.0,913.0,2747.0,4095.0,4095.0,4095.0,4095.0,0.2,9.83,2.66,-0.04,-0.06,-0.09,1.0,b
1422.0,881.0,910.0,2752.0,4095.0,4095.0,4095.0,4095.0,0.03,9.9,2.51,0.01,-0.03,-0.08,1.0,b
1383.0,878.0,912.0,2747.0,4095.0,4095.0,4095.0,4095.0,0.17,9.87,2.52,-0.0,-0.01,-0.08,1.0,b
1353.0,875.0,903.0,2747.0,4095.0,4095.0,4095.0,4095.0,0.0,9.83,2.4,-0.01,-0.02,-0.08,1.0,b
1344.0,880.0,902.0,2749.0,4095.0,4095.0,4095.0,4095.0,0.05,9.84,2.41,-0.05,-0.08,-0.12,1.0,b
1321.0,879.0,906.0,2750.0,4095.0,4095.0,4095.0,4095.0,-0.01,9.82,2.49,-0.04,-0.03,-0.1,1.0,b
1328.0,880.0,912.0,2752.0,4095.0,4095.0,4095.0,4095.0,-0.48,9.75,2.44,-0.11,0.2,-0.03,1.0,b
1323.0,877.0,909.0,2755.0,4095.0,4095.0,4095.0,4095.0,-0.27,9.81,2.37,-0.01,-0.01,-0.04,1.0,b
1322.0,877.0,912.0,2747.0,4095.0,4095.0,4095.0,4095.0,-0.33,9.84,2.27,-0.07,0.01,-0.04,1.0,b
1324.0,879.0,909.0,2757.0,4095.0,4095.0,4095.0,4095.0,-0.3,9.84,2.41,-0.06,-0.05,-0.04,1.0,b
1326.0,878.0,899.0,2751.0,4095.0,4095.0,4095.0,4095.0,-0.25,9.84,2.41,-0.07,0.01,-0.05,1.0,b
1319.0,877.0,909.0,2753.0,4095.0,4095.0,4095.0,4095.0,-0.3,9.84,2.36,-0.05,0.0,-0.06,1.0,b
1325.0,884.0,902.0,2747.0,4095.0,4095.0,4095.0,4095.0,-0.35,9.81,2.44,-0.01,-0.11,-0.09,1.0,b
1327.0,874.0,906.0,2753.0,4095.0,4095.0,4095.0,4095.0,-0.33,9.82,2.34,-0.02,-0.06,-0.07,1.0,b
1317.0,879.0,912.0,2743.0,4095.0,4095.0,4095.0,4095.0,-0.35,9.76,2.39,-0.05,-0.01,-0.09,1.0,b
1314.0,869.0,903.0,2747.0,4095.0,4095.0,4095.0,4095.0,-0.55,9.77,2.36,-0.04,0.01,-0.08,1.0,b
1311.0,880.0,909.0,2741.0,4095.0,4095.0,4095.0,4095.0,-0.56,9.84,2.23,-0.03,-0.04,-0.05,1.0,b
1309.0,880.0,909.0,2758.0,4095.0,4095.0,4095.0,4095.0,-0.52,9.83,2.25,-0.07,0.0,-0.05,1.0,b
1312.0,880.0,912.0,2761.0,4095.0,4095.0,4095.0,4095.0,-0.5,9.81,2.29,-0.04,-0.04,-0.12,1.0,b
1312.0,880.0,912.0,2747.0,4095.0,4095.0,4095.0,4095.0,-0.74,9.88,2.09,-0.06,-0.14,-0.17,1.0,b
1306.0,876.0,914.0,2750.0,4095.0,4095.0,4095.0,4095.0,-0.88,9.75,2.49,-0.07,-0.1,-0.12,1.0,b
1306.0,880.0,910.0,2746.0,4095.0,4095.0,4095.0,4095.0,-0.95,9.76,2.26,-0.07,0.03,-0.05,1.0,b
1303.0,880.0,905.0,2755.0,4095.0,4095.0,4095.0,4095.0,-0.89,9.78,2.24,-0.07,0.06,-0.04,1.0,b
1306.0,874.0,911.0,2746.0,4095.0,4095.0,4095.0,4095.0,-0.82,9.78,2.26,-0.08,0.0,-0.08,1.0,b
1299.0,879.0,906.0,2756.0,4095.0,4095.0,4095.0,4095.0,-0.96,9.85,2.01,-0.14,0.02,-0.1,1.0,b
1297.0,877.0,912.0,2748.0,4095.0,4095.0,4095.0,4095.0,-0.81,9.87,2.04,-0.19,-0.11,-0.14,1.0,b
2147.0,897.0,907.0,2639.0,4095.0,4095.0,4095.0,4095.0,-0.91,9.5,3.07,-0.04,-0.0,-0.05,1.0,b
2135.0,906.0,903.0,2640.0,4095.0,4095.0,4095.0,4095.0,-0.79,9.59,3.21,-0.03,-0.04,-0.07,1.0,b
2129.0,891.0,912.0,2640.0,4095.0,4095.0,4095.0,4095.0,-0.87,9.58,3.03,0.01,-0.09,-0.12,1.0,b
2119.0,897.0,912.0,2647.0,4095.0,4095.0,4095.0,4095.0,-1.03,9.61,2.92,-0.08,-0.01,-0.14,1.0,b
2117.0,895.0,912.0,2661.0,4095.0,4095.0,4095.0,4095.0,-1.23,9.5,2.94,-0.14,0.06,-0.12,1.0,b
2103.0,891.0,909.0,2657.0,4095.0,4095.0,4095.0,4095.0,-1.1,9.51,3.21,-0.14,-0.03,-0.18,1.0,b
2117.0,891.0,905.0,2654.0,4095.0,4095.0,4095.0,4095.0,-1.54,9.33,3.36,-0.1,-0.05,-0.19,1.0,b
2108.0,885.0,908.0,2666.0,4095.0,4095.0,4095.0,4095.0,-1.67,9.39,3.38,-0.1,-0.03,-0.14,1.0,b
2112.0,895.0,906.0,2667.0,4095.0,4095.0,4095.0,4095.0,-1.79,9.36,3.24,-0.1,0.04,-0.11,1.0,b
2096.0,894.0,911.0,2667.0,4095.0,4095.0,4095.0,4095.0,-1.5,9.39,3.29,-0.06,-0.03,-0.06,1.0,b
2112.0,897.0,910.0,2669.0,4095.0,4095.0,4095.0,4095.0,-1.42,9.44,3.37,-0.06,-0.09,-0.12,1.0,b
2105.0,893.0,912.0,2671.0,4095.0,4095.0,4095.0,4095.0,-1.56,9.35,3.46,-0.03,-0.1,-0.13,1.0,b
2094.0,888.0,913.0,2672.0,4095.0,4095.0,4095.0,4095.0,-1.7,9.32,3.34,-0.04,-0.08,-0.13,1.0,b
2093.0,896.0,911.0,2682.0,4095.0,4095.0,4095.0,4095.0,-2.13,9.26,3.31,-0.1,0.09,-0.08,1.0,b
2087.0,896.0,912.0,2674.0,4095.0,4095.0,4095.0,4095.0,-1.87,9.28,3.45,-0.09,0.05,-0.07,1.0,b
2096.0,885.0,922.0,2679.0,4095.0,4095.0,4095.0,4095.0,-1.99,9.24,3.36,-0.07,0.04,-0.07,1.0,b
2094.0,903.0,914.0,2687.0,4095.0,4095.0,4095.0,4095.0,-2.12,9.19,3.59,-0.06,0.04,-0.07,1.0,b
2082.0,898.0,914.0,2677.0,4095.0,4095.0,4095.0,4095.0,-2.06,9.19,3.55,0.03,0.01,-0.08,1.0,b
2068.0,894.0,918.0,2683.0,4095.0,4095.0,4095.0,4095.0,-2.13,9.2,3.42,0.05,0.01,-0.06,1.0,b
2079.0,897.0,925.0,2693.0,4095.0,4095.0,4095.0,4095.0,-2.16,9.29,3.13,0.04,0.07,-0.05,1.0,b
2031.0,896.0,934.0,2695.0,4095.0,4095.0,4095.0,4095.0,-2.24,9.38,2.65,0.01,0.06,-0.01,1.0,b
2038.0,901.0,922.0,2711.0,4095.0,4095.0,4095.0,4095.0,-2.31,9.42,2.54,0.04,0.01,0.0,1.0,b
2029.0,900.0,927.0,2695.0,4095.0,4095.0,4095.0,4095.0,-2.23,9.51,2.27,0.04,0.09,0.05,1.0,b
2021.0,898.0,919.0,2704.0,4095.0,4095.0,4095.0,4095.0,-1.91,9.65,2.05,-0.03,0.1,0.02,1.0,b
2022.0,903.0,931.0,2698.0,4095.0,4095.0,4095.0,4095.0,-2.1,9.52,2.27,-0.05,0.02,0.01,1.0,b
2020.0,899.0,921.0,2703.0,4095.0,4095.0,4095.0,4095.0,-2.23,9.52,2.19,-0.06,0.05,0.03,1.0,b
2015.0,902.0,927.0,2703.0,4095.0,4095.0,4095.0,4095.0,-2.03,9.57,2.33,-0.05,0.06,0.05,1.0,b
2009.0,899.0,922.0,2704.0,4095.0,4095.0,4095.0,4095.0,-1.9,9.55,2.34,-0.01,0.04,0.06,1.0,b
2021.0,898.0,922.0,2707.0,4095.0,4095.0,4095.0,4095.0,-1.8,9.66,2.12,0.0,0.05,0.02,1.0,b
2023.0,895.0,931.0,2707.0,4095.0,4095.0,4095.0,4095.0,-1.86,9.65,1.93,-0.0,0.02,-0.0,1.0,b
2022.0,896.0,933.0,2709.0,4095.0,4095.0,4095.0,4095.0,-1.83,9.68,1.95,-0.03,0.02,0.02,1.0,b
2006.0,901.0,922.0,2704.0,4095.0,4095.0,4095.0,4095.0,-1.78,9.7,1.98,-0.03,0.03,0.03,1.0,b
2001.0,893.0,928.0,2708.0,4095.0,4095.0,4095.0,4095.0,-1.7,9.68,2.02,-0.02,0.02,0.03,1.0,b
1989.0,896.0,927.0,2704.0,4095.0,4095.0,4095.0,4095.0,-1.66,9.7,1.96,0.01,0.05,0.03,1.0,b
1995.0,899.0,931.0,2715.0,4095.0,4095.0,4095.0,4095.0,-1.6,9.8,1.73,0.03,0.03,0.03,1.0,b
1981.0,896.0,926.0,2706.0,4095.0,4095.0,4095.0,4095.0,-1.62,9.79,1.54,-0.03,0.04,0.06,1.0,b
1987.0,900.0,927.0,2710.0,4095.0,4095.0,4095.0,4095.0,-1.32,9.83,1.57,-0.04,0.02,0.05,1.0,b
1985.0,899.0,923.0,2711.0,4095.0,4095.0,4095.0,4095.0,-1.2,9.84,1.63,-0.07,0.04,0.02,1.0,b
1986.0,897.0,921.0,2704.0,4095.0,4095.0,4095.0,4095.0,-1.28,9.82,1.69,-0.05,0.02,0.01,1.0,b
1997.0,905.0,923.0,2716.0,4095.0,4095.0,4095.0,4095.0,-1.28,9.81,1.67,-0.02,-0.04,0.03,1.0,b
1983.0,899.0,929.0,2710.0,4095.0,4095.0,4095.0,4095.0,-0.88,9.89,1.55,-0.04,-0.04,0.01,1.0,b
1981.0,909.0,928.0,2713.0,4095.0,4095.0,4095.0,4095.0,-0.81,9.96,1.44,-0.05,0.01,0.0,1.0,b
1978.0,900.0,925.0,2706.0,4095.0,4095.0,4095.0,4095.0,-0.9,9.83,1.59,-0.08,0.03,0.01,1.0,b
1979.0,898.0,931.0,2709.0,4095.0,4095.0,4095.0,4095.0,-0.89,9.86,1.59,-0.07,0.04,0.01,1.0,b
1968.0,902.0,934.0,2706.0,4095.0,4095.0,4095.0,4095.0,-0.92,9.9,1.42,-0.08,0.05,0.03,1.0,b
1968.0,902.0,927.0,2712.0,4095.0,4095.0,4095.0,4095.0,-0.68,9.94,1.47,-0.09,0.02,0.05,1.0,b
1975.0,895.0,928.0,2718.0,4095.0,4095.0,4095.0,4095.0,-0.49,9.93,1.75,-0.08,-0.01,0.0,1.0,b
1968.0,903.0,926.0,2713.0,4095.0,4095.0,4095.0,4095.0,-0.73,9.92,1.52,-0.02,-0.04,-0.0,1.0,b
1971.0,905.0,928.0,2726.0,4095.0,4095.0,4095.0,4095.0,-0.58,9.93,1.63,-0.08,-0.0,0.04,1.0,b
1968.0,898.0,928.0,2719.0,4095.0,4095.0,4095.0,4095.0,-0.62,9.9,1.55,-0.06,0.01,0.03,1.0,b
1966.0,898.0,939.0,2725.0,4095.0,4095.0,4095.0,4095.0,-0.71,9.91,1.51,-0.08,0.05,0.11,1.0,b
1954.0,900.0,919.0,2717.0,4095.0,4095.0,4095.0,4095.0,-0.15,9.96,1.58,-0.08,0.08,0.17,1.0,b
1956.0,898.0,924.0,2723.0,4095.0,4095.0,4095.0,4095.0,0.34,10.0,1.64,-0.07,0.05,0.13,1.0,b
1957.0,906.0,926.0,2713.0,4095.0,4095.0,4095.0,4095.0,0.33,10.02,1.69,-0.06,-0.04,-0.03,1.0,b
1965.0,906.0,928.0,2717.0,4095.0,4095.0,4095.0,4095.0,-0.13,9.94,1.6,-0.08,-0.03,-0.02,1.0,b
1952.0,895.0,926.0,2718.0,4095.0,4095.0,4095.0,4095.0,-0.02,9.96,1.57,-0.11,0.01,0.06,1.0,b
1962.0,896.0,929.0,2722.0,4095.0,4095.0,4095.0,4095.0,0.24,9.98,1.73,-0.1,0.03,0.03,1.0,b
1949.0,902.0,934.0,2722.0,4095.0,4095.0,4095.0,4095.0,0.33,9.94,1.88,-0.09,0.01,0.03,1.0,b
1951.0,902.0,928.0,2710.0,4095.0,4095.0,4095.0,4095.0,0.27,9.89,1.85,-0.11,0.1,0.06,1.0,b
1958.0,903.0,925.0,2724.0,4095.0,4095.0,4095.0,4095.0,0.64,9.91,1.9,-0.08,0.06,-0.03,1.0,b
2384.0,898.0,929.0,2733.0,4095.0,4095.0,4095.0,4095.0,0.14,9.76,2.6,-0.11,0.09,-0.01,1.0,b
2375.0,903.0,925.0,2721.0,4095.0,4095.0,4095.0,4095.0,0.45,9.83,2.61,-0.1,-0.01,-0.02,1.0,b
2397.0,902.0,934.0,2734.0,4095.0,4095.0,4095.0,4095.0,0.33,9.77,2.67,-0.11,-0.08,-0.07,1.0,b
2386.0,897.0,930.0,2725.0,4095.0,4095.0,4095.0,4095.0,0.26,9.68,2.87,-0.13,-0.04,-0.04,1.0,b
2399.0,900.0,933.0,2735.0,4095.0,4095.0,4095.0,4095.0,0.2,9.7,2.9,-0.12,0.04,-0.03,1.0,b
2389.0,899.0,928.0,2719.0,4095.0,4095.0,4095.0,4095.0,0.29,9.73,2.96,-0.11,0.03,-0.03,1.0,b
2400.0,906.0,927.0,2737.0,4095.0,4095.0,4095.0,4095.0,0.29,9.7,2.94,-0.1,0.01,-0.03,1.0,b
2405.0,898.0,930.0,2725.0,4095.0,4095.0,4095.0,4095.0,0.26,9.7,2.9,-0.13,0.03,-0.03,1.0,b
2395.0,899.0,937.0,2737.0,4095.0,4095.0,4095.0,4095.0,0.21,9.64,3.01,-0.11,0.02,-0.03,1.0,b
2400.0,901.0,933.0,2721.0,4095.0,4095.0,4095.0,4095.0,0.27,9.63,3.14,-0.13,0.02,-0.03,1.0,b
2399.0,901.0,933.0,2725.0,4095.0,4095.0,4095.0,4095.0,0.2,9.56,3.24,-0.09,0.01,-0.02,1.0,b
2407.0,897.0,923.0,2734.0,4095.0,4095.0,4095.0,4095.0,0.33,9.63,3.16,-0.07,0.01,-0.03,1.0,b
2406.0,906.0,919.0,2725.0,4095.0,4095.0,4095.0,4095.0,0.28,9.65,3.08,-0.06,-0.02,-0.05,1.0,b
2421.0,895.0,927.0,2723.0,4095.0,4095.0,4095.0,4095.0,0.24,9.62,3.08,-0.12,0.04,-0.02,1.0,b
2431.0,903.0,929.0,2724.0,4095.0,4095.0,4095.0,4095.0,0.36,9.54,3.37,-0.14,0.03,-0.07,1.0,b
2432.0,903.0,925.0,2723.0,4095.0,4095.0,4095.0,4095.0,0.24,9.57,3.45,-0.12,0.01,-0.08,1.0,b
2439.0,901.0,913.0,2725.0,4095.0,4095.0,4095.0,4095.0,0.18,9.55,3.36,-0.08,-0.03,-0.12,1.0,b
2458.0,898.0,915.0,2741.0,4095.0,4095.0,4095.0,4095.0,-0.15,9.55,3.29,-0.08,0.0,-0.08,1.0,b
2473.0,902.0,919.0,2736.0,4095.0,4095.0,4095.0,4095.0,0.11,9.61,3.24,-0.1,0.01,-0.07,1.0,b
2485.0,900.0,917.0,2739.0,4095.0,4095.0,4095.0,4095.0,0.05,9.62,3.3,-0.08,-0.0,-0.12,1.0,b
2490.0,893.0,922.0,2739.0,4095.0,4095.0,4095.0,4095.0,-0.43,9.4,3.74,-0.13,-0.01,-0.06,1.0,b
2491.0,895.0,933.0,2737.0,4095.0,4095.0,4095.0,4095.0,-0.4,9.41,3.82,-0.11,0.01,-0.06,1.0,b
2494.0,896.0,928.0,2741.0,4095.0,4095.0,4095.0,4095.0,-0.45,9.37,3.81,-0.1,-0.02,-0.05,1.0,b
2498.0,894.0,926.0,2736.0,4095.0,4095.0,4095.0,4095.0,-0.54,9.35,3.87,-0.09,0.01,-0.02,1.0,b
2496.0,893.0,935.0,2747.0,4095.0,4095.0,4095.0,4095.0,-0.34,9.37,3.88,-0.08,-0.01,-0.03,1.0,b
2496.0,897.0,942.0,2736.0,4095.0,4095.0,4095.0,4095.0,-0.28,9.37,3.94,-0.08,-0.03,-0.07,1.0,b
2497.0,898.0,941.0,2738.0,4095.0,4095.0,4095.0,4095.0,-0.47,9.34,3.93,-0.07,0.0,-0.08,1.0,b
2496.0,899.0,935.0,2735.0,4095.0,4095.0,4095.0,4095.0,-0.52,9.37,3.89,-0.08,-0.02,-0.07,1.0,b
2502.0,899.0,943.0,2739.0,4095.0,4095.0,4095.0,4095.0,-0.42,9.32,4.02,-0.07,-0.02,-0.07,1.0,b
2496.0,908.0,942.0,2747.0,4095.0,4095.0,4095.0,4095.0,-0.47,9.35,3.95,-0.04,-0.01,-0.09,1.0,b
2503.0,900.0,937.0,2736.0,4095.0,4095.0,4095.0,4095.0,-0.66,9.3,3.92,-0.05,0.0,-0.08,1.0,b
2511.0,902.0,941.0,2750.0,4095.0,4095.0,4095.0,4095.0,-0.57,9.35,3.87,-0.05,-0.01,-0.04,1.0,b
2498.0,891.0,941.0,2736.0,4095.0,4095.0,4095.0,4095.0,-0.51,9.35,4.03,-0.06,0.0,-0.07,1.0,b
2499.0,899.0,943.0,2743.0,4095.0,4095.0,4095.0,4095.0,-0.53,9.4,3.79,-0.02,-0.02,-0.1,1.0,b
2491.0,907.0,939.0,2736.0,4095.0,4095.0,4095.0,4095.0,-0.64,9.35,3.84,-0.03,-0.03,-0.1,1.0,b
2509.0,897.0,939.0,2738.0,4095.0,4095.0,4095.0,4095.0,-0.74,9.34,3.81,-0.03,-0.06,-0.08,1.0,b
2505.0,896.0,939.0,2735.0,4095.0,4095.0,4095.0,4095.0,-0.69,9.38,3.79,-0.05,-0.03,-0.08,1.0,b
