hall_1,hall_2,hall_3,flex_t,flex_i,flex_m,flex_r,flex_p,accel_x,accel_y,accel_z,gyro_x,gyro_y,gyro_z,sign
1167.0,2889.0,3071.0,4095.0,3070.0,3311.0,2774.0,3040.0,2.14,9.39,-1.71,0.03,-0.01,0.0,a
1168.0,2889.0,3071.0,4095.0,3059.0,3314.0,2775.0,3041.0,2.25,9.38,-1.75,-0.07,0.02,-0.03,a
1165.0,2889.0,3083.0,4095.0,3054.0,3315.0,2783.0,3040.0,2.22,9.37,-1.75,-0.06,0.0,-0.02,a
1163.0,2884.0,3068.0,4095.0,3056.0,3312.0,2776.0,3038.0,2.18,9.24,-1.61,-0.05,0.01,-0.03,a
1168.0,2883.0,3083.0,4095.0,3063.0,3314.0,2781.0,3041.0,2.28,9.43,-1.65,-0.05,-0.01,-0.02,a
1168.0,2890.0,3082.0,4095.0,3069.0,3315.0,2779.0,3039.0,2.14,9.42,-1.6,-0.03,-0.02,0.02,a
1167.0,2883.0,3071.0,4095.0,3067.0,3315.0,2783.0,3043.0,2.24,9.32,-1.69,0.0,0.01,0.01,a
1174.0,2881.0,3079.0,4095.0,3089.0,3317.0,2779.0,3052.0,2.32,9.33,-1.87,-0.06,-0.06,0.06,a
1190.0,2892.0,3087.0,4095.0,3134.0,3313.0,2781.0,3053.0,2.26,9.31,-1.41,-0.23,0.02,-0.07,a
1214.0,2931.0,3123.0,4095.0,3161.0,3376.0,2782.0,3024.0,2.41,9.12,-1.73,-0.27,0.32,-0.13,a
1264.0,2906.0,3099.0,4095.0,3184.0,3374.0,2752.0,2992.0,1.86,9.05,-1.09,-0.12,0.07,0.05,a
1680.0,2909.0,3099.0,4095.0,3232.0,3390.0,2749.0,2985.0,2.12,9.68,-1.2,-0.05,0.03,0.03,a
1849.0,2908.0,3091.0,4095.0,3248.0,3395.0,2751.0,2991.0,1.9,9.14,-1.24,0.01,0.0,0.05,a
1873.0,2902.0,3100.0,4095.0,3254.0,3407.0,2765.0,3001.0,2.55,9.44,-1.31,0.09,-0.13,0.16,a
1514.0,2902.0,3093.0,4095.0,3235.0,3411.0,2804.0,3009.0,2.43,9.09,-1.5,-0.05,-0.16,-0.0,a
1201.0,2917.0,3086.0,4095.0,3215.0,3418.0,2864.0,3048.0,2.35,9.49,-1.7,0.07,-0.19,0.06,a
1154.0,2928.0,3091.0,4095.0,3163.0,3412.0,2895.0,3124.0,2.28,9.27,-1.28,-0.2,-0.04,0.05,a
1146.0,2928.0,3099.0,4095.0,3101.0,3397.0,2884.0,3151.0,2.73,9.38,-1.52,0.12,-0.06,0.02,a
2963.0,2928.0,3110.0,4095.0,3082.0,3398.0,2769.0,3157.0,2.33,9.3,-1.45,-0.33,0.05,-0.1,a
3090.0,3059.0,3235.0,4095.0,3119.0,3538.0,2917.0,3278.0,2.6,9.46,-1.27,-0.03,-0.03,0.03,a
3087.0,2994.0,3166.0,4095.0,3130.0,3447.0,2801.0,3168.0,2.5,9.18,-1.58,-0.24,0.04,-0.14,a
2958.0,3052.0,3227.0,4095.0,3173.0,3509.0,2864.0,3258.0,2.38,9.45,-1.08,-0.11,-0.06,0.01,a
2765.0,3045.0,3248.0,4095.0,3248.0,3568.0,2898.0,3346.0,2.46,9.56,-1.39,-0.41,0.03,-0.1,a
2797.0,3088.0,3241.0,4095.0,3316.0,3568.0,2850.0,3377.0,2.33,9.71,-0.98,0.09,-0.29,0.01,a
2969.0,3005.0,3161.0,4095.0,3303.0,3506.0,2802.0,3379.0,2.48,9.3,-1.42,-0.01,0.08,-0.14,a
3056.0,2979.0,3106.0,4095.0,3214.0,3444.0,2730.0,3360.0,2.28,9.26,-1.03,-0.07,-0.03,0.2,a
3052.0,2960.0,3056.0,4095.0,3120.0,3412.0,2670.0,3280.0,2.85,9.68,-0.97,0.08,0.01,-0.06,a
3038.0,3088.0,3188.0,4095.0,3101.0,3539.0,2813.0,3417.0,2.35,9.43,-1.16,-0.36,0.26,-0.06,a
3047.0,2962.0,3117.0,4095.0,3103.0,3409.0,2670.0,3210.0,2.54,9.65,-1.02,-0.01,-0.1,0.02,a
3053.0,2862.0,3031.0,4095.0,3053.0,3287.0,2507.0,2992.0,2.09,8.95,-0.86,-0.03,-0.0,0.0,a
3087.0,3045.0,3061.0,4095.0,3066.0,3372.0,2624.0,3055.0,2.55,9.71,-0.92,0.12,-0.2,0.14,a
3152.0,3135.0,2287.0,4095.0,3081.0,3447.0,2736.0,3114.0,2.38,9.14,-0.7,0.25,-0.09,-0.02,a
3248.0,2981.0,3090.0,4095.0,3071.0,3285.0,2558.0,2929.0,2.55,10.06,-1.95,0.07,0.04,0.01,a
3336.0,2976.0,3158.0,4095.0,3061.0,3271.0,2559.0,2925.0,2.72,8.74,-1.1,0.16,-0.15,0.03,a
3534.0,2997.0,3167.0,4095.0,3058.0,3250.0,2559.0,2918.0,2.48,9.95,-1.73,-0.01,0.17,-0.08,a
3843.0,2993.0,3173.0,4095.0,3083.0,3250.0,2559.0,2909.0,2.5,9.14,-1.34,0.01,-0.12,0.09,a
4093.0,2987.0,3162.0,4095.0,3084.0,3241.0,2559.0,2899.0,2.5,9.56,-1.51,0.03,0.05,-0.08,a
4095.0,3057.0,3207.0,4095.0,3085.0,3312.0,2651.0,2963.0,2.5,9.25,-1.5,-0.04,-0.01,0.02,a
4095.0,3039.0,3182.0,4095.0,3085.0,3295.0,2639.0,2943.0,2.49,9.4,-1.53,0.14,0.02,-0.06,a
4095.0,2982.0,3159.0,4095.0,3071.0,3259.0,2596.0,2896.0,2.25,9.25,-1.64,-0.04,0.02,0.02,a
4095.0,3039.0,3216.0,4095.0,3096.0,3317.0,2643.0,2953.0,2.43,9.32,-1.73,0.17,-0.16,0.27,a
4095.0,3027.0,3207.0,4095.0,3083.0,3321.0,2644.0,2953.0,2.49,9.5,-1.81,-0.19,0.06,-0.04,a
4095.0,3023.0,3213.0,4095.0,3069.0,3325.0,2653.0,2959.0,2.54,9.32,-1.58,-0.09,-0.09,0.11,a
4095.0,3095.0,3269.0,4095.0,3057.0,3360.0,2703.0,2993.0,2.86,9.48,-1.63,-0.14,0.31,-0.29,a
4095.0,3054.0,3237.0,4095.0,3058.0,3312.0,2652.0,2954.0,2.5,9.59,-1.4,0.0,0.04,-0.07,a
4095.0,3008.0,3136.0,4095.0,3085.0,3264.0,2590.0,2901.0,2.75,9.52,-1.61,-0.14,0.11,-0.08,a
4095.0,2947.0,3139.0,4095.0,3111.0,3226.0,2546.0,2864.0,2.43,9.32,-1.51,-0.04,0.06,0.01,a
4095.0,3002.0,3107.0,4095.0,3175.0,3286.0,2642.0,2951.0,2.43,9.2,-1.51,-0.21,-0.03,0.17,a
4095.0,3002.0,2970.0,4095.0,3223.0,3333.0,2707.0,3030.0,2.18,9.37,-1.34,0.09,-0.02,0.16,a
3787.0,3003.0,357.0,4095.0,3262.0,3378.0,2780.0,3184.0,2.99,9.51,-1.56,-0.35,-0.21,-0.15,a
3321.0,3007.0,3184.0,4095.0,3305.0,3465.0,2896.0,3370.0,2.21,9.26,-0.88,0.1,-0.08,0.01,a
3355.0,3008.0,3191.0,4095.0,3261.0,3457.0,2855.0,3254.0,2.71,9.48,-1.81,-0.15,0.07,-0.06,a
3699.0,3034.0,221.0,4095.0,3152.0,3391.0,2749.0,3135.0,2.74,8.62,-1.05,-0.15,-0.05,-0.05,a
4009.0,3023.0,3095.0,4095.0,3090.0,3344.0,2689.0,3042.0,2.61,9.54,-1.27,-0.01,0.09,-0.14,a
4095.0,3024.0,1920.0,4095.0,3039.0,3319.0,2658.0,2995.0,2.54,9.67,-1.04,0.05,0.22,-0.31,a
4095.0,3022.0,2387.0,4095.0,3045.0,3318.0,2653.0,2977.0,2.24,9.56,-1.3,0.02,0.02,-0.06,a
4095.0,3021.0,2940.0,4095.0,3045.0,3301.0,2631.0,2960.0,2.41,9.32,-1.46,-0.03,0.09,-0.1,a
4095.0,3019.0,3211.0,4095.0,3056.0,3294.0,2624.0,2947.0,2.31,9.37,-1.1,0.01,0.0,0.01,a
4095.0,3013.0,3214.0,4095.0,3060.0,3295.0,2602.0,2928.0,2.56,9.42,-1.41,-0.03,0.03,0.01,a
4095.0,2994.0,3195.0,4095.0,3070.0,3291.0,2583.0,2919.0,2.09,9.36,-1.25,-0.03,0.08,0.01,a
4095.0,3007.0,3197.0,4095.0,3088.0,3309.0,2598.0,2939.0,2.27,9.42,-1.28,-0.01,0.0,0.03,a
4095.0,3018.0,3200.0,4095.0,3088.0,3318.0,2611.0,2961.0,2.42,9.38,-1.29,0.0,0.06,-0.07,a
4095.0,3018.0,3214.0,4095.0,3093.0,3327.0,2633.0,2990.0,2.13,9.23,-1.31,0.02,-0.09,0.14,a
4095.0,3023.0,3205.0,4095.0,3071.0,3335.0,2654.0,3008.0,2.81,9.37,-1.38,-0.07,-0.03,-0.05,a
4095.0,3022.0,3059.0,4095.0,3019.0,3341.0,2671.0,3031.0,1.98,9.2,-1.21,0.1,0.08,-0.06,a
4095.0,3013.0,1973.0,4095.0,2980.0,3353.0,2701.0,3090.0,2.63,9.76,-1.29,-0.06,-0.01,0.03,a
4095.0,3024.0,410.0,4095.0,2974.0,3362.0,2705.0,3103.0,2.3,9.19,-1.34,0.04,0.07,-0.1,a
4095.0,3023.0,895.0,4095.0,2995.0,3353.0,2708.0,3103.0,2.35,9.31,-1.48,-0.09,-0.07,0.08,a
4095.0,3025.0,332.0,4095.0,3007.0,3360.0,2718.0,3107.0,2.52,9.38,-1.3,0.0,-0.11,0.03,a
4095.0,3024.0,462.0,4095.0,3009.0,3363.0,2721.0,3112.0,2.14,9.35,-1.36,-0.01,-0.04,0.07,a
4095.0,3031.0,248.0,4095.0,3021.0,3369.0,2733.0,3106.0,2.73,9.48,-1.38,-0.05,-0.16,0.12,a
4095.0,3029.0,149.0,4095.0,3026.0,3414.0,2800.0,3127.0,2.66,9.42,-1.32,0.03,0.18,-0.11,a
4095.0,3037.0,140.0,4095.0,3021.0,3441.0,2833.0,3152.0,2.43,9.52,-1.65,0.04,0.01,0.04,a
4095.0,3039.0,126.0,4095.0,3027.0,3472.0,2882.0,3152.0,2.59,9.2,-1.4,-0.04,-0.04,-0.06,a
4095.0,3043.0,3207.0,4095.0,3035.0,3502.0,2931.0,3169.0,2.42,9.31,-1.51,0.02,0.13,-0.08,a
4095.0,3036.0,3030.0,4095.0,3037.0,3508.0,2931.0,3137.0,2.59,9.35,-1.4,0.04,0.03,-0.08,a
4095.0,3037.0,3201.0,4095.0,3043.0,3509.0,2916.0,3098.0,2.49,9.63,-1.43,0.04,0.06,-0.03,a
4095.0,3026.0,2559.0,4095.0,3040.0,3497.0,2894.0,3059.0,2.51,9.5,-1.64,-0.04,-0.06,0.01,a
4095.0,3042.0,3179.0,4095.0,3042.0,3474.0,2843.0,3023.0,2.53,9.23,-1.55,-0.17,0.28,-0.16,a
4095.0,3035.0,3207.0,4095.0,3042.0,3472.0,2806.0,3031.0,2.1,9.37,-1.5,-0.16,0.33,-0.03,a
4095.0,3012.0,3195.0,4095.0,3031.0,3449.0,2758.0,3027.0,2.48,9.62,-1.18,-0.1,0.02,0.08,a
4095.0,3010.0,3196.0,4095.0,3024.0,3440.0,2729.0,3007.0,2.1,9.35,-1.33,-0.05,0.12,-0.11,a
4095.0,3010.0,3187.0,4095.0,3019.0,3424.0,2709.0,2994.0,2.51,9.38,-1.32,0.0,-0.1,0.06,a
4095.0,3021.0,3195.0,4095.0,3006.0,3399.0,2683.0,2979.0,2.3,9.32,-1.3,-0.02,-0.07,0.05,a
4095.0,3010.0,3194.0,4095.0,3005.0,3379.0,2672.0,2983.0,2.63,9.47,-1.4,-0.09,-0.07,0.04,a
4095.0,3024.0,3198.0,4095.0,3005.0,3361.0,2670.0,2985.0,2.57,9.08,-1.17,-0.11,0.01,-0.01,a
4095.0,3039.0,3216.0,4095.0,3010.0,3344.0,2669.0,2992.0,2.33,9.63,-1.23,-0.01,-0.01,0.08,a
4095.0,3083.0,3264.0,4095.0,3039.0,3357.0,2675.0,3003.0,2.55,9.32,-1.22,-0.01,0.0,0.04,a
4095.0,3053.0,3226.0,4095.0,3101.0,3376.0,2695.0,3008.0,2.5,9.19,-1.31,-0.04,0.03,0.11,a
1105.0,3020.0,3196.0,4095.0,3179.0,3392.0,2711.0,3004.0,2.49,9.23,-1.41,-0.13,-0.07,0.15,a
1183.0,3018.0,3200.0,4095.0,3227.0,3408.0,2735.0,3015.0,2.91,9.52,-1.55,-0.01,-0.21,0.15,a
1183.0,3019.0,3205.0,4095.0,3264.0,3436.0,2771.0,3062.0,2.72,9.62,-1.33,-0.08,-0.11,-0.03,a
1184.0,3014.0,3200.0,4095.0,3283.0,3451.0,2800.0,3120.0,2.71,9.35,-1.34,-0.01,-0.05,-0.02,a
1168.0,3037.0,3210.0,4095.0,3327.0,3455.0,2819.0,3200.0,2.8,9.58,-1.36,-0.4,0.12,-0.29,a
1136.0,2987.0,3152.0,4095.0,3310.0,3395.0,2762.0,3181.0,2.19,9.55,-0.8,-0.03,0.22,-0.03,a
2499.0,3047.0,3211.0,4095.0,3285.0,3442.0,2816.0,3255.0,3.0,9.55,-1.18,-0.3,0.13,-0.03,a
3227.0,3013.0,3183.0,4095.0,3301.0,3409.0,2773.0,3245.0,2.96,9.03,-0.65,-0.1,-0.0,-0.02,a
3357.0,3038.0,3202.0,4095.0,3277.0,3422.0,2787.0,3250.0,2.56,9.2,-0.69,-0.13,0.13,-0.05,a
3376.0,2934.0,3104.0,4095.0,3273.0,3322.0,2687.0,3164.0,2.99,9.68,-1.01,0.02,-0.09,0.03,a
3387.0,3028.0,3193.0,4095.0,3281.0,3414.0,2783.0,3296.0,2.17,8.91,-0.7,-0.12,-0.0,-0.09,a
3426.0,3035.0,3200.0,4095.0,3265.0,3412.0,2800.0,3425.0,2.75,9.52,-0.79,0.11,0.0,-0.05,a
3425.0,3081.0,3222.0,4095.0,3254.0,3444.0,2864.0,3539.0,2.36,9.16,-0.96,-0.01,0.0,0.03,a
3403.0,3067.0,3219.0,4095.0,3282.0,3460.0,2887.0,3574.0,2.49,9.54,-0.87,0.01,0.15,-0.09,a
3377.0,3058.0,3215.0,4095.0,3291.0,3455.0,2889.0,3567.0,2.38,9.28,-0.75,-0.01,-0.02,0.06,a
3373.0,3057.0,3206.0,4095.0,3297.0,3461.0,2896.0,3565.0,2.66,9.39,-1.06,-0.11,-0.05,0.01,a
3344.0,3059.0,3213.0,4095.0,3306.0,3455.0,2883.0,3554.0,2.57,9.28,-0.91,-0.09,0.03,0.04,a
3221.0,3058.0,3201.0,4095.0,3348.0,3423.0,2893.0,3536.0,2.51,9.28,-0.71,-0.31,0.1,-0.0,a
2800.0,3041.0,3190.0,4095.0,3358.0,3389.0,2898.0,3535.0,2.78,9.58,-0.94,0.07,-0.09,0.05,a
2847.0,3034.0,3184.0,4095.0,3349.0,3405.0,2911.0,3579.0,2.78,9.06,-0.73,-0.32,0.08,-0.02,a
2877.0,3031.0,3187.0,4095.0,3326.0,3403.0,2905.0,3573.0,2.77,9.55,-0.51,-0.06,-0.0,0.06,a
2909.0,3024.0,3185.0,4095.0,3294.0,3386.0,2903.0,3599.0,2.73,9.47,-0.63,-0.27,0.22,-0.03,a
2940.0,3009.0,3184.0,4095.0,3283.0,3394.0,2896.0,3615.0,3.03,9.22,-0.26,0.05,-0.08,0.1,a
2959.0,3007.0,3174.0,4095.0,3295.0,3402.0,2887.0,3555.0,2.51,9.37,-0.59,-0.18,0.13,0.04,a
2983.0,3004.0,3182.0,4095.0,3312.0,3398.0,2877.0,3555.0,3.23,9.3,-0.08,-0.11,-0.04,0.09,a
3701.0,3089.0,3249.0,4095.0,3308.0,3469.0,2942.0,3583.0,2.22,9.1,-0.4,-0.04,0.36,-0.24,a
3855.0,3031.0,3212.0,4095.0,3313.0,3440.0,2877.0,3457.0,3.06,9.75,-0.36,0.12,-0.3,0.18,a
3913.0,3038.0,3215.0,4095.0,3249.0,3404.0,2832.0,3381.0,2.94,9.07,-0.56,-0.09,-0.09,-0.11,a
3861.0,3011.0,3192.0,4095.0,3248.0,3392.0,2817.0,3375.0,2.85,9.39,-0.38,0.02,-0.02,0.04,a
3857.0,3022.0,3185.0,4095.0,3219.0,3401.0,2839.0,3434.0,2.64,9.21,-0.37,0.04,-0.09,-0.01,a
3983.0,3068.0,3234.0,4095.0,3114.0,3434.0,2877.0,3472.0,3.25,10.0,-0.66,-0.2,0.33,-0.22,a
3952.0,3026.0,3184.0,4095.0,3027.0,3377.0,2840.0,3435.0,1.79,8.71,-0.2,-0.07,0.2,-0.13,a
3936.0,3049.0,3214.0,4095.0,3019.0,3409.0,2864.0,3431.0,3.15,9.69,-0.5,-0.05,-0.08,-0.01,a
3953.0,3036.0,3200.0,4095.0,3035.0,3402.0,2850.0,3326.0,2.23,9.21,0.01,0.05,-0.03,0.06,a
3989.0,3029.0,3205.0,4095.0,3056.0,3402.0,2830.0,3278.0,2.66,9.51,-0.35,-0.12,0.0,-0.0,a
4016.0,3041.0,3213.0,4095.0,3061.0,3408.0,2832.0,3247.0,2.59,9.18,-0.18,-0.0,0.02,-0.02,a
4077.0,3056.0,3243.0,4095.0,3066.0,3418.0,2823.0,3222.0,2.76,9.55,-0.38,-0.02,-0.01,0.04,a
4095.0,3089.0,3250.0,4095.0,3071.0,3423.0,2818.0,3216.0,2.95,9.07,-0.13,-0.01,-0.09,0.02,a
4095.0,3081.0,3255.0,4095.0,3071.0,3405.0,2809.0,3198.0,2.76,9.62,-0.47,0.07,0.12,-0.1,a
4095.0,3061.0,3248.0,4095.0,3083.0,3402.0,2800.0,3187.0,2.59,9.13,-0.15,0.03,-0.13,0.06,a
4095.0,3038.0,3219.0,4095.0,3057.0,3373.0,2772.0,3149.0,2.87,9.68,-0.61,0.11,0.06,-0.07,a
4095.0,3025.0,3216.0,4095.0,3034.0,3358.0,2767.0,3129.0,2.58,9.05,-0.47,0.07,-0.08,-0.02,a
4095.0,3042.0,3232.0,4095.0,2992.0,3373.0,2775.0,3124.0,2.72,9.5,-0.57,0.18,0.01,-0.1,a
4095.0,3182.0,3360.0,4095.0,2960.0,3491.0,2895.0,3207.0,2.35,9.46,-0.54,0.18,0.12,-0.06,a
4095.0,3086.0,3267.0,4095.0,2945.0,3402.0,2781.0,3066.0,3.01,9.48,-1.05,0.16,-0.13,-0.0,a
4095.0,3067.0,3248.0,4095.0,2943.0,3387.0,2756.0,3038.0,2.75,9.08,-0.84,-0.07,0.15,-0.11,a
4095.0,3053.0,3249.0,4095.0,2947.0,3401.0,2759.0,3056.0,2.34,9.39,-0.85,0.07,-0.05,0.09,a
4095.0,3046.0,3234.0,4095.0,2973.0,3408.0,2771.0,3071.0,2.51,9.54,-0.82,-0.04,0.07,-0.08,a
4095.0,3039.0,3232.0,4095.0,2989.0,3410.0,2774.0,3098.0,2.48,9.22,-0.64,-0.03,-0.04,0.07,a
4095.0,3039.0,3238.0,4095.0,2993.0,3410.0,2778.0,3082.0,3.22,9.58,-1.18,-0.14,0.14,-0.19,a
4095.0,3024.0,3236.0,4095.0,3003.0,3407.0,2762.0,3062.0,2.26,9.04,-0.65,-0.16,0.12,0.0,a
4095.0,3019.0,3228.0,4095.0,3013.0,3408.0,2733.0,3050.0,2.79,9.56,-0.68,-0.17,0.16,-0.16,a
4095.0,2986.0,3201.0,4095.0,2985.0,3371.0,2688.0,3015.0,1.9,9.27,-0.38,-0.11,0.12,-0.03,a
4095.0,2993.0,3201.0,4095.0,3002.0,3381.0,2688.0,3022.0,2.48,9.42,-0.47,-0.08,0.02,0.0,a
4095.0,2991.0,3202.0,4095.0,3011.0,3382.0,2701.0,3022.0,2.43,9.4,-0.55,-0.01,0.1,-0.05,a
4095.0,2992.0,3195.0,4095.0,3013.0,3379.0,2697.0,3031.0,2.53,9.33,-0.5,-0.09,-0.07,-0.01,a
4095.0,2987.0,3209.0,4095.0,3019.0,3376.0,2697.0,3027.0,2.69,9.3,-0.28,-0.15,0.15,-0.03,a
4095.0,3033.0,3227.0,4095.0,3042.0,3395.0,2698.0,3039.0,2.27,9.4,-0.36,-0.18,0.22,-0.08,a
4095.0,2949.0,3165.0,4095.0,3024.0,3339.0,2646.0,2995.0,2.34,9.09,-0.12,-0.07,-0.02,0.0,a
4095.0,2894.0,3097.0,4095.0,3025.0,3283.0,2598.0,2953.0,2.52,10.07,-0.63,0.14,0.03,0.04,a
4095.0,2878.0,3083.0,4095.0,3036.0,3269.0,2586.0,2944.0,2.51,9.11,-0.33,-0.06,-0.13,0.04,a
4095.0,2880.0,3084.0,4095.0,3038.0,3269.0,2594.0,2955.0,2.7,9.46,-0.48,0.04,-0.06,0.04,a
4095.0,2885.0,3083.0,4095.0,3043.0,3263.0,2601.0,2967.0,2.7,9.41,-0.33,-0.11,-0.11,-0.01,a
4095.0,2915.0,3105.0,4095.0,3054.0,3297.0,2627.0,3017.0,2.66,9.69,-0.35,0.02,-0.01,0.05,a
4095.0,2914.0,3107.0,4095.0,3056.0,3307.0,2629.0,3022.0,2.51,9.17,-0.46,-0.08,-0.02,0.02,a
4095.0,2944.0,3130.0,4095.0,3055.0,3317.0,2653.0,3032.0,2.88,9.65,-0.52,0.04,-0.11,0.04,a
4095.0,2932.0,3120.0,4095.0,3051.0,3312.0,2641.0,3025.0,2.59,9.27,-0.44,-0.09,0.01,0.04,a
4095.0,2959.0,3138.0,4048.0,3042.0,3335.0,2667.0,3044.0,2.9,9.49,-0.51,0.05,-0.16,0.11,a
4095.0,2928.0,3110.0,4034.0,3035.0,3310.0,2640.0,3024.0,2.65,9.31,-0.42,0.04,0.04,-0.02,a
4095.0,2925.0,3107.0,4016.0,3031.0,3306.0,2640.0,3024.0,2.76,9.34,-0.56,0.04,-0.12,0.07,a
4095.0,2909.0,3088.0,3967.0,3013.0,3281.0,2630.0,3008.0,2.6,9.0,-0.53,0.05,-0.11,0.06,a
4055.0,2900.0,3081.0,3975.0,3018.0,3286.0,2641.0,3034.0,3.02,9.49,-0.72,0.06,-0.17,0.09,a
3983.0,2913.0,3098.0,4010.0,3050.0,3317.0,2686.0,3121.0,2.62,9.5,-0.81,0.03,0.0,0.07,a
3984.0,2921.0,3090.0,4010.0,3056.0,3326.0,2688.0,3134.0,3.01,9.0,-0.78,-0.01,-0.04,-0.02,a
3869.0,2912.0,3081.0,3862.0,2958.0,3312.0,2675.0,3136.0,3.16,9.4,-0.79,0.01,0.06,-0.12,a
3830.0,2899.0,3070.0,3806.0,2928.0,3305.0,2670.0,3151.0,2.45,8.95,-0.84,-0.14,0.23,-0.16,a
3846.0,2907.0,3071.0,3985.0,2946.0,3301.0,2665.0,3125.0,2.93,10.01,-0.68,-0.08,0.05,-0.06,a
3859.0,2911.0,3079.0,4095.0,2950.0,3312.0,2672.0,3119.0,1.95,8.6,-0.41,-0.1,0.02,-0.02,a
3874.0,2903.0,3071.0,4095.0,2959.0,3312.0,2679.0,3139.0,3.05,9.64,-0.8,-0.0,-0.02,0.04,a
3863.0,2915.0,3083.0,4095.0,2975.0,3312.0,2708.0,3173.0,2.56,8.65,-0.6,0.05,-0.1,0.08,a
3788.0,2919.0,3085.0,4095.0,2987.0,3336.0,2754.0,3243.0,2.88,9.84,-0.84,-0.11,0.01,0.01,a
3760.0,2912.0,3088.0,4095.0,3012.0,3351.0,2770.0,3209.0,2.52,8.87,-0.28,-0.06,-0.07,0.14,a
3729.0,2911.0,3089.0,4095.0,3022.0,3363.0,2768.0,3198.0,2.73,9.37,-0.69,-0.12,0.08,0.1,a
3632.0,2911.0,3088.0,4095.0,3024.0,3379.0,2780.0,3197.0,3.17,9.0,-0.42,0.14,-0.31,0.02,a
3581.0,2909.0,3087.0,4095.0,3027.0,3377.0,2799.0,3202.0,2.93,9.49,-0.66,0.01,0.02,-0.04,a
3429.0,2911.0,3086.0,4095.0,3035.0,3431.0,2842.0,3216.0,3.32,8.95,-0.69,-0.08,0.05,-0.15,a
3442.0,2917.0,3099.0,4095.0,3082.0,3475.0,2801.0,3099.0,2.28,9.68,-0.69,-0.24,0.15,-0.02,a
3890.0,2929.0,3103.0,4095.0,3083.0,3504.0,2775.0,2987.0,3.19,9.3,-0.65,0.09,-0.03,-0.02,a
4095.0,2917.0,3110.0,4095.0,3068.0,3545.0,2813.0,2974.0,2.83,9.36,-0.84,-0.01,0.04,0.05,a
4095.0,2921.0,3101.0,4095.0,3067.0,3581.0,2851.0,3007.0,3.29,9.43,-0.69,-0.01,0.05,-0.02,a
4095.0,2928.0,3104.0,4095.0,3071.0,3598.0,2858.0,3022.0,2.57,9.43,-0.65,-0.07,0.06,0.04,a
4095.0,2928.0,3103.0,4095.0,3071.0,3579.0,2838.0,3019.0,2.96,9.26,-0.76,-0.03,-0.06,0.06,a
4095.0,2928.0,3098.0,4095.0,3041.0,3488.0,2739.0,2969.0,3.0,9.34,-0.73,0.08,-0.2,0.04,a
4095.0,2928.0,3104.0,4095.0,3014.0,3421.0,2650.0,2934.0,3.05,9.14,-0.55,-0.16,-0.04,0.01,a
4095.0,2925.0,3104.0,4095.0,3013.0,3376.0,2624.0,2917.0,2.85,9.39,-0.8,0.09,0.02,-0.01,a
4095.0,2923.0,3104.0,4095.0,3027.0,3371.0,2624.0,2906.0,2.92,8.99,-0.48,-0.0,-0.09,0.05,a
4095.0,2930.0,3103.0,4095.0,3088.0,3391.0,2661.0,2870.0,3.17,9.45,-1.16,-0.12,0.07,-0.04,a
1135.0,2928.0,3103.0,4095.0,3179.0,3399.0,2667.0,2864.0,2.76,9.04,-0.48,-0.07,0.04,0.06,a
1495.0,2928.0,3104.0,4095.0,3216.0,3388.0,2651.0,2857.0,2.76,9.87,-1.17,-0.03,0.01,0.01,a
1525.0,2933.0,3110.0,4095.0,3225.0,3376.0,2649.0,2863.0,3.47,8.93,-0.66,0.08,-0.09,0.06,a
1726.0,2931.0,3098.0,4095.0,3249.0,3362.0,2640.0,2879.0,3.09,9.42,-1.0,-0.27,0.11,-0.04,a
2031.0,2912.0,3095.0,4095.0,3289.0,3366.0,2640.0,2885.0,3.06,8.81,-0.34,-0.22,0.05,0.0,a
2451.0,2930.0,3120.0,4095.0,3360.0,3403.0,2667.0,2914.0,3.24,9.73,-0.7,-0.39,0.18,-0.08,a
2765.0,2927.0,3114.0,4095.0,3415.0,3408.0,2672.0,2925.0,2.51,9.22,-0.04,-0.21,0.05,-0.1,a
2779.0,2918.0,3100.0,4095.0,3424.0,3407.0,2672.0,2929.0,2.83,9.62,-0.15,0.04,-0.05,0.09,a
2919.0,2928.0,3114.0,4095.0,3367.0,3379.0,2659.0,2921.0,3.2,9.31,0.11,0.05,0.05,0.06,a
3376.0,2941.0,3107.0,4095.0,3297.0,3398.0,2665.0,2897.0,3.11,9.33,-0.39,-0.03,0.03,0.11,a
3728.0,2943.0,3118.0,4095.0,3264.0,3406.0,2657.0,2889.0,3.04,8.74,0.09,-0.03,0.02,0.06,a
4095.0,2938.0,3120.0,4095.0,3199.0,3391.0,2628.0,2881.0,2.86,9.87,-0.19,-0.13,0.19,0.09,a
4095.0,2944.0,3119.0,4095.0,3147.0,3389.0,2622.0,2882.0,3.79,9.1,-0.18,0.2,-0.17,0.15,a
3259.0,2950.0,3125.0,4095.0,3135.0,3381.0,2608.0,2889.0,3.15,8.56,-0.39,-0.13,0.09,-0.12,a
2731.0,2974.0,3152.0,4095.0,3127.0,3391.0,2615.0,2899.0,3.53,9.83,-0.19,0.18,-0.17,0.07,a
2502.0,2970.0,3139.0,4095.0,3088.0,3361.0,2601.0,2895.0,3.17,9.05,0.11,-0.08,0.08,-0.19,a
2464.0,2960.0,3133.0,4095.0,3087.0,3362.0,2585.0,2889.0,3.24,9.6,-0.45,-0.14,0.19,-0.01,a
2406.0,2963.0,3145.0,4095.0,3111.0,3379.0,2559.0,2893.0,3.08,8.36,0.03,-0.23,0.3,-0.05,a
2307.0,2967.0,3142.0,4095.0,3109.0,3383.0,2559.0,2898.0,3.21,9.94,-0.15,-0.16,0.47,-0.05,a
2352.0,2827.0,3011.0,4095.0,3130.0,3268.0,2423.0,2759.0,2.74,8.97,0.46,-0.05,0.03,0.01,a
2398.0,2800.0,2982.0,4095.0,3132.0,3241.0,2407.0,2747.0,3.14,9.25,-0.14,0.35,-0.43,0.16,a
2154.0,2781.0,2960.0,4095.0,3118.0,3216.0,2441.0,2752.0,3.6,8.94,-0.1,0.31,-0.56,0.2,a
1193.0,2791.0,2960.0,4095.0,3114.0,3248.0,2514.0,2832.0,3.34,9.43,-0.64,-0.05,-0.03,-0.12,a
1167.0,2757.0,2933.0,4095.0,3085.0,3237.0,2605.0,2978.0,3.56,9.49,-0.23,0.12,-0.19,0.03,a
1168.0,2777.0,2950.0,4095.0,3090.0,3267.0,2676.0,3054.0,3.02,8.77,-0.53,0.07,-0.13,-0.09,a
1166.0,2771.0,2938.0,4095.0,3087.0,3278.0,2766.0,3168.0,3.56,9.42,-0.64,-0.02,-0.04,-0.11,a
1161.0,2757.0,2944.0,4095.0,3097.0,3266.0,2800.0,3199.0,2.93,8.71,-0.21,0.04,0.01,-0.06,a
1173.0,2752.0,2944.0,4095.0,3119.0,3253.0,2829.0,3227.0,3.15,9.37,-1.0,-0.06,0.04,-0.05,a
1182.0,2759.0,2992.0,4095.0,3132.0,3313.0,2965.0,3361.0,3.3,9.31,-0.39,0.15,0.06,-0.13,a
1181.0,2867.0,3119.0,4095.0,3152.0,3458.0,3118.0,3504.0,2.82,9.48,-1.24,-0.12,0.18,-0.1,a
1194.0,2846.0,3085.0,4095.0,3152.0,3473.0,3120.0,3489.0,3.42,9.38,-0.79,0.04,-0.08,-0.03,a
1194.0,2864.0,3086.0,4095.0,3168.0,3491.0,3141.0,3458.0,3.12,9.35,-0.88,-0.17,0.06,0.06,a
1196.0,2874.0,3095.0,4095.0,3175.0,3456.0,3054.0,3344.0,3.48,9.57,-0.6,-0.18,0.0,0.06,a
1200.0,2871.0,3098.0,4095.0,3170.0,3325.0,2853.0,3194.0,2.89,9.22,-0.38,-0.12,-0.06,0.02,a
1195.0,2853.0,3087.0,4095.0,3157.0,3281.0,2786.0,3056.0,3.21,9.3,-0.48,-0.08,-0.09,0.11,a
1186.0,2832.0,3087.0,4095.0,3134.0,3265.0,2764.0,2995.0,3.39,9.21,-0.49,-0.03,0.2,0.03,a
1185.0,2755.0,2999.0,4095.0,3106.0,3190.0,2657.0,2877.0,3.18,9.18,-0.72,-0.11,0.06,0.03,a
1178.0,2749.0,2990.0,4095.0,3087.0,3163.0,2590.0,2800.0,3.4,9.36,-0.47,-0.05,0.02,0.01,a
1173.0,2745.0,2993.0,4095.0,3069.0,3138.0,2524.0,2773.0,3.36,9.25,-0.17,-0.11,0.08,-0.02,a
1171.0,2752.0,2992.0,4095.0,3041.0,3127.0,2510.0,2758.0,3.49,9.35,-0.31,0.06,-0.02,-0.06,a
1179.0,2767.0,3024.0,4095.0,2995.0,3147.0,2515.0,2771.0,3.35,9.34,-0.4,0.16,0.17,-0.01,a
1169.0,2826.0,3069.0,4095.0,2973.0,3209.0,2559.0,2822.0,3.12,9.03,-0.62,0.05,0.08,-0.04,a
1173.0,2883.0,3143.0,4095.0,2967.0,3271.0,2629.0,2874.0,3.41,9.55,-0.72,0.25,0.05,0.05,a
1182.0,2877.0,3130.0,4095.0,2963.0,3265.0,2593.0,2854.0,3.22,9.1,-0.63,-0.06,0.16,-0.07,a
1182.0,2867.0,3118.0,4095.0,2965.0,3266.0,2581.0,2855.0,3.11,9.36,-0.87,0.05,-0.01,-0.01,a
1178.0,2891.0,3147.0,4095.0,2991.0,3291.0,2606.0,2883.0,3.49,9.12,-0.6,-0.07,0.01,-0.05,a
1168.0,2886.0,3135.0,4095.0,2986.0,3291.0,2591.0,2873.0,3.02,9.33,-0.54,0.08,0.15,-0.04,a
1172.0,2890.0,3135.0,4095.0,2981.0,3285.0,2587.0,2871.0,3.36,9.24,-0.71,-0.02,0.11,-0.03,a
1178.0,2885.0,3136.0,4095.0,2973.0,3283.0,2587.0,2880.0,3.12,8.83,-0.57,-0.01,0.19,-0.08,a
1168.0,2887.0,3130.0,4095.0,2976.0,3287.0,2559.0,2896.0,3.25,9.55,-0.92,-0.05,0.1,0.01,a
1174.0,2893.0,3130.0,4095.0,2986.0,3296.0,2578.0,2903.0,3.01,9.08,-0.4,0.1,-0.01,0.05,a
1168.0,2886.0,3137.0,4095.0,2989.0,3303.0,2583.0,2918.0,3.06,9.0,-0.59,-0.09,0.1,-0.04,a
1168.0,2910.0,3137.0,4095.0,2992.0,3315.0,2594.0,2928.0,3.53,9.32,-0.71,0.06,0.02,0.0,a
1167.0,2896.0,3138.0,4095.0,2992.0,3316.0,2603.0,2938.0,3.07,9.2,-0.64,-0.03,0.06,-0.08,a
3817.0,2946.0,2452.0,2708.0,4095.0,4095.0,4095.0,4095.0,0.57,9.75,0.65,-0.05,0.0,0.02,b
3819.0,2949.0,2457.0,2711.0,4095.0,4095.0,4095.0,4095.0,0.32,9.68,0.79,-0.01,-0.05,-0.0,b
3841.0,2945.0,2454.0,2707.0,4095.0,4095.0,4095.0,4095.0,0.64,9.51,0.75,-0.03,0.01,-0.01,b
3838.0,2947.0,2454.0,2707.0,4095.0,4095.0,4095.0,4095.0,0.37,9.55,0.61,-0.01,-0.0,-0.01,b
3783.0,2945.0,2457.0,2710.0,4095.0,4095.0,4095.0,4095.0,0.62,9.55,0.64,-0.11,0.03,-0.08,b
2493.0,2939.0,2443.0,2714.0,4095.0,4095.0,4095.0,4095.0,0.56,9.65,0.81,-0.15,-0.12,0.02,b
2580.0,2934.0,2438.0,2717.0,4095.0,4095.0,4095.0,4095.0,0.19,9.64,0.88,0.02,0.1,-0.06,b
2669.0,2930.0,2459.0,2714.0,4095.0,4095.0,4095.0,4095.0,-0.27,9.59,0.91,0.12,0.21,-0.04,b
3071.0,2930.0,2465.0,2718.0,4095.0,4095.0,4095.0,4095.0,0.36,9.65,0.7,-0.0,0.01,-0.02,b
3109.0,2938.0,2480.0,2724.0,4095.0,4095.0,4095.0,4095.0,0.25,9.6,0.26,0.04,-0.09,0.05,b
3439.0,2931.0,2462.0,2731.0,4095.0,4095.0,4095.0,4095.0,0.47,9.44,0.07,0.11,0.03,0.01,b
4095.0,2939.0,2480.0,2732.0,4095.0,4095.0,4095.0,4095.0,0.34,9.67,0.47,-0.09,-0.04,0.03,b
4095.0,2938.0,2481.0,2739.0,4095.0,4095.0,4095.0,4095.0,0.01,9.69,0.97,-0.12,-0.09,0.1,b
4053.0,2943.0,2480.0,2742.0,4095.0,4095.0,4095.0,4095.0,0.76,9.67,0.96,-0.05,-0.08,0.15,b
4062.0,2943.0,2491.0,2749.0,4095.0,4095.0,4095.0,4095.0,0.9,9.97,1.0,0.2,-0.06,0.06,b
4077.0,2949.0,2495.0,2746.0,4095.0,4095.0,4095.0,4095.0,-0.04,9.43,-0.15,-0.05,-0.05,0.02,b
3737.0,2942.0,2511.0,2739.0,4095.0,4095.0,4095.0,4095.0,0.37,9.73,-0.25,-0.04,-0.13,0.12,b
3783.0,2944.0,2502.0,2742.0,4095.0,4095.0,4095.0,4095.0,0.32,9.94,-0.08,0.26,-0.09,0.13,b
3674.0,2946.0,2503.0,2736.0,4095.0,4095.0,4095.0,4095.0,1.09,9.28,0.8,-0.11,0.11,-0.15,b
3734.0,2947.0,2510.0,2726.0,4095.0,4095.0,4095.0,4095.0,0.43,9.86,1.02,0.25,0.05,0.01,b
3779.0,2947.0,2512.0,2727.0,4095.0,4095.0,4095.0,4095.0,0.64,9.29,-0.07,-0.13,-0.1,0.04,b
3770.0,2944.0,2522.0,2694.0,4095.0,4095.0,4095.0,4095.0,1.28,9.97,0.26,0.03,0.11,-0.42,b
3539.0,2947.0,2534.0,2647.0,4095.0,4095.0,4095.0,4095.0,0.13,9.36,0.38,0.15,-0.11,-0.23,b
3450.0,2949.0,2599.0,2559.0,4095.0,4095.0,4095.0,4095.0,0.04,9.7,0.05,0.03,0.34,-0.42,b
3573.0,2951.0,2625.0,2513.0,4095.0,4095.0,4095.0,4095.0,-0.54,9.99,-0.04,0.13,0.08,-0.25,b
3707.0,2960.0,2658.0,2509.0,3985.0,4023.0,4033.0,4095.0,-0.59,9.37,0.47,0.17,-0.32,0.01,b
3779.0,2981.0,2711.0,2500.0,3851.0,3890.0,3984.0,4095.0,-0.05,9.42,-0.07,-0.01,0.4,-0.2,b
3798.0,2990.0,2778.0,2513.0,3788.0,3793.0,3961.0,4095.0,0.23,10.21,0.2,0.17,-0.17,0.06,b
3799.0,2986.0,2783.0,2544.0,3893.0,3850.0,3983.0,4095.0,-0.16,9.44,-0.22,0.04,-0.18,0.01,b
3811.0,2981.0,2763.0,2559.0,3973.0,3887.0,4011.0,4095.0,-0.09,9.79,-0.2,-0.11,0.09,0.01,b
3770.0,2991.0,2526.0,2623.0,4095.0,4032.0,4065.0,4095.0,0.0,9.44,-0.27,-0.32,0.08,0.1,b
3779.0,2990.0,2470.0,2589.0,4095.0,4095.0,4095.0,4095.0,0.41,9.95,-0.16,-0.19,0.16,0.06,b
3819.0,3002.0,2459.0,2559.0,4095.0,4095.0,4095.0,4095.0,0.26,9.55,0.1,-0.19,0.13,-0.12,b
3883.0,2988.0,2448.0,2495.0,4095.0,4095.0,4095.0,4095.0,-0.31,9.67,0.43,-0.08,0.12,-0.04,b
4021.0,2982.0,2447.0,2462.0,4095.0,4095.0,4095.0,4095.0,0.09,9.67,0.49,-0.24,0.13,-0.16,b
4095.0,2992.0,2422.0,2447.0,4095.0,4095.0,4095.0,4095.0,-0.26,9.28,0.93,-0.12,-0.04,0.06,b
4095.0,2992.0,2419.0,2438.0,4095.0,4095.0,4095.0,4095.0,0.06,9.9,0.43,-0.12,0.19,-0.02,b
4095.0,2992.0,2424.0,2444.0,4095.0,4095.0,4095.0,4095.0,0.14,9.69,0.28,-0.0,-0.13,-0.02,b
4095.0,2995.0,2421.0,2432.0,4095.0,4095.0,4095.0,4095.0,-0.16,9.5,0.6,0.06,-0.14,0.06,b
4095.0,2997.0,2416.0,2423.0,4095.0,4095.0,4095.0,4095.0,-0.16,9.67,0.61,-0.12,0.04,-0.0,b
4095.0,3007.0,2416.0,2429.0,4095.0,4095.0,4095.0,4095.0,0.24,9.73,0.61,0.07,-0.22,0.1,b
4095.0,2995.0,2417.0,2435.0,4095.0,4095.0,4095.0,4095.0,0.28,9.7,0.18,0.05,-0.14,0.18,b
4095.0,2998.0,2413.0,2455.0,4095.0,4095.0,4095.0,4095.0,0.31,9.72,0.47,-0.15,-0.03,-0.05,b
3953.0,2999.0,2416.0,2544.0,4095.0,4095.0,4095.0,4095.0,0.24,9.39,0.34,-0.02,-0.22,0.04,b
3677.0,2994.0,2454.0,2579.0,4095.0,4095.0,4095.0,4095.0,0.29,10.12,1.05,-0.12,-0.19,0.16,b
3731.0,3006.0,2448.0,2479.0,4095.0,4095.0,4095.0,4095.0,-0.18,9.25,0.32,-0.33,0.45,-0.18,b
3832.0,2994.0,2495.0,2389.0,4095.0,4095.0,4095.0,4095.0,0.21,10.06,0.57,0.15,0.07,0.06,b
3904.0,3005.0,2513.0,2415.0,4095.0,4095.0,4095.0,4095.0,0.38,9.54,0.71,-0.12,-0.11,-0.08,b
3906.0,2998.0,2525.0,2426.0,4095.0,4095.0,4095.0,4095.0,0.57,9.94,0.61,-0.21,-0.04,-0.06,b
3899.0,2998.0,2559.0,2435.0,4095.0,4095.0,4095.0,4095.0,-0.04,9.64,0.83,0.02,0.07,-0.01,b
3885.0,2997.0,2613.0,2444.0,4095.0,4095.0,4095.0,4095.0,-0.0,9.56,0.5,-0.07,0.12,-0.04,b
3867.0,3003.0,2613.0,2458.0,4095.0,4095.0,4095.0,4095.0,0.45,9.74,0.58,-0.14,-0.11,-0.0,b
3887.0,3007.0,2611.0,2459.0,4095.0,4095.0,4095.0,4095.0,0.03,9.33,0.54,-0.18,0.08,-0.07,b
3874.0,2997.0,2610.0,2463.0,4095.0,4095.0,4095.0,4095.0,-0.07,9.77,1.02,-0.06,0.02,0.01,b
3863.0,2994.0,2607.0,2468.0,4095.0,4095.0,4095.0,4095.0,-0.15,9.28,0.99,0.01,-0.12,0.02,b
3824.0,2993.0,2604.0,2477.0,4095.0,4095.0,4095.0,4095.0,0.49,9.66,0.64,-0.08,-0.04,-0.1,b
3773.0,2998.0,2605.0,2480.0,4095.0,4095.0,4095.0,4095.0,0.34,9.6,0.84,0.05,-0.15,0.01,b
3782.0,2995.0,2595.0,2487.0,4095.0,4095.0,4095.0,4095.0,0.11,9.46,0.74,0.03,0.16,-0.06,b
3747.0,3003.0,2587.0,2480.0,4095.0,4095.0,4095.0,4095.0,0.49,9.98,0.99,-0.01,-0.26,0.02,b
3786.0,2995.0,2593.0,2461.0,4095.0,4095.0,4095.0,4095.0,0.44,9.9,0.99,-0.02,-0.04,0.01,b
3821.0,2997.0,2586.0,2435.0,4095.0,4095.0,4095.0,4095.0,0.14,9.78,0.58,-0.06,0.14,-0.05,b
3903.0,2996.0,2603.0,2416.0,4095.0,4095.0,4095.0,4095.0,-0.3,9.5,0.42,-0.05,0.13,-0.04,b
3907.0,2998.0,2603.0,2437.0,4095.0,4095.0,4095.0,4095.0,0.25,9.47,0.66,-0.15,0.05,-0.13,b
3901.0,3003.0,2609.0,2448.0,4095.0,4095.0,4095.0,4095.0,0.12,9.97,1.31,0.12,-0.17,0.01,b
3879.0,2992.0,2617.0,2446.0,4095.0,4095.0,4095.0,4095.0,-0.34,9.0,0.71,0.06,-0.02,-0.03,b
3789.0,2991.0,2619.0,2422.0,4095.0,4095.0,4095.0,4095.0,0.13,9.93,0.43,-0.12,0.14,-0.06,b
3714.0,2992.0,2626.0,2417.0,4095.0,4095.0,4095.0,4095.0,0.22,9.66,0.69,0.03,-0.2,0.05,b
3730.0,2992.0,2635.0,2419.0,4095.0,4095.0,4095.0,4095.0,0.06,9.08,0.48,-0.25,0.28,-0.22,b
3742.0,2982.0,2640.0,2407.0,4095.0,4095.0,4095.0,4095.0,-0.08,9.73,1.09,0.02,0.03,-0.05,b
3741.0,2991.0,2643.0,2432.0,4095.0,4095.0,4095.0,4095.0,-0.12,9.5,1.1,-0.12,-0.16,-0.02,b
3739.0,2987.0,2656.0,2471.0,4095.0,4095.0,4095.0,4095.0,0.04,9.74,0.81,-0.01,-0.12,0.01,b
3743.0,2983.0,2640.0,2481.0,4095.0,4095.0,4095.0,4095.0,-0.3,9.5,0.95,0.0,0.01,0.04,b
3889.0,2963.0,2593.0,2485.0,4095.0,4095.0,4095.0,4095.0,0.17,9.65,0.81,-0.21,0.01,-0.02,b
3937.0,2963.0,2549.0,2490.0,4095.0,4095.0,4095.0,4095.0,0.08,10.02,0.76,-0.06,0.11,0.03,b
3950.0,2960.0,2543.0,2498.0,4095.0,4095.0,4095.0,4095.0,-0.04,9.31,0.69,-0.0,-0.07,0.01,b
3947.0,2955.0,2527.0,2501.0,4095.0,4095.0,4095.0,4095.0,0.11,9.56,0.91,-0.21,0.12,-0.06,b
2654.0,2962.0,2501.0,2513.0,4095.0,4095.0,4095.0,4095.0,-0.01,9.84,1.38,-0.06,-0.22,0.08,b
2127.0,2966.0,2477.0,2512.0,4095.0,4095.0,4095.0,4095.0,-0.49,9.19,0.83,-0.13,0.13,-0.12,b
1853.0,2973.0,2415.0,2519.0,4095.0,4095.0,4095.0,4095.0,-0.07,9.86,0.96,-0.11,-0.0,-0.03,b
1059.0,2971.0,2411.0,2525.0,4095.0,4095.0,4095.0,4095.0,-0.07,9.58,1.06,0.08,-0.04,0.15,b
1046.0,2975.0,2416.0,2527.0,4095.0,4095.0,4095.0,4095.0,0.18,9.45,0.97,-0.11,0.08,-0.02,b
1058.0,2972.0,2406.0,2527.0,4095.0,4095.0,4095.0,4095.0,0.36,9.62,1.33,-0.08,-0.02,-0.03,b
1051.0,2975.0,2403.0,2530.0,4095.0,4095.0,4095.0,4095.0,-0.07,9.31,1.32,0.05,0.0,0.03,b
1055.0,2979.0,2398.0,2517.0,4095.0,4095.0,4095.0,4095.0,-0.08,9.56,0.88,-0.06,0.11,-0.06,b
1062.0,2962.0,2358.0,2529.0,4095.0,4095.0,4095.0,4095.0,0.04,9.47,1.14,-0.03,-0.05,0.01,b
1045.0,2966.0,2334.0,2525.0,4095.0,4095.0,4095.0,4095.0,0.18,9.55,0.99,0.05,0.14,-0.06,b
1043.0,2960.0,2341.0,2526.0,4095.0,4095.0,4095.0,4095.0,-0.27,9.73,1.07,-0.05,-0.1,-0.0,b
1067.0,2961.0,2339.0,2537.0,4095.0,4095.0,4095.0,4095.0,-0.17,9.81,1.07,0.11,-0.06,0.04,b
1113.0,2973.0,2268.0,2543.0,4095.0,4095.0,4095.0,4095.0,0.19,9.17,1.15,-0.1,-0.05,0.02,b
1078.0,2971.0,2249.0,2543.0,4095.0,4095.0,4095.0,4095.0,0.1,9.55,0.82,-0.05,0.22,-0.06,b
1071.0,2975.0,2274.0,2546.0,4095.0,4095.0,4095.0,4095.0,0.24,9.28,1.09,0.07,0.03,0.07,b
1262.0,2977.0,2674.0,2551.0,4095.0,4095.0,4095.0,4095.0,-0.03,9.0,1.08,-0.03,0.07,0.04,b
1897.0,2947.0,2755.0,2555.0,4095.0,4095.0,4095.0,4095.0,0.11,10.15,0.81,0.06,0.24,0.04,b
2161.0,2900.0,2701.0,2559.0,4095.0,4095.0,4095.0,4095.0,0.4,8.89,0.78,-0.13,-0.1,-0.09,b
2629.0,2736.0,2462.0,2579.0,4095.0,4095.0,4095.0,4095.0,0.1,10.02,0.95,-0.05,-0.01,-0.07,b
3081.0,2704.0,2388.0,2586.0,4095.0,4095.0,4095.0,4095.0,-0.38,9.2,0.73,0.05,0.06,-0.04,b
3147.0,2723.0,2379.0,2590.0,4095.0,4095.0,4095.0,4095.0,0.15,9.58,0.78,-0.18,0.08,-0.04,b
3135.0,2765.0,2387.0,2592.0,4095.0,4095.0,4095.0,4095.0,0.18,9.84,0.97,-0.0,-0.12,-0.04,b
3232.0,2761.0,2391.0,2597.0,4095.0,4095.0,4095.0,4095.0,0.26,9.13,1.06,-0.03,-0.01,-0.07,b
3383.0,2733.0,2385.0,2593.0,4095.0,4095.0,4095.0,4095.0,0.01,9.81,0.94,-0.07,0.24,-0.06,b
3501.0,2553.0,2383.0,2591.0,4095.0,4095.0,4095.0,4095.0,-0.03,9.43,0.77,-0.02,-0.14,-0.05,b
3713.0,2229.0,2365.0,2583.0,4095.0,4095.0,4095.0,4095.0,-0.1,9.51,0.78,-0.12,0.07,-0.08,b
3728.0,2215.0,2367.0,2585.0,4095.0,4095.0,4095.0,4095.0,0.01,9.4,0.99,0.01,0.09,-0.0,b
3714.0,2358.0,2377.0,2559.0,4095.0,4095.0,4095.0,4095.0,-0.21,9.7,0.82,-0.07,0.22,-0.03,b
3727.0,2429.0,2377.0,2544.0,4095.0,4095.0,4095.0,4095.0,-0.15,9.31,1.09,0.05,-0.01,-0.03,b
3651.0,2421.0,2385.0,2497.0,4095.0,4095.0,4095.0,4095.0,0.1,9.63,0.74,-0.02,0.05,-0.04,b
3623.0,2429.0,2387.0,2434.0,4095.0,4095.0,4095.0,4095.0,-0.04,9.81,0.83,0.08,-0.08,0.06,b
3410.0,2449.0,2393.0,2451.0,4095.0,4095.0,4095.0,4095.0,-0.37,9.11,0.91,-0.02,0.01,-0.09,b
3294.0,2469.0,2387.0,2475.0,4095.0,4095.0,4095.0,4095.0,-0.15,9.78,0.87,0.04,0.1,-0.01,b
3245.0,2474.0,2391.0,2477.0,4095.0,4095.0,4095.0,4095.0,-0.11,9.65,0.78,0.03,-0.09,0.02,b
3038.0,2501.0,2384.0,2467.0,4095.0,4095.0,4095.0,4095.0,-0.28,9.44,0.45,-0.12,0.08,-0.02,b
2922.0,2509.0,2400.0,2475.0,4095.0,4095.0,4095.0,4095.0,-0.02,9.73,0.95,0.07,-0.16,0.12,b
2839.0,2527.0,2385.0,2480.0,4095.0,4095.0,4095.0,4095.0,-0.24,9.38,0.73,-0.04,0.06,-0.01,b
2815.0,2519.0,2391.0,2501.0,4095.0,4095.0,4095.0,4095.0,0.4,9.68,0.8,-0.02,-0.05,0.0,b
2391.0,2526.0,2407.0,2460.0,4095.0,4095.0,4095.0,4095.0,0.13,9.4,0.87,0.03,-0.09,0.07,b
2312.0,2534.0,2405.0,2431.0,4095.0,4095.0,4095.0,4095.0,-0.07,9.69,0.45,-0.1,0.06,-0.04,b
2238.0,2545.0,2399.0,2409.0,4095.0,4095.0,4095.0,4095.0,0.38,9.36,1.0,-0.07,-0.23,0.02,b
2160.0,2707.0,2460.0,2372.0,4095.0,4095.0,4095.0,4095.0,0.25,9.96,0.89,-0.15,0.39,-0.13,b
2176.0,2807.0,2554.0,2320.0,4095.0,4095.0,4095.0,4095.0,-1.26,10.07,0.84,0.13,0.2,0.04,b
1989.0,2817.0,2559.0,2366.0,4095.0,4095.0,4095.0,4095.0,-0.01,9.11,0.51,-0.08,-0.3,0.09,b
3143.0,2852.0,2554.0,2415.0,4095.0,4095.0,4095.0,4095.0,0.53,9.89,0.64,-0.17,0.08,-0.01,b
3183.0,2896.0,2534.0,2448.0,4095.0,4095.0,4095.0,4095.0,-0.04,9.83,0.75,0.01,0.34,0.0,b
3180.0,2909.0,2511.0,2461.0,4095.0,4095.0,4095.0,4095.0,-0.42,9.17,0.79,-0.24,0.03,-0.07,b
3059.0,2914.0,2512.0,2465.0,4095.0,4095.0,4095.0,4095.0,-0.26,9.66,0.96,-0.19,0.23,-0.06,b
3120.0,2922.0,2512.0,2475.0,4095.0,4095.0,4095.0,4095.0,-0.0,9.5,1.17,0.11,-0.06,0.04,b
3021.0,2927.0,2510.0,2495.0,4095.0,4095.0,4095.0,4095.0,0.05,9.19,0.83,-0.16,0.05,-0.04,b
2705.0,2919.0,2512.0,2506.0,4095.0,4095.0,4095.0,4095.0,-0.1,9.86,1.27,0.05,-0.05,0.11,b
2414.0,2915.0,2497.0,2500.0,4095.0,4095.0,4095.0,4095.0,-0.14,9.4,0.91,-0.0,0.06,-0.04,b
1665.0,2912.0,2494.0,2499.0,4095.0,4095.0,4095.0,4095.0,0.3,9.52,0.94,-0.07,0.02,-0.13,b
1638.0,2921.0,2496.0,2503.0,4095.0,4095.0,4095.0,4095.0,0.05,9.5,1.14,0.04,-0.1,0.01,b
1808.0,2911.0,2497.0,2508.0,4095.0,4095.0,4095.0,4095.0,-0.51,9.48,1.14,0.09,0.13,-0.01,b
1828.0,2918.0,2506.0,2505.0,4095.0,4095.0,4095.0,4095.0,-0.25,9.62,0.7,0.04,0.03,-0.0,b
1739.0,2902.0,2559.0,2490.0,4095.0,4095.0,4095.0,4095.0,-0.36,9.67,0.89,0.23,-0.27,0.15,b
1509.0,2901.0,2525.0,2500.0,4095.0,4095.0,4095.0,4095.0,0.28,9.33,0.78,-0.14,0.01,-0.09,b
1598.0,2895.0,2512.0,2515.0,4095.0,4095.0,4095.0,4095.0,0.15,9.58,0.71,-0.12,0.08,-0.02,b
1633.0,2906.0,2499.0,2531.0,4095.0,4095.0,4095.0,4095.0,0.0,9.79,0.76,-0.04,-0.07,-0.0,b
1611.0,2923.0,2489.0,2540.0,4095.0,4095.0,4095.0,4095.0,-0.42,9.03,0.83,-0.2,0.1,-0.14,b
1584.0,2916.0,2505.0,2544.0,4095.0,4095.0,4095.0,4095.0,-0.16,9.51,0.96,0.06,0.04,-0.07,b
1598.0,2905.0,2503.0,2544.0,4095.0,4095.0,4095.0,4095.0,-0.14,9.48,1.07,0.03,-0.01,0.02,b
1834.0,2875.0,2459.0,2534.0,4095.0,4095.0,4095.0,4095.0,0.0,10.0,0.93,-0.08,-0.08,0.01,b
2298.0,2846.0,2433.0,2539.0,4095.0,4095.0,4095.0,4095.0,-0.63,9.2,1.06,-0.01,-0.1,0.07,b
1998.0,2848.0,2451.0,2559.0,4095.0,4095.0,4095.0,4095.0,-0.31,9.73,1.03,0.14,0.07,-0.04,b
1710.0,2880.0,2470.0,2559.0,4095.0,4095.0,4095.0,4095.0,-0.32,9.77,0.95,0.12,-0.13,-0.03,b
1631.0,2896.0,2479.0,2589.0,4095.0,4095.0,4095.0,4095.0,-0.15,9.04,0.58,0.0,-0.04,-0.16,b
1393.0,2902.0,2491.0,2595.0,4095.0,4095.0,4095.0,4095.0,-0.25,9.97,0.9,-0.02,-0.09,-0.09,b
1921.0,2917.0,2485.0,2593.0,4095.0,4095.0,4095.0,4095.0,-0.38,9.34,0.79,-0.04,-0.14,0.01,b
2559.0,2940.0,2480.0,2597.0,4095.0,4095.0,4095.0,4095.0,-0.55,9.05,0.57,-0.21,0.19,-0.22,b
2621.0,2946.0,2495.0,2599.0,4095.0,4095.0,4095.0,4095.0,-0.5,9.91,0.95,-0.01,-0.05,-0.0,b
2683.0,2946.0,2527.0,2608.0,4095.0,4095.0,4095.0,4095.0,-0.06,9.4,0.87,0.1,-0.16,0.09,b
2790.0,2959.0,2534.0,2610.0,4095.0,4095.0,4095.0,4095.0,-0.05,9.58,0.77,-0.15,0.13,0.01,b
2756.0,2945.0,2480.0,2639.0,4095.0,4095.0,4095.0,4095.0,0.1,9.57,1.21,-0.07,-0.14,0.15,b
2032.0,2919.0,2438.0,2644.0,4095.0,4095.0,4095.0,4095.0,-0.53,9.31,0.8,-0.03,0.12,0.02,b
1629.0,2899.0,2488.0,2651.0,4095.0,4095.0,4095.0,4095.0,-0.05,9.99,0.79,-0.01,0.12,-0.05,b
1535.0,2885.0,2626.0,2646.0,4095.0,4095.0,4095.0,4095.0,-0.0,9.75,0.96,0.13,-0.18,0.04,b
1273.0,2833.0,3056.0,2649.0,4095.0,4095.0,4095.0,4095.0,-0.42,8.73,0.65,0.09,0.15,-0.11,b
1268.0,2755.0,3063.0,2651.0,4095.0,4095.0,4095.0,4095.0,-0.36,10.45,0.72,-0.1,0.3,-0.08,b
1270.0,2768.0,2859.0,2656.0,4095.0,4095.0,4095.0,4095.0,-0.41,9.32,0.71,0.17,-0.26,0.07,b
1293.0,2784.0,2657.0,2663.0,4095.0,4095.0,4095.0,4095.0,0.17,10.07,0.6,-0.11,0.13,-0.03,b
1181.0,2806.0,2594.0,2665.0,4095.0,4095.0,4095.0,4095.0,-0.11,9.78,0.97,0.09,-0.23,-0.02,b
1418.0,2743.0,2725.0,2671.0,4095.0,4095.0,4095.0,4095.0,-0.39,9.29,0.47,-0.05,0.05,-0.01,b
2092.0,2672.0,2677.0,2663.0,4095.0,4095.0,4095.0,4095.0,-0.09,9.74,0.63,-0.2,0.15,-0.04,b
2407.0,2682.0,2487.0,2655.0,4095.0,4095.0,4095.0,4095.0,-0.63,9.38,0.94,0.04,-0.0,0.03,b
2046.0,2724.0,2410.0,2666.0,4095.0,4095.0,4095.0,4095.0,-0.33,9.5,0.71,-0.21,0.28,-0.13,b
1977.0,2765.0,2409.0,2671.0,4095.0,4095.0,4095.0,4095.0,-0.14,9.85,1.0,0.07,-0.07,0.08,b
1979.0,2771.0,2389.0,2670.0,4095.0,4095.0,4095.0,4095.0,0.0,9.28,0.84,-0.06,-0.02,0.01,b
2434.0,2718.0,2311.0,2657.0,4095.0,4095.0,4095.0,4095.0,-0.25,9.65,0.96,-0.08,-0.05,0.05,b
2700.0,2551.0,2278.0,2651.0,4095.0,4095.0,4095.0,4095.0,-0.44,9.5,0.83,0.05,-0.05,0.02,b
3278.0,2422.0,2286.0,2635.0,4095.0,4095.0,4095.0,4095.0,-0.13,9.37,0.81,0.03,0.06,0.02,b
3310.0,2385.0,2293.0,2651.0,4095.0,4095.0,4095.0,4095.0,0.05,9.71,0.72,-0.06,0.07,-0.05,b
3154.0,2368.0,2304.0,2647.0,4095.0,4095.0,4095.0,4095.0,-0.31,9.57,0.84,0.16,-0.05,0.03,b
3052.0,2368.0,2310.0,2558.0,4095.0,4095.0,4095.0,4095.0,-0.18,9.07,0.39,-0.14,0.09,-0.08,b
2609.0,2384.0,2323.0,2514.0,4095.0,4095.0,4095.0,4095.0,-0.07,9.91,0.66,0.03,0.04,0.01,b
2386.0,2415.0,2331.0,2479.0,4095.0,4095.0,4095.0,4095.0,-0.21,9.39,0.67,0.04,-0.0,-0.01,b
2210.0,2429.0,2343.0,2448.0,4095.0,4095.0,4095.0,4095.0,-0.18,9.61,0.61,-0.03,0.05,-0.05,b
2165.0,2451.0,2369.0,2452.0,4095.0,4095.0,4095.0,4095.0,-0.34,9.8,0.85,0.12,-0.04,0.03,b
1641.0,2619.0,2426.0,2458.0,4095.0,4095.0,4095.0,4095.0,0.0,9.23,0.64,0.15,-0.13,0.04,b
1431.0,2659.0,2458.0,2487.0,4095.0,4095.0,4095.0,4095.0,0.11,10.04,0.58,0.09,-0.01,0.03,b
1382.0,2673.0,2461.0,2495.0,4095.0,4095.0,4095.0,4095.0,-0.15,9.48,0.25,0.12,-0.16,0.02,b
1189.0,2672.0,2460.0,2502.0,4095.0,4095.0,4095.0,4095.0,0.03,9.69,0.11,-0.11,-0.01,0.02,b
1211.0,2679.0,2467.0,2511.0,4095.0,4095.0,4095.0,4095.0,-0.41,9.82,-0.01,0.2,-0.17,0.07,b
1184.0,2683.0,2478.0,2519.0,4095.0,4095.0,4095.0,4095.0,0.21,9.65,0.41,-0.07,-0.04,-0.01,b
1224.0,2679.0,2481.0,2527.0,4095.0,4095.0,4095.0,4095.0,0.35,10.02,0.49,0.16,-0.21,0.1,b
1221.0,2682.0,2480.0,2547.0,4095.0,4095.0,4095.0,4095.0,-0.17,9.4,0.22,0.11,-0.15,0.1,b
1567.0,2691.0,2481.0,2554.0,4095.0,4095.0,4095.0,4095.0,0.18,9.51,-0.11,-0.04,0.04,-0.01,b
2302.0,2688.0,2491.0,2559.0,4095.0,4095.0,4095.0,4095.0,0.25,9.94,0.25,0.02,-0.11,0.06,b
2733.0,2704.0,2495.0,2550.0,4095.0,4095.0,4095.0,4095.0,-0.42,9.54,0.03,-0.01,-0.18,0.06,b
2800.0,2715.0,2502.0,2559.0,4095.0,4095.0,4095.0,4095.0,0.05,9.7,-0.11,-0.07,-0.02,0.0,b
2677.0,2751.0,2512.0,2559.0,4095.0,4095.0,4095.0,4095.0,0.55,10.14,0.42,0.1,-0.12,-0.03,b
3070.0,2800.0,2528.0,2559.0,4095.0,4095.0,4095.0,4095.0,0.2,9.33,0.48,0.07,-0.13,-0.03,b
2957.0,2817.0,2529.0,2559.0,4095.0,4095.0,4095.0,4095.0,-0.08,9.84,0.09,-0.15,0.12,-0.03,b
2907.0,2833.0,2515.0,2559.0,4095.0,4095.0,4095.0,4095.0,0.06,9.75,0.18,0.07,-0.17,0.08,b
2915.0,2840.0,2521.0,2559.0,4095.0,4095.0,4095.0,4095.0,0.3,9.53,-0.05,0.08,-0.24,0.03,b
2946.0,2853.0,2528.0,2583.0,4095.0,4095.0,4095.0,4095.0,0.74,9.66,-0.48,0.06,-0.04,0.04,b
2962.0,2861.0,2529.0,2590.0,4095.0,4095.0,4095.0,4095.0,0.64,9.58,-0.45,0.09,-0.08,-0.01,b
2975.0,2849.0,2529.0,2593.0,4095.0,4095.0,4095.0,4095.0,0.28,9.41,-0.22,-0.12,0.02,-0.05,b
2959.0,2859.0,2536.0,2641.0,4095.0,4095.0,4095.0,4095.0,0.14,10.12,0.06,-0.02,0.08,0.02,b
2944.0,2860.0,2544.0,2761.0,4095.0,4095.0,4095.0,4095.0,0.38,9.48,0.13,-0.07,-0.18,-0.02,b
2918.0,2864.0,2546.0,2919.0,4095.0,4095.0,4095.0,4095.0,0.58,9.92,-0.03,-0.03,-0.24,0.01,b
3024.0,2858.0,2548.0,2947.0,4095.0,4095.0,4095.0,4095.0,0.43,9.7,-0.13,0.02,-0.13,0.01,b
3290.0,2857.0,2555.0,2821.0,4095.0,4095.0,4095.0,4095.0,0.09,9.31,-0.25,0.02,0.06,0.05,b
3279.0,2868.0,2553.0,2652.0,4095.0,4095.0,4095.0,4095.0,0.26,9.79,-0.56,-0.07,0.13,-0.02,b
3285.0,2865.0,2559.0,2640.0,4095.0,4095.0,4095.0,4095.0,0.51,9.59,-0.25,-0.0,-0.04,0.1,b
3267.0,2860.0,2554.0,2646.0,4095.0,4095.0,4095.0,4095.0,0.19,9.29,-0.01,-0.21,0.35,-0.01,b
3350.0,2863.0,2549.0,2623.0,4095.0,4095.0,4095.0,4095.0,0.26,9.59,0.23,-0.21,0.24,-0.1,b
3398.0,2873.0,2534.0,2639.0,4095.0,4095.0,4095.0,4095.0,0.6,9.9,0.47,0.06,-0.12,0.06,b
3379.0,2883.0,2544.0,2642.0,4095.0,4095.0,4095.0,4095.0,0.57,9.42,0.08,-0.04,0.19,-0.16,b
3373.0,2890.0,2555.0,2656.0,4095.0,4095.0,4095.0,4095.0,0.56,9.73,-0.07,-0.1,0.12,-0.1,b
3358.0,2879.0,2544.0,2652.0,4095.0,4095.0,4095.0,4095.0,0.23,9.72,0.2,0.02,-0.04,0.02,b
3280.0,2879.0,2531.0,2619.0,4095.0,4095.0,4095.0,4095.0,0.3,10.01,0.15,-0.12,0.13,-0.19,b
3279.0,2896.0,2521.0,2590.0,4095.0,4095.0,4095.0,4095.0,0.2,9.41,0.15,0.01,-0.11,-0.19,b
3314.0,2923.0,2523.0,2583.0,4095.0,4095.0,4095.0,4095.0,0.24,9.64,0.09,0.07,0.0,-0.09,b
3328.0,2930.0,2533.0,2604.0,4095.0,4095.0,4095.0,4095.0,-0.1,9.75,0.07,0.04,0.04,-0.12,b
3312.0,2950.0,2515.0,2620.0,4095.0,4095.0,4095.0,4095.0,-0.15,9.39,-0.07,-0.15,0.21,-0.12,b
3314.0,2949.0,2509.0,2622.0,4095.0,4095.0,4095.0,4095.0,-0.08,9.82,-0.01,-0.09,0.05,0.02,b
3314.0,2944.0,2489.0,2621.0,4095.0,4095.0,4095.0,4095.0,-0.19,9.66,0.13,-0.06,-0.06,0.09,b
3297.0,2944.0,2471.0,2608.0,4095.0,4095.0,4095.0,4095.0,0.43,9.61,0.14,-0.23,0.14,-0.04,b
3294.0,2930.0,2464.0,2603.0,4095.0,4095.0,4095.0,4095.0,0.28,9.68,0.31,-0.02,-0.03,0.04,b
3271.0,2937.0,2466.0,2606.0,4095.0,4095.0,4095.0,4095.0,-0.06,9.49,0.12,-0.05,0.07,-0.02,b
3218.0,2943.0,2470.0,2608.0,4095.0,4095.0,4095.0,4095.0,0.32,9.87,0.32,-0.07,0.08,0.03,b
3207.0,2935.0,2467.0,2599.0,4095.0,4095.0,4095.0,4095.0,0.23,9.48,0.16,0.03,-0.08,-0.0,b
3215.0,2930.0,2410.0,2603.0,4095.0,4095.0,4095.0,4095.0,0.3,9.83,0.14,-0.24,0.2,-0.19,b
3210.0,2929.0,2337.0,2608.0,4095.0,4095.0,4095.0,4095.0,-0.34,9.74,0.31,-0.01,-0.05,-0.06,b
3190.0,2927.0,2340.0,2611.0,4095.0,4095.0,4095.0,4095.0,-0.02,9.69,0.34,0.04,-0.03,0.0,b
3216.0,2925.0,2347.0,2613.0,4095.0,4095.0,4095.0,4095.0,-0.13,9.63,0.19,-0.18,0.15,0.0,b
3228.0,2919.0,2339.0,2608.0,4095.0,4095.0,4095.0,4095.0,0.11,9.71,0.39,-0.06,-0.04,0.1,b
3158.0,2939.0,2334.0,2604.0,4095.0,4095.0,4095.0,4095.0,-0.04,9.31,0.28,-0.08,0.09,0.01,b
2690.0,2941.0,2337.0,2605.0,4095.0,4095.0,4095.0,4095.0,0.63,10.17,0.73,-0.01,0.17,-0.0,b
2646.0,2930.0,2339.0,2610.0,4095.0,4095.0,4095.0,4095.0,0.06,9.34,0.62,-0.0,-0.04,-0.05,b
2448.0,2933.0,2347.0,2608.0,4095.0,4095.0,4095.0,4095.0,-0.17,9.78,0.46,-0.09,0.14,-0.1,b
2270.0,2928.0,2350.0,2607.0,4095.0,4095.0,4095.0,4095.0,-0.14,9.63,0.56,0.06,0.01,-0.06,b
2236.0,2933.0,2345.0,2597.0,4095.0,4095.0,4095.0,4095.0,0.37,9.47,0.16,-0.06,0.05,-0.08,b
2859.0,2935.0,2330.0,2593.0,4095.0,4095.0,4095.0,4095.0,-0.35,9.76,0.11,-0.06,0.02,-0.01,b
3787.0,2928.0,2319.0,2587.0,4095.0,4095.0,4095.0,4095.0,0.04,9.41,0.58,0.09,-0.04,0.03,b
4095.0,2931.0,2318.0,2589.0,4095.0,4095.0,4095.0,4095.0,0.0,9.91,0.21,-0.12,0.22,-0.14,b
4095.0,2930.0,2319.0,2590.0,4095.0,4095.0,4095.0,4095.0,-0.19,9.78,0.49,0.11,-0.16,0.0,b
4095.0,2935.0,2320.0,2588.0,4095.0,4095.0,4095.0,4095.0,-0.15,9.73,0.27,-0.09,0.13,-0.11,b
3770.0,2932.0,2333.0,2586.0,4095.0,4095.0,4095.0,4095.0,-0.28,9.83,0.39,-0.0,-0.07,0.05,b
3495.0,2932.0,2406.0,2592.0,4095.0,4095.0,4095.0,4095.0,-0.0,9.36,0.44,0.15,-0.17,0.03,b
3636.0,2928.0,2438.0,2599.0,4095.0,4095.0,4095.0,4095.0,0.23,9.79,0.02,-0.19,0.16,-0.07,b
4095.0,2874.0,2416.0,2602.0,4095.0,4095.0,4095.0,4095.0,0.15,10.02,0.31,0.04,-0.01,-0.19,b
4095.0,2292.0,2389.0,2599.0,4095.0,4095.0,4095.0,4095.0,-0.85,9.26,0.36,-0.07,0.12,-0.05,b
4095.0,2114.0,2352.0,2606.0,4095.0,4095.0,4095.0,4095.0,-0.17,9.9,0.27,-0.17,0.23,-0.05,b
4095.0,2384.0,2338.0,2603.0,4095.0,4095.0,4095.0,4095.0,-0.34,9.58,0.36,0.05,-0.18,0.09,b
4095.0,2466.0,2335.0,2602.0,4095.0,4095.0,4095.0,4095.0,-0.22,9.48,0.24,-0.13,0.11,-0.06,b
4095.0,2591.0,2322.0,2608.0,4095.0,4095.0,4095.0,4095.0,0.0,10.0,0.51,-0.06,0.02,-0.02,b
4095.0,2722.0,2331.0,2605.0,4095.0,4095.0,4095.0,4095.0,-0.21,9.36,0.62,0.02,-0.13,0.0,b
4095.0,2750.0,2325.0,2608.0,4095.0,4095.0,4095.0,4095.0,-0.23,9.68,0.15,-0.22,0.17,-0.12,b
4095.0,2754.0,2330.0,2610.0,4095.0,4095.0,4095.0,4095.0,-0.04,9.7,0.42,0.08,-0.21,0.05,b
4095.0,2704.0,2325.0,2618.0,4095.0,4095.0,4095.0,4095.0,-0.45,9.3,0.36,-0.03,0.06,0.03,b
4095.0,2512.0,2320.0,2619.0,4095.0,4095.0,4095.0,4095.0,-0.08,9.87,0.42,-0.16,0.16,-0.05,b
4095.0,1876.0,2303.0,2613.0,4095.0,4095.0,4095.0,4095.0,-0.03,9.61,0.66,0.08,-0.21,0.07,b
4095.0,1870.0,2303.0,2621.0,4095.0,4095.0,4095.0,4095.0,-0.17,9.37,0.27,-0.13,0.14,-0.07,b
4095.0,1869.0,2297.0,2621.0,4095.0,4095.0,4095.0,4095.0,-0.13,10.02,0.58,0.08,-0.04,0.04,b
4095.0,1869.0,2302.0,2628.0,4095.0,4095.0,4095.0,4095.0,-0.08,9.34,0.44,0.0,-0.06,-0.04,b
4095.0,1867.0,2309.0,2624.0,4095.0,4095.0,4095.0,4095.0,-0.16,9.76,0.23,0.01,0.05,-0.04,b
4095.0,1908.0,2320.0,2625.0,4095.0,4095.0,4095.0,4095.0,-0.24,9.7,0.25,0.18,-0.14,0.1,b
4095.0,1920.0,2337.0,2633.0,4095.0,4095.0,4095.0,4095.0,0.1,9.48,0.03,-0.09,-0.02,-0.04,b
4095.0,1882.0,2335.0,2639.0,4095.0,4095.0,4095.0,4095.0,-0.11,9.93,0.35,-0.05,-0.13,0.05,b
4095.0,1973.0,2347.0,2640.0,4095.0,4095.0,4095.0,4095.0,0.39,9.4,0.58,-0.06,-0.1,0.05,b
4095.0,1904.0,2308.0,2640.0,4095.0,4095.0,4095.0,4095.0,-0.44,9.25,-0.09,-0.04,0.11,-0.07,b
4095.0,1887.0,2335.0,2644.0,4095.0,4095.0,4095.0,4095.0,0.04,9.87,0.32,0.09,0.05,0.04,b
4095.0,1904.0,2346.0,2640.0,4095.0,4095.0,4095.0,4095.0,-0.07,9.27,0.15,-0.19,0.12,-0.04,b
4095.0,1904.0,2341.0,2642.0,4095.0,4095.0,4095.0,4095.0,0.01,10.02,0.4,0.05,-0.02,0.01,b
4095.0,1950.0,2343.0,2640.0,4095.0,4095.0,4095.0,4095.0,-0.03,9.12,0.33,-0.02,0.01,-0.06,b
4095.0,2090.0,2320.0,2640.0,4095.0,4095.0,4095.0,4095.0,-0.22,9.89,0.13,-0.1,0.08,-0.04,b
4095.0,2165.0,2323.0,2646.0,4095.0,4095.0,4095.0,4095.0,-0.13,9.38,0.19,0.05,-0.1,0.05,b
4095.0,2432.0,2380.0,2668.0,4095.0,4095.0,4095.0,4095.0,0.16,9.77,0.19,-0.11,0.1,0.0,b
3341.0,2689.0,3216.0,2672.0,4095.0,4095.0,4095.0,4095.0,-0.24,9.96,0.5,-0.07,0.08,0.07,b
3280.0,2781.0,3151.0,2641.0,4095.0,4095.0,4095.0,4095.0,-0.35,9.28,0.39,-0.03,0.14,0.1,b
3295.0,2807.0,2851.0,2630.0,4095.0,4095.0,4095.0,4095.0,0.5,9.97,-0.11,0.11,0.07,0.05,b
3251.0,2825.0,2643.0,2615.0,4095.0,4095.0,4095.0,4095.0,0.55,9.58,0.07,0.03,-0.04,0.05,b
3239.0,2850.0,2318.0,2607.0,4095.0,4095.0,4095.0,4095.0,-0.0,9.45,0.18,-0.1,0.12,-0.08,b
3223.0,2869.0,2309.0,2559.0,4095.0,4095.0,4095.0,4095.0,0.13,9.78,0.37,0.05,0.04,-0.02,b
3218.0,2864.0,2315.0,2527.0,4095.0,4095.0,4095.0,4095.0,0.24,9.52,0.22,-0.03,0.03,-0.06,b
3168.0,2864.0,2311.0,2497.0,4095.0,4095.0,4095.0,4095.0,0.34,9.9,0.11,0.05,-0.07,0.01,b
3159.0,2855.0,2308.0,2499.0,4095.0,4095.0,4095.0,4095.0,0.03,9.45,-0.03,-0.01,0.08,-0.02,b
3136.0,2864.0,2311.0,2477.0,4095.0,4095.0,4095.0,4095.0,0.28,9.54,0.14,-0.06,-0.0,-0.03,b
3182.0,2878.0,2311.0,2486.0,4095.0,4095.0,4095.0,4095.0,0.19,9.52,-0.06,0.16,-0.06,0.04,b
3221.0,2877.0,2320.0,2559.0,4095.0,4095.0,4095.0,4095.0,0.18,9.69,0.07,-0.02,0.05,-0.16,b
3203.0,2880.0,2317.0,2641.0,4095.0,4095.0,4095.0,4095.0,-0.05,9.89,0.08,0.02,-0.09,-0.01,b
1216.0,2816.0,2912.0,3251.0,3825.0,3650.0,3062.0,4095.0,2.64,8.93,1.07,-0.03,-0.02,0.0,c
1255.0,2816.0,2917.0,3253.0,3789.0,3648.0,3065.0,4095.0,2.74,9.39,1.18,-0.08,0.0,0.01,c
1255.0,2807.0,2914.0,3249.0,3781.0,3648.0,3055.0,4095.0,2.92,9.38,1.36,0.01,0.06,-0.03,c
1232.0,2809.0,2907.0,3250.0,3792.0,3643.0,3039.0,4095.0,2.45,8.74,1.24,-0.04,0.01,0.01,c
1216.0,2815.0,2912.0,3246.0,3818.0,3615.0,3010.0,4095.0,2.78,9.81,1.07,0.02,0.03,-0.04,c
1205.0,2815.0,2900.0,3248.0,3821.0,3574.0,2963.0,4095.0,2.87,8.81,1.25,-0.02,-0.08,0.03,c
1214.0,2820.0,2918.0,3248.0,3811.0,3582.0,2970.0,4095.0,2.69,9.45,1.02,-0.01,0.05,-0.07,c
1213.0,2809.0,2906.0,3248.0,3804.0,3583.0,2976.0,4095.0,2.73,9.02,1.16,0.08,-0.05,-0.02,c
1212.0,2816.0,2910.0,3252.0,3813.0,3583.0,2986.0,4095.0,2.72,9.3,1.16,-0.01,-0.05,-0.04,c
1201.0,2813.0,2907.0,3253.0,3763.0,3596.0,2992.0,4095.0,2.75,9.11,1.06,0.01,-0.11,0.04,c
1199.0,2818.0,2914.0,3250.0,3767.0,3583.0,3001.0,4095.0,3.0,9.45,0.9,0.08,-0.01,-0.06,c
1200.0,2816.0,2905.0,3250.0,3795.0,3600.0,3008.0,4095.0,2.76,9.28,0.8,-0.08,-0.01,0.02,c
1200.0,2815.0,2894.0,3250.0,3792.0,3606.0,2992.0,4095.0,2.97,9.22,1.12,-0.11,0.08,-0.06,c
1200.0,2826.0,2885.0,3249.0,3794.0,3611.0,2978.0,4095.0,2.36,9.39,1.01,-0.05,0.24,-0.11,c
1206.0,2831.0,2896.0,3239.0,3796.0,3632.0,3006.0,4095.0,2.79,9.17,1.25,-0.01,-0.12,0.02,c
1203.0,2815.0,2896.0,3235.0,3802.0,3648.0,3029.0,4095.0,2.39,9.34,1.06,-0.03,0.05,-0.0,c
1207.0,2822.0,2925.0,3231.0,3797.0,3646.0,3042.0,4095.0,2.85,9.38,1.12,0.08,-0.14,0.07,c
1200.0,2818.0,2943.0,3227.0,3826.0,3659.0,3063.0,4095.0,2.72,9.24,0.93,-0.16,0.11,-0.08,c
1201.0,2810.0,2935.0,3216.0,3824.0,3670.0,3081.0,4095.0,2.78,9.3,1.19,-0.02,-0.03,0.06,c
1204.0,2817.0,2946.0,3214.0,3830.0,3667.0,3071.0,4095.0,2.84,9.18,1.3,-0.03,-0.02,-0.0,c
1205.0,2815.0,2939.0,3199.0,3835.0,3669.0,3071.0,4095.0,2.79,9.43,1.14,-0.03,0.05,-0.05,c
1200.0,2814.0,2939.0,3185.0,3839.0,3671.0,3071.0,4095.0,2.58,9.01,1.07,-0.06,-0.0,0.0,c
1201.0,2819.0,2951.0,3170.0,3829.0,3678.0,3071.0,4095.0,2.65,9.29,1.02,-0.07,0.03,-0.04,c
1200.0,2817.0,2938.0,3153.0,3834.0,3671.0,3070.0,4095.0,2.94,9.24,1.17,-0.0,-0.01,-0.01,c
1200.0,2815.0,2942.0,3151.0,3836.0,3667.0,3057.0,4095.0,2.67,9.06,1.12,-0.05,0.0,-0.01,c
1200.0,2816.0,2935.0,3150.0,3834.0,3653.0,3047.0,4095.0,2.72,9.37,1.09,-0.08,0.01,-0.02,c
1202.0,2818.0,2940.0,3152.0,3837.0,3638.0,3013.0,4095.0,2.78,9.04,1.41,0.04,-0.03,0.0,c
1202.0,2812.0,2934.0,3159.0,3785.0,3605.0,2966.0,4095.0,2.87,9.37,1.23,-0.07,-0.06,0.01,c
1204.0,2822.0,2935.0,3161.0,3738.0,3583.0,2959.0,4095.0,2.85,9.4,1.13,0.01,0.01,-0.03,c
1197.0,2826.0,2941.0,3146.0,3622.0,3519.0,2864.0,4058.0,2.72,9.14,0.98,-0.07,-0.0,-0.04,c
1195.0,2819.0,2944.0,3071.0,3579.0,3499.0,2829.0,4006.0,2.79,9.36,1.25,-0.1,0.02,-0.0,c
1196.0,2815.0,2949.0,3051.0,3582.0,3501.0,2803.0,3877.0,2.54,8.72,1.1,-0.18,0.14,0.02,c
1206.0,2814.0,2933.0,3061.0,3583.0,3486.0,2775.0,3615.0,2.74,9.4,1.32,-0.02,-0.1,0.09,c
1211.0,2813.0,2922.0,3092.0,3573.0,3475.0,2768.0,3427.0,2.67,8.85,1.39,0.03,0.02,0.0,c
1194.0,2818.0,2930.0,3115.0,3583.0,3504.0,2778.0,3335.0,3.18,9.51,1.19,-0.05,0.08,0.01,c
1602.0,2800.0,2931.0,3126.0,3632.0,3523.0,2793.0,3303.0,2.94,8.85,1.33,-0.17,0.13,-0.04,c
1922.0,2795.0,2932.0,3127.0,3644.0,3530.0,2783.0,3323.0,2.54,9.46,1.13,-0.07,0.01,0.02,c
1808.0,2794.0,2935.0,3134.0,3649.0,3532.0,2785.0,3329.0,3.13,9.03,1.6,-0.01,-0.15,0.07,c
1393.0,2787.0,2947.0,3138.0,3681.0,3527.0,2798.0,3367.0,2.72,9.22,1.33,-0.06,0.15,-0.06,c
1305.0,2770.0,2946.0,3132.0,3691.0,3538.0,2813.0,3399.0,3.32,9.11,1.26,-0.0,-0.07,-0.0,c
1488.0,2768.0,2949.0,3136.0,3691.0,3546.0,2807.0,3418.0,2.94,8.91,1.38,-0.09,0.03,-0.01,c
1747.0,2775.0,2949.0,3134.0,3675.0,3529.0,2798.0,3430.0,2.68,9.36,1.35,0.03,-0.01,0.03,c
1761.0,2781.0,2943.0,3138.0,3691.0,3536.0,2800.0,3440.0,2.72,8.96,1.46,0.01,-0.05,-0.0,c
1761.0,2778.0,2950.0,3136.0,3691.0,3534.0,2798.0,3447.0,2.93,9.1,1.15,0.0,0.04,-0.0,c
1583.0,2778.0,2944.0,3138.0,3700.0,3531.0,2802.0,3491.0,3.0,9.21,1.25,0.02,-0.07,0.01,c
1454.0,2780.0,2948.0,3133.0,3696.0,3531.0,2800.0,3521.0,2.98,8.99,1.3,-0.01,-0.03,-0.04,c
1325.0,2784.0,2926.0,3120.0,3611.0,3523.0,2801.0,3630.0,2.93,9.28,1.3,0.07,0.03,-0.03,c
1279.0,2785.0,2919.0,3118.0,3573.0,3530.0,2806.0,3696.0,2.6,9.0,1.3,-0.01,0.01,0.01,c
1326.0,2773.0,2925.0,3120.0,3583.0,3539.0,2826.0,3693.0,3.0,9.3,1.11,0.02,-0.08,0.0,c
1235.0,2779.0,2925.0,3115.0,3570.0,3540.0,2844.0,3687.0,3.15,9.17,1.25,0.09,-0.14,0.04,c
1223.0,2781.0,2919.0,3114.0,3569.0,3551.0,2849.0,3693.0,3.04,9.08,0.99,-0.12,0.08,-0.07,c
1401.0,2778.0,2918.0,3110.0,3551.0,3551.0,2858.0,3702.0,3.0,9.2,1.19,0.01,-0.05,0.05,c
2640.0,2788.0,2929.0,3094.0,3523.0,3545.0,2859.0,3709.0,3.06,9.08,1.04,-0.06,0.06,-0.06,c
2863.0,2772.0,2928.0,3103.0,3517.0,3555.0,2874.0,3718.0,3.0,9.21,1.18,-0.01,-0.03,0.02,c
2901.0,2778.0,2930.0,3106.0,3531.0,3566.0,2876.0,3728.0,2.77,8.96,1.27,-0.07,0.05,-0.03,c
2966.0,2770.0,2927.0,3106.0,3533.0,3581.0,2895.0,3746.0,2.77,9.4,1.1,-0.05,0.1,-0.01,c
2971.0,2771.0,2928.0,3107.0,3536.0,3603.0,2906.0,3765.0,2.83,8.75,1.31,-0.04,0.02,-0.03,c
2866.0,2775.0,2933.0,3111.0,3552.0,3604.0,2907.0,3770.0,3.07,9.27,1.27,-0.05,-0.02,0.07,c
2581.0,2778.0,2930.0,3107.0,3583.0,3612.0,2909.0,3760.0,3.05,9.15,1.26,-0.1,0.1,0.01,c
1686.0,2772.0,2929.0,3100.0,3643.0,3618.0,2912.0,3760.0,2.97,9.37,1.36,-0.07,0.06,-0.06,c
2428.0,2769.0,2925.0,3102.0,3639.0,3623.0,2913.0,3761.0,3.3,9.04,1.27,0.05,-0.14,0.08,c
2721.0,2782.0,2912.0,3103.0,3646.0,3583.0,2881.0,3750.0,3.03,9.08,1.33,-0.01,0.01,-0.03,c
2687.0,2786.0,2910.0,3101.0,3668.0,3551.0,2845.0,3692.0,3.06,9.22,1.26,-0.07,0.03,-0.03,c
2733.0,2797.0,2917.0,3097.0,3664.0,3563.0,2855.0,3728.0,2.9,8.91,1.35,0.0,0.01,-0.01,c
2211.0,2794.0,2917.0,3102.0,3660.0,3570.0,2865.0,3703.0,2.74,9.09,1.35,-0.04,0.02,-0.1,c
1488.0,2784.0,2917.0,3103.0,3664.0,3596.0,2897.0,3634.0,3.18,9.32,1.41,-0.1,0.06,0.02,c
1375.0,2789.0,2921.0,3102.0,3691.0,3625.0,2962.0,3600.0,2.68,8.63,1.34,-0.02,-0.04,0.02,c
1562.0,2795.0,2928.0,3113.0,3743.0,3653.0,3010.0,3583.0,3.14,9.62,1.27,-0.07,0.04,-0.02,c
1757.0,2800.0,2927.0,3120.0,3756.0,3661.0,3011.0,3583.0,2.93,9.0,1.38,0.05,-0.04,0.05,c
1839.0,2813.0,2928.0,3127.0,3749.0,3663.0,3006.0,3583.0,2.94,9.01,1.3,-0.06,-0.02,-0.01,c
1829.0,2810.0,2931.0,3125.0,3749.0,3657.0,2991.0,3600.0,3.08,9.28,1.41,0.03,0.02,0.0,c
1831.0,2815.0,2933.0,3129.0,3728.0,3659.0,2981.0,3611.0,3.0,9.17,1.28,-0.05,0.01,-0.02,c
1856.0,2812.0,2934.0,3136.0,3709.0,3654.0,2966.0,3633.0,3.11,9.19,1.13,0.08,-0.08,-0.03,c
1202.0,2832.0,2937.0,3133.0,3664.0,3648.0,2961.0,3664.0,3.04,8.97,1.06,-0.1,0.03,-0.02,c
1310.0,2821.0,2934.0,3136.0,3599.0,3651.0,2973.0,3779.0,2.97,9.57,1.24,-0.01,-0.02,-0.06,c
1268.0,2815.0,2933.0,3152.0,3615.0,3660.0,2986.0,3840.0,3.15,8.83,1.27,-0.01,0.04,-0.17,c
1242.0,2817.0,2941.0,3166.0,3631.0,3664.0,2987.0,3877.0,2.83,9.44,1.02,-0.05,0.04,-0.03,c
1219.0,2823.0,2939.0,3174.0,3627.0,3649.0,2978.0,3888.0,2.94,8.82,1.39,-0.02,-0.13,-0.0,c
1197.0,2815.0,2935.0,3173.0,3632.0,3660.0,2978.0,3891.0,2.65,9.53,1.18,-0.02,0.17,-0.02,c
1182.0,2817.0,2935.0,3190.0,3671.0,3674.0,2999.0,3913.0,2.76,8.78,1.35,-0.1,0.03,0.12,c
1195.0,2816.0,2951.0,3203.0,3665.0,3685.0,2997.0,3909.0,2.94,9.48,1.2,-0.02,0.12,-0.01,c
1185.0,2822.0,2944.0,3218.0,3605.0,3686.0,2975.0,3850.0,3.12,8.65,1.43,-0.02,0.07,0.14,c
1195.0,2815.0,2943.0,3219.0,3611.0,3687.0,2964.0,3834.0,3.16,9.28,1.25,-0.09,0.09,-0.02,c
1195.0,2814.0,2945.0,3106.0,3597.0,3674.0,2935.0,3779.0,3.11,9.07,1.3,-0.06,0.08,-0.06,c
1210.0,2819.0,2941.0,2955.0,3569.0,3664.0,2925.0,3773.0,3.01,9.06,1.24,0.01,-0.03,-0.04,c
1201.0,2823.0,2941.0,2930.0,3549.0,3631.0,2890.0,3773.0,2.87,9.08,1.41,-0.07,-0.05,-0.02,c
1195.0,2815.0,2939.0,2977.0,3549.0,3615.0,2887.0,3788.0,2.96,9.12,1.28,0.01,-0.1,-0.03,c
1188.0,2819.0,2947.0,3021.0,3554.0,3600.0,2884.0,3797.0,2.76,9.27,1.43,-0.01,-0.05,-0.01,c
1193.0,2816.0,2933.0,3104.0,3559.0,3611.0,2909.0,3807.0,3.2,8.64,1.29,0.04,-0.16,-0.0,c
1196.0,2823.0,2924.0,3191.0,3579.0,3629.0,2960.0,3907.0,3.08,9.57,1.34,0.08,-0.04,-0.2,c
1182.0,2819.0,2912.0,3225.0,3610.0,3641.0,3009.0,3984.0,2.69,8.65,1.22,-0.08,-0.06,-0.02,c
1174.0,2817.0,2917.0,3246.0,3632.0,3654.0,3027.0,4039.0,3.13,9.7,1.18,0.07,-0.02,-0.18,c
1180.0,2819.0,2916.0,3247.0,3653.0,3661.0,3071.0,4095.0,2.81,8.62,1.13,-0.21,-0.02,-0.09,c
1183.0,2827.0,2912.0,3216.0,3670.0,3679.0,3141.0,4095.0,2.93,9.22,0.92,-0.1,0.09,-0.17,c
1222.0,2816.0,2926.0,3159.0,3696.0,3695.0,3171.0,4095.0,2.3,9.3,1.65,-0.17,0.09,-0.07,c
1200.0,2819.0,2921.0,3120.0,3674.0,3626.0,3102.0,4095.0,2.79,9.54,1.37,0.03,-0.19,0.01,c
1184.0,2823.0,2914.0,3110.0,3689.0,3632.0,3112.0,4095.0,2.46,9.06,1.49,0.01,0.05,-0.05,c
1187.0,2827.0,2914.0,3117.0,3675.0,3616.0,3105.0,4095.0,2.56,9.44,1.36,-0.07,-0.02,0.01,c
1170.0,2826.0,2912.0,3136.0,3624.0,3574.0,3069.0,4095.0,2.76,8.69,1.32,-0.01,-0.16,0.05,c
1183.0,2826.0,2907.0,3155.0,3645.0,3619.0,3093.0,4095.0,2.51,9.42,1.1,-0.07,0.04,-0.02,c
1195.0,2823.0,2903.0,3203.0,3687.0,3661.0,3118.0,4095.0,2.85,9.05,1.19,-0.09,0.01,0.02,c
1245.0,2828.0,2906.0,3255.0,3725.0,3678.0,3087.0,4053.0,2.75,9.53,1.42,-0.21,0.06,0.03,c
1331.0,2829.0,2914.0,3312.0,3771.0,3728.0,3101.0,3994.0,2.61,8.45,1.7,-0.1,0.17,-0.01,c
1275.0,2829.0,2913.0,3331.0,3763.0,3735.0,3110.0,3999.0,2.78,9.88,1.23,-0.05,0.19,-0.05,c
1422.0,2815.0,2922.0,3351.0,3765.0,3741.0,3119.0,4025.0,2.72,8.73,1.79,-0.05,0.05,-0.07,c
1531.0,2826.0,2935.0,3377.0,3757.0,3777.0,3165.0,4032.0,2.42,9.25,1.24,-0.29,0.29,-0.14,c
1597.0,2817.0,2928.0,3376.0,3751.0,3836.0,3265.0,4051.0,2.71,9.1,1.89,-0.07,-0.13,0.0,c
1389.0,2823.0,2928.0,3376.0,3757.0,3840.0,3270.0,4060.0,2.4,9.08,1.96,-0.11,0.07,0.03,c
1234.0,2832.0,2935.0,3385.0,3746.0,3839.0,3241.0,4077.0,2.85,9.46,1.78,0.04,0.01,0.12,c
1233.0,2822.0,2937.0,3386.0,3759.0,3845.0,3234.0,4057.0,2.84,8.88,1.72,-0.09,0.04,0.01,c
1229.0,2818.0,2945.0,3382.0,3696.0,3856.0,3237.0,4023.0,2.93,9.32,1.81,0.08,0.03,0.08,c
3171.0,2821.0,2932.0,3380.0,3573.0,3840.0,3235.0,3952.0,2.85,8.88,1.83,-0.03,0.08,-0.05,c
3007.0,2812.0,2928.0,3376.0,3583.0,3858.0,3274.0,3924.0,2.75,9.53,1.55,-0.02,0.02,-0.02,c
2757.0,2807.0,2923.0,3371.0,3613.0,3870.0,3275.0,3935.0,2.5,8.74,1.81,-0.04,0.03,0.06,c
2529.0,2803.0,2910.0,3376.0,3647.0,3824.0,3216.0,3913.0,2.67,9.28,1.92,-0.05,0.07,0.03,c
2305.0,2810.0,2927.0,3367.0,3664.0,3811.0,3207.0,3779.0,2.45,8.81,1.52,-0.09,0.07,0.18,c
2713.0,2816.0,2933.0,3373.0,3675.0,3779.0,3137.0,3601.0,2.67,9.09,1.32,-0.06,0.1,-0.04,c
2933.0,2821.0,2944.0,3374.0,3671.0,3703.0,3021.0,3603.0,3.0,9.06,1.77,0.04,-0.15,0.11,c
2927.0,2811.0,2925.0,3376.0,3671.0,3632.0,2939.0,3668.0,2.57,9.31,1.98,-0.11,0.15,-0.08,c
2942.0,2807.0,2923.0,3383.0,3682.0,3612.0,2923.0,3679.0,3.18,8.95,1.59,0.02,-0.08,0.05,c
3006.0,2815.0,2925.0,3387.0,3693.0,3562.0,2859.0,3645.0,2.68,8.71,1.74,0.01,-0.05,0.01,c
2971.0,2810.0,2930.0,3383.0,3681.0,3579.0,2874.0,3600.0,2.68,9.33,1.61,-0.06,0.12,-0.06,c
2993.0,2820.0,2937.0,3294.0,3691.0,3599.0,2880.0,3569.0,3.12,8.98,1.94,0.03,-0.0,0.05,c
2927.0,2784.0,2900.0,3175.0,3559.0,3440.0,2706.0,3360.0,2.64,8.85,1.46,-0.18,0.08,-0.02,c
2848.0,2789.0,2923.0,3071.0,3550.0,3435.0,2672.0,3324.0,3.17,9.09,1.74,-0.08,0.14,-0.09,c
2786.0,2796.0,2925.0,2993.0,3560.0,3459.0,2707.0,3348.0,2.7,8.95,1.91,-0.11,0.05,0.0,c
2608.0,2797.0,2930.0,2970.0,3580.0,3472.0,2731.0,3382.0,3.0,8.89,1.97,-0.12,-0.07,-0.01,c
2497.0,2801.0,2925.0,3006.0,3618.0,3469.0,2739.0,3394.0,3.06,9.26,1.92,0.02,-0.02,0.02,c
2451.0,2800.0,2918.0,2874.0,3636.0,3483.0,2768.0,3440.0,3.17,8.63,1.86,-0.09,-0.01,-0.05,c
1819.0,2799.0,2928.0,2865.0,3646.0,3497.0,2804.0,3457.0,2.96,9.25,1.82,-0.0,-0.02,-0.04,c
1535.0,2800.0,2917.0,2991.0,3649.0,3488.0,2806.0,3453.0,2.85,8.73,2.08,-0.01,-0.15,0.09,c
1499.0,2800.0,2915.0,2987.0,3661.0,3495.0,2802.0,3462.0,2.73,9.27,1.69,0.03,0.02,-0.01,c
1483.0,2807.0,2918.0,3006.0,3664.0,3494.0,2807.0,3481.0,3.22,8.71,1.92,-0.01,-0.16,0.06,c
1489.0,2802.0,2915.0,3029.0,3665.0,3499.0,2814.0,3504.0,2.83,9.05,1.8,-0.0,0.03,-0.01,c
1668.0,2817.0,2929.0,3036.0,3677.0,3529.0,2866.0,3511.0,3.37,9.02,1.75,0.06,-0.15,0.06,c
1759.0,2796.0,2928.0,3041.0,3665.0,3600.0,2974.0,3598.0,2.67,8.77,1.72,-0.12,-0.09,0.03,c
1899.0,2799.0,2931.0,3065.0,3702.0,3639.0,3069.0,3649.0,3.31,9.43,1.67,0.06,0.09,-0.07,c
1871.0,2819.0,2934.0,3087.0,3695.0,3686.0,3247.0,3680.0,2.79,8.7,1.78,-0.03,0.04,0.07,c
1601.0,2837.0,2934.0,3116.0,3694.0,3743.0,3429.0,3713.0,3.04,8.94,1.53,-0.16,0.4,-0.28,c
1348.0,2848.0,2929.0,3114.0,3704.0,3735.0,3478.0,3653.0,2.86,8.58,1.83,0.09,-0.1,0.07,c
2157.0,2832.0,2930.0,3106.0,3699.0,3663.0,3331.0,3696.0,3.04,9.63,1.85,-0.18,-0.09,-0.07,c
2266.0,2832.0,2922.0,2983.0,3696.0,3682.0,3294.0,3718.0,3.07,8.93,2.0,0.04,0.01,-0.0,c
1957.0,2832.0,2929.0,2911.0,3667.0,3695.0,3270.0,3700.0,2.66,8.89,1.76,-0.11,0.01,0.04,c
1408.0,2847.0,2928.0,2877.0,3663.0,3715.0,3274.0,3685.0,3.31,9.42,1.85,-0.02,0.02,0.01,c
1562.0,2833.0,2927.0,2935.0,3670.0,3699.0,3206.0,3703.0,2.76,8.47,2.07,-0.02,-0.01,0.02,c
2112.0,2831.0,2910.0,2971.0,3680.0,3629.0,3085.0,3713.0,3.15,9.39,1.86,-0.09,-0.05,0.01,c
1947.0,2833.0,2913.0,3011.0,3685.0,3662.0,3125.0,3733.0,3.26,8.83,1.92,0.01,0.0,0.01,c
1616.0,2841.0,2914.0,3053.0,3694.0,3665.0,3136.0,3749.0,3.0,9.08,1.91,-0.11,-0.03,-0.09,c
1731.0,2849.0,2914.0,3164.0,3691.0,3651.0,2999.0,3749.0,2.85,8.64,1.86,0.0,-0.28,0.04,c
1510.0,2844.0,2914.0,3263.0,3660.0,3635.0,2992.0,3790.0,3.33,9.29,1.99,-0.03,-0.11,-0.12,c
1458.0,2837.0,2902.0,3310.0,3665.0,3635.0,3022.0,3829.0,2.93,8.74,1.8,0.06,-0.06,-0.02,c
1572.0,2829.0,2886.0,3450.0,3665.0,3613.0,3021.0,3902.0,3.01,9.22,1.54,0.06,-0.07,-0.09,c
1319.0,2837.0,2879.0,3526.0,3651.0,3606.0,3098.0,3957.0,2.93,8.9,1.94,-0.15,0.22,-0.11,c
1173.0,2864.0,2882.0,3647.0,3727.0,3721.0,3280.0,4095.0,3.2,9.59,1.63,-0.09,0.12,-0.18,c
1160.0,2864.0,2910.0,3696.0,3785.0,3823.0,3425.0,4095.0,2.53,8.26,1.87,-0.04,0.09,0.02,c
1175.0,2854.0,2941.0,3676.0,3778.0,3836.0,3429.0,4095.0,2.45,9.43,1.49,-0.13,0.33,-0.14,c
1185.0,2878.0,2978.0,3645.0,3801.0,3875.0,3424.0,4095.0,2.83,8.88,2.05,0.04,-0.1,-0.0,c
1206.0,2891.0,2967.0,3583.0,3811.0,3870.0,3394.0,4095.0,2.77,9.14,1.64,-0.18,0.21,-0.04,c
1296.0,2890.0,2982.0,3576.0,3835.0,3891.0,3395.0,4095.0,2.89,8.76,1.99,0.05,-0.11,0.05,c
1712.0,2869.0,2979.0,3561.0,3837.0,3920.0,3463.0,4095.0,2.43,8.99,2.0,-0.05,0.13,-0.07,c
2509.0,2878.0,2971.0,3538.0,3888.0,4019.0,3600.0,4095.0,2.81,9.45,1.97,0.13,0.06,0.02,c
4095.0,2877.0,2977.0,3504.0,3904.0,4095.0,3719.0,4095.0,2.54,8.82,1.75,-0.03,0.07,0.04,c
4095.0,2878.0,2971.0,3472.0,3950.0,4095.0,3806.0,4095.0,3.02,9.46,1.69,-0.01,0.1,-0.06,c
4095.0,2874.0,2963.0,3467.0,3996.0,4095.0,3876.0,4095.0,2.57,8.77,2.19,-0.07,0.01,0.05,c
4095.0,2865.0,2971.0,3454.0,3969.0,4095.0,3888.0,4095.0,2.58,9.12,2.04,-0.08,0.03,-0.02,c
4095.0,2873.0,2966.0,3440.0,3849.0,4095.0,3866.0,4095.0,2.55,9.22,1.72,0.09,-0.03,0.09,c
4095.0,2869.0,2974.0,3441.0,3875.0,4095.0,3860.0,4095.0,2.66,8.78,1.91,-0.04,0.04,-0.06,c
4095.0,2868.0,2965.0,3441.0,3924.0,4095.0,3883.0,4095.0,2.65,9.26,1.8,-0.01,0.07,-0.04,c
4095.0,2878.0,2959.0,3445.0,3933.0,4095.0,3882.0,4095.0,2.88,8.8,2.04,-0.01,-0.05,0.02,c
4095.0,2868.0,2966.0,3443.0,3870.0,4095.0,3890.0,4095.0,2.53,9.11,1.56,-0.1,0.04,0.02,c
4095.0,2868.0,2960.0,3440.0,3850.0,4095.0,3872.0,4095.0,2.68,9.2,2.01,0.09,-0.08,0.03,c
4095.0,2878.0,2959.0,3438.0,3778.0,4095.0,3831.0,4095.0,2.82,9.1,1.93,-0.02,0.06,-0.01,c
4095.0,2869.0,2960.0,3427.0,3773.0,4095.0,3837.0,4095.0,2.94,8.97,2.21,-0.09,0.02,0.0,c
4095.0,2873.0,2944.0,3415.0,3815.0,4095.0,3911.0,4095.0,2.71,9.12,1.9,-0.09,0.07,-0.06,c
4095.0,2864.0,2954.0,3424.0,3802.0,4095.0,3889.0,4095.0,2.77,8.81,1.89,0.1,-0.15,0.07,c
2291.0,2873.0,2962.0,3408.0,3849.0,4089.0,3703.0,4095.0,2.59,9.4,1.81,0.13,-0.3,-0.05,c
1936.0,2866.0,2962.0,3392.0,3859.0,4095.0,3699.0,4095.0,3.04,9.12,1.32,-0.08,0.1,-0.07,c
1730.0,2863.0,2959.0,3391.0,3865.0,4095.0,3799.0,4095.0,2.89,9.04,1.9,-0.02,0.18,-0.03,c
1287.0,2863.0,2954.0,3390.0,3867.0,4095.0,3859.0,4095.0,2.42,9.43,1.9,-0.14,0.13,0.0,c
1296.0,2867.0,2961.0,3393.0,3845.0,4095.0,3798.0,4095.0,2.98,8.86,1.65,-0.02,-0.06,0.02,c
1366.0,2869.0,2955.0,3390.0,3822.0,4095.0,3803.0,4095.0,2.92,9.13,1.84,-0.12,0.19,-0.07,c
1328.0,2864.0,2961.0,3385.0,3793.0,4095.0,3818.0,4095.0,2.69,8.87,1.83,-0.13,0.02,0.02,c
1311.0,2878.0,2966.0,3376.0,3779.0,4095.0,3693.0,4025.0,2.17,8.81,1.82,-0.07,-0.07,0.01,c
1280.0,2880.0,2976.0,3367.0,3693.0,3856.0,3152.0,3632.0,3.3,9.24,2.61,-0.04,-0.37,0.17,c
1443.0,2878.0,2985.0,3370.0,3646.0,3782.0,2999.0,3553.0,3.02,8.96,2.12,-0.04,-0.0,-0.04,c
1600.0,2884.0,2971.0,3371.0,3551.0,3623.0,2783.0,3429.0,3.02,8.89,1.9,0.04,-0.19,0.11,c
1833.0,2881.0,2963.0,3371.0,3551.0,3551.0,2706.0,3392.0,3.12,8.83,1.92,-0.17,0.13,-0.06,c
1828.0,2886.0,2960.0,3362.0,3565.0,3597.0,2759.0,3444.0,3.25,9.15,1.74,-0.0,0.05,-0.04,c
1809.0,2878.0,2947.0,3359.0,3578.0,3622.0,2801.0,3443.0,2.61,8.66,2.08,-0.04,-0.01,0.13,c
1398.0,2877.0,2957.0,3360.0,3612.0,3662.0,2875.0,3408.0,2.72,9.12,1.71,-0.16,0.25,-0.02,c
1378.0,2878.0,2963.0,3359.0,3631.0,3677.0,2912.0,3401.0,3.02,8.75,1.97,-0.05,-0.04,0.09,c
1616.0,2880.0,2951.0,3373.0,3627.0,3583.0,2829.0,3286.0,3.48,8.77,2.0,-0.12,-0.19,0.12,c
1737.0,2863.0,2960.0,3374.0,3644.0,3555.0,2781.0,3165.0,3.64,9.37,2.22,-0.04,-0.13,0.16,c
1744.0,2864.0,2960.0,3361.0,3659.0,3603.0,2846.0,3248.0,2.97,8.42,2.04,-0.01,0.02,-0.12,c
2769.0,2852.0,2947.0,3358.0,3645.0,3617.0,2864.0,3344.0,3.28,9.44,1.93,0.07,-0.05,-0.03,c
3093.0,2861.0,2937.0,3372.0,3642.0,3632.0,2903.0,3344.0,3.11,8.42,2.08,-0.01,-0.05,0.03,c
3130.0,2864.0,2931.0,3361.0,3634.0,3653.0,2928.0,3347.0,3.21,9.29,1.5,-0.06,0.2,-0.1,c
3136.0,2877.0,2939.0,3360.0,3639.0,3664.0,2937.0,3381.0,3.02,8.17,2.27,-0.07,-0.07,0.0,c
3071.0,2877.0,2933.0,3351.0,3635.0,3669.0,2937.0,3366.0,3.23,9.3,2.08,-0.04,-0.05,-0.01,c
3071.0,2874.0,2943.0,3349.0,3647.0,3674.0,2928.0,3371.0,3.31,8.63,2.15,0.13,-0.1,-0.0,c
3092.0,2878.0,2945.0,3357.0,3629.0,3666.0,2909.0,3390.0,2.97,9.27,1.55,-0.05,0.0,-0.07,c
3031.0,2875.0,2947.0,3346.0,3629.0,3675.0,2946.0,3408.0,3.46,8.76,1.88,-0.03,0.06,-0.05,c
3018.0,2885.0,2959.0,3355.0,3637.0,3710.0,3005.0,3431.0,2.98,8.87,1.78,-0.14,0.19,-0.12,c
2017.0,2880.0,2951.0,3360.0,3678.0,3760.0,3039.0,3493.0,2.94,8.96,2.13,-0.17,0.12,-0.08,c
2502.0,2894.0,2942.0,3322.0,3760.0,3734.0,3028.0,3519.0,3.22,9.2,2.33,0.05,-0.07,0.01,c
2121.0,2894.0,2954.0,3328.0,3760.0,3729.0,3027.0,3527.0,3.17,8.63,2.12,-0.02,-0.03,-0.02,c
1915.0,2896.0,2953.0,3328.0,3682.0,3754.0,3056.0,3495.0,3.31,9.45,1.91,0.11,0.05,-0.01,c
1639.0,2897.0,2962.0,3333.0,3697.0,3801.0,3133.0,3554.0,3.43,8.62,2.1,-0.15,0.1,-0.1,c
1574.0,2891.0,2969.0,3324.0,3722.0,3849.0,3232.0,3731.0,2.83,9.19,1.9,0.03,-0.03,-0.02,c
1657.0,2891.0,2975.0,3322.0,3735.0,3856.0,3201.0,3813.0,3.26,8.85,1.99,-0.01,-0.05,-0.18,c
1616.0,2903.0,2928.0,3332.0,3777.0,3783.0,3087.0,3806.0,2.92,9.04,2.62,0.32,-0.37,0.13,c
1531.0,2903.0,2867.0,3295.0,3809.0,3894.0,3276.0,3965.0,2.75,9.24,1.41,0.03,0.15,-0.11,c
1455.0,2895.0,2815.0,3245.0,3843.0,4048.0,3526.0,4095.0,2.51,8.9,1.8,0.15,0.22,-0.09,c
1379.0,2892.0,2864.0,3228.0,3787.0,4066.0,3575.0,4095.0,2.29,9.0,1.15,-0.15,0.29,0.04,c
1383.0,2895.0,2906.0,3245.0,3734.0,4011.0,3408.0,4095.0,3.91,8.99,1.69,0.02,-0.07,-0.04,c
1393.0,2891.0,2949.0,3267.0,3711.0,3966.0,3279.0,4049.0,2.94,8.82,1.99,-0.01,-0.13,0.03,c
1264.0,2900.0,2959.0,3188.0,3662.0,3910.0,3213.0,4063.0,2.66,9.75,1.95,0.01,-0.02,-0.04,c
1245.0,2902.0,2963.0,3082.0,3637.0,3905.0,3203.0,4095.0,3.19,8.69,1.91,0.05,-0.11,0.04,c
1231.0,2905.0,2961.0,3019.0,3583.0,3845.0,3109.0,4095.0,2.49,9.27,1.43,-0.13,0.18,-0.09,c
1214.0,2909.0,2960.0,2987.0,3569.0,3815.0,3071.0,4095.0,3.35,9.15,1.65,0.04,-0.06,0.02,c
3139.0,2965.0,3095.0,2881.0,4095.0,3616.0,2887.0,3901.0,2.11,9.25,0.49,-0.0,-0.08,0.06,d
3139.0,2950.0,3092.0,2883.0,4095.0,3626.0,2891.0,3915.0,2.16,9.57,0.32,-0.07,0.04,-0.09,d
3147.0,2955.0,3093.0,2896.0,4095.0,3632.0,2897.0,3920.0,2.08,9.56,0.55,0.04,0.01,-0.0,d
3149.0,2959.0,3096.0,2900.0,4095.0,3639.0,2899.0,3921.0,1.87,9.54,0.4,-0.05,0.01,-0.03,d
3151.0,2951.0,3091.0,2903.0,4095.0,3643.0,2902.0,3927.0,2.12,9.57,0.28,0.03,-0.0,0.01,d
3146.0,2959.0,3093.0,2911.0,4095.0,3645.0,2903.0,3926.0,2.04,9.16,0.39,-0.04,-0.02,0.01,d
3152.0,2951.0,3093.0,2912.0,4095.0,3646.0,2905.0,3931.0,2.13,9.56,0.35,-0.0,-0.02,-0.03,d
3235.0,2959.0,3102.0,2915.0,4095.0,3638.0,2903.0,3933.0,2.03,9.45,0.28,0.05,0.0,-0.05,d
3285.0,2959.0,3101.0,2917.0,4095.0,3641.0,2902.0,3932.0,1.92,9.42,0.26,-0.02,0.01,-0.03,d
3258.0,2954.0,3102.0,2915.0,4095.0,3629.0,2902.0,3938.0,2.02,9.66,0.4,-0.04,0.03,0.0,d
3273.0,2955.0,3103.0,2921.0,4095.0,3632.0,2907.0,3938.0,2.07,9.37,0.41,0.04,-0.01,0.02,d
3340.0,2944.0,3091.0,2919.0,4095.0,3637.0,2903.0,3944.0,2.15,9.49,0.28,-0.07,0.01,-0.06,d
4095.0,2949.0,3088.0,2869.0,4095.0,3583.0,2861.0,3935.0,2.84,9.45,0.41,0.04,-0.09,-0.09,d
4095.0,2950.0,3088.0,2870.0,4095.0,3563.0,2848.0,3947.0,1.75,9.32,0.41,-0.07,0.06,-0.07,d
4095.0,2954.0,3097.0,2873.0,4095.0,3547.0,2849.0,3938.0,2.17,9.68,0.13,0.03,-0.02,0.01,d
3396.0,2953.0,3101.0,2875.0,4095.0,3521.0,2838.0,3941.0,2.01,9.33,0.21,-0.03,-0.0,0.03,d
3057.0,2939.0,3088.0,2882.0,4095.0,3485.0,2832.0,3929.0,2.05,9.61,0.06,-0.05,-0.01,-0.02,d
3010.0,2944.0,3089.0,2879.0,4095.0,3479.0,2829.0,3920.0,1.79,9.39,0.33,-0.0,0.02,0.01,d
2909.0,2914.0,3087.0,2882.0,4095.0,3465.0,2822.0,3872.0,2.26,9.62,0.29,-0.09,-0.04,0.01,d
2910.0,2925.0,3088.0,2871.0,4095.0,3469.0,2823.0,3866.0,2.1,9.45,0.32,-0.0,0.05,-0.06,d
2867.0,2915.0,3083.0,2836.0,4095.0,3461.0,2814.0,3846.0,1.94,9.74,0.27,0.06,-0.02,-0.02,d
2766.0,2914.0,3087.0,2841.0,4095.0,3472.0,2810.0,3844.0,1.92,9.28,0.17,0.03,0.04,-0.03,d
2484.0,2914.0,3081.0,2830.0,4095.0,3467.0,2810.0,3841.0,2.28,9.49,0.11,-0.12,0.01,-0.0,d
2523.0,2915.0,3090.0,2828.0,4095.0,3469.0,2816.0,3829.0,2.04,9.37,0.4,-0.03,-0.02,0.06,d
2016.0,2927.0,3090.0,2838.0,4095.0,3467.0,2817.0,3843.0,2.29,9.57,0.39,0.0,0.06,-0.16,d
1953.0,2922.0,3088.0,2845.0,4095.0,3470.0,2816.0,3846.0,1.49,9.56,0.06,0.02,0.0,0.03,d
2219.0,2926.0,3090.0,2843.0,4095.0,3479.0,2823.0,3845.0,2.21,9.27,0.27,-0.17,-0.14,0.08,d
2480.0,2907.0,3085.0,2838.0,4095.0,3475.0,2827.0,3825.0,2.1,9.81,0.32,0.11,0.01,0.02,d
2497.0,2908.0,3087.0,2855.0,4095.0,3483.0,2833.0,3839.0,2.05,9.15,0.15,0.03,-0.04,-0.01,d
2318.0,2905.0,3081.0,2863.0,4095.0,3519.0,2821.0,3826.0,2.12,9.47,0.09,0.0,-0.13,0.03,d
2058.0,2943.0,3081.0,2858.0,4095.0,3606.0,2810.0,3644.0,1.58,9.43,0.18,0.2,-0.09,-0.01,d
2997.0,2948.0,3057.0,2851.0,4095.0,3603.0,2804.0,3527.0,2.07,9.91,-0.17,0.02,0.04,0.02,d
2985.0,2953.0,3062.0,2859.0,4095.0,3631.0,2819.0,3549.0,2.06,8.7,-0.06,-0.05,0.06,0.04,d
2224.0,2914.0,3053.0,2850.0,4095.0,3629.0,2811.0,3577.0,2.34,9.73,-0.19,-0.24,0.09,-0.05,d
2734.0,2910.0,3061.0,2843.0,4095.0,3664.0,2823.0,3632.0,2.08,9.42,0.41,0.02,-0.02,0.06,d
2807.0,2923.0,3083.0,2861.0,4095.0,3670.0,2825.0,3657.0,1.76,9.12,0.06,-0.08,0.07,-0.05,d
3083.0,2923.0,3082.0,2864.0,4095.0,3713.0,2853.0,3696.0,2.2,10.01,0.11,-0.01,-0.1,0.1,d
3631.0,2874.0,3065.0,2865.0,4095.0,3761.0,2874.0,3728.0,2.18,9.03,0.19,-0.01,0.06,-0.13,d
3801.0,2771.0,3056.0,2886.0,4095.0,3773.0,2865.0,3671.0,2.34,9.75,0.14,0.14,-0.34,0.01,d
3776.0,2671.0,3071.0,2915.0,4095.0,3854.0,2835.0,3575.0,2.32,9.14,0.34,0.04,-0.24,0.05,d
3707.0,2585.0,3083.0,2929.0,4095.0,3889.0,2845.0,3511.0,2.2,9.42,-0.39,0.04,0.09,-0.04,d
3362.0,2613.0,3096.0,2912.0,4095.0,3861.0,2867.0,3559.0,2.44,8.97,0.0,0.14,0.01,-0.02,d
3255.0,2528.0,3085.0,2907.0,4095.0,3814.0,2880.0,3682.0,1.7,10.1,-0.3,-0.0,0.2,-0.09,d
4019.0,2275.0,3084.0,3057.0,4095.0,3871.0,2934.0,3865.0,2.14,8.57,-0.14,-0.02,-0.06,0.1,d
4095.0,2352.0,3091.0,3152.0,4095.0,3862.0,2937.0,3924.0,1.95,9.45,-0.24,-0.11,0.12,-0.14,d
4095.0,2357.0,3095.0,3126.0,4095.0,3855.0,2897.0,3839.0,2.44,9.55,-0.12,0.12,-0.28,0.11,d
4095.0,2064.0,3093.0,3055.0,4095.0,3697.0,2782.0,3669.0,2.31,10.15,-0.06,0.35,-0.01,-0.23,d
4095.0,1960.0,3071.0,3013.0,4095.0,3600.0,2750.0,3648.0,2.3,9.52,-0.47,-0.01,0.01,-0.02,d
4095.0,1904.0,3063.0,2992.0,4095.0,3674.0,2773.0,3664.0,2.27,9.55,-0.19,0.21,-0.12,0.05,d
4095.0,1835.0,3013.0,3009.0,4095.0,3689.0,2766.0,3606.0,1.89,9.14,-0.55,-0.28,0.11,-0.11,d
3583.0,1798.0,3013.0,2999.0,4095.0,3686.0,2763.0,3621.0,2.34,10.03,-0.25,0.15,-0.03,-0.02,d
3431.0,1789.0,3029.0,2951.0,4095.0,3749.0,2785.0,3677.0,1.37,8.58,-0.35,-0.27,0.12,0.05,d
3893.0,1748.0,3044.0,2961.0,4095.0,3769.0,2792.0,3680.0,2.02,9.82,-0.63,-0.21,0.05,-0.13,d
4095.0,1757.0,3046.0,2933.0,4095.0,3744.0,2766.0,3628.0,2.19,9.32,0.06,0.21,-0.09,0.06,d
4095.0,1747.0,3053.0,2937.0,4095.0,3745.0,2769.0,3630.0,1.76,9.46,-0.32,-0.02,-0.02,0.04,d
4095.0,1755.0,3051.0,2956.0,4095.0,3767.0,2785.0,3645.0,2.19,9.59,-0.78,-0.0,0.02,-0.04,d
4095.0,1764.0,3049.0,2953.0,4095.0,3751.0,2783.0,3683.0,1.62,8.96,-0.09,-0.13,-0.02,-0.01,d
4095.0,1776.0,3049.0,2954.0,4095.0,3750.0,2797.0,3718.0,2.32,10.24,-0.32,0.02,0.0,-0.01,d
3575.0,1767.0,3045.0,2967.0,4095.0,3767.0,2822.0,3792.0,1.7,8.66,0.12,-0.03,0.06,-0.03,d
3136.0,1769.0,3044.0,2960.0,4095.0,3787.0,2842.0,3825.0,2.14,9.96,-0.56,-0.16,0.05,-0.07,d
3002.0,1753.0,3050.0,2925.0,4095.0,3794.0,2850.0,3839.0,1.97,9.07,0.07,0.1,0.05,0.01,d
2965.0,1761.0,3046.0,2930.0,4095.0,3793.0,2850.0,3846.0,1.84,9.73,-0.39,-0.23,0.15,-0.02,d
2940.0,1759.0,3048.0,2938.0,4095.0,3792.0,2852.0,3855.0,2.45,9.74,0.14,-0.12,-0.04,-0.0,d
2537.0,1749.0,3042.0,2917.0,4095.0,3798.0,2850.0,3861.0,1.68,8.66,0.29,-0.19,0.09,-0.04,d
2459.0,1757.0,3043.0,2878.0,4095.0,3728.0,2848.0,3861.0,2.3,10.01,-0.11,0.06,-0.04,-0.09,d
2731.0,1750.0,3045.0,2861.0,4095.0,3743.0,2857.0,3867.0,1.41,8.91,0.6,0.16,-0.05,0.09,d
2922.0,1820.0,3042.0,2869.0,4095.0,3809.0,2875.0,3914.0,2.09,10.33,-0.73,-0.16,0.13,-0.11,d
2859.0,1876.0,3042.0,2894.0,4095.0,3839.0,2901.0,3946.0,1.8,8.47,-0.23,-0.25,0.06,-0.03,d
3189.0,1902.0,3045.0,2895.0,4095.0,3737.0,2866.0,3917.0,2.29,9.8,-0.02,0.09,-0.09,0.03,d
3120.0,1902.0,3053.0,2879.0,4095.0,3699.0,2861.0,3903.0,1.81,9.39,0.11,-0.08,0.05,0.0,d
3937.0,1895.0,3051.0,2867.0,4095.0,3766.0,2874.0,3915.0,2.6,10.12,-0.2,0.12,-0.05,-0.05,d
4095.0,1913.0,3043.0,2870.0,4095.0,3783.0,2881.0,3921.0,1.83,9.34,-0.11,-0.11,0.06,-0.09,d
4095.0,1941.0,3040.0,2882.0,4095.0,3713.0,2851.0,3871.0,2.19,9.69,-0.09,0.1,-0.07,-0.04,d
3608.0,1963.0,3042.0,2957.0,4095.0,3568.0,2785.0,3787.0,1.9,9.34,0.14,0.22,0.05,-0.08,d
3509.0,1885.0,3053.0,2992.0,4095.0,3600.0,2794.0,3805.0,1.72,9.6,-0.27,-0.33,0.24,-0.22,d
3344.0,1769.0,3087.0,3041.0,4095.0,3621.0,2832.0,3796.0,1.82,9.69,-0.01,0.2,-0.14,-0.1,d
3483.0,1797.0,3089.0,2993.0,4095.0,3633.0,2845.0,3749.0,1.24,8.89,-0.06,-0.25,0.16,-0.21,d
3440.0,1853.0,3101.0,2954.0,4095.0,3657.0,2867.0,3760.0,1.54,9.77,-0.36,-0.04,-0.02,0.02,d
3274.0,1892.0,3105.0,2978.0,4095.0,3567.0,2864.0,3735.0,1.7,9.26,-0.14,-0.02,-0.06,-0.06,d
3069.0,1995.0,3106.0,3034.0,4095.0,3455.0,2838.0,3703.0,1.95,10.0,-0.31,-0.01,0.14,0.01,d
2873.0,2784.0,3099.0,3152.0,4095.0,3372.0,2815.0,3653.0,1.86,9.8,0.15,-0.15,0.13,-0.04,d
2926.0,2816.0,3089.0,3166.0,4095.0,3461.0,2847.0,3660.0,2.16,9.09,-0.17,-0.0,0.07,-0.15,d
3162.0,2830.0,3099.0,3156.0,4095.0,3535.0,2864.0,3698.0,1.47,10.01,-0.34,-0.12,0.14,-0.11,d
3541.0,2867.0,3116.0,3184.0,4095.0,3625.0,2874.0,3749.0,1.84,9.17,0.37,0.01,-0.14,0.03,d
3550.0,2880.0,3109.0,3193.0,4095.0,3699.0,2864.0,3778.0,1.1,9.86,0.0,0.01,-0.07,0.01,d
3427.0,2878.0,3114.0,3227.0,4095.0,3778.0,2873.0,3840.0,1.76,9.9,-0.01,0.01,0.07,-0.04,d
3319.0,2864.0,3111.0,3255.0,4095.0,3837.0,2881.0,3860.0,1.35,8.8,0.15,-0.09,-0.02,0.05,d
3290.0,2864.0,3119.0,3265.0,4095.0,3856.0,2881.0,3861.0,1.93,10.23,-0.31,0.01,0.02,0.0,d
3227.0,2850.0,3114.0,3248.0,4095.0,3828.0,2870.0,3842.0,1.43,8.71,0.23,0.01,0.02,-0.02,d
3226.0,2847.0,3093.0,3243.0,4095.0,3825.0,2869.0,3852.0,1.85,10.07,-0.24,-0.1,-0.0,-0.05,d
3211.0,2843.0,3091.0,3246.0,4095.0,3809.0,2876.0,3861.0,1.67,9.42,0.11,-0.06,0.03,0.03,d
3175.0,2843.0,3088.0,3243.0,4095.0,3771.0,2877.0,3854.0,1.68,9.45,0.1,-0.08,0.01,0.01,d
3184.0,2837.0,3086.0,3245.0,4095.0,3794.0,2876.0,3863.0,1.54,9.93,-0.07,-0.06,0.05,-0.04,d
3181.0,2837.0,3088.0,3247.0,4095.0,3797.0,2883.0,3882.0,1.44,9.25,0.52,-0.08,0.03,0.05,d
3195.0,2855.0,3088.0,3239.0,4095.0,3775.0,2890.0,3903.0,1.89,10.25,-0.05,-0.15,0.25,-0.07,d
3190.0,2826.0,3060.0,3216.0,4095.0,3714.0,2860.0,3869.0,1.82,8.75,0.07,-0.01,-0.12,0.09,d
3250.0,2835.0,3063.0,3199.0,4095.0,3583.0,2839.0,3865.0,2.2,10.09,-0.11,-0.12,0.06,-0.02,d
3215.0,2859.0,3086.0,3198.0,4095.0,3575.0,2854.0,3897.0,1.66,9.56,0.35,0.12,0.01,0.01,d
3498.0,2819.0,3038.0,3168.0,4095.0,3537.0,2811.0,3853.0,1.36,9.68,-0.09,-0.15,-0.1,0.01,d
3515.0,2871.0,3084.0,3117.0,4095.0,3635.0,2879.0,3925.0,1.91,9.73,0.54,0.08,-0.02,0.04,d
3559.0,2867.0,3081.0,3071.0,4095.0,3695.0,2895.0,3926.0,1.72,9.33,0.21,-0.12,0.01,-0.0,d
3568.0,2865.0,3087.0,3083.0,4095.0,3721.0,2901.0,3927.0,1.95,9.96,0.27,-0.02,-0.01,-0.0,d
3611.0,2769.0,3009.0,3108.0,4095.0,3595.0,2826.0,3840.0,1.63,9.29,0.6,-0.1,0.14,-0.1,d
3619.0,2770.0,2992.0,2999.0,4095.0,3570.0,2837.0,3855.0,1.77,9.81,-0.04,0.07,-0.0,-0.04,d
3475.0,2791.0,2995.0,2839.0,4095.0,3536.0,2847.0,3858.0,2.12,9.11,0.17,0.07,-0.12,0.06,d
3216.0,2791.0,2993.0,2710.0,4095.0,3468.0,2842.0,3856.0,1.86,9.83,0.3,0.09,-0.09,0.03,d
3328.0,2798.0,3003.0,2669.0,4095.0,3440.0,2819.0,3862.0,1.67,9.4,0.5,-0.05,-0.03,0.06,d
3792.0,2800.0,2989.0,2723.0,4095.0,3469.0,2815.0,3873.0,2.15,9.63,-0.01,-0.17,0.06,-0.03,d
3663.0,2800.0,2992.0,2820.0,4095.0,3488.0,2832.0,3881.0,1.74,9.09,0.44,0.06,-0.21,0.04,d
3440.0,2800.0,2995.0,3051.0,4095.0,3472.0,2835.0,3888.0,1.53,9.48,-0.05,-0.12,-0.08,-0.02,d
3235.0,2808.0,2986.0,3311.0,4095.0,3440.0,2834.0,3894.0,1.79,9.85,0.31,0.09,-0.07,0.07,d
3905.0,2798.0,2993.0,3287.0,4095.0,3472.0,2829.0,3911.0,1.79,9.01,0.51,-0.15,0.26,-0.09,d
3907.0,2793.0,2995.0,3197.0,4095.0,3535.0,2830.0,3909.0,1.39,10.24,-0.07,-0.16,0.22,0.06,d
3780.0,2798.0,2991.0,3158.0,4095.0,3567.0,2830.0,3897.0,1.77,8.94,0.81,0.03,-0.05,0.03,d
3451.0,2803.0,3010.0,3088.0,4095.0,3613.0,2802.0,3898.0,1.69,9.37,-0.03,-0.24,0.26,-0.13,d
3434.0,2797.0,2999.0,3044.0,4095.0,3601.0,2797.0,3877.0,1.86,9.15,0.76,-0.02,0.05,-0.04,d
3429.0,2770.0,3004.0,3049.0,4095.0,3616.0,2810.0,3871.0,1.42,9.38,0.38,-0.2,0.06,-0.12,d
3505.0,2857.0,3091.0,3055.0,4095.0,3712.0,2926.0,3985.0,1.97,10.08,0.52,0.15,-0.1,-0.03,d
3843.0,2765.0,3004.0,3013.0,4095.0,3533.0,2823.0,3879.0,1.01,8.61,0.83,-0.04,-0.0,0.05,d
4095.0,2935.0,3101.0,2957.0,4095.0,3647.0,2913.0,3995.0,2.21,10.1,0.34,-0.05,-0.11,0.1,d
4095.0,2960.0,3095.0,2989.0,4095.0,3713.0,2929.0,4002.0,1.88,8.94,0.42,0.04,-0.1,0.16,d
4095.0,2977.0,3097.0,3025.0,4095.0,3777.0,2906.0,3987.0,2.32,9.39,0.14,0.07,-0.19,0.12,d
4095.0,2975.0,3095.0,3052.0,4095.0,3820.0,2928.0,3985.0,2.09,9.6,0.46,-0.06,0.01,-0.02,d
3751.0,2962.0,3094.0,3055.0,4095.0,3902.0,2990.0,4031.0,1.42,8.87,0.49,-0.08,-0.08,0.05,d
3681.0,2950.0,3088.0,2998.0,4095.0,3969.0,3034.0,4063.0,2.22,9.87,0.33,-0.03,-0.01,-0.07,d
3376.0,2939.0,3089.0,3001.0,4095.0,4069.0,3101.0,4095.0,1.88,8.95,0.49,-0.0,0.07,0.15,d
3281.0,2835.0,2993.0,3030.0,4095.0,3984.0,3024.0,4007.0,2.22,9.81,0.26,-0.23,0.16,-0.15,d
3238.0,2800.0,2986.0,3021.0,4095.0,4050.0,3082.0,4027.0,1.66,9.61,0.47,0.02,0.08,0.03,d
3217.0,2792.0,2991.0,3007.0,4095.0,4069.0,3091.0,3999.0,2.04,9.27,0.5,-0.13,-0.04,-0.0,d
3207.0,2783.0,2978.0,2990.0,4095.0,4047.0,3085.0,4007.0,2.31,10.15,0.36,0.07,0.08,-0.07,d
3200.0,2796.0,2991.0,2992.0,4095.0,4026.0,3030.0,3975.0,1.85,8.97,0.37,-0.07,-0.05,-0.04,d
3195.0,2791.0,2982.0,2999.0,4095.0,4043.0,3050.0,3985.0,1.95,9.62,0.21,-0.1,-0.02,0.01,d
3200.0,2769.0,2988.0,2919.0,4095.0,4070.0,3101.0,4045.0,2.28,9.47,0.58,-0.05,0.12,0.0,d
3195.0,2773.0,2990.0,2939.0,4095.0,4073.0,3145.0,4051.0,1.88,9.38,0.53,-0.06,0.06,-0.03,d
3182.0,2757.0,2992.0,2960.0,4095.0,4084.0,3181.0,4059.0,2.33,9.52,0.47,-0.03,-0.02,0.02,d
3175.0,2768.0,2992.0,2963.0,4095.0,4073.0,3167.0,4059.0,1.64,9.34,0.57,0.05,0.12,-0.14,d
3174.0,2773.0,2998.0,2946.0,4095.0,4068.0,3133.0,4055.0,2.07,9.39,0.51,-0.07,-0.08,0.0,d
3178.0,2777.0,2991.0,2958.0,4095.0,4066.0,3134.0,4078.0,2.09,9.62,0.42,-0.03,0.08,-0.03,d
3179.0,2780.0,2992.0,2956.0,4095.0,4064.0,3121.0,4057.0,2.08,9.36,0.64,-0.03,-0.09,0.05,d
3182.0,2759.0,2992.0,2971.0,4095.0,4083.0,3154.0,4080.0,2.09,9.65,0.54,-0.09,0.1,-0.04,d
3181.0,2766.0,2991.0,2980.0,4095.0,4091.0,3191.0,4066.0,2.25,9.53,0.75,0.05,-0.02,0.04,d
3163.0,2763.0,2989.0,2997.0,4095.0,4095.0,3235.0,4047.0,1.8,9.02,0.25,-0.15,0.06,-0.07,d
3155.0,2767.0,2992.0,3004.0,4095.0,4095.0,3241.0,4055.0,2.0,9.88,0.19,-0.04,0.02,-0.03,d
3162.0,2767.0,2997.0,2998.0,4095.0,4095.0,3216.0,4082.0,1.86,9.4,0.73,-0.0,0.02,-0.02,d
3167.0,2768.0,2991.0,3002.0,4095.0,4095.0,3228.0,4095.0,2.17,9.62,0.35,-0.13,0.04,-0.04,d
3169.0,2768.0,2992.0,2987.0,4095.0,4095.0,3216.0,4095.0,1.97,9.33,0.65,-0.01,-0.07,0.08,d
3239.0,2777.0,2995.0,2981.0,4095.0,4026.0,3110.0,4095.0,2.14,9.45,0.99,-0.06,-0.15,0.01,d
3245.0,2778.0,2992.0,2988.0,4095.0,4016.0,3087.0,4095.0,2.06,9.9,0.53,0.01,0.03,-0.02,d
3247.0,2783.0,2992.0,3007.0,4095.0,3988.0,3052.0,4087.0,1.55,8.85,0.71,-0.07,-0.01,-0.05,d
3431.0,2800.0,2990.0,3083.0,4095.0,3815.0,2906.0,3952.0,2.51,10.08,0.85,0.18,-0.14,-0.0,d
3309.0,2800.0,2997.0,3099.0,4095.0,3844.0,2877.0,3886.0,2.17,9.3,0.73,-0.13,0.05,0.03,d
3173.0,2794.0,2996.0,3085.0,4095.0,3856.0,2838.0,3792.0,1.78,9.38,0.4,-0.09,0.09,-0.05,d
3191.0,2790.0,2999.0,3039.0,4095.0,3758.0,2746.0,3647.0,2.27,9.44,0.82,0.0,-0.18,0.05,d
3216.0,2807.0,2991.0,2999.0,4095.0,3707.0,2690.0,3566.0,1.89,9.44,0.7,-0.14,0.04,-0.02,d
3223.0,2800.0,2993.0,2969.0,4095.0,3708.0,2685.0,3551.0,2.26,9.56,0.48,-0.08,-0.02,-0.04,d
3318.0,2798.0,2994.0,2986.0,4095.0,3539.0,2619.0,3499.0,1.87,9.34,0.91,0.0,0.05,0.06,d
3338.0,2796.0,3010.0,2997.0,4095.0,3559.0,2639.0,3505.0,2.22,9.27,0.81,-0.17,0.15,-0.13,d
3307.0,2791.0,2997.0,3011.0,4095.0,3620.0,2678.0,3564.0,2.05,9.48,0.66,-0.02,0.04,-0.01,d
3289.0,2786.0,3008.0,3021.0,4095.0,3632.0,2697.0,3602.0,1.86,9.3,0.82,-0.0,0.0,-0.01,d
3277.0,2790.0,2997.0,3027.0,4095.0,3648.0,2703.0,3627.0,2.13,9.67,0.62,-0.09,0.01,-0.04,d
3302.0,2785.0,3003.0,3019.0,4095.0,3661.0,2704.0,3631.0,1.98,9.45,0.81,-0.0,0.01,0.09,d
3302.0,2771.0,3005.0,3027.0,4095.0,3654.0,2705.0,3600.0,1.93,9.24,0.59,-0.21,0.08,-0.08,d
3348.0,2773.0,3007.0,3042.0,4095.0,3645.0,2711.0,3608.0,2.07,9.4,0.87,0.06,-0.14,0.19,d
3484.0,2802.0,3021.0,3147.0,4095.0,3600.0,2707.0,3622.0,1.85,9.25,0.8,0.04,-0.31,0.24,d
4095.0,2814.0,3001.0,3248.0,4095.0,3526.0,2703.0,3646.0,3.0,9.73,0.27,0.07,0.12,-0.08,d
4095.0,2810.0,2995.0,3241.0,4095.0,3612.0,2736.0,3694.0,1.77,9.13,0.52,-0.26,0.32,-0.07,d
4095.0,2814.0,3001.0,3242.0,4095.0,3614.0,2725.0,3632.0,2.85,9.26,1.02,-0.2,-0.19,0.08,d
4095.0,2813.0,3007.0,3247.0,4095.0,3527.0,2662.0,3555.0,2.39,9.69,1.28,0.12,0.02,-0.01,d
4095.0,2823.0,3005.0,3248.0,4095.0,3600.0,2718.0,3635.0,2.11,9.09,1.15,-0.07,-0.1,0.04,d
4095.0,2816.0,2996.0,3258.0,4095.0,3632.0,2752.0,3695.0,2.2,9.66,0.45,-0.08,-0.06,0.05,d
4095.0,2817.0,3002.0,3256.0,4095.0,3632.0,2768.0,3697.0,2.92,9.0,0.86,0.2,-0.11,0.05,d
3141.0,2817.0,3006.0,3241.0,4095.0,3562.0,2753.0,3696.0,2.16,9.33,0.76,-0.07,-0.03,-0.03,d
3387.0,2817.0,3002.0,3201.0,4095.0,3583.0,2758.0,3693.0,2.43,9.68,0.82,0.22,-0.04,0.0,d
4095.0,2823.0,3007.0,3144.0,4095.0,3611.0,2760.0,3690.0,2.08,9.05,0.7,-0.19,-0.06,-0.06,d
3984.0,2817.0,2992.0,2974.0,4095.0,3602.0,2754.0,3681.0,2.76,10.1,0.55,0.18,-0.05,-0.08,d
3503.0,2822.0,2993.0,2940.0,4095.0,3583.0,2739.0,3684.0,1.52,8.61,0.73,-0.11,0.04,0.04,d
3425.0,2823.0,2981.0,2960.0,4095.0,3618.0,2766.0,3728.0,3.11,9.93,0.62,0.04,0.01,-0.05,d
3479.0,2850.0,2982.0,3013.0,4095.0,3642.0,2813.0,3763.0,2.06,9.11,0.66,-0.01,0.07,0.1,d
3533.0,2853.0,2977.0,3055.0,4095.0,3645.0,2826.0,3774.0,2.7,9.68,0.44,-0.06,-0.06,-0.11,d
3673.0,2861.0,2994.0,3068.0,4095.0,3650.0,2819.0,3765.0,1.94,8.75,0.83,0.02,-0.0,0.11,d
3838.0,2862.0,2979.0,3123.0,4095.0,3670.0,2835.0,3802.0,2.52,9.93,0.5,-0.03,0.01,-0.16,d
4095.0,2877.0,2977.0,3297.0,4095.0,3725.0,2925.0,3813.0,2.07,8.69,0.65,0.08,-0.02,0.05,d
4095.0,2890.0,2998.0,3329.0,4095.0,3772.0,3009.0,3813.0,2.48,10.19,0.39,0.05,-0.08,-0.08,d
4095.0,2895.0,3056.0,3307.0,4095.0,3833.0,3198.0,3872.0,2.56,9.05,0.77,0.16,-0.17,-0.01,d
4095.0,2864.0,3054.0,3296.0,4095.0,3831.0,3303.0,3903.0,1.88,9.38,0.25,-0.21,0.18,-0.02,d
4095.0,2878.0,3062.0,3285.0,4095.0,3837.0,3265.0,3878.0,2.66,9.56,0.19,0.07,-0.04,0.01,d
4095.0,2903.0,3071.0,3279.0,4095.0,3842.0,3230.0,3845.0,1.92,8.56,0.67,-0.09,-0.11,0.09,d
4095.0,2942.0,3101.0,3247.0,4095.0,3874.0,3241.0,3936.0,2.52,10.34,0.12,-0.01,-0.06,0.01,d
4095.0,2943.0,3102.0,3248.0,4095.0,3883.0,3226.0,4023.0,2.19,8.68,0.53,0.08,0.02,0.04,d
4095.0,2960.0,3098.0,3267.0,4095.0,3872.0,3211.0,4085.0,2.67,10.04,0.26,-0.14,0.11,-0.12,d
4095.0,2966.0,3103.0,3305.0,4095.0,3878.0,3191.0,4066.0,2.18,9.44,0.46,0.15,-0.07,0.01,d
4095.0,2971.0,3098.0,3381.0,4095.0,3878.0,3153.0,3995.0,2.28,9.11,0.33,-0.07,0.03,-0.1,d
4095.0,2960.0,3101.0,3426.0,4095.0,3879.0,3152.0,3985.0,2.21,9.7,0.21,0.02,-0.04,0.06,d
4095.0,2964.0,3094.0,3460.0,4095.0,3874.0,3132.0,3989.0,2.13,8.96,0.49,-0.05,0.01,0.01,d
4095.0,2960.0,3092.0,3483.0,4095.0,3874.0,3131.0,3978.0,2.44,9.65,0.27,-0.06,0.03,-0.06,d
4095.0,2939.0,3101.0,3505.0,4095.0,3878.0,3141.0,3926.0,2.56,9.31,0.42,-0.08,0.01,-0.04,d
4095.0,2950.0,3105.0,3506.0,4095.0,3887.0,3152.0,3933.0,2.31,9.57,0.28,0.02,-0.03,-0.0,d
4095.0,2955.0,3088.0,3505.0,4095.0,3882.0,3155.0,3955.0,2.06,9.24,0.5,0.05,0.0,-0.07,d
4095.0,2942.0,3095.0,3507.0,4095.0,3891.0,3163.0,3980.0,2.34,9.3,0.39,-0.0,-0.06,0.02,d
4095.0,2960.0,3092.0,3504.0,4095.0,3887.0,3173.0,4017.0,2.04,9.26,0.19,-0.02,0.07,-0.03,d
4095.0,2970.0,3093.0,3494.0,4095.0,3882.0,3177.0,4045.0,2.4,9.57,0.22,-0.04,-0.08,-0.0,d
4095.0,2969.0,3089.0,3473.0,4095.0,3881.0,3173.0,4060.0,1.79,8.94,0.55,-0.13,0.11,0.03,d
4095.0,2970.0,3099.0,3485.0,4095.0,3887.0,3181.0,4095.0,2.51,10.05,0.28,0.05,0.11,-0.09,d
4095.0,2961.0,3093.0,3503.0,4095.0,3889.0,3183.0,4095.0,2.28,8.88,0.62,-0.08,-0.06,0.06,d
4095.0,2975.0,3093.0,3489.0,4095.0,3886.0,3179.0,4095.0,2.21,9.62,0.37,-0.02,0.04,-0.08,d
4095.0,2973.0,3088.0,3482.0,4095.0,3888.0,3183.0,4095.0,2.52,9.27,0.52,-0.05,-0.04,0.01,d
4095.0,2974.0,3095.0,3468.0,4095.0,3879.0,3174.0,4095.0,2.13,9.33,0.59,0.1,0.14,-0.13,d
4095.0,2960.0,3091.0,3419.0,4095.0,3839.0,3157.0,4095.0,2.38,9.48,0.33,-0.12,0.16,-0.19,d
4095.0,2974.0,3093.0,3402.0,4095.0,3847.0,3165.0,4095.0,1.97,9.72,0.29,0.14,-0.0,-0.08,d
4095.0,2898.0,3010.0,3392.0,4095.0,3751.0,3087.0,4022.0,2.61,9.18,0.58,-0.14,0.07,-0.19,d
3899.0,2885.0,3004.0,3387.0,4095.0,3760.0,3081.0,4038.0,2.08,9.67,0.28,0.03,0.65,-0.71,d
3869.0,2871.0,2988.0,3373.0,4095.0,3741.0,3062.0,3999.0,0.98,9.83,0.15,0.15,0.2,-0.15,d
3701.0,2846.0,2962.0,3346.0,4095.0,3696.0,3031.0,3934.0,0.96,9.42,0.39,-0.17,0.2,-0.32,d
3583.0,2850.0,2963.0,3344.0,4095.0,3718.0,3043.0,3952.0,1.68,10.28,0.25,0.18,0.01,0.01,d
3573.0,2855.0,2969.0,3355.0,4095.0,3728.0,3042.0,3963.0,0.65,8.68,0.17,-0.03,0.07,-0.04,d
3620.0,2863.0,2979.0,3354.0,4095.0,3738.0,3054.0,3984.0,1.93,10.01,-0.02,-0.03,-0.01,-0.05,d
3702.0,2869.0,2990.0,3346.0,4095.0,3761.0,3058.0,4000.0,1.17,9.21,0.38,-0.03,0.46,-0.26,d
3743.0,2881.0,2986.0,3350.0,4095.0,3771.0,3056.0,4013.0,0.56,10.07,-0.1,-0.14,0.25,-0.05,d
3610.0,2864.0,2992.0,3329.0,4095.0,3760.0,3053.0,3999.0,1.61,9.71,0.47,-0.18,0.33,-0.02,d
3286.0,2867.0,2982.0,3318.0,4095.0,3710.0,3039.0,3996.0,1.34,9.4,1.09,-0.05,0.14,0.04,d
3138.0,2865.0,2997.0,3351.0,4095.0,3664.0,3033.0,4023.0,1.3,9.47,0.83,-0.05,0.09,-0.14,d
3133.0,2899.0,3024.0,3407.0,4095.0,3696.0,3071.0,4095.0,0.85,9.95,0.25,0.11,0.24,-0.21,d
3147.0,2903.0,3050.0,3435.0,4095.0,3725.0,3109.0,4095.0,0.95,9.06,-0.13,0.02,0.05,-0.04,d
3201.0,2903.0,3033.0,3380.0,4095.0,3701.0,3091.0,4069.0,1.23,9.75,-0.2,0.15,-0.17,-0.03,d
3475.0,2896.0,3027.0,3466.0,4095.0,3599.0,3024.0,3970.0,1.19,9.64,0.38,-0.19,-0.22,0.08,d
3425.0,2887.0,3024.0,3620.0,4095.0,3629.0,2971.0,3805.0,0.13,9.66,0.92,-0.2,0.19,-0.04,d
4095.0,2901.0,3015.0,3809.0,4095.0,3649.0,2913.0,3810.0,1.31,10.06,0.67,0.07,-0.4,0.32,d
4095.0,2907.0,3009.0,4044.0,4095.0,3563.0,2768.0,3674.0,1.44,9.11,0.47,-0.12,-0.09,-0.08,d
4095.0,2921.0,3007.0,3937.0,4095.0,3524.0,2668.0,3472.0,1.77,10.29,0.65,0.13,-0.04,0.03,d
4095.0,2917.0,3003.0,3600.0,4095.0,3534.0,2640.0,3406.0,1.38,8.71,0.58,-0.05,-0.11,-0.1,d
4095.0,2891.0,2991.0,3185.0,4095.0,3471.0,2559.0,3344.0,1.39,10.41,0.09,-0.01,0.07,-0.05,d
4095.0,2887.0,2983.0,3104.0,4095.0,3517.0,2627.0,3414.0,0.84,8.72,0.42,-0.02,0.03,-0.04,d
4095.0,2897.0,2978.0,3095.0,4095.0,3583.0,2691.0,3493.0,1.19,9.56,0.19,-0.08,0.08,-0.15,d
3547.0,2895.0,2986.0,3100.0,4095.0,3625.0,2756.0,3568.0,0.78,10.04,0.2,0.03,0.27,-0.08,d
3242.0,2883.0,2977.0,3119.0,4095.0,3632.0,2783.0,3601.0,1.15,9.35,0.54,-0.14,0.0,0.04,d
3232.0,2896.0,2990.0,3136.0,4095.0,3630.0,2770.0,3583.0,1.55,9.84,0.17,-0.12,0.1,-0.05,d
3214.0,2890.0,2992.0,3139.0,4095.0,3643.0,2771.0,3583.0,1.48,9.61,0.45,0.04,0.02,0.05,d
3168.0,2882.0,2979.0,3145.0,4095.0,3654.0,2784.0,3599.0,0.84,9.3,0.63,-0.14,0.16,-0.08,d
3136.0,2894.0,2983.0,3138.0,4095.0,3643.0,2797.0,3583.0,1.66,9.84,0.45,-0.11,0.05,0.01,d
3130.0,2876.0,2973.0,3147.0,4095.0,3653.0,2799.0,3583.0,1.32,9.32,0.54,0.02,-0.06,0.06,d
3131.0,2896.0,2999.0,3152.0,4095.0,3691.0,2830.0,3597.0,0.72,9.22,0.46,-0.34,0.25,-0.22,d
3136.0,2902.0,3019.0,3163.0,4095.0,3700.0,2839.0,3607.0,1.17,9.86,0.62,-0.14,0.01,0.03,d
3120.0,2899.0,3001.0,3157.0,4095.0,3680.0,2846.0,3606.0,0.19,9.49,0.89,-0.03,-0.06,0.23,d
3127.0,2902.0,3010.0,3164.0,4095.0,3695.0,2848.0,3602.0,1.08,9.16,0.79,-0.11,0.01,-0.05,d
3143.0,2911.0,3011.0,3169.0,4095.0,3697.0,2833.0,3583.0,1.19,10.07,0.59,0.03,-0.06,0.07,d
3174.0,2906.0,3019.0,3185.0,4095.0,3687.0,2826.0,3583.0,1.22,9.15,0.98,-0.0,-0.0,-0.03,d
3238.0,2919.0,3021.0,3216.0,4095.0,3673.0,2823.0,3616.0,1.31,10.16,0.55,-0.06,0.04,0.02,d
3280.0,2913.0,3015.0,3279.0,4095.0,3681.0,2835.0,3644.0,1.07,9.07,0.97,0.11,-0.16,0.12,d
3314.0,2917.0,3005.0,3325.0,4095.0,3676.0,2839.0,3637.0,1.1,9.91,0.47,-0.33,0.11,-0.09,d
3277.0,2900.0,2995.0,3355.0,4095.0,3651.0,2826.0,3601.0,1.48,9.66,1.06,0.12,-0.14,-0.03,d
3271.0,2896.0,2994.0,3401.0,4095.0,3632.0,2815.0,3645.0,1.37,9.57,0.84,-0.21,0.07,-0.01,d
3239.0,2897.0,2993.0,3434.0,4095.0,3565.0,2807.0,3677.0,1.24,9.65,0.7,0.08,0.13,0.08,d
3147.0,2896.0,2992.0,3455.0,4095.0,3534.0,2816.0,3691.0,1.26,8.77,0.84,-0.09,-0.11,0.02,d
3153.0,2903.0,2992.0,3438.0,4095.0,3509.0,2810.0,3690.0,1.01,10.21,0.61,0.01,0.09,-0.08,d
3447.0,2896.0,2992.0,3436.0,4095.0,3509.0,2799.0,3611.0,1.43,9.33,1.1,0.1,-0.11,0.06,d
4095.0,2905.0,3003.0,3447.0,4095.0,3530.0,2801.0,3519.0,0.96,9.31,0.58,-0.26,0.02,-0.07,d
4048.0,2902.0,2999.0,3482.0,4095.0,3504.0,2795.0,3516.0,1.48,9.98,0.73,0.24,-0.28,0.15,d
2662.0,2898.0,2993.0,3519.0,4095.0,3472.0,2771.0,3533.0,1.59,9.27,0.45,-0.16,0.08,0.01,d
2609.0,2907.0,2992.0,3609.0,4095.0,3483.0,2781.0,3572.0,2.06,9.9,0.53,-0.06,-0.09,0.1,d
2595.0,2906.0,3005.0,3632.0,4095.0,3502.0,2800.0,3648.0,1.16,8.92,0.97,-0.1,0.12,0.04,d
2489.0,2907.0,3003.0,3567.0,4095.0,3523.0,2847.0,3765.0,1.58,9.86,0.52,-0.08,0.02,-0.05,d
2502.0,2896.0,3013.0,3488.0,4095.0,3563.0,2909.0,3888.0,1.49,9.01,0.55,-0.08,0.02,0.04,d
2545.0,2903.0,3006.0,3291.0,4095.0,3605.0,2960.0,3991.0,1.48,9.52,0.71,-0.06,-0.14,0.06,d
2490.0,2904.0,2995.0,3120.0,4095.0,3648.0,3013.0,4060.0,1.41,9.62,0.68,-0.11,0.15,-0.02,d
2481.0,2903.0,3004.0,2999.0,4095.0,3679.0,3029.0,4058.0,1.79,9.2,0.85,-0.09,0.04,-0.03,d
2862.0,2906.0,2997.0,2817.0,4095.0,3728.0,3053.0,4053.0,1.57,10.05,0.77,-0.15,0.06,0.06,d
4095.0,2897.0,2995.0,2772.0,4095.0,3768.0,3056.0,4049.0,1.77,9.77,0.91,0.03,0.03,-0.05,d
4095.0,2903.0,2997.0,2813.0,4095.0,3776.0,3049.0,4048.0,1.65,9.34,0.74,0.0,-0.01,-0.01,d
4095.0,2899.0,2995.0,2832.0,4095.0,3767.0,3009.0,4061.0,1.41,9.75,0.74,-0.02,0.02,-0.08,d
4095.0,2897.0,2997.0,2862.0,4095.0,3786.0,3034.0,4080.0,1.39,9.54,1.04,0.08,-0.0,0.01,d
4095.0,2905.0,3008.0,2887.0,4095.0,3806.0,3050.0,4068.0,1.32,9.44,0.62,-0.13,-0.01,0.04,d
4095.0,2891.0,3008.0,2896.0,4095.0,3818.0,3054.0,4074.0,1.94,9.68,0.81,0.07,-0.09,0.02,d
4095.0,2899.0,3006.0,2893.0,4095.0,3820.0,3055.0,4071.0,1.28,8.93,1.09,-0.05,0.02,0.04,d
4095.0,2898.0,3003.0,2871.0,4095.0,3815.0,3041.0,4066.0,1.62,9.98,0.64,-0.04,-0.03,-0.04,d
4095.0,2896.0,3002.0,2871.0,4095.0,3775.0,3024.0,4055.0,1.56,9.15,1.15,0.03,0.07,0.01,d
3280.0,2895.0,2999.0,2885.0,4095.0,3695.0,2989.0,4032.0,1.58,9.86,0.76,-0.07,0.07,-0.03,d
3062.0,2891.0,3003.0,2896.0,4095.0,3649.0,2974.0,3995.0,2.06,9.71,0.81,0.12,0.02,-0.02,d
3103.0,2890.0,3005.0,2927.0,4095.0,3648.0,2934.0,3938.0,1.18,8.88,0.58,-0.05,-0.01,-0.05,d
3183.0,2893.0,3010.0,3040.0,4095.0,3597.0,2825.0,3770.0,1.69,10.34,0.75,0.1,-0.12,0.02,d
3362.0,2889.0,2999.0,3086.0,4095.0,3634.0,2834.0,3712.0,1.7,8.8,0.78,-0.13,0.25,-0.12,d
3363.0,2883.0,3009.0,3122.0,4095.0,3642.0,2841.0,3644.0,1.82,10.32,0.57,-0.11,0.12,-0.15,d
3291.0,2883.0,3002.0,3166.0,4095.0,3671.0,2896.0,3631.0,1.4,8.78,1.16,0.15,0.03,-0.12,d
3249.0,2883.0,3002.0,3182.0,4095.0,3691.0,2907.0,3582.0,1.54,9.84,0.29,-0.22,0.09,-0.22,d
3233.0,2881.0,2999.0,3167.0,4095.0,3664.0,2852.0,3552.0,1.37,9.89,0.69,0.02,-0.12,0.05,d
3221.0,2879.0,3007.0,3137.0,4095.0,3662.0,2834.0,3559.0,1.2,9.56,0.62,-0.15,0.13,-0.16,d
3197.0,2878.0,2995.0,3120.0,4095.0,3678.0,2861.0,3597.0,1.92,9.7,0.99,-0.01,-0.1,-0.06,d
3155.0,2880.0,3013.0,3102.0,4095.0,3665.0,2842.0,3581.0,0.84,8.94,1.28,-0.22,0.12,-0.09,d
3139.0,2881.0,3002.0,3082.0,4095.0,3677.0,2845.0,3583.0,1.21,9.86,1.03,-0.03,-0.03,-0.01,d
3133.0,2878.0,3009.0,3093.0,4095.0,3686.0,2867.0,3598.0,0.68,8.9,1.27,-0.06,0.09,-0.02,d
3142.0,2881.0,3011.0,3086.0,4095.0,3684.0,2864.0,3601.0,1.52,9.9,0.67,-0.05,0.03,-0.07,d
3153.0,2887.0,3014.0,3055.0,4095.0,3664.0,2812.0,3570.0,1.34,9.32,1.05,0.17,-0.19,0.14,d
3171.0,2879.0,3005.0,3066.0,4095.0,3666.0,2816.0,3599.0,1.51,9.37,0.78,-0.21,0.16,-0.17,d
3179.0,2881.0,3003.0,3011.0,4095.0,3615.0,2771.0,3577.0,0.9,9.9,0.91,0.1,-0.03,0.05,d
3211.0,2893.0,3005.0,2942.0,4095.0,3515.0,2679.0,3533.0,1.07,8.68,1.16,-0.09,-0.21,0.03,d
3251.0,2886.0,3006.0,2886.0,4095.0,3461.0,2615.0,3508.0,1.28,10.24,0.61,-0.26,-0.02,-0.03,d
3358.0,2903.0,3019.0,2922.0,4095.0,3433.0,2593.0,3510.0,1.17,9.32,1.14,0.12,-0.17,0.15,d
4095.0,2887.0,3021.0,2953.0,4095.0,3350.0,2544.0,3457.0,1.59,9.4,0.73,0.05,-0.26,0.04,d
4095.0,2835.0,2998.0,2997.0,4095.0,3335.0,2543.0,3490.0,1.99,10.04,0.99,0.07,0.06,-0.06,d
2679.0,2834.0,3006.0,3041.0,4095.0,3328.0,2554.0,3541.0,1.04,9.13,1.13,0.04,-0.02,-0.0,d
2141.0,2843.0,3005.0,3104.0,4095.0,3355.0,2603.0,3597.0,1.42,9.95,0.62,-0.19,0.16,-0.1,d
2304.0,2851.0,3009.0,3121.0,4095.0,3395.0,2626.0,3659.0,1.73,9.44,0.84,0.11,-0.09,0.18,d
2656.0,2841.0,3009.0,3131.0,4095.0,3422.0,2646.0,3711.0,1.71,9.56,0.79,-0.15,0.11,-0.13,d
3269.0,2839.0,2992.0,3136.0,4095.0,3467.0,2672.0,3792.0,1.37,9.5,1.23,0.09,0.11,0.01,d
3781.0,2837.0,2992.0,3143.0,4095.0,3502.0,2745.0,3903.0,1.16,8.98,1.04,-0.16,0.09,-0.13,d
4095.0,2827.0,2984.0,3120.0,4095.0,3532.0,2790.0,3920.0,1.55,9.8,0.83,0.03,-0.06,0.06,d
4095.0,2823.0,2993.0,3108.0,4095.0,3551.0,2816.0,3888.0,1.25,9.14,1.03,0.02,-0.08,-0.02,d
4095.0,2850.0,2999.0,3108.0,4095.0,3565.0,2832.0,3859.0,1.27,9.83,0.66,-0.04,-0.05,-0.01,d
4095.0,2864.0,2993.0,3093.0,4095.0,3562.0,2833.0,3853.0,1.74,9.43,0.96,0.15,-0.03,-0.0,d
4095.0,2892.0,3002.0,3063.0,4095.0,3554.0,2845.0,3911.0,1.32,9.59,0.57,-0.12,-0.03,-0.09,d
4095.0,2901.0,2999.0,3049.0,4095.0,3549.0,2845.0,3964.0,1.4,9.8,0.76,0.02,0.11,-0.06,d
4095.0,2896.0,2994.0,3056.0,4095.0,3519.0,2839.0,3987.0,1.24,8.98,1.07,-0.07,0.1,-0.04,d
4095.0,2897.0,2987.0,3065.0,4095.0,3543.0,2862.0,3986.0,1.46,9.83,0.86,-0.06,-0.01,0.03,d
4095.0,2892.0,2987.0,3079.0,4095.0,3566.0,2896.0,3989.0,1.47,9.46,0.89,0.05,-0.07,0.09,d
4095.0,2902.0,2999.0,3067.0,4095.0,3568.0,2911.0,3999.0,1.24,9.09,0.95,-0.1,0.03,-0.08,d
4095.0,2896.0,2986.0,3067.0,4095.0,3576.0,2928.0,4001.0,1.73,10.09,0.74,-0.03,-0.02,-0.0,d
4095.0,2887.0,2981.0,3067.0,4095.0,3600.0,2978.0,4005.0,1.28,9.18,0.71,-0.06,0.09,-0.02,d
4095.0,2891.0,2965.0,3071.0,4095.0,3604.0,2994.0,4055.0,1.4,9.43,0.68,-0.14,0.09,-0.08,d
4095.0,2894.0,2985.0,3065.0,4095.0,3604.0,2955.0,3981.0,1.36,9.67,1.03,0.03,-0.05,0.08,d
4095.0,2893.0,2988.0,3071.0,4095.0,3611.0,2939.0,3866.0,1.18,9.34,0.99,-0.07,-0.13,0.03,d
4095.0,2896.0,3005.0,3088.0,4095.0,3619.0,2961.0,3913.0,1.69,9.69,0.94,-0.04,-0.14,-0.0,d
4095.0,2901.0,2998.0,3089.0,4095.0,3632.0,2983.0,3957.0,1.36,9.22,0.9,0.0,0.04,-0.02,d
4095.0,2896.0,2998.0,3061.0,4095.0,3621.0,2961.0,3987.0,1.37,9.43,0.76,-0.08,-0.06,-0.01,d
4095.0,2893.0,3002.0,3083.0,4095.0,3607.0,2913.0,3965.0,1.68,10.01,0.8,-0.04,-0.14,0.04,d
4095.0,2893.0,2998.0,3088.0,4095.0,3611.0,2902.0,3949.0,1.5,8.89,0.99,-0.04,-0.11,0.07,d
4095.0,2887.0,2997.0,3101.0,4095.0,3574.0,2815.0,3889.0,1.53,9.54,0.86,-0.01,-0.16,0.02,d
4095.0,2881.0,3011.0,3058.0,4095.0,3494.0,2717.0,3813.0,1.54,9.71,0.94,-0.01,0.04,-0.05,d
4095.0,2882.0,3007.0,2991.0,4095.0,3423.0,2667.0,3782.0,1.79,9.36,0.85,-0.25,0.13,-0.12,d
4095.0,2895.0,3015.0,3007.0,4095.0,3441.0,2693.0,3810.0,1.47,9.81,1.0,-0.06,0.09,-0.1,d
4095.0,2882.0,3013.0,3129.0,4095.0,3458.0,2736.0,3835.0,1.24,8.73,1.33,-0.11,0.13,-0.28,d
4088.0,2884.0,3008.0,3139.0,4095.0,3487.0,2759.0,3841.0,1.37,10.04,0.99,-0.08,0.04,0.05,d
3535.0,2893.0,3006.0,3094.0,4095.0,3520.0,2787.0,3861.0,1.3,8.94,1.06,-0.0,0.02,0.08,d
3395.0,2882.0,3017.0,3123.0,4095.0,3556.0,2835.0,3894.0,1.45,9.52,0.96,-0.06,0.05,0.0,d
3348.0,2885.0,3011.0,3147.0,4095.0,3583.0,2861.0,3918.0,1.28,9.66,1.06,-0.02,0.06,-0.01,d
3313.0,2883.0,3003.0,3161.0,4095.0,3600.0,2870.0,3921.0,1.41,9.46,1.3,-0.08,0.03,0.02,d
3233.0,2889.0,3007.0,3197.0,4095.0,3632.0,2906.0,3954.0,1.25,9.38,1.31,-0.08,0.03,0.04,d
3193.0,2882.0,3019.0,3205.0,4095.0,3655.0,2927.0,3973.0,1.4,9.65,1.23,0.06,0.06,-0.06,d
3201.0,2892.0,3002.0,3222.0,4095.0,3694.0,2959.0,4000.0,1.29,9.19,1.18,0.09,-0.03,0.06,d
3185.0,2893.0,3013.0,3226.0,4095.0,3718.0,3024.0,4095.0,1.85,9.91,1.07,0.08,-0.14,-0.04,d
3178.0,2885.0,3005.0,3226.0,4095.0,3739.0,3052.0,4095.0,1.38,9.46,0.81,0.03,0.13,-0.05,d
3167.0,2889.0,3004.0,3225.0,4095.0,3750.0,3063.0,4095.0,1.29,9.16,1.2,-0.08,0.06,-0.07,d
1141.0,2958.0,2997.0,2446.0,3264.0,3362.0,2615.0,3648.0,0.81,9.13,0.3,0.05,-0.02,-0.05,e
1150.0,2960.0,2966.0,2435.0,3251.0,3362.0,2688.0,3682.0,1.28,10.19,0.25,0.07,-0.11,-0.07,e
1165.0,2955.0,2956.0,2435.0,3253.0,3365.0,2739.0,3717.0,0.95,9.24,0.23,0.02,-0.01,-0.03,e
1169.0,2941.0,2956.0,2434.0,3248.0,3370.0,2768.0,3758.0,0.98,9.75,0.06,-0.19,0.03,-0.05,e
1170.0,2929.0,2960.0,2431.0,3248.0,3414.0,2800.0,3792.0,0.91,9.54,0.41,0.04,-0.0,-0.0,e
1171.0,2931.0,2962.0,2433.0,3235.0,3434.0,2774.0,3776.0,1.06,9.67,0.29,-0.01,0.02,-0.03,e
1173.0,2927.0,2964.0,2435.0,3233.0,3424.0,2722.0,3697.0,1.15,9.44,0.47,-0.01,-0.11,0.03,e
1165.0,2923.0,2975.0,2439.0,3234.0,3419.0,2721.0,3710.0,1.27,10.0,0.33,-0.08,0.14,-0.05,e
1164.0,2887.0,2979.0,2437.0,3233.0,3413.0,2722.0,3787.0,0.63,9.16,0.62,0.02,-0.01,0.02,e
1163.0,2883.0,2980.0,2433.0,3231.0,3364.0,2668.0,3759.0,0.88,10.02,0.13,-0.13,0.16,-0.09,e
1160.0,2887.0,2980.0,2436.0,3220.0,3277.0,2592.0,3624.0,0.99,9.39,0.2,0.15,-0.12,0.04,e
1165.0,2888.0,2981.0,2438.0,3200.0,3223.0,2527.0,3435.0,1.24,9.79,0.09,-0.11,-0.06,-0.02,e
1168.0,2896.0,2976.0,2436.0,3200.0,3234.0,2513.0,3387.0,1.12,9.5,0.3,0.03,-0.01,0.05,e
1159.0,2893.0,2979.0,2435.0,3207.0,3253.0,2543.0,3442.0,0.89,9.65,0.23,-0.19,0.13,-0.09,e
1151.0,2881.0,2977.0,2439.0,3215.0,3283.0,2590.0,3535.0,0.9,9.71,0.39,-0.02,0.1,-0.02,e
1149.0,2867.0,2982.0,2433.0,3214.0,3298.0,2602.0,3598.0,1.03,9.6,0.31,-0.17,0.11,-0.07,e
1151.0,2864.0,2985.0,2435.0,3230.0,3323.0,2624.0,3655.0,1.11,10.03,0.27,0.01,0.01,0.03,e
1155.0,2865.0,2992.0,2445.0,3255.0,3349.0,2630.0,3653.0,0.89,9.26,0.58,-0.13,-0.01,0.01,e
1161.0,2866.0,2999.0,2448.0,3265.0,3375.0,2621.0,3583.0,0.98,10.01,0.45,-0.04,-0.03,0.03,e
1163.0,2871.0,3007.0,2451.0,3273.0,3376.0,2607.0,3571.0,0.87,9.32,0.42,-0.15,-0.02,0.02,e
1173.0,2882.0,3010.0,2448.0,3283.0,3387.0,2614.0,3600.0,1.16,9.82,0.24,-0.06,-0.1,0.04,e
1169.0,2895.0,3005.0,2451.0,3291.0,3401.0,2637.0,3608.0,1.22,9.4,0.78,-0.01,-0.08,0.12,e
1166.0,2900.0,3009.0,2449.0,3283.0,3433.0,2669.0,3637.0,1.26,9.81,0.48,-0.11,0.17,-0.03,e
1152.0,2901.0,3006.0,2448.0,3271.0,3454.0,2686.0,3693.0,1.21,9.19,0.46,-0.01,0.09,0.03,e
1141.0,2906.0,3008.0,2455.0,3280.0,3476.0,2704.0,3731.0,1.07,9.56,0.59,-0.18,0.1,-0.06,e
1149.0,2905.0,3015.0,2458.0,3280.0,3487.0,2703.0,3731.0,0.95,9.6,0.75,0.06,0.01,-0.0,e
1143.0,2909.0,3013.0,2459.0,3178.0,3359.0,2559.0,3600.0,0.84,9.41,0.57,-0.0,0.07,-0.15,e
1140.0,2909.0,3012.0,2458.0,3152.0,3315.0,2530.0,3582.0,1.24,9.79,0.5,0.03,-0.04,0.0,e
1144.0,2903.0,3013.0,2457.0,3170.0,3330.0,2551.0,3620.0,1.11,9.5,0.74,0.02,-0.09,-0.03,e
1146.0,2919.0,3007.0,2463.0,3199.0,3366.0,2602.0,3674.0,0.96,9.95,0.59,-0.06,0.02,-0.08,e
1131.0,2914.0,3011.0,2461.0,3213.0,3376.0,2625.0,3709.0,0.88,9.38,0.61,0.07,-0.04,0.01,e
1107.0,2915.0,3008.0,2463.0,3212.0,3358.0,2623.0,3711.0,1.2,9.72,0.22,-0.04,0.08,-0.09,e
1105.0,2919.0,3017.0,2465.0,3203.0,3324.0,2589.0,3661.0,1.26,9.75,0.45,0.2,-0.12,0.06,e
1111.0,2935.0,3001.0,2462.0,3187.0,3276.0,2547.0,3601.0,0.91,9.3,0.4,-0.12,-0.03,-0.14,e
1131.0,2928.0,3019.0,2449.0,3170.0,3225.0,2511.0,3583.0,1.13,10.05,0.18,-0.01,-0.12,-0.18,e
1130.0,2923.0,3015.0,2444.0,3168.0,3216.0,2507.0,3626.0,0.38,9.35,0.77,0.08,-0.01,-0.04,e
1131.0,2922.0,3020.0,2447.0,3171.0,3221.0,2522.0,3641.0,0.9,9.55,0.41,-0.08,0.02,-0.07,e
1134.0,2928.0,3013.0,2446.0,3173.0,3217.0,2515.0,3643.0,0.87,9.66,0.41,0.09,-0.04,0.01,e
1123.0,2928.0,3015.0,2448.0,3178.0,3218.0,2512.0,3642.0,0.79,8.77,0.38,-0.16,0.03,-0.07,e
1125.0,2928.0,3011.0,2448.0,3181.0,3222.0,2507.0,3621.0,0.89,10.25,0.2,-0.04,0.01,-0.06,e
1124.0,2928.0,3008.0,2451.0,3183.0,3222.0,2509.0,3618.0,0.85,9.29,0.59,0.05,-0.04,0.01,e
1121.0,2925.0,3019.0,2450.0,3182.0,3217.0,2499.0,3609.0,0.72,9.68,0.33,-0.14,0.05,-0.04,e
1130.0,2928.0,3011.0,2452.0,3184.0,3223.0,2509.0,3615.0,0.96,9.53,0.46,0.07,-0.01,0.04,e
1125.0,2928.0,3013.0,2458.0,3184.0,3237.0,2527.0,3614.0,0.77,9.28,0.28,-0.18,0.08,0.04,e
1115.0,2939.0,3013.0,2458.0,3180.0,3248.0,2546.0,3654.0,0.84,10.42,0.35,0.1,0.08,-0.02,e
4095.0,2942.0,3012.0,2463.0,3143.0,3280.0,2602.0,3741.0,0.59,9.19,0.22,-0.12,-0.01,0.08,e
4080.0,2933.0,3014.0,2463.0,3154.0,3331.0,2669.0,3792.0,0.96,9.86,-0.01,-0.19,0.1,0.02,e
4095.0,2938.0,3021.0,2458.0,3194.0,3339.0,2677.0,3789.0,1.07,9.55,0.55,-0.18,0.13,0.01,e
4095.0,2919.0,3014.0,2461.0,3231.0,3341.0,2671.0,3755.0,0.91,9.94,0.78,-0.29,0.22,-0.05,e
4095.0,2890.0,2996.0,2446.0,3275.0,3335.0,2670.0,3746.0,0.96,9.58,1.0,0.05,-0.05,0.11,e
4095.0,2896.0,3006.0,2446.0,3287.0,3337.0,2665.0,3717.0,0.78,9.62,0.55,-0.12,0.06,-0.04,e
4095.0,2903.0,2992.0,2448.0,3328.0,3339.0,2661.0,3715.0,1.02,9.8,0.7,-0.03,-0.15,0.17,e
4095.0,2912.0,2987.0,2442.0,3379.0,3344.0,2701.0,3755.0,0.84,9.08,0.68,-0.0,-0.06,-0.04,e
4095.0,2919.0,2977.0,2432.0,3378.0,3344.0,2721.0,3817.0,1.2,9.9,0.37,-0.04,0.15,-0.09,e
3715.0,2902.0,2987.0,2432.0,3377.0,3312.0,2707.0,3675.0,1.04,9.29,0.92,0.0,-0.05,0.07,e
3113.0,2832.0,2977.0,2415.0,3374.0,3235.0,2624.0,3330.0,0.54,9.72,0.43,-0.09,0.1,0.01,e
3088.0,2822.0,2964.0,2411.0,3371.0,3213.0,2559.0,3283.0,1.13,9.55,0.16,0.06,-0.19,0.11,e
3142.0,2836.0,2961.0,2368.0,3226.0,3194.0,2515.0,3312.0,1.72,9.08,0.66,-0.14,0.01,-0.16,e
3209.0,2869.0,2987.0,2377.0,3183.0,3183.0,2508.0,3383.0,0.72,10.05,0.85,-0.08,0.23,-0.14,e
3296.0,2915.0,3034.0,2407.0,3204.0,3223.0,2529.0,3454.0,0.71,9.53,0.99,-0.05,0.04,-0.09,e
3327.0,2914.0,3040.0,2366.0,3175.0,3221.0,2526.0,3474.0,0.53,9.74,0.44,-0.0,-0.01,0.03,e
3411.0,2928.0,3042.0,2399.0,3159.0,3222.0,2535.0,3517.0,0.74,9.37,0.76,0.07,-0.21,-0.01,e
3415.0,2928.0,3040.0,2391.0,3143.0,3219.0,2529.0,3541.0,1.05,9.63,0.42,-0.12,-0.05,0.01,e
3433.0,2933.0,3031.0,2413.0,3152.0,3226.0,2540.0,3571.0,0.81,9.56,0.75,0.02,0.07,-0.04,e
3439.0,2931.0,3027.0,2429.0,3139.0,3234.0,2550.0,3622.0,0.85,9.63,0.58,-0.09,-0.08,-0.03,e
3431.0,2928.0,3033.0,2418.0,3123.0,3229.0,2544.0,3617.0,1.0,9.7,0.53,0.04,-0.04,-0.02,e
3430.0,2926.0,3023.0,2477.0,3120.0,3231.0,2549.0,3623.0,0.81,9.39,0.52,-0.08,-0.05,0.03,e
3440.0,2928.0,3023.0,2481.0,3116.0,3232.0,2544.0,3633.0,0.86,9.84,0.46,-0.14,0.19,-0.08,e
3452.0,2925.0,3023.0,2478.0,3136.0,3237.0,2544.0,3623.0,1.47,9.68,0.88,0.11,-0.02,0.01,e
3467.0,2928.0,3024.0,2480.0,3136.0,3226.0,2528.0,3563.0,0.65,8.9,0.58,-0.1,0.02,-0.08,e
3459.0,2927.0,3026.0,2523.0,3129.0,3211.0,2523.0,3559.0,1.18,9.86,0.4,0.05,-0.02,-0.1,e
3472.0,2923.0,3022.0,2522.0,3121.0,3205.0,2512.0,3555.0,0.65,9.59,0.68,0.07,0.13,-0.06,e
3474.0,2923.0,3024.0,2502.0,3129.0,3209.0,2512.0,3553.0,0.57,9.48,0.46,-0.11,0.08,-0.1,e
3479.0,2925.0,3024.0,2485.0,3126.0,3207.0,2505.0,3539.0,1.05,9.82,0.51,-0.01,0.08,-0.07,e
3482.0,2925.0,3023.0,2480.0,3133.0,3210.0,2515.0,3542.0,0.54,9.01,0.69,-0.09,-0.05,-0.01,e
3486.0,2931.0,3021.0,2467.0,3136.0,3209.0,2524.0,3559.0,0.85,9.89,0.48,-0.03,0.04,-0.07,e
3502.0,2925.0,3027.0,2434.0,3157.0,3225.0,2542.0,3568.0,0.62,9.3,0.91,-0.07,0.02,0.0,e
3508.0,2927.0,3030.0,2415.0,3221.0,3251.0,2588.0,3695.0,0.72,9.88,0.71,-0.23,0.06,0.0,e
3501.0,2923.0,3026.0,2401.0,3257.0,3269.0,2623.0,3776.0,0.92,9.64,0.49,0.12,-0.07,0.03,e
3507.0,2925.0,3019.0,2383.0,3270.0,3276.0,2640.0,3806.0,0.63,9.15,0.61,-0.2,0.1,-0.08,e
3520.0,2928.0,3031.0,2365.0,3246.0,3268.0,2636.0,3792.0,0.73,10.1,0.65,0.08,0.03,-0.02,e
3514.0,2924.0,3031.0,2375.0,3227.0,3259.0,2619.0,3761.0,0.94,9.04,0.74,-0.04,-0.12,0.05,e
3506.0,2932.0,3023.0,2375.0,3219.0,3248.0,2598.0,3726.0,1.08,9.73,0.52,-0.11,0.05,-0.09,e
3513.0,2928.0,3025.0,2359.0,3211.0,3242.0,2588.0,3712.0,0.5,9.61,0.87,0.05,-0.04,0.01,e
3522.0,2931.0,3034.0,2371.0,3201.0,3247.0,2587.0,3697.0,0.56,9.43,0.54,-0.1,0.03,-0.05,e
3521.0,2938.0,3027.0,2378.0,3198.0,3239.0,2583.0,3682.0,0.79,9.83,0.45,0.09,-0.11,-0.02,e
3535.0,2928.0,3021.0,2371.0,3200.0,3238.0,2581.0,3663.0,0.45,9.1,0.64,-0.08,0.03,-0.03,e
3568.0,2928.0,3024.0,2381.0,3197.0,3246.0,2582.0,3619.0,0.8,10.05,0.3,-0.25,0.07,0.03,e
4095.0,2929.0,3009.0,2387.0,3213.0,3267.0,2630.0,3671.0,0.8,9.38,0.69,-0.17,-0.03,0.06,e
4095.0,3055.0,3198.0,2395.0,3251.0,3327.0,2754.0,3719.0,0.82,9.51,0.55,-0.3,-0.03,0.0,e
4095.0,2905.0,3090.0,2399.0,3302.0,3415.0,2871.0,3687.0,0.81,9.66,0.86,-0.19,0.1,-0.02,e
4095.0,3120.0,3245.0,2391.0,3299.0,3439.0,2832.0,3599.0,0.49,9.8,1.01,0.24,-0.19,0.08,e
4095.0,3083.0,3199.0,2395.0,3302.0,3413.0,2743.0,3463.0,0.75,9.46,0.78,-0.22,0.07,0.02,e
4095.0,3009.0,3120.0,2384.0,3302.0,3375.0,2674.0,3404.0,1.27,9.88,1.02,-0.0,0.09,0.03,e
4095.0,2997.0,3114.0,2397.0,3312.0,3367.0,2669.0,3423.0,0.99,9.43,0.76,-0.23,0.13,-0.03,e
4095.0,2915.0,3024.0,2404.0,3344.0,3391.0,2710.0,3499.0,0.89,9.81,0.95,-0.07,0.08,-0.02,e
4095.0,2918.0,3020.0,2410.0,3376.0,3392.0,2717.0,3542.0,0.78,9.32,1.18,-0.05,0.01,-0.01,e
4095.0,2914.0,3026.0,2413.0,3379.0,3380.0,2704.0,3551.0,0.71,10.01,0.9,-0.07,0.1,-0.04,e
4095.0,2911.0,3018.0,2415.0,3408.0,3379.0,2695.0,3559.0,0.95,9.2,1.16,0.01,-0.08,0.08,e
4095.0,2913.0,3009.0,2416.0,3436.0,3373.0,2687.0,3568.0,0.88,9.79,0.94,-0.11,0.09,-0.05,e
4095.0,2912.0,3020.0,2416.0,3437.0,3371.0,2689.0,3569.0,1.03,9.48,1.22,0.07,-0.04,-0.01,e
4095.0,2918.0,3013.0,2416.0,3431.0,3370.0,2686.0,3577.0,0.72,9.25,0.93,-0.12,0.04,-0.07,e
4095.0,2947.0,3054.0,2411.0,3408.0,3355.0,2672.0,3577.0,1.02,10.04,0.94,0.08,0.06,-0.04,e
4095.0,3104.0,3216.0,2415.0,3379.0,3344.0,2660.0,3583.0,0.69,9.33,0.9,-0.0,0.04,-0.07,e
4095.0,3122.0,3251.0,2414.0,3389.0,3342.0,2655.0,3609.0,1.01,9.74,0.93,-0.06,-0.01,-0.02,e
4095.0,3134.0,3239.0,2410.0,3376.0,3327.0,2624.0,3603.0,0.79,9.39,1.19,0.1,-0.0,0.05,e
4095.0,3152.0,3266.0,2403.0,3358.0,3315.0,2613.0,3608.0,0.75,9.8,0.95,-0.15,0.03,-0.06,e
4095.0,3143.0,3261.0,2411.0,3349.0,3313.0,2608.0,3612.0,0.82,9.73,1.1,0.14,-0.04,0.06,e
4095.0,3157.0,3261.0,2414.0,3345.0,3312.0,2603.0,3607.0,0.69,9.3,0.73,-0.11,0.0,-0.02,e
4095.0,3154.0,3273.0,2413.0,3351.0,3312.0,2611.0,3612.0,1.24,9.85,0.89,0.04,-0.05,-0.0,e
4095.0,3150.0,3260.0,2413.0,3352.0,3321.0,2613.0,3617.0,0.53,9.04,1.06,-0.08,0.04,-0.03,e
4095.0,3193.0,3309.0,2378.0,3219.0,3220.0,2487.0,3508.0,0.51,9.37,1.2,-0.07,0.11,-0.14,e
4095.0,3205.0,3328.0,2337.0,3203.0,3213.0,2479.0,3517.0,0.86,8.82,0.95,-0.11,-0.02,-0.01,e
4095.0,3210.0,3309.0,2320.0,3219.0,3227.0,2508.0,3567.0,0.56,10.21,0.95,0.02,-0.05,-0.04,e
4095.0,3205.0,3313.0,2293.0,3215.0,3229.0,2522.0,3629.0,0.93,9.42,1.14,-0.05,-0.02,-0.04,e
4095.0,3182.0,3285.0,2286.0,3189.0,3222.0,2543.0,3697.0,0.78,9.48,1.02,-0.15,0.18,-0.15,e
4095.0,3164.0,3255.0,2306.0,3089.0,3172.0,2530.0,3714.0,1.03,10.39,1.06,0.13,0.09,-0.07,e
4095.0,3194.0,3296.0,2310.0,3002.0,3056.0,2356.0,3424.0,0.02,8.59,1.02,-0.07,0.1,-0.15,e
4095.0,3181.0,3289.0,2331.0,2975.0,3018.0,2308.0,3313.0,0.59,11.03,0.57,-0.43,0.35,-0.15,e
4095.0,3025.0,3142.0,2359.0,2961.0,3030.0,2353.0,3377.0,0.71,9.97,1.1,0.19,-0.04,0.12,e
4095.0,3041.0,3173.0,2370.0,2986.0,3031.0,2352.0,3376.0,0.45,8.54,1.16,-0.22,0.04,-0.12,e
4095.0,3065.0,3181.0,2366.0,2992.0,3035.0,2365.0,3389.0,0.96,10.66,0.96,0.07,-0.07,0.07,e
4095.0,3083.0,3187.0,2361.0,2992.0,3038.0,2379.0,3422.0,0.59,8.95,1.31,0.04,-0.13,0.02,e
4095.0,2998.0,3114.0,2346.0,2965.0,3013.0,2358.0,3374.0,0.59,10.25,0.67,-0.52,0.38,-0.2,e
4095.0,2898.0,2994.0,2317.0,2912.0,2962.0,2320.0,3321.0,0.64,10.05,1.45,0.18,0.03,0.09,e
4095.0,2930.0,3037.0,2320.0,2928.0,2971.0,2330.0,3329.0,-0.49,8.28,1.28,-0.19,0.07,-0.08,e
4095.0,2963.0,3063.0,2330.0,2930.0,2991.0,2339.0,3328.0,1.38,10.61,1.17,-0.06,-0.08,-0.03,e
4095.0,2982.0,3101.0,2339.0,2929.0,2982.0,2317.0,3280.0,0.08,9.08,1.62,-0.01,0.08,0.02,e
4095.0,2999.0,3115.0,2342.0,2931.0,2979.0,2306.0,3261.0,0.58,9.44,1.33,-0.09,-0.01,-0.09,e
4095.0,3008.0,3120.0,2347.0,2934.0,2979.0,2297.0,3248.0,0.99,9.79,1.36,-0.03,-0.13,0.11,e
4095.0,3021.0,3129.0,2352.0,2944.0,2987.0,2302.0,3251.0,0.17,9.1,1.17,-0.08,0.1,-0.06,e
4095.0,3040.0,3148.0,2371.0,2951.0,2982.0,2299.0,3237.0,0.47,10.09,1.14,-0.07,-0.04,0.14,e
4095.0,3037.0,3159.0,2378.0,2976.0,2976.0,2288.0,3213.0,0.29,8.1,1.61,-0.09,-0.07,0.11,e
4095.0,3056.0,3183.0,2381.0,3023.0,2967.0,2293.0,3211.0,1.06,10.11,1.3,-0.23,-0.03,-0.01,e
4095.0,3071.0,3175.0,2384.0,3058.0,2970.0,2293.0,3215.0,0.56,9.35,1.79,-0.11,0.1,0.06,e
4095.0,3042.0,3153.0,2385.0,3107.0,2973.0,2293.0,3208.0,0.52,9.59,1.49,-0.22,0.11,-0.03,e
2543.0,2854.0,2958.0,2386.0,3126.0,2979.0,2263.0,3217.0,0.43,9.42,1.78,-0.11,-0.02,0.04,e
1193.0,2851.0,2963.0,2385.0,3175.0,2985.0,2259.0,3233.0,0.58,9.34,1.82,-0.2,0.07,0.01,e
1218.0,2861.0,2974.0,2385.0,3232.0,3006.0,2258.0,3270.0,0.96,9.64,1.86,-0.04,0.17,0.01,e
1245.0,2862.0,2964.0,2395.0,3280.0,3043.0,2303.0,3353.0,0.41,8.64,1.95,0.03,-0.01,0.01,e
1211.0,2846.0,2973.0,2400.0,3297.0,3086.0,2350.0,3440.0,0.82,9.98,1.4,-0.06,0.1,-0.18,e
1172.0,2848.0,2965.0,2403.0,3284.0,3099.0,2374.0,3483.0,0.25,9.15,1.98,0.33,-0.25,0.02,e
1152.0,2848.0,2950.0,2394.0,3211.0,3145.0,2427.0,3666.0,0.14,9.53,1.7,-0.08,-0.36,0.04,e
1152.0,2878.0,2981.0,2415.0,3207.0,3218.0,2511.0,3854.0,0.96,9.56,1.68,0.05,-0.26,0.19,e
1154.0,2893.0,2999.0,2435.0,3265.0,3260.0,2540.0,3863.0,1.17,9.16,1.54,-0.04,-0.45,0.3,e
1158.0,2887.0,2991.0,2426.0,3287.0,3248.0,2533.0,3856.0,0.8,9.85,1.49,0.04,-0.15,0.18,e
1159.0,2851.0,2951.0,2390.0,3279.0,3243.0,2559.0,3889.0,1.53,9.43,1.73,-0.09,-0.28,0.12,e
1151.0,2842.0,2930.0,2373.0,3285.0,3218.0,2559.0,3945.0,0.75,9.16,1.3,-0.21,0.26,-0.17,e
1151.0,2846.0,2929.0,2356.0,3312.0,3221.0,2624.0,3984.0,1.42,9.73,1.87,-0.07,0.07,-0.07,e
1142.0,2844.0,2923.0,2355.0,3311.0,3229.0,2631.0,4009.0,0.38,9.23,1.76,-0.02,0.06,0.08,e
1139.0,2847.0,2931.0,2311.0,3278.0,3200.0,2695.0,4031.0,1.71,9.75,1.46,-0.08,-0.14,-0.02,e
1141.0,2851.0,2934.0,2320.0,3312.0,3220.0,2747.0,4065.0,0.96,9.2,1.76,0.11,-0.03,0.09,e
1145.0,2839.0,2933.0,2337.0,3329.0,3236.0,2735.0,4060.0,0.66,9.03,1.69,-0.28,0.09,0.0,e
1129.0,2852.0,2928.0,2341.0,3329.0,3243.0,2723.0,4010.0,1.53,9.63,1.95,0.1,-0.13,0.13,e
1132.0,2848.0,2928.0,2351.0,3330.0,3248.0,2723.0,4021.0,0.81,8.99,1.62,-0.13,-0.01,0.06,e
1131.0,2851.0,2918.0,2351.0,3323.0,3245.0,2709.0,3967.0,1.51,9.34,1.84,-0.02,0.16,-0.14,e
1127.0,2849.0,2926.0,2356.0,3319.0,3241.0,2668.0,3824.0,1.47,9.99,2.03,0.08,-0.09,0.03,e
1129.0,2861.0,2914.0,2362.0,3327.0,3241.0,2657.0,3747.0,1.14,8.98,1.87,0.0,-0.02,0.0,e
1132.0,2857.0,2917.0,2368.0,3335.0,3244.0,2651.0,3725.0,1.38,9.72,1.69,-0.16,0.21,-0.11,e
1134.0,2855.0,2930.0,2374.0,3345.0,3245.0,2645.0,3735.0,1.17,9.14,1.89,-0.07,0.08,0.02,e
1141.0,2874.0,2941.0,2384.0,3362.0,3252.0,2643.0,3696.0,0.74,9.7,1.51,-0.09,0.29,-0.08,e
2927.0,2878.0,2976.0,2426.0,3405.0,3228.0,2606.0,3627.0,1.77,9.7,1.93,0.23,-0.22,0.09,e
3091.0,2882.0,2976.0,2441.0,3429.0,3248.0,2626.0,3645.0,1.13,8.83,1.61,-0.2,0.09,-0.08,e
3171.0,2902.0,2984.0,2448.0,3425.0,3267.0,2660.0,3717.0,1.49,9.99,1.96,0.09,0.16,-0.09,e
3344.0,2902.0,2992.0,2454.0,3397.0,3280.0,2674.0,3779.0,0.7,8.96,1.9,-0.06,0.12,-0.11,e
3582.0,2905.0,3003.0,2455.0,3325.0,3282.0,2677.0,3807.0,1.16,9.64,1.53,0.1,0.08,-0.13,e
3609.0,2910.0,3003.0,2465.0,3312.0,3297.0,2688.0,3841.0,1.04,9.11,1.72,-0.06,0.04,-0.06,e
3567.0,2906.0,3003.0,2468.0,3318.0,3305.0,2703.0,3856.0,0.85,9.48,1.75,-0.04,0.03,-0.04,e
3402.0,2907.0,3007.0,2475.0,3355.0,3314.0,2734.0,3910.0,0.6,9.51,1.77,0.08,-0.13,0.11,e
3248.0,2913.0,3007.0,2475.0,3376.0,3326.0,2757.0,3975.0,0.76,9.39,1.71,-0.03,0.06,-0.07,e
3285.0,2910.0,3011.0,2480.0,3402.0,3339.0,2771.0,4051.0,0.94,9.5,1.66,0.01,0.07,-0.06,e
3226.0,2899.0,3007.0,2479.0,3404.0,3359.0,2805.0,4095.0,0.85,9.23,1.32,-0.19,0.2,-0.1,e
3277.0,2903.0,3008.0,2485.0,3370.0,3395.0,2835.0,4095.0,1.27,9.26,1.93,-0.11,0.08,-0.09,e
4095.0,2905.0,3014.0,2494.0,3364.0,3409.0,2834.0,4095.0,0.74,9.61,1.94,-0.06,-0.03,-0.05,e
4095.0,2897.0,3015.0,2502.0,3379.0,3424.0,2841.0,4088.0,0.53,9.43,1.76,-0.07,0.1,-0.02,e
4095.0,2895.0,3013.0,2499.0,3386.0,3419.0,2833.0,3896.0,0.58,8.94,1.94,-0.08,-0.06,-0.04,e
1166.0,2899.0,3014.0,2503.0,3392.0,3408.0,2787.0,3690.0,0.69,9.58,1.68,-0.16,0.18,0.05,e
1139.0,2887.0,2994.0,2495.0,3391.0,3357.0,2704.0,3599.0,0.93,9.39,2.01,0.1,-0.22,0.17,e
1136.0,2892.0,3003.0,2495.0,3401.0,3307.0,2642.0,3602.0,0.84,9.11,2.27,-0.13,-0.0,0.03,e
1140.0,2891.0,3003.0,2496.0,3408.0,3306.0,2633.0,3609.0,1.02,9.8,1.81,-0.03,0.03,0.03,e
1145.0,2895.0,2994.0,2497.0,3408.0,3289.0,2607.0,3568.0,0.98,9.09,2.06,0.02,-0.15,0.05,e
1168.0,2895.0,2995.0,2498.0,3413.0,3282.0,2559.0,3555.0,0.83,9.18,1.82,-0.15,0.06,0.01,e
1157.0,2901.0,2997.0,2503.0,3439.0,3310.0,2595.0,3583.0,1.07,9.75,1.83,0.18,-0.24,0.13,e
1151.0,2899.0,3002.0,2503.0,3440.0,3336.0,2609.0,3582.0,0.99,8.59,1.7,-0.15,-0.1,0.06,e
1147.0,2903.0,2994.0,2506.0,3419.0,3357.0,2618.0,3603.0,1.28,9.78,1.81,-0.04,-0.02,0.08,e
1168.0,2907.0,2997.0,2501.0,3406.0,3388.0,2620.0,3615.0,1.24,9.34,2.35,0.08,-0.14,0.13,e
1187.0,2902.0,2992.0,2503.0,3387.0,3397.0,2618.0,3611.0,0.9,8.72,1.86,0.01,-0.05,-0.02,e
1158.0,2906.0,2996.0,2502.0,3351.0,3409.0,2622.0,3675.0,1.57,10.19,1.7,0.23,-0.08,-0.1,e
1151.0,2917.0,2998.0,2503.0,3322.0,3417.0,2638.0,3754.0,1.19,8.62,1.92,0.06,0.05,-0.05,e
1152.0,2912.0,3002.0,2447.0,3268.0,3398.0,2636.0,3790.0,1.2,9.51,1.33,-0.04,0.21,-0.2,e
1137.0,2911.0,2995.0,2464.0,3238.0,3333.0,2598.0,3788.0,1.36,9.72,1.69,0.28,-0.19,-0.06,e
1136.0,2922.0,2997.0,2462.0,3250.0,3326.0,2605.0,3893.0,0.64,9.31,1.63,0.14,-0.07,-0.07,e
1134.0,2915.0,3003.0,2452.0,3241.0,3267.0,2608.0,3904.0,1.12,9.9,1.14,0.2,-0.08,-0.02,e
1126.0,2911.0,2997.0,2434.0,3248.0,3271.0,2633.0,3937.0,0.86,8.65,1.35,0.11,-0.2,0.09,e
1121.0,2917.0,3008.0,2418.0,3251.0,3282.0,2646.0,3959.0,1.3,10.01,0.94,-0.02,-0.04,-0.07,e
1119.0,2914.0,2997.0,2416.0,3248.0,3293.0,2670.0,4002.0,1.15,9.86,1.28,0.14,-0.17,0.12,e
1104.0,2927.0,3008.0,2447.0,3242.0,3306.0,2672.0,4066.0,0.96,9.26,1.24,-0.44,0.26,-0.1,e
1104.0,2922.0,3003.0,2451.0,3233.0,3314.0,2690.0,4095.0,1.75,10.41,1.15,-0.15,0.32,-0.11,e
1095.0,2928.0,3014.0,2455.0,3262.0,3340.0,2731.0,4095.0,-0.14,8.37,2.17,0.34,-0.26,0.25,e
1095.0,2927.0,3008.0,2448.0,3265.0,3344.0,2742.0,4095.0,1.18,10.37,1.11,-0.06,0.13,-0.06,e
1089.0,2919.0,3021.0,2438.0,3248.0,3350.0,2747.0,4095.0,1.3,9.28,1.07,0.29,-0.15,0.04,e
1086.0,2918.0,3015.0,2443.0,3237.0,3344.0,2738.0,4095.0,0.43,9.38,1.86,-0.07,0.27,-0.16,e
1089.0,2905.0,3007.0,2531.0,3201.0,3325.0,2725.0,4067.0,0.92,10.36,1.5,0.35,0.04,0.25,e
1090.0,2918.0,3007.0,2721.0,3200.0,3323.0,2721.0,4088.0,1.19,8.58,0.59,0.18,-0.22,0.14,e
1098.0,2918.0,3005.0,2717.0,3189.0,3321.0,2714.0,4069.0,2.15,9.69,-0.27,0.01,0.02,0.03,e
1091.0,2914.0,3006.0,2670.0,3184.0,3312.0,2696.0,4035.0,1.92,9.57,0.68,0.17,0.03,-0.03,e
1089.0,2913.0,3007.0,2640.0,3184.0,3307.0,2688.0,4009.0,1.01,9.22,0.78,-0.21,0.09,-0.18,e
1090.0,2906.0,3003.0,2608.0,3184.0,3310.0,2688.0,4005.0,1.3,10.14,0.64,0.1,0.08,-0.1,e
1087.0,2911.0,3008.0,2503.0,3168.0,3306.0,2687.0,3987.0,0.92,8.9,0.89,-0.04,-0.07,-0.12,e
1095.0,2903.0,3003.0,2464.0,3154.0,3295.0,2669.0,3971.0,1.13,9.79,0.59,-0.21,0.18,-0.21,e
1089.0,2907.0,3006.0,2451.0,3145.0,3281.0,2645.0,3922.0,0.95,9.71,1.02,0.12,-0.18,0.06,e
1087.0,2910.0,3005.0,2445.0,3150.0,3279.0,2646.0,3911.0,0.78,9.52,1.03,-0.16,0.1,-0.17,e
1093.0,2909.0,3007.0,2437.0,3149.0,3277.0,2640.0,3887.0,1.47,9.95,1.09,-0.0,-0.06,-0.03,e
1088.0,2911.0,3005.0,2480.0,3155.0,3275.0,2635.0,3829.0,0.53,8.74,0.97,-0.12,0.0,-0.01,e
1102.0,2914.0,3007.0,2500.0,3143.0,3262.0,2608.0,3698.0,0.99,9.81,0.82,-0.0,0.03,-0.07,e
3275.0,2923.0,3005.0,2512.0,3134.0,3259.0,2582.0,3605.0,0.68,9.29,1.24,-0.22,0.07,0.09,e
4095.0,2922.0,3007.0,2529.0,3191.0,3280.0,2640.0,3696.0,0.72,9.56,0.65,-0.26,0.23,-0.0,e
4095.0,2925.0,3007.0,2533.0,3264.0,3335.0,2716.0,3789.0,1.15,9.73,1.42,0.01,-0.12,0.16,e
4095.0,2915.0,3009.0,2522.0,3272.0,3357.0,2736.0,3825.0,0.8,9.82,1.03,-0.24,0.2,-0.01,e
4095.0,2911.0,3009.0,2525.0,3307.0,3408.0,2798.0,3887.0,1.29,9.96,1.41,0.01,-0.09,0.12,e
4095.0,2906.0,3006.0,2525.0,3337.0,3439.0,2829.0,3920.0,0.72,8.67,1.21,-0.27,0.15,-0.01,e
4095.0,2894.0,3011.0,2474.0,3373.0,3472.0,2871.0,3971.0,1.53,9.72,1.29,-0.22,0.2,-0.03,e
4095.0,2907.0,3014.0,2393.0,3369.0,3504.0,2887.0,4054.0,1.07,9.02,1.35,-0.11,-0.05,0.15,e
4095.0,2902.0,3013.0,2411.0,3405.0,3521.0,2896.0,4066.0,0.86,9.42,1.75,-0.25,0.09,-0.11,e
4095.0,2928.0,3010.0,2415.0,3394.0,3504.0,2842.0,3946.0,1.09,9.73,1.57,0.16,-0.25,0.21,e
4095.0,2918.0,3013.0,2417.0,3328.0,3459.0,2771.0,3878.0,1.26,9.04,1.87,0.0,-0.16,0.05,e
4095.0,2930.0,3017.0,2415.0,3283.0,3439.0,2730.0,3853.0,1.58,9.67,1.01,-0.07,0.08,-0.06,e
4095.0,2936.0,3022.0,2417.0,3275.0,3399.0,2669.0,3776.0,1.34,9.23,1.89,0.15,-0.25,0.03,e
4095.0,2928.0,3018.0,2416.0,3229.0,3344.0,2623.0,3702.0,1.21,9.89,1.36,-0.08,0.04,-0.11,e
4095.0,2939.0,3021.0,2414.0,3197.0,3331.0,2613.0,3694.0,1.47,9.71,1.58,0.16,-0.09,0.03,e
4095.0,2928.0,3023.0,2418.0,3197.0,3337.0,2620.0,3698.0,1.35,9.27,1.09,-0.1,-0.04,-0.08,e
4095.0,2928.0,3018.0,2398.0,3199.0,3330.0,2613.0,3701.0,1.25,9.7,1.13,-0.03,0.05,-0.07,e
4095.0,2927.0,3021.0,2389.0,3205.0,3335.0,2623.0,3725.0,0.93,9.27,1.53,-0.1,-0.01,0.03,e
4095.0,2925.0,3018.0,2413.0,3185.0,3315.0,2587.0,3659.0,1.1,9.73,1.33,-0.1,0.24,-0.09,e
4095.0,2928.0,3013.0,2448.0,3171.0,3295.0,2555.0,3583.0,1.37,9.27,1.74,0.02,0.0,0.05,e
4095.0,2922.0,3024.0,2484.0,3181.0,3291.0,2557.0,3583.0,0.87,9.39,1.47,-0.08,0.03,-0.07,e
4095.0,2924.0,3017.0,2415.0,3152.0,3286.0,2593.0,3657.0,1.19,9.74,1.35,0.12,-0.16,-0.13,e
4095.0,2923.0,3013.0,2411.0,3149.0,3290.0,2610.0,3717.0,0.96,9.44,1.51,-0.01,0.11,-0.05,e
4095.0,2918.0,3017.0,2423.0,3141.0,3288.0,2616.0,3710.0,1.09,9.28,1.36,-0.05,0.0,-0.07,e
4095.0,2923.0,3019.0,2416.0,3134.0,3290.0,2608.0,3677.0,1.24,9.64,1.3,0.02,-0.02,-0.05,e
3111.0,3856.0,3338.0,3651.0,3690.0,4095.0,4095.0,4095.0,2.18,9.83,0.62,-0.06,-0.02,-0.03,f
3120.0,4095.0,3354.0,3646.0,3678.0,4095.0,4095.0,4095.0,1.85,9.24,0.92,-0.02,-0.01,-0.06,f
3121.0,4095.0,3369.0,3651.0,3695.0,4095.0,4095.0,4095.0,1.43,9.58,0.98,-0.07,0.05,-0.05,f
3121.0,4095.0,3344.0,3658.0,3697.0,4095.0,4095.0,4095.0,1.89,9.46,1.0,0.02,-0.21,0.04,f
3118.0,4095.0,3331.0,3651.0,3701.0,4095.0,4095.0,4095.0,1.55,9.36,0.98,0.0,0.16,-0.09,f
3117.0,4095.0,3354.0,3645.0,3691.0,4095.0,4095.0,4095.0,1.83,9.68,0.94,0.05,-0.13,0.05,f
3111.0,4095.0,3358.0,3655.0,3695.0,4095.0,4095.0,4095.0,1.5,9.06,0.75,-0.14,0.1,-0.07,f
3119.0,4095.0,3341.0,3711.0,3690.0,4095.0,4095.0,4095.0,1.68,9.77,0.93,0.07,0.06,-0.02,f
3108.0,4095.0,3351.0,3743.0,3683.0,4095.0,4095.0,4095.0,1.83,9.33,0.96,-0.01,-0.09,-0.0,f
3114.0,4095.0,3359.0,3743.0,3655.0,4095.0,4095.0,4095.0,1.7,9.58,0.84,-0.12,0.1,-0.01,f
3115.0,4095.0,3347.0,3732.0,3611.0,4095.0,4093.0,4095.0,1.38,9.58,0.99,0.07,-0.01,-0.02,f
3111.0,4095.0,3346.0,3665.0,3610.0,4095.0,4048.0,4095.0,1.72,9.38,0.91,-0.11,0.04,-0.02,f
3114.0,4095.0,3355.0,3582.0,3607.0,4095.0,4058.0,4095.0,2.04,9.62,1.06,0.03,-0.04,0.01,f
3115.0,4095.0,3347.0,3540.0,3615.0,4095.0,4047.0,4095.0,1.67,9.31,0.79,-0.07,-0.02,-0.03,f
3115.0,4095.0,3338.0,3523.0,3642.0,4095.0,4033.0,4095.0,1.74,9.48,1.15,-0.01,0.01,-0.03,f
3118.0,4095.0,3339.0,3558.0,3618.0,4095.0,4033.0,4095.0,1.42,9.46,0.85,-0.0,0.02,-0.02,f
3113.0,4095.0,3344.0,3665.0,3575.0,4095.0,4020.0,4095.0,1.36,9.49,0.89,0.05,0.08,-0.04,f
3107.0,4095.0,3346.0,3852.0,3583.0,4095.0,4034.0,4095.0,1.81,9.57,0.68,0.01,-0.04,0.03,f
3105.0,4095.0,3338.0,3979.0,3568.0,4095.0,4034.0,4095.0,1.81,9.31,0.76,-0.08,-0.05,-0.03,f
3114.0,4095.0,3335.0,4048.0,3513.0,4095.0,3989.0,4095.0,1.59,9.66,0.96,0.03,0.03,-0.02,f
