hall_1,hall_2,hall_3,flex_t,flex_i,flex_m,flex_r,flex_p,accel_x,accel_y,accel_z,gyro_x,gyro_y,gyro_z,hand,sign
4095.0,3687.0,3230.0,3990.0,2452.0,2272.0,2491.0,2199.0,-2.16,9.57,4.76,0.05,-0.01,-0.11,0.0,a
4095.0,3687.0,3230.0,3990.0,2452.0,2272.0,2491.0,2199.0,-2.16,9.57,4.76,0.05,-0.01,-0.11,0.0,a
4095.0,3687.0,3230.0,3990.0,2452.0,2272.0,2491.0,2199.0,-2.16,9.57,4.76,0.05,-0.01,-0.11,0.0,a
4095.0,3687.0,3230.0,3990.0,2452.0,2272.0,2491.0,2199.0,-2.16,9.57,4.76,0.05,-0.01,-0.11,0.0,a
4095.0,3687.0,3230.0,3990.0,2452.0,2272.0,2491.0,2199.0,-2.16,9.57,4.76,0.05,-0.01,-0.11,0.0,a
4095.0,3687.0,3230.0,3990.0,2452.0,2272.0,2491.0,2199.0,-2.16,9.57,4.76,0.05,-0.01,-0.11,0.0,a
4095.0,3687.0,3230.0,3990.0,2452.0,2272.0,2491.0,2199.0,-2.16,9.57,4.76,0.05,-0.01,-0.11,0.0,a
4095.0,3687.0,3230.0,3990.0,2452.0,2272.0,2491.0,2199.0,-2.16,9.57,4.76,0.05,-0.01,-0.11,0.0,a
4095.0,3687.0,3230.0,3990.0,2452.0,2272.0,2491.0,2199.0,-2.16,9.57,4.76,0.05,-0.01,-0.11,0.0,a
4095.0,3687.0,3230.0,3990.0,2452.0,2272.0,2491.0,2199.0,-2.16,9.57,4.76,0.05,-0.01,-0.11,0.0,a
4095.0,3687.0,3230.0,3990.0,2452.0,2272.0,2491.0,2199.0,-2.16,9.57,4.76,0.05,-0.01,-0.11,0.0,a
4095.0,3687.0,3230.0,3990.0,2452.0,2272.0,2491.0,2199.0,-2.16,9.57,4.76,0.05,-0.01,-0.11,0.0,a
4095.0,3687.0,3230.0,3990.0,2452.0,2272.0,2491.0,2199.0,-2.16,9.57,4.76,0.05,-0.01,-0.11,0.0,a
4095.0,3687.0,3230.0,3990.0,2452.0,2272.0,2491.0,2199.0,-2.16,9.57,4.76,0.05,-0.01,-0.11,0.0,a
4095.0,3687.0,3230.0,3990.0,2452.0,2272.0,2491.0,2199.0,-2.16,9.57,4.76,0.05,-0.01,-0.11,0.0,a
4095.0,3687.0,3230.0,3990.0,2452.0,2272.0,2491.0,2199.0,-2.16,9.57,4.76,0.05,-0.01,-0.11,0.0,a
4095.0,3687.0,3230.0,3990.0,2452.0,2272.0,2491.0,2199.0,-2.16,9.57,4.76,0.05,-0.01,-0.11,0.0,a
4095.0,3687.0,3230.0,3990.0,2452.0,2272.0,2491.0,2199.0,-2.16,9.57,4.76,0.05,-0.01,-0.11,0.0,a
4095.0,3687.0,3230.0,3990.0,2452.0,2272.0,2491.0,2199.0,-2.16,9.57,4.76,0.05,-0.01,-0.11,0.0,a
4095.0,3687.0,3230.0,3990.0,2452.0,2272.0,2491.0,2199.0,-2.16,9.57,4.76,0.05,-0.01,-0.11,0.0,a
4095.0,3683.0,3216.0,3965.0,2454.0,2259.0,2475.0,2195.0,-1.42,9.63,4.64,0.05,-0.19,-0.14,0.0,a
4095.0,3683.0,3216.0,3965.0,2454.0,2259.0,2475.0,2195.0,-1.42,9.63,4.64,0.05,-0.19,-0.14,0.0,a
4095.0,3683.0,3216.0,3965.0,2454.0,2259.0,2475.0,2195.0,-1.42,9.63,4.64,0.05,-0.19,-0.14,0.0,a
4095.0,3683.0,3216.0,3965.0,2454.0,2259.0,2475.0,2195.0,-1.42,9.63,4.64,0.05,-0.19,-0.14,0.0,a
4095.0,3683.0,3216.0,3965.0,2454.0,2259.0,2475.0,2195.0,-1.42,9.63,4.64,0.05,-0.19,-0.14,0.0,a
4095.0,3683.0,3216.0,3965.0,2454.0,2259.0,2475.0,2195.0,-1.42,9.63,4.64,0.05,-0.19,-0.14,0.0,a
4095.0,3683.0,3216.0,3965.0,2454.0,2259.0,2475.0,2195.0,-1.42,9.63,4.64,0.05,-0.19,-0.14,0.0,a
4095.0,3683.0,3216.0,3965.0,2454.0,2259.0,2475.0,2195.0,-1.42,9.63,4.64,0.05,-0.19,-0.14,0.0,a
4095.0,3683.0,3216.0,3965.0,2454.0,2259.0,2475.0,2195.0,-1.42,9.63,4.64,0.05,-0.19,-0.14,0.0,a
4095.0,3683.0,3216.0,3965.0,2454.0,2259.0,2475.0,2195.0,-1.42,9.63,4.64,0.05,-0.19,-0.14,0.0,a
4095.0,3683.0,3216.0,3965.0,2454.0,2259.0,2475.0,2195.0,-1.42,9.63,4.64,0.05,-0.19,-0.14,0.0,a
4095.0,3683.0,3216.0,3965.0,2454.0,2259.0,2475.0,2195.0,-1.42,9.63,4.64,0.05,-0.19,-0.14,0.0,a
4095.0,3683.0,3216.0,3965.0,2454.0,2259.0,2475.0,2195.0,-1.42,9.63,4.64,0.05,-0.19,-0.14,0.0,a
4095.0,3683.0,3216.0,3965.0,2454.0,2259.0,2475.0,2195.0,-1.42,9.63,4.64,0.05,-0.19,-0.14,0.0,a
4095.0,3683.0,3216.0,3965.0,2454.0,2259.0,2475.0,2195.0,-1.42,9.63,4.64,0.05,-0.19,-0.14,0.0,a
4095.0,3683.0,3216.0,3965.0,2454.0,2259.0,2475.0,2195.0,-1.42,9.63,4.64,0.05,-0.19,-0.14,0.0,a
4095.0,3683.0,3216.0,3965.0,2454.0,2259.0,2475.0,2195.0,-1.42,9.63,4.64,0.05,-0.19,-0.14,0.0,a
4095.0,3683.0,3216.0,3965.0,2454.0,2259.0,2475.0,2195.0,-1.42,9.63,4.64,0.05,-0.19,-0.14,0.0,a
4095.0,3683.0,3216.0,3965.0,2454.0,2259.0,2475.0,2195.0,-1.42,9.63,4.64,0.05,-0.19,-0.14,0.0,a
4095.0,3683.0,3216.0,3965.0,2454.0,2259.0,2475.0,2195.0,-1.42,9.63,4.64,0.05,-0.19,-0.14,0.0,a
4095.0,3682.0,3221.0,4000.0,2434.0,2288.0,2475.0,2214.0,-1.87,9.64,4.79,-0.04,0.07,-0.14,0.0,a
4095.0,3682.0,3221.0,4000.0,2434.0,2288.0,2475.0,2214.0,-1.87,9.64,4.79,-0.04,0.07,-0.14,0.0,a
4095.0,3682.0,3221.0,4000.0,2434.0,2288.0,2475.0,2214.0,-1.87,9.64,4.79,-0.04,0.07,-0.14,0.0,a
4095.0,3682.0,3221.0,4000.0,2434.0,2288.0,2475.0,2214.0,-1.87,9.64,4.79,-0.04,0.07,-0.14,0.0,a
4095.0,3682.0,3221.0,4000.0,2434.0,2288.0,2475.0,2214.0,-1.87,9.64,4.79,-0.04,0.07,-0.14,0.0,a
4095.0,3682.0,3221.0,4000.0,2434.0,2288.0,2475.0,2214.0,-1.87,9.64,4.79,-0.04,0.07,-0.14,0.0,a
4095.0,3682.0,3221.0,4000.0,2434.0,2288.0,2475.0,2214.0,-1.87,9.64,4.79,-0.04,0.07,-0.14,0.0,a
4095.0,3682.0,3221.0,4000.0,2434.0,2288.0,2475.0,2214.0,-1.87,9.64,4.79,-0.04,0.07,-0.14,0.0,a
4095.0,3682.0,3221.0,4000.0,2434.0,2288.0,2475.0,2214.0,-1.87,9.64,4.79,-0.04,0.07,-0.14,0.0,a
4095.0,3682.0,3221.0,4000.0,2434.0,2288.0,2475.0,2214.0,-1.87,9.64,4.79,-0.04,0.07,-0.14,0.0,a
4095.0,3682.0,3221.0,4000.0,2434.0,2288.0,2475.0,2214.0,-1.87,9.64,4.79,-0.04,0.07,-0.14,0.0,a
4095.0,3682.0,3221.0,4000.0,2434.0,2288.0,2475.0,2214.0,-1.87,9.64,4.79,-0.04,0.07,-0.14,0.0,a
4095.0,3682.0,3221.0,4000.0,2434.0,2288.0,2475.0,2214.0,-1.87,9.64,4.79,-0.04,0.07,-0.14,0.0,a
4095.0,3682.0,3221.0,4000.0,2434.0,2288.0,2475.0,2214.0,-1.87,9.64,4.79,-0.04,0.07,-0.14,0.0,a
4095.0,3682.0,3221.0,4000.0,2434.0,2288.0,2475.0,2214.0,-1.87,9.64,4.79,-0.04,0.07,-0.14,0.0,a
4095.0,3682.0,3221.0,4000.0,2434.0,2288.0,2475.0,2214.0,-1.87,9.64,4.79,-0.04,0.07,-0.14,0.0,a
4095.0,3682.0,3221.0,4000.0,2434.0,2288.0,2475.0,2214.0,-1.87,9.64,4.79,-0.04,0.07,-0.14,0.0,a
4095.0,3682.0,3221.0,4000.0,2434.0,2288.0,2475.0,2214.0,-1.87,9.64,4.79,-0.04,0.07,-0.14,0.0,a
4095.0,3682.0,3221.0,4000.0,2434.0,2288.0,2475.0,2214.0,-1.87,9.64,4.79,-0.04,0.07,-0.14,0.0,a
4095.0,3682.0,3221.0,4000.0,2434.0,2288.0,2475.0,2214.0,-1.87,9.64,4.79,-0.04,0.07,-0.14,0.0,a
4095.0,3689.0,3231.0,3990.0,2448.0,2282.0,2477.0,2212.0,-1.92,9.58,4.89,0.05,-0.21,-0.14,0.0,a
4095.0,3689.0,3231.0,3990.0,2448.0,2282.0,2477.0,2212.0,-1.92,9.58,4.89,0.05,-0.21,-0.14,0.0,a
4095.0,3689.0,3231.0,3990.0,2448.0,2282.0,2477.0,2212.0,-1.92,9.58,4.89,0.05,-0.21,-0.14,0.0,a
4095.0,3689.0,3231.0,3990.0,2448.0,2282.0,2477.0,2212.0,-1.92,9.58,4.89,0.05,-0.21,-0.14,0.0,a
4095.0,3689.0,3231.0,3990.0,2448.0,2282.0,2477.0,2212.0,-1.92,9.58,4.89,0.05,-0.21,-0.14,0.0,a
4095.0,3689.0,3231.0,3990.0,2448.0,2282.0,2477.0,2212.0,-1.92,9.58,4.89,0.05,-0.21,-0.14,0.0,a
4095.0,3689.0,3231.0,3990.0,2448.0,2282.0,2477.0,2212.0,-1.92,9.58,4.89,0.05,-0.21,-0.14,0.0,a
4095.0,3689.0,3231.0,3990.0,2448.0,2282.0,2477.0,2212.0,-1.92,9.58,4.89,0.05,-0.21,-0.14,0.0,a
4095.0,3689.0,3231.0,3990.0,2448.0,2282.0,2477.0,2212.0,-1.92,9.58,4.89,0.05,-0.21,-0.14,0.0,a
4095.0,3689.0,3231.0,3990.0,2448.0,2282.0,2477.0,2212.0,-1.92,9.58,4.89,0.05,-0.21,-0.14,0.0,a
4095.0,3689.0,3231.0,3990.0,2448.0,2282.0,2477.0,2212.0,-1.92,9.58,4.89,0.05,-0.21,-0.14,0.0,a
4095.0,3689.0,3231.0,3990.0,2448.0,2282.0,2477.0,2212.0,-1.92,9.58,4.89,0.05,-0.21,-0.14,0.0,a
4095.0,3689.0,3231.0,3990.0,2448.0,2282.0,2477.0,2212.0,-1.92,9.58,4.89,0.05,-0.21,-0.14,0.0,a
4095.0,3689.0,3231.0,3990.0,2448.0,2282.0,2477.0,2212.0,-1.92,9.58,4.89,0.05,-0.21,-0.14,0.0,a
4095.0,3689.0,3231.0,3990.0,2448.0,2282.0,2477.0,2212.0,-1.92,9.58,4.89,0.05,-0.21,-0.14,0.0,a
4095.0,3689.0,3231.0,3990.0,2448.0,2282.0,2477.0,2212.0,-1.92,9.58,4.89,0.05,-0.21,-0.14,0.0,a
4095.0,3689.0,3231.0,3990.0,2448.0,2282.0,2477.0,2212.0,-1.92,9.58,4.89,0.05,-0.21,-0.14,0.0,a
4095.0,3689.0,3231.0,3990.0,2448.0,2282.0,2477.0,2212.0,-1.92,9.58,4.89,0.05,-0.21,-0.14,0.0,a
4095.0,3689.0,3231.0,3990.0,2448.0,2282.0,2477.0,2212.0,-1.92,9.58,4.89,0.05,-0.21,-0.14,0.0,a
4095.0,3689.0,3231.0,3990.0,2448.0,2282.0,2477.0,2212.0,-1.92,9.58,4.89,0.05,-0.21,-0.14,0.0,a
4095.0,3695.0,3232.0,3981.0,2458.0,2281.0,2483.0,2206.0,-1.53,9.67,4.58,0.05,-0.04,-0.14,0.0,a
4095.0,3695.0,3232.0,3981.0,2458.0,2281.0,2483.0,2206.0,-1.53,9.67,4.58,0.05,-0.04,-0.14,0.0,a
4095.0,3695.0,3232.0,3981.0,2458.0,2281.0,2483.0,2206.0,-1.53,9.67,4.58,0.05,-0.04,-0.14,0.0,a
4095.0,3695.0,3232.0,3981.0,2458.0,2281.0,2483.0,2206.0,-1.53,9.67,4.58,0.05,-0.04,-0.14,0.0,a
4095.0,3695.0,3232.0,3981.0,2458.0,2281.0,2483.0,2206.0,-1.53,9.67,4.58,0.05,-0.04,-0.14,0.0,a
4095.0,3695.0,3232.0,3981.0,2458.0,2281.0,2483.0,2206.0,-1.53,9.67,4.58,0.05,-0.04,-0.14,0.0,a
4095.0,3695.0,3232.0,3981.0,2458.0,2281.0,2483.0,2206.0,-1.53,9.67,4.58,0.05,-0.04,-0.14,0.0,a
4095.0,3695.0,3232.0,3981.0,2458.0,2281.0,2483.0,2206.0,-1.53,9.67,4.58,0.05,-0.04,-0.14,0.0,a
4095.0,3695.0,3232.0,3981.0,2458.0,2281.0,2483.0,2206.0,-1.53,9.67,4.58,0.05,-0.04,-0.14,0.0,a
4095.0,3695.0,3232.0,3981.0,2458.0,2281.0,2483.0,2206.0,-1.53,9.67,4.58,0.05,-0.04,-0.14,0.0,a
4095.0,3695.0,3232.0,3981.0,2458.0,2281.0,2483.0,2206.0,-1.53,9.67,4.58,0.05,-0.04,-0.14,0.0,a
4095.0,3695.0,3232.0,3981.0,2458.0,2281.0,2483.0,2206.0,-1.53,9.67,4.58,0.05,-0.04,-0.14,0.0,a
4095.0,3695.0,3232.0,3981.0,2458.0,2281.0,2483.0,2206.0,-1.53,9.67,4.58,0.05,-0.04,-0.14,0.0,a
4095.0,3695.0,3232.0,3981.0,2458.0,2281.0,2483.0,2206.0,-1.53,9.67,4.58,0.05,-0.04,-0.14,0.0,a
4095.0,3695.0,3232.0,3981.0,2458.0,2281.0,2483.0,2206.0,-1.53,9.67,4.58,0.05,-0.04,-0.14,0.0,a
4095.0,3695.0,3232.0,3981.0,2458.0,2281.0,2483.0,2206.0,-1.53,9.67,4.58,0.05,-0.04,-0.14,0.0,a
4095.0,3695.0,3232.0,3981.0,2458.0,2281.0,2483.0,2206.0,-1.53,9.67,4.58,0.05,-0.04,-0.14,0.0,a
4095.0,3695.0,3232.0,3981.0,2458.0,2281.0,2483.0,2206.0,-1.53,9.67,4.58,0.05,-0.04,-0.14,0.0,a
4095.0,3695.0,3232.0,3981.0,2458.0,2281.0,2483.0,2206.0,-1.53,9.67,4.58,0.05,-0.04,-0.14,0.0,a
4095.0,3695.0,3232.0,3981.0,2458.0,2281.0,2483.0,2206.0,-1.53,9.67,4.58,0.05,-0.04,-0.14,0.0,a
4095.0,3694.0,3228.0,3994.0,2450.0,2288.0,2482.0,2218.0,-1.81,9.65,4.65,-0.0,0.08,-0.13,0.0,a
4095.0,3694.0,3228.0,3994.0,2450.0,2288.0,2482.0,2218.0,-1.81,9.65,4.65,-0.0,0.08,-0.13,0.0,a
4095.0,3694.0,3228.0,3994.0,2450.0,2288.0,2482.0,2218.0,-1.81,9.65,4.65,-0.0,0.08,-0.13,0.0,a
4095.0,3694.0,3228.0,3994.0,2450.0,2288.0,2482.0,2218.0,-1.81,9.65,4.65,-0.0,0.08,-0.13,0.0,a
4095.0,3694.0,3228.0,3994.0,2450.0,2288.0,2482.0,2218.0,-1.81,9.65,4.65,-0.0,0.08,-0.13,0.0,a
4095.0,3694.0,3228.0,3994.0,2450.0,2288.0,2482.0,2218.0,-1.81,9.65,4.65,-0.0,0.08,-0.13,0.0,a
4095.0,3694.0,3228.0,3994.0,2450.0,2288.0,2482.0,2218.0,-1.81,9.65,4.65,-0.0,0.08,-0.13,0.0,a
4095.0,3694.0,3228.0,3994.0,2450.0,2288.0,2482.0,2218.0,-1.81,9.65,4.65,-0.0,0.08,-0.13,0.0,a
4095.0,3694.0,3228.0,3994.0,2450.0,2288.0,2482.0,2218.0,-1.81,9.65,4.65,-0.0,0.08,-0.13,0.0,a
4095.0,3694.0,3228.0,3994.0,2450.0,2288.0,2482.0,2218.0,-1.81,9.65,4.65,-0.0,0.08,-0.13,0.0,a
4095.0,3694.0,3228.0,3994.0,2450.0,2288.0,2482.0,2218.0,-1.81,9.65,4.65,-0.0,0.08,-0.13,0.0,a
4095.0,3694.0,3228.0,3994.0,2450.0,2288.0,2482.0,2218.0,-1.81,9.65,4.65,-0.0,0.08,-0.13,0.0,a
4095.0,3694.0,3228.0,3994.0,2450.0,2288.0,2482.0,2218.0,-1.81,9.65,4.65,-0.0,0.08,-0.13,0.0,a
4095.0,3694.0,3228.0,3994.0,2450.0,2288.0,2482.0,2218.0,-1.81,9.65,4.65,-0.0,0.08,-0.13,0.0,a
4095.0,3694.0,3228.0,3994.0,2450.0,2288.0,2482.0,2218.0,-1.81,9.65,4.65,-0.0,0.08,-0.13,0.0,a
4095.0,3694.0,3228.0,3994.0,2450.0,2288.0,2482.0,2218.0,-1.81,9.65,4.65,-0.0,0.08,-0.13,0.0,a
4095.0,3694.0,3228.0,3994.0,2450.0,2288.0,2482.0,2218.0,-1.81,9.65,4.65,-0.0,0.08,-0.13,0.0,a
4095.0,3694.0,3228.0,3994.0,2450.0,2288.0,2482.0,2218.0,-1.81,9.65,4.65,-0.0,0.08,-0.13,0.0,a
4095.0,3694.0,3228.0,3994.0,2450.0,2288.0,2482.0,2218.0,-1.81,9.65,4.65,-0.0,0.08,-0.13,0.0,a
4095.0,3694.0,3228.0,3994.0,2450.0,2288.0,2482.0,2218.0,-1.81,9.65,4.65,-0.0,0.08,-0.13,0.0,a
4095.0,3709.0,3229.0,3990.0,2447.0,2295.0,2476.0,2210.0,-1.68,9.71,4.66,0.03,-0.04,-0.17,0.0,a
4095.0,3709.0,3229.0,3990.0,2447.0,2295.0,2476.0,2210.0,-1.68,9.71,4.66,0.03,-0.04,-0.17,0.0,a
4095.0,3709.0,3229.0,3990.0,2447.0,2295.0,2476.0,2210.0,-1.68,9.71,4.66,0.03,-0.04,-0.17,0.0,a
4095.0,3709.0,3229.0,3990.0,2447.0,2295.0,2476.0,2210.0,-1.68,9.71,4.66,0.03,-0.04,-0.17,0.0,a
4095.0,3709.0,3229.0,3990.0,2447.0,2295.0,2476.0,2210.0,-1.68,9.71,4.66,0.03,-0.04,-0.17,0.0,a
4095.0,3709.0,3229.0,3990.0,2447.0,2295.0,2476.0,2210.0,-1.68,9.71,4.66,0.03,-0.04,-0.17,0.0,a
4095.0,3709.0,3229.0,3990.0,2447.0,2295.0,2476.0,2210.0,-1.68,9.71,4.66,0.03,-0.04,-0.17,0.0,a
4095.0,3709.0,3229.0,3990.0,2447.0,2295.0,2476.0,2210.0,-1.68,9.71,4.66,0.03,-0.04,-0.17,0.0,a
4095.0,3709.0,3229.0,3990.0,2447.0,2295.0,2476.0,2210.0,-1.68,9.71,4.66,0.03,-0.04,-0.17,0.0,a
4095.0,3709.0,3229.0,3990.0,2447.0,2295.0,2476.0,2210.0,-1.68,9.71,4.66,0.03,-0.04,-0.17,0.0,a
4095.0,3709.0,3229.0,3990.0,2447.0,2295.0,2476.0,2210.0,-1.68,9.71,4.66,0.03,-0.04,-0.17,0.0,a
4095.0,3709.0,3229.0,3990.0,2447.0,2295.0,2476.0,2210.0,-1.68,9.71,4.66,0.03,-0.04,-0.17,0.0,a
4095.0,3709.0,3229.0,3990.0,2447.0,2295.0,2476.0,2210.0,-1.68,9.71,4.66,0.03,-0.04,-0.17,0.0,a
4095.0,3709.0,3229.0,3990.0,2447.0,2295.0,2476.0,2210.0,-1.68,9.71,4.66,0.03,-0.04,-0.17,0.0,a
4095.0,3709.0,3229.0,3990.0,2447.0,2295.0,2476.0,2210.0,-1.68,9.71,4.66,0.03,-0.04,-0.17,0.0,a
4095.0,3709.0,3229.0,3990.0,2447.0,2295.0,2476.0,2210.0,-1.68,9.71,4.66,0.03,-0.04,-0.17,0.0,a
4095.0,3709.0,3229.0,3990.0,2447.0,2295.0,2476.0,2210.0,-1.68,9.71,4.66,0.03,-0.04,-0.17,0.0,a
4095.0,3709.0,3229.0,3990.0,2447.0,2295.0,2476.0,2210.0,-1.68,9.71,4.66,0.03,-0.04,-0.17,0.0,a
4095.0,3709.0,3229.0,3990.0,2447.0,2295.0,2476.0,2210.0,-1.68,9.71,4.66,0.03,-0.04,-0.17,0.0,a
4095.0,3709.0,3229.0,3990.0,2447.0,2295.0,2476.0,2210.0,-1.68,9.71,4.66,0.03,-0.04,-0.17,0.0,a
4095.0,3693.0,3226.0,3999.0,2449.0,2277.0,2480.0,2207.0,-1.76,9.68,4.68,-0.03,0.07,-0.16,0.0,a
4095.0,3693.0,3226.0,3999.0,2449.0,2277.0,2480.0,2207.0,-1.76,9.68,4.68,-0.03,0.07,-0.16,0.0,a
4095.0,3693.0,3226.0,3999.0,2449.0,2277.0,2480.0,2207.0,-1.76,9.68,4.68,-0.03,0.07,-0.16,0.0,a
4095.0,3693.0,3226.0,3999.0,2449.0,2277.0,2480.0,2207.0,-1.76,9.68,4.68,-0.03,0.07,-0.16,0.0,a
4095.0,3693.0,3226.0,3999.0,2449.0,2277.0,2480.0,2207.0,-1.76,9.68,4.68,-0.03,0.07,-0.16,0.0,a
4095.0,3693.0,3226.0,3999.0,2449.0,2277.0,2480.0,2207.0,-1.76,9.68,4.68,-0.03,0.07,-0.16,0.0,a
4095.0,3693.0,3226.0,3999.0,2449.0,2277.0,2480.0,2207.0,-1.76,9.68,4.68,-0.03,0.07,-0.16,0.0,a
4095.0,3693.0,3226.0,3999.0,2449.0,2277.0,2480.0,2207.0,-1.76,9.68,4.68,-0.03,0.07,-0.16,0.0,a
4095.0,3693.0,3226.0,3999.0,2449.0,2277.0,2480.0,2207.0,-1.76,9.68,4.68,-0.03,0.07,-0.16,0.0,a
4095.0,3693.0,3226.0,3999.0,2449.0,2277.0,2480.0,2207.0,-1.76,9.68,4.68,-0.03,0.07,-0.16,0.0,a
4095.0,3693.0,3226.0,3999.0,2449.0,2277.0,2480.0,2207.0,-1.76,9.68,4.68,-0.03,0.07,-0.16,0.0,a
4095.0,3693.0,3226.0,3999.0,2449.0,2277.0,2480.0,2207.0,-1.76,9.68,4.68,-0.03,0.07,-0.16,0.0,a
4095.0,3693.0,3226.0,3999.0,2449.0,2277.0,2480.0,2207.0,-1.76,9.68,4.68,-0.03,0.07,-0.16,0.0,a
4095.0,3693.0,3226.0,3999.0,2449.0,2277.0,2480.0,2207.0,-1.76,9.68,4.68,-0.03,0.07,-0.16,0.0,a
4095.0,3693.0,3226.0,3999.0,2449.0,2277.0,2480.0,2207.0,-1.76,9.68,4.68,-0.03,0.07,-0.16,0.0,a
4095.0,3693.0,3226.0,3999.0,2449.0,2277.0,2480.0,2207.0,-1.76,9.68,4.68,-0.03,0.07,-0.16,0.0,a
4095.0,3693.0,3226.0,3999.0,2449.0,2277.0,2480.0,2207.0,-1.76,9.68,4.68,-0.03,0.07,-0.16,0.0,a
4095.0,3693.0,3226.0,3999.0,2449.0,2277.0,2480.0,2207.0,-1.76,9.68,4.68,-0.03,0.07,-0.16,0.0,a
4095.0,3693.0,3226.0,3999.0,2449.0,2277.0,2480.0,2207.0,-1.76,9.68,4.68,-0.03,0.07,-0.16,0.0,a
4095.0,3693.0,3226.0,3999.0,2449.0,2277.0,2480.0,2207.0,-1.76,9.68,4.68,-0.03,0.07,-0.16,0.0,a
4095.0,3683.0,3218.0,3984.0,2463.0,2281.0,2496.0,2215.0,-1.93,9.59,4.69,0.01,-0.07,-0.14,0.0,a
4095.0,3683.0,3218.0,3984.0,2463.0,2281.0,2496.0,2215.0,-1.93,9.59,4.69,0.01,-0.07,-0.14,0.0,a
4095.0,3683.0,3218.0,3984.0,2463.0,2281.0,2496.0,2215.0,-1.93,9.59,4.69,0.01,-0.07,-0.14,0.0,a
4095.0,3683.0,3218.0,3984.0,2463.0,2281.0,2496.0,2215.0,-1.93,9.59,4.69,0.01,-0.07,-0.14,0.0,a
4095.0,3683.0,3218.0,3984.0,2463.0,2281.0,2496.0,2215.0,-1.93,9.59,4.69,0.01,-0.07,-0.14,0.0,a
4095.0,3683.0,3218.0,3984.0,2463.0,2281.0,2496.0,2215.0,-1.93,9.59,4.69,0.01,-0.07,-0.14,0.0,a
4095.0,3683.0,3218.0,3984.0,2463.0,2281.0,2496.0,2215.0,-1.93,9.59,4.69,0.01,-0.07,-0.14,0.0,a
4095.0,3683.0,3218.0,3984.0,2463.0,2281.0,2496.0,2215.0,-1.93,9.59,4.69,0.01,-0.07,-0.14,0.0,a
4095.0,3683.0,3218.0,3984.0,2463.0,2281.0,2496.0,2215.0,-1.93,9.59,4.69,0.01,-0.07,-0.14,0.0,a
4095.0,3683.0,3218.0,3984.0,2463.0,2281.0,2496.0,2215.0,-1.93,9.59,4.69,0.01,-0.07,-0.14,0.0,a
4095.0,3683.0,3218.0,3984.0,2463.0,2281.0,2496.0,2215.0,-1.93,9.59,4.69,0.01,-0.07,-0.14,0.0,a
4095.0,3683.0,3218.0,3984.0,2463.0,2281.0,2496.0,2215.0,-1.93,9.59,4.69,0.01,-0.07,-0.14,0.0,a
4095.0,3683.0,3218.0,3984.0,2463.0,2281.0,2496.0,2215.0,-1.93,9.59,4.69,0.01,-0.07,-0.14,0.0,a
4095.0,3683.0,3218.0,3984.0,2463.0,2281.0,2496.0,2215.0,-1.93,9.59,4.69,0.01,-0.07,-0.14,0.0,a
4095.0,3683.0,3218.0,3984.0,2463.0,2281.0,2496.0,2215.0,-1.93,9.59,4.69,0.01,-0.07,-0.14,0.0,a
4095.0,3683.0,3218.0,3984.0,2463.0,2281.0,2496.0,2215.0,-1.93,9.59,4.69,0.01,-0.07,-0.14,0.0,a
4095.0,3683.0,3218.0,3984.0,2463.0,2281.0,2496.0,2215.0,-1.93,9.59,4.69,0.01,-0.07,-0.14,0.0,a
4095.0,3683.0,3218.0,3984.0,2463.0,2281.0,2496.0,2215.0,-1.93,9.59,4.69,0.01,-0.07,-0.14,0.0,a
4095.0,3683.0,3218.0,3984.0,2463.0,2281.0,2496.0,2215.0,-1.93,9.59,4.69,0.01,-0.07,-0.14,0.0,a
4095.0,3683.0,3218.0,3984.0,2463.0,2281.0,2496.0,2215.0,-1.93,9.59,4.69,0.01,-0.07,-0.14,0.0,a
4095.0,3689.0,3249.0,3984.0,2454.0,2282.0,2494.0,2212.0,-1.58,9.68,4.65,0.03,-0.01,-0.18,0.0,a
4095.0,3689.0,3249.0,3984.0,2454.0,2282.0,2494.0,2212.0,-1.58,9.68,4.65,0.03,-0.01,-0.18,0.0,a
4095.0,3689.0,3249.0,3984.0,2454.0,2282.0,2494.0,2212.0,-1.58,9.68,4.65,0.03,-0.01,-0.18,0.0,a
4095.0,3689.0,3249.0,3984.0,2454.0,2282.0,2494.0,2212.0,-1.58,9.68,4.65,0.03,-0.01,-0.18,0.0,a
4095.0,3689.0,3249.0,3984.0,2454.0,2282.0,2494.0,2212.0,-1.58,9.68,4.65,0.03,-0.01,-0.18,0.0,a
4095.0,3689.0,3249.0,3984.0,2454.0,2282.0,2494.0,2212.0,-1.58,9.68,4.65,0.03,-0.01,-0.18,0.0,a
4095.0,3689.0,3249.0,3984.0,2454.0,2282.0,2494.0,2212.0,-1.58,9.68,4.65,0.03,-0.01,-0.18,0.0,a
4095.0,3689.0,3249.0,3984.0,2454.0,2282.0,2494.0,2212.0,-1.58,9.68,4.65,0.03,-0.01,-0.18,0.0,a
4095.0,3689.0,3249.0,3984.0,2454.0,2282.0,2494.0,2212.0,-1.58,9.68,4.65,0.03,-0.01,-0.18,0.0,a
4095.0,3689.0,3249.0,3984.0,2454.0,2282.0,2494.0,2212.0,-1.58,9.68,4.65,0.03,-0.01,-0.18,0.0,a
4095.0,3689.0,3249.0,3984.0,2454.0,2282.0,2494.0,2212.0,-1.58,9.68,4.65,0.03,-0.01,-0.18,0.0,a
4095.0,3689.0,3249.0,3984.0,2454.0,2282.0,2494.0,2212.0,-1.58,9.68,4.65,0.03,-0.01,-0.18,0.0,a
4095.0,3689.0,3249.0,3984.0,2454.0,2282.0,2494.0,2212.0,-1.58,9.68,4.65,0.03,-0.01,-0.18,0.0,a
4095.0,3689.0,3249.0,3984.0,2454.0,2282.0,2494.0,2212.0,-1.58,9.68,4.65,0.03,-0.01,-0.18,0.0,a
4095.0,3689.0,3249.0,3984.0,2454.0,2282.0,2494.0,2212.0,-1.58,9.68,4.65,0.03,-0.01,-0.18,0.0,a
4095.0,3689.0,3249.0,3984.0,2454.0,2282.0,2494.0,2212.0,-1.58,9.68,4.65,0.03,-0.01,-0.18,0.0,a
4095.0,3689.0,3249.0,3984.0,2454.0,2282.0,2494.0,2212.0,-1.58,9.68,4.65,0.03,-0.01,-0.18,0.0,a
4095.0,3689.0,3249.0,3984.0,2454.0,2282.0,2494.0,2212.0,-1.58,9.68,4.65,0.03,-0.01,-0.18,0.0,a
4095.0,3689.0,3249.0,3984.0,2454.0,2282.0,2494.0,2212.0,-1.58,9.68,4.65,0.03,-0.01,-0.18,0.0,a
4095.0,3689.0,3249.0,3984.0,2454.0,2282.0,2494.0,2212.0,-1.58,9.68,4.65,0.03,-0.01,-0.18,0.0,a
4095.0,3687.0,3235.0,3986.0,2465.0,2288.0,2498.0,2209.0,-1.69,9.66,4.84,-0.06,0.0,-0.16,0.0,a
4095.0,3687.0,3235.0,3986.0,2465.0,2288.0,2498.0,2209.0,-1.69,9.66,4.84,-0.06,0.0,-0.16,0.0,a
4095.0,3687.0,3235.0,3986.0,2465.0,2288.0,2498.0,2209.0,-1.69,9.66,4.84,-0.06,0.0,-0.16,0.0,a
4095.0,3687.0,3235.0,3986.0,2465.0,2288.0,2498.0,2209.0,-1.69,9.66,4.84,-0.06,0.0,-0.16,0.0,a
4095.0,3687.0,3235.0,3986.0,2465.0,2288.0,2498.0,2209.0,-1.69,9.66,4.84,-0.06,0.0,-0.16,0.0,a
4095.0,3687.0,3235.0,3986.0,2465.0,2288.0,2498.0,2209.0,-1.69,9.66,4.84,-0.06,0.0,-0.16,0.0,a
4095.0,3687.0,3235.0,3986.0,2465.0,2288.0,2498.0,2209.0,-1.69,9.66,4.84,-0.06,0.0,-0.16,0.0,a
4095.0,3687.0,3235.0,3986.0,2465.0,2288.0,2498.0,2209.0,-1.69,9.66,4.84,-0.06,0.0,-0.16,0.0,a
4095.0,3687.0,3235.0,3986.0,2465.0,2288.0,2498.0,2209.0,-1.69,9.66,4.84,-0.06,0.0,-0.16,0.0,a
4095.0,3687.0,3235.0,3986.0,2465.0,2288.0,2498.0,2209.0,-1.69,9.66,4.84,-0.06,0.0,-0.16,0.0,a
4095.0,3687.0,3235.0,3986.0,2465.0,2288.0,2498.0,2209.0,-1.69,9.66,4.84,-0.06,0.0,-0.16,0.0,a
4095.0,3687.0,3235.0,3986.0,2465.0,2288.0,2498.0,2209.0,-1.69,9.66,4.84,-0.06,0.0,-0.16,0.0,a
4095.0,3687.0,3235.0,3986.0,2465.0,2288.0,2498.0,2209.0,-1.69,9.66,4.84,-0.06,0.0,-0.16,0.0,a
4095.0,3687.0,3235.0,3986.0,2465.0,2288.0,2498.0,2209.0,-1.69,9.66,4.84,-0.06,0.0,-0.16,0.0,a
4095.0,3687.0,3235.0,3986.0,2465.0,2288.0,2498.0,2209.0,-1.69,9.66,4.84,-0.06,0.0,-0.16,0.0,a
4095.0,3687.0,3235.0,3986.0,2465.0,2288.0,2498.0,2209.0,-1.69,9.66,4.84,-0.06,0.0,-0.16,0.0,a
4095.0,3687.0,3235.0,3986.0,2465.0,2288.0,2498.0,2209.0,-1.69,9.66,4.84,-0.06,0.0,-0.16,0.0,a
4095.0,3687.0,3235.0,3986.0,2465.0,2288.0,2498.0,2209.0,-1.69,9.66,4.84,-0.06,0.0,-0.16,0.0,a
4095.0,3687.0,3235.0,3986.0,2465.0,2288.0,2498.0,2209.0,-1.69,9.66,4.84,-0.06,0.0,-0.16,0.0,a
4095.0,3687.0,3235.0,3986.0,2465.0,2288.0,2498.0,2209.0,-1.69,9.66,4.84,-0.06,0.0,-0.16,0.0,a
4095.0,3682.0,3223.0,4014.0,2451.0,2287.0,2489.0,2214.0,-1.81,9.6,4.95,0.04,-0.0,-0.2,0.0,a
4095.0,3682.0,3223.0,4014.0,2451.0,2287.0,2489.0,2214.0,-1.81,9.6,4.95,0.04,-0.0,-0.2,0.0,a
4095.0,3682.0,3223.0,4014.0,2451.0,2287.0,2489.0,2214.0,-1.81,9.6,4.95,0.04,-0.0,-0.2,0.0,a
4095.0,3682.0,3223.0,4014.0,2451.0,2287.0,2489.0,2214.0,-1.81,9.6,4.95,0.04,-0.0,-0.2,0.0,a
4095.0,3682.0,3223.0,4014.0,2451.0,2287.0,2489.0,2214.0,-1.81,9.6,4.95,0.04,-0.0,-0.2,0.0,a
4095.0,3682.0,3223.0,4014.0,2451.0,2287.0,2489.0,2214.0,-1.81,9.6,4.95,0.04,-0.0,-0.2,0.0,a
4095.0,3682.0,3223.0,4014.0,2451.0,2287.0,2489.0,2214.0,-1.81,9.6,4.95,0.04,-0.0,-0.2,0.0,a
4095.0,3682.0,3223.0,4014.0,2451.0,2287.0,2489.0,2214.0,-1.81,9.6,4.95,0.04,-0.0,-0.2,0.0,a
4095.0,3682.0,3223.0,4014.0,2451.0,2287.0,2489.0,2214.0,-1.81,9.6,4.95,0.04,-0.0,-0.2,0.0,a
4095.0,3682.0,3223.0,4014.0,2451.0,2287.0,2489.0,2214.0,-1.81,9.6,4.95,0.04,-0.0,-0.2,0.0,a
4095.0,3682.0,3223.0,4014.0,2451.0,2287.0,2489.0,2214.0,-1.81,9.6,4.95,0.04,-0.0,-0.2,0.0,a
4095.0,3682.0,3223.0,4014.0,2451.0,2287.0,2489.0,2214.0,-1.81,9.6,4.95,0.04,-0.0,-0.2,0.0,a
4095.0,3682.0,3223.0,4014.0,2451.0,2287.0,2489.0,2214.0,-1.81,9.6,4.95,0.04,-0.0,-0.2,0.0,a
4095.0,3682.0,3223.0,4014.0,2451.0,2287.0,2489.0,2214.0,-1.81,9.6,4.95,0.04,-0.0,-0.2,0.0,a
4095.0,3682.0,3223.0,4014.0,2451.0,2287.0,2489.0,2214.0,-1.81,9.6,4.95,0.04,-0.0,-0.2,0.0,a
4095.0,3682.0,3223.0,4014.0,2451.0,2287.0,2489.0,2214.0,-1.81,9.6,4.95,0.04,-0.0,-0.2,0.0,a
4095.0,3682.0,3223.0,4014.0,2451.0,2287.0,2489.0,2214.0,-1.81,9.6,4.95,0.04,-0.0,-0.2,0.0,a
4095.0,3682.0,3223.0,4014.0,2451.0,2287.0,2489.0,2214.0,-1.81,9.6,4.95,0.04,-0.0,-0.2,0.0,a
4095.0,3682.0,3223.0,4014.0,2451.0,2287.0,2489.0,2214.0,-1.81,9.6,4.95,0.04,-0.0,-0.2,0.0,a
4095.0,3682.0,3223.0,4014.0,2451.0,2287.0,2489.0,2214.0,-1.81,9.6,4.95,0.04,-0.0,-0.2,0.0,a
4095.0,3695.0,3236.0,4012.0,2461.0,2288.0,2485.0,2239.0,-1.91,9.67,4.71,0.01,0.04,-0.15,0.0,a
4095.0,3695.0,3236.0,4012.0,2461.0,2288.0,2485.0,2239.0,-1.91,9.67,4.71,0.01,0.04,-0.15,0.0,a
4095.0,3695.0,3236.0,4012.0,2461.0,2288.0,2485.0,2239.0,-1.91,9.67,4.71,0.01,0.04,-0.15,0.0,a
4095.0,3695.0,3236.0,4012.0,2461.0,2288.0,2485.0,2239.0,-1.91,9.67,4.71,0.01,0.04,-0.15,0.0,a
4095.0,3695.0,3236.0,4012.0,2461.0,2288.0,2485.0,2239.0,-1.91,9.67,4.71,0.01,0.04,-0.15,0.0,a
4095.0,3695.0,3236.0,4012.0,2461.0,2288.0,2485.0,2239.0,-1.91,9.67,4.71,0.01,0.04,-0.15,0.0,a
4095.0,3695.0,3236.0,4012.0,2461.0,2288.0,2485.0,2239.0,-1.91,9.67,4.71,0.01,0.04,-0.15,0.0,a
4095.0,3695.0,3236.0,4012.0,2461.0,2288.0,2485.0,2239.0,-1.91,9.67,4.71,0.01,0.04,-0.15,0.0,a
4095.0,3695.0,3236.0,4012.0,2461.0,2288.0,2485.0,2239.0,-1.91,9.67,4.71,0.01,0.04,-0.15,0.0,a
4095.0,3695.0,3236.0,4012.0,2461.0,2288.0,2485.0,2239.0,-1.91,9.67,4.71,0.01,0.04,-0.15,0.0,a
4095.0,3695.0,3236.0,4012.0,2461.0,2288.0,2485.0,2239.0,-1.91,9.67,4.71,0.01,0.04,-0.15,0.0,a
4095.0,3695.0,3236.0,4012.0,2461.0,2288.0,2485.0,2239.0,-1.91,9.67,4.71,0.01,0.04,-0.15,0.0,a
4095.0,3695.0,3236.0,4012.0,2461.0,2288.0,2485.0,2239.0,-1.91,9.67,4.71,0.01,0.04,-0.15,0.0,a
4095.0,3695.0,3236.0,4012.0,2461.0,2288.0,2485.0,2239.0,-1.91,9.67,4.71,0.01,0.04,-0.15,0.0,a
4095.0,3695.0,3236.0,4012.0,2461.0,2288.0,2485.0,2239.0,-1.91,9.67,4.71,0.01,0.04,-0.15,0.0,a
4095.0,3695.0,3236.0,4012.0,2461.0,2288.0,2485.0,2239.0,-1.91,9.67,4.71,0.01,0.04,-0.15,0.0,a
4095.0,3695.0,3236.0,4012.0,2461.0,2288.0,2485.0,2239.0,-1.91,9.67,4.71,0.01,0.04,-0.15,0.0,a
4095.0,3695.0,3236.0,4012.0,2461.0,2288.0,2485.0,2239.0,-1.91,9.67,4.71,0.01,0.04,-0.15,0.0,a
4095.0,3695.0,3236.0,4012.0,2461.0,2288.0,2485.0,2239.0,-1.91,9.67,4.71,0.01,0.04,-0.15,0.0,a
4095.0,3695.0,3236.0,4012.0,2461.0,2288.0,2485.0,2239.0,-1.91,9.67,4.71,0.01,0.04,-0.15,0.0,a
4095.0,3693.0,3223.0,3984.0,2462.0,2299.0,2501.0,2224.0,-1.78,9.64,4.77,0.05,-0.12,-0.17,0.0,a
4095.0,3693.0,3223.0,3984.0,2462.0,2299.0,2501.0,2224.0,-1.78,9.64,4.77,0.05,-0.12,-0.17,0.0,a
4095.0,3693.0,3223.0,3984.0,2462.0,2299.0,2501.0,2224.0,-1.78,9.64,4.77,0.05,-0.12,-0.17,0.0,a
4095.0,3693.0,3223.0,3984.0,2462.0,2299.0,2501.0,2224.0,-1.78,9.64,4.77,0.05,-0.12,-0.17,0.0,a
4095.0,3693.0,3223.0,3984.0,2462.0,2299.0,2501.0,2224.0,-1.78,9.64,4.77,0.05,-0.12,-0.17,0.0,a
4095.0,3693.0,3223.0,3984.0,2462.0,2299.0,2501.0,2224.0,-1.78,9.64,4.77,0.05,-0.12,-0.17,0.0,a
4095.0,3693.0,3223.0,3984.0,2462.0,2299.0,2501.0,2224.0,-1.78,9.64,4.77,0.05,-0.12,-0.17,0.0,a
4095.0,3693.0,3223.0,3984.0,2462.0,2299.0,2501.0,2224.0,-1.78,9.64,4.77,0.05,-0.12,-0.17,0.0,a
4095.0,3693.0,3223.0,3984.0,2462.0,2299.0,2501.0,2224.0,-1.78,9.64,4.77,0.05,-0.12,-0.17,0.0,a
4095.0,3693.0,3223.0,3984.0,2462.0,2299.0,2501.0,2224.0,-1.78,9.64,4.77,0.05,-0.12,-0.17,0.0,a
4095.0,3693.0,3223.0,3984.0,2462.0,2299.0,2501.0,2224.0,-1.78,9.64,4.77,0.05,-0.12,-0.17,0.0,a
4095.0,3693.0,3223.0,3984.0,2462.0,2299.0,2501.0,2224.0,-1.78,9.64,4.77,0.05,-0.12,-0.17,0.0,a
4095.0,3693.0,3223.0,3984.0,2462.0,2299.0,2501.0,2224.0,-1.78,9.64,4.77,0.05,-0.12,-0.17,0.0,a
4095.0,3693.0,3223.0,3984.0,2462.0,2299.0,2501.0,2224.0,-1.78,9.64,4.77,0.05,-0.12,-0.17,0.0,a
4095.0,3693.0,3223.0,3984.0,2462.0,2299.0,2501.0,2224.0,-1.78,9.64,4.77,0.05,-0.12,-0.17,0.0,a
4095.0,3693.0,3223.0,3984.0,2462.0,2299.0,2501.0,2224.0,-1.78,9.64,4.77,0.05,-0.12,-0.17,0.0,a
4095.0,3693.0,3223.0,3984.0,2462.0,2299.0,2501.0,2224.0,-1.78,9.64,4.77,0.05,-0.12,-0.17,0.0,a
4095.0,3693.0,3223.0,3984.0,2462.0,2299.0,2501.0,2224.0,-1.78,9.64,4.77,0.05,-0.12,-0.17,0.0,a
4095.0,3693.0,3223.0,3984.0,2462.0,2299.0,2501.0,2224.0,-1.78,9.64,4.77,0.05,-0.12,-0.17,0.0,a
4095.0,3693.0,3223.0,3984.0,2462.0,2299.0,2501.0,2224.0,-1.78,9.64,4.77,0.05,-0.12,-0.17,0.0,a
4095.0,3694.0,3223.0,4007.0,2468.0,2289.0,2497.0,2226.0,-1.73,9.67,4.75,0.02,0.04,-0.18,0.0,a
4095.0,3694.0,3223.0,4007.0,2468.0,2289.0,2497.0,2226.0,-1.73,9.67,4.75,0.02,0.04,-0.18,0.0,a
4095.0,3694.0,3223.0,4007.0,2468.0,2289.0,2497.0,2226.0,-1.73,9.67,4.75,0.02,0.04,-0.18,0.0,a
4095.0,3694.0,3223.0,4007.0,2468.0,2289.0,2497.0,2226.0,-1.73,9.67,4.75,0.02,0.04,-0.18,0.0,a
4095.0,3694.0,3223.0,4007.0,2468.0,2289.0,2497.0,2226.0,-1.73,9.67,4.75,0.02,0.04,-0.18,0.0,a
4095.0,3694.0,3223.0,4007.0,2468.0,2289.0,2497.0,2226.0,-1.73,9.67,4.75,0.02,0.04,-0.18,0.0,a
4095.0,3694.0,3223.0,4007.0,2468.0,2289.0,2497.0,2226.0,-1.73,9.67,4.75,0.02,0.04,-0.18,0.0,a
4095.0,3694.0,3223.0,4007.0,2468.0,2289.0,2497.0,2226.0,-1.73,9.67,4.75,0.02,0.04,-0.18,0.0,a
4095.0,3694.0,3223.0,4007.0,2468.0,2289.0,2497.0,2226.0,-1.73,9.67,4.75,0.02,0.04,-0.18,0.0,a
4095.0,3694.0,3223.0,4007.0,2468.0,2289.0,2497.0,2226.0,-1.73,9.67,4.75,0.02,0.04,-0.18,0.0,a
4095.0,3694.0,3223.0,4007.0,2468.0,2289.0,2497.0,2226.0,-1.73,9.67,4.75,0.02,0.04,-0.18,0.0,a
4095.0,3694.0,3223.0,4007.0,2468.0,2289.0,2497.0,2226.0,-1.73,9.67,4.75,0.02,0.04,-0.18,0.0,a
4095.0,3694.0,3223.0,4007.0,2468.0,2289.0,2497.0,2226.0,-1.73,9.67,4.75,0.02,0.04,-0.18,0.0,a
4095.0,3694.0,3223.0,4007.0,2468.0,2289.0,2497.0,2226.0,-1.73,9.67,4.75,0.02,0.04,-0.18,0.0,a
4095.0,3694.0,3223.0,4007.0,2468.0,2289.0,2497.0,2226.0,-1.73,9.67,4.75,0.02,0.04,-0.18,0.0,a
4095.0,3694.0,3223.0,4007.0,2468.0,2289.0,2497.0,2226.0,-1.73,9.67,4.75,0.02,0.04,-0.18,0.0,a
4095.0,3694.0,3223.0,4007.0,2468.0,2289.0,2497.0,2226.0,-1.73,9.67,4.75,0.02,0.04,-0.18,0.0,a
4095.0,3694.0,3223.0,4007.0,2468.0,2289.0,2497.0,2226.0,-1.73,9.67,4.75,0.02,0.04,-0.18,0.0,a
4095.0,3694.0,3223.0,4007.0,2468.0,2289.0,2497.0,2226.0,-1.73,9.67,4.75,0.02,0.04,-0.18,0.0,a
4095.0,3694.0,3223.0,4007.0,2468.0,2289.0,2497.0,2226.0,-1.73,9.67,4.75,0.02,0.04,-0.18,0.0,a
4095.0,3695.0,3217.0,4019.0,2454.0,2288.0,2493.0,2230.0,-1.96,9.56,4.89,0.02,0.05,-0.18,0.0,a
4095.0,3695.0,3217.0,4019.0,2454.0,2288.0,2493.0,2230.0,-1.96,9.56,4.89,0.02,0.05,-0.18,0.0,a
4095.0,3695.0,3217.0,4019.0,2454.0,2288.0,2493.0,2230.0,-1.96,9.56,4.89,0.02,0.05,-0.18,0.0,a
4095.0,3695.0,3217.0,4019.0,2454.0,2288.0,2493.0,2230.0,-1.96,9.56,4.89,0.02,0.05,-0.18,0.0,a
4095.0,3695.0,3217.0,4019.0,2454.0,2288.0,2493.0,2230.0,-1.96,9.56,4.89,0.02,0.05,-0.18,0.0,a
4095.0,3695.0,3217.0,4019.0,2454.0,2288.0,2493.0,2230.0,-1.96,9.56,4.89,0.02,0.05,-0.18,0.0,a
4095.0,3695.0,3217.0,4019.0,2454.0,2288.0,2493.0,2230.0,-1.96,9.56,4.89,0.02,0.05,-0.18,0.0,a
4095.0,3695.0,3217.0,4019.0,2454.0,2288.0,2493.0,2230.0,-1.96,9.56,4.89,0.02,0.05,-0.18,0.0,a
4095.0,3695.0,3217.0,4019.0,2454.0,2288.0,2493.0,2230.0,-1.96,9.56,4.89,0.02,0.05,-0.18,0.0,a
4095.0,3695.0,3217.0,4019.0,2454.0,2288.0,2493.0,2230.0,-1.96,9.56,4.89,0.02,0.05,-0.18,0.0,a
4095.0,3695.0,3217.0,4019.0,2454.0,2288.0,2493.0,2230.0,-1.96,9.56,4.89,0.02,0.05,-0.18,0.0,a
4095.0,3695.0,3217.0,4019.0,2454.0,2288.0,2493.0,2230.0,-1.96,9.56,4.89,0.02,0.05,-0.18,0.0,a
4095.0,3695.0,3217.0,4019.0,2454.0,2288.0,2493.0,2230.0,-1.96,9.56,4.89,0.02,0.05,-0.18,0.0,a
4095.0,3695.0,3217.0,4019.0,2454.0,2288.0,2493.0,2230.0,-1.96,9.56,4.89,0.02,0.05,-0.18,0.0,a
4095.0,3695.0,3217.0,4019.0,2454.0,2288.0,2493.0,2230.0,-1.96,9.56,4.89,0.02,0.05,-0.18,0.0,a
4095.0,3695.0,3217.0,4019.0,2454.0,2288.0,2493.0,2230.0,-1.96,9.56,4.89,0.02,0.05,-0.18,0.0,a
4095.0,3695.0,3217.0,4019.0,2454.0,2288.0,2493.0,2230.0,-1.96,9.56,4.89,0.02,0.05,-0.18,0.0,a
4095.0,3695.0,3217.0,4019.0,2454.0,2288.0,2493.0,2230.0,-1.96,9.56,4.89,0.02,0.05,-0.18,0.0,a
4095.0,3695.0,3217.0,4019.0,2454.0,2288.0,2493.0,2230.0,-1.96,9.56,4.89,0.02,0.05,-0.18,0.0,a
4095.0,3695.0,3217.0,4019.0,2454.0,2288.0,2493.0,2230.0,-1.96,9.56,4.89,0.02,0.05,-0.18,0.0,a
4095.0,3679.0,3231.0,3975.0,2461.0,2300.0,2502.0,2226.0,-1.87,9.58,4.77,0.06,-0.05,-0.16,0.0,a
4095.0,3679.0,3231.0,3975.0,2461.0,2300.0,2502.0,2226.0,-1.87,9.58,4.77,0.06,-0.05,-0.16,0.0,a
4095.0,3679.0,3231.0,3975.0,2461.0,2300.0,2502.0,2226.0,-1.87,9.58,4.77,0.06,-0.05,-0.16,0.0,a
4095.0,3679.0,3231.0,3975.0,2461.0,2300.0,2502.0,2226.0,-1.87,9.58,4.77,0.06,-0.05,-0.16,0.0,a
4095.0,3679.0,3231.0,3975.0,2461.0,2300.0,2502.0,2226.0,-1.87,9.58,4.77,0.06,-0.05,-0.16,0.0,a
4095.0,3679.0,3231.0,3975.0,2461.0,2300.0,2502.0,2226.0,-1.87,9.58,4.77,0.06,-0.05,-0.16,0.0,a
4095.0,3679.0,3231.0,3975.0,2461.0,2300.0,2502.0,2226.0,-1.87,9.58,4.77,0.06,-0.05,-0.16,0.0,a
4095.0,3679.0,3231.0,3975.0,2461.0,2300.0,2502.0,2226.0,-1.87,9.58,4.77,0.06,-0.05,-0.16,0.0,a
4095.0,3679.0,3231.0,3975.0,2461.0,2300.0,2502.0,2226.0,-1.87,9.58,4.77,0.06,-0.05,-0.16,0.0,a
4095.0,3679.0,3231.0,3975.0,2461.0,2300.0,2502.0,2226.0,-1.87,9.58,4.77,0.06,-0.05,-0.16,0.0,a
4095.0,3679.0,3231.0,3975.0,2461.0,2300.0,2502.0,2226.0,-1.87,9.58,4.77,0.06,-0.05,-0.16,0.0,a
4095.0,3679.0,3231.0,3975.0,2461.0,2300.0,2502.0,2226.0,-1.87,9.58,4.77,0.06,-0.05,-0.16,0.0,a
4095.0,3679.0,3231.0,3975.0,2461.0,2300.0,2502.0,2226.0,-1.87,9.58,4.77,0.06,-0.05,-0.16,0.0,a
4095.0,3679.0,3231.0,3975.0,2461.0,2300.0,2502.0,2226.0,-1.87,9.58,4.77,0.06,-0.05,-0.16,0.0,a
4095.0,3679.0,3231.0,3975.0,2461.0,2300.0,2502.0,2226.0,-1.87,9.58,4.77,0.06,-0.05,-0.16,0.0,a
4095.0,3679.0,3231.0,3975.0,2461.0,2300.0,2502.0,2226.0,-1.87,9.58,4.77,0.06,-0.05,-0.16,0.0,a
4095.0,3679.0,3231.0,3975.0,2461.0,2300.0,2502.0,2226.0,-1.87,9.58,4.77,0.06,-0.05,-0.16,0.0,a
4095.0,3679.0,3231.0,3975.0,2461.0,2300.0,2502.0,2226.0,-1.87,9.58,4.77,0.06,-0.05,-0.16,0.0,a
4095.0,3679.0,3231.0,3975.0,2461.0,2300.0,2502.0,2226.0,-1.87,9.58,4.77,0.06,-0.05,-0.16,0.0,a
4095.0,3679.0,3231.0,3975.0,2461.0,2300.0,2502.0,2226.0,-1.87,9.58,4.77,0.06,-0.05,-0.16,0.0,a
4095.0,3694.0,3229.0,4011.0,2453.0,2290.0,2493.0,2226.0,-1.86,9.68,4.63,0.02,0.01,-0.13,0.0,a
4095.0,3694.0,3229.0,4011.0,2453.0,2290.0,2493.0,2226.0,-1.86,9.68,4.63,0.02,0.01,-0.13,0.0,a
4095.0,3694.0,3229.0,4011.0,2453.0,2290.0,2493.0,2226.0,-1.86,9.68,4.63,0.02,0.01,-0.13,0.0,a
4095.0,3694.0,3229.0,4011.0,2453.0,2290.0,2493.0,2226.0,-1.86,9.68,4.63,0.02,0.01,-0.13,0.0,a
4095.0,3694.0,3229.0,4011.0,2453.0,2290.0,2493.0,2226.0,-1.86,9.68,4.63,0.02,0.01,-0.13,0.0,a
4095.0,3694.0,3229.0,4011.0,2453.0,2290.0,2493.0,2226.0,-1.86,9.68,4.63,0.02,0.01,-0.13,0.0,a
4095.0,3694.0,3229.0,4011.0,2453.0,2290.0,2493.0,2226.0,-1.86,9.68,4.63,0.02,0.01,-0.13,0.0,a
4095.0,3694.0,3229.0,4011.0,2453.0,2290.0,2493.0,2226.0,-1.86,9.68,4.63,0.02,0.01,-0.13,0.0,a
4095.0,3694.0,3229.0,4011.0,2453.0,2290.0,2493.0,2226.0,-1.86,9.68,4.63,0.02,0.01,-0.13,0.0,a
4095.0,3694.0,3229.0,4011.0,2453.0,2290.0,2493.0,2226.0,-1.86,9.68,4.63,0.02,0.01,-0.13,0.0,a
4095.0,3694.0,3229.0,4011.0,2453.0,2290.0,2493.0,2226.0,-1.86,9.68,4.63,0.02,0.01,-0.13,0.0,a
4095.0,3694.0,3229.0,4011.0,2453.0,2290.0,2493.0,2226.0,-1.86,9.68,4.63,0.02,0.01,-0.13,0.0,a
4095.0,3694.0,3229.0,4011.0,2453.0,2290.0,2493.0,2226.0,-1.86,9.68,4.63,0.02,0.01,-0.13,0.0,a
4095.0,3694.0,3229.0,4011.0,2453.0,2290.0,2493.0,2226.0,-1.86,9.68,4.63,0.02,0.01,-0.13,0.0,a
4095.0,3694.0,3229.0,4011.0,2453.0,2290.0,2493.0,2226.0,-1.86,9.68,4.63,0.02,0.01,-0.13,0.0,a
4095.0,3694.0,3229.0,4011.0,2453.0,2290.0,2493.0,2226.0,-1.86,9.68,4.63,0.02,0.01,-0.13,0.0,a
4095.0,3694.0,3229.0,4011.0,2453.0,2290.0,2493.0,2226.0,-1.86,9.68,4.63,0.02,0.01,-0.13,0.0,a
4095.0,3694.0,3229.0,4011.0,2453.0,2290.0,2493.0,2226.0,-1.86,9.68,4.63,0.02,0.01,-0.13,0.0,a
4095.0,3694.0,3229.0,4011.0,2453.0,2290.0,2493.0,2226.0,-1.86,9.68,4.63,0.02,0.01,-0.13,0.0,a
4095.0,3694.0,3229.0,4011.0,2453.0,2290.0,2493.0,2226.0,-1.86,9.68,4.63,0.02,0.01,-0.13,0.0,a
4095.0,3684.0,3231.0,3983.0,2453.0,2305.0,2489.0,2240.0,-1.81,9.63,4.81,0.0,0.02,-0.14,0.0,a
4095.0,3684.0,3231.0,3983.0,2453.0,2305.0,2489.0,2240.0,-1.81,9.63,4.81,0.0,0.02,-0.14,0.0,a
4095.0,3684.0,3231.0,3983.0,2453.0,2305.0,2489.0,2240.0,-1.81,9.63,4.81,0.0,0.02,-0.14,0.0,a
4095.0,3684.0,3231.0,3983.0,2453.0,2305.0,2489.0,2240.0,-1.81,9.63,4.81,0.0,0.02,-0.14,0.0,a
4095.0,3684.0,3231.0,3983.0,2453.0,2305.0,2489.0,2240.0,-1.81,9.63,4.81,0.0,0.02,-0.14,0.0,a
4095.0,3684.0,3231.0,3983.0,2453.0,2305.0,2489.0,2240.0,-1.81,9.63,4.81,0.0,0.02,-0.14,0.0,a
4095.0,3684.0,3231.0,3983.0,2453.0,2305.0,2489.0,2240.0,-1.81,9.63,4.81,0.0,0.02,-0.14,0.0,a
4095.0,3684.0,3231.0,3983.0,2453.0,2305.0,2489.0,2240.0,-1.81,9.63,4.81,0.0,0.02,-0.14,0.0,a
4095.0,3684.0,3231.0,3983.0,2453.0,2305.0,2489.0,2240.0,-1.81,9.63,4.81,0.0,0.02,-0.14,0.0,a
4095.0,3684.0,3231.0,3983.0,2453.0,2305.0,2489.0,2240.0,-1.81,9.63,4.81,0.0,0.02,-0.14,0.0,a
4095.0,3684.0,3231.0,3983.0,2453.0,2305.0,2489.0,2240.0,-1.81,9.63,4.81,0.0,0.02,-0.14,0.0,a
4095.0,3684.0,3231.0,3983.0,2453.0,2305.0,2489.0,2240.0,-1.81,9.63,4.81,0.0,0.02,-0.14,0.0,a
4095.0,3684.0,3231.0,3983.0,2453.0,2305.0,2489.0,2240.0,-1.81,9.63,4.81,0.0,0.02,-0.14,0.0,a
4095.0,3684.0,3231.0,3983.0,2453.0,2305.0,2489.0,2240.0,-1.81,9.63,4.81,0.0,0.02,-0.14,0.0,a
4095.0,3684.0,3231.0,3983.0,2453.0,2305.0,2489.0,2240.0,-1.81,9.63,4.81,0.0,0.02,-0.14,0.0,a
4095.0,3684.0,3231.0,3983.0,2453.0,2305.0,2489.0,2240.0,-1.81,9.63,4.81,0.0,0.02,-0.14,0.0,a
4095.0,3684.0,3231.0,3983.0,2453.0,2305.0,2489.0,2240.0,-1.81,9.63,4.81,0.0,0.02,-0.14,0.0,a
4095.0,3684.0,3231.0,3983.0,2453.0,2305.0,2489.0,2240.0,-1.81,9.63,4.81,0.0,0.02,-0.14,0.0,a
4095.0,3684.0,3231.0,3983.0,2453.0,2305.0,2489.0,2240.0,-1.81,9.63,4.81,0.0,0.02,-0.14,0.0,a
4095.0,3684.0,3231.0,3983.0,2453.0,2305.0,2489.0,2240.0,-1.81,9.63,4.81,0.0,0.02,-0.14,0.0,a
4095.0,3707.0,3229.0,3984.0,2475.0,2285.0,2521.0,2224.0,-1.72,9.62,4.6,0.03,0.03,-0.18,0.0,a
4095.0,3707.0,3229.0,3984.0,2475.0,2285.0,2521.0,2224.0,-1.72,9.62,4.6,0.03,0.03,-0.18,0.0,a
4095.0,3707.0,3229.0,3984.0,2475.0,2285.0,2521.0,2224.0,-1.72,9.62,4.6,0.03,0.03,-0.18,0.0,a
4095.0,3707.0,3229.0,3984.0,2475.0,2285.0,2521.0,2224.0,-1.72,9.62,4.6,0.03,0.03,-0.18,0.0,a
4095.0,3707.0,3229.0,3984.0,2475.0,2285.0,2521.0,2224.0,-1.72,9.62,4.6,0.03,0.03,-0.18,0.0,a
4095.0,3707.0,3229.0,3984.0,2475.0,2285.0,2521.0,2224.0,-1.72,9.62,4.6,0.03,0.03,-0.18,0.0,a
4095.0,3707.0,3229.0,3984.0,2475.0,2285.0,2521.0,2224.0,-1.72,9.62,4.6,0.03,0.03,-0.18,0.0,a
4095.0,3707.0,3229.0,3984.0,2475.0,2285.0,2521.0,2224.0,-1.72,9.62,4.6,0.03,0.03,-0.18,0.0,a
4095.0,3707.0,3229.0,3984.0,2475.0,2285.0,2521.0,2224.0,-1.72,9.62,4.6,0.03,0.03,-0.18,0.0,a
4095.0,3707.0,3229.0,3984.0,2475.0,2285.0,2521.0,2224.0,-1.72,9.62,4.6,0.03,0.03,-0.18,0.0,a
4095.0,3707.0,3229.0,3984.0,2475.0,2285.0,2521.0,2224.0,-1.72,9.62,4.6,0.03,0.03,-0.18,0.0,a
4095.0,3707.0,3229.0,3984.0,2475.0,2285.0,2521.0,2224.0,-1.72,9.62,4.6,0.03,0.03,-0.18,0.0,a
4095.0,3707.0,3229.0,3984.0,2475.0,2285.0,2521.0,2224.0,-1.72,9.62,4.6,0.03,0.03,-0.18,0.0,a
4095.0,3707.0,3229.0,3984.0,2475.0,2285.0,2521.0,2224.0,-1.72,9.62,4.6,0.03,0.03,-0.18,0.0,a
4095.0,3707.0,3229.0,3984.0,2475.0,2285.0,2521.0,2224.0,-1.72,9.62,4.6,0.03,0.03,-0.18,0.0,a
4095.0,3707.0,3229.0,3984.0,2475.0,2285.0,2521.0,2224.0,-1.72,9.62,4.6,0.03,0.03,-0.18,0.0,a
4095.0,3707.0,3229.0,3984.0,2475.0,2285.0,2521.0,2224.0,-1.72,9.62,4.6,0.03,0.03,-0.18,0.0,a
4095.0,3707.0,3229.0,3984.0,2475.0,2285.0,2521.0,2224.0,-1.72,9.62,4.6,0.03,0.03,-0.18,0.0,a
4095.0,3707.0,3229.0,3984.0,2475.0,2285.0,2521.0,2224.0,-1.72,9.62,4.6,0.03,0.03,-0.18,0.0,a
4095.0,3707.0,3229.0,3984.0,2475.0,2285.0,2521.0,2224.0,-1.72,9.62,4.6,0.03,0.03,-0.18,0.0,a
4083.0,3554.0,3059.0,4095.0,2486.0,2320.0,2482.0,2267.0,-2.0,9.57,4.51,-0.02,-0.02,-0.12,0.0,a
4083.0,3554.0,3059.0,4095.0,2486.0,2320.0,2482.0,2267.0,-2.0,9.57,4.51,-0.02,-0.02,-0.12,0.0,a
4083.0,3554.0,3059.0,4095.0,2486.0,2320.0,2482.0,2267.0,-2.0,9.57,4.51,-0.02,-0.02,-0.12,0.0,a
4083.0,3554.0,3059.0,4095.0,2486.0,2320.0,2482.0,2267.0,-2.0,9.57,4.51,-0.02,-0.02,-0.12,0.0,a
4083.0,3554.0,3059.0,4095.0,2486.0,2320.0,2482.0,2267.0,-2.0,9.57,4.51,-0.02,-0.02,-0.12,0.0,a
4083.0,3554.0,3059.0,4095.0,2486.0,2320.0,2482.0,2267.0,-2.0,9.57,4.51,-0.02,-0.02,-0.12,0.0,a
4083.0,3554.0,3059.0,4095.0,2486.0,2320.0,2482.0,2267.0,-2.0,9.57,4.51,-0.02,-0.02,-0.12,0.0,a
4083.0,3554.0,3059.0,4095.0,2486.0,2320.0,2482.0,2267.0,-2.0,9.57,4.51,-0.02,-0.02,-0.12,0.0,a
4083.0,3554.0,3059.0,4095.0,2486.0,2320.0,2482.0,2267.0,-2.0,9.57,4.51,-0.02,-0.02,-0.12,0.0,a
4083.0,3554.0,3059.0,4095.0,2486.0,2320.0,2482.0,2267.0,-2.0,9.57,4.51,-0.02,-0.02,-0.12,0.0,a
4083.0,3554.0,3059.0,4095.0,2486.0,2320.0,2482.0,2267.0,-2.0,9.57,4.51,-0.02,-0.02,-0.12,0.0,a
4083.0,3554.0,3059.0,4095.0,2486.0,2320.0,2482.0,2267.0,-2.0,9.57,4.51,-0.02,-0.02,-0.12,0.0,a
4083.0,3554.0,3059.0,4095.0,2486.0,2320.0,2482.0,2267.0,-2.0,9.57,4.51,-0.02,-0.02,-0.12,0.0,a
4083.0,3554.0,3059.0,4095.0,2486.0,2320.0,2482.0,2267.0,-2.0,9.57,4.51,-0.02,-0.02,-0.12,0.0,a
4083.0,3554.0,3059.0,4095.0,2486.0,2320.0,2482.0,2267.0,-2.0,9.57,4.51,-0.02,-0.02,-0.12,0.0,a
4083.0,3554.0,3059.0,4095.0,2486.0,2320.0,2482.0,2267.0,-2.0,9.57,4.51,-0.02,-0.02,-0.12,0.0,a
4083.0,3554.0,3059.0,4095.0,2486.0,2320.0,2482.0,2267.0,-2.0,9.57,4.51,-0.02,-0.02,-0.12,0.0,a
4083.0,3554.0,3059.0,4095.0,2486.0,2320.0,2482.0,2267.0,-2.0,9.57,4.51,-0.02,-0.02,-0.12,0.0,a
4083.0,3554.0,3059.0,4095.0,2486.0,2320.0,2482.0,2267.0,-2.0,9.57,4.51,-0.02,-0.02,-0.12,0.0,a
4083.0,3554.0,3059.0,4095.0,2486.0,2320.0,2482.0,2267.0,-2.0,9.57,4.51,-0.02,-0.02,-0.12,0.0,a
4095.0,3539.0,3043.0,4095.0,2481.0,2306.0,2496.0,2265.0,-2.15,9.66,4.79,0.05,0.06,-0.19,0.0,a
4095.0,3539.0,3043.0,4095.0,2481.0,2306.0,2496.0,2265.0,-2.15,9.66,4.79,0.05,0.06,-0.19,0.0,a
4095.0,3539.0,3043.0,4095.0,2481.0,2306.0,2496.0,2265.0,-2.15,9.66,4.79,0.05,0.06,-0.19,0.0,a
4095.0,3539.0,3043.0,4095.0,2481.0,2306.0,2496.0,2265.0,-2.15,9.66,4.79,0.05,0.06,-0.19,0.0,a
4095.0,3539.0,3043.0,4095.0,2481.0,2306.0,2496.0,2265.0,-2.15,9.66,4.79,0.05,0.06,-0.19,0.0,a
4095.0,3539.0,3043.0,4095.0,2481.0,2306.0,2496.0,2265.0,-2.15,9.66,4.79,0.05,0.06,-0.19,0.0,a
4095.0,3539.0,3043.0,4095.0,2481.0,2306.0,2496.0,2265.0,-2.15,9.66,4.79,0.05,0.06,-0.19,0.0,a
4095.0,3539.0,3043.0,4095.0,2481.0,2306.0,2496.0,2265.0,-2.15,9.66,4.79,0.05,0.06,-0.19,0.0,a
4095.0,3539.0,3043.0,4095.0,2481.0,2306.0,2496.0,2265.0,-2.15,9.66,4.79,0.05,0.06,-0.19,0.0,a
4095.0,3539.0,3043.0,4095.0,2481.0,2306.0,2496.0,2265.0,-2.15,9.66,4.79,0.05,0.06,-0.19,0.0,a
4095.0,3539.0,3043.0,4095.0,2481.0,2306.0,2496.0,2265.0,-2.15,9.66,4.79,0.05,0.06,-0.19,0.0,a
4095.0,3539.0,3043.0,4095.0,2481.0,2306.0,2496.0,2265.0,-2.15,9.66,4.79,0.05,0.06,-0.19,0.0,a
4095.0,3539.0,3043.0,4095.0,2481.0,2306.0,2496.0,2265.0,-2.15,9.66,4.79,0.05,0.06,-0.19,0.0,a
4095.0,3539.0,3043.0,4095.0,2481.0,2306.0,2496.0,2265.0,-2.15,9.66,4.79,0.05,0.06,-0.19,0.0,a
4095.0,3539.0,3043.0,4095.0,2481.0,2306.0,2496.0,2265.0,-2.15,9.66,4.79,0.05,0.06,-0.19,0.0,a
4095.0,3539.0,3043.0,4095.0,2481.0,2306.0,2496.0,2265.0,-2.15,9.66,4.79,0.05,0.06,-0.19,0.0,a
4095.0,3539.0,3043.0,4095.0,2481.0,2306.0,2496.0,2265.0,-2.15,9.66,4.79,0.05,0.06,-0.19,0.0,a
4095.0,3539.0,3043.0,4095.0,2481.0,2306.0,2496.0,2265.0,-2.15,9.66,4.79,0.05,0.06,-0.19,0.0,a
4095.0,3539.0,3043.0,4095.0,2481.0,2306.0,2496.0,2265.0,-2.15,9.66,4.79,0.05,0.06,-0.19,0.0,a
4095.0,3539.0,3043.0,4095.0,2481.0,2306.0,2496.0,2265.0,-2.15,9.66,4.79,0.05,0.06,-0.19,0.0,a
4095.0,3539.0,3053.0,4095.0,2486.0,2320.0,2498.0,2275.0,-2.22,9.45,4.72,0.04,-0.0,-0.15,0.0,a
4095.0,3539.0,3053.0,4095.0,2486.0,2320.0,2498.0,2275.0,-2.22,9.45,4.72,0.04,-0.0,-0.15,0.0,a
4095.0,3539.0,3053.0,4095.0,2486.0,2320.0,2498.0,2275.0,-2.22,9.45,4.72,0.04,-0.0,-0.15,0.0,a
4095.0,3539.0,3053.0,4095.0,2486.0,2320.0,2498.0,2275.0,-2.22,9.45,4.72,0.04,-0.0,-0.15,0.0,a
4095.0,3539.0,3053.0,4095.0,2486.0,2320.0,2498.0,2275.0,-2.22,9.45,4.72,0.04,-0.0,-0.15,0.0,a
4095.0,3539.0,3053.0,4095.0,2486.0,2320.0,2498.0,2275.0,-2.22,9.45,4.72,0.04,-0.0,-0.15,0.0,a
4095.0,3539.0,3053.0,4095.0,2486.0,2320.0,2498.0,2275.0,-2.22,9.45,4.72,0.04,-0.0,-0.15,0.0,a
4095.0,3539.0,3053.0,4095.0,2486.0,2320.0,2498.0,2275.0,-2.22,9.45,4.72,0.04,-0.0,-0.15,0.0,a
4095.0,3539.0,3053.0,4095.0,2486.0,2320.0,2498.0,2275.0,-2.22,9.45,4.72,0.04,-0.0,-0.15,0.0,a
4095.0,3539.0,3053.0,4095.0,2486.0,2320.0,2498.0,2275.0,-2.22,9.45,4.72,0.04,-0.0,-0.15,0.0,a
4095.0,3539.0,3053.0,4095.0,2486.0,2320.0,2498.0,2275.0,-2.22,9.45,4.72,0.04,-0.0,-0.15,0.0,a
4095.0,3539.0,3053.0,4095.0,2486.0,2320.0,2498.0,2275.0,-2.22,9.45,4.72,0.04,-0.0,-0.15,0.0,a
4095.0,3539.0,3053.0,4095.0,2486.0,2320.0,2498.0,2275.0,-2.22,9.45,4.72,0.04,-0.0,-0.15,0.0,a
4095.0,3539.0,3053.0,4095.0,2486.0,2320.0,2498.0,2275.0,-2.22,9.45,4.72,0.04,-0.0,-0.15,0.0,a
4095.0,3539.0,3053.0,4095.0,2486.0,2320.0,2498.0,2275.0,-2.22,9.45,4.72,0.04,-0.0,-0.15,0.0,a
4095.0,3539.0,3053.0,4095.0,2486.0,2320.0,2498.0,2275.0,-2.22,9.45,4.72,0.04,-0.0,-0.15,0.0,a
4095.0,3539.0,3053.0,4095.0,2486.0,2320.0,2498.0,2275.0,-2.22,9.45,4.72,0.04,-0.0,-0.15,0.0,a
4095.0,3539.0,3053.0,4095.0,2486.0,2320.0,2498.0,2275.0,-2.22,9.45,4.72,0.04,-0.0,-0.15,0.0,a
4095.0,3539.0,3053.0,4095.0,2486.0,2320.0,2498.0,2275.0,-2.22,9.45,4.72,0.04,-0.0,-0.15,0.0,a
4095.0,3539.0,3053.0,4095.0,2486.0,2320.0,2498.0,2275.0,-2.22,9.45,4.72,0.04,-0.0,-0.15,0.0,a
4071.0,3533.0,3034.0,4095.0,2495.0,2318.0,2506.0,2262.0,-2.33,9.66,4.45,0.13,0.0,-0.17,0.0,a
4071.0,3533.0,3034.0,4095.0,2495.0,2318.0,2506.0,2262.0,-2.33,9.66,4.45,0.13,0.0,-0.17,0.0,a
4071.0,3533.0,3034.0,4095.0,2495.0,2318.0,2506.0,2262.0,-2.33,9.66,4.45,0.13,0.0,-0.17,0.0,a
4071.0,3533.0,3034.0,4095.0,2495.0,2318.0,2506.0,2262.0,-2.33,9.66,4.45,0.13,0.0,-0.17,0.0,a
4071.0,3533.0,3034.0,4095.0,2495.0,2318.0,2506.0,2262.0,-2.33,9.66,4.45,0.13,0.0,-0.17,0.0,a
4071.0,3533.0,3034.0,4095.0,2495.0,2318.0,2506.0,2262.0,-2.33,9.66,4.45,0.13,0.0,-0.17,0.0,a
4071.0,3533.0,3034.0,4095.0,2495.0,2318.0,2506.0,2262.0,-2.33,9.66,4.45,0.13,0.0,-0.17,0.0,a
4071.0,3533.0,3034.0,4095.0,2495.0,2318.0,2506.0,2262.0,-2.33,9.66,4.45,0.13,0.0,-0.17,0.0,a
4071.0,3533.0,3034.0,4095.0,2495.0,2318.0,2506.0,2262.0,-2.33,9.66,4.45,0.13,0.0,-0.17,0.0,a
4071.0,3533.0,3034.0,4095.0,2495.0,2318.0,2506.0,2262.0,-2.33,9.66,4.45,0.13,0.0,-0.17,0.0,a
4071.0,3533.0,3034.0,4095.0,2495.0,2318.0,2506.0,2262.0,-2.33,9.66,4.45,0.13,0.0,-0.17,0.0,a
4071.0,3533.0,3034.0,4095.0,2495.0,2318.0,2506.0,2262.0,-2.33,9.66,4.45,0.13,0.0,-0.17,0.0,a
4071.0,3533.0,3034.0,4095.0,2495.0,2318.0,2506.0,2262.0,-2.33,9.66,4.45,0.13,0.0,-0.17,0.0,a
4071.0,3533.0,3034.0,4095.0,2495.0,2318.0,2506.0,2262.0,-2.33,9.66,4.45,0.13,0.0,-0.17,0.0,a
4071.0,3533.0,3034.0,4095.0,2495.0,2318.0,2506.0,2262.0,-2.33,9.66,4.45,0.13,0.0,-0.17,0.0,a
4071.0,3533.0,3034.0,4095.0,2495.0,2318.0,2506.0,2262.0,-2.33,9.66,4.45,0.13,0.0,-0.17,0.0,a
4071.0,3533.0,3034.0,4095.0,2495.0,2318.0,2506.0,2262.0,-2.33,9.66,4.45,0.13,0.0,-0.17,0.0,a
4071.0,3533.0,3034.0,4095.0,2495.0,2318.0,2506.0,2262.0,-2.33,9.66,4.45,0.13,0.0,-0.17,0.0,a
4071.0,3533.0,3034.0,4095.0,2495.0,2318.0,2506.0,2262.0,-2.33,9.66,4.45,0.13,0.0,-0.17,0.0,a
4071.0,3533.0,3034.0,4095.0,2495.0,2318.0,2506.0,2262.0,-2.33,9.66,4.45,0.13,0.0,-0.17,0.0,a
4094.0,3561.0,3051.0,4095.0,2496.0,2323.0,2503.0,2269.0,-2.12,9.63,4.34,-0.05,-0.04,-0.08,0.0,a
4094.0,3561.0,3051.0,4095.0,2496.0,2323.0,2503.0,2269.0,-2.12,9.63,4.34,-0.05,-0.04,-0.08,0.0,a
4094.0,3561.0,3051.0,4095.0,2496.0,2323.0,2503.0,2269.0,-2.12,9.63,4.34,-0.05,-0.04,-0.08,0.0,a
4094.0,3561.0,3051.0,4095.0,2496.0,2323.0,2503.0,2269.0,-2.12,9.63,4.34,-0.05,-0.04,-0.08,0.0,a
4094.0,3561.0,3051.0,4095.0,2496.0,2323.0,2503.0,2269.0,-2.12,9.63,4.34,-0.05,-0.04,-0.08,0.0,a
4094.0,3561.0,3051.0,4095.0,2496.0,2323.0,2503.0,2269.0,-2.12,9.63,4.34,-0.05,-0.04,-0.08,0.0,a
4094.0,3561.0,3051.0,4095.0,2496.0,2323.0,2503.0,2269.0,-2.12,9.63,4.34,-0.05,-0.04,-0.08,0.0,a
4094.0,3561.0,3051.0,4095.0,2496.0,2323.0,2503.0,2269.0,-2.12,9.63,4.34,-0.05,-0.04,-0.08,0.0,a
4094.0,3561.0,3051.0,4095.0,2496.0,2323.0,2503.0,2269.0,-2.12,9.63,4.34,-0.05,-0.04,-0.08,0.0,a
4094.0,3561.0,3051.0,4095.0,2496.0,2323.0,2503.0,2269.0,-2.12,9.63,4.34,-0.05,-0.04,-0.08,0.0,a
4094.0,3561.0,3051.0,4095.0,2496.0,2323.0,2503.0,2269.0,-2.12,9.63,4.34,-0.05,-0.04,-0.08,0.0,a
4094.0,3561.0,3051.0,4095.0,2496.0,2323.0,2503.0,2269.0,-2.12,9.63,4.34,-0.05,-0.04,-0.08,0.0,a
4094.0,3561.0,3051.0,4095.0,2496.0,2323.0,2503.0,2269.0,-2.12,9.63,4.34,-0.05,-0.04,-0.08,0.0,a
4094.0,3561.0,3051.0,4095.0,2496.0,2323.0,2503.0,2269.0,-2.12,9.63,4.34,-0.05,-0.04,-0.08,0.0,a
4094.0,3561.0,3051.0,4095.0,2496.0,2323.0,2503.0,2269.0,-2.12,9.63,4.34,-0.05,-0.04,-0.08,0.0,a
4094.0,3561.0,3051.0,4095.0,2496.0,2323.0,2503.0,2269.0,-2.12,9.63,4.34,-0.05,-0.04,-0.08,0.0,a
4094.0,3561.0,3051.0,4095.0,2496.0,2323.0,2503.0,2269.0,-2.12,9.63,4.34,-0.05,-0.04,-0.08,0.0,a
4094.0,3561.0,3051.0,4095.0,2496.0,2323.0,2503.0,2269.0,-2.12,9.63,4.34,-0.05,-0.04,-0.08,0.0,a
4094.0,3561.0,3051.0,4095.0,2496.0,2323.0,2503.0,2269.0,-2.12,9.63,4.34,-0.05,-0.04,-0.08,0.0,a
4094.0,3561.0,3051.0,4095.0,2496.0,2323.0,2503.0,2269.0,-2.12,9.63,4.34,-0.05,-0.04,-0.08,0.0,a
4095.0,3547.0,3039.0,4095.0,2494.0,2322.0,2497.0,2273.0,-2.02,9.62,4.55,-0.04,0.05,-0.14,0.0,a
4095.0,3547.0,3039.0,4095.0,2494.0,2322.0,2497.0,2273.0,-2.02,9.62,4.55,-0.04,0.05,-0.14,0.0,a
4095.0,3547.0,3039.0,4095.0,2494.0,2322.0,2497.0,2273.0,-2.02,9.62,4.55,-0.04,0.05,-0.14,0.0,a
4095.0,3547.0,3039.0,4095.0,2494.0,2322.0,2497.0,2273.0,-2.02,9.62,4.55,-0.04,0.05,-0.14,0.0,a
4095.0,3547.0,3039.0,4095.0,2494.0,2322.0,2497.0,2273.0,-2.02,9.62,4.55,-0.04,0.05,-0.14,0.0,a
4095.0,3547.0,3039.0,4095.0,2494.0,2322.0,2497.0,2273.0,-2.02,9.62,4.55,-0.04,0.05,-0.14,0.0,a
4095.0,3547.0,3039.0,4095.0,2494.0,2322.0,2497.0,2273.0,-2.02,9.62,4.55,-0.04,0.05,-0.14,0.0,a
4095.0,3547.0,3039.0,4095.0,2494.0,2322.0,2497.0,2273.0,-2.02,9.62,4.55,-0.04,0.05,-0.14,0.0,a
4095.0,3547.0,3039.0,4095.0,2494.0,2322.0,2497.0,2273.0,-2.02,9.62,4.55,-0.04,0.05,-0.14,0.0,a
4095.0,3547.0,3039.0,4095.0,2494.0,2322.0,2497.0,2273.0,-2.02,9.62,4.55,-0.04,0.05,-0.14,0.0,a
4095.0,3547.0,3039.0,4095.0,2494.0,2322.0,2497.0,2273.0,-2.02,9.62,4.55,-0.04,0.05,-0.14,0.0,a
4095.0,3547.0,3039.0,4095.0,2494.0,2322.0,2497.0,2273.0,-2.02,9.62,4.55,-0.04,0.05,-0.14,0.0,a
4095.0,3547.0,3039.0,4095.0,2494.0,2322.0,2497.0,2273.0,-2.02,9.62,4.55,-0.04,0.05,-0.14,0.0,a
4095.0,3547.0,3039.0,4095.0,2494.0,2322.0,2497.0,2273.0,-2.02,9.62,4.55,-0.04,0.05,-0.14,0.0,a
4095.0,3547.0,3039.0,4095.0,2494.0,2322.0,2497.0,2273.0,-2.02,9.62,4.55,-0.04,0.05,-0.14,0.0,a
4095.0,3547.0,3039.0,4095.0,2494.0,2322.0,2497.0,2273.0,-2.02,9.62,4.55,-0.04,0.05,-0.14,0.0,a
4095.0,3547.0,3039.0,4095.0,2494.0,2322.0,2497.0,2273.0,-2.02,9.62,4.55,-0.04,0.05,-0.14,0.0,a
4095.0,3547.0,3039.0,4095.0,2494.0,2322.0,2497.0,2273.0,-2.02,9.62,4.55,-0.04,0.05,-0.14,0.0,a
4095.0,3547.0,3039.0,4095.0,2494.0,2322.0,2497.0,2273.0,-2.02,9.62,4.55,-0.04,0.05,-0.14,0.0,a
4095.0,3547.0,3039.0,4095.0,2494.0,2322.0,2497.0,2273.0,-2.02,9.62,4.55,-0.04,0.05,-0.14,0.0,a
4087.0,3553.0,3040.0,4095.0,2486.0,2337.0,2491.0,2281.0,-2.2,9.51,4.77,-0.03,0.0,-0.16,0.0,a
4087.0,3553.0,3040.0,4095.0,2486.0,2337.0,2491.0,2281.0,-2.2,9.51,4.77,-0.03,0.0,-0.16,0.0,a
4087.0,3553.0,3040.0,4095.0,2486.0,2337.0,2491.0,2281.0,-2.2,9.51,4.77,-0.03,0.0,-0.16,0.0,a
4087.0,3553.0,3040.0,4095.0,2486.0,2337.0,2491.0,2281.0,-2.2,9.51,4.77,-0.03,0.0,-0.16,0.0,a
4087.0,3553.0,3040.0,4095.0,2486.0,2337.0,2491.0,2281.0,-2.2,9.51,4.77,-0.03,0.0,-0.16,0.0,a
4087.0,3553.0,3040.0,4095.0,2486.0,2337.0,2491.0,2281.0,-2.2,9.51,4.77,-0.03,0.0,-0.16,0.0,a
4087.0,3553.0,3040.0,4095.0,2486.0,2337.0,2491.0,2281.0,-2.2,9.51,4.77,-0.03,0.0,-0.16,0.0,a
4087.0,3553.0,3040.0,4095.0,2486.0,2337.0,2491.0,2281.0,-2.2,9.51,4.77,-0.03,0.0,-0.16,0.0,a
4087.0,3553.0,3040.0,4095.0,2486.0,2337.0,2491.0,2281.0,-2.2,9.51,4.77,-0.03,0.0,-0.16,0.0,a
4087.0,3553.0,3040.0,4095.0,2486.0,2337.0,2491.0,2281.0,-2.2,9.51,4.77,-0.03,0.0,-0.16,0.0,a
4087.0,3553.0,3040.0,4095.0,2486.0,2337.0,2491.0,2281.0,-2.2,9.51,4.77,-0.03,0.0,-0.16,0.0,a
4087.0,3553.0,3040.0,4095.0,2486.0,2337.0,2491.0,2281.0,-2.2,9.51,4.77,-0.03,0.0,-0.16,0.0,a
4087.0,3553.0,3040.0,4095.0,2486.0,2337.0,2491.0,2281.0,-2.2,9.51,4.77,-0.03,0.0,-0.16,0.0,a
4087.0,3553.0,3040.0,4095.0,2486.0,2337.0,2491.0,2281.0,-2.2,9.51,4.77,-0.03,0.0,-0.16,0.0,a
4087.0,3553.0,3040.0,4095.0,2486.0,2337.0,2491.0,2281.0,-2.2,9.51,4.77,-0.03,0.0,-0.16,0.0,a
4087.0,3553.0,3040.0,4095.0,2486.0,2337.0,2491.0,2281.0,-2.2,9.51,4.77,-0.03,0.0,-0.16,0.0,a
4087.0,3553.0,3040.0,4095.0,2486.0,2337.0,2491.0,2281.0,-2.2,9.51,4.77,-0.03,0.0,-0.16,0.0,a
4087.0,3553.0,3040.0,4095.0,2486.0,2337.0,2491.0,2281.0,-2.2,9.51,4.77,-0.03,0.0,-0.16,0.0,a
4087.0,3553.0,3040.0,4095.0,2486.0,2337.0,2491.0,2281.0,-2.2,9.51,4.77,-0.03,0.0,-0.16,0.0,a
4087.0,3553.0,3040.0,4095.0,2486.0,2337.0,2491.0,2281.0,-2.2,9.51,4.77,-0.03,0.0,-0.16,0.0,a
4077.0,3548.0,3053.0,4095.0,2492.0,2321.0,2497.0,2269.0,-2.23,9.5,4.63,0.02,-0.02,-0.14,0.0,a
4077.0,3548.0,3053.0,4095.0,2492.0,2321.0,2497.0,2269.0,-2.23,9.5,4.63,0.02,-0.02,-0.14,0.0,a
4077.0,3548.0,3053.0,4095.0,2492.0,2321.0,2497.0,2269.0,-2.23,9.5,4.63,0.02,-0.02,-0.14,0.0,a
4077.0,3548.0,3053.0,4095.0,2492.0,2321.0,2497.0,2269.0,-2.23,9.5,4.63,0.02,-0.02,-0.14,0.0,a
4077.0,3548.0,3053.0,4095.0,2492.0,2321.0,2497.0,2269.0,-2.23,9.5,4.63,0.02,-0.02,-0.14,0.0,a
4077.0,3548.0,3053.0,4095.0,2492.0,2321.0,2497.0,2269.0,-2.23,9.5,4.63,0.02,-0.02,-0.14,0.0,a
4077.0,3548.0,3053.0,4095.0,2492.0,2321.0,2497.0,2269.0,-2.23,9.5,4.63,0.02,-0.02,-0.14,0.0,a
4077.0,3548.0,3053.0,4095.0,2492.0,2321.0,2497.0,2269.0,-2.23,9.5,4.63,0.02,-0.02,-0.14,0.0,a
4077.0,3548.0,3053.0,4095.0,2492.0,2321.0,2497.0,2269.0,-2.23,9.5,4.63,0.02,-0.02,-0.14,0.0,a
4077.0,3548.0,3053.0,4095.0,2492.0,2321.0,2497.0,2269.0,-2.23,9.5,4.63,0.02,-0.02,-0.14,0.0,a
4077.0,3548.0,3053.0,4095.0,2492.0,2321.0,2497.0,2269.0,-2.23,9.5,4.63,0.02,-0.02,-0.14,0.0,a
4077.0,3548.0,3053.0,4095.0,2492.0,2321.0,2497.0,2269.0,-2.23,9.5,4.63,0.02,-0.02,-0.14,0.0,a
4077.0,3548.0,3053.0,4095.0,2492.0,2321.0,2497.0,2269.0,-2.23,9.5,4.63,0.02,-0.02,-0.14,0.0,a
4077.0,3548.0,3053.0,4095.0,2492.0,2321.0,2497.0,2269.0,-2.23,9.5,4.63,0.02,-0.02,-0.14,0.0,a
4077.0,3548.0,3053.0,4095.0,2492.0,2321.0,2497.0,2269.0,-2.23,9.5,4.63,0.02,-0.02,-0.14,0.0,a
4077.0,3548.0,3053.0,4095.0,2492.0,2321.0,2497.0,2269.0,-2.23,9.5,4.63,0.02,-0.02,-0.14,0.0,a
4077.0,3548.0,3053.0,4095.0,2492.0,2321.0,2497.0,2269.0,-2.23,9.5,4.63,0.02,-0.02,-0.14,0.0,a
4077.0,3548.0,3053.0,4095.0,2492.0,2321.0,2497.0,2269.0,-2.23,9.5,4.63,0.02,-0.02,-0.14,0.0,a
4077.0,3548.0,3053.0,4095.0,2492.0,2321.0,2497.0,2269.0,-2.23,9.5,4.63,0.02,-0.02,-0.14,0.0,a
4077.0,3548.0,3053.0,4095.0,2492.0,2321.0,2497.0,2269.0,-2.23,9.5,4.63,0.02,-0.02,-0.14,0.0,a
4071.0,3554.0,3046.0,4095.0,2507.0,2325.0,2507.0,2275.0,-2.14,9.59,4.57,-0.02,-0.02,-0.14,0.0,a
4071.0,3554.0,3046.0,4095.0,2507.0,2325.0,2507.0,2275.0,-2.14,9.59,4.57,-0.02,-0.02,-0.14,0.0,a
4071.0,3554.0,3046.0,4095.0,2507.0,2325.0,2507.0,2275.0,-2.14,9.59,4.57,-0.02,-0.02,-0.14,0.0,a
4071.0,3554.0,3046.0,4095.0,2507.0,2325.0,2507.0,2275.0,-2.14,9.59,4.57,-0.02,-0.02,-0.14,0.0,a
4071.0,3554.0,3046.0,4095.0,2507.0,2325.0,2507.0,2275.0,-2.14,9.59,4.57,-0.02,-0.02,-0.14,0.0,a
4071.0,3554.0,3046.0,4095.0,2507.0,2325.0,2507.0,2275.0,-2.14,9.59,4.57,-0.02,-0.02,-0.14,0.0,a
4071.0,3554.0,3046.0,4095.0,2507.0,2325.0,2507.0,2275.0,-2.14,9.59,4.57,-0.02,-0.02,-0.14,0.0,a
4071.0,3554.0,3046.0,4095.0,2507.0,2325.0,2507.0,2275.0,-2.14,9.59,4.57,-0.02,-0.02,-0.14,0.0,a
4071.0,3554.0,3046.0,4095.0,2507.0,2325.0,2507.0,2275.0,-2.14,9.59,4.57,-0.02,-0.02,-0.14,0.0,a
4071.0,3554.0,3046.0,4095.0,2507.0,2325.0,2507.0,2275.0,-2.14,9.59,4.57,-0.02,-0.02,-0.14,0.0,a
4071.0,3554.0,3046.0,4095.0,2507.0,2325.0,2507.0,2275.0,-2.14,9.59,4.57,-0.02,-0.02,-0.14,0.0,a
4071.0,3554.0,3046.0,4095.0,2507.0,2325.0,2507.0,2275.0,-2.14,9.59,4.57,-0.02,-0.02,-0.14,0.0,a
4071.0,3554.0,3046.0,4095.0,2507.0,2325.0,2507.0,2275.0,-2.14,9.59,4.57,-0.02,-0.02,-0.14,0.0,a
4071.0,3554.0,3046.0,4095.0,2507.0,2325.0,2507.0,2275.0,-2.14,9.59,4.57,-0.02,-0.02,-0.14,0.0,a
4071.0,3554.0,3046.0,4095.0,2507.0,2325.0,2507.0,2275.0,-2.14,9.59,4.57,-0.02,-0.02,-0.14,0.0,a
4071.0,3554.0,3046.0,4095.0,2507.0,2325.0,2507.0,2275.0,-2.14,9.59,4.57,-0.02,-0.02,-0.14,0.0,a
4071.0,3554.0,3046.0,4095.0,2507.0,2325.0,2507.0,2275.0,-2.14,9.59,4.57,-0.02,-0.02,-0.14,0.0,a
4071.0,3554.0,3046.0,4095.0,2507.0,2325.0,2507.0,2275.0,-2.14,9.59,4.57,-0.02,-0.02,-0.14,0.0,a
4071.0,3554.0,3046.0,4095.0,2507.0,2325.0,2507.0,2275.0,-2.14,9.59,4.57,-0.02,-0.02,-0.14,0.0,a
4071.0,3554.0,3046.0,4095.0,2507.0,2325.0,2507.0,2275.0,-2.14,9.59,4.57,-0.02,-0.02,-0.14,0.0,a
4087.0,3563.0,3038.0,4095.0,2510.0,2330.0,2503.0,2273.0,-2.11,9.55,4.82,-0.04,0.03,-0.14,0.0,a
4087.0,3563.0,3038.0,4095.0,2510.0,2330.0,2503.0,2273.0,-2.11,9.55,4.82,-0.04,0.03,-0.14,0.0,a
4087.0,3563.0,3038.0,4095.0,2510.0,2330.0,2503.0,2273.0,-2.11,9.55,4.82,-0.04,0.03,-0.14,0.0,a
4087.0,3563.0,3038.0,4095.0,2510.0,2330.0,2503.0,2273.0,-2.11,9.55,4.82,-0.04,0.03,-0.14,0.0,a
4087.0,3563.0,3038.0,4095.0,2510.0,2330.0,2503.0,2273.0,-2.11,9.55,4.82,-0.04,0.03,-0.14,0.0,a
4087.0,3563.0,3038.0,4095.0,2510.0,2330.0,2503.0,2273.0,-2.11,9.55,4.82,-0.04,0.03,-0.14,0.0,a
4087.0,3563.0,3038.0,4095.0,2510.0,2330.0,2503.0,2273.0,-2.11,9.55,4.82,-0.04,0.03,-0.14,0.0,a
4087.0,3563.0,3038.0,4095.0,2510.0,2330.0,2503.0,2273.0,-2.11,9.55,4.82,-0.04,0.03,-0.14,0.0,a
4087.0,3563.0,3038.0,4095.0,2510.0,2330.0,2503.0,2273.0,-2.11,9.55,4.82,-0.04,0.03,-0.14,0.0,a
4087.0,3563.0,3038.0,4095.0,2510.0,2330.0,2503.0,2273.0,-2.11,9.55,4.82,-0.04,0.03,-0.14,0.0,a
4087.0,3563.0,3038.0,4095.0,2510.0,2330.0,2503.0,2273.0,-2.11,9.55,4.82,-0.04,0.03,-0.14,0.0,a
4087.0,3563.0,3038.0,4095.0,2510.0,2330.0,2503.0,2273.0,-2.11,9.55,4.82,-0.04,0.03,-0.14,0.0,a
4087.0,3563.0,3038.0,4095.0,2510.0,2330.0,2503.0,2273.0,-2.11,9.55,4.82,-0.04,0.03,-0.14,0.0,a
4087.0,3563.0,3038.0,4095.0,2510.0,2330.0,2503.0,2273.0,-2.11,9.55,4.82,-0.04,0.03,-0.14,0.0,a
4087.0,3563.0,3038.0,4095.0,2510.0,2330.0,2503.0,2273.0,-2.11,9.55,4.82,-0.04,0.03,-0.14,0.0,a
4087.0,3563.0,3038.0,4095.0,2510.0,2330.0,2503.0,2273.0,-2.11,9.55,4.82,-0.04,0.03,-0.14,0.0,a
4087.0,3563.0,3038.0,4095.0,2510.0,2330.0,2503.0,2273.0,-2.11,9.55,4.82,-0.04,0.03,-0.14,0.0,a
4087.0,3563.0,3038.0,4095.0,2510.0,2330.0,2503.0,2273.0,-2.11,9.55,4.82,-0.04,0.03,-0.14,0.0,a
4087.0,3563.0,3038.0,4095.0,2510.0,2330.0,2503.0,2273.0,-2.11,9.55,4.82,-0.04,0.03,-0.14,0.0,a
4087.0,3563.0,3038.0,4095.0,2510.0,2330.0,2503.0,2273.0,-2.11,9.55,4.82,-0.04,0.03,-0.14,0.0,a
4080.0,3552.0,3047.0,4095.0,2491.0,2343.0,2495.0,2283.0,-2.28,9.56,4.86,0.03,0.02,-0.15,0.0,a
4080.0,3552.0,3047.0,4095.0,2491.0,2343.0,2495.0,2283.0,-2.28,9.56,4.86,0.03,0.02,-0.15,0.0,a
4080.0,3552.0,3047.0,4095.0,2491.0,2343.0,2495.0,2283.0,-2.28,9.56,4.86,0.03,0.02,-0.15,0.0,a
4080.0,3552.0,3047.0,4095.0,2491.0,2343.0,2495.0,2283.0,-2.28,9.56,4.86,0.03,0.02,-0.15,0.0,a
4080.0,3552.0,3047.0,4095.0,2491.0,2343.0,2495.0,2283.0,-2.28,9.56,4.86,0.03,0.02,-0.15,0.0,a
4080.0,3552.0,3047.0,4095.0,2491.0,2343.0,2495.0,2283.0,-2.28,9.56,4.86,0.03,0.02,-0.15,0.0,a
4080.0,3552.0,3047.0,4095.0,2491.0,2343.0,2495.0,2283.0,-2.28,9.56,4.86,0.03,0.02,-0.15,0.0,a
4080.0,3552.0,3047.0,4095.0,2491.0,2343.0,2495.0,2283.0,-2.28,9.56,4.86,0.03,0.02,-0.15,0.0,a
4080.0,3552.0,3047.0,4095.0,2491.0,2343.0,2495.0,2283.0,-2.28,9.56,4.86,0.03,0.02,-0.15,0.0,a
4080.0,3552.0,3047.0,4095.0,2491.0,2343.0,2495.0,2283.0,-2.28,9.56,4.86,0.03,0.02,-0.15,0.0,a
4080.0,3552.0,3047.0,4095.0,2491.0,2343.0,2495.0,2283.0,-2.28,9.56,4.86,0.03,0.02,-0.15,0.0,a
4080.0,3552.0,3047.0,4095.0,2491.0,2343.0,2495.0,2283.0,-2.28,9.56,4.86,0.03,0.02,-0.15,0.0,a
4080.0,3552.0,3047.0,4095.0,2491.0,2343.0,2495.0,2283.0,-2.28,9.56,4.86,0.03,0.02,-0.15,0.0,a
4080.0,3552.0,3047.0,4095.0,2491.0,2343.0,2495.0,2283.0,-2.28,9.56,4.86,0.03,0.02,-0.15,0.0,a
4080.0,3552.0,3047.0,4095.0,2491.0,2343.0,2495.0,2283.0,-2.28,9.56,4.86,0.03,0.02,-0.15,0.0,a
4080.0,3552.0,3047.0,4095.0,2491.0,2343.0,2495.0,2283.0,-2.28,9.56,4.86,0.03,0.02,-0.15,0.0,a
4080.0,3552.0,3047.0,4095.0,2491.0,2343.0,2495.0,2283.0,-2.28,9.56,4.86,0.03,0.02,-0.15,0.0,a
4080.0,3552.0,3047.0,4095.0,2491.0,2343.0,2495.0,2283.0,-2.28,9.56,4.86,0.03,0.02,-0.15,0.0,a
4080.0,3552.0,3047.0,4095.0,2491.0,2343.0,2495.0,2283.0,-2.28,9.56,4.86,0.03,0.02,-0.15,0.0,a
4080.0,3552.0,3047.0,4095.0,2491.0,2343.0,2495.0,2283.0,-2.28,9.56,4.86,0.03,0.02,-0.15,0.0,a
4095.0,3568.0,3045.0,4095.0,2504.0,2330.0,2503.0,2283.0,-2.22,9.54,4.58,0.06,-0.03,-0.15,0.0,a
4095.0,3568.0,3045.0,4095.0,2504.0,2330.0,2503.0,2283.0,-2.22,9.54,4.58,0.06,-0.03,-0.15,0.0,a
4095.0,3568.0,3045.0,4095.0,2504.0,2330.0,2503.0,2283.0,-2.22,9.54,4.58,0.06,-0.03,-0.15,0.0,a
4095.0,3568.0,3045.0,4095.0,2504.0,2330.0,2503.0,2283.0,-2.22,9.54,4.58,0.06,-0.03,-0.15,0.0,a
4095.0,3568.0,3045.0,4095.0,2504.0,2330.0,2503.0,2283.0,-2.22,9.54,4.58,0.06,-0.03,-0.15,0.0,a
4095.0,3568.0,3045.0,4095.0,2504.0,2330.0,2503.0,2283.0,-2.22,9.54,4.58,0.06,-0.03,-0.15,0.0,a
4095.0,3568.0,3045.0,4095.0,2504.0,2330.0,2503.0,2283.0,-2.22,9.54,4.58,0.06,-0.03,-0.15,0.0,a
4095.0,3568.0,3045.0,4095.0,2504.0,2330.0,2503.0,2283.0,-2.22,9.54,4.58,0.06,-0.03,-0.15,0.0,a
4095.0,3568.0,3045.0,4095.0,2504.0,2330.0,2503.0,2283.0,-2.22,9.54,4.58,0.06,-0.03,-0.15,0.0,a
4095.0,3568.0,3045.0,4095.0,2504.0,2330.0,2503.0,2283.0,-2.22,9.54,4.58,0.06,-0.03,-0.15,0.0,a
4095.0,3568.0,3045.0,4095.0,2504.0,2330.0,2503.0,2283.0,-2.22,9.54,4.58,0.06,-0.03,-0.15,0.0,a
4095.0,3568.0,3045.0,4095.0,2504.0,2330.0,2503.0,2283.0,-2.22,9.54,4.58,0.06,-0.03,-0.15,0.0,a
4095.0,3568.0,3045.0,4095.0,2504.0,2330.0,2503.0,2283.0,-2.22,9.54,4.58,0.06,-0.03,-0.15,0.0,a
4095.0,3568.0,3045.0,4095.0,2504.0,2330.0,2503.0,2283.0,-2.22,9.54,4.58,0.06,-0.03,-0.15,0.0,a
4095.0,3568.0,3045.0,4095.0,2504.0,2330.0,2503.0,2283.0,-2.22,9.54,4.58,0.06,-0.03,-0.15,0.0,a
4095.0,3568.0,3045.0,4095.0,2504.0,2330.0,2503.0,2283.0,-2.22,9.54,4.58,0.06,-0.03,-0.15,0.0,a
4095.0,3568.0,3045.0,4095.0,2504.0,2330.0,2503.0,2283.0,-2.22,9.54,4.58,0.06,-0.03,-0.15,0.0,a
4095.0,3568.0,3045.0,4095.0,2504.0,2330.0,2503.0,2283.0,-2.22,9.54,4.58,0.06,-0.03,-0.15,0.0,a
4095.0,3568.0,3045.0,4095.0,2504.0,2330.0,2503.0,2283.0,-2.22,9.54,4.58,0.06,-0.03,-0.15,0.0,a
4095.0,3568.0,3045.0,4095.0,2504.0,2330.0,2503.0,2283.0,-2.22,9.54,4.58,0.06,-0.03,-0.15,0.0,a
4062.0,3557.0,3043.0,4095.0,2505.0,2325.0,2518.0,2273.0,-2.04,9.59,4.46,0.05,0.02,-0.15,0.0,a
4062.0,3557.0,3043.0,4095.0,2505.0,2325.0,2518.0,2273.0,-2.04,9.59,4.46,0.05,0.02,-0.15,0.0,a
4062.0,3557.0,3043.0,4095.0,2505.0,2325.0,2518.0,2273.0,-2.04,9.59,4.46,0.05,0.02,-0.15,0.0,a
4062.0,3557.0,3043.0,4095.0,2505.0,2325.0,2518.0,2273.0,-2.04,9.59,4.46,0.05,0.02,-0.15,0.0,a
4062.0,3557.0,3043.0,4095.0,2505.0,2325.0,2518.0,2273.0,-2.04,9.59,4.46,0.05,0.02,-0.15,0.0,a
4062.0,3557.0,3043.0,4095.0,2505.0,2325.0,2518.0,2273.0,-2.04,9.59,4.46,0.05,0.02,-0.15,0.0,a
4062.0,3557.0,3043.0,4095.0,2505.0,2325.0,2518.0,2273.0,-2.04,9.59,4.46,0.05,0.02,-0.15,0.0,a
4062.0,3557.0,3043.0,4095.0,2505.0,2325.0,2518.0,2273.0,-2.04,9.59,4.46,0.05,0.02,-0.15,0.0,a
4062.0,3557.0,3043.0,4095.0,2505.0,2325.0,2518.0,2273.0,-2.04,9.59,4.46,0.05,0.02,-0.15,0.0,a
4062.0,3557.0,3043.0,4095.0,2505.0,2325.0,2518.0,2273.0,-2.04,9.59,4.46,0.05,0.02,-0.15,0.0,a
4062.0,3557.0,3043.0,4095.0,2505.0,2325.0,2518.0,2273.0,-2.04,9.59,4.46,0.05,0.02,-0.15,0.0,a
4062.0,3557.0,3043.0,4095.0,2505.0,2325.0,2518.0,2273.0,-2.04,9.59,4.46,0.05,0.02,-0.15,0.0,a
4062.0,3557.0,3043.0,4095.0,2505.0,2325.0,2518.0,2273.0,-2.04,9.59,4.46,0.05,0.02,-0.15,0.0,a
4062.0,3557.0,3043.0,4095.0,2505.0,2325.0,2518.0,2273.0,-2.04,9.59,4.46,0.05,0.02,-0.15,0.0,a
4062.0,3557.0,3043.0,4095.0,2505.0,2325.0,2518.0,2273.0,-2.04,9.59,4.46,0.05,0.02,-0.15,0.0,a
4062.0,3557.0,3043.0,4095.0,2505.0,2325.0,2518.0,2273.0,-2.04,9.59,4.46,0.05,0.02,-0.15,0.0,a
4062.0,3557.0,3043.0,4095.0,2505.0,2325.0,2518.0,2273.0,-2.04,9.59,4.46,0.05,0.02,-0.15,0.0,a
4062.0,3557.0,3043.0,4095.0,2505.0,2325.0,2518.0,2273.0,-2.04,9.59,4.46,0.05,0.02,-0.15,0.0,a
4062.0,3557.0,3043.0,4095.0,2505.0,2325.0,2518.0,2273.0,-2.04,9.59,4.46,0.05,0.02,-0.15,0.0,a
4062.0,3557.0,3043.0,4095.0,2505.0,2325.0,2518.0,2273.0,-2.04,9.59,4.46,0.05,0.02,-0.15,0.0,a
4091.0,3557.0,3046.0,4095.0,2494.0,2329.0,2483.0,2289.0,-2.1,9.53,4.58,-0.03,0.01,-0.15,0.0,a
4091.0,3557.0,3046.0,4095.0,2494.0,2329.0,2483.0,2289.0,-2.1,9.53,4.58,-0.03,0.01,-0.15,0.0,a
4091.0,3557.0,3046.0,4095.0,2494.0,2329.0,2483.0,2289.0,-2.1,9.53,4.58,-0.03,0.01,-0.15,0.0,a
4091.0,3557.0,3046.0,4095.0,2494.0,2329.0,2483.0,2289.0,-2.1,9.53,4.58,-0.03,0.01,-0.15,0.0,a
4091.0,3557.0,3046.0,4095.0,2494.0,2329.0,2483.0,2289.0,-2.1,9.53,4.58,-0.03,0.01,-0.15,0.0,a
4091.0,3557.0,3046.0,4095.0,2494.0,2329.0,2483.0,2289.0,-2.1,9.53,4.58,-0.03,0.01,-0.15,0.0,a
4091.0,3557.0,3046.0,4095.0,2494.0,2329.0,2483.0,2289.0,-2.1,9.53,4.58,-0.03,0.01,-0.15,0.0,a
4091.0,3557.0,3046.0,4095.0,2494.0,2329.0,2483.0,2289.0,-2.1,9.53,4.58,-0.03,0.01,-0.15,0.0,a
4091.0,3557.0,3046.0,4095.0,2494.0,2329.0,2483.0,2289.0,-2.1,9.53,4.58,-0.03,0.01,-0.15,0.0,a
4091.0,3557.0,3046.0,4095.0,2494.0,2329.0,2483.0,2289.0,-2.1,9.53,4.58,-0.03,0.01,-0.15,0.0,a
4091.0,3557.0,3046.0,4095.0,2494.0,2329.0,2483.0,2289.0,-2.1,9.53,4.58,-0.03,0.01,-0.15,0.0,a
4091.0,3557.0,3046.0,4095.0,2494.0,2329.0,2483.0,2289.0,-2.1,9.53,4.58,-0.03,0.01,-0.15,0.0,a
4091.0,3557.0,3046.0,4095.0,2494.0,2329.0,2483.0,2289.0,-2.1,9.53,4.58,-0.03,0.01,-0.15,0.0,a
4091.0,3557.0,3046.0,4095.0,2494.0,2329.0,2483.0,2289.0,-2.1,9.53,4.58,-0.03,0.01,-0.15,0.0,a
4091.0,3557.0,3046.0,4095.0,2494.0,2329.0,2483.0,2289.0,-2.1,9.53,4.58,-0.03,0.01,-0.15,0.0,a
4091.0,3557.0,3046.0,4095.0,2494.0,2329.0,2483.0,2289.0,-2.1,9.53,4.58,-0.03,0.01,-0.15,0.0,a
4091.0,3557.0,3046.0,4095.0,2494.0,2329.0,2483.0,2289.0,-2.1,9.53,4.58,-0.03,0.01,-0.15,0.0,a
4091.0,3557.0,3046.0,4095.0,2494.0,2329.0,2483.0,2289.0,-2.1,9.53,4.58,-0.03,0.01,-0.15,0.0,a
4091.0,3557.0,3046.0,4095.0,2494.0,2329.0,2483.0,2289.0,-2.1,9.53,4.58,-0.03,0.01,-0.15,0.0,a
4091.0,3557.0,3046.0,4095.0,2494.0,2329.0,2483.0,2289.0,-2.1,9.53,4.58,-0.03,0.01,-0.15,0.0,a
4077.0,3551.0,3037.0,4095.0,2511.0,2325.0,2506.0,2290.0,-2.27,9.53,4.7,0.03,0.01,-0.18,0.0,a
4077.0,3551.0,3037.0,4095.0,2511.0,2325.0,2506.0,2290.0,-2.27,9.53,4.7,0.03,0.01,-0.18,0.0,a
4077.0,3551.0,3037.0,4095.0,2511.0,2325.0,2506.0,2290.0,-2.27,9.53,4.7,0.03,0.01,-0.18,0.0,a
4077.0,3551.0,3037.0,4095.0,2511.0,2325.0,2506.0,2290.0,-2.27,9.53,4.7,0.03,0.01,-0.18,0.0,a
4077.0,3551.0,3037.0,4095.0,2511.0,2325.0,2506.0,2290.0,-2.27,9.53,4.7,0.03,0.01,-0.18,0.0,a
4077.0,3551.0,3037.0,4095.0,2511.0,2325.0,2506.0,2290.0,-2.27,9.53,4.7,0.03,0.01,-0.18,0.0,a
4077.0,3551.0,3037.0,4095.0,2511.0,2325.0,2506.0,2290.0,-2.27,9.53,4.7,0.03,0.01,-0.18,0.0,a
4077.0,3551.0,3037.0,4095.0,2511.0,2325.0,2506.0,2290.0,-2.27,9.53,4.7,0.03,0.01,-0.18,0.0,a
4077.0,3551.0,3037.0,4095.0,2511.0,2325.0,2506.0,2290.0,-2.27,9.53,4.7,0.03,0.01,-0.18,0.0,a
4077.0,3551.0,3037.0,4095.0,2511.0,2325.0,2506.0,2290.0,-2.27,9.53,4.7,0.03,0.01,-0.18,0.0,a
4077.0,3551.0,3037.0,4095.0,2511.0,2325.0,2506.0,2290.0,-2.27,9.53,4.7,0.03,0.01,-0.18,0.0,a
4077.0,3551.0,3037.0,4095.0,2511.0,2325.0,2506.0,2290.0,-2.27,9.53,4.7,0.03,0.01,-0.18,0.0,a
4077.0,3551.0,3037.0,4095.0,2511.0,2325.0,2506.0,2290.0,-2.27,9.53,4.7,0.03,0.01,-0.18,0.0,a
4077.0,3551.0,3037.0,4095.0,2511.0,2325.0,2506.0,2290.0,-2.27,9.53,4.7,0.03,0.01,-0.18,0.0,a
4077.0,3551.0,3037.0,4095.0,2511.0,2325.0,2506.0,2290.0,-2.27,9.53,4.7,0.03,0.01,-0.18,0.0,a
4077.0,3551.0,3037.0,4095.0,2511.0,2325.0,2506.0,2290.0,-2.27,9.53,4.7,0.03,0.01,-0.18,0.0,a
4077.0,3551.0,3037.0,4095.0,2511.0,2325.0,2506.0,2290.0,-2.27,9.53,4.7,0.03,0.01,-0.18,0.0,a
4077.0,3551.0,3037.0,4095.0,2511.0,2325.0,2506.0,2290.0,-2.27,9.53,4.7,0.03,0.01,-0.18,0.0,a
4077.0,3551.0,3037.0,4095.0,2511.0,2325.0,2506.0,2290.0,-2.27,9.53,4.7,0.03,0.01,-0.18,0.0,a
4077.0,3551.0,3037.0,4095.0,2511.0,2325.0,2506.0,2290.0,-2.27,9.53,4.7,0.03,0.01,-0.18,0.0,a
4067.0,3548.0,3043.0,4095.0,2511.0,2327.0,2502.0,2288.0,-2.17,9.46,4.52,0.04,-0.02,-0.15,0.0,a
4067.0,3548.0,3043.0,4095.0,2511.0,2327.0,2502.0,2288.0,-2.17,9.46,4.52,0.04,-0.02,-0.15,0.0,a
4067.0,3548.0,3043.0,4095.0,2511.0,2327.0,2502.0,2288.0,-2.17,9.46,4.52,0.04,-0.02,-0.15,0.0,a
4067.0,3548.0,3043.0,4095.0,2511.0,2327.0,2502.0,2288.0,-2.17,9.46,4.52,0.04,-0.02,-0.15,0.0,a
4067.0,3548.0,3043.0,4095.0,2511.0,2327.0,2502.0,2288.0,-2.17,9.46,4.52,0.04,-0.02,-0.15,0.0,a
4067.0,3548.0,3043.0,4095.0,2511.0,2327.0,2502.0,2288.0,-2.17,9.46,4.52,0.04,-0.02,-0.15,0.0,a
4067.0,3548.0,3043.0,4095.0,2511.0,2327.0,2502.0,2288.0,-2.17,9.46,4.52,0.04,-0.02,-0.15,0.0,a
4067.0,3548.0,3043.0,4095.0,2511.0,2327.0,2502.0,2288.0,-2.17,9.46,4.52,0.04,-0.02,-0.15,0.0,a
4067.0,3548.0,3043.0,4095.0,2511.0,2327.0,2502.0,2288.0,-2.17,9.46,4.52,0.04,-0.02,-0.15,0.0,a
4067.0,3548.0,3043.0,4095.0,2511.0,2327.0,2502.0,2288.0,-2.17,9.46,4.52,0.04,-0.02,-0.15,0.0,a
4067.0,3548.0,3043.0,4095.0,2511.0,2327.0,2502.0,2288.0,-2.17,9.46,4.52,0.04,-0.02,-0.15,0.0,a
4067.0,3548.0,3043.0,4095.0,2511.0,2327.0,2502.0,2288.0,-2.17,9.46,4.52,0.04,-0.02,-0.15,0.0,a
4067.0,3548.0,3043.0,4095.0,2511.0,2327.0,2502.0,2288.0,-2.17,9.46,4.52,0.04,-0.02,-0.15,0.0,a
4067.0,3548.0,3043.0,4095.0,2511.0,2327.0,2502.0,2288.0,-2.17,9.46,4.52,0.04,-0.02,-0.15,0.0,a
4067.0,3548.0,3043.0,4095.0,2511.0,2327.0,2502.0,2288.0,-2.17,9.46,4.52,0.04,-0.02,-0.15,0.0,a
4067.0,3548.0,3043.0,4095.0,2511.0,2327.0,2502.0,2288.0,-2.17,9.46,4.52,0.04,-0.02,-0.15,0.0,a
4067.0,3548.0,3043.0,4095.0,2511.0,2327.0,2502.0,2288.0,-2.17,9.46,4.52,0.04,-0.02,-0.15,0.0,a
4067.0,3548.0,3043.0,4095.0,2511.0,2327.0,2502.0,2288.0,-2.17,9.46,4.52,0.04,-0.02,-0.15,0.0,a
4067.0,3548.0,3043.0,4095.0,2511.0,2327.0,2502.0,2288.0,-2.17,9.46,4.52,0.04,-0.02,-0.15,0.0,a
4067.0,3548.0,3043.0,4095.0,2511.0,2327.0,2502.0,2288.0,-2.17,9.46,4.52,0.04,-0.02,-0.15,0.0,a
4086.0,3563.0,3036.0,4095.0,2511.0,2335.0,2509.0,2288.0,-2.17,9.61,4.46,-0.01,0.0,-0.13,0.0,a
4086.0,3563.0,3036.0,4095.0,2511.0,2335.0,2509.0,2288.0,-2.17,9.61,4.46,-0.01,0.0,-0.13,0.0,a
4086.0,3563.0,3036.0,4095.0,2511.0,2335.0,2509.0,2288.0,-2.17,9.61,4.46,-0.01,0.0,-0.13,0.0,a
4086.0,3563.0,3036.0,4095.0,2511.0,2335.0,2509.0,2288.0,-2.17,9.61,4.46,-0.01,0.0,-0.13,0.0,a
4086.0,3563.0,3036.0,4095.0,2511.0,2335.0,2509.0,2288.0,-2.17,9.61,4.46,-0.01,0.0,-0.13,0.0,a
4086.0,3563.0,3036.0,4095.0,2511.0,2335.0,2509.0,2288.0,-2.17,9.61,4.46,-0.01,0.0,-0.13,0.0,a
4086.0,3563.0,3036.0,4095.0,2511.0,2335.0,2509.0,2288.0,-2.17,9.61,4.46,-0.01,0.0,-0.13,0.0,a
4086.0,3563.0,3036.0,4095.0,2511.0,2335.0,2509.0,2288.0,-2.17,9.61,4.46,-0.01,0.0,-0.13,0.0,a
4086.0,3563.0,3036.0,4095.0,2511.0,2335.0,2509.0,2288.0,-2.17,9.61,4.46,-0.01,0.0,-0.13,0.0,a
4086.0,3563.0,3036.0,4095.0,2511.0,2335.0,2509.0,2288.0,-2.17,9.61,4.46,-0.01,0.0,-0.13,0.0,a
4086.0,3563.0,3036.0,4095.0,2511.0,2335.0,2509.0,2288.0,-2.17,9.61,4.46,-0.01,0.0,-0.13,0.0,a
4086.0,3563.0,3036.0,4095.0,2511.0,2335.0,2509.0,2288.0,-2.17,9.61,4.46,-0.01,0.0,-0.13,0.0,a
4086.0,3563.0,3036.0,4095.0,2511.0,2335.0,2509.0,2288.0,-2.17,9.61,4.46,-0.01,0.0,-0.13,0.0,a
4086.0,3563.0,3036.0,4095.0,2511.0,2335.0,2509.0,2288.0,-2.17,9.61,4.46,-0.01,0.0,-0.13,0.0,a
4086.0,3563.0,3036.0,4095.0,2511.0,2335.0,2509.0,2288.0,-2.17,9.61,4.46,-0.01,0.0,-0.13,0.0,a
4086.0,3563.0,3036.0,4095.0,2511.0,2335.0,2509.0,2288.0,-2.17,9.61,4.46,-0.01,0.0,-0.13,0.0,a
4086.0,3563.0,3036.0,4095.0,2511.0,2335.0,2509.0,2288.0,-2.17,9.61,4.46,-0.01,0.0,-0.13,0.0,a
4086.0,3563.0,3036.0,4095.0,2511.0,2335.0,2509.0,2288.0,-2.17,9.61,4.46,-0.01,0.0,-0.13,0.0,a
4086.0,3563.0,3036.0,4095.0,2511.0,2335.0,2509.0,2288.0,-2.17,9.61,4.46,-0.01,0.0,-0.13,0.0,a
4086.0,3563.0,3036.0,4095.0,2511.0,2335.0,2509.0,2288.0,-2.17,9.61,4.46,-0.01,0.0,-0.13,0.0,a
4075.0,3554.0,3047.0,4095.0,2503.0,2340.0,2500.0,2295.0,-2.02,9.57,4.77,-0.02,0.03,-0.15,0.0,a
4075.0,3554.0,3047.0,4095.0,2503.0,2340.0,2500.0,2295.0,-2.02,9.57,4.77,-0.02,0.03,-0.15,0.0,a
4075.0,3554.0,3047.0,4095.0,2503.0,2340.0,2500.0,2295.0,-2.02,9.57,4.77,-0.02,0.03,-0.15,0.0,a
4075.0,3554.0,3047.0,4095.0,2503.0,2340.0,2500.0,2295.0,-2.02,9.57,4.77,-0.02,0.03,-0.15,0.0,a
4075.0,3554.0,3047.0,4095.0,2503.0,2340.0,2500.0,2295.0,-2.02,9.57,4.77,-0.02,0.03,-0.15,0.0,a
4075.0,3554.0,3047.0,4095.0,2503.0,2340.0,2500.0,2295.0,-2.02,9.57,4.77,-0.02,0.03,-0.15,0.0,a
4075.0,3554.0,3047.0,4095.0,2503.0,2340.0,2500.0,2295.0,-2.02,9.57,4.77,-0.02,0.03,-0.15,0.0,a
4075.0,3554.0,3047.0,4095.0,2503.0,2340.0,2500.0,2295.0,-2.02,9.57,4.77,-0.02,0.03,-0.15,0.0,a
4075.0,3554.0,3047.0,4095.0,2503.0,2340.0,2500.0,2295.0,-2.02,9.57,4.77,-0.02,0.03,-0.15,0.0,a
4075.0,3554.0,3047.0,4095.0,2503.0,2340.0,2500.0,2295.0,-2.02,9.57,4.77,-0.02,0.03,-0.15,0.0,a
4075.0,3554.0,3047.0,4095.0,2503.0,2340.0,2500.0,2295.0,-2.02,9.57,4.77,-0.02,0.03,-0.15,0.0,a
4075.0,3554.0,3047.0,4095.0,2503.0,2340.0,2500.0,2295.0,-2.02,9.57,4.77,-0.02,0.03,-0.15,0.0,a
4075.0,3554.0,3047.0,4095.0,2503.0,2340.0,2500.0,2295.0,-2.02,9.57,4.77,-0.02,0.03,-0.15,0.0,a
4075.0,3554.0,3047.0,4095.0,2503.0,2340.0,2500.0,2295.0,-2.02,9.57,4.77,-0.02,0.03,-0.15,0.0,a
4075.0,3554.0,3047.0,4095.0,2503.0,2340.0,2500.0,2295.0,-2.02,9.57,4.77,-0.02,0.03,-0.15,0.0,a
4075.0,3554.0,3047.0,4095.0,2503.0,2340.0,2500.0,2295.0,-2.02,9.57,4.77,-0.02,0.03,-0.15,0.0,a
4075.0,3554.0,3047.0,4095.0,2503.0,2340.0,2500.0,2295.0,-2.02,9.57,4.77,-0.02,0.03,-0.15,0.0,a
4075.0,3554.0,3047.0,4095.0,2503.0,2340.0,2500.0,2295.0,-2.02,9.57,4.77,-0.02,0.03,-0.15,0.0,a
4075.0,3554.0,3047.0,4095.0,2503.0,2340.0,2500.0,2295.0,-2.02,9.57,4.77,-0.02,0.03,-0.15,0.0,a
4075.0,3554.0,3047.0,4095.0,2503.0,2340.0,2500.0,2295.0,-2.02,9.57,4.77,-0.02,0.03,-0.15,0.0,a
4077.0,3553.0,3053.0,4095.0,2513.0,2329.0,2499.0,2288.0,-2.28,9.55,4.81,0.01,0.02,-0.17,0.0,a
4077.0,3553.0,3053.0,4095.0,2513.0,2329.0,2499.0,2288.0,-2.28,9.55,4.81,0.01,0.02,-0.17,0.0,a
4077.0,3553.0,3053.0,4095.0,2513.0,2329.0,2499.0,2288.0,-2.28,9.55,4.81,0.01,0.02,-0.17,0.0,a
4077.0,3553.0,3053.0,4095.0,2513.0,2329.0,2499.0,2288.0,-2.28,9.55,4.81,0.01,0.02,-0.17,0.0,a
4077.0,3553.0,3053.0,4095.0,2513.0,2329.0,2499.0,2288.0,-2.28,9.55,4.81,0.01,0.02,-0.17,0.0,a
4077.0,3553.0,3053.0,4095.0,2513.0,2329.0,2499.0,2288.0,-2.28,9.55,4.81,0.01,0.02,-0.17,0.0,a
4077.0,3553.0,3053.0,4095.0,2513.0,2329.0,2499.0,2288.0,-2.28,9.55,4.81,0.01,0.02,-0.17,0.0,a
4077.0,3553.0,3053.0,4095.0,2513.0,2329.0,2499.0,2288.0,-2.28,9.55,4.81,0.01,0.02,-0.17,0.0,a
4077.0,3553.0,3053.0,4095.0,2513.0,2329.0,2499.0,2288.0,-2.28,9.55,4.81,0.01,0.02,-0.17,0.0,a
4077.0,3553.0,3053.0,4095.0,2513.0,2329.0,2499.0,2288.0,-2.28,9.55,4.81,0.01,0.02,-0.17,0.0,a
4077.0,3553.0,3053.0,4095.0,2513.0,2329.0,2499.0,2288.0,-2.28,9.55,4.81,0.01,0.02,-0.17,0.0,a
4077.0,3553.0,3053.0,4095.0,2513.0,2329.0,2499.0,2288.0,-2.28,9.55,4.81,0.01,0.02,-0.17,0.0,a
4077.0,3553.0,3053.0,4095.0,2513.0,2329.0,2499.0,2288.0,-2.28,9.55,4.81,0.01,0.02,-0.17,0.0,a
4077.0,3553.0,3053.0,4095.0,2513.0,2329.0,2499.0,2288.0,-2.28,9.55,4.81,0.01,0.02,-0.17,0.0,a
4077.0,3553.0,3053.0,4095.0,2513.0,2329.0,2499.0,2288.0,-2.28,9.55,4.81,0.01,0.02,-0.17,0.0,a
4077.0,3553.0,3053.0,4095.0,2513.0,2329.0,2499.0,2288.0,-2.28,9.55,4.81,0.01,0.02,-0.17,0.0,a
4077.0,3553.0,3053.0,4095.0,2513.0,2329.0,2499.0,2288.0,-2.28,9.55,4.81,0.01,0.02,-0.17,0.0,a
4077.0,3553.0,3053.0,4095.0,2513.0,2329.0,2499.0,2288.0,-2.28,9.55,4.81,0.01,0.02,-0.17,0.0,a
4077.0,3553.0,3053.0,4095.0,2513.0,2329.0,2499.0,2288.0,-2.28,9.55,4.81,0.01,0.02,-0.17,0.0,a
4077.0,3553.0,3053.0,4095.0,2513.0,2329.0,2499.0,2288.0,-2.28,9.55,4.81,0.01,0.02,-0.17,0.0,a
4095.0,3547.0,3033.0,4095.0,2502.0,2340.0,2505.0,2287.0,-2.23,9.44,4.71,0.06,-0.01,-0.17,0.0,a
4095.0,3547.0,3033.0,4095.0,2502.0,2340.0,2505.0,2287.0,-2.23,9.44,4.71,0.06,-0.01,-0.17,0.0,a
4095.0,3547.0,3033.0,4095.0,2502.0,2340.0,2505.0,2287.0,-2.23,9.44,4.71,0.06,-0.01,-0.17,0.0,a
4095.0,3547.0,3033.0,4095.0,2502.0,2340.0,2505.0,2287.0,-2.23,9.44,4.71,0.06,-0.01,-0.17,0.0,a
4095.0,3547.0,3033.0,4095.0,2502.0,2340.0,2505.0,2287.0,-2.23,9.44,4.71,0.06,-0.01,-0.17,0.0,a
4095.0,3547.0,3033.0,4095.0,2502.0,2340.0,2505.0,2287.0,-2.23,9.44,4.71,0.06,-0.01,-0.17,0.0,a
4095.0,3547.0,3033.0,4095.0,2502.0,2340.0,2505.0,2287.0,-2.23,9.44,4.71,0.06,-0.01,-0.17,0.0,a
4095.0,3547.0,3033.0,4095.0,2502.0,2340.0,2505.0,2287.0,-2.23,9.44,4.71,0.06,-0.01,-0.17,0.0,a
4095.0,3547.0,3033.0,4095.0,2502.0,2340.0,2505.0,2287.0,-2.23,9.44,4.71,0.06,-0.01,-0.17,0.0,a
4095.0,3547.0,3033.0,4095.0,2502.0,2340.0,2505.0,2287.0,-2.23,9.44,4.71,0.06,-0.01,-0.17,0.0,a
4095.0,3547.0,3033.0,4095.0,2502.0,2340.0,2505.0,2287.0,-2.23,9.44,4.71,0.06,-0.01,-0.17,0.0,a
4095.0,3547.0,3033.0,4095.0,2502.0,2340.0,2505.0,2287.0,-2.23,9.44,4.71,0.06,-0.01,-0.17,0.0,a
4095.0,3547.0,3033.0,4095.0,2502.0,2340.0,2505.0,2287.0,-2.23,9.44,4.71,0.06,-0.01,-0.17,0.0,a
4095.0,3547.0,3033.0,4095.0,2502.0,2340.0,2505.0,2287.0,-2.23,9.44,4.71,0.06,-0.01,-0.17,0.0,a
4095.0,3547.0,3033.0,4095.0,2502.0,2340.0,2505.0,2287.0,-2.23,9.44,4.71,0.06,-0.01,-0.17,0.0,a
4095.0,3547.0,3033.0,4095.0,2502.0,2340.0,2505.0,2287.0,-2.23,9.44,4.71,0.06,-0.01,-0.17,0.0,a
4095.0,3547.0,3033.0,4095.0,2502.0,2340.0,2505.0,2287.0,-2.23,9.44,4.71,0.06,-0.01,-0.17,0.0,a
4095.0,3547.0,3033.0,4095.0,2502.0,2340.0,2505.0,2287.0,-2.23,9.44,4.71,0.06,-0.01,-0.17,0.0,a
4095.0,3547.0,3033.0,4095.0,2502.0,2340.0,2505.0,2287.0,-2.23,9.44,4.71,0.06,-0.01,-0.17,0.0,a
4095.0,3547.0,3033.0,4095.0,2502.0,2340.0,2505.0,2287.0,-2.23,9.44,4.71,0.06,-0.01,-0.17,0.0,a
4095.0,3411.0,3241.0,4045.0,2548.0,2279.0,2480.0,2235.0,-2.48,9.54,4.9,0.07,-0.02,-0.16,0.0,a
4095.0,3411.0,3241.0,4045.0,2548.0,2279.0,2480.0,2235.0,-2.48,9.54,4.9,0.07,-0.02,-0.16,0.0,a
4095.0,3411.0,3241.0,4045.0,2548.0,2279.0,2480.0,2235.0,-2.48,9.54,4.9,0.07,-0.02,-0.16,0.0,a
4095.0,3411.0,3241.0,4045.0,2548.0,2279.0,2480.0,2235.0,-2.48,9.54,4.9,0.07,-0.02,-0.16,0.0,a
4095.0,3411.0,3241.0,4045.0,2548.0,2279.0,2480.0,2235.0,-2.48,9.54,4.9,0.07,-0.02,-0.16,0.0,a
4095.0,3411.0,3241.0,4045.0,2548.0,2279.0,2480.0,2235.0,-2.48,9.54,4.9,0.07,-0.02,-0.16,0.0,a
4095.0,3411.0,3241.0,4045.0,2548.0,2279.0,2480.0,2235.0,-2.48,9.54,4.9,0.07,-0.02,-0.16,0.0,a
4095.0,3411.0,3241.0,4045.0,2548.0,2279.0,2480.0,2235.0,-2.48,9.54,4.9,0.07,-0.02,-0.16,0.0,a
4095.0,3411.0,3241.0,4045.0,2548.0,2279.0,2480.0,2235.0,-2.48,9.54,4.9,0.07,-0.02,-0.16,0.0,a
4095.0,3411.0,3241.0,4045.0,2548.0,2279.0,2480.0,2235.0,-2.48,9.54,4.9,0.07,-0.02,-0.16,0.0,a
4095.0,3411.0,3241.0,4045.0,2548.0,2279.0,2480.0,2235.0,-2.48,9.54,4.9,0.07,-0.02,-0.16,0.0,a
4095.0,3411.0,3241.0,4045.0,2548.0,2279.0,2480.0,2235.0,-2.48,9.54,4.9,0.07,-0.02,-0.16,0.0,a
4095.0,3411.0,3241.0,4045.0,2548.0,2279.0,2480.0,2235.0,-2.48,9.54,4.9,0.07,-0.02,-0.16,0.0,a
4095.0,3411.0,3241.0,4045.0,2548.0,2279.0,2480.0,2235.0,-2.48,9.54,4.9,0.07,-0.02,-0.16,0.0,a
4095.0,3411.0,3241.0,4045.0,2548.0,2279.0,2480.0,2235.0,-2.48,9.54,4.9,0.07,-0.02,-0.16,0.0,a
4095.0,3411.0,3241.0,4045.0,2548.0,2279.0,2480.0,2235.0,-2.48,9.54,4.9,0.07,-0.02,-0.16,0.0,a
4095.0,3411.0,3241.0,4045.0,2548.0,2279.0,2480.0,2235.0,-2.48,9.54,4.9,0.07,-0.02,-0.16,0.0,a
4095.0,3411.0,3241.0,4045.0,2548.0,2279.0,2480.0,2235.0,-2.48,9.54,4.9,0.07,-0.02,-0.16,0.0,a
4095.0,3411.0,3241.0,4045.0,2548.0,2279.0,2480.0,2235.0,-2.48,9.54,4.9,0.07,-0.02,-0.16,0.0,a
4095.0,3411.0,3241.0,4045.0,2548.0,2279.0,2480.0,2235.0,-2.48,9.54,4.9,0.07,-0.02,-0.16,0.0,a
4095.0,3395.0,3248.0,4049.0,2551.0,2298.0,2473.0,2224.0,-2.29,9.65,4.66,0.03,0.02,-0.14,0.0,a
4095.0,3395.0,3248.0,4049.0,2551.0,2298.0,2473.0,2224.0,-2.29,9.65,4.66,0.03,0.02,-0.14,0.0,a
4095.0,3395.0,3248.0,4049.0,2551.0,2298.0,2473.0,2224.0,-2.29,9.65,4.66,0.03,0.02,-0.14,0.0,a
4095.0,3395.0,3248.0,4049.0,2551.0,2298.0,2473.0,2224.0,-2.29,9.65,4.66,0.03,0.02,-0.14,0.0,a
4095.0,3395.0,3248.0,4049.0,2551.0,2298.0,2473.0,2224.0,-2.29,9.65,4.66,0.03,0.02,-0.14,0.0,a
4095.0,3395.0,3248.0,4049.0,2551.0,2298.0,2473.0,2224.0,-2.29,9.65,4.66,0.03,0.02,-0.14,0.0,a
4095.0,3395.0,3248.0,4049.0,2551.0,2298.0,2473.0,2224.0,-2.29,9.65,4.66,0.03,0.02,-0.14,0.0,a
4095.0,3395.0,3248.0,4049.0,2551.0,2298.0,2473.0,2224.0,-2.29,9.65,4.66,0.03,0.02,-0.14,0.0,a
4095.0,3395.0,3248.0,4049.0,2551.0,2298.0,2473.0,2224.0,-2.29,9.65,4.66,0.03,0.02,-0.14,0.0,a
4095.0,3395.0,3248.0,4049.0,2551.0,2298.0,2473.0,2224.0,-2.29,9.65,4.66,0.03,0.02,-0.14,0.0,a
4095.0,3395.0,3248.0,4049.0,2551.0,2298.0,2473.0,2224.0,-2.29,9.65,4.66,0.03,0.02,-0.14,0.0,a
4095.0,3395.0,3248.0,4049.0,2551.0,2298.0,2473.0,2224.0,-2.29,9.65,4.66,0.03,0.02,-0.14,0.0,a
4095.0,3395.0,3248.0,4049.0,2551.0,2298.0,2473.0,2224.0,-2.29,9.65,4.66,0.03,0.02,-0.14,0.0,a
4095.0,3395.0,3248.0,4049.0,2551.0,2298.0,2473.0,2224.0,-2.29,9.65,4.66,0.03,0.02,-0.14,0.0,a
4095.0,3395.0,3248.0,4049.0,2551.0,2298.0,2473.0,2224.0,-2.29,9.65,4.66,0.03,0.02,-0.14,0.0,a
4095.0,3395.0,3248.0,4049.0,2551.0,2298.0,2473.0,2224.0,-2.29,9.65,4.66,0.03,0.02,-0.14,0.0,a
4095.0,3395.0,3248.0,4049.0,2551.0,2298.0,2473.0,2224.0,-2.29,9.65,4.66,0.03,0.02,-0.14,0.0,a
4095.0,3395.0,3248.0,4049.0,2551.0,2298.0,2473.0,2224.0,-2.29,9.65,4.66,0.03,0.02,-0.14,0.0,a
4095.0,3395.0,3248.0,4049.0,2551.0,2298.0,2473.0,2224.0,-2.29,9.65,4.66,0.03,0.02,-0.14,0.0,a
4095.0,3395.0,3248.0,4049.0,2551.0,2298.0,2473.0,2224.0,-2.29,9.65,4.66,0.03,0.02,-0.14,0.0,a
4095.0,3383.0,3248.0,4069.0,2555.0,2295.0,2479.0,2224.0,-2.2,9.46,4.98,-0.03,0.02,-0.17,0.0,a
4095.0,3383.0,3248.0,4069.0,2555.0,2295.0,2479.0,2224.0,-2.2,9.46,4.98,-0.03,0.02,-0.17,0.0,a
4095.0,3383.0,3248.0,4069.0,2555.0,2295.0,2479.0,2224.0,-2.2,9.46,4.98,-0.03,0.02,-0.17,0.0,a
4095.0,3383.0,3248.0,4069.0,2555.0,2295.0,2479.0,2224.0,-2.2,9.46,4.98,-0.03,0.02,-0.17,0.0,a
4095.0,3383.0,3248.0,4069.0,2555.0,2295.0,2479.0,2224.0,-2.2,9.46,4.98,-0.03,0.02,-0.17,0.0,a
4095.0,3383.0,3248.0,4069.0,2555.0,2295.0,2479.0,2224.0,-2.2,9.46,4.98,-0.03,0.02,-0.17,0.0,a
4095.0,3383.0,3248.0,4069.0,2555.0,2295.0,2479.0,2224.0,-2.2,9.46,4.98,-0.03,0.02,-0.17,0.0,a
4095.0,3383.0,3248.0,4069.0,2555.0,2295.0,2479.0,2224.0,-2.2,9.46,4.98,-0.03,0.02,-0.17,0.0,a
4095.0,3383.0,3248.0,4069.0,2555.0,2295.0,2479.0,2224.0,-2.2,9.46,4.98,-0.03,0.02,-0.17,0.0,a
4095.0,3383.0,3248.0,4069.0,2555.0,2295.0,2479.0,2224.0,-2.2,9.46,4.98,-0.03,0.02,-0.17,0.0,a
4095.0,3383.0,3248.0,4069.0,2555.0,2295.0,2479.0,2224.0,-2.2,9.46,4.98,-0.03,0.02,-0.17,0.0,a
4095.0,3383.0,3248.0,4069.0,2555.0,2295.0,2479.0,2224.0,-2.2,9.46,4.98,-0.03,0.02,-0.17,0.0,a
4095.0,3383.0,3248.0,4069.0,2555.0,2295.0,2479.0,2224.0,-2.2,9.46,4.98,-0.03,0.02,-0.17,0.0,a
4095.0,3383.0,3248.0,4069.0,2555.0,2295.0,2479.0,2224.0,-2.2,9.46,4.98,-0.03,0.02,-0.17,0.0,a
4095.0,3383.0,3248.0,4069.0,2555.0,2295.0,2479.0,2224.0,-2.2,9.46,4.98,-0.03,0.02,-0.17,0.0,a
4095.0,3383.0,3248.0,4069.0,2555.0,2295.0,2479.0,2224.0,-2.2,9.46,4.98,-0.03,0.02,-0.17,0.0,a
4095.0,3383.0,3248.0,4069.0,2555.0,2295.0,2479.0,2224.0,-2.2,9.46,4.98,-0.03,0.02,-0.17,0.0,a
4095.0,3383.0,3248.0,4069.0,2555.0,2295.0,2479.0,2224.0,-2.2,9.46,4.98,-0.03,0.02,-0.17,0.0,a
4095.0,3383.0,3248.0,4069.0,2555.0,2295.0,2479.0,2224.0,-2.2,9.46,4.98,-0.03,0.02,-0.17,0.0,a
4095.0,3383.0,3248.0,4069.0,2555.0,2295.0,2479.0,2224.0,-2.2,9.46,4.98,-0.03,0.02,-0.17,0.0,a
4095.0,3381.0,3248.0,4080.0,2546.0,2299.0,2477.0,2230.0,-2.48,9.6,5.06,0.05,0.02,-0.18,0.0,a
4095.0,3381.0,3248.0,4080.0,2546.0,2299.0,2477.0,2230.0,-2.48,9.6,5.06,0.05,0.02,-0.18,0.0,a
4095.0,3381.0,3248.0,4080.0,2546.0,2299.0,2477.0,2230.0,-2.48,9.6,5.06,0.05,0.02,-0.18,0.0,a
4095.0,3381.0,3248.0,4080.0,2546.0,2299.0,2477.0,2230.0,-2.48,9.6,5.06,0.05,0.02,-0.18,0.0,a
4095.0,3381.0,3248.0,4080.0,2546.0,2299.0,2477.0,2230.0,-2.48,9.6,5.06,0.05,0.02,-0.18,0.0,a
4095.0,3381.0,3248.0,4080.0,2546.0,2299.0,2477.0,2230.0,-2.48,9.6,5.06,0.05,0.02,-0.18,0.0,a
4095.0,3381.0,3248.0,4080.0,2546.0,2299.0,2477.0,2230.0,-2.48,9.6,5.06,0.05,0.02,-0.18,0.0,a
4095.0,3381.0,3248.0,4080.0,2546.0,2299.0,2477.0,2230.0,-2.48,9.6,5.06,0.05,0.02,-0.18,0.0,a
4095.0,3381.0,3248.0,4080.0,2546.0,2299.0,2477.0,2230.0,-2.48,9.6,5.06,0.05,0.02,-0.18,0.0,a
4095.0,3381.0,3248.0,4080.0,2546.0,2299.0,2477.0,2230.0,-2.48,9.6,5.06,0.05,0.02,-0.18,0.0,a
4095.0,3381.0,3248.0,4080.0,2546.0,2299.0,2477.0,2230.0,-2.48,9.6,5.06,0.05,0.02,-0.18,0.0,a
4095.0,3381.0,3248.0,4080.0,2546.0,2299.0,2477.0,2230.0,-2.48,9.6,5.06,0.05,0.02,-0.18,0.0,a
4095.0,3381.0,3248.0,4080.0,2546.0,2299.0,2477.0,2230.0,-2.48,9.6,5.06,0.05,0.02,-0.18,0.0,a
4095.0,3381.0,3248.0,4080.0,2546.0,2299.0,2477.0,2230.0,-2.48,9.6,5.06,0.05,0.02,-0.18,0.0,a
4095.0,3381.0,3248.0,4080.0,2546.0,2299.0,2477.0,2230.0,-2.48,9.6,5.06,0.05,0.02,-0.18,0.0,a
4095.0,3381.0,3248.0,4080.0,2546.0,2299.0,2477.0,2230.0,-2.48,9.6,5.06,0.05,0.02,-0.18,0.0,a
4095.0,3381.0,3248.0,4080.0,2546.0,2299.0,2477.0,2230.0,-2.48,9.6,5.06,0.05,0.02,-0.18,0.0,a
4095.0,3381.0,3248.0,4080.0,2546.0,2299.0,2477.0,2230.0,-2.48,9.6,5.06,0.05,0.02,-0.18,0.0,a
4095.0,3381.0,3248.0,4080.0,2546.0,2299.0,2477.0,2230.0,-2.48,9.6,5.06,0.05,0.02,-0.18,0.0,a
4095.0,3381.0,3248.0,4080.0,2546.0,2299.0,2477.0,2230.0,-2.48,9.6,5.06,0.05,0.02,-0.18,0.0,a
4095.0,3385.0,3248.0,4047.0,2559.0,2298.0,2485.0,2245.0,-2.24,9.39,4.92,0.05,0.01,-0.15,0.0,a
4095.0,3385.0,3248.0,4047.0,2559.0,2298.0,2485.0,2245.0,-2.24,9.39,4.92,0.05,0.01,-0.15,0.0,a
4095.0,3385.0,3248.0,4047.0,2559.0,2298.0,2485.0,2245.0,-2.24,9.39,4.92,0.05,0.01,-0.15,0.0,a
4095.0,3385.0,3248.0,4047.0,2559.0,2298.0,2485.0,2245.0,-2.24,9.39,4.92,0.05,0.01,-0.15,0.0,a
4095.0,3385.0,3248.0,4047.0,2559.0,2298.0,2485.0,2245.0,-2.24,9.39,4.92,0.05,0.01,-0.15,0.0,a
4095.0,3385.0,3248.0,4047.0,2559.0,2298.0,2485.0,2245.0,-2.24,9.39,4.92,0.05,0.01,-0.15,0.0,a
4095.0,3385.0,3248.0,4047.0,2559.0,2298.0,2485.0,2245.0,-2.24,9.39,4.92,0.05,0.01,-0.15,0.0,a
4095.0,3385.0,3248.0,4047.0,2559.0,2298.0,2485.0,2245.0,-2.24,9.39,4.92,0.05,0.01,-0.15,0.0,a
4095.0,3385.0,3248.0,4047.0,2559.0,2298.0,2485.0,2245.0,-2.24,9.39,4.92,0.05,0.01,-0.15,0.0,a
4095.0,3385.0,3248.0,4047.0,2559.0,2298.0,2485.0,2245.0,-2.24,9.39,4.92,0.05,0.01,-0.15,0.0,a
4095.0,3385.0,3248.0,4047.0,2559.0,2298.0,2485.0,2245.0,-2.24,9.39,4.92,0.05,0.01,-0.15,0.0,a
4095.0,3385.0,3248.0,4047.0,2559.0,2298.0,2485.0,2245.0,-2.24,9.39,4.92,0.05,0.01,-0.15,0.0,a
4095.0,3385.0,3248.0,4047.0,2559.0,2298.0,2485.0,2245.0,-2.24,9.39,4.92,0.05,0.01,-0.15,0.0,a
4095.0,3385.0,3248.0,4047.0,2559.0,2298.0,2485.0,2245.0,-2.24,9.39,4.92,0.05,0.01,-0.15,0.0,a
4095.0,3385.0,3248.0,4047.0,2559.0,2298.0,2485.0,2245.0,-2.24,9.39,4.92,0.05,0.01,-0.15,0.0,a
4095.0,3385.0,3248.0,4047.0,2559.0,2298.0,2485.0,2245.0,-2.24,9.39,4.92,0.05,0.01,-0.15,0.0,a
4095.0,3385.0,3248.0,4047.0,2559.0,2298.0,2485.0,2245.0,-2.24,9.39,4.92,0.05,0.01,-0.15,0.0,a
4095.0,3385.0,3248.0,4047.0,2559.0,2298.0,2485.0,2245.0,-2.24,9.39,4.92,0.05,0.01,-0.15,0.0,a
4095.0,3385.0,3248.0,4047.0,2559.0,2298.0,2485.0,2245.0,-2.24,9.39,4.92,0.05,0.01,-0.15,0.0,a
4095.0,3385.0,3248.0,4047.0,2559.0,2298.0,2485.0,2245.0,-2.24,9.39,4.92,0.05,0.01,-0.15,0.0,a
4095.0,3388.0,3233.0,4075.0,2559.0,2308.0,2485.0,2235.0,-2.55,9.73,4.61,0.04,-0.01,-0.17,0.0,a
4095.0,3388.0,3233.0,4075.0,2559.0,2308.0,2485.0,2235.0,-2.55,9.73,4.61,0.04,-0.01,-0.17,0.0,a
4095.0,3388.0,3233.0,4075.0,2559.0,2308.0,2485.0,2235.0,-2.55,9.73,4.61,0.04,-0.01,-0.17,0.0,a
4095.0,3388.0,3233.0,4075.0,2559.0,2308.0,2485.0,2235.0,-2.55,9.73,4.61,0.04,-0.01,-0.17,0.0,a
4095.0,3388.0,3233.0,4075.0,2559.0,2308.0,2485.0,2235.0,-2.55,9.73,4.61,0.04,-0.01,-0.17,0.0,a
4095.0,3388.0,3233.0,4075.0,2559.0,2308.0,2485.0,2235.0,-2.55,9.73,4.61,0.04,-0.01,-0.17,0.0,a
4095.0,3388.0,3233.0,4075.0,2559.0,2308.0,2485.0,2235.0,-2.55,9.73,4.61,0.04,-0.01,-0.17,0.0,a
4095.0,3388.0,3233.0,4075.0,2559.0,2308.0,2485.0,2235.0,-2.55,9.73,4.61,0.04,-0.01,-0.17,0.0,a
4095.0,3388.0,3233.0,4075.0,2559.0,2308.0,2485.0,2235.0,-2.55,9.73,4.61,0.04,-0.01,-0.17,0.0,a
4095.0,3388.0,3233.0,4075.0,2559.0,2308.0,2485.0,2235.0,-2.55,9.73,4.61,0.04,-0.01,-0.17,0.0,a
4095.0,3388.0,3233.0,4075.0,2559.0,2308.0,2485.0,2235.0,-2.55,9.73,4.61,0.04,-0.01,-0.17,0.0,a
4095.0,3388.0,3233.0,4075.0,2559.0,2308.0,2485.0,2235.0,-2.55,9.73,4.61,0.04,-0.01,-0.17,0.0,a
4095.0,3388.0,3233.0,4075.0,2559.0,2308.0,2485.0,2235.0,-2.55,9.73,4.61,0.04,-0.01,-0.17,0.0,a
4095.0,3388.0,3233.0,4075.0,2559.0,2308.0,2485.0,2235.0,-2.55,9.73,4.61,0.04,-0.01,-0.17,0.0,a
4095.0,3388.0,3233.0,4075.0,2559.0,2308.0,2485.0,2235.0,-2.55,9.73,4.61,0.04,-0.01,-0.17,0.0,a
4095.0,3388.0,3233.0,4075.0,2559.0,2308.0,2485.0,2235.0,-2.55,9.73,4.61,0.04,-0.01,-0.17,0.0,a
4095.0,3388.0,3233.0,4075.0,2559.0,2308.0,2485.0,2235.0,-2.55,9.73,4.61,0.04,-0.01,-0.17,0.0,a
4095.0,3388.0,3233.0,4075.0,2559.0,2308.0,2485.0,2235.0,-2.55,9.73,4.61,0.04,-0.01,-0.17,0.0,a
4095.0,3388.0,3233.0,4075.0,2559.0,2308.0,2485.0,2235.0,-2.55,9.73,4.61,0.04,-0.01,-0.17,0.0,a
4095.0,3388.0,3233.0,4075.0,2559.0,2308.0,2485.0,2235.0,-2.55,9.73,4.61,0.04,-0.01,-0.17,0.0,a
4095.0,3393.0,3253.0,4068.0,2559.0,2289.0,2491.0,2237.0,-2.26,9.4,4.95,0.01,0.06,-0.14,0.0,a
4095.0,3393.0,3253.0,4068.0,2559.0,2289.0,2491.0,2237.0,-2.26,9.4,4.95,0.01,0.06,-0.14,0.0,a
4095.0,3393.0,3253.0,4068.0,2559.0,2289.0,2491.0,2237.0,-2.26,9.4,4.95,0.01,0.06,-0.14,0.0,a
4095.0,3393.0,3253.0,4068.0,2559.0,2289.0,2491.0,2237.0,-2.26,9.4,4.95,0.01,0.06,-0.14,0.0,a
4095.0,3393.0,3253.0,4068.0,2559.0,2289.0,2491.0,2237.0,-2.26,9.4,4.95,0.01,0.06,-0.14,0.0,a
4095.0,3393.0,3253.0,4068.0,2559.0,2289.0,2491.0,2237.0,-2.26,9.4,4.95,0.01,0.06,-0.14,0.0,a
4095.0,3393.0,3253.0,4068.0,2559.0,2289.0,2491.0,2237.0,-2.26,9.4,4.95,0.01,0.06,-0.14,0.0,a
4095.0,3393.0,3253.0,4068.0,2559.0,2289.0,2491.0,2237.0,-2.26,9.4,4.95,0.01,0.06,-0.14,0.0,a
4095.0,3393.0,3253.0,4068.0,2559.0,2289.0,2491.0,2237.0,-2.26,9.4,4.95,0.01,0.06,-0.14,0.0,a
4095.0,3393.0,3253.0,4068.0,2559.0,2289.0,2491.0,2237.0,-2.26,9.4,4.95,0.01,0.06,-0.14,0.0,a
4095.0,3393.0,3253.0,4068.0,2559.0,2289.0,2491.0,2237.0,-2.26,9.4,4.95,0.01,0.06,-0.14,0.0,a
4095.0,3393.0,3253.0,4068.0,2559.0,2289.0,2491.0,2237.0,-2.26,9.4,4.95,0.01,0.06,-0.14,0.0,a
4095.0,3393.0,3253.0,4068.0,2559.0,2289.0,2491.0,2237.0,-2.26,9.4,4.95,0.01,0.06,-0.14,0.0,a
4095.0,3393.0,3253.0,4068.0,2559.0,2289.0,2491.0,2237.0,-2.26,9.4,4.95,0.01,0.06,-0.14,0.0,a
4095.0,3393.0,3253.0,4068.0,2559.0,2289.0,2491.0,2237.0,-2.26,9.4,4.95,0.01,0.06,-0.14,0.0,a
4095.0,3393.0,3253.0,4068.0,2559.0,2289.0,2491.0,2237.0,-2.26,9.4,4.95,0.01,0.06,-0.14,0.0,a
4095.0,3393.0,3253.0,4068.0,2559.0,2289.0,2491.0,2237.0,-2.26,9.4,4.95,0.01,0.06,-0.14,0.0,a
4095.0,3393.0,3253.0,4068.0,2559.0,2289.0,2491.0,2237.0,-2.26,9.4,4.95,0.01,0.06,-0.14,0.0,a
4095.0,3393.0,3253.0,4068.0,2559.0,2289.0,2491.0,2237.0,-2.26,9.4,4.95,0.01,0.06,-0.14,0.0,a
4095.0,3393.0,3253.0,4068.0,2559.0,2289.0,2491.0,2237.0,-2.26,9.4,4.95,0.01,0.06,-0.14,0.0,a
4095.0,3392.0,3252.0,4057.0,2580.0,2303.0,2497.0,2237.0,-2.41,9.55,4.9,-0.04,-0.02,-0.14,0.0,a
4095.0,3392.0,3252.0,4057.0,2580.0,2303.0,2497.0,2237.0,-2.41,9.55,4.9,-0.04,-0.02,-0.14,0.0,a
4095.0,3392.0,3252.0,4057.0,2580.0,2303.0,2497.0,2237.0,-2.41,9.55,4.9,-0.04,-0.02,-0.14,0.0,a
4095.0,3392.0,3252.0,4057.0,2580.0,2303.0,2497.0,2237.0,-2.41,9.55,4.9,-0.04,-0.02,-0.14,0.0,a
4095.0,3392.0,3252.0,4057.0,2580.0,2303.0,2497.0,2237.0,-2.41,9.55,4.9,-0.04,-0.02,-0.14,0.0,a
4095.0,3392.0,3252.0,4057.0,2580.0,2303.0,2497.0,2237.0,-2.41,9.55,4.9,-0.04,-0.02,-0.14,0.0,a
4095.0,3392.0,3252.0,4057.0,2580.0,2303.0,2497.0,2237.0,-2.41,9.55,4.9,-0.04,-0.02,-0.14,0.0,a
4095.0,3392.0,3252.0,4057.0,2580.0,2303.0,2497.0,2237.0,-2.41,9.55,4.9,-0.04,-0.02,-0.14,0.0,a
4095.0,3392.0,3252.0,4057.0,2580.0,2303.0,2497.0,2237.0,-2.41,9.55,4.9,-0.04,-0.02,-0.14,0.0,a
4095.0,3392.0,3252.0,4057.0,2580.0,2303.0,2497.0,2237.0,-2.41,9.55,4.9,-0.04,-0.02,-0.14,0.0,a
4095.0,3392.0,3252.0,4057.0,2580.0,2303.0,2497.0,2237.0,-2.41,9.55,4.9,-0.04,-0.02,-0.14,0.0,a
4095.0,3392.0,3252.0,4057.0,2580.0,2303.0,2497.0,2237.0,-2.41,9.55,4.9,-0.04,-0.02,-0.14,0.0,a
4095.0,3392.0,3252.0,4057.0,2580.0,2303.0,2497.0,2237.0,-2.41,9.55,4.9,-0.04,-0.02,-0.14,0.0,a
4095.0,3392.0,3252.0,4057.0,2580.0,2303.0,2497.0,2237.0,-2.41,9.55,4.9,-0.04,-0.02,-0.14,0.0,a
4095.0,3392.0,3252.0,4057.0,2580.0,2303.0,2497.0,2237.0,-2.41,9.55,4.9,-0.04,-0.02,-0.14,0.0,a
4095.0,3392.0,3252.0,4057.0,2580.0,2303.0,2497.0,2237.0,-2.41,9.55,4.9,-0.04,-0.02,-0.14,0.0,a
4095.0,3392.0,3252.0,4057.0,2580.0,2303.0,2497.0,2237.0,-2.41,9.55,4.9,-0.04,-0.02,-0.14,0.0,a
4095.0,3392.0,3252.0,4057.0,2580.0,2303.0,2497.0,2237.0,-2.41,9.55,4.9,-0.04,-0.02,-0.14,0.0,a
4095.0,3392.0,3252.0,4057.0,2580.0,2303.0,2497.0,2237.0,-2.41,9.55,4.9,-0.04,-0.02,-0.14,0.0,a
4095.0,3392.0,3252.0,4057.0,2580.0,2303.0,2497.0,2237.0,-2.41,9.55,4.9,-0.04,-0.02,-0.14,0.0,a
4095.0,3379.0,3248.0,4083.0,2559.0,2304.0,2481.0,2244.0,-2.37,9.47,4.82,0.07,0.02,-0.16,0.0,a
4095.0,3379.0,3248.0,4083.0,2559.0,2304.0,2481.0,2244.0,-2.37,9.47,4.82,0.07,0.02,-0.16,0.0,a
4095.0,3379.0,3248.0,4083.0,2559.0,2304.0,2481.0,2244.0,-2.37,9.47,4.82,0.07,0.02,-0.16,0.0,a
4095.0,3379.0,3248.0,4083.0,2559.0,2304.0,2481.0,2244.0,-2.37,9.47,4.82,0.07,0.02,-0.16,0.0,a
4095.0,3379.0,3248.0,4083.0,2559.0,2304.0,2481.0,2244.0,-2.37,9.47,4.82,0.07,0.02,-0.16,0.0,a
4095.0,3379.0,3248.0,4083.0,2559.0,2304.0,2481.0,2244.0,-2.37,9.47,4.82,0.07,0.02,-0.16,0.0,a
4095.0,3379.0,3248.0,4083.0,2559.0,2304.0,2481.0,2244.0,-2.37,9.47,4.82,0.07,0.02,-0.16,0.0,a
4095.0,3379.0,3248.0,4083.0,2559.0,2304.0,2481.0,2244.0,-2.37,9.47,4.82,0.07,0.02,-0.16,0.0,a
4095.0,3379.0,3248.0,4083.0,2559.0,2304.0,2481.0,2244.0,-2.37,9.47,4.82,0.07,0.02,-0.16,0.0,a
4095.0,3379.0,3248.0,4083.0,2559.0,2304.0,2481.0,2244.0,-2.37,9.47,4.82,0.07,0.02,-0.16,0.0,a
4095.0,3379.0,3248.0,4083.0,2559.0,2304.0,2481.0,2244.0,-2.37,9.47,4.82,0.07,0.02,-0.16,0.0,a
4095.0,3379.0,3248.0,4083.0,2559.0,2304.0,2481.0,2244.0,-2.37,9.47,4.82,0.07,0.02,-0.16,0.0,a
4095.0,3379.0,3248.0,4083.0,2559.0,2304.0,2481.0,2244.0,-2.37,9.47,4.82,0.07,0.02,-0.16,0.0,a
4095.0,3379.0,3248.0,4083.0,2559.0,2304.0,2481.0,2244.0,-2.37,9.47,4.82,0.07,0.02,-0.16,0.0,a
4095.0,3379.0,3248.0,4083.0,2559.0,2304.0,2481.0,2244.0,-2.37,9.47,4.82,0.07,0.02,-0.16,0.0,a
4095.0,3379.0,3248.0,4083.0,2559.0,2304.0,2481.0,2244.0,-2.37,9.47,4.82,0.07,0.02,-0.16,0.0,a
4095.0,3379.0,3248.0,4083.0,2559.0,2304.0,2481.0,2244.0,-2.37,9.47,4.82,0.07,0.02,-0.16,0.0,a
4095.0,3379.0,3248.0,4083.0,2559.0,2304.0,2481.0,2244.0,-2.37,9.47,4.82,0.07,0.02,-0.16,0.0,a
4095.0,3379.0,3248.0,4083.0,2559.0,2304.0,2481.0,2244.0,-2.37,9.47,4.82,0.07,0.02,-0.16,0.0,a
4095.0,3379.0,3248.0,4083.0,2559.0,2304.0,2481.0,2244.0,-2.37,9.47,4.82,0.07,0.02,-0.16,0.0,a
4095.0,3385.0,3243.0,4089.0,2586.0,2308.0,2495.0,2245.0,-2.26,9.54,4.78,-0.03,-0.04,-0.12,0.0,a
4095.0,3385.0,3243.0,4089.0,2586.0,2308.0,2495.0,2245.0,-2.26,9.54,4.78,-0.03,-0.04,-0.12,0.0,a
4095.0,3385.0,3243.0,4089.0,2586.0,2308.0,2495.0,2245.0,-2.26,9.54,4.78,-0.03,-0.04,-0.12,0.0,a
4095.0,3385.0,3243.0,4089.0,2586.0,2308.0,2495.0,2245.0,-2.26,9.54,4.78,-0.03,-0.04,-0.12,0.0,a
4095.0,3385.0,3243.0,4089.0,2586.0,2308.0,2495.0,2245.0,-2.26,9.54,4.78,-0.03,-0.04,-0.12,0.0,a
4095.0,3385.0,3243.0,4089.0,2586.0,2308.0,2495.0,2245.0,-2.26,9.54,4.78,-0.03,-0.04,-0.12,0.0,a
4095.0,3385.0,3243.0,4089.0,2586.0,2308.0,2495.0,2245.0,-2.26,9.54,4.78,-0.03,-0.04,-0.12,0.0,a
4095.0,3385.0,3243.0,4089.0,2586.0,2308.0,2495.0,2245.0,-2.26,9.54,4.78,-0.03,-0.04,-0.12,0.0,a
4095.0,3385.0,3243.0,4089.0,2586.0,2308.0,2495.0,2245.0,-2.26,9.54,4.78,-0.03,-0.04,-0.12,0.0,a
4095.0,3385.0,3243.0,4089.0,2586.0,2308.0,2495.0,2245.0,-2.26,9.54,4.78,-0.03,-0.04,-0.12,0.0,a
4095.0,3385.0,3243.0,4089.0,2586.0,2308.0,2495.0,2245.0,-2.26,9.54,4.78,-0.03,-0.04,-0.12,0.0,a
4095.0,3385.0,3243.0,4089.0,2586.0,2308.0,2495.0,2245.0,-2.26,9.54,4.78,-0.03,-0.04,-0.12,0.0,a
4095.0,3385.0,3243.0,4089.0,2586.0,2308.0,2495.0,2245.0,-2.26,9.54,4.78,-0.03,-0.04,-0.12,0.0,a
4095.0,3385.0,3243.0,4089.0,2586.0,2308.0,2495.0,2245.0,-2.26,9.54,4.78,-0.03,-0.04,-0.12,0.0,a
4095.0,3385.0,3243.0,4089.0,2586.0,2308.0,2495.0,2245.0,-2.26,9.54,4.78,-0.03,-0.04,-0.12,0.0,a
4095.0,3385.0,3243.0,4089.0,2586.0,2308.0,2495.0,2245.0,-2.26,9.54,4.78,-0.03,-0.04,-0.12,0.0,a
4095.0,3385.0,3243.0,4089.0,2586.0,2308.0,2495.0,2245.0,-2.26,9.54,4.78,-0.03,-0.04,-0.12,0.0,a
4095.0,3385.0,3243.0,4089.0,2586.0,2308.0,2495.0,2245.0,-2.26,9.54,4.78,-0.03,-0.04,-0.12,0.0,a
4095.0,3385.0,3243.0,4089.0,2586.0,2308.0,2495.0,2245.0,-2.26,9.54,4.78,-0.03,-0.04,-0.12,0.0,a
4095.0,3385.0,3243.0,4089.0,2586.0,2308.0,2495.0,2245.0,-2.26,9.54,4.78,-0.03,-0.04,-0.12,0.0,a
4095.0,3382.0,3248.0,4095.0,2559.0,2307.0,2492.0,2239.0,-2.32,9.54,5.02,0.03,0.05,-0.18,0.0,a
4095.0,3382.0,3248.0,4095.0,2559.0,2307.0,2492.0,2239.0,-2.32,9.54,5.02,0.03,0.05,-0.18,0.0,a
4095.0,3382.0,3248.0,4095.0,2559.0,2307.0,2492.0,2239.0,-2.32,9.54,5.02,0.03,0.05,-0.18,0.0,a
4095.0,3382.0,3248.0,4095.0,2559.0,2307.0,2492.0,2239.0,-2.32,9.54,5.02,0.03,0.05,-0.18,0.0,a
4095.0,3382.0,3248.0,4095.0,2559.0,2307.0,2492.0,2239.0,-2.32,9.54,5.02,0.03,0.05,-0.18,0.0,a
4095.0,3382.0,3248.0,4095.0,2559.0,2307.0,2492.0,2239.0,-2.32,9.54,5.02,0.03,0.05,-0.18,0.0,a
4095.0,3382.0,3248.0,4095.0,2559.0,2307.0,2492.0,2239.0,-2.32,9.54,5.02,0.03,0.05,-0.18,0.0,a
4095.0,3382.0,3248.0,4095.0,2559.0,2307.0,2492.0,2239.0,-2.32,9.54,5.02,0.03,0.05,-0.18,0.0,a
4095.0,3382.0,3248.0,4095.0,2559.0,2307.0,2492.0,2239.0,-2.32,9.54,5.02,0.03,0.05,-0.18,0.0,a
4095.0,3382.0,3248.0,4095.0,2559.0,2307.0,2492.0,2239.0,-2.32,9.54,5.02,0.03,0.05,-0.18,0.0,a
4095.0,3382.0,3248.0,4095.0,2559.0,2307.0,2492.0,2239.0,-2.32,9.54,5.02,0.03,0.05,-0.18,0.0,a
4095.0,3382.0,3248.0,4095.0,2559.0,2307.0,2492.0,2239.0,-2.32,9.54,5.02,0.03,0.05,-0.18,0.0,a
4095.0,3382.0,3248.0,4095.0,2559.0,2307.0,2492.0,2239.0,-2.32,9.54,5.02,0.03,0.05,-0.18,0.0,a
4095.0,3382.0,3248.0,4095.0,2559.0,2307.0,2492.0,2239.0,-2.32,9.54,5.02,0.03,0.05,-0.18,0.0,a
4095.0,3382.0,3248.0,4095.0,2559.0,2307.0,2492.0,2239.0,-2.32,9.54,5.02,0.03,0.05,-0.18,0.0,a
4095.0,3382.0,3248.0,4095.0,2559.0,2307.0,2492.0,2239.0,-2.32,9.54,5.02,0.03,0.05,-0.18,0.0,a
4095.0,3382.0,3248.0,4095.0,2559.0,2307.0,2492.0,2239.0,-2.32,9.54,5.02,0.03,0.05,-0.18,0.0,a
4095.0,3382.0,3248.0,4095.0,2559.0,2307.0,2492.0,2239.0,-2.32,9.54,5.02,0.03,0.05,-0.18,0.0,a
4095.0,3382.0,3248.0,4095.0,2559.0,2307.0,2492.0,2239.0,-2.32,9.54,5.02,0.03,0.05,-0.18,0.0,a
4095.0,3382.0,3248.0,4095.0,2559.0,2307.0,2492.0,2239.0,-2.32,9.54,5.02,0.03,0.05,-0.18,0.0,a
4095.0,3379.0,3248.0,4095.0,2559.0,2315.0,2491.0,2255.0,-2.33,9.44,5.04,0.02,-0.0,-0.16,0.0,a
4095.0,3379.0,3248.0,4095.0,2559.0,2315.0,2491.0,2255.0,-2.33,9.44,5.04,0.02,-0.0,-0.16,0.0,a
4095.0,3379.0,3248.0,4095.0,2559.0,2315.0,2491.0,2255.0,-2.33,9.44,5.04,0.02,-0.0,-0.16,0.0,a
4095.0,3379.0,3248.0,4095.0,2559.0,2315.0,2491.0,2255.0,-2.33,9.44,5.04,0.02,-0.0,-0.16,0.0,a
4095.0,3379.0,3248.0,4095.0,2559.0,2315.0,2491.0,2255.0,-2.33,9.44,5.04,0.02,-0.0,-0.16,0.0,a
4095.0,3379.0,3248.0,4095.0,2559.0,2315.0,2491.0,2255.0,-2.33,9.44,5.04,0.02,-0.0,-0.16,0.0,a
4095.0,3379.0,3248.0,4095.0,2559.0,2315.0,2491.0,2255.0,-2.33,9.44,5.04,0.02,-0.0,-0.16,0.0,a
4095.0,3379.0,3248.0,4095.0,2559.0,2315.0,2491.0,2255.0,-2.33,9.44,5.04,0.02,-0.0,-0.16,0.0,a
4095.0,3379.0,3248.0,4095.0,2559.0,2315.0,2491.0,2255.0,-2.33,9.44,5.04,0.02,-0.0,-0.16,0.0,a
4095.0,3379.0,3248.0,4095.0,2559.0,2315.0,2491.0,2255.0,-2.33,9.44,5.04,0.02,-0.0,-0.16,0.0,a
4095.0,3379.0,3248.0,4095.0,2559.0,2315.0,2491.0,2255.0,-2.33,9.44,5.04,0.02,-0.0,-0.16,0.0,a
4095.0,3379.0,3248.0,4095.0,2559.0,2315.0,2491.0,2255.0,-2.33,9.44,5.04,0.02,-0.0,-0.16,0.0,a
4095.0,3379.0,3248.0,4095.0,2559.0,2315.0,2491.0,2255.0,-2.33,9.44,5.04,0.02,-0.0,-0.16,0.0,a
4095.0,3379.0,3248.0,4095.0,2559.0,2315.0,2491.0,2255.0,-2.33,9.44,5.04,0.02,-0.0,-0.16,0.0,a
4095.0,3379.0,3248.0,4095.0,2559.0,2315.0,2491.0,2255.0,-2.33,9.44,5.04,0.02,-0.0,-0.16,0.0,a
4095.0,3379.0,3248.0,4095.0,2559.0,2315.0,2491.0,2255.0,-2.33,9.44,5.04,0.02,-0.0,-0.16,0.0,a
4095.0,3379.0,3248.0,4095.0,2559.0,2315.0,2491.0,2255.0,-2.33,9.44,5.04,0.02,-0.0,-0.16,0.0,a
4095.0,3379.0,3248.0,4095.0,2559.0,2315.0,2491.0,2255.0,-2.33,9.44,5.04,0.02,-0.0,-0.16,0.0,a
4095.0,3379.0,3248.0,4095.0,2559.0,2315.0,2491.0,2255.0,-2.33,9.44,5.04,0.02,-0.0,-0.16,0.0,a
4095.0,3379.0,3248.0,4095.0,2559.0,2315.0,2491.0,2255.0,-2.33,9.44,5.04,0.02,-0.0,-0.16,0.0,a
4095.0,3380.0,3233.0,4095.0,2582.0,2307.0,2447.0,2256.0,-2.49,9.62,4.59,0.07,-0.03,-0.14,0.0,a
4095.0,3380.0,3233.0,4095.0,2582.0,2307.0,2447.0,2256.0,-2.49,9.62,4.59,0.07,-0.03,-0.14,0.0,a
4095.0,3380.0,3233.0,4095.0,2582.0,2307.0,2447.0,2256.0,-2.49,9.62,4.59,0.07,-0.03,-0.14,0.0,a
4095.0,3380.0,3233.0,4095.0,2582.0,2307.0,2447.0,2256.0,-2.49,9.62,4.59,0.07,-0.03,-0.14,0.0,a
4095.0,3380.0,3233.0,4095.0,2582.0,2307.0,2447.0,2256.0,-2.49,9.62,4.59,0.07,-0.03,-0.14,0.0,a
4095.0,3380.0,3233.0,4095.0,2582.0,2307.0,2447.0,2256.0,-2.49,9.62,4.59,0.07,-0.03,-0.14,0.0,a
4095.0,3380.0,3233.0,4095.0,2582.0,2307.0,2447.0,2256.0,-2.49,9.62,4.59,0.07,-0.03,-0.14,0.0,a
4095.0,3380.0,3233.0,4095.0,2582.0,2307.0,2447.0,2256.0,-2.49,9.62,4.59,0.07,-0.03,-0.14,0.0,a
4095.0,3380.0,3233.0,4095.0,2582.0,2307.0,2447.0,2256.0,-2.49,9.62,4.59,0.07,-0.03,-0.14,0.0,a
4095.0,3380.0,3233.0,4095.0,2582.0,2307.0,2447.0,2256.0,-2.49,9.62,4.59,0.07,-0.03,-0.14,0.0,a
4095.0,3380.0,3233.0,4095.0,2582.0,2307.0,2447.0,2256.0,-2.49,9.62,4.59,0.07,-0.03,-0.14,0.0,a
4095.0,3380.0,3233.0,4095.0,2582.0,2307.0,2447.0,2256.0,-2.49,9.62,4.59,0.07,-0.03,-0.14,0.0,a
4095.0,3380.0,3233.0,4095.0,2582.0,2307.0,2447.0,2256.0,-2.49,9.62,4.59,0.07,-0.03,-0.14,0.0,a
4095.0,3380.0,3233.0,4095.0,2582.0,2307.0,2447.0,2256.0,-2.49,9.62,4.59,0.07,-0.03,-0.14,0.0,a
4095.0,3380.0,3233.0,4095.0,2582.0,2307.0,2447.0,2256.0,-2.49,9.62,4.59,0.07,-0.03,-0.14,0.0,a
4095.0,3380.0,3233.0,4095.0,2582.0,2307.0,2447.0,2256.0,-2.49,9.62,4.59,0.07,-0.03,-0.14,0.0,a
4095.0,3380.0,3233.0,4095.0,2582.0,2307.0,2447.0,2256.0,-2.49,9.62,4.59,0.07,-0.03,-0.14,0.0,a
4095.0,3380.0,3233.0,4095.0,2582.0,2307.0,2447.0,2256.0,-2.49,9.62,4.59,0.07,-0.03,-0.14,0.0,a
4095.0,3380.0,3233.0,4095.0,2582.0,2307.0,2447.0,2256.0,-2.49,9.62,4.59,0.07,-0.03,-0.14,0.0,a
4095.0,3380.0,3233.0,4095.0,2582.0,2307.0,2447.0,2256.0,-2.49,9.62,4.59,0.07,-0.03,-0.14,0.0,a
4095.0,3396.0,3247.0,4095.0,2587.0,2298.0,2503.0,2245.0,-2.15,9.39,4.76,0.0,0.04,-0.15,0.0,a
4095.0,3396.0,3247.0,4095.0,2587.0,2298.0,2503.0,2245.0,-2.15,9.39,4.76,0.0,0.04,-0.15,0.0,a
4095.0,3396.0,3247.0,4095.0,2587.0,2298.0,2503.0,2245.0,-2.15,9.39,4.76,0.0,0.04,-0.15,0.0,a
4095.0,3396.0,3247.0,4095.0,2587.0,2298.0,2503.0,2245.0,-2.15,9.39,4.76,0.0,0.04,-0.15,0.0,a
4095.0,3396.0,3247.0,4095.0,2587.0,2298.0,2503.0,2245.0,-2.15,9.39,4.76,0.0,0.04,-0.15,0.0,a
4095.0,3396.0,3247.0,4095.0,2587.0,2298.0,2503.0,2245.0,-2.15,9.39,4.76,0.0,0.04,-0.15,0.0,a
4095.0,3396.0,3247.0,4095.0,2587.0,2298.0,2503.0,2245.0,-2.15,9.39,4.76,0.0,0.04,-0.15,0.0,a
4095.0,3396.0,3247.0,4095.0,2587.0,2298.0,2503.0,2245.0,-2.15,9.39,4.76,0.0,0.04,-0.15,0.0,a
4095.0,3396.0,3247.0,4095.0,2587.0,2298.0,2503.0,2245.0,-2.15,9.39,4.76,0.0,0.04,-0.15,0.0,a
4095.0,3396.0,3247.0,4095.0,2587.0,2298.0,2503.0,2245.0,-2.15,9.39,4.76,0.0,0.04,-0.15,0.0,a
4095.0,3396.0,3247.0,4095.0,2587.0,2298.0,2503.0,2245.0,-2.15,9.39,4.76,0.0,0.04,-0.15,0.0,a
4095.0,3396.0,3247.0,4095.0,2587.0,2298.0,2503.0,2245.0,-2.15,9.39,4.76,0.0,0.04,-0.15,0.0,a
4095.0,3396.0,3247.0,4095.0,2587.0,2298.0,2503.0,2245.0,-2.15,9.39,4.76,0.0,0.04,-0.15,0.0,a
4095.0,3396.0,3247.0,4095.0,2587.0,2298.0,2503.0,2245.0,-2.15,9.39,4.76,0.0,0.04,-0.15,0.0,a
4095.0,3396.0,3247.0,4095.0,2587.0,2298.0,2503.0,2245.0,-2.15,9.39,4.76,0.0,0.04,-0.15,0.0,a
4095.0,3396.0,3247.0,4095.0,2587.0,2298.0,2503.0,2245.0,-2.15,9.39,4.76,0.0,0.04,-0.15,0.0,a
4095.0,3396.0,3247.0,4095.0,2587.0,2298.0,2503.0,2245.0,-2.15,9.39,4.76,0.0,0.04,-0.15,0.0,a
4095.0,3396.0,3247.0,4095.0,2587.0,2298.0,2503.0,2245.0,-2.15,9.39,4.76,0.0,0.04,-0.15,0.0,a
4095.0,3396.0,3247.0,4095.0,2587.0,2298.0,2503.0,2245.0,-2.15,9.39,4.76,0.0,0.04,-0.15,0.0,a
4095.0,3396.0,3247.0,4095.0,2587.0,2298.0,2503.0,2245.0,-2.15,9.39,4.76,0.0,0.04,-0.15,0.0,a
4095.0,3390.0,3246.0,4095.0,2559.0,2306.0,2496.0,2253.0,-2.32,9.56,4.88,-0.03,-0.02,-0.15,0.0,a
4095.0,3390.0,3246.0,4095.0,2559.0,2306.0,2496.0,2253.0,-2.32,9.56,4.88,-0.03,-0.02,-0.15,0.0,a
4095.0,3390.0,3246.0,4095.0,2559.0,2306.0,2496.0,2253.0,-2.32,9.56,4.88,-0.03,-0.02,-0.15,0.0,a
4095.0,3390.0,3246.0,4095.0,2559.0,2306.0,2496.0,2253.0,-2.32,9.56,4.88,-0.03,-0.02,-0.15,0.0,a
4095.0,3390.0,3246.0,4095.0,2559.0,2306.0,2496.0,2253.0,-2.32,9.56,4.88,-0.03,-0.02,-0.15,0.0,a
4095.0,3390.0,3246.0,4095.0,2559.0,2306.0,2496.0,2253.0,-2.32,9.56,4.88,-0.03,-0.02,-0.15,0.0,a
4095.0,3390.0,3246.0,4095.0,2559.0,2306.0,2496.0,2253.0,-2.32,9.56,4.88,-0.03,-0.02,-0.15,0.0,a
4095.0,3390.0,3246.0,4095.0,2559.0,2306.0,2496.0,2253.0,-2.32,9.56,4.88,-0.03,-0.02,-0.15,0.0,a
4095.0,3390.0,3246.0,4095.0,2559.0,2306.0,2496.0,2253.0,-2.32,9.56,4.88,-0.03,-0.02,-0.15,0.0,a
4095.0,3390.0,3246.0,4095.0,2559.0,2306.0,2496.0,2253.0,-2.32,9.56,4.88,-0.03,-0.02,-0.15,0.0,a
4095.0,3390.0,3246.0,4095.0,2559.0,2306.0,2496.0,2253.0,-2.32,9.56,4.88,-0.03,-0.02,-0.15,0.0,a
4095.0,3390.0,3246.0,4095.0,2559.0,2306.0,2496.0,2253.0,-2.32,9.56,4.88,-0.03,-0.02,-0.15,0.0,a
4095.0,3390.0,3246.0,4095.0,2559.0,2306.0,2496.0,2253.0,-2.32,9.56,4.88,-0.03,-0.02,-0.15,0.0,a
4095.0,3390.0,3246.0,4095.0,2559.0,2306.0,2496.0,2253.0,-2.32,9.56,4.88,-0.03,-0.02,-0.15,0.0,a
4095.0,3390.0,3246.0,4095.0,2559.0,2306.0,2496.0,2253.0,-2.32,9.56,4.88,-0.03,-0.02,-0.15,0.0,a
4095.0,3390.0,3246.0,4095.0,2559.0,2306.0,2496.0,2253.0,-2.32,9.56,4.88,-0.03,-0.02,-0.15,0.0,a
4095.0,3390.0,3246.0,4095.0,2559.0,2306.0,2496.0,2253.0,-2.32,9.56,4.88,-0.03,-0.02,-0.15,0.0,a
4095.0,3390.0,3246.0,4095.0,2559.0,2306.0,2496.0,2253.0,-2.32,9.56,4.88,-0.03,-0.02,-0.15,0.0,a
4095.0,3390.0,3246.0,4095.0,2559.0,2306.0,2496.0,2253.0,-2.32,9.56,4.88,-0.03,-0.02,-0.15,0.0,a
4095.0,3390.0,3246.0,4095.0,2559.0,2306.0,2496.0,2253.0,-2.32,9.56,4.88,-0.03,-0.02,-0.15,0.0,a
4095.0,3384.0,3248.0,4095.0,2582.0,2321.0,2507.0,2247.0,-2.33,9.41,5.01,0.07,0.06,-0.18,0.0,a
4095.0,3384.0,3248.0,4095.0,2582.0,2321.0,2507.0,2247.0,-2.33,9.41,5.01,0.07,0.06,-0.18,0.0,a
4095.0,3384.0,3248.0,4095.0,2582.0,2321.0,2507.0,2247.0,-2.33,9.41,5.01,0.07,0.06,-0.18,0.0,a
4095.0,3384.0,3248.0,4095.0,2582.0,2321.0,2507.0,2247.0,-2.33,9.41,5.01,0.07,0.06,-0.18,0.0,a
4095.0,3384.0,3248.0,4095.0,2582.0,2321.0,2507.0,2247.0,-2.33,9.41,5.01,0.07,0.06,-0.18,0.0,a
4095.0,3384.0,3248.0,4095.0,2582.0,2321.0,2507.0,2247.0,-2.33,9.41,5.01,0.07,0.06,-0.18,0.0,a
4095.0,3384.0,3248.0,4095.0,2582.0,2321.0,2507.0,2247.0,-2.33,9.41,5.01,0.07,0.06,-0.18,0.0,a
4095.0,3384.0,3248.0,4095.0,2582.0,2321.0,2507.0,2247.0,-2.33,9.41,5.01,0.07,0.06,-0.18,0.0,a
4095.0,3384.0,3248.0,4095.0,2582.0,2321.0,2507.0,2247.0,-2.33,9.41,5.01,0.07,0.06,-0.18,0.0,a
4095.0,3384.0,3248.0,4095.0,2582.0,2321.0,2507.0,2247.0,-2.33,9.41,5.01,0.07,0.06,-0.18,0.0,a
4095.0,3384.0,3248.0,4095.0,2582.0,2321.0,2507.0,2247.0,-2.33,9.41,5.01,0.07,0.06,-0.18,0.0,a
4095.0,3384.0,3248.0,4095.0,2582.0,2321.0,2507.0,2247.0,-2.33,9.41,5.01,0.07,0.06,-0.18,0.0,a
4095.0,3384.0,3248.0,4095.0,2582.0,2321.0,2507.0,2247.0,-2.33,9.41,5.01,0.07,0.06,-0.18,0.0,a
4095.0,3384.0,3248.0,4095.0,2582.0,2321.0,2507.0,2247.0,-2.33,9.41,5.01,0.07,0.06,-0.18,0.0,a
4095.0,3384.0,3248.0,4095.0,2582.0,2321.0,2507.0,2247.0,-2.33,9.41,5.01,0.07,0.06,-0.18,0.0,a
4095.0,3384.0,3248.0,4095.0,2582.0,2321.0,2507.0,2247.0,-2.33,9.41,5.01,0.07,0.06,-0.18,0.0,a
4095.0,3384.0,3248.0,4095.0,2582.0,2321.0,2507.0,2247.0,-2.33,9.41,5.01,0.07,0.06,-0.18,0.0,a
4095.0,3384.0,3248.0,4095.0,2582.0,2321.0,2507.0,2247.0,-2.33,9.41,5.01,0.07,0.06,-0.18,0.0,a
4095.0,3384.0,3248.0,4095.0,2582.0,2321.0,2507.0,2247.0,-2.33,9.41,5.01,0.07,0.06,-0.18,0.0,a
4095.0,3384.0,3248.0,4095.0,2582.0,2321.0,2507.0,2247.0,-2.33,9.41,5.01,0.07,0.06,-0.18,0.0,a
4095.0,3380.0,3247.0,4095.0,2597.0,2320.0,2509.0,2250.0,-2.42,9.54,4.68,0.03,-0.06,-0.12,0.0,a
4095.0,3380.0,3247.0,4095.0,2597.0,2320.0,2509.0,2250.0,-2.42,9.54,4.68,0.03,-0.06,-0.12,0.0,a
4095.0,3380.0,3247.0,4095.0,2597.0,2320.0,2509.0,2250.0,-2.42,9.54,4.68,0.03,-0.06,-0.12,0.0,a
4095.0,3380.0,3247.0,4095.0,2597.0,2320.0,2509.0,2250.0,-2.42,9.54,4.68,0.03,-0.06,-0.12,0.0,a
4095.0,3380.0,3247.0,4095.0,2597.0,2320.0,2509.0,2250.0,-2.42,9.54,4.68,0.03,-0.06,-0.12,0.0,a
4095.0,3380.0,3247.0,4095.0,2597.0,2320.0,2509.0,2250.0,-2.42,9.54,4.68,0.03,-0.06,-0.12,0.0,a
4095.0,3380.0,3247.0,4095.0,2597.0,2320.0,2509.0,2250.0,-2.42,9.54,4.68,0.03,-0.06,-0.12,0.0,a
4095.0,3380.0,3247.0,4095.0,2597.0,2320.0,2509.0,2250.0,-2.42,9.54,4.68,0.03,-0.06,-0.12,0.0,a
4095.0,3380.0,3247.0,4095.0,2597.0,2320.0,2509.0,2250.0,-2.42,9.54,4.68,0.03,-0.06,-0.12,0.0,a
4095.0,3380.0,3247.0,4095.0,2597.0,2320.0,2509.0,2250.0,-2.42,9.54,4.68,0.03,-0.06,-0.12,0.0,a
4095.0,3380.0,3247.0,4095.0,2597.0,2320.0,2509.0,2250.0,-2.42,9.54,4.68,0.03,-0.06,-0.12,0.0,a
4095.0,3380.0,3247.0,4095.0,2597.0,2320.0,2509.0,2250.0,-2.42,9.54,4.68,0.03,-0.06,-0.12,0.0,a
4095.0,3380.0,3247.0,4095.0,2597.0,2320.0,2509.0,2250.0,-2.42,9.54,4.68,0.03,-0.06,-0.12,0.0,a
4095.0,3380.0,3247.0,4095.0,2597.0,2320.0,2509.0,2250.0,-2.42,9.54,4.68,0.03,-0.06,-0.12,0.0,a
4095.0,3380.0,3247.0,4095.0,2597.0,2320.0,2509.0,2250.0,-2.42,9.54,4.68,0.03,-0.06,-0.12,0.0,a
4095.0,3380.0,3247.0,4095.0,2597.0,2320.0,2509.0,2250.0,-2.42,9.54,4.68,0.03,-0.06,-0.12,0.0,a
4095.0,3380.0,3247.0,4095.0,2597.0,2320.0,2509.0,2250.0,-2.42,9.54,4.68,0.03,-0.06,-0.12,0.0,a
4095.0,3380.0,3247.0,4095.0,2597.0,2320.0,2509.0,2250.0,-2.42,9.54,4.68,0.03,-0.06,-0.12,0.0,a
4095.0,3380.0,3247.0,4095.0,2597.0,2320.0,2509.0,2250.0,-2.42,9.54,4.68,0.03,-0.06,-0.12,0.0,a
4095.0,3380.0,3247.0,4095.0,2597.0,2320.0,2509.0,2250.0,-2.42,9.54,4.68,0.03,-0.06,-0.12,0.0,a
4095.0,3381.0,3231.0,4095.0,2587.0,2318.0,2505.0,2263.0,-2.23,9.46,4.66,0.06,0.04,-0.15,0.0,a
4095.0,3381.0,3231.0,4095.0,2587.0,2318.0,2505.0,2263.0,-2.23,9.46,4.66,0.06,0.04,-0.15,0.0,a
4095.0,3381.0,3231.0,4095.0,2587.0,2318.0,2505.0,2263.0,-2.23,9.46,4.66,0.06,0.04,-0.15,0.0,a
4095.0,3381.0,3231.0,4095.0,2587.0,2318.0,2505.0,2263.0,-2.23,9.46,4.66,0.06,0.04,-0.15,0.0,a
4095.0,3381.0,3231.0,4095.0,2587.0,2318.0,2505.0,2263.0,-2.23,9.46,4.66,0.06,0.04,-0.15,0.0,a
4095.0,3381.0,3231.0,4095.0,2587.0,2318.0,2505.0,2263.0,-2.23,9.46,4.66,0.06,0.04,-0.15,0.0,a
4095.0,3381.0,3231.0,4095.0,2587.0,2318.0,2505.0,2263.0,-2.23,9.46,4.66,0.06,0.04,-0.15,0.0,a
4095.0,3381.0,3231.0,4095.0,2587.0,2318.0,2505.0,2263.0,-2.23,9.46,4.66,0.06,0.04,-0.15,0.0,a
4095.0,3381.0,3231.0,4095.0,2587.0,2318.0,2505.0,2263.0,-2.23,9.46,4.66,0.06,0.04,-0.15,0.0,a
4095.0,3381.0,3231.0,4095.0,2587.0,2318.0,2505.0,2263.0,-2.23,9.46,4.66,0.06,0.04,-0.15,0.0,a
4095.0,3381.0,3231.0,4095.0,2587.0,2318.0,2505.0,2263.0,-2.23,9.46,4.66,0.06,0.04,-0.15,0.0,a
4095.0,3381.0,3231.0,4095.0,2587.0,2318.0,2505.0,2263.0,-2.23,9.46,4.66,0.06,0.04,-0.15,0.0,a
4095.0,3381.0,3231.0,4095.0,2587.0,2318.0,2505.0,2263.0,-2.23,9.46,4.66,0.06,0.04,-0.15,0.0,a
4095.0,3381.0,3231.0,4095.0,2587.0,2318.0,2505.0,2263.0,-2.23,9.46,4.66,0.06,0.04,-0.15,0.0,a
4095.0,3381.0,3231.0,4095.0,2587.0,2318.0,2505.0,2263.0,-2.23,9.46,4.66,0.06,0.04,-0.15,0.0,a
4095.0,3381.0,3231.0,4095.0,2587.0,2318.0,2505.0,2263.0,-2.23,9.46,4.66,0.06,0.04,-0.15,0.0,a
4095.0,3381.0,3231.0,4095.0,2587.0,2318.0,2505.0,2263.0,-2.23,9.46,4.66,0.06,0.04,-0.15,0.0,a
4095.0,3381.0,3231.0,4095.0,2587.0,2318.0,2505.0,2263.0,-2.23,9.46,4.66,0.06,0.04,-0.15,0.0,a
4095.0,3381.0,3231.0,4095.0,2587.0,2318.0,2505.0,2263.0,-2.23,9.46,4.66,0.06,0.04,-0.15,0.0,a
4095.0,3381.0,3231.0,4095.0,2587.0,2318.0,2505.0,2263.0,-2.23,9.46,4.66,0.06,0.04,-0.15,0.0,a
4095.0,3393.0,3259.0,4095.0,2586.0,2318.0,2512.0,2256.0,-2.19,9.52,4.82,-0.06,-0.01,-0.13,0.0,a
4095.0,3393.0,3259.0,4095.0,2586.0,2318.0,2512.0,2256.0,-2.19,9.52,4.82,-0.06,-0.01,-0.13,0.0,a
4095.0,3393.0,3259.0,4095.0,2586.0,2318.0,2512.0,2256.0,-2.19,9.52,4.82,-0.06,-0.01,-0.13,0.0,a
4095.0,3393.0,3259.0,4095.0,2586.0,2318.0,2512.0,2256.0,-2.19,9.52,4.82,-0.06,-0.01,-0.13,0.0,a
4095.0,3393.0,3259.0,4095.0,2586.0,2318.0,2512.0,2256.0,-2.19,9.52,4.82,-0.06,-0.01,-0.13,0.0,a
4095.0,3393.0,3259.0,4095.0,2586.0,2318.0,2512.0,2256.0,-2.19,9.52,4.82,-0.06,-0.01,-0.13,0.0,a
4095.0,3393.0,3259.0,4095.0,2586.0,2318.0,2512.0,2256.0,-2.19,9.52,4.82,-0.06,-0.01,-0.13,0.0,a
4095.0,3393.0,3259.0,4095.0,2586.0,2318.0,2512.0,2256.0,-2.19,9.52,4.82,-0.06,-0.01,-0.13,0.0,a
4095.0,3393.0,3259.0,4095.0,2586.0,2318.0,2512.0,2256.0,-2.19,9.52,4.82,-0.06,-0.01,-0.13,0.0,a
4095.0,3393.0,3259.0,4095.0,2586.0,2318.0,2512.0,2256.0,-2.19,9.52,4.82,-0.06,-0.01,-0.13,0.0,a
4095.0,3393.0,3259.0,4095.0,2586.0,2318.0,2512.0,2256.0,-2.19,9.52,4.82,-0.06,-0.01,-0.13,0.0,a
4095.0,3393.0,3259.0,4095.0,2586.0,2318.0,2512.0,2256.0,-2.19,9.52,4.82,-0.06,-0.01,-0.13,0.0,a
4095.0,3393.0,3259.0,4095.0,2586.0,2318.0,2512.0,2256.0,-2.19,9.52,4.82,-0.06,-0.01,-0.13,0.0,a
4095.0,3393.0,3259.0,4095.0,2586.0,2318.0,2512.0,2256.0,-2.19,9.52,4.82,-0.06,-0.01,-0.13,0.0,a
4095.0,3393.0,3259.0,4095.0,2586.0,2318.0,2512.0,2256.0,-2.19,9.52,4.82,-0.06,-0.01,-0.13,0.0,a
4095.0,3393.0,3259.0,4095.0,2586.0,2318.0,2512.0,2256.0,-2.19,9.52,4.82,-0.06,-0.01,-0.13,0.0,a
4095.0,3393.0,3259.0,4095.0,2586.0,2318.0,2512.0,2256.0,-2.19,9.52,4.82,-0.06,-0.01,-0.13,0.0,a
4095.0,3393.0,3259.0,4095.0,2586.0,2318.0,2512.0,2256.0,-2.19,9.52,4.82,-0.06,-0.01,-0.13,0.0,a
4095.0,3393.0,3259.0,4095.0,2586.0,2318.0,2512.0,2256.0,-2.19,9.52,4.82,-0.06,-0.01,-0.13,0.0,a
4095.0,3393.0,3259.0,4095.0,2586.0,2318.0,2512.0,2256.0,-2.19,9.52,4.82,-0.06,-0.01,-0.13,0.0,a
4095.0,3407.0,3235.0,4095.0,2592.0,2314.0,2503.0,2262.0,-2.45,9.55,4.92,0.03,0.05,-0.17,0.0,a
4095.0,3407.0,3235.0,4095.0,2592.0,2314.0,2503.0,2262.0,-2.45,9.55,4.92,0.03,0.05,-0.17,0.0,a
4095.0,3407.0,3235.0,4095.0,2592.0,2314.0,2503.0,2262.0,-2.45,9.55,4.92,0.03,0.05,-0.17,0.0,a
4095.0,3407.0,3235.0,4095.0,2592.0,2314.0,2503.0,2262.0,-2.45,9.55,4.92,0.03,0.05,-0.17,0.0,a
4095.0,3407.0,3235.0,4095.0,2592.0,2314.0,2503.0,2262.0,-2.45,9.55,4.92,0.03,0.05,-0.17,0.0,a
4095.0,3407.0,3235.0,4095.0,2592.0,2314.0,2503.0,2262.0,-2.45,9.55,4.92,0.03,0.05,-0.17,0.0,a
4095.0,3407.0,3235.0,4095.0,2592.0,2314.0,2503.0,2262.0,-2.45,9.55,4.92,0.03,0.05,-0.17,0.0,a
4095.0,3407.0,3235.0,4095.0,2592.0,2314.0,2503.0,2262.0,-2.45,9.55,4.92,0.03,0.05,-0.17,0.0,a
4095.0,3407.0,3235.0,4095.0,2592.0,2314.0,2503.0,2262.0,-2.45,9.55,4.92,0.03,0.05,-0.17,0.0,a
4095.0,3407.0,3235.0,4095.0,2592.0,2314.0,2503.0,2262.0,-2.45,9.55,4.92,0.03,0.05,-0.17,0.0,a
4095.0,3407.0,3235.0,4095.0,2592.0,2314.0,2503.0,2262.0,-2.45,9.55,4.92,0.03,0.05,-0.17,0.0,a
4095.0,3407.0,3235.0,4095.0,2592.0,2314.0,2503.0,2262.0,-2.45,9.55,4.92,0.03,0.05,-0.17,0.0,a
4095.0,3407.0,3235.0,4095.0,2592.0,2314.0,2503.0,2262.0,-2.45,9.55,4.92,0.03,0.05,-0.17,0.0,a
4095.0,3407.0,3235.0,4095.0,2592.0,2314.0,2503.0,2262.0,-2.45,9.55,4.92,0.03,0.05,-0.17,0.0,a
4095.0,3407.0,3235.0,4095.0,2592.0,2314.0,2503.0,2262.0,-2.45,9.55,4.92,0.03,0.05,-0.17,0.0,a
4095.0,3407.0,3235.0,4095.0,2592.0,2314.0,2503.0,2262.0,-2.45,9.55,4.92,0.03,0.05,-0.17,0.0,a
4095.0,3407.0,3235.0,4095.0,2592.0,2314.0,2503.0,2262.0,-2.45,9.55,4.92,0.03,0.05,-0.17,0.0,a
4095.0,3407.0,3235.0,4095.0,2592.0,2314.0,2503.0,2262.0,-2.45,9.55,4.92,0.03,0.05,-0.17,0.0,a
4095.0,3407.0,3235.0,4095.0,2592.0,2314.0,2503.0,2262.0,-2.45,9.55,4.92,0.03,0.05,-0.17,0.0,a
4095.0,3407.0,3235.0,4095.0,2592.0,2314.0,2503.0,2262.0,-2.45,9.55,4.92,0.03,0.05,-0.17,0.0,a
4095.0,3436.0,3183.0,4095.0,2622.0,2315.0,2497.0,2173.0,-1.99,9.61,4.75,0.0,-0.07,-0.15,0.0,a
4095.0,3436.0,3183.0,4095.0,2622.0,2315.0,2497.0,2173.0,-1.99,9.61,4.75,0.0,-0.07,-0.15,0.0,a
4095.0,3436.0,3183.0,4095.0,2622.0,2315.0,2497.0,2173.0,-1.99,9.61,4.75,0.0,-0.07,-0.15,0.0,a
4095.0,3436.0,3183.0,4095.0,2622.0,2315.0,2497.0,2173.0,-1.99,9.61,4.75,0.0,-0.07,-0.15,0.0,a
4095.0,3436.0,3183.0,4095.0,2622.0,2315.0,2497.0,2173.0,-1.99,9.61,4.75,0.0,-0.07,-0.15,0.0,a
4095.0,3436.0,3183.0,4095.0,2622.0,2315.0,2497.0,2173.0,-1.99,9.61,4.75,0.0,-0.07,-0.15,0.0,a
4095.0,3436.0,3183.0,4095.0,2622.0,2315.0,2497.0,2173.0,-1.99,9.61,4.75,0.0,-0.07,-0.15,0.0,a
4095.0,3436.0,3183.0,4095.0,2622.0,2315.0,2497.0,2173.0,-1.99,9.61,4.75,0.0,-0.07,-0.15,0.0,a
4095.0,3436.0,3183.0,4095.0,2622.0,2315.0,2497.0,2173.0,-1.99,9.61,4.75,0.0,-0.07,-0.15,0.0,a
4095.0,3436.0,3183.0,4095.0,2622.0,2315.0,2497.0,2173.0,-1.99,9.61,4.75,0.0,-0.07,-0.15,0.0,a
4095.0,3436.0,3183.0,4095.0,2622.0,2315.0,2497.0,2173.0,-1.99,9.61,4.75,0.0,-0.07,-0.15,0.0,a
4095.0,3436.0,3183.0,4095.0,2622.0,2315.0,2497.0,2173.0,-1.99,9.61,4.75,0.0,-0.07,-0.15,0.0,a
4095.0,3436.0,3183.0,4095.0,2622.0,2315.0,2497.0,2173.0,-1.99,9.61,4.75,0.0,-0.07,-0.15,0.0,a
4095.0,3436.0,3183.0,4095.0,2622.0,2315.0,2497.0,2173.0,-1.99,9.61,4.75,0.0,-0.07,-0.15,0.0,a
4095.0,3436.0,3183.0,4095.0,2622.0,2315.0,2497.0,2173.0,-1.99,9.61,4.75,0.0,-0.07,-0.15,0.0,a
4095.0,3436.0,3183.0,4095.0,2622.0,2315.0,2497.0,2173.0,-1.99,9.61,4.75,0.0,-0.07,-0.15,0.0,a
4095.0,3436.0,3183.0,4095.0,2622.0,2315.0,2497.0,2173.0,-1.99,9.61,4.75,0.0,-0.07,-0.15,0.0,a
4095.0,3436.0,3183.0,4095.0,2622.0,2315.0,2497.0,2173.0,-1.99,9.61,4.75,0.0,-0.07,-0.15,0.0,a
4095.0,3436.0,3183.0,4095.0,2622.0,2315.0,2497.0,2173.0,-1.99,9.61,4.75,0.0,-0.07,-0.15,0.0,a
4095.0,3436.0,3183.0,4095.0,2622.0,2315.0,2497.0,2173.0,-1.99,9.61,4.75,0.0,-0.07,-0.15,0.0,a
4095.0,3440.0,3190.0,4095.0,2610.0,2333.0,2495.0,2173.0,-1.96,9.44,5.23,0.08,-0.0,-0.19,0.0,a
4095.0,3440.0,3190.0,4095.0,2610.0,2333.0,2495.0,2173.0,-1.96,9.44,5.23,0.08,-0.0,-0.19,0.0,a
4095.0,3440.0,3190.0,4095.0,2610.0,2333.0,2495.0,2173.0,-1.96,9.44,5.23,0.08,-0.0,-0.19,0.0,a
4095.0,3440.0,3190.0,4095.0,2610.0,2333.0,2495.0,2173.0,-1.96,9.44,5.23,0.08,-0.0,-0.19,0.0,a
4095.0,3440.0,3190.0,4095.0,2610.0,2333.0,2495.0,2173.0,-1.96,9.44,5.23,0.08,-0.0,-0.19,0.0,a
4095.0,3440.0,3190.0,4095.0,2610.0,2333.0,2495.0,2173.0,-1.96,9.44,5.23,0.08,-0.0,-0.19,0.0,a
4095.0,3440.0,3190.0,4095.0,2610.0,2333.0,2495.0,2173.0,-1.96,9.44,5.23,0.08,-0.0,-0.19,0.0,a
4095.0,3440.0,3190.0,4095.0,2610.0,2333.0,2495.0,2173.0,-1.96,9.44,5.23,0.08,-0.0,-0.19,0.0,a
4095.0,3440.0,3190.0,4095.0,2610.0,2333.0,2495.0,2173.0,-1.96,9.44,5.23,0.08,-0.0,-0.19,0.0,a
4095.0,3440.0,3190.0,4095.0,2610.0,2333.0,2495.0,2173.0,-1.96,9.44,5.23,0.08,-0.0,-0.19,0.0,a
4095.0,3440.0,3190.0,4095.0,2610.0,2333.0,2495.0,2173.0,-1.96,9.44,5.23,0.08,-0.0,-0.19,0.0,a
4095.0,3440.0,3190.0,4095.0,2610.0,2333.0,2495.0,2173.0,-1.96,9.44,5.23,0.08,-0.0,-0.19,0.0,a
4095.0,3440.0,3190.0,4095.0,2610.0,2333.0,2495.0,2173.0,-1.96,9.44,5.23,0.08,-0.0,-0.19,0.0,a
4095.0,3440.0,3190.0,4095.0,2610.0,2333.0,2495.0,2173.0,-1.96,9.44,5.23,0.08,-0.0,-0.19,0.0,a
4095.0,3440.0,3190.0,4095.0,2610.0,2333.0,2495.0,2173.0,-1.96,9.44,5.23,0.08,-0.0,-0.19,0.0,a
4095.0,3440.0,3190.0,4095.0,2610.0,2333.0,2495.0,2173.0,-1.96,9.44,5.23,0.08,-0.0,-0.19,0.0,a
4095.0,3440.0,3190.0,4095.0,2610.0,2333.0,2495.0,2173.0,-1.96,9.44,5.23,0.08,-0.0,-0.19,0.0,a
4095.0,3440.0,3190.0,4095.0,2610.0,2333.0,2495.0,2173.0,-1.96,9.44,5.23,0.08,-0.0,-0.19,0.0,a
4095.0,3440.0,3190.0,4095.0,2610.0,2333.0,2495.0,2173.0,-1.96,9.44,5.23,0.08,-0.0,-0.19,0.0,a
4095.0,3440.0,3190.0,4095.0,2610.0,2333.0,2495.0,2173.0,-1.96,9.44,5.23,0.08,-0.0,-0.19,0.0,a
4095.0,3431.0,3178.0,4095.0,2614.0,2321.0,2503.0,2183.0,-2.09,9.6,5.07,-0.03,-0.13,-0.12,0.0,a
4095.0,3431.0,3178.0,4095.0,2614.0,2321.0,2503.0,2183.0,-2.09,9.6,5.07,-0.03,-0.13,-0.12,0.0,a
4095.0,3431.0,3178.0,4095.0,2614.0,2321.0,2503.0,2183.0,-2.09,9.6,5.07,-0.03,-0.13,-0.12,0.0,a
4095.0,3431.0,3178.0,4095.0,2614.0,2321.0,2503.0,2183.0,-2.09,9.6,5.07,-0.03,-0.13,-0.12,0.0,a
4095.0,3431.0,3178.0,4095.0,2614.0,2321.0,2503.0,2183.0,-2.09,9.6,5.07,-0.03,-0.13,-0.12,0.0,a
4095.0,3431.0,3178.0,4095.0,2614.0,2321.0,2503.0,2183.0,-2.09,9.6,5.07,-0.03,-0.13,-0.12,0.0,a
4095.0,3431.0,3178.0,4095.0,2614.0,2321.0,2503.0,2183.0,-2.09,9.6,5.07,-0.03,-0.13,-0.12,0.0,a
4095.0,3431.0,3178.0,4095.0,2614.0,2321.0,2503.0,2183.0,-2.09,9.6,5.07,-0.03,-0.13,-0.12,0.0,a
4095.0,3431.0,3178.0,4095.0,2614.0,2321.0,2503.0,2183.0,-2.09,9.6,5.07,-0.03,-0.13,-0.12,0.0,a
4095.0,3431.0,3178.0,4095.0,2614.0,2321.0,2503.0,2183.0,-2.09,9.6,5.07,-0.03,-0.13,-0.12,0.0,a
4095.0,3431.0,3178.0,4095.0,2614.0,2321.0,2503.0,2183.0,-2.09,9.6,5.07,-0.03,-0.13,-0.12,0.0,a
4095.0,3431.0,3178.0,4095.0,2614.0,2321.0,2503.0,2183.0,-2.09,9.6,5.07,-0.03,-0.13,-0.12,0.0,a
4095.0,3431.0,3178.0,4095.0,2614.0,2321.0,2503.0,2183.0,-2.09,9.6,5.07,-0.03,-0.13,-0.12,0.0,a
4095.0,3431.0,3178.0,4095.0,2614.0,2321.0,2503.0,2183.0,-2.09,9.6,5.07,-0.03,-0.13,-0.12,0.0,a
4095.0,3431.0,3178.0,4095.0,2614.0,2321.0,2503.0,2183.0,-2.09,9.6,5.07,-0.03,-0.13,-0.12,0.0,a
4095.0,3431.0,3178.0,4095.0,2614.0,2321.0,2503.0,2183.0,-2.09,9.6,5.07,-0.03,-0.13,-0.12,0.0,a
4095.0,3431.0,3178.0,4095.0,2614.0,2321.0,2503.0,2183.0,-2.09,9.6,5.07,-0.03,-0.13,-0.12,0.0,a
4095.0,3431.0,3178.0,4095.0,2614.0,2321.0,2503.0,2183.0,-2.09,9.6,5.07,-0.03,-0.13,-0.12,0.0,a
4095.0,3431.0,3178.0,4095.0,2614.0,2321.0,2503.0,2183.0,-2.09,9.6,5.07,-0.03,-0.13,-0.12,0.0,a
4095.0,3431.0,3178.0,4095.0,2614.0,2321.0,2503.0,2183.0,-2.09,9.6,5.07,-0.03,-0.13,-0.12,0.0,a
4095.0,3427.0,3179.0,4095.0,2617.0,2323.0,2512.0,2183.0,-2.14,9.63,4.95,0.17,-0.0,-0.19,0.0,a
4095.0,3427.0,3179.0,4095.0,2617.0,2323.0,2512.0,2183.0,-2.14,9.63,4.95,0.17,-0.0,-0.19,0.0,a
4095.0,3427.0,3179.0,4095.0,2617.0,2323.0,2512.0,2183.0,-2.14,9.63,4.95,0.17,-0.0,-0.19,0.0,a
4095.0,3427.0,3179.0,4095.0,2617.0,2323.0,2512.0,2183.0,-2.14,9.63,4.95,0.17,-0.0,-0.19,0.0,a
4095.0,3427.0,3179.0,4095.0,2617.0,2323.0,2512.0,2183.0,-2.14,9.63,4.95,0.17,-0.0,-0.19,0.0,a
4095.0,3427.0,3179.0,4095.0,2617.0,2323.0,2512.0,2183.0,-2.14,9.63,4.95,0.17,-0.0,-0.19,0.0,a
4095.0,3427.0,3179.0,4095.0,2617.0,2323.0,2512.0,2183.0,-2.14,9.63,4.95,0.17,-0.0,-0.19,0.0,a
4095.0,3427.0,3179.0,4095.0,2617.0,2323.0,2512.0,2183.0,-2.14,9.63,4.95,0.17,-0.0,-0.19,0.0,a
4095.0,3427.0,3179.0,4095.0,2617.0,2323.0,2512.0,2183.0,-2.14,9.63,4.95,0.17,-0.0,-0.19,0.0,a
4095.0,3427.0,3179.0,4095.0,2617.0,2323.0,2512.0,2183.0,-2.14,9.63,4.95,0.17,-0.0,-0.19,0.0,a
