hall_1,hall_2,hall_3,flex_t,flex_i,flex_m,flex_r,flex_p,accel_x,accel_y,accel_z,gyro_x,gyro_y,gyro_z,hand,sign
3430.0,4095.0,3867.0,3899.0,3884.0,2881.0,3070.0,3298.0,0.6,9.88,2.12,-0.08,-0.05,-0.05,1.0,a
3454.0,4095.0,3858.0,3884.0,3887.0,2906.0,3088.0,3297.0,0.56,9.84,2.07,-0.05,0.02,-0.01,1.0,a
3440.0,4095.0,3840.0,3891.0,3875.0,2881.0,3088.0,3302.0,0.6,9.9,1.82,-0.01,0.02,-0.01,1.0,a
3437.0,4095.0,3835.0,3899.0,3868.0,2901.0,3071.0,3301.0,0.7,9.98,1.64,0.02,0.03,-0.01,1.0,a
3438.0,4095.0,3845.0,3888.0,3891.0,2900.0,3065.0,3292.0,0.66,10.02,1.59,0.01,0.04,-0.02,1.0,a
3440.0,4095.0,3847.0,3874.0,3878.0,2896.0,3087.0,3289.0,0.68,9.97,1.59,-0.01,-0.0,-0.05,1.0,a
3426.0,4095.0,3824.0,3920.0,3911.0,2899.0,3094.0,3302.0,0.54,9.97,1.57,-0.03,0.01,-0.05,1.0,a
3437.0,4095.0,3828.0,3899.0,3893.0,2896.0,3057.0,3291.0,0.62,9.97,1.61,-0.05,-0.01,-0.05,1.0,a
3445.0,4095.0,3833.0,3937.0,3891.0,2906.0,3091.0,3299.0,0.59,9.95,1.64,-0.02,-0.02,-0.07,1.0,a
3427.0,4095.0,3846.0,3925.0,3893.0,2915.0,3088.0,3299.0,0.52,9.86,1.64,0.0,0.06,-0.06,1.0,a
3456.0,4095.0,3824.0,3922.0,3879.0,2912.0,3071.0,3313.0,0.18,9.81,2.24,0.36,0.07,-0.01,1.0,a
3454.0,4095.0,3826.0,3947.0,3879.0,2919.0,3092.0,3302.0,0.51,10.36,1.19,0.21,0.09,0.05,1.0,a
3439.0,4095.0,3843.0,3939.0,3884.0,2919.0,3100.0,3290.0,0.69,10.1,0.93,-0.0,0.12,0.02,1.0,a
3420.0,4095.0,3813.0,3916.0,3873.0,2915.0,3103.0,3312.0,0.75,10.07,0.88,-0.13,-0.07,0.01,1.0,a
3472.0,4095.0,3831.0,3955.0,3877.0,2926.0,3105.0,3314.0,0.75,10.08,0.92,-0.12,0.01,-0.01,1.0,a
3440.0,4095.0,3814.0,3949.0,3871.0,2919.0,3088.0,3315.0,0.65,10.04,1.07,-0.17,0.02,0.0,1.0,a
3440.0,4095.0,3815.0,3921.0,3876.0,2921.0,3109.0,3322.0,0.68,9.93,1.42,-0.16,-0.06,-0.02,1.0,a
3433.0,4095.0,3799.0,3931.0,3893.0,2922.0,3106.0,3315.0,0.77,9.97,1.59,-0.15,-0.05,-0.02,1.0,a
3451.0,4095.0,3845.0,3971.0,3888.0,2926.0,3107.0,3302.0,0.86,9.9,1.7,-0.09,-0.03,-0.02,1.0,a
3450.0,4095.0,3811.0,3930.0,3910.0,2926.0,3117.0,3306.0,0.85,10.02,1.57,-0.05,0.03,-0.04,1.0,a
3919.0,3407.0,3167.0,3615.0,3853.0,2832.0,3106.0,3276.0,0.99,10.06,1.38,-0.02,0.05,-0.07,1.0,a
3936.0,3392.0,3163.0,3609.0,3879.0,2823.0,3111.0,3270.0,0.96,9.89,1.38,-0.03,0.06,-0.06,1.0,a
3936.0,3367.0,3143.0,3604.0,3888.0,2833.0,3117.0,3264.0,0.79,10.0,1.31,-0.04,-0.01,-0.05,1.0,a
3937.0,3385.0,3150.0,3603.0,3878.0,2826.0,3104.0,3262.0,0.88,9.94,1.32,-0.05,0.01,-0.04,1.0,a
3941.0,3386.0,3153.0,3598.0,3881.0,2832.0,3104.0,3275.0,1.1,10.0,1.34,-0.06,-0.01,-0.02,1.0,a
3947.0,3395.0,3155.0,3601.0,3856.0,2833.0,3095.0,3273.0,0.93,9.93,1.38,-0.08,0.0,-0.03,1.0,a
3939.0,3366.0,3150.0,3600.0,3851.0,2832.0,3108.0,3276.0,1.04,9.93,1.5,-0.12,0.01,-0.03,1.0,a
3953.0,3377.0,3151.0,3606.0,3882.0,2827.0,3106.0,3263.0,1.07,9.95,1.56,-0.03,0.02,-0.05,1.0,a
3933.0,3382.0,3178.0,3616.0,3887.0,2833.0,3111.0,3264.0,0.81,9.95,1.42,-0.09,0.01,-0.03,1.0,a
3947.0,3389.0,3154.0,3612.0,3861.0,2842.0,3119.0,3277.0,1.13,9.95,1.58,-0.03,-0.01,-0.05,1.0,a
3931.0,3390.0,3152.0,3632.0,3861.0,2842.0,3101.0,3271.0,1.03,9.95,1.45,-0.07,0.02,-0.05,1.0,a
3946.0,3383.0,3153.0,3620.0,3866.0,2833.0,3106.0,3280.0,0.84,9.96,1.47,-0.03,-0.0,-0.06,1.0,a
3925.0,3378.0,3171.0,3632.0,3867.0,2831.0,3120.0,3265.0,0.94,9.96,1.45,-0.07,-0.02,-0.05,1.0,a
3911.0,3379.0,3160.0,3617.0,3883.0,2837.0,3101.0,3267.0,0.97,9.93,1.52,-0.04,-0.01,-0.04,1.0,a
3945.0,3382.0,3159.0,3601.0,3888.0,2844.0,3111.0,3274.0,1.11,9.98,1.35,-0.04,0.0,-0.04,1.0,a
3936.0,3361.0,3165.0,3610.0,3887.0,2838.0,3107.0,3281.0,1.04,9.99,1.3,-0.05,0.02,-0.04,1.0,a
3923.0,3390.0,3174.0,3618.0,3889.0,2842.0,3102.0,3280.0,0.9,9.99,1.33,-0.09,-0.0,-0.05,1.0,a
3910.0,3393.0,3179.0,3622.0,3887.0,2833.0,3104.0,3281.0,0.93,10.05,1.39,-0.11,-0.0,-0.03,1.0,a
3919.0,3386.0,3156.0,3618.0,3889.0,2833.0,3120.0,3282.0,0.95,9.93,1.57,-0.11,-0.01,-0.07,1.0,a
3899.0,3381.0,3181.0,3630.0,3902.0,2841.0,3119.0,3284.0,0.92,9.9,1.66,-0.06,-0.01,-0.04,1.0,a
3382.0,3152.0,3348.0,4095.0,3866.0,2896.0,3146.0,3287.0,1.07,9.98,1.59,-0.05,0.02,-0.03,1.0,a
3389.0,3176.0,3328.0,4095.0,3856.0,2889.0,3150.0,3310.0,0.99,9.99,1.48,-0.09,-0.01,-0.06,1.0,a
3397.0,3152.0,3341.0,4095.0,3867.0,2892.0,3149.0,3298.0,0.86,9.91,1.7,-0.08,-0.05,-0.05,1.0,a
3376.0,3184.0,3350.0,4095.0,3859.0,2896.0,3156.0,3298.0,0.94,9.85,1.83,-0.08,-0.02,-0.03,1.0,a
3376.0,3179.0,3325.0,4095.0,3874.0,2902.0,3159.0,3293.0,1.02,9.98,1.69,-0.04,-0.0,-0.03,1.0,a
3382.0,3165.0,3329.0,4095.0,3844.0,2907.0,3168.0,3299.0,0.99,9.96,1.58,-0.06,-0.0,-0.02,1.0,a
3403.0,3164.0,3339.0,4095.0,3861.0,2897.0,3152.0,3294.0,1.12,9.95,1.59,-0.04,-0.0,-0.03,1.0,a
3377.0,3167.0,3325.0,4095.0,3856.0,2896.0,3154.0,3283.0,1.06,9.91,1.55,-0.07,0.05,-0.04,1.0,a
3377.0,3162.0,3339.0,4095.0,3874.0,2906.0,3152.0,3293.0,1.03,9.99,1.56,-0.06,0.03,-0.05,1.0,a
3379.0,3161.0,3340.0,4095.0,3871.0,2903.0,3152.0,3303.0,0.95,9.93,1.62,-0.05,0.01,-0.05,1.0,a
3378.0,3167.0,3327.0,4095.0,3855.0,2894.0,3155.0,3305.0,0.93,9.96,1.63,-0.06,0.01,-0.05,1.0,a
3384.0,3166.0,3335.0,4095.0,3866.0,2915.0,3164.0,3295.0,0.93,9.91,1.68,-0.02,-0.01,-0.05,1.0,a
3389.0,3174.0,3319.0,4095.0,3888.0,2913.0,3158.0,3302.0,1.04,9.88,1.78,0.03,-0.04,-0.05,1.0,a
3390.0,3167.0,3326.0,4048.0,3855.0,2913.0,3166.0,3311.0,0.71,9.94,1.43,0.01,0.04,0.01,1.0,a
3380.0,3168.0,3322.0,4023.0,3888.0,2928.0,3174.0,3314.0,1.0,9.97,1.38,-0.04,0.02,-0.02,1.0,a
3376.0,3170.0,3326.0,4080.0,3915.0,2933.0,3163.0,3314.0,1.04,9.97,1.4,-0.07,-0.03,-0.04,1.0,a
3376.0,3165.0,3322.0,4081.0,3875.0,2935.0,3177.0,3318.0,1.08,10.01,1.33,-0.06,0.02,-0.04,1.0,a
3392.0,3162.0,3325.0,4080.0,3886.0,2928.0,3184.0,3303.0,0.99,9.9,1.43,-0.08,0.02,-0.04,1.0,a
3371.0,3162.0,3322.0,4075.0,3877.0,2925.0,3183.0,3323.0,1.02,10.04,1.36,-0.04,0.03,-0.04,1.0,a
3391.0,3149.0,3333.0,4055.0,3885.0,2932.0,3182.0,3312.0,0.97,9.93,1.5,-0.08,0.02,-0.05,1.0,a
3678.0,3471.0,3768.0,3959.0,3923.0,2893.0,3154.0,3305.0,0.71,9.84,1.88,-0.07,-0.0,-0.06,1.0,a
3679.0,3507.0,3761.0,3991.0,3912.0,2886.0,3149.0,3309.0,0.77,9.94,1.74,-0.04,0.03,-0.05,1.0,a
3665.0,3499.0,3763.0,3954.0,3920.0,2902.0,3142.0,3301.0,0.73,9.92,1.74,-0.11,-0.02,-0.07,1.0,a
3709.0,3495.0,3761.0,3967.0,3909.0,2895.0,3137.0,3312.0,0.75,9.98,1.91,-0.03,-0.04,-0.05,1.0,a
3696.0,3493.0,3770.0,3963.0,3927.0,2907.0,3139.0,3312.0,0.57,9.84,1.89,-0.07,0.01,-0.03,1.0,a
3670.0,3472.0,3765.0,3972.0,3925.0,2897.0,3151.0,3297.0,0.87,9.99,1.77,-0.05,-0.05,-0.04,1.0,a
3687.0,3481.0,3776.0,3967.0,3947.0,2900.0,3147.0,3312.0,0.98,9.8,1.97,-0.01,-0.04,-0.05,1.0,a
3702.0,3492.0,3760.0,3984.0,3938.0,2903.0,3149.0,3303.0,1.0,10.1,1.4,-0.03,0.15,-0.03,1.0,a
3696.0,3491.0,3771.0,3963.0,3922.0,2909.0,3154.0,3318.0,0.52,10.03,1.4,-0.07,0.07,-0.07,1.0,a
3659.0,3483.0,3751.0,3958.0,3919.0,2896.0,3140.0,3307.0,0.34,9.87,1.6,-0.12,-0.05,-0.07,1.0,a
3699.0,3483.0,3751.0,3978.0,3918.0,2902.0,3157.0,3296.0,0.68,9.95,1.77,-0.12,0.01,0.01,1.0,a
3695.0,3485.0,3791.0,3984.0,3937.0,2905.0,3140.0,3311.0,0.85,9.96,1.7,-0.12,0.03,-0.01,1.0,a
3685.0,3491.0,3750.0,3999.0,3911.0,2909.0,3153.0,3310.0,0.85,9.92,1.95,-0.12,-0.02,-0.02,1.0,a
3707.0,3473.0,3755.0,3969.0,3921.0,2905.0,3151.0,3310.0,0.81,9.89,2.07,-0.12,0.03,-0.04,1.0,a
3673.0,3486.0,3776.0,3986.0,3907.0,2904.0,3151.0,3311.0,0.65,9.88,1.97,-0.05,0.03,-0.03,1.0,a
3691.0,3502.0,3757.0,3979.0,3939.0,2903.0,3157.0,3311.0,0.78,9.81,1.94,-0.06,-0.02,0.01,1.0,a
3696.0,3498.0,3783.0,3985.0,3952.0,2911.0,3156.0,3316.0,1.05,10.0,1.81,-0.05,0.05,-0.02,1.0,a
3711.0,3509.0,3780.0,3997.0,3914.0,2907.0,3147.0,3311.0,0.78,9.79,2.22,-0.08,0.01,-0.02,1.0,a
3696.0,3479.0,3746.0,3971.0,3929.0,2914.0,3155.0,3306.0,1.09,9.87,2.33,0.02,0.04,-0.1,1.0,a
3707.0,3504.0,3764.0,3994.0,3938.0,2907.0,3153.0,3315.0,0.56,9.93,1.7,0.01,0.08,-0.1,1.0,a
3786.0,3293.0,3905.0,3642.0,3920.0,2881.0,3165.0,3300.0,0.14,10.22,0.86,-0.09,0.12,-0.05,1.0,a
3764.0,3299.0,3889.0,3648.0,3914.0,2884.0,3155.0,3314.0,0.07,10.0,1.07,-0.11,-0.03,-0.01,1.0,a
3783.0,3302.0,3887.0,3665.0,3909.0,2887.0,3165.0,3305.0,0.18,10.01,1.22,-0.14,0.0,0.0,1.0,a
3757.0,3307.0,3910.0,3650.0,3889.0,2893.0,3158.0,3312.0,0.4,10.0,1.31,-0.04,0.05,-0.0,1.0,a
3764.0,3283.0,3895.0,3663.0,3936.0,2900.0,3173.0,3312.0,0.29,10.02,1.26,-0.11,-0.03,-0.03,1.0,a
3751.0,3300.0,3948.0,3659.0,3913.0,2909.0,3165.0,3324.0,0.34,10.01,1.33,-0.09,-0.0,-0.04,1.0,a
3746.0,3308.0,3873.0,3675.0,3939.0,2896.0,3171.0,3323.0,0.29,10.0,1.35,-0.06,0.0,-0.05,1.0,a
3777.0,3299.0,3897.0,3677.0,3935.0,2894.0,3163.0,3327.0,0.11,9.98,1.25,-0.08,-0.01,-0.05,1.0,a
3760.0,3306.0,3875.0,3671.0,3922.0,2911.0,3170.0,3328.0,0.21,10.05,1.41,-0.07,-0.0,-0.03,1.0,a
3745.0,3293.0,3882.0,3665.0,3913.0,2906.0,3165.0,3325.0,0.22,9.94,1.39,-0.07,-0.0,-0.03,1.0,a
3765.0,3298.0,3887.0,3689.0,3936.0,2896.0,3182.0,3319.0,0.34,10.08,1.3,-0.04,-0.01,-0.03,1.0,a
3767.0,3280.0,3885.0,3696.0,3898.0,2903.0,3166.0,3322.0,0.45,9.95,1.36,-0.09,-0.0,-0.03,1.0,a
3760.0,3291.0,3887.0,3669.0,3925.0,2901.0,3175.0,3329.0,0.34,10.02,1.27,-0.07,0.01,-0.05,1.0,a
3743.0,3303.0,3905.0,3698.0,3936.0,2903.0,3161.0,3312.0,0.2,10.0,1.25,-0.08,0.01,-0.05,1.0,a
3754.0,3309.0,3897.0,3696.0,3931.0,2914.0,3162.0,3331.0,0.18,9.96,1.36,-0.07,-0.01,-0.04,1.0,a
3739.0,3289.0,3910.0,3685.0,3920.0,2928.0,3179.0,3327.0,0.18,9.96,1.42,-0.05,0.01,-0.03,1.0,a
3753.0,3280.0,3894.0,3698.0,3951.0,2908.0,3174.0,3327.0,0.35,10.07,1.38,-0.07,-0.0,-0.02,1.0,a
3740.0,3302.0,3886.0,3680.0,3929.0,2910.0,3166.0,3331.0,0.43,9.98,1.44,-0.05,-0.01,-0.03,1.0,a
3775.0,3292.0,3879.0,3696.0,3926.0,2921.0,3184.0,3341.0,0.33,9.96,1.33,-0.04,0.04,-0.05,1.0,a
3746.0,3293.0,3914.0,3706.0,3955.0,2922.0,3179.0,3322.0,0.22,10.04,1.23,-0.09,-0.02,-0.05,1.0,a
3705.0,3539.0,3865.0,3694.0,3989.0,2921.0,3185.0,3328.0,0.3,9.92,1.43,-0.07,0.01,-0.02,1.0,a
3711.0,3541.0,3856.0,3701.0,3968.0,2923.0,3184.0,3341.0,0.47,10.03,1.52,-0.09,0.01,-0.03,1.0,a
3690.0,3553.0,3879.0,3706.0,3981.0,2928.0,3190.0,3328.0,0.36,9.91,1.54,-0.09,0.01,-0.03,1.0,a
3700.0,3541.0,3856.0,3715.0,3991.0,2943.0,3188.0,3343.0,0.28,10.04,1.55,-0.09,0.04,-0.05,1.0,a
3693.0,3521.0,3855.0,3721.0,3959.0,2930.0,3193.0,3348.0,0.21,9.89,1.68,-0.1,0.01,-0.05,1.0,a
3711.0,3541.0,3865.0,3720.0,3993.0,2941.0,3210.0,3344.0,0.26,10.04,1.71,-0.05,-0.01,-0.05,1.0,a
3715.0,3557.0,3862.0,3754.0,4021.0,2946.0,3193.0,3353.0,0.17,9.84,1.71,-0.12,-0.03,-0.01,1.0,a
3696.0,3536.0,3884.0,3730.0,3986.0,2944.0,3202.0,3344.0,0.38,10.07,1.66,-0.02,0.0,-0.03,1.0,a
3696.0,3557.0,3849.0,3741.0,4015.0,2941.0,3187.0,3347.0,0.39,9.88,1.58,-0.04,-0.01,-0.02,1.0,a
3705.0,3558.0,3868.0,3723.0,4004.0,2928.0,3195.0,3344.0,0.32,10.2,1.3,-0.05,0.02,-0.04,1.0,a
3699.0,3527.0,3888.0,3709.0,3995.0,2927.0,3185.0,3345.0,0.3,10.04,1.49,-0.2,-0.01,0.01,1.0,a
3679.0,3561.0,3867.0,3712.0,4000.0,2930.0,3201.0,3345.0,0.49,9.86,1.74,-0.12,0.0,-0.06,1.0,a
3681.0,3553.0,3872.0,3699.0,3985.0,2938.0,3197.0,3349.0,0.23,9.93,1.76,-0.11,-0.01,-0.04,1.0,a
3719.0,3521.0,3861.0,3701.0,4009.0,2926.0,3188.0,3354.0,0.28,9.87,1.82,-0.06,-0.01,-0.03,1.0,a
3698.0,3538.0,3873.0,3705.0,3974.0,2935.0,3194.0,3355.0,0.36,9.96,1.76,-0.04,0.01,-0.02,1.0,a
3703.0,3547.0,3862.0,3695.0,3988.0,2928.0,3195.0,3354.0,0.42,9.98,1.68,-0.04,0.02,-0.0,1.0,a
3703.0,3538.0,3878.0,3698.0,3979.0,2928.0,3199.0,3359.0,0.41,9.99,1.69,-0.05,0.02,-0.03,1.0,a
3680.0,3549.0,3893.0,3698.0,4000.0,2932.0,3185.0,3347.0,0.41,9.94,1.74,-0.05,-0.01,-0.02,1.0,a
3715.0,3555.0,3854.0,3689.0,3991.0,2939.0,3194.0,3360.0,0.49,9.99,1.65,-0.05,0.02,-0.05,1.0,a
3683.0,3539.0,3879.0,3725.0,3999.0,2942.0,3204.0,3360.0,0.36,9.98,1.66,-0.07,0.03,-0.06,1.0,a
3522.0,3744.0,3874.0,3535.0,3982.0,2931.0,3181.0,3305.0,0.29,9.97,1.66,0.01,0.0,-0.05,1.0,a
3507.0,3757.0,3895.0,3559.0,3958.0,2934.0,3178.0,3317.0,0.39,10.13,1.43,-0.09,0.01,-0.07,1.0,a
3499.0,3751.0,3888.0,3569.0,4004.0,2928.0,3181.0,3313.0,0.04,9.9,1.6,-0.07,0.05,-0.06,1.0,a
3523.0,3734.0,3879.0,3559.0,3982.0,2934.0,3182.0,3313.0,0.15,9.99,1.61,-0.1,0.0,-0.02,1.0,a
3535.0,3730.0,3893.0,3577.0,3969.0,2928.0,3194.0,3321.0,0.27,9.93,1.65,-0.06,0.02,-0.03,1.0,a
3528.0,3729.0,3859.0,3582.0,3989.0,2938.0,3190.0,3317.0,0.17,9.93,1.65,-0.09,0.01,-0.01,1.0,a
3488.0,3737.0,3900.0,3573.0,4012.0,2937.0,3183.0,3318.0,0.29,10.07,1.5,-0.04,0.03,-0.05,1.0,a
3511.0,3731.0,3870.0,3563.0,4025.0,2944.0,3199.0,3319.0,0.12,9.89,1.68,-0.12,-0.02,-0.04,1.0,a
3520.0,3738.0,3889.0,3577.0,4001.0,2944.0,3184.0,3331.0,0.15,9.96,1.85,-0.07,-0.02,-0.04,1.0,a
3531.0,3728.0,3863.0,3568.0,4034.0,2933.0,3210.0,3326.0,0.14,9.86,1.85,-0.05,0.0,-0.03,1.0,a
3523.0,3732.0,3862.0,3571.0,4016.0,2951.0,3205.0,3342.0,0.28,9.97,1.75,-0.04,0.0,-0.04,1.0,a
3520.0,3735.0,3861.0,3583.0,4011.0,2943.0,3199.0,3344.0,0.16,9.89,1.75,-0.02,0.01,-0.05,1.0,a
3520.0,3759.0,3854.0,3555.0,4016.0,2961.0,3215.0,3347.0,0.2,9.96,1.75,-0.01,0.01,-0.02,1.0,a
3511.0,3760.0,3862.0,3565.0,4007.0,2954.0,3199.0,3338.0,0.33,10.04,1.49,-0.03,0.05,-0.03,1.0,a
3537.0,3773.0,3865.0,3562.0,4016.0,2962.0,3199.0,3328.0,0.28,9.9,1.53,-0.04,0.06,-0.03,1.0,a
3519.0,3735.0,3888.0,3583.0,4022.0,2962.0,3213.0,3344.0,0.09,10.06,1.35,-0.07,0.04,-0.06,1.0,a
3504.0,3761.0,3877.0,3549.0,4032.0,2958.0,3196.0,3344.0,0.03,9.88,1.68,-0.1,-0.03,-0.03,1.0,a
3524.0,3728.0,3867.0,3559.0,4046.0,2964.0,3207.0,3353.0,0.19,9.94,1.82,-0.1,-0.01,-0.02,1.0,a
3534.0,3734.0,3883.0,3563.0,4022.0,2966.0,3202.0,3349.0,0.28,9.83,1.9,-0.1,-0.03,-0.01,1.0,a
3535.0,3728.0,3876.0,3583.0,4016.0,2971.0,3205.0,3347.0,0.45,10.04,1.72,-0.04,0.02,-0.05,1.0,a
3504.0,3638.0,3852.0,4095.0,3970.0,2933.0,3152.0,3335.0,-0.15,9.97,1.87,-0.17,-0.04,0.06,1.0,a
3487.0,3616.0,3889.0,4095.0,3950.0,2928.0,3157.0,3333.0,0.22,9.87,1.93,-0.15,-0.03,0.01,1.0,a
3487.0,3601.0,3869.0,4095.0,3955.0,2945.0,3155.0,3322.0,0.11,9.92,1.92,-0.1,0.01,-0.02,1.0,a
3504.0,3632.0,3881.0,4095.0,3955.0,2939.0,3165.0,3343.0,0.15,9.89,2.03,-0.03,0.07,-0.01,1.0,a
3500.0,3641.0,3887.0,4095.0,3984.0,2946.0,3175.0,3341.0,0.06,9.98,1.94,-0.06,0.06,-0.04,1.0,a
3479.0,3599.0,3859.0,4095.0,3977.0,2941.0,3184.0,3328.0,-0.04,9.82,2.06,-0.06,-0.01,-0.04,1.0,a
3498.0,3616.0,3881.0,4095.0,3969.0,2951.0,3184.0,3344.0,0.11,9.89,1.97,-0.03,0.05,-0.03,1.0,a
3497.0,3632.0,3859.0,4095.0,3969.0,2948.0,3171.0,3343.0,0.02,9.92,1.87,-0.03,0.04,-0.05,1.0,a
3473.0,3650.0,3875.0,4030.0,3988.0,2957.0,3171.0,3340.0,0.04,9.98,1.75,-0.06,0.1,-0.05,1.0,a
3501.0,3628.0,3859.0,4002.0,3984.0,2958.0,3171.0,3344.0,-0.21,9.83,2.06,-0.08,0.05,-0.01,1.0,a
3499.0,3659.0,3869.0,4007.0,3993.0,2945.0,3175.0,3342.0,0.1,9.93,2.08,-0.05,0.02,0.03,1.0,a
3488.0,3630.0,3873.0,4014.0,3994.0,2949.0,3181.0,3347.0,0.23,9.96,1.83,-0.03,0.07,-0.0,1.0,a
3507.0,3630.0,3875.0,3984.0,3994.0,2939.0,3193.0,3353.0,0.18,9.95,1.88,-0.07,-0.0,-0.04,1.0,a
3503.0,3629.0,3881.0,3981.0,3987.0,2947.0,3185.0,3343.0,0.02,9.87,1.97,-0.05,0.03,-0.03,1.0,a
3504.0,3632.0,3897.0,3982.0,3991.0,2960.0,3182.0,3344.0,-0.03,9.84,1.91,-0.04,0.04,-0.04,1.0,a
3484.0,3617.0,3858.0,3943.0,3984.0,2956.0,3177.0,3357.0,0.1,10.0,1.66,-0.04,0.0,-0.03,1.0,a
3502.0,3631.0,3857.0,3954.0,4004.0,2946.0,3183.0,3351.0,0.2,9.91,1.77,-0.08,-0.01,-0.05,1.0,a
3527.0,3628.0,3871.0,3981.0,4016.0,2966.0,3187.0,3357.0,-0.11,9.93,1.95,-0.1,-0.05,-0.07,1.0,a
3519.0,3606.0,3886.0,4033.0,3985.0,2960.0,3185.0,3351.0,-0.06,9.79,2.15,-0.11,-0.07,-0.01,1.0,a
3502.0,3615.0,3893.0,4034.0,3994.0,2966.0,3175.0,3344.0,0.38,10.01,1.95,-0.04,0.04,-0.03,1.0,a
3302.0,3143.0,3197.0,4095.0,3949.0,2908.0,3179.0,3325.0,-0.18,9.96,1.65,0.0,0.07,-0.05,1.0,a
3314.0,3159.0,3210.0,4095.0,3956.0,2925.0,3184.0,3321.0,-0.33,9.95,1.4,-0.13,0.0,-0.06,1.0,a
3311.0,3132.0,3203.0,4095.0,3987.0,2915.0,3187.0,3323.0,-0.19,9.96,1.54,-0.04,0.01,-0.04,1.0,a
3314.0,3141.0,3198.0,4095.0,3966.0,2925.0,3179.0,3312.0,-0.35,9.9,1.54,-0.1,0.02,0.01,1.0,a
3316.0,3158.0,3222.0,4095.0,3994.0,2928.0,3187.0,3328.0,-0.22,10.01,1.51,-0.04,0.02,0.01,1.0,a
3319.0,3136.0,3198.0,4095.0,3977.0,2925.0,3184.0,3323.0,-0.12,9.94,1.61,-0.12,-0.0,0.02,1.0,a
3290.0,3143.0,3191.0,4095.0,3984.0,2937.0,3199.0,3317.0,-0.0,10.02,1.59,-0.02,0.04,0.03,1.0,a
3311.0,3134.0,3200.0,4095.0,3966.0,2929.0,3184.0,3325.0,0.0,9.87,1.63,-0.12,0.04,-0.01,1.0,a
3286.0,3129.0,3205.0,4095.0,3990.0,2938.0,3194.0,3339.0,0.04,10.04,1.6,-0.04,0.03,-0.03,1.0,a
3314.0,3148.0,3203.0,4095.0,3966.0,2928.0,3198.0,3339.0,-0.11,9.9,1.76,-0.07,0.03,-0.04,1.0,a
3312.0,3135.0,3199.0,4095.0,3984.0,2937.0,3193.0,3330.0,-0.12,10.0,1.63,-0.06,0.03,-0.04,1.0,a
3313.0,3131.0,3207.0,4095.0,3952.0,2937.0,3201.0,3337.0,-0.05,9.9,1.64,-0.04,0.03,-0.03,1.0,a
3315.0,3140.0,3203.0,4095.0,3999.0,2942.0,3191.0,3333.0,-0.05,10.01,1.45,-0.06,0.02,-0.04,1.0,a
3303.0,3140.0,3203.0,4095.0,3955.0,2945.0,3182.0,3337.0,-0.0,9.97,1.57,-0.05,-0.01,-0.03,1.0,a
3312.0,3135.0,3191.0,4095.0,4003.0,2941.0,3188.0,3336.0,-0.02,9.95,1.57,-0.1,0.03,-0.02,1.0,a
3309.0,3151.0,3199.0,4095.0,3985.0,2960.0,3184.0,3330.0,-0.07,9.93,1.61,-0.07,0.06,-0.04,1.0,a
3323.0,3137.0,3198.0,4095.0,3975.0,2945.0,3187.0,3344.0,-0.17,10.04,1.6,-0.15,0.03,-0.02,1.0,a
3315.0,3136.0,3203.0,4095.0,3965.0,2943.0,3184.0,3347.0,-0.05,9.83,1.78,-0.09,0.03,-0.0,1.0,a
3313.0,3150.0,3200.0,4095.0,3981.0,2944.0,3197.0,3339.0,-0.06,9.97,1.7,-0.01,0.04,-0.03,1.0,a
3312.0,3127.0,3187.0,4095.0,3985.0,2946.0,3207.0,3351.0,0.21,10.02,1.42,0.08,0.01,-0.09,1.0,a
3525.0,3437.0,3773.0,3455.0,3948.0,2925.0,3171.0,3270.0,-0.3,10.15,1.08,-0.08,-0.01,-0.02,1.0,a
3533.0,3440.0,3779.0,3441.0,3949.0,2927.0,3165.0,3291.0,-0.2,9.82,1.26,-0.1,0.04,-0.03,1.0,a
3525.0,3428.0,3763.0,3459.0,3955.0,2915.0,3152.0,3303.0,-0.14,10.07,1.05,-0.11,0.01,-0.05,1.0,a
3519.0,3431.0,3776.0,3465.0,3933.0,2919.0,3179.0,3309.0,-0.29,9.98,1.22,-0.1,0.05,-0.0,1.0,a
3543.0,3424.0,3778.0,3488.0,3938.0,2913.0,3174.0,3312.0,-0.34,9.96,1.36,-0.15,0.02,-0.02,1.0,a
3529.0,3423.0,3792.0,3485.0,3951.0,2917.0,3184.0,3302.0,-0.27,9.92,1.43,-0.05,0.02,0.0,1.0,a
3519.0,3450.0,3794.0,3467.0,3970.0,2928.0,3172.0,3303.0,-0.17,10.01,1.36,-0.12,0.0,0.01,1.0,a
3538.0,3430.0,3778.0,3488.0,3952.0,2926.0,3171.0,3307.0,-0.13,10.04,1.42,-0.01,0.0,-0.05,1.0,a
3535.0,3422.0,3764.0,3501.0,3965.0,2925.0,3175.0,3322.0,-0.13,9.94,1.31,-0.1,0.01,-0.03,1.0,a
3529.0,3420.0,3774.0,3487.0,3949.0,2930.0,3183.0,3327.0,-0.18,10.02,1.31,-0.02,-0.0,-0.07,1.0,a
3515.0,3429.0,3771.0,3483.0,3970.0,2938.0,3167.0,3315.0,-0.26,9.97,1.31,-0.07,0.01,-0.04,1.0,a
3523.0,3437.0,3786.0,3485.0,3957.0,2927.0,3174.0,3312.0,-0.2,9.97,1.34,-0.06,0.02,-0.03,1.0,a
3490.0,3418.0,3759.0,3495.0,3975.0,2944.0,3179.0,3328.0,-0.12,10.0,1.28,-0.04,0.02,-0.03,1.0,a
3536.0,3422.0,3792.0,3504.0,3979.0,2938.0,3189.0,3325.0,-0.13,10.04,1.27,-0.09,0.03,-0.04,1.0,a
3523.0,3440.0,3776.0,3502.0,3963.0,2939.0,3179.0,3334.0,-0.2,9.95,1.39,-0.06,0.01,-0.03,1.0,a
3526.0,3423.0,3782.0,3490.0,3964.0,2946.0,3180.0,3312.0,-0.22,9.99,1.32,-0.1,0.02,-0.04,1.0,a
3510.0,3404.0,3776.0,3490.0,3959.0,2935.0,3173.0,3326.0,-0.15,9.97,1.43,-0.04,0.0,-0.03,1.0,a
3536.0,3444.0,3788.0,3504.0,3957.0,2943.0,3181.0,3335.0,-0.04,10.0,1.36,-0.04,0.03,-0.04,1.0,a
3526.0,3434.0,3798.0,3525.0,3986.0,2945.0,3191.0,3330.0,-0.17,9.97,1.33,-0.04,0.06,-0.05,1.0,a
3535.0,3445.0,3791.0,3529.0,3985.0,2938.0,3184.0,3328.0,-0.28,9.92,1.31,-0.06,0.0,-0.06,1.0,a
3311.0,3371.0,3827.0,3602.0,4027.0,2960.0,3207.0,3328.0,0.0,9.97,1.29,-0.08,0.02,-0.03,1.0,a
3312.0,3366.0,3856.0,3601.0,4001.0,2946.0,3187.0,3315.0,-0.05,10.01,1.28,-0.12,0.02,-0.03,1.0,a
3303.0,3358.0,3855.0,3627.0,4000.0,2960.0,3194.0,3319.0,-0.05,10.0,1.26,-0.04,-0.01,-0.07,1.0,a
3317.0,3374.0,3869.0,3633.0,4001.0,2966.0,3206.0,3338.0,-0.11,10.04,1.23,-0.11,0.04,-0.03,1.0,a
3317.0,3353.0,3840.0,3632.0,4016.0,2950.0,3189.0,3335.0,-0.18,9.92,1.35,-0.05,0.01,-0.04,1.0,a
3312.0,3373.0,3847.0,3631.0,4011.0,2960.0,3196.0,3336.0,-0.16,10.0,1.3,-0.08,0.01,-0.03,1.0,a
3327.0,3358.0,3829.0,3617.0,4023.0,2955.0,3204.0,3340.0,0.02,10.03,1.27,-0.07,0.02,-0.01,1.0,a
3331.0,3367.0,3837.0,3612.0,4014.0,2965.0,3198.0,3327.0,-0.03,9.98,1.32,-0.08,0.01,-0.03,1.0,a
3318.0,3355.0,3851.0,3627.0,4012.0,2962.0,3186.0,3338.0,-0.0,9.95,1.32,-0.07,0.01,-0.04,1.0,a
3331.0,3347.0,3851.0,3648.0,4021.0,2960.0,3190.0,3330.0,-0.17,10.0,1.27,-0.06,0.0,-0.04,1.0,a
3317.0,3377.0,3847.0,3632.0,4029.0,2965.0,3197.0,3351.0,-0.15,9.97,1.34,-0.07,0.01,-0.03,1.0,a
3323.0,3369.0,3837.0,3648.0,3986.0,2970.0,3199.0,3333.0,-0.04,9.99,1.35,-0.05,0.01,-0.03,1.0,a
3318.0,3358.0,3841.0,3622.0,4019.0,2969.0,3196.0,3361.0,-0.02,9.94,1.29,-0.05,-0.0,-0.03,1.0,a
3312.0,3371.0,3842.0,3653.0,4010.0,2975.0,3202.0,3345.0,-0.08,10.06,1.25,-0.07,0.02,-0.04,1.0,a
3335.0,3361.0,3850.0,3653.0,4039.0,2975.0,3200.0,3359.0,-0.09,9.94,1.34,-0.07,0.01,-0.05,1.0,a
3319.0,3375.0,3847.0,3650.0,4048.0,2972.0,3197.0,3334.0,-0.12,9.98,1.34,-0.07,0.01,-0.04,1.0,a
3308.0,3347.0,3858.0,3617.0,4027.0,2972.0,3207.0,3349.0,-0.12,9.95,1.36,-0.08,0.01,-0.02,1.0,a
3329.0,3358.0,3850.0,3654.0,4000.0,2975.0,3213.0,3360.0,-0.05,10.03,1.34,-0.04,0.01,-0.03,1.0,a
3311.0,3376.0,3843.0,3637.0,4025.0,2971.0,3213.0,3349.0,0.06,10.07,1.19,-0.06,0.03,-0.04,1.0,a
3305.0,3354.0,3854.0,3668.0,4041.0,2962.0,3205.0,3347.0,-0.1,9.98,1.29,-0.04,0.02,-0.05,1.0,a
3312.0,3487.0,3827.0,3539.0,3921.0,2946.0,3159.0,3327.0,0.23,10.06,1.06,-0.13,0.0,-0.03,1.0,a
3303.0,3477.0,3840.0,3527.0,3966.0,2944.0,3151.0,3323.0,0.35,10.03,1.19,-0.08,-0.0,-0.04,1.0,a
3309.0,3478.0,3842.0,3531.0,3951.0,2942.0,3155.0,3325.0,0.33,9.92,1.25,-0.11,0.02,-0.05,1.0,a
3303.0,3493.0,3845.0,3536.0,3953.0,2946.0,3161.0,3329.0,0.15,10.09,1.14,-0.07,0.02,-0.05,1.0,a
3318.0,3489.0,3825.0,3547.0,3943.0,2943.0,3159.0,3324.0,0.2,9.99,1.27,-0.07,0.02,-0.03,1.0,a
3306.0,3485.0,3839.0,3531.0,3961.0,2959.0,3149.0,3338.0,0.24,9.98,1.36,-0.07,-0.02,-0.03,1.0,a
3290.0,3481.0,3839.0,3521.0,3941.0,2950.0,3169.0,3327.0,0.4,9.97,1.25,-0.03,-0.01,-0.04,1.0,a
3296.0,3477.0,3837.0,3540.0,3939.0,2959.0,3158.0,3327.0,0.26,10.08,1.19,-0.07,0.02,-0.05,1.0,a
3308.0,3495.0,3852.0,3538.0,3959.0,2960.0,3170.0,3328.0,0.29,9.99,1.22,-0.04,-0.01,-0.05,1.0,a
3307.0,3481.0,3826.0,3555.0,3958.0,2959.0,3163.0,3324.0,0.2,10.05,1.14,-0.06,0.01,-0.04,1.0,a
3301.0,3488.0,3828.0,3570.0,3953.0,2959.0,3164.0,3342.0,0.3,10.01,1.25,-0.04,-0.01,-0.03,1.0,a
3313.0,3472.0,3831.0,3540.0,3959.0,2945.0,3179.0,3335.0,0.29,10.05,1.18,-0.05,0.0,-0.04,1.0,a
3306.0,3493.0,3825.0,3566.0,3947.0,2959.0,3173.0,3334.0,0.3,9.96,1.24,-0.04,-0.01,-0.05,1.0,a
3299.0,3476.0,3843.0,3559.0,3982.0,2953.0,3166.0,3338.0,0.26,10.01,1.19,-0.07,0.01,-0.05,1.0,a
3291.0,3483.0,3833.0,3547.0,3954.0,2956.0,3175.0,3334.0,0.21,10.0,1.19,-0.05,0.0,-0.04,1.0,a
3315.0,3471.0,3851.0,3563.0,3966.0,2966.0,3166.0,3344.0,0.23,10.01,1.19,-0.03,0.01,-0.03,1.0,a
3300.0,3485.0,3839.0,3568.0,3949.0,2953.0,3182.0,3331.0,0.31,9.99,1.15,-0.04,0.01,-0.03,1.0,a
3298.0,3478.0,3828.0,3582.0,3958.0,2962.0,3179.0,3351.0,0.4,10.13,1.14,-0.01,0.02,-0.05,1.0,a
3299.0,3469.0,3850.0,3583.0,3965.0,2961.0,3175.0,3348.0,0.21,9.94,1.04,-0.07,-0.01,-0.05,1.0,a
3281.0,3478.0,3846.0,3601.0,3951.0,2964.0,3170.0,3344.0,0.23,10.07,1.1,-0.02,0.02,-0.05,1.0,a
3331.0,3376.0,3302.0,3600.0,3990.0,2975.0,3169.0,3326.0,0.42,9.88,1.58,-0.08,-0.06,-0.04,1.0,a
3316.0,3376.0,3307.0,3583.0,3989.0,2971.0,3165.0,3325.0,0.55,9.96,1.6,-0.11,0.01,-0.02,1.0,a
3312.0,3362.0,3310.0,3583.0,3999.0,2976.0,3159.0,3343.0,0.77,9.98,1.38,-0.03,-0.04,-0.05,1.0,a
3319.0,3346.0,3312.0,3583.0,3991.0,2981.0,3166.0,3344.0,0.64,10.0,1.26,-0.06,-0.05,-0.08,1.0,a
3335.0,3357.0,3307.0,3577.0,4007.0,2977.0,3165.0,3349.0,0.43,10.04,1.26,-0.05,-0.03,-0.09,1.0,a
3327.0,3376.0,3295.0,3570.0,4015.0,2982.0,3174.0,3335.0,0.35,9.95,1.27,-0.08,-0.03,-0.04,1.0,a
3325.0,3351.0,3312.0,3583.0,4004.0,2980.0,3152.0,3335.0,0.57,10.05,1.17,-0.04,-0.06,-0.04,1.0,a
3319.0,3363.0,3297.0,3583.0,4013.0,2982.0,3152.0,3343.0,0.49,9.96,1.31,-0.12,-0.03,-0.05,1.0,a
3323.0,3374.0,3295.0,3571.0,4007.0,2979.0,3170.0,3334.0,0.5,9.96,1.6,-0.08,-0.04,-0.05,1.0,a
3330.0,3372.0,3308.0,3599.0,3996.0,2987.0,3162.0,3334.0,0.55,9.95,1.63,-0.09,0.02,-0.05,1.0,a
3313.0,3366.0,3303.0,3600.0,4016.0,2992.0,3167.0,3338.0,0.48,10.03,1.54,-0.05,0.0,-0.04,1.0,a
3322.0,3355.0,3312.0,3583.0,4013.0,2987.0,3163.0,3334.0,0.47,9.93,1.39,-0.03,-0.01,-0.04,1.0,a
3323.0,3370.0,3311.0,3583.0,4014.0,2976.0,3170.0,3348.0,0.47,10.04,1.27,-0.07,0.0,-0.04,1.0,a
3329.0,3360.0,3298.0,3578.0,4028.0,2993.0,3171.0,3341.0,0.48,9.99,1.38,-0.08,0.0,-0.03,1.0,a
3312.0,3371.0,3319.0,3600.0,4030.0,2992.0,3169.0,3345.0,0.57,10.0,1.43,-0.04,0.01,-0.05,1.0,a
3335.0,3371.0,3309.0,3574.0,4016.0,2999.0,3170.0,3341.0,0.52,9.91,1.45,-0.05,0.01,-0.04,1.0,a
3327.0,3362.0,3312.0,3579.0,4013.0,2994.0,3181.0,3355.0,0.52,9.98,1.42,-0.02,0.02,-0.05,1.0,a
3333.0,3369.0,3299.0,3615.0,3984.0,2981.0,3169.0,3360.0,0.48,9.97,1.35,-0.06,0.06,-0.05,1.0,a
3312.0,3370.0,3293.0,3615.0,4027.0,2991.0,3173.0,3364.0,0.38,10.02,1.38,-0.04,0.02,-0.07,1.0,a
3331.0,3375.0,3300.0,3610.0,4006.0,2997.0,3175.0,3358.0,0.4,9.94,1.45,-0.08,0.03,-0.01,1.0,a
3298.0,3474.0,3856.0,3571.0,4047.0,3023.0,3189.0,3349.0,0.26,9.85,1.37,-0.06,-0.01,-0.04,1.0,a
3311.0,3477.0,3851.0,3562.0,4043.0,3024.0,3206.0,3335.0,0.31,10.0,1.36,-0.13,0.03,-0.02,1.0,a
3300.0,3452.0,3856.0,3581.0,4024.0,3027.0,3199.0,3355.0,0.52,10.03,1.4,-0.04,-0.0,-0.03,1.0,a
3312.0,3459.0,3859.0,3566.0,4050.0,3035.0,3213.0,3349.0,0.43,10.03,1.23,-0.1,0.04,-0.04,1.0,a
3305.0,3477.0,3856.0,3555.0,4025.0,3024.0,3202.0,3340.0,0.34,10.04,1.39,-0.05,0.02,-0.03,1.0,a
3319.0,3470.0,3859.0,3575.0,4050.0,3033.0,3210.0,3341.0,0.41,9.96,1.4,-0.05,0.01,-0.03,1.0,a
3305.0,3469.0,3841.0,3569.0,4047.0,3030.0,3216.0,3354.0,0.44,10.05,1.32,-0.05,0.03,-0.02,1.0,a
3299.0,3457.0,3858.0,3565.0,4034.0,3027.0,3215.0,3356.0,0.52,10.01,1.19,-0.09,0.05,-0.05,1.0,a
3303.0,3473.0,3849.0,3583.0,4035.0,3015.0,3206.0,3349.0,0.33,10.0,1.33,-0.05,0.05,-0.04,1.0,a
3311.0,3459.0,3870.0,3599.0,4030.0,3023.0,3206.0,3349.0,0.34,9.97,1.31,-0.09,0.01,-0.04,1.0,a
3315.0,3472.0,3838.0,3567.0,4048.0,3027.0,3201.0,3361.0,0.42,9.99,1.45,-0.04,0.01,-0.03,1.0,a
3307.0,3457.0,3841.0,3568.0,4055.0,3037.0,3197.0,3361.0,0.41,9.88,1.43,-0.08,-0.0,-0.02,1.0,a
3319.0,3468.0,3861.0,3583.0,4078.0,3042.0,3215.0,3362.0,0.52,10.01,1.37,-0.05,0.01,-0.04,1.0,a
3308.0,3472.0,3853.0,3566.0,4037.0,3036.0,3209.0,3361.0,0.46,9.97,1.29,-0.08,0.02,-0.04,1.0,a
3299.0,3466.0,3849.0,3567.0,4048.0,3034.0,3210.0,3371.0,0.44,10.05,1.34,-0.05,0.01,-0.06,1.0,a
3310.0,3459.0,3851.0,3573.0,4055.0,3039.0,3218.0,3363.0,0.31,9.92,1.36,-0.09,0.01,-0.03,1.0,a
3321.0,3473.0,3842.0,3583.0,4025.0,3037.0,3209.0,3358.0,0.41,10.0,1.41,-0.05,0.01,-0.04,1.0,a
3309.0,3478.0,3843.0,3571.0,4023.0,3042.0,3219.0,3363.0,0.5,10.06,1.31,-0.06,0.01,-0.03,1.0,a
3318.0,3455.0,3871.0,3571.0,4049.0,3035.0,3200.0,3366.0,0.5,10.06,1.33,-0.06,0.0,-0.04,1.0,a
3312.0,3449.0,3841.0,3598.0,4050.0,3038.0,3210.0,3345.0,0.44,9.98,1.4,-0.04,-0.0,-0.05,1.0,a
3311.0,4013.0,3812.0,3583.0,4059.0,3029.0,3205.0,3341.0,0.45,9.98,1.24,-0.07,0.01,-0.04,1.0,a
3312.0,4016.0,3848.0,3599.0,4074.0,3026.0,3209.0,3346.0,0.25,10.01,1.3,-0.12,0.04,-0.02,1.0,a
3310.0,4016.0,3825.0,3602.0,4078.0,3031.0,3210.0,3344.0,0.4,9.92,1.37,-0.04,-0.01,-0.03,1.0,a
3311.0,4030.0,3827.0,3580.0,4068.0,3024.0,3214.0,3346.0,0.69,9.98,1.22,-0.02,0.03,-0.03,1.0,a
3290.0,4005.0,3830.0,3578.0,4075.0,3033.0,3216.0,3354.0,0.57,10.09,1.13,-0.06,0.04,-0.07,1.0,a
3314.0,4034.0,3826.0,3605.0,4063.0,3039.0,3198.0,3347.0,0.43,9.9,1.3,-0.05,-0.0,-0.08,1.0,a
3302.0,4031.0,3834.0,3600.0,4081.0,3041.0,3207.0,3346.0,0.23,10.1,1.23,-0.07,0.08,-0.07,1.0,a
3303.0,4014.0,3825.0,3577.0,4083.0,3050.0,3206.0,3351.0,0.2,10.02,1.35,-0.06,0.01,-0.04,1.0,a
3298.0,4015.0,3811.0,3605.0,4087.0,3051.0,3217.0,3344.0,0.3,9.94,1.44,-0.07,-0.02,-0.03,1.0,a
3309.0,3999.0,3834.0,3606.0,4087.0,3053.0,3205.0,3358.0,0.36,9.95,1.37,-0.03,0.01,-0.01,1.0,a
3297.0,4032.0,3828.0,3613.0,4075.0,3045.0,3202.0,3354.0,0.51,9.97,1.26,-0.03,-0.03,-0.03,1.0,a
3318.0,4015.0,3844.0,3622.0,4067.0,3051.0,3205.0,3353.0,0.43,10.02,1.15,-0.04,0.03,-0.03,1.0,a
3319.0,4001.0,3834.0,3604.0,4095.0,3053.0,3211.0,3370.0,0.51,9.96,1.18,-0.07,0.01,-0.04,1.0,a
3305.0,4025.0,3824.0,3606.0,4087.0,3056.0,3216.0,3376.0,0.57,10.02,1.18,-0.04,-0.01,-0.06,1.0,a
3303.0,3999.0,3822.0,3630.0,4073.0,3041.0,3214.0,3371.0,0.41,10.09,1.14,-0.07,0.04,-0.04,1.0,a
3300.0,3989.0,3850.0,3620.0,4080.0,3056.0,3214.0,3374.0,0.47,10.01,1.3,-0.08,-0.01,-0.06,1.0,a
3307.0,3986.0,3820.0,3623.0,4072.0,3046.0,3202.0,3375.0,0.42,10.03,1.27,-0.08,0.03,-0.05,1.0,a
3313.0,4023.0,3820.0,3606.0,4091.0,3053.0,3210.0,3351.0,0.42,10.0,1.33,-0.05,0.03,-0.05,1.0,a
3308.0,3991.0,3825.0,3598.0,4093.0,3055.0,3214.0,3366.0,0.32,10.04,1.21,-0.05,0.01,-0.05,1.0,a
3322.0,4007.0,3834.0,3607.0,4078.0,3050.0,3216.0,3376.0,0.38,10.03,1.18,-0.02,0.04,-0.04,1.0,a
3459.0,3408.0,3156.0,3678.0,3885.0,2852.0,3151.0,3312.0,0.72,10.07,1.1,-0.11,0.01,-0.01,1.0,a
3457.0,3401.0,3150.0,3679.0,3887.0,2869.0,3154.0,3328.0,0.67,9.99,1.27,-0.08,-0.02,-0.04,1.0,a
3456.0,3393.0,3167.0,3668.0,3883.0,2861.0,3155.0,3333.0,0.69,9.97,1.32,-0.08,-0.01,-0.05,1.0,a
3449.0,3397.0,3171.0,3675.0,3888.0,2873.0,3151.0,3331.0,0.65,10.01,1.35,-0.03,0.01,-0.04,1.0,a
3471.0,3393.0,3167.0,3671.0,3909.0,2870.0,3163.0,3326.0,0.51,9.89,1.41,-0.05,-0.0,-0.05,1.0,a
3463.0,3386.0,3162.0,3655.0,3920.0,2877.0,3156.0,3332.0,0.67,10.0,1.34,-0.03,0.0,-0.04,1.0,a
3452.0,3389.0,3161.0,3662.0,3914.0,2880.0,3152.0,3339.0,0.68,9.95,1.28,-0.06,-0.01,-0.04,1.0,a
3452.0,3409.0,3161.0,3679.0,3905.0,2866.0,3155.0,3353.0,0.76,10.04,1.33,0.0,0.0,-0.05,1.0,a
3468.0,3395.0,3171.0,3667.0,3921.0,2870.0,3167.0,3344.0,0.65,10.01,1.19,-0.06,0.01,-0.06,1.0,a
3463.0,3398.0,3168.0,3678.0,3920.0,2881.0,3167.0,3347.0,0.66,10.03,1.21,-0.06,-0.02,-0.06,1.0,a
3450.0,3395.0,3152.0,3682.0,3917.0,2882.0,3167.0,3335.0,0.62,10.05,1.19,-0.06,0.03,-0.05,1.0,a
3464.0,3408.0,3153.0,3664.0,3920.0,2868.0,3157.0,3335.0,0.64,9.93,1.31,-0.06,-0.04,-0.05,1.0,a
3469.0,3382.0,3152.0,3663.0,3919.0,2891.0,3155.0,3344.0,0.66,10.09,1.14,-0.04,0.01,-0.06,1.0,a
3455.0,3389.0,3152.0,3682.0,3918.0,2884.0,3154.0,3356.0,0.59,10.01,1.15,-0.06,0.01,-0.04,1.0,a
3455.0,3402.0,3154.0,3661.0,3938.0,2880.0,3158.0,3350.0,0.59,10.08,1.15,-0.09,-0.01,-0.06,1.0,a
3467.0,3382.0,3143.0,3664.0,3920.0,2886.0,3175.0,3351.0,0.7,10.09,1.15,-0.04,0.0,-0.05,1.0,a
3445.0,3398.0,3159.0,3683.0,3952.0,2896.0,3157.0,3356.0,0.46,10.05,1.03,-0.08,-0.01,-0.03,1.0,a
3458.0,3378.0,3163.0,3674.0,3924.0,2890.0,3164.0,3346.0,0.53,9.87,1.43,-0.11,-0.01,0.0,1.0,a
3472.0,3383.0,3167.0,3669.0,3927.0,2883.0,3172.0,3358.0,0.55,10.01,1.4,-0.06,0.03,-0.03,1.0,a
3463.0,3399.0,3163.0,3685.0,3925.0,2887.0,3167.0,3351.0,0.62,9.97,1.34,-0.08,-0.01,0.01,1.0,a
3257.0,3187.0,3201.0,3815.0,3888.0,2927.0,3134.0,3296.0,0.65,10.13,0.91,-0.09,0.01,-0.01,1.0,a
3274.0,3163.0,3202.0,3854.0,3903.0,2935.0,3146.0,3310.0,0.5,9.99,0.86,-0.06,0.02,-0.04,1.0,a
3267.0,3174.0,3200.0,3824.0,3888.0,2944.0,3137.0,3301.0,0.51,10.09,0.75,-0.1,-0.0,-0.05,1.0,a
3269.0,3173.0,3192.0,3837.0,3879.0,2947.0,3139.0,3285.0,0.41,9.98,0.98,-0.07,-0.01,-0.05,1.0,a
3259.0,3181.0,3194.0,3812.0,3883.0,2941.0,3152.0,3310.0,0.34,10.07,1.01,-0.1,-0.02,-0.01,1.0,a
3274.0,3181.0,3184.0,3836.0,3927.0,2947.0,3137.0,3291.0,0.51,10.01,0.91,-0.04,0.0,-0.03,1.0,a
3260.0,3173.0,3198.0,3830.0,3884.0,2957.0,3155.0,3303.0,0.5,10.06,0.76,-0.07,-0.01,-0.02,1.0,a
3273.0,3182.0,3194.0,3840.0,3907.0,2939.0,3147.0,3297.0,0.6,10.1,0.88,-0.07,0.0,-0.02,1.0,a
3257.0,3183.0,3187.0,3849.0,3911.0,2957.0,3143.0,3287.0,0.66,10.06,0.96,-0.11,0.0,-0.05,1.0,a
3258.0,3179.0,3200.0,3824.0,3887.0,2959.0,3151.0,3307.0,0.57,10.03,0.97,-0.06,0.0,-0.06,1.0,a
3255.0,3185.0,3197.0,3841.0,3911.0,2950.0,3152.0,3312.0,0.44,10.01,0.99,-0.09,0.0,-0.03,1.0,a
3265.0,3184.0,3187.0,3836.0,3917.0,2962.0,3161.0,3310.0,0.58,9.98,0.99,-0.05,-0.01,-0.07,1.0,a
3264.0,3182.0,3179.0,3838.0,3887.0,2960.0,3153.0,3311.0,0.39,10.02,0.97,-0.08,0.0,-0.06,1.0,a
3263.0,3169.0,3189.0,3833.0,3908.0,2974.0,3159.0,3318.0,0.48,9.98,1.06,-0.03,-0.01,-0.04,1.0,a
3275.0,3183.0,3189.0,3839.0,3911.0,2971.0,3158.0,3310.0,0.51,10.12,0.71,-0.05,0.01,-0.05,1.0,a
3250.0,3179.0,3187.0,3838.0,3892.0,2956.0,3154.0,3312.0,0.41,9.99,0.79,-0.12,0.02,-0.01,1.0,a
3264.0,3172.0,3187.0,3846.0,3934.0,2960.0,3165.0,3309.0,0.62,10.04,0.96,-0.11,-0.0,-0.05,1.0,a
3264.0,3193.0,3191.0,3834.0,3922.0,2958.0,3165.0,3327.0,0.49,9.98,1.1,-0.08,0.05,-0.03,1.0,a
3266.0,3185.0,3181.0,3855.0,3915.0,2973.0,3153.0,3321.0,0.53,10.05,1.13,-0.1,-0.0,-0.04,1.0,a
3257.0,3179.0,3196.0,3837.0,3903.0,2960.0,3150.0,3306.0,0.5,9.96,1.19,-0.07,0.01,-0.03,1.0,a
3298.0,3392.0,3888.0,3527.0,4066.0,3053.0,3223.0,3378.0,0.23,9.99,1.02,-0.09,0.03,-0.03,1.0,a
3301.0,3369.0,3888.0,3536.0,4095.0,3071.0,3214.0,3376.0,0.16,10.01,1.07,-0.06,0.0,-0.04,1.0,a
3303.0,3392.0,3883.0,3514.0,4080.0,3071.0,3210.0,3382.0,0.05,10.0,1.12,-0.08,0.0,-0.04,1.0,a
3287.0,3376.0,3858.0,3533.0,4094.0,3071.0,3207.0,3383.0,0.12,10.01,1.13,-0.03,0.01,-0.02,1.0,a
3306.0,3368.0,3878.0,3520.0,4050.0,3085.0,3216.0,3389.0,0.17,10.03,1.11,-0.09,-0.01,-0.03,1.0,a
3291.0,3369.0,3886.0,3545.0,4064.0,3082.0,3232.0,3391.0,0.26,9.99,1.17,-0.05,-0.02,-0.04,1.0,a
3307.0,3366.0,3863.0,3542.0,4080.0,3071.0,3223.0,3391.0,0.28,10.02,1.18,-0.06,-0.01,-0.05,1.0,a
3301.0,3372.0,3882.0,3564.0,4095.0,3071.0,3210.0,3392.0,0.18,10.07,1.12,-0.03,-0.02,-0.06,1.0,a
3309.0,3370.0,3861.0,3536.0,4090.0,3088.0,3215.0,3393.0,0.11,10.07,1.06,-0.04,0.01,-0.05,1.0,a
3311.0,3375.0,3870.0,3549.0,4093.0,3090.0,3231.0,3391.0,0.14,10.07,1.03,-0.07,-0.02,-0.03,1.0,a
3311.0,3373.0,3863.0,3555.0,4089.0,3087.0,3235.0,3391.0,0.16,9.95,1.17,-0.09,-0.0,-0.03,1.0,a
3294.0,3378.0,3863.0,3539.0,4071.0,3095.0,3211.0,3398.0,0.18,10.07,1.12,-0.07,-0.01,-0.04,1.0,a
3295.0,3365.0,3866.0,3536.0,4087.0,3084.0,3219.0,3387.0,0.23,9.99,1.12,-0.09,0.02,-0.03,1.0,a
3301.0,3388.0,3879.0,3557.0,4095.0,3085.0,3221.0,3390.0,0.16,10.03,1.18,-0.09,-0.01,-0.05,1.0,a
3312.0,3392.0,3867.0,3573.0,4095.0,3071.0,3218.0,3400.0,0.19,10.01,1.2,-0.05,-0.0,-0.05,1.0,a
3282.0,3367.0,3856.0,3542.0,4095.0,3088.0,3219.0,3407.0,0.22,9.99,1.23,-0.02,0.01,-0.04,1.0,a
3295.0,3379.0,3881.0,3575.0,4095.0,3087.0,3226.0,3408.0,0.18,10.08,1.11,-0.03,0.01,-0.07,1.0,a
3295.0,3362.0,3875.0,3565.0,4080.0,3091.0,3229.0,3405.0,0.21,10.03,1.11,-0.07,0.0,-0.04,1.0,a
3289.0,3379.0,3857.0,3583.0,4081.0,3090.0,3227.0,3406.0,0.23,10.03,1.07,-0.06,-0.02,-0.05,1.0,a
3302.0,3381.0,3869.0,3577.0,4095.0,3093.0,3237.0,3403.0,0.1,10.03,1.02,-0.06,0.0,-0.05,1.0,a
3502.0,3328.0,3321.0,3423.0,3992.0,3016.0,3206.0,3329.0,0.15,9.95,0.9,-0.07,0.01,-0.03,1.0,a
3488.0,3313.0,3309.0,3426.0,4011.0,3015.0,3200.0,3346.0,0.22,10.1,0.82,-0.09,-0.0,-0.02,1.0,a
3491.0,3311.0,3314.0,3423.0,4039.0,3026.0,3191.0,3335.0,0.34,9.99,0.95,-0.07,0.0,-0.01,1.0,a
3488.0,3316.0,3305.0,3441.0,4016.0,3028.0,3196.0,3351.0,0.45,10.16,0.79,-0.03,0.0,-0.02,1.0,a
3504.0,3310.0,3308.0,3437.0,4031.0,3024.0,3197.0,3341.0,0.27,9.96,0.85,-0.06,0.0,-0.06,1.0,a
3505.0,3322.0,3298.0,3445.0,4033.0,3023.0,3216.0,3363.0,0.14,10.01,0.97,-0.08,0.01,-0.06,1.0,a
3498.0,3331.0,3318.0,3451.0,4021.0,3040.0,3209.0,3365.0,0.17,9.93,1.09,-0.09,0.03,0.0,1.0,a
3493.0,3321.0,3312.0,3438.0,4031.0,3041.0,3215.0,3373.0,0.29,9.94,1.04,-0.05,-0.01,-0.01,1.0,a
3489.0,3325.0,3306.0,3461.0,4043.0,3037.0,3204.0,3349.0,0.4,10.09,0.87,-0.09,-0.01,-0.04,1.0,a
3499.0,3325.0,3309.0,3437.0,4022.0,3034.0,3213.0,3375.0,0.34,9.98,1.04,-0.04,0.01,-0.05,1.0,a
3511.0,3318.0,3312.0,3456.0,4032.0,3050.0,3218.0,3363.0,0.23,10.03,1.05,-0.03,0.01,-0.03,1.0,a
3494.0,3323.0,3302.0,3445.0,4022.0,3043.0,3225.0,3376.0,0.19,9.93,1.01,-0.08,-0.0,-0.02,1.0,a
3490.0,3330.0,3307.0,3452.0,4034.0,3050.0,3221.0,3374.0,0.31,9.93,0.96,-0.1,0.02,-0.01,1.0,a
3504.0,3324.0,3312.0,3455.0,4048.0,3049.0,3215.0,3357.0,0.45,10.14,0.8,-0.08,0.03,-0.02,1.0,a
3490.0,3323.0,3297.0,3445.0,4035.0,3053.0,3211.0,3367.0,0.39,10.1,0.85,-0.07,0.0,-0.04,1.0,a
3488.0,3307.0,3323.0,3456.0,4031.0,3042.0,3219.0,3369.0,0.26,10.04,0.9,-0.08,-0.02,-0.04,1.0,a
3483.0,3312.0,3312.0,3452.0,4030.0,3045.0,3218.0,3371.0,0.29,10.02,1.02,-0.06,0.0,-0.03,1.0,a
3511.0,3315.0,3303.0,3472.0,4061.0,3055.0,3219.0,3369.0,0.4,10.03,1.06,-0.09,-0.02,-0.04,1.0,a
3480.0,3312.0,3312.0,3462.0,4021.0,3046.0,3222.0,3386.0,0.43,10.04,1.03,-0.05,-0.01,-0.04,1.0,a
3501.0,3322.0,3318.0,3471.0,4029.0,3059.0,3221.0,3375.0,0.42,10.09,0.95,-0.06,0.02,-0.04,1.0,a
3254.0,3642.0,3504.0,3503.0,4081.0,3118.0,3216.0,3375.0,0.51,10.08,0.81,-0.07,-0.0,-0.05,1.0,a
3274.0,3635.0,3534.0,3504.0,4095.0,3120.0,3216.0,3363.0,0.38,10.08,0.78,-0.09,0.02,-0.05,1.0,a
3253.0,3651.0,3536.0,3509.0,4080.0,3114.0,3219.0,3370.0,0.35,10.02,0.92,-0.06,0.01,-0.03,1.0,a
3264.0,3630.0,3536.0,3502.0,4095.0,3124.0,3239.0,3375.0,0.4,9.96,0.91,-0.07,-0.01,-0.04,1.0,a
3255.0,3644.0,3534.0,3499.0,4092.0,3129.0,3221.0,3378.0,0.36,9.96,0.97,-0.05,0.01,-0.04,1.0,a
3245.0,3660.0,3519.0,3491.0,4095.0,3114.0,3229.0,3361.0,0.45,9.91,1.1,-0.09,-0.01,-0.04,1.0,a
3248.0,3634.0,3557.0,3505.0,4095.0,3119.0,3227.0,3367.0,0.5,10.06,0.92,-0.04,0.03,-0.05,1.0,a
3261.0,3639.0,3541.0,3498.0,4095.0,3123.0,3232.0,3389.0,0.4,10.12,0.85,-0.09,0.03,-0.03,1.0,a
3261.0,3634.0,3546.0,3510.0,4095.0,3125.0,3232.0,3380.0,0.37,10.03,0.87,-0.04,-0.02,-0.05,1.0,a
3258.0,3635.0,3523.0,3503.0,4095.0,3133.0,3242.0,3394.0,0.45,10.14,0.85,-0.07,0.02,-0.02,1.0,a
3264.0,3631.0,3525.0,3514.0,4095.0,3142.0,3237.0,3383.0,0.4,10.01,0.88,-0.07,-0.02,-0.04,1.0,a
3255.0,3659.0,3561.0,3521.0,4095.0,3136.0,3253.0,3378.0,0.47,10.06,0.96,-0.09,-0.01,-0.04,1.0,a
3259.0,3641.0,3546.0,3514.0,4095.0,3130.0,3232.0,3376.0,0.45,10.07,0.91,-0.08,0.01,-0.05,1.0,a
3251.0,3648.0,3536.0,3495.0,4095.0,3141.0,3233.0,3376.0,0.42,10.06,0.94,-0.06,0.0,-0.04,1.0,a
3246.0,3637.0,3535.0,3518.0,4095.0,3135.0,3249.0,3405.0,0.44,10.02,0.98,-0.09,0.01,-0.04,1.0,a
3262.0,3647.0,3538.0,3529.0,4095.0,3136.0,3253.0,3405.0,0.47,10.07,1.04,-0.06,0.0,-0.04,1.0,a
3259.0,3631.0,3536.0,3518.0,4095.0,3136.0,3243.0,3393.0,0.35,10.01,0.95,-0.08,-0.0,-0.05,1.0,a
3260.0,3645.0,3554.0,3517.0,4095.0,3151.0,3245.0,3393.0,0.43,10.1,0.98,-0.06,-0.0,-0.04,1.0,a
3260.0,3631.0,3539.0,3532.0,4095.0,3136.0,3255.0,3394.0,0.43,9.98,0.98,-0.08,-0.01,-0.04,1.0,a
3250.0,3619.0,3540.0,3521.0,4095.0,3136.0,3238.0,3383.0,0.47,10.1,0.96,-0.08,0.01,-0.03,1.0,a
3291.0,3403.0,3857.0,3490.0,3993.0,3023.0,3207.0,3363.0,0.4,10.02,0.93,-0.04,0.0,-0.06,1.0,a
3277.0,3392.0,3903.0,3479.0,4003.0,3029.0,3198.0,3359.0,0.43,10.03,1.01,-0.09,0.01,-0.04,1.0,a
3274.0,3407.0,3898.0,3482.0,4029.0,3030.0,3207.0,3349.0,0.46,10.05,0.98,-0.03,0.01,-0.04,1.0,a
3286.0,3412.0,3888.0,3471.0,4023.0,3041.0,3213.0,3371.0,0.45,10.13,0.94,-0.09,-0.01,-0.06,1.0,a
3273.0,3413.0,3887.0,3489.0,4031.0,3037.0,3214.0,3362.0,0.35,9.99,1.16,-0.08,-0.02,-0.01,1.0,a
3287.0,3405.0,3888.0,3480.0,4016.0,3046.0,3203.0,3361.0,0.56,10.03,1.13,-0.04,0.01,-0.04,1.0,a
3290.0,3402.0,3888.0,3472.0,4023.0,3053.0,3204.0,3361.0,0.51,10.12,0.87,-0.08,0.02,-0.03,1.0,a
3280.0,3402.0,3893.0,3492.0,4016.0,3050.0,3217.0,3375.0,0.56,10.11,0.98,-0.05,0.03,-0.05,1.0,a
3276.0,3397.0,3897.0,3482.0,4038.0,3055.0,3210.0,3363.0,0.39,10.17,0.9,-0.1,0.02,-0.03,1.0,a
3282.0,3382.0,3893.0,3491.0,4016.0,3051.0,3228.0,3367.0,0.39,10.02,1.07,-0.06,-0.01,-0.01,1.0,a
3282.0,3396.0,3890.0,3469.0,4021.0,3059.0,3210.0,3362.0,0.52,10.07,1.11,-0.03,-0.03,-0.03,1.0,a
3271.0,3404.0,3893.0,3491.0,4032.0,3057.0,3218.0,3376.0,0.44,9.92,1.06,-0.08,0.0,-0.02,1.0,a
3271.0,3413.0,3906.0,3497.0,4031.0,3058.0,3214.0,3374.0,0.54,10.09,1.05,-0.06,0.01,-0.03,1.0,a
3289.0,3391.0,3888.0,3505.0,4048.0,3061.0,3216.0,3370.0,0.5,9.98,1.06,-0.1,-0.01,-0.02,1.0,a
3278.0,3403.0,3888.0,3501.0,4030.0,3065.0,3217.0,3370.0,0.51,10.09,1.08,-0.04,0.01,-0.04,1.0,a
3283.0,3394.0,3888.0,3494.0,4043.0,3052.0,3219.0,3382.0,0.47,9.93,1.1,-0.1,-0.0,-0.03,1.0,a
3267.0,3413.0,3885.0,3490.0,4061.0,3051.0,3216.0,3373.0,0.54,10.07,1.12,-0.08,0.0,-0.03,1.0,a
3280.0,3406.0,3905.0,3488.0,4042.0,3055.0,3211.0,3379.0,0.53,9.99,1.12,-0.06,-0.01,-0.03,1.0,a
3289.0,3408.0,3903.0,3498.0,4049.0,3040.0,3216.0,3383.0,0.53,10.02,1.07,-0.08,-0.01,-0.03,1.0,a
3275.0,3396.0,3895.0,3504.0,4063.0,3059.0,3219.0,3390.0,0.55,10.08,1.11,-0.07,0.01,-0.04,1.0,a
3279.0,3057.0,3671.0,3600.0,3963.0,3013.0,3202.0,3311.0,0.52,10.16,0.63,-0.05,-0.01,-0.05,1.0,a
3253.0,3066.0,3682.0,3583.0,3941.0,3008.0,3197.0,3307.0,0.52,10.0,0.63,-0.06,0.02,-0.01,1.0,a
3255.0,3055.0,3677.0,3583.0,3951.0,3010.0,3201.0,3317.0,0.55,10.13,0.51,-0.14,0.01,0.02,1.0,a
3259.0,3062.0,3685.0,3574.0,3973.0,3011.0,3201.0,3309.0,0.67,10.02,0.59,-0.07,-0.02,-0.02,1.0,a
3262.0,3065.0,3695.0,3600.0,3972.0,3023.0,3214.0,3317.0,0.52,9.99,0.69,-0.14,-0.0,-0.01,1.0,a
3258.0,3071.0,3666.0,3583.0,3969.0,3035.0,3197.0,3316.0,0.61,10.02,0.88,-0.09,-0.01,-0.04,1.0,a
3263.0,3059.0,3681.0,3583.0,3967.0,3023.0,3206.0,3312.0,0.65,10.07,0.84,-0.09,-0.0,-0.03,1.0,a
3248.0,3054.0,3674.0,3600.0,3999.0,3024.0,3207.0,3326.0,0.62,9.98,0.93,-0.07,-0.01,-0.05,1.0,a
3248.0,3069.0,3689.0,3583.0,3977.0,3038.0,3202.0,3312.0,0.6,10.08,0.87,-0.06,0.01,-0.05,1.0,a
3248.0,3070.0,3678.0,3583.0,3984.0,3025.0,3210.0,3330.0,0.52,10.0,0.84,-0.04,0.0,-0.04,1.0,a
3257.0,3056.0,3695.0,3583.0,3989.0,3025.0,3205.0,3329.0,0.62,10.05,0.75,-0.05,-0.02,-0.05,1.0,a
3259.0,3070.0,3682.0,3583.0,3959.0,3034.0,3207.0,3326.0,0.61,10.09,0.71,-0.06,0.03,-0.04,1.0,a
3261.0,3069.0,3669.0,3582.0,3984.0,3030.0,3210.0,3323.0,0.49,10.01,0.77,-0.08,-0.0,-0.03,1.0,a
3252.0,3058.0,3671.0,3579.0,3999.0,3029.0,3216.0,3338.0,0.55,10.06,0.89,-0.05,0.04,0.0,1.0,a
3241.0,3071.0,3677.0,3575.0,4001.0,3038.0,3216.0,3337.0,0.65,9.97,0.86,-0.06,-0.01,-0.02,1.0,a
3247.0,3056.0,3665.0,3577.0,3974.0,3047.0,3216.0,3326.0,0.67,10.08,0.79,-0.05,-0.02,-0.04,1.0,a
3264.0,3071.0,3687.0,3600.0,4010.0,3039.0,3223.0,3328.0,0.63,10.0,0.83,-0.08,0.01,-0.04,1.0,a
3251.0,3056.0,3696.0,3583.0,3964.0,3050.0,3216.0,3328.0,0.66,10.05,0.79,-0.03,-0.01,-0.05,1.0,a
3261.0,3063.0,3685.0,3579.0,4005.0,3039.0,3216.0,3333.0,0.56,9.95,0.8,-0.06,0.02,-0.03,1.0,a
3264.0,3071.0,3680.0,3568.0,4022.0,3057.0,3216.0,3327.0,0.6,10.0,0.88,-0.0,-0.0,-0.04,1.0,a
3472.0,3603.0,3879.0,3116.0,4032.0,3161.0,3238.0,3365.0,0.87,10.09,0.69,-0.04,0.0,-0.01,1.0,a
3478.0,3614.0,3899.0,3113.0,4019.0,3187.0,3248.0,3361.0,0.73,10.01,0.66,-0.08,-0.01,-0.03,1.0,a
3472.0,3632.0,3908.0,3123.0,4011.0,3173.0,3235.0,3363.0,0.84,10.03,0.71,-0.05,-0.0,-0.02,1.0,a
3468.0,3623.0,3906.0,3111.0,4022.0,3168.0,3239.0,3367.0,0.89,10.06,0.71,-0.09,0.03,-0.03,1.0,a
3468.0,3611.0,3881.0,3125.0,4023.0,3179.0,3249.0,3349.0,0.94,10.03,0.91,-0.09,-0.03,-0.07,1.0,a
3472.0,3622.0,3905.0,3134.0,4029.0,3175.0,3249.0,3358.0,0.87,10.06,0.92,-0.13,-0.02,-0.08,1.0,a
3471.0,3626.0,3904.0,3120.0,4028.0,3184.0,3247.0,3377.0,0.64,9.96,1.08,-0.06,-0.02,-0.08,1.0,a
3459.0,3622.0,3889.0,3139.0,4032.0,3180.0,3251.0,3371.0,0.45,9.96,1.01,-0.05,-0.07,-0.09,1.0,a
3462.0,3606.0,3895.0,3130.0,4043.0,3184.0,3251.0,3366.0,0.65,10.04,0.73,-0.01,0.01,-0.02,1.0,a
3477.0,3613.0,3904.0,3131.0,4050.0,3173.0,3249.0,3354.0,0.74,10.06,0.53,-0.05,0.01,-0.01,1.0,a
3470.0,3613.0,3895.0,3136.0,4051.0,3180.0,3248.0,3367.0,0.91,10.14,0.54,-0.08,0.01,-0.01,1.0,a
3481.0,3607.0,3894.0,3131.0,4039.0,3184.0,3245.0,3377.0,0.92,10.0,0.91,-0.12,0.01,-0.03,1.0,a
3467.0,3628.0,3888.0,3133.0,4030.0,3179.0,3266.0,3376.0,0.83,10.04,1.06,-0.08,0.02,-0.05,1.0,a
3472.0,3641.0,3873.0,3142.0,4065.0,3181.0,3257.0,3389.0,0.76,9.94,1.03,-0.07,0.02,-0.05,1.0,a
3467.0,3628.0,3904.0,3131.0,4067.0,3181.0,3264.0,3373.0,0.73,10.04,0.97,-0.03,-0.03,-0.07,1.0,a
3472.0,3606.0,3895.0,3149.0,4031.0,3172.0,3255.0,3367.0,0.69,9.99,0.85,-0.05,-0.02,-0.06,1.0,a
3483.0,3635.0,3914.0,3136.0,4054.0,3181.0,3248.0,3363.0,0.76,10.06,0.71,-0.02,-0.0,-0.05,1.0,a
3454.0,3627.0,3903.0,3134.0,4056.0,3183.0,3248.0,3375.0,0.68,10.02,0.64,-0.07,0.01,-0.04,1.0,a
3458.0,3632.0,3893.0,3149.0,4045.0,3175.0,3248.0,3376.0,0.74,10.04,0.83,-0.06,-0.03,-0.05,1.0,a
3456.0,3615.0,3869.0,3151.0,4039.0,3183.0,3264.0,3383.0,0.82,10.01,0.96,-0.07,0.03,-0.03,1.0,a
3152.0,3146.0,3897.0,3882.0,4095.0,3179.0,3265.0,3383.0,0.28,10.06,0.81,-0.05,-0.0,-0.05,1.0,a
3153.0,3129.0,3901.0,3899.0,4095.0,3185.0,3267.0,3375.0,0.25,9.9,0.82,-0.04,0.01,-0.03,1.0,a
3152.0,3137.0,3905.0,3902.0,4095.0,3189.0,3266.0,3388.0,0.44,10.19,0.79,-0.06,-0.01,-0.03,1.0,a
3157.0,3129.0,3891.0,3886.0,4095.0,3184.0,3260.0,3373.0,0.42,9.98,0.67,-0.0,0.0,-0.05,1.0,a
3163.0,3145.0,3889.0,3857.0,4095.0,3182.0,3255.0,3376.0,0.3,10.18,0.64,-0.03,0.01,-0.06,1.0,a
3164.0,3130.0,3903.0,3873.0,4095.0,3191.0,3278.0,3386.0,0.19,10.01,0.71,-0.12,-0.02,-0.04,1.0,a
3156.0,3143.0,3908.0,3888.0,4095.0,3187.0,3267.0,3379.0,0.45,10.07,0.74,-0.01,-0.01,-0.06,1.0,a
3169.0,3135.0,3913.0,3897.0,4095.0,3197.0,3258.0,3401.0,0.18,10.0,0.66,-0.06,0.02,-0.05,1.0,a
3168.0,3143.0,3911.0,3892.0,4095.0,3193.0,3259.0,3382.0,0.23,10.08,0.75,-0.05,-0.02,-0.05,1.0,a
3150.0,3141.0,3920.0,3888.0,4095.0,3198.0,3277.0,3389.0,0.27,10.08,0.74,-0.07,0.02,-0.03,1.0,a
3165.0,3152.0,3927.0,3879.0,4095.0,3193.0,3266.0,3393.0,0.33,10.09,0.7,-0.07,-0.0,-0.02,1.0,a
3162.0,3141.0,3930.0,3857.0,4095.0,3197.0,3268.0,3401.0,0.38,10.08,0.73,-0.05,-0.01,-0.05,1.0,a
3164.0,3135.0,3934.0,3893.0,4095.0,3206.0,3265.0,3382.0,0.34,10.18,0.63,-0.05,0.0,-0.04,1.0,a
3169.0,3136.0,3899.0,3875.0,4095.0,3193.0,3275.0,3391.0,0.3,10.01,0.74,-0.03,-0.0,-0.04,1.0,a
3158.0,3143.0,3909.0,3883.0,4095.0,3201.0,3264.0,3381.0,0.23,10.08,0.7,-0.08,0.01,-0.04,1.0,a
3153.0,3152.0,3903.0,3888.0,4095.0,3201.0,3263.0,3392.0,0.28,10.01,0.76,-0.06,-0.03,-0.02,1.0,a
3155.0,3127.0,3926.0,3861.0,4095.0,3191.0,3274.0,3396.0,0.3,10.06,0.72,-0.1,0.02,-0.02,1.0,a
3155.0,3152.0,3905.0,3867.0,4095.0,3191.0,3264.0,3407.0,0.37,10.04,0.71,-0.09,-0.01,-0.03,1.0,a
3152.0,3137.0,3936.0,3895.0,4095.0,3187.0,3265.0,3396.0,0.35,10.09,0.78,-0.07,0.02,-0.04,1.0,a
3162.0,3138.0,3920.0,3871.0,4095.0,3201.0,3266.0,3392.0,0.26,9.97,0.83,-0.07,0.0,-0.04,1.0,a
3335.0,3216.0,4033.0,3710.0,4095.0,3194.0,3258.0,3400.0,0.26,9.89,1.05,-0.1,-0.02,-0.01,1.0,a
3337.0,3210.0,4017.0,3714.0,4095.0,3189.0,3250.0,3387.0,0.29,10.07,1.0,-0.06,0.0,-0.04,1.0,a
3341.0,3218.0,4018.0,3717.0,4095.0,3168.0,3258.0,3415.0,0.25,9.94,0.99,-0.07,-0.0,-0.03,1.0,a
3363.0,3221.0,4013.0,3717.0,4095.0,3185.0,3264.0,3399.0,0.32,10.19,0.87,-0.08,0.01,-0.02,1.0,a
3341.0,3205.0,4047.0,3722.0,4095.0,3179.0,3261.0,3409.0,0.25,9.9,1.12,-0.08,-0.04,-0.03,1.0,a
3331.0,3216.0,4016.0,3713.0,4095.0,3185.0,3253.0,3414.0,0.51,10.23,0.92,-0.04,0.02,-0.03,1.0,a
3344.0,3217.0,4032.0,3734.0,4095.0,3186.0,3262.0,3395.0,0.34,9.96,0.88,-0.05,-0.0,-0.05,1.0,a
3351.0,3221.0,4033.0,3719.0,4095.0,3190.0,3262.0,3396.0,0.32,10.19,0.89,-0.06,-0.0,-0.06,1.0,a
3335.0,3199.0,4030.0,3745.0,4095.0,3185.0,3263.0,3415.0,0.16,9.98,1.0,-0.08,0.01,-0.03,1.0,a
3328.0,3216.0,4029.0,3719.0,4095.0,3187.0,3259.0,3417.0,0.32,10.11,1.04,-0.08,-0.01,-0.03,1.0,a
3349.0,3216.0,4035.0,3734.0,4095.0,3197.0,3253.0,3408.0,0.4,9.97,1.16,-0.06,0.02,-0.03,1.0,a
3354.0,3216.0,4044.0,3740.0,4095.0,3201.0,3257.0,3421.0,0.46,10.09,1.09,-0.04,0.01,-0.05,1.0,a
3348.0,3214.0,4013.0,3737.0,4095.0,3184.0,3260.0,3401.0,0.35,10.01,0.93,-0.02,0.03,-0.06,1.0,a
3338.0,3216.0,3999.0,3729.0,4095.0,3193.0,3267.0,3410.0,0.21,10.07,0.85,-0.04,-0.01,-0.07,1.0,a
3344.0,3219.0,4016.0,3715.0,4095.0,3180.0,3263.0,3409.0,0.16,9.96,0.96,-0.05,-0.01,-0.06,1.0,a
3344.0,3227.0,4043.0,3728.0,4095.0,3201.0,3270.0,3415.0,0.15,10.07,0.96,-0.03,0.01,-0.04,1.0,a
3341.0,3217.0,4022.0,3748.0,4095.0,3205.0,3271.0,3411.0,0.24,9.97,0.88,-0.07,-0.02,-0.04,1.0,a
3347.0,3218.0,4023.0,3724.0,4095.0,3198.0,3258.0,3413.0,0.37,10.04,0.94,-0.04,-0.01,-0.03,1.0,a
3339.0,3218.0,4016.0,3729.0,4095.0,3188.0,3264.0,3413.0,0.39,10.04,0.91,-0.09,-0.03,-0.06,1.0,a
3348.0,3201.0,4015.0,3777.0,4095.0,3191.0,3271.0,3408.0,0.31,10.09,0.93,-0.06,0.01,-0.06,1.0,a
3299.0,3387.0,3842.0,3783.0,4095.0,3151.0,3239.0,3391.0,-0.14,10.19,0.42,-0.1,0.02,-0.03,1.0,a
3301.0,3378.0,3834.0,3770.0,4095.0,3141.0,3247.0,3380.0,-0.08,9.94,0.59,-0.1,-0.02,-0.02,1.0,a
3309.0,3378.0,3845.0,3779.0,4095.0,3159.0,3264.0,3378.0,0.03,10.09,0.51,-0.06,0.05,-0.04,1.0,a
3310.0,3383.0,3821.0,3803.0,4095.0,3139.0,3259.0,3383.0,-0.09,9.94,0.57,-0.1,-0.03,-0.05,1.0,a
3305.0,3380.0,3815.0,3779.0,4095.0,3162.0,3257.0,3387.0,-0.06,10.03,0.76,-0.08,-0.01,-0.03,1.0,a
3301.0,3385.0,3843.0,3769.0,4095.0,3153.0,3263.0,3407.0,-0.08,9.96,0.66,-0.06,0.03,0.01,1.0,a
3310.0,3387.0,3839.0,3793.0,4095.0,3169.0,3259.0,3393.0,0.14,10.16,0.3,-0.01,0.05,-0.02,1.0,a
3291.0,3376.0,3823.0,3763.0,4095.0,3155.0,3262.0,3398.0,-0.15,10.03,0.31,-0.09,0.0,-0.07,1.0,a
3312.0,3392.0,3839.0,3778.0,4095.0,3166.0,3251.0,3385.0,-0.05,10.13,0.54,-0.06,-0.04,-0.05,1.0,a
3299.0,3379.0,3833.0,3801.0,4095.0,3167.0,3271.0,3388.0,0.19,10.15,0.54,-0.1,-0.1,-0.08,1.0,a
3305.0,3381.0,3845.0,3774.0,4095.0,3149.0,3269.0,3377.0,-0.03,10.07,0.63,-0.13,-0.07,-0.05,1.0,a
3304.0,3375.0,3844.0,3781.0,4095.0,3163.0,3269.0,3398.0,-0.11,10.02,0.81,-0.03,-0.12,-0.07,1.0,a
3308.0,3372.0,3825.0,3806.0,4095.0,3152.0,3255.0,3394.0,-0.25,10.1,0.49,-0.04,-0.05,-0.06,1.0,a
3305.0,3376.0,3815.0,3785.0,4095.0,3159.0,3257.0,3383.0,-0.49,10.02,0.52,-0.08,-0.07,0.02,1.0,a
3318.0,3389.0,3823.0,3775.0,4095.0,3157.0,3254.0,3407.0,-0.01,9.98,0.73,-0.05,-0.09,0.03,1.0,a
3307.0,3381.0,3856.0,3779.0,4095.0,3159.0,3267.0,3409.0,0.35,10.09,0.75,-0.03,0.0,0.04,1.0,a
3299.0,3387.0,3838.0,3792.0,4095.0,3175.0,3267.0,3406.0,-0.01,10.05,0.63,-0.06,0.01,-0.01,1.0,a
3296.0,3396.0,3829.0,3792.0,4095.0,3174.0,3278.0,3404.0,0.21,10.01,0.65,0.0,0.01,0.01,1.0,a
3300.0,3393.0,3830.0,3804.0,4095.0,3173.0,3267.0,3408.0,0.28,10.09,0.28,0.0,0.1,-0.01,1.0,a
3287.0,3389.0,3847.0,3775.0,4095.0,3182.0,3270.0,3418.0,0.3,10.1,0.41,-0.03,0.04,-0.06,1.0,a
3150.0,3443.0,3856.0,3870.0,4095.0,3229.0,3294.0,3459.0,0.0,10.04,0.7,-0.09,0.0,-0.04,1.0,a
3145.0,3447.0,3878.0,3851.0,4095.0,3223.0,3310.0,3441.0,0.11,10.06,0.76,-0.08,-0.03,-0.03,1.0,a
3143.0,3447.0,3865.0,3888.0,4095.0,3238.0,3285.0,3447.0,0.13,10.04,0.75,-0.08,0.0,-0.03,1.0,a
3145.0,3441.0,3843.0,3874.0,4095.0,3223.0,3298.0,3445.0,0.17,10.04,0.79,-0.08,-0.01,-0.04,1.0,a
3152.0,3451.0,3861.0,3863.0,4095.0,3221.0,3294.0,3457.0,0.17,10.08,0.76,-0.07,0.0,-0.05,1.0,a
3134.0,3463.0,3885.0,3882.0,4095.0,3223.0,3299.0,3466.0,0.05,10.01,0.82,-0.07,0.01,-0.05,1.0,a
3143.0,3443.0,3873.0,3868.0,4095.0,3234.0,3291.0,3455.0,0.06,10.07,0.82,-0.08,0.01,-0.04,1.0,a
3135.0,3445.0,3867.0,3862.0,4095.0,3222.0,3309.0,3456.0,0.09,10.01,0.8,-0.06,0.04,-0.05,1.0,a
3143.0,3457.0,3867.0,3886.0,4095.0,3243.0,3295.0,3463.0,-0.04,10.05,0.76,-0.06,-0.01,-0.05,1.0,a
3155.0,3455.0,3868.0,3872.0,4095.0,3225.0,3313.0,3459.0,0.04,10.02,0.83,-0.04,-0.0,-0.04,1.0,a
3156.0,3453.0,3875.0,3865.0,4095.0,3231.0,3297.0,3461.0,0.08,10.09,0.68,-0.06,-0.0,-0.04,1.0,a
3157.0,3441.0,3865.0,3860.0,4095.0,3233.0,3299.0,3472.0,0.2,10.01,0.78,-0.04,-0.02,-0.04,1.0,a
3137.0,3456.0,3904.0,3862.0,4095.0,3223.0,3317.0,3454.0,0.21,10.09,0.73,-0.03,0.02,-0.05,1.0,a
3134.0,3440.0,3888.0,3885.0,4095.0,3237.0,3312.0,3460.0,0.08,10.05,0.63,-0.03,-0.0,-0.06,1.0,a
3152.0,3447.0,3873.0,3856.0,4095.0,3233.0,3319.0,3458.0,0.03,10.1,0.6,-0.06,-0.0,-0.05,1.0,a
3155.0,3433.0,3873.0,3888.0,4095.0,3239.0,3307.0,3469.0,-0.03,10.07,0.65,-0.07,-0.0,-0.05,1.0,a
3143.0,3447.0,3840.0,3882.0,4095.0,3247.0,3303.0,3461.0,-0.06,10.05,0.69,-0.06,0.01,-0.04,1.0,a
3146.0,3487.0,3876.0,3871.0,4095.0,3239.0,3309.0,3461.0,-0.03,10.0,0.78,-0.07,-0.01,-0.03,1.0,a
3151.0,3452.0,3882.0,3859.0,4095.0,3232.0,3302.0,3459.0,0.07,10.05,0.78,-0.06,-0.01,-0.03,1.0,a
3149.0,3457.0,3863.0,3881.0,4095.0,3231.0,3321.0,3467.0,0.13,10.05,0.78,-0.04,0.02,-0.04,1.0,a
3218.0,3425.0,3904.0,3601.0,4095.0,3118.0,3277.0,3444.0,-0.17,10.01,1.07,-0.07,-0.02,-0.04,1.0,a
3234.0,3422.0,3907.0,3631.0,4095.0,3125.0,3281.0,3437.0,-0.14,9.97,0.97,-0.03,-0.0,-0.03,1.0,a
3231.0,3429.0,3920.0,3642.0,4095.0,3120.0,3277.0,3440.0,-0.1,10.05,0.66,0.01,0.01,-0.04,1.0,a
3235.0,3433.0,3918.0,3629.0,4095.0,3120.0,3278.0,3454.0,-0.06,10.12,0.44,-0.06,0.01,-0.05,1.0,a
3239.0,3421.0,3899.0,3636.0,4095.0,3133.0,3279.0,3445.0,-0.16,10.07,0.65,-0.08,-0.01,-0.07,1.0,a
3231.0,3407.0,3942.0,3619.0,4095.0,3127.0,3286.0,3457.0,-0.3,9.99,0.91,-0.09,0.0,-0.05,1.0,a
3231.0,3421.0,3899.0,3629.0,4095.0,3123.0,3280.0,3459.0,-0.28,10.02,0.92,-0.06,0.01,-0.03,1.0,a
3231.0,3426.0,3888.0,3631.0,4095.0,3125.0,3287.0,3449.0,-0.22,10.03,0.92,-0.06,-0.0,-0.02,1.0,a
3237.0,3430.0,3888.0,3616.0,4095.0,3120.0,3280.0,3463.0,-0.17,10.04,0.84,-0.05,-0.02,-0.02,1.0,a
3231.0,3421.0,3902.0,3635.0,4095.0,3133.0,3266.0,3445.0,-0.02,10.03,0.84,-0.05,0.01,-0.03,1.0,a
3238.0,3435.0,3905.0,3629.0,4095.0,3115.0,3273.0,3447.0,-0.1,10.06,0.75,-0.06,0.02,-0.03,1.0,a
3215.0,3415.0,3919.0,3642.0,4095.0,3130.0,3277.0,3472.0,-0.17,10.02,0.78,-0.07,0.01,-0.03,1.0,a
3229.0,3421.0,3891.0,3618.0,4095.0,3132.0,3271.0,3453.0,-0.24,9.98,0.85,-0.06,0.01,0.02,1.0,a
3221.0,3423.0,3914.0,3610.0,4095.0,3126.0,3275.0,3446.0,-0.14,9.99,0.83,-0.06,0.01,-0.01,1.0,a
3216.0,3409.0,3909.0,3612.0,4095.0,3125.0,3285.0,3440.0,-0.15,9.99,0.82,-0.0,0.02,-0.04,1.0,a
3225.0,3430.0,3922.0,3637.0,4095.0,3135.0,3271.0,3456.0,-0.07,9.96,0.86,0.06,0.01,-0.04,1.0,a
3237.0,3424.0,3893.0,3634.0,4095.0,3149.0,3293.0,3472.0,0.15,10.25,0.61,-0.01,-0.02,-0.05,1.0,a
3234.0,3415.0,3905.0,3634.0,4095.0,3152.0,3287.0,3467.0,-0.17,10.07,0.6,-0.1,-0.02,-0.07,1.0,a
3221.0,3427.0,3882.0,3638.0,4095.0,3147.0,3306.0,3472.0,-0.22,9.97,0.7,-0.09,-0.01,-0.07,1.0,a
3226.0,3415.0,3902.0,3632.0,4095.0,3147.0,3298.0,3474.0,-0.33,10.05,0.72,-0.08,-0.01,-0.05,1.0,a
3044.0,3170.0,3198.0,3987.0,3965.0,3097.0,3258.0,3387.0,-0.25,10.0,0.43,-0.06,0.04,-0.05,1.0,a
3046.0,3184.0,3186.0,3957.0,3981.0,3110.0,3261.0,3394.0,-0.32,10.07,0.41,-0.07,0.01,-0.04,1.0,a
3053.0,3191.0,3184.0,3965.0,4005.0,3097.0,3276.0,3421.0,-0.38,10.08,0.51,-0.07,0.02,-0.04,1.0,a
3061.0,3173.0,3185.0,3963.0,4002.0,3099.0,3271.0,3396.0,-0.29,10.03,0.53,-0.08,0.02,-0.01,1.0,a
3055.0,3171.0,3188.0,3952.0,4001.0,3103.0,3275.0,3393.0,-0.34,10.03,0.53,-0.07,0.0,-0.04,1.0,a
3043.0,3172.0,3200.0,3973.0,4019.0,3119.0,3278.0,3408.0,-0.36,10.04,0.63,-0.09,0.0,-0.02,1.0,a
3043.0,3171.0,3185.0,3952.0,4001.0,3123.0,3279.0,3425.0,-0.15,9.96,0.68,-0.05,-0.03,-0.03,1.0,a
3045.0,3184.0,3194.0,3971.0,4005.0,3113.0,3280.0,3423.0,-0.12,10.13,0.48,-0.06,0.02,-0.04,1.0,a
3054.0,3183.0,3184.0,3971.0,4026.0,3119.0,3265.0,3430.0,-0.24,10.03,0.47,-0.06,-0.01,-0.05,1.0,a
3052.0,3170.0,3184.0,3958.0,3999.0,3123.0,3281.0,3431.0,-0.31,10.02,0.56,-0.07,0.0,-0.05,1.0,a
3047.0,3184.0,3191.0,3975.0,4046.0,3115.0,3280.0,3424.0,-0.33,10.02,0.49,-0.08,0.01,-0.04,1.0,a
3046.0,3167.0,3169.0,3975.0,4029.0,3118.0,3278.0,3410.0,-0.27,10.05,0.52,-0.09,-0.01,-0.03,1.0,a
3042.0,3189.0,3206.0,3986.0,4016.0,3123.0,3281.0,3418.0,-0.22,10.07,0.55,-0.11,0.0,-0.02,1.0,a
3039.0,3185.0,3185.0,3973.0,4030.0,3109.0,3276.0,3413.0,-0.18,10.02,0.67,-0.06,-0.01,-0.03,1.0,a
3043.0,3178.0,3190.0,3970.0,4033.0,3134.0,3275.0,3419.0,-0.25,10.01,0.68,-0.08,0.01,-0.03,1.0,a
3050.0,3169.0,3194.0,3965.0,4010.0,3118.0,3279.0,3428.0,-0.22,10.0,0.62,-0.03,-0.01,-0.04,1.0,a
3046.0,3166.0,3185.0,3991.0,4050.0,3117.0,3280.0,3434.0,-0.2,10.1,0.53,-0.06,0.01,-0.05,1.0,a
3051.0,3182.0,3185.0,3974.0,4039.0,3136.0,3280.0,3423.0,-0.21,10.02,0.57,-0.07,0.01,-0.04,1.0,a
3038.0,3166.0,3185.0,3967.0,4034.0,3134.0,3294.0,3426.0,-0.32,10.02,0.64,-0.05,0.02,-0.04,1.0,a
3044.0,3159.0,3199.0,3978.0,4043.0,3119.0,3279.0,3413.0,-0.23,10.01,0.62,-0.05,0.0,-0.04,1.0,a
3255.0,3379.0,4021.0,3525.0,4003.0,3053.0,3245.0,3445.0,0.21,10.02,1.22,-0.08,-0.02,-0.03,1.0,a
3263.0,3382.0,4016.0,3525.0,4025.0,3057.0,3244.0,3428.0,0.27,10.01,1.33,-0.05,-0.01,-0.04,1.0,a
3269.0,3392.0,4043.0,3520.0,4015.0,3056.0,3234.0,3440.0,0.27,10.05,1.24,-0.03,0.03,-0.04,1.0,a
3269.0,3390.0,4023.0,3515.0,4031.0,3082.0,3246.0,3431.0,0.07,10.03,1.14,-0.06,0.01,-0.04,1.0,a
3263.0,3373.0,4007.0,3521.0,4039.0,3056.0,3248.0,3450.0,0.11,10.03,1.28,-0.07,-0.01,-0.03,1.0,a
3280.0,3383.0,4029.0,3547.0,4017.0,3056.0,3248.0,3438.0,0.21,10.03,1.21,-0.04,0.01,-0.04,1.0,a
3277.0,3376.0,4019.0,3537.0,4035.0,3063.0,3248.0,3458.0,0.17,10.02,1.14,-0.05,0.0,-0.03,1.0,a
3267.0,3381.0,4048.0,3555.0,4021.0,3069.0,3245.0,3453.0,0.2,10.0,1.19,-0.05,-0.01,-0.05,1.0,a
3275.0,3367.0,4032.0,3536.0,4048.0,3069.0,3258.0,3438.0,0.13,10.03,1.22,-0.04,-0.0,-0.06,1.0,a
3259.0,3394.0,4025.0,3548.0,4046.0,3085.0,3258.0,3447.0,0.1,10.01,1.27,-0.06,-0.0,-0.04,1.0,a
3284.0,3382.0,4010.0,3536.0,4039.0,3087.0,3264.0,3446.0,0.22,10.03,1.27,-0.05,-0.0,-0.03,1.0,a
3267.0,3387.0,4016.0,3538.0,4043.0,3071.0,3250.0,3463.0,0.19,10.03,1.18,-0.06,0.0,-0.04,1.0,a
3273.0,3386.0,4033.0,3547.0,4046.0,3088.0,3256.0,3455.0,0.15,10.02,1.17,-0.08,-0.01,-0.04,1.0,a
3265.0,3378.0,4019.0,3543.0,4035.0,3084.0,3263.0,3446.0,0.19,9.97,1.26,-0.07,0.0,-0.04,1.0,a
3264.0,3385.0,4027.0,3559.0,4038.0,3087.0,3263.0,3454.0,0.07,9.96,1.26,-0.03,0.01,-0.05,1.0,a
3279.0,3397.0,4032.0,3541.0,4042.0,3088.0,3279.0,3455.0,0.13,10.01,1.16,-0.02,-0.0,-0.05,1.0,a
3257.0,3378.0,4025.0,3555.0,4020.0,3091.0,3254.0,3456.0,0.24,10.03,1.2,-0.03,-0.0,-0.05,1.0,a
3267.0,3372.0,4016.0,3533.0,4048.0,3088.0,3249.0,3440.0,0.09,10.0,1.15,-0.08,0.01,-0.05,1.0,a
3263.0,3386.0,3998.0,3520.0,4023.0,3095.0,3258.0,3446.0,0.13,10.02,1.24,-0.06,-0.01,-0.04,1.0,a
3270.0,3379.0,4016.0,3547.0,4032.0,3085.0,3269.0,3465.0,0.11,10.01,1.19,-0.05,0.02,-0.04,1.0,a
3274.0,3328.0,3893.0,3582.0,4095.0,3120.0,3271.0,3435.0,-0.18,9.99,0.93,-0.06,-0.02,-0.04,1.0,a
3264.0,3334.0,3902.0,3597.0,4095.0,3123.0,3274.0,3444.0,-0.25,9.95,0.92,-0.1,0.01,-0.03,1.0,a
3283.0,3321.0,3915.0,3606.0,4095.0,3120.0,3281.0,3433.0,-0.13,10.04,0.97,-0.09,-0.01,-0.02,1.0,a
3268.0,3325.0,3888.0,3583.0,4095.0,3133.0,3268.0,3437.0,-0.09,10.01,0.97,-0.06,0.01,-0.02,1.0,a
3267.0,3341.0,3926.0,3583.0,4095.0,3126.0,3275.0,3422.0,-0.06,10.02,0.94,-0.04,-0.01,-0.04,1.0,a
3277.0,3307.0,3911.0,3602.0,4095.0,3138.0,3275.0,3435.0,-0.02,10.05,0.89,-0.06,-0.01,-0.04,1.0,a
3258.0,3337.0,3909.0,3600.0,4095.0,3138.0,3275.0,3440.0,-0.08,10.03,0.88,-0.07,0.01,-0.04,1.0,a
3280.0,3332.0,3904.0,3600.0,4095.0,3122.0,3280.0,3424.0,-0.1,10.01,0.92,-0.06,0.0,-0.05,1.0,a
3265.0,3330.0,3898.0,3603.0,4095.0,3132.0,3281.0,3440.0,-0.23,10.03,0.91,-0.1,0.01,-0.02,1.0,a
3280.0,3344.0,3918.0,3577.0,4095.0,3133.0,3284.0,3444.0,-0.1,9.94,0.98,-0.08,-0.01,-0.03,1.0,a
3254.0,3331.0,3904.0,3601.0,4095.0,3124.0,3281.0,3438.0,-0.06,10.05,0.92,-0.08,0.0,-0.04,1.0,a
3264.0,3312.0,3906.0,3599.0,4095.0,3134.0,3295.0,3451.0,-0.02,9.99,1.05,-0.08,-0.01,-0.04,1.0,a
3266.0,3319.0,3888.0,3598.0,4095.0,3143.0,3277.0,3456.0,-0.03,9.98,1.04,-0.07,0.01,-0.04,1.0,a
3290.0,3327.0,3893.0,3598.0,4095.0,3141.0,3280.0,3446.0,-0.14,10.07,0.94,-0.06,0.01,-0.04,1.0,a
3278.0,3339.0,3925.0,3606.0,4095.0,3151.0,3278.0,3446.0,-0.02,9.99,1.03,-0.05,-0.02,-0.03,1.0,a
3267.0,3326.0,3915.0,3581.0,4095.0,3139.0,3279.0,3451.0,-0.04,10.03,0.97,-0.05,0.02,-0.05,1.0,a
3271.0,3323.0,3922.0,3600.0,4095.0,3152.0,3290.0,3451.0,-0.13,9.98,0.98,-0.07,0.0,-0.05,1.0,a
3264.0,3338.0,3894.0,3602.0,4095.0,3143.0,3282.0,3437.0,-0.12,10.07,1.01,-0.07,-0.0,-0.04,1.0,a
3257.0,3319.0,3909.0,3600.0,4095.0,3136.0,3281.0,3443.0,-0.09,10.01,1.01,-0.04,-0.01,-0.04,1.0,a
3271.0,3334.0,3902.0,3607.0,4095.0,3136.0,3279.0,3458.0,0.0,10.09,0.93,-0.04,-0.01,-0.04,1.0,a
3294.0,3039.0,3071.0,3551.0,4095.0,3088.0,3299.0,3406.0,0.11,9.98,1.04,-0.07,-0.0,-0.04,1.0,a
3302.0,3024.0,3063.0,3541.0,4095.0,3090.0,3295.0,3393.0,-0.09,9.98,1.01,-0.09,0.01,-0.04,1.0,a
3294.0,3034.0,3099.0,3547.0,4095.0,3095.0,3312.0,3401.0,0.0,10.0,0.99,-0.02,0.02,-0.01,1.0,a
3312.0,3047.0,3071.0,3546.0,4095.0,3099.0,3301.0,3403.0,-0.0,10.02,0.79,-0.05,-0.0,-0.05,1.0,a
3305.0,3035.0,3070.0,3542.0,4095.0,3088.0,3317.0,3398.0,-0.16,9.95,0.99,-0.09,-0.01,-0.05,1.0,a
3303.0,3034.0,3071.0,3542.0,4095.0,3089.0,3298.0,3387.0,-0.11,9.95,1.2,-0.06,-0.04,-0.05,1.0,a
3309.0,3056.0,3071.0,3549.0,4095.0,3088.0,3299.0,3405.0,-0.05,10.12,0.93,-0.03,-0.02,-0.01,1.0,a
3313.0,3041.0,3084.0,3559.0,4095.0,3091.0,3310.0,3397.0,0.08,10.07,0.9,-0.02,-0.02,-0.01,1.0,a
3310.0,3027.0,3071.0,3559.0,4095.0,3091.0,3316.0,3409.0,0.1,10.0,0.84,-0.02,-0.02,-0.01,1.0,a
3315.0,3035.0,3058.0,3547.0,4095.0,3093.0,3309.0,3407.0,0.1,10.07,0.81,-0.08,0.03,-0.02,1.0,a
3301.0,3035.0,3083.0,3553.0,4095.0,3098.0,3322.0,3414.0,0.21,10.06,0.96,-0.09,-0.03,-0.03,1.0,a
3315.0,3024.0,3071.0,3571.0,4095.0,3109.0,3305.0,3397.0,0.12,10.04,0.96,-0.07,0.01,-0.04,1.0,a
3301.0,3027.0,3071.0,3565.0,4095.0,3101.0,3323.0,3413.0,0.07,10.06,0.9,-0.09,0.0,-0.02,1.0,a
3306.0,3024.0,3059.0,3549.0,4095.0,3098.0,3319.0,3415.0,0.05,10.11,0.89,-0.1,0.01,-0.02,1.0,a
3297.0,3024.0,3065.0,3563.0,4095.0,3094.0,3312.0,3412.0,0.99,10.37,0.96,-0.14,0.32,-0.05,1.0,a
3307.0,3029.0,3081.0,3579.0,4095.0,3120.0,3317.0,3406.0,-0.25,9.94,1.47,-0.23,1.02,0.06,1.0,a
3299.0,3030.0,3070.0,3568.0,4095.0,3097.0,3317.0,3422.0,-0.4,9.81,1.13,-0.0,0.39,0.02,1.0,a
3310.0,3031.0,3059.0,3573.0,4095.0,3091.0,3311.0,3415.0,0.13,10.12,0.75,0.01,-0.13,-0.0,1.0,a
3302.0,3026.0,3082.0,3559.0,4095.0,3103.0,3314.0,3399.0,0.24,10.07,0.97,-0.04,0.09,0.01,1.0,a
3312.0,3030.0,3061.0,3578.0,4095.0,3113.0,3312.0,3408.0,-0.04,10.02,0.99,-0.04,0.18,0.01,1.0,a
3184.0,3422.0,3956.0,3793.0,4095.0,3180.0,3239.0,3411.0,0.36,10.04,0.9,-0.1,0.0,-0.06,1.0,a
3189.0,3423.0,3914.0,3792.0,4095.0,3183.0,3234.0,3402.0,0.31,10.0,0.94,-0.05,-0.02,-0.05,1.0,a
3186.0,3393.0,3945.0,3790.0,4095.0,3179.0,3251.0,3413.0,0.36,9.97,0.91,-0.12,-0.03,-0.0,1.0,a
3194.0,3422.0,3931.0,3789.0,4095.0,3189.0,3240.0,3394.0,0.45,10.02,0.92,-0.04,0.0,-0.03,1.0,a
3186.0,3417.0,3914.0,3794.0,4095.0,3191.0,3248.0,3425.0,0.29,9.97,0.95,-0.1,-0.09,-0.04,1.0,a
3200.0,3411.0,3949.0,3793.0,4095.0,3185.0,3264.0,3415.0,0.51,10.01,1.12,-0.08,-0.23,-0.04,1.0,a
3195.0,3418.0,3938.0,3799.0,4095.0,3184.0,3245.0,3423.0,0.64,10.07,1.17,-0.1,-0.19,-0.04,1.0,a
3191.0,3428.0,3946.0,3806.0,4095.0,3184.0,3251.0,3422.0,0.55,9.98,1.24,-0.08,0.0,-0.04,1.0,a
3200.0,3413.0,3952.0,3813.0,4095.0,3199.0,3253.0,3426.0,0.51,10.01,1.17,-0.08,-0.01,-0.04,1.0,a
3190.0,3439.0,3932.0,3827.0,4095.0,3193.0,3259.0,3410.0,0.46,9.98,1.09,-0.06,-0.03,-0.06,1.0,a
3186.0,3415.0,3935.0,3811.0,4095.0,3197.0,3248.0,3418.0,0.45,10.07,0.98,-0.08,0.0,-0.05,1.0,a
3182.0,3415.0,3925.0,3817.0,4095.0,3184.0,3268.0,3425.0,0.39,9.96,1.12,-0.06,-0.01,-0.04,1.0,a
3189.0,3419.0,3938.0,3799.0,4095.0,3183.0,3248.0,3416.0,0.42,9.97,1.1,-0.09,-0.02,-0.03,1.0,a
3178.0,3419.0,3921.0,3810.0,4095.0,3187.0,3255.0,3418.0,0.48,10.03,1.18,-0.07,-0.01,-0.04,1.0,a
3194.0,3424.0,3936.0,3819.0,4095.0,3190.0,3267.0,3429.0,0.5,10.04,1.16,-0.06,-0.04,-0.05,1.0,a
3205.0,3426.0,3923.0,3821.0,4095.0,3202.0,3262.0,3424.0,0.52,10.01,1.14,-0.05,-0.02,-0.04,1.0,a
3196.0,3415.0,3922.0,3825.0,4095.0,3190.0,3261.0,3430.0,0.51,9.99,1.12,-0.04,0.0,-0.06,1.0,a
3188.0,3426.0,3948.0,3793.0,4095.0,3189.0,3259.0,3440.0,0.38,10.03,1.09,-0.07,0.0,-0.05,1.0,a
3184.0,3413.0,3939.0,3793.0,4095.0,3200.0,3275.0,3439.0,0.44,10.02,1.14,-0.06,-0.0,-0.05,1.0,a
3189.0,3439.0,3925.0,3810.0,4095.0,3209.0,3245.0,3435.0,0.4,9.99,1.1,-0.05,-0.01,-0.04,1.0,a
3249.0,3439.0,3871.0,3794.0,4095.0,3121.0,3280.0,3411.0,0.0,10.11,0.34,-0.06,-0.01,-0.07,1.0,a
3241.0,3435.0,3890.0,3810.0,4095.0,3131.0,3279.0,3397.0,-0.01,10.04,0.41,-0.07,-0.0,-0.05,1.0,a
3231.0,3467.0,3913.0,3774.0,4095.0,3131.0,3282.0,3422.0,0.01,10.06,0.54,-0.06,0.0,-0.05,1.0,a
3232.0,3437.0,3894.0,3789.0,4095.0,3131.0,3285.0,3421.0,0.02,10.04,0.47,-0.04,0.01,-0.05,1.0,a
3245.0,3445.0,3904.0,3819.0,4095.0,3130.0,3285.0,3424.0,0.01,10.07,0.51,-0.06,-0.0,-0.04,1.0,a
3225.0,3440.0,3889.0,3809.0,4095.0,3156.0,3281.0,3411.0,0.11,10.07,0.52,-0.01,0.01,-0.05,1.0,a
3231.0,3438.0,3899.0,3797.0,4095.0,3152.0,3291.0,3423.0,0.01,10.05,0.41,-0.1,0.01,-0.05,1.0,a
3238.0,3430.0,3906.0,3819.0,4095.0,3159.0,3286.0,3436.0,0.01,10.07,0.43,-0.05,-0.01,-0.05,1.0,a
3251.0,3442.0,3899.0,3799.0,4095.0,3155.0,3290.0,3435.0,-0.02,10.04,0.43,-0.1,-0.01,-0.04,1.0,a
3239.0,3459.0,3877.0,3818.0,4095.0,3152.0,3294.0,3425.0,0.08,10.09,0.5,-0.05,-0.03,-0.04,1.0,a
3235.0,3456.0,3910.0,3829.0,4095.0,3159.0,3298.0,3429.0,0.04,10.04,0.5,-0.07,0.0,-0.04,1.0,a
3242.0,3445.0,3891.0,3821.0,4095.0,3151.0,3291.0,3430.0,0.1,10.07,0.49,-0.04,0.0,-0.04,1.0,a
3243.0,3437.0,3920.0,3840.0,4095.0,3162.0,3295.0,3442.0,0.05,10.03,0.52,-0.09,0.01,-0.04,1.0,a
3232.0,3448.0,3919.0,3819.0,4095.0,3150.0,3286.0,3427.0,0.07,10.08,0.51,-0.08,-0.01,-0.05,1.0,a
3245.0,3454.0,3915.0,3842.0,4095.0,3163.0,3291.0,3410.0,-0.01,10.04,0.53,-0.1,0.02,-0.04,1.0,a
3241.0,3431.0,3890.0,3803.0,4095.0,3156.0,3294.0,3423.0,0.05,10.08,0.62,-0.06,-0.01,-0.03,1.0,a
3253.0,3438.0,3909.0,3819.0,4095.0,3155.0,3313.0,3440.0,0.03,10.1,0.54,-0.07,0.01,-0.02,1.0,a
3238.0,3443.0,3899.0,3793.0,4095.0,3171.0,3307.0,3433.0,0.13,10.07,0.52,-0.07,-0.02,-0.03,1.0,a
3250.0,3436.0,3903.0,3824.0,4095.0,3169.0,3303.0,3432.0,0.14,10.1,0.5,-0.1,-0.0,-0.03,1.0,a
3226.0,3451.0,3907.0,3824.0,4095.0,3157.0,3296.0,3437.0,0.09,10.03,0.61,-0.12,-0.0,-0.01,1.0,a
3181.0,3437.0,2429.0,3651.0,4095.0,3195.0,3297.0,3440.0,-0.37,10.08,0.5,-0.01,0.02,-0.02,1.0,a
3190.0,3443.0,2418.0,3632.0,4091.0,3199.0,3302.0,3434.0,-0.47,10.1,0.38,-0.15,0.02,-0.0,1.0,a
3183.0,3440.0,2425.0,3632.0,4095.0,3199.0,3299.0,3455.0,-0.18,9.94,0.62,-0.03,-0.02,-0.01,1.0,a
3177.0,3433.0,2417.0,3617.0,4095.0,3207.0,3312.0,3451.0,-0.35,10.14,0.33,-0.12,0.04,-0.02,1.0,a
3186.0,3429.0,2427.0,3637.0,4095.0,3188.0,3302.0,3439.0,-0.35,9.95,0.65,-0.06,-0.02,-0.03,1.0,a
3181.0,3426.0,2427.0,3648.0,4095.0,3207.0,3306.0,3440.0,-0.11,10.11,0.75,-0.06,-0.01,-0.03,1.0,a
3189.0,3437.0,2428.0,3647.0,4095.0,3215.0,3297.0,3470.0,-0.24,10.02,0.58,-0.04,0.0,-0.05,1.0,a
3199.0,3423.0,2436.0,3661.0,4095.0,3194.0,3303.0,3454.0,-0.26,10.05,0.58,-0.07,-0.0,-0.06,1.0,a
3191.0,3440.0,2446.0,3669.0,4095.0,3216.0,3298.0,3443.0,-0.26,10.11,0.62,-0.05,-0.0,-0.06,1.0,a
3180.0,3434.0,2447.0,3659.0,4095.0,3211.0,3309.0,3459.0,-0.2,10.07,0.59,-0.04,-0.04,-0.08,1.0,a
3187.0,3452.0,2454.0,3694.0,4095.0,3202.0,3308.0,3450.0,-0.26,10.07,0.52,-0.02,0.0,-0.06,1.0,a
3188.0,3421.0,2458.0,3665.0,4095.0,3215.0,3306.0,3455.0,-0.44,9.97,0.48,-0.09,0.01,-0.07,1.0,a
3184.0,3431.0,2480.0,3670.0,4095.0,3216.0,3312.0,3471.0,-0.37,10.03,0.59,-0.06,-0.0,-0.06,1.0,a
3198.0,3426.0,2491.0,3675.0,4095.0,3221.0,3312.0,3472.0,-0.52,9.97,0.61,-0.1,0.0,-0.02,1.0,a
3178.0,3419.0,2502.0,3695.0,4095.0,3231.0,3314.0,3486.0,-0.34,10.07,0.63,-0.03,-0.02,-0.03,1.0,a
3188.0,3409.0,2513.0,3680.0,4095.0,3221.0,3331.0,3470.0,-0.2,10.07,0.62,-0.06,-0.0,-0.02,1.0,a
3182.0,3425.0,2507.0,3707.0,4095.0,3220.0,3312.0,3484.0,-0.29,9.99,0.58,-0.03,0.01,-0.03,1.0,a
3189.0,3427.0,2532.0,3696.0,4095.0,3228.0,3308.0,3470.0,-0.28,10.09,0.47,-0.04,0.0,-0.05,1.0,a
3186.0,3425.0,2535.0,3685.0,4095.0,3231.0,3326.0,3472.0,-0.38,10.02,0.47,-0.03,0.01,-0.04,1.0,a
3186.0,3425.0,2559.0,3707.0,4095.0,3229.0,3305.0,3478.0,-0.32,10.12,0.42,-0.08,-0.01,-0.04,1.0,a
3282.0,3421.0,3489.0,3505.0,4095.0,3158.0,3289.0,3433.0,-0.2,10.02,0.23,-0.06,0.01,-0.04,1.0,a
3283.0,3429.0,3486.0,3523.0,4095.0,3159.0,3297.0,3438.0,-0.34,10.08,0.34,-0.1,0.01,-0.05,1.0,a
3295.0,3419.0,3488.0,3504.0,4095.0,3152.0,3302.0,3430.0,-0.26,10.0,0.33,-0.09,0.02,-0.04,1.0,a
3295.0,3427.0,3477.0,3514.0,4095.0,3161.0,3301.0,3425.0,-0.37,10.07,0.44,-0.09,0.0,-0.05,1.0,a
3295.0,3431.0,3478.0,3514.0,4095.0,3159.0,3308.0,3429.0,-0.36,9.95,0.61,-0.08,-0.02,-0.03,1.0,a
3283.0,3402.0,3489.0,3510.0,4095.0,3159.0,3310.0,3430.0,-0.24,10.06,0.55,-0.08,-0.0,-0.04,1.0,a
3281.0,3414.0,3472.0,3523.0,4095.0,3158.0,3309.0,3435.0,-0.18,10.01,0.48,-0.04,-0.02,-0.04,1.0,a
3294.0,3408.0,3499.0,3505.0,4095.0,3165.0,3312.0,3434.0,-0.27,10.09,0.4,-0.05,0.01,-0.06,1.0,a
3307.0,3408.0,3478.0,3517.0,4095.0,3158.0,3298.0,3439.0,-0.35,10.01,0.33,-0.08,-0.01,-0.04,1.0,a
3283.0,3422.0,3493.0,3541.0,4095.0,3171.0,3315.0,3449.0,-0.29,10.02,0.43,-0.05,-0.01,-0.03,1.0,a
3295.0,3420.0,3504.0,3525.0,4095.0,3168.0,3301.0,3435.0,-0.25,10.06,0.39,-0.06,-0.0,-0.04,1.0,a
3282.0,3423.0,3483.0,3538.0,4095.0,3181.0,3318.0,3440.0,-0.16,10.07,0.4,-0.05,0.03,-0.04,1.0,a
3279.0,3435.0,3500.0,3550.0,4095.0,3174.0,3303.0,3438.0,-0.26,10.08,0.43,-0.08,0.01,-0.06,1.0,a
3291.0,3423.0,3503.0,3551.0,4095.0,3184.0,3295.0,3445.0,-0.32,10.01,0.52,-0.06,-0.01,-0.06,1.0,a
3298.0,3415.0,3513.0,3552.0,4095.0,3184.0,3311.0,3442.0,-0.41,10.08,0.44,-0.05,0.02,-0.04,1.0,a
3286.0,3396.0,3493.0,3547.0,4095.0,3181.0,3323.0,3450.0,-0.29,10.06,0.39,-0.05,-0.01,-0.05,1.0,a
3307.0,3409.0,3492.0,3550.0,4095.0,3173.0,3314.0,3447.0,-0.2,10.05,0.44,-0.06,0.01,-0.04,1.0,a
3299.0,3434.0,3486.0,3557.0,4095.0,3186.0,3307.0,3452.0,-0.28,10.03,0.44,-0.06,-0.01,-0.05,1.0,a
3278.0,3427.0,3504.0,3557.0,4095.0,3182.0,3312.0,3463.0,-0.29,10.04,0.44,-0.04,0.0,-0.05,1.0,a
3280.0,3423.0,3503.0,3561.0,4095.0,3187.0,3312.0,3468.0,-0.4,10.01,0.46,-0.07,-0.02,-0.05,1.0,a
3325.0,3694.0,4023.0,3852.0,4095.0,3233.0,3307.0,3425.0,0.09,10.06,0.37,-0.05,-0.04,-0.04,1.0,a
3312.0,3701.0,4034.0,3853.0,4095.0,3249.0,3333.0,3428.0,0.08,10.17,0.24,-0.1,0.04,-0.03,1.0,a
3318.0,3728.0,4016.0,3852.0,4095.0,3249.0,3323.0,3414.0,0.03,9.9,0.49,-0.09,-0.03,-0.02,1.0,a
3312.0,3696.0,4032.0,3845.0,4095.0,3253.0,3335.0,3431.0,0.12,10.14,0.31,-0.06,0.04,-0.05,1.0,a
3331.0,3696.0,4038.0,3829.0,4095.0,3248.0,3329.0,3425.0,-0.07,10.06,0.41,-0.07,0.01,-0.03,1.0,a
3311.0,3714.0,4037.0,3833.0,4095.0,3263.0,3333.0,3431.0,0.04,10.0,0.59,-0.1,-0.05,-0.02,1.0,a
3330.0,3681.0,4052.0,3851.0,4095.0,3262.0,3333.0,3441.0,0.3,10.07,0.52,-0.02,0.02,-0.03,1.0,a
3313.0,3712.0,4042.0,3825.0,4095.0,3257.0,3327.0,3441.0,0.11,10.11,0.21,-0.06,0.05,-0.05,1.0,a
3303.0,3683.0,4043.0,3839.0,4095.0,3253.0,3328.0,3438.0,0.13,10.09,0.4,-0.06,-0.01,-0.06,1.0,a
3322.0,3701.0,4016.0,3836.0,4095.0,3254.0,3334.0,3439.0,0.05,10.05,0.49,-0.09,0.01,-0.07,1.0,a
3324.0,3712.0,4049.0,3856.0,4095.0,3264.0,3331.0,3429.0,-0.07,10.04,0.5,-0.06,-0.01,-0.05,1.0,a
3315.0,3695.0,4033.0,3859.0,4095.0,3264.0,3329.0,3427.0,0.06,10.04,0.56,-0.06,-0.02,-0.04,1.0,a
3311.0,3693.0,4037.0,3855.0,4095.0,3265.0,3330.0,3449.0,0.1,10.06,0.46,-0.03,-0.01,-0.04,1.0,a
3318.0,3696.0,4044.0,3824.0,4095.0,3271.0,3331.0,3442.0,0.19,10.06,0.36,-0.05,-0.01,-0.05,1.0,a
3311.0,3693.0,4039.0,3856.0,4095.0,3273.0,3339.0,3431.0,0.14,10.13,0.3,-0.05,0.01,-0.05,1.0,a
3326.0,3703.0,4046.0,3841.0,4095.0,3280.0,3331.0,3440.0,0.04,10.06,0.39,-0.04,-0.01,-0.07,1.0,a
3323.0,3699.0,4031.0,3835.0,4095.0,3269.0,3333.0,3431.0,-0.01,10.08,0.29,-0.04,0.0,-0.06,1.0,a
3323.0,3705.0,4039.0,3856.0,4095.0,3275.0,3328.0,3440.0,-0.02,10.01,0.39,-0.05,0.01,-0.05,1.0,a
3312.0,3710.0,4023.0,3867.0,4095.0,3263.0,3342.0,3433.0,0.0,10.06,0.37,-0.06,0.02,-0.04,1.0,a
3313.0,3696.0,4029.0,3839.0,4095.0,3271.0,3337.0,3439.0,-0.0,10.01,0.45,-0.07,-0.01,-0.05,1.0,a
3309.0,3536.0,2728.0,3652.0,4095.0,3203.0,3296.0,3440.0,-0.23,10.05,0.38,-0.05,-0.01,-0.03,1.0,a
3316.0,3547.0,2723.0,3669.0,4095.0,3196.0,3298.0,3440.0,-0.2,10.1,0.29,-0.06,-0.0,-0.03,1.0,a
3290.0,3556.0,2725.0,3659.0,4095.0,3213.0,3295.0,3443.0,-0.25,10.01,0.32,-0.06,-0.01,-0.04,1.0,a
3312.0,3537.0,2735.0,3690.0,4095.0,3198.0,3307.0,3440.0,-0.34,10.03,0.28,-0.04,0.0,-0.07,1.0,a
3294.0,3526.0,2736.0,3661.0,4095.0,3216.0,3295.0,3439.0,-0.48,10.01,0.56,-0.07,0.01,-0.04,1.0,a
3309.0,3550.0,2745.0,3679.0,4095.0,3228.0,3323.0,3458.0,-0.16,10.02,0.51,0.0,-0.0,-0.03,1.0,a
3312.0,3553.0,2737.0,3674.0,4095.0,3231.0,3314.0,3466.0,-0.1,10.16,0.14,-0.02,0.04,-0.03,1.0,a
3312.0,3531.0,2741.0,3685.0,4095.0,3235.0,3312.0,3461.0,-0.31,10.03,0.1,-0.06,-0.01,-0.08,1.0,a
3318.0,3545.0,2739.0,3683.0,4095.0,3217.0,3323.0,3472.0,-0.52,10.09,0.26,-0.1,-0.02,-0.1,1.0,a
3312.0,3528.0,2742.0,3698.0,4095.0,3221.0,3312.0,3461.0,-0.76,9.87,0.41,-0.1,-0.02,-0.04,1.0,a
3315.0,3540.0,2742.0,3705.0,4095.0,3225.0,3317.0,3458.0,-0.56,10.05,0.36,-0.07,-0.05,-0.01,1.0,a
3314.0,3549.0,2753.0,3675.0,4095.0,3242.0,3333.0,3479.0,-0.32,9.95,0.29,-0.05,-0.02,0.02,1.0,a
3298.0,3555.0,2749.0,3697.0,4095.0,3246.0,3330.0,3469.0,-0.18,10.12,0.29,-0.06,-0.0,0.01,1.0,a
3309.0,3549.0,2749.0,3696.0,4095.0,3236.0,3319.0,3462.0,-0.26,10.01,0.36,-0.07,0.01,-0.01,1.0,a
3315.0,3536.0,2742.0,3717.0,4095.0,3237.0,3325.0,3472.0,-0.1,10.13,0.47,-0.05,-0.0,0.0,1.0,a
3309.0,3549.0,2749.0,3699.0,4095.0,3239.0,3335.0,3475.0,-0.04,10.03,0.37,-0.07,-0.01,-0.03,1.0,a
3317.0,3542.0,2741.0,3701.0,4095.0,3243.0,3335.0,3474.0,-0.09,10.18,0.27,-0.1,0.02,-0.03,1.0,a
3296.0,3536.0,2755.0,3707.0,4095.0,3238.0,3335.0,3472.0,-0.21,9.95,0.38,-0.08,0.0,-0.07,1.0,a
3312.0,3536.0,2759.0,3701.0,4095.0,3232.0,3334.0,3485.0,-0.37,10.03,0.33,-0.08,0.03,-0.06,1.0,a
3312.0,3539.0,2749.0,3712.0,4095.0,3245.0,3318.0,3471.0,-0.39,9.96,0.46,-0.07,-0.03,-0.04,1.0,a
3349.0,3632.0,3517.0,3664.0,4095.0,3179.0,3289.0,3429.0,-0.43,9.97,0.48,-0.08,0.08,-0.06,1.0,a
3358.0,3613.0,3505.0,3660.0,4095.0,3169.0,3311.0,3439.0,-0.35,10.03,0.45,-0.05,0.05,-0.04,1.0,a
3359.0,3631.0,3522.0,3653.0,4095.0,3173.0,3311.0,3440.0,-0.34,9.84,0.68,-0.11,0.04,-0.02,1.0,a
3342.0,3638.0,3527.0,3671.0,4095.0,3186.0,3312.0,3446.0,-0.3,10.07,0.56,-0.01,0.05,-0.07,1.0,a
3342.0,3607.0,3523.0,3649.0,4095.0,3179.0,3307.0,3440.0,-0.49,10.03,0.54,-0.14,0.04,-0.05,1.0,a
3360.0,3631.0,3526.0,3671.0,4095.0,3189.0,3307.0,3464.0,-0.28,9.98,0.79,-0.05,-0.02,-0.02,1.0,a
3341.0,3617.0,3520.0,3653.0,4095.0,3189.0,3299.0,3457.0,-0.25,10.07,0.59,-0.04,0.02,-0.05,1.0,a
3357.0,3613.0,3525.0,3664.0,4095.0,3182.0,3303.0,3468.0,-0.31,10.08,0.52,-0.04,0.02,-0.05,1.0,a
3356.0,3606.0,3534.0,3678.0,4095.0,3183.0,3319.0,3453.0,-0.31,10.05,0.51,-0.05,0.01,-0.05,1.0,a
3357.0,3621.0,3534.0,3659.0,4095.0,3185.0,3312.0,3457.0,-0.43,10.03,0.53,-0.07,0.03,-0.03,1.0,a
3344.0,3629.0,3514.0,3651.0,4095.0,3194.0,3305.0,3461.0,-0.3,9.98,0.53,-0.04,0.01,-0.03,1.0,a
3343.0,3615.0,3532.0,3659.0,4095.0,3183.0,3315.0,3457.0,-0.33,10.1,0.46,-0.09,0.07,-0.01,1.0,a
3358.0,3607.0,3511.0,3635.0,4095.0,3191.0,3303.0,3465.0,-0.21,10.01,0.69,-0.06,-0.0,-0.02,1.0,a
3344.0,3632.0,3527.0,3660.0,4095.0,3199.0,3322.0,3450.0,-0.29,10.09,0.64,-0.11,-0.0,-0.06,1.0,a
3344.0,3607.0,3515.0,3664.0,4095.0,3193.0,3319.0,3462.0,-0.38,9.96,0.8,-0.08,-0.01,-0.05,1.0,a
3357.0,3619.0,3508.0,3661.0,4095.0,3190.0,3299.0,3472.0,-0.4,10.01,0.76,-0.05,-0.01,-0.05,1.0,a
3355.0,3619.0,3506.0,3647.0,4095.0,3188.0,3312.0,3454.0,-0.24,10.07,0.53,-0.0,-0.01,-0.05,1.0,a
3344.0,3634.0,3521.0,3654.0,4095.0,3198.0,3318.0,3472.0,-0.22,10.04,0.41,-0.04,0.02,-0.05,1.0,a
3344.0,3603.0,3535.0,3671.0,4095.0,3189.0,3310.0,3468.0,-0.33,9.97,0.53,-0.09,0.02,-0.05,1.0,a
3354.0,3630.0,3535.0,3653.0,4095.0,3207.0,3312.0,3471.0,-0.33,10.03,0.59,-0.07,0.01,-0.04,1.0,a
3203.0,3301.0,3136.0,3721.0,4095.0,3170.0,3280.0,3435.0,-0.21,9.85,0.45,-0.07,0.03,-0.05,1.0,a
3222.0,3285.0,3131.0,3728.0,4095.0,3183.0,3302.0,3449.0,-0.28,9.98,0.42,-0.03,-0.0,-0.07,1.0,a
3215.0,3309.0,3141.0,3740.0,4095.0,3185.0,3309.0,3429.0,-0.33,10.22,0.2,-0.0,0.03,-0.06,1.0,a
3214.0,3281.0,3127.0,3714.0,4095.0,3194.0,3312.0,3455.0,-0.45,9.91,0.35,-0.11,0.02,-0.03,1.0,a
3216.0,3296.0,3142.0,3728.0,4095.0,3199.0,3317.0,3453.0,-0.44,10.1,0.45,-0.09,0.01,-0.03,1.0,a
3213.0,3284.0,3127.0,3729.0,4095.0,3197.0,3307.0,3446.0,-0.3,10.0,0.65,-0.09,-0.02,-0.01,1.0,a
3215.0,3297.0,3131.0,3734.0,4095.0,3199.0,3302.0,3449.0,-0.08,10.13,0.54,-0.05,0.0,-0.02,1.0,a
3205.0,3290.0,3146.0,3721.0,4095.0,3200.0,3313.0,3458.0,-0.15,10.11,0.42,-0.05,0.01,-0.04,1.0,a
3218.0,3297.0,3152.0,3733.0,4095.0,3205.0,3313.0,3455.0,-0.22,10.07,0.49,-0.07,-0.0,-0.06,1.0,a
3215.0,3280.0,3143.0,3747.0,4095.0,3195.0,3307.0,3440.0,-0.32,9.98,0.57,-0.02,0.01,-0.06,1.0,a
3217.0,3294.0,3134.0,3728.0,4095.0,3198.0,3307.0,3445.0,-0.4,9.97,0.51,-0.05,0.01,-0.03,1.0,a
3215.0,3283.0,3153.0,3728.0,4095.0,3210.0,3327.0,3456.0,-0.2,10.01,0.46,-0.06,-0.02,-0.03,1.0,a
3209.0,3282.0,3153.0,3724.0,4095.0,3202.0,3307.0,3457.0,-0.17,10.07,0.36,-0.09,0.01,-0.04,1.0,a
3202.0,3280.0,3145.0,3718.0,4095.0,3209.0,3325.0,3449.0,-0.27,10.13,0.44,-0.08,-0.01,-0.04,1.0,a
3225.0,3297.0,3139.0,3717.0,4095.0,3219.0,3322.0,3467.0,-0.29,10.01,0.58,-0.08,-0.02,-0.04,1.0,a
3216.0,3289.0,3142.0,3708.0,4095.0,3214.0,3312.0,3464.0,-0.31,10.04,0.58,-0.06,0.02,-0.03,1.0,a
3216.0,3295.0,3149.0,3726.0,4095.0,3210.0,3319.0,3460.0,-0.24,10.01,0.51,-0.08,-0.02,-0.03,1.0,a
3222.0,3296.0,3141.0,3739.0,4095.0,3198.0,3326.0,3448.0,-0.13,10.11,0.54,-0.05,0.01,-0.05,1.0,a
3211.0,3282.0,3148.0,3735.0,4095.0,3203.0,3326.0,3460.0,-0.26,10.01,0.43,-0.07,-0.01,-0.06,1.0,a
3213.0,3289.0,3152.0,3735.0,4095.0,3207.0,3326.0,3470.0,-0.3,10.06,0.53,-0.05,0.0,-0.05,1.0,a
3265.0,3404.0,1729.0,3676.0,4095.0,3190.0,3309.0,3439.0,-0.11,10.09,0.45,-0.1,0.0,-0.03,1.0,a
3266.0,3385.0,1737.0,3664.0,4095.0,3184.0,3311.0,3428.0,-0.03,10.07,0.53,-0.05,-0.01,-0.05,1.0,a
3278.0,3371.0,1739.0,3677.0,4095.0,3189.0,3312.0,3435.0,0.01,10.09,0.54,-0.06,0.03,-0.03,1.0,a
3264.0,3386.0,1731.0,3696.0,4095.0,3206.0,3318.0,3441.0,0.01,10.06,0.46,-0.05,0.01,-0.04,1.0,a
3253.0,3389.0,1723.0,3678.0,4095.0,3206.0,3307.0,3431.0,-0.12,10.06,0.5,-0.11,0.02,-0.04,1.0,a
3273.0,3399.0,1737.0,3679.0,4095.0,3202.0,3317.0,3446.0,-0.07,10.01,0.6,-0.05,-0.01,-0.04,1.0,a
3280.0,3392.0,1735.0,3682.0,4095.0,3209.0,3317.0,3455.0,-0.01,10.07,0.54,-0.08,0.01,-0.03,1.0,a
3276.0,3386.0,1737.0,3702.0,4095.0,3199.0,3315.0,3461.0,-0.01,10.07,0.5,-0.07,0.0,-0.04,1.0,a
3267.0,3391.0,1737.0,3709.0,4095.0,3203.0,3328.0,3451.0,-0.03,10.06,0.56,-0.09,0.0,-0.05,1.0,a
3264.0,3402.0,1744.0,3681.0,4095.0,3211.0,3306.0,3445.0,-0.02,10.02,0.61,-0.06,0.0,-0.04,1.0,a
3264.0,3390.0,1743.0,3712.0,4095.0,3210.0,3321.0,3453.0,-0.07,10.03,0.57,-0.08,0.01,-0.03,1.0,a
3280.0,3386.0,1745.0,3705.0,4095.0,3216.0,3310.0,3440.0,0.03,10.07,0.57,-0.06,0.01,-0.03,1.0,a
3265.0,3414.0,1752.0,3692.0,4095.0,3214.0,3324.0,3444.0,-0.01,10.08,0.52,-0.08,0.02,-0.04,1.0,a
3275.0,3387.0,1753.0,3711.0,4095.0,3206.0,3327.0,3455.0,0.02,9.99,0.62,-0.06,-0.01,-0.04,1.0,a
3277.0,3408.0,1765.0,3694.0,4095.0,3216.0,3323.0,3449.0,-0.02,10.05,0.57,-0.07,0.02,-0.04,1.0,a
3273.0,3380.0,1759.0,3711.0,4095.0,3215.0,3313.0,3454.0,-0.05,10.03,0.62,-0.07,-0.01,-0.04,1.0,a
3259.0,3390.0,1760.0,3689.0,4095.0,3215.0,3328.0,3456.0,0.01,10.09,0.61,-0.07,0.01,-0.04,1.0,a
3255.0,3376.0,1759.0,3708.0,4095.0,3201.0,3328.0,3456.0,-0.03,10.0,0.63,-0.08,-0.01,-0.04,1.0,a
3262.0,3399.0,1755.0,3713.0,4095.0,3218.0,3328.0,3467.0,0.02,10.08,0.61,-0.06,0.0,-0.03,1.0,a
3262.0,3398.0,1749.0,3725.0,4095.0,3214.0,3338.0,3456.0,0.03,10.04,0.59,-0.07,-0.01,-0.04,1.0,a
3250.0,3370.0,4070.0,3600.0,4095.0,3123.0,3274.0,3408.0,-0.08,10.03,0.79,-0.06,0.03,-0.03,1.0,a
3253.0,3359.0,4062.0,3629.0,4095.0,3136.0,3266.0,3413.0,-0.1,9.99,0.83,-0.08,-0.01,-0.03,1.0,a
3248.0,3365.0,4051.0,3637.0,4095.0,3136.0,3274.0,3418.0,-0.07,10.01,0.79,-0.03,0.02,-0.03,1.0,a
3250.0,3371.0,4047.0,3611.0,4095.0,3149.0,3279.0,3431.0,-0.3,10.06,0.75,-0.1,0.01,-0.03,1.0,a
3248.0,3376.0,4059.0,3619.0,4095.0,3143.0,3291.0,3431.0,-0.06,10.04,0.91,-0.04,-0.01,-0.02,1.0,a
3243.0,3369.0,4071.0,3609.0,4095.0,3149.0,3266.0,3431.0,-0.11,10.12,0.82,-0.06,0.01,-0.01,1.0,a
3253.0,3370.0,4061.0,3629.0,4095.0,3149.0,3280.0,3440.0,0.01,10.03,0.83,-0.06,-0.02,-0.02,1.0,a
3249.0,3360.0,4053.0,3626.0,4095.0,3147.0,3280.0,3421.0,-0.03,10.07,0.82,-0.05,0.04,-0.03,1.0,a
3247.0,3350.0,4080.0,3615.0,4095.0,3157.0,3281.0,3431.0,-0.13,9.99,0.83,-0.09,0.0,-0.04,1.0,a
3242.0,3376.0,4048.0,3650.0,4095.0,3155.0,3280.0,3440.0,-0.17,10.0,0.93,-0.06,0.0,-0.04,1.0,a
3236.0,3364.0,4078.0,3633.0,4095.0,3155.0,3281.0,3423.0,-0.09,9.98,0.86,-0.06,0.0,-0.03,1.0,a
3248.0,3364.0,4075.0,3648.0,4095.0,3158.0,3280.0,3429.0,-0.02,9.94,0.87,-0.05,-0.01,-0.03,1.0,a
3271.0,3381.0,4055.0,3638.0,4095.0,3162.0,3280.0,3435.0,-0.08,9.99,0.87,-0.07,0.01,-0.03,1.0,a
3247.0,3371.0,4051.0,3630.0,4095.0,3169.0,3280.0,3425.0,-0.08,10.04,0.92,-0.06,0.01,-0.03,1.0,a
3246.0,3365.0,4077.0,3662.0,4095.0,3163.0,3280.0,3437.0,-0.06,10.01,0.92,-0.06,0.01,-0.02,1.0,a
3233.0,3367.0,4048.0,3662.0,4095.0,3167.0,3297.0,3437.0,-0.03,10.02,0.85,-0.06,-0.02,-0.03,1.0,a
3243.0,3369.0,4059.0,3625.0,4095.0,3158.0,3296.0,3444.0,0.05,9.97,0.85,-0.05,-0.0,-0.04,1.0,a
3250.0,3355.0,4087.0,3653.0,4095.0,3157.0,3283.0,3433.0,-0.1,10.0,0.8,-0.09,-0.0,-0.05,1.0,a
3251.0,3375.0,4071.0,3641.0,4095.0,3163.0,3282.0,3440.0,-0.14,10.07,0.87,-0.11,0.0,-0.03,1.0,a
3248.0,3394.0,4062.0,3629.0,4095.0,3168.0,3283.0,3431.0,-0.08,10.0,0.97,-0.1,-0.01,-0.01,1.0,a
3226.0,3456.0,3971.0,3787.0,4041.0,3127.0,3254.0,3416.0,0.06,9.98,1.11,-0.1,-0.0,-0.04,1.0,a
3227.0,3438.0,4002.0,3791.0,4061.0,3134.0,3262.0,3408.0,0.06,9.9,1.24,-0.05,-0.02,-0.02,1.0,a
3226.0,3442.0,3957.0,3790.0,4044.0,3126.0,3261.0,3426.0,0.07,10.05,1.09,-0.04,0.02,-0.04,1.0,a
3227.0,3455.0,3975.0,3771.0,4048.0,3141.0,3274.0,3434.0,0.09,10.0,1.06,-0.02,-0.03,-0.03,1.0,a
3214.0,3438.0,3961.0,3771.0,4058.0,3131.0,3260.0,3412.0,0.34,10.15,0.93,-0.07,0.01,-0.03,1.0,a
3223.0,3467.0,3984.0,3793.0,4048.0,3129.0,3270.0,3421.0,0.16,9.97,1.06,-0.04,-0.02,-0.08,1.0,a
3218.0,3433.0,3984.0,3783.0,4061.0,3138.0,3276.0,3419.0,-0.06,10.04,1.13,-0.1,0.01,-0.07,1.0,a
3229.0,3439.0,3989.0,3775.0,4053.0,3142.0,3264.0,3410.0,0.12,10.0,1.2,-0.02,-0.02,-0.03,1.0,a
3242.0,3420.0,4000.0,3785.0,4095.0,3150.0,3269.0,3419.0,0.11,10.07,0.94,-0.09,0.02,-0.05,1.0,a
3222.0,3449.0,3990.0,3787.0,4085.0,3133.0,3280.0,3426.0,0.11,10.04,1.04,-0.04,-0.03,-0.04,1.0,a
3219.0,3451.0,3990.0,3771.0,4078.0,3142.0,3262.0,3435.0,0.06,10.09,0.92,-0.07,0.03,-0.03,1.0,a
3229.0,3426.0,3963.0,3791.0,4076.0,3154.0,3274.0,3423.0,0.11,10.13,0.91,-0.09,-0.0,-0.05,1.0,a
3229.0,3441.0,3964.0,3794.0,4066.0,3134.0,3266.0,3430.0,0.13,10.17,1.06,-0.07,0.01,-0.04,1.0,a
3210.0,3437.0,3991.0,3799.0,4080.0,3136.0,3271.0,3422.0,0.11,9.99,1.16,-0.04,-0.01,-0.04,1.0,a
3217.0,3445.0,3979.0,3788.0,4080.0,3143.0,3281.0,3424.0,0.06,10.06,1.04,-0.03,0.02,-0.03,1.0,a
3216.0,3455.0,3989.0,3797.0,4080.0,3146.0,3274.0,3427.0,0.18,10.05,1.05,-0.03,0.0,-0.02,1.0,a
3231.0,3441.0,4016.0,3817.0,4083.0,3139.0,3270.0,3440.0,0.12,10.03,0.89,-0.05,0.01,-0.05,1.0,a
3216.0,3427.0,4011.0,3792.0,4089.0,3151.0,3248.0,3421.0,0.0,10.02,0.96,-0.07,0.0,-0.03,1.0,a
3229.0,3455.0,3975.0,3792.0,4079.0,3141.0,3280.0,3428.0,0.02,10.0,1.02,-0.04,-0.0,-0.04,1.0,a
3221.0,3447.0,3972.0,3807.0,4082.0,3145.0,3280.0,3440.0,0.06,9.99,0.97,-0.09,0.01,-0.01,1.0,a
3070.0,3207.0,3470.0,4095.0,4095.0,3231.0,3326.0,3455.0,-0.14,9.8,1.49,-0.06,-0.02,-0.05,1.0,a
3070.0,3199.0,3478.0,4095.0,4095.0,3241.0,3337.0,3453.0,-0.23,10.02,1.47,-0.05,-0.0,-0.05,1.0,a
3085.0,3200.0,3482.0,4095.0,4095.0,3229.0,3343.0,3471.0,-0.18,9.92,1.43,-0.07,-0.01,-0.03,1.0,a
3087.0,3187.0,3489.0,4095.0,4095.0,3235.0,3329.0,3458.0,-0.02,10.09,1.27,-0.05,0.03,-0.04,1.0,a
3063.0,3194.0,3467.0,4092.0,4095.0,3217.0,3344.0,3455.0,-0.25,9.93,1.32,-0.06,-0.03,-0.06,1.0,a
3067.0,3207.0,3441.0,4095.0,4095.0,3239.0,3341.0,3475.0,-0.18,10.08,1.37,-0.06,0.01,-0.04,1.0,a
3069.0,3225.0,3488.0,4095.0,4095.0,3227.0,3344.0,3469.0,-0.2,9.93,1.38,-0.05,0.01,-0.03,1.0,a
3087.0,3206.0,3459.0,4095.0,4095.0,3232.0,3333.0,3472.0,-0.07,9.97,1.41,-0.04,0.02,-0.01,1.0,a
3088.0,3214.0,3465.0,4095.0,4095.0,3229.0,3339.0,3473.0,-0.12,9.99,1.22,-0.11,0.02,-0.03,1.0,a
3063.0,3208.0,3472.0,4095.0,4095.0,3243.0,3343.0,3473.0,-0.13,10.08,1.36,-0.11,0.0,-0.03,1.0,a
3061.0,3194.0,3462.0,4095.0,4095.0,3235.0,3317.0,3469.0,-0.12,9.91,1.53,-0.09,-0.06,-0.04,1.0,a
3070.0,3193.0,3466.0,4095.0,4095.0,3219.0,3342.0,3471.0,-0.33,9.95,1.51,-0.06,0.02,-0.03,1.0,a
3071.0,3200.0,3457.0,4095.0,4095.0,3238.0,3327.0,3456.0,-0.29,10.0,1.53,-0.06,0.03,0.06,1.0,a
3071.0,3211.0,3459.0,4095.0,4095.0,3239.0,3346.0,3459.0,-0.14,9.93,1.47,-0.06,0.01,0.04,1.0,a
3063.0,3195.0,3462.0,4084.0,4095.0,3227.0,3330.0,3477.0,0.16,10.03,1.38,-0.07,-0.01,0.03,1.0,a
3086.0,3209.0,3456.0,4058.0,4095.0,3239.0,3330.0,3474.0,0.19,9.99,1.35,-0.08,-0.0,0.01,1.0,a
3063.0,3200.0,3470.0,4077.0,4095.0,3230.0,3342.0,3455.0,0.27,10.05,1.38,-0.01,0.01,-0.05,1.0,a
3088.0,3200.0,3473.0,4095.0,4095.0,3222.0,3325.0,3472.0,0.03,9.9,1.43,-0.08,0.01,-0.05,1.0,a
3082.0,3200.0,3473.0,4079.0,4095.0,3236.0,3328.0,3474.0,-0.05,10.0,1.44,-0.03,0.02,-0.07,1.0,a
3085.0,3211.0,3478.0,4095.0,4095.0,3222.0,3333.0,3460.0,-0.06,9.98,1.42,-0.09,0.04,-0.05,1.0,a
3269.0,3096.0,3758.0,3648.0,4095.0,3182.0,3295.0,3420.0,0.01,10.0,0.75,-0.12,0.0,-0.05,1.0,a
3280.0,3099.0,3761.0,3674.0,4095.0,3198.0,3314.0,3419.0,0.13,10.06,0.86,-0.07,-0.03,-0.04,1.0,a
3284.0,3103.0,3776.0,3695.0,4095.0,3199.0,3307.0,3414.0,0.13,10.12,0.81,-0.05,0.0,-0.04,1.0,a
3282.0,3108.0,3769.0,3682.0,4095.0,3185.0,3294.0,3427.0,0.09,10.09,0.66,-0.05,0.01,-0.04,1.0,a
3280.0,3106.0,3753.0,3693.0,4095.0,3200.0,3309.0,3438.0,0.12,9.97,0.75,-0.06,-0.02,-0.06,1.0,a
3289.0,3118.0,3780.0,3727.0,4095.0,3215.0,3318.0,3417.0,0.12,10.15,0.77,-0.07,0.01,-0.07,1.0,a
3287.0,3091.0,3763.0,3697.0,4095.0,3215.0,3317.0,3424.0,0.01,10.0,0.87,-0.05,-0.0,-0.05,1.0,a
3291.0,3088.0,3778.0,3725.0,4095.0,3210.0,3312.0,3447.0,0.09,10.15,0.85,-0.07,-0.0,-0.04,1.0,a
3290.0,3111.0,3783.0,3717.0,4095.0,3207.0,3312.0,3430.0,-0.01,9.9,0.99,-0.05,-0.02,-0.03,1.0,a
3280.0,3110.0,3769.0,3742.0,4095.0,3209.0,3319.0,3424.0,0.14,10.13,0.75,-0.02,-0.0,-0.05,1.0,a
3294.0,3111.0,3760.0,3727.0,4095.0,3216.0,3319.0,3440.0,0.14,10.0,0.72,-0.05,0.0,-0.06,1.0,a
3267.0,3109.0,3760.0,3761.0,4095.0,3218.0,3309.0,3434.0,0.02,10.07,0.69,-0.08,0.04,-0.06,1.0,a
3280.0,3113.0,3766.0,3769.0,4095.0,3233.0,3316.0,3437.0,-0.05,9.98,0.79,-0.03,-0.02,-0.06,1.0,a
3295.0,3106.0,3783.0,3759.0,4095.0,3226.0,3312.0,3447.0,0.04,10.09,0.7,-0.05,0.02,-0.05,1.0,a
3280.0,3101.0,3781.0,3755.0,4095.0,3216.0,3332.0,3444.0,0.03,10.08,0.7,-0.08,-0.01,-0.05,1.0,a
3286.0,3093.0,3760.0,3777.0,4095.0,3233.0,3312.0,3447.0,0.04,10.12,0.81,-0.07,0.02,-0.05,1.0,a
3280.0,3102.0,3783.0,3763.0,4095.0,3223.0,3334.0,3441.0,0.01,9.99,0.88,-0.04,-0.02,-0.06,1.0,a
3269.0,3110.0,3776.0,3779.0,4095.0,3223.0,3329.0,3447.0,-0.09,10.07,0.75,-0.04,0.04,-0.04,1.0,a
3269.0,3102.0,3769.0,3768.0,4095.0,3229.0,3342.0,3447.0,0.02,10.04,0.68,-0.02,-0.05,-0.05,1.0,a
3286.0,3106.0,3775.0,3803.0,4095.0,3240.0,3335.0,3455.0,0.07,10.12,0.58,-0.04,-0.0,-0.04,1.0,a
3351.0,3199.0,4090.0,3459.0,4043.0,3065.0,3293.0,3411.0,-0.02,9.96,0.78,-0.06,-0.04,-0.03,1.0,a
3343.0,3184.0,4095.0,3477.0,4016.0,3056.0,3291.0,3410.0,-0.14,10.1,0.62,-0.1,0.03,-0.02,1.0,a
3361.0,3198.0,4095.0,3473.0,4059.0,3056.0,3286.0,3434.0,-0.07,10.0,0.61,-0.0,-0.02,-0.04,1.0,a
3351.0,3186.0,4095.0,3473.0,4016.0,3065.0,3287.0,3433.0,-0.11,10.05,0.56,-0.08,0.0,-0.04,1.0,a
3353.0,3191.0,4095.0,3477.0,4021.0,3071.0,3303.0,3419.0,-0.21,9.98,0.65,-0.07,0.0,-0.04,1.0,a
3363.0,3199.0,4095.0,3479.0,4035.0,3087.0,3296.0,3434.0,-0.12,10.07,0.76,-0.06,0.0,-0.05,1.0,a
3352.0,3184.0,4080.0,3492.0,4042.0,3082.0,3304.0,3419.0,-0.22,10.0,0.89,-0.08,-0.0,-0.04,1.0,a
3362.0,3179.0,4095.0,3498.0,4042.0,3066.0,3289.0,3435.0,0.0,10.0,0.88,0.02,-0.02,-0.04,1.0,a
3351.0,3188.0,4095.0,3495.0,4048.0,3089.0,3279.0,3439.0,-0.13,10.02,0.42,-0.04,0.04,-0.05,1.0,a
3344.0,3185.0,4095.0,3505.0,4045.0,3088.0,3295.0,3440.0,-0.17,10.14,0.46,-0.03,-0.01,-0.06,1.0,a
3347.0,3198.0,4076.0,3505.0,4063.0,3079.0,3301.0,3438.0,-0.23,10.08,0.61,-0.06,-0.04,-0.06,1.0,a
3345.0,3185.0,4095.0,3499.0,4039.0,3088.0,3296.0,3442.0,-0.11,10.0,0.69,-0.01,-0.01,-0.03,1.0,a
3331.0,3184.0,4095.0,3506.0,4060.0,3082.0,3293.0,3446.0,-0.17,10.05,0.47,-0.06,0.01,-0.05,1.0,a
3357.0,3193.0,4095.0,3504.0,4079.0,3089.0,3297.0,3434.0,-0.23,9.89,0.66,-0.05,-0.01,-0.02,1.0,a
3349.0,3185.0,4095.0,3519.0,4048.0,3086.0,3306.0,3435.0,-0.11,10.04,0.65,-0.06,0.0,-0.04,1.0,a
3346.0,3205.0,4095.0,3502.0,4071.0,3088.0,3307.0,3441.0,-0.11,9.96,0.61,-0.09,0.03,-0.03,1.0,a
3328.0,3184.0,4095.0,3502.0,4075.0,3094.0,3298.0,3441.0,-0.08,10.02,0.68,-0.06,0.02,-0.02,1.0,a
3344.0,3184.0,4095.0,3505.0,4077.0,3095.0,3303.0,3454.0,-0.13,10.1,0.5,-0.09,0.05,-0.04,1.0,a
3357.0,3184.0,4063.0,3517.0,4065.0,3097.0,3318.0,3434.0,-0.15,10.02,0.61,-0.05,0.01,-0.03,1.0,a
3353.0,3191.0,4095.0,3504.0,4068.0,3099.0,3312.0,3446.0,-0.12,10.09,0.66,-0.06,0.01,-0.05,1.0,a
3197.0,3359.0,3888.0,3537.0,4095.0,3142.0,3275.0,3419.0,0.24,10.03,0.79,-0.07,-0.0,-0.04,1.0,a
3194.0,3368.0,3906.0,3529.0,4095.0,3138.0,3267.0,3423.0,0.08,10.0,0.84,-0.09,0.0,-0.03,1.0,a
3205.0,3347.0,3898.0,3536.0,4095.0,3151.0,3281.0,3439.0,0.27,10.13,0.7,0.01,0.0,-0.04,1.0,a
3186.0,3341.0,3919.0,3547.0,4095.0,3141.0,3286.0,3428.0,0.11,10.07,0.58,-0.05,0.02,-0.05,1.0,a
3187.0,3363.0,3883.0,3534.0,4095.0,3152.0,3280.0,3437.0,0.02,10.07,0.68,-0.06,-0.02,-0.05,1.0,a
3200.0,3365.0,3907.0,3553.0,4095.0,3153.0,3286.0,3441.0,0.05,9.95,0.77,-0.07,-0.0,-0.04,1.0,a
3198.0,3351.0,3891.0,3545.0,4095.0,3159.0,3297.0,3410.0,0.08,10.06,0.7,-0.06,0.02,-0.02,1.0,a
3187.0,3333.0,3891.0,3567.0,4095.0,3153.0,3293.0,3440.0,0.15,10.04,0.72,-0.09,0.0,-0.01,1.0,a
3185.0,3362.0,3901.0,3553.0,4095.0,3153.0,3283.0,3440.0,0.25,10.11,0.74,-0.07,-0.0,-0.03,1.0,a
3194.0,3350.0,3911.0,3541.0,4095.0,3158.0,3280.0,3447.0,0.21,10.08,0.74,-0.08,0.01,-0.02,1.0,a
3185.0,3350.0,3899.0,3541.0,4095.0,3147.0,3273.0,3442.0,0.2,10.04,0.76,-0.05,-0.0,-0.04,1.0,a
3199.0,3344.0,3902.0,3563.0,4095.0,3152.0,3281.0,3442.0,0.12,10.05,0.69,-0.08,0.01,-0.04,1.0,a
3200.0,3341.0,3889.0,3549.0,4095.0,3153.0,3291.0,3445.0,0.17,10.07,0.8,-0.09,-0.0,-0.04,1.0,a
3200.0,3338.0,3907.0,3566.0,4095.0,3152.0,3287.0,3440.0,0.16,10.01,0.9,-0.12,0.01,-0.02,1.0,a
3202.0,3331.0,3918.0,3567.0,4095.0,3169.0,3283.0,3443.0,0.2,10.04,0.9,-0.09,0.0,-0.04,1.0,a
3194.0,3369.0,3901.0,3543.0,4095.0,3157.0,3303.0,3438.0,0.23,10.07,0.82,-0.07,0.0,-0.03,1.0,a
3174.0,3339.0,3919.0,3552.0,4095.0,3158.0,3293.0,3453.0,0.23,10.08,0.76,-0.06,0.01,-0.04,1.0,a
3193.0,3349.0,3893.0,3554.0,4095.0,3168.0,3311.0,3459.0,0.12,10.01,0.8,-0.06,0.01,-0.04,1.0,a
3195.0,3365.0,3902.0,3566.0,4095.0,3175.0,3287.0,3446.0,0.22,10.08,0.85,-0.05,0.01,-0.04,1.0,a
3209.0,3351.0,3891.0,3552.0,4095.0,3168.0,3284.0,3456.0,0.14,9.95,0.93,-0.07,-0.01,-0.04,1.0,a
3218.0,3334.0,3947.0,3575.0,4095.0,3204.0,3305.0,3433.0,-0.0,10.01,0.62,-0.03,0.01,-0.04,1.0,a
3221.0,3339.0,3952.0,3611.0,4095.0,3218.0,3307.0,3433.0,0.12,10.34,0.52,-0.01,-0.01,-0.04,1.0,a
3217.0,3347.0,3947.0,3607.0,4095.0,3213.0,3317.0,3440.0,-0.11,9.9,0.6,-0.06,0.01,-0.03,1.0,a
3221.0,3346.0,3929.0,3600.0,4095.0,3216.0,3328.0,3446.0,-0.13,10.13,0.43,-0.06,0.02,-0.03,1.0,a
3217.0,3344.0,3901.0,3578.0,4095.0,3211.0,3329.0,3440.0,-0.18,9.95,0.53,-0.08,0.01,-0.03,1.0,a
3224.0,3345.0,3947.0,3602.0,4095.0,3237.0,3317.0,3442.0,0.02,10.12,0.61,-0.13,0.01,-0.0,1.0,a
3229.0,3357.0,3919.0,3617.0,4095.0,3216.0,3318.0,3457.0,0.07,10.07,0.7,-0.08,-0.01,-0.02,1.0,a
3226.0,3355.0,3952.0,3602.0,4095.0,3210.0,3321.0,3445.0,0.1,10.2,0.68,-0.07,0.03,-0.04,1.0,a
3228.0,3351.0,3945.0,3609.0,4095.0,3233.0,3329.0,3437.0,-0.15,10.06,0.69,-0.07,-0.02,-0.07,1.0,a
3221.0,3365.0,3929.0,3583.0,4095.0,3221.0,3335.0,3439.0,-0.1,10.18,0.65,-0.04,-0.0,-0.03,1.0,a
3230.0,3344.0,3920.0,3600.0,4095.0,3220.0,3324.0,3446.0,-0.01,9.96,0.67,-0.05,-0.01,-0.01,1.0,a
3216.0,3348.0,3937.0,3607.0,4095.0,3216.0,3327.0,3459.0,0.16,10.15,0.47,-0.06,0.0,-0.03,1.0,a
3227.0,3360.0,3903.0,3610.0,4095.0,3225.0,3314.0,3444.0,0.04,9.94,0.57,-0.09,-0.01,-0.06,1.0,a
3216.0,3341.0,3928.0,3583.0,4095.0,3231.0,3333.0,3456.0,-0.15,10.14,0.77,-0.1,0.03,-0.08,1.0,a
3235.0,3344.0,3936.0,3603.0,4095.0,3232.0,3342.0,3446.0,-0.27,9.82,1.04,-0.07,-0.02,-0.01,1.0,a
3229.0,3327.0,3925.0,3583.0,4095.0,3223.0,3319.0,3445.0,0.23,10.1,0.76,-0.01,0.01,-0.01,1.0,a
3235.0,3344.0,3926.0,3603.0,4095.0,3235.0,3321.0,3458.0,0.18,10.05,0.33,-0.04,0.03,-0.04,1.0,a
3215.0,3349.0,3936.0,3605.0,4095.0,3241.0,3325.0,3454.0,0.0,10.13,0.48,-0.09,-0.0,-0.07,1.0,a
3232.0,3339.0,3951.0,3613.0,4095.0,3245.0,3328.0,3440.0,-0.2,10.01,0.81,-0.1,0.02,-0.04,1.0,a
3226.0,3337.0,3935.0,3603.0,4095.0,3229.0,3331.0,3441.0,-0.27,9.99,0.88,-0.06,0.0,-0.05,1.0,a
3069.0,3085.0,3932.0,4095.0,4095.0,3203.0,3337.0,3430.0,-0.26,10.04,0.51,-0.1,0.03,-0.05,1.0,a
3061.0,3071.0,3923.0,4048.0,4095.0,3209.0,3342.0,3449.0,-0.17,9.98,0.67,-0.01,0.01,-0.04,1.0,a
3071.0,3085.0,3916.0,4080.0,4095.0,3210.0,3344.0,3445.0,-0.03,10.2,0.48,-0.06,0.02,-0.02,1.0,a
3069.0,3070.0,3920.0,4033.0,4095.0,3213.0,3345.0,3440.0,-0.15,10.03,0.53,-0.11,0.0,-0.01,1.0,a
3061.0,3095.0,3918.0,4037.0,4095.0,3216.0,3337.0,3457.0,-0.04,10.1,0.7,-0.13,0.03,0.0,1.0,a
3063.0,3089.0,3922.0,4022.0,4095.0,3218.0,3343.0,3439.0,-0.08,9.99,0.85,-0.09,-0.01,-0.03,1.0,a
3071.0,3066.0,3925.0,4051.0,4095.0,3216.0,3354.0,3441.0,-0.03,10.06,0.85,-0.07,0.03,0.01,1.0,a
3070.0,3083.0,3942.0,4021.0,4095.0,3218.0,3357.0,3441.0,0.07,10.06,0.68,-0.01,0.01,-0.03,1.0,a
3070.0,3087.0,3920.0,4032.0,4095.0,3216.0,3339.0,3454.0,0.01,10.21,0.52,-0.09,0.0,-0.03,1.0,a
3055.0,3071.0,3941.0,4015.0,4095.0,3228.0,3337.0,3442.0,0.05,10.01,0.75,-0.08,-0.03,-0.06,1.0,a
3056.0,3083.0,3920.0,4022.0,4095.0,3231.0,3355.0,3459.0,-0.15,10.18,0.75,-0.07,-0.02,-0.06,1.0,a
3066.0,3093.0,3895.0,4028.0,4095.0,3229.0,3344.0,3461.0,-0.19,9.91,0.8,-0.07,-0.03,-0.03,1.0,a
3071.0,3088.0,3899.0,4032.0,4095.0,3230.0,3344.0,3446.0,0.02,10.12,0.68,-0.02,0.0,-0.02,1.0,a
3066.0,3081.0,3921.0,4048.0,4095.0,3230.0,3355.0,3471.0,0.06,9.97,0.62,-0.08,-0.0,-0.01,1.0,a
3071.0,3082.0,3904.0,4047.0,4095.0,3233.0,3331.0,3453.0,0.09,10.1,0.66,-0.09,-0.01,-0.04,1.0,a
3082.0,3071.0,3920.0,4020.0,4095.0,3220.0,3357.0,3467.0,0.02,10.02,0.9,-0.09,-0.01,-0.05,1.0,a
3060.0,3066.0,3895.0,4023.0,4095.0,3234.0,3361.0,3467.0,0.03,10.02,0.9,-0.07,-0.0,-0.05,1.0,a
3082.0,3091.0,3910.0,4032.0,4095.0,3229.0,3363.0,3467.0,-0.02,10.07,0.74,-0.02,0.03,-0.06,1.0,a
3058.0,3105.0,3921.0,4032.0,4095.0,3227.0,3357.0,3453.0,-0.19,10.02,0.68,-0.05,-0.01,-0.04,1.0,a
3051.0,3083.0,3904.0,4013.0,4095.0,3237.0,3347.0,3458.0,0.03,10.04,0.73,-0.04,-0.01,-0.04,1.0,a
3253.0,3248.0,3887.0,3691.0,4087.0,3117.0,3274.0,3438.0,0.04,10.14,0.68,-0.1,-0.01,-0.05,1.0,a
3254.0,3248.0,3891.0,3696.0,4095.0,3136.0,3273.0,3428.0,-0.06,10.02,0.85,-0.06,-0.02,-0.04,1.0,a
3264.0,3259.0,3878.0,3707.0,4073.0,3145.0,3280.0,3440.0,-0.06,10.13,0.86,-0.08,0.01,-0.03,1.0,a
3251.0,3262.0,3877.0,3696.0,4080.0,3130.0,3267.0,3440.0,0.0,10.14,0.74,-0.05,0.02,-0.03,1.0,a
3267.0,3248.0,3915.0,3696.0,4095.0,3138.0,3275.0,3447.0,0.0,10.07,0.79,-0.09,-0.01,-0.03,1.0,a
3254.0,3245.0,3888.0,3694.0,4077.0,3135.0,3281.0,3443.0,0.1,10.04,0.96,-0.04,-0.01,-0.04,1.0,a
3254.0,3264.0,3895.0,3713.0,4080.0,3152.0,3280.0,3451.0,-0.04,10.07,0.75,-0.06,0.02,-0.05,1.0,a
3266.0,3249.0,3893.0,3696.0,4095.0,3135.0,3287.0,3450.0,-0.04,10.0,0.86,-0.03,-0.01,-0.04,1.0,a
3250.0,3255.0,3899.0,3698.0,4094.0,3137.0,3290.0,3445.0,-0.07,10.01,0.82,-0.05,-0.01,-0.05,1.0,a
3264.0,3249.0,3901.0,3732.0,4095.0,3135.0,3279.0,3447.0,-0.03,10.01,0.82,-0.06,-0.0,-0.02,1.0,a
3253.0,3253.0,3899.0,3709.0,4091.0,3148.0,3290.0,3454.0,0.01,10.1,0.8,-0.06,0.0,-0.05,1.0,a
3259.0,3261.0,3858.0,3700.0,4087.0,3147.0,3285.0,3443.0,0.1,10.06,0.83,-0.07,0.01,-0.04,1.0,a
3251.0,3253.0,3888.0,3728.0,4085.0,3151.0,3292.0,3450.0,-0.03,10.01,0.82,-0.06,-0.01,-0.06,1.0,a
3267.0,3253.0,3873.0,3711.0,4083.0,3149.0,3296.0,3449.0,-0.13,9.97,0.85,-0.06,-0.0,-0.03,1.0,a
3251.0,3266.0,3893.0,3717.0,4095.0,3137.0,3303.0,3459.0,-0.03,10.05,0.83,-0.06,0.0,-0.04,1.0,a
3258.0,3248.0,3888.0,3702.0,4095.0,3149.0,3287.0,3455.0,0.03,10.03,0.79,-0.06,-0.0,-0.03,1.0,a
3254.0,3261.0,3879.0,3710.0,4095.0,3150.0,3295.0,3468.0,-0.03,10.02,0.85,-0.06,0.0,-0.05,1.0,a
3249.0,3255.0,3895.0,3696.0,4095.0,3152.0,3291.0,3457.0,-0.01,10.02,0.86,-0.07,0.0,-0.03,1.0,a
3259.0,3263.0,3878.0,3718.0,4088.0,3157.0,3286.0,3467.0,-0.0,9.99,0.84,-0.06,-0.01,-0.04,1.0,a
3259.0,3261.0,3890.0,3713.0,4085.0,3157.0,3283.0,3446.0,0.03,10.14,0.79,-0.05,0.0,-0.04,1.0,a
