hall_1,hall_2,hall_3,flex_t,flex_i,flex_m,flex_r,flex_p,accel_x,accel_y,accel_z,gyro_x,gyro_y,gyro_z,hand,sign
3441.0,3481.0,3472.0,3850.0,2586.0,2221.0,2423.0,2067.0,-0.43,9.85,4.72,0.02,0.03,-0.14,0.0,a
3441.0,3481.0,3472.0,3850.0,2586.0,2221.0,2423.0,2067.0,-0.43,9.85,4.72,0.02,0.03,-0.14,0.0,a
3441.0,3481.0,3472.0,3850.0,2586.0,2221.0,2423.0,2067.0,-0.43,9.85,4.72,0.02,0.03,-0.14,0.0,a
3441.0,3481.0,3472.0,3850.0,2586.0,2221.0,2423.0,2067.0,-0.43,9.85,4.72,0.02,0.03,-0.14,0.0,a
3441.0,3481.0,3472.0,3850.0,2586.0,2221.0,2423.0,2067.0,-0.43,9.85,4.72,0.02,0.03,-0.14,0.0,a
3441.0,3481.0,3472.0,3850.0,2586.0,2221.0,2423.0,2067.0,-0.43,9.85,4.72,0.02,0.03,-0.14,0.0,a
3441.0,3481.0,3472.0,3850.0,2586.0,2221.0,2423.0,2067.0,-0.43,9.85,4.72,0.02,0.03,-0.14,0.0,a
3441.0,3481.0,3472.0,3850.0,2586.0,2221.0,2423.0,2067.0,-0.43,9.85,4.72,0.02,0.03,-0.14,0.0,a
3441.0,3481.0,3472.0,3850.0,2586.0,2221.0,2423.0,2067.0,-0.43,9.85,4.72,0.02,0.03,-0.14,0.0,a
3441.0,3481.0,3472.0,3850.0,2586.0,2221.0,2423.0,2067.0,-0.43,9.85,4.72,0.02,0.03,-0.14,0.0,a
3441.0,3481.0,3472.0,3850.0,2586.0,2221.0,2423.0,2067.0,-0.43,9.85,4.72,0.02,0.03,-0.14,0.0,a
3441.0,3481.0,3472.0,3850.0,2586.0,2221.0,2423.0,2067.0,-0.43,9.85,4.72,0.02,0.03,-0.14,0.0,a
3441.0,3481.0,3472.0,3850.0,2586.0,2221.0,2423.0,2067.0,-0.43,9.85,4.72,0.02,0.03,-0.14,0.0,a
3441.0,3481.0,3472.0,3850.0,2586.0,2221.0,2423.0,2067.0,-0.43,9.85,4.72,0.02,0.03,-0.14,0.0,a
3441.0,3481.0,3472.0,3850.0,2586.0,2221.0,2423.0,2067.0,-0.43,9.85,4.72,0.02,0.03,-0.14,0.0,a
3441.0,3481.0,3472.0,3850.0,2586.0,2221.0,2423.0,2067.0,-0.43,9.85,4.72,0.02,0.03,-0.14,0.0,a
3441.0,3481.0,3472.0,3850.0,2586.0,2221.0,2423.0,2067.0,-0.43,9.85,4.72,0.02,0.03,-0.14,0.0,a
3441.0,3481.0,3472.0,3850.0,2586.0,2221.0,2423.0,2067.0,-0.43,9.85,4.72,0.02,0.03,-0.14,0.0,a
3441.0,3481.0,3472.0,3850.0,2586.0,2221.0,2423.0,2067.0,-0.43,9.85,4.72,0.02,0.03,-0.14,0.0,a
3441.0,3481.0,3472.0,3850.0,2586.0,2221.0,2423.0,2067.0,-0.43,9.85,4.72,0.02,0.03,-0.14,0.0,a
3450.0,3497.0,3478.0,3851.0,2592.0,2224.0,2430.0,2071.0,-0.54,9.95,4.6,-0.0,-0.04,-0.17,0.0,a
3450.0,3497.0,3478.0,3851.0,2592.0,2224.0,2430.0,2071.0,-0.54,9.95,4.6,-0.0,-0.04,-0.17,0.0,a
3450.0,3497.0,3478.0,3851.0,2592.0,2224.0,2430.0,2071.0,-0.54,9.95,4.6,-0.0,-0.04,-0.17,0.0,a
3450.0,3497.0,3478.0,3851.0,2592.0,2224.0,2430.0,2071.0,-0.54,9.95,4.6,-0.0,-0.04,-0.17,0.0,a
3450.0,3497.0,3478.0,3851.0,2592.0,2224.0,2430.0,2071.0,-0.54,9.95,4.6,-0.0,-0.04,-0.17,0.0,a
3450.0,3497.0,3478.0,3851.0,2592.0,2224.0,2430.0,2071.0,-0.54,9.95,4.6,-0.0,-0.04,-0.17,0.0,a
3450.0,3497.0,3478.0,3851.0,2592.0,2224.0,2430.0,2071.0,-0.54,9.95,4.6,-0.0,-0.04,-0.17,0.0,a
3450.0,3497.0,3478.0,3851.0,2592.0,2224.0,2430.0,2071.0,-0.54,9.95,4.6,-0.0,-0.04,-0.17,0.0,a
3450.0,3497.0,3478.0,3851.0,2592.0,2224.0,2430.0,2071.0,-0.54,9.95,4.6,-0.0,-0.04,-0.17,0.0,a
3450.0,3497.0,3478.0,3851.0,2592.0,2224.0,2430.0,2071.0,-0.54,9.95,4.6,-0.0,-0.04,-0.17,0.0,a
3450.0,3497.0,3478.0,3851.0,2592.0,2224.0,2430.0,2071.0,-0.54,9.95,4.6,-0.0,-0.04,-0.17,0.0,a
3450.0,3497.0,3478.0,3851.0,2592.0,2224.0,2430.0,2071.0,-0.54,9.95,4.6,-0.0,-0.04,-0.17,0.0,a
3450.0,3497.0,3478.0,3851.0,2592.0,2224.0,2430.0,2071.0,-0.54,9.95,4.6,-0.0,-0.04,-0.17,0.0,a
3450.0,3497.0,3478.0,3851.0,2592.0,2224.0,2430.0,2071.0,-0.54,9.95,4.6,-0.0,-0.04,-0.17,0.0,a
3450.0,3497.0,3478.0,3851.0,2592.0,2224.0,2430.0,2071.0,-0.54,9.95,4.6,-0.0,-0.04,-0.17,0.0,a
3450.0,3497.0,3478.0,3851.0,2592.0,2224.0,2430.0,2071.0,-0.54,9.95,4.6,-0.0,-0.04,-0.17,0.0,a
3450.0,3497.0,3478.0,3851.0,2592.0,2224.0,2430.0,2071.0,-0.54,9.95,4.6,-0.0,-0.04,-0.17,0.0,a
3450.0,3497.0,3478.0,3851.0,2592.0,2224.0,2430.0,2071.0,-0.54,9.95,4.6,-0.0,-0.04,-0.17,0.0,a
3450.0,3497.0,3478.0,3851.0,2592.0,2224.0,2430.0,2071.0,-0.54,9.95,4.6,-0.0,-0.04,-0.17,0.0,a
3450.0,3497.0,3478.0,3851.0,2592.0,2224.0,2430.0,2071.0,-0.54,9.95,4.6,-0.0,-0.04,-0.17,0.0,a
3451.0,3497.0,3460.0,3865.0,2599.0,2215.0,2416.0,2080.0,-0.83,9.87,4.81,-0.03,0.03,-0.2,0.0,a
3451.0,3497.0,3460.0,3865.0,2599.0,2215.0,2416.0,2080.0,-0.83,9.87,4.81,-0.03,0.03,-0.2,0.0,a
3451.0,3497.0,3460.0,3865.0,2599.0,2215.0,2416.0,2080.0,-0.83,9.87,4.81,-0.03,0.03,-0.2,0.0,a
3451.0,3497.0,3460.0,3865.0,2599.0,2215.0,2416.0,2080.0,-0.83,9.87,4.81,-0.03,0.03,-0.2,0.0,a
3451.0,3497.0,3460.0,3865.0,2599.0,2215.0,2416.0,2080.0,-0.83,9.87,4.81,-0.03,0.03,-0.2,0.0,a
3451.0,3497.0,3460.0,3865.0,2599.0,2215.0,2416.0,2080.0,-0.83,9.87,4.81,-0.03,0.03,-0.2,0.0,a
3451.0,3497.0,3460.0,3865.0,2599.0,2215.0,2416.0,2080.0,-0.83,9.87,4.81,-0.03,0.03,-0.2,0.0,a
3451.0,3497.0,3460.0,3865.0,2599.0,2215.0,2416.0,2080.0,-0.83,9.87,4.81,-0.03,0.03,-0.2,0.0,a
3451.0,3497.0,3460.0,3865.0,2599.0,2215.0,2416.0,2080.0,-0.83,9.87,4.81,-0.03,0.03,-0.2,0.0,a
3451.0,3497.0,3460.0,3865.0,2599.0,2215.0,2416.0,2080.0,-0.83,9.87,4.81,-0.03,0.03,-0.2,0.0,a
3451.0,3497.0,3460.0,3865.0,2599.0,2215.0,2416.0,2080.0,-0.83,9.87,4.81,-0.03,0.03,-0.2,0.0,a
3451.0,3497.0,3460.0,3865.0,2599.0,2215.0,2416.0,2080.0,-0.83,9.87,4.81,-0.03,0.03,-0.2,0.0,a
3451.0,3497.0,3460.0,3865.0,2599.0,2215.0,2416.0,2080.0,-0.83,9.87,4.81,-0.03,0.03,-0.2,0.0,a
3451.0,3497.0,3460.0,3865.0,2599.0,2215.0,2416.0,2080.0,-0.83,9.87,4.81,-0.03,0.03,-0.2,0.0,a
3451.0,3497.0,3460.0,3865.0,2599.0,2215.0,2416.0,2080.0,-0.83,9.87,4.81,-0.03,0.03,-0.2,0.0,a
3451.0,3497.0,3460.0,3865.0,2599.0,2215.0,2416.0,2080.0,-0.83,9.87,4.81,-0.03,0.03,-0.2,0.0,a
3451.0,3497.0,3460.0,3865.0,2599.0,2215.0,2416.0,2080.0,-0.83,9.87,4.81,-0.03,0.03,-0.2,0.0,a
3451.0,3497.0,3460.0,3865.0,2599.0,2215.0,2416.0,2080.0,-0.83,9.87,4.81,-0.03,0.03,-0.2,0.0,a
3451.0,3497.0,3460.0,3865.0,2599.0,2215.0,2416.0,2080.0,-0.83,9.87,4.81,-0.03,0.03,-0.2,0.0,a
3451.0,3497.0,3460.0,3865.0,2599.0,2215.0,2416.0,2080.0,-0.83,9.87,4.81,-0.03,0.03,-0.2,0.0,a
3437.0,3498.0,3465.0,3855.0,2593.0,2221.0,2432.0,2089.0,-0.64,9.79,4.81,0.03,-0.03,-0.14,0.0,a
3437.0,3498.0,3465.0,3855.0,2593.0,2221.0,2432.0,2089.0,-0.64,9.79,4.81,0.03,-0.03,-0.14,0.0,a
3437.0,3498.0,3465.0,3855.0,2593.0,2221.0,2432.0,2089.0,-0.64,9.79,4.81,0.03,-0.03,-0.14,0.0,a
3437.0,3498.0,3465.0,3855.0,2593.0,2221.0,2432.0,2089.0,-0.64,9.79,4.81,0.03,-0.03,-0.14,0.0,a
3437.0,3498.0,3465.0,3855.0,2593.0,2221.0,2432.0,2089.0,-0.64,9.79,4.81,0.03,-0.03,-0.14,0.0,a
3437.0,3498.0,3465.0,3855.0,2593.0,2221.0,2432.0,2089.0,-0.64,9.79,4.81,0.03,-0.03,-0.14,0.0,a
3437.0,3498.0,3465.0,3855.0,2593.0,2221.0,2432.0,2089.0,-0.64,9.79,4.81,0.03,-0.03,-0.14,0.0,a
3437.0,3498.0,3465.0,3855.0,2593.0,2221.0,2432.0,2089.0,-0.64,9.79,4.81,0.03,-0.03,-0.14,0.0,a
3437.0,3498.0,3465.0,3855.0,2593.0,2221.0,2432.0,2089.0,-0.64,9.79,4.81,0.03,-0.03,-0.14,0.0,a
3437.0,3498.0,3465.0,3855.0,2593.0,2221.0,2432.0,2089.0,-0.64,9.79,4.81,0.03,-0.03,-0.14,0.0,a
3437.0,3498.0,3465.0,3855.0,2593.0,2221.0,2432.0,2089.0,-0.64,9.79,4.81,0.03,-0.03,-0.14,0.0,a
3437.0,3498.0,3465.0,3855.0,2593.0,2221.0,2432.0,2089.0,-0.64,9.79,4.81,0.03,-0.03,-0.14,0.0,a
3437.0,3498.0,3465.0,3855.0,2593.0,2221.0,2432.0,2089.0,-0.64,9.79,4.81,0.03,-0.03,-0.14,0.0,a
3437.0,3498.0,3465.0,3855.0,2593.0,2221.0,2432.0,2089.0,-0.64,9.79,4.81,0.03,-0.03,-0.14,0.0,a
3437.0,3498.0,3465.0,3855.0,2593.0,2221.0,2432.0,2089.0,-0.64,9.79,4.81,0.03,-0.03,-0.14,0.0,a
3437.0,3498.0,3465.0,3855.0,2593.0,2221.0,2432.0,2089.0,-0.64,9.79,4.81,0.03,-0.03,-0.14,0.0,a
3437.0,3498.0,3465.0,3855.0,2593.0,2221.0,2432.0,2089.0,-0.64,9.79,4.81,0.03,-0.03,-0.14,0.0,a
3437.0,3498.0,3465.0,3855.0,2593.0,2221.0,2432.0,2089.0,-0.64,9.79,4.81,0.03,-0.03,-0.14,0.0,a
3437.0,3498.0,3465.0,3855.0,2593.0,2221.0,2432.0,2089.0,-0.64,9.79,4.81,0.03,-0.03,-0.14,0.0,a
3437.0,3498.0,3465.0,3855.0,2593.0,2221.0,2432.0,2089.0,-0.64,9.79,4.81,0.03,-0.03,-0.14,0.0,a
3440.0,3475.0,3460.0,3869.0,2594.0,2223.0,2427.0,2079.0,-0.71,9.92,4.96,0.01,0.02,-0.15,0.0,a
3440.0,3475.0,3460.0,3869.0,2594.0,2223.0,2427.0,2079.0,-0.71,9.92,4.96,0.01,0.02,-0.15,0.0,a
3440.0,3475.0,3460.0,3869.0,2594.0,2223.0,2427.0,2079.0,-0.71,9.92,4.96,0.01,0.02,-0.15,0.0,a
3440.0,3475.0,3460.0,3869.0,2594.0,2223.0,2427.0,2079.0,-0.71,9.92,4.96,0.01,0.02,-0.15,0.0,a
3440.0,3475.0,3460.0,3869.0,2594.0,2223.0,2427.0,2079.0,-0.71,9.92,4.96,0.01,0.02,-0.15,0.0,a
3440.0,3475.0,3460.0,3869.0,2594.0,2223.0,2427.0,2079.0,-0.71,9.92,4.96,0.01,0.02,-0.15,0.0,a
3440.0,3475.0,3460.0,3869.0,2594.0,2223.0,2427.0,2079.0,-0.71,9.92,4.96,0.01,0.02,-0.15,0.0,a
3440.0,3475.0,3460.0,3869.0,2594.0,2223.0,2427.0,2079.0,-0.71,9.92,4.96,0.01,0.02,-0.15,0.0,a
3440.0,3475.0,3460.0,3869.0,2594.0,2223.0,2427.0,2079.0,-0.71,9.92,4.96,0.01,0.02,-0.15,0.0,a
3440.0,3475.0,3460.0,3869.0,2594.0,2223.0,2427.0,2079.0,-0.71,9.92,4.96,0.01,0.02,-0.15,0.0,a
3440.0,3475.0,3460.0,3869.0,2594.0,2223.0,2427.0,2079.0,-0.71,9.92,4.96,0.01,0.02,-0.15,0.0,a
3440.0,3475.0,3460.0,3869.0,2594.0,2223.0,2427.0,2079.0,-0.71,9.92,4.96,0.01,0.02,-0.15,0.0,a
3440.0,3475.0,3460.0,3869.0,2594.0,2223.0,2427.0,2079.0,-0.71,9.92,4.96,0.01,0.02,-0.15,0.0,a
3440.0,3475.0,3460.0,3869.0,2594.0,2223.0,2427.0,2079.0,-0.71,9.92,4.96,0.01,0.02,-0.15,0.0,a
3440.0,3475.0,3460.0,3869.0,2594.0,2223.0,2427.0,2079.0,-0.71,9.92,4.96,0.01,0.02,-0.15,0.0,a
3440.0,3475.0,3460.0,3869.0,2594.0,2223.0,2427.0,2079.0,-0.71,9.92,4.96,0.01,0.02,-0.15,0.0,a
3440.0,3475.0,3460.0,3869.0,2594.0,2223.0,2427.0,2079.0,-0.71,9.92,4.96,0.01,0.02,-0.15,0.0,a
3440.0,3475.0,3460.0,3869.0,2594.0,2223.0,2427.0,2079.0,-0.71,9.92,4.96,0.01,0.02,-0.15,0.0,a
3440.0,3475.0,3460.0,3869.0,2594.0,2223.0,2427.0,2079.0,-0.71,9.92,4.96,0.01,0.02,-0.15,0.0,a
3440.0,3475.0,3460.0,3869.0,2594.0,2223.0,2427.0,2079.0,-0.71,9.92,4.96,0.01,0.02,-0.15,0.0,a
3449.0,3484.0,3472.0,3849.0,2602.0,2219.0,2426.0,2085.0,-0.51,9.83,4.75,0.08,-0.02,-0.14,0.0,a
3449.0,3484.0,3472.0,3849.0,2602.0,2219.0,2426.0,2085.0,-0.51,9.83,4.75,0.08,-0.02,-0.14,0.0,a
3449.0,3484.0,3472.0,3849.0,2602.0,2219.0,2426.0,2085.0,-0.51,9.83,4.75,0.08,-0.02,-0.14,0.0,a
3449.0,3484.0,3472.0,3849.0,2602.0,2219.0,2426.0,2085.0,-0.51,9.83,4.75,0.08,-0.02,-0.14,0.0,a
3449.0,3484.0,3472.0,3849.0,2602.0,2219.0,2426.0,2085.0,-0.51,9.83,4.75,0.08,-0.02,-0.14,0.0,a
3449.0,3484.0,3472.0,3849.0,2602.0,2219.0,2426.0,2085.0,-0.51,9.83,4.75,0.08,-0.02,-0.14,0.0,a
3449.0,3484.0,3472.0,3849.0,2602.0,2219.0,2426.0,2085.0,-0.51,9.83,4.75,0.08,-0.02,-0.14,0.0,a
3449.0,3484.0,3472.0,3849.0,2602.0,2219.0,2426.0,2085.0,-0.51,9.83,4.75,0.08,-0.02,-0.14,0.0,a
3449.0,3484.0,3472.0,3849.0,2602.0,2219.0,2426.0,2085.0,-0.51,9.83,4.75,0.08,-0.02,-0.14,0.0,a
3449.0,3484.0,3472.0,3849.0,2602.0,2219.0,2426.0,2085.0,-0.51,9.83,4.75,0.08,-0.02,-0.14,0.0,a
3449.0,3484.0,3472.0,3849.0,2602.0,2219.0,2426.0,2085.0,-0.51,9.83,4.75,0.08,-0.02,-0.14,0.0,a
3449.0,3484.0,3472.0,3849.0,2602.0,2219.0,2426.0,2085.0,-0.51,9.83,4.75,0.08,-0.02,-0.14,0.0,a
3449.0,3484.0,3472.0,3849.0,2602.0,2219.0,2426.0,2085.0,-0.51,9.83,4.75,0.08,-0.02,-0.14,0.0,a
3449.0,3484.0,3472.0,3849.0,2602.0,2219.0,2426.0,2085.0,-0.51,9.83,4.75,0.08,-0.02,-0.14,0.0,a
3449.0,3484.0,3472.0,3849.0,2602.0,2219.0,2426.0,2085.0,-0.51,9.83,4.75,0.08,-0.02,-0.14,0.0,a
3449.0,3484.0,3472.0,3849.0,2602.0,2219.0,2426.0,2085.0,-0.51,9.83,4.75,0.08,-0.02,-0.14,0.0,a
3449.0,3484.0,3472.0,3849.0,2602.0,2219.0,2426.0,2085.0,-0.51,9.83,4.75,0.08,-0.02,-0.14,0.0,a
3449.0,3484.0,3472.0,3849.0,2602.0,2219.0,2426.0,2085.0,-0.51,9.83,4.75,0.08,-0.02,-0.14,0.0,a
3449.0,3484.0,3472.0,3849.0,2602.0,2219.0,2426.0,2085.0,-0.51,9.83,4.75,0.08,-0.02,-0.14,0.0,a
3449.0,3484.0,3472.0,3849.0,2602.0,2219.0,2426.0,2085.0,-0.51,9.83,4.75,0.08,-0.02,-0.14,0.0,a
3453.0,3502.0,3472.0,3862.0,2606.0,2217.0,2426.0,2082.0,-0.71,9.82,4.59,0.05,-0.02,-0.16,0.0,a
3453.0,3502.0,3472.0,3862.0,2606.0,2217.0,2426.0,2082.0,-0.71,9.82,4.59,0.05,-0.02,-0.16,0.0,a
3453.0,3502.0,3472.0,3862.0,2606.0,2217.0,2426.0,2082.0,-0.71,9.82,4.59,0.05,-0.02,-0.16,0.0,a
3453.0,3502.0,3472.0,3862.0,2606.0,2217.0,2426.0,2082.0,-0.71,9.82,4.59,0.05,-0.02,-0.16,0.0,a
3453.0,3502.0,3472.0,3862.0,2606.0,2217.0,2426.0,2082.0,-0.71,9.82,4.59,0.05,-0.02,-0.16,0.0,a
3453.0,3502.0,3472.0,3862.0,2606.0,2217.0,2426.0,2082.0,-0.71,9.82,4.59,0.05,-0.02,-0.16,0.0,a
3453.0,3502.0,3472.0,3862.0,2606.0,2217.0,2426.0,2082.0,-0.71,9.82,4.59,0.05,-0.02,-0.16,0.0,a
3453.0,3502.0,3472.0,3862.0,2606.0,2217.0,2426.0,2082.0,-0.71,9.82,4.59,0.05,-0.02,-0.16,0.0,a
3453.0,3502.0,3472.0,3862.0,2606.0,2217.0,2426.0,2082.0,-0.71,9.82,4.59,0.05,-0.02,-0.16,0.0,a
3453.0,3502.0,3472.0,3862.0,2606.0,2217.0,2426.0,2082.0,-0.71,9.82,4.59,0.05,-0.02,-0.16,0.0,a
3453.0,3502.0,3472.0,3862.0,2606.0,2217.0,2426.0,2082.0,-0.71,9.82,4.59,0.05,-0.02,-0.16,0.0,a
3453.0,3502.0,3472.0,3862.0,2606.0,2217.0,2426.0,2082.0,-0.71,9.82,4.59,0.05,-0.02,-0.16,0.0,a
3453.0,3502.0,3472.0,3862.0,2606.0,2217.0,2426.0,2082.0,-0.71,9.82,4.59,0.05,-0.02,-0.16,0.0,a
3453.0,3502.0,3472.0,3862.0,2606.0,2217.0,2426.0,2082.0,-0.71,9.82,4.59,0.05,-0.02,-0.16,0.0,a
3453.0,3502.0,3472.0,3862.0,2606.0,2217.0,2426.0,2082.0,-0.71,9.82,4.59,0.05,-0.02,-0.16,0.0,a
3453.0,3502.0,3472.0,3862.0,2606.0,2217.0,2426.0,2082.0,-0.71,9.82,4.59,0.05,-0.02,-0.16,0.0,a
3453.0,3502.0,3472.0,3862.0,2606.0,2217.0,2426.0,2082.0,-0.71,9.82,4.59,0.05,-0.02,-0.16,0.0,a
3453.0,3502.0,3472.0,3862.0,2606.0,2217.0,2426.0,2082.0,-0.71,9.82,4.59,0.05,-0.02,-0.16,0.0,a
3453.0,3502.0,3472.0,3862.0,2606.0,2217.0,2426.0,2082.0,-0.71,9.82,4.59,0.05,-0.02,-0.16,0.0,a
3453.0,3502.0,3472.0,3862.0,2606.0,2217.0,2426.0,2082.0,-0.71,9.82,4.59,0.05,-0.02,-0.16,0.0,a
3443.0,3482.0,3458.0,3867.0,2596.0,2223.0,2435.0,2080.0,-0.6,9.78,4.57,-0.02,0.03,-0.15,0.0,a
3443.0,3482.0,3458.0,3867.0,2596.0,2223.0,2435.0,2080.0,-0.6,9.78,4.57,-0.02,0.03,-0.15,0.0,a
3443.0,3482.0,3458.0,3867.0,2596.0,2223.0,2435.0,2080.0,-0.6,9.78,4.57,-0.02,0.03,-0.15,0.0,a
3443.0,3482.0,3458.0,3867.0,2596.0,2223.0,2435.0,2080.0,-0.6,9.78,4.57,-0.02,0.03,-0.15,0.0,a
3443.0,3482.0,3458.0,3867.0,2596.0,2223.0,2435.0,2080.0,-0.6,9.78,4.57,-0.02,0.03,-0.15,0.0,a
3443.0,3482.0,3458.0,3867.0,2596.0,2223.0,2435.0,2080.0,-0.6,9.78,4.57,-0.02,0.03,-0.15,0.0,a
3443.0,3482.0,3458.0,3867.0,2596.0,2223.0,2435.0,2080.0,-0.6,9.78,4.57,-0.02,0.03,-0.15,0.0,a
3443.0,3482.0,3458.0,3867.0,2596.0,2223.0,2435.0,2080.0,-0.6,9.78,4.57,-0.02,0.03,-0.15,0.0,a
3443.0,3482.0,3458.0,3867.0,2596.0,2223.0,2435.0,2080.0,-0.6,9.78,4.57,-0.02,0.03,-0.15,0.0,a
3443.0,3482.0,3458.0,3867.0,2596.0,2223.0,2435.0,2080.0,-0.6,9.78,4.57,-0.02,0.03,-0.15,0.0,a
3443.0,3482.0,3458.0,3867.0,2596.0,2223.0,2435.0,2080.0,-0.6,9.78,4.57,-0.02,0.03,-0.15,0.0,a
3443.0,3482.0,3458.0,3867.0,2596.0,2223.0,2435.0,2080.0,-0.6,9.78,4.57,-0.02,0.03,-0.15,0.0,a
3443.0,3482.0,3458.0,3867.0,2596.0,2223.0,2435.0,2080.0,-0.6,9.78,4.57,-0.02,0.03,-0.15,0.0,a
3443.0,3482.0,3458.0,3867.0,2596.0,2223.0,2435.0,2080.0,-0.6,9.78,4.57,-0.02,0.03,-0.15,0.0,a
3443.0,3482.0,3458.0,3867.0,2596.0,2223.0,2435.0,2080.0,-0.6,9.78,4.57,-0.02,0.03,-0.15,0.0,a
3443.0,3482.0,3458.0,3867.0,2596.0,2223.0,2435.0,2080.0,-0.6,9.78,4.57,-0.02,0.03,-0.15,0.0,a
3443.0,3482.0,3458.0,3867.0,2596.0,2223.0,2435.0,2080.0,-0.6,9.78,4.57,-0.02,0.03,-0.15,0.0,a
3443.0,3482.0,3458.0,3867.0,2596.0,2223.0,2435.0,2080.0,-0.6,9.78,4.57,-0.02,0.03,-0.15,0.0,a
3443.0,3482.0,3458.0,3867.0,2596.0,2223.0,2435.0,2080.0,-0.6,9.78,4.57,-0.02,0.03,-0.15,0.0,a
3443.0,3482.0,3458.0,3867.0,2596.0,2223.0,2435.0,2080.0,-0.6,9.78,4.57,-0.02,0.03,-0.15,0.0,a
3456.0,3483.0,3457.0,3866.0,2602.0,2227.0,2437.0,2095.0,-0.43,9.84,4.75,-0.06,-0.04,-0.17,0.0,a
3456.0,3483.0,3457.0,3866.0,2602.0,2227.0,2437.0,2095.0,-0.43,9.84,4.75,-0.06,-0.04,-0.17,0.0,a
3456.0,3483.0,3457.0,3866.0,2602.0,2227.0,2437.0,2095.0,-0.43,9.84,4.75,-0.06,-0.04,-0.17,0.0,a
3456.0,3483.0,3457.0,3866.0,2602.0,2227.0,2437.0,2095.0,-0.43,9.84,4.75,-0.06,-0.04,-0.17,0.0,a
3456.0,3483.0,3457.0,3866.0,2602.0,2227.0,2437.0,2095.0,-0.43,9.84,4.75,-0.06,-0.04,-0.17,0.0,a
3456.0,3483.0,3457.0,3866.0,2602.0,2227.0,2437.0,2095.0,-0.43,9.84,4.75,-0.06,-0.04,-0.17,0.0,a
3456.0,3483.0,3457.0,3866.0,2602.0,2227.0,2437.0,2095.0,-0.43,9.84,4.75,-0.06,-0.04,-0.17,0.0,a
3456.0,3483.0,3457.0,3866.0,2602.0,2227.0,2437.0,2095.0,-0.43,9.84,4.75,-0.06,-0.04,-0.17,0.0,a
3456.0,3483.0,3457.0,3866.0,2602.0,2227.0,2437.0,2095.0,-0.43,9.84,4.75,-0.06,-0.04,-0.17,0.0,a
3456.0,3483.0,3457.0,3866.0,2602.0,2227.0,2437.0,2095.0,-0.43,9.84,4.75,-0.06,-0.04,-0.17,0.0,a
3456.0,3483.0,3457.0,3866.0,2602.0,2227.0,2437.0,2095.0,-0.43,9.84,4.75,-0.06,-0.04,-0.17,0.0,a
3456.0,3483.0,3457.0,3866.0,2602.0,2227.0,2437.0,2095.0,-0.43,9.84,4.75,-0.06,-0.04,-0.17,0.0,a
3456.0,3483.0,3457.0,3866.0,2602.0,2227.0,2437.0,2095.0,-0.43,9.84,4.75,-0.06,-0.04,-0.17,0.0,a
3456.0,3483.0,3457.0,3866.0,2602.0,2227.0,2437.0,2095.0,-0.43,9.84,4.75,-0.06,-0.04,-0.17,0.0,a
3456.0,3483.0,3457.0,3866.0,2602.0,2227.0,2437.0,2095.0,-0.43,9.84,4.75,-0.06,-0.04,-0.17,0.0,a
3456.0,3483.0,3457.0,3866.0,2602.0,2227.0,2437.0,2095.0,-0.43,9.84,4.75,-0.06,-0.04,-0.17,0.0,a
3456.0,3483.0,3457.0,3866.0,2602.0,2227.0,2437.0,2095.0,-0.43,9.84,4.75,-0.06,-0.04,-0.17,0.0,a
3456.0,3483.0,3457.0,3866.0,2602.0,2227.0,2437.0,2095.0,-0.43,9.84,4.75,-0.06,-0.04,-0.17,0.0,a
3456.0,3483.0,3457.0,3866.0,2602.0,2227.0,2437.0,2095.0,-0.43,9.84,4.75,-0.06,-0.04,-0.17,0.0,a
3456.0,3483.0,3457.0,3866.0,2602.0,2227.0,2437.0,2095.0,-0.43,9.84,4.75,-0.06,-0.04,-0.17,0.0,a
3454.0,3489.0,3473.0,3861.0,2608.0,2224.0,2437.0,2090.0,-0.57,10.13,4.74,-0.12,-0.02,-0.22,0.0,a
3454.0,3489.0,3473.0,3861.0,2608.0,2224.0,2437.0,2090.0,-0.57,10.13,4.74,-0.12,-0.02,-0.22,0.0,a
3454.0,3489.0,3473.0,3861.0,2608.0,2224.0,2437.0,2090.0,-0.57,10.13,4.74,-0.12,-0.02,-0.22,0.0,a
3454.0,3489.0,3473.0,3861.0,2608.0,2224.0,2437.0,2090.0,-0.57,10.13,4.74,-0.12,-0.02,-0.22,0.0,a
3454.0,3489.0,3473.0,3861.0,2608.0,2224.0,2437.0,2090.0,-0.57,10.13,4.74,-0.12,-0.02,-0.22,0.0,a
3454.0,3489.0,3473.0,3861.0,2608.0,2224.0,2437.0,2090.0,-0.57,10.13,4.74,-0.12,-0.02,-0.22,0.0,a
3454.0,3489.0,3473.0,3861.0,2608.0,2224.0,2437.0,2090.0,-0.57,10.13,4.74,-0.12,-0.02,-0.22,0.0,a
3454.0,3489.0,3473.0,3861.0,2608.0,2224.0,2437.0,2090.0,-0.57,10.13,4.74,-0.12,-0.02,-0.22,0.0,a
3454.0,3489.0,3473.0,3861.0,2608.0,2224.0,2437.0,2090.0,-0.57,10.13,4.74,-0.12,-0.02,-0.22,0.0,a
3454.0,3489.0,3473.0,3861.0,2608.0,2224.0,2437.0,2090.0,-0.57,10.13,4.74,-0.12,-0.02,-0.22,0.0,a
3454.0,3489.0,3473.0,3861.0,2608.0,2224.0,2437.0,2090.0,-0.57,10.13,4.74,-0.12,-0.02,-0.22,0.0,a
3454.0,3489.0,3473.0,3861.0,2608.0,2224.0,2437.0,2090.0,-0.57,10.13,4.74,-0.12,-0.02,-0.22,0.0,a
3454.0,3489.0,3473.0,3861.0,2608.0,2224.0,2437.0,2090.0,-0.57,10.13,4.74,-0.12,-0.02,-0.22,0.0,a
3454.0,3489.0,3473.0,3861.0,2608.0,2224.0,2437.0,2090.0,-0.57,10.13,4.74,-0.12,-0.02,-0.22,0.0,a
3454.0,3489.0,3473.0,3861.0,2608.0,2224.0,2437.0,2090.0,-0.57,10.13,4.74,-0.12,-0.02,-0.22,0.0,a
3454.0,3489.0,3473.0,3861.0,2608.0,2224.0,2437.0,2090.0,-0.57,10.13,4.74,-0.12,-0.02,-0.22,0.0,a
3454.0,3489.0,3473.0,3861.0,2608.0,2224.0,2437.0,2090.0,-0.57,10.13,4.74,-0.12,-0.02,-0.22,0.0,a
3454.0,3489.0,3473.0,3861.0,2608.0,2224.0,2437.0,2090.0,-0.57,10.13,4.74,-0.12,-0.02,-0.22,0.0,a
3454.0,3489.0,3473.0,3861.0,2608.0,2224.0,2437.0,2090.0,-0.57,10.13,4.74,-0.12,-0.02,-0.22,0.0,a
3454.0,3489.0,3473.0,3861.0,2608.0,2224.0,2437.0,2090.0,-0.57,10.13,4.74,-0.12,-0.02,-0.22,0.0,a
3455.0,3490.0,3478.0,3885.0,2599.0,2229.0,2434.0,2097.0,-0.81,9.79,5.6,-0.02,0.02,-0.21,0.0,a
3455.0,3490.0,3478.0,3885.0,2599.0,2229.0,2434.0,2097.0,-0.81,9.79,5.6,-0.02,0.02,-0.21,0.0,a
3455.0,3490.0,3478.0,3885.0,2599.0,2229.0,2434.0,2097.0,-0.81,9.79,5.6,-0.02,0.02,-0.21,0.0,a
3455.0,3490.0,3478.0,3885.0,2599.0,2229.0,2434.0,2097.0,-0.81,9.79,5.6,-0.02,0.02,-0.21,0.0,a
3455.0,3490.0,3478.0,3885.0,2599.0,2229.0,2434.0,2097.0,-0.81,9.79,5.6,-0.02,0.02,-0.21,0.0,a
3455.0,3490.0,3478.0,3885.0,2599.0,2229.0,2434.0,2097.0,-0.81,9.79,5.6,-0.02,0.02,-0.21,0.0,a
3455.0,3490.0,3478.0,3885.0,2599.0,2229.0,2434.0,2097.0,-0.81,9.79,5.6,-0.02,0.02,-0.21,0.0,a
3455.0,3490.0,3478.0,3885.0,2599.0,2229.0,2434.0,2097.0,-0.81,9.79,5.6,-0.02,0.02,-0.21,0.0,a
3455.0,3490.0,3478.0,3885.0,2599.0,2229.0,2434.0,2097.0,-0.81,9.79,5.6,-0.02,0.02,-0.21,0.0,a
3455.0,3490.0,3478.0,3885.0,2599.0,2229.0,2434.0,2097.0,-0.81,9.79,5.6,-0.02,0.02,-0.21,0.0,a
3455.0,3490.0,3478.0,3885.0,2599.0,2229.0,2434.0,2097.0,-0.81,9.79,5.6,-0.02,0.02,-0.21,0.0,a
3455.0,3490.0,3478.0,3885.0,2599.0,2229.0,2434.0,2097.0,-0.81,9.79,5.6,-0.02,0.02,-0.21,0.0,a
3455.0,3490.0,3478.0,3885.0,2599.0,2229.0,2434.0,2097.0,-0.81,9.79,5.6,-0.02,0.02,-0.21,0.0,a
3455.0,3490.0,3478.0,3885.0,2599.0,2229.0,2434.0,2097.0,-0.81,9.79,5.6,-0.02,0.02,-0.21,0.0,a
3455.0,3490.0,3478.0,3885.0,2599.0,2229.0,2434.0,2097.0,-0.81,9.79,5.6,-0.02,0.02,-0.21,0.0,a
3455.0,3490.0,3478.0,3885.0,2599.0,2229.0,2434.0,2097.0,-0.81,9.79,5.6,-0.02,0.02,-0.21,0.0,a
3455.0,3490.0,3478.0,3885.0,2599.0,2229.0,2434.0,2097.0,-0.81,9.79,5.6,-0.02,0.02,-0.21,0.0,a
3455.0,3490.0,3478.0,3885.0,2599.0,2229.0,2434.0,2097.0,-0.81,9.79,5.6,-0.02,0.02,-0.21,0.0,a
3455.0,3490.0,3478.0,3885.0,2599.0,2229.0,2434.0,2097.0,-0.81,9.79,5.6,-0.02,0.02,-0.21,0.0,a
3455.0,3490.0,3478.0,3885.0,2599.0,2229.0,2434.0,2097.0,-0.81,9.79,5.6,-0.02,0.02,-0.21,0.0,a
3450.0,3507.0,3466.0,3884.0,2598.0,2224.0,2415.0,2096.0,-0.96,9.59,4.91,0.05,0.07,-0.2,0.0,a
3450.0,3507.0,3466.0,3884.0,2598.0,2224.0,2415.0,2096.0,-0.96,9.59,4.91,0.05,0.07,-0.2,0.0,a
3450.0,3507.0,3466.0,3884.0,2598.0,2224.0,2415.0,2096.0,-0.96,9.59,4.91,0.05,0.07,-0.2,0.0,a
3450.0,3507.0,3466.0,3884.0,2598.0,2224.0,2415.0,2096.0,-0.96,9.59,4.91,0.05,0.07,-0.2,0.0,a
3450.0,3507.0,3466.0,3884.0,2598.0,2224.0,2415.0,2096.0,-0.96,9.59,4.91,0.05,0.07,-0.2,0.0,a
3450.0,3507.0,3466.0,3884.0,2598.0,2224.0,2415.0,2096.0,-0.96,9.59,4.91,0.05,0.07,-0.2,0.0,a
3450.0,3507.0,3466.0,3884.0,2598.0,2224.0,2415.0,2096.0,-0.96,9.59,4.91,0.05,0.07,-0.2,0.0,a
3450.0,3507.0,3466.0,3884.0,2598.0,2224.0,2415.0,2096.0,-0.96,9.59,4.91,0.05,0.07,-0.2,0.0,a
3450.0,3507.0,3466.0,3884.0,2598.0,2224.0,2415.0,2096.0,-0.96,9.59,4.91,0.05,0.07,-0.2,0.0,a
3450.0,3507.0,3466.0,3884.0,2598.0,2224.0,2415.0,2096.0,-0.96,9.59,4.91,0.05,0.07,-0.2,0.0,a
3450.0,3507.0,3466.0,3884.0,2598.0,2224.0,2415.0,2096.0,-0.96,9.59,4.91,0.05,0.07,-0.2,0.0,a
3450.0,3507.0,3466.0,3884.0,2598.0,2224.0,2415.0,2096.0,-0.96,9.59,4.91,0.05,0.07,-0.2,0.0,a
3450.0,3507.0,3466.0,3884.0,2598.0,2224.0,2415.0,2096.0,-0.96,9.59,4.91,0.05,0.07,-0.2,0.0,a
3450.0,3507.0,3466.0,3884.0,2598.0,2224.0,2415.0,2096.0,-0.96,9.59,4.91,0.05,0.07,-0.2,0.0,a
3450.0,3507.0,3466.0,3884.0,2598.0,2224.0,2415.0,2096.0,-0.96,9.59,4.91,0.05,0.07,-0.2,0.0,a
3450.0,3507.0,3466.0,3884.0,2598.0,2224.0,2415.0,2096.0,-0.96,9.59,4.91,0.05,0.07,-0.2,0.0,a
3450.0,3507.0,3466.0,3884.0,2598.0,2224.0,2415.0,2096.0,-0.96,9.59,4.91,0.05,0.07,-0.2,0.0,a
3450.0,3507.0,3466.0,3884.0,2598.0,2224.0,2415.0,2096.0,-0.96,9.59,4.91,0.05,0.07,-0.2,0.0,a
3450.0,3507.0,3466.0,3884.0,2598.0,2224.0,2415.0,2096.0,-0.96,9.59,4.91,0.05,0.07,-0.2,0.0,a
3450.0,3507.0,3466.0,3884.0,2598.0,2224.0,2415.0,2096.0,-0.96,9.59,4.91,0.05,0.07,-0.2,0.0,a
3435.0,3495.0,3472.0,3856.0,2607.0,2235.0,2445.0,2097.0,-0.91,9.88,4.81,-0.0,0.07,-0.17,0.0,a
3435.0,3495.0,3472.0,3856.0,2607.0,2235.0,2445.0,2097.0,-0.91,9.88,4.81,-0.0,0.07,-0.17,0.0,a
3435.0,3495.0,3472.0,3856.0,2607.0,2235.0,2445.0,2097.0,-0.91,9.88,4.81,-0.0,0.07,-0.17,0.0,a
3435.0,3495.0,3472.0,3856.0,2607.0,2235.0,2445.0,2097.0,-0.91,9.88,4.81,-0.0,0.07,-0.17,0.0,a
3435.0,3495.0,3472.0,3856.0,2607.0,2235.0,2445.0,2097.0,-0.91,9.88,4.81,-0.0,0.07,-0.17,0.0,a
3435.0,3495.0,3472.0,3856.0,2607.0,2235.0,2445.0,2097.0,-0.91,9.88,4.81,-0.0,0.07,-0.17,0.0,a
3435.0,3495.0,3472.0,3856.0,2607.0,2235.0,2445.0,2097.0,-0.91,9.88,4.81,-0.0,0.07,-0.17,0.0,a
3435.0,3495.0,3472.0,3856.0,2607.0,2235.0,2445.0,2097.0,-0.91,9.88,4.81,-0.0,0.07,-0.17,0.0,a
3435.0,3495.0,3472.0,3856.0,2607.0,2235.0,2445.0,2097.0,-0.91,9.88,4.81,-0.0,0.07,-0.17,0.0,a
3435.0,3495.0,3472.0,3856.0,2607.0,2235.0,2445.0,2097.0,-0.91,9.88,4.81,-0.0,0.07,-0.17,0.0,a
3435.0,3495.0,3472.0,3856.0,2607.0,2235.0,2445.0,2097.0,-0.91,9.88,4.81,-0.0,0.07,-0.17,0.0,a
3435.0,3495.0,3472.0,3856.0,2607.0,2235.0,2445.0,2097.0,-0.91,9.88,4.81,-0.0,0.07,-0.17,0.0,a
3435.0,3495.0,3472.0,3856.0,2607.0,2235.0,2445.0,2097.0,-0.91,9.88,4.81,-0.0,0.07,-0.17,0.0,a
3435.0,3495.0,3472.0,3856.0,2607.0,2235.0,2445.0,2097.0,-0.91,9.88,4.81,-0.0,0.07,-0.17,0.0,a
3435.0,3495.0,3472.0,3856.0,2607.0,2235.0,2445.0,2097.0,-0.91,9.88,4.81,-0.0,0.07,-0.17,0.0,a
3435.0,3495.0,3472.0,3856.0,2607.0,2235.0,2445.0,2097.0,-0.91,9.88,4.81,-0.0,0.07,-0.17,0.0,a
3435.0,3495.0,3472.0,3856.0,2607.0,2235.0,2445.0,2097.0,-0.91,9.88,4.81,-0.0,0.07,-0.17,0.0,a
3435.0,3495.0,3472.0,3856.0,2607.0,2235.0,2445.0,2097.0,-0.91,9.88,4.81,-0.0,0.07,-0.17,0.0,a
3435.0,3495.0,3472.0,3856.0,2607.0,2235.0,2445.0,2097.0,-0.91,9.88,4.81,-0.0,0.07,-0.17,0.0,a
3435.0,3495.0,3472.0,3856.0,2607.0,2235.0,2445.0,2097.0,-0.91,9.88,4.81,-0.0,0.07,-0.17,0.0,a
3440.0,3475.0,3466.0,3866.0,2599.0,2229.0,2448.0,2095.0,-0.73,9.84,4.67,0.0,-0.02,-0.14,0.0,a
3440.0,3475.0,3466.0,3866.0,2599.0,2229.0,2448.0,2095.0,-0.73,9.84,4.67,0.0,-0.02,-0.14,0.0,a
3440.0,3475.0,3466.0,3866.0,2599.0,2229.0,2448.0,2095.0,-0.73,9.84,4.67,0.0,-0.02,-0.14,0.0,a
3440.0,3475.0,3466.0,3866.0,2599.0,2229.0,2448.0,2095.0,-0.73,9.84,4.67,0.0,-0.02,-0.14,0.0,a
3440.0,3475.0,3466.0,3866.0,2599.0,2229.0,2448.0,2095.0,-0.73,9.84,4.67,0.0,-0.02,-0.14,0.0,a
3440.0,3475.0,3466.0,3866.0,2599.0,2229.0,2448.0,2095.0,-0.73,9.84,4.67,0.0,-0.02,-0.14,0.0,a
3440.0,3475.0,3466.0,3866.0,2599.0,2229.0,2448.0,2095.0,-0.73,9.84,4.67,0.0,-0.02,-0.14,0.0,a
3440.0,3475.0,3466.0,3866.0,2599.0,2229.0,2448.0,2095.0,-0.73,9.84,4.67,0.0,-0.02,-0.14,0.0,a
3440.0,3475.0,3466.0,3866.0,2599.0,2229.0,2448.0,2095.0,-0.73,9.84,4.67,0.0,-0.02,-0.14,0.0,a
3440.0,3475.0,3466.0,3866.0,2599.0,2229.0,2448.0,2095.0,-0.73,9.84,4.67,0.0,-0.02,-0.14,0.0,a
3440.0,3475.0,3466.0,3866.0,2599.0,2229.0,2448.0,2095.0,-0.73,9.84,4.67,0.0,-0.02,-0.14,0.0,a
3440.0,3475.0,3466.0,3866.0,2599.0,2229.0,2448.0,2095.0,-0.73,9.84,4.67,0.0,-0.02,-0.14,0.0,a
3440.0,3475.0,3466.0,3866.0,2599.0,2229.0,2448.0,2095.0,-0.73,9.84,4.67,0.0,-0.02,-0.14,0.0,a
3440.0,3475.0,3466.0,3866.0,2599.0,2229.0,2448.0,2095.0,-0.73,9.84,4.67,0.0,-0.02,-0.14,0.0,a
3440.0,3475.0,3466.0,3866.0,2599.0,2229.0,2448.0,2095.0,-0.73,9.84,4.67,0.0,-0.02,-0.14,0.0,a
3440.0,3475.0,3466.0,3866.0,2599.0,2229.0,2448.0,2095.0,-0.73,9.84,4.67,0.0,-0.02,-0.14,0.0,a
3440.0,3475.0,3466.0,3866.0,2599.0,2229.0,2448.0,2095.0,-0.73,9.84,4.67,0.0,-0.02,-0.14,0.0,a
3440.0,3475.0,3466.0,3866.0,2599.0,2229.0,2448.0,2095.0,-0.73,9.84,4.67,0.0,-0.02,-0.14,0.0,a
3440.0,3475.0,3466.0,3866.0,2599.0,2229.0,2448.0,2095.0,-0.73,9.84,4.67,0.0,-0.02,-0.14,0.0,a
3440.0,3475.0,3466.0,3866.0,2599.0,2229.0,2448.0,2095.0,-0.73,9.84,4.67,0.0,-0.02,-0.14,0.0,a
3450.0,3503.0,3477.0,3857.0,2610.0,2235.0,2444.0,2101.0,-0.75,9.71,5.03,0.0,-0.03,-0.14,0.0,a
3450.0,3503.0,3477.0,3857.0,2610.0,2235.0,2444.0,2101.0,-0.75,9.71,5.03,0.0,-0.03,-0.14,0.0,a
3450.0,3503.0,3477.0,3857.0,2610.0,2235.0,2444.0,2101.0,-0.75,9.71,5.03,0.0,-0.03,-0.14,0.0,a
3450.0,3503.0,3477.0,3857.0,2610.0,2235.0,2444.0,2101.0,-0.75,9.71,5.03,0.0,-0.03,-0.14,0.0,a
3450.0,3503.0,3477.0,3857.0,2610.0,2235.0,2444.0,2101.0,-0.75,9.71,5.03,0.0,-0.03,-0.14,0.0,a
3450.0,3503.0,3477.0,3857.0,2610.0,2235.0,2444.0,2101.0,-0.75,9.71,5.03,0.0,-0.03,-0.14,0.0,a
3450.0,3503.0,3477.0,3857.0,2610.0,2235.0,2444.0,2101.0,-0.75,9.71,5.03,0.0,-0.03,-0.14,0.0,a
3450.0,3503.0,3477.0,3857.0,2610.0,2235.0,2444.0,2101.0,-0.75,9.71,5.03,0.0,-0.03,-0.14,0.0,a
3450.0,3503.0,3477.0,3857.0,2610.0,2235.0,2444.0,2101.0,-0.75,9.71,5.03,0.0,-0.03,-0.14,0.0,a
3450.0,3503.0,3477.0,3857.0,2610.0,2235.0,2444.0,2101.0,-0.75,9.71,5.03,0.0,-0.03,-0.14,0.0,a
3450.0,3503.0,3477.0,3857.0,2610.0,2235.0,2444.0,2101.0,-0.75,9.71,5.03,0.0,-0.03,-0.14,0.0,a
3450.0,3503.0,3477.0,3857.0,2610.0,2235.0,2444.0,2101.0,-0.75,9.71,5.03,0.0,-0.03,-0.14,0.0,a
3450.0,3503.0,3477.0,3857.0,2610.0,2235.0,2444.0,2101.0,-0.75,9.71,5.03,0.0,-0.03,-0.14,0.0,a
3450.0,3503.0,3477.0,3857.0,2610.0,2235.0,2444.0,2101.0,-0.75,9.71,5.03,0.0,-0.03,-0.14,0.0,a
3450.0,3503.0,3477.0,3857.0,2610.0,2235.0,2444.0,2101.0,-0.75,9.71,5.03,0.0,-0.03,-0.14,0.0,a
3450.0,3503.0,3477.0,3857.0,2610.0,2235.0,2444.0,2101.0,-0.75,9.71,5.03,0.0,-0.03,-0.14,0.0,a
3450.0,3503.0,3477.0,3857.0,2610.0,2235.0,2444.0,2101.0,-0.75,9.71,5.03,0.0,-0.03,-0.14,0.0,a
3450.0,3503.0,3477.0,3857.0,2610.0,2235.0,2444.0,2101.0,-0.75,9.71,5.03,0.0,-0.03,-0.14,0.0,a
3450.0,3503.0,3477.0,3857.0,2610.0,2235.0,2444.0,2101.0,-0.75,9.71,5.03,0.0,-0.03,-0.14,0.0,a
3450.0,3503.0,3477.0,3857.0,2610.0,2235.0,2444.0,2101.0,-0.75,9.71,5.03,0.0,-0.03,-0.14,0.0,a
3453.0,3502.0,3462.0,3876.0,2608.0,2237.0,2449.0,2106.0,-0.79,9.83,4.86,0.0,-0.02,-0.09,0.0,a
3453.0,3502.0,3462.0,3876.0,2608.0,2237.0,2449.0,2106.0,-0.79,9.83,4.86,0.0,-0.02,-0.09,0.0,a
3453.0,3502.0,3462.0,3876.0,2608.0,2237.0,2449.0,2106.0,-0.79,9.83,4.86,0.0,-0.02,-0.09,0.0,a
3453.0,3502.0,3462.0,3876.0,2608.0,2237.0,2449.0,2106.0,-0.79,9.83,4.86,0.0,-0.02,-0.09,0.0,a
3453.0,3502.0,3462.0,3876.0,2608.0,2237.0,2449.0,2106.0,-0.79,9.83,4.86,0.0,-0.02,-0.09,0.0,a
3453.0,3502.0,3462.0,3876.0,2608.0,2237.0,2449.0,2106.0,-0.79,9.83,4.86,0.0,-0.02,-0.09,0.0,a
3453.0,3502.0,3462.0,3876.0,2608.0,2237.0,2449.0,2106.0,-0.79,9.83,4.86,0.0,-0.02,-0.09,0.0,a
3453.0,3502.0,3462.0,3876.0,2608.0,2237.0,2449.0,2106.0,-0.79,9.83,4.86,0.0,-0.02,-0.09,0.0,a
3453.0,3502.0,3462.0,3876.0,2608.0,2237.0,2449.0,2106.0,-0.79,9.83,4.86,0.0,-0.02,-0.09,0.0,a
3453.0,3502.0,3462.0,3876.0,2608.0,2237.0,2449.0,2106.0,-0.79,9.83,4.86,0.0,-0.02,-0.09,0.0,a
3453.0,3502.0,3462.0,3876.0,2608.0,2237.0,2449.0,2106.0,-0.79,9.83,4.86,0.0,-0.02,-0.09,0.0,a
3453.0,3502.0,3462.0,3876.0,2608.0,2237.0,2449.0,2106.0,-0.79,9.83,4.86,0.0,-0.02,-0.09,0.0,a
3453.0,3502.0,3462.0,3876.0,2608.0,2237.0,2449.0,2106.0,-0.79,9.83,4.86,0.0,-0.02,-0.09,0.0,a
3453.0,3502.0,3462.0,3876.0,2608.0,2237.0,2449.0,2106.0,-0.79,9.83,4.86,0.0,-0.02,-0.09,0.0,a
3453.0,3502.0,3462.0,3876.0,2608.0,2237.0,2449.0,2106.0,-0.79,9.83,4.86,0.0,-0.02,-0.09,0.0,a
3453.0,3502.0,3462.0,3876.0,2608.0,2237.0,2449.0,2106.0,-0.79,9.83,4.86,0.0,-0.02,-0.09,0.0,a
3453.0,3502.0,3462.0,3876.0,2608.0,2237.0,2449.0,2106.0,-0.79,9.83,4.86,0.0,-0.02,-0.09,0.0,a
3453.0,3502.0,3462.0,3876.0,2608.0,2237.0,2449.0,2106.0,-0.79,9.83,4.86,0.0,-0.02,-0.09,0.0,a
3453.0,3502.0,3462.0,3876.0,2608.0,2237.0,2449.0,2106.0,-0.79,9.83,4.86,0.0,-0.02,-0.09,0.0,a
3453.0,3502.0,3462.0,3876.0,2608.0,2237.0,2449.0,2106.0,-0.79,9.83,4.86,0.0,-0.02,-0.09,0.0,a
3433.0,3481.0,3481.0,3873.0,2624.0,2231.0,2413.0,2102.0,-0.68,9.86,4.99,0.01,-0.02,-0.12,0.0,a
3433.0,3481.0,3481.0,3873.0,2624.0,2231.0,2413.0,2102.0,-0.68,9.86,4.99,0.01,-0.02,-0.12,0.0,a
3433.0,3481.0,3481.0,3873.0,2624.0,2231.0,2413.0,2102.0,-0.68,9.86,4.99,0.01,-0.02,-0.12,0.0,a
3433.0,3481.0,3481.0,3873.0,2624.0,2231.0,2413.0,2102.0,-0.68,9.86,4.99,0.01,-0.02,-0.12,0.0,a
3433.0,3481.0,3481.0,3873.0,2624.0,2231.0,2413.0,2102.0,-0.68,9.86,4.99,0.01,-0.02,-0.12,0.0,a
3433.0,3481.0,3481.0,3873.0,2624.0,2231.0,2413.0,2102.0,-0.68,9.86,4.99,0.01,-0.02,-0.12,0.0,a
3433.0,3481.0,3481.0,3873.0,2624.0,2231.0,2413.0,2102.0,-0.68,9.86,4.99,0.01,-0.02,-0.12,0.0,a
3433.0,3481.0,3481.0,3873.0,2624.0,2231.0,2413.0,2102.0,-0.68,9.86,4.99,0.01,-0.02,-0.12,0.0,a
3433.0,3481.0,3481.0,3873.0,2624.0,2231.0,2413.0,2102.0,-0.68,9.86,4.99,0.01,-0.02,-0.12,0.0,a
3433.0,3481.0,3481.0,3873.0,2624.0,2231.0,2413.0,2102.0,-0.68,9.86,4.99,0.01,-0.02,-0.12,0.0,a
3433.0,3481.0,3481.0,3873.0,2624.0,2231.0,2413.0,2102.0,-0.68,9.86,4.99,0.01,-0.02,-0.12,0.0,a
3433.0,3481.0,3481.0,3873.0,2624.0,2231.0,2413.0,2102.0,-0.68,9.86,4.99,0.01,-0.02,-0.12,0.0,a
3433.0,3481.0,3481.0,3873.0,2624.0,2231.0,2413.0,2102.0,-0.68,9.86,4.99,0.01,-0.02,-0.12,0.0,a
3433.0,3481.0,3481.0,3873.0,2624.0,2231.0,2413.0,2102.0,-0.68,9.86,4.99,0.01,-0.02,-0.12,0.0,a
3433.0,3481.0,3481.0,3873.0,2624.0,2231.0,2413.0,2102.0,-0.68,9.86,4.99,0.01,-0.02,-0.12,0.0,a
3433.0,3481.0,3481.0,3873.0,2624.0,2231.0,2413.0,2102.0,-0.68,9.86,4.99,0.01,-0.02,-0.12,0.0,a
3433.0,3481.0,3481.0,3873.0,2624.0,2231.0,2413.0,2102.0,-0.68,9.86,4.99,0.01,-0.02,-0.12,0.0,a
3433.0,3481.0,3481.0,3873.0,2624.0,2231.0,2413.0,2102.0,-0.68,9.86,4.99,0.01,-0.02,-0.12,0.0,a
3433.0,3481.0,3481.0,3873.0,2624.0,2231.0,2413.0,2102.0,-0.68,9.86,4.99,0.01,-0.02,-0.12,0.0,a
3433.0,3481.0,3481.0,3873.0,2624.0,2231.0,2413.0,2102.0,-0.68,9.86,4.99,0.01,-0.02,-0.12,0.0,a
3471.0,3487.0,3459.0,3871.0,2618.0,2233.0,2445.0,2096.0,-0.5,9.76,4.97,0.02,-0.04,-0.16,0.0,a
3471.0,3487.0,3459.0,3871.0,2618.0,2233.0,2445.0,2096.0,-0.5,9.76,4.97,0.02,-0.04,-0.16,0.0,a
3471.0,3487.0,3459.0,3871.0,2618.0,2233.0,2445.0,2096.0,-0.5,9.76,4.97,0.02,-0.04,-0.16,0.0,a
3471.0,3487.0,3459.0,3871.0,2618.0,2233.0,2445.0,2096.0,-0.5,9.76,4.97,0.02,-0.04,-0.16,0.0,a
3471.0,3487.0,3459.0,3871.0,2618.0,2233.0,2445.0,2096.0,-0.5,9.76,4.97,0.02,-0.04,-0.16,0.0,a
3471.0,3487.0,3459.0,3871.0,2618.0,2233.0,2445.0,2096.0,-0.5,9.76,4.97,0.02,-0.04,-0.16,0.0,a
3471.0,3487.0,3459.0,3871.0,2618.0,2233.0,2445.0,2096.0,-0.5,9.76,4.97,0.02,-0.04,-0.16,0.0,a
3471.0,3487.0,3459.0,3871.0,2618.0,2233.0,2445.0,2096.0,-0.5,9.76,4.97,0.02,-0.04,-0.16,0.0,a
3471.0,3487.0,3459.0,3871.0,2618.0,2233.0,2445.0,2096.0,-0.5,9.76,4.97,0.02,-0.04,-0.16,0.0,a
3471.0,3487.0,3459.0,3871.0,2618.0,2233.0,2445.0,2096.0,-0.5,9.76,4.97,0.02,-0.04,-0.16,0.0,a
3471.0,3487.0,3459.0,3871.0,2618.0,2233.0,2445.0,2096.0,-0.5,9.76,4.97,0.02,-0.04,-0.16,0.0,a
3471.0,3487.0,3459.0,3871.0,2618.0,2233.0,2445.0,2096.0,-0.5,9.76,4.97,0.02,-0.04,-0.16,0.0,a
3471.0,3487.0,3459.0,3871.0,2618.0,2233.0,2445.0,2096.0,-0.5,9.76,4.97,0.02,-0.04,-0.16,0.0,a
3471.0,3487.0,3459.0,3871.0,2618.0,2233.0,2445.0,2096.0,-0.5,9.76,4.97,0.02,-0.04,-0.16,0.0,a
3471.0,3487.0,3459.0,3871.0,2618.0,2233.0,2445.0,2096.0,-0.5,9.76,4.97,0.02,-0.04,-0.16,0.0,a
3471.0,3487.0,3459.0,3871.0,2618.0,2233.0,2445.0,2096.0,-0.5,9.76,4.97,0.02,-0.04,-0.16,0.0,a
3471.0,3487.0,3459.0,3871.0,2618.0,2233.0,2445.0,2096.0,-0.5,9.76,4.97,0.02,-0.04,-0.16,0.0,a
3471.0,3487.0,3459.0,3871.0,2618.0,2233.0,2445.0,2096.0,-0.5,9.76,4.97,0.02,-0.04,-0.16,0.0,a
3471.0,3487.0,3459.0,3871.0,2618.0,2233.0,2445.0,2096.0,-0.5,9.76,4.97,0.02,-0.04,-0.16,0.0,a
3471.0,3487.0,3459.0,3871.0,2618.0,2233.0,2445.0,2096.0,-0.5,9.76,4.97,0.02,-0.04,-0.16,0.0,a
3445.0,3497.0,3466.0,3876.0,2621.0,2234.0,2448.0,2112.0,-0.7,9.88,5.05,0.04,-0.03,-0.16,0.0,a
3445.0,3497.0,3466.0,3876.0,2621.0,2234.0,2448.0,2112.0,-0.7,9.88,5.05,0.04,-0.03,-0.16,0.0,a
3445.0,3497.0,3466.0,3876.0,2621.0,2234.0,2448.0,2112.0,-0.7,9.88,5.05,0.04,-0.03,-0.16,0.0,a
3445.0,3497.0,3466.0,3876.0,2621.0,2234.0,2448.0,2112.0,-0.7,9.88,5.05,0.04,-0.03,-0.16,0.0,a
3445.0,3497.0,3466.0,3876.0,2621.0,2234.0,2448.0,2112.0,-0.7,9.88,5.05,0.04,-0.03,-0.16,0.0,a
3445.0,3497.0,3466.0,3876.0,2621.0,2234.0,2448.0,2112.0,-0.7,9.88,5.05,0.04,-0.03,-0.16,0.0,a
3445.0,3497.0,3466.0,3876.0,2621.0,2234.0,2448.0,2112.0,-0.7,9.88,5.05,0.04,-0.03,-0.16,0.0,a
3445.0,3497.0,3466.0,3876.0,2621.0,2234.0,2448.0,2112.0,-0.7,9.88,5.05,0.04,-0.03,-0.16,0.0,a
3445.0,3497.0,3466.0,3876.0,2621.0,2234.0,2448.0,2112.0,-0.7,9.88,5.05,0.04,-0.03,-0.16,0.0,a
3445.0,3497.0,3466.0,3876.0,2621.0,2234.0,2448.0,2112.0,-0.7,9.88,5.05,0.04,-0.03,-0.16,0.0,a
3445.0,3497.0,3466.0,3876.0,2621.0,2234.0,2448.0,2112.0,-0.7,9.88,5.05,0.04,-0.03,-0.16,0.0,a
3445.0,3497.0,3466.0,3876.0,2621.0,2234.0,2448.0,2112.0,-0.7,9.88,5.05,0.04,-0.03,-0.16,0.0,a
3445.0,3497.0,3466.0,3876.0,2621.0,2234.0,2448.0,2112.0,-0.7,9.88,5.05,0.04,-0.03,-0.16,0.0,a
3445.0,3497.0,3466.0,3876.0,2621.0,2234.0,2448.0,2112.0,-0.7,9.88,5.05,0.04,-0.03,-0.16,0.0,a
3445.0,3497.0,3466.0,3876.0,2621.0,2234.0,2448.0,2112.0,-0.7,9.88,5.05,0.04,-0.03,-0.16,0.0,a
3445.0,3497.0,3466.0,3876.0,2621.0,2234.0,2448.0,2112.0,-0.7,9.88,5.05,0.04,-0.03,-0.16,0.0,a
3445.0,3497.0,3466.0,3876.0,2621.0,2234.0,2448.0,2112.0,-0.7,9.88,5.05,0.04,-0.03,-0.16,0.0,a
3445.0,3497.0,3466.0,3876.0,2621.0,2234.0,2448.0,2112.0,-0.7,9.88,5.05,0.04,-0.03,-0.16,0.0,a
3445.0,3497.0,3466.0,3876.0,2621.0,2234.0,2448.0,2112.0,-0.7,9.88,5.05,0.04,-0.03,-0.16,0.0,a
3445.0,3497.0,3466.0,3876.0,2621.0,2234.0,2448.0,2112.0,-0.7,9.88,5.05,0.04,-0.03,-0.16,0.0,a
3440.0,3491.0,3472.0,3876.0,2613.0,2239.0,2448.0,2106.0,-0.82,9.79,5.01,-0.0,0.02,-0.17,0.0,a
3440.0,3491.0,3472.0,3876.0,2613.0,2239.0,2448.0,2106.0,-0.82,9.79,5.01,-0.0,0.02,-0.17,0.0,a
3440.0,3491.0,3472.0,3876.0,2613.0,2239.0,2448.0,2106.0,-0.82,9.79,5.01,-0.0,0.02,-0.17,0.0,a
3440.0,3491.0,3472.0,3876.0,2613.0,2239.0,2448.0,2106.0,-0.82,9.79,5.01,-0.0,0.02,-0.17,0.0,a
3440.0,3491.0,3472.0,3876.0,2613.0,2239.0,2448.0,2106.0,-0.82,9.79,5.01,-0.0,0.02,-0.17,0.0,a
3440.0,3491.0,3472.0,3876.0,2613.0,2239.0,2448.0,2106.0,-0.82,9.79,5.01,-0.0,0.02,-0.17,0.0,a
3440.0,3491.0,3472.0,3876.0,2613.0,2239.0,2448.0,2106.0,-0.82,9.79,5.01,-0.0,0.02,-0.17,0.0,a
3440.0,3491.0,3472.0,3876.0,2613.0,2239.0,2448.0,2106.0,-0.82,9.79,5.01,-0.0,0.02,-0.17,0.0,a
3440.0,3491.0,3472.0,3876.0,2613.0,2239.0,2448.0,2106.0,-0.82,9.79,5.01,-0.0,0.02,-0.17,0.0,a
3440.0,3491.0,3472.0,3876.0,2613.0,2239.0,2448.0,2106.0,-0.82,9.79,5.01,-0.0,0.02,-0.17,0.0,a
3440.0,3491.0,3472.0,3876.0,2613.0,2239.0,2448.0,2106.0,-0.82,9.79,5.01,-0.0,0.02,-0.17,0.0,a
3440.0,3491.0,3472.0,3876.0,2613.0,2239.0,2448.0,2106.0,-0.82,9.79,5.01,-0.0,0.02,-0.17,0.0,a
3440.0,3491.0,3472.0,3876.0,2613.0,2239.0,2448.0,2106.0,-0.82,9.79,5.01,-0.0,0.02,-0.17,0.0,a
3440.0,3491.0,3472.0,3876.0,2613.0,2239.0,2448.0,2106.0,-0.82,9.79,5.01,-0.0,0.02,-0.17,0.0,a
3440.0,3491.0,3472.0,3876.0,2613.0,2239.0,2448.0,2106.0,-0.82,9.79,5.01,-0.0,0.02,-0.17,0.0,a
3440.0,3491.0,3472.0,3876.0,2613.0,2239.0,2448.0,2106.0,-0.82,9.79,5.01,-0.0,0.02,-0.17,0.0,a
3440.0,3491.0,3472.0,3876.0,2613.0,2239.0,2448.0,2106.0,-0.82,9.79,5.01,-0.0,0.02,-0.17,0.0,a
3440.0,3491.0,3472.0,3876.0,2613.0,2239.0,2448.0,2106.0,-0.82,9.79,5.01,-0.0,0.02,-0.17,0.0,a
3440.0,3491.0,3472.0,3876.0,2613.0,2239.0,2448.0,2106.0,-0.82,9.79,5.01,-0.0,0.02,-0.17,0.0,a
3440.0,3491.0,3472.0,3876.0,2613.0,2239.0,2448.0,2106.0,-0.82,9.79,5.01,-0.0,0.02,-0.17,0.0,a
3442.0,3478.0,3469.0,3871.0,2629.0,2244.0,2452.0,2107.0,-0.82,9.77,4.95,0.0,0.02,-0.14,0.0,a
3442.0,3478.0,3469.0,3871.0,2629.0,2244.0,2452.0,2107.0,-0.82,9.77,4.95,0.0,0.02,-0.14,0.0,a
3442.0,3478.0,3469.0,3871.0,2629.0,2244.0,2452.0,2107.0,-0.82,9.77,4.95,0.0,0.02,-0.14,0.0,a
3442.0,3478.0,3469.0,3871.0,2629.0,2244.0,2452.0,2107.0,-0.82,9.77,4.95,0.0,0.02,-0.14,0.0,a
3442.0,3478.0,3469.0,3871.0,2629.0,2244.0,2452.0,2107.0,-0.82,9.77,4.95,0.0,0.02,-0.14,0.0,a
3442.0,3478.0,3469.0,3871.0,2629.0,2244.0,2452.0,2107.0,-0.82,9.77,4.95,0.0,0.02,-0.14,0.0,a
3442.0,3478.0,3469.0,3871.0,2629.0,2244.0,2452.0,2107.0,-0.82,9.77,4.95,0.0,0.02,-0.14,0.0,a
3442.0,3478.0,3469.0,3871.0,2629.0,2244.0,2452.0,2107.0,-0.82,9.77,4.95,0.0,0.02,-0.14,0.0,a
3442.0,3478.0,3469.0,3871.0,2629.0,2244.0,2452.0,2107.0,-0.82,9.77,4.95,0.0,0.02,-0.14,0.0,a
3442.0,3478.0,3469.0,3871.0,2629.0,2244.0,2452.0,2107.0,-0.82,9.77,4.95,0.0,0.02,-0.14,0.0,a
3442.0,3478.0,3469.0,3871.0,2629.0,2244.0,2452.0,2107.0,-0.82,9.77,4.95,0.0,0.02,-0.14,0.0,a
3442.0,3478.0,3469.0,3871.0,2629.0,2244.0,2452.0,2107.0,-0.82,9.77,4.95,0.0,0.02,-0.14,0.0,a
3442.0,3478.0,3469.0,3871.0,2629.0,2244.0,2452.0,2107.0,-0.82,9.77,4.95,0.0,0.02,-0.14,0.0,a
3442.0,3478.0,3469.0,3871.0,2629.0,2244.0,2452.0,2107.0,-0.82,9.77,4.95,0.0,0.02,-0.14,0.0,a
3442.0,3478.0,3469.0,3871.0,2629.0,2244.0,2452.0,2107.0,-0.82,9.77,4.95,0.0,0.02,-0.14,0.0,a
3442.0,3478.0,3469.0,3871.0,2629.0,2244.0,2452.0,2107.0,-0.82,9.77,4.95,0.0,0.02,-0.14,0.0,a
3442.0,3478.0,3469.0,3871.0,2629.0,2244.0,2452.0,2107.0,-0.82,9.77,4.95,0.0,0.02,-0.14,0.0,a
3442.0,3478.0,3469.0,3871.0,2629.0,2244.0,2452.0,2107.0,-0.82,9.77,4.95,0.0,0.02,-0.14,0.0,a
3442.0,3478.0,3469.0,3871.0,2629.0,2244.0,2452.0,2107.0,-0.82,9.77,4.95,0.0,0.02,-0.14,0.0,a
3442.0,3478.0,3469.0,3871.0,2629.0,2244.0,2452.0,2107.0,-0.82,9.77,4.95,0.0,0.02,-0.14,0.0,a
3461.0,3498.0,3466.0,3868.0,2622.0,2236.0,2448.0,2110.0,-0.68,9.9,4.9,0.01,-0.01,-0.13,0.0,a
3461.0,3498.0,3466.0,3868.0,2622.0,2236.0,2448.0,2110.0,-0.68,9.9,4.9,0.01,-0.01,-0.13,0.0,a
3461.0,3498.0,3466.0,3868.0,2622.0,2236.0,2448.0,2110.0,-0.68,9.9,4.9,0.01,-0.01,-0.13,0.0,a
3461.0,3498.0,3466.0,3868.0,2622.0,2236.0,2448.0,2110.0,-0.68,9.9,4.9,0.01,-0.01,-0.13,0.0,a
3461.0,3498.0,3466.0,3868.0,2622.0,2236.0,2448.0,2110.0,-0.68,9.9,4.9,0.01,-0.01,-0.13,0.0,a
3461.0,3498.0,3466.0,3868.0,2622.0,2236.0,2448.0,2110.0,-0.68,9.9,4.9,0.01,-0.01,-0.13,0.0,a
3461.0,3498.0,3466.0,3868.0,2622.0,2236.0,2448.0,2110.0,-0.68,9.9,4.9,0.01,-0.01,-0.13,0.0,a
3461.0,3498.0,3466.0,3868.0,2622.0,2236.0,2448.0,2110.0,-0.68,9.9,4.9,0.01,-0.01,-0.13,0.0,a
3461.0,3498.0,3466.0,3868.0,2622.0,2236.0,2448.0,2110.0,-0.68,9.9,4.9,0.01,-0.01,-0.13,0.0,a
3461.0,3498.0,3466.0,3868.0,2622.0,2236.0,2448.0,2110.0,-0.68,9.9,4.9,0.01,-0.01,-0.13,0.0,a
3461.0,3498.0,3466.0,3868.0,2622.0,2236.0,2448.0,2110.0,-0.68,9.9,4.9,0.01,-0.01,-0.13,0.0,a
3461.0,3498.0,3466.0,3868.0,2622.0,2236.0,2448.0,2110.0,-0.68,9.9,4.9,0.01,-0.01,-0.13,0.0,a
3461.0,3498.0,3466.0,3868.0,2622.0,2236.0,2448.0,2110.0,-0.68,9.9,4.9,0.01,-0.01,-0.13,0.0,a
3461.0,3498.0,3466.0,3868.0,2622.0,2236.0,2448.0,2110.0,-0.68,9.9,4.9,0.01,-0.01,-0.13,0.0,a
3461.0,3498.0,3466.0,3868.0,2622.0,2236.0,2448.0,2110.0,-0.68,9.9,4.9,0.01,-0.01,-0.13,0.0,a
3461.0,3498.0,3466.0,3868.0,2622.0,2236.0,2448.0,2110.0,-0.68,9.9,4.9,0.01,-0.01,-0.13,0.0,a
3461.0,3498.0,3466.0,3868.0,2622.0,2236.0,2448.0,2110.0,-0.68,9.9,4.9,0.01,-0.01,-0.13,0.0,a
3461.0,3498.0,3466.0,3868.0,2622.0,2236.0,2448.0,2110.0,-0.68,9.9,4.9,0.01,-0.01,-0.13,0.0,a
3461.0,3498.0,3466.0,3868.0,2622.0,2236.0,2448.0,2110.0,-0.68,9.9,4.9,0.01,-0.01,-0.13,0.0,a
3461.0,3498.0,3466.0,3868.0,2622.0,2236.0,2448.0,2110.0,-0.68,9.9,4.9,0.01,-0.01,-0.13,0.0,a
3447.0,3501.0,3466.0,3870.0,2631.0,2249.0,2457.0,2109.0,-0.58,9.87,4.92,-0.02,-0.03,-0.17,0.0,a
3447.0,3501.0,3466.0,3870.0,2631.0,2249.0,2457.0,2109.0,-0.58,9.87,4.92,-0.02,-0.03,-0.17,0.0,a
3447.0,3501.0,3466.0,3870.0,2631.0,2249.0,2457.0,2109.0,-0.58,9.87,4.92,-0.02,-0.03,-0.17,0.0,a
3447.0,3501.0,3466.0,3870.0,2631.0,2249.0,2457.0,2109.0,-0.58,9.87,4.92,-0.02,-0.03,-0.17,0.0,a
3447.0,3501.0,3466.0,3870.0,2631.0,2249.0,2457.0,2109.0,-0.58,9.87,4.92,-0.02,-0.03,-0.17,0.0,a
3447.0,3501.0,3466.0,3870.0,2631.0,2249.0,2457.0,2109.0,-0.58,9.87,4.92,-0.02,-0.03,-0.17,0.0,a
3447.0,3501.0,3466.0,3870.0,2631.0,2249.0,2457.0,2109.0,-0.58,9.87,4.92,-0.02,-0.03,-0.17,0.0,a
3447.0,3501.0,3466.0,3870.0,2631.0,2249.0,2457.0,2109.0,-0.58,9.87,4.92,-0.02,-0.03,-0.17,0.0,a
3447.0,3501.0,3466.0,3870.0,2631.0,2249.0,2457.0,2109.0,-0.58,9.87,4.92,-0.02,-0.03,-0.17,0.0,a
3447.0,3501.0,3466.0,3870.0,2631.0,2249.0,2457.0,2109.0,-0.58,9.87,4.92,-0.02,-0.03,-0.17,0.0,a
3447.0,3501.0,3466.0,3870.0,2631.0,2249.0,2457.0,2109.0,-0.58,9.87,4.92,-0.02,-0.03,-0.17,0.0,a
3447.0,3501.0,3466.0,3870.0,2631.0,2249.0,2457.0,2109.0,-0.58,9.87,4.92,-0.02,-0.03,-0.17,0.0,a
3447.0,3501.0,3466.0,3870.0,2631.0,2249.0,2457.0,2109.0,-0.58,9.87,4.92,-0.02,-0.03,-0.17,0.0,a
3447.0,3501.0,3466.0,3870.0,2631.0,2249.0,2457.0,2109.0,-0.58,9.87,4.92,-0.02,-0.03,-0.17,0.0,a
3447.0,3501.0,3466.0,3870.0,2631.0,2249.0,2457.0,2109.0,-0.58,9.87,4.92,-0.02,-0.03,-0.17,0.0,a
3447.0,3501.0,3466.0,3870.0,2631.0,2249.0,2457.0,2109.0,-0.58,9.87,4.92,-0.02,-0.03,-0.17,0.0,a
3447.0,3501.0,3466.0,3870.0,2631.0,2249.0,2457.0,2109.0,-0.58,9.87,4.92,-0.02,-0.03,-0.17,0.0,a
3447.0,3501.0,3466.0,3870.0,2631.0,2249.0,2457.0,2109.0,-0.58,9.87,4.92,-0.02,-0.03,-0.17,0.0,a
3447.0,3501.0,3466.0,3870.0,2631.0,2249.0,2457.0,2109.0,-0.58,9.87,4.92,-0.02,-0.03,-0.17,0.0,a
3447.0,3501.0,3466.0,3870.0,2631.0,2249.0,2457.0,2109.0,-0.58,9.87,4.92,-0.02,-0.03,-0.17,0.0,a
3445.0,3502.0,3472.0,3859.0,2630.0,2244.0,2459.0,2114.0,-0.87,9.86,5.18,0.04,0.01,-0.16,0.0,a
3445.0,3502.0,3472.0,3859.0,2630.0,2244.0,2459.0,2114.0,-0.87,9.86,5.18,0.04,0.01,-0.16,0.0,a
3445.0,3502.0,3472.0,3859.0,2630.0,2244.0,2459.0,2114.0,-0.87,9.86,5.18,0.04,0.01,-0.16,0.0,a
3445.0,3502.0,3472.0,3859.0,2630.0,2244.0,2459.0,2114.0,-0.87,9.86,5.18,0.04,0.01,-0.16,0.0,a
3445.0,3502.0,3472.0,3859.0,2630.0,2244.0,2459.0,2114.0,-0.87,9.86,5.18,0.04,0.01,-0.16,0.0,a
3445.0,3502.0,3472.0,3859.0,2630.0,2244.0,2459.0,2114.0,-0.87,9.86,5.18,0.04,0.01,-0.16,0.0,a
3445.0,3502.0,3472.0,3859.0,2630.0,2244.0,2459.0,2114.0,-0.87,9.86,5.18,0.04,0.01,-0.16,0.0,a
3445.0,3502.0,3472.0,3859.0,2630.0,2244.0,2459.0,2114.0,-0.87,9.86,5.18,0.04,0.01,-0.16,0.0,a
3445.0,3502.0,3472.0,3859.0,2630.0,2244.0,2459.0,2114.0,-0.87,9.86,5.18,0.04,0.01,-0.16,0.0,a
3445.0,3502.0,3472.0,3859.0,2630.0,2244.0,2459.0,2114.0,-0.87,9.86,5.18,0.04,0.01,-0.16,0.0,a
3445.0,3502.0,3472.0,3859.0,2630.0,2244.0,2459.0,2114.0,-0.87,9.86,5.18,0.04,0.01,-0.16,0.0,a
3445.0,3502.0,3472.0,3859.0,2630.0,2244.0,2459.0,2114.0,-0.87,9.86,5.18,0.04,0.01,-0.16,0.0,a
3445.0,3502.0,3472.0,3859.0,2630.0,2244.0,2459.0,2114.0,-0.87,9.86,5.18,0.04,0.01,-0.16,0.0,a
3445.0,3502.0,3472.0,3859.0,2630.0,2244.0,2459.0,2114.0,-0.87,9.86,5.18,0.04,0.01,-0.16,0.0,a
3445.0,3502.0,3472.0,3859.0,2630.0,2244.0,2459.0,2114.0,-0.87,9.86,5.18,0.04,0.01,-0.16,0.0,a
3445.0,3502.0,3472.0,3859.0,2630.0,2244.0,2459.0,2114.0,-0.87,9.86,5.18,0.04,0.01,-0.16,0.0,a
3445.0,3502.0,3472.0,3859.0,2630.0,2244.0,2459.0,2114.0,-0.87,9.86,5.18,0.04,0.01,-0.16,0.0,a
3445.0,3502.0,3472.0,3859.0,2630.0,2244.0,2459.0,2114.0,-0.87,9.86,5.18,0.04,0.01,-0.16,0.0,a
3445.0,3502.0,3472.0,3859.0,2630.0,2244.0,2459.0,2114.0,-0.87,9.86,5.18,0.04,0.01,-0.16,0.0,a
3445.0,3502.0,3472.0,3859.0,2630.0,2244.0,2459.0,2114.0,-0.87,9.86,5.18,0.04,0.01,-0.16,0.0,a
3443.0,3489.0,3472.0,3873.0,2637.0,2247.0,2450.0,2121.0,-0.73,9.84,4.92,0.01,0.03,-0.18,0.0,a
3443.0,3489.0,3472.0,3873.0,2637.0,2247.0,2450.0,2121.0,-0.73,9.84,4.92,0.01,0.03,-0.18,0.0,a
3443.0,3489.0,3472.0,3873.0,2637.0,2247.0,2450.0,2121.0,-0.73,9.84,4.92,0.01,0.03,-0.18,0.0,a
3443.0,3489.0,3472.0,3873.0,2637.0,2247.0,2450.0,2121.0,-0.73,9.84,4.92,0.01,0.03,-0.18,0.0,a
3443.0,3489.0,3472.0,3873.0,2637.0,2247.0,2450.0,2121.0,-0.73,9.84,4.92,0.01,0.03,-0.18,0.0,a
3443.0,3489.0,3472.0,3873.0,2637.0,2247.0,2450.0,2121.0,-0.73,9.84,4.92,0.01,0.03,-0.18,0.0,a
3443.0,3489.0,3472.0,3873.0,2637.0,2247.0,2450.0,2121.0,-0.73,9.84,4.92,0.01,0.03,-0.18,0.0,a
3443.0,3489.0,3472.0,3873.0,2637.0,2247.0,2450.0,2121.0,-0.73,9.84,4.92,0.01,0.03,-0.18,0.0,a
3443.0,3489.0,3472.0,3873.0,2637.0,2247.0,2450.0,2121.0,-0.73,9.84,4.92,0.01,0.03,-0.18,0.0,a
3443.0,3489.0,3472.0,3873.0,2637.0,2247.0,2450.0,2121.0,-0.73,9.84,4.92,0.01,0.03,-0.18,0.0,a
3443.0,3489.0,3472.0,3873.0,2637.0,2247.0,2450.0,2121.0,-0.73,9.84,4.92,0.01,0.03,-0.18,0.0,a
3443.0,3489.0,3472.0,3873.0,2637.0,2247.0,2450.0,2121.0,-0.73,9.84,4.92,0.01,0.03,-0.18,0.0,a
3443.0,3489.0,3472.0,3873.0,2637.0,2247.0,2450.0,2121.0,-0.73,9.84,4.92,0.01,0.03,-0.18,0.0,a
3443.0,3489.0,3472.0,3873.0,2637.0,2247.0,2450.0,2121.0,-0.73,9.84,4.92,0.01,0.03,-0.18,0.0,a
3443.0,3489.0,3472.0,3873.0,2637.0,2247.0,2450.0,2121.0,-0.73,9.84,4.92,0.01,0.03,-0.18,0.0,a
3443.0,3489.0,3472.0,3873.0,2637.0,2247.0,2450.0,2121.0,-0.73,9.84,4.92,0.01,0.03,-0.18,0.0,a
3443.0,3489.0,3472.0,3873.0,2637.0,2247.0,2450.0,2121.0,-0.73,9.84,4.92,0.01,0.03,-0.18,0.0,a
3443.0,3489.0,3472.0,3873.0,2637.0,2247.0,2450.0,2121.0,-0.73,9.84,4.92,0.01,0.03,-0.18,0.0,a
3443.0,3489.0,3472.0,3873.0,2637.0,2247.0,2450.0,2121.0,-0.73,9.84,4.92,0.01,0.03,-0.18,0.0,a
3443.0,3489.0,3472.0,3873.0,2637.0,2247.0,2450.0,2121.0,-0.73,9.84,4.92,0.01,0.03,-0.18,0.0,a
3446.0,3498.0,3475.0,3871.0,2627.0,2240.0,2458.0,2112.0,-0.89,9.74,5.08,0.03,0.0,-0.16,0.0,a
3446.0,3498.0,3475.0,3871.0,2627.0,2240.0,2458.0,2112.0,-0.89,9.74,5.08,0.03,0.0,-0.16,0.0,a
3446.0,3498.0,3475.0,3871.0,2627.0,2240.0,2458.0,2112.0,-0.89,9.74,5.08,0.03,0.0,-0.16,0.0,a
3446.0,3498.0,3475.0,3871.0,2627.0,2240.0,2458.0,2112.0,-0.89,9.74,5.08,0.03,0.0,-0.16,0.0,a
3446.0,3498.0,3475.0,3871.0,2627.0,2240.0,2458.0,2112.0,-0.89,9.74,5.08,0.03,0.0,-0.16,0.0,a
3446.0,3498.0,3475.0,3871.0,2627.0,2240.0,2458.0,2112.0,-0.89,9.74,5.08,0.03,0.0,-0.16,0.0,a
3446.0,3498.0,3475.0,3871.0,2627.0,2240.0,2458.0,2112.0,-0.89,9.74,5.08,0.03,0.0,-0.16,0.0,a
3446.0,3498.0,3475.0,3871.0,2627.0,2240.0,2458.0,2112.0,-0.89,9.74,5.08,0.03,0.0,-0.16,0.0,a
3446.0,3498.0,3475.0,3871.0,2627.0,2240.0,2458.0,2112.0,-0.89,9.74,5.08,0.03,0.0,-0.16,0.0,a
3446.0,3498.0,3475.0,3871.0,2627.0,2240.0,2458.0,2112.0,-0.89,9.74,5.08,0.03,0.0,-0.16,0.0,a
3446.0,3498.0,3475.0,3871.0,2627.0,2240.0,2458.0,2112.0,-0.89,9.74,5.08,0.03,0.0,-0.16,0.0,a
3446.0,3498.0,3475.0,3871.0,2627.0,2240.0,2458.0,2112.0,-0.89,9.74,5.08,0.03,0.0,-0.16,0.0,a
3446.0,3498.0,3475.0,3871.0,2627.0,2240.0,2458.0,2112.0,-0.89,9.74,5.08,0.03,0.0,-0.16,0.0,a
3446.0,3498.0,3475.0,3871.0,2627.0,2240.0,2458.0,2112.0,-0.89,9.74,5.08,0.03,0.0,-0.16,0.0,a
3446.0,3498.0,3475.0,3871.0,2627.0,2240.0,2458.0,2112.0,-0.89,9.74,5.08,0.03,0.0,-0.16,0.0,a
3446.0,3498.0,3475.0,3871.0,2627.0,2240.0,2458.0,2112.0,-0.89,9.74,5.08,0.03,0.0,-0.16,0.0,a
3446.0,3498.0,3475.0,3871.0,2627.0,2240.0,2458.0,2112.0,-0.89,9.74,5.08,0.03,0.0,-0.16,0.0,a
3446.0,3498.0,3475.0,3871.0,2627.0,2240.0,2458.0,2112.0,-0.89,9.74,5.08,0.03,0.0,-0.16,0.0,a
3446.0,3498.0,3475.0,3871.0,2627.0,2240.0,2458.0,2112.0,-0.89,9.74,5.08,0.03,0.0,-0.16,0.0,a
3446.0,3498.0,3475.0,3871.0,2627.0,2240.0,2458.0,2112.0,-0.89,9.74,5.08,0.03,0.0,-0.16,0.0,a
3456.0,3489.0,3474.0,3874.0,2629.0,2235.0,2458.0,2112.0,-0.57,9.88,4.87,0.0,-0.0,-0.15,0.0,a
3456.0,3489.0,3474.0,3874.0,2629.0,2235.0,2458.0,2112.0,-0.57,9.88,4.87,0.0,-0.0,-0.15,0.0,a
3456.0,3489.0,3474.0,3874.0,2629.0,2235.0,2458.0,2112.0,-0.57,9.88,4.87,0.0,-0.0,-0.15,0.0,a
3456.0,3489.0,3474.0,3874.0,2629.0,2235.0,2458.0,2112.0,-0.57,9.88,4.87,0.0,-0.0,-0.15,0.0,a
3456.0,3489.0,3474.0,3874.0,2629.0,2235.0,2458.0,2112.0,-0.57,9.88,4.87,0.0,-0.0,-0.15,0.0,a
3456.0,3489.0,3474.0,3874.0,2629.0,2235.0,2458.0,2112.0,-0.57,9.88,4.87,0.0,-0.0,-0.15,0.0,a
3456.0,3489.0,3474.0,3874.0,2629.0,2235.0,2458.0,2112.0,-0.57,9.88,4.87,0.0,-0.0,-0.15,0.0,a
3456.0,3489.0,3474.0,3874.0,2629.0,2235.0,2458.0,2112.0,-0.57,9.88,4.87,0.0,-0.0,-0.15,0.0,a
3456.0,3489.0,3474.0,3874.0,2629.0,2235.0,2458.0,2112.0,-0.57,9.88,4.87,0.0,-0.0,-0.15,0.0,a
3456.0,3489.0,3474.0,3874.0,2629.0,2235.0,2458.0,2112.0,-0.57,9.88,4.87,0.0,-0.0,-0.15,0.0,a
3456.0,3489.0,3474.0,3874.0,2629.0,2235.0,2458.0,2112.0,-0.57,9.88,4.87,0.0,-0.0,-0.15,0.0,a
3456.0,3489.0,3474.0,3874.0,2629.0,2235.0,2458.0,2112.0,-0.57,9.88,4.87,0.0,-0.0,-0.15,0.0,a
3456.0,3489.0,3474.0,3874.0,2629.0,2235.0,2458.0,2112.0,-0.57,9.88,4.87,0.0,-0.0,-0.15,0.0,a
3456.0,3489.0,3474.0,3874.0,2629.0,2235.0,2458.0,2112.0,-0.57,9.88,4.87,0.0,-0.0,-0.15,0.0,a
3456.0,3489.0,3474.0,3874.0,2629.0,2235.0,2458.0,2112.0,-0.57,9.88,4.87,0.0,-0.0,-0.15,0.0,a
3456.0,3489.0,3474.0,3874.0,2629.0,2235.0,2458.0,2112.0,-0.57,9.88,4.87,0.0,-0.0,-0.15,0.0,a
3456.0,3489.0,3474.0,3874.0,2629.0,2235.0,2458.0,2112.0,-0.57,9.88,4.87,0.0,-0.0,-0.15,0.0,a
3456.0,3489.0,3474.0,3874.0,2629.0,2235.0,2458.0,2112.0,-0.57,9.88,4.87,0.0,-0.0,-0.15,0.0,a
3456.0,3489.0,3474.0,3874.0,2629.0,2235.0,2458.0,2112.0,-0.57,9.88,4.87,0.0,-0.0,-0.15,0.0,a
3456.0,3489.0,3474.0,3874.0,2629.0,2235.0,2458.0,2112.0,-0.57,9.88,4.87,0.0,-0.0,-0.15,0.0,a
3438.0,3497.0,3464.0,3886.0,2630.0,2244.0,2450.0,2106.0,-0.75,9.84,5.18,0.02,-0.01,-0.17,0.0,a
3438.0,3497.0,3464.0,3886.0,2630.0,2244.0,2450.0,2106.0,-0.75,9.84,5.18,0.02,-0.01,-0.17,0.0,a
3438.0,3497.0,3464.0,3886.0,2630.0,2244.0,2450.0,2106.0,-0.75,9.84,5.18,0.02,-0.01,-0.17,0.0,a
3438.0,3497.0,3464.0,3886.0,2630.0,2244.0,2450.0,2106.0,-0.75,9.84,5.18,0.02,-0.01,-0.17,0.0,a
3438.0,3497.0,3464.0,3886.0,2630.0,2244.0,2450.0,2106.0,-0.75,9.84,5.18,0.02,-0.01,-0.17,0.0,a
3438.0,3497.0,3464.0,3886.0,2630.0,2244.0,2450.0,2106.0,-0.75,9.84,5.18,0.02,-0.01,-0.17,0.0,a
3438.0,3497.0,3464.0,3886.0,2630.0,2244.0,2450.0,2106.0,-0.75,9.84,5.18,0.02,-0.01,-0.17,0.0,a
3438.0,3497.0,3464.0,3886.0,2630.0,2244.0,2450.0,2106.0,-0.75,9.84,5.18,0.02,-0.01,-0.17,0.0,a
3438.0,3497.0,3464.0,3886.0,2630.0,2244.0,2450.0,2106.0,-0.75,9.84,5.18,0.02,-0.01,-0.17,0.0,a
3438.0,3497.0,3464.0,3886.0,2630.0,2244.0,2450.0,2106.0,-0.75,9.84,5.18,0.02,-0.01,-0.17,0.0,a
3438.0,3497.0,3464.0,3886.0,2630.0,2244.0,2450.0,2106.0,-0.75,9.84,5.18,0.02,-0.01,-0.17,0.0,a
3438.0,3497.0,3464.0,3886.0,2630.0,2244.0,2450.0,2106.0,-0.75,9.84,5.18,0.02,-0.01,-0.17,0.0,a
3438.0,3497.0,3464.0,3886.0,2630.0,2244.0,2450.0,2106.0,-0.75,9.84,5.18,0.02,-0.01,-0.17,0.0,a
3438.0,3497.0,3464.0,3886.0,2630.0,2244.0,2450.0,2106.0,-0.75,9.84,5.18,0.02,-0.01,-0.17,0.0,a
3438.0,3497.0,3464.0,3886.0,2630.0,2244.0,2450.0,2106.0,-0.75,9.84,5.18,0.02,-0.01,-0.17,0.0,a
3438.0,3497.0,3464.0,3886.0,2630.0,2244.0,2450.0,2106.0,-0.75,9.84,5.18,0.02,-0.01,-0.17,0.0,a
3438.0,3497.0,3464.0,3886.0,2630.0,2244.0,2450.0,2106.0,-0.75,9.84,5.18,0.02,-0.01,-0.17,0.0,a
3438.0,3497.0,3464.0,3886.0,2630.0,2244.0,2450.0,2106.0,-0.75,9.84,5.18,0.02,-0.01,-0.17,0.0,a
3438.0,3497.0,3464.0,3886.0,2630.0,2244.0,2450.0,2106.0,-0.75,9.84,5.18,0.02,-0.01,-0.17,0.0,a
3438.0,3497.0,3464.0,3886.0,2630.0,2244.0,2450.0,2106.0,-0.75,9.84,5.18,0.02,-0.01,-0.17,0.0,a
3443.0,3503.0,3472.0,3869.0,2629.0,2241.0,2453.0,2117.0,-0.8,9.8,4.93,0.02,0.0,-0.14,0.0,a
3443.0,3503.0,3472.0,3869.0,2629.0,2241.0,2453.0,2117.0,-0.8,9.8,4.93,0.02,0.0,-0.14,0.0,a
3443.0,3503.0,3472.0,3869.0,2629.0,2241.0,2453.0,2117.0,-0.8,9.8,4.93,0.02,0.0,-0.14,0.0,a
3443.0,3503.0,3472.0,3869.0,2629.0,2241.0,2453.0,2117.0,-0.8,9.8,4.93,0.02,0.0,-0.14,0.0,a
3443.0,3503.0,3472.0,3869.0,2629.0,2241.0,2453.0,2117.0,-0.8,9.8,4.93,0.02,0.0,-0.14,0.0,a
3443.0,3503.0,3472.0,3869.0,2629.0,2241.0,2453.0,2117.0,-0.8,9.8,4.93,0.02,0.0,-0.14,0.0,a
3443.0,3503.0,3472.0,3869.0,2629.0,2241.0,2453.0,2117.0,-0.8,9.8,4.93,0.02,0.0,-0.14,0.0,a
3443.0,3503.0,3472.0,3869.0,2629.0,2241.0,2453.0,2117.0,-0.8,9.8,4.93,0.02,0.0,-0.14,0.0,a
3443.0,3503.0,3472.0,3869.0,2629.0,2241.0,2453.0,2117.0,-0.8,9.8,4.93,0.02,0.0,-0.14,0.0,a
3443.0,3503.0,3472.0,3869.0,2629.0,2241.0,2453.0,2117.0,-0.8,9.8,4.93,0.02,0.0,-0.14,0.0,a
3443.0,3503.0,3472.0,3869.0,2629.0,2241.0,2453.0,2117.0,-0.8,9.8,4.93,0.02,0.0,-0.14,0.0,a
3443.0,3503.0,3472.0,3869.0,2629.0,2241.0,2453.0,2117.0,-0.8,9.8,4.93,0.02,0.0,-0.14,0.0,a
3443.0,3503.0,3472.0,3869.0,2629.0,2241.0,2453.0,2117.0,-0.8,9.8,4.93,0.02,0.0,-0.14,0.0,a
3443.0,3503.0,3472.0,3869.0,2629.0,2241.0,2453.0,2117.0,-0.8,9.8,4.93,0.02,0.0,-0.14,0.0,a
3443.0,3503.0,3472.0,3869.0,2629.0,2241.0,2453.0,2117.0,-0.8,9.8,4.93,0.02,0.0,-0.14,0.0,a
3443.0,3503.0,3472.0,3869.0,2629.0,2241.0,2453.0,2117.0,-0.8,9.8,4.93,0.02,0.0,-0.14,0.0,a
3443.0,3503.0,3472.0,3869.0,2629.0,2241.0,2453.0,2117.0,-0.8,9.8,4.93,0.02,0.0,-0.14,0.0,a
3443.0,3503.0,3472.0,3869.0,2629.0,2241.0,2453.0,2117.0,-0.8,9.8,4.93,0.02,0.0,-0.14,0.0,a
3443.0,3503.0,3472.0,3869.0,2629.0,2241.0,2453.0,2117.0,-0.8,9.8,4.93,0.02,0.0,-0.14,0.0,a
3443.0,3503.0,3472.0,3869.0,2629.0,2241.0,2453.0,2117.0,-0.8,9.8,4.93,0.02,0.0,-0.14,0.0,a
3451.0,3485.0,3459.0,3884.0,2634.0,2251.0,2458.0,2117.0,-0.81,9.83,4.97,0.06,0.01,-0.15,0.0,a
3451.0,3485.0,3459.0,3884.0,2634.0,2251.0,2458.0,2117.0,-0.81,9.83,4.97,0.06,0.01,-0.15,0.0,a
3451.0,3485.0,3459.0,3884.0,2634.0,2251.0,2458.0,2117.0,-0.81,9.83,4.97,0.06,0.01,-0.15,0.0,a
3451.0,3485.0,3459.0,3884.0,2634.0,2251.0,2458.0,2117.0,-0.81,9.83,4.97,0.06,0.01,-0.15,0.0,a
3451.0,3485.0,3459.0,3884.0,2634.0,2251.0,2458.0,2117.0,-0.81,9.83,4.97,0.06,0.01,-0.15,0.0,a
3451.0,3485.0,3459.0,3884.0,2634.0,2251.0,2458.0,2117.0,-0.81,9.83,4.97,0.06,0.01,-0.15,0.0,a
3451.0,3485.0,3459.0,3884.0,2634.0,2251.0,2458.0,2117.0,-0.81,9.83,4.97,0.06,0.01,-0.15,0.0,a
3451.0,3485.0,3459.0,3884.0,2634.0,2251.0,2458.0,2117.0,-0.81,9.83,4.97,0.06,0.01,-0.15,0.0,a
3451.0,3485.0,3459.0,3884.0,2634.0,2251.0,2458.0,2117.0,-0.81,9.83,4.97,0.06,0.01,-0.15,0.0,a
3451.0,3485.0,3459.0,3884.0,2634.0,2251.0,2458.0,2117.0,-0.81,9.83,4.97,0.06,0.01,-0.15,0.0,a
3451.0,3485.0,3459.0,3884.0,2634.0,2251.0,2458.0,2117.0,-0.81,9.83,4.97,0.06,0.01,-0.15,0.0,a
3451.0,3485.0,3459.0,3884.0,2634.0,2251.0,2458.0,2117.0,-0.81,9.83,4.97,0.06,0.01,-0.15,0.0,a
3451.0,3485.0,3459.0,3884.0,2634.0,2251.0,2458.0,2117.0,-0.81,9.83,4.97,0.06,0.01,-0.15,0.0,a
3451.0,3485.0,3459.0,3884.0,2634.0,2251.0,2458.0,2117.0,-0.81,9.83,4.97,0.06,0.01,-0.15,0.0,a
3451.0,3485.0,3459.0,3884.0,2634.0,2251.0,2458.0,2117.0,-0.81,9.83,4.97,0.06,0.01,-0.15,0.0,a
3451.0,3485.0,3459.0,3884.0,2634.0,2251.0,2458.0,2117.0,-0.81,9.83,4.97,0.06,0.01,-0.15,0.0,a
3451.0,3485.0,3459.0,3884.0,2634.0,2251.0,2458.0,2117.0,-0.81,9.83,4.97,0.06,0.01,-0.15,0.0,a
3451.0,3485.0,3459.0,3884.0,2634.0,2251.0,2458.0,2117.0,-0.81,9.83,4.97,0.06,0.01,-0.15,0.0,a
3451.0,3485.0,3459.0,3884.0,2634.0,2251.0,2458.0,2117.0,-0.81,9.83,4.97,0.06,0.01,-0.15,0.0,a
3451.0,3485.0,3459.0,3884.0,2634.0,2251.0,2458.0,2117.0,-0.81,9.83,4.97,0.06,0.01,-0.15,0.0,a
3440.0,3502.0,3475.0,3871.0,2630.0,2244.0,2439.0,2118.0,-0.72,9.8,4.95,0.01,0.03,-0.15,0.0,a
3440.0,3502.0,3475.0,3871.0,2630.0,2244.0,2439.0,2118.0,-0.72,9.8,4.95,0.01,0.03,-0.15,0.0,a
3440.0,3502.0,3475.0,3871.0,2630.0,2244.0,2439.0,2118.0,-0.72,9.8,4.95,0.01,0.03,-0.15,0.0,a
3440.0,3502.0,3475.0,3871.0,2630.0,2244.0,2439.0,2118.0,-0.72,9.8,4.95,0.01,0.03,-0.15,0.0,a
3440.0,3502.0,3475.0,3871.0,2630.0,2244.0,2439.0,2118.0,-0.72,9.8,4.95,0.01,0.03,-0.15,0.0,a
3440.0,3502.0,3475.0,3871.0,2630.0,2244.0,2439.0,2118.0,-0.72,9.8,4.95,0.01,0.03,-0.15,0.0,a
3440.0,3502.0,3475.0,3871.0,2630.0,2244.0,2439.0,2118.0,-0.72,9.8,4.95,0.01,0.03,-0.15,0.0,a
3440.0,3502.0,3475.0,3871.0,2630.0,2244.0,2439.0,2118.0,-0.72,9.8,4.95,0.01,0.03,-0.15,0.0,a
3440.0,3502.0,3475.0,3871.0,2630.0,2244.0,2439.0,2118.0,-0.72,9.8,4.95,0.01,0.03,-0.15,0.0,a
3440.0,3502.0,3475.0,3871.0,2630.0,2244.0,2439.0,2118.0,-0.72,9.8,4.95,0.01,0.03,-0.15,0.0,a
3440.0,3502.0,3475.0,3871.0,2630.0,2244.0,2439.0,2118.0,-0.72,9.8,4.95,0.01,0.03,-0.15,0.0,a
3440.0,3502.0,3475.0,3871.0,2630.0,2244.0,2439.0,2118.0,-0.72,9.8,4.95,0.01,0.03,-0.15,0.0,a
3440.0,3502.0,3475.0,3871.0,2630.0,2244.0,2439.0,2118.0,-0.72,9.8,4.95,0.01,0.03,-0.15,0.0,a
3440.0,3502.0,3475.0,3871.0,2630.0,2244.0,2439.0,2118.0,-0.72,9.8,4.95,0.01,0.03,-0.15,0.0,a
3440.0,3502.0,3475.0,3871.0,2630.0,2244.0,2439.0,2118.0,-0.72,9.8,4.95,0.01,0.03,-0.15,0.0,a
3440.0,3502.0,3475.0,3871.0,2630.0,2244.0,2439.0,2118.0,-0.72,9.8,4.95,0.01,0.03,-0.15,0.0,a
3440.0,3502.0,3475.0,3871.0,2630.0,2244.0,2439.0,2118.0,-0.72,9.8,4.95,0.01,0.03,-0.15,0.0,a
3440.0,3502.0,3475.0,3871.0,2630.0,2244.0,2439.0,2118.0,-0.72,9.8,4.95,0.01,0.03,-0.15,0.0,a
3440.0,3502.0,3475.0,3871.0,2630.0,2244.0,2439.0,2118.0,-0.72,9.8,4.95,0.01,0.03,-0.15,0.0,a
3440.0,3502.0,3475.0,3871.0,2630.0,2244.0,2439.0,2118.0,-0.72,9.8,4.95,0.01,0.03,-0.15,0.0,a
3452.0,3505.0,3461.0,3886.0,2635.0,2242.0,2467.0,2123.0,-0.7,9.8,4.99,0.01,0.01,-0.15,0.0,a
3452.0,3505.0,3461.0,3886.0,2635.0,2242.0,2467.0,2123.0,-0.7,9.8,4.99,0.01,0.01,-0.15,0.0,a
3452.0,3505.0,3461.0,3886.0,2635.0,2242.0,2467.0,2123.0,-0.7,9.8,4.99,0.01,0.01,-0.15,0.0,a
3452.0,3505.0,3461.0,3886.0,2635.0,2242.0,2467.0,2123.0,-0.7,9.8,4.99,0.01,0.01,-0.15,0.0,a
3452.0,3505.0,3461.0,3886.0,2635.0,2242.0,2467.0,2123.0,-0.7,9.8,4.99,0.01,0.01,-0.15,0.0,a
3452.0,3505.0,3461.0,3886.0,2635.0,2242.0,2467.0,2123.0,-0.7,9.8,4.99,0.01,0.01,-0.15,0.0,a
3452.0,3505.0,3461.0,3886.0,2635.0,2242.0,2467.0,2123.0,-0.7,9.8,4.99,0.01,0.01,-0.15,0.0,a
3452.0,3505.0,3461.0,3886.0,2635.0,2242.0,2467.0,2123.0,-0.7,9.8,4.99,0.01,0.01,-0.15,0.0,a
3452.0,3505.0,3461.0,3886.0,2635.0,2242.0,2467.0,2123.0,-0.7,9.8,4.99,0.01,0.01,-0.15,0.0,a
3452.0,3505.0,3461.0,3886.0,2635.0,2242.0,2467.0,2123.0,-0.7,9.8,4.99,0.01,0.01,-0.15,0.0,a
3452.0,3505.0,3461.0,3886.0,2635.0,2242.0,2467.0,2123.0,-0.7,9.8,4.99,0.01,0.01,-0.15,0.0,a
3452.0,3505.0,3461.0,3886.0,2635.0,2242.0,2467.0,2123.0,-0.7,9.8,4.99,0.01,0.01,-0.15,0.0,a
3452.0,3505.0,3461.0,3886.0,2635.0,2242.0,2467.0,2123.0,-0.7,9.8,4.99,0.01,0.01,-0.15,0.0,a
3452.0,3505.0,3461.0,3886.0,2635.0,2242.0,2467.0,2123.0,-0.7,9.8,4.99,0.01,0.01,-0.15,0.0,a
3452.0,3505.0,3461.0,3886.0,2635.0,2242.0,2467.0,2123.0,-0.7,9.8,4.99,0.01,0.01,-0.15,0.0,a
3452.0,3505.0,3461.0,3886.0,2635.0,2242.0,2467.0,2123.0,-0.7,9.8,4.99,0.01,0.01,-0.15,0.0,a
3452.0,3505.0,3461.0,3886.0,2635.0,2242.0,2467.0,2123.0,-0.7,9.8,4.99,0.01,0.01,-0.15,0.0,a
3452.0,3505.0,3461.0,3886.0,2635.0,2242.0,2467.0,2123.0,-0.7,9.8,4.99,0.01,0.01,-0.15,0.0,a
3452.0,3505.0,3461.0,3886.0,2635.0,2242.0,2467.0,2123.0,-0.7,9.8,4.99,0.01,0.01,-0.15,0.0,a
3452.0,3505.0,3461.0,3886.0,2635.0,2242.0,2467.0,2123.0,-0.7,9.8,4.99,0.01,0.01,-0.15,0.0,a
3446.0,3505.0,3473.0,3882.0,2640.0,2243.0,2461.0,2128.0,-0.76,9.82,4.96,0.03,-0.01,-0.16,0.0,a
3446.0,3505.0,3473.0,3882.0,2640.0,2243.0,2461.0,2128.0,-0.76,9.82,4.96,0.03,-0.01,-0.16,0.0,a
3446.0,3505.0,3473.0,3882.0,2640.0,2243.0,2461.0,2128.0,-0.76,9.82,4.96,0.03,-0.01,-0.16,0.0,a
3446.0,3505.0,3473.0,3882.0,2640.0,2243.0,2461.0,2128.0,-0.76,9.82,4.96,0.03,-0.01,-0.16,0.0,a
3446.0,3505.0,3473.0,3882.0,2640.0,2243.0,2461.0,2128.0,-0.76,9.82,4.96,0.03,-0.01,-0.16,0.0,a
3446.0,3505.0,3473.0,3882.0,2640.0,2243.0,2461.0,2128.0,-0.76,9.82,4.96,0.03,-0.01,-0.16,0.0,a
3446.0,3505.0,3473.0,3882.0,2640.0,2243.0,2461.0,2128.0,-0.76,9.82,4.96,0.03,-0.01,-0.16,0.0,a
3446.0,3505.0,3473.0,3882.0,2640.0,2243.0,2461.0,2128.0,-0.76,9.82,4.96,0.03,-0.01,-0.16,0.0,a
3446.0,3505.0,3473.0,3882.0,2640.0,2243.0,2461.0,2128.0,-0.76,9.82,4.96,0.03,-0.01,-0.16,0.0,a
3446.0,3505.0,3473.0,3882.0,2640.0,2243.0,2461.0,2128.0,-0.76,9.82,4.96,0.03,-0.01,-0.16,0.0,a
3446.0,3505.0,3473.0,3882.0,2640.0,2243.0,2461.0,2128.0,-0.76,9.82,4.96,0.03,-0.01,-0.16,0.0,a
3446.0,3505.0,3473.0,3882.0,2640.0,2243.0,2461.0,2128.0,-0.76,9.82,4.96,0.03,-0.01,-0.16,0.0,a
3446.0,3505.0,3473.0,3882.0,2640.0,2243.0,2461.0,2128.0,-0.76,9.82,4.96,0.03,-0.01,-0.16,0.0,a
3446.0,3505.0,3473.0,3882.0,2640.0,2243.0,2461.0,2128.0,-0.76,9.82,4.96,0.03,-0.01,-0.16,0.0,a
3446.0,3505.0,3473.0,3882.0,2640.0,2243.0,2461.0,2128.0,-0.76,9.82,4.96,0.03,-0.01,-0.16,0.0,a
3446.0,3505.0,3473.0,3882.0,2640.0,2243.0,2461.0,2128.0,-0.76,9.82,4.96,0.03,-0.01,-0.16,0.0,a
3446.0,3505.0,3473.0,3882.0,2640.0,2243.0,2461.0,2128.0,-0.76,9.82,4.96,0.03,-0.01,-0.16,0.0,a
3446.0,3505.0,3473.0,3882.0,2640.0,2243.0,2461.0,2128.0,-0.76,9.82,4.96,0.03,-0.01,-0.16,0.0,a
3446.0,3505.0,3473.0,3882.0,2640.0,2243.0,2461.0,2128.0,-0.76,9.82,4.96,0.03,-0.01,-0.16,0.0,a
3446.0,3505.0,3473.0,3882.0,2640.0,2243.0,2461.0,2128.0,-0.76,9.82,4.96,0.03,-0.01,-0.16,0.0,a
3439.0,3489.0,3473.0,3882.0,2640.0,2251.0,2465.0,2131.0,-0.68,9.84,4.91,-0.03,0.05,-0.18,0.0,a
3439.0,3489.0,3473.0,3882.0,2640.0,2251.0,2465.0,2131.0,-0.68,9.84,4.91,-0.03,0.05,-0.18,0.0,a
3439.0,3489.0,3473.0,3882.0,2640.0,2251.0,2465.0,2131.0,-0.68,9.84,4.91,-0.03,0.05,-0.18,0.0,a
3439.0,3489.0,3473.0,3882.0,2640.0,2251.0,2465.0,2131.0,-0.68,9.84,4.91,-0.03,0.05,-0.18,0.0,a
3439.0,3489.0,3473.0,3882.0,2640.0,2251.0,2465.0,2131.0,-0.68,9.84,4.91,-0.03,0.05,-0.18,0.0,a
3439.0,3489.0,3473.0,3882.0,2640.0,2251.0,2465.0,2131.0,-0.68,9.84,4.91,-0.03,0.05,-0.18,0.0,a
3439.0,3489.0,3473.0,3882.0,2640.0,2251.0,2465.0,2131.0,-0.68,9.84,4.91,-0.03,0.05,-0.18,0.0,a
3439.0,3489.0,3473.0,3882.0,2640.0,2251.0,2465.0,2131.0,-0.68,9.84,4.91,-0.03,0.05,-0.18,0.0,a
3439.0,3489.0,3473.0,3882.0,2640.0,2251.0,2465.0,2131.0,-0.68,9.84,4.91,-0.03,0.05,-0.18,0.0,a
3439.0,3489.0,3473.0,3882.0,2640.0,2251.0,2465.0,2131.0,-0.68,9.84,4.91,-0.03,0.05,-0.18,0.0,a
3439.0,3489.0,3473.0,3882.0,2640.0,2251.0,2465.0,2131.0,-0.68,9.84,4.91,-0.03,0.05,-0.18,0.0,a
3439.0,3489.0,3473.0,3882.0,2640.0,2251.0,2465.0,2131.0,-0.68,9.84,4.91,-0.03,0.05,-0.18,0.0,a
3439.0,3489.0,3473.0,3882.0,2640.0,2251.0,2465.0,2131.0,-0.68,9.84,4.91,-0.03,0.05,-0.18,0.0,a
3439.0,3489.0,3473.0,3882.0,2640.0,2251.0,2465.0,2131.0,-0.68,9.84,4.91,-0.03,0.05,-0.18,0.0,a
3439.0,3489.0,3473.0,3882.0,2640.0,2251.0,2465.0,2131.0,-0.68,9.84,4.91,-0.03,0.05,-0.18,0.0,a
3439.0,3489.0,3473.0,3882.0,2640.0,2251.0,2465.0,2131.0,-0.68,9.84,4.91,-0.03,0.05,-0.18,0.0,a
3439.0,3489.0,3473.0,3882.0,2640.0,2251.0,2465.0,2131.0,-0.68,9.84,4.91,-0.03,0.05,-0.18,0.0,a
3439.0,3489.0,3473.0,3882.0,2640.0,2251.0,2465.0,2131.0,-0.68,9.84,4.91,-0.03,0.05,-0.18,0.0,a
3439.0,3489.0,3473.0,3882.0,2640.0,2251.0,2465.0,2131.0,-0.68,9.84,4.91,-0.03,0.05,-0.18,0.0,a
3439.0,3489.0,3473.0,3882.0,2640.0,2251.0,2465.0,2131.0,-0.68,9.84,4.91,-0.03,0.05,-0.18,0.0,a
3447.0,3486.0,3463.0,3888.0,2636.0,2256.0,2466.0,2129.0,-0.69,9.73,5.09,0.01,-0.03,-0.15,0.0,a
3447.0,3486.0,3463.0,3888.0,2636.0,2256.0,2466.0,2129.0,-0.69,9.73,5.09,0.01,-0.03,-0.15,0.0,a
3447.0,3486.0,3463.0,3888.0,2636.0,2256.0,2466.0,2129.0,-0.69,9.73,5.09,0.01,-0.03,-0.15,0.0,a
3447.0,3486.0,3463.0,3888.0,2636.0,2256.0,2466.0,2129.0,-0.69,9.73,5.09,0.01,-0.03,-0.15,0.0,a
3447.0,3486.0,3463.0,3888.0,2636.0,2256.0,2466.0,2129.0,-0.69,9.73,5.09,0.01,-0.03,-0.15,0.0,a
3447.0,3486.0,3463.0,3888.0,2636.0,2256.0,2466.0,2129.0,-0.69,9.73,5.09,0.01,-0.03,-0.15,0.0,a
3447.0,3486.0,3463.0,3888.0,2636.0,2256.0,2466.0,2129.0,-0.69,9.73,5.09,0.01,-0.03,-0.15,0.0,a
3447.0,3486.0,3463.0,3888.0,2636.0,2256.0,2466.0,2129.0,-0.69,9.73,5.09,0.01,-0.03,-0.15,0.0,a
3447.0,3486.0,3463.0,3888.0,2636.0,2256.0,2466.0,2129.0,-0.69,9.73,5.09,0.01,-0.03,-0.15,0.0,a
3447.0,3486.0,3463.0,3888.0,2636.0,2256.0,2466.0,2129.0,-0.69,9.73,5.09,0.01,-0.03,-0.15,0.0,a
3447.0,3486.0,3463.0,3888.0,2636.0,2256.0,2466.0,2129.0,-0.69,9.73,5.09,0.01,-0.03,-0.15,0.0,a
3447.0,3486.0,3463.0,3888.0,2636.0,2256.0,2466.0,2129.0,-0.69,9.73,5.09,0.01,-0.03,-0.15,0.0,a
3447.0,3486.0,3463.0,3888.0,2636.0,2256.0,2466.0,2129.0,-0.69,9.73,5.09,0.01,-0.03,-0.15,0.0,a
3447.0,3486.0,3463.0,3888.0,2636.0,2256.0,2466.0,2129.0,-0.69,9.73,5.09,0.01,-0.03,-0.15,0.0,a
3447.0,3486.0,3463.0,3888.0,2636.0,2256.0,2466.0,2129.0,-0.69,9.73,5.09,0.01,-0.03,-0.15,0.0,a
3447.0,3486.0,3463.0,3888.0,2636.0,2256.0,2466.0,2129.0,-0.69,9.73,5.09,0.01,-0.03,-0.15,0.0,a
3447.0,3486.0,3463.0,3888.0,2636.0,2256.0,2466.0,2129.0,-0.69,9.73,5.09,0.01,-0.03,-0.15,0.0,a
3447.0,3486.0,3463.0,3888.0,2636.0,2256.0,2466.0,2129.0,-0.69,9.73,5.09,0.01,-0.03,-0.15,0.0,a
3447.0,3486.0,3463.0,3888.0,2636.0,2256.0,2466.0,2129.0,-0.69,9.73,5.09,0.01,-0.03,-0.15,0.0,a
3447.0,3486.0,3463.0,3888.0,2636.0,2256.0,2466.0,2129.0,-0.69,9.73,5.09,0.01,-0.03,-0.15,0.0,a
3447.0,3511.0,3474.0,3886.0,2642.0,2253.0,2466.0,2130.0,-0.75,9.8,4.95,0.0,-0.01,-0.15,0.0,a
3447.0,3511.0,3474.0,3886.0,2642.0,2253.0,2466.0,2130.0,-0.75,9.8,4.95,0.0,-0.01,-0.15,0.0,a
3447.0,3511.0,3474.0,3886.0,2642.0,2253.0,2466.0,2130.0,-0.75,9.8,4.95,0.0,-0.01,-0.15,0.0,a
3447.0,3511.0,3474.0,3886.0,2642.0,2253.0,2466.0,2130.0,-0.75,9.8,4.95,0.0,-0.01,-0.15,0.0,a
3447.0,3511.0,3474.0,3886.0,2642.0,2253.0,2466.0,2130.0,-0.75,9.8,4.95,0.0,-0.01,-0.15,0.0,a
3447.0,3511.0,3474.0,3886.0,2642.0,2253.0,2466.0,2130.0,-0.75,9.8,4.95,0.0,-0.01,-0.15,0.0,a
3447.0,3511.0,3474.0,3886.0,2642.0,2253.0,2466.0,2130.0,-0.75,9.8,4.95,0.0,-0.01,-0.15,0.0,a
3447.0,3511.0,3474.0,3886.0,2642.0,2253.0,2466.0,2130.0,-0.75,9.8,4.95,0.0,-0.01,-0.15,0.0,a
3447.0,3511.0,3474.0,3886.0,2642.0,2253.0,2466.0,2130.0,-0.75,9.8,4.95,0.0,-0.01,-0.15,0.0,a
3447.0,3511.0,3474.0,3886.0,2642.0,2253.0,2466.0,2130.0,-0.75,9.8,4.95,0.0,-0.01,-0.15,0.0,a
3447.0,3511.0,3474.0,3886.0,2642.0,2253.0,2466.0,2130.0,-0.75,9.8,4.95,0.0,-0.01,-0.15,0.0,a
3447.0,3511.0,3474.0,3886.0,2642.0,2253.0,2466.0,2130.0,-0.75,9.8,4.95,0.0,-0.01,-0.15,0.0,a
3447.0,3511.0,3474.0,3886.0,2642.0,2253.0,2466.0,2130.0,-0.75,9.8,4.95,0.0,-0.01,-0.15,0.0,a
3447.0,3511.0,3474.0,3886.0,2642.0,2253.0,2466.0,2130.0,-0.75,9.8,4.95,0.0,-0.01,-0.15,0.0,a
3447.0,3511.0,3474.0,3886.0,2642.0,2253.0,2466.0,2130.0,-0.75,9.8,4.95,0.0,-0.01,-0.15,0.0,a
3447.0,3511.0,3474.0,3886.0,2642.0,2253.0,2466.0,2130.0,-0.75,9.8,4.95,0.0,-0.01,-0.15,0.0,a
3447.0,3511.0,3474.0,3886.0,2642.0,2253.0,2466.0,2130.0,-0.75,9.8,4.95,0.0,-0.01,-0.15,0.0,a
3447.0,3511.0,3474.0,3886.0,2642.0,2253.0,2466.0,2130.0,-0.75,9.8,4.95,0.0,-0.01,-0.15,0.0,a
3447.0,3511.0,3474.0,3886.0,2642.0,2253.0,2466.0,2130.0,-0.75,9.8,4.95,0.0,-0.01,-0.15,0.0,a
3447.0,3511.0,3474.0,3886.0,2642.0,2253.0,2466.0,2130.0,-0.75,9.8,4.95,0.0,-0.01,-0.15,0.0,a
3448.0,3490.0,3473.0,3888.0,2642.0,2251.0,2470.0,2128.0,-0.84,9.84,5.03,0.01,0.01,-0.14,0.0,a
3448.0,3490.0,3473.0,3888.0,2642.0,2251.0,2470.0,2128.0,-0.84,9.84,5.03,0.01,0.01,-0.14,0.0,a
3448.0,3490.0,3473.0,3888.0,2642.0,2251.0,2470.0,2128.0,-0.84,9.84,5.03,0.01,0.01,-0.14,0.0,a
3448.0,3490.0,3473.0,3888.0,2642.0,2251.0,2470.0,2128.0,-0.84,9.84,5.03,0.01,0.01,-0.14,0.0,a
3448.0,3490.0,3473.0,3888.0,2642.0,2251.0,2470.0,2128.0,-0.84,9.84,5.03,0.01,0.01,-0.14,0.0,a
3448.0,3490.0,3473.0,3888.0,2642.0,2251.0,2470.0,2128.0,-0.84,9.84,5.03,0.01,0.01,-0.14,0.0,a
3448.0,3490.0,3473.0,3888.0,2642.0,2251.0,2470.0,2128.0,-0.84,9.84,5.03,0.01,0.01,-0.14,0.0,a
3448.0,3490.0,3473.0,3888.0,2642.0,2251.0,2470.0,2128.0,-0.84,9.84,5.03,0.01,0.01,-0.14,0.0,a
3448.0,3490.0,3473.0,3888.0,2642.0,2251.0,2470.0,2128.0,-0.84,9.84,5.03,0.01,0.01,-0.14,0.0,a
3448.0,3490.0,3473.0,3888.0,2642.0,2251.0,2470.0,2128.0,-0.84,9.84,5.03,0.01,0.01,-0.14,0.0,a
3448.0,3490.0,3473.0,3888.0,2642.0,2251.0,2470.0,2128.0,-0.84,9.84,5.03,0.01,0.01,-0.14,0.0,a
3448.0,3490.0,3473.0,3888.0,2642.0,2251.0,2470.0,2128.0,-0.84,9.84,5.03,0.01,0.01,-0.14,0.0,a
3448.0,3490.0,3473.0,3888.0,2642.0,2251.0,2470.0,2128.0,-0.84,9.84,5.03,0.01,0.01,-0.14,0.0,a
3448.0,3490.0,3473.0,3888.0,2642.0,2251.0,2470.0,2128.0,-0.84,9.84,5.03,0.01,0.01,-0.14,0.0,a
3448.0,3490.0,3473.0,3888.0,2642.0,2251.0,2470.0,2128.0,-0.84,9.84,5.03,0.01,0.01,-0.14,0.0,a
3448.0,3490.0,3473.0,3888.0,2642.0,2251.0,2470.0,2128.0,-0.84,9.84,5.03,0.01,0.01,-0.14,0.0,a
3448.0,3490.0,3473.0,3888.0,2642.0,2251.0,2470.0,2128.0,-0.84,9.84,5.03,0.01,0.01,-0.14,0.0,a
3448.0,3490.0,3473.0,3888.0,2642.0,2251.0,2470.0,2128.0,-0.84,9.84,5.03,0.01,0.01,-0.14,0.0,a
3448.0,3490.0,3473.0,3888.0,2642.0,2251.0,2470.0,2128.0,-0.84,9.84,5.03,0.01,0.01,-0.14,0.0,a
3448.0,3490.0,3473.0,3888.0,2642.0,2251.0,2470.0,2128.0,-0.84,9.84,5.03,0.01,0.01,-0.14,0.0,a
3439.0,3501.0,3456.0,3859.0,2640.0,2246.0,2471.0,2128.0,-0.72,9.85,4.91,-0.0,0.0,-0.15,0.0,a
3439.0,3501.0,3456.0,3859.0,2640.0,2246.0,2471.0,2128.0,-0.72,9.85,4.91,-0.0,0.0,-0.15,0.0,a
3439.0,3501.0,3456.0,3859.0,2640.0,2246.0,2471.0,2128.0,-0.72,9.85,4.91,-0.0,0.0,-0.15,0.0,a
3439.0,3501.0,3456.0,3859.0,2640.0,2246.0,2471.0,2128.0,-0.72,9.85,4.91,-0.0,0.0,-0.15,0.0,a
3439.0,3501.0,3456.0,3859.0,2640.0,2246.0,2471.0,2128.0,-0.72,9.85,4.91,-0.0,0.0,-0.15,0.0,a
3439.0,3501.0,3456.0,3859.0,2640.0,2246.0,2471.0,2128.0,-0.72,9.85,4.91,-0.0,0.0,-0.15,0.0,a
3439.0,3501.0,3456.0,3859.0,2640.0,2246.0,2471.0,2128.0,-0.72,9.85,4.91,-0.0,0.0,-0.15,0.0,a
3439.0,3501.0,3456.0,3859.0,2640.0,2246.0,2471.0,2128.0,-0.72,9.85,4.91,-0.0,0.0,-0.15,0.0,a
3439.0,3501.0,3456.0,3859.0,2640.0,2246.0,2471.0,2128.0,-0.72,9.85,4.91,-0.0,0.0,-0.15,0.0,a
3439.0,3501.0,3456.0,3859.0,2640.0,2246.0,2471.0,2128.0,-0.72,9.85,4.91,-0.0,0.0,-0.15,0.0,a
3439.0,3501.0,3456.0,3859.0,2640.0,2246.0,2471.0,2128.0,-0.72,9.85,4.91,-0.0,0.0,-0.15,0.0,a
3439.0,3501.0,3456.0,3859.0,2640.0,2246.0,2471.0,2128.0,-0.72,9.85,4.91,-0.0,0.0,-0.15,0.0,a
3439.0,3501.0,3456.0,3859.0,2640.0,2246.0,2471.0,2128.0,-0.72,9.85,4.91,-0.0,0.0,-0.15,0.0,a
3439.0,3501.0,3456.0,3859.0,2640.0,2246.0,2471.0,2128.0,-0.72,9.85,4.91,-0.0,0.0,-0.15,0.0,a
3439.0,3501.0,3456.0,3859.0,2640.0,2246.0,2471.0,2128.0,-0.72,9.85,4.91,-0.0,0.0,-0.15,0.0,a
3439.0,3501.0,3456.0,3859.0,2640.0,2246.0,2471.0,2128.0,-0.72,9.85,4.91,-0.0,0.0,-0.15,0.0,a
3439.0,3501.0,3456.0,3859.0,2640.0,2246.0,2471.0,2128.0,-0.72,9.85,4.91,-0.0,0.0,-0.15,0.0,a
3439.0,3501.0,3456.0,3859.0,2640.0,2246.0,2471.0,2128.0,-0.72,9.85,4.91,-0.0,0.0,-0.15,0.0,a
3439.0,3501.0,3456.0,3859.0,2640.0,2246.0,2471.0,2128.0,-0.72,9.85,4.91,-0.0,0.0,-0.15,0.0,a
3439.0,3501.0,3456.0,3859.0,2640.0,2246.0,2471.0,2128.0,-0.72,9.85,4.91,-0.0,0.0,-0.15,0.0,a
3439.0,3504.0,3461.0,3869.0,2662.0,2254.0,2464.0,2131.0,-0.81,9.82,5.0,0.01,-0.01,-0.16,0.0,a
3439.0,3504.0,3461.0,3869.0,2662.0,2254.0,2464.0,2131.0,-0.81,9.82,5.0,0.01,-0.01,-0.16,0.0,a
3439.0,3504.0,3461.0,3869.0,2662.0,2254.0,2464.0,2131.0,-0.81,9.82,5.0,0.01,-0.01,-0.16,0.0,a
3439.0,3504.0,3461.0,3869.0,2662.0,2254.0,2464.0,2131.0,-0.81,9.82,5.0,0.01,-0.01,-0.16,0.0,a
3439.0,3504.0,3461.0,3869.0,2662.0,2254.0,2464.0,2131.0,-0.81,9.82,5.0,0.01,-0.01,-0.16,0.0,a
3439.0,3504.0,3461.0,3869.0,2662.0,2254.0,2464.0,2131.0,-0.81,9.82,5.0,0.01,-0.01,-0.16,0.0,a
3439.0,3504.0,3461.0,3869.0,2662.0,2254.0,2464.0,2131.0,-0.81,9.82,5.0,0.01,-0.01,-0.16,0.0,a
3439.0,3504.0,3461.0,3869.0,2662.0,2254.0,2464.0,2131.0,-0.81,9.82,5.0,0.01,-0.01,-0.16,0.0,a
3439.0,3504.0,3461.0,3869.0,2662.0,2254.0,2464.0,2131.0,-0.81,9.82,5.0,0.01,-0.01,-0.16,0.0,a
3439.0,3504.0,3461.0,3869.0,2662.0,2254.0,2464.0,2131.0,-0.81,9.82,5.0,0.01,-0.01,-0.16,0.0,a
3439.0,3504.0,3461.0,3869.0,2662.0,2254.0,2464.0,2131.0,-0.81,9.82,5.0,0.01,-0.01,-0.16,0.0,a
3439.0,3504.0,3461.0,3869.0,2662.0,2254.0,2464.0,2131.0,-0.81,9.82,5.0,0.01,-0.01,-0.16,0.0,a
3439.0,3504.0,3461.0,3869.0,2662.0,2254.0,2464.0,2131.0,-0.81,9.82,5.0,0.01,-0.01,-0.16,0.0,a
3439.0,3504.0,3461.0,3869.0,2662.0,2254.0,2464.0,2131.0,-0.81,9.82,5.0,0.01,-0.01,-0.16,0.0,a
3439.0,3504.0,3461.0,3869.0,2662.0,2254.0,2464.0,2131.0,-0.81,9.82,5.0,0.01,-0.01,-0.16,0.0,a
3439.0,3504.0,3461.0,3869.0,2662.0,2254.0,2464.0,2131.0,-0.81,9.82,5.0,0.01,-0.01,-0.16,0.0,a
3439.0,3504.0,3461.0,3869.0,2662.0,2254.0,2464.0,2131.0,-0.81,9.82,5.0,0.01,-0.01,-0.16,0.0,a
3439.0,3504.0,3461.0,3869.0,2662.0,2254.0,2464.0,2131.0,-0.81,9.82,5.0,0.01,-0.01,-0.16,0.0,a
3439.0,3504.0,3461.0,3869.0,2662.0,2254.0,2464.0,2131.0,-0.81,9.82,5.0,0.01,-0.01,-0.16,0.0,a
3439.0,3504.0,3461.0,3869.0,2662.0,2254.0,2464.0,2131.0,-0.81,9.82,5.0,0.01,-0.01,-0.16,0.0,a
3453.0,3506.0,3473.0,3890.0,2641.0,2277.0,2480.0,2133.0,-0.85,9.8,4.94,0.02,-0.09,-0.14,0.0,a
3453.0,3506.0,3473.0,3890.0,2641.0,2277.0,2480.0,2133.0,-0.85,9.8,4.94,0.02,-0.09,-0.14,0.0,a
3453.0,3506.0,3473.0,3890.0,2641.0,2277.0,2480.0,2133.0,-0.85,9.8,4.94,0.02,-0.09,-0.14,0.0,a
3453.0,3506.0,3473.0,3890.0,2641.0,2277.0,2480.0,2133.0,-0.85,9.8,4.94,0.02,-0.09,-0.14,0.0,a
3453.0,3506.0,3473.0,3890.0,2641.0,2277.0,2480.0,2133.0,-0.85,9.8,4.94,0.02,-0.09,-0.14,0.0,a
3453.0,3506.0,3473.0,3890.0,2641.0,2277.0,2480.0,2133.0,-0.85,9.8,4.94,0.02,-0.09,-0.14,0.0,a
3453.0,3506.0,3473.0,3890.0,2641.0,2277.0,2480.0,2133.0,-0.85,9.8,4.94,0.02,-0.09,-0.14,0.0,a
3453.0,3506.0,3473.0,3890.0,2641.0,2277.0,2480.0,2133.0,-0.85,9.8,4.94,0.02,-0.09,-0.14,0.0,a
3453.0,3506.0,3473.0,3890.0,2641.0,2277.0,2480.0,2133.0,-0.85,9.8,4.94,0.02,-0.09,-0.14,0.0,a
3453.0,3506.0,3473.0,3890.0,2641.0,2277.0,2480.0,2133.0,-0.85,9.8,4.94,0.02,-0.09,-0.14,0.0,a
3453.0,3506.0,3473.0,3890.0,2641.0,2277.0,2480.0,2133.0,-0.85,9.8,4.94,0.02,-0.09,-0.14,0.0,a
3453.0,3506.0,3473.0,3890.0,2641.0,2277.0,2480.0,2133.0,-0.85,9.8,4.94,0.02,-0.09,-0.14,0.0,a
3453.0,3506.0,3473.0,3890.0,2641.0,2277.0,2480.0,2133.0,-0.85,9.8,4.94,0.02,-0.09,-0.14,0.0,a
3453.0,3506.0,3473.0,3890.0,2641.0,2277.0,2480.0,2133.0,-0.85,9.8,4.94,0.02,-0.09,-0.14,0.0,a
3453.0,3506.0,3473.0,3890.0,2641.0,2277.0,2480.0,2133.0,-0.85,9.8,4.94,0.02,-0.09,-0.14,0.0,a
3453.0,3506.0,3473.0,3890.0,2641.0,2277.0,2480.0,2133.0,-0.85,9.8,4.94,0.02,-0.09,-0.14,0.0,a
3453.0,3506.0,3473.0,3890.0,2641.0,2277.0,2480.0,2133.0,-0.85,9.8,4.94,0.02,-0.09,-0.14,0.0,a
3453.0,3506.0,3473.0,3890.0,2641.0,2277.0,2480.0,2133.0,-0.85,9.8,4.94,0.02,-0.09,-0.14,0.0,a
3453.0,3506.0,3473.0,3890.0,2641.0,2277.0,2480.0,2133.0,-0.85,9.8,4.94,0.02,-0.09,-0.14,0.0,a
3453.0,3506.0,3473.0,3890.0,2641.0,2277.0,2480.0,2133.0,-0.85,9.8,4.94,0.02,-0.09,-0.14,0.0,a
3454.0,3499.0,3466.0,3870.0,2643.0,2256.0,2474.0,2133.0,-0.75,9.8,5.04,0.01,0.04,-0.15,0.0,a
3454.0,3499.0,3466.0,3870.0,2643.0,2256.0,2474.0,2133.0,-0.75,9.8,5.04,0.01,0.04,-0.15,0.0,a
3454.0,3499.0,3466.0,3870.0,2643.0,2256.0,2474.0,2133.0,-0.75,9.8,5.04,0.01,0.04,-0.15,0.0,a
3454.0,3499.0,3466.0,3870.0,2643.0,2256.0,2474.0,2133.0,-0.75,9.8,5.04,0.01,0.04,-0.15,0.0,a
3454.0,3499.0,3466.0,3870.0,2643.0,2256.0,2474.0,2133.0,-0.75,9.8,5.04,0.01,0.04,-0.15,0.0,a
3454.0,3499.0,3466.0,3870.0,2643.0,2256.0,2474.0,2133.0,-0.75,9.8,5.04,0.01,0.04,-0.15,0.0,a
3454.0,3499.0,3466.0,3870.0,2643.0,2256.0,2474.0,2133.0,-0.75,9.8,5.04,0.01,0.04,-0.15,0.0,a
3454.0,3499.0,3466.0,3870.0,2643.0,2256.0,2474.0,2133.0,-0.75,9.8,5.04,0.01,0.04,-0.15,0.0,a
3454.0,3499.0,3466.0,3870.0,2643.0,2256.0,2474.0,2133.0,-0.75,9.8,5.04,0.01,0.04,-0.15,0.0,a
3454.0,3499.0,3466.0,3870.0,2643.0,2256.0,2474.0,2133.0,-0.75,9.8,5.04,0.01,0.04,-0.15,0.0,a
3454.0,3499.0,3466.0,3870.0,2643.0,2256.0,2474.0,2133.0,-0.75,9.8,5.04,0.01,0.04,-0.15,0.0,a
3454.0,3499.0,3466.0,3870.0,2643.0,2256.0,2474.0,2133.0,-0.75,9.8,5.04,0.01,0.04,-0.15,0.0,a
3454.0,3499.0,3466.0,3870.0,2643.0,2256.0,2474.0,2133.0,-0.75,9.8,5.04,0.01,0.04,-0.15,0.0,a
3454.0,3499.0,3466.0,3870.0,2643.0,2256.0,2474.0,2133.0,-0.75,9.8,5.04,0.01,0.04,-0.15,0.0,a
3454.0,3499.0,3466.0,3870.0,2643.0,2256.0,2474.0,2133.0,-0.75,9.8,5.04,0.01,0.04,-0.15,0.0,a
3454.0,3499.0,3466.0,3870.0,2643.0,2256.0,2474.0,2133.0,-0.75,9.8,5.04,0.01,0.04,-0.15,0.0,a
3454.0,3499.0,3466.0,3870.0,2643.0,2256.0,2474.0,2133.0,-0.75,9.8,5.04,0.01,0.04,-0.15,0.0,a
3454.0,3499.0,3466.0,3870.0,2643.0,2256.0,2474.0,2133.0,-0.75,9.8,5.04,0.01,0.04,-0.15,0.0,a
3454.0,3499.0,3466.0,3870.0,2643.0,2256.0,2474.0,2133.0,-0.75,9.8,5.04,0.01,0.04,-0.15,0.0,a
3454.0,3499.0,3466.0,3870.0,2643.0,2256.0,2474.0,2133.0,-0.75,9.8,5.04,0.01,0.04,-0.15,0.0,a
3459.0,3515.0,3472.0,3888.0,2644.0,2255.0,2469.0,2160.0,-0.8,9.79,4.97,0.0,0.01,-0.15,0.0,a
3459.0,3515.0,3472.0,3888.0,2644.0,2255.0,2469.0,2160.0,-0.8,9.79,4.97,0.0,0.01,-0.15,0.0,a
3459.0,3515.0,3472.0,3888.0,2644.0,2255.0,2469.0,2160.0,-0.8,9.79,4.97,0.0,0.01,-0.15,0.0,a
3459.0,3515.0,3472.0,3888.0,2644.0,2255.0,2469.0,2160.0,-0.8,9.79,4.97,0.0,0.01,-0.15,0.0,a
3459.0,3515.0,3472.0,3888.0,2644.0,2255.0,2469.0,2160.0,-0.8,9.79,4.97,0.0,0.01,-0.15,0.0,a
3459.0,3515.0,3472.0,3888.0,2644.0,2255.0,2469.0,2160.0,-0.8,9.79,4.97,0.0,0.01,-0.15,0.0,a
3459.0,3515.0,3472.0,3888.0,2644.0,2255.0,2469.0,2160.0,-0.8,9.79,4.97,0.0,0.01,-0.15,0.0,a
3459.0,3515.0,3472.0,3888.0,2644.0,2255.0,2469.0,2160.0,-0.8,9.79,4.97,0.0,0.01,-0.15,0.0,a
3459.0,3515.0,3472.0,3888.0,2644.0,2255.0,2469.0,2160.0,-0.8,9.79,4.97,0.0,0.01,-0.15,0.0,a
3459.0,3515.0,3472.0,3888.0,2644.0,2255.0,2469.0,2160.0,-0.8,9.79,4.97,0.0,0.01,-0.15,0.0,a
3459.0,3515.0,3472.0,3888.0,2644.0,2255.0,2469.0,2160.0,-0.8,9.79,4.97,0.0,0.01,-0.15,0.0,a
3459.0,3515.0,3472.0,3888.0,2644.0,2255.0,2469.0,2160.0,-0.8,9.79,4.97,0.0,0.01,-0.15,0.0,a
3459.0,3515.0,3472.0,3888.0,2644.0,2255.0,2469.0,2160.0,-0.8,9.79,4.97,0.0,0.01,-0.15,0.0,a
3459.0,3515.0,3472.0,3888.0,2644.0,2255.0,2469.0,2160.0,-0.8,9.79,4.97,0.0,0.01,-0.15,0.0,a
3459.0,3515.0,3472.0,3888.0,2644.0,2255.0,2469.0,2160.0,-0.8,9.79,4.97,0.0,0.01,-0.15,0.0,a
3459.0,3515.0,3472.0,3888.0,2644.0,2255.0,2469.0,2160.0,-0.8,9.79,4.97,0.0,0.01,-0.15,0.0,a
3459.0,3515.0,3472.0,3888.0,2644.0,2255.0,2469.0,2160.0,-0.8,9.79,4.97,0.0,0.01,-0.15,0.0,a
3459.0,3515.0,3472.0,3888.0,2644.0,2255.0,2469.0,2160.0,-0.8,9.79,4.97,0.0,0.01,-0.15,0.0,a
3459.0,3515.0,3472.0,3888.0,2644.0,2255.0,2469.0,2160.0,-0.8,9.79,4.97,0.0,0.01,-0.15,0.0,a
3459.0,3515.0,3472.0,3888.0,2644.0,2255.0,2469.0,2160.0,-0.8,9.79,4.97,0.0,0.01,-0.15,0.0,a
3439.0,3513.0,3473.0,3882.0,2650.0,2255.0,2478.0,2137.0,-0.77,9.82,5.03,0.0,-0.01,-0.12,0.0,a
3439.0,3513.0,3473.0,3882.0,2650.0,2255.0,2478.0,2137.0,-0.77,9.82,5.03,0.0,-0.01,-0.12,0.0,a
3439.0,3513.0,3473.0,3882.0,2650.0,2255.0,2478.0,2137.0,-0.77,9.82,5.03,0.0,-0.01,-0.12,0.0,a
3439.0,3513.0,3473.0,3882.0,2650.0,2255.0,2478.0,2137.0,-0.77,9.82,5.03,0.0,-0.01,-0.12,0.0,a
3439.0,3513.0,3473.0,3882.0,2650.0,2255.0,2478.0,2137.0,-0.77,9.82,5.03,0.0,-0.01,-0.12,0.0,a
3439.0,3513.0,3473.0,3882.0,2650.0,2255.0,2478.0,2137.0,-0.77,9.82,5.03,0.0,-0.01,-0.12,0.0,a
3439.0,3513.0,3473.0,3882.0,2650.0,2255.0,2478.0,2137.0,-0.77,9.82,5.03,0.0,-0.01,-0.12,0.0,a
3439.0,3513.0,3473.0,3882.0,2650.0,2255.0,2478.0,2137.0,-0.77,9.82,5.03,0.0,-0.01,-0.12,0.0,a
3439.0,3513.0,3473.0,3882.0,2650.0,2255.0,2478.0,2137.0,-0.77,9.82,5.03,0.0,-0.01,-0.12,0.0,a
3439.0,3513.0,3473.0,3882.0,2650.0,2255.0,2478.0,2137.0,-0.77,9.82,5.03,0.0,-0.01,-0.12,0.0,a
3439.0,3513.0,3473.0,3882.0,2650.0,2255.0,2478.0,2137.0,-0.77,9.82,5.03,0.0,-0.01,-0.12,0.0,a
3439.0,3513.0,3473.0,3882.0,2650.0,2255.0,2478.0,2137.0,-0.77,9.82,5.03,0.0,-0.01,-0.12,0.0,a
3439.0,3513.0,3473.0,3882.0,2650.0,2255.0,2478.0,2137.0,-0.77,9.82,5.03,0.0,-0.01,-0.12,0.0,a
3439.0,3513.0,3473.0,3882.0,2650.0,2255.0,2478.0,2137.0,-0.77,9.82,5.03,0.0,-0.01,-0.12,0.0,a
3439.0,3513.0,3473.0,3882.0,2650.0,2255.0,2478.0,2137.0,-0.77,9.82,5.03,0.0,-0.01,-0.12,0.0,a
3439.0,3513.0,3473.0,3882.0,2650.0,2255.0,2478.0,2137.0,-0.77,9.82,5.03,0.0,-0.01,-0.12,0.0,a
3439.0,3513.0,3473.0,3882.0,2650.0,2255.0,2478.0,2137.0,-0.77,9.82,5.03,0.0,-0.01,-0.12,0.0,a
3439.0,3513.0,3473.0,3882.0,2650.0,2255.0,2478.0,2137.0,-0.77,9.82,5.03,0.0,-0.01,-0.12,0.0,a
3439.0,3513.0,3473.0,3882.0,2650.0,2255.0,2478.0,2137.0,-0.77,9.82,5.03,0.0,-0.01,-0.12,0.0,a
3439.0,3513.0,3473.0,3882.0,2650.0,2255.0,2478.0,2137.0,-0.77,9.82,5.03,0.0,-0.01,-0.12,0.0,a
3456.0,3519.0,3460.0,3883.0,2656.0,2258.0,2467.0,2143.0,-0.59,9.87,5.02,-0.01,-0.0,-0.13,0.0,a
3456.0,3519.0,3460.0,3883.0,2656.0,2258.0,2467.0,2143.0,-0.59,9.87,5.02,-0.01,-0.0,-0.13,0.0,a
3456.0,3519.0,3460.0,3883.0,2656.0,2258.0,2467.0,2143.0,-0.59,9.87,5.02,-0.01,-0.0,-0.13,0.0,a
3456.0,3519.0,3460.0,3883.0,2656.0,2258.0,2467.0,2143.0,-0.59,9.87,5.02,-0.01,-0.0,-0.13,0.0,a
3456.0,3519.0,3460.0,3883.0,2656.0,2258.0,2467.0,2143.0,-0.59,9.87,5.02,-0.01,-0.0,-0.13,0.0,a
3456.0,3519.0,3460.0,3883.0,2656.0,2258.0,2467.0,2143.0,-0.59,9.87,5.02,-0.01,-0.0,-0.13,0.0,a
3456.0,3519.0,3460.0,3883.0,2656.0,2258.0,2467.0,2143.0,-0.59,9.87,5.02,-0.01,-0.0,-0.13,0.0,a
3456.0,3519.0,3460.0,3883.0,2656.0,2258.0,2467.0,2143.0,-0.59,9.87,5.02,-0.01,-0.0,-0.13,0.0,a
3456.0,3519.0,3460.0,3883.0,2656.0,2258.0,2467.0,2143.0,-0.59,9.87,5.02,-0.01,-0.0,-0.13,0.0,a
3456.0,3519.0,3460.0,3883.0,2656.0,2258.0,2467.0,2143.0,-0.59,9.87,5.02,-0.01,-0.0,-0.13,0.0,a
3456.0,3519.0,3460.0,3883.0,2656.0,2258.0,2467.0,2143.0,-0.59,9.87,5.02,-0.01,-0.0,-0.13,0.0,a
3456.0,3519.0,3460.0,3883.0,2656.0,2258.0,2467.0,2143.0,-0.59,9.87,5.02,-0.01,-0.0,-0.13,0.0,a
3456.0,3519.0,3460.0,3883.0,2656.0,2258.0,2467.0,2143.0,-0.59,9.87,5.02,-0.01,-0.0,-0.13,0.0,a
3456.0,3519.0,3460.0,3883.0,2656.0,2258.0,2467.0,2143.0,-0.59,9.87,5.02,-0.01,-0.0,-0.13,0.0,a
3456.0,3519.0,3460.0,3883.0,2656.0,2258.0,2467.0,2143.0,-0.59,9.87,5.02,-0.01,-0.0,-0.13,0.0,a
3456.0,3519.0,3460.0,3883.0,2656.0,2258.0,2467.0,2143.0,-0.59,9.87,5.02,-0.01,-0.0,-0.13,0.0,a
3456.0,3519.0,3460.0,3883.0,2656.0,2258.0,2467.0,2143.0,-0.59,9.87,5.02,-0.01,-0.0,-0.13,0.0,a
3456.0,3519.0,3460.0,3883.0,2656.0,2258.0,2467.0,2143.0,-0.59,9.87,5.02,-0.01,-0.0,-0.13,0.0,a
3456.0,3519.0,3460.0,3883.0,2656.0,2258.0,2467.0,2143.0,-0.59,9.87,5.02,-0.01,-0.0,-0.13,0.0,a
3456.0,3519.0,3460.0,3883.0,2656.0,2258.0,2467.0,2143.0,-0.59,9.87,5.02,-0.01,-0.0,-0.13,0.0,a
3446.0,3491.0,3477.0,3886.0,2647.0,2252.0,2476.0,2147.0,-0.85,9.86,5.05,0.0,0.0,-0.14,0.0,a
3446.0,3491.0,3477.0,3886.0,2647.0,2252.0,2476.0,2147.0,-0.85,9.86,5.05,0.0,0.0,-0.14,0.0,a
3446.0,3491.0,3477.0,3886.0,2647.0,2252.0,2476.0,2147.0,-0.85,9.86,5.05,0.0,0.0,-0.14,0.0,a
3446.0,3491.0,3477.0,3886.0,2647.0,2252.0,2476.0,2147.0,-0.85,9.86,5.05,0.0,0.0,-0.14,0.0,a
3446.0,3491.0,3477.0,3886.0,2647.0,2252.0,2476.0,2147.0,-0.85,9.86,5.05,0.0,0.0,-0.14,0.0,a
3446.0,3491.0,3477.0,3886.0,2647.0,2252.0,2476.0,2147.0,-0.85,9.86,5.05,0.0,0.0,-0.14,0.0,a
3446.0,3491.0,3477.0,3886.0,2647.0,2252.0,2476.0,2147.0,-0.85,9.86,5.05,0.0,0.0,-0.14,0.0,a
3446.0,3491.0,3477.0,3886.0,2647.0,2252.0,2476.0,2147.0,-0.85,9.86,5.05,0.0,0.0,-0.14,0.0,a
3446.0,3491.0,3477.0,3886.0,2647.0,2252.0,2476.0,2147.0,-0.85,9.86,5.05,0.0,0.0,-0.14,0.0,a
3446.0,3491.0,3477.0,3886.0,2647.0,2252.0,2476.0,2147.0,-0.85,9.86,5.05,0.0,0.0,-0.14,0.0,a
3446.0,3491.0,3477.0,3886.0,2647.0,2252.0,2476.0,2147.0,-0.85,9.86,5.05,0.0,0.0,-0.14,0.0,a
3446.0,3491.0,3477.0,3886.0,2647.0,2252.0,2476.0,2147.0,-0.85,9.86,5.05,0.0,0.0,-0.14,0.0,a
3446.0,3491.0,3477.0,3886.0,2647.0,2252.0,2476.0,2147.0,-0.85,9.86,5.05,0.0,0.0,-0.14,0.0,a
3446.0,3491.0,3477.0,3886.0,2647.0,2252.0,2476.0,2147.0,-0.85,9.86,5.05,0.0,0.0,-0.14,0.0,a
3446.0,3491.0,3477.0,3886.0,2647.0,2252.0,2476.0,2147.0,-0.85,9.86,5.05,0.0,0.0,-0.14,0.0,a
3446.0,3491.0,3477.0,3886.0,2647.0,2252.0,2476.0,2147.0,-0.85,9.86,5.05,0.0,0.0,-0.14,0.0,a
3446.0,3491.0,3477.0,3886.0,2647.0,2252.0,2476.0,2147.0,-0.85,9.86,5.05,0.0,0.0,-0.14,0.0,a
3446.0,3491.0,3477.0,3886.0,2647.0,2252.0,2476.0,2147.0,-0.85,9.86,5.05,0.0,0.0,-0.14,0.0,a
3446.0,3491.0,3477.0,3886.0,2647.0,2252.0,2476.0,2147.0,-0.85,9.86,5.05,0.0,0.0,-0.14,0.0,a
3446.0,3491.0,3477.0,3886.0,2647.0,2252.0,2476.0,2147.0,-0.85,9.86,5.05,0.0,0.0,-0.14,0.0,a
3454.0,3494.0,3462.0,3889.0,2659.0,2252.0,2473.0,2157.0,-0.55,9.83,5.07,-0.01,0.0,-0.13,0.0,a
3454.0,3494.0,3462.0,3889.0,2659.0,2252.0,2473.0,2157.0,-0.55,9.83,5.07,-0.01,0.0,-0.13,0.0,a
3454.0,3494.0,3462.0,3889.0,2659.0,2252.0,2473.0,2157.0,-0.55,9.83,5.07,-0.01,0.0,-0.13,0.0,a
3454.0,3494.0,3462.0,3889.0,2659.0,2252.0,2473.0,2157.0,-0.55,9.83,5.07,-0.01,0.0,-0.13,0.0,a
3454.0,3494.0,3462.0,3889.0,2659.0,2252.0,2473.0,2157.0,-0.55,9.83,5.07,-0.01,0.0,-0.13,0.0,a
3454.0,3494.0,3462.0,3889.0,2659.0,2252.0,2473.0,2157.0,-0.55,9.83,5.07,-0.01,0.0,-0.13,0.0,a
3454.0,3494.0,3462.0,3889.0,2659.0,2252.0,2473.0,2157.0,-0.55,9.83,5.07,-0.01,0.0,-0.13,0.0,a
3454.0,3494.0,3462.0,3889.0,2659.0,2252.0,2473.0,2157.0,-0.55,9.83,5.07,-0.01,0.0,-0.13,0.0,a
3454.0,3494.0,3462.0,3889.0,2659.0,2252.0,2473.0,2157.0,-0.55,9.83,5.07,-0.01,0.0,-0.13,0.0,a
3454.0,3494.0,3462.0,3889.0,2659.0,2252.0,2473.0,2157.0,-0.55,9.83,5.07,-0.01,0.0,-0.13,0.0,a
3454.0,3494.0,3462.0,3889.0,2659.0,2252.0,2473.0,2157.0,-0.55,9.83,5.07,-0.01,0.0,-0.13,0.0,a
3454.0,3494.0,3462.0,3889.0,2659.0,2252.0,2473.0,2157.0,-0.55,9.83,5.07,-0.01,0.0,-0.13,0.0,a
3454.0,3494.0,3462.0,3889.0,2659.0,2252.0,2473.0,2157.0,-0.55,9.83,5.07,-0.01,0.0,-0.13,0.0,a
3454.0,3494.0,3462.0,3889.0,2659.0,2252.0,2473.0,2157.0,-0.55,9.83,5.07,-0.01,0.0,-0.13,0.0,a
3454.0,3494.0,3462.0,3889.0,2659.0,2252.0,2473.0,2157.0,-0.55,9.83,5.07,-0.01,0.0,-0.13,0.0,a
3454.0,3494.0,3462.0,3889.0,2659.0,2252.0,2473.0,2157.0,-0.55,9.83,5.07,-0.01,0.0,-0.13,0.0,a
3454.0,3494.0,3462.0,3889.0,2659.0,2252.0,2473.0,2157.0,-0.55,9.83,5.07,-0.01,0.0,-0.13,0.0,a
3454.0,3494.0,3462.0,3889.0,2659.0,2252.0,2473.0,2157.0,-0.55,9.83,5.07,-0.01,0.0,-0.13,0.0,a
3454.0,3494.0,3462.0,3889.0,2659.0,2252.0,2473.0,2157.0,-0.55,9.83,5.07,-0.01,0.0,-0.13,0.0,a
3454.0,3494.0,3462.0,3889.0,2659.0,2252.0,2473.0,2157.0,-0.55,9.83,5.07,-0.01,0.0,-0.13,0.0,a
3454.0,3501.0,3469.0,3877.0,2647.0,2254.0,2477.0,2155.0,-0.68,9.81,5.08,0.02,-0.02,-0.15,0.0,a
3454.0,3501.0,3469.0,3877.0,2647.0,2254.0,2477.0,2155.0,-0.68,9.81,5.08,0.02,-0.02,-0.15,0.0,a
3454.0,3501.0,3469.0,3877.0,2647.0,2254.0,2477.0,2155.0,-0.68,9.81,5.08,0.02,-0.02,-0.15,0.0,a
3454.0,3501.0,3469.0,3877.0,2647.0,2254.0,2477.0,2155.0,-0.68,9.81,5.08,0.02,-0.02,-0.15,0.0,a
3454.0,3501.0,3469.0,3877.0,2647.0,2254.0,2477.0,2155.0,-0.68,9.81,5.08,0.02,-0.02,-0.15,0.0,a
3454.0,3501.0,3469.0,3877.0,2647.0,2254.0,2477.0,2155.0,-0.68,9.81,5.08,0.02,-0.02,-0.15,0.0,a
3454.0,3501.0,3469.0,3877.0,2647.0,2254.0,2477.0,2155.0,-0.68,9.81,5.08,0.02,-0.02,-0.15,0.0,a
3454.0,3501.0,3469.0,3877.0,2647.0,2254.0,2477.0,2155.0,-0.68,9.81,5.08,0.02,-0.02,-0.15,0.0,a
3454.0,3501.0,3469.0,3877.0,2647.0,2254.0,2477.0,2155.0,-0.68,9.81,5.08,0.02,-0.02,-0.15,0.0,a
3454.0,3501.0,3469.0,3877.0,2647.0,2254.0,2477.0,2155.0,-0.68,9.81,5.08,0.02,-0.02,-0.15,0.0,a
3454.0,3501.0,3469.0,3877.0,2647.0,2254.0,2477.0,2155.0,-0.68,9.81,5.08,0.02,-0.02,-0.15,0.0,a
3454.0,3501.0,3469.0,3877.0,2647.0,2254.0,2477.0,2155.0,-0.68,9.81,5.08,0.02,-0.02,-0.15,0.0,a
3454.0,3501.0,3469.0,3877.0,2647.0,2254.0,2477.0,2155.0,-0.68,9.81,5.08,0.02,-0.02,-0.15,0.0,a
3454.0,3501.0,3469.0,3877.0,2647.0,2254.0,2477.0,2155.0,-0.68,9.81,5.08,0.02,-0.02,-0.15,0.0,a
3454.0,3501.0,3469.0,3877.0,2647.0,2254.0,2477.0,2155.0,-0.68,9.81,5.08,0.02,-0.02,-0.15,0.0,a
3454.0,3501.0,3469.0,3877.0,2647.0,2254.0,2477.0,2155.0,-0.68,9.81,5.08,0.02,-0.02,-0.15,0.0,a
3454.0,3501.0,3469.0,3877.0,2647.0,2254.0,2477.0,2155.0,-0.68,9.81,5.08,0.02,-0.02,-0.15,0.0,a
3454.0,3501.0,3469.0,3877.0,2647.0,2254.0,2477.0,2155.0,-0.68,9.81,5.08,0.02,-0.02,-0.15,0.0,a
3454.0,3501.0,3469.0,3877.0,2647.0,2254.0,2477.0,2155.0,-0.68,9.81,5.08,0.02,-0.02,-0.15,0.0,a
3454.0,3501.0,3469.0,3877.0,2647.0,2254.0,2477.0,2155.0,-0.68,9.81,5.08,0.02,-0.02,-0.15,0.0,a
3440.0,3502.0,3471.0,3887.0,2655.0,2251.0,2457.0,2141.0,-0.69,9.83,5.13,0.01,-0.02,-0.14,0.0,a
3440.0,3502.0,3471.0,3887.0,2655.0,2251.0,2457.0,2141.0,-0.69,9.83,5.13,0.01,-0.02,-0.14,0.0,a
3440.0,3502.0,3471.0,3887.0,2655.0,2251.0,2457.0,2141.0,-0.69,9.83,5.13,0.01,-0.02,-0.14,0.0,a
3440.0,3502.0,3471.0,3887.0,2655.0,2251.0,2457.0,2141.0,-0.69,9.83,5.13,0.01,-0.02,-0.14,0.0,a
3440.0,3502.0,3471.0,3887.0,2655.0,2251.0,2457.0,2141.0,-0.69,9.83,5.13,0.01,-0.02,-0.14,0.0,a
3440.0,3502.0,3471.0,3887.0,2655.0,2251.0,2457.0,2141.0,-0.69,9.83,5.13,0.01,-0.02,-0.14,0.0,a
3440.0,3502.0,3471.0,3887.0,2655.0,2251.0,2457.0,2141.0,-0.69,9.83,5.13,0.01,-0.02,-0.14,0.0,a
3440.0,3502.0,3471.0,3887.0,2655.0,2251.0,2457.0,2141.0,-0.69,9.83,5.13,0.01,-0.02,-0.14,0.0,a
3440.0,3502.0,3471.0,3887.0,2655.0,2251.0,2457.0,2141.0,-0.69,9.83,5.13,0.01,-0.02,-0.14,0.0,a
3440.0,3502.0,3471.0,3887.0,2655.0,2251.0,2457.0,2141.0,-0.69,9.83,5.13,0.01,-0.02,-0.14,0.0,a
3440.0,3502.0,3471.0,3887.0,2655.0,2251.0,2457.0,2141.0,-0.69,9.83,5.13,0.01,-0.02,-0.14,0.0,a
3440.0,3502.0,3471.0,3887.0,2655.0,2251.0,2457.0,2141.0,-0.69,9.83,5.13,0.01,-0.02,-0.14,0.0,a
3440.0,3502.0,3471.0,3887.0,2655.0,2251.0,2457.0,2141.0,-0.69,9.83,5.13,0.01,-0.02,-0.14,0.0,a
3440.0,3502.0,3471.0,3887.0,2655.0,2251.0,2457.0,2141.0,-0.69,9.83,5.13,0.01,-0.02,-0.14,0.0,a
3440.0,3502.0,3471.0,3887.0,2655.0,2251.0,2457.0,2141.0,-0.69,9.83,5.13,0.01,-0.02,-0.14,0.0,a
3440.0,3502.0,3471.0,3887.0,2655.0,2251.0,2457.0,2141.0,-0.69,9.83,5.13,0.01,-0.02,-0.14,0.0,a
3440.0,3502.0,3471.0,3887.0,2655.0,2251.0,2457.0,2141.0,-0.69,9.83,5.13,0.01,-0.02,-0.14,0.0,a
3440.0,3502.0,3471.0,3887.0,2655.0,2251.0,2457.0,2141.0,-0.69,9.83,5.13,0.01,-0.02,-0.14,0.0,a
3440.0,3502.0,3471.0,3887.0,2655.0,2251.0,2457.0,2141.0,-0.69,9.83,5.13,0.01,-0.02,-0.14,0.0,a
3440.0,3502.0,3471.0,3887.0,2655.0,2251.0,2457.0,2141.0,-0.69,9.83,5.13,0.01,-0.02,-0.14,0.0,a
3440.0,3501.0,3463.0,3887.0,2658.0,2250.0,2480.0,2150.0,-0.63,9.8,5.04,0.01,0.01,-0.15,0.0,a
3440.0,3501.0,3463.0,3887.0,2658.0,2250.0,2480.0,2150.0,-0.63,9.8,5.04,0.01,0.01,-0.15,0.0,a
3440.0,3501.0,3463.0,3887.0,2658.0,2250.0,2480.0,2150.0,-0.63,9.8,5.04,0.01,0.01,-0.15,0.0,a
3440.0,3501.0,3463.0,3887.0,2658.0,2250.0,2480.0,2150.0,-0.63,9.8,5.04,0.01,0.01,-0.15,0.0,a
3440.0,3501.0,3463.0,3887.0,2658.0,2250.0,2480.0,2150.0,-0.63,9.8,5.04,0.01,0.01,-0.15,0.0,a
3440.0,3501.0,3463.0,3887.0,2658.0,2250.0,2480.0,2150.0,-0.63,9.8,5.04,0.01,0.01,-0.15,0.0,a
3440.0,3501.0,3463.0,3887.0,2658.0,2250.0,2480.0,2150.0,-0.63,9.8,5.04,0.01,0.01,-0.15,0.0,a
3440.0,3501.0,3463.0,3887.0,2658.0,2250.0,2480.0,2150.0,-0.63,9.8,5.04,0.01,0.01,-0.15,0.0,a
3440.0,3501.0,3463.0,3887.0,2658.0,2250.0,2480.0,2150.0,-0.63,9.8,5.04,0.01,0.01,-0.15,0.0,a
3440.0,3501.0,3463.0,3887.0,2658.0,2250.0,2480.0,2150.0,-0.63,9.8,5.04,0.01,0.01,-0.15,0.0,a
3440.0,3501.0,3463.0,3887.0,2658.0,2250.0,2480.0,2150.0,-0.63,9.8,5.04,0.01,0.01,-0.15,0.0,a
3440.0,3501.0,3463.0,3887.0,2658.0,2250.0,2480.0,2150.0,-0.63,9.8,5.04,0.01,0.01,-0.15,0.0,a
3440.0,3501.0,3463.0,3887.0,2658.0,2250.0,2480.0,2150.0,-0.63,9.8,5.04,0.01,0.01,-0.15,0.0,a
3440.0,3501.0,3463.0,3887.0,2658.0,2250.0,2480.0,2150.0,-0.63,9.8,5.04,0.01,0.01,-0.15,0.0,a
3440.0,3501.0,3463.0,3887.0,2658.0,2250.0,2480.0,2150.0,-0.63,9.8,5.04,0.01,0.01,-0.15,0.0,a
3440.0,3501.0,3463.0,3887.0,2658.0,2250.0,2480.0,2150.0,-0.63,9.8,5.04,0.01,0.01,-0.15,0.0,a
3440.0,3501.0,3463.0,3887.0,2658.0,2250.0,2480.0,2150.0,-0.63,9.8,5.04,0.01,0.01,-0.15,0.0,a
3440.0,3501.0,3463.0,3887.0,2658.0,2250.0,2480.0,2150.0,-0.63,9.8,5.04,0.01,0.01,-0.15,0.0,a
3440.0,3501.0,3463.0,3887.0,2658.0,2250.0,2480.0,2150.0,-0.63,9.8,5.04,0.01,0.01,-0.15,0.0,a
3440.0,3501.0,3463.0,3887.0,2658.0,2250.0,2480.0,2150.0,-0.63,9.8,5.04,0.01,0.01,-0.15,0.0,a
3453.0,3504.0,3460.0,3898.0,2662.0,2256.0,2471.0,2136.0,-0.57,9.83,4.92,0.01,-0.05,-0.13,0.0,a
3453.0,3504.0,3460.0,3898.0,2662.0,2256.0,2471.0,2136.0,-0.57,9.83,4.92,0.01,-0.05,-0.13,0.0,a
3453.0,3504.0,3460.0,3898.0,2662.0,2256.0,2471.0,2136.0,-0.57,9.83,4.92,0.01,-0.05,-0.13,0.0,a
3453.0,3504.0,3460.0,3898.0,2662.0,2256.0,2471.0,2136.0,-0.57,9.83,4.92,0.01,-0.05,-0.13,0.0,a
3453.0,3504.0,3460.0,3898.0,2662.0,2256.0,2471.0,2136.0,-0.57,9.83,4.92,0.01,-0.05,-0.13,0.0,a
3453.0,3504.0,3460.0,3898.0,2662.0,2256.0,2471.0,2136.0,-0.57,9.83,4.92,0.01,-0.05,-0.13,0.0,a
3453.0,3504.0,3460.0,3898.0,2662.0,2256.0,2471.0,2136.0,-0.57,9.83,4.92,0.01,-0.05,-0.13,0.0,a
3453.0,3504.0,3460.0,3898.0,2662.0,2256.0,2471.0,2136.0,-0.57,9.83,4.92,0.01,-0.05,-0.13,0.0,a
3453.0,3504.0,3460.0,3898.0,2662.0,2256.0,2471.0,2136.0,-0.57,9.83,4.92,0.01,-0.05,-0.13,0.0,a
3453.0,3504.0,3460.0,3898.0,2662.0,2256.0,2471.0,2136.0,-0.57,9.83,4.92,0.01,-0.05,-0.13,0.0,a
3453.0,3504.0,3460.0,3898.0,2662.0,2256.0,2471.0,2136.0,-0.57,9.83,4.92,0.01,-0.05,-0.13,0.0,a
3453.0,3504.0,3460.0,3898.0,2662.0,2256.0,2471.0,2136.0,-0.57,9.83,4.92,0.01,-0.05,-0.13,0.0,a
3453.0,3504.0,3460.0,3898.0,2662.0,2256.0,2471.0,2136.0,-0.57,9.83,4.92,0.01,-0.05,-0.13,0.0,a
3453.0,3504.0,3460.0,3898.0,2662.0,2256.0,2471.0,2136.0,-0.57,9.83,4.92,0.01,-0.05,-0.13,0.0,a
3453.0,3504.0,3460.0,3898.0,2662.0,2256.0,2471.0,2136.0,-0.57,9.83,4.92,0.01,-0.05,-0.13,0.0,a
3453.0,3504.0,3460.0,3898.0,2662.0,2256.0,2471.0,2136.0,-0.57,9.83,4.92,0.01,-0.05,-0.13,0.0,a
3453.0,3504.0,3460.0,3898.0,2662.0,2256.0,2471.0,2136.0,-0.57,9.83,4.92,0.01,-0.05,-0.13,0.0,a
3453.0,3504.0,3460.0,3898.0,2662.0,2256.0,2471.0,2136.0,-0.57,9.83,4.92,0.01,-0.05,-0.13,0.0,a
3453.0,3504.0,3460.0,3898.0,2662.0,2256.0,2471.0,2136.0,-0.57,9.83,4.92,0.01,-0.05,-0.13,0.0,a
3453.0,3504.0,3460.0,3898.0,2662.0,2256.0,2471.0,2136.0,-0.57,9.83,4.92,0.01,-0.05,-0.13,0.0,a
3462.0,3511.0,3472.0,3892.0,2650.0,2249.0,2484.0,2140.0,-0.69,9.87,5.09,-0.01,-0.03,-0.14,0.0,a
3462.0,3511.0,3472.0,3892.0,2650.0,2249.0,2484.0,2140.0,-0.69,9.87,5.09,-0.01,-0.03,-0.14,0.0,a
3462.0,3511.0,3472.0,3892.0,2650.0,2249.0,2484.0,2140.0,-0.69,9.87,5.09,-0.01,-0.03,-0.14,0.0,a
3462.0,3511.0,3472.0,3892.0,2650.0,2249.0,2484.0,2140.0,-0.69,9.87,5.09,-0.01,-0.03,-0.14,0.0,a
3462.0,3511.0,3472.0,3892.0,2650.0,2249.0,2484.0,2140.0,-0.69,9.87,5.09,-0.01,-0.03,-0.14,0.0,a
3462.0,3511.0,3472.0,3892.0,2650.0,2249.0,2484.0,2140.0,-0.69,9.87,5.09,-0.01,-0.03,-0.14,0.0,a
3462.0,3511.0,3472.0,3892.0,2650.0,2249.0,2484.0,2140.0,-0.69,9.87,5.09,-0.01,-0.03,-0.14,0.0,a
3462.0,3511.0,3472.0,3892.0,2650.0,2249.0,2484.0,2140.0,-0.69,9.87,5.09,-0.01,-0.03,-0.14,0.0,a
3462.0,3511.0,3472.0,3892.0,2650.0,2249.0,2484.0,2140.0,-0.69,9.87,5.09,-0.01,-0.03,-0.14,0.0,a
3462.0,3511.0,3472.0,3892.0,2650.0,2249.0,2484.0,2140.0,-0.69,9.87,5.09,-0.01,-0.03,-0.14,0.0,a
3462.0,3511.0,3472.0,3892.0,2650.0,2249.0,2484.0,2140.0,-0.69,9.87,5.09,-0.01,-0.03,-0.14,0.0,a
3462.0,3511.0,3472.0,3892.0,2650.0,2249.0,2484.0,2140.0,-0.69,9.87,5.09,-0.01,-0.03,-0.14,0.0,a
3462.0,3511.0,3472.0,3892.0,2650.0,2249.0,2484.0,2140.0,-0.69,9.87,5.09,-0.01,-0.03,-0.14,0.0,a
3462.0,3511.0,3472.0,3892.0,2650.0,2249.0,2484.0,2140.0,-0.69,9.87,5.09,-0.01,-0.03,-0.14,0.0,a
3462.0,3511.0,3472.0,3892.0,2650.0,2249.0,2484.0,2140.0,-0.69,9.87,5.09,-0.01,-0.03,-0.14,0.0,a
3462.0,3511.0,3472.0,3892.0,2650.0,2249.0,2484.0,2140.0,-0.69,9.87,5.09,-0.01,-0.03,-0.14,0.0,a
3462.0,3511.0,3472.0,3892.0,2650.0,2249.0,2484.0,2140.0,-0.69,9.87,5.09,-0.01,-0.03,-0.14,0.0,a
3462.0,3511.0,3472.0,3892.0,2650.0,2249.0,2484.0,2140.0,-0.69,9.87,5.09,-0.01,-0.03,-0.14,0.0,a
3462.0,3511.0,3472.0,3892.0,2650.0,2249.0,2484.0,2140.0,-0.69,9.87,5.09,-0.01,-0.03,-0.14,0.0,a
3462.0,3511.0,3472.0,3892.0,2650.0,2249.0,2484.0,2140.0,-0.69,9.87,5.09,-0.01,-0.03,-0.14,0.0,a
3442.0,3504.0,3469.0,3895.0,2657.0,2256.0,2478.0,2147.0,-0.52,9.82,5.14,0.03,-0.01,-0.15,0.0,a
3442.0,3504.0,3469.0,3895.0,2657.0,2256.0,2478.0,2147.0,-0.52,9.82,5.14,0.03,-0.01,-0.15,0.0,a
3442.0,3504.0,3469.0,3895.0,2657.0,2256.0,2478.0,2147.0,-0.52,9.82,5.14,0.03,-0.01,-0.15,0.0,a
3442.0,3504.0,3469.0,3895.0,2657.0,2256.0,2478.0,2147.0,-0.52,9.82,5.14,0.03,-0.01,-0.15,0.0,a
3442.0,3504.0,3469.0,3895.0,2657.0,2256.0,2478.0,2147.0,-0.52,9.82,5.14,0.03,-0.01,-0.15,0.0,a
3442.0,3504.0,3469.0,3895.0,2657.0,2256.0,2478.0,2147.0,-0.52,9.82,5.14,0.03,-0.01,-0.15,0.0,a
3442.0,3504.0,3469.0,3895.0,2657.0,2256.0,2478.0,2147.0,-0.52,9.82,5.14,0.03,-0.01,-0.15,0.0,a
3442.0,3504.0,3469.0,3895.0,2657.0,2256.0,2478.0,2147.0,-0.52,9.82,5.14,0.03,-0.01,-0.15,0.0,a
3442.0,3504.0,3469.0,3895.0,2657.0,2256.0,2478.0,2147.0,-0.52,9.82,5.14,0.03,-0.01,-0.15,0.0,a
3442.0,3504.0,3469.0,3895.0,2657.0,2256.0,2478.0,2147.0,-0.52,9.82,5.14,0.03,-0.01,-0.15,0.0,a
3442.0,3504.0,3469.0,3895.0,2657.0,2256.0,2478.0,2147.0,-0.52,9.82,5.14,0.03,-0.01,-0.15,0.0,a
3442.0,3504.0,3469.0,3895.0,2657.0,2256.0,2478.0,2147.0,-0.52,9.82,5.14,0.03,-0.01,-0.15,0.0,a
3442.0,3504.0,3469.0,3895.0,2657.0,2256.0,2478.0,2147.0,-0.52,9.82,5.14,0.03,-0.01,-0.15,0.0,a
3442.0,3504.0,3469.0,3895.0,2657.0,2256.0,2478.0,2147.0,-0.52,9.82,5.14,0.03,-0.01,-0.15,0.0,a
3442.0,3504.0,3469.0,3895.0,2657.0,2256.0,2478.0,2147.0,-0.52,9.82,5.14,0.03,-0.01,-0.15,0.0,a
3442.0,3504.0,3469.0,3895.0,2657.0,2256.0,2478.0,2147.0,-0.52,9.82,5.14,0.03,-0.01,-0.15,0.0,a
3442.0,3504.0,3469.0,3895.0,2657.0,2256.0,2478.0,2147.0,-0.52,9.82,5.14,0.03,-0.01,-0.15,0.0,a
3442.0,3504.0,3469.0,3895.0,2657.0,2256.0,2478.0,2147.0,-0.52,9.82,5.14,0.03,-0.01,-0.15,0.0,a
3442.0,3504.0,3469.0,3895.0,2657.0,2256.0,2478.0,2147.0,-0.52,9.82,5.14,0.03,-0.01,-0.15,0.0,a
3442.0,3504.0,3469.0,3895.0,2657.0,2256.0,2478.0,2147.0,-0.52,9.82,5.14,0.03,-0.01,-0.15,0.0,a
3442.0,3504.0,3459.0,3889.0,2659.0,2253.0,2480.0,2150.0,-0.68,9.86,5.07,0.01,0.01,-0.16,0.0,a
3442.0,3504.0,3459.0,3889.0,2659.0,2253.0,2480.0,2150.0,-0.68,9.86,5.07,0.01,0.01,-0.16,0.0,a
3442.0,3504.0,3459.0,3889.0,2659.0,2253.0,2480.0,2150.0,-0.68,9.86,5.07,0.01,0.01,-0.16,0.0,a
3442.0,3504.0,3459.0,3889.0,2659.0,2253.0,2480.0,2150.0,-0.68,9.86,5.07,0.01,0.01,-0.16,0.0,a
3442.0,3504.0,3459.0,3889.0,2659.0,2253.0,2480.0,2150.0,-0.68,9.86,5.07,0.01,0.01,-0.16,0.0,a
3442.0,3504.0,3459.0,3889.0,2659.0,2253.0,2480.0,2150.0,-0.68,9.86,5.07,0.01,0.01,-0.16,0.0,a
3442.0,3504.0,3459.0,3889.0,2659.0,2253.0,2480.0,2150.0,-0.68,9.86,5.07,0.01,0.01,-0.16,0.0,a
3442.0,3504.0,3459.0,3889.0,2659.0,2253.0,2480.0,2150.0,-0.68,9.86,5.07,0.01,0.01,-0.16,0.0,a
3442.0,3504.0,3459.0,3889.0,2659.0,2253.0,2480.0,2150.0,-0.68,9.86,5.07,0.01,0.01,-0.16,0.0,a
3442.0,3504.0,3459.0,3889.0,2659.0,2253.0,2480.0,2150.0,-0.68,9.86,5.07,0.01,0.01,-0.16,0.0,a
3442.0,3504.0,3459.0,3889.0,2659.0,2253.0,2480.0,2150.0,-0.68,9.86,5.07,0.01,0.01,-0.16,0.0,a
3442.0,3504.0,3459.0,3889.0,2659.0,2253.0,2480.0,2150.0,-0.68,9.86,5.07,0.01,0.01,-0.16,0.0,a
3442.0,3504.0,3459.0,3889.0,2659.0,2253.0,2480.0,2150.0,-0.68,9.86,5.07,0.01,0.01,-0.16,0.0,a
3442.0,3504.0,3459.0,3889.0,2659.0,2253.0,2480.0,2150.0,-0.68,9.86,5.07,0.01,0.01,-0.16,0.0,a
3442.0,3504.0,3459.0,3889.0,2659.0,2253.0,2480.0,2150.0,-0.68,9.86,5.07,0.01,0.01,-0.16,0.0,a
3442.0,3504.0,3459.0,3889.0,2659.0,2253.0,2480.0,2150.0,-0.68,9.86,5.07,0.01,0.01,-0.16,0.0,a
3442.0,3504.0,3459.0,3889.0,2659.0,2253.0,2480.0,2150.0,-0.68,9.86,5.07,0.01,0.01,-0.16,0.0,a
3442.0,3504.0,3459.0,3889.0,2659.0,2253.0,2480.0,2150.0,-0.68,9.86,5.07,0.01,0.01,-0.16,0.0,a
3442.0,3504.0,3459.0,3889.0,2659.0,2253.0,2480.0,2150.0,-0.68,9.86,5.07,0.01,0.01,-0.16,0.0,a
3442.0,3504.0,3459.0,3889.0,2659.0,2253.0,2480.0,2150.0,-0.68,9.86,5.07,0.01,0.01,-0.16,0.0,a
3445.0,3492.0,3467.0,3888.0,2658.0,2257.0,2487.0,2148.0,-0.59,9.84,4.96,0.02,-0.01,-0.13,0.0,a
3445.0,3492.0,3467.0,3888.0,2658.0,2257.0,2487.0,2148.0,-0.59,9.84,4.96,0.02,-0.01,-0.13,0.0,a
3445.0,3492.0,3467.0,3888.0,2658.0,2257.0,2487.0,2148.0,-0.59,9.84,4.96,0.02,-0.01,-0.13,0.0,a
3445.0,3492.0,3467.0,3888.0,2658.0,2257.0,2487.0,2148.0,-0.59,9.84,4.96,0.02,-0.01,-0.13,0.0,a
3445.0,3492.0,3467.0,3888.0,2658.0,2257.0,2487.0,2148.0,-0.59,9.84,4.96,0.02,-0.01,-0.13,0.0,a
3445.0,3492.0,3467.0,3888.0,2658.0,2257.0,2487.0,2148.0,-0.59,9.84,4.96,0.02,-0.01,-0.13,0.0,a
3445.0,3492.0,3467.0,3888.0,2658.0,2257.0,2487.0,2148.0,-0.59,9.84,4.96,0.02,-0.01,-0.13,0.0,a
3445.0,3492.0,3467.0,3888.0,2658.0,2257.0,2487.0,2148.0,-0.59,9.84,4.96,0.02,-0.01,-0.13,0.0,a
3445.0,3492.0,3467.0,3888.0,2658.0,2257.0,2487.0,2148.0,-0.59,9.84,4.96,0.02,-0.01,-0.13,0.0,a
3445.0,3492.0,3467.0,3888.0,2658.0,2257.0,2487.0,2148.0,-0.59,9.84,4.96,0.02,-0.01,-0.13,0.0,a
3445.0,3492.0,3467.0,3888.0,2658.0,2257.0,2487.0,2148.0,-0.59,9.84,4.96,0.02,-0.01,-0.13,0.0,a
3445.0,3492.0,3467.0,3888.0,2658.0,2257.0,2487.0,2148.0,-0.59,9.84,4.96,0.02,-0.01,-0.13,0.0,a
3445.0,3492.0,3467.0,3888.0,2658.0,2257.0,2487.0,2148.0,-0.59,9.84,4.96,0.02,-0.01,-0.13,0.0,a
3445.0,3492.0,3467.0,3888.0,2658.0,2257.0,2487.0,2148.0,-0.59,9.84,4.96,0.02,-0.01,-0.13,0.0,a
3445.0,3492.0,3467.0,3888.0,2658.0,2257.0,2487.0,2148.0,-0.59,9.84,4.96,0.02,-0.01,-0.13,0.0,a
3445.0,3492.0,3467.0,3888.0,2658.0,2257.0,2487.0,2148.0,-0.59,9.84,4.96,0.02,-0.01,-0.13,0.0,a
3445.0,3492.0,3467.0,3888.0,2658.0,2257.0,2487.0,2148.0,-0.59,9.84,4.96,0.02,-0.01,-0.13,0.0,a
3445.0,3492.0,3467.0,3888.0,2658.0,2257.0,2487.0,2148.0,-0.59,9.84,4.96,0.02,-0.01,-0.13,0.0,a
3445.0,3492.0,3467.0,3888.0,2658.0,2257.0,2487.0,2148.0,-0.59,9.84,4.96,0.02,-0.01,-0.13,0.0,a
3445.0,3492.0,3467.0,3888.0,2658.0,2257.0,2487.0,2148.0,-0.59,9.84,4.96,0.02,-0.01,-0.13,0.0,a
3441.0,3491.0,3472.0,3897.0,2667.0,2254.0,2485.0,2150.0,-0.61,9.86,5.11,-0.0,-0.01,-0.14,0.0,a
3441.0,3491.0,3472.0,3897.0,2667.0,2254.0,2485.0,2150.0,-0.61,9.86,5.11,-0.0,-0.01,-0.14,0.0,a
3441.0,3491.0,3472.0,3897.0,2667.0,2254.0,2485.0,2150.0,-0.61,9.86,5.11,-0.0,-0.01,-0.14,0.0,a
3441.0,3491.0,3472.0,3897.0,2667.0,2254.0,2485.0,2150.0,-0.61,9.86,5.11,-0.0,-0.01,-0.14,0.0,a
3441.0,3491.0,3472.0,3897.0,2667.0,2254.0,2485.0,2150.0,-0.61,9.86,5.11,-0.0,-0.01,-0.14,0.0,a
3441.0,3491.0,3472.0,3897.0,2667.0,2254.0,2485.0,2150.0,-0.61,9.86,5.11,-0.0,-0.01,-0.14,0.0,a
3441.0,3491.0,3472.0,3897.0,2667.0,2254.0,2485.0,2150.0,-0.61,9.86,5.11,-0.0,-0.01,-0.14,0.0,a
3441.0,3491.0,3472.0,3897.0,2667.0,2254.0,2485.0,2150.0,-0.61,9.86,5.11,-0.0,-0.01,-0.14,0.0,a
3441.0,3491.0,3472.0,3897.0,2667.0,2254.0,2485.0,2150.0,-0.61,9.86,5.11,-0.0,-0.01,-0.14,0.0,a
3441.0,3491.0,3472.0,3897.0,2667.0,2254.0,2485.0,2150.0,-0.61,9.86,5.11,-0.0,-0.01,-0.14,0.0,a
3441.0,3491.0,3472.0,3897.0,2667.0,2254.0,2485.0,2150.0,-0.61,9.86,5.11,-0.0,-0.01,-0.14,0.0,a
3441.0,3491.0,3472.0,3897.0,2667.0,2254.0,2485.0,2150.0,-0.61,9.86,5.11,-0.0,-0.01,-0.14,0.0,a
3441.0,3491.0,3472.0,3897.0,2667.0,2254.0,2485.0,2150.0,-0.61,9.86,5.11,-0.0,-0.01,-0.14,0.0,a
3441.0,3491.0,3472.0,3897.0,2667.0,2254.0,2485.0,2150.0,-0.61,9.86,5.11,-0.0,-0.01,-0.14,0.0,a
3441.0,3491.0,3472.0,3897.0,2667.0,2254.0,2485.0,2150.0,-0.61,9.86,5.11,-0.0,-0.01,-0.14,0.0,a
3441.0,3491.0,3472.0,3897.0,2667.0,2254.0,2485.0,2150.0,-0.61,9.86,5.11,-0.0,-0.01,-0.14,0.0,a
3441.0,3491.0,3472.0,3897.0,2667.0,2254.0,2485.0,2150.0,-0.61,9.86,5.11,-0.0,-0.01,-0.14,0.0,a
3441.0,3491.0,3472.0,3897.0,2667.0,2254.0,2485.0,2150.0,-0.61,9.86,5.11,-0.0,-0.01,-0.14,0.0,a
3441.0,3491.0,3472.0,3897.0,2667.0,2254.0,2485.0,2150.0,-0.61,9.86,5.11,-0.0,-0.01,-0.14,0.0,a
3441.0,3491.0,3472.0,3897.0,2667.0,2254.0,2485.0,2150.0,-0.61,9.86,5.11,-0.0,-0.01,-0.14,0.0,a
3446.0,3507.0,3463.0,3873.0,2659.0,2253.0,2476.0,2150.0,-0.57,9.85,5.07,0.01,0.02,-0.17,0.0,a
3446.0,3507.0,3463.0,3873.0,2659.0,2253.0,2476.0,2150.0,-0.57,9.85,5.07,0.01,0.02,-0.17,0.0,a
3446.0,3507.0,3463.0,3873.0,2659.0,2253.0,2476.0,2150.0,-0.57,9.85,5.07,0.01,0.02,-0.17,0.0,a
3446.0,3507.0,3463.0,3873.0,2659.0,2253.0,2476.0,2150.0,-0.57,9.85,5.07,0.01,0.02,-0.17,0.0,a
3446.0,3507.0,3463.0,3873.0,2659.0,2253.0,2476.0,2150.0,-0.57,9.85,5.07,0.01,0.02,-0.17,0.0,a
3446.0,3507.0,3463.0,3873.0,2659.0,2253.0,2476.0,2150.0,-0.57,9.85,5.07,0.01,0.02,-0.17,0.0,a
3446.0,3507.0,3463.0,3873.0,2659.0,2253.0,2476.0,2150.0,-0.57,9.85,5.07,0.01,0.02,-0.17,0.0,a
3446.0,3507.0,3463.0,3873.0,2659.0,2253.0,2476.0,2150.0,-0.57,9.85,5.07,0.01,0.02,-0.17,0.0,a
3446.0,3507.0,3463.0,3873.0,2659.0,2253.0,2476.0,2150.0,-0.57,9.85,5.07,0.01,0.02,-0.17,0.0,a
3446.0,3507.0,3463.0,3873.0,2659.0,2253.0,2476.0,2150.0,-0.57,9.85,5.07,0.01,0.02,-0.17,0.0,a
3446.0,3507.0,3463.0,3873.0,2659.0,2253.0,2476.0,2150.0,-0.57,9.85,5.07,0.01,0.02,-0.17,0.0,a
3446.0,3507.0,3463.0,3873.0,2659.0,2253.0,2476.0,2150.0,-0.57,9.85,5.07,0.01,0.02,-0.17,0.0,a
3446.0,3507.0,3463.0,3873.0,2659.0,2253.0,2476.0,2150.0,-0.57,9.85,5.07,0.01,0.02,-0.17,0.0,a
3446.0,3507.0,3463.0,3873.0,2659.0,2253.0,2476.0,2150.0,-0.57,9.85,5.07,0.01,0.02,-0.17,0.0,a
3446.0,3507.0,3463.0,3873.0,2659.0,2253.0,2476.0,2150.0,-0.57,9.85,5.07,0.01,0.02,-0.17,0.0,a
3446.0,3507.0,3463.0,3873.0,2659.0,2253.0,2476.0,2150.0,-0.57,9.85,5.07,0.01,0.02,-0.17,0.0,a
3446.0,3507.0,3463.0,3873.0,2659.0,2253.0,2476.0,2150.0,-0.57,9.85,5.07,0.01,0.02,-0.17,0.0,a
3446.0,3507.0,3463.0,3873.0,2659.0,2253.0,2476.0,2150.0,-0.57,9.85,5.07,0.01,0.02,-0.17,0.0,a
3446.0,3507.0,3463.0,3873.0,2659.0,2253.0,2476.0,2150.0,-0.57,9.85,5.07,0.01,0.02,-0.17,0.0,a
3446.0,3507.0,3463.0,3873.0,2659.0,2253.0,2476.0,2150.0,-0.57,9.85,5.07,0.01,0.02,-0.17,0.0,a
3445.0,3504.0,3462.0,3904.0,2657.0,2256.0,2482.0,2154.0,-0.57,9.82,5.07,0.03,0.02,-0.17,0.0,a
3445.0,3504.0,3462.0,3904.0,2657.0,2256.0,2482.0,2154.0,-0.57,9.82,5.07,0.03,0.02,-0.17,0.0,a
3445.0,3504.0,3462.0,3904.0,2657.0,2256.0,2482.0,2154.0,-0.57,9.82,5.07,0.03,0.02,-0.17,0.0,a
3445.0,3504.0,3462.0,3904.0,2657.0,2256.0,2482.0,2154.0,-0.57,9.82,5.07,0.03,0.02,-0.17,0.0,a
3445.0,3504.0,3462.0,3904.0,2657.0,2256.0,2482.0,2154.0,-0.57,9.82,5.07,0.03,0.02,-0.17,0.0,a
3445.0,3504.0,3462.0,3904.0,2657.0,2256.0,2482.0,2154.0,-0.57,9.82,5.07,0.03,0.02,-0.17,0.0,a
3445.0,3504.0,3462.0,3904.0,2657.0,2256.0,2482.0,2154.0,-0.57,9.82,5.07,0.03,0.02,-0.17,0.0,a
3445.0,3504.0,3462.0,3904.0,2657.0,2256.0,2482.0,2154.0,-0.57,9.82,5.07,0.03,0.02,-0.17,0.0,a
3445.0,3504.0,3462.0,3904.0,2657.0,2256.0,2482.0,2154.0,-0.57,9.82,5.07,0.03,0.02,-0.17,0.0,a
3445.0,3504.0,3462.0,3904.0,2657.0,2256.0,2482.0,2154.0,-0.57,9.82,5.07,0.03,0.02,-0.17,0.0,a
3445.0,3504.0,3462.0,3904.0,2657.0,2256.0,2482.0,2154.0,-0.57,9.82,5.07,0.03,0.02,-0.17,0.0,a
3445.0,3504.0,3462.0,3904.0,2657.0,2256.0,2482.0,2154.0,-0.57,9.82,5.07,0.03,0.02,-0.17,0.0,a
3445.0,3504.0,3462.0,3904.0,2657.0,2256.0,2482.0,2154.0,-0.57,9.82,5.07,0.03,0.02,-0.17,0.0,a
3445.0,3504.0,3462.0,3904.0,2657.0,2256.0,2482.0,2154.0,-0.57,9.82,5.07,0.03,0.02,-0.17,0.0,a
3445.0,3504.0,3462.0,3904.0,2657.0,2256.0,2482.0,2154.0,-0.57,9.82,5.07,0.03,0.02,-0.17,0.0,a
3445.0,3504.0,3462.0,3904.0,2657.0,2256.0,2482.0,2154.0,-0.57,9.82,5.07,0.03,0.02,-0.17,0.0,a
3445.0,3504.0,3462.0,3904.0,2657.0,2256.0,2482.0,2154.0,-0.57,9.82,5.07,0.03,0.02,-0.17,0.0,a
3445.0,3504.0,3462.0,3904.0,2657.0,2256.0,2482.0,2154.0,-0.57,9.82,5.07,0.03,0.02,-0.17,0.0,a
3445.0,3504.0,3462.0,3904.0,2657.0,2256.0,2482.0,2154.0,-0.57,9.82,5.07,0.03,0.02,-0.17,0.0,a
3445.0,3504.0,3462.0,3904.0,2657.0,2256.0,2482.0,2154.0,-0.57,9.82,5.07,0.03,0.02,-0.17,0.0,a
3444.0,3507.0,3460.0,3888.0,2672.0,2257.0,2477.0,2144.0,-0.59,9.8,4.96,0.03,-0.02,-0.17,0.0,a
3444.0,3507.0,3460.0,3888.0,2672.0,2257.0,2477.0,2144.0,-0.59,9.8,4.96,0.03,-0.02,-0.17,0.0,a
3444.0,3507.0,3460.0,3888.0,2672.0,2257.0,2477.0,2144.0,-0.59,9.8,4.96,0.03,-0.02,-0.17,0.0,a
3444.0,3507.0,3460.0,3888.0,2672.0,2257.0,2477.0,2144.0,-0.59,9.8,4.96,0.03,-0.02,-0.17,0.0,a
3444.0,3507.0,3460.0,3888.0,2672.0,2257.0,2477.0,2144.0,-0.59,9.8,4.96,0.03,-0.02,-0.17,0.0,a
3444.0,3507.0,3460.0,3888.0,2672.0,2257.0,2477.0,2144.0,-0.59,9.8,4.96,0.03,-0.02,-0.17,0.0,a
3444.0,3507.0,3460.0,3888.0,2672.0,2257.0,2477.0,2144.0,-0.59,9.8,4.96,0.03,-0.02,-0.17,0.0,a
3444.0,3507.0,3460.0,3888.0,2672.0,2257.0,2477.0,2144.0,-0.59,9.8,4.96,0.03,-0.02,-0.17,0.0,a
3444.0,3507.0,3460.0,3888.0,2672.0,2257.0,2477.0,2144.0,-0.59,9.8,4.96,0.03,-0.02,-0.17,0.0,a
3444.0,3507.0,3460.0,3888.0,2672.0,2257.0,2477.0,2144.0,-0.59,9.8,4.96,0.03,-0.02,-0.17,0.0,a
3444.0,3507.0,3460.0,3888.0,2672.0,2257.0,2477.0,2144.0,-0.59,9.8,4.96,0.03,-0.02,-0.17,0.0,a
3444.0,3507.0,3460.0,3888.0,2672.0,2257.0,2477.0,2144.0,-0.59,9.8,4.96,0.03,-0.02,-0.17,0.0,a
3444.0,3507.0,3460.0,3888.0,2672.0,2257.0,2477.0,2144.0,-0.59,9.8,4.96,0.03,-0.02,-0.17,0.0,a
3444.0,3507.0,3460.0,3888.0,2672.0,2257.0,2477.0,2144.0,-0.59,9.8,4.96,0.03,-0.02,-0.17,0.0,a
3444.0,3507.0,3460.0,3888.0,2672.0,2257.0,2477.0,2144.0,-0.59,9.8,4.96,0.03,-0.02,-0.17,0.0,a
3444.0,3507.0,3460.0,3888.0,2672.0,2257.0,2477.0,2144.0,-0.59,9.8,4.96,0.03,-0.02,-0.17,0.0,a
3444.0,3507.0,3460.0,3888.0,2672.0,2257.0,2477.0,2144.0,-0.59,9.8,4.96,0.03,-0.02,-0.17,0.0,a
3444.0,3507.0,3460.0,3888.0,2672.0,2257.0,2477.0,2144.0,-0.59,9.8,4.96,0.03,-0.02,-0.17,0.0,a
3444.0,3507.0,3460.0,3888.0,2672.0,2257.0,2477.0,2144.0,-0.59,9.8,4.96,0.03,-0.02,-0.17,0.0,a
3444.0,3507.0,3460.0,3888.0,2672.0,2257.0,2477.0,2144.0,-0.59,9.8,4.96,0.03,-0.02,-0.17,0.0,a
3442.0,3493.0,3466.0,3889.0,2671.0,2256.0,2481.0,2160.0,-0.79,9.82,5.13,0.0,0.02,-0.17,0.0,a
3442.0,3493.0,3466.0,3889.0,2671.0,2256.0,2481.0,2160.0,-0.79,9.82,5.13,0.0,0.02,-0.17,0.0,a
3442.0,3493.0,3466.0,3889.0,2671.0,2256.0,2481.0,2160.0,-0.79,9.82,5.13,0.0,0.02,-0.17,0.0,a
3442.0,3493.0,3466.0,3889.0,2671.0,2256.0,2481.0,2160.0,-0.79,9.82,5.13,0.0,0.02,-0.17,0.0,a
3442.0,3493.0,3466.0,3889.0,2671.0,2256.0,2481.0,2160.0,-0.79,9.82,5.13,0.0,0.02,-0.17,0.0,a
3442.0,3493.0,3466.0,3889.0,2671.0,2256.0,2481.0,2160.0,-0.79,9.82,5.13,0.0,0.02,-0.17,0.0,a
3442.0,3493.0,3466.0,3889.0,2671.0,2256.0,2481.0,2160.0,-0.79,9.82,5.13,0.0,0.02,-0.17,0.0,a
3442.0,3493.0,3466.0,3889.0,2671.0,2256.0,2481.0,2160.0,-0.79,9.82,5.13,0.0,0.02,-0.17,0.0,a
3442.0,3493.0,3466.0,3889.0,2671.0,2256.0,2481.0,2160.0,-0.79,9.82,5.13,0.0,0.02,-0.17,0.0,a
3442.0,3493.0,3466.0,3889.0,2671.0,2256.0,2481.0,2160.0,-0.79,9.82,5.13,0.0,0.02,-0.17,0.0,a
3442.0,3493.0,3466.0,3889.0,2671.0,2256.0,2481.0,2160.0,-0.79,9.82,5.13,0.0,0.02,-0.17,0.0,a
3442.0,3493.0,3466.0,3889.0,2671.0,2256.0,2481.0,2160.0,-0.79,9.82,5.13,0.0,0.02,-0.17,0.0,a
3442.0,3493.0,3466.0,3889.0,2671.0,2256.0,2481.0,2160.0,-0.79,9.82,5.13,0.0,0.02,-0.17,0.0,a
3442.0,3493.0,3466.0,3889.0,2671.0,2256.0,2481.0,2160.0,-0.79,9.82,5.13,0.0,0.02,-0.17,0.0,a
3442.0,3493.0,3466.0,3889.0,2671.0,2256.0,2481.0,2160.0,-0.79,9.82,5.13,0.0,0.02,-0.17,0.0,a
3442.0,3493.0,3466.0,3889.0,2671.0,2256.0,2481.0,2160.0,-0.79,9.82,5.13,0.0,0.02,-0.17,0.0,a
3442.0,3493.0,3466.0,3889.0,2671.0,2256.0,2481.0,2160.0,-0.79,9.82,5.13,0.0,0.02,-0.17,0.0,a
3442.0,3493.0,3466.0,3889.0,2671.0,2256.0,2481.0,2160.0,-0.79,9.82,5.13,0.0,0.02,-0.17,0.0,a
3442.0,3493.0,3466.0,3889.0,2671.0,2256.0,2481.0,2160.0,-0.79,9.82,5.13,0.0,0.02,-0.17,0.0,a
3442.0,3493.0,3466.0,3889.0,2671.0,2256.0,2481.0,2160.0,-0.79,9.82,5.13,0.0,0.02,-0.17,0.0,a
3472.0,3503.0,3455.0,3874.0,2655.0,2259.0,2484.0,2159.0,-0.53,9.83,5.01,0.03,-0.01,-0.14,0.0,a
3472.0,3503.0,3455.0,3874.0,2655.0,2259.0,2484.0,2159.0,-0.53,9.83,5.01,0.03,-0.01,-0.14,0.0,a
3472.0,3503.0,3455.0,3874.0,2655.0,2259.0,2484.0,2159.0,-0.53,9.83,5.01,0.03,-0.01,-0.14,0.0,a
3472.0,3503.0,3455.0,3874.0,2655.0,2259.0,2484.0,2159.0,-0.53,9.83,5.01,0.03,-0.01,-0.14,0.0,a
3472.0,3503.0,3455.0,3874.0,2655.0,2259.0,2484.0,2159.0,-0.53,9.83,5.01,0.03,-0.01,-0.14,0.0,a
3472.0,3503.0,3455.0,3874.0,2655.0,2259.0,2484.0,2159.0,-0.53,9.83,5.01,0.03,-0.01,-0.14,0.0,a
3472.0,3503.0,3455.0,3874.0,2655.0,2259.0,2484.0,2159.0,-0.53,9.83,5.01,0.03,-0.01,-0.14,0.0,a
3472.0,3503.0,3455.0,3874.0,2655.0,2259.0,2484.0,2159.0,-0.53,9.83,5.01,0.03,-0.01,-0.14,0.0,a
3472.0,3503.0,3455.0,3874.0,2655.0,2259.0,2484.0,2159.0,-0.53,9.83,5.01,0.03,-0.01,-0.14,0.0,a
3472.0,3503.0,3455.0,3874.0,2655.0,2259.0,2484.0,2159.0,-0.53,9.83,5.01,0.03,-0.01,-0.14,0.0,a
3472.0,3503.0,3455.0,3874.0,2655.0,2259.0,2484.0,2159.0,-0.53,9.83,5.01,0.03,-0.01,-0.14,0.0,a
3472.0,3503.0,3455.0,3874.0,2655.0,2259.0,2484.0,2159.0,-0.53,9.83,5.01,0.03,-0.01,-0.14,0.0,a
3472.0,3503.0,3455.0,3874.0,2655.0,2259.0,2484.0,2159.0,-0.53,9.83,5.01,0.03,-0.01,-0.14,0.0,a
3472.0,3503.0,3455.0,3874.0,2655.0,2259.0,2484.0,2159.0,-0.53,9.83,5.01,0.03,-0.01,-0.14,0.0,a
3472.0,3503.0,3455.0,3874.0,2655.0,2259.0,2484.0,2159.0,-0.53,9.83,5.01,0.03,-0.01,-0.14,0.0,a
3472.0,3503.0,3455.0,3874.0,2655.0,2259.0,2484.0,2159.0,-0.53,9.83,5.01,0.03,-0.01,-0.14,0.0,a
3472.0,3503.0,3455.0,3874.0,2655.0,2259.0,2484.0,2159.0,-0.53,9.83,5.01,0.03,-0.01,-0.14,0.0,a
3472.0,3503.0,3455.0,3874.0,2655.0,2259.0,2484.0,2159.0,-0.53,9.83,5.01,0.03,-0.01,-0.14,0.0,a
3472.0,3503.0,3455.0,3874.0,2655.0,2259.0,2484.0,2159.0,-0.53,9.83,5.01,0.03,-0.01,-0.14,0.0,a
3472.0,3503.0,3455.0,3874.0,2655.0,2259.0,2484.0,2159.0,-0.53,9.83,5.01,0.03,-0.01,-0.14,0.0,a
3445.0,3519.0,3457.0,3887.0,2665.0,2267.0,2485.0,2154.0,-0.72,9.86,5.03,-0.0,0.0,-0.16,0.0,a
3445.0,3519.0,3457.0,3887.0,2665.0,2267.0,2485.0,2154.0,-0.72,9.86,5.03,-0.0,0.0,-0.16,0.0,a
3445.0,3519.0,3457.0,3887.0,2665.0,2267.0,2485.0,2154.0,-0.72,9.86,5.03,-0.0,0.0,-0.16,0.0,a
3445.0,3519.0,3457.0,3887.0,2665.0,2267.0,2485.0,2154.0,-0.72,9.86,5.03,-0.0,0.0,-0.16,0.0,a
3445.0,3519.0,3457.0,3887.0,2665.0,2267.0,2485.0,2154.0,-0.72,9.86,5.03,-0.0,0.0,-0.16,0.0,a
3445.0,3519.0,3457.0,3887.0,2665.0,2267.0,2485.0,2154.0,-0.72,9.86,5.03,-0.0,0.0,-0.16,0.0,a
3445.0,3519.0,3457.0,3887.0,2665.0,2267.0,2485.0,2154.0,-0.72,9.86,5.03,-0.0,0.0,-0.16,0.0,a
3445.0,3519.0,3457.0,3887.0,2665.0,2267.0,2485.0,2154.0,-0.72,9.86,5.03,-0.0,0.0,-0.16,0.0,a
3445.0,3519.0,3457.0,3887.0,2665.0,2267.0,2485.0,2154.0,-0.72,9.86,5.03,-0.0,0.0,-0.16,0.0,a
3445.0,3519.0,3457.0,3887.0,2665.0,2267.0,2485.0,2154.0,-0.72,9.86,5.03,-0.0,0.0,-0.16,0.0,a
3445.0,3519.0,3457.0,3887.0,2665.0,2267.0,2485.0,2154.0,-0.72,9.86,5.03,-0.0,0.0,-0.16,0.0,a
3445.0,3519.0,3457.0,3887.0,2665.0,2267.0,2485.0,2154.0,-0.72,9.86,5.03,-0.0,0.0,-0.16,0.0,a
3445.0,3519.0,3457.0,3887.0,2665.0,2267.0,2485.0,2154.0,-0.72,9.86,5.03,-0.0,0.0,-0.16,0.0,a
3445.0,3519.0,3457.0,3887.0,2665.0,2267.0,2485.0,2154.0,-0.72,9.86,5.03,-0.0,0.0,-0.16,0.0,a
3445.0,3519.0,3457.0,3887.0,2665.0,2267.0,2485.0,2154.0,-0.72,9.86,5.03,-0.0,0.0,-0.16,0.0,a
3445.0,3519.0,3457.0,3887.0,2665.0,2267.0,2485.0,2154.0,-0.72,9.86,5.03,-0.0,0.0,-0.16,0.0,a
3445.0,3519.0,3457.0,3887.0,2665.0,2267.0,2485.0,2154.0,-0.72,9.86,5.03,-0.0,0.0,-0.16,0.0,a
3445.0,3519.0,3457.0,3887.0,2665.0,2267.0,2485.0,2154.0,-0.72,9.86,5.03,-0.0,0.0,-0.16,0.0,a
3445.0,3519.0,3457.0,3887.0,2665.0,2267.0,2485.0,2154.0,-0.72,9.86,5.03,-0.0,0.0,-0.16,0.0,a
3445.0,3519.0,3457.0,3887.0,2665.0,2267.0,2485.0,2154.0,-0.72,9.86,5.03,-0.0,0.0,-0.16,0.0,a
3445.0,3506.0,3453.0,3888.0,2663.0,2261.0,2483.0,2159.0,-0.71,9.79,5.05,0.03,0.03,-0.11,0.0,a
3445.0,3506.0,3453.0,3888.0,2663.0,2261.0,2483.0,2159.0,-0.71,9.79,5.05,0.03,0.03,-0.11,0.0,a
3445.0,3506.0,3453.0,3888.0,2663.0,2261.0,2483.0,2159.0,-0.71,9.79,5.05,0.03,0.03,-0.11,0.0,a
3445.0,3506.0,3453.0,3888.0,2663.0,2261.0,2483.0,2159.0,-0.71,9.79,5.05,0.03,0.03,-0.11,0.0,a
3445.0,3506.0,3453.0,3888.0,2663.0,2261.0,2483.0,2159.0,-0.71,9.79,5.05,0.03,0.03,-0.11,0.0,a
3445.0,3506.0,3453.0,3888.0,2663.0,2261.0,2483.0,2159.0,-0.71,9.79,5.05,0.03,0.03,-0.11,0.0,a
3445.0,3506.0,3453.0,3888.0,2663.0,2261.0,2483.0,2159.0,-0.71,9.79,5.05,0.03,0.03,-0.11,0.0,a
3445.0,3506.0,3453.0,3888.0,2663.0,2261.0,2483.0,2159.0,-0.71,9.79,5.05,0.03,0.03,-0.11,0.0,a
3445.0,3506.0,3453.0,3888.0,2663.0,2261.0,2483.0,2159.0,-0.71,9.79,5.05,0.03,0.03,-0.11,0.0,a
3445.0,3506.0,3453.0,3888.0,2663.0,2261.0,2483.0,2159.0,-0.71,9.79,5.05,0.03,0.03,-0.11,0.0,a
3445.0,3506.0,3453.0,3888.0,2663.0,2261.0,2483.0,2159.0,-0.71,9.79,5.05,0.03,0.03,-0.11,0.0,a
3445.0,3506.0,3453.0,3888.0,2663.0,2261.0,2483.0,2159.0,-0.71,9.79,5.05,0.03,0.03,-0.11,0.0,a
3445.0,3506.0,3453.0,3888.0,2663.0,2261.0,2483.0,2159.0,-0.71,9.79,5.05,0.03,0.03,-0.11,0.0,a
3445.0,3506.0,3453.0,3888.0,2663.0,2261.0,2483.0,2159.0,-0.71,9.79,5.05,0.03,0.03,-0.11,0.0,a
3445.0,3506.0,3453.0,3888.0,2663.0,2261.0,2483.0,2159.0,-0.71,9.79,5.05,0.03,0.03,-0.11,0.0,a
3445.0,3506.0,3453.0,3888.0,2663.0,2261.0,2483.0,2159.0,-0.71,9.79,5.05,0.03,0.03,-0.11,0.0,a
3445.0,3506.0,3453.0,3888.0,2663.0,2261.0,2483.0,2159.0,-0.71,9.79,5.05,0.03,0.03,-0.11,0.0,a
3445.0,3506.0,3453.0,3888.0,2663.0,2261.0,2483.0,2159.0,-0.71,9.79,5.05,0.03,0.03,-0.11,0.0,a
3445.0,3506.0,3453.0,3888.0,2663.0,2261.0,2483.0,2159.0,-0.71,9.79,5.05,0.03,0.03,-0.11,0.0,a
3445.0,3506.0,3453.0,3888.0,2663.0,2261.0,2483.0,2159.0,-0.71,9.79,5.05,0.03,0.03,-0.11,0.0,a
3445.0,3499.0,3451.0,3895.0,2671.0,2259.0,2485.0,2160.0,-0.62,9.87,5.06,0.0,0.04,-0.17,0.0,a
3445.0,3499.0,3451.0,3895.0,2671.0,2259.0,2485.0,2160.0,-0.62,9.87,5.06,0.0,0.04,-0.17,0.0,a
3445.0,3499.0,3451.0,3895.0,2671.0,2259.0,2485.0,2160.0,-0.62,9.87,5.06,0.0,0.04,-0.17,0.0,a
3445.0,3499.0,3451.0,3895.0,2671.0,2259.0,2485.0,2160.0,-0.62,9.87,5.06,0.0,0.04,-0.17,0.0,a
3445.0,3499.0,3451.0,3895.0,2671.0,2259.0,2485.0,2160.0,-0.62,9.87,5.06,0.0,0.04,-0.17,0.0,a
3445.0,3499.0,3451.0,3895.0,2671.0,2259.0,2485.0,2160.0,-0.62,9.87,5.06,0.0,0.04,-0.17,0.0,a
3445.0,3499.0,3451.0,3895.0,2671.0,2259.0,2485.0,2160.0,-0.62,9.87,5.06,0.0,0.04,-0.17,0.0,a
3445.0,3499.0,3451.0,3895.0,2671.0,2259.0,2485.0,2160.0,-0.62,9.87,5.06,0.0,0.04,-0.17,0.0,a
3445.0,3499.0,3451.0,3895.0,2671.0,2259.0,2485.0,2160.0,-0.62,9.87,5.06,0.0,0.04,-0.17,0.0,a
3445.0,3499.0,3451.0,3895.0,2671.0,2259.0,2485.0,2160.0,-0.62,9.87,5.06,0.0,0.04,-0.17,0.0,a
3445.0,3499.0,3451.0,3895.0,2671.0,2259.0,2485.0,2160.0,-0.62,9.87,5.06,0.0,0.04,-0.17,0.0,a
3445.0,3499.0,3451.0,3895.0,2671.0,2259.0,2485.0,2160.0,-0.62,9.87,5.06,0.0,0.04,-0.17,0.0,a
3445.0,3499.0,3451.0,3895.0,2671.0,2259.0,2485.0,2160.0,-0.62,9.87,5.06,0.0,0.04,-0.17,0.0,a
3445.0,3499.0,3451.0,3895.0,2671.0,2259.0,2485.0,2160.0,-0.62,9.87,5.06,0.0,0.04,-0.17,0.0,a
3445.0,3499.0,3451.0,3895.0,2671.0,2259.0,2485.0,2160.0,-0.62,9.87,5.06,0.0,0.04,-0.17,0.0,a
3445.0,3499.0,3451.0,3895.0,2671.0,2259.0,2485.0,2160.0,-0.62,9.87,5.06,0.0,0.04,-0.17,0.0,a
3445.0,3499.0,3451.0,3895.0,2671.0,2259.0,2485.0,2160.0,-0.62,9.87,5.06,0.0,0.04,-0.17,0.0,a
3445.0,3499.0,3451.0,3895.0,2671.0,2259.0,2485.0,2160.0,-0.62,9.87,5.06,0.0,0.04,-0.17,0.0,a
3445.0,3499.0,3451.0,3895.0,2671.0,2259.0,2485.0,2160.0,-0.62,9.87,5.06,0.0,0.04,-0.17,0.0,a
3445.0,3499.0,3451.0,3895.0,2671.0,2259.0,2485.0,2160.0,-0.62,9.87,5.06,0.0,0.04,-0.17,0.0,a
3439.0,3517.0,3472.0,3895.0,2672.0,2259.0,2494.0,2160.0,-0.58,9.81,4.93,0.02,-0.02,-0.15,0.0,a
3439.0,3517.0,3472.0,3895.0,2672.0,2259.0,2494.0,2160.0,-0.58,9.81,4.93,0.02,-0.02,-0.15,0.0,a
3439.0,3517.0,3472.0,3895.0,2672.0,2259.0,2494.0,2160.0,-0.58,9.81,4.93,0.02,-0.02,-0.15,0.0,a
3439.0,3517.0,3472.0,3895.0,2672.0,2259.0,2494.0,2160.0,-0.58,9.81,4.93,0.02,-0.02,-0.15,0.0,a
3439.0,3517.0,3472.0,3895.0,2672.0,2259.0,2494.0,2160.0,-0.58,9.81,4.93,0.02,-0.02,-0.15,0.0,a
3439.0,3517.0,3472.0,3895.0,2672.0,2259.0,2494.0,2160.0,-0.58,9.81,4.93,0.02,-0.02,-0.15,0.0,a
3439.0,3517.0,3472.0,3895.0,2672.0,2259.0,2494.0,2160.0,-0.58,9.81,4.93,0.02,-0.02,-0.15,0.0,a
3439.0,3517.0,3472.0,3895.0,2672.0,2259.0,2494.0,2160.0,-0.58,9.81,4.93,0.02,-0.02,-0.15,0.0,a
3439.0,3517.0,3472.0,3895.0,2672.0,2259.0,2494.0,2160.0,-0.58,9.81,4.93,0.02,-0.02,-0.15,0.0,a
3439.0,3517.0,3472.0,3895.0,2672.0,2259.0,2494.0,2160.0,-0.58,9.81,4.93,0.02,-0.02,-0.15,0.0,a
3439.0,3517.0,3472.0,3895.0,2672.0,2259.0,2494.0,2160.0,-0.58,9.81,4.93,0.02,-0.02,-0.15,0.0,a
3439.0,3517.0,3472.0,3895.0,2672.0,2259.0,2494.0,2160.0,-0.58,9.81,4.93,0.02,-0.02,-0.15,0.0,a
3439.0,3517.0,3472.0,3895.0,2672.0,2259.0,2494.0,2160.0,-0.58,9.81,4.93,0.02,-0.02,-0.15,0.0,a
3439.0,3517.0,3472.0,3895.0,2672.0,2259.0,2494.0,2160.0,-0.58,9.81,4.93,0.02,-0.02,-0.15,0.0,a
