hall_1,hall_2,hall_3,flex_t,flex_i,flex_m,flex_r,flex_p,accel_x,accel_y,accel_z,gyro_x,gyro_y,gyro_z,hand,sign
3137.0,3116.0,4063.0,3504.0,3632.0,3174.0,3135.0,3305.0,-0.31,9.57,3.34,-0.12,0.07,0.08,1.0,a
3135.0,3118.0,4063.0,3519.0,3634.0,3179.0,3134.0,3309.0,-0.04,9.36,3.43,-0.04,0.03,-0.01,1.0,a
3136.0,3106.0,4053.0,3519.0,3649.0,3178.0,3138.0,3306.0,-0.28,9.51,3.35,-0.03,-0.01,-0.11,1.0,a
3152.0,3113.0,4078.0,3520.0,3650.0,3183.0,3138.0,3305.0,-0.72,9.55,3.25,-0.05,0.03,-0.08,1.0,a
3138.0,3128.0,4054.0,3521.0,3657.0,3184.0,3141.0,3312.0,-0.54,9.58,3.28,-0.1,0.07,0.0,1.0,a
3152.0,3131.0,4068.0,3489.0,3653.0,3185.0,3141.0,3312.0,-0.43,9.53,3.37,-0.07,0.03,-0.01,1.0,a
3136.0,3120.0,4061.0,3504.0,3655.0,3196.0,3145.0,3315.0,-0.32,9.64,3.31,-0.2,0.03,-0.06,1.0,a
3145.0,3120.0,4053.0,3493.0,3663.0,3191.0,3139.0,3311.0,-0.58,9.54,3.47,-0.05,0.01,-0.03,1.0,a
3146.0,3126.0,4053.0,3473.0,3674.0,3193.0,3138.0,3311.0,-0.54,9.53,3.32,-0.08,0.03,0.01,1.0,a
3135.0,3120.0,4017.0,3451.0,3667.0,3185.0,3135.0,3302.0,-0.43,9.48,3.4,-0.08,0.03,-0.04,1.0,a
3134.0,3114.0,4015.0,3458.0,3672.0,3198.0,3136.0,3315.0,-0.4,9.57,3.42,-0.03,0.0,-0.05,1.0,a
3131.0,3120.0,4025.0,3472.0,3669.0,3199.0,3138.0,3314.0,-0.44,9.54,3.35,-0.02,0.01,-0.06,1.0,a
3136.0,3111.0,4017.0,3477.0,3670.0,3200.0,3143.0,3315.0,-0.42,9.54,3.33,-0.04,0.01,-0.03,1.0,a
3135.0,3122.0,4018.0,3483.0,3669.0,3191.0,3135.0,3312.0,-0.41,9.49,3.38,-0.06,-0.0,-0.03,1.0,a
3136.0,3120.0,4003.0,3499.0,3678.0,3197.0,3141.0,3318.0,-0.31,9.35,3.46,-0.07,0.06,-0.0,1.0,a
3141.0,3120.0,4022.0,3491.0,3675.0,3199.0,3142.0,3322.0,-0.32,9.51,3.41,-0.05,0.02,-0.04,1.0,a
3151.0,3120.0,4028.0,3499.0,3668.0,3195.0,3138.0,3316.0,-0.32,9.46,3.39,-0.06,0.03,-0.05,1.0,a
3136.0,3111.0,4018.0,3505.0,3670.0,3202.0,3142.0,3325.0,-0.33,9.52,3.33,-0.03,0.02,-0.03,1.0,a
3147.0,3119.0,4026.0,3530.0,3674.0,3205.0,3147.0,3317.0,-0.53,9.45,3.45,-0.07,0.19,0.01,1.0,a
3140.0,3132.0,4019.0,3537.0,3689.0,3204.0,3150.0,3329.0,-0.37,9.4,3.39,-0.07,0.03,-0.02,1.0,a
3065.0,3034.0,3754.0,3782.0,3735.0,3188.0,3066.0,3504.0,0.44,9.87,1.79,-0.05,-0.02,-0.03,1.0,a
3062.0,3035.0,3739.0,3781.0,3733.0,3194.0,3070.0,3509.0,0.47,9.96,1.84,-0.07,0.01,-0.03,1.0,a
3055.0,3037.0,3740.0,3781.0,3734.0,3193.0,3083.0,3514.0,0.44,9.86,2.15,-0.09,0.01,-0.02,1.0,a
3063.0,3043.0,3754.0,3796.0,3748.0,3197.0,3071.0,3514.0,0.5,9.88,2.07,-0.08,0.01,-0.02,1.0,a
3058.0,3035.0,3738.0,3795.0,3754.0,3195.0,3071.0,3521.0,0.35,9.9,1.96,-0.07,0.01,-0.02,1.0,a
3063.0,3033.0,3760.0,3786.0,3756.0,3188.0,3071.0,3507.0,0.55,9.9,2.04,-0.08,0.01,-0.02,1.0,a
3056.0,3040.0,3750.0,3791.0,3755.0,3202.0,3083.0,3520.0,0.54,9.92,2.05,-0.06,0.02,-0.04,1.0,a
3065.0,3026.0,3737.0,3792.0,3757.0,3205.0,3071.0,3517.0,0.49,9.87,2.12,-0.06,-0.01,-0.0,1.0,a
3058.0,3039.0,3741.0,3786.0,3738.0,3199.0,3084.0,3518.0,0.58,9.86,2.06,-0.06,-0.01,-0.01,1.0,a
3070.0,3042.0,3747.0,3805.0,3754.0,3208.0,3071.0,3514.0,0.62,9.86,2.13,-0.06,0.01,-0.05,1.0,a
3070.0,3036.0,3738.0,3793.0,3749.0,3196.0,3071.0,3487.0,0.52,9.85,2.1,-0.08,-0.02,-0.03,1.0,a
3063.0,3042.0,3707.0,3801.0,3739.0,3205.0,3087.0,3476.0,0.53,9.89,2.01,-0.06,0.01,-0.05,1.0,a
3068.0,3041.0,3719.0,3817.0,3758.0,3209.0,3071.0,3490.0,0.6,9.89,2.09,-0.07,-0.01,-0.03,1.0,a
3060.0,3035.0,3719.0,3797.0,3749.0,3205.0,3070.0,3496.0,0.73,9.91,2.08,-0.06,0.0,-0.03,1.0,a
3067.0,3042.0,3723.0,3801.0,3732.0,3203.0,3071.0,3498.0,0.54,9.9,1.87,-0.13,0.11,-0.03,1.0,a
3056.0,3044.0,3715.0,3824.0,3760.0,3209.0,3083.0,3504.0,1.48,10.63,2.06,-0.03,0.14,0.25,1.0,a
3066.0,3034.0,3722.0,3823.0,3761.0,3205.0,3086.0,3504.0,1.74,8.54,1.75,-0.46,-0.01,0.22,1.0,a
3056.0,3028.0,3706.0,3792.0,3748.0,3216.0,3088.0,3507.0,-0.25,8.37,4.16,-0.87,0.07,-0.51,1.0,a
3062.0,3034.0,3706.0,3820.0,3750.0,3213.0,3088.0,3511.0,0.54,9.61,3.68,0.22,-0.08,-0.14,1.0,a
3058.0,3037.0,3731.0,3823.0,3760.0,3218.0,3091.0,3510.0,0.71,9.85,1.87,0.18,-0.04,-0.07,1.0,a
3111.0,3068.0,3677.0,3307.0,3728.0,3291.0,3124.0,3326.0,0.66,9.75,2.5,-0.08,-0.01,-0.0,1.0,a
3103.0,3071.0,3693.0,3303.0,3715.0,3285.0,3121.0,3341.0,0.99,9.71,2.49,-0.05,-0.03,-0.02,1.0,a
3109.0,3071.0,3675.0,3295.0,3722.0,3289.0,3116.0,3341.0,1.12,9.86,2.42,-0.03,0.02,-0.07,1.0,a
3117.0,3085.0,3669.0,3311.0,3728.0,3295.0,3120.0,3344.0,0.95,9.76,2.38,-0.04,0.03,-0.08,1.0,a
3105.0,3067.0,3677.0,3312.0,3732.0,3291.0,3120.0,3346.0,0.57,9.63,2.8,-0.06,-0.0,-0.07,1.0,a
3114.0,3069.0,3691.0,3317.0,3729.0,3293.0,3129.0,3344.0,0.87,9.88,2.04,-0.01,0.02,-0.04,1.0,a
3111.0,3059.0,3679.0,3313.0,3727.0,3289.0,3121.0,3344.0,0.78,9.74,2.43,-0.14,-0.04,-0.08,1.0,a
3107.0,3079.0,3691.0,3333.0,3739.0,3293.0,3133.0,3350.0,0.87,9.77,2.44,-0.04,0.01,0.02,1.0,a
3101.0,3070.0,3687.0,3322.0,3731.0,3291.0,3130.0,3343.0,0.87,9.79,2.35,-0.11,-0.0,-0.02,1.0,a
3104.0,3070.0,3675.0,3312.0,3743.0,3286.0,3131.0,3350.0,1.02,9.66,2.93,-0.06,0.0,-0.04,1.0,a
3108.0,3062.0,3692.0,3317.0,3750.0,3293.0,3130.0,3345.0,1.02,9.83,2.26,-0.0,0.0,-0.08,1.0,a
3117.0,3071.0,3688.0,3323.0,3741.0,3299.0,3127.0,3350.0,0.73,9.73,2.36,-0.11,-0.03,-0.03,1.0,a
3101.0,3071.0,3680.0,3324.0,3743.0,3289.0,3131.0,3348.0,0.81,9.77,2.41,-0.04,0.01,-0.03,1.0,a
3119.0,3066.0,3670.0,3327.0,3743.0,3301.0,3133.0,3348.0,0.83,9.84,2.38,-0.08,0.01,-0.01,1.0,a
3100.0,3071.0,3665.0,3325.0,3758.0,3299.0,3135.0,3351.0,1.02,9.75,2.58,-0.08,0.01,-0.01,1.0,a
3093.0,3088.0,3679.0,3326.0,3742.0,3306.0,3137.0,3360.0,0.93,9.78,2.49,-0.08,-0.01,-0.03,1.0,a
3104.0,3066.0,3681.0,3328.0,3734.0,3299.0,3130.0,3351.0,0.89,9.74,2.51,-0.08,0.01,-0.03,1.0,a
3119.0,3067.0,3674.0,3331.0,3750.0,3299.0,3131.0,3363.0,0.9,9.73,2.44,-0.07,0.03,0.0,1.0,a
3109.0,3063.0,3669.0,3333.0,3760.0,3306.0,3137.0,3363.0,0.99,9.67,2.61,-0.09,0.01,-0.0,1.0,a
3098.0,3056.0,3658.0,3324.0,3743.0,3295.0,3130.0,3366.0,1.02,9.72,2.54,-0.07,0.01,-0.02,1.0,a
2945.0,2985.0,3643.0,3469.0,3703.0,3227.0,3158.0,3326.0,0.52,9.87,1.99,-0.07,0.02,-0.04,1.0,a
2943.0,2992.0,3641.0,3468.0,3711.0,3222.0,3157.0,3329.0,0.53,9.84,2.0,-0.06,0.02,-0.02,1.0,a
2941.0,2992.0,3642.0,3466.0,3710.0,3230.0,3163.0,3335.0,0.65,9.8,2.21,-0.07,0.01,-0.01,1.0,a
2939.0,2980.0,3633.0,3463.0,3701.0,3236.0,3167.0,3326.0,0.72,9.91,1.84,-0.05,0.0,-0.04,1.0,a
2944.0,2991.0,3652.0,3472.0,3713.0,3233.0,3163.0,3334.0,0.79,9.86,2.11,-0.07,-0.02,-0.03,1.0,a
2955.0,2983.0,3645.0,3476.0,3717.0,3237.0,3165.0,3338.0,0.77,9.86,2.13,-0.01,-0.0,-0.04,1.0,a
2942.0,2986.0,3628.0,3475.0,3719.0,3237.0,3165.0,3335.0,0.77,9.93,1.99,-0.04,0.01,-0.04,1.0,a
2947.0,2992.0,3635.0,3472.0,3703.0,3233.0,3169.0,3346.0,0.7,9.9,1.98,-0.07,-0.0,-0.06,1.0,a
2950.0,2979.0,3628.0,3462.0,3707.0,3235.0,3165.0,3335.0,0.76,9.93,1.91,-0.02,-0.05,-0.04,1.0,a
2943.0,2983.0,3632.0,3475.0,3715.0,3235.0,3173.0,3344.0,0.63,9.89,2.01,-0.05,0.02,-0.04,1.0,a
2943.0,2983.0,3632.0,3474.0,3722.0,3237.0,3170.0,3328.0,0.68,9.92,1.88,-0.06,0.02,-0.03,1.0,a
2941.0,2997.0,3634.0,3474.0,3717.0,3245.0,3171.0,3341.0,0.76,9.87,2.07,-0.08,0.02,-0.02,1.0,a
2946.0,2981.0,3633.0,3478.0,3712.0,3239.0,3167.0,3331.0,0.77,9.83,2.23,-0.08,0.03,-0.03,1.0,a
2945.0,2986.0,3629.0,3470.0,3727.0,3238.0,3163.0,3338.0,0.81,9.85,2.06,-0.06,0.02,-0.03,1.0,a
2940.0,2992.0,3637.0,3477.0,3720.0,3242.0,3175.0,3339.0,0.66,9.79,2.14,-0.09,0.04,-0.04,1.0,a
2947.0,2995.0,3650.0,3471.0,3723.0,3238.0,3170.0,3337.0,0.72,9.88,2.12,-0.04,0.0,-0.03,1.0,a
2935.0,2994.0,3632.0,3477.0,3726.0,3245.0,3175.0,3339.0,0.78,9.87,2.06,-0.03,0.02,-0.05,1.0,a
2932.0,2994.0,3648.0,3485.0,3729.0,3246.0,3167.0,3346.0,0.56,9.76,2.22,-0.02,0.03,0.01,1.0,a
2937.0,2988.0,3632.0,3472.0,3727.0,3239.0,3166.0,3339.0,0.71,9.9,1.82,0.02,0.07,0.0,1.0,a
2939.0,2995.0,3641.0,3474.0,3728.0,3238.0,3169.0,3344.0,1.05,9.96,1.96,-0.05,0.07,-0.14,1.0,a
2973.0,2982.0,3467.0,3698.0,3639.0,3115.0,3152.0,3405.0,-1.65,9.78,1.39,-0.03,-0.01,0.0,1.0,a
2973.0,2982.0,3467.0,3698.0,3639.0,3115.0,3152.0,3405.0,-1.65,9.78,1.39,-0.03,-0.01,0.0,1.0,a
2967.0,2992.0,3456.0,3682.0,3660.0,3122.0,3154.0,3413.0,-1.58,9.95,1.38,-0.14,0.01,0.05,1.0,a
2972.0,2990.0,3471.0,3685.0,3661.0,3120.0,3152.0,3408.0,-1.4,9.94,1.63,-0.14,0.0,0.01,1.0,a
2973.0,2991.0,3472.0,3691.0,3667.0,3131.0,3155.0,3417.0,-1.35,9.74,1.8,-0.05,0.07,0.01,1.0,a
2965.0,2983.0,3461.0,3678.0,3664.0,3128.0,3155.0,3422.0,-1.25,9.84,1.48,-0.03,0.03,-0.02,1.0,a
2967.0,2978.0,3470.0,3683.0,3684.0,3139.0,3165.0,3426.0,-1.67,9.73,1.66,-0.09,0.12,0.01,1.0,a
2959.0,2989.0,3453.0,3666.0,3677.0,3140.0,3161.0,3435.0,-1.3,9.83,1.56,-0.09,0.03,0.02,1.0,a
2965.0,2983.0,3463.0,3667.0,3680.0,3139.0,3167.0,3429.0,-1.3,9.85,1.68,-0.08,0.04,0.02,1.0,a
2967.0,2984.0,3456.0,3691.0,3693.0,3148.0,3169.0,3430.0,-1.28,9.82,1.62,-0.12,0.02,0.02,1.0,a
2974.0,2992.0,3461.0,3693.0,3695.0,3151.0,3170.0,3431.0,-1.04,9.88,1.59,-0.07,0.05,0.0,1.0,a
2971.0,2986.0,3461.0,3681.0,3689.0,3152.0,3159.0,3423.0,-1.11,9.79,1.75,-0.08,0.01,-0.02,1.0,a
2960.0,2983.0,3455.0,3676.0,3689.0,3151.0,3169.0,3436.0,-1.02,9.82,1.72,-0.07,0.03,-0.02,1.0,a
2964.0,2995.0,3463.0,3687.0,3694.0,3158.0,3171.0,3437.0,-1.08,9.85,1.67,-0.06,0.0,-0.02,1.0,a
2980.0,2980.0,3459.0,3694.0,3705.0,3153.0,3171.0,3430.0,-1.08,9.82,1.77,-0.05,0.03,-0.02,1.0,a
2960.0,2987.0,3467.0,3683.0,3696.0,3164.0,3169.0,3431.0,-1.08,9.83,1.85,-0.05,0.07,-0.02,1.0,a
2979.0,2992.0,3475.0,3686.0,3698.0,3157.0,3171.0,3427.0,-1.42,9.78,1.73,-0.09,0.12,-0.01,1.0,a
2965.0,2982.0,3456.0,3680.0,3696.0,3158.0,3169.0,3429.0,-0.71,9.94,1.47,-0.05,0.06,0.08,1.0,a
2961.0,2991.0,3462.0,3696.0,3711.0,3159.0,3171.0,3431.0,-0.92,9.84,1.76,-0.15,-0.03,-0.06,1.0,a
2974.0,2987.0,3456.0,3686.0,3696.0,3157.0,3175.0,3427.0,-0.95,9.75,2.13,-0.05,-0.01,-0.03,1.0,a
3049.0,3009.0,3457.0,3206.0,3600.0,3071.0,3122.0,3364.0,0.36,9.79,2.24,-0.08,0.0,-0.01,1.0,a
3050.0,3003.0,3449.0,3207.0,3601.0,3070.0,3129.0,3376.0,0.44,9.87,2.16,-0.06,-0.03,-0.06,1.0,a
3069.0,3005.0,3447.0,3216.0,3599.0,3071.0,3125.0,3373.0,0.32,9.86,2.23,-0.07,0.03,-0.06,1.0,a
3056.0,2999.0,3452.0,3219.0,3613.0,3081.0,3131.0,3376.0,0.26,9.79,2.1,-0.09,0.02,-0.04,1.0,a
3057.0,3006.0,3465.0,3223.0,3606.0,3088.0,3134.0,3379.0,0.36,9.81,2.37,-0.06,0.03,-0.05,1.0,a
3043.0,3010.0,3441.0,3216.0,3607.0,3071.0,3130.0,3378.0,0.27,9.88,2.01,-0.06,0.08,-0.03,1.0,a
3055.0,3011.0,3447.0,3217.0,3610.0,3071.0,3130.0,3376.0,0.34,9.71,2.4,-0.06,-0.03,-0.04,1.0,a
3045.0,2998.0,3458.0,3227.0,3600.0,3083.0,3135.0,3379.0,0.04,9.89,2.01,-0.06,0.04,-0.03,1.0,a
3047.0,3008.0,3447.0,3234.0,3615.0,3088.0,3143.0,3383.0,0.18,9.84,2.26,-0.09,0.01,-0.02,1.0,a
3052.0,3007.0,3450.0,3234.0,3606.0,3084.0,3136.0,3380.0,0.32,9.83,2.18,-0.06,0.03,-0.02,1.0,a
3053.0,3007.0,3453.0,3245.0,3619.0,3088.0,3137.0,3379.0,0.33,9.8,2.24,-0.07,0.0,-0.03,1.0,a
3055.0,3010.0,3457.0,3246.0,3623.0,3088.0,3136.0,3387.0,0.31,9.88,2.13,-0.05,0.03,-0.05,1.0,a
3048.0,3015.0,3455.0,3247.0,3623.0,3091.0,3142.0,3390.0,0.27,9.88,2.18,-0.06,0.05,-0.03,1.0,a
3057.0,3004.0,3445.0,3248.0,3626.0,3087.0,3135.0,3390.0,0.4,9.83,2.22,-0.06,0.04,-0.03,1.0,a
3053.0,2998.0,3450.0,3243.0,3623.0,3088.0,3137.0,3391.0,0.39,9.94,2.17,-0.06,0.01,-0.04,1.0,a
3056.0,2998.0,3438.0,3248.0,3616.0,3085.0,3136.0,3387.0,0.25,9.85,2.13,-0.1,0.01,-0.02,1.0,a
3054.0,3007.0,3439.0,3252.0,3627.0,3088.0,3137.0,3388.0,0.39,9.91,2.25,-0.08,-0.01,-0.02,1.0,a
3043.0,2997.0,3458.0,3260.0,3621.0,3088.0,3137.0,3381.0,0.42,9.84,2.32,-0.07,-0.01,-0.03,1.0,a
3043.0,2995.0,3440.0,3254.0,3618.0,3100.0,3142.0,3391.0,0.33,9.84,2.24,-0.06,0.02,-0.03,1.0,a
3051.0,3011.0,3449.0,3262.0,3633.0,3095.0,3143.0,3392.0,0.34,9.75,2.33,-0.09,0.01,-0.02,1.0,a
2999.0,3071.0,3508.0,3911.0,3929.0,3173.0,3194.0,3429.0,-2.26,8.25,5.27,-0.03,0.06,-0.09,1.0,a
2991.0,3063.0,3494.0,3906.0,3921.0,3168.0,3198.0,3430.0,-2.3,8.32,5.16,-0.06,0.02,-0.06,1.0,a
2990.0,3071.0,3509.0,3915.0,3927.0,3169.0,3189.0,3426.0,-2.22,8.2,5.22,-0.1,0.02,-0.07,1.0,a
3001.0,3068.0,3503.0,3920.0,3952.0,3181.0,3200.0,3434.0,-2.23,8.18,5.41,-0.12,-0.03,-0.06,1.0,a
2985.0,3083.0,3504.0,3919.0,3945.0,3178.0,3195.0,3435.0,-2.51,8.06,5.62,-0.07,-0.0,-0.05,1.0,a
2992.0,3080.0,3509.0,3919.0,3922.0,3179.0,3206.0,3436.0,-2.36,8.19,5.33,-0.04,0.01,-0.01,1.0,a
2980.0,3070.0,3494.0,3949.0,3939.0,3181.0,3201.0,3430.0,-2.4,8.16,5.38,0.04,0.05,0.04,1.0,a
2991.0,3081.0,3504.0,3936.0,3943.0,3179.0,3205.0,3434.0,-1.88,8.4,4.88,-0.05,0.04,-0.0,1.0,a
2993.0,3071.0,3509.0,3867.0,3941.0,3175.0,3204.0,3431.0,-2.2,8.22,5.37,-0.13,-0.03,-0.07,1.0,a
2998.0,3085.0,3497.0,3869.0,3941.0,3184.0,3206.0,3430.0,-2.51,8.07,5.83,-0.03,-0.06,-0.01,1.0,a
2990.0,3070.0,3501.0,3851.0,3930.0,3181.0,3215.0,3425.0,-2.08,8.29,5.17,0.03,-0.03,0.02,1.0,a
2992.0,3085.0,3506.0,3851.0,3932.0,3181.0,3197.0,3431.0,-1.77,8.37,4.94,-0.07,0.03,-0.05,1.0,a
2987.0,3071.0,3500.0,3851.0,3943.0,3184.0,3201.0,3439.0,-2.29,8.23,5.3,-0.1,0.01,-0.09,1.0,a
2994.0,3091.0,3510.0,3856.0,3935.0,3186.0,3201.0,3430.0,-2.49,8.14,5.53,-0.11,-0.01,-0.04,1.0,a
2992.0,3086.0,3494.0,3841.0,3925.0,3181.0,3197.0,3427.0,-2.16,8.19,5.31,-0.06,0.04,-0.03,1.0,a
2987.0,3070.0,3504.0,3857.0,3951.0,3184.0,3204.0,3437.0,-2.26,8.22,5.43,-0.07,-0.0,-0.05,1.0,a
2992.0,3083.0,3505.0,3847.0,3942.0,3186.0,3199.0,3426.0,-2.19,8.24,5.4,-0.02,0.06,-0.04,1.0,a
2992.0,3069.0,3502.0,3841.0,3938.0,3185.0,3201.0,3435.0,-2.3,8.18,5.33,-0.06,0.03,-0.02,1.0,a
2987.0,3071.0,3503.0,3846.0,3933.0,3184.0,3199.0,3429.0,-2.33,8.2,5.25,-0.06,0.01,-0.04,1.0,a
2992.0,3071.0,3498.0,3854.0,3943.0,3188.0,3201.0,3440.0,-2.3,8.17,5.38,-0.07,-0.02,-0.02,1.0,a
3477.0,3196.0,3150.0,3471.0,3787.0,3363.0,3202.0,3485.0,3.32,9.51,1.64,-0.07,0.05,-0.03,1.0,a
3485.0,3215.0,3153.0,3479.0,3782.0,3370.0,3210.0,3484.0,3.45,9.43,1.94,-0.1,-0.03,-0.06,1.0,a
3486.0,3220.0,3158.0,3479.0,3787.0,3373.0,3206.0,3477.0,3.14,9.44,1.96,-0.07,-0.03,-0.06,1.0,a
3488.0,3210.0,3153.0,3481.0,3789.0,3373.0,3213.0,3490.0,3.38,9.5,1.94,-0.03,0.02,-0.05,1.0,a
3475.0,3202.0,3173.0,3473.0,3773.0,3366.0,3203.0,3479.0,3.26,9.41,1.82,-0.01,0.05,-0.03,1.0,a
3477.0,3210.0,3168.0,3478.0,3789.0,3371.0,3206.0,3491.0,3.33,9.48,1.73,-0.06,0.02,-0.05,1.0,a
3474.0,3204.0,3171.0,3447.0,3793.0,3376.0,3216.0,3501.0,3.36,9.47,2.07,-0.08,-0.0,-0.06,1.0,a
3462.0,3195.0,3187.0,3403.0,3799.0,3361.0,3206.0,3494.0,3.28,9.46,1.89,-0.11,-0.02,-0.04,1.0,a
3457.0,3203.0,3217.0,3394.0,3807.0,3350.0,3195.0,3486.0,3.14,9.53,1.87,-0.09,-0.01,-0.06,1.0,a
3463.0,3200.0,3233.0,3378.0,3798.0,3346.0,3195.0,3485.0,3.39,9.53,1.92,-0.02,0.02,-0.08,1.0,a
3447.0,3198.0,3221.0,3393.0,3791.0,3343.0,3190.0,3472.0,3.23,9.55,2.05,-0.08,0.02,-0.11,1.0,a
3424.0,3190.0,3234.0,3446.0,3794.0,3335.0,3194.0,3493.0,2.94,9.53,1.99,-0.06,0.03,-0.1,1.0,a
3423.0,3190.0,3246.0,3462.0,3823.0,3365.0,3193.0,3483.0,3.14,9.66,1.8,-0.01,-0.03,-0.06,1.0,a
3395.0,3195.0,3273.0,3458.0,3811.0,3362.0,3188.0,3484.0,2.94,9.35,2.2,-0.05,0.02,-0.08,1.0,a
3394.0,3187.0,3265.0,3465.0,3819.0,3378.0,3200.0,3487.0,3.09,9.42,2.16,0.01,0.1,-0.07,1.0,a
3403.0,3198.0,3279.0,3461.0,3810.0,3382.0,3199.0,3489.0,2.75,9.49,1.93,-0.07,-0.01,-0.09,1.0,a
3403.0,3199.0,3278.0,3467.0,3830.0,3389.0,3205.0,3501.0,2.99,9.44,2.25,-0.06,0.02,-0.07,1.0,a
3397.0,3186.0,3291.0,3465.0,3824.0,3389.0,3207.0,3503.0,2.77,9.63,1.74,-0.04,-0.03,-0.08,1.0,a
3389.0,3190.0,3287.0,3458.0,3815.0,3376.0,3204.0,3483.0,2.73,9.55,1.83,-0.07,0.05,-0.03,1.0,a
3391.0,3186.0,3294.0,3455.0,3810.0,3378.0,3198.0,3485.0,2.87,9.55,1.98,-0.09,0.02,-0.01,1.0,a
3038.0,3232.0,2403.0,3543.0,3977.0,3226.0,3136.0,3455.0,0.78,8.8,5.09,-0.04,0.03,-0.02,1.0,a
3027.0,3229.0,2416.0,3552.0,3986.0,3233.0,3139.0,3460.0,0.63,8.62,5.29,-0.09,-0.03,-0.05,1.0,a
3034.0,3218.0,2423.0,3551.0,3994.0,3231.0,3143.0,3460.0,0.64,8.67,5.23,-0.06,-0.03,-0.04,1.0,a
3037.0,3237.0,2423.0,3555.0,3997.0,3234.0,3145.0,3472.0,0.5,8.67,5.14,-0.1,0.0,-0.03,1.0,a
3031.0,3216.0,2434.0,3543.0,4011.0,3242.0,3145.0,3472.0,0.62,8.76,5.25,-0.07,0.05,-0.03,1.0,a
3027.0,3225.0,2435.0,3518.0,4005.0,3248.0,3143.0,3472.0,0.74,8.72,5.32,-0.06,-0.0,-0.02,1.0,a
3024.0,3228.0,2439.0,3518.0,3990.0,3236.0,3140.0,3461.0,0.7,8.63,5.21,-0.06,-0.01,-0.04,1.0,a
3040.0,3221.0,2433.0,3534.0,3991.0,3242.0,3138.0,3472.0,0.67,8.69,5.23,-0.06,-0.05,-0.04,1.0,a
3035.0,3219.0,2438.0,3549.0,4018.0,3247.0,3152.0,3475.0,0.78,8.65,5.4,-0.05,0.04,-0.04,1.0,a
3034.0,3221.0,2447.0,3538.0,3993.0,3248.0,3145.0,3465.0,0.6,8.65,5.29,-0.05,0.04,-0.05,1.0,a
3029.0,3217.0,2445.0,3557.0,3999.0,3247.0,3146.0,3472.0,0.54,8.7,5.25,-0.05,-0.01,-0.06,1.0,a
3035.0,3219.0,2441.0,3571.0,4013.0,3251.0,3143.0,3477.0,0.68,8.76,5.2,-0.05,-0.0,-0.04,1.0,a
3026.0,3218.0,2447.0,3572.0,4016.0,3263.0,3150.0,3483.0,0.57,8.71,5.15,-0.08,0.01,-0.03,1.0,a
3030.0,3231.0,2449.0,3566.0,4013.0,3259.0,3152.0,3474.0,0.54,8.71,5.33,-0.05,0.06,-0.03,1.0,a
3029.0,3229.0,2451.0,3575.0,4023.0,3261.0,3151.0,3482.0,0.64,8.76,5.09,-0.05,0.0,-0.05,1.0,a
3040.0,3217.0,2448.0,3571.0,4019.0,3261.0,3152.0,3482.0,0.67,8.71,5.2,-0.07,0.02,-0.04,1.0,a
3035.0,3227.0,2448.0,3568.0,4005.0,3269.0,3153.0,3488.0,0.65,8.71,5.24,-0.06,-0.01,-0.03,1.0,a
3044.0,3222.0,2450.0,3579.0,4010.0,3259.0,3150.0,3483.0,0.64,8.66,5.23,-0.06,-0.02,-0.03,1.0,a
3030.0,3216.0,2463.0,3579.0,4021.0,3264.0,3152.0,3489.0,0.68,8.71,5.27,-0.07,-0.01,-0.05,1.0,a
3030.0,3216.0,2461.0,3582.0,4016.0,3263.0,3146.0,3482.0,0.68,8.74,5.25,-0.05,-0.03,-0.04,1.0,a
3098.0,3167.0,3735.0,3417.0,3765.0,3397.0,3158.0,3418.0,0.17,10.03,0.98,-0.1,0.05,-0.04,1.0,a
3088.0,3169.0,3739.0,3421.0,3778.0,3400.0,3157.0,3419.0,0.35,9.92,1.13,-0.1,0.01,-0.01,1.0,a
3088.0,3157.0,3709.0,3429.0,3764.0,3388.0,3157.0,3413.0,0.32,10.06,1.14,-0.11,0.03,-0.02,1.0,a
3089.0,3152.0,3733.0,3441.0,3782.0,3393.0,3159.0,3422.0,0.31,9.97,1.43,-0.11,0.05,-0.0,1.0,a
3091.0,3163.0,3730.0,3453.0,3781.0,3397.0,3162.0,3434.0,0.37,9.99,1.19,-0.04,-0.01,0.01,1.0,a
3099.0,3170.0,3741.0,3449.0,3792.0,3403.0,3170.0,3433.0,0.51,10.0,1.13,-0.07,0.03,-0.04,1.0,a
3089.0,3164.0,3712.0,3453.0,3793.0,3404.0,3169.0,3433.0,0.45,10.06,1.15,-0.07,-0.0,-0.02,1.0,a
3099.0,3157.0,3737.0,3453.0,3789.0,3408.0,3170.0,3435.0,0.41,9.97,1.28,-0.1,-0.01,-0.02,1.0,a
3093.0,3167.0,3733.0,3455.0,3785.0,3401.0,3165.0,3430.0,0.46,9.96,1.36,-0.05,-0.01,-0.04,1.0,a
3095.0,3166.0,3731.0,3447.0,3786.0,3399.0,3168.0,3437.0,0.52,10.01,1.18,-0.06,0.02,-0.02,1.0,a
3091.0,3159.0,3721.0,3449.0,3789.0,3409.0,3178.0,3437.0,0.46,10.03,1.31,-0.08,0.03,-0.02,1.0,a
3101.0,3158.0,3734.0,3443.0,3788.0,3405.0,3168.0,3432.0,0.53,9.99,1.32,-0.05,0.06,-0.03,1.0,a
3102.0,3165.0,3734.0,3453.0,3797.0,3399.0,3171.0,3440.0,0.51,10.0,1.21,-0.06,0.0,-0.04,1.0,a
3083.0,3153.0,3718.0,3447.0,3792.0,3392.0,3171.0,3439.0,0.54,9.95,1.38,-0.05,-0.03,-0.04,1.0,a
3089.0,3148.0,3718.0,3453.0,3799.0,3403.0,3177.0,3439.0,0.49,9.99,1.24,-0.07,0.01,-0.03,1.0,a
3090.0,3155.0,3714.0,3449.0,3781.0,3402.0,3166.0,3433.0,0.49,9.96,1.37,-0.08,0.01,-0.03,1.0,a
3095.0,3153.0,3733.0,3451.0,3779.0,3401.0,3169.0,3435.0,0.52,9.99,1.34,-0.06,-0.01,-0.03,1.0,a
3097.0,3154.0,3731.0,3459.0,3789.0,3408.0,3173.0,3439.0,0.59,10.01,1.34,-0.08,0.03,-0.04,1.0,a
3099.0,3151.0,3723.0,3454.0,3791.0,3403.0,3173.0,3431.0,0.54,9.93,1.43,-0.08,-0.01,-0.03,1.0,a
3089.0,3163.0,3727.0,3466.0,3806.0,3408.0,3170.0,3446.0,0.55,9.99,1.3,-0.1,0.05,-0.01,1.0,a
2986.0,3056.0,1382.0,3539.0,3910.0,3278.0,3169.0,3451.0,-1.14,8.06,6.05,-0.03,0.04,0.03,1.0,a
2981.0,3056.0,1408.0,3552.0,3926.0,3279.0,3173.0,3442.0,-1.0,8.06,5.96,-0.01,-0.02,-0.0,1.0,a
2977.0,3047.0,1431.0,3566.0,3917.0,3283.0,3181.0,3456.0,-0.99,8.06,5.92,-0.07,0.02,-0.01,1.0,a
2973.0,3054.0,1441.0,3569.0,3925.0,3290.0,3183.0,3462.0,-1.02,8.1,6.02,-0.06,0.01,-0.03,1.0,a
2981.0,3055.0,1456.0,3575.0,3922.0,3287.0,3186.0,3462.0,-0.86,8.13,5.94,-0.03,0.01,-0.02,1.0,a
2976.0,3052.0,1456.0,3562.0,3920.0,3281.0,3182.0,3470.0,-0.9,8.12,5.9,-0.05,0.02,-0.04,1.0,a
2967.0,3053.0,1467.0,3570.0,3931.0,3291.0,3184.0,3461.0,-0.96,8.06,6.0,-0.06,0.02,-0.03,1.0,a
2971.0,3039.0,1477.0,3583.0,3934.0,3290.0,3185.0,3473.0,-1.07,8.05,6.0,-0.08,0.04,-0.03,1.0,a
2978.0,3063.0,1474.0,3578.0,3939.0,3295.0,3184.0,3471.0,-0.97,8.08,6.07,-0.08,0.02,-0.02,1.0,a
2977.0,3051.0,1484.0,3575.0,3920.0,3293.0,3183.0,3463.0,-0.86,8.06,6.05,-0.06,0.03,-0.03,1.0,a
2991.0,3055.0,1491.0,3568.0,3934.0,3295.0,3181.0,3467.0,-1.02,7.98,6.17,-0.08,-0.01,-0.03,1.0,a
2979.0,3042.0,1489.0,3581.0,3936.0,3301.0,3185.0,3472.0,-0.9,8.05,6.17,-0.06,0.03,-0.03,1.0,a
2983.0,3039.0,1497.0,3575.0,3923.0,3295.0,3184.0,3474.0,-0.8,7.98,6.17,-0.05,0.01,-0.04,1.0,a
2988.0,3045.0,1506.0,3583.0,3935.0,3297.0,3185.0,3470.0,-1.02,8.0,6.18,-0.02,-0.01,-0.08,1.0,a
2991.0,3040.0,1502.0,3574.0,3937.0,3291.0,3186.0,3472.0,-1.08,8.14,5.89,-0.03,0.01,-0.07,1.0,a
2979.0,3037.0,1494.0,3578.0,3922.0,3303.0,3183.0,3472.0,-1.09,8.2,5.83,-0.07,0.0,-0.06,1.0,a
2983.0,3054.0,1503.0,3583.0,3938.0,3301.0,3186.0,3475.0,-1.15,8.05,6.04,-0.07,-0.01,-0.04,1.0,a
2979.0,3042.0,1490.0,3570.0,3932.0,3296.0,3184.0,3472.0,-1.0,8.11,5.98,-0.04,0.01,-0.01,1.0,a
2986.0,3042.0,1491.0,3581.0,3945.0,3306.0,3184.0,3472.0,-1.01,8.07,5.94,-0.08,-0.01,-0.06,1.0,a
2989.0,3049.0,1504.0,3580.0,3934.0,3301.0,3191.0,3472.0,-0.99,8.11,6.13,-0.09,-0.0,-0.04,1.0,a
3027.0,3170.0,3151.0,3415.0,4045.0,3311.0,3199.0,3417.0,2.1,9.81,1.59,-0.07,-0.02,-0.03,1.0,a
3027.0,3170.0,3151.0,3415.0,4045.0,3311.0,3199.0,3417.0,2.1,9.81,1.59,-0.07,-0.02,-0.03,1.0,a
3024.0,3162.0,3167.0,3441.0,4049.0,3310.0,3200.0,3422.0,2.14,9.85,1.6,-0.05,0.01,-0.03,1.0,a
3022.0,3164.0,3185.0,3458.0,4043.0,3319.0,3206.0,3427.0,2.16,9.81,1.51,-0.03,-0.03,-0.09,1.0,a
3019.0,3165.0,3183.0,3465.0,4031.0,3317.0,3213.0,3437.0,2.01,9.83,1.55,-0.06,-0.04,-0.05,1.0,a
3030.0,3175.0,3203.0,3472.0,4063.0,3323.0,3211.0,3430.0,1.78,9.8,1.59,-0.05,-0.01,-0.02,1.0,a
3023.0,3170.0,3193.0,3473.0,4051.0,3328.0,3202.0,3427.0,1.89,9.77,1.65,-0.05,0.02,-0.02,1.0,a
3022.0,3166.0,3211.0,3472.0,4049.0,3323.0,3216.0,3439.0,1.99,9.73,1.55,-0.07,-0.01,-0.04,1.0,a
3028.0,3178.0,3215.0,3477.0,4053.0,3325.0,3205.0,3437.0,1.99,9.8,1.6,-0.06,-0.0,-0.04,1.0,a
3024.0,3154.0,3216.0,3475.0,4053.0,3326.0,3204.0,3434.0,2.0,9.82,1.61,-0.07,0.01,-0.04,1.0,a
3024.0,3172.0,3217.0,3491.0,4070.0,3330.0,3215.0,3437.0,2.01,9.84,1.6,-0.04,0.03,-0.03,1.0,a
3017.0,3157.0,3230.0,3491.0,4051.0,3330.0,3215.0,3442.0,2.04,9.85,1.55,-0.07,0.0,-0.02,1.0,a
3029.0,3178.0,3231.0,3487.0,4052.0,3328.0,3212.0,3435.0,2.13,9.74,1.69,-0.05,-0.01,-0.04,1.0,a
3008.0,3166.0,3231.0,3495.0,4067.0,3334.0,3213.0,3444.0,2.04,9.79,1.57,-0.06,-0.03,-0.06,1.0,a
3011.0,3185.0,3233.0,3497.0,4062.0,3329.0,3217.0,3444.0,2.03,9.88,1.67,-0.07,-0.02,-0.05,1.0,a
3023.0,3167.0,3246.0,3500.0,4075.0,3338.0,3216.0,3445.0,1.99,9.75,1.67,-0.03,0.04,-0.03,1.0,a
3019.0,3165.0,3245.0,3482.0,4059.0,3329.0,3211.0,3439.0,2.07,9.84,1.54,-0.06,0.02,-0.02,1.0,a
3021.0,3165.0,3241.0,3489.0,4058.0,3333.0,3210.0,3440.0,2.03,9.69,1.77,-0.05,0.01,-0.05,1.0,a
3027.0,3169.0,3248.0,3501.0,4071.0,3343.0,3218.0,3444.0,1.93,9.79,1.6,-0.05,0.03,-0.04,1.0,a
3015.0,3174.0,3253.0,3498.0,4069.0,3339.0,3221.0,3457.0,2.0,9.84,1.5,-0.06,0.02,-0.04,1.0,a
3009.0,3184.0,3583.0,3599.0,3991.0,3271.0,3185.0,3461.0,-1.19,9.4,3.39,-0.1,-0.02,0.0,1.0,a
2997.0,3174.0,3583.0,3606.0,3993.0,3271.0,3190.0,3464.0,-1.17,9.33,3.6,-0.08,0.02,-0.0,1.0,a
3010.0,3184.0,3607.0,3605.0,4005.0,3285.0,3191.0,3460.0,-1.17,9.3,3.51,-0.06,-0.05,-0.04,1.0,a
3012.0,3174.0,3600.0,3601.0,3989.0,3281.0,3198.0,3457.0,-1.22,9.39,3.45,-0.06,0.01,-0.04,1.0,a
2998.0,3164.0,3583.0,3600.0,3994.0,3279.0,3189.0,3450.0,-1.24,9.35,3.52,-0.07,-0.0,-0.04,1.0,a
3011.0,3178.0,3622.0,3621.0,4002.0,3281.0,3193.0,3453.0,-1.26,9.34,3.47,-0.05,0.01,-0.06,1.0,a
3005.0,3170.0,3583.0,3613.0,4014.0,3285.0,3191.0,3463.0,-1.37,9.35,3.46,-0.06,0.06,-0.04,1.0,a
3006.0,3183.0,3619.0,3617.0,4020.0,3283.0,3198.0,3469.0,-1.29,9.37,3.52,-0.05,0.02,-0.01,1.0,a
3006.0,3185.0,3608.0,3611.0,3996.0,3280.0,3184.0,3456.0,-1.32,9.32,3.53,-0.05,0.01,-0.04,1.0,a
3005.0,3189.0,3602.0,3614.0,4021.0,3291.0,3197.0,3456.0,-1.25,9.34,3.4,-0.06,0.0,-0.06,1.0,a
3007.0,3184.0,3611.0,3601.0,4003.0,3280.0,3195.0,3461.0,-1.35,9.36,3.55,-0.07,-0.01,-0.05,1.0,a
3017.0,3167.0,3607.0,3603.0,4001.0,3280.0,3187.0,3454.0,-1.23,9.36,3.42,-0.03,0.0,-0.03,1.0,a
3007.0,3173.0,3601.0,3613.0,4002.0,3289.0,3194.0,3459.0,-1.3,9.37,3.36,-0.06,-0.01,-0.04,1.0,a
3005.0,3185.0,3619.0,3626.0,4017.0,3283.0,3191.0,3456.0,-1.27,9.36,3.43,-0.04,0.04,-0.04,1.0,a
3008.0,3182.0,3623.0,3627.0,4020.0,3293.0,3197.0,3464.0,-1.29,9.45,3.37,-0.07,-0.01,-0.02,1.0,a
3006.0,3184.0,3611.0,3632.0,4027.0,3290.0,3197.0,3457.0,-1.24,9.4,3.42,-0.05,-0.0,-0.03,1.0,a
3007.0,3185.0,3611.0,3621.0,4022.0,3287.0,3199.0,3463.0,-1.29,9.44,3.31,-0.06,0.02,-0.03,1.0,a
3007.0,3173.0,3617.0,3621.0,4015.0,3290.0,3196.0,3455.0,-1.14,9.45,3.31,-0.05,-0.0,-0.03,1.0,a
3007.0,3172.0,3619.0,3631.0,4017.0,3294.0,3200.0,3463.0,-1.2,9.36,3.5,-0.05,0.0,-0.04,1.0,a
3002.0,3181.0,3621.0,3627.0,4025.0,3291.0,3194.0,3472.0,-1.22,9.45,3.3,-0.05,-0.01,-0.04,1.0,a
2933.0,3139.0,3963.0,3735.0,4026.0,3232.0,3166.0,3505.0,-0.07,9.84,2.49,-0.07,0.01,-0.03,1.0,a
2928.0,3129.0,3971.0,3751.0,4032.0,3234.0,3157.0,3493.0,0.09,9.83,2.41,-0.06,-0.03,-0.07,1.0,a
2925.0,3131.0,3984.0,3742.0,4031.0,3233.0,3154.0,3497.0,-0.32,9.78,2.37,-0.06,-0.02,-0.08,1.0,a
2928.0,3141.0,3985.0,3751.0,4048.0,3239.0,3166.0,3503.0,-0.34,9.77,2.34,-0.06,-0.02,-0.03,1.0,a
2931.0,3140.0,4002.0,3760.0,4034.0,3243.0,3164.0,3498.0,-0.07,9.8,2.37,-0.07,-0.01,-0.03,1.0,a
2926.0,3127.0,3984.0,3754.0,4015.0,3238.0,3157.0,3493.0,-0.16,9.78,2.46,-0.09,-0.01,-0.05,1.0,a
2930.0,3129.0,3971.0,3746.0,4028.0,3238.0,3156.0,3491.0,-0.09,9.78,2.46,-0.06,-0.02,-0.05,1.0,a
2923.0,3136.0,3966.0,3745.0,4027.0,3243.0,3163.0,3502.0,-0.28,9.8,2.29,-0.07,-0.01,-0.03,1.0,a
2933.0,3137.0,3986.0,3751.0,4039.0,3246.0,3161.0,3495.0,-0.27,9.74,2.52,-0.07,0.0,-0.04,1.0,a
2934.0,3130.0,3984.0,3759.0,4037.0,3246.0,3169.0,3500.0,-0.05,9.78,2.52,-0.08,-0.02,-0.04,1.0,a
2919.0,3137.0,3963.0,3760.0,4035.0,3248.0,3168.0,3505.0,-0.34,9.78,2.32,-0.04,0.02,-0.05,1.0,a
2926.0,3125.0,3958.0,3751.0,4025.0,3247.0,3153.0,3501.0,-0.24,9.79,2.4,-0.08,-0.01,0.0,1.0,a
2937.0,3136.0,3984.0,3760.0,4031.0,3243.0,3164.0,3497.0,-0.02,9.81,2.46,-0.1,-0.0,-0.0,1.0,a
2923.0,3136.0,3975.0,3757.0,4030.0,3245.0,3161.0,3493.0,-0.15,9.78,2.57,-0.09,0.0,-0.03,1.0,a
2928.0,3135.0,3971.0,3776.0,4045.0,3248.0,3158.0,3504.0,-0.15,9.74,2.57,-0.07,0.04,-0.02,1.0,a
2927.0,3133.0,3974.0,3757.0,4025.0,3247.0,3165.0,3504.0,0.04,9.78,2.5,-0.06,0.02,-0.01,1.0,a
2930.0,3137.0,3994.0,3762.0,4031.0,3250.0,3161.0,3497.0,-0.03,9.75,2.56,-0.08,-0.0,-0.05,1.0,a
2928.0,3133.0,3979.0,3770.0,4054.0,3251.0,3172.0,3507.0,-0.03,9.74,2.64,-0.06,-0.01,-0.04,1.0,a
2926.0,3134.0,3982.0,3774.0,4053.0,3257.0,3169.0,3509.0,-0.05,9.79,2.48,-0.04,-0.01,-0.07,1.0,a
2922.0,3136.0,3982.0,3770.0,4048.0,3259.0,3171.0,3507.0,-0.14,9.77,2.44,-0.06,-0.02,-0.05,1.0,a
2942.0,3218.0,3484.0,3445.0,3904.0,3408.0,3251.0,3353.0,2.73,9.55,1.4,-0.08,0.01,-0.06,1.0,a
2925.0,3210.0,3488.0,3456.0,3923.0,3415.0,3257.0,3366.0,2.85,9.58,1.54,-0.07,0.03,-0.07,1.0,a
2941.0,3197.0,3482.0,3470.0,3916.0,3423.0,3257.0,3370.0,2.68,9.65,1.43,-0.06,0.05,-0.07,1.0,a
2938.0,3209.0,3481.0,3475.0,3914.0,3419.0,3249.0,3362.0,2.71,9.68,1.42,-0.04,-0.03,-0.05,1.0,a
2933.0,3195.0,3473.0,3490.0,3914.0,3422.0,3260.0,3366.0,2.72,9.67,1.39,-0.07,0.04,-0.05,1.0,a
2943.0,3213.0,3485.0,3491.0,3919.0,3415.0,3251.0,3367.0,2.88,9.65,1.41,-0.07,-0.01,-0.04,1.0,a
2944.0,3206.0,3482.0,3499.0,3920.0,3429.0,3264.0,3376.0,2.62,9.69,1.36,-0.07,-0.01,-0.05,1.0,a
2930.0,3203.0,3478.0,3504.0,3940.0,3420.0,3272.0,3381.0,2.84,9.67,1.47,-0.06,-0.01,-0.06,1.0,a
2929.0,3209.0,3479.0,3498.0,3936.0,3417.0,3266.0,3383.0,2.61,9.69,1.41,-0.08,0.08,-0.03,1.0,a
2928.0,3202.0,3479.0,3505.0,3931.0,3439.0,3267.0,3383.0,2.56,9.73,1.35,-0.04,0.03,-0.04,1.0,a
2928.0,3206.0,3479.0,3504.0,3937.0,3423.0,3259.0,3385.0,2.78,9.61,1.5,-0.1,0.03,-0.05,1.0,a
2942.0,3206.0,3479.0,3507.0,3943.0,3424.0,3271.0,3378.0,2.59,9.77,1.36,-0.03,0.06,-0.03,1.0,a
2927.0,3213.0,3489.0,3504.0,3938.0,3427.0,3259.0,3382.0,2.81,9.65,1.31,-0.05,0.01,-0.04,1.0,a
2938.0,3203.0,3474.0,3504.0,3937.0,3424.0,3263.0,3383.0,2.68,9.74,1.41,-0.07,0.0,-0.06,1.0,a
2933.0,3207.0,3494.0,3520.0,3949.0,3431.0,3267.0,3383.0,2.57,9.62,1.54,-0.04,0.03,-0.05,1.0,a
2934.0,3207.0,3479.0,3522.0,3951.0,3430.0,3269.0,3387.0,2.75,9.7,1.29,-0.06,-0.01,-0.05,1.0,a
2928.0,3200.0,3482.0,3520.0,3950.0,3435.0,3268.0,3382.0,2.66,9.73,1.29,-0.07,0.03,-0.05,1.0,a
2939.0,3203.0,3490.0,3526.0,3951.0,3435.0,3274.0,3388.0,2.54,9.7,1.27,-0.09,0.05,-0.03,1.0,a
2937.0,3206.0,3486.0,3519.0,3943.0,3424.0,3264.0,3378.0,2.63,9.66,1.61,-0.08,0.01,-0.0,1.0,a
2934.0,3196.0,3479.0,3529.0,3947.0,3436.0,3265.0,3392.0,2.75,9.65,1.53,-0.06,0.02,-0.05,1.0,a
3027.0,3158.0,3982.0,3600.0,4024.0,3329.0,3194.0,3385.0,-1.04,9.02,4.33,-0.07,0.02,-0.02,1.0,a
3024.0,3161.0,3979.0,3605.0,4032.0,3339.0,3195.0,3388.0,-0.8,9.12,4.35,-0.11,0.04,0.01,1.0,a
3027.0,3177.0,4000.0,3631.0,4050.0,3345.0,3194.0,3382.0,-0.66,9.1,4.41,-0.07,0.02,-0.02,1.0,a
3024.0,3181.0,3984.0,3635.0,4049.0,3353.0,3206.0,3394.0,-0.81,9.12,4.2,-0.08,0.06,-0.05,1.0,a
3024.0,3167.0,3979.0,3632.0,4041.0,3355.0,3197.0,3395.0,-0.86,9.12,4.32,-0.07,0.02,-0.01,1.0,a
3024.0,3163.0,3978.0,3647.0,4055.0,3357.0,3203.0,3403.0,-0.74,9.14,4.26,-0.03,0.05,-0.04,1.0,a
3028.0,3167.0,3982.0,3647.0,4039.0,3351.0,3200.0,3397.0,-0.74,9.2,4.16,-0.06,0.02,-0.04,1.0,a
3029.0,3166.0,3989.0,3652.0,4033.0,3354.0,3205.0,3398.0,-0.67,9.12,4.24,-0.06,0.04,-0.03,1.0,a
3027.0,3153.0,3988.0,3651.0,4038.0,3355.0,3214.0,3407.0,-0.65,9.2,4.22,-0.09,0.0,-0.04,1.0,a
3024.0,3159.0,3985.0,3653.0,4042.0,3350.0,3206.0,3403.0,-0.77,9.16,4.28,-0.04,0.02,-0.05,1.0,a
3025.0,3168.0,4001.0,3670.0,4053.0,3371.0,3210.0,3403.0,-0.77,9.11,4.32,-0.02,0.02,-0.03,1.0,a
3039.0,3171.0,3985.0,3669.0,4066.0,3373.0,3213.0,3399.0,-0.69,9.12,4.18,-0.05,0.03,-0.03,1.0,a
3023.0,3169.0,3998.0,3670.0,4063.0,3375.0,3216.0,3408.0,-0.66,9.18,4.3,-0.07,0.18,-0.05,1.0,a
3024.0,3165.0,3999.0,3695.0,4080.0,3376.0,3216.0,3411.0,-0.89,9.12,4.16,-0.0,-0.08,-0.02,1.0,a
3027.0,3157.0,4001.0,3699.0,4081.0,3376.0,3216.0,3412.0,-0.86,9.14,4.11,-0.08,-0.07,-0.04,1.0,a
3028.0,3170.0,4016.0,3709.0,4079.0,3378.0,3211.0,3407.0,-0.78,9.11,4.26,-0.1,-0.02,-0.03,1.0,a
3026.0,3178.0,3981.0,3714.0,4080.0,3383.0,3214.0,3407.0,-0.58,9.09,4.5,-0.1,-0.01,-0.04,1.0,a
3027.0,3157.0,3995.0,3728.0,4062.0,3382.0,3214.0,3402.0,-0.91,9.11,4.34,-0.07,0.02,-0.04,1.0,a
3024.0,3182.0,3998.0,3728.0,4080.0,3392.0,3217.0,3408.0,-0.62,9.16,4.26,-0.07,0.03,-0.05,1.0,a
3022.0,3175.0,3995.0,3741.0,4078.0,3389.0,3216.0,3419.0,-0.91,9.11,4.37,-0.08,0.05,-0.03,1.0,a
3018.0,3088.0,3603.0,3339.0,4038.0,3346.0,3263.0,3408.0,1.11,9.87,2.07,-0.02,0.02,-0.03,1.0,a
3018.0,3095.0,3600.0,3347.0,4069.0,3354.0,3266.0,3413.0,1.06,9.8,2.27,-0.07,-0.0,-0.04,1.0,a
3019.0,3071.0,3602.0,3342.0,4063.0,3356.0,3266.0,3414.0,1.02,9.75,2.37,-0.07,0.0,-0.04,1.0,a
3030.0,3091.0,3603.0,3350.0,4052.0,3358.0,3265.0,3415.0,1.07,9.86,2.25,-0.08,0.02,-0.03,1.0,a
3022.0,3091.0,3601.0,3347.0,4074.0,3354.0,3271.0,3417.0,1.12,9.78,2.49,-0.07,0.01,-0.03,1.0,a
3017.0,3093.0,3605.0,3344.0,4033.0,3328.0,3262.0,3411.0,1.08,9.85,2.25,-0.2,0.02,0.0,1.0,a
3020.0,3088.0,3629.0,3346.0,4036.0,3334.0,3265.0,3423.0,1.2,9.78,2.55,-0.02,0.02,-0.04,1.0,a
3021.0,3087.0,3600.0,3343.0,4031.0,3339.0,3261.0,3419.0,1.12,9.77,2.24,-0.05,0.04,-0.05,1.0,a
3021.0,3083.0,3600.0,3357.0,4048.0,3344.0,3277.0,3434.0,-0.33,9.63,1.82,0.07,-1.12,0.0,1.0,a
3013.0,3102.0,3609.0,3349.0,4061.0,3352.0,3275.0,3426.0,1.82,9.79,2.54,-0.2,0.08,0.05,1.0,a
3024.0,3088.0,3605.0,3358.0,4055.0,3345.0,3275.0,3427.0,1.41,9.7,2.44,-0.04,0.31,-0.04,1.0,a
3024.0,3092.0,3628.0,3369.0,4042.0,3345.0,3275.0,3425.0,1.28,9.79,2.14,-0.02,0.01,-0.05,1.0,a
3018.0,3091.0,3603.0,3359.0,4062.0,3357.0,3279.0,3427.0,0.98,9.76,2.06,-0.03,0.21,0.0,1.0,a
3024.0,3082.0,3611.0,3357.0,4060.0,3354.0,3280.0,3422.0,0.8,9.67,2.26,-0.16,0.13,0.02,1.0,a
3018.0,3088.0,3610.0,3378.0,4045.0,3350.0,3271.0,3425.0,2.12,9.82,2.37,-0.08,-0.69,0.02,1.0,a
3027.0,3092.0,3613.0,3378.0,4048.0,3355.0,3276.0,3424.0,1.69,9.73,2.68,-0.11,0.09,-0.04,1.0,a
3025.0,3091.0,3610.0,3392.0,4058.0,3357.0,3280.0,3427.0,1.62,9.69,2.64,-0.05,0.13,-0.02,1.0,a
3015.0,3086.0,3601.0,3386.0,4058.0,3357.0,3281.0,3434.0,1.35,9.75,2.21,-0.05,0.03,-0.05,1.0,a
3011.0,3083.0,3614.0,3383.0,3998.0,3335.0,3265.0,3415.0,1.44,9.54,2.7,-0.17,0.02,-0.01,1.0,a
3021.0,3097.0,3613.0,3395.0,4025.0,3341.0,3287.0,3435.0,1.51,9.63,2.6,-0.04,0.04,0.0,1.0,a
3024.0,3202.0,3809.0,3660.0,4095.0,3501.0,3263.0,3451.0,-0.96,8.7,5.03,-0.06,0.0,-0.04,1.0,a
3019.0,3193.0,3781.0,3642.0,4095.0,3500.0,3264.0,3452.0,-0.79,8.69,5.12,-0.07,-0.0,-0.04,1.0,a
3025.0,3184.0,3799.0,3657.0,4095.0,3491.0,3263.0,3445.0,-0.93,8.7,5.21,-0.04,-0.01,-0.05,1.0,a
3021.0,3190.0,3807.0,3653.0,4095.0,3494.0,3254.0,3443.0,-0.79,8.7,4.89,-0.04,-0.03,-0.09,1.0,a
3023.0,3199.0,3791.0,3657.0,4095.0,3504.0,3265.0,3456.0,-0.94,8.71,5.11,-0.06,-0.01,-0.05,1.0,a
3026.0,3198.0,3802.0,3651.0,4095.0,3493.0,3263.0,3447.0,-0.89,8.81,4.84,-0.04,0.0,-0.03,1.0,a
3024.0,3191.0,3805.0,3657.0,4095.0,3497.0,3263.0,3446.0,-1.0,8.76,4.73,-0.1,0.04,0.01,1.0,a
3024.0,3190.0,3807.0,3668.0,4095.0,3503.0,3267.0,3451.0,-0.92,8.64,5.18,-0.13,0.02,0.04,1.0,a
3019.0,3187.0,3792.0,3648.0,4095.0,3498.0,3257.0,3443.0,-0.66,8.68,5.26,-0.1,0.0,0.04,1.0,a
3027.0,3200.0,3815.0,3666.0,4095.0,3504.0,3259.0,3449.0,-0.6,8.63,5.45,-0.03,0.01,-0.03,1.0,a
3019.0,3199.0,3803.0,3669.0,4095.0,3495.0,3262.0,3446.0,-0.65,8.74,5.18,0.03,0.01,-0.05,1.0,a
3029.0,3196.0,3795.0,3668.0,4095.0,3504.0,3264.0,3454.0,-0.84,8.83,4.77,0.02,0.02,-0.05,1.0,a
3029.0,3199.0,3797.0,3671.0,4095.0,3497.0,3263.0,3451.0,-0.79,8.84,4.82,-0.02,0.01,-0.04,1.0,a
3019.0,3184.0,3804.0,3662.0,4095.0,3507.0,3271.0,3456.0,-0.79,8.84,4.78,-0.04,0.03,-0.02,1.0,a
3026.0,3186.0,3801.0,3664.0,4095.0,3499.0,3263.0,3445.0,-0.75,8.79,4.89,-0.09,0.0,0.01,1.0,a
3024.0,3193.0,3813.0,3655.0,4095.0,3501.0,3265.0,3458.0,-0.56,8.82,5.0,-0.07,0.01,0.02,1.0,a
3024.0,3204.0,3811.0,3668.0,4095.0,3507.0,3269.0,3454.0,-0.49,8.79,5.0,-0.04,0.03,-0.05,1.0,a
3018.0,3203.0,3819.0,3667.0,4095.0,3498.0,3262.0,3451.0,-0.77,8.83,4.75,-0.09,-0.01,-0.02,1.0,a
3031.0,3200.0,3802.0,3670.0,4095.0,3507.0,3265.0,3455.0,-0.7,8.83,4.71,-0.11,-0.01,0.01,1.0,a
3019.0,3200.0,3799.0,3664.0,4095.0,3504.0,3269.0,3461.0,-0.66,8.66,5.25,-0.13,-0.02,-0.02,1.0,a
2971.0,3275.0,3888.0,3442.0,4095.0,3466.0,3252.0,3526.0,-0.34,9.66,2.97,-0.11,-0.01,0.02,1.0,a
2973.0,3251.0,3871.0,3439.0,4095.0,3455.0,3243.0,3525.0,-0.28,9.65,3.09,-0.03,-0.05,-0.11,1.0,a
2978.0,3258.0,3867.0,3443.0,4095.0,3466.0,3247.0,3522.0,-0.92,9.61,2.81,-0.01,-0.0,-0.1,1.0,a
2977.0,3263.0,3888.0,3444.0,4095.0,3463.0,3249.0,3526.0,-0.94,9.65,2.56,-0.02,0.01,-0.06,1.0,a
2974.0,3248.0,3888.0,3442.0,4095.0,3465.0,3248.0,3529.0,-0.85,9.67,2.63,-0.08,-0.02,-0.03,1.0,a
2981.0,3252.0,3875.0,3441.0,4095.0,3455.0,3248.0,3515.0,-0.76,9.65,2.9,-0.05,0.0,-0.03,1.0,a
2975.0,3261.0,3866.0,3443.0,4095.0,3457.0,3243.0,3514.0,-0.7,9.7,2.74,-0.04,-0.02,-0.05,1.0,a
2981.0,3263.0,3888.0,3445.0,4095.0,3456.0,3239.0,3514.0,-0.92,9.63,2.75,-0.06,-0.0,-0.05,1.0,a
2973.0,3257.0,3856.0,3453.0,4095.0,3467.0,3247.0,3530.0,-0.9,9.66,2.66,-0.07,0.01,-0.03,1.0,a
2976.0,3273.0,3884.0,3455.0,4095.0,3466.0,3246.0,3525.0,-0.71,9.65,2.8,-0.07,0.0,-0.01,1.0,a
2983.0,3264.0,3885.0,3446.0,4095.0,3457.0,3245.0,3519.0,-0.82,9.63,2.73,-0.09,-0.0,-0.01,1.0,a
2987.0,3270.0,3877.0,3451.0,4095.0,3460.0,3246.0,3521.0,-0.64,9.65,2.86,-0.1,-0.03,0.01,1.0,a
2987.0,3263.0,3871.0,3455.0,4095.0,3466.0,3253.0,3529.0,-0.59,9.65,2.9,-0.06,-0.01,-0.05,1.0,a
2982.0,3262.0,3869.0,3450.0,4095.0,3472.0,3251.0,3532.0,-0.75,9.66,2.88,-0.07,-0.01,-0.05,1.0,a
2978.0,3269.0,3874.0,3451.0,4095.0,3461.0,3247.0,3527.0,-0.57,9.65,2.9,-0.04,-0.0,-0.03,1.0,a
2977.0,3263.0,3887.0,3447.0,4095.0,3457.0,3246.0,3520.0,-0.66,9.62,2.9,-0.05,0.0,-0.05,1.0,a
2983.0,3261.0,3870.0,3450.0,4095.0,3456.0,3244.0,3535.0,-0.7,9.62,2.8,-0.06,-0.02,-0.04,1.0,a
2979.0,3252.0,3861.0,3462.0,4095.0,3455.0,3251.0,3530.0,-0.66,9.66,2.77,-0.06,-0.01,-0.05,1.0,a
2978.0,3266.0,3888.0,3455.0,4095.0,3466.0,3249.0,3523.0,-0.64,9.68,2.78,-0.05,0.01,-0.06,1.0,a
2978.0,3269.0,3862.0,3456.0,4095.0,3471.0,3250.0,3527.0,-0.8,9.65,2.83,-0.06,0.02,-0.04,1.0,a
3087.0,3203.0,3645.0,3243.0,3902.0,3515.0,3187.0,3371.0,2.34,9.47,3.19,-0.04,-0.01,-0.04,1.0,a
3088.0,3216.0,3632.0,3247.0,3904.0,3527.0,3200.0,3378.0,2.27,9.35,3.1,-0.06,0.01,-0.06,1.0,a
3071.0,3216.0,3631.0,3263.0,3907.0,3519.0,3198.0,3378.0,2.25,9.46,3.09,-0.02,0.03,-0.06,1.0,a
3091.0,3214.0,3642.0,3265.0,3904.0,3514.0,3201.0,3382.0,2.2,9.49,2.92,-0.07,0.01,-0.07,1.0,a
3085.0,3221.0,3633.0,3284.0,3918.0,3525.0,3211.0,3386.0,2.25,9.35,3.25,-0.05,0.02,-0.06,1.0,a
3097.0,3222.0,3648.0,3300.0,3913.0,3535.0,3199.0,3389.0,2.18,9.5,3.0,-0.09,0.04,-0.06,1.0,a
3088.0,3206.0,3648.0,3334.0,3917.0,3534.0,3202.0,3381.0,2.31,9.36,3.08,-0.04,0.04,-0.07,1.0,a
3090.0,3216.0,3639.0,3378.0,3907.0,3518.0,3200.0,3389.0,2.3,9.54,2.87,-0.08,0.07,-0.1,1.0,a
3086.0,3206.0,3635.0,3425.0,3911.0,3517.0,3209.0,3392.0,2.07,9.49,3.15,-0.04,-0.01,-0.02,1.0,a
3088.0,3207.0,3638.0,3493.0,3894.0,3503.0,3206.0,3389.0,2.66,9.48,2.82,0.17,0.01,-0.32,1.0,a
3088.0,3216.0,3637.0,3724.0,3912.0,3434.0,3205.0,3394.0,1.66,9.53,2.92,-0.07,-0.07,-0.02,1.0,a
3085.0,3223.0,3633.0,3871.0,3895.0,3410.0,3207.0,3390.0,2.44,9.46,2.95,-0.19,0.04,0.05,1.0,a
3086.0,3227.0,3647.0,3894.0,3869.0,3408.0,3201.0,3390.0,2.21,9.5,3.15,-0.03,0.18,-0.13,1.0,a
3088.0,3197.0,3643.0,3874.0,3861.0,3406.0,3200.0,3395.0,2.05,9.5,2.98,0.02,-0.01,-0.06,1.0,a
3071.0,3214.0,3627.0,3839.0,3890.0,3427.0,3203.0,3399.0,1.81,9.5,2.97,-0.08,-0.02,-0.05,1.0,a
3071.0,3204.0,3643.0,3833.0,3898.0,3436.0,3206.0,3401.0,1.98,9.45,2.94,-0.07,0.02,-0.03,1.0,a
3102.0,3215.0,3645.0,3842.0,3888.0,3426.0,3204.0,3393.0,1.96,9.48,3.07,-0.06,0.01,-0.04,1.0,a
3095.0,3216.0,3641.0,3807.0,3888.0,3430.0,3205.0,3392.0,2.06,9.48,3.03,-0.04,-0.04,-0.04,1.0,a
3088.0,3216.0,3642.0,3798.0,3920.0,3451.0,3213.0,3408.0,1.88,9.54,2.98,-0.05,-0.01,-0.03,1.0,a
3090.0,3215.0,3632.0,3792.0,3915.0,3440.0,3203.0,3405.0,2.12,9.47,3.17,-0.05,-0.01,-0.04,1.0,a
3195.0,3177.0,3757.0,3631.0,3859.0,3378.0,3223.0,3425.0,-1.94,9.58,2.57,0.0,0.01,-0.01,1.0,a
3202.0,3187.0,3762.0,3639.0,3850.0,3390.0,3218.0,3424.0,-1.92,9.48,2.68,-0.05,0.02,-0.03,1.0,a
3210.0,3183.0,3757.0,3642.0,3856.0,3379.0,3218.0,3425.0,-2.01,9.46,2.72,-0.05,0.0,-0.03,1.0,a
3190.0,3184.0,3749.0,3646.0,3873.0,3394.0,3226.0,3423.0,-1.76,9.59,2.45,-0.02,0.01,-0.04,1.0,a
3189.0,3186.0,3745.0,3648.0,3887.0,3398.0,3223.0,3431.0,-2.01,9.49,2.34,-0.01,0.04,-0.04,1.0,a
3198.0,3181.0,3749.0,3623.0,3857.0,3404.0,3235.0,3428.0,-2.16,9.48,2.49,-0.07,-0.0,-0.01,1.0,a
3200.0,3175.0,3767.0,3628.0,3888.0,3408.0,3227.0,3421.0,-2.0,9.5,2.56,-0.08,-0.01,0.01,1.0,a
3201.0,3177.0,3753.0,3634.0,3859.0,3415.0,3234.0,3427.0,-1.85,9.54,2.53,-0.1,0.0,0.01,1.0,a
3200.0,3182.0,3743.0,3636.0,3879.0,3409.0,3233.0,3425.0,-1.78,9.55,2.59,-0.12,0.01,0.01,1.0,a
3198.0,3184.0,3758.0,3633.0,3887.0,3415.0,3231.0,3429.0,-1.69,9.41,2.79,-0.1,-0.0,0.02,1.0,a
3191.0,3166.0,3746.0,3635.0,3891.0,3427.0,3232.0,3436.0,-1.58,9.5,2.87,-0.08,-0.02,0.04,1.0,a
3207.0,3170.0,3754.0,3633.0,3888.0,3421.0,3232.0,3435.0,-1.43,9.54,2.79,-0.03,0.0,-0.03,1.0,a
3189.0,3182.0,3738.0,3638.0,3908.0,3424.0,3243.0,3436.0,-1.57,9.5,2.72,-0.07,-0.03,-0.06,1.0,a
3193.0,3183.0,3759.0,3639.0,3888.0,3427.0,3231.0,3427.0,-1.82,9.5,2.67,-0.09,-0.03,-0.05,1.0,a
3200.0,3185.0,3751.0,3632.0,3906.0,3424.0,3231.0,3430.0,-1.73,9.5,2.81,-0.06,-0.01,-0.01,1.0,a
3199.0,3173.0,3755.0,3626.0,3901.0,3440.0,3243.0,3434.0,-1.55,9.55,2.73,-0.08,0.02,0.01,1.0,a
3197.0,3181.0,3745.0,3622.0,3909.0,3440.0,3237.0,3440.0,-1.41,9.52,2.9,-0.06,0.03,-0.03,1.0,a
3196.0,3182.0,3733.0,3619.0,3904.0,3445.0,3237.0,3431.0,-1.54,9.48,2.77,-0.05,0.01,-0.06,1.0,a
3194.0,3179.0,3743.0,3616.0,3918.0,3434.0,3241.0,3439.0,-1.62,9.55,2.73,-0.06,0.02,-0.04,1.0,a
3197.0,3184.0,3754.0,3629.0,3915.0,3440.0,3237.0,3433.0,-1.61,9.52,2.65,-0.06,0.01,-0.04,1.0,a
3102.0,3247.0,3697.0,3455.0,3825.0,3485.0,3190.0,3386.0,1.47,9.61,2.82,-0.1,-0.0,-0.01,1.0,a
3099.0,3243.0,3686.0,3439.0,3839.0,3493.0,3190.0,3398.0,1.57,9.7,2.95,-0.05,0.01,-0.0,1.0,a
3120.0,3251.0,3700.0,3449.0,3831.0,3494.0,3187.0,3387.0,1.61,9.62,2.86,-0.07,-0.0,-0.01,1.0,a
3115.0,3235.0,3683.0,3440.0,3828.0,3492.0,3185.0,3385.0,1.65,9.57,2.92,-0.06,0.01,-0.04,1.0,a
3107.0,3236.0,3684.0,3455.0,3839.0,3502.0,3199.0,3397.0,1.74,9.56,2.88,-0.07,-0.01,-0.03,1.0,a
3110.0,3246.0,3691.0,3456.0,3837.0,3504.0,3201.0,3397.0,1.64,9.58,2.87,-0.1,0.06,-0.05,1.0,a
3118.0,3248.0,3698.0,3472.0,3838.0,3507.0,3203.0,3407.0,1.74,9.64,2.87,-0.07,0.01,-0.02,1.0,a
3101.0,3231.0,3679.0,3495.0,3810.0,3493.0,3201.0,3408.0,1.71,9.39,3.18,-0.05,0.02,-0.06,1.0,a
3118.0,3237.0,3697.0,3568.0,3793.0,3478.0,3200.0,3409.0,1.55,9.58,3.04,-0.06,0.04,-0.08,1.0,a
3110.0,3239.0,3689.0,3583.0,3803.0,3487.0,3203.0,3408.0,1.66,9.5,3.02,-0.05,-0.01,-0.04,1.0,a
3101.0,3247.0,3679.0,3577.0,3822.0,3498.0,3206.0,3413.0,1.76,9.75,2.78,-0.04,-0.04,-0.04,1.0,a
3109.0,3246.0,3697.0,3583.0,3812.0,3478.0,3198.0,3406.0,1.68,9.55,2.88,-0.06,-0.03,-0.03,1.0,a
3099.0,3233.0,3687.0,3583.0,3797.0,3475.0,3197.0,3408.0,1.72,9.63,2.92,-0.05,-0.03,-0.04,1.0,a
3106.0,3248.0,3685.0,3583.0,3809.0,3479.0,3199.0,3403.0,1.53,9.59,2.98,-0.04,0.06,-0.02,1.0,a
3106.0,3243.0,3684.0,3607.0,3806.0,3481.0,3207.0,3420.0,1.75,9.64,2.88,-0.06,0.05,-0.04,1.0,a
3110.0,3241.0,3678.0,3629.0,3795.0,3468.0,3200.0,3411.0,1.62,9.54,3.07,-0.05,0.03,-0.05,1.0,a
3115.0,3232.0,3701.0,3664.0,3760.0,3436.0,3194.0,3413.0,1.58,9.55,3.01,-0.06,0.09,-0.04,1.0,a
3107.0,3244.0,3699.0,3691.0,3777.0,3443.0,3211.0,3426.0,1.52,9.59,2.9,-0.13,0.06,-0.06,1.0,a
3114.0,3248.0,3683.0,3706.0,3789.0,3470.0,3213.0,3414.0,1.53,9.65,2.86,-0.06,0.05,-0.05,1.0,a
3105.0,3238.0,3690.0,3702.0,3791.0,3456.0,3213.0,3423.0,1.56,9.61,2.92,-0.03,-0.02,-0.06,1.0,a
3341.0,3279.0,3901.0,3942.0,3932.0,3504.0,3241.0,3526.0,-0.6,8.07,6.14,-0.06,-0.03,-0.01,1.0,a
3344.0,3280.0,3888.0,3909.0,3935.0,3517.0,3239.0,3531.0,-0.37,8.09,6.16,-0.04,0.01,-0.05,1.0,a
3356.0,3283.0,3917.0,3914.0,3942.0,3517.0,3241.0,3529.0,-0.56,7.95,6.13,-0.03,0.0,-0.04,1.0,a
3351.0,3278.0,3885.0,3901.0,3930.0,3505.0,3235.0,3524.0,-0.53,8.03,6.16,-0.04,-0.0,-0.02,1.0,a
3349.0,3279.0,3903.0,3909.0,3942.0,3520.0,3239.0,3533.0,-0.46,8.09,6.11,-0.03,0.01,-0.04,1.0,a
3349.0,3280.0,3915.0,3901.0,3949.0,3522.0,3244.0,3529.0,-0.45,8.1,6.08,-0.01,0.0,-0.05,1.0,a
3349.0,3282.0,3895.0,3894.0,3939.0,3513.0,3235.0,3525.0,-0.48,8.13,6.02,-0.03,-0.01,-0.05,1.0,a
3354.0,3267.0,3889.0,3890.0,3930.0,3519.0,3247.0,3532.0,-0.62,8.11,6.03,-0.07,0.04,-0.04,1.0,a
3353.0,3269.0,3897.0,3904.0,3926.0,3515.0,3239.0,3527.0,-0.54,8.07,6.07,-0.07,0.03,-0.05,1.0,a
3342.0,3282.0,3899.0,3907.0,3949.0,3519.0,3248.0,3530.0,-0.58,8.1,6.03,-0.06,0.01,-0.05,1.0,a
3359.0,3280.0,3905.0,3903.0,3930.0,3517.0,3237.0,3531.0,-0.59,8.02,6.09,-0.06,0.02,-0.04,1.0,a
3344.0,3280.0,3921.0,3877.0,3949.0,3522.0,3242.0,3522.0,-0.57,8.09,6.04,-0.08,-0.01,-0.04,1.0,a
3363.0,3287.0,3883.0,3865.0,3963.0,3525.0,3238.0,3518.0,-0.55,8.07,6.05,-0.04,-0.01,-0.03,1.0,a
3346.0,3278.0,3888.0,3851.0,3966.0,3534.0,3238.0,3511.0,-0.53,8.11,6.11,-0.07,0.01,-0.04,1.0,a
3347.0,3286.0,3895.0,3818.0,3962.0,3521.0,3226.0,3498.0,-0.55,8.15,6.03,-0.03,0.01,-0.02,1.0,a
3342.0,3266.0,3818.0,3793.0,3952.0,3531.0,3209.0,3461.0,-0.51,8.18,5.99,0.08,0.0,-0.07,1.0,a
3344.0,3261.0,3823.0,3822.0,3971.0,3551.0,3227.0,3467.0,-0.64,8.1,5.99,-0.08,0.01,-0.04,1.0,a
3350.0,3247.0,3827.0,3811.0,3966.0,3539.0,3218.0,3469.0,-0.62,8.07,6.02,-0.07,-0.01,-0.01,1.0,a
3334.0,3248.0,3836.0,3838.0,3966.0,3558.0,3216.0,3472.0,-0.48,8.04,6.03,-0.06,0.0,-0.03,1.0,a
3339.0,3243.0,3818.0,3827.0,3966.0,3558.0,3206.0,3467.0,-0.41,8.08,6.04,-0.06,-0.01,-0.05,1.0,a
3069.0,3242.0,3519.0,3830.0,4095.0,3488.0,3237.0,3402.0,0.87,10.08,0.59,-0.08,-0.01,0.01,1.0,a
3071.0,3229.0,3509.0,3844.0,4095.0,3490.0,3237.0,3399.0,0.9,10.0,0.67,-0.08,-0.01,-0.09,1.0,a
3056.0,3245.0,3508.0,3833.0,4095.0,3488.0,3235.0,3405.0,0.64,10.03,0.62,-0.06,-0.02,-0.08,1.0,a
3057.0,3228.0,3502.0,3840.0,4095.0,3486.0,3245.0,3399.0,0.64,10.02,0.6,-0.06,-0.02,-0.03,1.0,a
3069.0,3242.0,3506.0,3839.0,4095.0,3478.0,3239.0,3406.0,0.77,9.96,0.67,-0.11,-0.06,-0.01,1.0,a
3060.0,3238.0,3506.0,3824.0,4095.0,3471.0,3233.0,3396.0,0.77,10.07,0.66,-0.03,0.02,-0.05,1.0,a
3070.0,3232.0,3528.0,3844.0,4095.0,3487.0,3245.0,3406.0,0.75,10.02,0.53,-0.02,0.01,-0.04,1.0,a
3071.0,3234.0,3522.0,3837.0,4095.0,3485.0,3241.0,3391.0,0.91,10.05,0.63,-0.07,0.03,-0.03,1.0,a
3069.0,3236.0,3507.0,3824.0,4095.0,3488.0,3238.0,3401.0,0.9,10.07,0.56,-0.06,0.01,-0.03,1.0,a
3071.0,3243.0,3505.0,3829.0,4095.0,3490.0,3243.0,3408.0,0.8,10.02,0.67,-0.05,0.02,-0.04,1.0,a
3071.0,3231.0,3503.0,3815.0,4095.0,3491.0,3248.0,3407.0,0.73,9.94,0.62,-0.07,0.02,-0.03,1.0,a
3058.0,3232.0,3505.0,3829.0,4095.0,3493.0,3248.0,3408.0,0.85,10.0,0.68,-0.07,-0.01,-0.04,1.0,a
3066.0,3238.0,3501.0,3824.0,4095.0,3499.0,3247.0,3411.0,0.91,10.01,0.72,-0.04,-0.02,-0.07,1.0,a
3056.0,3235.0,3506.0,3837.0,4095.0,3491.0,3244.0,3409.0,0.53,9.96,0.62,-0.09,0.09,-0.05,1.0,a
3069.0,3226.0,3504.0,3824.0,4095.0,3489.0,3247.0,3408.0,1.19,10.13,0.52,-0.03,0.05,0.01,1.0,a
3066.0,3229.0,3504.0,3827.0,4095.0,3491.0,3239.0,3407.0,0.68,9.94,0.93,-0.01,0.12,-0.14,1.0,a
3059.0,3233.0,3493.0,3842.0,4095.0,3481.0,3249.0,3408.0,0.35,10.03,0.62,-0.16,0.12,0.08,1.0,a
3066.0,3230.0,3502.0,3842.0,4095.0,3478.0,3243.0,3411.0,1.46,10.03,0.89,0.01,0.11,-0.01,1.0,a
3069.0,3220.0,3505.0,3854.0,4095.0,3473.0,3237.0,3399.0,0.97,10.2,-0.34,0.07,0.1,-0.16,1.0,a
3056.0,3234.0,3499.0,3850.0,4095.0,3478.0,3247.0,3409.0,0.39,9.97,0.1,-0.21,-0.06,-0.09,1.0,a
3152.0,3234.0,3663.0,3717.0,4049.0,3433.0,3200.0,3388.0,-1.1,8.3,5.45,-0.03,-0.02,0.03,1.0,a
3167.0,3234.0,3662.0,3731.0,4078.0,3443.0,3206.0,3390.0,-0.91,8.33,5.56,-0.09,0.03,-0.01,1.0,a
3161.0,3227.0,3663.0,3738.0,4069.0,3444.0,3206.0,3403.0,-0.9,8.23,5.77,-0.11,-0.01,-0.06,1.0,a
3152.0,3234.0,3650.0,3733.0,4073.0,3442.0,3206.0,3399.0,-1.16,8.12,6.01,-0.04,-0.03,-0.06,1.0,a
3155.0,3225.0,3670.0,3739.0,4077.0,3451.0,3209.0,3394.0,-1.11,8.2,5.71,-0.03,-0.01,-0.01,1.0,a
3152.0,3220.0,3657.0,3734.0,4064.0,3441.0,3200.0,3395.0,-1.2,8.22,5.74,-0.09,-0.03,-0.01,1.0,a
3167.0,3226.0,3670.0,3734.0,4078.0,3455.0,3207.0,3395.0,-0.91,8.3,5.78,-0.05,0.02,-0.05,1.0,a
3143.0,3225.0,3654.0,3731.0,4069.0,3465.0,3207.0,3404.0,-1.02,8.29,5.71,-0.06,0.02,-0.05,1.0,a
3152.0,3229.0,3677.0,3745.0,4086.0,3458.0,3210.0,3399.0,-1.01,8.31,5.71,-0.07,0.01,-0.04,1.0,a
3149.0,3221.0,3665.0,3746.0,4095.0,3463.0,3213.0,3405.0,-1.08,8.2,5.69,-0.07,-0.01,-0.05,1.0,a
3161.0,3231.0,3664.0,3739.0,4080.0,3459.0,3211.0,3399.0,-1.03,8.27,5.78,-0.06,-0.01,-0.05,1.0,a
3158.0,3223.0,3671.0,3741.0,4093.0,3468.0,3216.0,3408.0,-1.02,8.32,5.68,-0.05,0.01,-0.06,1.0,a
3141.0,3221.0,3654.0,3743.0,4089.0,3466.0,3214.0,3408.0,-1.0,8.22,5.81,-0.06,0.01,-0.04,1.0,a
3152.0,3216.0,3648.0,3750.0,4093.0,3463.0,3215.0,3407.0,-1.02,8.22,5.79,-0.04,0.01,-0.04,1.0,a
3152.0,3218.0,3654.0,3735.0,4071.0,3463.0,3203.0,3403.0,-1.05,8.31,5.65,-0.08,-0.01,-0.03,1.0,a
3155.0,3218.0,3664.0,3746.0,4075.0,3458.0,3210.0,3395.0,-1.06,8.26,5.7,-0.05,0.02,-0.06,1.0,a
3155.0,3213.0,3664.0,3745.0,4083.0,3457.0,3213.0,3404.0,-1.12,8.18,5.82,-0.06,0.01,-0.04,1.0,a
3157.0,3225.0,3674.0,3749.0,4083.0,3462.0,3216.0,3407.0,-1.01,8.26,5.71,-0.05,0.02,-0.04,1.0,a
3150.0,3221.0,3659.0,3746.0,4095.0,3472.0,3216.0,3413.0,-1.02,8.29,5.67,-0.05,-0.01,-0.03,1.0,a
3156.0,3218.0,3671.0,3746.0,4091.0,3471.0,3219.0,3409.0,-1.0,8.27,5.71,-0.08,-0.01,-0.03,1.0,a
3133.0,3243.0,3732.0,3653.0,3920.0,3349.0,3185.0,3446.0,1.93,9.45,3.16,-0.09,0.14,-0.02,1.0,a
3135.0,3251.0,3735.0,3653.0,3926.0,3350.0,3190.0,3443.0,1.92,9.45,3.02,-0.07,0.02,-0.03,1.0,a
3145.0,3262.0,3739.0,3664.0,3952.0,3360.0,3195.0,3446.0,2.02,9.49,3.07,-0.05,-0.0,-0.01,1.0,a
3152.0,3245.0,3733.0,3662.0,3935.0,3358.0,3191.0,3446.0,1.93,9.39,3.18,-0.06,0.03,-0.02,1.0,a
3137.0,3247.0,3741.0,3662.0,3936.0,3359.0,3195.0,3450.0,2.12,9.46,3.16,-0.05,-0.01,-0.04,1.0,a
3136.0,3261.0,3739.0,3666.0,3931.0,3354.0,3187.0,3450.0,1.98,9.42,3.13,-0.06,-0.04,-0.05,1.0,a
3137.0,3248.0,3732.0,3661.0,3931.0,3360.0,3193.0,3454.0,1.98,9.39,3.22,-0.05,-0.03,-0.03,1.0,a
3137.0,3234.0,3722.0,3664.0,3935.0,3349.0,3190.0,3451.0,2.05,9.54,3.1,-0.06,0.01,-0.03,1.0,a
3142.0,3249.0,3739.0,3663.0,3936.0,3363.0,3196.0,3454.0,2.09,9.42,3.18,-0.05,-0.01,-0.04,1.0,a
3139.0,3239.0,3731.0,3675.0,3936.0,3359.0,3195.0,3455.0,2.0,9.46,3.16,-0.04,0.02,-0.05,1.0,a
3127.0,3248.0,3730.0,3659.0,3951.0,3361.0,3196.0,3455.0,1.95,9.52,3.08,-0.06,-0.02,-0.04,1.0,a
3142.0,3250.0,3733.0,3664.0,3951.0,3363.0,3196.0,3456.0,1.98,9.41,3.11,-0.07,0.02,-0.03,1.0,a
3139.0,3247.0,3726.0,3664.0,3933.0,3357.0,3197.0,3456.0,2.02,9.48,3.15,-0.05,0.0,-0.03,1.0,a
3143.0,3248.0,3749.0,3664.0,3933.0,3358.0,3190.0,3450.0,2.03,9.43,3.15,-0.06,0.02,-0.02,1.0,a
3151.0,3247.0,3733.0,3659.0,3926.0,3360.0,3190.0,3447.0,2.07,9.45,3.17,-0.04,0.01,-0.03,1.0,a
3143.0,3255.0,3737.0,3661.0,3925.0,3357.0,3189.0,3450.0,2.1,9.45,3.18,-0.05,0.02,-0.03,1.0,a
3138.0,3250.0,3723.0,3657.0,3931.0,3360.0,3187.0,3445.0,2.04,9.43,3.15,-0.04,0.02,-0.04,1.0,a
3131.0,3232.0,3728.0,3669.0,3941.0,3355.0,3187.0,3457.0,1.68,9.38,2.95,-0.12,0.12,0.02,1.0,a
3145.0,3246.0,3728.0,3664.0,3951.0,3370.0,3195.0,3453.0,2.18,9.4,3.41,-0.1,0.05,0.04,1.0,a
3139.0,3248.0,3723.0,3669.0,3938.0,3366.0,3195.0,3459.0,2.24,9.38,3.3,-0.08,0.03,0.01,1.0,a
3138.0,3312.0,3543.0,3469.0,3977.0,3365.0,3187.0,3408.0,-1.06,9.02,4.11,-0.06,0.1,0.05,1.0,a
3123.0,3298.0,3524.0,3471.0,3968.0,3376.0,3186.0,3409.0,-1.36,9.07,4.09,-0.05,-0.01,0.06,1.0,a
3143.0,3298.0,3527.0,3473.0,3966.0,3373.0,3186.0,3409.0,-1.13,9.12,4.06,-0.06,0.04,-0.01,1.0,a
3138.0,3309.0,3525.0,3475.0,3965.0,3375.0,3186.0,3408.0,-1.05,9.17,4.02,-0.08,0.05,-0.05,1.0,a
3139.0,3299.0,3528.0,3486.0,3971.0,3377.0,3194.0,3413.0,-1.13,9.13,4.09,-0.05,0.05,-0.02,1.0,a
3143.0,3293.0,3521.0,3479.0,3971.0,3376.0,3194.0,3415.0,-0.97,9.17,4.08,-0.03,0.04,-0.04,1.0,a
3137.0,3294.0,3520.0,3479.0,3969.0,3381.0,3191.0,3406.0,-1.08,9.19,4.06,-0.06,0.01,-0.06,1.0,a
3140.0,3301.0,3521.0,3484.0,3984.0,3381.0,3196.0,3408.0,-1.24,9.22,4.04,-0.05,0.04,-0.04,1.0,a
3137.0,3303.0,3525.0,3489.0,3983.0,3387.0,3195.0,3415.0,-1.05,9.2,3.95,-0.08,0.07,-0.02,1.0,a
3134.0,3293.0,3533.0,3483.0,3980.0,3389.0,3205.0,3420.0,-1.13,9.08,4.13,-0.08,0.02,-0.02,1.0,a
3135.0,3312.0,3523.0,3493.0,3981.0,3385.0,3199.0,3413.0,-1.24,9.15,4.06,-0.07,0.01,-0.04,1.0,a
3129.0,3305.0,3530.0,3493.0,3984.0,3385.0,3200.0,3415.0,-1.15,9.09,4.07,-0.05,0.03,-0.06,1.0,a
3139.0,3293.0,3526.0,3499.0,3979.0,3390.0,3200.0,3419.0,-1.2,9.12,4.01,-0.08,0.02,-0.04,1.0,a
3129.0,3310.0,3511.0,3497.0,3991.0,3383.0,3200.0,3414.0,-1.07,9.14,4.15,-0.11,0.11,-0.04,1.0,a
3140.0,3314.0,3515.0,3500.0,3991.0,3391.0,3201.0,3413.0,-1.21,9.1,4.04,-0.04,-0.04,-0.04,1.0,a
3123.0,3303.0,3504.0,3504.0,4000.0,3395.0,3207.0,3408.0,-1.27,9.14,4.02,-0.04,-0.02,-0.02,1.0,a
3129.0,3310.0,3507.0,3504.0,3987.0,3397.0,3209.0,3419.0,-1.2,9.13,4.03,-0.06,0.04,-0.03,1.0,a
3127.0,3299.0,3503.0,3504.0,4002.0,3405.0,3213.0,3423.0,-1.3,9.13,4.0,-0.06,-0.0,-0.02,1.0,a
3136.0,3297.0,3507.0,3514.0,3991.0,3397.0,3207.0,3422.0,-1.31,9.11,4.06,-0.07,0.01,-0.02,1.0,a
3133.0,3305.0,3514.0,3514.0,3996.0,3399.0,3203.0,3416.0,-1.24,9.12,4.15,-0.07,0.02,-0.01,1.0,a
3183.0,3350.0,3792.0,3472.0,3970.0,3516.0,3214.0,3401.0,0.66,9.93,1.54,-0.04,0.04,-0.04,1.0,a
3179.0,3358.0,3775.0,3469.0,3967.0,3511.0,3207.0,3394.0,0.87,10.01,1.53,-0.02,0.03,-0.02,1.0,a
3178.0,3359.0,3779.0,3474.0,3978.0,3517.0,3216.0,3408.0,0.63,9.9,1.53,-0.04,-0.02,-0.02,1.0,a
3175.0,3349.0,3765.0,3472.0,3985.0,3523.0,3216.0,3408.0,0.89,9.96,1.55,-0.06,-0.01,-0.06,1.0,a
3175.0,3344.0,3799.0,3479.0,3989.0,3536.0,3214.0,3403.0,0.91,10.03,1.63,-0.06,-0.05,-0.05,1.0,a
3171.0,3346.0,3787.0,3495.0,4014.0,3537.0,3218.0,3415.0,0.33,9.9,1.35,-0.04,0.03,-0.06,1.0,a
3172.0,3344.0,3782.0,3494.0,4007.0,3543.0,3222.0,3412.0,0.73,9.98,1.4,-0.07,0.03,-0.01,1.0,a
3152.0,3329.0,3792.0,3498.0,4021.0,3549.0,3214.0,3398.0,0.86,9.91,1.53,-0.09,0.04,-0.02,1.0,a
3151.0,3319.0,3771.0,3493.0,4015.0,3551.0,3216.0,3408.0,0.71,9.92,1.59,-0.08,0.01,-0.04,1.0,a
3157.0,3315.0,3775.0,3490.0,4009.0,3536.0,3209.0,3401.0,0.81,9.92,1.62,-0.04,0.03,-0.04,1.0,a
3152.0,3322.0,3762.0,3503.0,4019.0,3551.0,3216.0,3413.0,0.81,9.97,1.49,-0.06,0.01,-0.03,1.0,a
3159.0,3317.0,3776.0,3491.0,4014.0,3542.0,3216.0,3409.0,0.59,9.91,1.44,-0.1,0.05,-0.03,1.0,a
3155.0,3326.0,3770.0,3503.0,4019.0,3553.0,3216.0,3408.0,1.22,10.0,1.7,-0.1,-0.02,0.05,1.0,a
3152.0,3319.0,3751.0,3498.0,4037.0,3559.0,3222.0,3419.0,1.18,9.84,1.82,-0.05,0.0,-0.07,1.0,a
3145.0,3330.0,3756.0,3505.0,4025.0,3566.0,3223.0,3412.0,0.98,10.01,1.55,-0.05,-0.01,-0.08,1.0,a
3152.0,3314.0,3755.0,3505.0,4032.0,3572.0,3221.0,3418.0,0.77,9.86,1.77,-0.07,0.0,-0.04,1.0,a
3152.0,3328.0,3775.0,3511.0,4031.0,3569.0,3229.0,3408.0,1.03,9.93,1.69,-0.04,0.01,-0.01,1.0,a
3149.0,3315.0,3760.0,3507.0,4027.0,3563.0,3217.0,3408.0,0.92,9.88,1.59,-0.08,0.03,-0.05,1.0,a
3153.0,3314.0,3759.0,3504.0,4030.0,3559.0,3223.0,3419.0,0.96,9.95,1.75,-0.07,-0.0,-0.06,1.0,a
3141.0,3315.0,3765.0,3512.0,4049.0,3568.0,3223.0,3422.0,0.85,10.02,1.56,-0.1,-0.0,-0.05,1.0,a
3171.0,3344.0,2124.0,3504.0,4011.0,3461.0,3205.0,3514.0,-0.01,8.73,5.09,-0.09,0.01,-0.06,1.0,a
3184.0,3343.0,2145.0,3517.0,4016.0,3461.0,3214.0,3509.0,-0.01,8.56,5.45,-0.12,-0.06,-0.02,1.0,a
3189.0,3353.0,2159.0,3511.0,4023.0,3458.0,3214.0,3514.0,0.15,8.65,5.38,-0.09,0.01,-0.04,1.0,a
3167.0,3344.0,2151.0,3518.0,4015.0,3457.0,3216.0,3520.0,0.15,8.66,5.33,-0.07,-0.0,-0.02,1.0,a
3187.0,3341.0,2160.0,3511.0,4037.0,3469.0,3218.0,3523.0,0.09,8.58,5.47,-0.03,0.03,-0.07,1.0,a
3181.0,3343.0,2164.0,3519.0,4015.0,3459.0,3215.0,3518.0,-0.02,8.61,5.39,-0.03,0.02,-0.06,1.0,a
3184.0,3341.0,2171.0,3520.0,4016.0,3457.0,3215.0,3515.0,-0.11,8.65,5.19,-0.02,0.04,-0.05,1.0,a
3184.0,3331.0,2176.0,3521.0,4015.0,3463.0,3216.0,3518.0,0.01,8.7,5.12,-0.09,0.01,-0.05,1.0,a
3184.0,3344.0,2173.0,3526.0,4030.0,3467.0,3219.0,3523.0,-0.08,8.6,5.48,-0.04,0.01,-0.04,1.0,a
3184.0,3344.0,2175.0,3529.0,4022.0,3464.0,3215.0,3519.0,0.09,8.62,5.2,-0.05,-0.03,-0.03,1.0,a
3185.0,3344.0,2168.0,3525.0,4031.0,3472.0,3227.0,3521.0,0.05,8.71,5.19,-0.01,-0.01,-0.09,1.0,a
3166.0,3353.0,2171.0,3529.0,4031.0,3470.0,3225.0,3529.0,-0.21,8.7,5.14,-0.06,0.0,-0.06,1.0,a
3185.0,3335.0,2171.0,3534.0,4039.0,3472.0,3222.0,3527.0,-0.13,8.7,5.18,-0.07,0.03,-0.03,1.0,a
3179.0,3344.0,2174.0,3534.0,4017.0,3468.0,3216.0,3525.0,0.03,8.74,5.04,-0.11,0.0,-0.03,1.0,a
3180.0,3344.0,2176.0,3529.0,4021.0,3462.0,3218.0,3520.0,0.07,8.6,5.53,-0.05,0.0,-0.04,1.0,a
3177.0,3342.0,2175.0,3531.0,4032.0,3472.0,3226.0,3527.0,-0.09,8.7,5.16,-0.06,-0.01,-0.05,1.0,a
3167.0,3340.0,2176.0,3536.0,4032.0,3472.0,3227.0,3536.0,-0.12,8.6,5.27,-0.08,0.01,-0.05,1.0,a
3183.0,3341.0,2174.0,3530.0,4026.0,3471.0,3221.0,3529.0,-0.09,8.69,5.16,-0.06,-0.0,-0.02,1.0,a
3175.0,3337.0,2169.0,3527.0,4019.0,3472.0,3219.0,3530.0,0.08,8.69,5.35,-0.06,-0.02,-0.03,1.0,a
3183.0,3344.0,2181.0,3539.0,4039.0,3474.0,3222.0,3531.0,-0.06,8.7,5.2,-0.07,-0.01,-0.05,1.0,a
2955.0,3276.0,3897.0,3521.0,4095.0,3374.0,3222.0,3391.0,2.15,9.86,0.87,-0.08,-0.02,-0.04,1.0,a
2960.0,3274.0,3913.0,3536.0,4095.0,3375.0,3225.0,3395.0,2.35,9.87,1.14,-0.08,-0.07,-0.07,1.0,a
2953.0,3268.0,3894.0,3537.0,4095.0,3375.0,3223.0,3391.0,1.95,9.83,0.98,-0.07,-0.03,-0.1,1.0,a
2956.0,3265.0,3900.0,3539.0,4095.0,3376.0,3227.0,3391.0,1.97,9.89,0.9,-0.1,-0.04,-0.05,1.0,a
2953.0,3265.0,3902.0,3563.0,4095.0,3376.0,3231.0,3393.0,2.22,9.79,0.81,-0.02,0.06,-0.01,1.0,a
2949.0,3258.0,3904.0,3563.0,4095.0,3381.0,3231.0,3395.0,1.93,9.86,1.01,-0.16,0.03,-0.12,1.0,a
2949.0,3268.0,3888.0,3562.0,4095.0,3376.0,3232.0,3398.0,2.13,9.9,1.05,-0.07,0.04,-0.01,1.0,a
2957.0,3255.0,3901.0,3562.0,4095.0,3391.0,3235.0,3405.0,2.19,9.94,0.67,-0.1,0.05,-0.08,1.0,a
2953.0,3271.0,3899.0,3568.0,4095.0,3392.0,3239.0,3405.0,2.13,9.53,1.81,-0.13,-0.05,-0.03,1.0,a
2962.0,3261.0,3903.0,3552.0,4095.0,3395.0,3242.0,3404.0,2.19,9.92,1.05,-0.09,0.09,-0.13,1.0,a
2955.0,3263.0,3887.0,3548.0,4095.0,3401.0,3242.0,3407.0,2.35,9.63,1.8,-0.01,-0.01,-0.03,1.0,a
2951.0,3262.0,3881.0,3551.0,4095.0,3396.0,3236.0,3409.0,1.84,9.65,1.19,-0.17,-0.02,-0.13,1.0,a
2960.0,3257.0,3894.0,3549.0,4095.0,3394.0,3233.0,3403.0,2.21,10.25,1.1,-0.02,0.18,-0.06,1.0,a
2960.0,3269.0,3899.0,3568.0,4095.0,3403.0,3238.0,3408.0,1.53,9.75,1.45,-0.12,-0.14,-0.05,1.0,a
2957.0,3267.0,3909.0,3568.0,4095.0,3403.0,3242.0,3408.0,2.1,9.87,1.53,0.09,-0.06,-0.03,1.0,a
2950.0,3267.0,3897.0,3572.0,4095.0,3387.0,3232.0,3405.0,2.08,10.08,0.12,-0.05,0.22,0.01,1.0,a
2961.0,3261.0,3902.0,3583.0,4095.0,3398.0,3237.0,3413.0,2.02,9.95,1.12,-0.1,0.04,-0.1,1.0,a
2960.0,3266.0,3906.0,3579.0,4095.0,3398.0,3241.0,3408.0,2.03,9.88,1.68,-0.07,-0.11,-0.08,1.0,a
2960.0,3267.0,3893.0,3583.0,4095.0,3407.0,3237.0,3408.0,1.73,9.84,1.38,0.01,0.01,-0.14,1.0,a
2946.0,3265.0,3895.0,3583.0,4095.0,3403.0,3245.0,3416.0,1.62,9.86,1.02,-0.06,0.08,-0.06,1.0,a
3133.0,3107.0,3875.0,3521.0,3890.0,3347.0,3251.0,3426.0,-0.38,8.76,5.01,-0.04,0.03,-0.03,1.0,a
3127.0,3111.0,3885.0,3473.0,3886.0,3344.0,3248.0,3427.0,-0.52,8.7,5.06,-0.07,0.06,0.0,1.0,a
3133.0,3125.0,3871.0,3424.0,3907.0,3355.0,3255.0,3431.0,-0.54,8.8,5.26,-0.12,0.01,0.05,1.0,a
3119.0,3119.0,3888.0,3356.0,3875.0,3338.0,3261.0,3428.0,-0.29,8.72,5.33,-0.01,-0.04,-0.02,1.0,a
3125.0,3107.0,3903.0,3376.0,3863.0,3334.0,3262.0,3430.0,-0.14,8.57,5.43,-0.05,0.06,-0.05,1.0,a
3122.0,3120.0,3903.0,3405.0,3856.0,3334.0,3254.0,3424.0,-0.44,8.51,5.22,-0.02,-0.0,-0.06,1.0,a
3142.0,3122.0,3888.0,3395.0,3869.0,3344.0,3253.0,3434.0,-0.46,8.72,5.23,0.04,0.03,-0.03,1.0,a
3120.0,3116.0,3879.0,3407.0,3875.0,3350.0,3258.0,3426.0,-0.31,8.72,4.98,0.02,0.06,-0.04,1.0,a
3133.0,3109.0,3885.0,3407.0,3889.0,3359.0,3263.0,3439.0,-0.43,8.72,5.21,-0.05,-0.0,-0.01,1.0,a
3127.0,3115.0,3902.0,3414.0,3888.0,3361.0,3264.0,3431.0,-0.29,8.74,5.16,-0.02,0.03,-0.03,1.0,a
3136.0,3107.0,3899.0,3415.0,3878.0,3361.0,3255.0,3440.0,-0.48,8.69,4.97,-0.01,0.02,-0.04,1.0,a
3124.0,3111.0,3888.0,3408.0,3861.0,3353.0,3259.0,3436.0,-0.42,8.86,4.99,-0.02,-0.02,-0.04,1.0,a
3130.0,3114.0,3887.0,3398.0,3870.0,3363.0,3266.0,3440.0,-0.47,8.8,5.08,0.01,0.02,-0.01,1.0,a
3122.0,3103.0,3876.0,3408.0,3855.0,3357.0,3269.0,3439.0,-0.31,8.78,4.89,0.02,0.07,-0.05,1.0,a
3123.0,3107.0,3888.0,3418.0,3884.0,3369.0,3261.0,3431.0,-0.53,8.75,4.96,-0.09,-0.0,-0.04,1.0,a
3130.0,3114.0,3904.0,3425.0,3888.0,3375.0,3267.0,3440.0,-0.21,8.73,5.14,-0.03,0.01,-0.05,1.0,a
3135.0,3105.0,3888.0,3437.0,3881.0,3366.0,3266.0,3436.0,-0.39,8.78,4.91,-0.04,-0.05,-0.03,1.0,a
3129.0,3121.0,3871.0,3435.0,3887.0,3376.0,3265.0,3439.0,-0.32,8.9,4.86,-0.03,-0.03,-0.04,1.0,a
3129.0,3110.0,3890.0,3443.0,3898.0,3383.0,3264.0,3439.0,-0.37,8.8,4.76,-0.03,0.02,-0.08,1.0,a
3125.0,3115.0,3882.0,3445.0,3895.0,3389.0,3271.0,3449.0,-0.54,8.9,4.89,-0.08,0.05,-0.02,1.0,a
3003.0,3169.0,3858.0,3787.0,4095.0,3553.0,3271.0,3473.0,0.4,10.1,0.42,-0.02,0.06,-0.04,1.0,a
3008.0,3171.0,3869.0,3767.0,4095.0,3564.0,3266.0,3468.0,0.58,10.08,0.25,-0.05,0.01,-0.05,1.0,a
3001.0,3175.0,3864.0,3775.0,4095.0,3569.0,3276.0,3478.0,0.34,10.14,0.18,-0.06,0.03,-0.07,1.0,a
2999.0,3179.0,3856.0,3766.0,4095.0,3583.0,3279.0,3479.0,0.7,10.17,-0.04,-0.22,0.19,-0.14,1.0,a
3003.0,3170.0,3873.0,3748.0,4095.0,3580.0,3280.0,3477.0,-0.12,9.86,1.09,-0.03,-0.18,-0.07,1.0,a
2995.0,3175.0,3857.0,3763.0,4095.0,3583.0,3283.0,3488.0,-1.56,9.6,0.38,0.24,-1.32,0.13,1.0,a
3001.0,3173.0,3845.0,3718.0,4095.0,3598.0,3285.0,3479.0,0.91,10.3,-0.41,-0.18,-0.2,-0.05,1.0,a
2992.0,3165.0,3860.0,3746.0,4095.0,3583.0,3283.0,3485.0,0.43,10.0,0.83,-0.22,0.6,-0.01,1.0,a
2994.0,3169.0,3826.0,3738.0,4095.0,3569.0,3293.0,3494.0,-0.85,9.74,0.32,-0.13,0.88,0.04,1.0,a
2994.0,3178.0,3840.0,3754.0,4095.0,3577.0,3282.0,3491.0,0.3,10.1,0.15,-0.08,0.12,0.07,1.0,a
3008.0,3166.0,3856.0,3757.0,4095.0,3578.0,3294.0,3487.0,0.6,10.15,0.52,-0.08,0.14,0.07,1.0,a
2995.0,3173.0,3831.0,3751.0,4095.0,3574.0,3286.0,3485.0,0.3,10.08,0.22,-0.03,-0.01,0.03,1.0,a
2998.0,3166.0,3829.0,3727.0,4095.0,3583.0,3293.0,3493.0,1.24,10.32,0.12,-0.1,-0.57,-0.06,1.0,a
2993.0,3158.0,3830.0,3728.0,4095.0,3583.0,3294.0,3498.0,0.05,9.83,1.29,-0.17,0.2,-0.01,1.0,a
2994.0,3168.0,3843.0,3731.0,4095.0,3583.0,3295.0,3495.0,0.57,10.11,0.34,-0.03,0.13,-0.02,1.0,a
3002.0,3171.0,3849.0,3745.0,4095.0,3583.0,3291.0,3489.0,0.95,10.09,0.56,-0.05,-0.04,-0.02,1.0,a
2994.0,3178.0,3823.0,3737.0,4095.0,3571.0,3287.0,3490.0,0.82,10.04,0.35,-0.02,-0.01,-0.03,1.0,a
3011.0,3174.0,3838.0,3729.0,4095.0,3564.0,3282.0,3495.0,0.57,10.14,0.31,-0.12,0.12,-0.06,1.0,a
2997.0,3170.0,3854.0,3674.0,4095.0,3495.0,3280.0,3485.0,0.52,9.91,0.93,-0.15,0.11,-0.02,1.0,a
2999.0,3167.0,3825.0,3664.0,4095.0,3527.0,3285.0,3482.0,0.66,10.09,0.35,-0.02,0.13,0.01,1.0,a
2989.0,3153.0,3808.0,3727.0,4095.0,3503.0,3279.0,3479.0,1.03,10.28,0.31,-0.01,0.02,-0.15,1.0,a
2989.0,3153.0,3808.0,3727.0,4095.0,3503.0,3279.0,3479.0,1.03,10.28,0.31,-0.01,0.02,-0.15,1.0,a
2991.0,3166.0,3814.0,3743.0,4095.0,3522.0,3281.0,3477.0,0.82,10.03,0.67,-0.02,-0.04,-0.09,1.0,a
2992.0,3174.0,3824.0,3731.0,4095.0,3535.0,3283.0,3489.0,0.69,10.09,0.62,-0.03,-0.02,-0.05,1.0,a
2993.0,3161.0,3819.0,3728.0,4095.0,3525.0,3281.0,3477.0,0.96,10.07,0.54,-0.02,-0.03,-0.05,1.0,a
2993.0,3167.0,3808.0,3723.0,4095.0,3536.0,3280.0,3485.0,0.75,10.05,0.45,-0.05,-0.05,-0.04,1.0,a
2992.0,3170.0,3811.0,3741.0,4095.0,3527.0,3277.0,3472.0,0.73,10.13,0.52,-0.12,-0.01,-0.03,1.0,a
2996.0,3171.0,3823.0,3817.0,4095.0,3537.0,3275.0,3479.0,0.97,10.02,0.61,-0.06,-0.01,-0.04,1.0,a
2989.0,3158.0,3822.0,3819.0,4095.0,3547.0,3272.0,3483.0,0.9,9.98,0.51,-0.0,0.08,-0.02,1.0,a
2992.0,3162.0,3817.0,3822.0,4095.0,3541.0,3273.0,3475.0,0.52,10.1,0.14,-0.14,0.05,0.02,1.0,a
2990.0,3162.0,3818.0,3819.0,4095.0,3543.0,3268.0,3472.0,1.08,9.96,1.38,-0.08,0.09,0.01,1.0,a
2987.0,3170.0,3830.0,3824.0,4095.0,3561.0,3280.0,3485.0,1.11,10.07,0.49,0.0,0.05,-0.05,1.0,a
2992.0,3171.0,3802.0,3811.0,4095.0,3554.0,3269.0,3477.0,0.5,10.02,0.33,-0.05,0.1,-0.02,1.0,a
2997.0,3168.0,3822.0,3815.0,4095.0,3563.0,3285.0,3488.0,1.34,10.06,0.65,-0.14,-0.04,0.14,1.0,a
3001.0,3175.0,3811.0,3814.0,4095.0,3567.0,3280.0,3478.0,1.52,10.0,1.03,-0.1,0.02,-0.09,1.0,a
2995.0,3165.0,3814.0,3798.0,4095.0,3568.0,3281.0,3488.0,1.06,10.4,-0.17,-0.38,0.16,-0.11,1.0,a
2997.0,3156.0,3794.0,3807.0,4095.0,3552.0,3283.0,3482.0,0.75,9.9,1.68,-0.13,0.04,-0.0,1.0,a
2999.0,3159.0,3792.0,3822.0,4095.0,3565.0,3293.0,3495.0,1.06,9.95,1.19,0.02,0.02,0.01,1.0,a
3002.0,3163.0,3798.0,3813.0,4095.0,3565.0,3286.0,3483.0,1.28,10.03,0.82,-0.08,0.04,-0.05,1.0,a
2992.0,3170.0,3798.0,3813.0,4095.0,3568.0,3296.0,3493.0,0.99,10.0,0.93,-0.04,0.09,-0.01,1.0,a
3154.0,3130.0,3312.0,3251.0,3951.0,3319.0,3247.0,3426.0,-0.18,8.43,5.48,-0.11,-0.01,-0.05,1.0,a
3153.0,3139.0,3327.0,3248.0,3952.0,3323.0,3246.0,3420.0,0.01,8.38,5.96,-0.08,-0.03,-0.03,1.0,a
3155.0,3145.0,3317.0,3243.0,3970.0,3325.0,3251.0,3431.0,-0.11,8.46,5.71,-0.02,0.02,-0.04,1.0,a
3159.0,3142.0,3321.0,3209.0,3959.0,3323.0,3248.0,3427.0,-0.14,8.39,5.55,-0.08,0.0,-0.04,1.0,a
3151.0,3138.0,3323.0,3167.0,3959.0,3318.0,3245.0,3424.0,-0.19,8.37,5.7,-0.08,0.02,-0.04,1.0,a
3166.0,3153.0,3312.0,3168.0,3974.0,3328.0,3248.0,3433.0,-0.18,8.37,5.62,-0.06,0.01,-0.05,1.0,a
3164.0,3149.0,3318.0,3178.0,3975.0,3330.0,3250.0,3440.0,-0.13,8.34,5.79,-0.03,0.01,-0.06,1.0,a
3155.0,3137.0,3312.0,3223.0,3967.0,3339.0,3248.0,3437.0,-0.04,8.43,5.59,-0.14,0.02,-0.1,1.0,a
3168.0,3138.0,3327.0,3255.0,3946.0,3333.0,3247.0,3439.0,-0.46,8.37,5.63,-0.05,0.02,-0.05,1.0,a
3161.0,3147.0,3319.0,3261.0,3937.0,3339.0,3245.0,3441.0,-0.3,8.38,5.67,-0.01,0.01,-0.05,1.0,a
3153.0,3152.0,3314.0,3265.0,3920.0,3328.0,3234.0,3429.0,-0.4,8.27,5.68,-0.01,-0.03,-0.06,1.0,a
3152.0,3139.0,3318.0,3265.0,3939.0,3335.0,3239.0,3439.0,-0.25,8.46,5.6,-0.09,0.02,-0.05,1.0,a
3154.0,3145.0,3319.0,3271.0,3930.0,3332.0,3239.0,3434.0,-0.35,8.48,5.57,-0.0,0.03,-0.03,1.0,a
3146.0,3144.0,3316.0,3278.0,3942.0,3339.0,3243.0,3437.0,-0.28,8.47,5.56,-0.05,0.01,-0.02,1.0,a
3154.0,3142.0,3321.0,3280.0,3952.0,3347.0,3248.0,3443.0,-0.31,8.44,5.66,-0.04,0.02,-0.03,1.0,a
3163.0,3152.0,3319.0,3274.0,3955.0,3346.0,3250.0,3444.0,-0.33,8.48,5.55,-0.07,0.03,-0.02,1.0,a
3147.0,3139.0,3313.0,3273.0,3952.0,3349.0,3248.0,3440.0,-0.18,8.44,5.66,-0.07,0.0,-0.03,1.0,a
3167.0,3153.0,3321.0,3281.0,3973.0,3359.0,3251.0,3449.0,-0.23,8.53,5.4,-0.04,0.03,-0.07,1.0,a
3158.0,3144.0,3312.0,3269.0,3954.0,3353.0,3248.0,3439.0,-0.48,8.48,5.53,-0.1,0.03,-0.05,1.0,a
3155.0,3146.0,3328.0,3281.0,3964.0,3357.0,3257.0,3450.0,-0.21,8.51,5.6,-0.08,0.01,-0.03,1.0,a
3219.0,3172.0,3703.0,3583.0,3915.0,3393.0,3246.0,3438.0,-0.11,9.94,-1.14,0.39,-0.08,-0.3,1.0,a
3216.0,3178.0,3729.0,3559.0,3913.0,3393.0,3249.0,3429.0,0.02,10.07,-1.48,-0.01,-0.03,0.06,1.0,a
3220.0,3181.0,3733.0,3518.0,3910.0,3392.0,3247.0,3431.0,0.52,9.95,-0.9,-0.06,0.04,0.03,1.0,a
3219.0,3184.0,3728.0,3522.0,3916.0,3395.0,3249.0,3431.0,0.44,10.15,-1.32,-0.16,0.06,-0.05,1.0,a
3223.0,3184.0,3726.0,3536.0,3921.0,3409.0,3249.0,3440.0,0.55,10.09,-0.73,-0.21,0.12,-0.02,1.0,a
3209.0,3184.0,3713.0,3521.0,3915.0,3399.0,3243.0,3435.0,0.17,9.92,-0.28,-0.14,0.01,-0.05,1.0,a
3225.0,3186.0,3713.0,3531.0,3917.0,3405.0,3247.0,3437.0,0.52,10.01,-0.5,-0.09,0.03,-0.04,1.0,a
3221.0,3184.0,3741.0,3536.0,3924.0,3407.0,3250.0,3440.0,0.39,10.08,-0.74,-0.14,0.06,-0.04,1.0,a
3221.0,3183.0,3727.0,3520.0,3915.0,3404.0,3245.0,3438.0,0.57,10.1,-0.02,-0.16,0.06,-0.01,1.0,a
3232.0,3191.0,3728.0,3485.0,3913.0,3401.0,3248.0,3434.0,0.55,10.13,-0.22,-0.1,0.13,-0.1,1.0,a
3222.0,3181.0,3723.0,3481.0,3919.0,3405.0,3246.0,3434.0,0.18,9.99,-0.02,-0.15,0.03,-0.03,1.0,a
3216.0,3185.0,3719.0,3492.0,3920.0,3408.0,3255.0,3440.0,0.35,10.02,-0.11,-0.08,0.06,-0.02,1.0,a
3227.0,3193.0,3728.0,3525.0,3918.0,3412.0,3251.0,3440.0,0.43,10.13,-0.33,-0.16,0.03,-0.02,1.0,a
3215.0,3172.0,3716.0,3530.0,3914.0,3414.0,3259.0,3441.0,0.45,9.97,0.36,-0.12,0.05,0.02,1.0,a
3227.0,3178.0,3727.0,3511.0,3925.0,3408.0,3255.0,3440.0,0.93,10.14,-0.29,-0.1,-0.01,0.02,1.0,a
3223.0,3188.0,3731.0,3515.0,3927.0,3411.0,3254.0,3440.0,0.36,10.18,0.2,-0.22,0.01,-0.04,1.0,a
3213.0,3184.0,3721.0,3521.0,3924.0,3409.0,3258.0,3444.0,0.35,10.07,0.43,-0.12,0.08,-0.06,1.0,a
3209.0,3187.0,3712.0,3507.0,3922.0,3404.0,3249.0,3435.0,0.58,10.04,0.4,-0.08,-0.02,-0.01,1.0,a
3217.0,3179.0,3732.0,3519.0,3926.0,3418.0,3252.0,3443.0,0.69,10.0,0.43,-0.06,0.02,-0.02,1.0,a
3221.0,3181.0,3721.0,3518.0,3925.0,3412.0,3255.0,3441.0,0.62,10.02,0.4,-0.03,0.02,-0.04,1.0,a
3039.0,3182.0,4095.0,3344.0,3928.0,3407.0,3253.0,3440.0,-1.06,9.14,3.96,-0.07,0.04,-0.1,1.0,a
3039.0,3182.0,4095.0,3344.0,3928.0,3407.0,3253.0,3440.0,-1.06,9.14,3.96,-0.07,0.04,-0.1,1.0,a
3050.0,3159.0,4092.0,3338.0,3924.0,3406.0,3256.0,3440.0,-1.04,9.21,4.23,-0.06,0.01,-0.0,1.0,a
3045.0,3174.0,4095.0,3343.0,3931.0,3407.0,3253.0,3437.0,-0.76,9.13,4.18,-0.02,-0.03,-0.03,1.0,a
3040.0,3169.0,4094.0,3344.0,3917.0,3398.0,3251.0,3445.0,-0.8,9.24,3.96,-0.05,0.03,-0.08,1.0,a
3051.0,3173.0,4095.0,3343.0,3927.0,3407.0,3250.0,3433.0,-1.04,9.15,4.13,-0.05,0.04,-0.05,1.0,a
3047.0,3180.0,4095.0,3335.0,3925.0,3410.0,3259.0,3443.0,-0.65,9.18,4.23,-0.03,0.03,-0.04,1.0,a
3047.0,3175.0,4083.0,3334.0,3917.0,3408.0,3250.0,3434.0,-0.93,9.11,4.25,-0.0,0.01,-0.04,1.0,a
3056.0,3175.0,4095.0,3346.0,3921.0,3411.0,3259.0,3439.0,-0.88,9.28,3.66,-0.02,0.01,-0.06,1.0,a
3055.0,3167.0,4095.0,3344.0,3930.0,3414.0,3254.0,3443.0,-1.15,9.17,3.86,-0.09,0.0,-0.04,1.0,a
3063.0,3168.0,4095.0,3344.0,3931.0,3399.0,3254.0,3439.0,-0.74,9.28,4.1,-0.05,0.03,-0.03,1.0,a
3043.0,3166.0,4095.0,3340.0,3922.0,3413.0,3264.0,3449.0,-0.82,9.27,3.86,-0.07,0.01,-0.06,1.0,a
3043.0,3187.0,4080.0,3352.0,3935.0,3422.0,3258.0,3439.0,-1.03,9.26,3.97,-0.1,0.05,-0.06,1.0,a
3039.0,3162.0,4095.0,3344.0,3922.0,3409.0,3251.0,3440.0,-0.94,9.21,4.15,-0.04,0.05,-0.03,1.0,a
3047.0,3180.0,4095.0,3348.0,3933.0,3421.0,3260.0,3440.0,-1.17,9.12,3.96,-0.06,0.04,-0.03,1.0,a
3056.0,3175.0,4088.0,3359.0,3945.0,3427.0,3264.0,3446.0,-0.84,9.17,4.08,-0.07,-0.01,-0.03,1.0,a
3056.0,3171.0,4095.0,3346.0,3921.0,3421.0,3261.0,3449.0,-0.98,9.25,3.97,-0.06,0.02,-0.05,1.0,a
3056.0,3185.0,4095.0,3351.0,3929.0,3415.0,3261.0,3447.0,-1.01,9.18,4.02,-0.04,0.02,-0.05,1.0,a
3051.0,3178.0,4095.0,3355.0,3937.0,3422.0,3261.0,3447.0,-0.97,9.15,4.02,-0.06,0.05,-0.05,1.0,a
3047.0,3162.0,4095.0,3344.0,3922.0,3419.0,3252.0,3447.0,-1.08,9.16,3.99,-0.07,-0.0,-0.02,1.0,a
3175.0,3230.0,4027.0,3283.0,4075.0,3527.0,3264.0,3444.0,2.06,9.71,2.11,-0.06,0.01,-0.05,1.0,a
3182.0,3221.0,4021.0,3282.0,4089.0,3523.0,3259.0,3443.0,2.18,9.65,2.37,-0.05,-0.02,-0.04,1.0,a
3168.0,3232.0,4032.0,3293.0,4083.0,3520.0,3267.0,3448.0,2.16,9.75,2.09,-0.04,0.0,-0.06,1.0,a
3177.0,3225.0,4043.0,3282.0,4063.0,3514.0,3257.0,3440.0,2.12,9.72,2.31,-0.05,0.0,-0.05,1.0,a
3178.0,3233.0,4032.0,3290.0,4081.0,3525.0,3262.0,3449.0,2.14,9.73,2.11,-0.04,0.01,-0.06,1.0,a
3181.0,3219.0,4029.0,3282.0,4080.0,3515.0,3253.0,3443.0,2.07,9.79,2.09,-0.03,0.01,-0.07,1.0,a
3174.0,3239.0,4037.0,3290.0,4082.0,3518.0,3262.0,3450.0,1.96,9.7,2.08,-0.08,0.0,-0.05,1.0,a
3178.0,3229.0,4035.0,3290.0,4074.0,3519.0,3259.0,3442.0,1.92,9.69,2.27,-0.06,0.01,-0.03,1.0,a
3166.0,3227.0,4027.0,3285.0,4087.0,3532.0,3265.0,3449.0,2.08,9.8,2.09,-0.05,-0.0,-0.04,1.0,a
3182.0,3221.0,4022.0,3297.0,4095.0,3529.0,3274.0,3446.0,1.84,9.65,2.19,-0.06,0.02,-0.05,1.0,a
3174.0,3229.0,4037.0,3295.0,4085.0,3525.0,3257.0,3445.0,1.95,9.71,2.21,-0.06,0.12,-0.03,1.0,a
3187.0,3237.0,4023.0,3293.0,4086.0,3529.0,3264.0,3445.0,1.96,9.68,2.22,-0.07,0.02,-0.05,1.0,a
3170.0,3229.0,4038.0,3299.0,4068.0,3520.0,3261.0,3440.0,2.01,9.67,2.22,-0.06,-0.0,-0.04,1.0,a
3184.0,3227.0,4045.0,3298.0,4083.0,3530.0,3264.0,3453.0,1.87,9.67,2.15,-0.06,0.01,-0.03,1.0,a
3171.0,3235.0,4022.0,3295.0,4091.0,3520.0,3269.0,3443.0,2.02,9.68,2.19,-0.08,0.01,-0.03,1.0,a
3178.0,3235.0,4027.0,3294.0,4079.0,3524.0,3261.0,3454.0,2.03,9.7,2.25,-0.08,0.01,-0.04,1.0,a
3172.0,3226.0,4045.0,3293.0,4081.0,3526.0,3264.0,3451.0,2.02,9.68,2.15,-0.06,0.01,-0.04,1.0,a
3184.0,3241.0,4030.0,3298.0,4082.0,3521.0,3265.0,3450.0,1.94,9.65,2.32,-0.05,0.0,-0.04,1.0,a
3175.0,3218.0,4031.0,3295.0,4080.0,3517.0,3264.0,3440.0,2.03,9.74,2.13,-0.05,0.02,-0.05,1.0,a
3184.0,3236.0,4042.0,3295.0,4083.0,3524.0,3261.0,3443.0,1.99,9.73,2.21,-0.1,0.01,-0.04,1.0,a
3120.0,3161.0,3402.0,3335.0,4095.0,3563.0,3248.0,3430.0,-0.75,9.71,2.66,-0.07,0.01,-0.05,1.0,a
3120.0,3153.0,3424.0,3344.0,4095.0,3565.0,3249.0,3427.0,-0.81,9.64,2.74,-0.07,0.03,-0.05,1.0,a
3127.0,3163.0,3438.0,3358.0,4095.0,3581.0,3262.0,3443.0,-0.85,9.61,2.71,-0.07,0.03,-0.01,1.0,a
3123.0,3152.0,3453.0,3353.0,4095.0,3580.0,3264.0,3440.0,-0.71,9.67,2.77,-0.03,0.01,-0.0,1.0,a
3131.0,3163.0,3453.0,3349.0,4095.0,3583.0,3259.0,3440.0,-0.65,9.66,2.67,-0.05,0.01,0.01,1.0,a
3109.0,3161.0,3450.0,3353.0,4095.0,3583.0,3265.0,3445.0,-0.68,9.64,2.75,-0.08,0.03,-0.04,1.0,a
3118.0,3155.0,3455.0,3358.0,4095.0,3583.0,3266.0,3447.0,-0.72,9.66,2.87,-0.06,0.02,-0.03,1.0,a
3121.0,3159.0,3456.0,3361.0,4095.0,3583.0,3261.0,3442.0,-0.69,9.6,2.78,-0.08,0.04,-0.03,1.0,a
3117.0,3154.0,3456.0,3358.0,4095.0,3602.0,3269.0,3451.0,-0.64,9.71,2.76,-0.06,0.03,-0.03,1.0,a
3119.0,3159.0,3470.0,3345.0,4095.0,3583.0,3257.0,3445.0,-0.69,9.65,2.74,-0.06,0.03,-0.04,1.0,a
3126.0,3165.0,3456.0,3356.0,4095.0,3604.0,3267.0,3445.0,-0.7,9.66,2.78,-0.05,0.01,-0.05,1.0,a
3122.0,3166.0,3471.0,3343.0,4095.0,3583.0,3259.0,3443.0,-0.67,9.7,2.67,-0.04,0.02,-0.07,1.0,a
3120.0,3165.0,3477.0,3353.0,4095.0,3599.0,3269.0,3444.0,-0.85,9.66,2.71,-0.07,-0.01,-0.05,1.0,a
3120.0,3154.0,3485.0,3357.0,4095.0,3599.0,3265.0,3451.0,-0.73,9.6,2.74,-0.06,-0.01,-0.01,1.0,a
3123.0,3161.0,3475.0,3354.0,4095.0,3602.0,3264.0,3455.0,-0.64,9.7,2.65,-0.07,0.02,-0.02,1.0,a
3119.0,3156.0,3486.0,3363.0,4095.0,3599.0,3268.0,3451.0,-0.71,9.64,2.8,-0.03,0.01,-0.03,1.0,a
3108.0,3163.0,3494.0,3376.0,4095.0,3598.0,3269.0,3457.0,-0.57,9.71,2.72,-0.04,0.04,-0.02,1.0,a
3120.0,3153.0,3487.0,3374.0,4095.0,3615.0,3270.0,3449.0,-0.58,9.72,2.71,-0.04,0.03,-0.03,1.0,a
3123.0,3163.0,3495.0,3393.0,4095.0,3634.0,3280.0,3456.0,-0.66,9.8,2.46,0.09,0.09,-0.08,1.0,a
3125.0,3178.0,3568.0,3499.0,4095.0,3653.0,3305.0,3487.0,-0.77,9.79,2.48,-0.04,0.07,-0.02,1.0,a
3207.0,3193.0,3888.0,3638.0,4018.0,3393.0,3262.0,3472.0,0.97,9.68,3.0,-0.08,0.02,-0.04,1.0,a
3204.0,3173.0,3888.0,3619.0,4010.0,3394.0,3267.0,3472.0,0.93,9.65,2.88,-0.05,0.03,-0.05,1.0,a
3197.0,3179.0,3868.0,3623.0,4007.0,3385.0,3258.0,3472.0,1.01,9.61,3.07,-0.06,0.01,-0.03,1.0,a
3200.0,3193.0,3872.0,3603.0,4016.0,3393.0,3264.0,3472.0,1.16,9.72,2.93,-0.02,0.01,-0.04,1.0,a
3194.0,3176.0,3875.0,3626.0,4031.0,3397.0,3270.0,3472.0,0.96,9.62,3.18,-0.02,0.0,-0.07,1.0,a
3195.0,3183.0,3877.0,3622.0,4015.0,3389.0,3267.0,3474.0,0.79,9.7,2.75,-0.08,0.01,-0.11,1.0,a
3193.0,3181.0,3879.0,3618.0,4011.0,3388.0,3267.0,3490.0,0.58,9.57,3.04,-0.09,0.08,-0.01,1.0,a
3191.0,3184.0,3879.0,3617.0,4018.0,3382.0,3259.0,3467.0,1.06,9.66,2.78,-0.06,-0.01,-0.02,1.0,a
3197.0,3183.0,3870.0,3606.0,4023.0,3403.0,3268.0,3473.0,0.87,9.61,3.11,-0.05,-0.03,-0.16,1.0,a
3215.0,3181.0,3894.0,3612.0,4034.0,3392.0,3268.0,3471.0,0.78,9.63,2.94,-0.05,-0.1,-0.06,1.0,a
3191.0,3185.0,3879.0,3609.0,4022.0,3406.0,3271.0,3472.0,0.87,9.61,2.82,-0.02,-0.05,-0.1,1.0,a
3205.0,3179.0,3873.0,3600.0,4017.0,3389.0,3270.0,3470.0,0.66,9.67,2.87,-0.07,0.01,-0.04,1.0,a
3207.0,3189.0,3890.0,3568.0,4029.0,3390.0,3269.0,3463.0,0.69,9.6,3.16,-0.03,0.03,-0.03,1.0,a
3205.0,3178.0,3883.0,3600.0,4039.0,3399.0,3273.0,3477.0,0.95,9.71,2.72,0.04,0.04,-0.07,1.0,a
3202.0,3185.0,3882.0,3583.0,4030.0,3397.0,3269.0,3473.0,0.59,9.67,2.62,-0.04,0.03,-0.05,1.0,a
3213.0,3184.0,3888.0,3583.0,4029.0,3393.0,3269.0,3470.0,0.46,9.76,2.62,-0.13,-0.01,-0.08,1.0,a
3194.0,3184.0,3888.0,3579.0,4032.0,3397.0,3266.0,3474.0,0.76,9.75,2.63,-0.1,0.04,-0.01,1.0,a
3213.0,3181.0,3882.0,3568.0,4032.0,3391.0,3269.0,3472.0,0.8,9.55,3.52,-0.13,0.07,-0.03,1.0,a
3199.0,3186.0,3878.0,3552.0,4032.0,3394.0,3263.0,3474.0,1.21,9.79,2.72,-0.09,-0.07,0.11,1.0,a
3198.0,3170.0,3888.0,3547.0,4030.0,3399.0,3266.0,3476.0,1.23,9.69,3.92,0.16,-0.03,-0.19,1.0,a
3067.0,3135.0,3714.0,3856.0,3761.0,3394.0,3222.0,3509.0,-0.17,9.72,-2.34,-0.09,0.05,0.07,1.0,a
3061.0,3138.0,3699.0,3915.0,3758.0,3376.0,3223.0,3503.0,-0.34,9.65,-2.13,-0.11,-0.07,0.0,1.0,a
3085.0,3137.0,3721.0,3927.0,3769.0,3374.0,3216.0,3503.0,-0.4,9.66,-1.92,-0.05,-0.04,-0.01,1.0,a
3071.0,3133.0,3705.0,3919.0,3763.0,3375.0,3223.0,3511.0,-0.29,9.75,-2.09,-0.04,-0.02,-0.01,1.0,a
3062.0,3121.0,3707.0,3888.0,3792.0,3376.0,3232.0,3520.0,-0.23,9.64,-2.07,-0.2,-0.05,-0.0,1.0,a
3057.0,3138.0,3693.0,3888.0,3798.0,3361.0,3221.0,3510.0,-0.34,9.8,-2.17,-0.04,-0.03,0.02,1.0,a
3056.0,3138.0,3690.0,3898.0,3813.0,3363.0,3231.0,3520.0,-0.57,9.84,-2.39,-0.08,0.04,0.0,1.0,a
3062.0,3133.0,3690.0,3810.0,3813.0,3363.0,3223.0,3522.0,-0.03,9.72,-2.16,-0.1,0.04,0.07,1.0,a
3063.0,3137.0,3690.0,3781.0,3841.0,3345.0,3237.0,3536.0,0.35,9.86,-2.18,-0.11,0.06,-0.03,1.0,a
3061.0,3136.0,3687.0,3757.0,3843.0,3343.0,3238.0,3532.0,-0.06,9.84,-1.78,-0.21,-0.02,-0.02,1.0,a
3063.0,3129.0,3669.0,3777.0,3846.0,3344.0,3243.0,3534.0,-0.05,9.97,-1.45,-0.16,0.05,-0.01,1.0,a
3055.0,3129.0,3676.0,3761.0,3856.0,3347.0,3245.0,3536.0,0.35,9.99,-1.72,-0.09,0.02,0.05,1.0,a
3056.0,3143.0,3684.0,3774.0,3853.0,3348.0,3245.0,3536.0,0.07,9.84,-1.3,-0.14,-0.0,-0.01,1.0,a
3062.0,3137.0,3670.0,3783.0,3855.0,3350.0,3248.0,3543.0,0.4,9.83,-1.23,-0.03,0.04,-0.03,1.0,a
3066.0,3136.0,3674.0,3776.0,3867.0,3348.0,3247.0,3541.0,0.42,9.99,-1.93,-0.05,0.02,-0.11,1.0,a
3061.0,3127.0,3664.0,3775.0,3856.0,3343.0,3239.0,3543.0,-0.14,9.9,-1.47,-0.12,0.03,-0.13,1.0,a
3055.0,3141.0,3663.0,3803.0,3869.0,3344.0,3245.0,3549.0,-0.06,9.88,-1.57,-0.04,0.2,-0.04,1.0,a
3056.0,3125.0,3664.0,3787.0,3847.0,3342.0,3246.0,3545.0,-0.08,9.95,-1.93,-0.1,0.02,-0.04,1.0,a
3058.0,3133.0,3669.0,3805.0,3870.0,3344.0,3245.0,3549.0,0.04,9.9,-1.25,-0.13,-0.04,-0.02,1.0,a
3063.0,3141.0,3669.0,3791.0,3872.0,3344.0,3247.0,3549.0,0.11,9.93,-1.48,-0.05,0.01,-0.0,1.0,a
3053.0,3039.0,4049.0,3796.0,4095.0,3248.0,3216.0,3554.0,-0.06,8.21,5.26,-0.5,0.01,-0.05,1.0,a
3056.0,3041.0,4057.0,3775.0,4095.0,3259.0,3217.0,3563.0,-0.67,8.04,7.29,-0.22,-0.26,-0.12,1.0,a
3045.0,3040.0,4048.0,3775.0,4095.0,3253.0,3215.0,3555.0,-0.75,8.02,6.47,-0.03,0.04,-0.06,1.0,a
3047.0,3033.0,4042.0,3779.0,4095.0,3263.0,3225.0,3567.0,-0.61,8.15,5.63,-0.04,0.0,-0.04,1.0,a
3055.0,3040.0,4055.0,3762.0,4095.0,3257.0,3219.0,3565.0,-0.63,8.12,6.0,-0.1,-0.01,-0.03,1.0,a
3043.0,3040.0,4061.0,3781.0,4095.0,3263.0,3229.0,3569.0,-0.47,8.01,6.32,-0.08,-0.0,-0.02,1.0,a
3060.0,3037.0,4059.0,3792.0,4095.0,3255.0,3220.0,3562.0,-0.47,8.03,6.3,-0.07,0.02,-0.05,1.0,a
3049.0,3046.0,4048.0,3795.0,4095.0,3259.0,3225.0,3568.0,-0.5,7.98,6.16,-0.02,0.02,-0.06,1.0,a
3046.0,3045.0,4059.0,3799.0,4095.0,3259.0,3219.0,3570.0,-0.51,8.07,6.11,-0.02,-0.02,-0.03,1.0,a
3056.0,3047.0,4068.0,3797.0,4095.0,3263.0,3226.0,3569.0,-0.55,8.17,5.91,-0.01,0.01,-0.04,1.0,a
3061.0,3041.0,4061.0,3794.0,4095.0,3261.0,3221.0,3568.0,-0.39,8.13,5.98,-0.01,0.0,-0.05,1.0,a
3053.0,3050.0,4037.0,3783.0,4095.0,3264.0,3229.0,3563.0,-0.66,8.18,5.97,-0.06,0.02,-0.05,1.0,a
3056.0,3053.0,4048.0,3792.0,4095.0,3278.0,3225.0,3562.0,-0.47,8.08,6.04,-0.06,-0.0,-0.02,1.0,a
3056.0,3043.0,4060.0,3786.0,4095.0,3279.0,3228.0,3555.0,-0.42,8.14,5.97,-0.04,0.0,-0.03,1.0,a
3056.0,3053.0,4067.0,3777.0,4095.0,3280.0,3221.0,3479.0,-0.47,8.13,6.0,-0.04,0.01,-0.05,1.0,a
3053.0,3049.0,4074.0,3781.0,4095.0,3282.0,3219.0,3433.0,-0.7,8.17,5.98,-0.04,0.07,-0.04,1.0,a
3046.0,3043.0,3975.0,3786.0,4095.0,3286.0,3216.0,3410.0,-0.65,8.13,5.95,-0.05,-0.01,-0.05,1.0,a
3043.0,3040.0,3974.0,3767.0,4095.0,3289.0,3216.0,3430.0,-0.59,8.03,6.09,0.01,0.03,-0.05,1.0,a
3056.0,3039.0,3977.0,3763.0,4095.0,3295.0,3226.0,3440.0,-0.45,8.17,5.92,-0.01,0.01,-0.05,1.0,a
3051.0,3047.0,3997.0,3792.0,4095.0,3297.0,3230.0,3442.0,-0.6,8.26,5.87,-0.03,0.02,-0.05,1.0,a
3023.0,3137.0,3287.0,3843.0,4095.0,3307.0,3220.0,3423.0,1.64,9.59,2.7,-0.09,0.04,-0.02,1.0,a
3019.0,3144.0,3296.0,3842.0,4095.0,3312.0,3227.0,3429.0,1.91,9.63,2.81,-0.07,0.03,-0.03,1.0,a
3024.0,3134.0,3280.0,3852.0,4095.0,3317.0,3235.0,3431.0,1.93,9.56,2.97,-0.07,-0.0,-0.06,1.0,a
3026.0,3135.0,3291.0,3840.0,4095.0,3317.0,3233.0,3434.0,1.53,9.6,2.73,-0.04,0.02,-0.05,1.0,a
3023.0,3139.0,3291.0,3837.0,4095.0,3319.0,3238.0,3436.0,1.72,9.59,2.81,-0.02,0.04,-0.02,1.0,a
3017.0,3146.0,3302.0,3835.0,4095.0,3329.0,3236.0,3437.0,1.76,9.64,2.64,-0.06,0.02,-0.03,1.0,a
3018.0,3143.0,3278.0,3830.0,4095.0,3317.0,3239.0,3438.0,1.88,9.55,2.86,-0.09,-0.01,-0.04,1.0,a
3019.0,3138.0,3292.0,3840.0,4095.0,3326.0,3237.0,3441.0,1.6,9.66,2.79,-0.08,0.03,-0.05,1.0,a
3025.0,3137.0,3283.0,3835.0,4095.0,3318.0,3239.0,3454.0,1.81,9.6,2.88,-0.03,0.01,-0.01,1.0,a
3027.0,3135.0,3299.0,3828.0,4095.0,3331.0,3239.0,3445.0,1.83,9.48,2.93,-0.08,-0.01,-0.02,1.0,a
3027.0,3147.0,3283.0,3831.0,4095.0,3327.0,3242.0,3440.0,1.72,9.45,2.96,-0.02,-0.01,-0.05,1.0,a
3017.0,3143.0,3284.0,3835.0,4095.0,3328.0,3239.0,3447.0,1.63,9.55,2.65,-0.08,0.01,-0.05,1.0,a
3024.0,3145.0,3287.0,3823.0,4095.0,3327.0,3235.0,3446.0,1.87,9.63,2.86,-0.06,-0.01,-0.04,1.0,a
3014.0,3140.0,3284.0,3833.0,4095.0,3339.0,3239.0,3443.0,1.66,9.54,2.74,-0.06,0.01,-0.04,1.0,a
3023.0,3139.0,3290.0,3819.0,4095.0,3327.0,3238.0,3440.0,1.75,9.6,2.91,-0.05,0.02,-0.03,1.0,a
3018.0,3139.0,3295.0,3828.0,4095.0,3334.0,3245.0,3447.0,1.88,9.53,2.81,-0.06,-0.01,-0.05,1.0,a
3025.0,3143.0,3294.0,3830.0,4095.0,3338.0,3239.0,3441.0,1.71,9.51,2.76,-0.09,-0.03,-0.06,1.0,a
3022.0,3131.0,3291.0,3815.0,4095.0,3335.0,3241.0,3441.0,1.73,9.62,2.86,-0.07,-0.01,-0.04,1.0,a
3024.0,3145.0,3281.0,3824.0,4095.0,3342.0,3248.0,3439.0,1.79,9.37,2.89,-0.12,0.01,-0.09,1.0,a
3012.0,3135.0,3280.0,3813.0,4095.0,3345.0,3245.0,3455.0,1.67,9.6,2.96,-0.07,-0.03,-0.05,1.0,a
3035.0,3175.0,3994.0,3856.0,4095.0,3337.0,3280.0,3490.0,-3.15,8.45,4.36,-0.04,0.01,-0.02,1.0,a
3031.0,3184.0,3985.0,3830.0,4095.0,3345.0,3280.0,3485.0,-3.04,8.48,4.32,-0.07,0.01,-0.01,1.0,a
3035.0,3183.0,3979.0,3851.0,4095.0,3356.0,3287.0,3494.0,-2.95,8.47,4.38,-0.08,-0.0,-0.01,1.0,a
3024.0,3187.0,3988.0,3835.0,4095.0,3350.0,3285.0,3502.0,-3.0,8.48,4.51,-0.05,0.01,-0.03,1.0,a
3027.0,3184.0,3986.0,3850.0,4095.0,3361.0,3287.0,3499.0,-2.92,8.47,4.38,-0.05,0.02,-0.04,1.0,a
3029.0,3183.0,3970.0,3838.0,4095.0,3349.0,3283.0,3489.0,-2.96,8.49,4.46,-0.08,-0.0,-0.01,1.0,a
3027.0,3183.0,3989.0,3851.0,4095.0,3359.0,3293.0,3494.0,-2.77,8.47,4.52,-0.06,0.0,-0.01,1.0,a
3024.0,3199.0,3998.0,3846.0,4095.0,3359.0,3281.0,3487.0,-2.89,8.44,4.54,-0.05,0.01,-0.04,1.0,a
3031.0,3186.0,3999.0,3847.0,4095.0,3363.0,3291.0,3491.0,-2.98,8.47,4.41,-0.02,0.01,-0.03,1.0,a
3031.0,3177.0,3968.0,3835.0,4095.0,3357.0,3282.0,3493.0,-2.99,8.41,4.49,-0.03,-0.01,-0.03,1.0,a
3024.0,3184.0,4004.0,3842.0,4095.0,3362.0,3283.0,3499.0,-3.05,8.44,4.43,-0.05,0.0,-0.01,1.0,a
3023.0,3195.0,3999.0,3835.0,4095.0,3355.0,3282.0,3485.0,-2.9,8.51,4.42,-0.05,-0.01,-0.02,1.0,a
3029.0,3186.0,3990.0,3830.0,4095.0,3366.0,3293.0,3493.0,-2.82,8.54,4.36,-0.04,0.02,-0.04,1.0,a
3027.0,3178.0,3980.0,3840.0,4095.0,3360.0,3289.0,3490.0,-2.89,8.48,4.41,-0.05,0.01,-0.05,1.0,a
3027.0,3182.0,3991.0,3833.0,4095.0,3365.0,3286.0,3495.0,-2.93,8.46,4.31,-0.07,-0.01,-0.05,1.0,a
3031.0,3179.0,3999.0,3847.0,4095.0,3359.0,3280.0,3494.0,-2.97,8.52,4.34,-0.08,0.01,-0.05,1.0,a
3031.0,3190.0,3975.0,3830.0,4095.0,3361.0,3289.0,3501.0,-2.86,8.51,4.43,-0.05,0.0,-0.03,1.0,a
3029.0,3186.0,3993.0,3850.0,4095.0,3361.0,3290.0,3501.0,-2.88,8.54,4.35,-0.06,-0.01,-0.04,1.0,a
3037.0,3172.0,3994.0,3835.0,4095.0,3361.0,3280.0,3491.0,-2.88,8.52,4.38,-0.06,-0.0,-0.04,1.0,a
3026.0,3187.0,3982.0,3843.0,4095.0,3366.0,3294.0,3504.0,-2.95,8.49,4.48,-0.08,-0.01,-0.03,1.0,a
3025.0,3265.0,4095.0,3889.0,3989.0,3243.0,3227.0,3456.0,2.83,8.94,3.9,-0.12,0.02,-0.04,1.0,a
3025.0,3265.0,4095.0,3889.0,3989.0,3243.0,3227.0,3456.0,2.83,8.94,3.9,-0.12,0.02,-0.04,1.0,a
3031.0,3261.0,4095.0,3907.0,4010.0,3252.0,3225.0,3451.0,2.87,8.92,4.12,-0.02,-0.03,-0.05,1.0,a
3031.0,3270.0,4095.0,3856.0,4031.0,3248.0,3223.0,3440.0,2.37,8.88,3.79,0.06,-0.16,-0.07,1.0,a
3033.0,3270.0,4095.0,3892.0,4045.0,3263.0,3231.0,3459.0,2.74,8.96,3.87,-0.05,0.07,-0.03,1.0,a
3031.0,3270.0,4095.0,3894.0,4058.0,3263.0,3234.0,3458.0,2.66,8.99,3.9,-0.1,0.05,-0.02,1.0,a
3031.0,3270.0,4095.0,3888.0,4050.0,3262.0,3231.0,3461.0,2.83,9.11,3.7,-0.08,0.01,-0.02,1.0,a
3030.0,3267.0,4095.0,3889.0,4047.0,3261.0,3231.0,3454.0,2.84,9.1,3.69,-0.16,-0.0,-0.07,1.0,a
3030.0,3276.0,4095.0,3903.0,4074.0,3265.0,3234.0,3461.0,2.77,8.95,4.12,-0.12,-0.02,-0.05,1.0,a
3019.0,3257.0,4095.0,3904.0,4071.0,3265.0,3241.0,3462.0,2.68,8.82,4.07,-0.08,0.02,-0.09,1.0,a
3026.0,3257.0,4087.0,3904.0,4073.0,3259.0,3239.0,3468.0,2.74,9.04,3.9,-0.05,-0.04,-0.05,1.0,a
3034.0,3250.0,4095.0,3897.0,4095.0,3266.0,3235.0,3463.0,2.84,9.1,3.75,-0.07,0.02,-0.06,1.0,a
3029.0,3267.0,4095.0,3930.0,4095.0,3274.0,3244.0,3466.0,2.77,9.1,4.09,-0.13,0.04,-0.0,1.0,a
3017.0,3265.0,4095.0,3920.0,4095.0,3273.0,3245.0,3473.0,2.77,8.89,4.39,-0.06,0.05,-0.02,1.0,a
3028.0,3253.0,4095.0,3927.0,4095.0,3271.0,3242.0,3465.0,2.78,9.0,3.88,-0.01,-0.02,-0.06,1.0,a
3019.0,3267.0,4095.0,3943.0,4095.0,3280.0,3248.0,3465.0,2.79,9.07,4.18,-0.07,-0.02,-0.05,1.0,a
3024.0,3269.0,4095.0,3951.0,4095.0,3287.0,3248.0,3477.0,2.72,8.87,4.35,-0.02,-0.01,-0.06,1.0,a
3021.0,3251.0,4087.0,3959.0,4095.0,3285.0,3247.0,3472.0,2.62,8.97,3.96,-0.03,-0.0,-0.05,1.0,a
3021.0,3259.0,4095.0,3982.0,4095.0,3289.0,3248.0,3469.0,2.62,8.87,4.15,-0.03,0.03,-0.09,1.0,a
3023.0,3255.0,4080.0,3953.0,4095.0,3283.0,3248.0,3472.0,2.51,8.89,3.98,-0.06,-0.09,-0.04,1.0,a
3150.0,3149.0,3888.0,3473.0,4095.0,3163.0,3200.0,3417.0,-2.24,7.01,6.9,-0.11,0.01,-0.01,1.0,a
3152.0,3145.0,3878.0,3469.0,4095.0,3155.0,3195.0,3422.0,-2.13,6.96,6.95,-0.08,-0.0,-0.01,1.0,a
3147.0,3146.0,3870.0,3471.0,4095.0,3155.0,3191.0,3413.0,-2.14,6.9,7.1,-0.03,0.01,-0.03,1.0,a
3152.0,3147.0,3888.0,3487.0,4095.0,3163.0,3198.0,3409.0,-2.1,6.95,6.96,-0.02,0.01,-0.04,1.0,a
3152.0,3140.0,3873.0,3479.0,4095.0,3183.0,3211.0,3427.0,-2.38,7.16,6.84,-0.07,-0.04,0.03,1.0,a
3155.0,3149.0,3884.0,3498.0,4095.0,3181.0,3211.0,3425.0,-1.97,6.9,7.05,-0.05,-0.02,-0.01,1.0,a
3157.0,3136.0,3888.0,3501.0,4095.0,3185.0,3209.0,3424.0,-2.0,7.21,6.74,-0.02,0.04,-0.04,1.0,a
3152.0,3146.0,3869.0,3502.0,4095.0,3186.0,3204.0,3426.0,-2.14,7.03,6.77,-0.02,0.0,-0.05,1.0,a
3149.0,3140.0,3873.0,3504.0,4095.0,3183.0,3203.0,3425.0,-2.09,7.15,6.9,-0.07,-0.04,-0.03,1.0,a
3148.0,3153.0,3886.0,3511.0,4095.0,3187.0,3207.0,3430.0,-1.99,7.16,7.02,-0.04,-0.04,-0.01,1.0,a
3153.0,3141.0,3886.0,3517.0,4095.0,3191.0,3210.0,3430.0,-2.07,7.06,6.86,-0.03,-0.01,-0.05,1.0,a
3153.0,3143.0,3887.0,3509.0,4095.0,3187.0,3206.0,3418.0,-2.07,7.1,6.89,-0.03,0.01,-0.05,1.0,a
3152.0,3153.0,3865.0,3520.0,4095.0,3200.0,3213.0,3433.0,-2.26,7.11,6.58,-0.09,0.02,-0.07,1.0,a
3149.0,3149.0,3888.0,3521.0,4095.0,3202.0,3215.0,3430.0,-2.36,7.07,6.7,-0.12,-0.05,0.02,1.0,a
3149.0,3141.0,3879.0,3516.0,4095.0,3195.0,3206.0,3425.0,-2.18,7.0,6.87,-0.22,-0.19,0.13,1.0,a
3150.0,3146.0,3887.0,3522.0,4095.0,3205.0,3215.0,3434.0,-1.12,7.02,7.56,-0.12,-0.05,0.03,1.0,a
3151.0,3152.0,3879.0,3521.0,4095.0,3194.0,3210.0,3423.0,-1.54,6.86,7.08,-0.05,0.02,-0.08,1.0,a
3154.0,3138.0,3869.0,3510.0,4095.0,3204.0,3211.0,3437.0,-2.05,6.99,7.24,-0.08,0.0,-0.04,1.0,a
3151.0,3152.0,3888.0,3523.0,4095.0,3206.0,3215.0,3440.0,-1.88,7.0,7.21,0.04,0.01,-0.0,1.0,a
3149.0,3138.0,3881.0,3520.0,4095.0,3210.0,3211.0,3433.0,-1.61,7.05,6.87,0.05,0.02,-0.08,1.0,a
2945.0,3091.0,3721.0,3730.0,4076.0,3376.0,3266.0,3542.0,1.33,10.01,-0.91,-0.04,-0.05,-0.08,1.0,a
2955.0,3105.0,3740.0,3742.0,4093.0,3376.0,3268.0,3537.0,0.84,9.97,-1.04,-0.03,-0.02,-0.12,1.0,a
2942.0,3103.0,3718.0,3741.0,4093.0,3376.0,3277.0,3536.0,0.74,9.95,-0.95,-0.04,-0.01,-0.03,1.0,a
2939.0,3094.0,3725.0,3741.0,4095.0,3382.0,3272.0,3550.0,1.2,10.03,-1.17,-0.04,0.02,-0.03,1.0,a
2941.0,3098.0,3733.0,3743.0,4095.0,3383.0,3270.0,3543.0,1.09,9.94,-1.12,-0.1,0.01,-0.06,1.0,a
2944.0,3104.0,3735.0,3759.0,4095.0,3377.0,3261.0,3541.0,0.87,9.94,-0.88,-0.14,-0.05,-0.09,1.0,a
2956.0,3099.0,3741.0,3759.0,4086.0,3376.0,3264.0,3537.0,1.44,9.93,-0.17,0.05,-0.45,-0.16,1.0,a
2946.0,3099.0,3728.0,3763.0,4080.0,3378.0,3261.0,3533.0,0.13,9.92,-1.61,0.11,-0.08,-0.18,1.0,a
2944.0,3103.0,3728.0,3759.0,4095.0,3376.0,3260.0,3535.0,0.33,9.95,-1.41,-0.03,0.01,0.02,1.0,a
2947.0,3102.0,3733.0,3766.0,4085.0,3379.0,3268.0,3536.0,0.9,9.98,-1.36,-0.1,0.06,0.02,1.0,a
2944.0,3107.0,3739.0,3771.0,4095.0,3379.0,3272.0,3543.0,0.79,9.93,-1.31,-0.15,0.07,-0.02,1.0,a
2942.0,3087.0,3728.0,3770.0,4095.0,3382.0,3269.0,3550.0,0.46,9.91,-0.94,-0.18,0.06,-0.02,1.0,a
2945.0,3101.0,3728.0,3778.0,4095.0,3389.0,3273.0,3551.0,0.83,9.9,-0.57,-0.09,0.04,0.0,1.0,a
2943.0,3107.0,3740.0,3766.0,4095.0,3380.0,3262.0,3534.0,1.03,9.99,-0.94,-0.0,0.01,-0.04,1.0,a
2944.0,3089.0,3739.0,3760.0,4082.0,3387.0,3265.0,3539.0,0.76,9.96,-1.18,-0.06,-0.01,-0.06,1.0,a
2947.0,3092.0,3723.0,3787.0,4095.0,3391.0,3267.0,3550.0,0.72,10.04,-1.03,-0.08,0.0,-0.04,1.0,a
2953.0,3089.0,3743.0,3939.0,4080.0,3374.0,3270.0,3545.0,0.82,9.97,-1.04,-0.09,0.02,-0.04,1.0,a
2943.0,3101.0,3742.0,3967.0,4080.0,3383.0,3273.0,3541.0,0.81,9.97,-0.91,-0.11,0.03,-0.04,1.0,a
2944.0,3102.0,3736.0,4067.0,4066.0,3373.0,3264.0,3535.0,0.98,10.02,-0.82,-0.19,0.13,-0.06,1.0,a
2935.0,3098.0,3743.0,4095.0,4063.0,3358.0,3266.0,3545.0,0.88,9.98,-0.68,-0.06,0.09,-0.06,1.0,a
2926.0,3212.0,3197.0,3841.0,3883.0,3403.0,3295.0,3440.0,-1.13,7.58,6.51,-0.08,0.01,-0.05,1.0,a
2929.0,3204.0,3202.0,3840.0,3867.0,3394.0,3297.0,3438.0,-1.0,7.62,6.73,-0.05,-0.0,-0.04,1.0,a
2929.0,3210.0,3203.0,3845.0,3873.0,3392.0,3298.0,3438.0,-0.88,7.6,6.72,-0.08,0.02,-0.08,1.0,a
2927.0,3205.0,3191.0,3840.0,3878.0,3393.0,3294.0,3439.0,-1.37,7.58,6.51,0.01,0.1,-0.07,1.0,a
2930.0,3203.0,3191.0,3847.0,3873.0,3389.0,3295.0,3438.0,-1.34,7.7,6.34,-0.01,0.02,-0.02,1.0,a
2919.0,3203.0,3200.0,3825.0,3862.0,3377.0,3281.0,3439.0,-1.34,7.62,6.37,-0.11,0.01,-0.0,1.0,a
2926.0,3216.0,3200.0,3843.0,3885.0,3387.0,3286.0,3433.0,-1.15,7.54,6.75,-0.06,-0.02,-0.01,1.0,a
2911.0,3214.0,3202.0,3842.0,3878.0,3407.0,3301.0,3442.0,-1.27,7.6,6.58,-0.08,0.01,-0.02,1.0,a
2921.0,3204.0,3198.0,3840.0,3888.0,3391.0,3295.0,3443.0,-1.12,7.53,6.66,-0.09,-0.01,-0.06,1.0,a
2918.0,3196.0,3194.0,3838.0,3887.0,3390.0,3295.0,3443.0,-1.18,7.65,6.58,-0.02,0.03,-0.06,1.0,a
2928.0,3211.0,3213.0,3855.0,3890.0,3393.0,3298.0,3440.0,-1.32,7.61,6.48,-0.04,0.03,-0.06,1.0,a
2923.0,3213.0,3191.0,3825.0,3889.0,3391.0,3291.0,3442.0,-1.33,7.57,6.5,-0.06,-0.0,-0.04,1.0,a
2928.0,3215.0,3214.0,3845.0,3890.0,3394.0,3289.0,3440.0,-1.23,7.51,6.58,-0.06,-0.01,-0.02,1.0,a
2927.0,3197.0,3195.0,3843.0,3884.0,3395.0,3295.0,3443.0,-1.15,7.64,6.5,-0.08,-0.01,-0.04,1.0,a
2925.0,3216.0,3200.0,3851.0,3897.0,3390.0,3301.0,3444.0,-1.21,7.51,6.63,-0.12,0.0,-0.04,1.0,a
2915.0,3201.0,3200.0,3856.0,3891.0,3406.0,3298.0,3446.0,-1.23,7.54,6.68,-0.11,-0.01,-0.03,1.0,a
2927.0,3213.0,3207.0,3855.0,3906.0,3404.0,3299.0,3446.0,-1.03,7.62,6.45,-0.07,0.04,-0.07,1.0,a
2927.0,3213.0,3194.0,3830.0,3889.0,3399.0,3297.0,3439.0,-1.3,7.55,6.76,-0.1,-0.01,-0.08,1.0,a
2927.0,3215.0,3203.0,3843.0,3895.0,3391.0,3294.0,3439.0,-1.45,7.46,6.78,-0.17,-0.03,-0.01,1.0,a
2914.0,3197.0,3200.0,3818.0,3905.0,3381.0,3294.0,3446.0,-1.07,7.56,6.35,-0.2,0.08,-0.02,1.0,a
2998.0,3280.0,3866.0,3698.0,4048.0,3343.0,3244.0,3473.0,2.15,9.65,2.33,-0.06,0.01,-0.06,1.0,a
2998.0,3282.0,3854.0,3703.0,4068.0,3350.0,3242.0,3479.0,2.3,9.56,2.58,-0.08,-0.02,-0.03,1.0,a
3007.0,3287.0,3871.0,3701.0,4055.0,3342.0,3235.0,3472.0,2.21,9.59,2.54,-0.08,0.03,-0.03,1.0,a
3003.0,3298.0,3867.0,3706.0,4056.0,3351.0,3246.0,3478.0,2.35,9.56,2.74,-0.07,0.01,-0.04,1.0,a
3008.0,3297.0,3869.0,3709.0,4069.0,3350.0,3245.0,3478.0,2.31,9.52,2.42,-0.04,-0.01,-0.05,1.0,a
3015.0,3296.0,3871.0,3711.0,4048.0,3345.0,3238.0,3479.0,2.26,9.7,2.35,-0.05,0.01,-0.04,1.0,a
3003.0,3287.0,3871.0,3723.0,4059.0,3357.0,3248.0,3477.0,2.09,9.67,2.51,-0.06,0.04,-0.01,1.0,a
3012.0,3279.0,3866.0,3711.0,4050.0,3347.0,3245.0,3487.0,2.48,9.57,2.62,-0.02,-0.01,-0.02,1.0,a
3007.0,3301.0,3859.0,3723.0,4059.0,3356.0,3250.0,3479.0,2.28,9.46,2.64,-0.05,-0.05,-0.06,1.0,a
3008.0,3307.0,3872.0,3714.0,4085.0,3357.0,3247.0,3481.0,2.15,9.56,2.39,-0.04,-0.01,-0.06,1.0,a
3008.0,3283.0,3856.0,3717.0,4067.0,3366.0,3246.0,3479.0,2.25,9.6,2.3,-0.07,0.02,-0.04,1.0,a
3013.0,3280.0,3857.0,3708.0,4055.0,3350.0,3245.0,3487.0,2.28,9.59,2.57,-0.06,0.01,-0.02,1.0,a
3005.0,3280.0,3857.0,3711.0,4067.0,3356.0,3249.0,3479.0,2.27,9.62,2.36,-0.06,0.02,-0.02,1.0,a
3003.0,3280.0,3863.0,3733.0,4075.0,3358.0,3248.0,3482.0,2.26,9.54,2.45,-0.08,-0.01,-0.03,1.0,a
3003.0,3287.0,3856.0,3715.0,4065.0,3351.0,3237.0,3478.0,2.27,9.53,2.57,-0.08,-0.02,-0.0,1.0,a
3002.0,3285.0,3862.0,3706.0,4057.0,3357.0,3248.0,3469.0,2.37,9.62,2.42,-0.09,0.03,-0.04,1.0,a
3007.0,3291.0,3872.0,3725.0,4082.0,3361.0,3252.0,3481.0,2.27,9.54,2.61,-0.09,0.02,-0.04,1.0,a
3007.0,3293.0,3881.0,3711.0,4070.0,3366.0,3248.0,3492.0,2.27,9.47,2.52,-0.04,0.02,-0.02,1.0,a
3002.0,3287.0,3866.0,3709.0,4063.0,3355.0,3245.0,3490.0,2.38,9.62,2.46,-0.06,0.03,-0.03,1.0,a
3008.0,3286.0,3869.0,3714.0,4066.0,3357.0,3248.0,3476.0,2.49,9.57,2.68,-0.04,-0.05,-0.06,1.0,a
3042.0,3275.0,3111.0,3909.0,4095.0,3306.0,3207.0,3458.0,-3.02,7.77,5.43,-0.09,0.06,-0.01,1.0,a
3047.0,3263.0,3119.0,3909.0,4095.0,3317.0,3211.0,3463.0,-3.11,7.79,5.74,-0.07,-0.02,0.01,1.0,a
3037.0,3271.0,3115.0,3909.0,4095.0,3320.0,3214.0,3463.0,-2.94,7.82,5.61,-0.03,0.08,0.02,1.0,a
3024.0,3259.0,3098.0,3899.0,4095.0,3318.0,3213.0,3461.0,-3.18,7.75,5.35,-0.04,0.03,-0.01,1.0,a
3028.0,3263.0,3110.0,3907.0,4095.0,3322.0,3215.0,3469.0,-3.23,7.75,5.45,-0.06,0.06,0.04,1.0,a
3029.0,3261.0,3120.0,3895.0,4095.0,3317.0,3205.0,3459.0,-3.03,7.86,5.33,-0.11,0.03,0.06,1.0,a
3034.0,3262.0,3113.0,3889.0,4095.0,3313.0,3205.0,3458.0,-2.8,7.85,5.55,-0.07,0.07,0.02,1.0,a
3034.0,3268.0,3106.0,3898.0,4095.0,3314.0,3211.0,3467.0,-2.84,7.86,5.47,-0.06,0.01,-0.04,1.0,a
3037.0,3257.0,3114.0,3898.0,4095.0,3323.0,3213.0,3465.0,-2.98,7.9,5.51,-0.01,-0.01,-0.08,1.0,a
3022.0,3263.0,3109.0,3910.0,4095.0,3322.0,3218.0,3472.0,-3.24,7.93,5.29,-0.03,0.01,-0.05,1.0,a
3025.0,3264.0,3120.0,3917.0,4095.0,3329.0,3221.0,3472.0,-2.83,7.87,5.33,-0.1,0.0,-0.0,1.0,a
3036.0,3257.0,3111.0,3917.0,4095.0,3330.0,3216.0,3472.0,-3.18,7.89,5.29,-0.11,-0.02,0.06,1.0,a
3041.0,3264.0,3120.0,3915.0,4095.0,3322.0,3216.0,3467.0,-2.49,7.88,5.7,-0.1,0.0,0.01,1.0,a
3024.0,3259.0,3130.0,4090.0,4095.0,3327.0,3217.0,3473.0,-2.9,7.81,5.72,-0.03,0.02,-0.1,1.0,a
3028.0,3264.0,3120.0,4095.0,4095.0,3322.0,3215.0,3471.0,-3.04,7.92,5.36,0.01,0.02,-0.08,1.0,a
3031.0,3278.0,3120.0,4057.0,4095.0,3325.0,3216.0,3472.0,-3.01,7.95,5.21,-0.03,0.02,-0.03,1.0,a
3034.0,3275.0,3120.0,4035.0,4095.0,3331.0,3219.0,3479.0,-2.98,7.98,5.24,-0.05,-0.01,0.01,1.0,a
3025.0,3257.0,3119.0,4065.0,4095.0,3329.0,3222.0,3481.0,-2.88,7.96,5.49,-0.08,0.01,-0.04,1.0,a
3038.0,3265.0,3126.0,4095.0,4095.0,3321.0,3216.0,3472.0,-3.08,7.92,5.27,-0.09,-0.05,-0.01,1.0,a
3038.0,3259.0,3132.0,4095.0,4064.0,3310.0,3211.0,3472.0,-2.93,7.86,5.55,-0.08,0.09,-0.04,1.0,a
2960.0,3257.0,3600.0,4018.0,3888.0,3363.0,3241.0,3472.0,1.14,9.71,2.74,-0.04,0.03,-0.05,1.0,a
2960.0,3274.0,3597.0,4033.0,3889.0,3373.0,3234.0,3467.0,1.3,9.62,3.02,-0.07,0.03,-0.02,1.0,a
2959.0,3273.0,3598.0,4029.0,3901.0,3365.0,3235.0,3472.0,1.36,9.64,2.92,-0.03,0.03,-0.03,1.0,a
2960.0,3275.0,3597.0,4034.0,3904.0,3375.0,3232.0,3469.0,1.18,9.62,2.92,-0.07,0.02,-0.03,1.0,a
2960.0,3262.0,3600.0,4026.0,3899.0,3373.0,3230.0,3456.0,1.28,9.67,2.86,-0.0,0.04,-0.04,1.0,a
2960.0,3270.0,3600.0,4014.0,3923.0,3376.0,3239.0,3475.0,1.32,9.67,2.82,-0.08,0.0,-0.04,1.0,a
2965.0,3270.0,3581.0,4017.0,3904.0,3374.0,3236.0,3465.0,1.2,9.55,3.04,-0.1,0.07,-0.05,1.0,a
2967.0,3268.0,3583.0,3999.0,3908.0,3366.0,3228.0,3470.0,1.38,9.61,2.85,-0.05,0.0,-0.04,1.0,a
2960.0,3264.0,3598.0,3997.0,3919.0,3376.0,3235.0,3466.0,1.27,9.58,2.89,-0.04,-0.04,-0.07,1.0,a
2973.0,3255.0,3604.0,3919.0,3910.0,3376.0,3235.0,3465.0,1.28,9.62,2.9,-0.04,-0.03,-0.05,1.0,a
2967.0,3255.0,3609.0,3905.0,3898.0,3379.0,3235.0,3466.0,1.34,9.63,2.87,0.05,-0.02,-0.07,1.0,a
2965.0,3265.0,3610.0,3898.0,3911.0,3382.0,3233.0,3474.0,1.14,9.77,2.57,-0.05,-0.02,-0.07,1.0,a
2961.0,3264.0,3603.0,3889.0,3895.0,3387.0,3238.0,3478.0,1.17,9.69,2.83,0.0,-0.02,-0.07,1.0,a
2965.0,3258.0,3610.0,3915.0,3891.0,3376.0,3230.0,3483.0,1.18,9.69,2.6,-0.06,0.07,-0.04,1.0,a
2962.0,3265.0,3617.0,3942.0,3908.0,3401.0,3243.0,3495.0,1.31,9.54,2.97,-0.08,0.14,-0.05,1.0,a
2954.0,3264.0,3633.0,3967.0,3935.0,3398.0,3255.0,3507.0,1.11,9.25,3.13,-0.24,-0.15,-0.03,1.0,a
2960.0,3280.0,3634.0,3975.0,3920.0,3396.0,3253.0,3511.0,1.09,9.39,3.07,-0.14,-0.02,0.01,1.0,a
2962.0,3267.0,3647.0,3984.0,3911.0,3378.0,3248.0,3500.0,1.18,9.46,3.14,-0.04,0.06,-0.04,1.0,a
2967.0,3267.0,3632.0,3978.0,3920.0,3389.0,3248.0,3504.0,1.35,9.57,2.87,0.01,0.03,-0.08,1.0,a
2979.0,3269.0,3639.0,4000.0,3934.0,3402.0,3255.0,3510.0,1.1,9.49,3.06,-0.17,-0.02,-0.02,1.0,a
3062.0,3198.0,3878.0,3857.0,3917.0,3402.0,3237.0,3501.0,-0.28,8.27,5.77,-0.04,0.01,-0.01,1.0,a
3063.0,3196.0,3884.0,3843.0,3915.0,3405.0,3248.0,3504.0,-0.04,8.34,5.85,-0.06,-0.01,-0.01,1.0,a
3060.0,3207.0,3888.0,3847.0,3939.0,3398.0,3239.0,3484.0,0.02,8.34,5.84,-0.04,0.0,-0.07,1.0,a
3063.0,3194.0,3890.0,3851.0,3906.0,3398.0,3243.0,3494.0,-0.06,8.29,5.91,-0.07,0.02,-0.05,1.0,a
3067.0,3184.0,3866.0,3851.0,3909.0,3394.0,3247.0,3507.0,-0.11,8.2,5.9,-0.02,0.03,-0.07,1.0,a
3061.0,3204.0,3876.0,3859.0,3915.0,3391.0,3239.0,3503.0,-0.34,8.3,5.73,-0.05,-0.0,-0.04,1.0,a
3059.0,3200.0,3865.0,3868.0,3935.0,3393.0,3241.0,3503.0,-0.24,8.21,5.91,-0.1,0.01,-0.07,1.0,a
3057.0,3204.0,3883.0,3869.0,3926.0,3399.0,3239.0,3504.0,-0.54,8.26,5.97,-0.07,-0.05,-0.04,1.0,a
3071.0,3198.0,3879.0,3883.0,3941.0,3405.0,3248.0,3504.0,-0.1,8.28,5.83,-0.03,-0.03,0.02,1.0,a
3059.0,3213.0,3908.0,3887.0,3941.0,3407.0,3248.0,3504.0,-0.16,8.34,5.58,-0.06,-0.0,0.01,1.0,a
3071.0,3199.0,3867.0,3873.0,3921.0,3394.0,3244.0,3505.0,0.03,8.25,5.93,-0.11,0.02,-0.02,1.0,a
3069.0,3199.0,3888.0,3873.0,3943.0,3398.0,3245.0,3509.0,-0.02,8.16,6.21,-0.06,-0.02,-0.04,1.0,a
3067.0,3196.0,3879.0,3888.0,3924.0,3408.0,3248.0,3510.0,-0.1,8.32,5.72,-0.01,0.01,-0.06,1.0,a
3056.0,3194.0,3888.0,3862.0,3923.0,3402.0,3243.0,3487.0,-0.11,8.27,5.84,-0.06,-0.0,-0.04,1.0,a
3071.0,3210.0,3888.0,3881.0,3920.0,3405.0,3241.0,3504.0,-0.12,8.24,5.91,-0.05,-0.0,-0.05,1.0,a
3071.0,3202.0,3886.0,3861.0,3920.0,3395.0,3244.0,3506.0,-0.26,8.26,5.78,-0.05,0.02,-0.04,1.0,a
3054.0,3207.0,3859.0,3881.0,3932.0,3404.0,3243.0,3503.0,-0.16,8.32,5.83,-0.06,0.03,-0.04,1.0,a
3054.0,3191.0,3871.0,3884.0,3931.0,3402.0,3248.0,3511.0,-0.08,8.3,5.97,-0.03,0.03,-0.05,1.0,a
3055.0,3198.0,3889.0,3894.0,3951.0,3419.0,3248.0,3525.0,-0.17,8.35,5.84,0.04,0.06,-0.05,1.0,a
3056.0,3191.0,3866.0,3892.0,3952.0,3414.0,3251.0,3519.0,-0.47,8.39,5.45,-0.01,0.23,-0.03,1.0,a
4095.0,3639.0,3612.0,2825.0,4095.0,4095.0,4095.0,4095.0,-0.02,9.79,2.57,-0.05,-0.01,-0.04,1.0,b
4066.0,3641.0,3622.0,2819.0,4095.0,4095.0,4095.0,4095.0,-0.08,9.67,2.7,-0.09,-0.0,-0.03,1.0,b
4074.0,3647.0,3625.0,2822.0,4095.0,4095.0,4095.0,4095.0,0.06,9.72,2.72,-0.05,-0.01,-0.03,1.0,b
4070.0,3645.0,3618.0,2818.0,4095.0,4095.0,4095.0,4095.0,-0.03,9.73,2.59,-0.06,-0.0,-0.05,1.0,b
4062.0,3641.0,3618.0,2823.0,4095.0,4095.0,4095.0,4095.0,0.01,9.78,2.62,-0.05,-0.0,-0.03,1.0,b
4074.0,3655.0,3635.0,2825.0,4095.0,4095.0,4095.0,4095.0,0.08,9.74,2.73,-0.07,-0.01,-0.03,1.0,b
4055.0,3665.0,3615.0,2823.0,4095.0,4095.0,4095.0,4095.0,-0.07,9.73,2.58,-0.06,-0.01,-0.02,1.0,b
4049.0,3648.0,3610.0,2820.0,4095.0,4095.0,4095.0,4095.0,-0.01,9.84,2.62,-0.06,-0.01,-0.05,1.0,b
4071.0,3658.0,3605.0,2825.0,4095.0,4095.0,4095.0,4095.0,-0.06,9.71,2.7,-0.09,0.01,-0.03,1.0,b
4069.0,3655.0,3612.0,2826.0,4095.0,4095.0,4095.0,4095.0,-0.04,9.72,2.63,-0.1,0.01,-0.03,1.0,b
4054.0,3661.0,3599.0,2821.0,4095.0,4095.0,4095.0,4095.0,0.03,9.7,2.69,-0.06,-0.0,-0.03,1.0,b
4077.0,3653.0,3603.0,2825.0,4095.0,4095.0,4095.0,4095.0,-0.03,9.72,2.65,-0.07,0.01,-0.04,1.0,b
4058.0,3649.0,3607.0,2823.0,4095.0,4095.0,4095.0,4095.0,-0.02,9.68,2.75,-0.09,-0.0,-0.02,1.0,b
4080.0,3654.0,3610.0,2825.0,4095.0,4095.0,4095.0,4095.0,0.06,9.75,2.7,-0.06,-0.01,-0.04,1.0,b
4059.0,3648.0,3583.0,2825.0,4095.0,4095.0,4095.0,4095.0,-0.05,9.67,2.84,-0.07,0.0,-0.04,1.0,b
4079.0,3649.0,3606.0,2823.0,4095.0,4095.0,4095.0,4095.0,-0.04,9.73,2.77,-0.08,0.0,-0.02,1.0,b
4050.0,3655.0,3603.0,2831.0,4095.0,4095.0,4095.0,4095.0,0.05,9.75,2.71,-0.06,0.01,-0.04,1.0,b
4064.0,3651.0,3605.0,2823.0,4095.0,4095.0,4095.0,4095.0,-0.05,9.73,2.77,-0.08,0.01,-0.04,1.0,b
4054.0,3651.0,3599.0,2826.0,4095.0,4095.0,4095.0,4095.0,0.0,9.69,2.85,-0.08,0.02,-0.03,1.0,b
4077.0,3653.0,3617.0,2831.0,4095.0,4095.0,4095.0,4095.0,0.26,9.71,2.92,-0.03,0.05,-0.04,1.0,b
3088.0,891.0,3718.0,2853.0,4095.0,4095.0,4095.0,4095.0,0.21,9.55,2.79,-0.21,-0.09,-0.04,1.0,b
3088.0,880.0,3721.0,2871.0,4095.0,4095.0,4095.0,4095.0,-0.03,9.71,2.81,-0.03,0.02,-0.04,1.0,b
3088.0,878.0,3709.0,2874.0,4095.0,4095.0,4095.0,4095.0,0.29,9.72,2.88,-0.04,-0.03,-0.03,1.0,b
3090.0,881.0,3721.0,2871.0,4095.0,4095.0,4095.0,4095.0,0.04,9.65,2.75,-0.06,-0.03,-0.06,1.0,b
3071.0,890.0,3699.0,2869.0,4095.0,4095.0,4095.0,4095.0,0.14,9.74,2.72,-0.06,-0.01,-0.03,1.0,b
3088.0,880.0,3707.0,2876.0,4095.0,4095.0,4095.0,4095.0,-0.08,10.24,1.52,-0.38,0.4,-0.0,1.0,b
3085.0,880.0,3714.0,2880.0,4095.0,4095.0,4095.0,4095.0,0.78,9.53,3.93,-0.21,-0.58,-0.08,1.0,b
3088.0,882.0,3712.0,2880.0,4095.0,4095.0,4095.0,4095.0,0.4,8.94,2.87,-0.38,-0.08,-0.02,1.0,b
3095.0,886.0,3713.0,2869.0,4095.0,4095.0,4095.0,4095.0,0.4,9.13,4.17,-0.3,-0.46,-0.45,1.0,b
3088.0,880.0,3696.0,2877.0,4095.0,4095.0,4095.0,4095.0,-1.12,9.35,3.44,-0.13,0.28,-0.3,1.0,b
3071.0,884.0,3707.0,2879.0,4095.0,4095.0,4095.0,4095.0,-0.88,9.36,3.77,-0.11,-0.14,0.04,1.0,b
3071.0,887.0,3728.0,2878.0,4095.0,4095.0,4095.0,4095.0,-0.1,9.48,3.77,0.04,-0.1,-0.03,1.0,b
3088.0,902.0,3760.0,2862.0,4095.0,4095.0,4095.0,4095.0,0.16,9.52,3.42,-0.03,-0.04,-0.09,1.0,b
3071.0,905.0,3770.0,2863.0,4095.0,4095.0,4095.0,4095.0,-0.26,9.58,3.24,-0.08,-0.04,-0.07,1.0,b
3066.0,899.0,3770.0,2864.0,4095.0,4095.0,4095.0,4095.0,-0.3,9.51,3.48,-0.11,-0.01,-0.06,1.0,b
3071.0,902.0,3765.0,2868.0,4095.0,4095.0,4095.0,4095.0,-0.58,9.35,3.79,-0.06,-0.01,-0.04,1.0,b
3086.0,896.0,3780.0,2869.0,4095.0,4095.0,4095.0,4095.0,-0.27,9.41,3.71,-0.02,-0.01,-0.0,1.0,b
3088.0,900.0,3758.0,2866.0,4095.0,4095.0,4095.0,4095.0,-0.23,9.51,3.43,-0.01,-0.02,-0.02,1.0,b
3086.0,897.0,3749.0,2874.0,4095.0,4095.0,4095.0,4095.0,-0.4,9.48,3.37,-0.07,0.02,-0.03,1.0,b
3071.0,902.0,3755.0,2876.0,4095.0,4095.0,4095.0,4095.0,-0.29,9.5,3.48,-0.09,-0.0,-0.03,1.0,b
3371.0,2759.0,3766.0,2924.0,4095.0,4095.0,4095.0,4095.0,-3.73,7.37,5.64,-0.1,0.04,-0.01,1.0,b
3371.0,2759.0,3734.0,2929.0,4095.0,4095.0,4095.0,4095.0,-3.53,7.28,5.77,-0.06,-0.02,-0.02,1.0,b
3373.0,2758.0,3761.0,2931.0,4095.0,4095.0,4095.0,4095.0,-3.54,7.35,5.82,-0.04,0.02,-0.05,1.0,b
3376.0,2768.0,3753.0,2931.0,4095.0,4095.0,4095.0,4095.0,-3.7,7.39,5.62,-0.07,0.05,-0.06,1.0,b
3372.0,2768.0,3764.0,2923.0,4095.0,4095.0,4095.0,4095.0,-3.68,7.36,5.58,-0.12,0.03,-0.03,1.0,b
3374.0,2758.0,3744.0,2928.0,4095.0,4095.0,4095.0,4095.0,-3.86,7.24,5.79,-0.07,-0.0,-0.06,1.0,b
3387.0,2752.0,3756.0,2928.0,4095.0,4095.0,4095.0,4095.0,-3.6,7.35,5.81,-0.01,0.02,-0.06,1.0,b
3379.0,2799.0,3762.0,2928.0,4095.0,4095.0,4095.0,4095.0,-3.75,7.27,5.7,-0.05,-0.02,-0.1,1.0,b
3397.0,2812.0,3778.0,2934.0,4095.0,4095.0,4095.0,4095.0,-4.02,7.22,5.77,-0.03,-0.0,-0.03,1.0,b
3381.0,2787.0,3781.0,2931.0,4095.0,4095.0,4095.0,4095.0,-3.87,7.24,5.65,-0.06,0.02,-0.01,1.0,b
3367.0,2793.0,3772.0,2934.0,4095.0,4095.0,4095.0,4095.0,-3.84,7.26,5.78,-0.05,0.0,-0.01,1.0,b
3365.0,2799.0,3780.0,2914.0,4095.0,4095.0,4095.0,4095.0,-3.68,7.32,5.58,-0.07,0.03,-0.03,1.0,b
3355.0,2780.0,3784.0,2915.0,4095.0,4095.0,4095.0,4095.0,-3.76,7.31,5.58,-0.07,0.01,-0.07,1.0,b
3358.0,2790.0,3771.0,2927.0,4095.0,4095.0,4095.0,4095.0,-3.82,7.28,5.65,-0.07,0.01,-0.06,1.0,b
3350.0,2801.0,3779.0,2919.0,4095.0,4095.0,4095.0,4095.0,-3.92,7.27,5.69,-0.1,0.01,-0.06,1.0,b
3319.0,2797.0,3790.0,2928.0,4095.0,4095.0,4095.0,4095.0,-3.97,7.28,5.69,-0.11,0.0,-0.05,1.0,b
3327.0,2803.0,3803.0,2928.0,4095.0,4095.0,4095.0,4095.0,-3.95,7.2,5.71,-0.03,0.01,0.01,1.0,b
3331.0,2832.0,3785.0,2921.0,4095.0,4095.0,4095.0,4095.0,-3.74,7.33,5.59,-0.09,-0.06,0.03,1.0,b
3325.0,2873.0,3789.0,2928.0,4095.0,4095.0,4095.0,4095.0,-3.52,7.45,5.37,-0.0,-0.03,-0.02,1.0,b
3207.0,2926.0,3789.0,2927.0,4095.0,4095.0,4095.0,4095.0,-3.88,7.43,5.63,-0.13,0.0,-0.09,1.0,b
3054.0,1734.0,3639.0,2943.0,4095.0,4095.0,4095.0,4095.0,0.71,9.53,3.31,-0.09,-0.01,0.03,1.0,b
3039.0,1747.0,3634.0,2951.0,4095.0,4095.0,4095.0,4095.0,0.85,9.55,3.41,-0.1,0.03,-0.03,1.0,b
3047.0,1762.0,3649.0,2949.0,4095.0,4095.0,4095.0,4095.0,0.54,9.45,3.52,-0.1,0.02,-0.05,1.0,b
3047.0,1752.0,3635.0,2945.0,4095.0,4095.0,4095.0,4095.0,0.65,9.48,3.59,-0.05,0.01,-0.03,1.0,b
3047.0,1757.0,3637.0,2945.0,4095.0,4095.0,4095.0,4095.0,0.64,9.58,3.37,-0.05,0.04,-0.01,1.0,b
3048.0,1763.0,3636.0,2945.0,4095.0,4095.0,4095.0,4095.0,0.67,9.51,3.45,-0.13,0.01,-0.05,1.0,b
3049.0,1758.0,3655.0,2930.0,4095.0,4095.0,4095.0,4095.0,0.63,9.39,3.65,-0.02,0.01,-0.03,1.0,b
3051.0,1757.0,3661.0,2928.0,4095.0,4095.0,4095.0,4095.0,0.74,9.53,3.52,-0.04,-0.03,-0.03,1.0,b
3051.0,1755.0,3643.0,2928.0,4095.0,4095.0,4095.0,4095.0,0.57,9.43,3.46,-0.07,-0.01,-0.02,1.0,b
3036.0,1762.0,3649.0,2911.0,4095.0,4095.0,4095.0,4095.0,0.67,9.5,3.4,-0.1,-0.05,-0.02,1.0,b
3035.0,1775.0,3650.0,2917.0,4095.0,4095.0,4095.0,4095.0,0.69,9.45,3.75,-0.09,0.0,-0.03,1.0,b
3039.0,1761.0,3641.0,2915.0,4095.0,4095.0,4095.0,4095.0,0.66,9.47,3.63,-0.06,0.01,-0.04,1.0,b
3043.0,1764.0,3633.0,2922.0,4095.0,4095.0,4095.0,4095.0,0.71,9.5,3.57,-0.06,-0.01,-0.03,1.0,b
3047.0,1763.0,3664.0,2920.0,4095.0,4095.0,4095.0,4095.0,0.67,9.5,3.53,-0.06,0.02,-0.04,1.0,b
3044.0,1770.0,3659.0,2928.0,4095.0,4095.0,4095.0,4095.0,0.66,9.46,3.52,-0.05,-0.01,-0.04,1.0,b
3038.0,1775.0,3652.0,2923.0,4095.0,4095.0,4095.0,4095.0,0.64,9.52,3.46,-0.07,0.04,-0.03,1.0,b
3041.0,1772.0,3632.0,2923.0,4095.0,4095.0,4095.0,4095.0,0.69,9.49,3.5,-0.06,0.02,-0.03,1.0,b
3047.0,1772.0,3651.0,2928.0,4095.0,4095.0,4095.0,4095.0,0.66,9.46,3.56,-0.07,0.0,-0.03,1.0,b
3039.0,1774.0,3638.0,2928.0,4095.0,4095.0,4095.0,4095.0,0.64,9.43,3.56,-0.07,-0.02,-0.04,1.0,b
3041.0,1770.0,3659.0,2930.0,4095.0,4095.0,4095.0,4095.0,0.67,9.45,3.58,-0.04,0.0,-0.05,1.0,b
3062.0,4095.0,3807.0,3583.0,4095.0,4095.0,4095.0,4095.0,-0.77,7.54,6.91,-0.03,0.07,0.0,1.0,b
3083.0,4095.0,3810.0,3570.0,4095.0,4095.0,4095.0,4095.0,-0.74,7.41,6.85,-0.05,-0.03,-0.05,1.0,b
3081.0,4095.0,3811.0,3568.0,4095.0,4095.0,4095.0,4095.0,-0.88,7.5,6.66,-0.04,-0.01,-0.06,1.0,b
3070.0,4095.0,3814.0,3552.0,4095.0,4095.0,4095.0,4095.0,-1.04,7.47,6.55,-0.07,-0.01,-0.04,1.0,b
3062.0,4095.0,3819.0,3555.0,4095.0,4095.0,4095.0,4095.0,-0.81,7.57,6.79,-0.07,-0.02,-0.01,1.0,b
3066.0,4095.0,3795.0,3559.0,4095.0,4095.0,4095.0,4095.0,-0.8,7.4,6.92,-0.08,-0.06,-0.06,1.0,b
3110.0,4095.0,3803.0,3536.0,4095.0,4095.0,4095.0,4095.0,-1.06,7.69,6.73,-0.06,0.09,-0.02,1.0,b
3121.0,4095.0,3783.0,3568.0,4095.0,4095.0,4095.0,4095.0,-0.94,7.63,6.56,-0.03,0.04,-0.04,1.0,b
3127.0,4095.0,3795.0,3344.0,4095.0,4095.0,4095.0,4095.0,-1.06,7.55,6.6,-0.17,-0.01,0.0,1.0,b
3108.0,4095.0,3794.0,2981.0,4095.0,4095.0,4095.0,4095.0,-0.91,7.57,6.81,-0.09,0.01,-0.01,1.0,b
3122.0,4095.0,3791.0,2800.0,4095.0,4095.0,4095.0,4095.0,-0.88,7.24,6.8,-0.0,0.0,-0.01,1.0,b
3116.0,4095.0,3792.0,2677.0,4095.0,4095.0,4095.0,4095.0,-0.83,7.53,6.74,0.01,0.15,-0.03,1.0,b
3114.0,4095.0,3795.0,2629.0,4095.0,4095.0,4095.0,4095.0,-1.19,7.55,6.59,-0.01,0.04,-0.07,1.0,b
3102.0,4095.0,3783.0,2647.0,4095.0,4095.0,4095.0,4095.0,-1.0,7.33,6.75,-0.12,-0.06,-0.03,1.0,b
3119.0,4095.0,3789.0,2683.0,4095.0,4095.0,4095.0,4095.0,-1.02,7.62,6.78,-0.0,-0.07,-0.06,1.0,b
3113.0,4095.0,3797.0,2702.0,4095.0,4095.0,4095.0,4095.0,-1.1,7.51,6.56,-0.06,0.0,-0.03,1.0,b
3090.0,4095.0,3792.0,2709.0,4095.0,4095.0,4095.0,4095.0,-1.13,7.71,6.57,-0.03,0.01,-0.03,1.0,b
3093.0,4095.0,3787.0,2714.0,4095.0,4095.0,4095.0,4095.0,-1.03,7.59,6.53,-0.12,-0.01,-0.03,1.0,b
3110.0,4095.0,3797.0,2721.0,4095.0,4095.0,4095.0,4095.0,-1.04,7.61,6.7,-0.1,0.04,-0.01,1.0,b
3102.0,4095.0,3805.0,2718.0,4095.0,4095.0,4095.0,4095.0,-0.93,7.56,6.78,-0.08,0.01,-0.01,1.0,b
4095.0,4095.0,3758.0,2767.0,4095.0,4095.0,4095.0,4095.0,-3.48,9.18,2.15,-0.04,-0.03,-0.3,1.0,b
4095.0,4095.0,3777.0,2773.0,4095.0,4095.0,4095.0,4095.0,-3.9,9.18,1.86,-0.07,-0.07,-0.06,1.0,b
4095.0,4095.0,3758.0,2772.0,4095.0,4095.0,4095.0,4095.0,-3.05,9.26,1.91,-0.06,-0.1,0.03,1.0,b
4095.0,4095.0,3755.0,2779.0,4095.0,4095.0,4095.0,4095.0,-2.73,9.21,2.22,-0.01,0.05,-0.01,1.0,b
4095.0,4095.0,3760.0,2775.0,4095.0,4095.0,4095.0,4095.0,-2.92,9.21,2.21,-0.05,0.0,-0.05,1.0,b
4095.0,4095.0,3746.0,2774.0,4095.0,4095.0,4095.0,4095.0,-3.1,9.3,1.9,-0.02,-0.01,-0.08,1.0,b
4095.0,4095.0,3771.0,2785.0,4095.0,4095.0,4095.0,4095.0,-3.08,9.22,1.99,-0.07,-0.02,-0.01,1.0,b
4095.0,4095.0,3751.0,2780.0,4095.0,4095.0,4095.0,4095.0,-3.03,9.27,2.06,-0.09,-0.01,-0.02,1.0,b
4095.0,4095.0,3769.0,2794.0,4095.0,4095.0,4095.0,4095.0,-2.8,9.12,2.12,-0.03,0.03,-0.07,1.0,b
4095.0,4095.0,3762.0,2790.0,4095.0,4095.0,4095.0,4095.0,-3.32,9.19,1.96,-0.05,0.04,-0.06,1.0,b
4095.0,4095.0,3760.0,2790.0,4095.0,4095.0,4095.0,4095.0,-3.25,9.32,1.76,-0.12,-0.03,-0.01,1.0,b
4095.0,4095.0,3759.0,2798.0,4095.0,4095.0,4095.0,4095.0,-3.0,9.29,2.03,-0.09,0.03,-0.01,1.0,b
4095.0,4095.0,3760.0,2797.0,4095.0,4095.0,4095.0,4095.0,-3.06,9.24,2.17,-0.1,0.06,-0.03,1.0,b
4095.0,4095.0,3766.0,2800.0,4095.0,4095.0,4095.0,4095.0,-3.11,9.31,2.03,-0.09,0.06,-0.01,1.0,b
4095.0,4095.0,3748.0,2795.0,4095.0,4095.0,4095.0,4095.0,-2.95,9.25,2.09,-0.09,0.06,-0.02,1.0,b
4095.0,4095.0,3760.0,2800.0,4095.0,4095.0,4095.0,4095.0,-2.99,9.3,2.1,-0.09,-0.0,-0.03,1.0,b
4095.0,4095.0,3758.0,2805.0,4095.0,4095.0,4095.0,4095.0,-3.05,9.24,2.18,-0.06,0.03,-0.02,1.0,b
4095.0,4095.0,3766.0,2804.0,4095.0,4095.0,4095.0,4095.0,-2.99,9.27,2.12,-0.04,0.02,-0.02,1.0,b
4095.0,4095.0,3754.0,2805.0,4095.0,4095.0,4095.0,4095.0,-2.93,9.25,2.13,-0.06,-0.0,-0.02,1.0,b
4095.0,4095.0,3760.0,2809.0,4095.0,4095.0,4095.0,4095.0,-3.01,9.3,2.03,-0.06,0.03,-0.02,1.0,b
3853.0,4095.0,3642.0,2770.0,4095.0,4095.0,4095.0,4095.0,0.45,8.39,5.7,-0.01,0.06,-0.04,1.0,b
3749.0,4095.0,3649.0,2768.0,4095.0,4095.0,4095.0,4095.0,0.36,8.52,5.6,-0.07,-0.0,-0.02,1.0,b
3695.0,4095.0,3632.0,2766.0,4095.0,4095.0,4095.0,4095.0,0.45,8.4,5.67,-0.11,-0.01,-0.04,1.0,b
3693.0,4095.0,3632.0,2768.0,4095.0,4095.0,4095.0,4095.0,0.31,8.42,5.72,-0.11,0.02,-0.01,1.0,b
3646.0,4095.0,3648.0,2768.0,4095.0,4095.0,4095.0,4095.0,0.46,8.25,6.01,-0.1,-0.05,-0.02,1.0,b
3633.0,4095.0,3649.0,2771.0,4095.0,4095.0,4095.0,4095.0,0.63,8.26,6.05,0.05,0.02,-0.09,1.0,b
3619.0,4095.0,3628.0,2763.0,4095.0,4095.0,4095.0,4095.0,0.5,8.6,5.31,0.02,0.02,-0.11,1.0,b
3581.0,4095.0,3643.0,2768.0,4095.0,4095.0,4095.0,4095.0,0.28,8.52,5.42,-0.04,-0.03,-0.11,1.0,b
3575.0,4095.0,3638.0,2770.0,4095.0,4095.0,4095.0,4095.0,0.05,8.45,5.69,-0.02,0.01,-0.06,1.0,b
3558.0,4095.0,3637.0,2769.0,4095.0,4095.0,4095.0,4095.0,0.38,8.54,5.53,-0.02,-0.04,-0.03,1.0,b
3573.0,4095.0,3632.0,2769.0,4095.0,4095.0,4095.0,4095.0,0.29,8.5,5.45,-0.03,0.02,-0.1,1.0,b
3600.0,4095.0,3635.0,2768.0,4095.0,4095.0,4095.0,4095.0,0.28,8.52,5.76,0.01,-0.02,-0.07,1.0,b
3600.0,4095.0,3642.0,2771.0,4095.0,4095.0,4095.0,4095.0,0.28,8.66,5.35,0.02,-0.02,-0.08,1.0,b
3571.0,4095.0,3650.0,2770.0,4095.0,4095.0,4095.0,4095.0,0.01,8.62,5.2,-0.07,-0.03,-0.05,1.0,b
3578.0,4095.0,3637.0,2774.0,4095.0,4095.0,4095.0,4095.0,0.07,8.6,5.41,-0.09,-0.01,-0.01,1.0,b
3577.0,4095.0,3646.0,2784.0,4095.0,4095.0,4095.0,4095.0,0.36,8.54,5.59,-0.04,0.01,-0.02,1.0,b
3571.0,4095.0,3643.0,2782.0,4095.0,4095.0,4095.0,4095.0,0.34,8.7,5.23,-0.05,-0.03,-0.04,1.0,b
3568.0,4095.0,3639.0,2785.0,4095.0,4095.0,4095.0,4095.0,0.15,8.58,5.41,-0.1,-0.04,-0.06,1.0,b
3561.0,4095.0,3655.0,2789.0,4095.0,4095.0,4095.0,4095.0,-0.09,8.66,5.32,-0.09,0.06,-0.02,1.0,b
3551.0,4095.0,3642.0,2787.0,4095.0,4095.0,4095.0,4095.0,0.27,8.5,5.75,-0.04,0.02,0.01,1.0,b
903.0,4095.0,3573.0,2896.0,4095.0,4095.0,4095.0,4095.0,-2.44,6.86,7.03,-0.07,0.03,-0.02,1.0,b
901.0,4095.0,3568.0,2896.0,4095.0,4095.0,4095.0,4095.0,-2.4,6.82,7.03,-0.06,0.02,-0.02,1.0,b
897.0,4095.0,3583.0,2899.0,4095.0,4095.0,4095.0,4095.0,-2.35,6.92,6.9,-0.05,0.01,-0.03,1.0,b
894.0,4095.0,3571.0,2896.0,4095.0,4095.0,4095.0,4095.0,-2.49,6.88,6.92,-0.06,0.05,-0.02,1.0,b
895.0,4095.0,3581.0,2889.0,4095.0,4095.0,4095.0,4095.0,-2.41,6.92,6.88,-0.08,0.02,-0.02,1.0,b
906.0,4095.0,3583.0,2880.0,4095.0,4095.0,4095.0,4095.0,-2.5,6.92,6.83,-0.11,0.06,0.0,1.0,b
901.0,4095.0,3563.0,2874.0,4095.0,4095.0,4095.0,4095.0,-2.33,6.75,7.22,-0.14,0.02,-0.02,1.0,b
896.0,4091.0,3568.0,2879.0,4095.0,4095.0,4095.0,4095.0,-2.69,6.65,7.27,-0.14,0.01,-0.03,1.0,b
897.0,4078.0,3571.0,2879.0,4095.0,4095.0,4095.0,4095.0,-2.32,6.79,7.05,0.09,0.07,-0.03,1.0,b
893.0,4083.0,3550.0,2867.0,4095.0,4095.0,4095.0,4095.0,-2.54,6.96,6.66,-0.04,0.02,-0.03,1.0,b
886.0,4081.0,3566.0,2874.0,4095.0,4095.0,4095.0,4095.0,-2.62,6.92,6.79,-0.08,0.02,-0.02,1.0,b
891.0,4095.0,3568.0,2879.0,4095.0,4095.0,4095.0,4095.0,-2.48,6.93,6.79,-0.11,0.01,-0.01,1.0,b
895.0,4083.0,3557.0,2879.0,4095.0,4095.0,4095.0,4095.0,-2.42,6.9,6.88,-0.07,0.04,-0.04,1.0,b
893.0,4094.0,3557.0,2879.0,4095.0,4095.0,4095.0,4095.0,-2.52,6.82,6.95,-0.12,-0.05,-0.04,1.0,b
901.0,4089.0,3568.0,2880.0,4095.0,4095.0,4095.0,4095.0,-2.55,6.88,7.0,-0.09,-0.03,-0.03,1.0,b
896.0,4077.0,3564.0,2878.0,4095.0,4095.0,4095.0,4095.0,-2.43,6.78,6.92,-0.1,-0.03,-0.03,1.0,b
901.0,4095.0,3565.0,2880.0,4095.0,4095.0,4095.0,4095.0,-2.51,6.9,7.03,-0.1,-0.02,-0.02,1.0,b
899.0,4091.0,3567.0,2884.0,4095.0,4095.0,4095.0,4095.0,-2.38,6.77,6.97,-0.14,-0.07,-0.03,1.0,b
903.0,4095.0,3569.0,2880.0,4095.0,4095.0,4095.0,4095.0,-2.39,6.73,7.21,-0.1,-0.04,-0.05,1.0,b
896.0,4078.0,3553.0,2863.0,4095.0,4095.0,4095.0,4095.0,-2.49,6.71,7.06,-0.08,-0.05,-0.04,1.0,b
3131.0,4095.0,3531.0,2767.0,4095.0,4095.0,4095.0,4095.0,0.28,9.98,1.73,-0.1,0.0,-0.01,1.0,b
3135.0,4095.0,3543.0,2768.0,4095.0,4095.0,4095.0,4095.0,0.26,9.85,2.07,-0.08,-0.02,-0.04,1.0,b
3121.0,4095.0,3544.0,2765.0,4095.0,4095.0,4095.0,4095.0,0.38,9.86,1.88,-0.02,-0.02,-0.04,1.0,b
3129.0,4095.0,3545.0,2768.0,4095.0,4095.0,4095.0,4095.0,0.35,9.96,1.77,-0.07,0.0,-0.03,1.0,b
3127.0,4095.0,3541.0,2766.0,4095.0,4095.0,4095.0,4095.0,0.34,9.95,1.88,-0.07,0.01,-0.03,1.0,b
3130.0,4095.0,3548.0,2771.0,4095.0,4095.0,4095.0,4095.0,0.32,9.95,1.74,-0.05,0.02,-0.03,1.0,b
3121.0,4095.0,3536.0,2768.0,4095.0,4095.0,4095.0,4095.0,0.42,9.86,1.8,-0.06,0.01,-0.04,1.0,b
3138.0,4095.0,3548.0,2773.0,4095.0,4095.0,4095.0,4095.0,0.38,9.86,1.82,-0.07,-0.03,-0.05,1.0,b
3131.0,4095.0,3557.0,2777.0,4095.0,4095.0,4095.0,4095.0,0.27,9.9,1.8,-0.06,0.01,-0.04,1.0,b
3126.0,4095.0,3547.0,2771.0,4095.0,4095.0,4095.0,4095.0,0.38,9.93,1.8,-0.0,-0.0,0.02,1.0,b
3133.0,4095.0,3545.0,2774.0,4095.0,4095.0,4095.0,4095.0,0.45,9.95,1.8,-0.08,0.03,-0.03,1.0,b
3123.0,4095.0,3558.0,2771.0,4095.0,4095.0,4095.0,4095.0,0.33,9.89,1.87,-0.07,-0.02,-0.05,1.0,b
3133.0,4095.0,3565.0,2773.0,4095.0,4095.0,4095.0,4095.0,0.43,9.89,1.79,-0.07,0.03,-0.05,1.0,b
3134.0,4095.0,3566.0,2772.0,4095.0,4095.0,4095.0,4095.0,0.43,9.93,1.85,-0.07,-0.01,-0.05,1.0,b
3135.0,4095.0,3542.0,2770.0,4095.0,4095.0,4095.0,4095.0,0.3,9.91,1.9,-0.07,0.0,-0.04,1.0,b
3125.0,4095.0,3563.0,2774.0,4095.0,4095.0,4095.0,4095.0,0.38,9.93,1.92,-0.02,-0.01,-0.03,1.0,b
3133.0,4095.0,3547.0,2775.0,4095.0,4095.0,4095.0,4095.0,0.48,9.97,1.85,-0.01,0.0,-0.03,1.0,b
3121.0,4095.0,3550.0,2772.0,4095.0,4095.0,4095.0,4095.0,0.35,9.96,1.76,-0.06,0.01,-0.03,1.0,b
3093.0,4095.0,3559.0,2778.0,4095.0,4095.0,4095.0,4095.0,0.38,9.93,1.81,-0.12,0.02,-0.03,1.0,b
3131.0,4095.0,3540.0,2787.0,4095.0,4095.0,4095.0,4095.0,0.4,10.02,1.83,-0.06,0.03,-0.02,1.0,b
911.0,3531.0,3477.0,2795.0,4095.0,4095.0,4095.0,4095.0,-2.65,8.81,4.04,-0.07,-0.04,-0.0,1.0,b
909.0,3525.0,3478.0,2802.0,4095.0,4095.0,4095.0,4095.0,-2.78,8.78,3.84,-0.06,0.03,-0.05,1.0,b
910.0,3529.0,3485.0,2800.0,4095.0,4095.0,4095.0,4095.0,-3.01,8.71,4.0,-0.03,-0.03,-0.07,1.0,b
898.0,3520.0,3485.0,2805.0,4095.0,4095.0,4095.0,4095.0,-2.97,8.69,3.96,-0.0,0.01,-0.04,1.0,b
903.0,3530.0,3473.0,2799.0,4095.0,4095.0,4095.0,4095.0,-2.83,8.78,3.79,-0.04,-0.01,-0.03,1.0,b
903.0,3518.0,3462.0,2802.0,4095.0,4095.0,4095.0,4095.0,-2.94,8.7,3.84,-0.07,-0.0,-0.04,1.0,b
906.0,3517.0,3487.0,2811.0,4095.0,4095.0,4095.0,4095.0,-2.98,8.7,3.84,-0.06,-0.02,-0.05,1.0,b
906.0,3518.0,3473.0,2805.0,4095.0,4095.0,4095.0,4095.0,-2.99,8.79,3.88,-0.07,-0.01,-0.07,1.0,b
901.0,3523.0,3481.0,2821.0,4095.0,4095.0,4095.0,4095.0,-3.06,8.7,3.75,-0.08,-0.04,-0.05,1.0,b
898.0,3509.0,3482.0,2815.0,4095.0,4095.0,4095.0,4095.0,-2.97,8.69,3.94,-0.07,0.02,-0.03,1.0,b
899.0,3527.0,3472.0,2818.0,4095.0,4095.0,4095.0,4095.0,-2.99,8.7,3.97,-0.06,-0.02,-0.05,1.0,b
897.0,3519.0,3483.0,2822.0,4095.0,4095.0,4095.0,4095.0,-3.1,8.74,3.85,-0.05,0.0,-0.03,1.0,b
903.0,3520.0,3475.0,2818.0,4095.0,4095.0,4095.0,4095.0,-3.04,8.74,3.77,-0.05,0.01,-0.03,1.0,b
896.0,3515.0,3482.0,2820.0,4095.0,4095.0,4095.0,4095.0,-2.98,8.77,3.72,-0.06,-0.0,-0.03,1.0,b
906.0,3518.0,3470.0,2818.0,4095.0,4095.0,4095.0,4095.0,-2.99,8.75,3.81,-0.07,-0.0,-0.03,1.0,b
913.0,3510.0,3479.0,2811.0,4095.0,4095.0,4095.0,4095.0,-2.97,8.71,3.87,-0.07,-0.01,-0.03,1.0,b
906.0,3519.0,3469.0,2819.0,4095.0,4095.0,4095.0,4095.0,-2.92,8.66,3.84,-0.06,0.01,-0.03,1.0,b
896.0,3509.0,3477.0,2816.0,4095.0,4095.0,4095.0,4095.0,-3.0,8.75,3.68,-0.07,-0.02,-0.04,1.0,b
909.0,3507.0,3472.0,2815.0,4095.0,4095.0,4095.0,4095.0,-3.02,8.72,3.91,-0.07,0.0,-0.02,1.0,b
897.0,3522.0,3474.0,2818.0,4095.0,4095.0,4095.0,4095.0,-2.94,8.81,3.8,-0.05,0.03,-0.03,1.0,b
3922.0,3619.0,3486.0,2833.0,4095.0,4095.0,4095.0,4095.0,0.62,9.62,3.17,-0.09,0.03,-0.02,1.0,b
3929.0,3641.0,3495.0,2839.0,4095.0,4095.0,4095.0,4095.0,0.73,9.54,3.37,-0.11,0.03,-0.03,1.0,b
3904.0,3647.0,3488.0,2837.0,4095.0,4095.0,4095.0,4095.0,0.64,9.52,3.38,-0.07,0.03,-0.03,1.0,b
3942.0,3646.0,3501.0,2848.0,4095.0,4095.0,4095.0,4095.0,0.67,9.52,3.32,-0.09,-0.01,-0.03,1.0,b
3924.0,3642.0,3491.0,2843.0,4095.0,4095.0,4095.0,4095.0,0.72,9.53,3.49,-0.06,0.01,-0.03,1.0,b
3912.0,3632.0,3489.0,2843.0,4095.0,4095.0,4095.0,4095.0,0.6,9.56,3.33,-0.06,0.0,-0.05,1.0,b
3918.0,3623.0,3485.0,2851.0,4095.0,4095.0,4095.0,4095.0,0.51,9.45,3.55,-0.07,0.01,-0.05,1.0,b
3925.0,3636.0,3493.0,2851.0,4095.0,4095.0,4095.0,4095.0,1.05,9.71,3.07,0.05,0.01,0.02,1.0,b
3902.0,3635.0,3501.0,2850.0,4095.0,4095.0,4095.0,4095.0,0.54,9.52,3.25,-0.12,-0.02,-0.1,1.0,b
3944.0,3653.0,3490.0,2853.0,4095.0,4095.0,4095.0,4095.0,0.55,9.48,3.61,-0.02,0.0,-0.04,1.0,b
3931.0,3632.0,3499.0,2861.0,4095.0,4095.0,4095.0,4095.0,0.62,9.65,3.06,-0.03,-0.02,-0.05,1.0,b
3938.0,3637.0,3479.0,2864.0,4095.0,4095.0,4095.0,4095.0,0.59,9.54,3.24,-0.06,-0.01,-0.05,1.0,b
3929.0,3639.0,3493.0,2864.0,4095.0,4095.0,4095.0,4095.0,0.63,9.54,3.33,-0.05,0.0,-0.03,1.0,b
3924.0,3647.0,3497.0,2866.0,4095.0,4095.0,4095.0,4095.0,0.65,9.61,3.23,-0.07,-0.02,-0.05,1.0,b
3925.0,3633.0,3481.0,2851.0,4095.0,4095.0,4095.0,4095.0,0.63,9.38,3.48,-0.06,-0.05,-0.07,1.0,b
3905.0,3638.0,3488.0,2863.0,4095.0,4095.0,4095.0,4095.0,0.64,9.64,3.12,-0.01,-0.02,-0.05,1.0,b
3904.0,3621.0,3486.0,2861.0,4095.0,4095.0,4095.0,4095.0,0.53,9.61,3.1,-0.07,0.01,-0.03,1.0,b
3930.0,3630.0,3491.0,2858.0,4095.0,4095.0,4095.0,4095.0,0.62,9.59,3.26,-0.06,-0.0,-0.03,1.0,b
3939.0,3637.0,3504.0,2864.0,4095.0,4095.0,4095.0,4095.0,0.65,9.59,3.2,-0.06,0.03,-0.03,1.0,b
3919.0,3641.0,3499.0,2862.0,4095.0,4095.0,4095.0,4095.0,0.63,9.57,3.29,-0.1,0.01,-0.03,1.0,b
3408.0,3598.0,3664.0,2826.0,4095.0,4095.0,4095.0,4095.0,-3.36,8.17,4.71,-0.09,0.01,-0.06,1.0,b
3391.0,3597.0,3661.0,2826.0,4095.0,4095.0,4095.0,4095.0,-3.29,8.08,4.8,-0.11,-0.03,-0.05,1.0,b
3407.0,3601.0,3676.0,2833.0,4095.0,4095.0,4095.0,4095.0,-3.16,8.11,5.06,-0.08,-0.02,-0.03,1.0,b
3406.0,3583.0,3668.0,2829.0,4095.0,4095.0,4095.0,4095.0,-3.21,8.16,4.75,-0.06,0.01,-0.05,1.0,b
3405.0,3598.0,3675.0,2835.0,4095.0,4095.0,4095.0,4095.0,-3.3,8.09,4.82,-0.1,0.01,-0.04,1.0,b
3409.0,3598.0,3662.0,2832.0,4095.0,4095.0,4095.0,4095.0,-3.26,8.09,4.94,-0.08,-0.01,-0.04,1.0,b
3404.0,3583.0,3661.0,2833.0,4095.0,4095.0,4095.0,4095.0,-3.15,8.06,4.89,-0.07,0.0,-0.07,1.0,b
3472.0,3605.0,3673.0,2837.0,4095.0,4095.0,4095.0,4095.0,-3.26,8.15,4.79,-0.03,0.01,-0.08,1.0,b
3440.0,3609.0,3674.0,2835.0,4095.0,4095.0,4095.0,4095.0,-3.38,8.08,4.77,-0.08,0.04,-0.08,1.0,b
3408.0,3574.0,3655.0,2833.0,4095.0,4095.0,4095.0,4095.0,-3.5,8.04,4.87,-0.09,0.07,-0.07,1.0,b
3407.0,3583.0,3664.0,2837.0,4095.0,4095.0,4095.0,4095.0,-3.59,7.98,4.78,-0.09,0.12,-0.01,1.0,b
3389.0,3602.0,3652.0,2839.0,4095.0,4095.0,4095.0,4095.0,-3.41,8.05,4.74,-0.1,-0.0,-0.02,1.0,b
3379.0,3583.0,3641.0,2835.0,4095.0,4095.0,4095.0,4095.0,-3.42,8.05,4.85,-0.07,0.0,-0.04,1.0,b
3390.0,3583.0,3633.0,2837.0,4095.0,4095.0,4095.0,4095.0,-3.49,8.03,4.81,-0.07,0.01,-0.04,1.0,b
3397.0,3603.0,3667.0,2839.0,4095.0,4095.0,4095.0,4095.0,-3.39,8.04,4.86,-0.08,-0.01,-0.03,1.0,b
3389.0,3603.0,3664.0,2839.0,4095.0,4095.0,4095.0,4095.0,-3.42,8.02,4.89,-0.08,-0.02,-0.03,1.0,b
3383.0,3598.0,3648.0,2843.0,4095.0,4095.0,4095.0,4095.0,-3.46,8.02,4.94,-0.08,-0.01,-0.04,1.0,b
3394.0,3599.0,3662.0,2839.0,4095.0,4095.0,4095.0,4095.0,-3.4,8.01,4.97,-0.06,0.0,-0.03,1.0,b
3391.0,3602.0,3645.0,2839.0,4095.0,4095.0,4095.0,4095.0,-3.39,8.02,4.97,-0.06,-0.01,-0.04,1.0,b
3376.0,3602.0,3663.0,2851.0,4095.0,4095.0,4095.0,4095.0,-3.41,8.0,4.95,-0.04,0.03,-0.03,1.0,b
911.0,3719.0,3581.0,2829.0,4095.0,4095.0,4095.0,4095.0,2.02,9.6,2.6,-0.07,0.02,-0.04,1.0,b
909.0,3705.0,3583.0,2830.0,4095.0,4095.0,4095.0,4095.0,1.76,9.66,2.61,-0.05,-0.0,-0.04,1.0,b
898.0,3702.0,3583.0,2830.0,4095.0,4095.0,4095.0,4095.0,1.89,9.57,2.66,-0.03,0.01,-0.04,1.0,b
910.0,3706.0,3578.0,2822.0,4095.0,4095.0,4095.0,4095.0,1.95,9.67,2.48,-0.04,0.0,-0.04,1.0,b
906.0,3696.0,3571.0,2830.0,4095.0,4095.0,4095.0,4095.0,2.04,9.66,2.59,-0.07,-0.01,-0.03,1.0,b
902.0,3711.0,3577.0,2835.0,4095.0,4095.0,4095.0,4095.0,1.87,9.64,2.64,-0.09,-0.01,-0.04,1.0,b
899.0,3711.0,3583.0,2835.0,4095.0,4095.0,4095.0,4095.0,1.8,9.61,2.66,-0.06,0.02,-0.02,1.0,b
903.0,3707.0,3573.0,2832.0,4095.0,4095.0,4095.0,4095.0,2.04,9.63,2.67,-0.07,0.05,-0.01,1.0,b
903.0,3706.0,3583.0,2834.0,4095.0,4095.0,4095.0,4095.0,1.94,9.65,2.67,-0.08,0.03,-0.04,1.0,b
900.0,3709.0,3575.0,2846.0,4095.0,4095.0,4095.0,4095.0,1.89,9.67,2.56,-0.06,-0.08,-0.06,1.0,b
901.0,3727.0,3578.0,2858.0,4095.0,4095.0,4095.0,4095.0,1.87,9.64,2.68,-0.07,-0.05,-0.05,1.0,b
903.0,3712.0,3600.0,2865.0,4095.0,4095.0,4095.0,4095.0,1.94,9.59,2.7,-0.05,0.0,-0.02,1.0,b
