hall_1,hall_2,hall_3,flex_t,flex_i,flex_m,flex_r,flex_p,accel_x,accel_y,accel_z,gyro_x,gyro_y,gyro_z,hand,sign
3299.0,3447.0,3859.0,3473.0,3707.0,2914.0,3039.0,3264.0,1.53,9.87,1.47,-0.01,-0.03,-0.26,1.0,a
3287.0,3455.0,3857.0,3465.0,3708.0,2916.0,3047.0,3264.0,0.89,9.88,1.44,-0.07,-0.03,-0.21,1.0,a
3309.0,3455.0,3842.0,3487.0,3706.0,2924.0,3021.0,3267.0,0.87,9.91,1.6,-0.14,-0.08,-0.08,1.0,a
3298.0,3440.0,3877.0,3470.0,3728.0,2919.0,3041.0,3271.0,1.52,9.94,1.86,-0.17,-0.19,-0.04,1.0,a
3286.0,3453.0,3855.0,3479.0,3713.0,2926.0,3035.0,3272.0,1.44,9.74,1.91,-0.13,-0.01,-0.0,1.0,a
3305.0,3461.0,3847.0,3504.0,3733.0,2924.0,3043.0,3262.0,1.68,9.94,1.8,-0.14,0.02,-0.04,1.0,a
3305.0,3448.0,3840.0,3502.0,3711.0,2921.0,3044.0,3271.0,1.62,9.78,1.97,-0.16,-0.03,-0.03,1.0,a
3296.0,3454.0,3851.0,3503.0,3710.0,2929.0,3041.0,3276.0,1.93,9.82,2.04,-0.09,0.08,-0.05,1.0,a
3300.0,3462.0,3865.0,3514.0,3709.0,2927.0,3035.0,3283.0,1.49,9.74,2.04,-0.15,0.08,-0.06,1.0,a
3287.0,3451.0,3834.0,3520.0,3743.0,2918.0,3046.0,3289.0,1.63,9.86,2.17,-0.12,-0.11,-0.1,1.0,a
3303.0,3457.0,3855.0,3524.0,3720.0,2926.0,3057.0,3280.0,1.57,9.6,2.46,-0.08,-0.01,-0.09,1.0,a
3296.0,3446.0,3853.0,3545.0,3743.0,2927.0,3046.0,3285.0,1.62,9.79,2.15,0.03,0.06,-0.11,1.0,a
3283.0,3450.0,3857.0,3533.0,3728.0,2939.0,3057.0,3280.0,1.33,9.88,1.97,0.01,-0.02,-0.13,1.0,a
3290.0,3452.0,3869.0,3549.0,3722.0,2935.0,3056.0,3293.0,1.4,9.86,2.01,-0.07,-0.05,-0.07,1.0,a
3311.0,3444.0,3851.0,3567.0,3734.0,2935.0,3056.0,3295.0,1.54,9.77,2.11,-0.06,0.03,-0.06,1.0,a
3291.0,3440.0,3850.0,3568.0,3712.0,2931.0,3056.0,3293.0,1.46,9.8,2.04,-0.03,0.02,-0.07,1.0,a
3293.0,3446.0,3862.0,3572.0,3734.0,2938.0,3059.0,3298.0,1.72,9.78,2.16,0.14,-0.05,-0.22,1.0,a
3312.0,3433.0,3833.0,3583.0,3730.0,2935.0,3049.0,3295.0,1.49,9.89,1.81,0.22,0.03,-0.35,1.0,a
3281.0,3448.0,3852.0,3622.0,3728.0,2949.0,3068.0,3312.0,0.85,10.05,1.51,0.02,0.22,-0.17,1.0,a
3286.0,3454.0,3841.0,3583.0,3727.0,2939.0,3056.0,3297.0,0.66,9.9,1.62,-0.15,0.02,0.02,1.0,a
3303.0,3442.0,3851.0,3639.0,3749.0,2955.0,3066.0,3313.0,1.12,9.92,1.8,-0.11,0.02,-0.02,1.0,a
3301.0,3442.0,3839.0,3632.0,3759.0,2951.0,3065.0,3311.0,1.25,9.85,1.98,-0.06,0.01,-0.03,1.0,a
3315.0,3455.0,3839.0,3630.0,3754.0,2944.0,3062.0,3306.0,1.14,9.83,1.86,-0.06,0.06,-0.02,1.0,a
3303.0,3455.0,3824.0,3626.0,3748.0,2953.0,3063.0,3322.0,1.29,9.89,1.85,-0.06,0.0,-0.04,1.0,a
3312.0,3471.0,3826.0,3632.0,3755.0,2947.0,3065.0,3280.0,1.23,9.89,1.86,-0.03,0.04,-0.05,1.0,a
3303.0,3446.0,3843.0,3648.0,3750.0,2959.0,3070.0,3314.0,1.21,9.96,1.69,-0.02,0.05,-0.05,1.0,a
3307.0,3447.0,3826.0,3632.0,3755.0,2951.0,3067.0,3315.0,1.1,9.94,1.62,-0.06,0.03,-0.04,1.0,a
3297.0,3438.0,3835.0,3647.0,3749.0,2951.0,3071.0,3329.0,1.11,9.88,1.75,-0.09,-0.03,-0.05,1.0,a
3313.0,3450.0,3838.0,3645.0,3766.0,2954.0,3071.0,3321.0,1.16,9.9,1.84,-0.08,0.03,-0.05,1.0,a
3314.0,3455.0,3839.0,3643.0,3758.0,2947.0,3082.0,3313.0,1.11,9.85,1.81,-0.06,-0.01,-0.04,1.0,a
3303.0,3443.0,3827.0,3631.0,3760.0,2948.0,3083.0,3309.0,1.16,9.91,1.77,-0.07,-0.02,-0.05,1.0,a
3289.0,3433.0,3851.0,3635.0,3746.0,2947.0,3071.0,3317.0,1.17,9.9,1.86,-0.07,0.01,-0.04,1.0,a
3296.0,3440.0,3845.0,3632.0,3753.0,2954.0,3082.0,3329.0,1.16,9.9,1.86,-0.07,-0.01,-0.04,1.0,a
3293.0,3445.0,3824.0,3647.0,3751.0,2956.0,3071.0,3326.0,1.18,9.9,1.81,-0.06,0.01,-0.03,1.0,a
3298.0,3452.0,3830.0,3632.0,3753.0,2960.0,3071.0,3321.0,1.14,9.87,1.86,-0.07,0.0,-0.03,1.0,a
3292.0,3450.0,3835.0,3631.0,3735.0,2948.0,3063.0,3328.0,1.16,9.9,1.89,-0.06,-0.0,-0.04,1.0,a
3301.0,3440.0,3853.0,3646.0,3775.0,2953.0,3086.0,3323.0,1.13,9.9,1.87,-0.06,-0.01,-0.04,1.0,a
3299.0,3460.0,3862.0,3655.0,3741.0,2956.0,3083.0,3316.0,1.18,9.89,1.88,-0.05,0.01,-0.03,1.0,a
3309.0,3445.0,3825.0,3645.0,3760.0,2950.0,3085.0,3320.0,1.23,9.91,1.81,-0.08,-0.01,-0.04,1.0,a
3296.0,3439.0,3851.0,3648.0,3750.0,2957.0,3070.0,3325.0,1.19,9.91,1.74,-0.06,0.02,-0.04,1.0,a
3295.0,3451.0,3838.0,3650.0,3767.0,2956.0,3071.0,3327.0,1.34,9.84,1.94,-0.08,-0.01,-0.03,1.0,a
3293.0,3445.0,3835.0,3663.0,3755.0,2959.0,3087.0,3337.0,1.31,9.9,1.86,-0.05,0.0,-0.04,1.0,a
3303.0,3458.0,3837.0,3667.0,3747.0,2961.0,3088.0,3325.0,1.18,9.89,1.86,-0.06,0.01,-0.04,1.0,a
3309.0,3437.0,3851.0,3666.0,3761.0,2957.0,3088.0,3342.0,1.17,9.9,1.93,-0.07,-0.02,-0.05,1.0,a
3306.0,3440.0,3830.0,3664.0,3763.0,2954.0,3085.0,3328.0,1.15,9.86,1.97,-0.06,0.0,-0.02,1.0,a
3295.0,3440.0,3837.0,3654.0,3753.0,2959.0,3089.0,3319.0,1.22,9.85,1.93,-0.06,-0.02,-0.03,1.0,a
3314.0,3440.0,3834.0,3655.0,3762.0,2951.0,3071.0,3327.0,1.29,9.89,1.81,-0.04,0.01,-0.04,1.0,a
3295.0,3459.0,3859.0,3649.0,3764.0,2960.0,3081.0,3328.0,1.09,9.87,1.85,-0.06,0.01,-0.03,1.0,a
3309.0,3454.0,3856.0,3661.0,3771.0,2960.0,3083.0,3326.0,1.24,9.9,1.91,-0.06,-0.02,-0.03,1.0,a
3312.0,3443.0,3824.0,3662.0,3759.0,2960.0,3087.0,3325.0,1.26,9.84,1.9,-0.05,0.01,-0.03,1.0,a
3297.0,3440.0,3821.0,3655.0,3781.0,2958.0,3093.0,3328.0,1.3,9.91,1.77,-0.04,0.0,-0.03,1.0,a
3301.0,3440.0,3861.0,3657.0,3762.0,2959.0,3079.0,3325.0,1.23,9.86,1.86,-0.07,0.01,-0.05,1.0,a
3297.0,3453.0,3850.0,3667.0,3751.0,2969.0,3071.0,3334.0,1.19,9.88,1.89,-0.07,0.01,-0.04,1.0,a
3292.0,3447.0,3845.0,3655.0,3771.0,2960.0,3088.0,3334.0,1.2,9.86,1.91,-0.07,0.02,-0.03,1.0,a
3310.0,3451.0,3845.0,3648.0,3777.0,2961.0,3069.0,3349.0,1.28,9.91,1.86,-0.06,0.0,-0.04,1.0,a
3311.0,3437.0,3824.0,3664.0,3775.0,2960.0,3071.0,3331.0,1.3,9.85,1.86,-0.05,-0.01,-0.03,1.0,a
3307.0,3440.0,3843.0,3655.0,3773.0,2959.0,3081.0,3337.0,1.27,9.91,1.85,-0.07,0.0,-0.04,1.0,a
3312.0,3440.0,3819.0,3657.0,3765.0,2953.0,3082.0,3337.0,1.29,9.87,1.9,-0.06,-0.0,-0.04,1.0,a
3299.0,3443.0,3837.0,3650.0,3775.0,2959.0,3084.0,3328.0,1.3,9.85,1.89,-0.05,0.0,-0.04,1.0,a
3293.0,3467.0,3846.0,3670.0,3774.0,2960.0,3082.0,3343.0,1.22,9.83,1.9,-0.06,0.0,-0.05,1.0,a
3330.0,3461.0,3194.0,3579.0,3839.0,2922.0,3099.0,3299.0,0.9,10.04,1.38,-0.02,-0.01,-0.06,1.0,a
3344.0,3479.0,3171.0,3574.0,3848.0,2929.0,3103.0,3299.0,0.72,9.96,1.42,-0.03,-0.02,-0.08,1.0,a
3347.0,3447.0,3187.0,3583.0,3851.0,2930.0,3101.0,3293.0,0.46,10.03,1.39,-0.05,0.02,-0.05,1.0,a
3343.0,3455.0,3186.0,3575.0,3842.0,2930.0,3101.0,3292.0,0.63,9.96,1.43,-0.06,-0.01,0.0,1.0,a
3344.0,3440.0,3184.0,3578.0,3856.0,2927.0,3104.0,3312.0,0.82,9.92,1.42,-0.09,0.03,-0.01,1.0,a
3340.0,3439.0,3169.0,3575.0,3856.0,2936.0,3099.0,3297.0,0.8,9.89,1.62,-0.09,-0.02,-0.04,1.0,a
3333.0,3451.0,3184.0,3571.0,3843.0,2926.0,3095.0,3293.0,0.81,9.92,1.6,-0.08,-0.0,-0.05,1.0,a
3354.0,3440.0,3184.0,3578.0,3850.0,2928.0,3094.0,3299.0,0.58,9.94,1.6,-0.07,-0.0,-0.05,1.0,a
3346.0,3461.0,3184.0,3579.0,3859.0,2933.0,3101.0,3306.0,0.59,9.93,1.63,-0.06,-0.03,-0.03,1.0,a
3348.0,3453.0,3183.0,3563.0,3850.0,2928.0,3102.0,3311.0,0.82,9.96,1.55,-0.07,0.0,-0.03,1.0,a
3335.0,3428.0,3178.0,3598.0,3865.0,2939.0,3100.0,3313.0,0.83,9.89,1.68,-0.1,-0.02,-0.01,1.0,a
3327.0,3451.0,3182.0,3603.0,3859.0,2928.0,3103.0,3301.0,0.94,10.04,1.48,-0.07,-0.0,-0.04,1.0,a
3371.0,3434.0,3168.0,3617.0,3833.0,2932.0,3103.0,3307.0,0.77,9.98,1.43,-0.05,0.02,-0.04,1.0,a
3343.0,3440.0,3173.0,3607.0,3855.0,2931.0,3095.0,3311.0,0.77,9.98,1.63,-0.08,-0.01,-0.03,1.0,a
3342.0,3442.0,3175.0,3616.0,3839.0,2941.0,3100.0,3303.0,0.83,9.96,1.74,-0.07,0.01,-0.03,1.0,a
3344.0,3457.0,3174.0,3605.0,3869.0,2935.0,3106.0,3309.0,0.9,9.96,1.75,-0.03,0.01,-0.03,1.0,a
3349.0,3468.0,3182.0,3605.0,3867.0,2935.0,3095.0,3303.0,0.92,10.0,1.63,-0.03,0.03,-0.05,1.0,a
3343.0,3455.0,3178.0,3580.0,3856.0,2931.0,3100.0,3322.0,0.8,9.92,1.56,-0.11,0.02,-0.05,1.0,a
3342.0,3443.0,3189.0,3559.0,3872.0,2936.0,3098.0,3313.0,0.72,9.93,1.56,-0.11,0.0,-0.06,1.0,a
3344.0,3440.0,3174.0,3545.0,3869.0,2933.0,3094.0,3312.0,0.65,9.88,1.69,-0.06,-0.0,-0.04,1.0,a
3222.0,3503.0,3100.0,3187.0,3781.0,2871.0,3089.0,3295.0,0.67,10.04,1.63,-0.08,-0.04,0.1,1.0,a
3230.0,3488.0,3109.0,3189.0,3790.0,2870.0,3099.0,3299.0,0.79,10.04,1.61,-0.06,-0.03,-0.04,1.0,a
3231.0,3493.0,3101.0,3187.0,3807.0,2878.0,3084.0,3295.0,0.78,9.97,1.62,-0.06,-0.0,-0.03,1.0,a
3235.0,3478.0,3098.0,3183.0,3793.0,2887.0,3091.0,3294.0,0.67,9.99,1.64,-0.08,-0.02,-0.03,1.0,a
3223.0,3489.0,3111.0,3209.0,3818.0,2886.0,3102.0,3299.0,0.63,9.8,1.79,-0.06,-0.05,-0.04,1.0,a
3215.0,3490.0,3103.0,3215.0,3813.0,2887.0,3103.0,3297.0,0.66,10.03,1.64,-0.04,0.02,-0.05,1.0,a
3225.0,3473.0,3101.0,3216.0,3810.0,2881.0,3109.0,3295.0,0.72,10.01,1.56,-0.07,0.02,-0.05,1.0,a
3220.0,3494.0,3100.0,3213.0,3799.0,2883.0,3104.0,3295.0,0.83,10.1,1.54,-0.09,0.01,-0.03,1.0,a
3225.0,3497.0,3095.0,3215.0,3815.0,2883.0,3118.0,3297.0,0.7,9.83,1.69,-0.07,0.01,-0.04,1.0,a
3217.0,3475.0,3103.0,3210.0,3824.0,2894.0,3114.0,3311.0,0.68,10.05,1.44,-0.07,0.0,-0.08,1.0,a
3230.0,3483.0,3105.0,3213.0,3805.0,2886.0,3104.0,3310.0,0.57,9.89,1.75,-0.06,0.01,-0.06,1.0,a
3214.0,3472.0,3101.0,3219.0,3818.0,2893.0,3111.0,3315.0,0.63,10.0,1.75,-0.08,0.0,-0.05,1.0,a
3213.0,3492.0,3103.0,3216.0,3827.0,2903.0,3111.0,3311.0,0.55,9.86,1.77,-0.07,-0.0,-0.07,1.0,a
3218.0,3478.0,3095.0,3223.0,3840.0,2906.0,3107.0,3315.0,0.66,9.97,1.74,-0.05,0.0,-0.02,1.0,a
3221.0,3506.0,3111.0,3218.0,3823.0,2902.0,3118.0,3309.0,0.64,9.94,1.71,-0.08,0.03,-0.04,1.0,a
3214.0,3478.0,3099.0,3235.0,3829.0,2895.0,3109.0,3312.0,0.62,9.93,1.72,-0.06,0.02,-0.04,1.0,a
3227.0,3481.0,3113.0,3232.0,3815.0,2894.0,3103.0,3311.0,0.59,9.93,1.75,-0.05,0.02,-0.04,1.0,a
3223.0,3479.0,3105.0,3239.0,3825.0,2896.0,3106.0,3311.0,0.53,9.91,1.69,-0.03,-0.0,-0.05,1.0,a
3208.0,3458.0,3105.0,3254.0,3834.0,2896.0,3111.0,3312.0,0.66,9.96,1.68,-0.0,-0.01,-0.04,1.0,a
3218.0,3482.0,3122.0,3262.0,3833.0,2909.0,3104.0,3315.0,0.71,9.88,1.72,0.03,-0.03,-0.06,1.0,a
3280.0,3383.0,3962.0,3301.0,3760.0,2961.0,3114.0,3285.0,0.34,10.05,1.07,0.01,0.03,-0.05,1.0,a
3279.0,3387.0,3984.0,3311.0,3760.0,2963.0,3107.0,3306.0,0.38,10.25,0.86,0.02,0.02,-0.01,1.0,a
3291.0,3388.0,3981.0,3312.0,3783.0,2965.0,3109.0,3307.0,0.05,9.9,1.06,-0.11,-0.0,-0.01,1.0,a
3273.0,3379.0,3975.0,3312.0,3769.0,2967.0,3120.0,3300.0,0.31,10.14,1.15,-0.11,0.01,0.0,1.0,a
3297.0,3395.0,3971.0,3314.0,3792.0,2959.0,3119.0,3305.0,0.33,9.83,1.57,-0.11,-0.02,0.02,1.0,a
3283.0,3394.0,3969.0,3323.0,3767.0,2972.0,3119.0,3307.0,0.42,10.08,1.22,-0.05,0.04,-0.01,1.0,a
3290.0,3391.0,3952.0,3328.0,3777.0,2967.0,3120.0,3280.0,0.37,9.97,1.22,-0.04,0.03,-0.03,1.0,a
3280.0,3382.0,3982.0,3339.0,3768.0,2962.0,3119.0,3303.0,0.41,10.03,1.23,-0.09,-0.04,-0.03,1.0,a
3282.0,3397.0,3966.0,3330.0,3775.0,2974.0,3120.0,3321.0,0.42,9.98,1.37,-0.07,0.01,-0.02,1.0,a
3283.0,3391.0,3997.0,3348.0,3775.0,2978.0,3125.0,3312.0,0.35,9.98,1.37,-0.04,0.01,-0.06,1.0,a
3280.0,3397.0,3967.0,3342.0,3783.0,2972.0,3126.0,3312.0,0.25,9.91,1.27,-0.06,-0.0,-0.04,1.0,a
3290.0,3386.0,3985.0,3329.0,3786.0,2973.0,3129.0,3303.0,0.31,10.06,1.16,-0.03,0.01,-0.02,1.0,a
3280.0,3398.0,3983.0,3344.0,3801.0,2970.0,3131.0,3310.0,0.29,9.96,1.17,-0.08,0.02,-0.02,1.0,a
3294.0,3387.0,3983.0,3328.0,3777.0,2981.0,3120.0,3318.0,0.47,10.08,1.21,-0.08,-0.02,-0.03,1.0,a
3289.0,3394.0,3971.0,3333.0,3787.0,2977.0,3119.0,3312.0,0.43,9.94,1.4,-0.06,-0.01,-0.05,1.0,a
3296.0,3387.0,3982.0,3339.0,3783.0,2971.0,3120.0,3316.0,0.3,9.97,1.33,-0.05,0.01,-0.04,1.0,a
3293.0,3394.0,3978.0,3345.0,3795.0,2970.0,3120.0,3319.0,0.3,10.03,1.24,-0.05,-0.0,-0.04,1.0,a
3282.0,3383.0,3983.0,3347.0,3783.0,2979.0,3126.0,3314.0,0.47,10.02,1.26,-0.05,-0.01,-0.03,1.0,a
3298.0,3394.0,3971.0,3363.0,3777.0,2977.0,3121.0,3317.0,0.46,10.03,1.24,-0.04,-0.0,-0.05,1.0,a
3283.0,3385.0,3968.0,3365.0,3785.0,2973.0,3124.0,3323.0,0.4,9.99,1.28,-0.04,-0.0,-0.05,1.0,a
3427.0,3294.0,3575.0,3367.0,3787.0,2932.0,3141.0,3323.0,-0.17,10.0,0.37,-0.06,-0.02,-0.02,1.0,a
3408.0,3293.0,3598.0,3353.0,3794.0,2950.0,3143.0,3341.0,0.01,10.0,0.36,-0.06,-0.02,-0.03,1.0,a
3407.0,3301.0,3575.0,3354.0,3781.0,2945.0,3139.0,3328.0,0.02,10.09,0.17,-0.04,0.01,-0.04,1.0,a
3425.0,3287.0,3583.0,3338.0,3786.0,2948.0,3149.0,3324.0,-0.09,10.12,0.0,-0.07,-0.01,-0.08,1.0,a
3401.0,3291.0,3574.0,3355.0,3781.0,2942.0,3155.0,3328.0,-0.39,10.04,0.25,-0.11,-0.02,-0.06,1.0,a
3409.0,3297.0,3597.0,3357.0,3792.0,2943.0,3145.0,3318.0,-0.21,10.1,0.27,-0.1,-0.01,-0.03,1.0,a
3413.0,3293.0,3595.0,3359.0,3796.0,2939.0,3143.0,3323.0,-0.33,10.01,0.29,-0.11,0.03,-0.01,1.0,a
3415.0,3280.0,3583.0,3357.0,3796.0,2945.0,3150.0,3329.0,0.0,10.04,0.39,-0.05,-0.02,-0.01,1.0,a
3415.0,3299.0,3583.0,3359.0,3808.0,2949.0,3145.0,3343.0,-0.06,10.1,0.38,-0.07,0.03,-0.03,1.0,a
3412.0,3285.0,3566.0,3365.0,3791.0,2946.0,3152.0,3349.0,-0.2,10.06,0.48,-0.07,-0.0,-0.04,1.0,a
3414.0,3282.0,3569.0,3360.0,3799.0,2950.0,3165.0,3346.0,-0.11,10.03,0.41,-0.06,0.0,-0.04,1.0,a
3395.0,3285.0,3557.0,3372.0,3791.0,2960.0,3166.0,3344.0,-0.27,10.05,0.29,-0.07,-0.01,-0.04,1.0,a
3410.0,3287.0,3573.0,3364.0,3810.0,2944.0,3152.0,3351.0,-0.14,10.07,0.24,-0.03,-0.01,-0.03,1.0,a
3408.0,3294.0,3565.0,3371.0,3814.0,2961.0,3161.0,3354.0,-0.23,10.07,0.31,-0.06,-0.03,-0.02,1.0,a
3437.0,3282.0,3559.0,3373.0,3799.0,2947.0,3181.0,3355.0,-0.12,10.13,0.39,-0.09,-0.02,-0.02,1.0,a
3412.0,3281.0,3558.0,3376.0,3806.0,2960.0,3162.0,3366.0,-0.14,9.97,0.57,-0.09,-0.02,0.04,1.0,a
3421.0,3290.0,3567.0,3381.0,3811.0,2965.0,3175.0,3355.0,0.16,10.15,0.28,-0.04,0.03,-0.03,1.0,a
3408.0,3279.0,3550.0,3394.0,3801.0,2960.0,3167.0,3361.0,-0.05,10.0,0.32,-0.1,-0.03,-0.06,1.0,a
3402.0,3301.0,3565.0,3399.0,3816.0,2959.0,3181.0,3375.0,-0.05,10.1,0.38,-0.04,-0.0,-0.08,1.0,a
3414.0,3294.0,3566.0,3389.0,3831.0,2955.0,3170.0,3373.0,-0.2,10.02,0.3,-0.07,0.1,-0.07,1.0,a
3030.0,3277.0,3814.0,3537.0,3822.0,2942.0,3123.0,3315.0,0.22,9.97,1.35,-0.03,0.01,-0.04,1.0,a
3029.0,3254.0,3815.0,3530.0,3814.0,2944.0,3126.0,3312.0,0.25,9.95,1.33,-0.04,0.01,-0.02,1.0,a
3036.0,3261.0,3804.0,3535.0,3813.0,2949.0,3135.0,3306.0,0.11,9.89,1.35,-0.03,-0.0,-0.03,1.0,a
3031.0,3273.0,3815.0,3533.0,3824.0,2950.0,3120.0,3312.0,0.16,9.98,1.29,-0.06,0.02,-0.04,1.0,a
3034.0,3280.0,3811.0,3531.0,3837.0,2950.0,3133.0,3312.0,0.19,10.07,1.32,-0.07,0.04,-0.04,1.0,a
3030.0,3270.0,3805.0,3538.0,3824.0,2955.0,3134.0,3310.0,0.31,10.0,1.43,-0.08,-0.02,-0.03,1.0,a
3031.0,3264.0,3829.0,3525.0,3824.0,2950.0,3127.0,3326.0,0.25,10.0,1.34,-0.04,0.0,-0.04,1.0,a
3039.0,3257.0,3839.0,3533.0,3837.0,2960.0,3131.0,3319.0,0.14,10.01,1.3,-0.08,-0.01,-0.03,1.0,a
3035.0,3273.0,3833.0,3533.0,3835.0,2960.0,3135.0,3312.0,0.24,9.98,1.42,-0.07,-0.02,-0.03,1.0,a
3035.0,3283.0,3819.0,3545.0,3839.0,2960.0,3146.0,3329.0,0.29,9.98,1.42,-0.08,0.02,-0.04,1.0,a
3031.0,3280.0,3808.0,3532.0,3816.0,2960.0,3133.0,3326.0,0.27,10.02,1.42,-0.05,-0.01,-0.05,1.0,a
3033.0,3265.0,3809.0,3534.0,3843.0,2966.0,3126.0,3330.0,0.21,10.01,1.42,-0.05,0.02,-0.04,1.0,a
3043.0,3261.0,3839.0,3547.0,3829.0,2959.0,3136.0,3325.0,0.18,9.97,1.38,-0.07,-0.01,-0.04,1.0,a
3041.0,3259.0,3809.0,3533.0,3823.0,2960.0,3135.0,3327.0,0.26,10.05,1.31,-0.07,0.01,-0.04,1.0,a
3043.0,3279.0,3824.0,3539.0,3840.0,2971.0,3135.0,3330.0,0.19,9.93,1.38,-0.04,-0.0,-0.04,1.0,a
3039.0,3263.0,3824.0,3553.0,3837.0,2971.0,3142.0,3323.0,0.24,9.98,1.35,-0.04,-0.03,-0.06,1.0,a
3027.0,3261.0,3809.0,3547.0,3829.0,2974.0,3135.0,3323.0,0.15,10.02,1.28,-0.03,-0.02,-0.04,1.0,a
3027.0,3273.0,3811.0,3549.0,3831.0,2973.0,3146.0,3327.0,0.17,9.97,1.36,-0.07,-0.11,-0.03,1.0,a
3042.0,3269.0,3824.0,3549.0,3850.0,2979.0,3136.0,3338.0,0.33,10.08,1.33,-0.06,0.02,-0.03,1.0,a
3039.0,3266.0,3794.0,3538.0,3840.0,2987.0,3140.0,3334.0,0.19,9.94,1.37,-0.08,0.01,-0.02,1.0,a
3204.0,3702.0,3630.0,3159.0,3728.0,2945.0,3105.0,3338.0,0.48,9.85,1.49,-0.03,0.02,-0.07,1.0,a
3184.0,3728.0,3651.0,3158.0,3741.0,2956.0,3109.0,3338.0,0.46,10.02,1.34,-0.06,-0.0,-0.03,1.0,a
3185.0,3727.0,3626.0,3158.0,3723.0,2959.0,3107.0,3335.0,0.35,9.97,1.31,-0.03,0.02,-0.05,1.0,a
3184.0,3726.0,3639.0,3159.0,3741.0,2960.0,3106.0,3337.0,0.21,9.97,1.3,-0.09,0.02,-0.02,1.0,a
3190.0,3728.0,3652.0,3159.0,3749.0,2959.0,3115.0,3330.0,0.34,9.99,1.34,-0.08,0.02,-0.04,1.0,a
3190.0,3716.0,3653.0,3173.0,3745.0,2964.0,3115.0,3343.0,0.38,9.95,1.53,-0.11,0.05,-0.01,1.0,a
3184.0,3725.0,3648.0,3165.0,3733.0,2960.0,3117.0,3343.0,0.49,9.97,1.61,-0.05,-0.02,-0.04,1.0,a
3199.0,3717.0,3644.0,3176.0,3735.0,2966.0,3119.0,3350.0,0.38,9.96,1.45,-0.06,0.01,-0.05,1.0,a
3179.0,3715.0,3633.0,3175.0,3751.0,2963.0,3120.0,3344.0,0.38,9.99,1.43,-0.04,0.02,-0.03,1.0,a
3184.0,3714.0,3645.0,3174.0,3759.0,2974.0,3121.0,3344.0,0.44,10.01,1.32,-0.09,0.01,-0.04,1.0,a
3201.0,3728.0,3635.0,3184.0,3747.0,2967.0,3123.0,3353.0,0.42,9.99,1.41,-0.08,0.02,-0.03,1.0,a
3184.0,3713.0,3629.0,3188.0,3767.0,2975.0,3118.0,3362.0,0.45,10.0,1.47,-0.09,0.0,-0.03,1.0,a
3184.0,3728.0,3626.0,3195.0,3747.0,2971.0,3120.0,3351.0,0.45,9.95,1.52,-0.03,0.03,-0.03,1.0,a
3200.0,3718.0,3639.0,3173.0,3745.0,2977.0,3117.0,3352.0,0.43,9.98,1.37,-0.09,0.0,-0.04,1.0,a
3186.0,3740.0,3614.0,3189.0,3743.0,2986.0,3122.0,3361.0,0.45,10.03,1.36,-0.06,-0.0,-0.03,1.0,a
3198.0,3706.0,3637.0,3191.0,3745.0,2979.0,3124.0,3349.0,0.42,9.98,1.46,-0.09,0.02,-0.05,1.0,a
3187.0,3730.0,3633.0,3195.0,3755.0,2979.0,3121.0,3354.0,0.33,10.01,1.51,-0.05,0.01,-0.03,1.0,a
3188.0,3712.0,3635.0,3205.0,3760.0,2979.0,3133.0,3347.0,0.41,9.95,1.47,-0.05,-0.01,-0.03,1.0,a
3195.0,3719.0,3632.0,3201.0,3760.0,2973.0,3132.0,3360.0,0.57,10.0,1.47,-0.02,-0.0,-0.04,1.0,a
3182.0,3725.0,3632.0,3199.0,3760.0,2983.0,3131.0,3350.0,0.45,9.98,1.39,-0.05,0.01,-0.05,1.0,a
3198.0,3367.0,3987.0,3518.0,3773.0,3045.0,3167.0,3342.0,0.07,9.95,1.4,-0.06,0.06,-0.03,1.0,a
3184.0,3374.0,4003.0,3515.0,3809.0,3045.0,3151.0,3351.0,0.23,9.96,1.48,-0.08,0.0,-0.02,1.0,a
3194.0,3351.0,3988.0,3515.0,3810.0,3047.0,3165.0,3353.0,0.4,9.9,1.58,-0.01,-0.03,-0.04,1.0,a
3184.0,3363.0,3990.0,3529.0,3793.0,3062.0,3161.0,3349.0,0.25,9.97,1.24,-0.01,0.04,-0.06,1.0,a
3191.0,3354.0,4012.0,3533.0,3806.0,3056.0,3174.0,3365.0,0.02,9.88,1.38,0.0,0.01,-0.08,1.0,a
3185.0,3367.0,3987.0,3531.0,3792.0,3047.0,3169.0,3365.0,0.0,9.86,1.48,-0.0,-0.05,-0.06,1.0,a
3200.0,3365.0,3997.0,3531.0,3803.0,3067.0,3166.0,3362.0,0.13,10.16,0.99,-0.07,0.0,-0.04,1.0,a
3197.0,3363.0,4006.0,3536.0,3811.0,3059.0,3164.0,3359.0,0.16,10.01,1.17,-0.17,-0.0,-0.01,1.0,a
3201.0,3345.0,3991.0,3530.0,3805.0,3071.0,3175.0,3355.0,0.33,10.03,1.39,-0.05,-0.03,-0.02,1.0,a
3194.0,3379.0,4003.0,3533.0,3808.0,3060.0,3169.0,3365.0,0.22,9.88,1.5,-0.09,-0.01,-0.03,1.0,a
3199.0,3360.0,4014.0,3541.0,3821.0,3062.0,3175.0,3375.0,0.2,10.08,1.4,-0.05,0.03,-0.01,1.0,a
3199.0,3351.0,3988.0,3539.0,3837.0,3065.0,3174.0,3357.0,0.22,9.87,1.51,-0.06,-0.02,-0.03,1.0,a
3184.0,3355.0,4002.0,3545.0,3827.0,3065.0,3169.0,3353.0,0.37,10.1,1.34,-0.03,-0.02,-0.06,1.0,a
3205.0,3360.0,4011.0,3565.0,3821.0,3061.0,3165.0,3373.0,0.22,9.86,1.43,-0.05,-0.01,-0.06,1.0,a
3194.0,3361.0,3984.0,3559.0,3823.0,3081.0,3166.0,3362.0,0.21,10.08,1.23,-0.04,0.0,-0.05,1.0,a
3193.0,3364.0,3991.0,3555.0,3811.0,3061.0,3177.0,3370.0,0.04,9.94,1.33,-0.08,0.0,-0.04,1.0,a
3197.0,3359.0,4006.0,3570.0,3813.0,3059.0,3187.0,3365.0,0.19,10.07,1.29,-0.05,-0.0,-0.03,1.0,a
3204.0,3359.0,3975.0,3554.0,3822.0,3058.0,3184.0,3362.0,0.19,9.95,1.36,-0.09,0.02,-0.01,1.0,a
3190.0,3357.0,3991.0,3554.0,3809.0,3084.0,3169.0,3376.0,0.31,10.04,1.36,-0.05,-0.02,-0.04,1.0,a
3206.0,3361.0,3979.0,3559.0,3820.0,3071.0,3170.0,3367.0,0.22,9.91,1.52,-0.07,0.01,-0.04,1.0,a
3162.0,3408.0,894.0,3563.0,3840.0,3041.0,3264.0,3461.0,-0.32,9.86,1.43,-0.02,-0.03,-0.03,1.0,a
3177.0,3401.0,897.0,3580.0,3827.0,3054.0,3251.0,3459.0,-0.28,9.97,1.16,-0.02,0.03,-0.03,1.0,a
3184.0,3398.0,892.0,3581.0,3845.0,3047.0,3265.0,3478.0,-0.14,10.16,0.85,-0.06,0.0,-0.01,1.0,a
3171.0,3398.0,895.0,3575.0,3845.0,3054.0,3262.0,3473.0,-0.15,9.98,1.04,-0.09,0.01,-0.02,1.0,a
3171.0,3408.0,897.0,3600.0,3842.0,3041.0,3254.0,3472.0,-0.22,10.09,1.19,-0.07,-0.01,-0.04,1.0,a
3174.0,3408.0,895.0,3583.0,3823.0,3053.0,3268.0,3480.0,-0.23,9.9,1.28,-0.12,-0.01,-0.02,1.0,a
3167.0,3397.0,896.0,3582.0,3851.0,3047.0,3277.0,3477.0,-0.09,10.06,1.21,-0.01,0.01,-0.03,1.0,a
3180.0,3408.0,898.0,3583.0,3857.0,3049.0,3262.0,3491.0,-0.13,10.01,1.06,-0.05,-0.01,-0.04,1.0,a
3179.0,3408.0,896.0,3599.0,3861.0,3056.0,3270.0,3504.0,-0.2,10.04,1.1,-0.05,-0.04,-0.05,1.0,a
3177.0,3403.0,897.0,3600.0,3867.0,3063.0,3280.0,3504.0,-0.11,10.03,1.13,-0.08,-0.04,-0.04,1.0,a
3187.0,3413.0,901.0,3606.0,3846.0,3055.0,3274.0,3499.0,-0.11,10.0,1.23,-0.05,-0.02,-0.05,1.0,a
3184.0,3393.0,895.0,3606.0,3842.0,3054.0,3277.0,3499.0,-0.23,9.94,1.23,-0.05,-0.05,-0.09,1.0,a
3175.0,3398.0,893.0,3583.0,3862.0,3062.0,3278.0,3509.0,-0.24,10.11,1.19,-0.05,0.02,-0.04,1.0,a
3174.0,3406.0,900.0,3600.0,3866.0,3071.0,3279.0,3503.0,-0.32,9.93,1.18,-0.03,0.0,-0.04,1.0,a
3171.0,3392.0,896.0,3583.0,3867.0,3061.0,3271.0,3522.0,-0.03,10.05,1.05,0.01,0.05,-0.04,1.0,a
3177.0,3392.0,897.0,3583.0,3865.0,3069.0,3281.0,3525.0,-0.28,9.99,1.03,-0.07,0.02,-0.03,1.0,a
3167.0,3399.0,901.0,3601.0,3860.0,3082.0,3290.0,3524.0,-0.12,9.96,1.18,-0.02,-0.0,-0.02,1.0,a
3184.0,3395.0,899.0,3623.0,3856.0,3071.0,3285.0,3514.0,-0.2,10.04,0.94,-0.06,0.06,-0.05,1.0,a
3171.0,3417.0,893.0,3601.0,3867.0,3067.0,3287.0,3520.0,-0.37,10.05,0.82,-0.04,-0.02,-0.04,1.0,a
3166.0,3399.0,895.0,3605.0,3857.0,3071.0,3291.0,3523.0,-0.27,10.02,1.0,-0.09,-0.01,-0.02,1.0,a
3203.0,3376.0,3117.0,3725.0,3803.0,3068.0,3179.0,3362.0,-0.56,9.95,1.12,-0.08,-0.01,-0.06,1.0,a
3213.0,3381.0,3106.0,3711.0,3825.0,3069.0,3181.0,3376.0,-0.45,9.97,1.22,-0.05,-0.04,-0.03,1.0,a
3205.0,3385.0,3109.0,3727.0,3827.0,3071.0,3178.0,3362.0,-0.47,9.91,1.06,-0.02,-0.0,-0.0,1.0,a
3205.0,3359.0,3105.0,3741.0,3846.0,3071.0,3181.0,3365.0,-0.36,10.11,0.91,-0.04,-0.01,-0.01,1.0,a
3212.0,3372.0,3123.0,3737.0,3839.0,3090.0,3184.0,3371.0,-0.44,9.96,1.06,-0.14,-0.0,-0.01,1.0,a
3200.0,3362.0,3123.0,3707.0,3845.0,3088.0,3184.0,3369.0,-0.21,9.99,1.21,-0.03,0.0,-0.04,1.0,a
3213.0,3370.0,3111.0,3707.0,3840.0,3086.0,3185.0,3373.0,-0.36,9.97,1.11,-0.06,-0.03,-0.07,1.0,a
3203.0,3374.0,3117.0,3719.0,3842.0,3091.0,3184.0,3381.0,-0.5,9.98,1.02,-0.02,-0.02,-0.06,1.0,a
3206.0,3376.0,3118.0,3729.0,3844.0,3100.0,3182.0,3385.0,-0.49,9.98,1.14,-0.1,-0.0,-0.04,1.0,a
3213.0,3367.0,3120.0,3719.0,3856.0,3100.0,3187.0,3376.0,-0.39,9.97,1.15,-0.03,-0.0,-0.05,1.0,a
3210.0,3383.0,3120.0,3723.0,3849.0,3101.0,3198.0,3377.0,-0.38,10.02,1.09,-0.07,0.03,-0.03,1.0,a
3205.0,3382.0,3113.0,3728.0,3844.0,3101.0,3193.0,3381.0,-0.33,9.98,1.13,-0.02,-0.01,-0.02,1.0,a
3210.0,3375.0,3123.0,3726.0,3869.0,3094.0,3193.0,3391.0,-0.27,10.01,1.02,-0.03,0.01,-0.03,1.0,a
3195.0,3379.0,3113.0,3714.0,3871.0,3098.0,3197.0,3376.0,-0.4,9.97,0.95,-0.07,0.02,-0.02,1.0,a
3198.0,3371.0,3111.0,3734.0,3875.0,3110.0,3202.0,3394.0,-0.4,10.01,1.0,-0.08,-0.02,-0.01,1.0,a
3205.0,3383.0,3115.0,3717.0,3856.0,3113.0,3199.0,3381.0,-0.37,10.08,0.95,-0.08,0.01,-0.05,1.0,a
3199.0,3357.0,3120.0,3717.0,3885.0,3113.0,3211.0,3392.0,-0.41,9.99,1.11,-0.06,-0.01,-0.04,1.0,a
3211.0,3365.0,3121.0,3718.0,3895.0,3117.0,3201.0,3383.0,-0.39,9.95,1.25,-0.05,-0.0,-0.03,1.0,a
3211.0,3375.0,3114.0,3723.0,3899.0,3118.0,3207.0,3402.0,-0.34,10.0,1.23,-0.08,0.0,-0.01,1.0,a
3199.0,3369.0,3102.0,3724.0,3874.0,3111.0,3202.0,3393.0,-0.17,10.0,1.1,-0.04,-0.03,-0.04,1.0,a
3143.0,3317.0,4017.0,3413.0,3856.0,3045.0,3161.0,3355.0,-0.09,9.87,1.01,-0.07,-0.03,-0.02,1.0,a
3152.0,3335.0,4016.0,3398.0,3851.0,3046.0,3167.0,3359.0,-0.12,9.87,1.24,-0.07,0.02,-0.03,1.0,a
3135.0,3337.0,4016.0,3434.0,3829.0,3051.0,3173.0,3367.0,-0.05,10.0,1.09,-0.08,-0.01,-0.03,1.0,a
3147.0,3331.0,4003.0,3439.0,3837.0,3063.0,3172.0,3361.0,0.06,10.05,1.02,-0.1,0.01,-0.03,1.0,a
3152.0,3319.0,4016.0,3447.0,3845.0,3053.0,3173.0,3359.0,-0.06,9.97,1.28,-0.1,0.0,-0.05,1.0,a
3149.0,3344.0,3999.0,3456.0,3845.0,3051.0,3182.0,3358.0,0.12,10.01,1.3,-0.05,-0.05,-0.06,1.0,a
3135.0,3335.0,4010.0,3450.0,3829.0,3067.0,3168.0,3361.0,0.07,9.98,1.07,-0.04,0.05,-0.05,1.0,a
3137.0,3329.0,4001.0,3447.0,3849.0,3068.0,3170.0,3373.0,-0.19,9.99,0.98,-0.04,-0.0,-0.07,1.0,a
3152.0,3338.0,4039.0,3461.0,3856.0,3066.0,3169.0,3363.0,-0.2,9.92,1.11,-0.1,0.01,-0.04,1.0,a
3140.0,3325.0,4014.0,3446.0,3853.0,3058.0,3179.0,3369.0,-0.07,9.96,1.19,-0.05,0.02,-0.01,1.0,a
3146.0,3327.0,4005.0,3467.0,3845.0,3067.0,3178.0,3374.0,0.07,10.14,0.95,-0.14,0.03,0.0,1.0,a
3145.0,3333.0,4026.0,3472.0,3865.0,3083.0,3184.0,3365.0,0.13,10.01,1.17,-0.05,0.01,0.01,1.0,a
3145.0,3351.0,3999.0,3472.0,3857.0,3081.0,3180.0,3374.0,0.12,9.94,1.28,-0.03,-0.01,-0.05,1.0,a
3152.0,3319.0,3987.0,3470.0,3856.0,3086.0,3184.0,3363.0,-0.11,9.99,1.17,-0.09,0.0,-0.03,1.0,a
3157.0,3338.0,4013.0,3479.0,3866.0,3088.0,3189.0,3376.0,-0.03,9.97,1.18,-0.06,-0.04,-0.04,1.0,a
3135.0,3316.0,4010.0,3485.0,3885.0,3084.0,3191.0,3375.0,0.06,10.05,1.04,-0.08,0.03,-0.03,1.0,a
3136.0,3323.0,3985.0,3472.0,3867.0,3084.0,3185.0,3376.0,-0.04,10.02,1.06,-0.07,-0.01,-0.03,1.0,a
3145.0,3330.0,3995.0,3474.0,3867.0,3082.0,3193.0,3375.0,0.15,10.05,1.23,-0.07,-0.03,-0.03,1.0,a
3156.0,3331.0,4027.0,3482.0,3863.0,3093.0,3184.0,3376.0,0.12,9.96,1.3,-0.01,0.02,-0.05,1.0,a
3152.0,3325.0,4013.0,3485.0,3883.0,3099.0,3191.0,3371.0,0.09,10.01,1.25,0.01,0.02,-0.06,1.0,a
3205.0,3303.0,3536.0,3394.0,3920.0,3058.0,3214.0,3349.0,0.19,10.0,1.26,-0.09,0.02,-0.03,1.0,a
3218.0,3310.0,3539.0,3389.0,3920.0,3071.0,3216.0,3359.0,0.16,10.02,1.38,-0.08,0.0,-0.07,1.0,a
3203.0,3314.0,3538.0,3394.0,3914.0,3067.0,3217.0,3360.0,0.22,9.83,1.61,-0.09,0.01,-0.06,1.0,a
3200.0,3327.0,3556.0,3389.0,3910.0,3071.0,3215.0,3364.0,0.1,9.94,1.35,-0.01,0.1,-0.04,1.0,a
3200.0,3309.0,3540.0,3389.0,3924.0,3071.0,3216.0,3361.0,0.07,10.05,1.19,-0.04,0.0,-0.06,1.0,a
3209.0,3299.0,3543.0,3407.0,3920.0,3071.0,3217.0,3376.0,0.15,9.96,1.34,-0.08,-0.0,-0.03,1.0,a
3198.0,3307.0,3536.0,3402.0,3929.0,3088.0,3218.0,3376.0,0.31,10.12,1.29,-0.05,0.02,-0.05,1.0,a
3217.0,3318.0,3548.0,3408.0,3939.0,3088.0,3211.0,3376.0,0.27,10.03,1.26,-0.05,-0.01,-0.05,1.0,a
3217.0,3310.0,3527.0,3402.0,3956.0,3084.0,3225.0,3371.0,0.11,9.93,1.35,-0.03,-0.0,-0.04,1.0,a
3200.0,3310.0,3545.0,3399.0,3932.0,3083.0,3227.0,3373.0,0.08,9.98,1.33,-0.1,-0.01,-0.04,1.0,a
3216.0,3312.0,3534.0,3407.0,3946.0,3088.0,3219.0,3374.0,0.11,9.96,1.34,-0.03,0.02,-0.01,1.0,a
3195.0,3305.0,3536.0,3407.0,3943.0,3082.0,3221.0,3370.0,0.23,9.99,1.27,-0.05,0.04,-0.01,1.0,a
3197.0,3324.0,3538.0,3402.0,3951.0,3088.0,3226.0,3374.0,0.33,9.94,1.3,-0.05,-0.02,-0.02,1.0,a
3208.0,3318.0,3534.0,3403.0,3956.0,3097.0,3220.0,3361.0,0.31,9.92,1.32,-0.06,0.01,-0.05,1.0,a
3216.0,3322.0,3523.0,3410.0,3946.0,3102.0,3221.0,3382.0,0.27,10.07,1.28,-0.08,0.03,-0.07,1.0,a
3220.0,3324.0,3527.0,3411.0,3924.0,3093.0,3225.0,3380.0,0.29,10.01,1.29,-0.05,-0.03,-0.07,1.0,a
3194.0,3300.0,3513.0,3423.0,3949.0,3099.0,3228.0,3376.0,0.21,10.04,1.28,-0.04,0.0,-0.06,1.0,a
3209.0,3312.0,3520.0,3407.0,3966.0,3093.0,3231.0,3376.0,-0.02,9.95,1.31,-0.07,-0.01,-0.07,1.0,a
3207.0,3319.0,3542.0,3422.0,3935.0,3091.0,3234.0,3380.0,0.04,9.97,1.35,-0.06,0.01,-0.05,1.0,a
3212.0,3312.0,3536.0,3422.0,3952.0,3089.0,3229.0,3378.0,0.1,10.0,1.34,-0.07,-0.01,-0.04,1.0,a
3088.0,3365.0,3774.0,3556.0,3887.0,3071.0,3178.0,3360.0,0.13,9.91,1.24,0.08,0.1,-0.06,1.0,a
3098.0,3372.0,3745.0,3545.0,3917.0,3086.0,3183.0,3376.0,0.07,9.92,0.99,-0.01,0.02,-0.03,1.0,a
3092.0,3354.0,3770.0,3558.0,3919.0,3071.0,3185.0,3363.0,0.35,10.05,1.08,-0.02,-0.01,0.01,1.0,a
3091.0,3371.0,3743.0,3545.0,3892.0,3090.0,3177.0,3375.0,0.48,9.95,1.19,-0.02,0.0,-0.0,1.0,a
3084.0,3372.0,3744.0,3547.0,3920.0,3089.0,3174.0,3374.0,0.42,10.07,1.14,-0.02,-0.01,0.01,1.0,a
3088.0,3359.0,3731.0,3550.0,3903.0,3088.0,3180.0,3366.0,0.53,10.1,1.11,-0.06,0.02,-0.01,1.0,a
3071.0,3361.0,3746.0,3563.0,3915.0,3093.0,3185.0,3372.0,0.68,10.06,1.4,0.03,-0.07,0.02,1.0,a
3091.0,3354.0,3743.0,3555.0,3952.0,3088.0,3182.0,3377.0,0.49,9.98,1.03,0.1,-0.07,-0.0,1.0,a
3091.0,3373.0,3733.0,3565.0,3924.0,3095.0,3185.0,3383.0,0.58,10.01,0.95,-0.01,-0.05,0.04,1.0,a
3086.0,3362.0,3755.0,3553.0,3929.0,3095.0,3184.0,3383.0,0.78,9.94,1.31,-0.0,-0.12,-0.05,1.0,a
3091.0,3355.0,3741.0,3555.0,3906.0,3088.0,3183.0,3377.0,0.66,10.0,1.06,0.02,0.01,-0.09,1.0,a
3095.0,3371.0,3749.0,3552.0,3920.0,3093.0,3184.0,3376.0,0.56,10.01,0.93,0.01,0.0,-0.11,1.0,a
3086.0,3378.0,3743.0,3565.0,3919.0,3095.0,3178.0,3385.0,0.28,10.12,0.75,0.01,0.02,-0.11,1.0,a
3095.0,3362.0,3755.0,3566.0,3920.0,3096.0,3184.0,3391.0,0.33,9.93,1.12,-0.02,-0.02,-0.13,1.0,a
3087.0,3376.0,3738.0,3572.0,3927.0,3098.0,3192.0,3377.0,0.01,10.02,0.47,-0.0,0.17,-0.12,1.0,a
3088.0,3389.0,3749.0,3571.0,3921.0,3093.0,3195.0,3383.0,0.17,10.03,0.46,-0.1,0.12,-0.06,1.0,a
3088.0,3357.0,3749.0,3559.0,3930.0,3107.0,3199.0,3383.0,0.35,10.1,0.67,-0.06,0.1,-0.02,1.0,a
3071.0,3372.0,3743.0,3575.0,3927.0,3102.0,3200.0,3389.0,0.28,9.92,1.02,-0.15,0.14,0.03,1.0,a
3089.0,3346.0,3757.0,3567.0,3955.0,3105.0,3195.0,3385.0,0.59,10.07,0.91,-0.01,0.1,0.0,1.0,a
3088.0,3357.0,3746.0,3582.0,3949.0,3107.0,3191.0,3387.0,0.85,10.05,0.51,-0.01,0.06,-0.06,1.0,a
3115.0,3398.0,4013.0,3425.0,3875.0,3056.0,3162.0,3335.0,-0.27,10.17,0.26,-0.09,0.03,-0.01,1.0,a
3109.0,3411.0,4009.0,3433.0,3856.0,3055.0,3172.0,3335.0,-0.08,10.06,0.7,-0.07,-0.01,0.0,1.0,a
3120.0,3394.0,4016.0,3440.0,3870.0,3066.0,3168.0,3331.0,0.1,9.99,0.69,-0.02,-0.03,-0.05,1.0,a
3119.0,3411.0,4014.0,3430.0,3871.0,3059.0,3177.0,3337.0,-0.11,10.01,0.36,-0.06,0.08,-0.06,1.0,a
3108.0,3411.0,4016.0,3433.0,3865.0,3063.0,3186.0,3351.0,-0.2,10.07,0.25,-0.09,0.05,-0.02,1.0,a
3129.0,3411.0,4022.0,3426.0,3867.0,3057.0,3183.0,3344.0,-0.05,10.16,0.46,-0.15,-0.07,0.0,1.0,a
3114.0,3392.0,4017.0,3424.0,3872.0,3070.0,3178.0,3349.0,0.13,9.98,0.78,-0.12,0.01,-0.03,1.0,a
3122.0,3398.0,4005.0,3423.0,3873.0,3071.0,3175.0,3353.0,-0.07,10.06,0.65,-0.05,0.03,-0.07,1.0,a
3117.0,3397.0,4037.0,3394.0,3877.0,3082.0,3184.0,3342.0,-0.3,10.06,0.55,-0.07,0.04,-0.03,1.0,a
3107.0,3404.0,4004.0,3430.0,3881.0,3069.0,3184.0,3358.0,-0.27,9.99,0.6,-0.08,-0.03,0.0,1.0,a
3108.0,3398.0,4013.0,3440.0,3903.0,3071.0,3200.0,3351.0,0.13,10.06,0.74,-0.08,-0.04,-0.01,1.0,a
3114.0,3414.0,4007.0,3431.0,3884.0,3069.0,3188.0,3350.0,-0.02,9.98,0.94,-0.08,0.02,-0.02,1.0,a
3111.0,3408.0,4032.0,3443.0,3888.0,3068.0,3182.0,3351.0,-0.06,10.0,0.75,-0.01,-0.0,-0.02,1.0,a
3107.0,3395.0,4007.0,3446.0,3915.0,3086.0,3187.0,3371.0,0.04,10.07,0.42,-0.04,-0.01,-0.02,1.0,a
3122.0,3401.0,4003.0,3456.0,3900.0,3071.0,3198.0,3358.0,0.2,10.1,0.63,-0.01,-0.08,-0.02,1.0,a
3109.0,3406.0,4017.0,3455.0,3885.0,3086.0,3191.0,3365.0,0.14,10.08,0.49,-0.02,0.04,-0.02,1.0,a
3102.0,3417.0,4013.0,3437.0,3927.0,3088.0,3190.0,3360.0,-0.06,10.04,0.39,-0.07,-0.01,-0.02,1.0,a
3111.0,3411.0,4015.0,3439.0,3897.0,3071.0,3187.0,3353.0,0.16,10.07,0.61,-0.08,0.01,-0.03,1.0,a
3101.0,3401.0,4010.0,3449.0,3915.0,3089.0,3199.0,3364.0,-0.08,10.05,0.63,-0.08,0.08,-0.01,1.0,a
3104.0,3407.0,4030.0,3451.0,3922.0,3088.0,3185.0,3376.0,0.03,10.04,0.58,-0.05,-0.01,0.0,1.0,a
3125.0,3455.0,3367.0,3387.0,3850.0,3088.0,3161.0,3372.0,0.33,10.12,0.78,-0.07,0.02,-0.04,1.0,a
3121.0,3472.0,3375.0,3393.0,3841.0,3092.0,3154.0,3372.0,0.36,10.03,0.92,-0.11,-0.0,-0.04,1.0,a
3135.0,3481.0,3349.0,3386.0,3843.0,3085.0,3154.0,3375.0,0.29,9.94,1.0,-0.06,0.01,-0.04,1.0,a
3105.0,3472.0,3374.0,3401.0,3863.0,3097.0,3158.0,3375.0,0.09,9.96,0.92,-0.05,0.04,-0.05,1.0,a
3127.0,3481.0,3361.0,3386.0,3851.0,3089.0,3165.0,3363.0,0.16,10.05,0.84,-0.05,0.06,-0.02,1.0,a
3123.0,3482.0,3361.0,3392.0,3853.0,3095.0,3162.0,3366.0,0.36,10.08,0.82,-0.06,-0.0,-0.02,1.0,a
3123.0,3472.0,3371.0,3408.0,3847.0,3110.0,3157.0,3383.0,0.51,10.05,0.82,-0.05,-0.0,-0.03,1.0,a
3109.0,3473.0,3358.0,3406.0,3853.0,3101.0,3169.0,3378.0,0.26,10.08,0.78,-0.06,0.06,-0.03,1.0,a
3118.0,3478.0,3359.0,3402.0,3894.0,3108.0,3167.0,3374.0,0.17,10.03,0.96,-0.08,-0.02,-0.02,1.0,a
3116.0,3499.0,3375.0,3403.0,3888.0,3117.0,3165.0,3376.0,0.4,9.99,1.06,-0.03,-0.01,-0.04,1.0,a
3120.0,3468.0,3365.0,3415.0,3885.0,3117.0,3175.0,3375.0,0.32,10.08,0.76,-0.03,0.03,-0.06,1.0,a
3122.0,3478.0,3366.0,3412.0,3898.0,3107.0,3181.0,3390.0,0.25,10.09,0.6,-0.08,-0.03,-0.06,1.0,a
3124.0,3465.0,3361.0,3401.0,3889.0,3123.0,3184.0,3391.0,0.13,10.02,0.81,-0.11,-0.02,-0.05,1.0,a
3120.0,3463.0,3374.0,3417.0,3899.0,3121.0,3178.0,3387.0,0.11,9.96,0.99,-0.12,-0.01,-0.01,1.0,a
3116.0,3471.0,3363.0,3409.0,3891.0,3126.0,3183.0,3377.0,0.32,10.01,1.0,-0.1,-0.01,-0.01,1.0,a
3117.0,3477.0,3361.0,3425.0,3911.0,3122.0,3173.0,3402.0,0.4,10.05,0.91,-0.1,0.04,0.0,1.0,a
3122.0,3500.0,3359.0,3408.0,3903.0,3123.0,3184.0,3392.0,0.41,10.05,0.72,-0.14,0.04,-0.02,1.0,a
3121.0,3472.0,3351.0,3424.0,3887.0,3127.0,3184.0,3395.0,0.2,10.04,0.79,-0.2,0.05,-0.01,1.0,a
3115.0,3483.0,3354.0,3426.0,3893.0,3123.0,3189.0,3390.0,0.19,10.03,0.96,-0.26,0.04,0.01,1.0,a
3132.0,3472.0,3362.0,3415.0,3899.0,3125.0,3181.0,3391.0,0.39,9.97,1.19,-0.26,0.04,0.02,1.0,a
3283.0,3422.0,3392.0,3277.0,3920.0,3058.0,3207.0,3394.0,0.55,10.03,1.45,-0.1,0.03,0.12,1.0,a
3277.0,3415.0,3386.0,3264.0,3921.0,3056.0,3206.0,3378.0,1.12,9.9,1.28,0.01,0.11,0.05,1.0,a
3277.0,3423.0,3392.0,3270.0,3930.0,3056.0,3207.0,3397.0,0.98,10.01,1.23,-0.04,0.21,0.02,1.0,a
3275.0,3435.0,3408.0,3264.0,3950.0,3055.0,3209.0,3404.0,0.95,9.96,1.33,-0.02,0.08,-0.04,1.0,a
3281.0,3431.0,3408.0,3253.0,3931.0,3061.0,3213.0,3404.0,0.9,10.04,1.3,-0.03,0.1,-0.05,1.0,a
3280.0,3418.0,3408.0,3261.0,3947.0,3062.0,3214.0,3392.0,0.7,10.08,1.26,-0.07,0.08,-0.12,1.0,a
3267.0,3424.0,3392.0,3255.0,3931.0,3058.0,3214.0,3403.0,0.54,9.97,1.31,-0.02,-0.04,-0.1,1.0,a
3270.0,3425.0,3408.0,3250.0,3936.0,3058.0,3216.0,3392.0,0.44,10.12,0.91,-0.0,0.13,-0.04,1.0,a
3274.0,3413.0,3401.0,3251.0,3920.0,3063.0,3213.0,3392.0,0.37,10.07,1.04,-0.09,0.08,-0.05,1.0,a
3276.0,3429.0,3397.0,3261.0,3958.0,3071.0,3216.0,3408.0,0.36,10.0,1.41,-0.11,0.0,-0.05,1.0,a
3263.0,3421.0,3390.0,3257.0,3954.0,3071.0,3220.0,3393.0,0.58,9.91,1.6,-0.03,0.03,-0.03,1.0,a
3279.0,3408.0,3383.0,3252.0,3954.0,3056.0,3207.0,3409.0,0.54,10.0,1.14,0.01,0.03,-0.03,1.0,a
3271.0,3415.0,3403.0,3262.0,3931.0,3067.0,3209.0,3393.0,0.52,10.06,0.98,-0.02,0.01,-0.07,1.0,a
3270.0,3408.0,3383.0,3260.0,3936.0,3065.0,3210.0,3407.0,0.46,10.02,1.02,-0.1,-0.0,-0.05,1.0,a
3277.0,3419.0,3402.0,3257.0,3952.0,3059.0,3219.0,3408.0,0.7,9.98,1.06,-0.05,0.02,-0.07,1.0,a
3275.0,3425.0,3392.0,3249.0,3931.0,3071.0,3216.0,3407.0,0.33,10.06,1.05,-0.11,0.0,-0.09,1.0,a
3274.0,3435.0,3393.0,3251.0,3942.0,3079.0,3209.0,3407.0,0.31,9.98,1.28,-0.08,0.0,-0.04,1.0,a
3266.0,3409.0,3403.0,3257.0,3941.0,3071.0,3222.0,3406.0,0.45,10.03,1.25,-0.06,0.06,0.02,1.0,a
3279.0,3415.0,3376.0,3251.0,3970.0,3071.0,3216.0,3408.0,0.46,10.08,1.07,-0.05,0.07,0.0,1.0,a
3277.0,3419.0,3412.0,3239.0,3955.0,3071.0,3209.0,3404.0,0.62,10.0,1.21,-0.11,0.05,0.01,1.0,a
3117.0,3689.0,3935.0,3055.0,3996.0,3200.0,3241.0,3328.0,0.83,9.9,1.51,0.05,-0.14,-0.08,1.0,a
3113.0,3687.0,3938.0,3049.0,3967.0,3205.0,3233.0,3328.0,0.98,10.29,1.22,-0.06,-0.11,-0.09,1.0,a
3127.0,3695.0,3920.0,3067.0,3984.0,3203.0,3231.0,3354.0,1.01,9.87,1.68,-0.07,-0.02,-0.03,1.0,a
3136.0,3687.0,3935.0,3082.0,3987.0,3216.0,3229.0,3335.0,0.8,10.01,1.55,-0.11,0.07,-0.06,1.0,a
3120.0,3696.0,3915.0,3071.0,3978.0,3216.0,3237.0,3343.0,0.63,9.82,1.62,-0.05,0.0,-0.07,1.0,a
3120.0,3693.0,3930.0,3069.0,3975.0,3209.0,3239.0,3349.0,0.88,9.99,1.53,0.03,-0.07,-0.07,1.0,a
3131.0,3707.0,3926.0,3085.0,4016.0,3211.0,3247.0,3359.0,0.85,9.97,1.32,-0.05,-0.0,-0.04,1.0,a
3121.0,3710.0,3905.0,3083.0,4016.0,3205.0,3242.0,3357.0,0.91,10.04,1.37,-0.09,0.01,-0.05,1.0,a
3123.0,3723.0,3918.0,3088.0,4006.0,3205.0,3244.0,3361.0,0.92,9.91,1.58,-0.14,-0.02,-0.02,1.0,a
3124.0,3690.0,3922.0,3085.0,3999.0,3216.0,3242.0,3372.0,0.95,9.91,1.68,-0.05,-0.02,-0.04,1.0,a
3133.0,3697.0,3890.0,3095.0,3989.0,3207.0,3250.0,3360.0,0.91,9.96,1.54,-0.05,0.02,-0.03,1.0,a
3113.0,3715.0,3899.0,3091.0,4013.0,3211.0,3243.0,3374.0,0.91,10.03,1.38,-0.04,-0.0,-0.05,1.0,a
3135.0,3713.0,3907.0,3106.0,4001.0,3207.0,3251.0,3356.0,0.86,9.93,1.63,-0.1,-0.03,-0.05,1.0,a
3120.0,3710.0,3888.0,3106.0,3999.0,3220.0,3247.0,3365.0,0.91,9.97,1.7,-0.04,0.01,-0.03,1.0,a
3121.0,3701.0,3912.0,3107.0,3985.0,3218.0,3241.0,3373.0,0.95,9.88,1.73,-0.09,0.03,-0.07,1.0,a
3115.0,3705.0,3920.0,3107.0,4030.0,3217.0,3250.0,3375.0,1.18,10.05,1.24,-0.02,0.04,-0.16,1.0,a
3123.0,3712.0,3905.0,3127.0,4011.0,3216.0,3247.0,3365.0,0.62,9.84,1.44,-0.1,0.01,-0.16,1.0,a
3125.0,3709.0,3888.0,3131.0,4015.0,3216.0,3254.0,3369.0,0.6,10.01,1.57,-0.15,-0.06,-0.11,1.0,a
3119.0,3710.0,3895.0,3143.0,4021.0,3215.0,3251.0,3371.0,0.54,9.96,1.66,-0.13,-0.04,-0.07,1.0,a
3118.0,3699.0,3901.0,3152.0,4016.0,3213.0,3247.0,3376.0,0.36,9.91,1.72,-0.12,-0.04,-0.0,1.0,a
3282.0,3410.0,2241.0,3677.0,4031.0,3213.0,3306.0,3578.0,0.09,9.94,2.15,-0.18,0.06,0.08,1.0,a
3262.0,3415.0,2255.0,3683.0,4049.0,3200.0,3312.0,3570.0,0.48,9.71,2.66,-0.09,-0.06,0.02,1.0,a
3280.0,3410.0,2262.0,3691.0,4038.0,3211.0,3312.0,3568.0,0.53,9.73,2.47,-0.06,0.05,0.06,1.0,a
3279.0,3397.0,2256.0,3666.0,4026.0,3215.0,3323.0,3583.0,0.64,9.74,2.4,-0.11,0.07,0.1,1.0,a
3288.0,3423.0,2253.0,3679.0,4044.0,3214.0,3313.0,3581.0,0.82,9.85,2.38,-0.13,-0.0,0.09,1.0,a
3283.0,3396.0,2247.0,3664.0,4031.0,3218.0,3309.0,3574.0,0.9,9.8,2.61,-0.15,-0.09,0.07,1.0,a
3286.0,3427.0,2253.0,3691.0,4048.0,3205.0,3311.0,3583.0,1.02,9.69,2.73,-0.11,0.01,0.06,1.0,a
3275.0,3410.0,2256.0,3683.0,4027.0,3201.0,3319.0,3583.0,1.2,9.82,2.51,-0.08,0.07,0.07,1.0,a
3279.0,3403.0,2251.0,3683.0,4055.0,3216.0,3312.0,3571.0,1.07,9.74,2.63,-0.11,0.04,0.05,1.0,a
3280.0,3408.0,2240.0,3696.0,4047.0,3217.0,3303.0,3575.0,1.19,9.76,2.72,-0.11,-0.07,0.02,1.0,a
3279.0,3430.0,2256.0,3679.0,4045.0,3213.0,3325.0,3577.0,1.22,9.64,3.0,-0.09,0.0,0.0,1.0,a
3280.0,3408.0,2256.0,3675.0,4035.0,3216.0,3317.0,3575.0,0.94,9.66,2.89,-0.05,0.0,-0.01,1.0,a
3293.0,3407.0,2252.0,3696.0,4032.0,3210.0,3327.0,3571.0,0.89,9.68,2.72,-0.04,-0.18,0.0,1.0,a
3282.0,3413.0,2256.0,3681.0,4065.0,3213.0,3313.0,3568.0,1.48,9.77,2.71,-0.02,-0.15,-0.01,1.0,a
3271.0,3405.0,2256.0,3671.0,4048.0,3213.0,3315.0,3577.0,1.4,9.76,2.56,-0.02,0.02,-0.03,1.0,a
3282.0,3405.0,2250.0,3669.0,4042.0,3219.0,3327.0,3578.0,1.36,9.75,2.56,-0.02,-0.06,-0.07,1.0,a
3282.0,3417.0,2259.0,3686.0,4048.0,3223.0,3312.0,3583.0,1.12,9.69,2.73,-0.06,-0.05,-0.07,1.0,a
3276.0,3406.0,2250.0,3663.0,4063.0,3219.0,3328.0,3583.0,1.09,9.75,2.72,-0.02,-0.06,-0.07,1.0,a
3280.0,3418.0,2256.0,3666.0,4048.0,3216.0,3317.0,3571.0,1.11,9.73,2.65,0.01,-0.01,-0.05,1.0,a
3284.0,3409.0,2251.0,3679.0,4047.0,3222.0,3324.0,3583.0,1.15,9.78,2.42,0.02,-0.02,-0.05,1.0,a
3305.0,3515.0,3071.0,3579.0,4046.0,3151.0,3184.0,3373.0,0.57,9.95,1.46,-0.07,-0.01,-0.02,1.0,a
3310.0,3525.0,3094.0,3583.0,4069.0,3139.0,3183.0,3371.0,0.57,9.96,1.53,-0.09,0.01,-0.04,1.0,a
3309.0,3510.0,3100.0,3568.0,4044.0,3147.0,3176.0,3377.0,0.52,9.96,1.46,-0.04,0.02,-0.03,1.0,a
3303.0,3517.0,3094.0,3563.0,4071.0,3145.0,3190.0,3391.0,0.66,9.94,1.49,-0.03,-0.02,-0.04,1.0,a
3305.0,3513.0,3096.0,3565.0,4073.0,3143.0,3184.0,3382.0,0.66,9.99,1.32,-0.03,0.02,-0.07,1.0,a
3309.0,3530.0,3081.0,3583.0,4064.0,3147.0,3184.0,3380.0,0.4,9.97,1.29,-0.07,-0.01,-0.08,1.0,a
3303.0,3536.0,3090.0,3583.0,4054.0,3152.0,3190.0,3377.0,0.39,10.02,1.38,-0.06,-0.01,-0.04,1.0,a
3294.0,3531.0,3092.0,3583.0,4074.0,3146.0,3191.0,3379.0,0.44,9.97,1.4,-0.06,0.02,-0.02,1.0,a
3312.0,3517.0,3095.0,3600.0,4083.0,3140.0,3189.0,3377.0,0.55,10.01,1.26,-0.04,-0.0,-0.03,1.0,a
3299.0,3514.0,3080.0,3583.0,4055.0,3150.0,3190.0,3386.0,0.58,9.95,1.48,-0.1,-0.02,-0.04,1.0,a
3298.0,3522.0,3088.0,3568.0,4065.0,3149.0,3185.0,3390.0,0.71,9.96,1.46,-0.04,-0.02,-0.06,1.0,a
3307.0,3536.0,3091.0,3571.0,4075.0,3152.0,3201.0,3386.0,0.52,10.03,1.2,-0.06,0.01,-0.06,1.0,a
3319.0,3521.0,3091.0,3569.0,4084.0,3147.0,3199.0,3401.0,0.42,9.99,1.15,-0.08,-0.04,-0.05,1.0,a
3295.0,3521.0,3092.0,3583.0,4086.0,3154.0,3203.0,3391.0,0.61,10.05,1.25,-0.11,0.0,-0.05,1.0,a
3307.0,3510.0,3088.0,3574.0,4073.0,3162.0,3198.0,3382.0,0.5,9.94,1.43,-0.12,-0.0,-0.03,1.0,a
3301.0,3494.0,3067.0,3601.0,4063.0,3152.0,3201.0,3394.0,0.68,10.03,1.39,-0.11,0.01,-0.06,1.0,a
3306.0,3515.0,3095.0,3599.0,4070.0,3150.0,3195.0,3377.0,0.43,9.92,1.53,-0.13,-0.02,-0.06,1.0,a
3309.0,3526.0,3094.0,3600.0,4089.0,3159.0,3197.0,3397.0,0.42,9.97,1.6,-0.11,-0.06,-0.04,1.0,a
3315.0,3533.0,3093.0,3583.0,4083.0,3163.0,3203.0,3382.0,0.5,10.0,1.7,-0.07,-0.11,-0.0,1.0,a
3302.0,3513.0,3090.0,3582.0,4085.0,3152.0,3197.0,3395.0,0.78,9.97,1.49,-0.04,-0.12,-0.03,1.0,a
3211.0,3650.0,4038.0,3382.0,3945.0,3168.0,3199.0,3375.0,0.3,9.99,1.65,-0.05,0.02,-0.03,1.0,a
3218.0,3655.0,4048.0,3375.0,3947.0,3167.0,3168.0,3381.0,0.44,9.94,1.7,-0.06,-0.0,-0.03,1.0,a
3204.0,3641.0,4013.0,3382.0,3949.0,3166.0,3200.0,3373.0,0.4,9.94,1.71,-0.05,0.01,-0.03,1.0,a
3203.0,3639.0,4050.0,3377.0,3959.0,3161.0,3197.0,3379.0,0.39,9.97,1.66,-0.04,0.0,-0.05,1.0,a
3214.0,3647.0,4035.0,3381.0,3943.0,3162.0,3200.0,3392.0,0.35,9.95,1.68,-0.05,0.0,-0.04,1.0,a
3216.0,3643.0,4039.0,3380.0,3951.0,3167.0,3199.0,3377.0,0.34,9.97,1.61,-0.06,0.0,-0.04,1.0,a
3217.0,3661.0,4061.0,3390.0,3952.0,3158.0,3202.0,3382.0,0.3,9.96,1.66,-0.05,-0.0,-0.03,1.0,a
3215.0,3643.0,4043.0,3399.0,3946.0,3165.0,3200.0,3382.0,0.43,9.89,1.89,-0.06,-0.05,-0.04,1.0,a
3211.0,3655.0,4031.0,3385.0,3967.0,3169.0,3204.0,3381.0,0.34,9.94,1.78,-0.01,0.02,-0.03,1.0,a
3216.0,3638.0,4036.0,3386.0,3967.0,3171.0,3200.0,3395.0,0.51,10.02,1.56,-0.01,-0.01,-0.04,1.0,a
3211.0,3652.0,4034.0,3387.0,3969.0,3168.0,3199.0,3391.0,0.38,9.93,1.58,-0.03,-0.01,-0.05,1.0,a
3205.0,3651.0,4033.0,3387.0,3959.0,3173.0,3206.0,3365.0,0.44,10.0,1.6,-0.01,-0.03,-0.04,1.0,a
3221.0,3649.0,4026.0,3401.0,3958.0,3168.0,3213.0,3383.0,0.46,9.98,1.63,-0.03,0.0,-0.08,1.0,a
3216.0,3658.0,4049.0,3388.0,3977.0,3173.0,3215.0,3383.0,0.16,9.99,1.51,-0.05,0.05,-0.1,1.0,a
3211.0,3647.0,4032.0,3402.0,3958.0,3174.0,3214.0,3389.0,0.2,9.96,1.5,-0.04,-0.06,-0.04,1.0,a
3200.0,3648.0,4039.0,3387.0,3956.0,3173.0,3213.0,3395.0,0.38,10.04,1.39,-0.02,-0.0,-0.05,1.0,a
3216.0,3655.0,4055.0,3390.0,3957.0,3170.0,3215.0,3397.0,0.25,9.99,1.46,-0.07,-0.01,-0.01,1.0,a
3210.0,3658.0,4032.0,3417.0,3960.0,3173.0,3216.0,3394.0,0.47,10.01,1.65,-0.06,-0.04,-0.03,1.0,a
3206.0,3663.0,4023.0,3401.0,3972.0,3168.0,3215.0,3389.0,0.25,9.95,1.55,-0.06,0.02,-0.05,1.0,a
3223.0,3643.0,4014.0,3398.0,3974.0,3175.0,3215.0,3394.0,0.33,9.99,1.55,-0.04,-0.02,-0.03,1.0,a
3150.0,3536.0,3437.0,3465.0,3941.0,3127.0,3211.0,3344.0,0.28,10.0,1.65,-0.09,0.03,0.01,1.0,a
3162.0,3535.0,3454.0,3471.0,3926.0,3130.0,3212.0,3355.0,0.35,10.01,1.69,-0.07,0.03,0.02,1.0,a
3173.0,3531.0,3440.0,3456.0,3915.0,3135.0,3201.0,3358.0,0.47,9.84,1.84,-0.1,-0.03,0.01,1.0,a
3161.0,3520.0,3426.0,3467.0,3925.0,3121.0,3209.0,3355.0,0.54,10.0,1.81,-0.02,0.01,-0.02,1.0,a
3175.0,3522.0,3441.0,3455.0,3940.0,3135.0,3204.0,3364.0,0.46,9.88,1.68,-0.07,0.02,-0.04,1.0,a
3172.0,3526.0,3439.0,3467.0,3931.0,3135.0,3215.0,3371.0,0.41,9.99,1.61,-0.07,-0.01,-0.07,1.0,a
3167.0,3510.0,3446.0,3472.0,3925.0,3138.0,3210.0,3357.0,0.16,9.92,1.75,-0.08,-0.01,-0.05,1.0,a
3152.0,3509.0,3440.0,3477.0,3927.0,3135.0,3216.0,3366.0,0.33,9.92,1.87,-0.06,0.01,-0.03,1.0,a
3169.0,3514.0,3433.0,3461.0,3964.0,3137.0,3219.0,3355.0,0.37,9.92,1.72,-0.04,0.03,-0.02,1.0,a
3163.0,3529.0,3440.0,3481.0,3938.0,3146.0,3200.0,3365.0,0.41,9.96,1.69,-0.05,-0.0,-0.04,1.0,a
3155.0,3521.0,3433.0,3472.0,3933.0,3146.0,3222.0,3370.0,0.41,9.93,1.7,-0.06,0.03,-0.04,1.0,a
3160.0,3520.0,3431.0,3477.0,3943.0,3150.0,3223.0,3361.0,0.37,9.97,1.74,-0.04,-0.01,-0.03,1.0,a
3162.0,3520.0,3440.0,3472.0,3954.0,3149.0,3234.0,3374.0,0.37,9.95,1.66,-0.06,0.02,-0.04,1.0,a
3159.0,3535.0,3452.0,3489.0,3940.0,3150.0,3218.0,3366.0,0.29,9.91,1.72,-0.05,0.03,-0.02,1.0,a
3163.0,3535.0,3454.0,3501.0,3954.0,3163.0,3222.0,3383.0,0.37,9.93,1.74,-0.09,-0.0,-0.02,1.0,a
3162.0,3529.0,3439.0,3493.0,3951.0,3152.0,3241.0,3375.0,0.45,9.9,1.8,-0.06,0.05,-0.03,1.0,a
3155.0,3541.0,3429.0,3502.0,3977.0,3157.0,3235.0,3376.0,0.48,9.97,1.82,-0.08,0.01,-0.02,1.0,a
3159.0,3522.0,3440.0,3501.0,3957.0,3152.0,3221.0,3372.0,0.51,9.92,1.78,-0.02,-0.0,-0.04,1.0,a
3159.0,3510.0,3424.0,3504.0,3959.0,3163.0,3243.0,3376.0,0.41,9.97,1.58,-0.07,0.02,-0.05,1.0,a
3170.0,3533.0,3433.0,3492.0,3978.0,3152.0,3235.0,3376.0,0.39,9.95,1.62,-0.09,-0.01,-0.03,1.0,a
3126.0,3446.0,3684.0,3300.0,3906.0,3104.0,3183.0,3345.0,0.33,9.94,1.76,-0.05,0.0,-0.03,1.0,a
3130.0,3440.0,3690.0,3295.0,3924.0,3114.0,3187.0,3356.0,0.35,9.85,1.78,-0.0,-0.02,-0.05,1.0,a
3122.0,3446.0,3686.0,3287.0,3907.0,3118.0,3184.0,3366.0,0.32,9.96,1.58,-0.03,0.03,-0.05,1.0,a
3120.0,3446.0,3669.0,3296.0,3916.0,3104.0,3197.0,3369.0,0.26,9.95,1.64,-0.04,-0.03,-0.04,1.0,a
3115.0,3463.0,3670.0,3317.0,3924.0,3114.0,3193.0,3353.0,0.44,9.95,1.66,-0.04,-0.02,-0.06,1.0,a
3119.0,3456.0,3696.0,3327.0,3938.0,3111.0,3200.0,3359.0,0.27,10.02,1.5,-0.06,0.04,-0.05,1.0,a
3120.0,3439.0,3681.0,3326.0,3924.0,3109.0,3200.0,3376.0,0.21,9.93,1.64,-0.07,-0.03,-0.03,1.0,a
3119.0,3458.0,3693.0,3335.0,3935.0,3122.0,3191.0,3362.0,0.36,9.92,1.7,-0.06,0.01,-0.03,1.0,a
3120.0,3449.0,3682.0,3342.0,3929.0,3125.0,3203.0,3378.0,0.46,9.98,1.65,-0.05,-0.0,-0.04,1.0,a
3110.0,3453.0,3678.0,3343.0,3958.0,3120.0,3200.0,3358.0,0.37,9.9,1.78,-0.06,0.01,-0.05,1.0,a
3115.0,3443.0,3687.0,3347.0,3950.0,3125.0,3195.0,3366.0,0.27,9.95,1.78,-0.03,0.01,-0.05,1.0,a
3125.0,3446.0,3687.0,3344.0,3968.0,3133.0,3198.0,3367.0,0.41,9.97,1.7,-0.03,-0.03,-0.05,1.0,a
3123.0,3441.0,3664.0,3307.0,3965.0,3129.0,3209.0,3374.0,0.28,9.97,1.57,-0.02,0.01,-0.05,1.0,a
3123.0,3450.0,3676.0,3347.0,3957.0,3135.0,3204.0,3379.0,0.21,9.96,1.64,-0.06,-0.04,-0.05,1.0,a
3121.0,3446.0,3667.0,3356.0,3967.0,3127.0,3218.0,3375.0,0.33,9.97,1.52,-0.04,0.01,-0.03,1.0,a
3120.0,3460.0,3681.0,3347.0,3945.0,3126.0,3199.0,3376.0,0.34,10.01,1.52,-0.07,0.01,-0.05,1.0,a
3125.0,3431.0,3681.0,3365.0,3950.0,3130.0,3213.0,3376.0,0.27,9.93,1.74,-0.07,-0.02,-0.03,1.0,a
3122.0,3454.0,3675.0,3351.0,3970.0,3136.0,3216.0,3390.0,0.36,9.97,1.73,-0.07,0.02,-0.03,1.0,a
3121.0,3435.0,3659.0,3367.0,3966.0,3150.0,3216.0,3386.0,0.37,9.94,1.68,-0.05,-0.01,-0.02,1.0,a
3128.0,3438.0,3696.0,3365.0,3957.0,3127.0,3207.0,3375.0,0.49,9.96,1.52,-0.03,0.01,-0.04,1.0,a
3094.0,4086.0,3731.0,3122.0,3971.0,3152.0,3198.0,3358.0,0.16,9.98,1.57,-0.02,0.03,-0.03,1.0,a
3107.0,4079.0,3733.0,3118.0,3958.0,3152.0,3203.0,3361.0,0.43,10.06,1.39,-0.11,0.01,-0.03,1.0,a
3091.0,4065.0,3737.0,3125.0,3964.0,3155.0,3216.0,3353.0,0.42,10.0,1.4,-0.05,0.02,-0.05,1.0,a
3114.0,4079.0,3737.0,3120.0,3951.0,3154.0,3213.0,3356.0,0.26,10.1,1.34,-0.05,-0.03,-0.06,1.0,a
3091.0,4081.0,3728.0,3120.0,3982.0,3151.0,3216.0,3370.0,0.38,10.05,1.34,-0.02,0.01,-0.04,1.0,a
3088.0,4057.0,3725.0,3138.0,3966.0,3155.0,3218.0,3366.0,0.24,10.0,1.34,-0.08,-0.02,-0.04,1.0,a
3088.0,4095.0,3719.0,3141.0,3957.0,3157.0,3220.0,3358.0,0.29,9.94,1.4,-0.09,-0.0,-0.02,1.0,a
3104.0,4095.0,3729.0,3136.0,3970.0,3152.0,3218.0,3374.0,0.39,10.05,1.37,-0.09,-0.03,-0.04,1.0,a
3103.0,4082.0,3723.0,3139.0,3957.0,3151.0,3214.0,3376.0,0.35,9.96,1.53,-0.08,0.01,-0.03,1.0,a
3092.0,4056.0,3718.0,3143.0,3987.0,3169.0,3227.0,3367.0,0.24,10.02,1.5,-0.08,0.0,-0.03,1.0,a
3103.0,4078.0,3727.0,3152.0,3965.0,3159.0,3218.0,3373.0,0.25,9.9,1.59,-0.06,-0.02,-0.02,1.0,a
3103.0,4067.0,3737.0,3150.0,3968.0,3173.0,3223.0,3373.0,0.33,10.0,1.54,-0.03,0.01,-0.0,1.0,a
3104.0,4083.0,3712.0,3150.0,3975.0,3163.0,3219.0,3373.0,0.45,10.01,1.46,-0.07,-0.01,-0.02,1.0,a
3109.0,4061.0,3743.0,3152.0,3983.0,3179.0,3221.0,3381.0,0.46,9.97,1.51,-0.03,-0.0,-0.04,1.0,a
3102.0,4070.0,3729.0,3152.0,3970.0,3169.0,3229.0,3386.0,0.28,9.96,1.46,-0.0,-0.0,-0.05,1.0,a
3097.0,4053.0,3712.0,3156.0,3994.0,3165.0,3233.0,3381.0,0.33,9.99,1.42,-0.02,-0.03,-0.02,1.0,a
3101.0,4095.0,3728.0,3165.0,4001.0,3184.0,3253.0,3382.0,0.43,10.01,1.45,-0.07,0.02,-0.05,1.0,a
3102.0,4095.0,3728.0,3182.0,3999.0,3185.0,3237.0,3392.0,0.28,10.01,1.45,-0.06,-0.09,-0.05,1.0,a
3102.0,4095.0,3728.0,3188.0,3999.0,3181.0,3248.0,3398.0,0.47,10.06,1.39,-0.07,-0.04,-0.02,1.0,a
3085.0,4095.0,3718.0,3184.0,4031.0,3184.0,3250.0,3401.0,0.34,9.96,1.37,-0.07,0.02,-0.03,1.0,a
3216.0,3849.0,3647.0,3234.0,3940.0,3130.0,3174.0,3360.0,0.32,10.13,1.44,-0.1,0.02,0.0,1.0,a
3216.0,3839.0,3650.0,3242.0,3951.0,3135.0,3181.0,3359.0,0.42,9.95,1.58,-0.04,-0.01,-0.01,1.0,a
3216.0,3826.0,3657.0,3242.0,3959.0,3142.0,3185.0,3363.0,0.3,10.06,1.51,-0.06,0.04,0.0,1.0,a
3215.0,3834.0,3634.0,3249.0,3978.0,3143.0,3182.0,3375.0,0.34,9.92,1.53,-0.05,-0.03,-0.02,1.0,a
3221.0,3827.0,3638.0,3259.0,3970.0,3136.0,3198.0,3367.0,0.41,10.05,1.53,-0.07,-0.04,-0.01,1.0,a
3205.0,3837.0,3646.0,3270.0,3970.0,3151.0,3187.0,3377.0,0.39,9.9,1.72,-0.08,0.01,0.0,1.0,a
3205.0,3834.0,3639.0,3254.0,3970.0,3151.0,3186.0,3376.0,0.41,10.05,1.6,-0.07,0.04,-0.03,1.0,a
3215.0,3840.0,3650.0,3263.0,3984.0,3147.0,3189.0,3376.0,0.34,9.91,1.71,-0.07,-0.01,-0.05,1.0,a
3219.0,3839.0,3627.0,3267.0,4007.0,3152.0,3199.0,3386.0,0.4,9.97,1.76,-0.07,0.01,-0.05,1.0,a
3211.0,3834.0,3651.0,3278.0,3974.0,3161.0,3199.0,3393.0,0.25,9.86,1.79,-0.08,0.05,-0.04,1.0,a
3211.0,3824.0,3632.0,3274.0,3987.0,3165.0,3199.0,3380.0,0.34,9.92,1.76,-0.03,-0.02,-0.04,1.0,a
3232.0,3824.0,3643.0,3271.0,3984.0,3155.0,3202.0,3379.0,0.51,9.96,1.64,-0.07,0.03,-0.04,1.0,a
3216.0,3854.0,3645.0,3279.0,3994.0,3166.0,3201.0,3389.0,0.35,9.95,1.58,-0.04,0.01,-0.05,1.0,a
3218.0,3823.0,3643.0,3277.0,3984.0,3168.0,3203.0,3383.0,0.29,10.0,1.65,-0.06,0.02,-0.05,1.0,a
3213.0,3855.0,3647.0,3280.0,3999.0,3157.0,3202.0,3395.0,0.14,9.95,1.67,-0.06,0.02,-0.03,1.0,a
3207.0,3836.0,3633.0,3278.0,3970.0,3167.0,3216.0,3391.0,0.47,9.98,1.67,-0.05,-0.01,-0.01,1.0,a
3215.0,3856.0,3633.0,3277.0,3941.0,3172.0,3200.0,3392.0,0.32,9.95,1.67,-0.06,0.05,-0.01,1.0,a
3211.0,3851.0,3637.0,3280.0,4005.0,3165.0,3210.0,3399.0,0.35,9.93,1.7,-0.03,-0.04,-0.03,1.0,a
3226.0,3838.0,3634.0,3290.0,3991.0,3175.0,3217.0,3394.0,0.43,10.0,1.61,-0.05,0.02,-0.04,1.0,a
3234.0,3826.0,3643.0,3278.0,3981.0,3172.0,3222.0,3391.0,0.29,9.96,1.59,-0.04,-0.02,-0.03,1.0,a
3190.0,3501.0,3450.0,3338.0,3925.0,3113.0,3169.0,3360.0,0.24,10.01,1.47,-0.06,0.05,0.02,1.0,a
3175.0,3495.0,3428.0,3350.0,3950.0,3120.0,3170.0,3356.0,0.25,9.99,1.39,-0.13,0.07,0.03,1.0,a
3184.0,3475.0,3456.0,3354.0,3943.0,3123.0,3177.0,3376.0,0.32,10.0,1.52,-0.07,-0.04,-0.02,1.0,a
3189.0,3492.0,3440.0,3344.0,3952.0,3120.0,3178.0,3362.0,0.43,9.98,1.6,-0.04,0.01,-0.04,1.0,a
3191.0,3482.0,3427.0,3357.0,3952.0,3135.0,3178.0,3358.0,0.2,10.03,1.55,-0.07,0.0,-0.04,1.0,a
3194.0,3483.0,3437.0,3349.0,3934.0,3138.0,3175.0,3366.0,0.31,9.97,1.65,-0.04,-0.01,-0.04,1.0,a
3191.0,3472.0,3440.0,3345.0,3967.0,3131.0,3152.0,3369.0,0.34,10.07,1.42,-0.05,0.03,-0.05,1.0,a
3194.0,3501.0,3444.0,3351.0,3968.0,3129.0,3184.0,3363.0,0.21,9.91,1.59,-0.04,0.0,-0.05,1.0,a
3191.0,3495.0,3434.0,3344.0,3954.0,3136.0,3184.0,3369.0,0.2,10.0,1.54,-0.06,0.0,-0.05,1.0,a
3186.0,3504.0,3436.0,3350.0,3963.0,3150.0,3184.0,3375.0,0.14,9.93,1.53,-0.04,-0.02,-0.03,1.0,a
3206.0,3494.0,3435.0,3350.0,3997.0,3140.0,3197.0,3363.0,0.29,10.04,1.48,-0.05,-0.02,-0.03,1.0,a
3182.0,3499.0,3429.0,3351.0,4007.0,3141.0,3193.0,3367.0,0.26,9.94,1.6,-0.07,0.04,-0.05,1.0,a
3193.0,3495.0,3430.0,3359.0,3991.0,3152.0,3200.0,3377.0,0.13,9.97,1.5,-0.07,-0.02,-0.03,1.0,a
3187.0,3490.0,3458.0,3359.0,3983.0,3152.0,3200.0,3382.0,0.3,9.95,1.55,-0.05,-0.01,-0.05,1.0,a
3186.0,3497.0,3419.0,3360.0,4016.0,3152.0,3198.0,3376.0,0.26,9.96,1.61,-0.05,-0.0,-0.03,1.0,a
3191.0,3497.0,3437.0,3376.0,4007.0,3152.0,3193.0,3376.0,0.27,10.0,1.46,-0.05,-0.0,-0.04,1.0,a
3178.0,3491.0,3431.0,3365.0,3998.0,3153.0,3199.0,3389.0,0.27,10.02,1.47,-0.09,0.02,-0.04,1.0,a
3187.0,3488.0,3424.0,3349.0,3999.0,3136.0,3197.0,3386.0,0.23,10.11,1.42,-0.2,-0.05,-0.01,1.0,a
3178.0,3479.0,3439.0,3369.0,3935.0,3100.0,3177.0,3368.0,0.3,9.99,1.56,-0.3,-0.02,-0.02,1.0,a
3183.0,3475.0,3430.0,3376.0,3903.0,3087.0,3159.0,3367.0,0.14,9.77,1.86,-0.3,0.02,0.02,1.0,a
3134.0,3547.0,3298.0,3549.0,3970.0,3151.0,3204.0,3385.0,-0.4,9.85,1.74,-0.06,-0.01,0.04,1.0,a
3131.0,3553.0,3307.0,3549.0,3962.0,3150.0,3200.0,3383.0,-0.33,9.98,1.65,-0.11,0.03,0.05,1.0,a
3145.0,3545.0,3318.0,3536.0,3952.0,3153.0,3197.0,3391.0,-0.32,9.99,1.74,-0.06,-0.01,-0.03,1.0,a
3143.0,3538.0,3303.0,3543.0,3966.0,3143.0,3207.0,3385.0,-0.31,9.81,2.02,-0.09,-0.04,0.0,1.0,a
3125.0,3536.0,3317.0,3542.0,3955.0,3152.0,3202.0,3382.0,-0.09,9.91,1.89,0.01,-0.0,-0.03,1.0,a
3136.0,3543.0,3303.0,3554.0,3967.0,3159.0,3213.0,3390.0,-0.34,9.96,1.77,-0.06,0.02,-0.02,1.0,a
3135.0,3536.0,3327.0,3551.0,3962.0,3152.0,3216.0,3393.0,-0.33,9.84,1.86,0.02,-0.03,0.01,1.0,a
3146.0,3539.0,3302.0,3567.0,3987.0,3167.0,3216.0,3391.0,-0.19,10.06,1.56,0.01,0.03,-0.01,1.0,a
3133.0,3549.0,3312.0,3566.0,3987.0,3166.0,3219.0,3399.0,-0.22,9.92,1.44,0.0,-0.11,-0.08,1.0,a
3145.0,3547.0,3299.0,3583.0,3985.0,3163.0,3216.0,3408.0,-0.12,10.09,1.29,-0.05,-0.15,-0.14,1.0,a
3144.0,3529.0,3312.0,3579.0,3986.0,3166.0,3218.0,3415.0,-0.33,9.87,1.74,-0.13,0.02,-0.03,1.0,a
3138.0,3549.0,3316.0,3567.0,3984.0,3169.0,3216.0,3403.0,-0.41,9.9,1.8,-0.09,-0.01,-0.02,1.0,a
3136.0,3519.0,3305.0,3583.0,3982.0,3179.0,3220.0,3418.0,-0.26,9.88,1.76,-0.08,0.01,-0.01,1.0,a
3132.0,3555.0,3305.0,3600.0,4010.0,3174.0,3219.0,3409.0,-0.22,9.97,1.7,-0.06,-0.01,-0.02,1.0,a
3127.0,3555.0,3306.0,3579.0,3981.0,3174.0,3219.0,3406.0,-0.15,9.94,1.73,-0.1,-0.02,-0.03,1.0,a
3127.0,3536.0,3312.0,3568.0,4003.0,3177.0,3231.0,3402.0,-0.2,9.96,1.67,-0.06,0.02,-0.04,1.0,a
3130.0,3545.0,3313.0,3559.0,3981.0,3163.0,3238.0,3402.0,-0.33,9.89,1.78,-0.11,-0.01,-0.04,1.0,a
3135.0,3550.0,3310.0,3573.0,3980.0,3175.0,3232.0,3406.0,-0.25,9.94,1.81,-0.04,0.01,-0.03,1.0,a
3131.0,3541.0,3313.0,3567.0,3993.0,3177.0,3235.0,3409.0,-0.17,9.95,1.71,-0.08,0.01,-0.02,1.0,a
3145.0,3542.0,3306.0,3581.0,3995.0,3172.0,3237.0,3416.0,-0.09,9.97,1.74,-0.04,-0.02,-0.03,1.0,a
3185.0,3462.0,3442.0,3207.0,3929.0,3144.0,3223.0,3376.0,0.11,9.91,1.45,-0.05,0.03,-0.0,1.0,a
3187.0,3456.0,3434.0,3201.0,3952.0,3138.0,3218.0,3380.0,0.09,10.01,1.48,-0.03,0.02,-0.04,1.0,a
3191.0,3467.0,3433.0,3205.0,3965.0,3143.0,3221.0,3393.0,0.13,9.93,1.43,-0.06,0.04,-0.04,1.0,a
3195.0,3455.0,3441.0,3213.0,3942.0,3154.0,3230.0,3388.0,0.13,10.05,1.36,-0.02,0.04,-0.04,1.0,a
3197.0,3463.0,3435.0,3213.0,3946.0,3153.0,3234.0,3394.0,0.14,9.98,1.27,-0.05,0.0,-0.06,1.0,a
3195.0,3444.0,3446.0,3218.0,3958.0,3157.0,3226.0,3405.0,0.06,9.96,1.36,-0.05,-0.02,-0.06,1.0,a
3196.0,3451.0,3445.0,3219.0,3943.0,3162.0,3227.0,3393.0,-0.01,9.92,1.35,-0.08,0.01,-0.06,1.0,a
3184.0,3466.0,3441.0,3233.0,3937.0,3161.0,3242.0,3395.0,-0.06,9.88,1.4,-0.04,0.02,-0.03,1.0,a
3197.0,3463.0,3445.0,3229.0,3970.0,3157.0,3235.0,3415.0,0.08,10.15,1.28,-0.04,0.01,-0.05,1.0,a
3190.0,3440.0,3422.0,3222.0,3969.0,3174.0,3243.0,3413.0,0.03,10.01,1.34,-0.11,0.01,0.01,1.0,a
3200.0,3450.0,3440.0,3242.0,3962.0,3136.0,3242.0,3408.0,0.33,10.05,1.37,-0.09,-0.02,-0.02,1.0,a
3185.0,3470.0,3441.0,3241.0,3957.0,3161.0,3246.0,3402.0,0.19,9.97,1.38,-0.09,0.01,-0.03,1.0,a
3185.0,3453.0,3453.0,3231.0,3961.0,3174.0,3243.0,3421.0,0.16,9.99,1.3,-0.05,-0.02,-0.07,1.0,a
3193.0,3451.0,3434.0,3237.0,3951.0,3180.0,3243.0,3426.0,-0.14,9.97,1.41,-0.09,-0.03,-0.03,1.0,a
3186.0,3454.0,3440.0,3239.0,3954.0,3172.0,3238.0,3415.0,0.11,9.95,1.55,-0.05,-0.04,-0.02,1.0,a
3179.0,3445.0,3436.0,3235.0,3983.0,3172.0,3248.0,3415.0,0.3,10.05,1.4,-0.06,0.01,-0.03,1.0,a
3184.0,3451.0,3431.0,3248.0,3984.0,3168.0,3244.0,3425.0,0.1,9.98,1.36,-0.05,-0.02,-0.05,1.0,a
3183.0,3458.0,3440.0,3248.0,3984.0,3175.0,3250.0,3408.0,0.24,10.04,1.5,-0.06,-0.02,-0.03,1.0,a
3181.0,3447.0,3426.0,3247.0,3959.0,3171.0,3253.0,3409.0,0.21,9.97,1.44,-0.04,-0.0,-0.05,1.0,a
3182.0,3453.0,3438.0,3251.0,3990.0,3181.0,3253.0,3421.0,0.23,10.02,1.4,-0.04,-0.03,-0.05,1.0,a
3153.0,3359.0,3842.0,3599.0,3825.0,3059.0,3203.0,3357.0,0.28,10.09,1.39,-0.04,-0.02,-0.07,1.0,a
3162.0,3345.0,3859.0,3580.0,3855.0,3058.0,3197.0,3349.0,0.23,9.98,1.34,-0.01,0.02,-0.05,1.0,a
3161.0,3371.0,3825.0,3609.0,3856.0,3071.0,3216.0,3361.0,0.4,10.1,1.16,-0.04,-0.03,-0.05,1.0,a
3147.0,3334.0,3841.0,3602.0,3853.0,3085.0,3213.0,3361.0,0.41,10.03,1.35,-0.03,0.0,-0.04,1.0,a
3147.0,3353.0,3839.0,3583.0,3861.0,3085.0,3216.0,3357.0,0.37,9.99,1.3,-0.04,-0.02,-0.07,1.0,a
3161.0,3350.0,3841.0,3602.0,3864.0,3088.0,3217.0,3351.0,0.31,10.03,1.24,-0.06,0.0,-0.06,1.0,a
3158.0,3359.0,3824.0,3577.0,3888.0,3099.0,3216.0,3361.0,0.12,10.01,1.27,-0.08,0.01,-0.05,1.0,a
3150.0,3360.0,3856.0,3583.0,3874.0,3098.0,3215.0,3358.0,0.33,10.03,1.28,-0.06,-0.02,-0.04,1.0,a
3155.0,3360.0,3856.0,3583.0,3887.0,3088.0,3223.0,3369.0,0.28,10.02,1.33,-0.06,0.02,-0.05,1.0,a
3155.0,3357.0,3841.0,3571.0,3879.0,3105.0,3237.0,3377.0,0.25,9.96,1.41,-0.03,0.01,-0.03,1.0,a
3152.0,3344.0,3835.0,3570.0,3874.0,3107.0,3218.0,3359.0,0.32,10.01,1.21,-0.04,-0.01,-0.05,1.0,a
3153.0,3351.0,3839.0,3571.0,3885.0,3102.0,3230.0,3367.0,0.33,9.95,1.35,-0.05,-0.01,-0.05,1.0,a
3161.0,3348.0,3849.0,3564.0,3906.0,3115.0,3241.0,3365.0,0.27,10.05,1.32,-0.04,-0.01,-0.07,1.0,a
3163.0,3358.0,3803.0,3557.0,3904.0,3117.0,3239.0,3367.0,0.17,9.99,1.24,-0.04,-0.04,-0.07,1.0,a
3172.0,3373.0,3831.0,3566.0,3909.0,3120.0,3234.0,3376.0,0.07,10.01,1.19,-0.02,-0.01,-0.04,1.0,a
3165.0,3344.0,3848.0,3562.0,3923.0,3122.0,3253.0,3363.0,0.26,10.01,1.15,-0.01,0.01,-0.04,1.0,a
3161.0,3358.0,3824.0,3566.0,3946.0,3124.0,3247.0,3366.0,0.43,10.05,1.09,-0.03,0.07,-0.04,1.0,a
3154.0,3367.0,3814.0,3553.0,3939.0,3143.0,3270.0,3386.0,0.23,10.04,1.11,-0.05,-0.04,-0.03,1.0,a
3158.0,3349.0,3820.0,3533.0,3953.0,3141.0,3270.0,3377.0,0.26,9.99,1.31,-0.07,-0.03,-0.05,1.0,a
3158.0,3344.0,3839.0,3551.0,3968.0,3152.0,3274.0,3379.0,0.19,10.02,1.33,-0.05,-0.02,-0.03,1.0,a
3267.0,3759.0,3870.0,3219.0,3888.0,3166.0,3211.0,3349.0,0.43,9.99,1.07,-0.01,-0.01,-0.04,1.0,a
3275.0,3728.0,3881.0,3222.0,3968.0,3170.0,3212.0,3360.0,0.46,10.07,1.07,-0.05,0.09,-0.05,1.0,a
3277.0,3743.0,3888.0,3242.0,3967.0,3181.0,3216.0,3363.0,0.14,9.96,1.14,-0.07,0.12,-0.03,1.0,a
3273.0,3766.0,3877.0,3239.0,3950.0,3171.0,3220.0,3362.0,0.29,10.08,1.01,-0.07,-0.09,-0.05,1.0,a
3285.0,3755.0,3854.0,3248.0,3952.0,3168.0,3221.0,3375.0,0.45,10.11,1.22,-0.05,-0.0,-0.03,1.0,a
3280.0,3759.0,3870.0,3248.0,3975.0,3174.0,3218.0,3374.0,0.35,10.15,1.05,-0.06,0.06,-0.04,1.0,a
3278.0,3741.0,3879.0,3255.0,3951.0,3181.0,3222.0,3376.0,0.41,10.03,0.98,-0.05,-0.0,-0.04,1.0,a
3280.0,3739.0,3879.0,3247.0,3979.0,3181.0,3230.0,3376.0,0.25,10.06,1.14,-0.08,0.02,-0.05,1.0,a
3280.0,3760.0,3849.0,3249.0,3986.0,3182.0,3230.0,3370.0,0.22,9.95,1.27,-0.05,-0.01,-0.03,1.0,a
3276.0,3733.0,3846.0,3257.0,3968.0,3175.0,3233.0,3389.0,0.27,9.97,1.22,-0.08,0.01,-0.03,1.0,a
3273.0,3734.0,3853.0,3255.0,3989.0,3191.0,3229.0,3386.0,0.3,9.96,1.13,-0.04,-0.03,-0.04,1.0,a
3273.0,3744.0,3859.0,3251.0,3967.0,3182.0,3226.0,3376.0,0.35,10.07,1.17,-0.06,-0.0,-0.04,1.0,a
3269.0,3737.0,3863.0,3262.0,3968.0,3187.0,3234.0,3379.0,0.27,9.98,1.08,-0.04,-0.01,-0.05,1.0,a
3280.0,3733.0,3867.0,3261.0,3967.0,3184.0,3225.0,3398.0,0.38,10.07,1.12,-0.05,-0.03,-0.04,1.0,a
3275.0,3740.0,3856.0,3251.0,3984.0,3190.0,3238.0,3397.0,0.6,9.94,1.4,-0.11,-0.06,-0.08,1.0,a
3270.0,3760.0,3861.0,3257.0,4010.0,3187.0,3233.0,3379.0,0.82,9.96,1.7,-0.06,-0.11,-0.16,1.0,a
3265.0,3742.0,3861.0,3254.0,4010.0,3197.0,3231.0,3392.0,0.08,9.99,1.18,0.08,0.08,-0.17,1.0,a
3264.0,3760.0,3869.0,3267.0,3999.0,3186.0,3234.0,3387.0,-0.52,10.0,0.77,0.04,0.04,-0.06,1.0,a
3282.0,3732.0,3863.0,3262.0,3993.0,3186.0,3247.0,3395.0,-0.13,10.03,0.92,-0.01,-0.05,-0.03,1.0,a
3273.0,3728.0,3886.0,3251.0,3981.0,3199.0,3232.0,3392.0,0.21,10.03,0.94,-0.04,-0.03,-0.03,1.0,a
3127.0,3607.0,3483.0,3491.0,3990.0,3172.0,3223.0,3391.0,0.35,9.91,1.32,-0.06,0.01,-0.04,1.0,a
3126.0,3572.0,3490.0,3499.0,3993.0,3181.0,3217.0,3390.0,0.3,9.95,1.42,-0.08,-0.01,-0.02,1.0,a
3140.0,3578.0,3479.0,3491.0,3974.0,3184.0,3216.0,3405.0,0.48,9.98,1.36,-0.01,-0.02,-0.02,1.0,a
3125.0,3581.0,3470.0,3491.0,3999.0,3183.0,3222.0,3399.0,0.52,10.05,1.3,-0.07,-0.01,-0.05,1.0,a
3120.0,3582.0,3489.0,3489.0,4018.0,3184.0,3217.0,3386.0,0.53,9.98,1.35,-0.05,-0.02,-0.04,1.0,a
3110.0,3575.0,3488.0,3504.0,4015.0,3199.0,3216.0,3395.0,0.51,10.07,1.26,-0.07,-0.02,-0.06,1.0,a
3120.0,3583.0,3475.0,3493.0,4002.0,3200.0,3223.0,3393.0,0.55,9.95,1.41,-0.04,-0.05,-0.05,1.0,a
3126.0,3583.0,3476.0,3505.0,4015.0,3199.0,3232.0,3392.0,0.46,10.04,1.29,0.0,-0.06,-0.08,1.0,a
3120.0,3571.0,3482.0,3512.0,4033.0,3199.0,3238.0,3401.0,0.24,10.03,1.28,-0.01,-0.08,-0.08,1.0,a
3130.0,3558.0,3486.0,3513.0,4011.0,3203.0,3241.0,3408.0,0.37,10.02,1.24,-0.01,-0.11,-0.07,1.0,a
3134.0,3562.0,3455.0,3538.0,4027.0,3205.0,3237.0,3408.0,0.35,10.04,1.1,-0.05,-0.13,-0.07,1.0,a
3127.0,3566.0,3489.0,3539.0,4039.0,3206.0,3239.0,3404.0,0.34,10.05,0.98,-0.03,-0.2,-0.06,1.0,a
3129.0,3566.0,3472.0,3536.0,4032.0,3211.0,3238.0,3408.0,0.34,10.07,1.02,-0.04,-0.21,-0.02,1.0,a
3123.0,3565.0,3473.0,3533.0,4050.0,3214.0,3246.0,3413.0,0.28,10.0,1.1,-0.1,-0.11,-0.01,1.0,a
3117.0,3568.0,3472.0,3535.0,4031.0,3211.0,3242.0,3408.0,0.31,10.08,1.15,-0.14,-0.06,-0.02,1.0,a
3125.0,3552.0,3463.0,3545.0,4048.0,3223.0,3241.0,3405.0,0.54,10.01,1.33,-0.16,-0.04,-0.01,1.0,a
3137.0,3580.0,3475.0,3550.0,4034.0,3219.0,3255.0,3408.0,0.65,9.97,1.52,-0.14,0.05,0.0,1.0,a
3118.0,3550.0,3472.0,3537.0,4032.0,3219.0,3248.0,3414.0,0.45,9.93,1.54,-0.14,-0.02,-0.05,1.0,a
3121.0,3562.0,3486.0,3561.0,4048.0,3221.0,3257.0,3431.0,0.53,9.93,1.53,-0.1,-0.05,-0.04,1.0,a
3130.0,3568.0,3478.0,3571.0,4048.0,3218.0,3259.0,3427.0,0.52,10.0,1.55,-0.09,-0.06,-0.06,1.0,a
3299.0,4066.0,3120.0,3510.0,3899.0,3125.0,3130.0,3221.0,0.46,9.96,1.27,0.04,-0.02,-0.13,1.0,a
3286.0,4045.0,3117.0,3542.0,3903.0,3125.0,3133.0,3231.0,0.71,10.06,0.99,0.11,-0.09,-0.12,1.0,a
3285.0,4039.0,3121.0,3550.0,3935.0,3133.0,3147.0,3223.0,0.63,10.08,0.68,0.04,0.02,-0.18,1.0,a
3310.0,4026.0,3116.0,3555.0,3934.0,3132.0,3145.0,3241.0,0.08,9.97,0.71,-0.01,0.13,-0.17,1.0,a
3292.0,4043.0,3114.0,3565.0,3953.0,3145.0,3132.0,3243.0,-0.11,9.98,0.92,-0.08,-0.01,-0.02,1.0,a
3286.0,4049.0,3120.0,3575.0,3959.0,3137.0,3147.0,3236.0,0.38,10.14,1.17,-0.14,-0.01,0.01,1.0,a
3292.0,4032.0,3123.0,3583.0,3937.0,3139.0,3149.0,3253.0,0.7,9.94,1.32,-0.11,-0.03,0.05,1.0,a
3294.0,4038.0,3117.0,3603.0,3938.0,3145.0,3143.0,3267.0,0.85,10.1,1.23,-0.18,-0.05,-0.0,1.0,a
3290.0,4058.0,3118.0,3579.0,3928.0,3136.0,3150.0,3280.0,0.76,9.87,1.51,-0.09,-0.19,-0.03,1.0,a
3274.0,4033.0,3120.0,3574.0,3937.0,3141.0,3150.0,3281.0,0.61,9.99,1.35,-0.05,-0.07,-0.1,1.0,a
3287.0,4033.0,3120.0,3599.0,3931.0,3147.0,3157.0,3278.0,0.3,9.98,1.2,-0.0,-0.01,-0.09,1.0,a
3294.0,4048.0,3119.0,3583.0,3925.0,3143.0,3152.0,3285.0,0.32,10.02,1.03,-0.03,-0.07,-0.09,1.0,a
3291.0,4025.0,3119.0,3582.0,3934.0,3136.0,3152.0,3291.0,0.42,10.01,0.99,-0.03,-0.02,-0.04,1.0,a
3301.0,4029.0,3120.0,3578.0,3925.0,3145.0,3152.0,3295.0,0.39,10.11,0.94,-0.05,0.01,-0.03,1.0,a
3295.0,4039.0,3136.0,3583.0,3914.0,3149.0,3151.0,3281.0,0.47,10.03,1.03,-0.07,-0.04,-0.03,1.0,a
3291.0,4046.0,3116.0,3600.0,3931.0,3151.0,3146.0,3294.0,0.52,10.06,1.09,-0.07,-0.01,-0.04,1.0,a
3283.0,4029.0,3114.0,3579.0,3915.0,3145.0,3152.0,3312.0,0.33,9.95,1.19,-0.07,0.0,-0.04,1.0,a
3295.0,4046.0,3119.0,3573.0,3922.0,3151.0,3147.0,3295.0,0.32,10.07,1.12,-0.1,-0.03,-0.03,1.0,a
3275.0,4031.0,3108.0,3583.0,3944.0,3152.0,3149.0,3299.0,0.51,9.96,1.26,-0.07,-0.06,0.0,1.0,a
3282.0,4048.0,3113.0,3583.0,3925.0,3139.0,3154.0,3312.0,0.69,10.08,1.08,-0.05,-0.02,-0.02,1.0,a
3196.0,3634.0,3298.0,3248.0,3955.0,3127.0,3140.0,3298.0,1.01,10.03,1.62,-0.04,-0.1,0.0,1.0,a
3210.0,3643.0,3305.0,3230.0,3943.0,3139.0,3145.0,3309.0,0.89,10.01,1.51,-0.03,-0.14,-0.06,1.0,a
3202.0,3644.0,3288.0,3211.0,3954.0,3131.0,3143.0,3303.0,1.0,9.9,1.62,-0.02,0.03,-0.04,1.0,a
3209.0,3641.0,3297.0,3221.0,3937.0,3131.0,3151.0,3303.0,0.61,9.9,1.51,-0.05,0.14,-0.04,1.0,a
3202.0,3643.0,3294.0,3220.0,3965.0,3143.0,3143.0,3314.0,0.69,10.01,1.46,-0.05,-0.0,-0.04,1.0,a
3201.0,3648.0,3307.0,3221.0,3964.0,3143.0,3151.0,3312.0,0.62,9.96,1.54,-0.09,-0.07,-0.04,1.0,a
3201.0,3664.0,3297.0,3219.0,3950.0,3152.0,3150.0,3313.0,0.71,9.96,1.76,-0.08,-0.2,-0.02,1.0,a
3205.0,3648.0,3286.0,3230.0,3953.0,3143.0,3152.0,3313.0,1.06,9.96,1.75,-0.07,-0.06,-0.01,1.0,a
3202.0,3646.0,3298.0,3243.0,3967.0,3146.0,3145.0,3312.0,0.82,10.01,1.47,-0.07,0.01,-0.03,1.0,a
3191.0,3663.0,3302.0,3225.0,3964.0,3140.0,3150.0,3315.0,0.79,9.87,1.61,-0.11,-0.08,-0.05,1.0,a
3198.0,3662.0,3288.0,3243.0,3968.0,3147.0,3151.0,3322.0,0.94,10.03,1.58,-0.09,-0.05,-0.06,1.0,a
3201.0,3646.0,3295.0,3230.0,3970.0,3143.0,3162.0,3308.0,0.72,9.97,1.65,-0.13,0.0,-0.05,1.0,a
3191.0,3661.0,3297.0,3227.0,3969.0,3152.0,3152.0,3313.0,0.68,9.92,1.77,-0.1,-0.03,-0.03,1.0,a
3203.0,3658.0,3292.0,3242.0,3954.0,3141.0,3155.0,3327.0,0.74,9.91,1.72,-0.11,0.0,-0.03,1.0,a
3202.0,3659.0,3293.0,3232.0,3959.0,3150.0,3151.0,3330.0,0.86,9.95,1.72,-0.08,-0.09,-0.03,1.0,a
3211.0,3642.0,3297.0,3241.0,3949.0,3165.0,3143.0,3323.0,0.97,9.86,1.93,-0.07,-0.09,-0.03,1.0,a
3200.0,3642.0,3280.0,3237.0,3978.0,3145.0,3152.0,3315.0,0.88,9.92,1.82,-0.03,0.02,-0.05,1.0,a
3201.0,3650.0,3287.0,3248.0,3953.0,3143.0,3153.0,3312.0,0.73,9.93,1.72,-0.03,-0.03,-0.05,1.0,a
3197.0,3646.0,3301.0,3258.0,3951.0,3159.0,3154.0,3323.0,0.78,9.94,1.7,-0.06,-0.01,-0.05,1.0,a
3193.0,3648.0,3313.0,3260.0,3969.0,3150.0,3152.0,3319.0,0.71,9.89,1.75,-0.04,-0.0,-0.03,1.0,a
3217.0,3727.0,4023.0,3342.0,3934.0,3115.0,3221.0,3339.0,0.67,9.97,1.73,-0.1,0.09,-0.05,1.0,a
3223.0,3727.0,4035.0,3365.0,3949.0,3113.0,3209.0,3351.0,0.68,9.99,1.73,-0.05,0.0,-0.02,1.0,a
3227.0,3723.0,4041.0,3363.0,3970.0,3111.0,3219.0,3354.0,0.68,9.93,1.66,-0.07,0.01,-0.02,1.0,a
3219.0,3719.0,4049.0,3362.0,3954.0,3114.0,3216.0,3345.0,0.74,9.96,1.6,-0.05,0.06,-0.02,1.0,a
3216.0,3730.0,4036.0,3362.0,3955.0,3123.0,3215.0,3352.0,0.7,9.96,1.5,-0.06,-0.02,-0.05,1.0,a
3230.0,3707.0,4027.0,3361.0,3958.0,3125.0,3225.0,3360.0,0.71,9.96,1.59,-0.09,0.02,-0.02,1.0,a
3219.0,3726.0,4017.0,3351.0,3986.0,3136.0,3222.0,3358.0,0.6,9.87,1.74,-0.09,-0.01,-0.04,1.0,a
3228.0,3726.0,4035.0,3367.0,3987.0,3120.0,3222.0,3349.0,0.69,10.0,1.56,-0.07,-0.0,-0.03,1.0,a
3211.0,3720.0,4038.0,3360.0,3975.0,3130.0,3231.0,3351.0,0.81,9.84,1.75,-0.07,-0.0,-0.02,1.0,a
3220.0,3721.0,4050.0,3376.0,3967.0,3132.0,3237.0,3359.0,0.71,9.94,1.77,-0.08,0.01,-0.04,1.0,a
3227.0,3729.0,4019.0,3359.0,3997.0,3139.0,3229.0,3373.0,0.76,9.92,1.72,-0.02,-0.01,-0.04,1.0,a
3217.0,3710.0,4038.0,3376.0,3993.0,3136.0,3231.0,3362.0,0.81,10.0,1.62,-0.02,0.0,-0.06,1.0,a
3229.0,3711.0,4029.0,3375.0,3977.0,3139.0,3235.0,3370.0,0.71,9.89,1.69,0.01,-0.06,-0.09,1.0,a
3233.0,3718.0,4019.0,3383.0,3999.0,3149.0,3238.0,3367.0,0.63,9.98,1.68,-0.03,-0.04,-0.07,1.0,a
3213.0,3728.0,4016.0,3379.0,4032.0,3146.0,3249.0,3377.0,0.84,9.98,1.62,-0.01,-0.01,-0.06,1.0,a
3233.0,3707.0,4026.0,3404.0,4035.0,3148.0,3250.0,3378.0,0.6,9.99,1.49,-0.04,-0.0,-0.08,1.0,a
3229.0,3707.0,3995.0,3398.0,4005.0,3153.0,3262.0,3376.0,0.57,10.01,1.43,-0.03,-0.02,-0.07,1.0,a
3216.0,3731.0,4005.0,3394.0,4004.0,3150.0,3261.0,3388.0,0.59,10.0,1.48,-0.09,-0.02,-0.02,1.0,a
3216.0,3706.0,4029.0,3391.0,4047.0,3159.0,3264.0,3386.0,0.7,9.94,1.76,-0.09,-0.03,-0.02,1.0,a
3219.0,3728.0,4005.0,3401.0,4043.0,3152.0,3261.0,3393.0,0.79,9.97,1.61,-0.0,-0.0,-0.03,1.0,a
3248.0,3730.0,3845.0,3311.0,3927.0,3188.0,3216.0,3376.0,0.34,10.11,1.41,-0.05,0.02,-0.04,1.0,a
3248.0,3728.0,3827.0,3309.0,3932.0,3194.0,3215.0,3373.0,0.46,9.94,1.66,-0.1,-0.08,-0.01,1.0,a
3242.0,3749.0,3832.0,3311.0,3920.0,3189.0,3199.0,3383.0,0.57,9.98,1.84,-0.12,0.03,0.02,1.0,a
3248.0,3707.0,3821.0,3321.0,3950.0,3199.0,3205.0,3378.0,0.61,9.9,1.81,-0.06,0.01,0.04,1.0,a
3248.0,3712.0,3824.0,3313.0,3936.0,3185.0,3213.0,3392.0,0.7,10.0,1.61,-0.01,0.02,0.04,1.0,a
3248.0,3733.0,3815.0,3330.0,3938.0,3211.0,3219.0,3393.0,0.68,9.94,1.82,-0.11,-0.05,-0.0,1.0,a
3238.0,3715.0,3835.0,3325.0,3939.0,3197.0,3211.0,3406.0,0.96,9.82,2.04,-0.07,-0.12,-0.11,1.0,a
3246.0,3725.0,3843.0,3324.0,3952.0,3201.0,3216.0,3398.0,0.71,10.0,1.57,-0.1,-0.09,-0.35,1.0,a
3239.0,3708.0,3827.0,3353.0,3949.0,3210.0,3232.0,3405.0,0.2,9.94,1.78,-0.07,-0.4,-0.11,1.0,a
3251.0,3738.0,3833.0,3344.0,3954.0,3200.0,3214.0,3394.0,0.54,9.9,1.97,-0.06,-0.31,-0.04,1.0,a
3242.0,3726.0,3834.0,3347.0,3927.0,3200.0,3232.0,3405.0,0.45,9.83,2.01,-0.07,-0.05,-0.01,1.0,a
3237.0,3723.0,3828.0,3354.0,3951.0,3216.0,3230.0,3392.0,0.28,9.96,1.77,-0.01,-0.12,-0.01,1.0,a
3255.0,3728.0,3825.0,3358.0,3967.0,3211.0,3216.0,3408.0,0.67,9.96,1.73,-0.05,-0.02,0.02,1.0,a
3248.0,3722.0,3812.0,3361.0,3978.0,3210.0,3233.0,3409.0,0.51,9.96,1.67,-0.03,-0.01,0.04,1.0,a
3235.0,3737.0,3824.0,3350.0,3964.0,3216.0,3228.0,3421.0,0.84,9.93,1.72,-0.04,-0.13,0.02,1.0,a
3235.0,3743.0,3834.0,3375.0,3955.0,3213.0,3233.0,3408.0,0.96,9.95,1.77,-0.09,0.08,0.01,1.0,a
3246.0,3725.0,3818.0,3371.0,3982.0,3211.0,3233.0,3417.0,0.69,9.9,1.88,-0.06,-0.08,-0.02,1.0,a
3242.0,3712.0,3838.0,3385.0,3969.0,3211.0,3242.0,3408.0,0.92,9.91,1.86,-0.04,-0.05,-0.05,1.0,a
3245.0,3729.0,3810.0,3376.0,3955.0,3215.0,3230.0,3411.0,0.65,9.91,1.84,-0.05,0.07,-0.04,1.0,a
3251.0,3727.0,3828.0,3378.0,3975.0,3216.0,3233.0,3414.0,0.83,9.93,1.71,-0.02,-0.05,-0.06,1.0,a
3239.0,3727.0,4062.0,3290.0,4095.0,3147.0,3281.0,3471.0,0.17,10.03,1.18,0.1,-0.09,-0.11,1.0,a
3239.0,3702.0,4066.0,3290.0,4095.0,3146.0,3293.0,3478.0,0.04,10.08,1.0,-0.01,-0.04,-0.05,1.0,a
3246.0,3727.0,4073.0,3295.0,4080.0,3150.0,3280.0,3485.0,0.37,10.05,1.35,-0.05,-0.05,0.01,1.0,a
3238.0,3709.0,4048.0,3298.0,4087.0,3150.0,3286.0,3483.0,0.52,10.05,1.45,-0.06,0.07,0.01,1.0,a
3227.0,3723.0,4059.0,3287.0,4095.0,3145.0,3267.0,3478.0,0.37,9.99,1.57,-0.09,-0.03,0.02,1.0,a
3248.0,3725.0,4057.0,3298.0,4095.0,3152.0,3279.0,3504.0,0.55,9.99,1.7,-0.04,-0.01,0.04,1.0,a
3246.0,3702.0,4049.0,3299.0,4095.0,3155.0,3291.0,3472.0,0.55,9.98,1.37,-0.06,0.01,0.03,1.0,a
3240.0,3702.0,4046.0,3301.0,4095.0,3136.0,3291.0,3476.0,0.8,9.96,1.58,-0.07,-0.02,0.0,1.0,a
3237.0,3730.0,4051.0,3293.0,4095.0,3149.0,3286.0,3491.0,0.66,9.94,1.75,-0.07,-0.04,0.03,1.0,a
3239.0,3724.0,4048.0,3297.0,4095.0,3148.0,3294.0,3472.0,0.85,10.04,1.43,-0.05,-0.02,0.04,1.0,a
3233.0,3728.0,4058.0,3290.0,4095.0,3137.0,3295.0,3474.0,0.93,9.95,1.63,-0.07,-0.0,-0.04,1.0,a
3235.0,3715.0,4060.0,3298.0,4086.0,3151.0,3281.0,3478.0,0.71,9.86,1.94,-0.04,-0.03,-0.02,1.0,a
3233.0,3709.0,4031.0,3295.0,4081.0,3143.0,3285.0,3481.0,0.55,9.98,1.43,0.01,0.01,-0.01,1.0,a
3249.0,3728.0,4059.0,3302.0,4080.0,3146.0,3295.0,3488.0,0.7,9.97,1.49,-0.06,-0.02,-0.01,1.0,a
3248.0,3714.0,4051.0,3290.0,4095.0,3143.0,3280.0,3472.0,0.94,9.87,1.69,-0.05,0.01,0.0,1.0,a
3239.0,3706.0,4037.0,3301.0,4095.0,3144.0,3279.0,3485.0,1.13,10.04,1.14,-0.03,0.11,-0.03,1.0,a
3245.0,3712.0,4065.0,3295.0,4095.0,3146.0,3290.0,3475.0,0.63,9.94,1.51,-0.12,-0.07,-0.07,1.0,a
3233.0,3724.0,4067.0,3302.0,4095.0,3142.0,3284.0,3497.0,0.62,10.0,1.66,-0.06,0.11,0.0,1.0,a
3235.0,3725.0,4050.0,3308.0,4095.0,3145.0,3285.0,3489.0,0.73,9.93,1.84,-0.09,0.05,-0.03,1.0,a
3248.0,3714.0,4051.0,3314.0,4095.0,3156.0,3281.0,3491.0,0.79,9.81,2.34,-0.05,-0.09,-0.05,1.0,a
3111.0,3673.0,3329.0,3323.0,3774.0,2962.0,3089.0,3122.0,1.24,9.86,2.22,-0.13,-0.02,-0.05,1.0,a
3115.0,3661.0,3324.0,3329.0,3763.0,2963.0,3086.0,3106.0,1.21,9.77,2.33,-0.07,0.02,-0.06,1.0,a
3113.0,3663.0,3318.0,3317.0,3771.0,2960.0,3089.0,3120.0,1.13,9.8,2.28,-0.07,-0.01,-0.03,1.0,a
3134.0,3650.0,3318.0,3327.0,3785.0,2981.0,3087.0,3100.0,1.26,9.77,2.26,-0.06,-0.05,-0.03,1.0,a
3111.0,3635.0,3349.0,3318.0,3771.0,2971.0,3089.0,3085.0,1.24,9.84,2.13,-0.07,0.03,-0.04,1.0,a
3119.0,3673.0,3331.0,3330.0,3792.0,2977.0,3101.0,3086.0,1.18,9.76,2.29,-0.05,-0.01,-0.04,1.0,a
3130.0,3678.0,3323.0,3335.0,3779.0,2978.0,3090.0,3056.0,1.22,9.85,2.15,-0.03,-0.01,-0.04,1.0,a
3120.0,3664.0,3319.0,3337.0,3778.0,2983.0,3092.0,3088.0,1.13,9.81,2.12,-0.06,-0.01,-0.04,1.0,a
3104.0,3650.0,3327.0,3342.0,3791.0,2971.0,3098.0,3042.0,1.17,9.86,2.17,-0.08,-0.04,-0.03,1.0,a
3108.0,3666.0,3314.0,3338.0,3789.0,2964.0,3099.0,3133.0,1.11,9.83,2.26,-0.03,-0.02,-0.03,1.0,a
3126.0,3655.0,3324.0,3339.0,3789.0,2990.0,3098.0,3130.0,1.19,9.84,2.15,-0.05,0.03,-0.04,1.0,a
3100.0,3662.0,3323.0,3333.0,3791.0,2979.0,3104.0,3113.0,1.12,9.83,2.13,-0.06,-0.02,-0.02,1.0,a
3120.0,3671.0,3330.0,3341.0,3779.0,2979.0,3094.0,3107.0,1.24,9.83,2.15,-0.07,0.01,-0.04,1.0,a
3131.0,3648.0,3339.0,3327.0,3791.0,2977.0,3097.0,3104.0,1.17,9.83,2.13,-0.05,-0.0,-0.03,1.0,a
3108.0,3665.0,3314.0,3328.0,3791.0,2990.0,3103.0,3117.0,1.2,9.79,2.15,-0.06,-0.0,-0.06,1.0,a
3121.0,3679.0,3321.0,3323.0,3792.0,2987.0,3104.0,3116.0,1.1,9.8,2.19,-0.04,0.0,-0.04,1.0,a
3109.0,3674.0,3312.0,3342.0,3776.0,2992.0,3090.0,3119.0,1.25,9.96,2.0,-0.07,0.04,-0.05,1.0,a
3120.0,3667.0,3325.0,3333.0,3773.0,2998.0,3100.0,3120.0,1.19,9.83,2.16,-0.08,-0.05,-0.03,1.0,a
3113.0,3680.0,3328.0,3331.0,3803.0,2992.0,3095.0,3108.0,1.23,9.86,2.16,-0.07,-0.01,-0.06,1.0,a
3120.0,3664.0,3333.0,3329.0,3799.0,2985.0,3115.0,3115.0,1.09,9.77,2.13,-0.05,0.01,-0.04,1.0,a
3216.0,3490.0,3248.0,3311.0,3875.0,3031.0,3126.0,3300.0,1.08,9.97,1.65,-0.07,-0.02,-0.03,1.0,a
3216.0,3494.0,3249.0,3328.0,3856.0,3033.0,3114.0,3294.0,0.99,9.87,1.76,-0.09,0.01,-0.04,1.0,a
3230.0,3504.0,3250.0,3342.0,3888.0,3039.0,3111.0,3297.0,0.96,9.88,1.77,-0.07,-0.02,-0.04,1.0,a
3217.0,3495.0,3248.0,3317.0,3888.0,3039.0,3109.0,3312.0,1.13,9.98,1.72,-0.04,-0.02,-0.03,1.0,a
3225.0,3490.0,3261.0,3322.0,3874.0,3045.0,3122.0,3297.0,1.1,9.99,1.56,-0.06,0.01,-0.03,1.0,a
3234.0,3492.0,3257.0,3316.0,3889.0,3042.0,3121.0,3311.0,1.12,9.95,1.7,-0.07,-0.04,-0.03,1.0,a
3222.0,3504.0,3245.0,3332.0,3879.0,3035.0,3130.0,3312.0,1.05,9.88,1.85,-0.05,-0.01,-0.03,1.0,a
3237.0,3488.0,3248.0,3329.0,3879.0,3037.0,3127.0,3307.0,0.98,9.96,1.66,-0.06,0.01,-0.03,1.0,a
3219.0,3518.0,3248.0,3329.0,3882.0,3046.0,3120.0,3309.0,1.01,9.91,1.76,-0.05,-0.02,-0.02,1.0,a
3227.0,3489.0,3249.0,3327.0,3869.0,3046.0,3129.0,3312.0,1.11,9.91,1.73,-0.05,0.0,-0.04,1.0,a
3216.0,3497.0,3263.0,3344.0,3877.0,3043.0,3119.0,3313.0,1.14,9.91,1.69,-0.06,0.01,-0.03,1.0,a
3226.0,3499.0,3255.0,3333.0,3887.0,3051.0,3129.0,3327.0,1.1,9.9,1.69,-0.07,-0.03,-0.05,1.0,a
3216.0,3504.0,3251.0,3335.0,3871.0,3056.0,3120.0,3321.0,1.0,9.91,1.68,-0.05,-0.0,-0.03,1.0,a
3226.0,3504.0,3249.0,3337.0,3860.0,3040.0,3125.0,3325.0,0.87,9.93,1.72,-0.07,0.0,-0.03,1.0,a
3219.0,3507.0,3262.0,3341.0,3878.0,3051.0,3125.0,3318.0,1.45,9.84,2.0,-0.04,-0.03,-0.03,1.0,a
3214.0,3494.0,3253.0,3344.0,3904.0,3056.0,3125.0,3314.0,1.44,9.9,1.84,-0.03,-0.04,-0.11,1.0,a
3227.0,3494.0,3241.0,3355.0,3895.0,3056.0,3134.0,3315.0,0.78,9.97,1.61,0.02,-0.02,-0.1,1.0,a
3229.0,3491.0,3261.0,3330.0,3905.0,3056.0,3134.0,3327.0,0.62,10.0,1.43,0.02,-0.01,-0.06,1.0,a
3221.0,3506.0,3257.0,3335.0,3881.0,3057.0,3144.0,3327.0,0.25,10.01,1.2,-0.18,0.03,-0.0,1.0,a
3224.0,3479.0,3279.0,3343.0,3903.0,3058.0,3132.0,3314.0,2.09,9.99,0.98,-0.08,-0.05,0.06,1.0,a
3233.0,4095.0,3313.0,3193.0,3984.0,3169.0,3152.0,3207.0,0.52,10.1,0.87,-0.08,0.02,-0.03,1.0,a
3227.0,4095.0,3301.0,3199.0,3987.0,3177.0,3154.0,3226.0,0.78,10.03,1.27,-0.14,-0.04,-0.04,1.0,a
3225.0,4095.0,3295.0,3185.0,3982.0,3162.0,3158.0,3216.0,0.55,10.02,1.48,-0.14,0.05,-0.02,1.0,a
3227.0,4095.0,3312.0,3189.0,3987.0,3181.0,3157.0,3231.0,0.58,9.96,1.36,-0.1,-0.08,0.0,1.0,a
3237.0,4095.0,3294.0,3189.0,4003.0,3171.0,3139.0,3223.0,0.8,9.99,1.4,-0.12,0.07,0.04,1.0,a
3232.0,4095.0,3301.0,3196.0,4014.0,3184.0,3158.0,3231.0,0.79,10.01,1.39,-0.13,0.05,0.04,1.0,a
3218.0,4095.0,3314.0,3198.0,3994.0,3176.0,3159.0,3238.0,0.79,9.87,1.7,-0.12,-0.0,0.02,1.0,a
3232.0,4095.0,3306.0,3200.0,3979.0,3177.0,3152.0,3248.0,1.03,9.92,1.69,-0.05,0.02,0.02,1.0,a
3221.0,4095.0,3305.0,3199.0,3978.0,3168.0,3153.0,3248.0,0.78,9.91,1.5,-0.05,0.1,0.02,1.0,a
3228.0,4095.0,3303.0,3200.0,3987.0,3167.0,3158.0,3247.0,0.9,10.01,1.41,-0.07,0.04,0.02,1.0,a
3217.0,4095.0,3312.0,3205.0,3982.0,3185.0,3165.0,3253.0,1.01,10.0,1.43,-0.06,0.01,0.01,1.0,a
3225.0,4095.0,3306.0,3195.0,4007.0,3171.0,3153.0,3248.0,0.69,9.97,1.36,-0.08,0.04,-0.0,1.0,a
3213.0,4095.0,3301.0,3218.0,4016.0,3171.0,3155.0,3242.0,1.15,10.0,1.45,-0.1,0.02,0.0,1.0,a
3231.0,4095.0,3295.0,3223.0,4003.0,3174.0,3168.0,3248.0,1.06,9.93,1.71,-0.13,0.11,0.02,1.0,a
3230.0,4095.0,3310.0,3231.0,3991.0,3181.0,3161.0,3251.0,1.02,9.98,1.63,-0.08,-0.06,-0.02,1.0,a
3221.0,4095.0,3303.0,3227.0,4003.0,3172.0,3163.0,3270.0,0.94,9.9,1.72,-0.09,0.0,-0.02,1.0,a
3227.0,4095.0,3296.0,3239.0,4015.0,3171.0,3157.0,3283.0,1.11,9.97,1.61,-0.06,-0.05,-0.02,1.0,a
3227.0,4095.0,3303.0,3235.0,4018.0,3175.0,3171.0,3279.0,1.02,9.92,1.64,-0.1,0.05,-0.03,1.0,a
3230.0,4095.0,3291.0,3233.0,4001.0,3173.0,3166.0,3281.0,1.11,9.93,1.65,-0.06,-0.01,-0.02,1.0,a
3239.0,4095.0,3298.0,3218.0,3975.0,3171.0,3169.0,3286.0,1.18,9.99,1.71,-0.08,0.05,-0.04,1.0,a
3234.0,3494.0,3071.0,3169.0,3922.0,3039.0,3184.0,2828.0,0.79,9.98,1.04,-0.08,-0.15,-0.03,1.0,a
3241.0,3493.0,3099.0,3169.0,3947.0,3044.0,3181.0,2831.0,0.68,10.06,1.17,-0.17,-0.03,-0.04,1.0,a
3248.0,3489.0,3086.0,3182.0,3935.0,3044.0,3181.0,2846.0,0.53,9.86,1.27,-0.09,-0.21,0.05,1.0,a
3223.0,3502.0,3088.0,3181.0,3941.0,3054.0,3184.0,2838.0,1.1,10.01,1.13,-0.07,-0.31,0.03,1.0,a
3237.0,3491.0,3088.0,3173.0,3936.0,3045.0,3174.0,2831.0,0.97,9.96,1.47,-0.09,-0.5,-0.09,1.0,a
3223.0,3489.0,3088.0,3191.0,3958.0,3055.0,3179.0,2827.0,0.5,9.93,1.74,-0.09,-0.51,-0.02,1.0,a
3238.0,3487.0,3102.0,3205.0,3953.0,3047.0,3175.0,2817.0,0.98,10.0,1.69,-0.06,-0.36,-0.0,1.0,a
3242.0,3504.0,3102.0,3216.0,3963.0,3061.0,3184.0,2847.0,1.01,9.91,1.53,0.02,-0.12,-0.02,1.0,a
3239.0,3491.0,3086.0,3216.0,3941.0,3054.0,3183.0,2845.0,0.97,10.1,0.86,0.05,-0.03,-0.08,1.0,a
3237.0,3516.0,3071.0,3207.0,3968.0,3055.0,3184.0,2850.0,0.88,9.97,0.75,-0.04,-0.1,-0.03,1.0,a
3238.0,3479.0,3094.0,3214.0,3939.0,3058.0,3184.0,2861.0,1.22,10.13,1.14,-0.13,-0.08,-0.04,1.0,a
3246.0,3481.0,3085.0,3221.0,3962.0,3065.0,3191.0,2857.0,0.86,9.88,1.34,-0.08,0.0,-0.02,1.0,a
3241.0,3482.0,3094.0,3227.0,3971.0,3069.0,3183.0,2858.0,1.06,10.09,1.22,-0.08,-0.03,-0.05,1.0,a
3237.0,3486.0,3092.0,3223.0,3953.0,3059.0,3183.0,2869.0,0.92,9.9,1.33,-0.03,0.0,-0.01,1.0,a
3237.0,3445.0,3102.0,3231.0,3947.0,3067.0,3183.0,2867.0,1.18,10.02,1.34,-0.0,0.0,0.0,1.0,a
3236.0,3493.0,3097.0,3215.0,3963.0,3056.0,3191.0,2864.0,1.36,9.98,1.2,0.05,0.0,-0.07,1.0,a
3238.0,3543.0,3095.0,3219.0,3967.0,3071.0,3186.0,2866.0,0.9,10.07,0.98,0.02,-0.02,-0.13,1.0,a
3246.0,3492.0,3088.0,3223.0,3943.0,3071.0,3191.0,2847.0,0.74,9.96,1.02,-0.01,-0.04,-0.1,1.0,a
3241.0,3499.0,3103.0,3231.0,3961.0,3058.0,3188.0,2862.0,0.72,10.03,0.96,-0.07,-0.02,-0.07,1.0,a
3235.0,3486.0,3088.0,3227.0,3982.0,3057.0,3197.0,2851.0,0.82,9.96,1.16,-0.02,-0.06,-0.05,1.0,a
3155.0,3545.0,3267.0,3339.0,3932.0,3046.0,3198.0,2753.0,0.82,10.15,0.66,-0.06,0.03,-0.04,1.0,a
3142.0,3539.0,3264.0,3359.0,3940.0,3055.0,3195.0,2758.0,1.14,10.06,0.64,-0.02,0.12,-0.14,1.0,a
3159.0,3535.0,3258.0,3364.0,3959.0,3063.0,3202.0,2763.0,0.39,9.99,0.78,-0.11,0.32,-0.17,1.0,a
3166.0,3549.0,3257.0,3359.0,3967.0,3083.0,3205.0,2739.0,0.22,10.03,0.59,-0.04,-0.16,-0.1,1.0,a
3151.0,3547.0,3259.0,3359.0,3962.0,3071.0,3207.0,2762.0,0.62,10.05,0.73,-0.13,-0.15,-0.05,1.0,a
3143.0,3537.0,3255.0,3360.0,3965.0,3065.0,3217.0,2704.0,0.34,10.01,0.9,-0.08,0.07,0.0,1.0,a
3151.0,3550.0,3248.0,3377.0,3952.0,3083.0,3202.0,2723.0,0.49,10.09,0.53,-0.03,-0.09,-0.06,1.0,a
3158.0,3536.0,3250.0,3379.0,3959.0,3071.0,3207.0,2731.0,0.46,10.07,0.51,-0.12,0.06,-0.02,1.0,a
3161.0,3538.0,3270.0,3379.0,3973.0,3083.0,3220.0,2731.0,0.82,10.0,0.81,-0.08,-0.05,-0.06,1.0,a
3170.0,3536.0,3262.0,3376.0,3983.0,3082.0,3215.0,2717.0,0.48,10.01,0.88,-0.08,0.08,-0.05,1.0,a
3165.0,3543.0,3266.0,3390.0,3984.0,3094.0,3219.0,2736.0,0.38,10.02,0.75,-0.07,-0.03,-0.08,1.0,a
3151.0,3525.0,3261.0,3383.0,3966.0,3082.0,3223.0,2771.0,0.37,10.06,0.69,-0.15,-0.07,-0.05,1.0,a
3159.0,3540.0,3271.0,3379.0,3954.0,3090.0,3217.0,2768.0,0.56,10.06,0.84,-0.08,-0.08,-0.04,1.0,a
3152.0,3553.0,3257.0,3383.0,3975.0,3095.0,3222.0,2789.0,0.55,10.05,0.81,-0.14,-0.03,-0.01,1.0,a
3156.0,3551.0,3254.0,3392.0,3990.0,3091.0,3216.0,2797.0,0.67,10.05,0.96,-0.06,0.02,-0.06,1.0,a
3157.0,3534.0,3275.0,3394.0,3958.0,3085.0,3215.0,2754.0,0.39,10.03,0.93,-0.09,-0.02,-0.05,1.0,a
3161.0,3553.0,3259.0,3382.0,3973.0,3089.0,3221.0,2764.0,0.52,10.04,0.96,-0.06,-0.0,-0.04,1.0,a
3168.0,3531.0,3266.0,3393.0,3974.0,3098.0,3221.0,2754.0,0.58,10.08,0.91,-0.03,0.01,-0.03,1.0,a
3152.0,3539.0,3263.0,3393.0,3995.0,3098.0,3214.0,2761.0,0.57,10.06,0.76,-0.03,0.01,-0.06,1.0,a
3168.0,3534.0,3259.0,3392.0,3972.0,3089.0,3222.0,2758.0,0.44,10.09,0.77,-0.05,0.04,-0.02,1.0,a
3165.0,3699.0,3974.0,3280.0,3951.0,3061.0,3195.0,2801.0,0.57,10.1,0.97,-0.08,0.02,-0.04,1.0,a
3172.0,3697.0,3935.0,3293.0,3953.0,3071.0,3200.0,2798.0,0.74,10.14,0.98,-0.06,0.02,-0.03,1.0,a
3173.0,3697.0,3954.0,3280.0,3953.0,3070.0,3209.0,2785.0,0.69,10.06,0.91,-0.06,0.02,-0.02,1.0,a
3171.0,3711.0,3974.0,3281.0,3969.0,3067.0,3205.0,2768.0,0.69,10.11,0.94,-0.02,0.01,-0.05,1.0,a
3169.0,3703.0,3953.0,3293.0,3959.0,3071.0,3206.0,2767.0,0.59,9.87,1.07,-0.02,-0.02,-0.06,1.0,a
3166.0,3712.0,3937.0,3297.0,3973.0,3092.0,3216.0,2732.0,0.64,10.11,0.79,-0.08,-0.05,-0.03,1.0,a
3152.0,3694.0,3947.0,3294.0,3978.0,3088.0,3217.0,2727.0,0.65,10.18,0.7,-0.08,0.03,-0.03,1.0,a
3168.0,3697.0,3964.0,3301.0,3985.0,3093.0,3217.0,2723.0,0.62,10.03,0.85,-0.1,0.03,0.0,1.0,a
3181.0,3696.0,3967.0,3295.0,3973.0,3094.0,3216.0,2741.0,0.74,10.03,0.98,-0.05,-0.05,0.01,1.0,a
3166.0,3696.0,3957.0,3305.0,3989.0,3099.0,3216.0,2751.0,0.8,10.02,0.95,-0.08,-0.02,-0.03,1.0,a
3175.0,3707.0,3967.0,3312.0,4000.0,3083.0,3226.0,2739.0,0.7,10.02,0.91,-0.05,-0.0,-0.03,1.0,a
3167.0,3691.0,3963.0,3299.0,3990.0,3090.0,3225.0,2783.0,0.79,10.07,0.9,-0.08,0.0,-0.03,1.0,a
3171.0,3714.0,3949.0,3307.0,3991.0,3096.0,3214.0,2779.0,0.79,10.03,1.01,-0.04,-0.01,-0.05,1.0,a
3172.0,3707.0,3939.0,3312.0,3998.0,3095.0,3216.0,2772.0,0.75,10.13,0.87,-0.05,0.0,-0.05,1.0,a
3159.0,3707.0,3937.0,3310.0,3966.0,3101.0,3209.0,2781.0,0.64,9.92,0.97,-0.06,0.0,-0.05,1.0,a
3173.0,3703.0,3967.0,3315.0,3962.0,3090.0,3227.0,2769.0,0.77,9.92,1.05,-0.09,-0.02,-0.03,1.0,a
3163.0,3707.0,3961.0,3314.0,3987.0,3095.0,3225.0,2755.0,0.77,10.16,0.86,-0.07,0.01,-0.04,1.0,a
3155.0,3725.0,3972.0,3317.0,3982.0,3089.0,3222.0,2800.0,0.73,10.05,0.9,-0.07,-0.02,-0.04,1.0,a
3163.0,3704.0,3937.0,3323.0,3971.0,3098.0,3216.0,2784.0,0.78,10.01,0.99,-0.05,-0.01,-0.05,1.0,a
3179.0,3698.0,3952.0,3308.0,4011.0,3108.0,3225.0,2789.0,0.57,9.94,0.99,-0.06,-0.01,-0.03,1.0,a
3264.0,3445.0,3382.0,3338.0,3879.0,3046.0,3167.0,2729.0,0.8,10.13,0.89,-0.05,-0.04,-0.03,1.0,a
3274.0,3450.0,3377.0,3329.0,3881.0,3031.0,3174.0,2816.0,0.94,10.1,0.92,-0.11,0.01,-0.05,1.0,a
3278.0,3447.0,3375.0,3328.0,3904.0,3047.0,3178.0,2800.0,0.83,10.01,0.95,-0.05,0.02,-0.04,1.0,a
3265.0,3442.0,3379.0,3343.0,3887.0,3045.0,3184.0,2804.0,0.87,10.22,0.69,-0.03,0.0,-0.05,1.0,a
3280.0,3440.0,3376.0,3341.0,3885.0,3051.0,3185.0,2799.0,0.74,10.0,0.82,-0.1,0.03,-0.02,1.0,a
3280.0,3435.0,3376.0,3342.0,3876.0,3043.0,3173.0,2800.0,0.82,9.99,0.97,-0.08,-0.03,-0.02,1.0,a
3273.0,3440.0,3363.0,3349.0,3914.0,3039.0,3184.0,2799.0,0.96,10.0,1.02,-0.06,0.01,-0.03,1.0,a
3253.0,3446.0,3392.0,3339.0,3883.0,3049.0,3185.0,2794.0,0.92,10.06,0.91,-0.04,-0.01,-0.05,1.0,a
3279.0,3446.0,3376.0,3335.0,3882.0,3055.0,3183.0,2816.0,0.94,10.01,0.94,-0.05,-0.0,-0.06,1.0,a
3272.0,3431.0,3383.0,3339.0,3885.0,3053.0,3184.0,2749.0,0.65,10.01,0.91,-0.04,-0.01,-0.05,1.0,a
3267.0,3441.0,3382.0,3351.0,3902.0,3062.0,3185.0,2800.0,0.81,9.99,0.85,-0.06,-0.04,-0.05,1.0,a
3265.0,3429.0,3365.0,3353.0,3897.0,3056.0,3195.0,2803.0,0.8,10.01,0.88,-0.08,0.03,-0.04,1.0,a
3282.0,3440.0,3377.0,3351.0,3915.0,3061.0,3189.0,2813.0,0.82,10.02,0.88,-0.09,-0.01,-0.04,1.0,a
3287.0,3431.0,3376.0,3363.0,3920.0,3057.0,3183.0,2810.0,0.94,10.07,0.96,-0.08,0.0,-0.03,1.0,a
3277.0,3445.0,3366.0,3376.0,3903.0,3059.0,3195.0,2816.0,0.8,10.05,0.9,-0.1,0.01,-0.05,1.0,a
3277.0,3440.0,3379.0,3370.0,3915.0,3056.0,3184.0,2815.0,0.8,9.99,1.03,-0.13,0.02,-0.03,1.0,a
3267.0,3435.0,3379.0,3374.0,3891.0,3071.0,3183.0,2814.0,0.81,10.0,1.15,-0.05,-0.02,-0.03,1.0,a
3264.0,3442.0,3367.0,3370.0,3895.0,3066.0,3179.0,2833.0,0.92,9.93,1.07,-0.01,0.03,-0.05,1.0,a
3255.0,3430.0,3375.0,3373.0,3891.0,3071.0,3189.0,2832.0,0.86,10.0,0.96,0.09,0.02,-0.07,1.0,a
3264.0,3426.0,3376.0,3376.0,3913.0,3079.0,3202.0,2849.0,0.81,10.05,0.84,-0.07,0.0,-0.04,1.0,a
3328.0,3575.0,3692.0,3113.0,3920.0,3122.0,3172.0,2704.0,0.89,10.01,1.11,-0.04,0.01,-0.04,1.0,a
3325.0,3565.0,3696.0,3119.0,3942.0,3123.0,3167.0,2703.0,0.98,9.92,1.21,-0.08,-0.02,-0.02,1.0,a
3335.0,3582.0,3685.0,3131.0,3946.0,3129.0,3178.0,2688.0,1.24,10.03,1.15,-0.03,0.01,-0.02,1.0,a
3331.0,3568.0,3695.0,3125.0,3941.0,3124.0,3178.0,2673.0,1.05,9.93,1.09,-0.07,0.02,-0.03,1.0,a
3340.0,3559.0,3697.0,3131.0,3929.0,3135.0,3171.0,2681.0,1.09,9.96,1.28,-0.04,-0.05,-0.05,1.0,a
3327.0,3574.0,3667.0,3131.0,3921.0,3127.0,3171.0,2700.0,1.1,9.98,1.25,-0.06,-0.01,-0.05,1.0,a
3335.0,3557.0,3699.0,3136.0,3937.0,3127.0,3184.0,2701.0,1.12,9.98,1.08,-0.01,-0.02,-0.07,1.0,a
3326.0,3557.0,3708.0,3126.0,3946.0,3133.0,3171.0,2708.0,1.02,10.08,0.94,-0.07,0.03,-0.06,1.0,a
3330.0,3569.0,3691.0,3134.0,3940.0,3131.0,3184.0,2726.0,1.02,9.96,1.13,-0.06,-0.06,-0.06,1.0,a
3323.0,3579.0,3686.0,3142.0,3967.0,3138.0,3156.0,2695.0,1.07,10.03,1.15,-0.09,0.05,-0.03,1.0,a
3330.0,3565.0,3696.0,3152.0,3936.0,3139.0,3181.0,2733.0,1.02,9.97,1.09,-0.05,-0.03,-0.03,1.0,a
3319.0,3564.0,3670.0,3139.0,3952.0,3134.0,3183.0,2737.0,1.19,10.06,1.18,-0.07,0.04,-0.03,1.0,a
3319.0,3568.0,3695.0,3154.0,3951.0,3141.0,3195.0,2725.0,1.06,9.92,1.24,-0.04,0.01,-0.02,1.0,a
3318.0,3558.0,3681.0,3158.0,3935.0,3143.0,3190.0,2722.0,1.15,10.07,1.16,-0.04,0.04,-0.04,1.0,a
3329.0,3538.0,3686.0,3155.0,3942.0,3136.0,3185.0,2704.0,0.94,9.94,1.2,-0.04,0.05,-0.04,1.0,a
3319.0,3555.0,3690.0,3184.0,3968.0,3149.0,3201.0,2753.0,1.17,10.06,1.02,-0.08,-0.02,-0.04,1.0,a
3313.0,3561.0,3680.0,3179.0,3970.0,3138.0,3191.0,2768.0,0.99,9.95,1.14,-0.08,0.0,-0.04,1.0,a
3318.0,3546.0,3670.0,3181.0,3958.0,3135.0,3203.0,2757.0,1.1,10.03,1.11,-0.08,-0.02,-0.04,1.0,a
3321.0,3567.0,3671.0,3184.0,3959.0,3143.0,3184.0,2789.0,1.03,9.94,1.19,-0.08,0.03,-0.04,1.0,a
3328.0,3553.0,3677.0,3178.0,3967.0,3152.0,3189.0,2784.0,1.14,10.07,1.16,-0.06,-0.02,-0.04,1.0,a
3227.0,3664.0,3742.0,3322.0,3916.0,3071.0,3200.0,2647.0,0.85,9.94,1.17,-0.06,0.06,-0.03,1.0,a
3222.0,3641.0,3704.0,3321.0,3909.0,3084.0,3189.0,2685.0,1.11,10.0,1.18,-0.08,0.01,-0.03,1.0,a
3215.0,3648.0,3731.0,3325.0,3895.0,3083.0,3199.0,2663.0,1.13,9.97,1.23,-0.11,0.12,0.03,1.0,a
3219.0,3632.0,3712.0,3337.0,3888.0,3088.0,3195.0,2661.0,1.1,10.08,1.06,-0.04,-0.08,-0.06,1.0,a
3205.0,3647.0,3741.0,3346.0,3902.0,3093.0,3197.0,2659.0,1.04,9.89,1.21,-0.1,-0.03,-0.02,1.0,a
3219.0,3648.0,3728.0,3349.0,3898.0,3105.0,3214.0,2668.0,1.08,10.08,1.2,-0.07,0.02,-0.03,1.0,a
3216.0,3638.0,3723.0,3332.0,3914.0,3109.0,3204.0,2675.0,1.08,9.9,1.23,-0.07,-0.02,-0.03,1.0,a
3216.0,3629.0,3728.0,3344.0,3914.0,3107.0,3202.0,2678.0,1.19,10.04,1.19,-0.04,-0.01,-0.04,1.0,a
3213.0,3649.0,3723.0,3335.0,3911.0,3099.0,3215.0,2669.0,1.12,9.97,1.19,-0.09,-0.01,-0.05,1.0,a
3218.0,3638.0,3726.0,3346.0,3920.0,3099.0,3213.0,2693.0,1.13,9.96,1.38,-0.03,-0.01,-0.04,1.0,a
3216.0,3635.0,3728.0,3341.0,3919.0,3106.0,3216.0,2693.0,1.19,9.98,1.33,-0.03,-0.0,-0.06,1.0,a
3211.0,3646.0,3724.0,3359.0,3905.0,3111.0,3205.0,2672.0,1.08,9.94,1.2,0.01,-0.04,-0.05,1.0,a
3215.0,3636.0,3723.0,3347.0,3911.0,3107.0,3215.0,2685.0,1.15,10.01,1.14,-0.03,-0.0,-0.03,1.0,a
3216.0,3643.0,3728.0,3363.0,3911.0,3114.0,3220.0,2672.0,1.09,10.03,1.02,-0.03,-0.0,-0.06,1.0,a
3201.0,3632.0,3728.0,3362.0,3923.0,3123.0,3220.0,2688.0,1.06,10.06,0.94,-0.07,0.05,-0.04,1.0,a
3221.0,3639.0,3731.0,3360.0,3939.0,3118.0,3216.0,2688.0,0.87,10.07,0.96,-0.11,0.0,-0.03,1.0,a
3214.0,3633.0,3711.0,3370.0,3930.0,3118.0,3226.0,2673.0,1.1,10.02,1.2,-0.11,0.02,0.0,1.0,a
3210.0,3631.0,3707.0,3363.0,3939.0,3120.0,3226.0,2653.0,1.3,10.02,1.41,-0.1,0.02,-0.01,1.0,a
3216.0,3649.0,3723.0,3353.0,3925.0,3119.0,3231.0,2685.0,1.32,9.91,1.39,-0.06,-0.03,-0.05,1.0,a
3217.0,3649.0,3712.0,3375.0,3919.0,3122.0,3214.0,2681.0,1.07,9.96,1.26,-0.03,-0.0,-0.06,1.0,a
3101.0,3676.0,3459.0,3475.0,3961.0,3110.0,3207.0,2673.0,0.95,9.96,1.33,-0.07,0.01,-0.02,1.0,a
3113.0,3664.0,3472.0,3474.0,3984.0,3120.0,3216.0,2668.0,1.19,10.02,1.28,-0.04,-0.06,-0.03,1.0,a
3118.0,3664.0,3453.0,3487.0,3952.0,3120.0,3207.0,2679.0,1.2,9.99,1.44,-0.06,0.03,-0.03,1.0,a
3118.0,3666.0,3467.0,3502.0,3965.0,3129.0,3218.0,2699.0,1.07,10.03,1.29,-0.04,-0.04,-0.03,1.0,a
3101.0,3674.0,3455.0,3494.0,3971.0,3120.0,3217.0,2737.0,1.19,9.97,1.42,-0.05,-0.02,-0.04,1.0,a
3107.0,3664.0,3441.0,3481.0,3984.0,3129.0,3221.0,2752.0,0.97,9.97,1.29,-0.05,-0.02,-0.03,1.0,a
3107.0,3674.0,3455.0,3492.0,3979.0,3130.0,3216.0,2746.0,1.22,9.92,1.3,-0.04,-0.01,-0.05,1.0,a
3115.0,3654.0,3449.0,3506.0,3984.0,3134.0,3214.0,2734.0,1.03,9.98,1.37,-0.04,0.02,-0.03,1.0,a
3136.0,3687.0,3440.0,3495.0,3968.0,3129.0,3213.0,2694.0,1.16,9.98,1.27,-0.07,-0.01,-0.05,1.0,a
3105.0,3670.0,3453.0,3506.0,3972.0,3137.0,3228.0,2704.0,1.04,9.97,1.36,-0.06,0.03,-0.04,1.0,a
3119.0,3670.0,3465.0,3502.0,3975.0,3135.0,3225.0,2709.0,1.16,9.92,1.4,-0.07,-0.09,-0.05,1.0,a
3107.0,3679.0,3458.0,3504.0,3984.0,3136.0,3229.0,2671.0,1.13,9.94,1.36,-0.06,0.05,-0.04,1.0,a
3105.0,3666.0,3449.0,3503.0,3983.0,3129.0,3216.0,2693.0,0.98,9.98,1.32,-0.07,-0.03,-0.04,1.0,a
3107.0,3667.0,3458.0,3509.0,4010.0,3131.0,3227.0,2703.0,1.14,9.94,1.41,-0.05,0.0,-0.04,1.0,a
3121.0,3679.0,3451.0,3501.0,3999.0,3129.0,3235.0,2697.0,1.08,10.0,1.31,-0.06,0.01,-0.03,1.0,a
3111.0,3665.0,3462.0,3514.0,3977.0,3136.0,3239.0,2719.0,1.19,10.01,1.3,-0.09,0.0,-0.03,1.0,a
3120.0,3667.0,3439.0,3517.0,3995.0,3139.0,3234.0,2753.0,1.12,9.98,1.34,-0.06,-0.02,-0.03,1.0,a
3119.0,3662.0,3466.0,3520.0,3993.0,3139.0,3229.0,2690.0,1.2,9.95,1.44,-0.1,-0.01,-0.04,1.0,a
3125.0,3675.0,3453.0,3517.0,3984.0,3137.0,3216.0,2694.0,1.14,9.93,1.55,-0.03,0.0,-0.04,1.0,a
3119.0,3671.0,3456.0,3509.0,3997.0,3140.0,3239.0,2718.0,1.17,9.97,1.36,-0.02,-0.01,-0.07,1.0,a
3280.0,3568.0,3934.0,3281.0,3866.0,3151.0,3192.0,2990.0,1.15,9.99,1.44,-0.06,-0.03,-0.06,1.0,a
3291.0,3557.0,3927.0,3269.0,3873.0,3147.0,3201.0,2987.0,1.03,9.92,1.49,-0.08,0.02,-0.03,1.0,a
3298.0,3568.0,3935.0,3270.0,3873.0,3151.0,3186.0,2974.0,1.23,9.96,1.49,-0.05,-0.02,-0.05,1.0,a
3301.0,3575.0,3911.0,3268.0,3873.0,3147.0,3185.0,2977.0,1.07,9.94,1.47,-0.04,0.04,-0.05,1.0,a
3280.0,3567.0,3923.0,3268.0,3886.0,3153.0,3202.0,2978.0,1.13,9.99,1.41,-0.05,-0.01,-0.05,1.0,a
3282.0,3583.0,3913.0,3271.0,3882.0,3164.0,3204.0,2879.0,1.19,9.93,1.61,-0.03,0.01,-0.05,1.0,a
3298.0,3565.0,3926.0,3283.0,3868.0,3152.0,3209.0,2935.0,1.08,9.9,1.57,-0.0,0.02,-0.03,1.0,a
3295.0,3577.0,3893.0,3281.0,3902.0,3152.0,3208.0,2931.0,1.2,10.06,1.32,0.05,0.01,-0.04,1.0,a
3287.0,3577.0,3891.0,3262.0,3879.0,3168.0,3213.0,2994.0,1.18,9.98,1.3,-0.04,-0.01,-0.04,1.0,a
3292.0,3567.0,3914.0,3286.0,3890.0,3162.0,3203.0,3017.0,1.15,9.96,1.36,-0.02,0.04,-0.06,1.0,a
3295.0,3583.0,3893.0,3297.0,3909.0,3167.0,3216.0,2991.0,0.88,10.05,1.18,-0.06,0.02,-0.04,1.0,a
3293.0,3562.0,3907.0,3297.0,3879.0,3167.0,3205.0,3008.0,1.13,9.97,1.31,-0.05,-0.03,-0.05,1.0,a
3283.0,3552.0,3898.0,3290.0,3905.0,3166.0,3211.0,2994.0,1.05,10.06,1.25,-0.06,0.03,-0.02,1.0,a
3298.0,3567.0,3909.0,3301.0,3920.0,3162.0,3211.0,2992.0,1.31,10.06,1.29,-0.05,-0.01,-0.04,1.0,a
3300.0,3571.0,3901.0,3296.0,3919.0,3179.0,3214.0,3007.0,1.22,10.01,1.32,-0.04,0.01,-0.04,1.0,a
3296.0,3583.0,3889.0,3295.0,3892.0,3178.0,3215.0,3002.0,1.2,10.01,1.34,-0.06,-0.04,-0.05,1.0,a
3299.0,3583.0,3906.0,3290.0,3893.0,3178.0,3203.0,3011.0,1.21,9.96,1.36,-0.04,0.0,-0.06,1.0,a
3299.0,3595.0,3904.0,3303.0,3904.0,3167.0,3219.0,3011.0,1.04,10.01,1.24,-0.08,-0.0,-0.05,1.0,a
3287.0,3582.0,3924.0,3289.0,3918.0,3175.0,3211.0,2967.0,1.11,9.97,1.32,-0.06,-0.0,-0.06,1.0,a
3295.0,3579.0,3917.0,3305.0,3941.0,3184.0,3213.0,2977.0,1.09,10.06,1.34,-0.09,0.05,-0.04,1.0,a
3110.0,3636.0,3841.0,3564.0,3929.0,3202.0,3253.0,2951.0,0.84,9.83,1.56,-0.06,0.01,-0.04,1.0,a
3102.0,3632.0,3857.0,3567.0,3963.0,3205.0,3245.0,2943.0,1.02,10.06,1.48,-0.09,-0.01,-0.05,1.0,a
3096.0,3648.0,3865.0,3568.0,3926.0,3226.0,3247.0,2947.0,1.03,9.81,1.92,-0.09,-0.0,-0.03,1.0,a
3107.0,3625.0,3841.0,3582.0,3952.0,3206.0,3254.0,2932.0,0.96,10.09,1.67,-0.01,0.01,-0.04,1.0,a
3103.0,3659.0,3840.0,3569.0,3946.0,3216.0,3248.0,2941.0,0.87,9.88,1.63,-0.06,0.01,-0.02,1.0,a
3116.0,3615.0,3855.0,3583.0,3935.0,3211.0,3248.0,2949.0,1.19,10.01,1.52,-0.05,-0.02,0.0,1.0,a
3108.0,3646.0,3858.0,3583.0,3956.0,3215.0,3261.0,2945.0,1.26,9.9,1.67,-0.05,0.0,-0.05,1.0,a
3088.0,3632.0,3837.0,3583.0,3957.0,3219.0,3255.0,2932.0,1.09,10.02,1.65,-0.02,-0.01,-0.09,1.0,a
3089.0,3641.0,3843.0,3600.0,3973.0,3229.0,3258.0,2922.0,0.77,9.88,1.66,-0.09,-0.04,-0.1,1.0,a
3106.0,3658.0,3854.0,3599.0,3966.0,3225.0,3269.0,2913.0,0.9,9.96,1.73,-0.01,-0.01,-0.04,1.0,a
3111.0,3649.0,3837.0,3600.0,3943.0,3221.0,3264.0,2917.0,0.96,9.87,1.63,-0.08,0.03,-0.03,1.0,a
3103.0,3647.0,3841.0,3602.0,3974.0,3227.0,3261.0,2947.0,1.12,10.01,1.54,-0.01,-0.04,-0.04,1.0,a
3111.0,3633.0,3850.0,3599.0,3957.0,3221.0,3253.0,2946.0,1.01,9.89,1.6,-0.07,0.03,-0.05,1.0,a
3101.0,3495.0,3843.0,3603.0,3954.0,3216.0,3258.0,2950.0,0.95,9.99,1.6,-0.02,-0.03,-0.05,1.0,a
3099.0,3632.0,3856.0,3603.0,3979.0,3234.0,3263.0,2946.0,0.91,9.87,1.59,-0.06,0.02,-0.03,1.0,a
3101.0,3639.0,3842.0,3580.0,3981.0,3219.0,3262.0,2938.0,1.09,10.05,1.51,-0.07,-0.02,-0.04,1.0,a
3100.0,3641.0,3854.0,3600.0,3975.0,3232.0,3261.0,2950.0,1.04,9.9,1.67,-0.07,-0.01,-0.05,1.0,a
3106.0,3648.0,3855.0,3601.0,3961.0,3217.0,3276.0,2947.0,0.94,9.94,1.72,-0.03,0.02,-0.04,1.0,a
3098.0,3629.0,3846.0,3583.0,3984.0,3221.0,3281.0,2948.0,0.86,9.88,1.64,-0.08,0.01,-0.03,1.0,a
3099.0,3632.0,3846.0,3615.0,3968.0,3222.0,3269.0,2939.0,0.98,9.95,1.58,-0.04,-0.02,-0.02,1.0,a
3430.0,4095.0,3867.0,3899.0,3884.0,2881.0,3070.0,3298.0,0.6,9.88,2.12,-0.08,-0.05,-0.05,1.0,a
3454.0,4095.0,3858.0,3884.0,3887.0,2906.0,3088.0,3297.0,0.56,9.84,2.07,-0.05,0.02,-0.01,1.0,a
3440.0,4095.0,3840.0,3891.0,3875.0,2881.0,3088.0,3302.0,0.6,9.9,1.82,-0.01,0.02,-0.01,1.0,a
3437.0,4095.0,3835.0,3899.0,3868.0,2901.0,3071.0,3301.0,0.7,9.98,1.64,0.02,0.03,-0.01,1.0,a
3438.0,4095.0,3845.0,3888.0,3891.0,2900.0,3065.0,3292.0,0.66,10.02,1.59,0.01,0.04,-0.02,1.0,a
3440.0,4095.0,3847.0,3874.0,3878.0,2896.0,3087.0,3289.0,0.68,9.97,1.59,-0.01,-0.0,-0.05,1.0,a
3426.0,4095.0,3824.0,3920.0,3911.0,2899.0,3094.0,3302.0,0.54,9.97,1.57,-0.03,0.01,-0.05,1.0,a
3437.0,4095.0,3828.0,3899.0,3893.0,2896.0,3057.0,3291.0,0.62,9.97,1.61,-0.05,-0.01,-0.05,1.0,a
3445.0,4095.0,3833.0,3937.0,3891.0,2906.0,3091.0,3299.0,0.59,9.95,1.64,-0.02,-0.02,-0.07,1.0,a
3427.0,4095.0,3846.0,3925.0,3893.0,2915.0,3088.0,3299.0,0.52,9.86,1.64,0.0,0.06,-0.06,1.0,a
3456.0,4095.0,3824.0,3922.0,3879.0,2912.0,3071.0,3313.0,0.18,9.81,2.24,0.36,0.07,-0.01,1.0,a
3454.0,4095.0,3826.0,3947.0,3879.0,2919.0,3092.0,3302.0,0.51,10.36,1.19,0.21,0.09,0.05,1.0,a
3439.0,4095.0,3843.0,3939.0,3884.0,2919.0,3100.0,3290.0,0.69,10.1,0.93,-0.0,0.12,0.02,1.0,a
3420.0,4095.0,3813.0,3916.0,3873.0,2915.0,3103.0,3312.0,0.75,10.07,0.88,-0.13,-0.07,0.01,1.0,a
3472.0,4095.0,3831.0,3955.0,3877.0,2926.0,3105.0,3314.0,0.75,10.08,0.92,-0.12,0.01,-0.01,1.0,a
3440.0,4095.0,3814.0,3949.0,3871.0,2919.0,3088.0,3315.0,0.65,10.04,1.07,-0.17,0.02,0.0,1.0,a
3440.0,4095.0,3815.0,3921.0,3876.0,2921.0,3109.0,3322.0,0.68,9.93,1.42,-0.16,-0.06,-0.02,1.0,a
3433.0,4095.0,3799.0,3931.0,3893.0,2922.0,3106.0,3315.0,0.77,9.97,1.59,-0.15,-0.05,-0.02,1.0,a
3451.0,4095.0,3845.0,3971.0,3888.0,2926.0,3107.0,3302.0,0.86,9.9,1.7,-0.09,-0.03,-0.02,1.0,a
3450.0,4095.0,3811.0,3930.0,3910.0,2926.0,3117.0,3306.0,0.85,10.02,1.57,-0.05,0.03,-0.04,1.0,a
3919.0,3407.0,3167.0,3615.0,3853.0,2832.0,3106.0,3276.0,0.99,10.06,1.38,-0.02,0.05,-0.07,1.0,a
3936.0,3392.0,3163.0,3609.0,3879.0,2823.0,3111.0,3270.0,0.96,9.89,1.38,-0.03,0.06,-0.06,1.0,a
3936.0,3367.0,3143.0,3604.0,3888.0,2833.0,3117.0,3264.0,0.79,10.0,1.31,-0.04,-0.01,-0.05,1.0,a
3937.0,3385.0,3150.0,3603.0,3878.0,2826.0,3104.0,3262.0,0.88,9.94,1.32,-0.05,0.01,-0.04,1.0,a
3941.0,3386.0,3153.0,3598.0,3881.0,2832.0,3104.0,3275.0,1.1,10.0,1.34,-0.06,-0.01,-0.02,1.0,a
3947.0,3395.0,3155.0,3601.0,3856.0,2833.0,3095.0,3273.0,0.93,9.93,1.38,-0.08,0.0,-0.03,1.0,a
3939.0,3366.0,3150.0,3600.0,3851.0,2832.0,3108.0,3276.0,1.04,9.93,1.5,-0.12,0.01,-0.03,1.0,a
3953.0,3377.0,3151.0,3606.0,3882.0,2827.0,3106.0,3263.0,1.07,9.95,1.56,-0.03,0.02,-0.05,1.0,a
3933.0,3382.0,3178.0,3616.0,3887.0,2833.0,3111.0,3264.0,0.81,9.95,1.42,-0.09,0.01,-0.03,1.0,a
3947.0,3389.0,3154.0,3612.0,3861.0,2842.0,3119.0,3277.0,1.13,9.95,1.58,-0.03,-0.01,-0.05,1.0,a
3931.0,3390.0,3152.0,3632.0,3861.0,2842.0,3101.0,3271.0,1.03,9.95,1.45,-0.07,0.02,-0.05,1.0,a
3946.0,3383.0,3153.0,3620.0,3866.0,2833.0,3106.0,3280.0,0.84,9.96,1.47,-0.03,-0.0,-0.06,1.0,a
3925.0,3378.0,3171.0,3632.0,3867.0,2831.0,3120.0,3265.0,0.94,9.96,1.45,-0.07,-0.02,-0.05,1.0,a
3911.0,3379.0,3160.0,3617.0,3883.0,2837.0,3101.0,3267.0,0.97,9.93,1.52,-0.04,-0.01,-0.04,1.0,a
3945.0,3382.0,3159.0,3601.0,3888.0,2844.0,3111.0,3274.0,1.11,9.98,1.35,-0.04,0.0,-0.04,1.0,a
3936.0,3361.0,3165.0,3610.0,3887.0,2838.0,3107.0,3281.0,1.04,9.99,1.3,-0.05,0.02,-0.04,1.0,a
3923.0,3390.0,3174.0,3618.0,3889.0,2842.0,3102.0,3280.0,0.9,9.99,1.33,-0.09,-0.0,-0.05,1.0,a
3910.0,3393.0,3179.0,3622.0,3887.0,2833.0,3104.0,3281.0,0.93,10.05,1.39,-0.11,-0.0,-0.03,1.0,a
3919.0,3386.0,3156.0,3618.0,3889.0,2833.0,3120.0,3282.0,0.95,9.93,1.57,-0.11,-0.01,-0.07,1.0,a
3899.0,3381.0,3181.0,3630.0,3902.0,2841.0,3119.0,3284.0,0.92,9.9,1.66,-0.06,-0.01,-0.04,1.0,a
3382.0,3152.0,3348.0,4095.0,3866.0,2896.0,3146.0,3287.0,1.07,9.98,1.59,-0.05,0.02,-0.03,1.0,a
3389.0,3176.0,3328.0,4095.0,3856.0,2889.0,3150.0,3310.0,0.99,9.99,1.48,-0.09,-0.01,-0.06,1.0,a
3397.0,3152.0,3341.0,4095.0,3867.0,2892.0,3149.0,3298.0,0.86,9.91,1.7,-0.08,-0.05,-0.05,1.0,a
3376.0,3184.0,3350.0,4095.0,3859.0,2896.0,3156.0,3298.0,0.94,9.85,1.83,-0.08,-0.02,-0.03,1.0,a
3376.0,3179.0,3325.0,4095.0,3874.0,2902.0,3159.0,3293.0,1.02,9.98,1.69,-0.04,-0.0,-0.03,1.0,a
3382.0,3165.0,3329.0,4095.0,3844.0,2907.0,3168.0,3299.0,0.99,9.96,1.58,-0.06,-0.0,-0.02,1.0,a
3403.0,3164.0,3339.0,4095.0,3861.0,2897.0,3152.0,3294.0,1.12,9.95,1.59,-0.04,-0.0,-0.03,1.0,a
3377.0,3167.0,3325.0,4095.0,3856.0,2896.0,3154.0,3283.0,1.06,9.91,1.55,-0.07,0.05,-0.04,1.0,a
3377.0,3162.0,3339.0,4095.0,3874.0,2906.0,3152.0,3293.0,1.03,9.99,1.56,-0.06,0.03,-0.05,1.0,a
3379.0,3161.0,3340.0,4095.0,3871.0,2903.0,3152.0,3303.0,0.95,9.93,1.62,-0.05,0.01,-0.05,1.0,a
3378.0,3167.0,3327.0,4095.0,3855.0,2894.0,3155.0,3305.0,0.93,9.96,1.63,-0.06,0.01,-0.05,1.0,a
3384.0,3166.0,3335.0,4095.0,3866.0,2915.0,3164.0,3295.0,0.93,9.91,1.68,-0.02,-0.01,-0.05,1.0,a
3389.0,3174.0,3319.0,4095.0,3888.0,2913.0,3158.0,3302.0,1.04,9.88,1.78,0.03,-0.04,-0.05,1.0,a
3390.0,3167.0,3326.0,4048.0,3855.0,2913.0,3166.0,3311.0,0.71,9.94,1.43,0.01,0.04,0.01,1.0,a
3380.0,3168.0,3322.0,4023.0,3888.0,2928.0,3174.0,3314.0,1.0,9.97,1.38,-0.04,0.02,-0.02,1.0,a
3376.0,3170.0,3326.0,4080.0,3915.0,2933.0,3163.0,3314.0,1.04,9.97,1.4,-0.07,-0.03,-0.04,1.0,a
3376.0,3165.0,3322.0,4081.0,3875.0,2935.0,3177.0,3318.0,1.08,10.01,1.33,-0.06,0.02,-0.04,1.0,a
3392.0,3162.0,3325.0,4080.0,3886.0,2928.0,3184.0,3303.0,0.99,9.9,1.43,-0.08,0.02,-0.04,1.0,a
3371.0,3162.0,3322.0,4075.0,3877.0,2925.0,3183.0,3323.0,1.02,10.04,1.36,-0.04,0.03,-0.04,1.0,a
3391.0,3149.0,3333.0,4055.0,3885.0,2932.0,3182.0,3312.0,0.97,9.93,1.5,-0.08,0.02,-0.05,1.0,a
3678.0,3471.0,3768.0,3959.0,3923.0,2893.0,3154.0,3305.0,0.71,9.84,1.88,-0.07,-0.0,-0.06,1.0,a
3679.0,3507.0,3761.0,3991.0,3912.0,2886.0,3149.0,3309.0,0.77,9.94,1.74,-0.04,0.03,-0.05,1.0,a
3665.0,3499.0,3763.0,3954.0,3920.0,2902.0,3142.0,3301.0,0.73,9.92,1.74,-0.11,-0.02,-0.07,1.0,a
3709.0,3495.0,3761.0,3967.0,3909.0,2895.0,3137.0,3312.0,0.75,9.98,1.91,-0.03,-0.04,-0.05,1.0,a
3696.0,3493.0,3770.0,3963.0,3927.0,2907.0,3139.0,3312.0,0.57,9.84,1.89,-0.07,0.01,-0.03,1.0,a
3670.0,3472.0,3765.0,3972.0,3925.0,2897.0,3151.0,3297.0,0.87,9.99,1.77,-0.05,-0.05,-0.04,1.0,a
3687.0,3481.0,3776.0,3967.0,3947.0,2900.0,3147.0,3312.0,0.98,9.8,1.97,-0.01,-0.04,-0.05,1.0,a
3702.0,3492.0,3760.0,3984.0,3938.0,2903.0,3149.0,3303.0,1.0,10.1,1.4,-0.03,0.15,-0.03,1.0,a
3696.0,3491.0,3771.0,3963.0,3922.0,2909.0,3154.0,3318.0,0.52,10.03,1.4,-0.07,0.07,-0.07,1.0,a
3659.0,3483.0,3751.0,3958.0,3919.0,2896.0,3140.0,3307.0,0.34,9.87,1.6,-0.12,-0.05,-0.07,1.0,a
3699.0,3483.0,3751.0,3978.0,3918.0,2902.0,3157.0,3296.0,0.68,9.95,1.77,-0.12,0.01,0.01,1.0,a
3695.0,3485.0,3791.0,3984.0,3937.0,2905.0,3140.0,3311.0,0.85,9.96,1.7,-0.12,0.03,-0.01,1.0,a
3685.0,3491.0,3750.0,3999.0,3911.0,2909.0,3153.0,3310.0,0.85,9.92,1.95,-0.12,-0.02,-0.02,1.0,a
3707.0,3473.0,3755.0,3969.0,3921.0,2905.0,3151.0,3310.0,0.81,9.89,2.07,-0.12,0.03,-0.04,1.0,a
3673.0,3486.0,3776.0,3986.0,3907.0,2904.0,3151.0,3311.0,0.65,9.88,1.97,-0.05,0.03,-0.03,1.0,a
3691.0,3502.0,3757.0,3979.0,3939.0,2903.0,3157.0,3311.0,0.78,9.81,1.94,-0.06,-0.02,0.01,1.0,a
3696.0,3498.0,3783.0,3985.0,3952.0,2911.0,3156.0,3316.0,1.05,10.0,1.81,-0.05,0.05,-0.02,1.0,a
3711.0,3509.0,3780.0,3997.0,3914.0,2907.0,3147.0,3311.0,0.78,9.79,2.22,-0.08,0.01,-0.02,1.0,a
3696.0,3479.0,3746.0,3971.0,3929.0,2914.0,3155.0,3306.0,1.09,9.87,2.33,0.02,0.04,-0.1,1.0,a
3707.0,3504.0,3764.0,3994.0,3938.0,2907.0,3153.0,3315.0,0.56,9.93,1.7,0.01,0.08,-0.1,1.0,a
3786.0,3293.0,3905.0,3642.0,3920.0,2881.0,3165.0,3300.0,0.14,10.22,0.86,-0.09,0.12,-0.05,1.0,a
3764.0,3299.0,3889.0,3648.0,3914.0,2884.0,3155.0,3314.0,0.07,10.0,1.07,-0.11,-0.03,-0.01,1.0,a
3783.0,3302.0,3887.0,3665.0,3909.0,2887.0,3165.0,3305.0,0.18,10.01,1.22,-0.14,0.0,0.0,1.0,a
3757.0,3307.0,3910.0,3650.0,3889.0,2893.0,3158.0,3312.0,0.4,10.0,1.31,-0.04,0.05,-0.0,1.0,a
3764.0,3283.0,3895.0,3663.0,3936.0,2900.0,3173.0,3312.0,0.29,10.02,1.26,-0.11,-0.03,-0.03,1.0,a
3751.0,3300.0,3948.0,3659.0,3913.0,2909.0,3165.0,3324.0,0.34,10.01,1.33,-0.09,-0.0,-0.04,1.0,a
3746.0,3308.0,3873.0,3675.0,3939.0,2896.0,3171.0,3323.0,0.29,10.0,1.35,-0.06,0.0,-0.05,1.0,a
3777.0,3299.0,3897.0,3677.0,3935.0,2894.0,3163.0,3327.0,0.11,9.98,1.25,-0.08,-0.01,-0.05,1.0,a
3760.0,3306.0,3875.0,3671.0,3922.0,2911.0,3170.0,3328.0,0.21,10.05,1.41,-0.07,-0.0,-0.03,1.0,a
3745.0,3293.0,3882.0,3665.0,3913.0,2906.0,3165.0,3325.0,0.22,9.94,1.39,-0.07,-0.0,-0.03,1.0,a
3765.0,3298.0,3887.0,3689.0,3936.0,2896.0,3182.0,3319.0,0.34,10.08,1.3,-0.04,-0.01,-0.03,1.0,a
3767.0,3280.0,3885.0,3696.0,3898.0,2903.0,3166.0,3322.0,0.45,9.95,1.36,-0.09,-0.0,-0.03,1.0,a
3760.0,3291.0,3887.0,3669.0,3925.0,2901.0,3175.0,3329.0,0.34,10.02,1.27,-0.07,0.01,-0.05,1.0,a
3743.0,3303.0,3905.0,3698.0,3936.0,2903.0,3161.0,3312.0,0.2,10.0,1.25,-0.08,0.01,-0.05,1.0,a
3754.0,3309.0,3897.0,3696.0,3931.0,2914.0,3162.0,3331.0,0.18,9.96,1.36,-0.07,-0.01,-0.04,1.0,a
3739.0,3289.0,3910.0,3685.0,3920.0,2928.0,3179.0,3327.0,0.18,9.96,1.42,-0.05,0.01,-0.03,1.0,a
3753.0,3280.0,3894.0,3698.0,3951.0,2908.0,3174.0,3327.0,0.35,10.07,1.38,-0.07,-0.0,-0.02,1.0,a
3740.0,3302.0,3886.0,3680.0,3929.0,2910.0,3166.0,3331.0,0.43,9.98,1.44,-0.05,-0.01,-0.03,1.0,a
3775.0,3292.0,3879.0,3696.0,3926.0,2921.0,3184.0,3341.0,0.33,9.96,1.33,-0.04,0.04,-0.05,1.0,a
3746.0,3293.0,3914.0,3706.0,3955.0,2922.0,3179.0,3322.0,0.22,10.04,1.23,-0.09,-0.02,-0.05,1.0,a
3705.0,3539.0,3865.0,3694.0,3989.0,2921.0,3185.0,3328.0,0.3,9.92,1.43,-0.07,0.01,-0.02,1.0,a
3711.0,3541.0,3856.0,3701.0,3968.0,2923.0,3184.0,3341.0,0.47,10.03,1.52,-0.09,0.01,-0.03,1.0,a
3690.0,3553.0,3879.0,3706.0,3981.0,2928.0,3190.0,3328.0,0.36,9.91,1.54,-0.09,0.01,-0.03,1.0,a
3700.0,3541.0,3856.0,3715.0,3991.0,2943.0,3188.0,3343.0,0.28,10.04,1.55,-0.09,0.04,-0.05,1.0,a
3693.0,3521.0,3855.0,3721.0,3959.0,2930.0,3193.0,3348.0,0.21,9.89,1.68,-0.1,0.01,-0.05,1.0,a
3711.0,3541.0,3865.0,3720.0,3993.0,2941.0,3210.0,3344.0,0.26,10.04,1.71,-0.05,-0.01,-0.05,1.0,a
3715.0,3557.0,3862.0,3754.0,4021.0,2946.0,3193.0,3353.0,0.17,9.84,1.71,-0.12,-0.03,-0.01,1.0,a
3696.0,3536.0,3884.0,3730.0,3986.0,2944.0,3202.0,3344.0,0.38,10.07,1.66,-0.02,0.0,-0.03,1.0,a
3696.0,3557.0,3849.0,3741.0,4015.0,2941.0,3187.0,3347.0,0.39,9.88,1.58,-0.04,-0.01,-0.02,1.0,a
3705.0,3558.0,3868.0,3723.0,4004.0,2928.0,3195.0,3344.0,0.32,10.2,1.3,-0.05,0.02,-0.04,1.0,a
3699.0,3527.0,3888.0,3709.0,3995.0,2927.0,3185.0,3345.0,0.3,10.04,1.49,-0.2,-0.01,0.01,1.0,a
3679.0,3561.0,3867.0,3712.0,4000.0,2930.0,3201.0,3345.0,0.49,9.86,1.74,-0.12,0.0,-0.06,1.0,a
3681.0,3553.0,3872.0,3699.0,3985.0,2938.0,3197.0,3349.0,0.23,9.93,1.76,-0.11,-0.01,-0.04,1.0,a
3719.0,3521.0,3861.0,3701.0,4009.0,2926.0,3188.0,3354.0,0.28,9.87,1.82,-0.06,-0.01,-0.03,1.0,a
3698.0,3538.0,3873.0,3705.0,3974.0,2935.0,3194.0,3355.0,0.36,9.96,1.76,-0.04,0.01,-0.02,1.0,a
3703.0,3547.0,3862.0,3695.0,3988.0,2928.0,3195.0,3354.0,0.42,9.98,1.68,-0.04,0.02,-0.0,1.0,a
3703.0,3538.0,3878.0,3698.0,3979.0,2928.0,3199.0,3359.0,0.41,9.99,1.69,-0.05,0.02,-0.03,1.0,a
3680.0,3549.0,3893.0,3698.0,4000.0,2932.0,3185.0,3347.0,0.41,9.94,1.74,-0.05,-0.01,-0.02,1.0,a
3715.0,3555.0,3854.0,3689.0,3991.0,2939.0,3194.0,3360.0,0.49,9.99,1.65,-0.05,0.02,-0.05,1.0,a
3683.0,3539.0,3879.0,3725.0,3999.0,2942.0,3204.0,3360.0,0.36,9.98,1.66,-0.07,0.03,-0.06,1.0,a
3522.0,3744.0,3874.0,3535.0,3982.0,2931.0,3181.0,3305.0,0.29,9.97,1.66,0.01,0.0,-0.05,1.0,a
3507.0,3757.0,3895.0,3559.0,3958.0,2934.0,3178.0,3317.0,0.39,10.13,1.43,-0.09,0.01,-0.07,1.0,a
3499.0,3751.0,3888.0,3569.0,4004.0,2928.0,3181.0,3313.0,0.04,9.9,1.6,-0.07,0.05,-0.06,1.0,a
3523.0,3734.0,3879.0,3559.0,3982.0,2934.0,3182.0,3313.0,0.15,9.99,1.61,-0.1,0.0,-0.02,1.0,a
3535.0,3730.0,3893.0,3577.0,3969.0,2928.0,3194.0,3321.0,0.27,9.93,1.65,-0.06,0.02,-0.03,1.0,a
3528.0,3729.0,3859.0,3582.0,3989.0,2938.0,3190.0,3317.0,0.17,9.93,1.65,-0.09,0.01,-0.01,1.0,a
3488.0,3737.0,3900.0,3573.0,4012.0,2937.0,3183.0,3318.0,0.29,10.07,1.5,-0.04,0.03,-0.05,1.0,a
3511.0,3731.0,3870.0,3563.0,4025.0,2944.0,3199.0,3319.0,0.12,9.89,1.68,-0.12,-0.02,-0.04,1.0,a
3520.0,3738.0,3889.0,3577.0,4001.0,2944.0,3184.0,3331.0,0.15,9.96,1.85,-0.07,-0.02,-0.04,1.0,a
3531.0,3728.0,3863.0,3568.0,4034.0,2933.0,3210.0,3326.0,0.14,9.86,1.85,-0.05,0.0,-0.03,1.0,a
3523.0,3732.0,3862.0,3571.0,4016.0,2951.0,3205.0,3342.0,0.28,9.97,1.75,-0.04,0.0,-0.04,1.0,a
3520.0,3735.0,3861.0,3583.0,4011.0,2943.0,3199.0,3344.0,0.16,9.89,1.75,-0.02,0.01,-0.05,1.0,a
3520.0,3759.0,3854.0,3555.0,4016.0,2961.0,3215.0,3347.0,0.2,9.96,1.75,-0.01,0.01,-0.02,1.0,a
3511.0,3760.0,3862.0,3565.0,4007.0,2954.0,3199.0,3338.0,0.33,10.04,1.49,-0.03,0.05,-0.03,1.0,a
3537.0,3773.0,3865.0,3562.0,4016.0,2962.0,3199.0,3328.0,0.28,9.9,1.53,-0.04,0.06,-0.03,1.0,a
3519.0,3735.0,3888.0,3583.0,4022.0,2962.0,3213.0,3344.0,0.09,10.06,1.35,-0.07,0.04,-0.06,1.0,a
3504.0,3761.0,3877.0,3549.0,4032.0,2958.0,3196.0,3344.0,0.03,9.88,1.68,-0.1,-0.03,-0.03,1.0,a
3524.0,3728.0,3867.0,3559.0,4046.0,2964.0,3207.0,3353.0,0.19,9.94,1.82,-0.1,-0.01,-0.02,1.0,a
3534.0,3734.0,3883.0,3563.0,4022.0,2966.0,3202.0,3349.0,0.28,9.83,1.9,-0.1,-0.03,-0.01,1.0,a
3535.0,3728.0,3876.0,3583.0,4016.0,2971.0,3205.0,3347.0,0.45,10.04,1.72,-0.04,0.02,-0.05,1.0,a
3504.0,3638.0,3852.0,4095.0,3970.0,2933.0,3152.0,3335.0,-0.15,9.97,1.87,-0.17,-0.04,0.06,1.0,a
3487.0,3616.0,3889.0,4095.0,3950.0,2928.0,3157.0,3333.0,0.22,9.87,1.93,-0.15,-0.03,0.01,1.0,a
3487.0,3601.0,3869.0,4095.0,3955.0,2945.0,3155.0,3322.0,0.11,9.92,1.92,-0.1,0.01,-0.02,1.0,a
3504.0,3632.0,3881.0,4095.0,3955.0,2939.0,3165.0,3343.0,0.15,9.89,2.03,-0.03,0.07,-0.01,1.0,a
3500.0,3641.0,3887.0,4095.0,3984.0,2946.0,3175.0,3341.0,0.06,9.98,1.94,-0.06,0.06,-0.04,1.0,a
3479.0,3599.0,3859.0,4095.0,3977.0,2941.0,3184.0,3328.0,-0.04,9.82,2.06,-0.06,-0.01,-0.04,1.0,a
3498.0,3616.0,3881.0,4095.0,3969.0,2951.0,3184.0,3344.0,0.11,9.89,1.97,-0.03,0.05,-0.03,1.0,a
3497.0,3632.0,3859.0,4095.0,3969.0,2948.0,3171.0,3343.0,0.02,9.92,1.87,-0.03,0.04,-0.05,1.0,a
3473.0,3650.0,3875.0,4030.0,3988.0,2957.0,3171.0,3340.0,0.04,9.98,1.75,-0.06,0.1,-0.05,1.0,a
3501.0,3628.0,3859.0,4002.0,3984.0,2958.0,3171.0,3344.0,-0.21,9.83,2.06,-0.08,0.05,-0.01,1.0,a
3499.0,3659.0,3869.0,4007.0,3993.0,2945.0,3175.0,3342.0,0.1,9.93,2.08,-0.05,0.02,0.03,1.0,a
3488.0,3630.0,3873.0,4014.0,3994.0,2949.0,3181.0,3347.0,0.23,9.96,1.83,-0.03,0.07,-0.0,1.0,a
3507.0,3630.0,3875.0,3984.0,3994.0,2939.0,3193.0,3353.0,0.18,9.95,1.88,-0.07,-0.0,-0.04,1.0,a
3503.0,3629.0,3881.0,3981.0,3987.0,2947.0,3185.0,3343.0,0.02,9.87,1.97,-0.05,0.03,-0.03,1.0,a
3504.0,3632.0,3897.0,3982.0,3991.0,2960.0,3182.0,3344.0,-0.03,9.84,1.91,-0.04,0.04,-0.04,1.0,a
3484.0,3617.0,3858.0,3943.0,3984.0,2956.0,3177.0,3357.0,0.1,10.0,1.66,-0.04,0.0,-0.03,1.0,a
3502.0,3631.0,3857.0,3954.0,4004.0,2946.0,3183.0,3351.0,0.2,9.91,1.77,-0.08,-0.01,-0.05,1.0,a
3527.0,3628.0,3871.0,3981.0,4016.0,2966.0,3187.0,3357.0,-0.11,9.93,1.95,-0.1,-0.05,-0.07,1.0,a
3519.0,3606.0,3886.0,4033.0,3985.0,2960.0,3185.0,3351.0,-0.06,9.79,2.15,-0.11,-0.07,-0.01,1.0,a
3502.0,3615.0,3893.0,4034.0,3994.0,2966.0,3175.0,3344.0,0.38,10.01,1.95,-0.04,0.04,-0.03,1.0,a
3302.0,3143.0,3197.0,4095.0,3949.0,2908.0,3179.0,3325.0,-0.18,9.96,1.65,0.0,0.07,-0.05,1.0,a
3314.0,3159.0,3210.0,4095.0,3956.0,2925.0,3184.0,3321.0,-0.33,9.95,1.4,-0.13,0.0,-0.06,1.0,a
3311.0,3132.0,3203.0,4095.0,3987.0,2915.0,3187.0,3323.0,-0.19,9.96,1.54,-0.04,0.01,-0.04,1.0,a
3314.0,3141.0,3198.0,4095.0,3966.0,2925.0,3179.0,3312.0,-0.35,9.9,1.54,-0.1,0.02,0.01,1.0,a
3316.0,3158.0,3222.0,4095.0,3994.0,2928.0,3187.0,3328.0,-0.22,10.01,1.51,-0.04,0.02,0.01,1.0,a
3319.0,3136.0,3198.0,4095.0,3977.0,2925.0,3184.0,3323.0,-0.12,9.94,1.61,-0.12,-0.0,0.02,1.0,a
3290.0,3143.0,3191.0,4095.0,3984.0,2937.0,3199.0,3317.0,-0.0,10.02,1.59,-0.02,0.04,0.03,1.0,a
3311.0,3134.0,3200.0,4095.0,3966.0,2929.0,3184.0,3325.0,0.0,9.87,1.63,-0.12,0.04,-0.01,1.0,a
3286.0,3129.0,3205.0,4095.0,3990.0,2938.0,3194.0,3339.0,0.04,10.04,1.6,-0.04,0.03,-0.03,1.0,a
3314.0,3148.0,3203.0,4095.0,3966.0,2928.0,3198.0,3339.0,-0.11,9.9,1.76,-0.07,0.03,-0.04,1.0,a
3312.0,3135.0,3199.0,4095.0,3984.0,2937.0,3193.0,3330.0,-0.12,10.0,1.63,-0.06,0.03,-0.04,1.0,a
3313.0,3131.0,3207.0,4095.0,3952.0,2937.0,3201.0,3337.0,-0.05,9.9,1.64,-0.04,0.03,-0.03,1.0,a
3315.0,3140.0,3203.0,4095.0,3999.0,2942.0,3191.0,3333.0,-0.05,10.01,1.45,-0.06,0.02,-0.04,1.0,a
3303.0,3140.0,3203.0,4095.0,3955.0,2945.0,3182.0,3337.0,-0.0,9.97,1.57,-0.05,-0.01,-0.03,1.0,a
3312.0,3135.0,3191.0,4095.0,4003.0,2941.0,3188.0,3336.0,-0.02,9.95,1.57,-0.1,0.03,-0.02,1.0,a
3309.0,3151.0,3199.0,4095.0,3985.0,2960.0,3184.0,3330.0,-0.07,9.93,1.61,-0.07,0.06,-0.04,1.0,a
3323.0,3137.0,3198.0,4095.0,3975.0,2945.0,3187.0,3344.0,-0.17,10.04,1.6,-0.15,0.03,-0.02,1.0,a
3315.0,3136.0,3203.0,4095.0,3965.0,2943.0,3184.0,3347.0,-0.05,9.83,1.78,-0.09,0.03,-0.0,1.0,a
3313.0,3150.0,3200.0,4095.0,3981.0,2944.0,3197.0,3339.0,-0.06,9.97,1.7,-0.01,0.04,-0.03,1.0,a
3312.0,3127.0,3187.0,4095.0,3985.0,2946.0,3207.0,3351.0,0.21,10.02,1.42,0.08,0.01,-0.09,1.0,a
3525.0,3437.0,3773.0,3455.0,3948.0,2925.0,3171.0,3270.0,-0.3,10.15,1.08,-0.08,-0.01,-0.02,1.0,a
3533.0,3440.0,3779.0,3441.0,3949.0,2927.0,3165.0,3291.0,-0.2,9.82,1.26,-0.1,0.04,-0.03,1.0,a
3525.0,3428.0,3763.0,3459.0,3955.0,2915.0,3152.0,3303.0,-0.14,10.07,1.05,-0.11,0.01,-0.05,1.0,a
3519.0,3431.0,3776.0,3465.0,3933.0,2919.0,3179.0,3309.0,-0.29,9.98,1.22,-0.1,0.05,-0.0,1.0,a
3543.0,3424.0,3778.0,3488.0,3938.0,2913.0,3174.0,3312.0,-0.34,9.96,1.36,-0.15,0.02,-0.02,1.0,a
3529.0,3423.0,3792.0,3485.0,3951.0,2917.0,3184.0,3302.0,-0.27,9.92,1.43,-0.05,0.02,0.0,1.0,a
3519.0,3450.0,3794.0,3467.0,3970.0,2928.0,3172.0,3303.0,-0.17,10.01,1.36,-0.12,0.0,0.01,1.0,a
3538.0,3430.0,3778.0,3488.0,3952.0,2926.0,3171.0,3307.0,-0.13,10.04,1.42,-0.01,0.0,-0.05,1.0,a
3535.0,3422.0,3764.0,3501.0,3965.0,2925.0,3175.0,3322.0,-0.13,9.94,1.31,-0.1,0.01,-0.03,1.0,a
3529.0,3420.0,3774.0,3487.0,3949.0,2930.0,3183.0,3327.0,-0.18,10.02,1.31,-0.02,-0.0,-0.07,1.0,a
3515.0,3429.0,3771.0,3483.0,3970.0,2938.0,3167.0,3315.0,-0.26,9.97,1.31,-0.07,0.01,-0.04,1.0,a
3523.0,3437.0,3786.0,3485.0,3957.0,2927.0,3174.0,3312.0,-0.2,9.97,1.34,-0.06,0.02,-0.03,1.0,a
3490.0,3418.0,3759.0,3495.0,3975.0,2944.0,3179.0,3328.0,-0.12,10.0,1.28,-0.04,0.02,-0.03,1.0,a
3536.0,3422.0,3792.0,3504.0,3979.0,2938.0,3189.0,3325.0,-0.13,10.04,1.27,-0.09,0.03,-0.04,1.0,a
3523.0,3440.0,3776.0,3502.0,3963.0,2939.0,3179.0,3334.0,-0.2,9.95,1.39,-0.06,0.01,-0.03,1.0,a
3526.0,3423.0,3782.0,3490.0,3964.0,2946.0,3180.0,3312.0,-0.22,9.99,1.32,-0.1,0.02,-0.04,1.0,a
3510.0,3404.0,3776.0,3490.0,3959.0,2935.0,3173.0,3326.0,-0.15,9.97,1.43,-0.04,0.0,-0.03,1.0,a
3536.0,3444.0,3788.0,3504.0,3957.0,2943.0,3181.0,3335.0,-0.04,10.0,1.36,-0.04,0.03,-0.04,1.0,a
3526.0,3434.0,3798.0,3525.0,3986.0,2945.0,3191.0,3330.0,-0.17,9.97,1.33,-0.04,0.06,-0.05,1.0,a
3535.0,3445.0,3791.0,3529.0,3985.0,2938.0,3184.0,3328.0,-0.28,9.92,1.31,-0.06,0.0,-0.06,1.0,a
3311.0,3371.0,3827.0,3602.0,4027.0,2960.0,3207.0,3328.0,0.0,9.97,1.29,-0.08,0.02,-0.03,1.0,a
3312.0,3366.0,3856.0,3601.0,4001.0,2946.0,3187.0,3315.0,-0.05,10.01,1.28,-0.12,0.02,-0.03,1.0,a
3303.0,3358.0,3855.0,3627.0,4000.0,2960.0,3194.0,3319.0,-0.05,10.0,1.26,-0.04,-0.01,-0.07,1.0,a
3317.0,3374.0,3869.0,3633.0,4001.0,2966.0,3206.0,3338.0,-0.11,10.04,1.23,-0.11,0.04,-0.03,1.0,a
3317.0,3353.0,3840.0,3632.0,4016.0,2950.0,3189.0,3335.0,-0.18,9.92,1.35,-0.05,0.01,-0.04,1.0,a
3312.0,3373.0,3847.0,3631.0,4011.0,2960.0,3196.0,3336.0,-0.16,10.0,1.3,-0.08,0.01,-0.03,1.0,a
3327.0,3358.0,3829.0,3617.0,4023.0,2955.0,3204.0,3340.0,0.02,10.03,1.27,-0.07,0.02,-0.01,1.0,a
3331.0,3367.0,3837.0,3612.0,4014.0,2965.0,3198.0,3327.0,-0.03,9.98,1.32,-0.08,0.01,-0.03,1.0,a
3318.0,3355.0,3851.0,3627.0,4012.0,2962.0,3186.0,3338.0,-0.0,9.95,1.32,-0.07,0.01,-0.04,1.0,a
3331.0,3347.0,3851.0,3648.0,4021.0,2960.0,3190.0,3330.0,-0.17,10.0,1.27,-0.06,0.0,-0.04,1.0,a
3317.0,3377.0,3847.0,3632.0,4029.0,2965.0,3197.0,3351.0,-0.15,9.97,1.34,-0.07,0.01,-0.03,1.0,a
3323.0,3369.0,3837.0,3648.0,3986.0,2970.0,3199.0,3333.0,-0.04,9.99,1.35,-0.05,0.01,-0.03,1.0,a
3318.0,3358.0,3841.0,3622.0,4019.0,2969.0,3196.0,3361.0,-0.02,9.94,1.29,-0.05,-0.0,-0.03,1.0,a
3312.0,3371.0,3842.0,3653.0,4010.0,2975.0,3202.0,3345.0,-0.08,10.06,1.25,-0.07,0.02,-0.04,1.0,a
3335.0,3361.0,3850.0,3653.0,4039.0,2975.0,3200.0,3359.0,-0.09,9.94,1.34,-0.07,0.01,-0.05,1.0,a
3319.0,3375.0,3847.0,3650.0,4048.0,2972.0,3197.0,3334.0,-0.12,9.98,1.34,-0.07,0.01,-0.04,1.0,a
3308.0,3347.0,3858.0,3617.0,4027.0,2972.0,3207.0,3349.0,-0.12,9.95,1.36,-0.08,0.01,-0.02,1.0,a
3329.0,3358.0,3850.0,3654.0,4000.0,2975.0,3213.0,3360.0,-0.05,10.03,1.34,-0.04,0.01,-0.03,1.0,a
3311.0,3376.0,3843.0,3637.0,4025.0,2971.0,3213.0,3349.0,0.06,10.07,1.19,-0.06,0.03,-0.04,1.0,a
3305.0,3354.0,3854.0,3668.0,4041.0,2962.0,3205.0,3347.0,-0.1,9.98,1.29,-0.04,0.02,-0.05,1.0,a
3312.0,3487.0,3827.0,3539.0,3921.0,2946.0,3159.0,3327.0,0.23,10.06,1.06,-0.13,0.0,-0.03,1.0,a
3303.0,3477.0,3840.0,3527.0,3966.0,2944.0,3151.0,3323.0,0.35,10.03,1.19,-0.08,-0.0,-0.04,1.0,a
3309.0,3478.0,3842.0,3531.0,3951.0,2942.0,3155.0,3325.0,0.33,9.92,1.25,-0.11,0.02,-0.05,1.0,a
3303.0,3493.0,3845.0,3536.0,3953.0,2946.0,3161.0,3329.0,0.15,10.09,1.14,-0.07,0.02,-0.05,1.0,a
3318.0,3489.0,3825.0,3547.0,3943.0,2943.0,3159.0,3324.0,0.2,9.99,1.27,-0.07,0.02,-0.03,1.0,a
3306.0,3485.0,3839.0,3531.0,3961.0,2959.0,3149.0,3338.0,0.24,9.98,1.36,-0.07,-0.02,-0.03,1.0,a
3290.0,3481.0,3839.0,3521.0,3941.0,2950.0,3169.0,3327.0,0.4,9.97,1.25,-0.03,-0.01,-0.04,1.0,a
3296.0,3477.0,3837.0,3540.0,3939.0,2959.0,3158.0,3327.0,0.26,10.08,1.19,-0.07,0.02,-0.05,1.0,a
3308.0,3495.0,3852.0,3538.0,3959.0,2960.0,3170.0,3328.0,0.29,9.99,1.22,-0.04,-0.01,-0.05,1.0,a
3307.0,3481.0,3826.0,3555.0,3958.0,2959.0,3163.0,3324.0,0.2,10.05,1.14,-0.06,0.01,-0.04,1.0,a
3301.0,3488.0,3828.0,3570.0,3953.0,2959.0,3164.0,3342.0,0.3,10.01,1.25,-0.04,-0.01,-0.03,1.0,a
3313.0,3472.0,3831.0,3540.0,3959.0,2945.0,3179.0,3335.0,0.29,10.05,1.18,-0.05,0.0,-0.04,1.0,a
3306.0,3493.0,3825.0,3566.0,3947.0,2959.0,3173.0,3334.0,0.3,9.96,1.24,-0.04,-0.01,-0.05,1.0,a
3299.0,3476.0,3843.0,3559.0,3982.0,2953.0,3166.0,3338.0,0.26,10.01,1.19,-0.07,0.01,-0.05,1.0,a
3291.0,3483.0,3833.0,3547.0,3954.0,2956.0,3175.0,3334.0,0.21,10.0,1.19,-0.05,0.0,-0.04,1.0,a
3315.0,3471.0,3851.0,3563.0,3966.0,2966.0,3166.0,3344.0,0.23,10.01,1.19,-0.03,0.01,-0.03,1.0,a
3300.0,3485.0,3839.0,3568.0,3949.0,2953.0,3182.0,3331.0,0.31,9.99,1.15,-0.04,0.01,-0.03,1.0,a
3298.0,3478.0,3828.0,3582.0,3958.0,2962.0,3179.0,3351.0,0.4,10.13,1.14,-0.01,0.02,-0.05,1.0,a
3299.0,3469.0,3850.0,3583.0,3965.0,2961.0,3175.0,3348.0,0.21,9.94,1.04,-0.07,-0.01,-0.05,1.0,a
3281.0,3478.0,3846.0,3601.0,3951.0,2964.0,3170.0,3344.0,0.23,10.07,1.1,-0.02,0.02,-0.05,1.0,a
3331.0,3376.0,3302.0,3600.0,3990.0,2975.0,3169.0,3326.0,0.42,9.88,1.58,-0.08,-0.06,-0.04,1.0,a
3316.0,3376.0,3307.0,3583.0,3989.0,2971.0,3165.0,3325.0,0.55,9.96,1.6,-0.11,0.01,-0.02,1.0,a
3312.0,3362.0,3310.0,3583.0,3999.0,2976.0,3159.0,3343.0,0.77,9.98,1.38,-0.03,-0.04,-0.05,1.0,a
3319.0,3346.0,3312.0,3583.0,3991.0,2981.0,3166.0,3344.0,0.64,10.0,1.26,-0.06,-0.05,-0.08,1.0,a
3335.0,3357.0,3307.0,3577.0,4007.0,2977.0,3165.0,3349.0,0.43,10.04,1.26,-0.05,-0.03,-0.09,1.0,a
3327.0,3376.0,3295.0,3570.0,4015.0,2982.0,3174.0,3335.0,0.35,9.95,1.27,-0.08,-0.03,-0.04,1.0,a
3325.0,3351.0,3312.0,3583.0,4004.0,2980.0,3152.0,3335.0,0.57,10.05,1.17,-0.04,-0.06,-0.04,1.0,a
3319.0,3363.0,3297.0,3583.0,4013.0,2982.0,3152.0,3343.0,0.49,9.96,1.31,-0.12,-0.03,-0.05,1.0,a
3323.0,3374.0,3295.0,3571.0,4007.0,2979.0,3170.0,3334.0,0.5,9.96,1.6,-0.08,-0.04,-0.05,1.0,a
3330.0,3372.0,3308.0,3599.0,3996.0,2987.0,3162.0,3334.0,0.55,9.95,1.63,-0.09,0.02,-0.05,1.0,a
3313.0,3366.0,3303.0,3600.0,4016.0,2992.0,3167.0,3338.0,0.48,10.03,1.54,-0.05,0.0,-0.04,1.0,a
3322.0,3355.0,3312.0,3583.0,4013.0,2987.0,3163.0,3334.0,0.47,9.93,1.39,-0.03,-0.01,-0.04,1.0,a
3323.0,3370.0,3311.0,3583.0,4014.0,2976.0,3170.0,3348.0,0.47,10.04,1.27,-0.07,0.0,-0.04,1.0,a
3329.0,3360.0,3298.0,3578.0,4028.0,2993.0,3171.0,3341.0,0.48,9.99,1.38,-0.08,0.0,-0.03,1.0,a
3312.0,3371.0,3319.0,3600.0,4030.0,2992.0,3169.0,3345.0,0.57,10.0,1.43,-0.04,0.01,-0.05,1.0,a
3335.0,3371.0,3309.0,3574.0,4016.0,2999.0,3170.0,3341.0,0.52,9.91,1.45,-0.05,0.01,-0.04,1.0,a
3327.0,3362.0,3312.0,3579.0,4013.0,2994.0,3181.0,3355.0,0.52,9.98,1.42,-0.02,0.02,-0.05,1.0,a
3333.0,3369.0,3299.0,3615.0,3984.0,2981.0,3169.0,3360.0,0.48,9.97,1.35,-0.06,0.06,-0.05,1.0,a
3312.0,3370.0,3293.0,3615.0,4027.0,2991.0,3173.0,3364.0,0.38,10.02,1.38,-0.04,0.02,-0.07,1.0,a
3331.0,3375.0,3300.0,3610.0,4006.0,2997.0,3175.0,3358.0,0.4,9.94,1.45,-0.08,0.03,-0.01,1.0,a
3298.0,3474.0,3856.0,3571.0,4047.0,3023.0,3189.0,3349.0,0.26,9.85,1.37,-0.06,-0.01,-0.04,1.0,a
3311.0,3477.0,3851.0,3562.0,4043.0,3024.0,3206.0,3335.0,0.31,10.0,1.36,-0.13,0.03,-0.02,1.0,a
3300.0,3452.0,3856.0,3581.0,4024.0,3027.0,3199.0,3355.0,0.52,10.03,1.4,-0.04,-0.0,-0.03,1.0,a
3312.0,3459.0,3859.0,3566.0,4050.0,3035.0,3213.0,3349.0,0.43,10.03,1.23,-0.1,0.04,-0.04,1.0,a
3305.0,3477.0,3856.0,3555.0,4025.0,3024.0,3202.0,3340.0,0.34,10.04,1.39,-0.05,0.02,-0.03,1.0,a
3319.0,3470.0,3859.0,3575.0,4050.0,3033.0,3210.0,3341.0,0.41,9.96,1.4,-0.05,0.01,-0.03,1.0,a
3305.0,3469.0,3841.0,3569.0,4047.0,3030.0,3216.0,3354.0,0.44,10.05,1.32,-0.05,0.03,-0.02,1.0,a
3299.0,3457.0,3858.0,3565.0,4034.0,3027.0,3215.0,3356.0,0.52,10.01,1.19,-0.09,0.05,-0.05,1.0,a
3303.0,3473.0,3849.0,3583.0,4035.0,3015.0,3206.0,3349.0,0.33,10.0,1.33,-0.05,0.05,-0.04,1.0,a
3311.0,3459.0,3870.0,3599.0,4030.0,3023.0,3206.0,3349.0,0.34,9.97,1.31,-0.09,0.01,-0.04,1.0,a
3315.0,3472.0,3838.0,3567.0,4048.0,3027.0,3201.0,3361.0,0.42,9.99,1.45,-0.04,0.01,-0.03,1.0,a
3307.0,3457.0,3841.0,3568.0,4055.0,3037.0,3197.0,3361.0,0.41,9.88,1.43,-0.08,-0.0,-0.02,1.0,a
3319.0,3468.0,3861.0,3583.0,4078.0,3042.0,3215.0,3362.0,0.52,10.01,1.37,-0.05,0.01,-0.04,1.0,a
3308.0,3472.0,3853.0,3566.0,4037.0,3036.0,3209.0,3361.0,0.46,9.97,1.29,-0.08,0.02,-0.04,1.0,a
3299.0,3466.0,3849.0,3567.0,4048.0,3034.0,3210.0,3371.0,0.44,10.05,1.34,-0.05,0.01,-0.06,1.0,a
3310.0,3459.0,3851.0,3573.0,4055.0,3039.0,3218.0,3363.0,0.31,9.92,1.36,-0.09,0.01,-0.03,1.0,a
3321.0,3473.0,3842.0,3583.0,4025.0,3037.0,3209.0,3358.0,0.41,10.0,1.41,-0.05,0.01,-0.04,1.0,a
3309.0,3478.0,3843.0,3571.0,4023.0,3042.0,3219.0,3363.0,0.5,10.06,1.31,-0.06,0.01,-0.03,1.0,a
3318.0,3455.0,3871.0,3571.0,4049.0,3035.0,3200.0,3366.0,0.5,10.06,1.33,-0.06,0.0,-0.04,1.0,a
3312.0,3449.0,3841.0,3598.0,4050.0,3038.0,3210.0,3345.0,0.44,9.98,1.4,-0.04,-0.0,-0.05,1.0,a
3311.0,4013.0,3812.0,3583.0,4059.0,3029.0,3205.0,3341.0,0.45,9.98,1.24,-0.07,0.01,-0.04,1.0,a
3312.0,4016.0,3848.0,3599.0,4074.0,3026.0,3209.0,3346.0,0.25,10.01,1.3,-0.12,0.04,-0.02,1.0,a
3310.0,4016.0,3825.0,3602.0,4078.0,3031.0,3210.0,3344.0,0.4,9.92,1.37,-0.04,-0.01,-0.03,1.0,a
3311.0,4030.0,3827.0,3580.0,4068.0,3024.0,3214.0,3346.0,0.69,9.98,1.22,-0.02,0.03,-0.03,1.0,a
3290.0,4005.0,3830.0,3578.0,4075.0,3033.0,3216.0,3354.0,0.57,10.09,1.13,-0.06,0.04,-0.07,1.0,a
3314.0,4034.0,3826.0,3605.0,4063.0,3039.0,3198.0,3347.0,0.43,9.9,1.3,-0.05,-0.0,-0.08,1.0,a
3302.0,4031.0,3834.0,3600.0,4081.0,3041.0,3207.0,3346.0,0.23,10.1,1.23,-0.07,0.08,-0.07,1.0,a
3303.0,4014.0,3825.0,3577.0,4083.0,3050.0,3206.0,3351.0,0.2,10.02,1.35,-0.06,0.01,-0.04,1.0,a
3298.0,4015.0,3811.0,3605.0,4087.0,3051.0,3217.0,3344.0,0.3,9.94,1.44,-0.07,-0.02,-0.03,1.0,a
3309.0,3999.0,3834.0,3606.0,4087.0,3053.0,3205.0,3358.0,0.36,9.95,1.37,-0.03,0.01,-0.01,1.0,a
3297.0,4032.0,3828.0,3613.0,4075.0,3045.0,3202.0,3354.0,0.51,9.97,1.26,-0.03,-0.03,-0.03,1.0,a
