hall_1,hall_2,hall_3,flex_t,flex_i,flex_m,flex_r,flex_p,accel_x,accel_y,accel_z,gyro_x,gyro_y,gyro_z,sign
3775.0,3575.0,2622.0,4095.0,2624.0,2461.0,2544.0,2361.0,-1.26,9.83,5.64,-0.02,-0.04,-0.15,a
3791.0,3600.0,2622.0,4095.0,2634.0,2459.0,2544.0,2369.0,-1.33,9.77,5.7,-0.01,-0.03,-0.18,a
3803.0,3583.0,2617.0,4095.0,2635.0,2459.0,2551.0,2371.0,-1.26,9.71,5.69,-0.02,-0.04,-0.17,a
3789.0,3577.0,2610.0,4095.0,2632.0,2457.0,2545.0,2371.0,-1.3,9.6,5.84,-0.02,-0.03,-0.17,a
3783.0,3607.0,2610.0,4095.0,2629.0,2463.0,2549.0,2374.0,-1.38,9.66,5.74,-0.01,-0.03,-0.16,a
3788.0,3583.0,2608.0,4095.0,2636.0,2462.0,2547.0,2374.0,-1.4,9.67,5.76,-0.0,0.01,-0.14,a
3791.0,3600.0,2615.0,4095.0,2640.0,2475.0,2550.0,2376.0,-1.19,9.6,5.81,0.01,-0.02,-0.14,a
3790.0,3583.0,2625.0,4095.0,2637.0,2467.0,2554.0,2377.0,-1.32,9.62,5.59,0.08,0.0,-0.18,a
3791.0,3602.0,2625.0,4095.0,2629.0,2463.0,2553.0,2378.0,-1.24,9.7,5.63,-0.01,-0.11,-0.13,a
3792.0,3604.0,2613.0,4095.0,2642.0,2470.0,2551.0,2379.0,-1.3,9.68,5.87,-0.05,-0.02,-0.15,a
3804.0,3607.0,2622.0,4095.0,2642.0,2465.0,2557.0,2381.0,-1.42,9.77,5.66,0.03,-0.06,-0.14,a
3808.0,3602.0,2618.0,4095.0,2643.0,2469.0,2559.0,2386.0,-1.13,9.72,5.68,0.01,-0.06,-0.15,a
3813.0,3600.0,2608.0,4095.0,2646.0,2467.0,2559.0,2386.0,-1.24,9.64,5.79,-0.01,-0.01,-0.17,a
3794.0,3579.0,2615.0,4095.0,2642.0,2478.0,2559.0,2384.0,-1.37,9.61,5.81,0.01,-0.05,-0.17,a
3792.0,3600.0,2613.0,4095.0,2645.0,2475.0,2559.0,2395.0,-1.26,9.68,5.75,0.08,-0.04,-0.2,a
3796.0,3605.0,2621.0,4095.0,2655.0,2471.0,2559.0,2390.0,-1.48,9.7,5.7,0.05,-0.02,-0.17,a
3799.0,3583.0,2604.0,4095.0,2642.0,2474.0,2559.0,2394.0,-1.2,9.71,5.6,0.01,-0.05,-0.14,a
3807.0,3600.0,2615.0,4095.0,2654.0,2480.0,2559.0,2391.0,-1.26,9.73,5.7,0.01,0.01,-0.14,a
3792.0,3600.0,2614.0,4095.0,2647.0,2474.0,2559.0,2386.0,-1.03,9.39,5.73,0.1,-0.08,-0.18,a
3813.0,3583.0,2614.0,4095.0,2655.0,2479.0,2559.0,2394.0,-1.24,9.86,5.48,0.01,-0.04,-0.14,a
3802.0,3597.0,2617.0,4095.0,2667.0,2495.0,2593.0,2416.0,-1.21,9.69,5.64,0.02,-0.02,-0.15,a
3799.0,3598.0,2611.0,4095.0,2668.0,2494.0,2592.0,2416.0,-1.18,9.68,5.7,-0.01,-0.02,-0.15,a
3811.0,3604.0,2608.0,4095.0,2663.0,2494.0,2592.0,2409.0,-1.19,9.73,5.62,0.0,-0.04,-0.15,a
3803.0,3600.0,2619.0,4095.0,2671.0,2496.0,2593.0,2416.0,-1.24,9.77,5.56,0.0,-0.01,-0.15,a
3797.0,3571.0,2615.0,4095.0,2666.0,2493.0,2591.0,2414.0,-1.26,9.81,5.6,0.04,-0.01,-0.17,a
3797.0,3583.0,2612.0,4095.0,2669.0,2497.0,2594.0,2413.0,-1.28,9.74,5.58,-0.01,0.02,-0.15,a
3814.0,3595.0,2615.0,4095.0,2672.0,2501.0,2605.0,2411.0,-1.28,9.67,5.66,0.02,-0.01,-0.16,a
3811.0,3583.0,2614.0,4095.0,2673.0,2496.0,2598.0,2416.0,-1.22,9.72,5.6,0.0,-0.01,-0.16,a
3792.0,3605.0,2608.0,4095.0,2675.0,2500.0,2607.0,2416.0,-1.24,9.68,5.61,0.01,-0.01,-0.15,a
3808.0,3603.0,2614.0,4095.0,2672.0,2497.0,2603.0,2416.0,-1.11,9.66,5.71,-0.01,-0.02,-0.15,a
3814.0,3600.0,2610.0,4095.0,2674.0,2497.0,2607.0,2420.0,-1.22,9.73,5.75,0.02,-0.02,-0.15,a
3779.0,3597.0,2623.0,4095.0,2672.0,2498.0,2598.0,2414.0,-1.25,9.68,5.71,0.01,-0.02,-0.15,a
3796.0,3600.0,2617.0,4095.0,2673.0,2495.0,2604.0,2417.0,-1.21,9.67,5.77,0.02,0.01,-0.16,a
3779.0,3601.0,2617.0,4095.0,2682.0,2502.0,2602.0,2419.0,-1.3,9.71,5.65,0.01,0.01,-0.14,a
3814.0,3615.0,2612.0,4095.0,2674.0,2501.0,2599.0,2416.0,-1.13,9.66,5.61,0.01,-0.02,-0.15,a
3786.0,3598.0,2609.0,4095.0,2674.0,2500.0,2597.0,2416.0,-1.2,9.69,5.68,0.02,0.01,-0.14,a
3798.0,3597.0,2612.0,4095.0,2674.0,2502.0,2606.0,2419.0,-1.14,9.72,5.79,0.01,-0.05,-0.12,a
3794.0,3606.0,2609.0,4095.0,2678.0,2500.0,2608.0,2419.0,-1.14,9.8,5.7,0.03,-0.01,-0.15,a
3796.0,3604.0,2609.0,4095.0,2684.0,2507.0,2610.0,2428.0,-1.13,9.69,5.74,0.01,-0.03,-0.15,a
3790.0,3583.0,2618.0,4095.0,2679.0,2507.0,2608.0,2419.0,-1.24,9.73,5.69,0.01,-0.01,-0.16,a
3520.0,3562.0,3046.0,3811.0,2751.0,2459.0,2640.0,2417.0,-0.88,10.11,5.44,0.07,-0.07,-0.2,a
3510.0,3567.0,3036.0,3822.0,2761.0,2465.0,2642.0,2416.0,-0.97,9.57,5.62,0.13,-0.25,-0.12,a
3530.0,3551.0,3031.0,3829.0,2762.0,2474.0,2651.0,2410.0,-0.93,9.97,5.22,0.13,-0.18,-0.11,a
3522.0,3574.0,3034.0,3842.0,2763.0,2480.0,2669.0,2418.0,-0.51,9.87,5.24,0.03,-0.12,-0.16,a
3520.0,3562.0,3033.0,3834.0,2768.0,2476.0,2661.0,2426.0,-0.7,9.86,5.36,-0.06,-0.02,-0.22,a
3515.0,3562.0,3051.0,3831.0,2768.0,2480.0,2667.0,2425.0,-1.01,9.77,5.39,-0.04,0.01,-0.18,a
3522.0,3557.0,3047.0,3851.0,2769.0,2480.0,2666.0,2422.0,-0.97,9.68,5.47,0.0,-0.07,-0.16,a
3523.0,3569.0,3043.0,3851.0,2774.0,2491.0,2668.0,2433.0,-0.98,9.79,5.2,0.05,-0.1,-0.19,a
3529.0,3579.0,3051.0,3872.0,2775.0,2485.0,2672.0,2436.0,-0.9,9.76,5.27,0.04,-0.14,-0.15,a
3522.0,3552.0,3050.0,3856.0,2769.0,2481.0,2671.0,2432.0,-0.75,9.9,5.15,-0.01,-0.0,-0.12,a
3535.0,3568.0,3041.0,3859.0,2775.0,2486.0,2672.0,2443.0,-0.82,9.8,5.35,-0.01,-0.05,-0.17,a
3522.0,3558.0,3040.0,3861.0,2775.0,2484.0,2674.0,2439.0,-1.01,9.95,5.32,-0.07,-0.03,-0.14,a
3517.0,3568.0,3031.0,3865.0,2778.0,2486.0,2683.0,2443.0,-0.94,9.69,5.8,0.01,-0.0,-0.19,a
3521.0,3565.0,3041.0,3875.0,2775.0,2489.0,2675.0,2449.0,-0.97,9.73,5.61,-0.02,-0.07,-0.14,a
3504.0,3578.0,3038.0,3889.0,2783.0,2493.0,2683.0,2448.0,-0.83,9.7,5.57,0.07,0.01,-0.18,a
3525.0,3568.0,3041.0,3931.0,2790.0,2501.0,2688.0,2448.0,-1.07,9.63,5.56,0.1,0.05,-0.13,a
3533.0,3568.0,3031.0,3968.0,2790.0,2503.0,2688.0,2455.0,-1.13,9.77,5.17,0.18,-0.05,-0.08,a
3526.0,3581.0,3030.0,4067.0,2813.0,2524.0,2704.0,2465.0,-1.03,9.81,4.86,-0.12,-0.13,0.15,a
3514.0,3600.0,3029.0,4095.0,2826.0,2542.0,2710.0,2498.0,-0.12,9.35,4.86,-0.43,-0.14,0.09,a
3437.0,3696.0,3002.0,4095.0,2942.0,2559.0,2730.0,2534.0,-0.08,9.73,5.61,-0.72,0.18,0.1,a
3395.0,4095.0,2655.0,4095.0,2645.0,2390.0,2485.0,2237.0,-0.68,9.59,6.09,-0.02,-0.04,-0.12,a
3411.0,4095.0,2655.0,4095.0,2640.0,2384.0,2486.0,2241.0,-1.1,9.85,5.86,-0.02,0.01,-0.14,a
3399.0,4095.0,2665.0,4095.0,2645.0,2394.0,2487.0,2241.0,-0.95,9.62,6.07,-0.02,-0.06,-0.15,a
3406.0,4095.0,2656.0,4095.0,2651.0,2402.0,2490.0,2245.0,-0.9,9.79,6.02,-0.02,-0.1,-0.11,a
3415.0,4095.0,2651.0,4095.0,2656.0,2385.0,2497.0,2243.0,-0.89,9.63,6.18,0.02,0.01,-0.14,a
3413.0,4095.0,2663.0,4095.0,2641.0,2383.0,2495.0,2240.0,-0.89,9.83,5.92,0.02,-0.01,-0.16,a
3389.0,4095.0,2657.0,4095.0,2650.0,2390.0,2501.0,2247.0,-1.06,9.9,5.94,0.02,-0.0,-0.14,a
3407.0,4095.0,2657.0,4095.0,2649.0,2386.0,2494.0,2253.0,-0.6,9.8,5.96,-0.06,0.04,-0.17,a
3392.0,4095.0,2655.0,4095.0,2650.0,2397.0,2495.0,2254.0,-0.93,9.64,6.0,0.07,0.01,-0.25,a
3395.0,4095.0,2663.0,4095.0,2651.0,2397.0,2494.0,2256.0,-1.43,9.54,5.66,0.09,-0.03,-0.19,a
3392.0,4095.0,2662.0,4095.0,2655.0,2401.0,2507.0,2261.0,-1.23,9.58,5.53,0.12,-0.08,-0.17,a
3407.0,4095.0,2651.0,4095.0,2651.0,2395.0,2502.0,2267.0,-1.18,9.69,5.46,0.0,-0.03,-0.15,a
3388.0,4095.0,2660.0,4095.0,2656.0,2403.0,2499.0,2259.0,-1.21,9.82,5.75,-0.04,-0.01,-0.14,a
3397.0,4095.0,2644.0,4095.0,2659.0,2399.0,2503.0,2271.0,-1.01,9.61,6.07,-0.03,-0.01,-0.13,a
3401.0,4095.0,2655.0,4095.0,2659.0,2402.0,2502.0,2273.0,-0.97,9.72,5.97,-0.0,-0.03,-0.12,a
3405.0,4095.0,2643.0,4095.0,2663.0,2402.0,2506.0,2275.0,-0.91,9.58,5.97,0.02,0.0,-0.13,a
3396.0,4095.0,2653.0,4095.0,2663.0,2403.0,2512.0,2273.0,-0.94,9.7,5.82,0.03,-0.0,-0.12,a
3410.0,4095.0,2647.0,4095.0,2663.0,2405.0,2515.0,2276.0,-0.98,9.68,5.91,-0.01,0.02,-0.12,a
3391.0,4095.0,2638.0,4095.0,2662.0,2406.0,2519.0,2271.0,-1.14,9.71,5.87,-0.0,-0.02,-0.04,a
3392.0,4095.0,2608.0,4095.0,2665.0,2416.0,2524.0,2284.0,-0.92,9.59,5.79,0.07,-0.06,-0.07,a
3418.0,4095.0,2468.0,4095.0,2424.0,2288.0,2415.0,2141.0,-1.21,9.77,5.42,-0.05,0.03,-0.12,a
3418.0,4095.0,2468.0,4095.0,2424.0,2288.0,2415.0,2141.0,-1.21,9.77,5.42,-0.05,0.03,-0.12,a
3420.0,4095.0,2471.0,4095.0,2439.0,2294.0,2422.0,2156.0,-1.07,9.65,5.52,-0.11,-0.0,-0.08,a
3435.0,4095.0,2460.0,4095.0,2434.0,2293.0,2425.0,2160.0,-1.16,9.8,5.58,-0.03,0.05,-0.13,a
3423.0,4095.0,2474.0,4095.0,2437.0,2292.0,2419.0,2163.0,-1.13,9.67,5.67,-0.03,0.0,-0.14,a
3423.0,4095.0,2465.0,4095.0,2438.0,2304.0,2428.0,2169.0,-1.08,9.75,5.47,-0.01,-0.03,-0.12,a
3429.0,4095.0,2465.0,4095.0,2438.0,2293.0,2419.0,2165.0,-1.0,9.62,5.64,-0.01,-0.02,-0.12,a
3423.0,4095.0,2463.0,4095.0,2448.0,2303.0,2438.0,2170.0,-1.09,9.82,5.54,0.02,-0.02,-0.14,a
3425.0,4095.0,2473.0,4095.0,2439.0,2301.0,2431.0,2171.0,-1.04,9.66,5.67,-0.01,-0.02,-0.14,a
3413.0,4095.0,2465.0,4095.0,2447.0,2299.0,2430.0,2167.0,-1.23,9.76,5.73,0.02,-0.01,-0.16,a
3424.0,4095.0,2465.0,4095.0,2448.0,2302.0,2432.0,2180.0,-1.13,9.72,5.68,0.03,-0.04,-0.14,a
3439.0,4095.0,2465.0,4095.0,2454.0,2305.0,2438.0,2186.0,-1.11,9.77,5.5,-0.0,0.0,-0.13,a
3421.0,4095.0,2462.0,4095.0,2457.0,2308.0,2442.0,2191.0,-1.12,9.7,5.67,-0.01,0.05,-0.14,a
3440.0,4095.0,2478.0,4095.0,2455.0,2310.0,2445.0,2197.0,-1.03,9.74,5.59,0.02,0.01,-0.13,a
3423.0,4095.0,2471.0,4095.0,2458.0,2305.0,2443.0,2192.0,-1.01,9.73,5.5,0.02,0.03,-0.15,a
3431.0,4095.0,2469.0,4095.0,2464.0,2309.0,2439.0,2197.0,-1.17,9.82,5.54,-0.01,-0.01,-0.12,a
3422.0,4095.0,2474.0,4095.0,2463.0,2307.0,2446.0,2206.0,-0.85,9.7,5.64,0.01,-0.0,-0.13,a
3437.0,4095.0,2475.0,4095.0,2468.0,2317.0,2457.0,2207.0,-1.07,9.88,5.54,-0.04,-0.03,-0.12,a
3424.0,4095.0,2479.0,4095.0,2469.0,2320.0,2464.0,2219.0,-0.99,9.64,5.75,-0.01,0.01,-0.16,a
3422.0,4095.0,2471.0,4095.0,2476.0,2320.0,2471.0,2209.0,-1.11,9.77,5.68,-0.01,-0.03,-0.14,a
3428.0,4095.0,2352.0,4095.0,2913.0,2625.0,2695.0,2402.0,-1.24,9.63,5.01,-0.05,-0.05,-0.09,a
3430.0,4095.0,2347.0,4095.0,2906.0,2624.0,2697.0,2404.0,-1.46,9.66,4.99,-0.17,-0.06,-0.03,a
3423.0,4095.0,2347.0,4095.0,2902.0,2624.0,2699.0,2406.0,-0.88,9.61,5.31,-0.02,0.04,-0.09,a
3423.0,4095.0,2352.0,4095.0,2911.0,2637.0,2701.0,2407.0,-0.91,9.78,5.23,-0.05,-0.05,-0.08,a
3427.0,4095.0,2352.0,4095.0,2910.0,2633.0,2703.0,2415.0,-1.06,9.84,5.16,0.0,0.0,-0.11,a
3438.0,4095.0,2351.0,4095.0,2907.0,2627.0,2698.0,2416.0,-1.18,9.83,5.14,-0.04,-0.01,-0.13,a
3437.0,4095.0,2352.0,4095.0,2913.0,2629.0,2704.0,2426.0,-1.11,9.74,5.31,0.0,0.02,-0.14,a
3440.0,4095.0,2352.0,4095.0,2909.0,2631.0,2704.0,2427.0,-1.02,9.68,5.21,0.01,-0.01,-0.14,a
3424.0,4095.0,2352.0,4095.0,2909.0,2630.0,2702.0,2425.0,-0.97,9.8,5.05,0.05,-0.06,-0.12,a
3428.0,4095.0,2352.0,4095.0,2907.0,2629.0,2694.0,2417.0,-0.8,9.82,5.24,-0.04,-0.03,-0.12,a
3441.0,4095.0,2349.0,4095.0,2906.0,2631.0,2703.0,2431.0,-0.99,9.86,5.23,0.0,-0.02,-0.19,a
3440.0,4095.0,2346.0,4095.0,2916.0,2640.0,2697.0,2431.0,-1.09,9.78,5.46,-0.04,-0.0,-0.16,a
3428.0,4095.0,2354.0,4095.0,2913.0,2639.0,2704.0,2432.0,-1.06,9.78,5.35,0.02,0.05,-0.14,a
3425.0,4095.0,2347.0,4095.0,2903.0,2627.0,2699.0,2427.0,-0.97,9.69,5.09,0.0,-0.03,-0.11,a
3426.0,4095.0,2363.0,4095.0,2911.0,2637.0,2704.0,2423.0,-0.95,9.84,4.95,0.03,0.07,-0.15,a
3425.0,4095.0,2350.0,4095.0,2915.0,2638.0,2704.0,2429.0,-0.81,9.71,5.2,-0.03,0.02,-0.11,a
3422.0,4095.0,2353.0,4095.0,2910.0,2631.0,2693.0,2426.0,-1.05,9.83,5.26,-0.0,-0.05,-0.13,a
3440.0,4095.0,2359.0,4095.0,2905.0,2640.0,2703.0,2423.0,-0.9,9.77,5.34,0.02,-0.01,-0.12,a
3450.0,4095.0,2353.0,4095.0,2917.0,2645.0,2706.0,2434.0,-0.98,9.79,5.33,0.08,-0.01,-0.13,a
3441.0,4095.0,2355.0,4095.0,2915.0,2655.0,2721.0,2418.0,-1.29,9.82,4.92,0.01,-0.03,-0.02,a
3553.0,3673.0,3081.0,4095.0,2752.0,2542.0,2720.0,2499.0,-0.65,9.92,5.25,-0.03,-0.0,-0.14,a
3547.0,3684.0,3088.0,4095.0,2768.0,2544.0,2730.0,2505.0,-0.64,9.68,5.59,-0.03,-0.01,-0.13,a
3550.0,3687.0,3091.0,4095.0,2768.0,2545.0,2734.0,2512.0,-0.64,9.84,5.41,-0.01,-0.03,-0.16,a
3539.0,3673.0,3086.0,4095.0,2768.0,2546.0,2733.0,2512.0,-0.67,9.7,5.42,0.03,0.01,-0.16,a
3541.0,3681.0,3091.0,4095.0,2768.0,2547.0,2733.0,2512.0,-0.73,9.89,5.19,0.01,-0.04,-0.1,a
3546.0,3684.0,3098.0,4095.0,2770.0,2556.0,2736.0,2515.0,-0.49,9.74,5.29,-0.02,0.01,-0.14,a
3542.0,3681.0,3084.0,4095.0,2768.0,2549.0,2737.0,2515.0,-0.56,9.81,5.42,-0.04,-0.01,-0.13,a
3544.0,3671.0,3083.0,4095.0,2769.0,2554.0,2736.0,2519.0,-0.46,9.83,5.6,-0.01,-0.03,-0.12,a
3542.0,3664.0,3088.0,4095.0,2768.0,2555.0,2741.0,2522.0,-0.36,9.79,5.57,-0.01,-0.02,-0.11,a
3542.0,3690.0,3093.0,4095.0,2779.0,2559.0,2748.0,2527.0,-0.54,9.72,5.34,-0.03,0.09,-0.02,a
3549.0,3685.0,3090.0,4095.0,2783.0,2559.0,2752.0,2529.0,-0.4,9.72,5.56,-0.07,0.02,-0.1,a
3546.0,3677.0,3083.0,4095.0,2789.0,2559.0,2758.0,2514.0,-0.44,9.87,5.55,0.02,-0.01,-0.14,a
3556.0,3663.0,3093.0,4095.0,2787.0,2559.0,2762.0,2526.0,-0.34,9.7,5.62,-0.03,0.05,-0.15,a
3554.0,3675.0,3088.0,4095.0,2791.0,2581.0,2758.0,2530.0,-0.52,9.88,5.47,0.02,-0.04,-0.16,a
3549.0,3679.0,3083.0,4095.0,2793.0,2581.0,2763.0,2528.0,-0.52,9.7,5.49,0.01,-0.0,-0.15,a
3541.0,3678.0,3094.0,4095.0,2788.0,2590.0,2766.0,2541.0,-0.48,9.75,5.54,0.01,0.01,-0.16,a
3549.0,3658.0,3083.0,4095.0,2789.0,2587.0,2761.0,2534.0,-0.6,9.78,5.59,0.05,0.0,-0.17,a
3552.0,3664.0,3071.0,4095.0,2787.0,2559.0,2757.0,2534.0,-0.4,9.84,5.37,0.03,-0.01,-0.13,a
3549.0,3673.0,3071.0,4095.0,2793.0,2591.0,2767.0,2534.0,-0.48,9.81,5.48,0.01,0.03,-0.14,a
3563.0,3664.0,3071.0,4095.0,2800.0,2591.0,2768.0,2542.0,-0.49,9.84,5.51,-0.05,0.01,-0.07,a
4095.0,3658.0,3041.0,4095.0,2976.0,2559.0,2753.0,2627.0,-0.76,9.71,5.32,0.04,-0.02,-0.16,a
4095.0,3658.0,3041.0,4095.0,2976.0,2559.0,2753.0,2627.0,-0.76,9.71,5.32,0.04,-0.02,-0.16,a
4095.0,3655.0,3035.0,4095.0,2974.0,2559.0,2755.0,2628.0,-0.92,9.84,5.3,-0.01,0.01,-0.14,a
4095.0,3651.0,3025.0,4095.0,2985.0,2582.0,2756.0,2626.0,-0.99,9.72,5.38,-0.0,0.01,-0.15,a
4095.0,3662.0,3035.0,4095.0,2985.0,2583.0,2757.0,2631.0,-0.96,9.79,5.32,-0.04,0.0,-0.13,a
4095.0,3657.0,3035.0,4095.0,2985.0,2559.0,2763.0,2635.0,-0.83,9.68,5.45,0.01,-0.01,-0.16,a
4095.0,3650.0,3023.0,4095.0,2981.0,2592.0,2756.0,2630.0,-0.93,9.79,5.45,-0.01,-0.01,-0.14,a
4095.0,3653.0,3025.0,4095.0,2991.0,2586.0,2759.0,2638.0,-0.89,9.8,5.29,0.02,0.0,-0.16,a
4095.0,3653.0,3027.0,4095.0,2992.0,2589.0,2759.0,2637.0,-0.94,9.73,5.48,0.03,0.0,-0.17,a
4095.0,3644.0,3031.0,4095.0,2979.0,2559.0,2755.0,2629.0,-0.68,10.1,5.19,-0.02,-0.06,-0.15,a
4095.0,3653.0,3024.0,4095.0,2986.0,2585.0,2755.0,2625.0,-0.93,9.71,6.02,-0.06,0.08,-0.21,a
4095.0,3648.0,3036.0,4095.0,2989.0,2590.0,2762.0,2635.0,-0.9,9.71,5.34,0.05,-0.14,-0.19,a
4095.0,3654.0,3024.0,4095.0,2992.0,2589.0,2765.0,2638.0,-0.53,9.64,4.8,-0.03,-0.04,-0.26,a
4095.0,3664.0,3033.0,4095.0,2992.0,2589.0,2768.0,2640.0,-1.38,9.74,5.38,-0.11,-0.07,-0.23,a
4095.0,3654.0,3025.0,4095.0,2986.0,2585.0,2768.0,2635.0,-0.92,9.73,5.73,-0.08,-0.09,-0.16,a
4095.0,3649.0,3023.0,4095.0,2992.0,2590.0,2767.0,2640.0,-0.96,9.73,5.52,-0.08,-0.12,-0.2,a
4095.0,3653.0,3030.0,4095.0,2991.0,2592.0,2768.0,2640.0,-1.41,9.78,5.77,-0.14,-0.03,-0.21,a
4095.0,3647.0,3031.0,4095.0,2994.0,2589.0,2768.0,2641.0,-1.46,9.88,5.9,-0.09,-0.06,-0.2,a
4095.0,3648.0,3034.0,4095.0,2993.0,2594.0,2767.0,2643.0,-1.07,9.58,5.92,-0.07,-0.01,-0.14,a
4095.0,3655.0,3024.0,4095.0,3006.0,2594.0,2771.0,2651.0,-1.07,9.6,5.83,-0.05,-0.09,-0.15,a
3452.0,3863.0,2981.0,4095.0,2559.0,2389.0,2528.0,2437.0,-0.23,9.15,6.62,0.91,0.32,-0.48,a
3581.0,4091.0,3004.0,4095.0,2485.0,2337.0,2513.0,2329.0,-0.5,9.16,5.85,0.68,-0.17,-0.4,a
3626.0,4095.0,3013.0,4095.0,2498.0,2326.0,2513.0,2305.0,-0.83,9.0,6.09,0.08,0.11,-0.18,a
3619.0,4095.0,3024.0,4062.0,2509.0,2333.0,2519.0,2320.0,-1.62,9.75,6.0,-0.03,0.08,-0.09,a
3616.0,4095.0,3025.0,4095.0,2529.0,2330.0,2528.0,2354.0,-0.62,9.2,6.71,0.14,-0.0,-0.11,a
3624.0,4095.0,3026.0,4095.0,2533.0,2342.0,2541.0,2364.0,-0.65,9.86,5.93,0.09,-0.0,-0.19,a
3613.0,4095.0,3013.0,4095.0,2547.0,2344.0,2541.0,2371.0,-0.87,9.65,6.04,0.1,0.06,-0.18,a
3606.0,4095.0,3019.0,4095.0,2551.0,2352.0,2549.0,2379.0,-0.78,9.71,6.11,-0.01,-0.05,-0.08,a
3631.0,4095.0,3017.0,4095.0,2559.0,2358.0,2550.0,2390.0,-0.79,9.76,6.02,0.02,0.09,-0.08,a
3600.0,4086.0,3024.0,4095.0,2559.0,2352.0,2558.0,2402.0,-0.41,9.7,6.19,-0.04,0.07,-0.03,a
3615.0,4095.0,3019.0,4095.0,2559.0,2359.0,2559.0,2416.0,-0.56,9.78,6.11,0.03,0.14,-0.12,a
3619.0,4095.0,3015.0,4095.0,2578.0,2357.0,2559.0,2423.0,-0.43,9.89,6.29,0.02,0.09,-0.07,a
3629.0,4095.0,3029.0,4095.0,2587.0,2364.0,2559.0,2423.0,-0.49,9.74,6.13,0.08,0.12,-0.17,a
3612.0,4095.0,3011.0,4095.0,2591.0,2363.0,2559.0,2426.0,-0.62,9.65,5.8,0.05,0.02,-0.15,a
3617.0,4095.0,3019.0,4095.0,2589.0,2381.0,2559.0,2434.0,-0.75,9.69,5.72,-0.04,0.05,-0.18,a
3632.0,4095.0,3025.0,4095.0,2590.0,2369.0,2579.0,2436.0,-0.71,9.52,6.28,0.02,0.05,-0.2,a
3600.0,4095.0,3020.0,4095.0,2591.0,2366.0,2579.0,2439.0,-0.71,9.82,5.81,-0.03,-0.01,-0.13,a
3631.0,4095.0,3027.0,4095.0,2594.0,2367.0,2559.0,2435.0,-0.3,9.74,5.76,-0.01,-0.05,-0.18,a
3626.0,4095.0,3015.0,4095.0,2599.0,2375.0,2559.0,2442.0,-0.58,9.81,5.87,-0.13,0.01,-0.15,a
3616.0,4095.0,3018.0,4095.0,2608.0,2381.0,2602.0,2447.0,-0.63,9.45,6.22,-0.01,-0.09,-0.18,a
3312.0,3419.0,2559.0,3995.0,2557.0,2323.0,2371.0,2123.0,-2.11,10.26,4.14,1.38,-0.26,-0.28,a
3407.0,3410.0,2559.0,3780.0,2583.0,2368.0,2433.0,2198.0,-0.51,9.69,4.68,0.07,0.12,0.42,a
3423.0,3406.0,2549.0,3690.0,2611.0,2393.0,2461.0,2199.0,-0.1,9.84,4.69,-0.07,-0.2,0.08,a
3421.0,3409.0,2529.0,3759.0,2627.0,2427.0,2481.0,2255.0,-0.44,9.88,5.08,-0.12,-0.43,-0.17,a
3408.0,3422.0,2498.0,3777.0,2631.0,2433.0,2499.0,2272.0,0.22,9.55,5.16,-0.02,-0.06,0.07,a
3413.0,3398.0,2483.0,3783.0,2637.0,2430.0,2510.0,2278.0,0.19,9.7,5.51,0.03,-0.02,-0.07,a
3424.0,3408.0,2497.0,3790.0,2642.0,2433.0,2513.0,2287.0,0.02,9.72,5.5,0.04,-0.11,-0.1,a
3411.0,3409.0,2491.0,3795.0,2645.0,2437.0,2512.0,2284.0,0.11,9.83,5.36,-0.01,0.03,-0.11,a
3417.0,3406.0,2491.0,3795.0,2650.0,2436.0,2512.0,2288.0,-0.21,9.77,5.6,-0.01,0.09,-0.14,a
3418.0,3409.0,2490.0,3817.0,2654.0,2439.0,2516.0,2290.0,0.12,9.92,5.51,0.0,-0.02,-0.12,a
3413.0,3408.0,2493.0,3816.0,2652.0,2438.0,2522.0,2297.0,0.08,9.92,5.38,-0.0,0.05,-0.12,a
3409.0,3407.0,2491.0,3826.0,2658.0,2439.0,2516.0,2302.0,0.22,9.78,5.25,0.02,-0.06,-0.15,a
3403.0,3408.0,2483.0,3818.0,2656.0,2443.0,2512.0,2297.0,-0.18,9.83,5.38,0.05,0.05,-0.19,a
3423.0,3412.0,2499.0,3843.0,2667.0,2441.0,2523.0,2304.0,-0.27,9.84,5.47,0.06,-0.03,-0.12,a
3414.0,3411.0,2483.0,3819.0,2662.0,2444.0,2518.0,2307.0,0.18,9.93,5.14,0.09,-0.03,-0.17,a
3410.0,3407.0,2479.0,3826.0,2658.0,2441.0,2529.0,2301.0,0.01,9.76,5.16,-0.0,0.02,-0.15,a
3398.0,3402.0,2488.0,3846.0,2661.0,2442.0,2521.0,2301.0,-0.18,9.91,5.24,0.03,-0.02,-0.18,a
3423.0,3408.0,2487.0,3865.0,2665.0,2446.0,2524.0,2310.0,0.12,9.79,5.32,-0.01,0.09,-0.14,a
3420.0,3419.0,2483.0,3886.0,2663.0,2435.0,2526.0,2311.0,-0.13,9.99,5.25,-0.01,0.08,-0.13,a
3426.0,3408.0,2480.0,3897.0,2670.0,2430.0,2524.0,2314.0,-0.05,9.87,5.39,-0.02,0.08,-0.1,a
3424.0,4031.0,3037.0,3663.0,2710.0,2480.0,2559.0,2379.0,-0.03,9.76,5.43,0.05,-0.3,0.0,a
3423.0,4030.0,3033.0,3671.0,2718.0,2478.0,2559.0,2386.0,0.31,9.82,5.71,0.14,-0.79,0.03,a
3420.0,4023.0,3034.0,3678.0,2711.0,2475.0,2559.0,2384.0,1.56,9.86,5.41,0.16,-0.73,-0.02,a
3422.0,4033.0,3043.0,3694.0,2715.0,2475.0,2559.0,2383.0,1.36,9.82,5.17,0.14,-0.03,-0.2,a
3426.0,4038.0,3044.0,3708.0,2719.0,2487.0,2559.0,2384.0,0.42,9.97,4.91,0.1,-0.06,-0.19,a
3417.0,4016.0,3024.0,3697.0,2711.0,2475.0,2559.0,2384.0,0.58,9.81,4.92,0.16,-0.38,-0.19,a
3405.0,4026.0,3037.0,3715.0,2727.0,2480.0,2559.0,2389.0,0.65,9.98,4.64,0.1,-0.35,-0.18,a
3412.0,4033.0,3037.0,3708.0,2719.0,2480.0,2559.0,2390.0,0.67,9.9,4.7,0.09,-0.13,-0.2,a
3410.0,4029.0,3031.0,3723.0,2727.0,2480.0,2559.0,2394.0,0.35,9.96,4.53,0.01,-0.09,-0.16,a
3421.0,4037.0,3040.0,3719.0,2731.0,2482.0,2580.0,2393.0,0.6,9.8,4.75,0.0,-0.03,-0.18,a
3401.0,4023.0,3042.0,3717.0,2727.0,2485.0,2559.0,2394.0,0.66,9.81,4.85,-0.03,0.02,-0.16,a
3411.0,4039.0,3025.0,3725.0,2722.0,2480.0,2579.0,2399.0,0.6,9.97,4.91,-0.01,0.02,-0.17,a
3406.0,4048.0,3037.0,3728.0,2723.0,2480.0,2583.0,2398.0,0.5,9.93,4.87,-0.02,0.02,-0.17,a
3403.0,4018.0,3033.0,3722.0,2724.0,2480.0,2559.0,2397.0,0.23,9.88,4.73,0.05,0.0,-0.19,a
3406.0,4041.0,3041.0,3739.0,2724.0,2482.0,2579.0,2397.0,0.36,9.8,4.79,-0.04,0.01,-0.13,a
3419.0,4015.0,3038.0,3748.0,2727.0,2481.0,2583.0,2395.0,0.39,9.87,4.87,0.04,-0.01,-0.15,a
3410.0,4033.0,3041.0,3744.0,2727.0,2485.0,2586.0,2403.0,0.57,9.85,4.75,-0.01,-0.05,-0.1,a
3414.0,4042.0,3029.0,3755.0,2726.0,2483.0,2587.0,2399.0,0.25,10.06,4.94,-0.05,0.03,-0.08,a
3426.0,4042.0,3042.0,3775.0,2736.0,2493.0,2591.0,2399.0,0.68,9.87,4.99,-0.09,0.05,-0.13,a
3415.0,4048.0,3028.0,3775.0,2736.0,2491.0,2593.0,2401.0,0.58,9.95,5.12,-0.04,0.01,-0.15,a
3710.0,3605.0,2769.0,4095.0,2879.0,2667.0,2816.0,2660.0,0.17,9.91,5.0,0.0,0.03,-0.16,a
3710.0,3605.0,2769.0,4095.0,2879.0,2667.0,2816.0,2660.0,0.17,9.91,5.0,0.0,0.03,-0.16,a
3712.0,3614.0,2768.0,4095.0,2883.0,2667.0,2818.0,2665.0,0.19,9.85,5.04,0.04,0.0,-0.18,a
3693.0,3583.0,2756.0,4095.0,2887.0,2661.0,2806.0,2657.0,0.26,9.88,4.96,0.01,0.0,-0.17,a
3683.0,3583.0,2758.0,4095.0,2891.0,2682.0,2817.0,2660.0,0.18,9.89,4.92,0.03,-0.02,-0.17,a
3699.0,3583.0,2770.0,4095.0,2882.0,2666.0,2814.0,2661.0,0.24,9.86,4.99,-0.0,-0.03,-0.14,a
3696.0,3606.0,2768.0,4095.0,2886.0,2669.0,2809.0,2667.0,0.22,9.91,4.98,0.02,-0.01,-0.16,a
3698.0,3617.0,2775.0,4095.0,2887.0,2667.0,2818.0,2667.0,0.22,9.91,5.01,0.0,0.01,-0.17,a
3699.0,3595.0,2765.0,4095.0,2887.0,2655.0,2815.0,2667.0,0.17,9.89,5.02,0.03,0.0,-0.18,a
3697.0,3595.0,2763.0,4095.0,2886.0,2667.0,2817.0,2662.0,0.25,9.91,5.04,0.03,-0.01,-0.18,a
3718.0,3610.0,2768.0,4095.0,2887.0,2669.0,2819.0,2663.0,0.17,9.89,4.98,0.05,0.01,-0.19,a
3695.0,3583.0,2768.0,4095.0,2887.0,2663.0,2816.0,2661.0,0.25,9.88,4.88,0.03,-0.02,-0.19,a
3685.0,3583.0,2767.0,4095.0,2890.0,2669.0,2819.0,2663.0,0.11,9.87,4.85,0.03,-0.04,-0.19,a
3692.0,3597.0,2774.0,4095.0,2891.0,2672.0,2819.0,2668.0,0.12,9.85,4.89,0.01,0.0,-0.18,a
3693.0,3599.0,2769.0,4095.0,2893.0,2669.0,2827.0,2668.0,0.07,9.88,5.05,0.01,-0.04,-0.17,a
3699.0,3600.0,2767.0,4095.0,2891.0,2671.0,2821.0,2669.0,0.06,9.92,5.06,0.0,0.03,-0.16,a
3701.0,3600.0,2770.0,4095.0,2893.0,2671.0,2820.0,2669.0,0.18,9.83,4.96,0.02,-0.01,-0.17,a
3708.0,3581.0,2764.0,4095.0,2895.0,2671.0,2823.0,2672.0,0.19,9.9,4.93,-0.0,0.03,-0.17,a
3701.0,3611.0,2772.0,4095.0,2897.0,2675.0,2830.0,2672.0,0.14,9.79,5.01,-0.0,0.01,-0.16,a
3703.0,3606.0,2766.0,4095.0,2896.0,2672.0,2822.0,2666.0,0.01,9.9,4.9,0.02,0.01,-0.15,a
3371.0,3557.0,2459.0,4095.0,2823.0,2559.0,2683.0,2498.0,0.36,9.92,4.78,-0.0,-0.03,-0.15,a
3361.0,3573.0,2448.0,4095.0,2823.0,2559.0,2687.0,2496.0,0.39,9.92,4.76,0.02,0.01,-0.16,a
3353.0,3565.0,2449.0,4095.0,2829.0,2559.0,2687.0,2495.0,0.34,9.91,4.76,-0.01,-0.02,-0.14,a
3369.0,3565.0,2454.0,4095.0,2824.0,2559.0,2685.0,2498.0,0.4,9.88,4.84,0.01,-0.01,-0.16,a
3365.0,3574.0,2465.0,4095.0,2831.0,2559.0,2689.0,2497.0,0.38,9.91,4.79,-0.0,-0.02,-0.15,a
3360.0,3581.0,2461.0,4095.0,2831.0,2559.0,2691.0,2495.0,0.5,9.83,4.88,0.04,0.01,-0.17,a
3371.0,3571.0,2458.0,4095.0,2831.0,2559.0,2691.0,2499.0,0.41,9.95,4.81,0.01,-0.01,-0.17,a
3357.0,3578.0,2463.0,4095.0,2829.0,2559.0,2690.0,2500.0,0.37,9.84,4.83,0.04,-0.02,-0.17,a
3369.0,3575.0,2459.0,4095.0,2835.0,2559.0,2691.0,2503.0,0.28,9.89,4.73,0.01,0.0,-0.15,a
3361.0,3568.0,2469.0,4095.0,2829.0,2559.0,2691.0,2506.0,0.34,9.89,4.81,0.04,-0.04,-0.17,a
3353.0,3573.0,2462.0,4095.0,2823.0,2559.0,2690.0,2497.0,0.27,9.94,4.69,-0.01,0.03,-0.15,a
3367.0,3569.0,2457.0,4095.0,2832.0,2559.0,2691.0,2506.0,0.35,9.86,4.87,0.02,-0.0,-0.17,a
3347.0,3563.0,2448.0,4095.0,2829.0,2559.0,2691.0,2497.0,0.34,9.95,4.72,-0.01,-0.02,-0.15,a
3376.0,3583.0,2457.0,4095.0,2832.0,2559.0,2693.0,2509.0,0.33,9.93,4.78,0.04,-0.01,-0.18,a
3361.0,3573.0,2448.0,4095.0,2828.0,2559.0,2688.0,2498.0,0.26,9.95,4.75,0.03,0.03,-0.17,a
3365.0,3583.0,2459.0,4095.0,2832.0,2583.0,2694.0,2501.0,0.22,9.89,4.64,0.03,-0.02,-0.16,a
3366.0,3580.0,2457.0,4095.0,2831.0,2559.0,2695.0,2501.0,0.32,9.85,4.78,0.01,-0.0,-0.16,a
3358.0,3573.0,2467.0,4095.0,2832.0,2583.0,2699.0,2496.0,0.23,9.97,4.7,0.0,-0.02,-0.15,a
3359.0,3581.0,2460.0,4095.0,2832.0,2559.0,2694.0,2502.0,0.34,9.89,4.8,0.02,0.01,-0.17,a
3351.0,3557.0,2445.0,4095.0,2832.0,2559.0,2698.0,2497.0,0.19,9.9,4.76,0.01,-0.01,-0.15,a
3271.0,3440.0,2688.0,4095.0,2605.0,2416.0,2544.0,2315.0,0.34,9.87,4.42,0.01,0.02,-0.14,a
3279.0,3452.0,2685.0,4095.0,2614.0,2417.0,2544.0,2319.0,0.3,10.04,4.24,0.02,-0.03,-0.16,a
3276.0,3441.0,2686.0,4095.0,2600.0,2417.0,2541.0,2321.0,0.12,9.9,4.31,0.01,-0.05,-0.15,a
3280.0,3446.0,2677.0,4095.0,2605.0,2417.0,2543.0,2321.0,0.06,9.95,4.25,-0.01,0.0,-0.13,a
3275.0,3446.0,2678.0,4095.0,2608.0,2425.0,2547.0,2325.0,0.28,9.81,4.37,-0.01,-0.02,-0.14,a
3264.0,3441.0,2678.0,4095.0,2608.0,2419.0,2545.0,2330.0,0.17,10.0,4.3,-0.01,0.0,-0.14,a
3283.0,3449.0,2683.0,4095.0,2609.0,2431.0,2550.0,2340.0,0.27,9.87,4.4,-0.02,-0.01,-0.14,a
3274.0,3445.0,2679.0,4095.0,2610.0,2421.0,2553.0,2341.0,0.11,9.92,4.38,0.03,-0.02,-0.15,a
3273.0,3443.0,2688.0,4095.0,2613.0,2423.0,2550.0,2341.0,0.33,9.82,4.36,-0.02,0.04,-0.1,a
3271.0,3454.0,2681.0,4095.0,2613.0,2429.0,2556.0,2345.0,0.28,10.07,4.3,0.03,-0.0,-0.15,a
3265.0,3446.0,2675.0,4095.0,2619.0,2421.0,2553.0,2350.0,0.31,10.0,4.33,-0.06,0.0,-0.12,a
3275.0,3443.0,2675.0,4095.0,2608.0,2429.0,2551.0,2352.0,0.24,9.85,4.37,-0.02,0.01,-0.16,a
3279.0,3455.0,2688.0,4095.0,2617.0,2432.0,2559.0,2358.0,0.21,9.88,4.43,-0.02,0.0,-0.15,a
3285.0,3440.0,2674.0,4095.0,2624.0,2430.0,2559.0,2362.0,0.27,9.92,4.5,0.05,0.01,-0.15,a
3279.0,3459.0,2690.0,4095.0,2624.0,2432.0,2559.0,2364.0,0.32,9.87,4.47,0.02,-0.0,-0.12,a
3276.0,3441.0,2685.0,4095.0,2618.0,2432.0,2559.0,2362.0,0.35,9.92,4.36,0.03,0.01,-0.13,a
3279.0,3452.0,2683.0,4095.0,2623.0,2431.0,2559.0,2367.0,0.34,9.87,4.41,0.0,-0.01,-0.14,a
3266.0,3455.0,2673.0,4095.0,2621.0,2432.0,2558.0,2358.0,0.19,9.97,4.36,0.03,0.02,-0.15,a
3264.0,3442.0,2675.0,4095.0,2622.0,2432.0,2559.0,2362.0,0.38,9.83,4.46,0.03,-0.02,-0.15,a
3280.0,3446.0,2671.0,4095.0,2621.0,2430.0,2559.0,2359.0,0.3,9.87,4.43,0.16,0.0,-0.17,a
3359.0,3417.0,3152.0,4095.0,2588.0,2338.0,2512.0,2297.0,0.34,9.81,4.49,0.03,-0.01,-0.18,a
3357.0,3425.0,3178.0,4095.0,2591.0,2352.0,2512.0,2299.0,0.3,9.91,4.34,-0.0,-0.04,-0.16,a
3355.0,3433.0,3163.0,4095.0,2590.0,2347.0,2515.0,2300.0,0.3,9.78,4.46,0.05,0.01,-0.15,a
3365.0,3429.0,3173.0,4095.0,2599.0,2354.0,2525.0,2303.0,0.24,9.87,4.4,-0.03,-0.04,-0.12,a
3355.0,3431.0,3166.0,4095.0,2593.0,2350.0,2521.0,2306.0,0.42,9.95,4.37,0.05,0.03,-0.15,a
3353.0,3435.0,3154.0,4095.0,2598.0,2351.0,2527.0,2307.0,0.46,9.76,4.48,-0.04,-0.06,-0.14,a
3351.0,3429.0,3163.0,4095.0,2606.0,2357.0,2528.0,2315.0,0.3,10.02,4.37,0.08,0.01,-0.16,a
3351.0,3421.0,3157.0,4095.0,2595.0,2353.0,2523.0,2315.0,0.27,9.75,4.49,0.03,-0.06,-0.14,a
3351.0,3415.0,3152.0,4095.0,2603.0,2354.0,2525.0,2317.0,0.38,10.05,4.26,0.04,-0.05,-0.14,a
3360.0,3419.0,3158.0,4095.0,2597.0,2355.0,2527.0,2320.0,0.45,9.77,4.44,0.04,0.07,-0.16,a
3355.0,3427.0,3159.0,4095.0,2602.0,2347.0,2528.0,2318.0,0.33,9.98,4.31,0.04,0.02,-0.15,a
3357.0,3436.0,3171.0,4095.0,2608.0,2357.0,2530.0,2318.0,0.3,9.82,4.37,0.02,0.13,-0.15,a
3371.0,3415.0,3153.0,4095.0,2608.0,2363.0,2538.0,2318.0,0.45,9.98,4.39,-0.0,-0.03,-0.13,a
3353.0,3429.0,3161.0,4095.0,2608.0,2366.0,2544.0,2322.0,0.66,9.84,4.38,0.07,0.01,-0.18,a
3363.0,3439.0,3162.0,4095.0,2610.0,2365.0,2541.0,2325.0,0.33,9.96,4.18,-0.01,-0.04,-0.16,a
3359.0,3424.0,3147.0,4095.0,2608.0,2363.0,2542.0,2323.0,0.39,9.87,4.19,0.05,-0.01,-0.18,a
3361.0,3421.0,3151.0,4095.0,2608.0,2368.0,2540.0,2320.0,0.2,9.94,4.18,-0.05,-0.02,-0.14,a
3364.0,3441.0,3152.0,4095.0,2609.0,2367.0,2544.0,2331.0,0.31,9.89,4.39,0.02,-0.02,-0.17,a
3363.0,3434.0,3157.0,4095.0,2615.0,2367.0,2547.0,2335.0,0.28,9.9,4.39,-0.04,-0.04,-0.13,a
3362.0,3423.0,3152.0,4095.0,2612.0,2366.0,2545.0,2331.0,0.33,9.87,4.41,0.01,-0.03,-0.16,a
4095.0,4095.0,3125.0,4095.0,2859.0,2592.0,2780.0,2558.0,0.53,9.75,3.84,-0.0,-0.0,-0.19,a
4095.0,4095.0,3120.0,4095.0,2865.0,2597.0,2784.0,2559.0,0.5,10.02,3.56,-0.03,-0.0,-0.11,a
4095.0,4095.0,3118.0,4095.0,2862.0,2595.0,2786.0,2559.0,0.58,9.85,3.69,-0.0,0.03,-0.18,a
4095.0,4095.0,3118.0,4095.0,2862.0,2598.0,2779.0,2559.0,0.49,9.91,3.67,-0.02,-0.06,-0.17,a
4095.0,4095.0,3118.0,4095.0,2873.0,2605.0,2789.0,2559.0,0.48,9.98,3.57,0.05,-0.01,-0.16,a
4095.0,4095.0,3122.0,4095.0,2865.0,2605.0,2787.0,2559.0,0.37,9.91,3.59,-0.06,-0.03,-0.14,a
4095.0,4095.0,3125.0,4095.0,2864.0,2606.0,2786.0,2559.0,0.43,9.93,3.81,0.04,-0.02,-0.18,a
4095.0,4095.0,3111.0,4095.0,2865.0,2605.0,2790.0,2559.0,0.39,9.9,3.73,-0.04,0.01,-0.14,a
4095.0,4095.0,3121.0,4095.0,2866.0,2597.0,2787.0,2559.0,0.46,9.9,3.82,-0.0,-0.01,-0.14,a
4095.0,4095.0,3120.0,4095.0,2870.0,2602.0,2790.0,2559.0,0.52,9.8,3.82,0.01,0.04,-0.13,a
4095.0,4095.0,3120.0,4095.0,2867.0,2603.0,2795.0,2559.0,0.58,9.95,3.62,-0.0,0.03,-0.14,a
4095.0,4095.0,3113.0,4095.0,2866.0,2615.0,2789.0,2559.0,0.58,9.92,3.76,0.02,0.01,-0.16,a
4095.0,4095.0,3121.0,4095.0,2866.0,2599.0,2793.0,2559.0,0.59,9.96,3.66,-0.02,0.01,-0.16,a
4095.0,4095.0,3127.0,4095.0,2875.0,2605.0,2789.0,2559.0,0.54,9.82,3.8,0.03,-0.01,-0.19,a
4095.0,4095.0,3125.0,4095.0,2876.0,2607.0,2797.0,2559.0,0.54,9.89,3.75,0.02,0.03,-0.17,a
4095.0,4095.0,3114.0,4095.0,2880.0,2608.0,2797.0,2559.0,0.42,9.84,3.76,0.05,0.01,-0.17,a
4095.0,4095.0,3119.0,4095.0,2879.0,2613.0,2800.0,2559.0,0.29,9.95,3.53,-0.04,-0.02,-0.1,a
4095.0,4095.0,3107.0,4095.0,2879.0,2615.0,2800.0,2559.0,0.63,9.83,3.77,-0.01,0.02,-0.14,a
4095.0,4095.0,3120.0,4095.0,2884.0,2617.0,2803.0,2559.0,0.62,9.93,3.72,-0.08,0.02,-0.13,a
4095.0,4095.0,3098.0,4095.0,2883.0,2618.0,2800.0,2559.0,0.7,9.86,3.97,0.04,-0.01,-0.18,a
3407.0,4095.0,3008.0,4095.0,2772.0,2534.0,2637.0,2460.0,0.55,10.14,3.83,0.06,-0.0,-0.15,a
3401.0,4095.0,3000.0,4095.0,2774.0,2534.0,2629.0,2462.0,0.67,9.83,3.82,0.0,0.03,-0.14,a
3394.0,4095.0,3007.0,4095.0,2774.0,2541.0,2638.0,2469.0,0.21,10.06,3.61,-0.0,0.06,-0.15,a
3395.0,4095.0,3004.0,4095.0,2778.0,2539.0,2633.0,2459.0,0.52,9.81,3.71,0.04,-0.03,-0.14,a
3406.0,4095.0,3009.0,4095.0,2782.0,2542.0,2635.0,2460.0,0.38,9.96,3.54,-0.06,0.05,-0.13,a
3408.0,4095.0,3012.0,4095.0,2781.0,2546.0,2639.0,2462.0,0.63,9.85,3.84,0.01,0.02,-0.14,a
3392.0,4095.0,3005.0,4095.0,2782.0,2547.0,2642.0,2467.0,0.62,9.88,3.81,-0.01,-0.03,-0.14,a
3393.0,4095.0,2998.0,4095.0,2779.0,2547.0,2640.0,2463.0,0.53,9.93,3.79,0.04,0.05,-0.16,a
3407.0,4095.0,3002.0,4095.0,2779.0,2547.0,2640.0,2470.0,0.39,9.86,3.8,0.0,-0.01,-0.14,a
3392.0,4095.0,3011.0,4095.0,2786.0,2546.0,2642.0,2471.0,0.26,10.0,3.55,0.01,0.05,-0.11,a
3405.0,4095.0,3011.0,4095.0,2784.0,2554.0,2651.0,2477.0,0.49,9.91,3.75,-0.05,0.03,-0.06,a
3408.0,4095.0,2996.0,4095.0,2785.0,2556.0,2645.0,2479.0,1.18,9.9,4.02,-0.06,0.05,-0.09,a
3398.0,4095.0,3013.0,4095.0,2789.0,2553.0,2650.0,2477.0,0.89,9.9,4.07,0.03,0.01,-0.16,a
3405.0,4095.0,3005.0,4095.0,2785.0,2554.0,2654.0,2478.0,0.68,9.97,3.82,-0.01,-0.04,-0.13,a
3398.0,4095.0,3007.0,4095.0,2785.0,2559.0,2653.0,2482.0,0.69,9.95,3.74,0.06,-0.0,-0.17,a
3390.0,4095.0,3010.0,4095.0,2791.0,2559.0,2660.0,2482.0,0.8,9.78,3.88,-0.01,-0.02,-0.16,a
3395.0,4095.0,3014.0,4095.0,2794.0,2559.0,2654.0,2483.0,0.66,9.92,3.85,0.04,-0.02,-0.17,a
3402.0,4095.0,2998.0,4095.0,2785.0,2559.0,2654.0,2482.0,0.65,9.84,3.91,-0.0,-0.0,-0.14,a
3401.0,4095.0,3002.0,4095.0,2795.0,2559.0,2660.0,2491.0,0.64,9.9,3.94,0.06,-0.0,-0.16,a
3395.0,4095.0,3015.0,4095.0,2785.0,2559.0,2656.0,2486.0,0.71,9.91,3.78,0.01,0.01,-0.11,a
3475.0,4095.0,2996.0,4095.0,2875.0,2640.0,2788.0,2531.0,0.54,9.96,3.73,-0.0,-0.05,-0.12,a
3475.0,4095.0,2996.0,4095.0,2875.0,2640.0,2788.0,2531.0,0.54,9.96,3.73,-0.0,-0.05,-0.12,a
3469.0,4095.0,2995.0,4095.0,2876.0,2640.0,2789.0,2533.0,0.63,9.83,3.88,0.03,0.02,-0.15,a
3478.0,4095.0,2998.0,4095.0,2886.0,2643.0,2798.0,2538.0,0.58,10.0,3.83,-0.01,-0.05,-0.13,a
3473.0,4095.0,3009.0,4095.0,2883.0,2643.0,2794.0,2538.0,0.84,9.87,3.89,0.05,0.01,-0.17,a
3477.0,4095.0,3009.0,4095.0,2887.0,2647.0,2791.0,2544.0,0.68,9.87,3.87,0.01,0.0,-0.14,a
3469.0,4095.0,2995.0,4095.0,2877.0,2647.0,2805.0,2544.0,0.65,10.01,3.84,0.06,-0.0,-0.15,a
3475.0,4095.0,3003.0,4095.0,2886.0,2658.0,2805.0,2547.0,0.7,9.84,3.81,0.01,-0.01,-0.14,a
3459.0,4095.0,2992.0,4095.0,2879.0,2655.0,2810.0,2549.0,0.69,9.92,3.8,0.02,-0.01,-0.14,a
3467.0,4095.0,3006.0,4095.0,2881.0,2658.0,2810.0,2557.0,0.75,9.81,3.84,-0.01,-0.04,-0.12,a
3462.0,4095.0,3006.0,4095.0,2885.0,2667.0,2813.0,2558.0,0.6,9.94,3.8,-0.0,0.0,-0.13,a
3474.0,4095.0,2999.0,4095.0,2885.0,2665.0,2809.0,2558.0,0.78,9.84,3.9,-0.01,0.01,-0.14,a
3476.0,4095.0,3001.0,4095.0,2887.0,2665.0,2807.0,2556.0,0.65,10.03,3.76,0.05,0.02,-0.16,a
3468.0,4095.0,2995.0,4095.0,2884.0,2672.0,2816.0,2559.0,0.71,9.82,3.86,0.03,-0.02,-0.15,a
3479.0,4095.0,2989.0,4095.0,2885.0,2658.0,2810.0,2559.0,0.62,9.93,3.76,0.02,-0.04,-0.14,a
3472.0,4095.0,3002.0,4095.0,2885.0,2669.0,2815.0,2559.0,0.78,9.88,3.79,0.0,0.02,-0.14,a
3466.0,4095.0,2992.0,4095.0,2883.0,2662.0,2811.0,2558.0,0.68,9.9,3.88,0.01,-0.01,-0.15,a
3472.0,4095.0,3001.0,4095.0,2889.0,2667.0,2818.0,2559.0,0.78,9.86,3.82,0.05,0.01,-0.16,a
3477.0,4095.0,2998.0,4095.0,2880.0,2662.0,2815.0,2559.0,0.7,9.85,3.8,0.07,-0.0,-0.15,a
3469.0,4095.0,3001.0,4095.0,2885.0,2673.0,2830.0,2559.0,0.63,9.9,3.69,0.13,0.01,-0.12,a
3310.0,3491.0,3079.0,4032.0,2550.0,2433.0,2591.0,2459.0,0.99,9.98,4.08,0.05,-0.05,-0.17,a
3312.0,3489.0,3088.0,4054.0,2559.0,2432.0,2596.0,2461.0,0.76,9.92,4.07,0.01,0.0,-0.16,a
3319.0,3487.0,3089.0,4044.0,2559.0,2433.0,2591.0,2462.0,0.74,9.91,4.05,0.04,-0.07,-0.15,a
3317.0,3505.0,3071.0,4059.0,2559.0,2441.0,2602.0,2474.0,1.0,9.82,4.05,0.01,0.0,-0.15,a
3312.0,3485.0,3088.0,4059.0,2559.0,2434.0,2602.0,2472.0,0.77,9.97,4.01,0.05,-0.02,-0.19,a
3328.0,3495.0,3083.0,4054.0,2559.0,2447.0,2606.0,2477.0,0.77,9.81,4.06,0.0,0.01,-0.16,a
3317.0,3489.0,3085.0,4067.0,2559.0,2449.0,2608.0,2480.0,0.67,10.06,3.93,-0.0,-0.01,-0.15,a
3313.0,3489.0,3083.0,4071.0,2582.0,2449.0,2609.0,2480.0,0.85,9.71,4.27,0.03,-0.0,-0.17,a
3312.0,3489.0,3089.0,4079.0,2582.0,2448.0,2611.0,2483.0,0.74,10.04,3.9,0.02,0.01,-0.16,a
3303.0,3487.0,3088.0,4093.0,2559.0,2447.0,2608.0,2481.0,0.81,9.87,3.98,-0.01,-0.03,-0.16,a
3312.0,3487.0,3071.0,4080.0,2585.0,2450.0,2617.0,2485.0,0.68,9.96,4.04,0.01,0.01,-0.17,a
3322.0,3488.0,3079.0,4083.0,2583.0,2448.0,2613.0,2483.0,0.61,9.75,3.96,0.02,0.02,-0.15,a
3319.0,3508.0,3088.0,4087.0,2589.0,2453.0,2613.0,2490.0,0.8,9.89,4.07,0.05,-0.01,-0.18,a
3314.0,3485.0,3079.0,4095.0,2591.0,2459.0,2627.0,2494.0,0.82,9.78,4.08,0.03,-0.02,-0.16,a
3314.0,3490.0,3087.0,4095.0,2598.0,2457.0,2626.0,2490.0,0.66,10.08,3.9,0.04,-0.0,-0.16,a
3317.0,3503.0,3084.0,4095.0,2595.0,2457.0,2622.0,2486.0,0.85,9.85,4.05,0.02,0.0,-0.15,a
3312.0,3491.0,3082.0,4095.0,2592.0,2457.0,2628.0,2496.0,0.69,9.99,3.98,-0.0,0.01,-0.16,a
3307.0,3487.0,3069.0,4095.0,2598.0,2454.0,2634.0,2499.0,0.81,9.81,4.05,0.04,-0.0,-0.17,a
3327.0,3502.0,3082.0,4095.0,2597.0,2459.0,2631.0,2500.0,0.62,9.97,3.92,-0.04,0.02,-0.14,a
3312.0,3484.0,3071.0,4095.0,2593.0,2455.0,2634.0,2502.0,0.81,9.83,4.08,0.0,-0.03,-0.13,a
3415.0,3445.0,2997.0,4095.0,2554.0,2350.0,2491.0,2320.0,0.71,9.8,4.19,-0.02,-0.04,-0.15,a
3419.0,3440.0,2987.0,4095.0,2559.0,2347.0,2496.0,2327.0,0.7,9.87,4.11,-0.07,0.01,-0.13,a
3419.0,3441.0,2993.0,4095.0,2558.0,2347.0,2494.0,2323.0,0.62,9.96,4.2,0.01,0.01,-0.15,a
3413.0,3450.0,2992.0,4095.0,2559.0,2338.0,2496.0,2333.0,0.69,10.11,4.19,-0.02,0.08,-0.05,a
3418.0,3440.0,2994.0,4095.0,2559.0,2353.0,2502.0,2333.0,0.55,10.0,4.11,0.04,0.0,-0.16,a
3414.0,3440.0,2992.0,4095.0,2559.0,2351.0,2503.0,2337.0,0.58,9.84,4.2,-0.03,0.04,-0.13,a
3412.0,3440.0,2992.0,4095.0,2559.0,2352.0,2498.0,2335.0,0.56,10.08,4.2,0.03,-0.0,-0.18,a
3419.0,3453.0,2992.0,4095.0,2559.0,2359.0,2499.0,2335.0,0.73,9.95,4.22,-0.01,0.02,-0.14,a
3418.0,3456.0,2992.0,4095.0,2559.0,2355.0,2500.0,2337.0,0.6,10.05,4.14,0.04,0.01,-0.16,a
3418.0,3446.0,2991.0,4095.0,2559.0,2353.0,2513.0,2342.0,0.69,9.87,4.14,-0.01,-0.03,-0.15,a
3422.0,3445.0,2992.0,4095.0,2559.0,2355.0,2503.0,2343.0,0.67,9.94,4.11,-0.0,0.03,-0.18,a
3406.0,3440.0,2983.0,4095.0,2559.0,2355.0,2506.0,2341.0,0.58,9.84,4.22,-0.0,-0.03,-0.16,a
3424.0,3441.0,3001.0,4095.0,2559.0,2352.0,2511.0,2342.0,0.78,9.82,4.18,-0.03,0.02,-0.13,a
3426.0,3438.0,2992.0,4095.0,2559.0,2357.0,2515.0,2352.0,0.76,9.88,4.28,0.04,-0.01,-0.16,a
3426.0,3450.0,2993.0,4095.0,2559.0,2353.0,2512.0,2341.0,0.71,9.95,4.14,0.02,-0.01,-0.17,a
3422.0,3455.0,2992.0,4095.0,2559.0,2357.0,2512.0,2349.0,0.71,9.9,4.23,0.03,0.02,-0.17,a
3409.0,3439.0,2985.0,4095.0,2559.0,2353.0,2513.0,2349.0,0.6,9.94,4.2,0.06,-0.04,-0.18,a
3419.0,3440.0,2989.0,4095.0,2585.0,2353.0,2517.0,2354.0,0.63,9.86,4.08,0.04,0.04,-0.17,a
3426.0,3439.0,2991.0,4095.0,2583.0,2364.0,2525.0,2350.0,0.57,10.01,4.04,-0.01,-0.05,-0.17,a
3415.0,3456.0,2992.0,4095.0,2589.0,2367.0,2523.0,2361.0,0.65,9.85,4.19,0.01,0.0,-0.18,a
3408.0,3626.0,3251.0,4048.0,2677.0,2496.0,2604.0,2556.0,0.59,9.85,4.23,-0.01,0.03,-0.14,a
3410.0,3610.0,3266.0,4058.0,2674.0,2498.0,2598.0,2546.0,0.57,9.91,4.27,0.02,-0.01,-0.14,a
3410.0,3632.0,3263.0,4074.0,2679.0,2503.0,2606.0,2556.0,0.66,9.85,4.3,0.01,-0.03,-0.17,a
3409.0,3622.0,3255.0,4063.0,2673.0,2500.0,2606.0,2557.0,0.6,9.95,4.25,0.04,-0.0,-0.13,a
3415.0,3614.0,3263.0,4086.0,2679.0,2501.0,2604.0,2559.0,0.65,9.93,4.25,0.01,-0.01,-0.13,a
3415.0,3627.0,3256.0,4095.0,2685.0,2507.0,2608.0,2559.0,0.49,9.96,4.21,0.05,-0.0,-0.15,a
3405.0,3626.0,3250.0,4087.0,2684.0,2507.0,2608.0,2559.0,0.61,9.84,4.22,-0.02,-0.04,-0.13,a
3406.0,3614.0,3250.0,4080.0,2694.0,2507.0,2613.0,2559.0,0.54,9.97,4.11,0.06,0.03,-0.18,a
3408.0,3615.0,3264.0,4095.0,2686.0,2512.0,2611.0,2583.0,0.6,9.88,4.18,-0.03,-0.03,-0.14,a
3415.0,3611.0,3254.0,4087.0,2678.0,2509.0,2617.0,2559.0,0.68,9.96,4.24,0.07,-0.02,-0.18,a
3408.0,3606.0,3249.0,4087.0,2678.0,2501.0,2614.0,2559.0,0.63,9.81,4.25,-0.01,-0.02,-0.17,a
3419.0,3626.0,3247.0,4095.0,2685.0,2512.0,2618.0,2559.0,0.49,9.98,4.22,0.06,0.02,-0.17,a
3409.0,3623.0,3243.0,4095.0,2688.0,2512.0,2618.0,2582.0,0.67,9.75,4.33,0.03,-0.04,-0.16,a
3411.0,3609.0,3248.0,4092.0,2677.0,2504.0,2622.0,2559.0,0.49,10.0,4.2,0.06,0.06,-0.14,a
3408.0,3626.0,3254.0,4095.0,2689.0,2515.0,2631.0,2583.0,0.57,9.93,4.19,0.04,0.01,-0.14,a
3427.0,3614.0,3246.0,4095.0,2686.0,2524.0,2640.0,2595.0,0.57,10.01,4.04,0.05,-0.03,-0.17,a
3414.0,3633.0,3232.0,4095.0,2687.0,2525.0,2637.0,2605.0,0.52,9.83,4.04,-0.02,0.04,-0.13,a
3402.0,3614.0,3239.0,4095.0,2689.0,2530.0,2640.0,2605.0,0.54,10.03,4.12,-0.02,-0.01,-0.16,a
3410.0,3629.0,3239.0,4095.0,2690.0,2522.0,2644.0,2601.0,0.64,9.78,4.28,-0.03,0.01,-0.15,a
3408.0,3605.0,3235.0,4095.0,2695.0,2531.0,2640.0,2601.0,0.54,10.0,4.22,0.02,-0.01,-0.16,a
3500.0,3415.0,3082.0,4095.0,2653.0,2438.0,2615.0,2293.0,0.29,10.1,4.06,-0.03,0.04,-0.09,a
3500.0,3419.0,3079.0,4095.0,2656.0,2439.0,2621.0,2303.0,0.72,9.72,4.37,0.05,-0.02,-0.14,a
3504.0,3413.0,3082.0,4095.0,2651.0,2448.0,2625.0,2315.0,0.38,10.14,4.0,-0.03,0.0,-0.09,a
3490.0,3426.0,3093.0,4095.0,2667.0,2453.0,2639.0,2319.0,0.43,9.76,4.35,0.07,-0.04,-0.2,a
3483.0,3429.0,3087.0,4095.0,2660.0,2448.0,2637.0,2321.0,0.4,9.95,4.15,-0.07,0.0,-0.1,a
3508.0,3412.0,3087.0,4095.0,2669.0,2451.0,2651.0,2323.0,0.21,9.99,4.14,0.1,0.01,-0.2,a
3498.0,3424.0,3086.0,4095.0,2672.0,2452.0,2640.0,2335.0,0.43,9.87,4.17,-0.06,-0.05,-0.11,a
3490.0,3412.0,3090.0,4095.0,2672.0,2461.0,2642.0,2330.0,0.26,10.05,4.1,0.06,0.06,-0.14,a
3497.0,3426.0,3071.0,4095.0,2673.0,2454.0,2643.0,2330.0,0.49,9.87,4.17,-0.0,-0.04,-0.15,a
3482.0,3402.0,3097.0,4095.0,2672.0,2460.0,2642.0,2341.0,0.28,10.13,4.02,0.03,0.04,-0.18,a
3489.0,3423.0,3083.0,4095.0,2679.0,2462.0,2653.0,2342.0,0.46,9.8,4.21,-0.01,0.03,-0.14,a
3491.0,3421.0,3088.0,4095.0,2672.0,2455.0,2642.0,2338.0,0.32,10.01,4.13,0.03,-0.02,-0.14,a
3504.0,3422.0,3083.0,4095.0,2676.0,2462.0,2650.0,2343.0,0.54,9.84,4.28,0.02,0.04,-0.14,a
3504.0,3423.0,3088.0,4095.0,2683.0,2469.0,2654.0,2347.0,0.43,10.05,4.09,0.02,0.01,-0.14,a
3505.0,3405.0,3088.0,4095.0,2677.0,2464.0,2652.0,2347.0,0.47,9.84,4.15,0.05,0.0,-0.15,a
3495.0,3417.0,3088.0,4095.0,2675.0,2474.0,2654.0,2352.0,0.41,9.97,4.06,-0.04,-0.02,-0.15,a
3491.0,3410.0,3088.0,4095.0,2677.0,2467.0,2650.0,2351.0,0.51,9.85,4.27,0.06,0.03,-0.16,a
3498.0,3406.0,3088.0,4095.0,2679.0,2462.0,2645.0,2352.0,0.44,9.88,4.19,0.0,-0.05,-0.14,a
3505.0,3421.0,3088.0,4095.0,2679.0,2465.0,2653.0,2352.0,0.4,9.93,4.13,0.03,0.07,-0.13,a
3490.0,3422.0,3091.0,4095.0,2676.0,2465.0,2653.0,2352.0,0.53,9.96,4.21,0.01,-0.05,-0.16,a
3247.0,3409.0,2790.0,4095.0,2480.0,2282.0,2383.0,2160.0,-0.07,10.61,2.53,0.24,-0.16,-0.04,a
3243.0,3409.0,2786.0,4095.0,2495.0,2309.0,2414.0,2189.0,0.61,9.46,3.76,0.11,0.04,-0.3,a
3239.0,3405.0,2771.0,4095.0,2497.0,2308.0,2426.0,2198.0,0.15,9.82,4.15,-0.04,-0.05,-0.1,a
3255.0,3408.0,2768.0,4095.0,2512.0,2315.0,2446.0,2225.0,0.59,9.88,3.97,0.24,0.06,-0.29,a
3247.0,3403.0,2767.0,4095.0,2519.0,2319.0,2461.0,2242.0,0.36,9.92,3.88,-0.08,-0.01,-0.11,a
3239.0,3394.0,2763.0,4095.0,2519.0,2323.0,2472.0,2254.0,0.38,10.02,3.9,0.05,0.06,-0.14,a
3242.0,3398.0,2762.0,4095.0,2531.0,2324.0,2474.0,2257.0,0.4,9.84,3.86,-0.1,-0.04,-0.13,a
3251.0,3401.0,2763.0,4095.0,2539.0,2336.0,2490.0,2272.0,0.19,10.07,4.05,-0.04,0.07,-0.16,a
3251.0,3398.0,2768.0,4095.0,2545.0,2345.0,2497.0,2277.0,0.4,9.66,4.17,-0.01,-0.05,-0.12,a
3249.0,3399.0,2766.0,4095.0,2549.0,2337.0,2497.0,2271.0,0.29,10.03,4.04,0.0,0.05,-0.16,a
3237.0,3397.0,2757.0,4095.0,2549.0,2350.0,2502.0,2279.0,0.46,9.81,4.19,-0.01,-0.03,-0.12,a
3235.0,3395.0,2762.0,4095.0,2550.0,2348.0,2507.0,2286.0,0.26,9.98,4.01,-0.01,0.01,-0.17,a
3245.0,3396.0,2764.0,4095.0,2554.0,2348.0,2512.0,2288.0,0.37,9.86,4.05,0.01,-0.02,-0.15,a
3241.0,3402.0,2752.0,4095.0,2559.0,2351.0,2508.0,2293.0,0.32,9.94,4.08,0.01,0.0,-0.15,a
3248.0,3386.0,2763.0,4095.0,2559.0,2352.0,2511.0,2299.0,0.41,9.9,4.05,0.02,-0.01,-0.15,a
3245.0,3406.0,2769.0,4095.0,2559.0,2355.0,2519.0,2298.0,0.28,9.96,4.04,0.05,0.03,-0.16,a
3238.0,3399.0,2758.0,4095.0,2559.0,2361.0,2519.0,2302.0,0.47,9.89,4.11,0.03,0.01,-0.13,a
3238.0,3395.0,2751.0,4095.0,2559.0,2356.0,2519.0,2307.0,0.37,9.95,3.99,-0.01,0.04,-0.13,a
3245.0,3389.0,2764.0,4095.0,2559.0,2367.0,2528.0,2303.0,0.31,9.87,4.06,-0.02,0.0,-0.13,a
3239.0,3406.0,2762.0,4095.0,2578.0,2366.0,2523.0,2313.0,0.33,9.82,3.97,-0.02,-0.01,-0.13,a
3347.0,3571.0,3063.0,4095.0,3044.0,2730.0,2929.0,2657.0,0.27,9.84,3.72,0.01,-0.01,-0.14,a
3347.0,3571.0,3063.0,4095.0,3044.0,2730.0,2929.0,2657.0,0.27,9.84,3.72,0.01,-0.01,-0.14,a
3354.0,3568.0,3063.0,4095.0,3038.0,2726.0,2933.0,2663.0,0.26,9.87,3.63,0.0,-0.02,-0.14,a
3339.0,3562.0,3061.0,4095.0,3041.0,2725.0,2931.0,2661.0,0.33,9.85,3.74,0.03,-0.02,-0.14,a
3347.0,3583.0,3053.0,4095.0,3044.0,2731.0,2939.0,2668.0,0.38,9.93,3.61,-0.01,-0.03,-0.13,a
3344.0,3568.0,3049.0,4095.0,3034.0,2734.0,2933.0,2665.0,0.31,9.84,3.71,0.03,0.02,-0.15,a
3344.0,3563.0,3055.0,4095.0,3027.0,2731.0,2934.0,2667.0,0.43,9.86,3.62,-0.01,-0.05,-0.11,a
3344.0,3571.0,3069.0,4095.0,3043.0,2735.0,2939.0,2671.0,0.4,9.87,3.69,0.0,0.01,-0.14,a
3347.0,3572.0,3053.0,4095.0,3038.0,2730.0,2928.0,2671.0,0.44,9.85,3.68,-0.0,-0.02,-0.14,a
3344.0,3567.0,3058.0,4095.0,3039.0,2735.0,2939.0,2673.0,0.47,9.85,3.77,0.02,0.0,-0.16,a
3349.0,3557.0,3070.0,4095.0,3037.0,2731.0,2933.0,2668.0,0.29,9.91,3.71,-0.01,-0.0,-0.14,a
3359.0,3568.0,3070.0,4095.0,3037.0,2731.0,2941.0,2669.0,0.41,9.93,3.79,0.04,0.02,-0.15,a
3346.0,3555.0,3063.0,4095.0,3037.0,2731.0,2932.0,2669.0,0.56,9.81,3.59,-0.01,-0.03,-0.14,a
3354.0,3567.0,3054.0,4095.0,3034.0,2730.0,2937.0,2669.0,0.34,10.02,3.63,0.02,0.02,-0.16,a
3354.0,3568.0,3057.0,4095.0,3037.0,2729.0,2941.0,2663.0,0.39,9.9,3.68,0.01,0.0,-0.16,a
3344.0,3573.0,3063.0,4095.0,3041.0,2734.0,2942.0,2672.0,0.31,9.96,3.67,0.02,0.01,-0.17,a
3354.0,3581.0,3056.0,4095.0,3034.0,2731.0,2939.0,2663.0,0.36,9.83,3.71,0.03,0.0,-0.18,a
3344.0,3558.0,3062.0,4095.0,3033.0,2734.0,2937.0,2666.0,0.31,9.86,3.62,0.0,-0.03,-0.15,a
3358.0,3580.0,3063.0,4095.0,3034.0,2732.0,2938.0,2669.0,0.39,9.86,3.73,0.02,0.04,-0.17,a
3349.0,3568.0,3052.0,4095.0,3031.0,2735.0,2932.0,2663.0,0.37,9.88,3.69,0.01,-0.03,-0.15,a
3577.0,4095.0,3217.0,4095.0,2836.0,2637.0,2803.0,2691.0,0.97,9.86,3.96,0.03,0.03,-0.15,a
3557.0,4095.0,3209.0,4095.0,2857.0,2647.0,2810.0,2704.0,0.77,10.0,3.95,0.05,-0.02,-0.18,a
3569.0,4095.0,3205.0,4095.0,2853.0,2647.0,2814.0,2706.0,0.9,9.81,3.98,0.05,-0.02,-0.18,a
3555.0,4095.0,3201.0,4095.0,2855.0,2654.0,2814.0,2714.0,0.67,10.02,3.68,0.0,0.01,-0.16,a
3574.0,4095.0,3205.0,4095.0,2858.0,2657.0,2822.0,2718.0,0.76,9.82,3.87,0.03,0.0,-0.18,a
3568.0,4095.0,3213.0,4095.0,2855.0,2656.0,2821.0,2723.0,0.69,9.86,3.91,-0.02,-0.02,-0.15,a
3568.0,4095.0,3214.0,4095.0,2861.0,2663.0,2818.0,2727.0,0.8,9.92,3.89,0.05,-0.0,-0.16,a
3568.0,4095.0,3209.0,4095.0,2864.0,2663.0,2829.0,2731.0,0.74,9.81,3.98,0.02,-0.0,-0.14,a
3568.0,4095.0,3216.0,4095.0,2863.0,2669.0,2831.0,2731.0,0.9,9.89,4.0,0.07,-0.02,-0.16,a
3578.0,4095.0,3199.0,4095.0,2867.0,2679.0,2833.0,2734.0,0.65,9.99,3.79,0.05,-0.02,-0.16,a
3574.0,4095.0,3206.0,4095.0,2883.0,2675.0,2831.0,2735.0,0.75,9.95,3.76,0.02,0.02,-0.16,a
3557.0,4095.0,3203.0,4095.0,2870.0,2675.0,2832.0,2736.0,0.8,9.85,3.74,0.03,0.0,-0.18,a
3568.0,4095.0,3203.0,4095.0,2873.0,2681.0,2838.0,2737.0,0.74,9.93,3.56,0.02,-0.06,-0.17,a
3566.0,4095.0,3203.0,4095.0,2871.0,2681.0,2833.0,2739.0,0.53,9.78,3.71,0.02,0.01,-0.19,a
3568.0,4095.0,3209.0,4095.0,2887.0,2675.0,2836.0,2737.0,0.56,9.97,3.65,-0.03,-0.03,-0.15,a
3581.0,4095.0,3207.0,4095.0,2879.0,2682.0,2845.0,2742.0,0.68,9.83,3.92,0.03,0.01,-0.16,a
3570.0,4095.0,3207.0,4095.0,2871.0,2676.0,2833.0,2738.0,0.86,9.9,3.78,-0.01,-0.02,-0.13,a
3561.0,4095.0,3199.0,4095.0,2875.0,2682.0,2845.0,2743.0,0.68,9.91,3.78,0.02,0.03,-0.17,a
3568.0,4095.0,3199.0,4095.0,2869.0,2672.0,2862.0,2737.0,0.77,9.82,3.9,-0.01,-0.04,-0.14,a
3581.0,4095.0,3195.0,4095.0,2877.0,2682.0,2845.0,2737.0,0.73,9.89,3.86,0.02,0.02,-0.16,a
3365.0,3430.0,2935.0,4095.0,2687.0,2467.0,2658.0,2486.0,0.62,9.93,4.17,0.02,0.0,-0.16,a
3351.0,3403.0,2918.0,4095.0,2679.0,2464.0,2655.0,2487.0,0.73,9.88,4.19,0.01,-0.0,-0.14,a
3376.0,3422.0,2926.0,4095.0,2675.0,2469.0,2669.0,2491.0,0.52,10.01,4.09,-0.01,0.01,-0.14,a
3357.0,3406.0,2928.0,4095.0,2683.0,2466.0,2657.0,2490.0,0.69,9.9,4.2,0.01,-0.02,-0.16,a
3351.0,3415.0,2928.0,4095.0,2688.0,2480.0,2661.0,2490.0,0.59,9.99,4.1,-0.0,0.02,-0.15,a
3376.0,3419.0,2933.0,4095.0,2683.0,2469.0,2663.0,2499.0,0.61,9.87,4.24,0.01,-0.04,-0.16,a
3359.0,3422.0,2929.0,4095.0,2686.0,2470.0,2659.0,2489.0,0.68,9.84,4.27,0.0,0.02,-0.14,a
3374.0,3410.0,2930.0,4095.0,2687.0,2467.0,2670.0,2494.0,0.77,9.82,4.32,0.02,-0.03,-0.13,a
3357.0,3419.0,2928.0,4095.0,2688.0,2469.0,2671.0,2501.0,0.86,9.93,4.18,0.03,0.02,-0.16,a
3363.0,3408.0,2936.0,4095.0,2688.0,2469.0,2670.0,2502.0,0.66,9.93,4.16,0.01,0.0,-0.16,a
3369.0,3415.0,2939.0,4095.0,2688.0,2471.0,2672.0,2502.0,0.75,9.9,4.22,0.01,0.01,-0.17,a
3371.0,3408.0,2926.0,4095.0,2688.0,2471.0,2668.0,2498.0,0.66,9.95,4.16,0.01,-0.01,-0.17,a
3367.0,3415.0,2930.0,4095.0,2687.0,2465.0,2672.0,2493.0,0.59,9.96,4.17,-0.02,-0.01,-0.17,a
3365.0,3410.0,2933.0,4095.0,2686.0,2471.0,2663.0,2493.0,0.7,9.91,4.28,0.02,-0.02,-0.17,a
3358.0,3406.0,2926.0,4095.0,2688.0,2467.0,2672.0,2493.0,0.72,9.92,4.23,-0.01,-0.01,-0.17,a
3362.0,3420.0,2943.0,4095.0,2698.0,2478.0,2669.0,2495.0,0.55,9.93,4.2,0.02,-0.01,-0.18,a
3376.0,3415.0,2935.0,4095.0,2688.0,2464.0,2672.0,2498.0,0.48,9.89,4.18,-0.02,0.0,-0.15,a
3358.0,3419.0,2925.0,4095.0,2691.0,2470.0,2672.0,2496.0,0.62,9.89,4.24,0.01,0.01,-0.16,a
3357.0,3406.0,2933.0,4095.0,2687.0,2474.0,2662.0,2496.0,0.69,9.93,4.26,-0.0,0.01,-0.17,a
3383.0,3399.0,2928.0,4095.0,2688.0,2464.0,2663.0,2499.0,0.65,9.97,4.16,-0.09,-0.04,-0.16,a
4095.0,3583.0,3092.0,4095.0,2864.0,2658.0,2873.0,2559.0,0.57,9.9,4.18,0.01,-0.03,-0.16,a
4095.0,3574.0,3094.0,4095.0,2864.0,2653.0,2874.0,2583.0,0.52,9.83,4.2,0.0,-0.0,-0.13,a
4095.0,3580.0,3088.0,4095.0,2865.0,2656.0,2877.0,2579.0,0.59,9.83,4.24,0.02,0.01,-0.15,a
4095.0,3598.0,3089.0,4095.0,2861.0,2646.0,2871.0,2559.0,0.61,9.81,4.29,0.03,0.04,-0.16,a
4095.0,3595.0,3088.0,4095.0,2857.0,2653.0,2867.0,2559.0,0.66,9.85,4.28,0.02,0.01,-0.15,a
4095.0,3578.0,3071.0,4095.0,2858.0,2652.0,2871.0,2579.0,0.74,9.84,4.23,-0.03,0.01,-0.15,a
4095.0,3583.0,3088.0,4095.0,2862.0,2655.0,2873.0,2580.0,0.53,9.89,4.19,0.03,-0.01,-0.17,a
4095.0,3583.0,3087.0,4095.0,2866.0,2652.0,2876.0,2582.0,0.57,9.93,4.11,0.0,-0.01,-0.15,a
4095.0,3583.0,3088.0,4095.0,2864.0,2656.0,2873.0,2583.0,0.42,9.96,4.12,0.03,-0.01,-0.16,a
4095.0,3598.0,3086.0,4095.0,2864.0,2654.0,2874.0,2587.0,0.25,9.94,4.14,-0.02,-0.15,-0.08,a
4095.0,3573.0,3087.0,4095.0,2859.0,2651.0,2869.0,2580.0,0.84,9.83,4.19,-0.0,0.13,-0.14,a
4095.0,3578.0,3086.0,4095.0,2860.0,2650.0,2870.0,2559.0,0.51,9.89,4.18,-0.01,0.08,-0.17,a
4095.0,3578.0,3090.0,4095.0,2866.0,2661.0,2874.0,2590.0,0.7,9.91,4.2,0.02,-0.04,-0.17,a
4095.0,3583.0,3090.0,4095.0,2868.0,2658.0,2878.0,2588.0,0.47,9.9,4.15,0.02,0.02,-0.17,a
4095.0,3581.0,3088.0,4095.0,2864.0,2666.0,2878.0,2585.0,0.59,9.86,4.24,0.01,-0.03,-0.15,a
4095.0,3569.0,3071.0,4095.0,2863.0,2656.0,2877.0,2585.0,0.52,9.95,4.2,0.02,0.01,-0.16,a
4095.0,3583.0,3091.0,4095.0,2864.0,2662.0,2876.0,2589.0,0.56,9.95,4.21,0.04,0.01,-0.17,a
4095.0,3583.0,3091.0,4095.0,2863.0,2651.0,2877.0,2590.0,0.58,9.92,4.21,0.01,0.02,-0.16,a
4095.0,3568.0,3092.0,4095.0,2864.0,2656.0,2880.0,2586.0,0.54,9.84,4.15,0.02,0.01,-0.18,a
4095.0,3583.0,3093.0,4095.0,2855.0,2653.0,2869.0,2591.0,0.52,9.87,4.16,0.03,0.03,-0.16,a
3298.0,3597.0,2356.0,4095.0,2631.0,2512.0,2730.0,2483.0,0.73,9.64,4.48,0.07,-0.12,-0.17,a
3291.0,3599.0,2358.0,4095.0,2637.0,2513.0,2736.0,2491.0,0.54,9.84,4.79,-0.01,0.01,-0.18,a
3283.0,3583.0,2352.0,4095.0,2635.0,2512.0,2734.0,2485.0,0.43,9.92,5.37,-0.07,-0.02,-0.11,a
3292.0,3605.0,2351.0,4095.0,2629.0,2512.0,2731.0,2480.0,0.63,9.88,5.32,0.06,0.05,-0.13,a
3295.0,3611.0,2359.0,4095.0,2640.0,2513.0,2736.0,2485.0,0.48,9.85,4.97,0.01,0.02,-0.11,a
3287.0,3605.0,2361.0,4095.0,2639.0,2512.0,2735.0,2481.0,0.79,9.79,5.0,0.04,0.11,-0.14,a
3301.0,3606.0,2354.0,4095.0,2640.0,2512.0,2739.0,2490.0,0.44,10.0,4.92,-0.02,0.06,-0.12,a
3296.0,3583.0,2349.0,4095.0,2639.0,2512.0,2736.0,2487.0,0.68,9.94,4.96,-0.01,0.04,-0.1,a
3302.0,3605.0,2350.0,4095.0,2631.0,2511.0,2733.0,2485.0,0.82,9.73,5.07,-0.03,-0.0,-0.1,a
3307.0,3606.0,2352.0,4095.0,2640.0,2516.0,2736.0,2488.0,0.81,9.77,5.11,0.01,0.02,-0.12,a
3291.0,3611.0,2352.0,4095.0,2640.0,2515.0,2736.0,2486.0,0.78,9.9,5.09,0.03,-0.02,-0.12,a
3295.0,3583.0,2341.0,4095.0,2639.0,2512.0,2731.0,2486.0,0.92,9.95,4.98,0.01,-0.03,-0.13,a
3294.0,3611.0,2351.0,4095.0,2640.0,2513.0,2736.0,2496.0,0.89,9.99,4.91,-0.09,-0.04,-0.14,a
3294.0,3606.0,2341.0,4095.0,2641.0,2516.0,2744.0,2499.0,0.88,9.9,5.27,-0.08,-0.08,-0.15,a
3292.0,3601.0,2343.0,4095.0,2642.0,2513.0,2736.0,2501.0,1.15,9.89,5.3,0.01,-0.05,-0.17,a
3289.0,3603.0,2335.0,4095.0,2641.0,2519.0,2736.0,2502.0,0.86,9.93,5.16,0.02,0.09,-0.24,a
3290.0,3583.0,2343.0,4095.0,2643.0,2522.0,2745.0,2501.0,0.56,9.68,5.16,0.05,-0.06,-0.22,a
3299.0,3605.0,2338.0,4095.0,2646.0,2524.0,2739.0,2505.0,0.69,9.81,4.92,0.05,-0.01,-0.16,a
3294.0,3583.0,2335.0,4095.0,2640.0,2518.0,2738.0,2505.0,0.75,9.78,5.05,0.03,0.01,-0.17,a
3295.0,3605.0,2342.0,4095.0,2646.0,2519.0,2746.0,2508.0,0.7,10.01,5.12,0.04,-0.02,-0.19,a
3760.0,3696.0,2985.0,3952.0,2687.0,2495.0,2665.0,2469.0,0.38,9.95,4.79,0.04,0.07,-0.19,a
3760.0,3696.0,3005.0,3969.0,2691.0,2497.0,2670.0,2479.0,0.48,9.8,4.93,-0.01,-0.02,-0.14,a
3746.0,3698.0,2987.0,3957.0,2685.0,2495.0,2668.0,2470.0,0.37,9.95,4.78,0.07,0.04,-0.17,a
3739.0,3706.0,2987.0,3967.0,2684.0,2490.0,2672.0,2473.0,0.39,9.76,4.72,0.03,0.14,-0.14,a
3760.0,3698.0,2995.0,3983.0,2693.0,2496.0,2674.0,2476.0,0.33,10.01,4.59,0.09,-0.02,-0.17,a
3760.0,3695.0,2989.0,3969.0,2693.0,2493.0,2672.0,2481.0,0.49,9.92,4.5,0.04,-0.01,-0.15,a
3747.0,3681.0,2990.0,3971.0,2694.0,2501.0,2677.0,2479.0,0.35,9.92,4.59,0.04,-0.03,-0.15,a
3762.0,3697.0,2989.0,3985.0,2704.0,2503.0,2677.0,2480.0,0.59,9.82,4.67,-0.01,-0.05,-0.14,a
3759.0,3693.0,2989.0,3988.0,2695.0,2495.0,2675.0,2480.0,0.52,9.84,4.83,0.05,0.04,-0.13,a
3741.0,3701.0,2983.0,3987.0,2693.0,2506.0,2672.0,2481.0,0.62,9.96,4.73,0.02,-0.07,-0.13,a
3757.0,3691.0,2991.0,4015.0,2697.0,2502.0,2683.0,2487.0,0.47,9.94,4.55,0.04,0.07,-0.15,a
3742.0,3696.0,2993.0,4001.0,2704.0,2505.0,2683.0,2486.0,0.39,9.85,4.57,0.01,-0.01,-0.15,a
3757.0,3699.0,2992.0,3997.0,2697.0,2507.0,2679.0,2483.0,0.36,9.9,4.43,0.05,0.05,-0.16,a
3759.0,3695.0,2992.0,3989.0,2698.0,2511.0,2687.0,2486.0,0.35,9.89,4.43,-0.04,-0.01,-0.14,a
3757.0,3701.0,2992.0,4006.0,2699.0,2513.0,2688.0,2487.0,0.48,9.9,4.67,-0.03,0.02,-0.14,a
3753.0,3674.0,2992.0,3991.0,2699.0,2512.0,2698.0,2486.0,0.64,9.96,4.68,-0.04,-0.04,-0.13,a
3761.0,3691.0,2993.0,4012.0,2708.0,2518.0,2692.0,2500.0,0.71,9.9,4.76,0.04,-0.02,-0.19,a
3760.0,3694.0,3001.0,4018.0,2702.0,2511.0,2697.0,2484.0,0.34,9.83,4.78,0.07,-0.03,-0.22,a
3770.0,3682.0,2992.0,4016.0,2707.0,2519.0,2695.0,2487.0,0.7,9.33,4.45,0.15,0.0,-0.21,a
3743.0,3681.0,2982.0,4030.0,2707.0,2519.0,2698.0,2491.0,0.48,9.88,4.51,-0.02,0.0,-0.17,a
3010.0,3235.0,2871.0,3961.0,3381.0,2671.0,3120.0,3504.0,0.49,9.15,6.32,-0.07,-0.54,-0.18,a
3010.0,3235.0,2871.0,3961.0,3381.0,2671.0,3120.0,3504.0,0.49,9.15,6.32,-0.07,-0.54,-0.18,a
3019.0,3632.0,2896.0,4027.0,2822.0,2334.0,2672.0,2551.0,0.49,9.43,7.81,1.09,0.01,-0.39,a
3083.0,3488.0,2891.0,4095.0,2645.0,2351.0,2459.0,2311.0,-0.24,10.0,4.78,0.71,-0.39,-0.2,a
3119.0,3461.0,3042.0,4055.0,2640.0,2422.0,2558.0,2352.0,0.59,9.64,4.92,0.33,-0.15,0.03,a
3122.0,3461.0,3071.0,4048.0,2647.0,2427.0,2559.0,2355.0,0.48,9.55,5.11,0.25,0.11,-0.12,a
3117.0,3456.0,3085.0,4059.0,2662.0,2439.0,2559.0,2382.0,0.79,10.04,4.53,0.23,-0.08,-0.31,a
3121.0,3470.0,3081.0,4061.0,2669.0,2439.0,2604.0,2399.0,0.47,10.12,4.5,0.06,0.27,-0.15,a
3113.0,3457.0,3092.0,4048.0,2674.0,2442.0,2608.0,2432.0,0.27,9.88,4.77,0.0,0.19,-0.13,a
3120.0,3451.0,3088.0,4048.0,2681.0,2445.0,2623.0,2459.0,0.2,9.92,4.78,-0.01,-0.02,-0.17,a
3130.0,3451.0,3089.0,4064.0,2683.0,2443.0,2615.0,2466.0,0.51,9.66,4.84,-0.02,0.07,-0.1,a
3127.0,3449.0,3086.0,4061.0,2689.0,2448.0,2623.0,2478.0,0.34,10.11,4.78,0.04,-0.03,-0.14,a
3120.0,3444.0,3101.0,4063.0,2687.0,2448.0,2626.0,2489.0,0.74,9.98,4.87,0.0,0.03,-0.08,a
3136.0,3446.0,3090.0,4071.0,2690.0,2453.0,2629.0,2491.0,0.54,9.93,4.83,0.06,0.03,-0.19,a
3120.0,3440.0,3091.0,4075.0,2691.0,2451.0,2629.0,2491.0,0.7,9.77,4.64,-0.02,-0.01,-0.19,a
3124.0,3437.0,3071.0,4062.0,2691.0,2449.0,2625.0,2496.0,0.24,9.68,4.87,0.06,0.0,-0.23,a
3136.0,3455.0,3087.0,4073.0,2699.0,2450.0,2632.0,2500.0,0.21,9.75,4.71,-0.01,-0.05,-0.15,a
3129.0,3443.0,3089.0,4069.0,2702.0,2449.0,2633.0,2501.0,0.46,9.89,4.86,0.03,0.04,-0.14,a
3125.0,3454.0,3089.0,4074.0,2690.0,2457.0,2631.0,2505.0,0.55,9.82,4.89,-0.02,0.01,-0.12,a
3127.0,3447.0,3093.0,4079.0,2701.0,2459.0,2634.0,2510.0,0.46,9.92,4.86,0.04,-0.01,-0.14,a
3523.0,3536.0,3071.0,4095.0,2917.0,2559.0,2771.0,2602.0,0.25,9.87,4.72,0.04,0.03,-0.17,a
3506.0,3535.0,3082.0,4095.0,2912.0,2555.0,2767.0,2600.0,0.15,9.92,4.56,-0.01,-0.02,-0.14,a
3519.0,3545.0,3067.0,4095.0,2915.0,2553.0,2768.0,2592.0,0.3,9.81,4.78,0.03,0.03,-0.16,a
3518.0,3536.0,3083.0,4095.0,2928.0,2559.0,2765.0,2597.0,0.18,9.97,4.67,0.0,0.01,-0.13,a
3517.0,3537.0,3083.0,4095.0,2918.0,2559.0,2770.0,2596.0,0.4,9.83,4.8,0.02,-0.02,-0.13,a
3514.0,3538.0,3071.0,4095.0,2923.0,2559.0,2768.0,2597.0,0.43,9.91,4.73,0.03,0.02,-0.16,a
3507.0,3562.0,3071.0,4095.0,2927.0,2559.0,2768.0,2595.0,0.33,9.84,4.7,0.01,0.01,-0.15,a
3506.0,3534.0,3071.0,4095.0,2921.0,2557.0,2765.0,2590.0,0.31,9.83,4.75,0.0,0.04,-0.14,a
3523.0,3536.0,3069.0,4095.0,2917.0,2547.0,2768.0,2597.0,0.25,9.89,4.62,0.02,0.05,-0.14,a
3518.0,3536.0,3067.0,4095.0,2914.0,2559.0,2765.0,2582.0,0.4,9.9,4.71,-0.03,0.05,-0.12,a
3515.0,3534.0,3069.0,4095.0,2918.0,2557.0,2768.0,2598.0,0.37,9.92,4.78,0.02,0.07,-0.13,a
3510.0,3536.0,3071.0,4095.0,2919.0,2559.0,2769.0,2592.0,0.42,9.92,4.8,0.01,-0.08,-0.14,a
3524.0,3532.0,3065.0,4095.0,2912.0,2553.0,2766.0,2594.0,0.35,9.86,4.72,0.03,0.02,-0.14,a
3507.0,3543.0,3062.0,4095.0,2913.0,2555.0,2762.0,2589.0,0.43,9.89,4.75,0.03,0.0,-0.14,a
3513.0,3533.0,3071.0,4095.0,2915.0,2559.0,2767.0,2589.0,0.44,9.89,4.74,0.01,-0.02,-0.16,a
3519.0,3539.0,3082.0,4095.0,2915.0,2559.0,2769.0,2593.0,0.34,9.94,4.66,0.03,0.03,-0.16,a
3519.0,3541.0,3081.0,4095.0,2913.0,2555.0,2764.0,2595.0,0.4,9.85,4.71,0.01,-0.04,-0.16,a
3513.0,3533.0,3071.0,4095.0,2911.0,2556.0,2767.0,2591.0,0.27,9.96,4.61,0.02,0.03,-0.15,a
3504.0,3542.0,3082.0,4095.0,2912.0,2545.0,2751.0,2580.0,0.54,9.84,4.65,-0.08,-0.07,-0.14,a
3509.0,3536.0,3071.0,4095.0,2911.0,2544.0,2747.0,2559.0,0.43,9.87,4.85,0.01,0.02,-0.16,a
3671.0,3538.0,3059.0,4095.0,2841.0,2559.0,2754.0,2479.0,0.48,10.28,4.28,-0.01,0.08,-0.15,a
3687.0,3521.0,3055.0,4095.0,2846.0,2588.0,2762.0,2479.0,0.72,10.14,4.27,-0.11,-0.03,-0.18,a
3680.0,3539.0,3059.0,4095.0,2854.0,2589.0,2765.0,2482.0,0.62,9.66,4.59,-0.08,0.05,-0.23,a
3667.0,3534.0,3047.0,4095.0,2844.0,2581.0,2758.0,2486.0,0.6,9.65,5.11,-0.09,0.06,-0.18,a
3681.0,3519.0,3045.0,4095.0,2851.0,2581.0,2768.0,2480.0,-0.09,9.85,4.89,0.09,0.09,-0.24,a
3671.0,3518.0,3043.0,4095.0,2846.0,2581.0,2765.0,2478.0,0.1,9.86,4.5,0.03,-0.1,-0.18,a
3668.0,3527.0,3043.0,4095.0,2850.0,2589.0,2768.0,2480.0,0.17,10.01,4.48,-0.0,-0.01,-0.17,a
3664.0,3536.0,3045.0,4095.0,2851.0,2579.0,2768.0,2478.0,0.23,9.86,4.92,-0.04,-0.06,-0.12,a
3673.0,3522.0,3054.0,4095.0,2849.0,2583.0,2767.0,2480.0,0.4,9.87,4.95,0.04,-0.04,-0.14,a
3680.0,3531.0,3045.0,4095.0,2850.0,2590.0,2771.0,2480.0,0.19,9.82,4.75,0.02,0.05,-0.13,a
3671.0,3533.0,3055.0,4095.0,2849.0,2590.0,2774.0,2484.0,0.17,9.94,4.74,0.06,-0.06,-0.12,a
3679.0,3543.0,3063.0,4095.0,2854.0,2593.0,2781.0,2489.0,0.43,10.08,4.42,-0.0,-0.01,-0.09,a
3664.0,3523.0,3045.0,4095.0,2850.0,2588.0,2768.0,2486.0,0.9,10.28,4.38,-0.11,0.1,-0.12,a
3693.0,3526.0,3055.0,4095.0,2853.0,2594.0,2774.0,2491.0,0.93,9.65,5.02,-0.08,0.12,-0.22,a
3675.0,3515.0,3044.0,4095.0,2848.0,2586.0,2770.0,2482.0,0.08,9.7,4.7,-0.02,0.02,-0.22,a
3673.0,3519.0,3046.0,4095.0,2851.0,2588.0,2772.0,2490.0,-0.05,9.77,4.75,0.0,0.1,-0.18,a
3682.0,3521.0,3056.0,4095.0,2857.0,2593.0,2768.0,2493.0,0.03,10.14,4.77,-0.06,0.1,-0.15,a
3664.0,3523.0,3041.0,4095.0,2860.0,2591.0,2777.0,2493.0,0.39,9.81,5.09,0.02,0.05,-0.17,a
3680.0,3540.0,3040.0,4095.0,2859.0,2591.0,2777.0,2496.0,0.32,9.78,4.67,0.02,-0.05,-0.14,a
3666.0,3536.0,3045.0,4095.0,2859.0,2589.0,2773.0,2495.0,0.41,9.99,4.59,0.04,0.0,-0.19,a
4095.0,3568.0,2730.0,4095.0,2925.0,2637.0,2797.0,2448.0,0.27,9.89,5.1,0.02,0.01,-0.18,a
4095.0,3583.0,2733.0,4095.0,2928.0,2638.0,2798.0,2461.0,0.23,9.78,4.97,0.04,-0.04,-0.17,a
4095.0,3567.0,2727.0,4095.0,2926.0,2634.0,2797.0,2454.0,0.11,9.94,4.74,0.07,-0.02,-0.16,a
4095.0,3571.0,2731.0,4095.0,2925.0,2634.0,2796.0,2451.0,0.25,9.91,4.75,-0.01,-0.02,-0.14,a
4095.0,3582.0,2735.0,4095.0,2928.0,2640.0,2798.0,2461.0,0.36,9.93,4.92,0.01,0.03,-0.17,a
4095.0,3574.0,2723.0,4095.0,2928.0,2630.0,2800.0,2459.0,0.14,9.79,4.92,-0.0,-0.03,-0.16,a
4095.0,3575.0,2729.0,4095.0,2928.0,2636.0,2800.0,2452.0,0.1,9.93,4.73,0.02,-0.02,-0.12,a
4095.0,3562.0,2736.0,4095.0,2925.0,2640.0,2799.0,2459.0,0.25,9.84,4.97,-0.02,0.03,-0.12,a
4095.0,3578.0,2736.0,4095.0,2926.0,2627.0,2800.0,2454.0,0.41,10.01,4.87,0.02,-0.01,-0.13,a
4095.0,3568.0,2735.0,4095.0,2929.0,2633.0,2796.0,2458.0,0.4,9.79,4.99,0.02,0.01,-0.17,a
4095.0,3566.0,2736.0,4095.0,2930.0,2639.0,2800.0,2461.0,0.09,9.91,4.82,0.03,-0.03,-0.17,a
4095.0,3567.0,2735.0,4095.0,2930.0,2638.0,2803.0,2455.0,0.18,9.84,4.7,0.01,-0.01,-0.14,a
4095.0,3569.0,2721.0,4095.0,2928.0,2638.0,2800.0,2458.0,-0.01,9.81,4.88,-0.01,-0.03,-0.13,a
4095.0,3568.0,2733.0,4095.0,2926.0,2638.0,2800.0,2453.0,0.37,9.92,4.88,-0.03,-0.04,-0.07,a
4095.0,3580.0,2725.0,4095.0,2928.0,2638.0,2800.0,2450.0,0.64,9.99,5.21,-0.01,0.04,-0.12,a
4095.0,3567.0,2736.0,4095.0,2928.0,2630.0,2800.0,2455.0,0.54,9.8,4.97,0.06,-0.06,-0.16,a
4095.0,3568.0,2743.0,4095.0,2933.0,2639.0,2800.0,2454.0,0.22,9.96,4.7,0.03,0.01,-0.16,a
4095.0,3579.0,2735.0,4095.0,2929.0,2639.0,2800.0,2455.0,0.26,9.81,4.97,-0.03,-0.02,-0.14,a
4095.0,3568.0,2735.0,4095.0,2931.0,2638.0,2805.0,2450.0,0.23,9.91,4.98,0.01,-0.01,-0.12,a
4095.0,3559.0,2721.0,4095.0,2925.0,2637.0,2798.0,2449.0,0.56,9.68,5.18,0.02,-0.03,-0.11,a
3759.0,3467.0,2966.0,4095.0,2890.0,2594.0,2775.0,2579.0,0.71,9.96,4.23,-0.02,0.01,-0.12,a
3759.0,3467.0,2966.0,4095.0,2890.0,2594.0,2775.0,2579.0,0.71,9.96,4.23,-0.02,0.01,-0.12,a
3775.0,3451.0,2962.0,4095.0,2881.0,2607.0,2786.0,2581.0,0.77,9.94,4.35,0.04,0.03,-0.18,a
3776.0,3451.0,2977.0,4095.0,2891.0,2607.0,2787.0,2587.0,0.71,9.69,4.53,-0.0,-0.0,-0.18,a
3760.0,3459.0,2972.0,4095.0,2885.0,2614.0,2784.0,2582.0,0.3,10.0,4.34,0.07,0.01,-0.18,a
3762.0,3458.0,2973.0,4095.0,2901.0,2608.0,2795.0,2593.0,0.62,9.94,4.32,0.02,-0.01,-0.16,a
3760.0,3472.0,2967.0,4095.0,2885.0,2609.0,2794.0,2583.0,0.62,9.92,4.26,0.02,0.03,-0.15,a
3760.0,3466.0,2973.0,4095.0,2894.0,2608.0,2789.0,2585.0,0.8,9.79,4.43,-0.01,-0.04,-0.15,a
3786.0,3470.0,2979.0,4095.0,2885.0,2601.0,2789.0,2583.0,0.39,10.02,4.28,0.01,0.04,-0.17,a
3779.0,3451.0,2976.0,4095.0,2886.0,2606.0,2789.0,2586.0,0.54,9.84,4.29,0.01,0.04,-0.15,a
3769.0,3471.0,2973.0,4095.0,2895.0,2608.0,2795.0,2586.0,0.6,9.98,4.33,0.01,0.14,-0.17,a
3766.0,3451.0,2975.0,4095.0,2898.0,2608.0,2798.0,2588.0,0.49,9.83,4.4,0.03,-0.06,-0.15,a
3769.0,3457.0,2971.0,4095.0,2894.0,2608.0,2793.0,2592.0,0.51,9.83,4.32,0.05,-0.08,-0.14,a
3773.0,3445.0,2983.0,4095.0,2896.0,2608.0,2789.0,2587.0,0.47,9.97,4.19,0.01,0.07,-0.13,a
3790.0,3467.0,2977.0,4095.0,2895.0,2610.0,2798.0,2586.0,0.71,9.92,4.36,-0.03,0.08,-0.13,a
3792.0,3467.0,2965.0,4095.0,2896.0,2617.0,2795.0,2591.0,0.72,9.85,4.48,0.01,0.09,-0.15,a
3776.0,3466.0,2962.0,4095.0,2896.0,2615.0,2801.0,2593.0,0.65,10.01,4.26,-0.01,0.11,-0.15,a
3792.0,3471.0,2975.0,4095.0,2896.0,2611.0,2798.0,2593.0,0.52,9.79,4.65,0.03,-0.05,-0.2,a
3772.0,3460.0,2975.0,4095.0,2896.0,2616.0,2798.0,2593.0,0.55,9.96,4.3,0.06,-0.01,-0.17,a
3777.0,3455.0,2979.0,4095.0,2897.0,2615.0,2799.0,2591.0,0.54,9.84,4.41,0.02,0.06,-0.15,a
3326.0,3583.0,4095.0,4095.0,2769.0,2583.0,2753.0,2513.0,0.45,9.94,4.29,0.04,0.0,-0.12,a
3319.0,3596.0,4095.0,4095.0,2768.0,2559.0,2749.0,2512.0,0.55,10.04,4.24,0.01,0.01,-0.12,a
3333.0,3579.0,4095.0,4095.0,2768.0,2587.0,2751.0,2512.0,0.66,9.91,4.4,0.03,0.02,-0.15,a
3323.0,3599.0,4095.0,4095.0,2768.0,2583.0,2752.0,2512.0,0.58,9.95,4.33,-0.03,0.02,-0.14,a
3339.0,3582.0,4095.0,4095.0,2767.0,2559.0,2753.0,2512.0,0.48,9.89,4.47,0.06,-0.0,-0.17,a
3335.0,3596.0,4095.0,4095.0,2768.0,2559.0,2752.0,2513.0,0.3,9.89,4.2,-0.01,0.02,-0.13,a
3327.0,3573.0,4095.0,4095.0,2767.0,2582.0,2750.0,2511.0,0.37,9.92,4.32,-0.01,0.05,-0.07,a
3333.0,3583.0,4095.0,4095.0,2772.0,2583.0,2753.0,2523.0,0.63,9.88,4.3,-0.01,0.04,-0.12,a
3329.0,3583.0,4095.0,4095.0,2769.0,2559.0,2752.0,2512.0,0.55,9.85,4.39,0.04,0.06,-0.14,a
3333.0,3597.0,4095.0,4095.0,2775.0,2579.0,2753.0,2514.0,0.63,9.95,4.26,-0.0,-0.07,-0.12,a
3326.0,3581.0,4095.0,4095.0,2776.0,2586.0,2758.0,2517.0,0.52,9.99,4.2,0.04,0.03,-0.16,a
3338.0,3583.0,4095.0,4095.0,2779.0,2589.0,2756.0,2518.0,0.62,9.96,4.22,-0.06,0.02,-0.13,a
3329.0,3575.0,4095.0,4095.0,2769.0,2579.0,2755.0,2517.0,0.71,9.82,4.54,0.03,0.05,-0.17,a
3333.0,3603.0,4095.0,4095.0,2778.0,2590.0,2754.0,2523.0,0.7,9.84,4.49,-0.03,-0.0,-0.15,a
3328.0,3568.0,4095.0,4095.0,2767.0,2581.0,2759.0,2514.0,0.48,9.92,4.38,0.07,0.05,-0.18,a
3326.0,3567.0,4095.0,4095.0,2781.0,2582.0,2761.0,2523.0,0.61,9.87,4.27,-0.03,0.0,-0.13,a
3341.0,3568.0,4095.0,4095.0,2775.0,2583.0,2763.0,2535.0,0.61,9.98,4.34,0.01,0.09,-0.16,a
3330.0,3579.0,4095.0,4095.0,2783.0,2593.0,2759.0,2519.0,0.52,9.89,4.32,-0.0,-0.03,-0.14,a
3334.0,3583.0,4095.0,4095.0,2775.0,2584.0,2759.0,2527.0,0.54,9.89,4.24,0.05,0.02,-0.18,a
3329.0,3596.0,4095.0,4095.0,2779.0,2592.0,2768.0,2526.0,0.59,9.81,4.24,-0.02,-0.0,-0.16,a
3275.0,3696.0,3149.0,4095.0,2757.0,2605.0,2870.0,2695.0,0.57,9.9,4.17,-0.04,0.01,-0.13,a
3264.0,3679.0,3139.0,4095.0,2749.0,2605.0,2864.0,2693.0,0.55,9.9,4.31,0.06,-0.0,-0.17,a
3267.0,3679.0,3141.0,4095.0,2751.0,2599.0,2866.0,2694.0,0.61,9.81,4.3,-0.04,-0.02,-0.12,a
3265.0,3695.0,3149.0,4095.0,2759.0,2608.0,2864.0,2699.0,0.53,9.94,4.29,0.06,-0.01,-0.16,a
3273.0,3694.0,3149.0,4095.0,2761.0,2606.0,2865.0,2699.0,0.54,9.88,4.27,0.01,-0.01,-0.13,a
3264.0,3697.0,3151.0,4095.0,2763.0,2603.0,2874.0,2701.0,0.64,9.93,4.22,0.06,0.0,-0.15,a
3279.0,3710.0,3141.0,4095.0,2767.0,2608.0,2877.0,2706.0,0.59,9.89,4.13,0.02,0.02,-0.14,a
3273.0,3698.0,3141.0,4095.0,2767.0,2608.0,2874.0,2705.0,0.55,9.92,4.1,0.01,-0.01,-0.15,a
3267.0,3699.0,3147.0,4095.0,2768.0,2610.0,2879.0,2711.0,0.6,9.89,4.23,-0.02,0.01,-0.13,a
3262.0,3690.0,3131.0,4095.0,2755.0,2609.0,2874.0,2702.0,0.63,9.88,4.36,0.02,0.0,-0.15,a
3265.0,3699.0,3138.0,4095.0,2767.0,2612.0,2882.0,2704.0,0.65,9.83,4.33,0.03,-0.02,-0.16,a
3270.0,3693.0,3130.0,4095.0,2761.0,2609.0,2882.0,2705.0,0.58,9.91,4.26,0.06,-0.0,-0.15,a
3275.0,3695.0,3126.0,4095.0,2770.0,2630.0,2882.0,2704.0,0.69,9.86,4.24,0.02,-0.01,-0.16,a
3273.0,3717.0,3138.0,4095.0,2765.0,2623.0,2885.0,2708.0,0.62,9.94,4.19,0.03,0.01,-0.15,a
3261.0,3691.0,3136.0,4095.0,2767.0,2614.0,2891.0,2704.0,0.62,9.84,4.23,-0.01,-0.0,-0.14,a
3277.0,3710.0,3133.0,4095.0,2766.0,2624.0,2895.0,2713.0,0.62,9.93,4.23,0.0,-0.03,-0.15,a
3273.0,3693.0,3129.0,4095.0,2768.0,2624.0,2898.0,2715.0,0.59,9.9,4.2,-0.01,0.02,-0.13,a
3271.0,3709.0,3122.0,4095.0,2768.0,2624.0,2896.0,2706.0,0.66,9.89,4.3,0.01,0.0,-0.16,a
3280.0,3697.0,3131.0,4095.0,2772.0,2625.0,2894.0,2719.0,0.61,9.88,4.23,-0.01,-0.02,-0.15,a
3265.0,3689.0,3127.0,4095.0,2777.0,2628.0,2896.0,2727.0,0.6,9.87,4.36,0.02,0.01,-0.15,a
3147.0,3491.0,1569.0,4095.0,2702.0,2491.0,2624.0,2309.0,0.05,9.73,4.43,-0.06,-0.01,-0.12,a
3155.0,3499.0,1579.0,4095.0,2711.0,2508.0,2626.0,2323.0,0.27,9.93,4.53,0.06,-0.04,-0.14,a
3154.0,3502.0,1567.0,4095.0,2711.0,2505.0,2625.0,2326.0,0.6,9.72,4.55,0.02,-0.01,-0.13,a
3153.0,3504.0,1575.0,4095.0,2720.0,2510.0,2640.0,2336.0,0.28,10.07,4.35,0.04,0.07,-0.13,a
3163.0,3490.0,1571.0,4095.0,2720.0,2512.0,2640.0,2346.0,0.56,9.73,4.45,0.03,-0.0,-0.16,a
3152.0,3477.0,1567.0,4095.0,2718.0,2512.0,2640.0,2356.0,0.31,10.05,4.23,0.02,0.05,-0.13,a
3152.0,3472.0,1568.0,4095.0,2712.0,2511.0,2639.0,2357.0,0.44,9.78,4.42,0.01,0.01,-0.15,a
3160.0,3503.0,1575.0,4095.0,2725.0,2512.0,2652.0,2367.0,0.32,9.96,4.38,0.01,-0.01,-0.11,a
3152.0,3488.0,1569.0,4095.0,2727.0,2517.0,2650.0,2367.0,0.61,9.79,4.47,0.0,0.03,-0.13,a
3149.0,3492.0,1567.0,4095.0,2723.0,2514.0,2655.0,2382.0,0.34,9.92,4.45,0.01,-0.03,-0.13,a
3147.0,3499.0,1568.0,4095.0,2731.0,2512.0,2656.0,2383.0,0.51,9.92,4.35,0.01,-0.02,-0.12,a
3152.0,3499.0,1565.0,4095.0,2733.0,2522.0,2661.0,2387.0,0.43,9.97,4.34,-0.01,-0.0,-0.12,a
3147.0,3479.0,1573.0,4095.0,2731.0,2519.0,2655.0,2384.0,0.84,9.86,4.49,-0.04,0.06,-0.11,a
3152.0,3493.0,1564.0,4095.0,2736.0,2519.0,2666.0,2388.0,0.62,10.16,4.39,-0.03,0.0,-0.13,a
3162.0,3494.0,1561.0,4095.0,2731.0,2515.0,2661.0,2394.0,0.88,9.67,4.69,-0.04,0.05,-0.16,a
3151.0,3486.0,1569.0,4095.0,2727.0,2518.0,2667.0,2388.0,0.17,9.81,4.59,0.04,-0.0,-0.19,a
3153.0,3503.0,1568.0,4095.0,2735.0,2524.0,2657.0,2395.0,0.32,9.84,4.43,0.04,-0.03,-0.14,a
3159.0,3487.0,1567.0,4095.0,2736.0,2525.0,2667.0,2395.0,0.5,10.15,4.3,-0.01,-0.02,-0.1,a
3152.0,3489.0,1581.0,4095.0,2736.0,2523.0,2667.0,2393.0,0.85,9.89,4.47,0.01,0.02,-0.12,a
3153.0,3487.0,1577.0,4095.0,2733.0,2519.0,2666.0,2387.0,0.68,9.94,4.46,-0.04,0.04,-0.14,a
3904.0,3479.0,2285.0,4095.0,2816.0,2558.0,2715.0,2611.0,0.39,9.9,4.34,0.03,0.05,-0.16,a
3910.0,3479.0,2278.0,4095.0,2819.0,2558.0,2731.0,2606.0,0.43,9.79,4.37,0.03,0.03,-0.15,a
3908.0,3482.0,2289.0,4095.0,2817.0,2559.0,2725.0,2603.0,0.55,9.91,4.27,-0.01,0.0,-0.14,a
3910.0,3481.0,2287.0,4095.0,2816.0,2550.0,2730.0,2603.0,0.39,9.91,4.27,0.01,0.01,-0.15,a
3890.0,3468.0,2283.0,4095.0,2809.0,2548.0,2719.0,2601.0,0.3,9.95,4.27,0.02,0.01,-0.14,a
3895.0,3468.0,2277.0,4095.0,2807.0,2549.0,2719.0,2602.0,0.51,9.74,4.49,0.04,0.02,-0.14,a
3900.0,3482.0,2286.0,4095.0,2812.0,2549.0,2730.0,2601.0,0.55,9.82,4.4,-0.04,0.0,-0.12,a
3904.0,3469.0,2269.0,4095.0,2811.0,2556.0,2715.0,2599.0,0.47,9.95,4.33,-0.01,-0.01,-0.14,a
3910.0,3469.0,2286.0,4095.0,2813.0,2553.0,2721.0,2604.0,0.46,9.91,4.36,0.01,-0.01,-0.15,a
3887.0,3475.0,2288.0,4095.0,2815.0,2558.0,2717.0,2607.0,0.45,9.85,4.36,0.01,0.02,-0.14,a
3892.0,3489.0,2282.0,4095.0,2806.0,2559.0,2717.0,2602.0,0.37,9.96,4.33,0.04,-0.02,-0.15,a
3911.0,3473.0,2286.0,4095.0,2815.0,2551.0,2724.0,2603.0,0.53,9.87,4.24,0.0,0.01,-0.15,a
3906.0,3482.0,2282.0,4095.0,2818.0,2549.0,2718.0,2607.0,0.41,9.94,4.28,0.03,-0.01,-0.15,a
3897.0,3473.0,2280.0,4095.0,2815.0,2549.0,2717.0,2601.0,0.46,9.84,4.33,0.02,0.0,-0.15,a
3887.0,3482.0,2274.0,4095.0,2810.0,2554.0,2718.0,2602.0,0.44,9.94,4.32,0.01,-0.02,-0.14,a
3898.0,3473.0,2287.0,4095.0,2815.0,2556.0,2720.0,2606.0,0.57,9.85,4.34,0.03,0.01,-0.14,a
3906.0,3472.0,2279.0,4095.0,2813.0,2549.0,2718.0,2607.0,0.48,10.0,4.24,0.01,-0.0,-0.13,a
3899.0,3479.0,2288.0,4095.0,2814.0,2551.0,2721.0,2594.0,0.58,9.81,4.36,0.02,-0.01,-0.15,a
3908.0,3482.0,2277.0,4095.0,2817.0,2550.0,2723.0,2607.0,0.43,10.03,4.22,-0.0,-0.03,-0.13,a
3904.0,3472.0,2279.0,4095.0,2813.0,2549.0,2721.0,2597.0,0.62,9.83,4.33,-0.0,0.0,-0.16,a
3413.0,3414.0,2207.0,4095.0,2736.0,2544.0,2704.0,2539.0,0.49,9.91,4.47,0.02,-0.0,-0.17,a
3406.0,3434.0,2202.0,4095.0,2736.0,2537.0,2703.0,2543.0,0.46,9.89,4.53,0.03,-0.02,-0.16,a
3407.0,3439.0,2206.0,4095.0,2743.0,2545.0,2704.0,2543.0,0.58,9.93,4.47,0.0,0.0,-0.15,a
3409.0,3422.0,2206.0,4095.0,2737.0,2542.0,2704.0,2541.0,0.52,10.01,4.38,-0.0,-0.01,-0.16,a
3401.0,3435.0,2208.0,4095.0,2743.0,2542.0,2702.0,2544.0,0.63,9.85,4.7,-0.04,-0.0,-0.17,a
3399.0,3430.0,2205.0,4095.0,2735.0,2544.0,2702.0,2540.0,0.52,9.77,4.66,0.0,-0.03,-0.18,a
3417.0,3426.0,2209.0,4095.0,2754.0,2544.0,2708.0,2542.0,0.54,9.73,4.89,-0.01,0.03,-0.18,a
3402.0,3427.0,2203.0,4095.0,2750.0,2538.0,2699.0,2539.0,0.24,9.87,4.69,0.05,-0.02,-0.15,a
3408.0,3427.0,2209.0,4095.0,2745.0,2531.0,2697.0,2539.0,0.52,9.9,4.42,0.04,0.01,-0.13,a
3396.0,3440.0,2209.0,4095.0,2748.0,2546.0,2705.0,2544.0,0.5,9.86,4.56,0.03,0.02,-0.14,a
3388.0,3420.0,2209.0,4095.0,2745.0,2541.0,2703.0,2539.0,0.51,9.87,4.48,0.02,-0.02,-0.15,a
3418.0,3435.0,2218.0,4095.0,2742.0,2544.0,2705.0,2541.0,0.35,9.95,4.5,0.0,-0.01,-0.15,a
3405.0,3421.0,2203.0,4095.0,2739.0,2544.0,2701.0,2541.0,0.51,9.9,4.64,-0.01,-0.02,-0.15,a
3394.0,3427.0,2215.0,4095.0,2747.0,2543.0,2700.0,2541.0,0.6,9.86,4.66,0.01,-0.02,-0.15,a
3392.0,3425.0,2214.0,4095.0,2745.0,2544.0,2704.0,2544.0,0.47,9.88,4.67,0.02,-0.01,-0.15,a
3397.0,3427.0,2205.0,4095.0,2748.0,2543.0,2704.0,2544.0,0.42,9.88,4.61,0.03,-0.0,-0.16,a
3408.0,3436.0,2214.0,4095.0,2747.0,2541.0,2704.0,2544.0,0.42,9.87,4.51,0.01,0.03,-0.13,a
3407.0,3428.0,2210.0,4095.0,2743.0,2540.0,2703.0,2539.0,0.59,9.99,4.55,0.01,-0.01,-0.14,a
3403.0,3419.0,2214.0,4095.0,2741.0,2530.0,2707.0,2544.0,0.62,9.9,4.57,0.01,0.01,-0.16,a
3407.0,3422.0,2205.0,4095.0,2736.0,2543.0,2707.0,2544.0,0.5,9.82,4.62,-0.03,-0.01,-0.15,a
3280.0,4095.0,2199.0,4095.0,2862.0,2613.0,2743.0,2621.0,0.24,9.96,4.39,0.02,-0.01,-0.14,a
3280.0,4090.0,2194.0,4082.0,2866.0,2615.0,2751.0,2618.0,0.35,9.84,4.42,0.03,0.01,-0.15,a
3264.0,4095.0,2201.0,4087.0,2865.0,2615.0,2747.0,2620.0,0.48,9.9,4.39,0.01,-0.01,-0.14,a
3272.0,4095.0,2194.0,4078.0,2864.0,2626.0,2747.0,2619.0,0.43,9.87,4.51,0.05,0.01,-0.16,a
3280.0,4095.0,2208.0,4095.0,2864.0,2623.0,2749.0,2624.0,0.45,9.87,4.51,0.04,0.02,-0.15,a
3265.0,4095.0,2193.0,4087.0,2865.0,2623.0,2746.0,2622.0,0.45,9.76,4.56,0.01,0.05,-0.15,a
3286.0,4095.0,2199.0,4080.0,2864.0,2621.0,2745.0,2618.0,0.37,9.96,4.46,0.03,-0.03,-0.15,a
3273.0,4095.0,2198.0,4095.0,2866.0,2624.0,2750.0,2622.0,0.5,9.85,4.44,0.01,0.03,-0.15,a
3282.0,4095.0,2199.0,4095.0,2874.0,2626.0,2748.0,2622.0,0.31,10.0,4.41,0.04,0.0,-0.16,a
3280.0,4095.0,2203.0,4095.0,2873.0,2629.0,2751.0,2622.0,0.48,9.79,4.5,0.02,0.02,-0.15,a
3276.0,4095.0,2194.0,4095.0,2868.0,2623.0,2749.0,2622.0,0.32,9.96,4.44,0.04,0.02,-0.15,a
3280.0,4095.0,2203.0,4095.0,2868.0,2624.0,2752.0,2624.0,0.3,9.87,4.41,0.06,0.03,-0.15,a
3280.0,4095.0,2201.0,4095.0,2864.0,2627.0,2746.0,2615.0,0.47,10.03,4.22,0.03,0.01,-0.15,a
3273.0,4095.0,2203.0,4095.0,2874.0,2619.0,2747.0,2624.0,0.51,9.87,4.37,0.02,0.02,-0.18,a
3271.0,4095.0,2205.0,4095.0,2867.0,2621.0,2747.0,2624.0,0.32,10.03,4.3,0.01,-0.01,-0.17,a
3277.0,4095.0,2204.0,4095.0,2867.0,2630.0,2756.0,2625.0,0.4,9.84,4.46,0.05,0.02,-0.18,a
3280.0,4095.0,2203.0,4095.0,2880.0,2622.0,2757.0,2620.0,0.37,9.97,4.37,0.03,-0.02,-0.16,a
3271.0,4095.0,2199.0,4095.0,2865.0,2624.0,2753.0,2621.0,0.37,9.82,4.39,0.01,0.03,-0.16,a
3281.0,4095.0,2210.0,4095.0,2876.0,2636.0,2758.0,2629.0,0.38,9.88,4.42,0.07,-0.03,-0.18,a
3280.0,4095.0,2202.0,4095.0,2880.0,2635.0,2768.0,2630.0,0.39,9.92,4.42,0.07,0.03,-0.16,a
3361.0,3461.0,3120.0,4095.0,2757.0,2559.0,2767.0,2535.0,0.44,9.92,4.18,0.0,-0.02,-0.15,a
3361.0,3461.0,3120.0,4095.0,2757.0,2559.0,2767.0,2535.0,0.44,9.92,4.18,0.0,-0.02,-0.15,a
3366.0,3473.0,3133.0,4095.0,2765.0,2559.0,2764.0,2540.0,0.46,9.88,4.21,0.01,0.0,-0.17,a
3356.0,3472.0,3127.0,4095.0,2757.0,2559.0,2755.0,2535.0,0.42,9.92,4.2,0.0,0.0,-0.16,a
3365.0,3459.0,3117.0,4095.0,2762.0,2559.0,2759.0,2535.0,0.42,9.87,4.24,0.04,0.01,-0.19,a
3355.0,3474.0,3113.0,4095.0,2753.0,2559.0,2762.0,2541.0,0.32,9.94,4.05,0.02,0.01,-0.17,a
3370.0,3472.0,3114.0,4095.0,2763.0,2559.0,2761.0,2542.0,0.37,9.81,4.17,0.01,0.03,-0.18,a
3368.0,3472.0,3119.0,4095.0,2763.0,2559.0,2765.0,2542.0,0.3,9.9,4.19,0.01,-0.01,-0.16,a
3370.0,3473.0,3120.0,4095.0,2755.0,2559.0,2758.0,2533.0,0.26,9.83,4.18,0.01,0.0,-0.16,a
3365.0,3468.0,3120.0,4095.0,2762.0,2559.0,2757.0,2534.0,0.29,9.91,4.27,0.02,-0.01,-0.15,a
3371.0,3470.0,3120.0,4095.0,2757.0,2559.0,2764.0,2542.0,0.46,9.9,4.16,-0.0,-0.01,-0.13,a
3369.0,3467.0,3119.0,4095.0,2761.0,2559.0,2762.0,2541.0,0.53,9.9,4.23,0.01,0.01,-0.16,a
3373.0,3468.0,3119.0,4095.0,2768.0,2559.0,2762.0,2544.0,0.42,9.88,4.25,0.01,-0.02,-0.17,a
3354.0,3483.0,3129.0,4095.0,2767.0,2580.0,2758.0,2543.0,0.18,9.86,4.21,0.04,0.02,-0.17,a
3376.0,3465.0,3120.0,4095.0,2764.0,2559.0,2768.0,2544.0,0.21,9.85,4.08,0.02,-0.01,-0.14,a
3369.0,3472.0,3113.0,4095.0,2763.0,2581.0,2762.0,2544.0,0.22,9.92,4.08,0.02,0.02,-0.13,a
3365.0,3477.0,3116.0,4095.0,2769.0,2559.0,2766.0,2539.0,0.45,9.85,4.24,0.03,-0.0,-0.13,a
3356.0,3468.0,3119.0,4095.0,2768.0,2579.0,2768.0,2544.0,0.33,10.0,4.13,0.04,0.01,-0.14,a
3373.0,3466.0,3120.0,4095.0,2759.0,2559.0,2768.0,2541.0,0.41,9.93,4.1,0.0,0.01,-0.13,a
3368.0,3472.0,3120.0,4095.0,2768.0,2559.0,2770.0,2545.0,0.36,9.9,4.07,-0.0,-0.01,-0.14,a
3280.0,3472.0,950.0,4095.0,2785.0,2547.0,2699.0,2615.0,-0.13,9.9,3.71,0.05,-0.01,-0.14,a
3280.0,3477.0,960.0,4095.0,2785.0,2547.0,2704.0,2619.0,-0.16,10.07,3.61,-0.01,0.0,-0.12,a
3289.0,3469.0,957.0,4095.0,2788.0,2543.0,2705.0,2617.0,0.1,9.87,3.85,-0.01,0.04,-0.15,a
3284.0,3477.0,959.0,4095.0,2785.0,2546.0,2706.0,2622.0,0.02,9.92,3.83,-0.01,0.03,-0.14,a
3285.0,3479.0,949.0,4095.0,2793.0,2549.0,2733.0,2624.0,-0.02,9.86,3.78,0.07,0.05,-0.18,a
3291.0,3466.0,951.0,4095.0,2791.0,2554.0,2718.0,2624.0,-0.09,9.95,3.64,-0.02,0.01,-0.13,a
3285.0,3478.0,960.0,4095.0,2796.0,2551.0,2712.0,2624.0,-0.07,9.86,3.75,0.05,0.04,-0.16,a
3286.0,3472.0,957.0,4095.0,2795.0,2554.0,2707.0,2630.0,0.02,9.9,3.61,-0.01,-0.0,-0.14,a
3291.0,3472.0,951.0,4095.0,2793.0,2554.0,2714.0,2630.0,-0.05,9.95,3.66,0.04,0.01,-0.17,a
3291.0,3463.0,951.0,4095.0,2800.0,2558.0,2718.0,2635.0,0.06,9.86,3.75,-0.06,-0.03,-0.14,a
3291.0,3457.0,951.0,4095.0,2794.0,2555.0,2708.0,2629.0,-0.13,9.9,3.9,0.04,0.0,-0.17,a
3296.0,3471.0,951.0,4095.0,2786.0,2549.0,2711.0,2631.0,0.08,9.85,3.9,-0.04,-0.02,-0.13,a
3289.0,3478.0,954.0,4095.0,2796.0,2557.0,2719.0,2640.0,-0.08,9.93,3.85,0.03,0.01,-0.17,a
3294.0,3472.0,953.0,4095.0,2800.0,2559.0,2714.0,2637.0,-0.07,9.85,3.91,-0.0,0.0,-0.14,a
3287.0,3467.0,959.0,4095.0,2800.0,2556.0,2711.0,2634.0,-0.07,9.98,3.75,0.04,0.0,-0.15,a
3293.0,3477.0,958.0,4095.0,2794.0,2559.0,2714.0,2640.0,-0.01,9.89,3.82,-0.01,-0.0,-0.13,a
3286.0,3472.0,966.0,4095.0,2794.0,2558.0,2715.0,2636.0,0.06,10.02,3.79,0.03,0.01,-0.15,a
3280.0,3466.0,957.0,4095.0,2797.0,2559.0,2721.0,2629.0,-0.01,9.91,3.83,0.0,0.01,-0.15,a
3285.0,3475.0,960.0,4095.0,2800.0,2555.0,2719.0,2633.0,0.01,9.9,3.81,0.02,0.02,-0.16,a
3281.0,3478.0,960.0,4095.0,2799.0,2559.0,2719.0,2635.0,0.01,9.91,3.77,0.02,0.02,-0.15,a
3232.0,3431.0,2147.0,4095.0,2722.0,2500.0,2670.0,2375.0,0.2,9.82,4.32,0.01,0.05,-0.14,a
3231.0,3434.0,2147.0,4095.0,2726.0,2506.0,2672.0,2378.0,0.1,9.98,4.2,0.02,-0.02,-0.14,a
3241.0,3442.0,2135.0,4095.0,2732.0,2512.0,2672.0,2386.0,0.08,9.89,4.23,0.02,0.02,-0.15,a
3248.0,3437.0,2137.0,4095.0,2728.0,2501.0,2675.0,2384.0,0.1,9.9,4.23,0.01,0.01,-0.13,a
3237.0,3429.0,2134.0,4095.0,2726.0,2511.0,2672.0,2394.0,0.0,9.88,4.23,-0.02,0.01,-0.06,a
3243.0,3434.0,2144.0,4095.0,2736.0,2512.0,2675.0,2401.0,0.09,9.9,4.42,0.06,-0.1,-0.04,a
3241.0,3435.0,2131.0,4095.0,2730.0,2508.0,2676.0,2406.0,0.49,9.93,4.23,0.07,0.03,-0.06,a
3235.0,3433.0,2141.0,4095.0,2731.0,2515.0,2675.0,2407.0,0.51,9.93,4.12,-0.02,0.04,-0.08,a
3244.0,3443.0,2139.0,4095.0,2736.0,2518.0,2681.0,2415.0,0.45,9.92,4.24,0.03,0.02,-0.16,a
3246.0,3441.0,2146.0,4095.0,2736.0,2513.0,2688.0,2416.0,0.21,10.0,4.16,0.0,0.01,-0.15,a
3248.0,3434.0,2144.0,4095.0,2736.0,2512.0,2684.0,2421.0,0.17,9.89,4.25,0.01,-0.0,-0.15,a
3245.0,3440.0,2131.0,4095.0,2740.0,2515.0,2678.0,2422.0,0.32,9.9,4.26,0.01,-0.0,-0.14,a
3239.0,3436.0,2138.0,4095.0,2736.0,2516.0,2688.0,2422.0,0.44,9.85,4.26,0.02,-0.0,-0.15,a
3245.0,3439.0,2143.0,4095.0,2743.0,2519.0,2684.0,2426.0,0.35,9.92,4.2,-0.02,-0.01,-0.14,a
3241.0,3435.0,2129.0,4095.0,2738.0,2517.0,2690.0,2433.0,0.39,9.87,4.31,0.01,0.01,-0.15,a
3233.0,3435.0,2127.0,4095.0,2736.0,2513.0,2678.0,2429.0,0.42,9.89,4.19,-0.04,-0.01,-0.12,a
3235.0,3426.0,2144.0,4095.0,2741.0,2515.0,2679.0,2427.0,0.32,9.8,4.2,0.0,0.03,-0.12,a
3254.0,3435.0,2142.0,4095.0,2742.0,2516.0,2688.0,2432.0,0.39,9.96,4.24,-0.04,0.01,-0.13,a
3248.0,3440.0,2138.0,4095.0,2741.0,2523.0,2688.0,2436.0,0.38,9.89,4.42,0.02,0.02,-0.16,a
3239.0,3433.0,2151.0,4095.0,2755.0,2514.0,2694.0,2439.0,0.38,9.98,4.29,-0.0,-0.02,-0.14,a
3328.0,3440.0,2495.0,4095.0,2733.0,2518.0,2718.0,2509.0,0.44,9.86,4.47,0.04,0.02,-0.15,a
3328.0,3440.0,2495.0,4095.0,2733.0,2518.0,2718.0,2509.0,0.44,9.86,4.47,0.04,0.02,-0.15,a
3333.0,3433.0,2496.0,4095.0,2736.0,2514.0,2714.0,2507.0,0.46,9.82,4.45,-0.03,0.0,-0.12,a
3328.0,3454.0,2491.0,4095.0,2734.0,2523.0,2714.0,2509.0,0.48,9.85,4.52,0.03,0.01,-0.15,a
3327.0,3440.0,2499.0,4095.0,2736.0,2522.0,2719.0,2506.0,0.6,9.77,4.43,-0.03,-0.01,-0.14,a
3328.0,3440.0,2500.0,4095.0,2736.0,2523.0,2717.0,2509.0,0.32,10.03,4.25,0.01,-0.05,-0.15,a
3319.0,3430.0,2497.0,4095.0,2736.0,2519.0,2717.0,2503.0,0.38,9.84,4.45,0.06,0.01,-0.16,a
3319.0,3441.0,2499.0,4095.0,2738.0,2521.0,2722.0,2511.0,0.49,9.88,4.45,-0.06,-0.01,-0.13,a
3319.0,3440.0,2495.0,4095.0,2737.0,2522.0,2713.0,2512.0,0.49,9.82,4.6,0.02,0.02,-0.16,a
3329.0,3441.0,2505.0,4095.0,2736.0,2512.0,2711.0,2512.0,0.43,9.94,4.44,0.01,-0.03,-0.15,a
3326.0,3441.0,2497.0,4095.0,2750.0,2527.0,2721.0,2514.0,0.43,9.92,4.45,0.0,0.03,-0.15,a
3330.0,3447.0,2495.0,4095.0,2743.0,2530.0,2722.0,2515.0,0.45,9.94,4.45,0.03,-0.01,-0.15,a
3335.0,3440.0,2503.0,4095.0,2744.0,2519.0,2721.0,2514.0,0.41,9.9,4.37,0.01,0.02,-0.15,a
3323.0,3440.0,2499.0,4095.0,2739.0,2540.0,2722.0,2508.0,0.35,9.93,4.43,0.0,-0.01,-0.14,a
3329.0,3443.0,2489.0,4095.0,2743.0,2527.0,2719.0,2512.0,0.45,9.91,4.48,0.02,0.01,-0.16,a
3329.0,3442.0,2493.0,4095.0,2741.0,2531.0,2714.0,2512.0,0.34,9.95,4.47,0.03,-0.01,-0.15,a
3339.0,3441.0,2493.0,4095.0,2742.0,2529.0,2718.0,2512.0,0.45,9.84,4.5,0.01,0.01,-0.14,a
3323.0,3440.0,2495.0,4095.0,2743.0,2526.0,2716.0,2514.0,0.56,9.93,4.47,0.01,-0.01,-0.14,a
3331.0,3450.0,2498.0,4095.0,2741.0,2528.0,2721.0,2513.0,0.48,9.9,4.53,0.03,0.02,-0.16,a
3327.0,3441.0,2496.0,4095.0,2748.0,2524.0,2729.0,2512.0,0.45,9.89,4.44,0.01,0.0,-0.15,a
