hall_1,hall_2,hall_3,flex_t,flex_i,flex_m,flex_r,flex_p,accel_x,accel_y,accel_z,gyro_x,gyro_y,gyro_z,hand,sign
3441.0,3481.0,3472.0,3850.0,2586.0,2221.0,2423.0,2067.0,-0.43,9.85,4.72,0.02,0.03,-0.14,0.0,a
3450.0,3497.0,3478.0,3851.0,2592.0,2224.0,2430.0,2071.0,-0.54,9.95,4.6,-0.0,-0.04,-0.17,0.0,a
3451.0,3497.0,3460.0,3865.0,2599.0,2215.0,2416.0,2080.0,-0.83,9.87,4.81,-0.03,0.03,-0.2,0.0,a
3437.0,3498.0,3465.0,3855.0,2593.0,2221.0,2432.0,2089.0,-0.64,9.79,4.81,0.03,-0.03,-0.14,0.0,a
3440.0,3475.0,3460.0,3869.0,2594.0,2223.0,2427.0,2079.0,-0.71,9.92,4.96,0.01,0.02,-0.15,0.0,a
3449.0,3484.0,3472.0,3849.0,2602.0,2219.0,2426.0,2085.0,-0.51,9.83,4.75,0.08,-0.02,-0.14,0.0,a
3453.0,3502.0,3472.0,3862.0,2606.0,2217.0,2426.0,2082.0,-0.71,9.82,4.59,0.05,-0.02,-0.16,0.0,a
3443.0,3482.0,3458.0,3867.0,2596.0,2223.0,2435.0,2080.0,-0.6,9.78,4.57,-0.02,0.03,-0.15,0.0,a
3456.0,3483.0,3457.0,3866.0,2602.0,2227.0,2437.0,2095.0,-0.43,9.84,4.75,-0.06,-0.04,-0.17,0.0,a
3454.0,3489.0,3473.0,3861.0,2608.0,2224.0,2437.0,2090.0,-0.57,10.13,4.74,-0.12,-0.02,-0.22,0.0,a
3455.0,3490.0,3478.0,3885.0,2599.0,2229.0,2434.0,2097.0,-0.81,9.79,5.6,-0.02,0.02,-0.21,0.0,a
3450.0,3507.0,3466.0,3884.0,2598.0,2224.0,2415.0,2096.0,-0.96,9.59,4.91,0.05,0.07,-0.2,0.0,a
3435.0,3495.0,3472.0,3856.0,2607.0,2235.0,2445.0,2097.0,-0.91,9.88,4.81,-0.0,0.07,-0.17,0.0,a
3440.0,3475.0,3466.0,3866.0,2599.0,2229.0,2448.0,2095.0,-0.73,9.84,4.67,0.0,-0.02,-0.14,0.0,a
3450.0,3503.0,3477.0,3857.0,2610.0,2235.0,2444.0,2101.0,-0.75,9.71,5.03,0.0,-0.03,-0.14,0.0,a
3453.0,3502.0,3462.0,3876.0,2608.0,2237.0,2449.0,2106.0,-0.79,9.83,4.86,0.0,-0.02,-0.09,0.0,a
3433.0,3481.0,3481.0,3873.0,2624.0,2231.0,2413.0,2102.0,-0.68,9.86,4.99,0.01,-0.02,-0.12,0.0,a
3471.0,3487.0,3459.0,3871.0,2618.0,2233.0,2445.0,2096.0,-0.5,9.76,4.97,0.02,-0.04,-0.16,0.0,a
3445.0,3497.0,3466.0,3876.0,2621.0,2234.0,2448.0,2112.0,-0.7,9.88,5.05,0.04,-0.03,-0.16,0.0,a
3440.0,3491.0,3472.0,3876.0,2613.0,2239.0,2448.0,2106.0,-0.82,9.79,5.01,-0.0,0.02,-0.17,0.0,a
3442.0,3478.0,3469.0,3871.0,2629.0,2244.0,2452.0,2107.0,-0.82,9.77,4.95,0.0,0.02,-0.14,0.0,a
3461.0,3498.0,3466.0,3868.0,2622.0,2236.0,2448.0,2110.0,-0.68,9.9,4.9,0.01,-0.01,-0.13,0.0,a
3447.0,3501.0,3466.0,3870.0,2631.0,2249.0,2457.0,2109.0,-0.58,9.87,4.92,-0.02,-0.03,-0.17,0.0,a
3445.0,3502.0,3472.0,3859.0,2630.0,2244.0,2459.0,2114.0,-0.87,9.86,5.18,0.04,0.01,-0.16,0.0,a
3443.0,3489.0,3472.0,3873.0,2637.0,2247.0,2450.0,2121.0,-0.73,9.84,4.92,0.01,0.03,-0.18,0.0,a
3446.0,3498.0,3475.0,3871.0,2627.0,2240.0,2458.0,2112.0,-0.89,9.74,5.08,0.03,0.0,-0.16,0.0,a
3456.0,3489.0,3474.0,3874.0,2629.0,2235.0,2458.0,2112.0,-0.57,9.88,4.87,0.0,-0.0,-0.15,0.0,a
3438.0,3497.0,3464.0,3886.0,2630.0,2244.0,2450.0,2106.0,-0.75,9.84,5.18,0.02,-0.01,-0.17,0.0,a
3443.0,3503.0,3472.0,3869.0,2629.0,2241.0,2453.0,2117.0,-0.8,9.8,4.93,0.02,0.0,-0.14,0.0,a
3451.0,3485.0,3459.0,3884.0,2634.0,2251.0,2458.0,2117.0,-0.81,9.83,4.97,0.06,0.01,-0.15,0.0,a
3440.0,3502.0,3475.0,3871.0,2630.0,2244.0,2439.0,2118.0,-0.72,9.8,4.95,0.01,0.03,-0.15,0.0,a
3452.0,3505.0,3461.0,3886.0,2635.0,2242.0,2467.0,2123.0,-0.7,9.8,4.99,0.01,0.01,-0.15,0.0,a
3446.0,3505.0,3473.0,3882.0,2640.0,2243.0,2461.0,2128.0,-0.76,9.82,4.96,0.03,-0.01,-0.16,0.0,a
3439.0,3489.0,3473.0,3882.0,2640.0,2251.0,2465.0,2131.0,-0.68,9.84,4.91,-0.03,0.05,-0.18,0.0,a
3447.0,3486.0,3463.0,3888.0,2636.0,2256.0,2466.0,2129.0,-0.69,9.73,5.09,0.01,-0.03,-0.15,0.0,a
3447.0,3511.0,3474.0,3886.0,2642.0,2253.0,2466.0,2130.0,-0.75,9.8,4.95,0.0,-0.01,-0.15,0.0,a
3448.0,3490.0,3473.0,3888.0,2642.0,2251.0,2470.0,2128.0,-0.84,9.84,5.03,0.01,0.01,-0.14,0.0,a
3439.0,3501.0,3456.0,3859.0,2640.0,2246.0,2471.0,2128.0,-0.72,9.85,4.91,-0.0,0.0,-0.15,0.0,a
3439.0,3504.0,3461.0,3869.0,2662.0,2254.0,2464.0,2131.0,-0.81,9.82,5.0,0.01,-0.01,-0.16,0.0,a
3453.0,3506.0,3473.0,3890.0,2641.0,2277.0,2480.0,2133.0,-0.85,9.8,4.94,0.02,-0.09,-0.14,0.0,a
3454.0,3499.0,3466.0,3870.0,2643.0,2256.0,2474.0,2133.0,-0.75,9.8,5.04,0.01,0.04,-0.15,0.0,a
3459.0,3515.0,3472.0,3888.0,2644.0,2255.0,2469.0,2160.0,-0.8,9.79,4.97,0.0,0.01,-0.15,0.0,a
3439.0,3513.0,3473.0,3882.0,2650.0,2255.0,2478.0,2137.0,-0.77,9.82,5.03,0.0,-0.01,-0.12,0.0,a
3456.0,3519.0,3460.0,3883.0,2656.0,2258.0,2467.0,2143.0,-0.59,9.87,5.02,-0.01,-0.0,-0.13,0.0,a
3446.0,3491.0,3477.0,3886.0,2647.0,2252.0,2476.0,2147.0,-0.85,9.86,5.05,0.0,0.0,-0.14,0.0,a
3454.0,3494.0,3462.0,3889.0,2659.0,2252.0,2473.0,2157.0,-0.55,9.83,5.07,-0.01,0.0,-0.13,0.0,a
3454.0,3501.0,3469.0,3877.0,2647.0,2254.0,2477.0,2155.0,-0.68,9.81,5.08,0.02,-0.02,-0.15,0.0,a
3440.0,3502.0,3471.0,3887.0,2655.0,2251.0,2457.0,2141.0,-0.69,9.83,5.13,0.01,-0.02,-0.14,0.0,a
3440.0,3501.0,3463.0,3887.0,2658.0,2250.0,2480.0,2150.0,-0.63,9.8,5.04,0.01,0.01,-0.15,0.0,a
3453.0,3504.0,3460.0,3898.0,2662.0,2256.0,2471.0,2136.0,-0.57,9.83,4.92,0.01,-0.05,-0.13,0.0,a
3462.0,3511.0,3472.0,3892.0,2650.0,2249.0,2484.0,2140.0,-0.69,9.87,5.09,-0.01,-0.03,-0.14,0.0,a
3442.0,3504.0,3469.0,3895.0,2657.0,2256.0,2478.0,2147.0,-0.52,9.82,5.14,0.03,-0.01,-0.15,0.0,a
3442.0,3504.0,3459.0,3889.0,2659.0,2253.0,2480.0,2150.0,-0.68,9.86,5.07,0.01,0.01,-0.16,0.0,a
3445.0,3492.0,3467.0,3888.0,2658.0,2257.0,2487.0,2148.0,-0.59,9.84,4.96,0.02,-0.01,-0.13,0.0,a
3441.0,3491.0,3472.0,3897.0,2667.0,2254.0,2485.0,2150.0,-0.61,9.86,5.11,-0.0,-0.01,-0.14,0.0,a
3446.0,3507.0,3463.0,3873.0,2659.0,2253.0,2476.0,2150.0,-0.57,9.85,5.07,0.01,0.02,-0.17,0.0,a
3445.0,3504.0,3462.0,3904.0,2657.0,2256.0,2482.0,2154.0,-0.57,9.82,5.07,0.03,0.02,-0.17,0.0,a
3444.0,3507.0,3460.0,3888.0,2672.0,2257.0,2477.0,2144.0,-0.59,9.8,4.96,0.03,-0.02,-0.17,0.0,a
3442.0,3493.0,3466.0,3889.0,2671.0,2256.0,2481.0,2160.0,-0.79,9.82,5.13,0.0,0.02,-0.17,0.0,a
3472.0,3503.0,3455.0,3874.0,2655.0,2259.0,2484.0,2159.0,-0.53,9.83,5.01,0.03,-0.01,-0.14,0.0,a
3445.0,3519.0,3457.0,3887.0,2665.0,2267.0,2485.0,2154.0,-0.72,9.86,5.03,-0.0,0.0,-0.16,0.0,a
3445.0,3506.0,3453.0,3888.0,2663.0,2261.0,2483.0,2159.0,-0.71,9.79,5.05,0.03,0.03,-0.11,0.0,a
3445.0,3499.0,3451.0,3895.0,2671.0,2259.0,2485.0,2160.0,-0.62,9.87,5.06,0.0,0.04,-0.17,0.0,a
3439.0,3517.0,3472.0,3895.0,2672.0,2259.0,2494.0,2160.0,-0.58,9.81,4.93,0.02,-0.02,-0.15,0.0,a
3440.0,3494.0,3477.0,3898.0,2672.0,2261.0,2494.0,2160.0,-0.67,9.84,5.02,0.01,0.02,-0.15,0.0,a
3440.0,3503.0,3475.0,3876.0,2667.0,2267.0,2496.0,2159.0,-0.64,9.86,5.06,0.01,-0.02,-0.15,0.0,a
3443.0,3514.0,3462.0,3899.0,2674.0,2263.0,2496.0,2160.0,-0.69,9.77,5.06,0.01,0.01,-0.17,0.0,a
3442.0,3504.0,3468.0,3917.0,2668.0,2266.0,2497.0,2165.0,-0.51,9.79,5.01,0.01,-0.01,-0.14,0.0,a
3439.0,3491.0,3468.0,3901.0,2665.0,2265.0,2503.0,2167.0,-0.74,9.83,5.25,0.03,-0.01,-0.14,0.0,a
3458.0,3492.0,3467.0,3904.0,2673.0,2267.0,2505.0,2166.0,-0.65,9.83,4.92,0.02,0.01,-0.14,0.0,a
3466.0,3504.0,3472.0,3898.0,2659.0,2266.0,2511.0,2161.0,-0.54,9.84,5.08,0.0,0.01,-0.16,0.0,a
3443.0,3504.0,3458.0,3905.0,2672.0,2267.0,2496.0,2157.0,-0.6,9.8,5.19,-0.0,-0.02,-0.16,0.0,a
3450.0,3490.0,3463.0,3909.0,2678.0,2265.0,2505.0,2157.0,-0.66,9.91,5.14,0.06,0.01,-0.17,0.0,a
3447.0,3491.0,3477.0,3888.0,2669.0,2266.0,2497.0,2150.0,-0.63,9.81,4.92,0.05,0.03,-0.18,0.0,a
3438.0,3501.0,3467.0,3895.0,2674.0,2274.0,2502.0,2161.0,-0.69,9.7,4.81,0.02,-0.02,-0.16,0.0,a
3459.0,3493.0,3461.0,3905.0,2677.0,2271.0,2502.0,2161.0,-0.79,9.86,5.02,-0.02,0.01,-0.14,0.0,a
3455.0,3488.0,3461.0,3905.0,2677.0,2271.0,2506.0,2162.0,-0.64,9.89,4.98,0.02,0.01,-0.14,0.0,a
3459.0,3492.0,3472.0,3900.0,2672.0,2272.0,2501.0,2164.0,-0.72,9.85,5.02,0.02,0.01,-0.15,0.0,a
3457.0,3503.0,3467.0,3901.0,2670.0,2271.0,2506.0,2162.0,-0.58,9.81,4.92,0.01,-0.03,-0.15,0.0,a
3440.0,3504.0,3470.0,3887.0,2673.0,2269.0,2503.0,2183.0,-0.69,9.82,5.08,0.01,-0.02,-0.15,0.0,a
3450.0,3507.0,3477.0,3905.0,2679.0,2240.0,2513.0,2172.0,-0.62,9.87,5.01,-0.0,-0.0,-0.15,0.0,a
3445.0,3497.0,3477.0,3917.0,2673.0,2247.0,2512.0,2166.0,-0.66,9.81,5.08,0.01,-0.0,-0.14,0.0,a
3440.0,3495.0,3471.0,3910.0,2687.0,2277.0,2506.0,2173.0,-0.74,9.8,5.02,-0.01,-0.01,-0.15,0.0,a
3466.0,3507.0,3456.0,3924.0,2676.0,2277.0,2519.0,2183.0,-0.45,9.84,5.13,-0.0,-0.0,-0.13,0.0,a
3445.0,3506.0,3454.0,3915.0,2679.0,2279.0,2509.0,2175.0,-0.57,9.87,5.11,0.01,-0.02,-0.17,0.0,a
3461.0,3506.0,3471.0,3901.0,2674.0,2275.0,2514.0,2173.0,-0.71,9.82,5.04,0.02,-0.01,-0.14,0.0,a
3441.0,3482.0,3461.0,3914.0,2668.0,2287.0,2507.0,2167.0,-0.54,9.83,5.05,-0.0,-0.01,-0.15,0.0,a
3455.0,3515.0,3465.0,3913.0,2674.0,2256.0,2508.0,2174.0,-0.64,9.89,5.07,0.0,-0.01,-0.15,0.0,a
3445.0,3507.0,3462.0,3911.0,2688.0,2272.0,2525.0,2177.0,-0.56,9.83,5.07,0.02,-0.01,-0.16,0.0,a
3437.0,3485.0,3475.0,3920.0,2679.0,2290.0,2512.0,2173.0,-0.57,9.81,4.96,0.02,-0.02,-0.14,0.0,a
3443.0,3498.0,3456.0,3918.0,2676.0,2279.0,2525.0,2178.0,-0.83,9.72,5.04,0.02,0.0,-0.14,0.0,a
3440.0,3490.0,3463.0,3903.0,2683.0,2286.0,2534.0,2180.0,-0.34,9.88,5.14,-0.0,0.02,-0.1,0.0,a
3447.0,3504.0,3472.0,3921.0,2684.0,2288.0,2513.0,2179.0,-0.54,9.91,5.13,0.02,0.0,-0.17,0.0,a
3443.0,3489.0,3467.0,3898.0,2690.0,2279.0,2521.0,2182.0,-0.52,9.81,5.08,0.04,0.01,-0.17,0.0,a
3444.0,3518.0,3465.0,3910.0,2687.0,2275.0,2515.0,2185.0,-0.62,9.83,5.01,0.03,0.01,-0.17,0.0,a
3433.0,3504.0,3445.0,3907.0,2671.0,2281.0,2519.0,2185.0,-0.57,9.84,4.96,0.02,-0.0,-0.16,0.0,a
3440.0,3502.0,3470.0,3905.0,2672.0,2277.0,2513.0,2189.0,-0.55,9.82,5.04,0.01,-0.01,-0.15,0.0,a
3437.0,3503.0,3471.0,3897.0,2672.0,2277.0,2515.0,2181.0,-0.54,9.84,5.0,0.01,-0.02,-0.15,0.0,a
3460.0,3503.0,3465.0,3901.0,2683.0,2283.0,2519.0,2187.0,-0.69,9.83,5.13,-0.01,0.0,-0.16,0.0,a
3439.0,3509.0,3456.0,3910.0,2681.0,2279.0,2519.0,2194.0,-0.45,9.86,5.02,0.01,-0.01,-0.13,0.0,a
3456.0,3486.0,3461.0,3916.0,2683.0,2274.0,2526.0,2181.0,-0.61,9.83,5.16,0.02,0.02,-0.17,0.0,a
3438.0,3503.0,3461.0,3900.0,2686.0,2286.0,2535.0,2179.0,-0.62,9.84,4.94,0.03,-0.0,-0.15,0.0,a
3455.0,3483.0,3457.0,3922.0,2683.0,2282.0,2522.0,2187.0,-0.58,9.85,5.03,0.02,-0.0,-0.16,0.0,a
3450.0,3501.0,3469.0,3920.0,2676.0,2285.0,2528.0,2189.0,-0.62,9.87,5.0,0.01,-0.01,-0.15,0.0,a
3454.0,3502.0,3475.0,3904.0,2692.0,2287.0,2521.0,2183.0,-0.57,9.88,5.07,0.01,-0.02,-0.15,0.0,a
3453.0,3504.0,3471.0,3904.0,2683.0,2286.0,2535.0,2187.0,-0.62,9.87,5.06,0.02,0.0,-0.16,0.0,a
3455.0,3504.0,3465.0,3858.0,2679.0,2282.0,2530.0,2190.0,-0.58,9.8,5.02,0.0,0.01,-0.17,0.0,a
3437.0,3488.0,3476.0,3921.0,2689.0,2290.0,2528.0,2191.0,-0.59,9.81,5.08,0.02,0.0,-0.15,0.0,a
3439.0,3517.0,3451.0,3940.0,2689.0,2289.0,2521.0,2193.0,-0.57,9.84,5.0,0.01,0.0,-0.17,0.0,a
3447.0,3499.0,3469.0,3923.0,2679.0,2281.0,2527.0,2192.0,-0.65,9.77,5.06,0.02,-0.01,-0.15,0.0,a
3455.0,3503.0,3469.0,3905.0,2706.0,2283.0,2519.0,2192.0,-0.59,9.83,5.03,-0.0,-0.0,-0.17,0.0,a
3431.0,3502.0,3453.0,3922.0,2687.0,2288.0,2526.0,2193.0,-0.67,9.84,5.03,0.01,-0.01,-0.15,0.0,a
3446.0,3498.0,3472.0,3918.0,2686.0,2288.0,2526.0,2193.0,-0.62,9.86,5.02,0.01,0.0,-0.15,0.0,a
3445.0,3487.0,3451.0,3920.0,2691.0,2288.0,2525.0,2192.0,-0.57,9.83,5.0,0.03,-0.02,-0.16,0.0,a
3445.0,3494.0,3456.0,3921.0,2684.0,2288.0,2524.0,2190.0,-0.77,9.79,5.1,-0.0,0.01,-0.15,0.0,a
3440.0,3501.0,3447.0,3920.0,2686.0,2286.0,2531.0,2192.0,-0.5,9.85,5.06,0.01,0.0,-0.13,0.0,a
3455.0,3505.0,3464.0,3906.0,2686.0,2287.0,2526.0,2192.0,-0.62,9.84,5.03,0.01,-0.01,-0.16,0.0,a
3447.0,3498.0,3455.0,3920.0,2697.0,2283.0,2527.0,2192.0,-0.58,9.85,5.03,0.02,-0.01,-0.13,0.0,a
3450.0,3501.0,3472.0,3916.0,2689.0,2289.0,2540.0,2192.0,-0.62,9.86,5.09,0.0,0.0,-0.15,0.0,a
3447.0,3477.0,3470.0,3923.0,2703.0,2287.0,2533.0,2202.0,-0.55,9.83,5.08,0.01,0.0,-0.15,0.0,a
3443.0,3486.0,3459.0,3936.0,2688.0,2292.0,2534.0,2192.0,-0.63,9.84,5.17,0.01,-0.0,-0.16,0.0,a
3443.0,3506.0,3457.0,3904.0,2688.0,2289.0,2527.0,2197.0,-0.69,9.81,5.04,0.03,-0.0,-0.15,0.0,a
3447.0,3495.0,3476.0,3931.0,2704.0,2288.0,2533.0,2195.0,-0.47,9.79,5.1,-0.01,0.02,-0.15,0.0,a
3455.0,3495.0,3456.0,3927.0,2688.0,2287.0,2530.0,2197.0,-0.52,9.82,5.09,0.02,-0.02,-0.14,0.0,a
3445.0,3499.0,3461.0,3920.0,2690.0,2294.0,2530.0,2202.0,-0.58,9.84,5.03,0.01,-0.0,-0.17,0.0,a
3450.0,3503.0,3467.0,3906.0,2688.0,2288.0,2527.0,2197.0,-0.64,9.84,5.16,0.02,-0.02,-0.13,0.0,a
3447.0,3506.0,3463.0,3923.0,2674.0,2288.0,2533.0,2195.0,-0.54,9.87,5.06,0.0,0.01,-0.17,0.0,a
3441.0,3506.0,3454.0,3914.0,2704.0,2289.0,2543.0,2207.0,-0.58,9.81,5.1,0.02,-0.0,-0.15,0.0,a
3440.0,3493.0,3447.0,3914.0,2706.0,2293.0,2546.0,2203.0,-0.66,9.81,5.09,0.02,0.0,-0.15,0.0,a
3440.0,3491.0,3440.0,3914.0,2693.0,2292.0,2530.0,2199.0,-0.56,9.86,5.07,0.01,0.02,-0.15,0.0,a
3454.0,3499.0,3467.0,3933.0,2693.0,2288.0,2535.0,2201.0,-0.59,9.82,5.06,0.02,-0.0,-0.15,0.0,a
3435.0,3489.0,3477.0,3909.0,2697.0,2294.0,2544.0,2203.0,-0.66,9.78,5.18,0.0,0.01,-0.16,0.0,a
3441.0,3504.0,3465.0,3915.0,2703.0,2290.0,2544.0,2208.0,-0.45,9.84,5.09,0.01,0.01,-0.14,0.0,a
3440.0,3504.0,3469.0,3922.0,2703.0,2292.0,2541.0,2201.0,-0.57,9.86,5.17,0.01,0.01,-0.16,0.0,a
3457.0,3500.0,3464.0,3931.0,2695.0,2288.0,2544.0,2205.0,-0.58,9.82,5.08,0.02,-0.01,-0.16,0.0,a
3436.0,3481.0,3453.0,3919.0,2697.0,2290.0,2542.0,2202.0,-0.48,9.83,5.13,0.01,-0.01,-0.16,0.0,a
3445.0,3493.0,3472.0,3911.0,2704.0,2291.0,2549.0,2200.0,-0.6,9.84,5.03,0.03,0.01,-0.17,0.0,a
3453.0,3479.0,3453.0,3910.0,2690.0,2288.0,2545.0,2210.0,-0.57,9.75,5.15,0.01,-0.0,-0.16,0.0,a
3440.0,3497.0,3474.0,3918.0,2699.0,2290.0,2544.0,2214.0,-0.61,9.89,5.05,0.02,-0.0,-0.17,0.0,a
3450.0,3500.0,3467.0,3919.0,2693.0,2300.0,2544.0,2199.0,-0.7,9.86,5.19,0.03,0.0,-0.18,0.0,a
3441.0,3517.0,3469.0,3922.0,2697.0,2299.0,2511.0,2206.0,-0.66,9.76,4.87,0.06,-0.04,-0.16,0.0,a
3425.0,3504.0,3467.0,3932.0,2698.0,2294.0,2551.0,2202.0,-0.79,9.83,5.14,0.01,-0.0,-0.12,0.0,a
3459.0,3506.0,3472.0,3920.0,2699.0,2290.0,2549.0,2219.0,-0.65,9.85,5.04,0.04,0.02,-0.15,0.0,a
3445.0,3504.0,3473.0,3925.0,2701.0,2288.0,2547.0,2211.0,-0.54,9.79,4.78,0.02,0.02,-0.15,0.0,a
3451.0,3503.0,3456.0,3921.0,2704.0,2300.0,2543.0,2209.0,-0.62,9.84,5.12,-0.05,0.0,-0.14,0.0,a
3451.0,3509.0,3457.0,3923.0,2695.0,2289.0,2546.0,2214.0,-0.52,9.81,4.98,0.02,-0.05,-0.14,0.0,a
3446.0,3501.0,3461.0,3930.0,2700.0,2301.0,2550.0,2210.0,-0.55,9.85,5.05,-0.01,-0.02,-0.16,0.0,a
3461.0,3499.0,3461.0,3905.0,2695.0,2297.0,2555.0,2211.0,-0.49,9.86,5.15,0.05,-0.03,-0.15,0.0,a
3458.0,3504.0,3455.0,3926.0,2701.0,2299.0,2555.0,2211.0,-0.51,9.87,4.84,0.03,0.02,-0.17,0.0,a
3441.0,3504.0,3472.0,3920.0,2704.0,2293.0,2547.0,2208.0,-0.63,9.81,5.08,0.02,0.02,-0.18,0.0,a
3437.0,3495.0,3467.0,3929.0,2702.0,2292.0,2550.0,2212.0,-0.64,9.86,4.96,0.0,0.03,-0.18,0.0,a
3459.0,3504.0,3471.0,3920.0,2702.0,2292.0,2553.0,2218.0,-0.69,9.81,5.02,0.0,0.0,-0.16,0.0,a
3454.0,3504.0,3469.0,3937.0,2699.0,2304.0,2555.0,2222.0,-0.74,9.82,5.01,0.02,-0.01,-0.16,0.0,a
3454.0,3501.0,3457.0,3933.0,2704.0,2299.0,2548.0,2219.0,-0.71,9.82,5.04,0.01,0.02,-0.15,0.0,a
3435.0,3491.0,3456.0,3940.0,2707.0,2304.0,2546.0,2214.0,-0.64,9.82,5.08,0.01,0.02,-0.15,0.0,a
3450.0,3505.0,3471.0,3926.0,2711.0,2299.0,2554.0,2217.0,-0.53,9.85,4.92,0.03,-0.02,-0.15,0.0,a
3450.0,3488.0,3453.0,3931.0,2706.0,2296.0,2559.0,2214.0,-0.74,9.73,4.95,0.01,-0.03,-0.14,0.0,a
3448.0,3505.0,3463.0,3929.0,2711.0,2290.0,2553.0,2208.0,-0.56,9.91,4.99,-0.03,0.01,-0.15,0.0,a
3461.0,3488.0,3461.0,3920.0,2705.0,2291.0,2550.0,2214.0,-0.52,9.9,5.13,0.02,-0.0,-0.12,0.0,a
3457.0,3497.0,3469.0,3927.0,2715.0,2304.0,2549.0,2219.0,-0.65,9.84,5.04,0.02,-0.0,-0.17,0.0,a
3463.0,3479.0,3472.0,3932.0,2705.0,2299.0,2548.0,2222.0,-0.67,9.8,5.1,0.02,0.07,-0.16,0.0,a
3439.0,3491.0,3472.0,3931.0,2711.0,2295.0,2555.0,2215.0,-0.45,9.85,4.92,0.01,0.0,-0.15,0.0,a
3450.0,3501.0,3461.0,3914.0,2720.0,2299.0,2559.0,2209.0,-0.65,9.83,5.12,0.01,-0.02,-0.14,0.0,a
3440.0,3496.0,3460.0,3930.0,2710.0,2293.0,2555.0,2212.0,-0.56,9.91,5.04,0.02,-0.02,-0.16,0.0,a
3444.0,3503.0,3461.0,3932.0,2717.0,2302.0,2559.0,2218.0,-0.65,9.8,5.01,0.02,-0.01,-0.16,0.0,a
3445.0,3505.0,3472.0,3925.0,2714.0,2301.0,2559.0,2219.0,-0.62,9.86,4.95,0.02,-0.01,-0.15,0.0,a
3455.0,3509.0,3456.0,3945.0,2720.0,2291.0,2551.0,2223.0,-0.75,9.83,5.03,0.01,0.01,-0.16,0.0,a
3443.0,3504.0,3466.0,3931.0,2709.0,2298.0,2559.0,2219.0,-0.47,9.84,4.99,0.02,0.01,-0.15,0.0,a
3451.0,3502.0,3447.0,3935.0,2715.0,2299.0,2559.0,2214.0,-0.63,9.82,5.09,0.02,0.0,-0.16,0.0,a
3456.0,3497.0,3447.0,3924.0,2718.0,2294.0,2558.0,2214.0,-0.62,9.83,4.99,0.03,0.01,-0.15,0.0,a
3456.0,3494.0,3460.0,3919.0,2723.0,2301.0,2542.0,2210.0,-0.65,9.85,4.92,0.02,-0.02,-0.16,0.0,a
3462.0,3498.0,3470.0,3918.0,2720.0,2298.0,2554.0,2224.0,-0.63,9.85,4.98,0.01,-0.0,-0.16,0.0,a
3443.0,3503.0,3468.0,3926.0,2717.0,2296.0,2559.0,2224.0,-0.6,9.83,4.95,0.02,-0.0,-0.15,0.0,a
3440.0,3491.0,3456.0,3941.0,2711.0,2301.0,2556.0,2223.0,-0.67,9.86,4.91,0.02,0.0,-0.15,0.0,a
3445.0,3501.0,3454.0,3931.0,2711.0,2301.0,2559.0,2226.0,-0.63,9.84,4.83,0.01,-0.02,-0.17,0.0,a
3453.0,3498.0,3472.0,3923.0,2721.0,2297.0,2556.0,2230.0,-0.69,9.83,5.08,-0.01,-0.02,-0.15,0.0,a
3440.0,3489.0,3457.0,3935.0,2718.0,2291.0,2559.0,2224.0,-0.57,9.85,5.0,0.02,-0.02,-0.15,0.0,a
3441.0,3518.0,3475.0,3938.0,2734.0,2303.0,2559.0,2229.0,-0.73,9.77,5.03,0.01,0.01,-0.17,0.0,a
3455.0,3482.0,3454.0,3946.0,2726.0,2299.0,2553.0,2229.0,-0.67,9.78,4.96,0.01,0.01,-0.15,0.0,a
3435.0,3504.0,3457.0,3918.0,2721.0,2302.0,2558.0,2206.0,-0.74,9.8,4.8,-0.01,-0.03,-0.13,0.0,a
3439.0,3482.0,3468.0,3939.0,2711.0,2262.0,2559.0,2226.0,-0.51,9.94,5.22,0.02,-0.01,-0.14,0.0,a
3459.0,3495.0,3472.0,3918.0,2723.0,2297.0,2559.0,2224.0,-0.61,9.85,4.95,0.03,0.01,-0.17,0.0,a
3440.0,3499.0,3485.0,3925.0,2721.0,2304.0,2559.0,2239.0,-0.69,9.79,4.94,0.02,0.0,-0.16,0.0,a
3450.0,3516.0,3456.0,3947.0,2725.0,2304.0,2559.0,2238.0,-0.67,9.79,5.02,0.0,-0.0,-0.13,0.0,a
3440.0,3503.0,3472.0,3925.0,2713.0,2301.0,2559.0,2229.0,-0.62,9.85,5.01,0.01,0.01,-0.15,0.0,a
3447.0,3487.0,3446.0,3919.0,2726.0,2283.0,2559.0,2238.0,-0.7,9.8,5.0,0.02,0.0,-0.16,0.0,a
3450.0,3506.0,3459.0,3935.0,2720.0,2303.0,2559.0,2233.0,-0.6,9.85,4.96,0.02,0.02,-0.14,0.0,a
3422.0,929.0,3293.0,3920.0,2317.0,2096.0,2320.0,1820.0,-0.8,10.07,5.68,-0.07,0.03,-0.41,0.0,a
3408.0,928.0,3317.0,3950.0,2324.0,2101.0,2320.0,1831.0,-1.17,9.51,5.99,0.01,0.62,-0.29,0.0,a
3413.0,936.0,3309.0,3863.0,2342.0,2110.0,2320.0,1839.0,-1.3,9.77,5.53,0.04,0.32,-0.25,0.0,a
3407.0,919.0,3310.0,3806.0,2351.0,2112.0,2322.0,1847.0,-1.11,9.76,5.25,0.06,0.15,-0.22,0.0,a
3413.0,937.0,3327.0,3760.0,2340.0,2112.0,2322.0,1851.0,-0.98,9.62,4.74,0.11,0.08,-0.21,0.0,a
3425.0,930.0,3311.0,3760.0,2342.0,2113.0,2323.0,1847.0,-1.69,9.73,5.24,0.03,0.29,-0.17,0.0,a
3408.0,918.0,3312.0,3778.0,2351.0,2118.0,2329.0,1850.0,-1.04,9.78,5.06,-0.0,0.14,-0.12,0.0,a
3424.0,924.0,3307.0,3766.0,2352.0,2115.0,2334.0,1856.0,-1.12,9.69,5.06,-0.0,0.11,-0.16,0.0,a
3418.0,933.0,3313.0,3759.0,2358.0,2121.0,2338.0,1861.0,-1.37,9.71,4.91,0.04,0.26,-0.12,0.0,a
3417.0,931.0,3300.0,3774.0,2365.0,2123.0,2343.0,1865.0,-1.21,9.73,5.0,-0.01,0.2,-0.07,0.0,a
3408.0,926.0,3301.0,3763.0,2372.0,2125.0,2342.0,1879.0,-0.97,9.69,5.24,0.01,0.09,-0.11,0.0,a
3421.0,927.0,3315.0,3766.0,2370.0,2122.0,2351.0,1877.0,-1.01,9.78,5.0,0.05,0.04,-0.12,0.0,a
3421.0,927.0,3303.0,3771.0,2371.0,2127.0,2353.0,1886.0,-1.23,9.84,4.82,0.04,0.08,-0.12,0.0,a
3417.0,930.0,3296.0,3765.0,2366.0,2128.0,2353.0,1887.0,-0.99,9.84,4.9,0.08,0.1,-0.12,0.0,a
3439.0,924.0,3312.0,3786.0,2376.0,2130.0,2358.0,1903.0,-1.04,9.76,4.8,0.03,0.02,-0.16,0.0,a
3413.0,931.0,3295.0,3792.0,2377.0,2130.0,2359.0,1905.0,-1.25,9.71,4.86,0.01,-0.16,-0.13,0.0,a
3419.0,918.0,3296.0,3787.0,2379.0,2131.0,2368.0,1915.0,-0.94,9.85,4.82,0.02,-0.1,-0.07,0.0,a
3409.0,927.0,3305.0,3792.0,2383.0,2131.0,2371.0,1923.0,-0.56,9.86,5.0,-0.01,0.04,-0.09,0.0,a
3436.0,912.0,3298.0,3815.0,2391.0,2137.0,2373.0,1923.0,-0.52,9.78,4.99,0.01,0.03,-0.14,0.0,a
3417.0,930.0,3294.0,3797.0,2385.0,2135.0,2373.0,1927.0,-0.81,9.85,5.16,0.01,0.05,-0.16,0.0,a
3427.0,910.0,3299.0,3815.0,2391.0,2135.0,2379.0,1927.0,-0.86,9.85,4.88,0.03,0.03,-0.18,0.0,a
3418.0,925.0,3303.0,3813.0,2386.0,2139.0,2375.0,1934.0,-0.82,9.76,4.8,0.01,-0.03,-0.16,0.0,a
3426.0,913.0,3295.0,3824.0,2390.0,2134.0,2384.0,1936.0,-0.85,9.89,4.85,0.0,-0.01,-0.15,0.0,a
3419.0,912.0,3303.0,3822.0,2387.0,2141.0,2379.0,1936.0,-1.12,9.83,4.92,0.03,-0.0,-0.17,0.0,a
3421.0,912.0,3289.0,3824.0,2390.0,2146.0,2382.0,1938.0,-0.85,9.83,5.0,0.05,0.05,-0.18,0.0,a
3424.0,918.0,3307.0,3826.0,2402.0,2142.0,2382.0,1936.0,-0.95,9.77,4.86,0.03,0.02,-0.17,0.0,a
3427.0,912.0,3300.0,3824.0,2399.0,2146.0,2388.0,1946.0,-0.86,9.82,4.83,0.0,-0.03,-0.13,0.0,a
3422.0,912.0,3291.0,3824.0,2405.0,2151.0,2389.0,1951.0,-0.89,9.83,5.01,0.0,0.03,-0.15,0.0,a
3409.0,919.0,3313.0,3826.0,2402.0,2150.0,2385.0,1950.0,-1.05,9.84,4.96,0.03,0.03,-0.15,0.0,a
3425.0,913.0,3300.0,3834.0,2415.0,2154.0,2388.0,1955.0,-0.93,9.85,4.87,0.01,0.02,-0.16,0.0,a
3413.0,915.0,3295.0,3839.0,2404.0,2150.0,2394.0,1953.0,-0.9,9.86,4.78,0.01,-0.01,-0.13,0.0,a
3415.0,926.0,3300.0,3827.0,2403.0,2145.0,2391.0,1959.0,-0.82,9.87,4.9,0.02,0.0,-0.15,0.0,a
3429.0,919.0,3297.0,3839.0,2416.0,2152.0,2396.0,1958.0,-0.9,9.83,4.95,0.02,0.01,-0.15,0.0,a
3413.0,924.0,3289.0,3835.0,2406.0,2155.0,2398.0,1961.0,-0.91,9.82,4.91,0.02,0.03,-0.16,0.0,a
3408.0,926.0,1023.0,3828.0,2547.0,2203.0,2478.0,1981.0,-0.93,9.85,4.56,0.01,-0.02,-0.14,0.0,a
3403.0,929.0,1040.0,3826.0,2547.0,2201.0,2480.0,2000.0,-0.89,9.78,4.62,0.01,0.02,-0.16,0.0,a
3411.0,933.0,1032.0,3824.0,2546.0,2210.0,2479.0,1997.0,-0.82,9.79,4.53,0.03,-0.01,-0.14,0.0,a
3411.0,933.0,1023.0,3824.0,2553.0,2193.0,2480.0,2000.0,-0.88,9.83,4.53,0.01,0.0,-0.13,0.0,a
3409.0,933.0,1023.0,3824.0,2548.0,2211.0,2489.0,1995.0,-0.78,9.81,4.55,0.02,0.01,-0.13,0.0,a
3403.0,931.0,1019.0,3824.0,2557.0,2206.0,2485.0,1999.0,-0.84,9.93,4.59,0.03,-0.01,-0.11,0.0,a
3423.0,919.0,1021.0,3839.0,2551.0,2207.0,2479.0,1996.0,-0.89,9.86,4.55,0.04,0.01,-0.14,0.0,a
3411.0,938.0,1013.0,3834.0,2559.0,2210.0,2486.0,2000.0,-0.79,9.87,4.47,0.02,0.02,-0.15,0.0,a
3401.0,931.0,1023.0,3855.0,2555.0,2215.0,2485.0,2000.0,-0.81,9.84,4.46,0.02,-0.02,-0.15,0.0,a
3411.0,925.0,1036.0,3840.0,2559.0,2211.0,2491.0,2005.0,-0.86,9.83,4.43,0.01,-0.02,-0.13,0.0,a
3413.0,934.0,1037.0,3837.0,2559.0,2218.0,2490.0,2002.0,-0.8,9.87,4.56,0.02,-0.01,-0.15,0.0,a
3408.0,928.0,1023.0,3853.0,2559.0,2212.0,2482.0,2000.0,-0.68,9.87,4.35,0.01,-0.03,-0.14,0.0,a
3405.0,933.0,1031.0,3847.0,2559.0,2215.0,2490.0,2006.0,-0.85,9.84,4.57,-0.02,0.04,-0.15,0.0,a
3408.0,925.0,1023.0,3839.0,2559.0,2215.0,2495.0,2011.0,-0.65,9.9,4.38,0.01,-0.03,-0.15,0.0,a
3419.0,931.0,1036.0,3840.0,2559.0,2218.0,2490.0,2006.0,-0.79,9.85,4.47,0.01,-0.03,-0.15,0.0,a
3415.0,935.0,1036.0,3839.0,2544.0,2220.0,2491.0,2007.0,-0.68,9.89,4.58,0.01,-0.03,-0.14,0.0,a
3422.0,934.0,1030.0,3837.0,2555.0,2211.0,2493.0,2015.0,-0.73,9.86,4.46,0.02,0.01,-0.17,0.0,a
3413.0,927.0,1040.0,3842.0,2544.0,2215.0,2495.0,2013.0,-0.85,9.87,4.46,0.01,0.0,-0.16,0.0,a
3406.0,929.0,1040.0,3842.0,2544.0,2212.0,2486.0,2010.0,-0.83,9.82,4.46,0.01,-0.02,-0.16,0.0,a
3431.0,924.0,1023.0,3847.0,2546.0,2215.0,2498.0,2023.0,-0.83,9.82,4.5,0.02,0.01,-0.16,0.0,a
3409.0,937.0,1037.0,3854.0,2549.0,2215.0,2493.0,2021.0,-0.89,9.84,4.47,0.01,0.0,-0.16,0.0,a
3403.0,930.0,1021.0,3855.0,2549.0,2215.0,2499.0,2018.0,-0.86,9.89,4.49,0.02,0.0,-0.14,0.0,a
3410.0,933.0,1023.0,3857.0,2549.0,2219.0,2496.0,2019.0,-0.91,9.86,4.36,0.02,-0.01,-0.16,0.0,a
3411.0,925.0,1033.0,3856.0,2549.0,2215.0,2496.0,2015.0,-0.97,9.84,4.43,0.01,-0.01,-0.14,0.0,a
3414.0,937.0,1032.0,3855.0,2549.0,2223.0,2496.0,2017.0,-0.86,9.91,4.55,0.02,0.03,-0.16,0.0,a
3408.0,925.0,1023.0,3845.0,2549.0,2223.0,2497.0,2021.0,-0.76,9.85,4.46,0.02,0.0,-0.16,0.0,a
3408.0,919.0,1038.0,3872.0,2549.0,2224.0,2496.0,2028.0,-0.8,9.86,4.39,0.01,-0.01,-0.15,0.0,a
3422.0,935.0,1041.0,3861.0,2558.0,2221.0,2499.0,2023.0,-0.86,9.84,4.53,0.03,-0.0,-0.16,0.0,a
3408.0,930.0,1023.0,3856.0,2549.0,2222.0,2497.0,2022.0,-0.73,9.81,4.38,0.01,-0.01,-0.16,0.0,a
3409.0,921.0,1035.0,3869.0,2553.0,2224.0,2498.0,2031.0,-0.82,9.88,4.43,0.02,-0.02,-0.16,0.0,a
3394.0,932.0,1015.0,3860.0,2554.0,2224.0,2502.0,2021.0,-0.88,9.82,4.47,0.02,-0.01,-0.15,0.0,a
3426.0,925.0,1019.0,3855.0,2559.0,2223.0,2502.0,2023.0,-0.92,9.82,4.35,-0.01,-0.01,-0.14,0.0,a
3415.0,928.0,1035.0,3859.0,2557.0,2217.0,2502.0,2031.0,-0.82,9.95,4.52,-0.01,-0.0,-0.14,0.0,a
3407.0,933.0,1040.0,3859.0,2554.0,2224.0,2503.0,2030.0,-0.71,9.9,4.39,0.03,-0.02,-0.16,0.0,a
3405.0,934.0,1031.0,3855.0,2555.0,2223.0,2496.0,2029.0,-0.93,9.86,4.51,0.03,0.0,-0.18,0.0,a
3415.0,929.0,1038.0,3855.0,2554.0,2219.0,2494.0,2030.0,-0.89,9.79,4.31,0.02,-0.01,-0.15,0.0,a
3418.0,926.0,1023.0,3866.0,2558.0,2222.0,2497.0,2031.0,-0.84,9.85,4.44,0.0,-0.02,-0.13,0.0,a
3410.0,921.0,1033.0,3855.0,2559.0,2224.0,2497.0,2028.0,-0.84,9.92,4.54,0.02,-0.0,-0.15,0.0,a
3406.0,935.0,1037.0,3857.0,2559.0,2224.0,2498.0,2029.0,-0.88,9.81,4.5,0.01,0.01,-0.17,0.0,a
3409.0,937.0,1023.0,3861.0,2559.0,2218.0,2503.0,2029.0,-0.89,9.86,4.43,0.02,-0.01,-0.15,0.0,a
3408.0,933.0,1039.0,3870.0,2559.0,2223.0,2502.0,2032.0,-0.93,9.97,4.49,0.0,0.02,-0.15,0.0,a
3350.0,917.0,3197.0,4036.0,2608.0,2224.0,2479.0,2026.0,-0.96,9.9,4.42,0.01,-0.04,-0.16,0.0,a
3344.0,925.0,3198.0,4033.0,2608.0,2229.0,2475.0,2030.0,-1.13,9.85,4.45,0.02,-0.0,-0.16,0.0,a
3344.0,923.0,3203.0,4034.0,2617.0,2224.0,2480.0,2031.0,-0.98,9.77,4.39,-0.01,-0.05,-0.15,0.0,a
3335.0,911.0,3189.0,4022.0,2614.0,2224.0,2479.0,2027.0,-1.06,9.78,4.66,-0.03,-0.0,-0.16,0.0,a
3343.0,919.0,3207.0,4016.0,2612.0,2224.0,2477.0,2028.0,-0.99,9.77,4.69,-0.0,0.01,-0.14,0.0,a
3338.0,912.0,3199.0,4023.0,2610.0,2224.0,2478.0,2033.0,-1.01,9.84,4.54,0.0,0.03,-0.14,0.0,a
3333.0,912.0,3204.0,4030.0,2614.0,2231.0,2480.0,2031.0,-1.09,9.9,4.66,-0.02,0.03,-0.15,0.0,a
3331.0,921.0,3200.0,4033.0,2614.0,2226.0,2480.0,2030.0,-0.94,9.78,4.37,-0.01,-0.09,-0.14,0.0,a
3346.0,919.0,3191.0,4023.0,2613.0,2226.0,2478.0,2033.0,-1.21,9.85,5.0,-0.01,0.04,-0.21,0.0,a
3339.0,922.0,3188.0,4015.0,2626.0,2229.0,2477.0,2031.0,-1.02,9.85,4.56,0.03,-0.0,-0.14,0.0,a
3335.0,926.0,3199.0,4031.0,2623.0,2226.0,2478.0,2033.0,-0.97,9.88,4.64,0.05,-0.03,-0.14,0.0,a
3331.0,919.0,3199.0,4039.0,2625.0,2224.0,2480.0,2037.0,-1.09,9.83,4.31,-0.02,0.0,-0.17,0.0,a
3327.0,920.0,3198.0,4034.0,2621.0,2226.0,2485.0,2035.0,-1.22,9.69,4.86,-0.03,0.03,-0.17,0.0,a
3338.0,919.0,3190.0,4034.0,2626.0,2224.0,2482.0,2031.0,-0.94,9.83,4.76,0.05,-0.02,-0.11,0.0,a
3341.0,924.0,3199.0,4036.0,2628.0,2229.0,2480.0,2043.0,-0.92,9.91,4.6,0.01,-0.02,-0.14,0.0,a
3338.0,919.0,3202.0,4042.0,2625.0,2225.0,2480.0,2041.0,-0.92,9.78,4.72,0.0,0.01,-0.17,0.0,a
3330.0,910.0,3188.0,4042.0,2622.0,2224.0,2483.0,2039.0,-1.04,9.8,4.72,0.02,-0.03,-0.15,0.0,a
3343.0,924.0,3195.0,4042.0,2630.0,2234.0,2486.0,2045.0,-1.15,9.81,4.76,0.03,0.02,-0.18,0.0,a
3331.0,925.0,3201.0,4048.0,2629.0,2234.0,2484.0,2046.0,-1.13,9.71,4.66,0.02,0.03,-0.17,0.0,a
3330.0,912.0,3197.0,4037.0,2626.0,2233.0,2490.0,2045.0,-1.23,9.85,4.73,0.0,0.01,-0.12,0.0,a
3349.0,912.0,3207.0,4045.0,2624.0,2235.0,2491.0,2053.0,-0.84,9.84,4.67,0.02,-0.0,-0.15,0.0,a
3344.0,917.0,3200.0,4040.0,2627.0,2232.0,2486.0,2046.0,-1.05,9.77,4.7,0.01,-0.01,-0.17,0.0,a
3339.0,912.0,3194.0,4038.0,2628.0,2235.0,2480.0,2058.0,-1.13,9.75,4.54,0.01,-0.06,-0.15,0.0,a
3351.0,912.0,3207.0,4039.0,2631.0,2236.0,2491.0,2061.0,-1.2,9.84,4.59,0.02,-0.04,-0.14,0.0,a
3344.0,928.0,3202.0,4026.0,2633.0,2226.0,2493.0,2054.0,-1.13,9.8,4.7,-0.03,0.03,-0.13,0.0,a
3328.0,918.0,3209.0,4032.0,2631.0,2237.0,2487.0,2053.0,-1.22,9.81,4.58,-0.05,0.02,-0.13,0.0,a
3343.0,913.0,3195.0,4035.0,2637.0,2240.0,2496.0,2059.0,-0.88,9.83,4.71,0.06,-0.02,-0.06,0.0,a
3337.0,918.0,3199.0,4028.0,2638.0,2231.0,2495.0,2060.0,-0.93,9.82,4.6,0.0,0.03,-0.16,0.0,a
3342.0,918.0,3199.0,4044.0,2635.0,2237.0,2487.0,2054.0,-0.99,9.77,4.71,0.02,-0.01,-0.16,0.0,a
3339.0,926.0,3198.0,4044.0,2638.0,2229.0,2490.0,2054.0,-1.02,9.8,4.82,0.03,-0.0,-0.13,0.0,a
3335.0,918.0,3189.0,4048.0,2637.0,2240.0,2486.0,2059.0,-1.1,9.78,4.52,0.03,0.01,-0.15,0.0,a
3347.0,911.0,3200.0,4049.0,2634.0,2237.0,2493.0,2063.0,-0.82,9.79,4.73,0.01,0.02,-0.13,0.0,a
3338.0,912.0,3195.0,4031.0,2639.0,2229.0,2493.0,2057.0,-0.6,9.85,4.53,0.03,-0.04,-0.17,0.0,a
3344.0,931.0,3203.0,4049.0,2631.0,2240.0,2493.0,2064.0,-1.05,9.8,4.68,0.02,-0.02,-0.16,0.0,a
3347.0,927.0,3192.0,4041.0,2635.0,2249.0,2496.0,2065.0,-1.01,9.73,4.65,0.03,-0.03,-0.15,0.0,a
3341.0,912.0,3194.0,4054.0,2636.0,2235.0,2493.0,2064.0,-1.11,9.89,4.82,0.02,-0.01,-0.15,0.0,a
3344.0,924.0,3198.0,4049.0,2637.0,2237.0,2494.0,2064.0,-0.7,9.77,4.71,0.0,0.03,-0.15,0.0,a
3334.0,921.0,3207.0,4038.0,2640.0,2242.0,2495.0,2071.0,-1.13,9.9,4.76,0.04,0.05,-0.19,0.0,a
3339.0,912.0,3193.0,4039.0,2640.0,2243.0,2479.0,2066.0,-1.03,9.8,4.47,0.02,0.03,-0.17,0.0,a
3341.0,918.0,3194.0,4051.0,2645.0,2244.0,2493.0,2067.0,-1.28,9.66,4.69,-0.02,0.05,-0.15,0.0,a
3341.0,915.0,3207.0,4046.0,2640.0,2234.0,2495.0,2061.0,-0.54,9.92,4.77,0.01,-0.0,-0.09,0.0,a
3495.0,907.0,3581.0,4095.0,2645.0,2295.0,2654.0,2258.0,-0.67,9.79,4.78,0.03,-0.04,-0.13,0.0,a
3504.0,906.0,3609.0,4095.0,2642.0,2294.0,2658.0,2259.0,-0.55,9.91,4.84,-0.01,0.01,-0.13,0.0,a
3504.0,901.0,3611.0,4095.0,2641.0,2286.0,2653.0,2260.0,-0.54,9.97,4.8,0.0,0.03,-0.15,0.0,a
3511.0,894.0,3603.0,4095.0,2640.0,2288.0,2651.0,2262.0,-0.59,9.9,4.55,0.02,0.0,-0.18,0.0,a
3499.0,906.0,3605.0,4095.0,2643.0,2287.0,2647.0,2270.0,-0.72,9.83,4.78,-0.01,-0.02,-0.16,0.0,a
3504.0,909.0,3581.0,4086.0,2644.0,2288.0,2657.0,2258.0,-0.44,9.84,4.86,0.02,0.0,-0.13,0.0,a
3503.0,909.0,3612.0,4080.0,2647.0,2286.0,2649.0,2266.0,-0.55,9.88,4.58,0.02,-0.02,-0.16,0.0,a
3505.0,905.0,3619.0,4095.0,2641.0,2287.0,2647.0,2263.0,-0.62,9.83,4.71,0.01,-0.03,-0.14,0.0,a
3508.0,896.0,3601.0,4087.0,2643.0,2289.0,2655.0,2259.0,-0.54,9.84,4.67,-0.02,-0.04,-0.15,0.0,a
3511.0,893.0,3607.0,4094.0,2643.0,2290.0,2653.0,2265.0,-0.59,9.92,4.82,0.02,-0.01,-0.16,0.0,a
3504.0,905.0,3617.0,4095.0,2645.0,2288.0,2663.0,2266.0,-0.53,9.88,4.65,0.03,-0.0,-0.15,0.0,a
3489.0,898.0,3583.0,4095.0,2640.0,2288.0,2645.0,2271.0,-0.74,9.87,4.74,0.03,-0.0,-0.16,0.0,a
3504.0,899.0,3583.0,4095.0,2656.0,2287.0,2650.0,2269.0,-0.6,9.85,4.6,-0.01,-0.0,-0.13,0.0,a
3515.0,907.0,3583.0,4095.0,2651.0,2289.0,2656.0,2270.0,-0.63,9.9,4.94,0.03,0.02,-0.13,0.0,a
3503.0,899.0,3602.0,4095.0,2647.0,2294.0,2649.0,2265.0,-0.51,9.89,4.61,0.05,-0.01,-0.15,0.0,a
3501.0,911.0,3601.0,4095.0,2647.0,2295.0,2654.0,2262.0,-0.64,9.9,4.74,0.01,0.0,-0.17,0.0,a
3504.0,893.0,3611.0,4095.0,2647.0,2288.0,2654.0,2257.0,-0.55,9.87,4.76,0.05,0.0,-0.18,0.0,a
3491.0,905.0,3601.0,4095.0,2656.0,2288.0,2655.0,2266.0,-0.77,9.78,4.4,0.07,0.01,-0.18,0.0,a
3502.0,910.0,3600.0,4095.0,2657.0,2288.0,2643.0,2266.0,-0.79,9.79,4.48,0.01,-0.02,-0.16,0.0,a
3499.0,898.0,3609.0,4095.0,2654.0,2289.0,2649.0,2267.0,-0.55,9.86,4.64,0.04,-0.05,-0.13,0.0,a
3514.0,896.0,3601.0,4093.0,2655.0,2291.0,2656.0,2260.0,-0.57,9.94,4.56,0.04,0.03,-0.13,0.0,a
3497.0,899.0,3600.0,4095.0,2654.0,2288.0,2640.0,2263.0,-0.64,9.82,4.46,0.04,0.02,-0.2,0.0,a
3515.0,895.0,3600.0,4095.0,2653.0,2287.0,2654.0,2269.0,-0.78,9.78,4.37,0.05,-0.04,-0.17,0.0,a
3513.0,896.0,3583.0,4095.0,2656.0,2294.0,2644.0,2265.0,-0.69,9.86,4.61,-0.01,-0.02,-0.13,0.0,a
3504.0,893.0,3603.0,4095.0,2653.0,2289.0,2657.0,2267.0,-0.85,9.93,4.47,-0.02,0.05,-0.15,0.0,a
3495.0,912.0,3583.0,4095.0,2652.0,2288.0,2654.0,2267.0,-0.59,9.88,4.45,-0.0,0.02,-0.16,0.0,a
3504.0,896.0,3581.0,4095.0,2643.0,2288.0,2651.0,2263.0,-0.63,9.83,4.5,-0.0,-0.01,-0.14,0.0,a
3501.0,901.0,3583.0,4095.0,2647.0,2290.0,2653.0,2266.0,-0.49,9.9,4.59,0.05,-0.05,-0.18,0.0,a
3503.0,909.0,3599.0,4095.0,2651.0,2293.0,2654.0,2273.0,-0.87,9.88,4.47,-0.01,-0.0,-0.16,0.0,a
3495.0,908.0,3581.0,4094.0,2661.0,2288.0,2643.0,2276.0,-0.69,9.74,4.46,0.02,-0.02,-0.14,0.0,a
3509.0,910.0,3598.0,4095.0,2646.0,2299.0,2661.0,2270.0,-0.81,9.82,4.52,-0.0,0.02,-0.13,0.0,a
3503.0,901.0,3605.0,4095.0,2652.0,2293.0,2663.0,2272.0,-0.67,9.87,4.56,0.0,0.02,-0.12,0.0,a
3504.0,903.0,3583.0,4095.0,2646.0,2294.0,2656.0,2274.0,-0.59,9.9,4.6,0.03,0.03,-0.13,0.0,a
3507.0,912.0,3595.0,4095.0,2655.0,2303.0,2656.0,2278.0,-0.67,9.89,4.42,0.06,0.01,-0.11,0.0,a
3504.0,897.0,3583.0,4095.0,2649.0,2288.0,2657.0,2278.0,-0.47,9.98,4.43,0.04,0.0,-0.14,0.0,a
3505.0,909.0,3583.0,4095.0,2658.0,2293.0,2657.0,2269.0,-0.54,9.89,4.51,0.04,-0.02,-0.14,0.0,a
3498.0,912.0,3583.0,4095.0,2657.0,2288.0,2658.0,2256.0,-0.64,9.81,4.19,0.03,-0.02,-0.2,0.0,a
3495.0,900.0,3597.0,4095.0,2651.0,2293.0,2657.0,2270.0,-0.63,9.9,4.3,0.01,-0.04,-0.13,0.0,a
3501.0,896.0,3582.0,4095.0,2657.0,2287.0,2654.0,2268.0,-0.52,9.88,4.43,-0.0,0.01,-0.16,0.0,a
3510.0,899.0,3616.0,4095.0,2656.0,2293.0,2656.0,2267.0,-0.71,9.78,4.41,0.02,-0.0,-0.17,0.0,a
3504.0,912.0,3599.0,4095.0,2658.0,2297.0,2656.0,2266.0,-0.61,9.84,4.49,-0.0,-0.01,-0.13,0.0,a
3743.0,3973.0,3825.0,3700.0,2581.0,2275.0,2466.0,2002.0,-0.57,9.86,4.47,-0.01,0.02,-0.13,0.0,a
3747.0,3957.0,3856.0,3715.0,2559.0,2270.0,2461.0,2005.0,-0.38,9.84,4.32,-0.0,-0.01,-0.14,0.0,a
3743.0,3986.0,3831.0,3715.0,2559.0,2282.0,2454.0,2006.0,-0.58,9.85,4.35,-0.0,-0.01,-0.17,0.0,a
3737.0,3957.0,3835.0,3707.0,2585.0,2270.0,2461.0,2000.0,-0.61,9.89,4.51,-0.01,-0.02,-0.16,0.0,a
3761.0,3984.0,3841.0,3702.0,2587.0,2274.0,2458.0,2010.0,-0.57,9.87,4.52,0.01,-0.0,-0.16,0.0,a
3746.0,3979.0,3819.0,3713.0,2593.0,2274.0,2465.0,2007.0,-0.63,9.82,4.47,-0.01,0.01,-0.16,0.0,a
3759.0,3993.0,3824.0,3713.0,2589.0,2277.0,2462.0,2011.0,-0.72,9.91,4.49,0.01,0.01,-0.13,0.0,a
3748.0,3999.0,3814.0,3724.0,2594.0,2283.0,2467.0,2013.0,-0.45,9.85,4.48,0.03,0.02,-0.15,0.0,a
3745.0,3984.0,3826.0,3707.0,2595.0,2281.0,2466.0,2021.0,-0.77,9.89,4.46,0.04,0.03,-0.17,0.0,a
3751.0,4002.0,3812.0,3725.0,2603.0,2283.0,2465.0,2021.0,-0.57,9.82,4.4,-0.02,0.04,-0.14,0.0,a
3759.0,3999.0,3811.0,3725.0,2604.0,2285.0,2468.0,2031.0,-0.56,9.84,4.54,-0.0,0.0,-0.14,0.0,a
3743.0,3995.0,3808.0,3720.0,2605.0,2288.0,2467.0,2028.0,-0.6,9.92,4.45,0.01,-0.0,-0.12,0.0,a
3744.0,4026.0,3791.0,3718.0,2605.0,2288.0,2467.0,2032.0,-0.54,9.88,4.41,0.02,-0.01,-0.15,0.0,a
3741.0,4015.0,3795.0,3721.0,2612.0,2289.0,2476.0,2035.0,-0.59,9.89,4.57,-0.01,-0.01,-0.15,0.0,a
3758.0,3988.0,3811.0,3728.0,2608.0,2288.0,2466.0,2038.0,-0.63,9.91,4.6,0.02,-0.01,-0.16,0.0,a
3762.0,3997.0,3809.0,3727.0,2611.0,2287.0,2467.0,2032.0,-0.51,9.86,4.48,0.02,-0.0,-0.15,0.0,a
3767.0,4014.0,3795.0,3723.0,2619.0,2291.0,2474.0,2044.0,-0.52,9.84,4.55,0.0,0.01,-0.15,0.0,a
3749.0,4013.0,3792.0,3728.0,2610.0,2288.0,2470.0,2042.0,-0.56,9.88,4.61,0.01,0.01,-0.15,0.0,a
3759.0,3986.0,3807.0,3723.0,2623.0,2294.0,2479.0,2038.0,-0.5,9.89,4.48,0.03,0.0,-0.15,0.0,a
3753.0,4011.0,3799.0,3742.0,2622.0,2292.0,2480.0,2037.0,-0.49,9.86,4.44,0.02,-0.04,-0.15,0.0,a
3744.0,3984.0,3793.0,3742.0,2623.0,2291.0,2479.0,2042.0,-0.6,9.86,4.63,-0.0,-0.02,-0.13,0.0,a
3753.0,3993.0,3815.0,3734.0,2624.0,2293.0,2480.0,2037.0,-0.5,9.88,4.58,0.01,0.02,-0.16,0.0,a
3759.0,4016.0,3811.0,3735.0,2624.0,2293.0,2479.0,2032.0,-0.51,9.84,4.47,0.0,-0.0,-0.14,0.0,a
3759.0,3983.0,3782.0,3728.0,2624.0,2291.0,2480.0,2043.0,-0.5,9.89,4.59,-0.02,-0.01,-0.13,0.0,a
3743.0,4011.0,3818.0,3733.0,2624.0,2298.0,2482.0,2047.0,-0.45,9.94,4.63,0.02,-0.02,-0.14,0.0,a
3751.0,4016.0,3805.0,3740.0,2627.0,2302.0,2485.0,2038.0,-0.52,9.9,4.57,0.01,0.01,-0.16,0.0,a
3769.0,4003.0,3791.0,3738.0,2635.0,2304.0,2486.0,2042.0,-0.51,9.81,4.56,0.03,0.01,-0.15,0.0,a
3751.0,3991.0,3791.0,3731.0,2627.0,2295.0,2491.0,2046.0,-0.42,9.85,4.75,0.0,0.0,-0.13,0.0,a
3738.0,4001.0,3802.0,3733.0,2628.0,2301.0,2483.0,2045.0,-0.42,9.87,4.56,0.03,-0.01,-0.16,0.0,a
3749.0,3984.0,3781.0,3747.0,2633.0,2297.0,2485.0,2047.0,-0.59,9.84,4.53,0.0,-0.01,-0.15,0.0,a
3756.0,3997.0,3799.0,3746.0,2629.0,2300.0,2492.0,2057.0,-0.39,9.89,4.6,0.02,-0.0,-0.13,0.0,a
3759.0,4006.0,3792.0,3727.0,2640.0,2295.0,2491.0,2055.0,-0.5,9.88,4.65,0.0,0.02,-0.16,0.0,a
3771.0,3996.0,3786.0,3749.0,2639.0,2299.0,2480.0,2062.0,-0.42,9.86,4.59,0.03,-0.0,-0.15,0.0,a
3755.0,4003.0,3785.0,3741.0,2640.0,2303.0,2485.0,2062.0,-0.45,9.9,4.58,0.02,0.0,-0.14,0.0,a
3744.0,3998.0,3792.0,3738.0,2644.0,2302.0,2490.0,2058.0,-0.37,9.9,4.49,0.02,-0.01,-0.15,0.0,a
3763.0,3975.0,3791.0,3742.0,2640.0,2309.0,2495.0,2058.0,-0.45,9.89,4.58,0.01,-0.02,-0.14,0.0,a
3741.0,3985.0,3781.0,3750.0,2640.0,2299.0,2490.0,2059.0,-0.36,9.86,4.62,0.01,0.0,-0.16,0.0,a
3758.0,3996.0,3783.0,3733.0,2638.0,2304.0,2493.0,2059.0,-0.47,9.9,4.47,0.02,-0.02,-0.15,0.0,a
3741.0,3998.0,3806.0,3758.0,2646.0,2306.0,2492.0,2063.0,-0.3,9.83,4.72,0.03,0.0,-0.15,0.0,a
3761.0,3997.0,3799.0,3753.0,2643.0,2310.0,2493.0,2063.0,-0.51,9.93,4.57,0.04,-0.0,-0.17,0.0,a
3758.0,3986.0,3795.0,3743.0,2641.0,2302.0,2496.0,2064.0,-0.41,9.84,4.49,0.01,0.01,-0.15,0.0,a
4095.0,3258.0,3102.0,3667.0,2507.0,2265.0,2454.0,1983.0,-0.64,9.88,4.39,0.05,-0.03,-0.15,0.0,a
4095.0,3253.0,3120.0,3690.0,2511.0,2270.0,2451.0,1984.0,-0.91,9.85,4.47,0.03,-0.02,-0.15,0.0,a
4095.0,3259.0,3120.0,3687.0,2500.0,2269.0,2461.0,1982.0,-0.87,9.83,4.45,0.02,-0.02,-0.13,0.0,a
4095.0,3269.0,3106.0,3679.0,2510.0,2273.0,2463.0,1984.0,-0.79,9.91,4.39,0.02,0.01,-0.12,0.0,a
4095.0,3255.0,3115.0,3701.0,2509.0,2270.0,2465.0,1990.0,-0.77,9.87,4.42,0.03,0.02,-0.11,0.0,a
4095.0,3264.0,3117.0,3694.0,2511.0,2269.0,2462.0,1984.0,-0.76,9.9,4.41,0.03,-0.01,-0.16,0.0,a
4095.0,3263.0,3118.0,3690.0,2512.0,2263.0,2464.0,1984.0,-0.71,9.79,4.39,0.01,-0.0,-0.15,0.0,a
4095.0,3267.0,3119.0,3691.0,2495.0,2274.0,2463.0,1984.0,-0.68,9.84,4.42,0.01,0.03,-0.13,0.0,a
4095.0,3264.0,3111.0,3696.0,2513.0,2270.0,2471.0,1989.0,-0.56,9.89,4.37,0.02,0.01,-0.13,0.0,a
4095.0,3262.0,3109.0,3695.0,2516.0,2272.0,2480.0,1983.0,-0.7,9.89,4.44,0.03,0.0,-0.16,0.0,a
4095.0,3269.0,3109.0,3696.0,2514.0,2269.0,2473.0,1991.0,-0.76,9.86,4.38,0.03,0.0,-0.14,0.0,a
4095.0,3269.0,3119.0,3697.0,2519.0,2275.0,2467.0,1990.0,-0.6,9.84,4.38,0.0,0.0,-0.15,0.0,a
4095.0,3265.0,3121.0,3699.0,2514.0,2279.0,2474.0,1995.0,-0.58,9.83,4.44,0.02,-0.01,-0.15,0.0,a
4095.0,3255.0,3109.0,3700.0,2514.0,2273.0,2480.0,1998.0,-0.59,9.88,4.43,0.03,0.01,-0.12,0.0,a
4095.0,3270.0,3119.0,3696.0,2515.0,2277.0,2478.0,1997.0,-0.42,9.88,4.4,0.04,-0.0,-0.15,0.0,a
4095.0,3262.0,3115.0,3707.0,2518.0,2269.0,2480.0,1995.0,-0.65,9.82,4.46,0.02,0.02,-0.16,0.0,a
4095.0,3255.0,3107.0,3710.0,2517.0,2272.0,2480.0,1999.0,-0.63,9.9,4.25,0.02,0.01,-0.15,0.0,a
4095.0,3257.0,3102.0,3712.0,2515.0,2273.0,2483.0,1999.0,-0.53,9.93,4.4,0.01,-0.02,-0.14,0.0,a
4095.0,3252.0,3119.0,3726.0,2512.0,2283.0,2484.0,1995.0,-0.57,9.86,4.31,0.02,-0.04,-0.16,0.0,a
4095.0,3262.0,3109.0,3726.0,2514.0,2277.0,2483.0,2002.0,-0.62,9.81,4.31,0.02,-0.01,-0.15,0.0,a
4095.0,3262.0,3107.0,3702.0,2514.0,2281.0,2477.0,2000.0,-0.55,9.88,4.44,0.01,0.01,-0.13,0.0,a
4095.0,3267.0,3120.0,3714.0,2519.0,2281.0,2480.0,2000.0,-0.53,9.91,4.45,0.01,0.0,-0.15,0.0,a
4095.0,3262.0,3119.0,3718.0,2510.0,2279.0,2480.0,2001.0,-0.51,9.82,4.4,0.03,0.02,-0.16,0.0,a
4095.0,3271.0,3120.0,3709.0,2512.0,2284.0,2480.0,1999.0,-0.65,9.82,4.32,0.02,-0.02,-0.15,0.0,a
4095.0,3280.0,3120.0,3705.0,2522.0,2275.0,2481.0,2002.0,-0.55,9.87,4.36,0.0,0.1,-0.16,0.0,a
4095.0,3271.0,3115.0,3720.0,2518.0,2286.0,2483.0,2005.0,-0.52,9.91,4.46,0.02,-0.0,-0.14,0.0,a
4095.0,3255.0,3120.0,3718.0,2525.0,2287.0,2485.0,2002.0,-0.61,9.93,4.33,0.02,-0.0,-0.16,0.0,a
4095.0,3259.0,3118.0,3719.0,2525.0,2281.0,2480.0,2009.0,-0.44,9.87,4.33,0.02,-0.02,-0.16,0.0,a
4095.0,3260.0,3112.0,3719.0,2513.0,2282.0,2482.0,2009.0,-0.53,9.89,4.31,0.0,0.0,-0.17,0.0,a
4095.0,3264.0,3108.0,3713.0,2518.0,2283.0,2485.0,2006.0,-0.56,9.88,4.43,0.02,-0.01,-0.14,0.0,a
4095.0,3260.0,3121.0,3712.0,2515.0,2289.0,2487.0,2011.0,-0.4,9.85,4.37,0.01,-0.01,-0.15,0.0,a
4095.0,3273.0,3118.0,3723.0,2517.0,2287.0,2496.0,2002.0,-0.56,9.88,4.35,0.02,-0.01,-0.16,0.0,a
4095.0,3269.0,3115.0,3721.0,2522.0,2289.0,2485.0,2016.0,-0.5,9.84,4.37,-0.0,0.02,-0.16,0.0,a
4095.0,3254.0,3111.0,3723.0,2512.0,2288.0,2486.0,2007.0,-0.48,9.9,4.33,0.03,-0.01,-0.14,0.0,a
4095.0,3265.0,3120.0,3714.0,2525.0,2293.0,2495.0,2015.0,-0.53,9.89,4.31,0.02,-0.02,-0.17,0.0,a
4095.0,3269.0,3107.0,3706.0,2522.0,2288.0,2495.0,2006.0,-0.59,9.82,4.33,0.01,-0.03,-0.15,0.0,a
4095.0,3274.0,3120.0,3719.0,2527.0,2293.0,2495.0,2013.0,-0.51,9.86,4.3,0.01,-0.03,-0.14,0.0,a
4095.0,3255.0,3122.0,3714.0,2519.0,2291.0,2493.0,2018.0,-0.63,9.89,4.39,0.02,-0.01,-0.14,0.0,a
4095.0,3263.0,3124.0,3728.0,2514.0,2288.0,2496.0,2017.0,-0.59,9.87,4.31,0.01,0.01,-0.15,0.0,a
4095.0,3253.0,3103.0,3718.0,2512.0,2290.0,2495.0,2018.0,-0.53,9.84,4.33,0.04,0.01,-0.16,0.0,a
4095.0,3251.0,3120.0,3715.0,2512.0,2294.0,2496.0,2022.0,-0.52,9.9,4.43,0.0,0.03,-0.15,0.0,a
3639.0,4095.0,3280.0,3881.0,2431.0,2149.0,2384.0,1927.0,-0.33,9.82,3.96,0.03,-0.05,-0.16,0.0,a
3648.0,4095.0,3300.0,3890.0,2442.0,2146.0,2397.0,1937.0,-0.45,9.82,3.68,0.01,-0.02,-0.18,0.0,a
3637.0,4095.0,3287.0,3888.0,2433.0,2159.0,2388.0,1932.0,-0.48,9.85,4.01,-0.02,0.0,-0.14,0.0,a
3632.0,4095.0,3285.0,3882.0,2437.0,2159.0,2387.0,1936.0,-0.62,9.93,3.89,0.02,0.03,-0.15,0.0,a
3635.0,4095.0,3297.0,3882.0,2442.0,2150.0,2390.0,1942.0,-0.26,9.82,3.9,0.05,-0.04,-0.15,0.0,a
3651.0,4095.0,3294.0,3878.0,2438.0,2155.0,2385.0,1936.0,-0.57,9.85,3.84,0.02,-0.0,-0.18,0.0,a
3634.0,4095.0,3297.0,3877.0,2442.0,2149.0,2384.0,1941.0,-0.5,9.89,3.76,0.0,0.03,-0.13,0.0,a
3643.0,4095.0,3287.0,3888.0,2437.0,2149.0,2389.0,1936.0,-0.27,9.87,3.96,-0.02,-0.04,-0.16,0.0,a
3650.0,4095.0,3299.0,3883.0,2448.0,2157.0,2387.0,1937.0,-0.48,9.94,3.89,0.03,0.01,-0.16,0.0,a
3641.0,4095.0,3283.0,3885.0,2441.0,2150.0,2387.0,1939.0,-0.58,9.86,3.89,0.03,0.01,-0.17,0.0,a
3644.0,4095.0,3285.0,3889.0,2448.0,2146.0,2388.0,1939.0,-0.68,9.96,3.73,0.04,0.05,-0.14,0.0,a
3653.0,4095.0,3302.0,3885.0,2440.0,2147.0,2386.0,1935.0,-0.51,9.87,3.86,0.04,-0.02,-0.16,0.0,a
3639.0,4095.0,3302.0,3885.0,2436.0,2154.0,2384.0,1939.0,-0.62,9.99,3.73,0.02,0.02,-0.13,0.0,a
3639.0,4095.0,3290.0,3882.0,2448.0,2158.0,2385.0,1939.0,-0.39,9.87,4.02,0.03,0.06,-0.18,0.0,a
3643.0,4095.0,3301.0,3886.0,2447.0,2156.0,2391.0,1938.0,-0.53,9.88,3.78,0.04,0.01,-0.17,0.0,a
3626.0,4095.0,3287.0,3895.0,2438.0,2147.0,2386.0,1936.0,-0.49,9.93,4.07,0.01,0.03,-0.14,0.0,a
3626.0,4095.0,3290.0,3895.0,2442.0,2147.0,2385.0,1943.0,-0.7,9.98,3.68,0.03,0.11,-0.2,0.0,a
3623.0,4095.0,3291.0,3879.0,2447.0,2155.0,2384.0,1938.0,-0.32,9.75,3.76,0.04,0.02,-0.18,0.0,a
3649.0,4095.0,3307.0,3870.0,2448.0,2159.0,2384.0,1947.0,-0.64,9.82,3.73,0.02,-0.04,-0.15,0.0,a
3638.0,4095.0,3287.0,3885.0,2448.0,2155.0,2382.0,1939.0,-0.5,9.76,3.72,0.01,-0.05,-0.16,0.0,a
3642.0,4095.0,3281.0,3891.0,2446.0,2158.0,2384.0,1937.0,-0.58,9.87,3.85,0.01,-0.05,-0.11,0.0,a
3645.0,4095.0,3283.0,3874.0,2442.0,2158.0,2382.0,1941.0,-0.35,10.02,3.82,-0.0,-0.03,-0.13,0.0,a
3626.0,4095.0,3291.0,3905.0,2449.0,2156.0,2394.0,1952.0,-0.55,9.87,3.82,0.02,-0.0,-0.17,0.0,a
3630.0,4095.0,3295.0,3888.0,2451.0,2144.0,2383.0,1936.0,-0.49,9.6,3.98,-0.02,-0.02,-0.14,0.0,a
3643.0,4095.0,3280.0,3882.0,2448.0,2165.0,2399.0,1952.0,-0.67,9.84,4.18,0.01,0.02,-0.14,0.0,a
3621.0,4095.0,3303.0,3891.0,2449.0,2165.0,2394.0,1950.0,-0.39,9.98,3.69,0.05,0.02,-0.17,0.0,a
3632.0,4095.0,3285.0,3893.0,2453.0,2161.0,2399.0,1946.0,-0.5,9.73,4.19,0.06,-0.0,-0.2,0.0,a
3634.0,4095.0,3295.0,3886.0,2456.0,2161.0,2400.0,1955.0,-0.48,9.75,3.43,0.04,0.04,-0.15,0.0,a
3651.0,4095.0,3280.0,3895.0,2455.0,2170.0,2399.0,1955.0,-0.68,9.94,3.71,-0.06,0.01,-0.1,0.0,a
3653.0,4095.0,3291.0,3888.0,2453.0,2171.0,2406.0,1962.0,-0.26,9.9,3.87,0.03,-0.01,-0.18,0.0,a
3647.0,4095.0,3291.0,3877.0,2455.0,2160.0,2402.0,1954.0,-0.87,9.82,3.8,0.04,-0.04,-0.17,0.0,a
3637.0,4095.0,3285.0,3894.0,2452.0,2165.0,2410.0,1951.0,-0.49,9.74,3.77,0.01,-0.0,-0.15,0.0,a
3639.0,4095.0,3280.0,3877.0,2458.0,2166.0,2403.0,1953.0,-0.69,10.05,3.58,-0.0,-0.02,-0.12,0.0,a
3636.0,4095.0,3278.0,3893.0,2453.0,2173.0,2400.0,1955.0,-0.55,9.79,3.84,0.02,-0.01,-0.15,0.0,a
3644.0,4095.0,3281.0,3870.0,2453.0,2178.0,2411.0,1951.0,-0.74,9.92,3.75,0.03,-0.03,-0.13,0.0,a
3655.0,4095.0,3289.0,3878.0,2454.0,2166.0,2412.0,1958.0,-0.39,9.9,3.58,0.03,-0.03,-0.14,0.0,a
3643.0,4095.0,3294.0,3910.0,2463.0,2169.0,2413.0,1954.0,-0.61,9.79,3.83,0.03,-0.02,-0.14,0.0,a
3633.0,4095.0,3299.0,3899.0,2462.0,2170.0,2407.0,1965.0,-0.52,10.04,3.72,-0.01,0.0,-0.14,0.0,a
3621.0,4095.0,3306.0,3890.0,2451.0,2175.0,2399.0,1957.0,-0.4,9.78,3.81,0.05,-0.08,-0.15,0.0,a
3618.0,4095.0,3279.0,3882.0,2456.0,2171.0,2410.0,1953.0,-0.85,9.77,4.01,-0.02,0.02,-0.13,0.0,a
3632.0,4095.0,3288.0,3904.0,2451.0,2167.0,2414.0,1959.0,-0.4,9.96,3.72,0.02,0.03,-0.13,0.0,a
4095.0,3606.0,3147.0,3712.0,2480.0,2253.0,2448.0,1936.0,-1.52,9.65,4.69,-0.0,-0.03,-0.14,0.0,a
4095.0,3583.0,3153.0,3717.0,2480.0,2251.0,2448.0,1934.0,-1.61,9.74,4.73,0.02,-0.03,-0.13,0.0,a
4095.0,3583.0,3147.0,3717.0,2479.0,2255.0,2447.0,1932.0,-1.58,9.82,4.66,-0.02,0.04,-0.14,0.0,a
4095.0,3582.0,3143.0,3722.0,2478.0,2251.0,2448.0,1936.0,-1.52,9.69,4.96,0.04,0.03,-0.16,0.0,a
4095.0,3581.0,3150.0,3716.0,2480.0,2254.0,2451.0,1938.0,-1.66,9.74,4.53,0.03,-0.01,-0.17,0.0,a
4095.0,3583.0,3147.0,3713.0,2487.0,2255.0,2452.0,1945.0,-1.4,9.64,4.91,-0.01,-0.0,-0.17,0.0,a
4095.0,3600.0,3143.0,3716.0,2479.0,2256.0,2448.0,1942.0,-1.51,9.67,4.7,0.03,-0.05,-0.16,0.0,a
4095.0,3600.0,3150.0,3722.0,2483.0,2255.0,2455.0,1940.0,-1.68,9.79,4.79,0.0,-0.01,-0.14,0.0,a
4095.0,3599.0,3138.0,3719.0,2492.0,2255.0,2462.0,1949.0,-1.49,9.78,4.83,0.02,0.02,-0.15,0.0,a
4095.0,3583.0,3152.0,3731.0,2486.0,2261.0,2460.0,1943.0,-1.6,9.75,4.58,0.03,0.0,-0.17,0.0,a
4095.0,3583.0,3155.0,3716.0,2490.0,2257.0,2459.0,1945.0,-1.3,9.92,4.56,-0.09,-0.01,-0.19,0.0,a
4095.0,3598.0,3155.0,3707.0,2496.0,2261.0,2459.0,1943.0,-1.72,9.46,5.17,0.03,-0.07,-0.15,0.0,a
4095.0,3583.0,3146.0,3702.0,2496.0,2256.0,2458.0,1949.0,-1.53,9.64,4.7,0.02,-0.01,-0.15,0.0,a
4095.0,3577.0,3149.0,3708.0,2496.0,2258.0,2458.0,1947.0,-1.72,9.68,5.1,0.01,0.01,-0.19,0.0,a
4095.0,3583.0,3149.0,3723.0,2499.0,2261.0,2460.0,1951.0,-1.55,9.67,4.78,0.04,-0.03,-0.17,0.0,a
4095.0,3579.0,3151.0,3727.0,2498.0,2259.0,2457.0,1953.0,-1.79,9.71,4.71,0.04,-0.05,-0.13,0.0,a
4095.0,3597.0,3157.0,3728.0,2498.0,2261.0,2464.0,1938.0,-1.65,9.7,4.84,0.01,-0.02,-0.12,0.0,a
4095.0,3583.0,3155.0,3728.0,2498.0,2261.0,2459.0,1957.0,-1.71,9.75,4.86,0.02,-0.0,-0.15,0.0,a
4095.0,3597.0,3142.0,3731.0,2498.0,2259.0,2459.0,1953.0,-1.5,9.72,4.75,0.01,0.02,-0.14,0.0,a
4095.0,3579.0,3152.0,3732.0,2501.0,2267.0,2462.0,1957.0,-1.55,9.68,4.89,0.04,0.03,-0.16,0.0,a
4095.0,3579.0,3148.0,3725.0,2510.0,2263.0,2468.0,1952.0,-1.52,9.73,4.8,0.05,0.01,-0.15,0.0,a
4095.0,3604.0,3154.0,3717.0,2512.0,2266.0,2469.0,1947.0,-1.48,9.58,4.22,0.07,-0.09,-0.13,0.0,a
4095.0,3601.0,3152.0,3719.0,2509.0,2259.0,2459.0,1952.0,-1.41,9.91,4.92,-0.01,-0.04,-0.15,0.0,a
4095.0,3607.0,3142.0,3727.0,2514.0,2268.0,2469.0,1962.0,-1.76,9.64,4.97,0.03,0.0,-0.15,0.0,a
4095.0,3599.0,3152.0,3721.0,2512.0,2265.0,2467.0,1962.0,-1.48,9.73,4.51,0.01,-0.13,-0.11,0.0,a
4095.0,3583.0,3147.0,3722.0,2508.0,2265.0,2470.0,1961.0,-1.4,9.74,4.94,-0.01,-0.04,-0.16,0.0,a
4095.0,3583.0,3149.0,3734.0,2515.0,2267.0,2469.0,1967.0,-1.51,9.76,4.76,0.03,-0.02,-0.16,0.0,a
4095.0,3600.0,3151.0,3728.0,2512.0,2269.0,2467.0,1967.0,-1.66,9.73,4.57,0.04,0.03,-0.17,0.0,a
4095.0,3583.0,3140.0,3727.0,2515.0,2258.0,2466.0,1969.0,-1.61,9.71,4.68,0.01,-0.02,-0.16,0.0,a
4095.0,3605.0,3151.0,3740.0,2511.0,2270.0,2476.0,1967.0,-1.59,9.77,4.59,-0.02,-0.04,-0.16,0.0,a
4095.0,3583.0,3141.0,3734.0,2513.0,2262.0,2470.0,1969.0,-1.62,9.71,4.89,0.04,-0.0,-0.13,0.0,a
4095.0,3603.0,3153.0,3722.0,2513.0,2269.0,2474.0,1974.0,-1.45,9.67,4.72,0.01,0.04,-0.14,0.0,a
4095.0,3602.0,3142.0,3716.0,2523.0,2270.0,2474.0,1970.0,-1.49,9.77,4.82,0.03,0.0,-0.15,0.0,a
4095.0,3583.0,3151.0,3728.0,2519.0,2269.0,2477.0,1968.0,-1.54,9.76,4.65,0.04,0.0,-0.16,0.0,a
4095.0,3596.0,3153.0,3728.0,2521.0,2271.0,2479.0,1973.0,-1.5,9.72,4.71,0.01,-0.02,-0.17,0.0,a
4095.0,3583.0,3147.0,3729.0,2522.0,2272.0,2476.0,1972.0,-1.66,9.71,4.83,0.0,0.01,-0.15,0.0,a
4095.0,3597.0,3152.0,3734.0,2523.0,2278.0,2475.0,1974.0,-1.59,9.71,4.81,0.02,0.05,-0.16,0.0,a
4095.0,3569.0,3142.0,3737.0,2530.0,2271.0,2479.0,1979.0,-1.33,9.81,4.5,0.02,-0.01,-0.13,0.0,a
4095.0,3583.0,3141.0,3729.0,2527.0,2271.0,2478.0,1975.0,-1.6,9.75,4.8,-0.02,0.01,-0.19,0.0,a
4095.0,3582.0,3157.0,3733.0,2526.0,2267.0,2480.0,1975.0,-1.58,9.71,4.67,0.03,-0.03,-0.15,0.0,a
4095.0,3580.0,3145.0,3734.0,2527.0,2268.0,2479.0,1980.0,-1.67,9.75,4.72,-0.03,0.01,-0.16,0.0,a
3274.0,3639.0,3224.0,3742.0,2418.0,2234.0,2447.0,2043.0,-1.41,9.69,4.33,0.03,0.0,-0.12,0.0,a
3282.0,3653.0,3225.0,3759.0,2421.0,2230.0,2455.0,2039.0,-1.4,9.8,4.41,-0.02,-0.06,-0.13,0.0,a
3260.0,3642.0,3216.0,3762.0,2425.0,2228.0,2453.0,2046.0,-1.32,9.8,4.56,-0.01,-0.09,-0.15,0.0,a
3277.0,3638.0,3221.0,3757.0,2426.0,2234.0,2455.0,2043.0,-1.51,9.67,4.59,0.02,-0.03,-0.17,0.0,a
3271.0,3638.0,3215.0,3753.0,2421.0,2238.0,2455.0,2045.0,-1.67,9.74,4.43,0.03,0.03,-0.16,0.0,a
3267.0,3643.0,3211.0,3742.0,2429.0,2230.0,2450.0,2043.0,-1.52,9.77,4.41,0.02,0.01,-0.15,0.0,a
3271.0,3637.0,3219.0,3755.0,2416.0,2229.0,2459.0,2046.0,-1.69,9.76,4.55,0.01,0.03,-0.17,0.0,a
3280.0,3647.0,3230.0,3760.0,2418.0,2230.0,2460.0,2047.0,-1.66,9.74,4.52,0.01,0.02,-0.16,0.0,a
3259.0,3646.0,3221.0,3759.0,2418.0,2231.0,2455.0,2054.0,-1.62,9.77,4.54,0.04,-0.04,-0.14,0.0,a
3279.0,3632.0,3220.0,3758.0,2418.0,2237.0,2452.0,2057.0,-1.68,9.7,4.58,0.03,0.01,-0.16,0.0,a
3289.0,3642.0,3219.0,3755.0,2427.0,2234.0,2464.0,2058.0,-1.72,9.74,4.49,0.0,0.06,-0.16,0.0,a
3264.0,3627.0,3225.0,3745.0,2420.0,2224.0,2461.0,2055.0,-1.58,9.75,4.56,0.04,0.02,-0.15,0.0,a
3265.0,3649.0,3216.0,3760.0,2421.0,2234.0,2463.0,2055.0,-1.58,9.53,4.63,0.04,0.0,-0.18,0.0,a
3270.0,3633.0,3227.0,3749.0,2427.0,2231.0,2461.0,2055.0,-1.79,9.77,4.41,-0.02,0.04,-0.09,0.0,a
3280.0,3625.0,3222.0,3754.0,2431.0,2236.0,2460.0,2055.0,-1.17,9.85,4.54,-0.08,0.06,-0.15,0.0,a
3263.0,3631.0,3217.0,3762.0,2432.0,2237.0,2464.0,2063.0,-1.52,9.61,4.68,0.01,-0.05,-0.17,0.0,a
3266.0,3643.0,3217.0,3760.0,2429.0,2231.0,2464.0,2063.0,-1.53,9.75,4.46,0.02,-0.03,-0.15,0.0,a
3264.0,3629.0,3227.0,3755.0,2429.0,2235.0,2469.0,2064.0,-1.81,9.69,4.5,0.03,-0.07,-0.17,0.0,a
3253.0,3630.0,3230.0,3753.0,2431.0,2238.0,2467.0,2064.0,-1.7,9.67,4.79,-0.0,0.05,-0.14,0.0,a
3268.0,3635.0,3220.0,3755.0,2434.0,2235.0,2467.0,2063.0,-1.66,9.78,4.6,0.03,0.03,-0.15,0.0,a
3257.0,3627.0,3219.0,3761.0,2434.0,2239.0,2468.0,2058.0,-1.59,9.65,4.71,0.04,0.02,-0.16,0.0,a
3263.0,3636.0,3226.0,3755.0,2442.0,2231.0,2470.0,2061.0,-1.45,9.68,4.58,0.01,-0.01,-0.13,0.0,a
3271.0,3627.0,3220.0,3769.0,2442.0,2242.0,2466.0,2065.0,-1.6,9.78,4.52,-0.0,-0.03,-0.13,0.0,a
3266.0,3627.0,3226.0,3765.0,2442.0,2240.0,2469.0,2064.0,-1.34,9.72,4.72,-0.02,0.01,-0.15,0.0,a
3280.0,3642.0,3218.0,3760.0,2439.0,2242.0,2466.0,2064.0,-1.46,9.78,4.57,0.02,-0.01,-0.16,0.0,a
3278.0,3634.0,3217.0,3770.0,2438.0,2240.0,2471.0,2064.0,-1.64,9.71,4.45,0.04,-0.08,-0.14,0.0,a
3270.0,3617.0,3218.0,3760.0,2441.0,2237.0,2471.0,2064.0,-1.52,9.8,4.6,0.01,-0.09,-0.12,0.0,a
3268.0,3632.0,3227.0,3766.0,2439.0,2241.0,2473.0,2066.0,-1.53,9.8,4.76,0.02,0.02,-0.17,0.0,a
3279.0,3630.0,3216.0,3775.0,2443.0,2241.0,2468.0,2065.0,-1.49,9.71,4.49,0.05,-0.04,-0.15,0.0,a
3263.0,3618.0,3228.0,3771.0,2443.0,2245.0,2475.0,2069.0,-1.64,9.81,4.53,0.01,-0.05,-0.14,0.0,a
3275.0,3632.0,3225.0,3761.0,2443.0,2240.0,2474.0,2066.0,-1.57,9.75,4.49,0.03,0.0,-0.15,0.0,a
3277.0,3629.0,3211.0,3761.0,2447.0,2243.0,2475.0,2064.0,-1.48,9.71,4.51,0.0,0.01,-0.15,0.0,a
3279.0,3632.0,3219.0,3771.0,2445.0,2242.0,2478.0,2074.0,-1.45,9.71,4.54,-0.0,-0.03,-0.15,0.0,a
3271.0,3622.0,3215.0,3771.0,2439.0,2243.0,2477.0,2075.0,-1.54,9.7,4.61,-0.0,-0.01,-0.15,0.0,a
3269.0,3626.0,3219.0,3770.0,2449.0,2250.0,2477.0,2074.0,-1.5,9.69,4.49,0.0,-0.02,-0.14,0.0,a
3271.0,3626.0,3229.0,3771.0,2447.0,2243.0,2479.0,2074.0,-1.53,9.75,4.64,0.01,0.02,-0.14,0.0,a
3267.0,3629.0,3227.0,3770.0,2445.0,2242.0,2479.0,2071.0,-1.51,9.73,4.51,0.01,0.01,-0.15,0.0,a
3264.0,3625.0,3235.0,3771.0,2445.0,2243.0,2470.0,2069.0,-1.44,9.72,4.7,0.02,0.0,-0.12,0.0,a
3275.0,3637.0,3234.0,3767.0,2448.0,2246.0,2479.0,2069.0,-1.53,9.73,4.58,0.02,-0.02,-0.14,0.0,a
3271.0,3643.0,3216.0,3771.0,2448.0,2240.0,2479.0,2068.0,-1.46,9.72,4.58,0.03,0.01,-0.15,0.0,a
3274.0,3627.0,3218.0,3761.0,2437.0,2248.0,2480.0,2076.0,-1.48,9.8,4.47,0.02,-0.01,-0.15,0.0,a
4095.0,3333.0,3405.0,3874.0,2493.0,2239.0,2477.0,2014.0,-1.55,9.78,4.76,-0.01,-0.02,-0.14,0.0,a
4095.0,3340.0,3409.0,3870.0,2494.0,2240.0,2477.0,2016.0,-1.44,9.81,4.66,0.02,-0.03,-0.14,0.0,a
4095.0,3335.0,3407.0,3883.0,2495.0,2240.0,2475.0,2023.0,-1.35,9.73,4.7,-0.01,-0.01,-0.16,0.0,a
4095.0,3321.0,3407.0,3888.0,2491.0,2245.0,2481.0,2018.0,-1.53,9.71,4.91,0.02,0.01,-0.14,0.0,a
4095.0,3330.0,3396.0,3886.0,2489.0,2237.0,2477.0,2023.0,-1.38,9.76,4.71,0.03,0.0,-0.13,0.0,a
4095.0,3344.0,3403.0,3888.0,2491.0,2235.0,2477.0,2030.0,-1.39,9.75,4.92,-0.0,0.04,-0.15,0.0,a
4095.0,3344.0,3397.0,3881.0,2483.0,2244.0,2477.0,2026.0,-1.38,9.76,4.72,0.03,0.01,-0.16,0.0,a
4095.0,3347.0,3397.0,3895.0,2495.0,2242.0,2480.0,2031.0,-1.5,9.75,4.77,0.02,-0.02,-0.15,0.0,a
4095.0,3343.0,3408.0,3897.0,2486.0,2241.0,2480.0,2030.0,-1.2,9.79,4.94,-0.01,0.03,-0.17,0.0,a
4095.0,3344.0,3418.0,3879.0,2495.0,2240.0,2481.0,2032.0,-1.42,9.77,4.77,0.07,-0.02,-0.15,0.0,a
4095.0,3349.0,3406.0,3893.0,2489.0,2240.0,2479.0,2032.0,-1.42,9.76,4.73,-0.0,0.01,-0.16,0.0,a
4095.0,3335.0,3410.0,3889.0,2486.0,2242.0,2481.0,2032.0,-1.37,9.72,4.94,0.05,0.0,-0.16,0.0,a
4095.0,3350.0,3410.0,3891.0,2486.0,2242.0,2487.0,2032.0,-1.31,9.73,4.78,0.01,-0.02,-0.15,0.0,a
4095.0,3345.0,3408.0,3903.0,2492.0,2250.0,2487.0,2030.0,-1.42,9.68,4.94,0.02,0.0,-0.16,0.0,a
4095.0,3358.0,3422.0,3886.0,2484.0,2242.0,2489.0,2032.0,-1.3,9.74,4.76,0.02,-0.0,-0.16,0.0,a
4095.0,3366.0,3408.0,3898.0,2486.0,2244.0,2496.0,2032.0,-1.4,9.78,4.82,0.02,-0.0,-0.16,0.0,a
4095.0,3368.0,3406.0,3889.0,2480.0,2247.0,2490.0,2033.0,-1.53,9.72,4.71,0.02,0.0,-0.15,0.0,a
4095.0,3355.0,3404.0,3890.0,2485.0,2247.0,2490.0,2036.0,-1.39,9.73,4.8,0.01,0.04,-0.13,0.0,a
4095.0,3355.0,3405.0,3893.0,2491.0,2246.0,2485.0,2037.0,-1.22,9.74,4.85,0.01,-0.01,-0.14,0.0,a
4095.0,3355.0,3419.0,3890.0,2492.0,2245.0,2489.0,2032.0,-1.37,9.76,4.79,0.0,-0.02,-0.16,0.0,a
4095.0,3350.0,3408.0,3888.0,2495.0,2246.0,2493.0,2035.0,-1.33,9.79,4.87,-0.01,-0.02,-0.15,0.0,a
4095.0,3356.0,3406.0,3889.0,2487.0,2251.0,2494.0,2033.0,-1.47,9.72,4.79,0.01,-0.02,-0.15,0.0,a
4095.0,3339.0,3409.0,3898.0,2484.0,2247.0,2496.0,2038.0,-1.25,9.8,4.69,0.02,-0.05,-0.14,0.0,a
4095.0,3342.0,3403.0,3888.0,2487.0,2243.0,2492.0,2039.0,-1.42,9.75,4.93,0.03,-0.0,-0.15,0.0,a
4095.0,3344.0,3421.0,3894.0,2481.0,2250.0,2491.0,2041.0,-1.37,9.74,4.86,-0.0,0.03,-0.15,0.0,a
4095.0,3340.0,3413.0,3888.0,2482.0,2251.0,2489.0,2038.0,-1.45,9.72,4.74,0.01,-0.01,-0.16,0.0,a
4095.0,3357.0,3405.0,3906.0,2490.0,2249.0,2480.0,2042.0,-1.53,9.81,4.82,-0.01,0.01,-0.12,0.0,a
4095.0,3344.0,3403.0,3889.0,2485.0,2250.0,2493.0,2046.0,-1.33,9.9,4.85,0.01,-0.0,-0.14,0.0,a
4095.0,3346.0,3408.0,3899.0,2482.0,2253.0,2495.0,2042.0,-1.41,9.76,4.79,0.02,-0.01,-0.16,0.0,a
4095.0,3351.0,3408.0,3888.0,2480.0,2247.0,2496.0,2041.0,-1.48,9.81,4.89,0.01,-0.02,-0.14,0.0,a
4095.0,3358.0,3407.0,3897.0,2474.0,2253.0,2496.0,2045.0,-1.39,9.81,4.9,0.01,-0.01,-0.17,0.0,a
4095.0,3359.0,3405.0,3903.0,2475.0,2249.0,2498.0,2045.0,-1.34,9.75,4.76,0.03,0.0,-0.15,0.0,a
4095.0,3347.0,3397.0,3889.0,2486.0,2249.0,2496.0,2045.0,-1.4,9.76,4.82,0.03,0.01,-0.15,0.0,a
4095.0,3357.0,3404.0,3909.0,2480.0,2251.0,2498.0,2043.0,-1.39,9.76,4.85,0.03,-0.0,-0.16,0.0,a
4095.0,3355.0,3409.0,3910.0,2482.0,2254.0,2501.0,2053.0,-1.39,9.74,4.86,0.02,0.0,-0.16,0.0,a
4095.0,3358.0,3408.0,3920.0,2485.0,2255.0,2499.0,2055.0,-1.44,9.72,4.86,0.02,-0.0,-0.15,0.0,a
4095.0,3347.0,3407.0,3904.0,2462.0,2253.0,2499.0,2042.0,-1.34,9.78,4.75,-0.01,-0.03,-0.14,0.0,a
4095.0,3367.0,3403.0,3933.0,2475.0,2255.0,2500.0,2047.0,-1.34,9.75,4.91,0.0,0.0,-0.15,0.0,a
4095.0,3361.0,3405.0,3913.0,2473.0,2253.0,2503.0,2053.0,-1.46,9.8,4.81,0.04,-0.01,-0.16,0.0,a
4095.0,3371.0,3408.0,3925.0,2463.0,2251.0,2506.0,2057.0,-1.53,9.72,4.81,0.03,0.02,-0.16,0.0,a
4095.0,3344.0,3408.0,3934.0,2449.0,2255.0,2497.0,2055.0,-1.4,9.76,4.88,0.02,0.03,-0.16,0.0,a
