hall_1,hall_2,hall_3,flex_t,flex_i,flex_m,flex_r,flex_p,accel_x,accel_y,accel_z,gyro_x,gyro_y,gyro_z,hand,sign
3159.0,3395.0,3113.0,4095.0,3813.0,3183.0,3243.0,3476.0,-1.39,9.69,2.46,-0.08,0.01,0.01,1.0,a
3158.0,3397.0,3126.0,4095.0,3819.0,3185.0,3249.0,3475.0,-1.23,9.64,2.57,-0.12,-0.01,0.01,1.0,a
3159.0,3399.0,3120.0,4095.0,3824.0,3185.0,3248.0,3475.0,-1.22,9.65,2.68,-0.12,-0.02,0.0,1.0,a
3153.0,3385.0,3125.0,4095.0,3811.0,3186.0,3248.0,3476.0,-1.28,9.58,2.72,-0.11,-0.02,-0.01,1.0,a
3169.0,3391.0,3127.0,4095.0,3815.0,3189.0,3249.0,3481.0,-1.3,9.62,2.66,-0.09,0.0,0.01,1.0,a
3174.0,3395.0,3120.0,4095.0,3822.0,3184.0,3239.0,3477.0,-1.3,9.64,2.6,-0.12,-0.02,-0.0,1.0,a
3163.0,3404.0,3120.0,4095.0,3823.0,3187.0,3247.0,3483.0,-1.26,9.58,2.79,-0.12,0.0,0.01,1.0,a
3155.0,3389.0,3117.0,4095.0,3815.0,3185.0,3241.0,3472.0,-1.28,9.55,2.94,-0.1,0.01,0.01,1.0,a
3164.0,3399.0,3127.0,4095.0,3820.0,3193.0,3244.0,3467.0,-1.05,9.59,2.95,-0.07,-0.0,-0.02,1.0,a
3153.0,3379.0,3119.0,4095.0,3818.0,3184.0,3243.0,3478.0,-1.05,9.54,2.88,-0.09,-0.04,-0.03,1.0,a
3162.0,3380.0,3120.0,4095.0,3812.0,3186.0,3243.0,3481.0,-1.12,9.6,2.82,-0.05,-0.01,-0.03,1.0,a
3169.0,3394.0,3122.0,4095.0,3817.0,3184.0,3239.0,3472.0,-1.18,9.58,2.82,-0.08,-0.04,-0.02,1.0,a
3166.0,3391.0,3121.0,4095.0,3821.0,3185.0,3243.0,3472.0,-1.18,9.63,2.78,-0.1,-0.02,-0.02,1.0,a
3163.0,3382.0,3115.0,4095.0,3817.0,3183.0,3245.0,3469.0,-1.13,9.61,2.79,-0.11,-0.06,-0.01,1.0,a
3162.0,3393.0,3120.0,4095.0,3821.0,3188.0,3247.0,3474.0,-1.22,9.45,3.05,-0.07,-0.08,0.01,1.0,a
3167.0,3395.0,3124.0,4095.0,3830.0,3195.0,3248.0,3470.0,-1.21,9.52,2.95,0.02,-0.06,0.02,1.0,a
3163.0,3387.0,3126.0,4095.0,3826.0,3199.0,3246.0,3479.0,-0.93,9.63,2.89,-0.06,-0.11,0.01,1.0,a
3161.0,3387.0,3120.0,4095.0,3834.0,3200.0,3248.0,3481.0,-0.82,9.62,2.86,-0.09,-0.07,0.03,1.0,a
3165.0,3387.0,3125.0,4095.0,3843.0,3203.0,3245.0,3473.0,-1.11,9.53,3.07,-0.07,-0.01,0.06,1.0,a
3159.0,3393.0,3122.0,4095.0,3843.0,3202.0,3246.0,3474.0,-1.04,9.57,2.97,-0.02,-0.04,0.08,1.0,a
3164.0,3386.0,3120.0,4095.0,3845.0,3211.0,3248.0,3474.0,-0.94,9.57,2.94,-0.01,-0.01,0.11,1.0,a
3160.0,3381.0,3126.0,4095.0,3834.0,3203.0,3243.0,3472.0,-0.67,9.6,3.0,-0.03,-0.03,0.12,1.0,a
3157.0,3381.0,3120.0,4095.0,3834.0,3202.0,3238.0,3479.0,-0.39,9.48,3.08,0.1,-0.02,-0.01,1.0,a
3175.0,3381.0,3135.0,4095.0,3841.0,3184.0,3229.0,3469.0,-0.7,9.68,2.78,-0.09,-0.11,0.05,1.0,a
3154.0,3375.0,3127.0,4095.0,3826.0,3187.0,3235.0,3472.0,-0.56,9.76,2.73,0.11,0.04,0.08,1.0,a
3159.0,3392.0,3120.0,4095.0,3825.0,3188.0,3242.0,3473.0,-0.33,9.56,2.69,0.15,-0.04,0.01,1.0,a
3165.0,3383.0,3123.0,4095.0,3830.0,3194.0,3236.0,3473.0,-0.39,9.68,2.39,-0.05,-0.01,0.02,1.0,a
3163.0,3379.0,3133.0,4095.0,3844.0,3191.0,3241.0,3472.0,0.13,9.86,2.55,0.03,-0.08,-0.06,1.0,a
3167.0,3387.0,3135.0,4095.0,3840.0,3199.0,3247.0,3475.0,-0.06,9.93,2.38,-0.0,-0.03,-0.11,1.0,a
3163.0,3377.0,3135.0,4095.0,3839.0,3190.0,3245.0,3471.0,-0.15,9.68,2.66,-0.03,-0.1,-0.24,1.0,a
3161.0,3390.0,3133.0,4095.0,3846.0,3184.0,3246.0,3477.0,-0.11,9.73,2.71,-0.07,-0.11,-0.28,1.0,a
3152.0,3379.0,3127.0,4095.0,3842.0,3166.0,3239.0,3471.0,-0.86,9.48,2.7,-0.02,-0.09,-0.36,1.0,a
3148.0,3370.0,3135.0,4095.0,3847.0,3171.0,3237.0,3471.0,-0.93,9.3,2.83,-0.04,-0.25,-0.41,1.0,a
3150.0,3378.0,3129.0,4095.0,3835.0,3163.0,3233.0,3460.0,-0.96,9.58,2.59,0.12,-0.17,-0.43,1.0,a
3139.0,3393.0,3133.0,4095.0,3850.0,3175.0,3242.0,3466.0,-1.12,9.59,2.48,0.02,-0.43,-0.58,1.0,a
3142.0,3381.0,3129.0,4095.0,3847.0,3181.0,3236.0,3459.0,-1.27,9.59,2.54,0.25,-0.15,-0.52,1.0,a
3131.0,3376.0,3130.0,4095.0,3845.0,3191.0,3239.0,3462.0,-1.76,9.46,2.4,0.1,-0.1,-0.44,1.0,a
3141.0,3379.0,3130.0,4061.0,3845.0,3190.0,3242.0,3453.0,-1.98,9.73,2.27,-0.03,-0.25,-0.45,1.0,a
3141.0,3365.0,3136.0,4001.0,3853.0,3187.0,3248.0,3451.0,-2.24,9.45,2.19,-0.04,-0.15,-0.38,1.0,a
3141.0,3386.0,3125.0,3673.0,3847.0,3193.0,3242.0,3453.0,-2.43,9.26,2.21,0.1,-0.18,-0.37,1.0,a
3134.0,3375.0,3130.0,3632.0,3847.0,3189.0,3245.0,3467.0,-2.72,9.88,1.55,0.07,0.03,-0.28,1.0,a
3141.0,3363.0,3135.0,3664.0,3860.0,3200.0,3249.0,3460.0,-2.58,9.45,1.73,-0.07,-0.13,-0.27,1.0,a
3141.0,3367.0,3125.0,3775.0,3855.0,3197.0,3241.0,3456.0,-2.8,9.62,1.94,-0.07,0.05,-0.15,1.0,a
3146.0,3382.0,3137.0,4026.0,3856.0,3199.0,3235.0,3455.0,-3.07,9.48,1.96,-0.15,-0.02,-0.1,1.0,a
3135.0,3370.0,3137.0,4095.0,3876.0,3202.0,3247.0,3458.0,-2.27,9.4,1.98,-0.16,-0.04,-0.12,1.0,a
3135.0,3375.0,3131.0,4095.0,3881.0,3202.0,3247.0,3461.0,-1.8,9.55,2.0,-0.21,-0.0,-0.18,1.0,a
3147.0,3376.0,3137.0,4095.0,3877.0,3200.0,3246.0,3454.0,-2.59,9.24,2.67,-0.2,0.01,-0.24,1.0,a
3131.0,3366.0,3129.0,4095.0,3869.0,3195.0,3243.0,3466.0,-3.5,9.15,2.74,-0.09,0.0,-0.23,1.0,a
3146.0,3376.0,3120.0,4095.0,3871.0,3199.0,3245.0,3451.0,-3.54,9.11,2.6,-0.07,0.01,-0.13,1.0,a
3135.0,3365.0,3122.0,4095.0,3856.0,3191.0,3246.0,3452.0,-3.81,9.34,1.89,-0.08,-0.02,-0.01,1.0,a
3138.0,3376.0,3131.0,4095.0,3858.0,3200.0,3242.0,3456.0,-3.23,9.29,1.8,-0.03,-0.04,0.07,1.0,a
3136.0,3365.0,3135.0,4095.0,3856.0,3203.0,3238.0,3443.0,-2.74,9.49,1.7,-0.28,0.0,0.15,1.0,a
3130.0,3365.0,3129.0,4095.0,3878.0,3211.0,3248.0,3455.0,-2.46,9.24,2.48,-0.36,0.04,0.14,1.0,a
3129.0,3378.0,3124.0,4095.0,3872.0,3214.0,3245.0,3452.0,-2.38,9.13,2.97,-0.32,0.01,0.07,1.0,a
3141.0,3362.0,3127.0,4095.0,3885.0,3216.0,3235.0,3443.0,-2.76,9.22,3.12,-0.27,0.06,0.06,1.0,a
3145.0,3360.0,3127.0,4095.0,3863.0,3215.0,3245.0,3449.0,-3.14,9.04,3.37,-0.29,0.02,0.13,1.0,a
3126.0,3383.0,3138.0,4095.0,3856.0,3214.0,3242.0,3451.0,-2.46,9.19,3.41,-0.16,0.0,0.18,1.0,a
3149.0,3370.0,3123.0,4095.0,3885.0,3217.0,3247.0,3442.0,-2.23,9.17,3.26,-0.15,0.03,0.2,1.0,a
3131.0,3363.0,3136.0,4095.0,3867.0,3216.0,3242.0,3440.0,-2.09,9.37,2.89,-0.12,0.01,0.17,1.0,a
3127.0,3360.0,3124.0,4095.0,3869.0,3216.0,3246.0,3451.0,-2.14,9.27,3.02,-0.18,0.0,0.17,1.0,a
3137.0,3361.0,3125.0,4095.0,3871.0,3216.0,3244.0,3447.0,-1.94,9.32,3.11,-0.21,0.03,0.16,1.0,a
3141.0,3365.0,3122.0,4095.0,3879.0,3218.0,3252.0,3442.0,-1.87,9.25,3.33,-0.2,0.04,0.15,1.0,a
3146.0,3376.0,3126.0,4095.0,3883.0,3217.0,3241.0,3440.0,-1.64,9.26,3.49,-0.15,0.04,0.11,1.0,a
3129.0,3361.0,3123.0,4095.0,3863.0,3216.0,3245.0,3443.0,-1.6,9.22,3.45,-0.17,0.01,0.07,1.0,a
3136.0,3364.0,3125.0,4095.0,3875.0,3222.0,3247.0,3449.0,-1.63,9.26,3.36,-0.17,0.02,0.04,1.0,a
3137.0,3365.0,3135.0,4095.0,3873.0,3215.0,3242.0,3440.0,-1.53,9.24,3.46,-0.17,0.05,0.04,1.0,a
3135.0,3366.0,3133.0,4095.0,3882.0,3217.0,3248.0,3444.0,-1.64,9.28,3.34,-0.21,0.05,0.03,1.0,a
3133.0,3374.0,3131.0,4095.0,3888.0,3217.0,3239.0,3441.0,-1.68,9.23,3.55,-0.21,0.02,0.04,1.0,a
3131.0,3356.0,3127.0,4095.0,3866.0,3216.0,3248.0,3453.0,-1.82,9.18,3.65,-0.22,-0.01,0.06,1.0,a
3136.0,3371.0,3127.0,4095.0,3879.0,3218.0,3247.0,3451.0,-1.91,9.08,4.05,-0.21,0.06,0.13,1.0,a
3137.0,3369.0,3131.0,4095.0,3881.0,3226.0,3248.0,3451.0,-1.98,9.05,4.04,-0.16,0.04,0.19,1.0,a
3143.0,3376.0,3126.0,4095.0,3879.0,3225.0,3248.0,3450.0,-1.47,9.16,4.0,-0.12,-0.05,0.22,1.0,a
3122.0,3366.0,3135.0,4095.0,3881.0,3229.0,3245.0,3454.0,-1.06,9.2,3.98,-0.13,-0.0,0.21,1.0,a
3146.0,3365.0,3136.0,4095.0,3879.0,3222.0,3249.0,3452.0,-0.62,9.24,4.12,-0.1,0.03,0.17,1.0,a
3130.0,3373.0,3127.0,4095.0,3886.0,3221.0,3248.0,3441.0,-0.88,9.17,4.08,-0.11,0.08,0.12,1.0,a
3143.0,3356.0,3135.0,4095.0,3875.0,3218.0,3248.0,3440.0,-0.86,9.12,4.14,-0.08,-0.0,0.1,1.0,a
3133.0,3361.0,3121.0,4095.0,3884.0,3228.0,3250.0,3450.0,-0.35,9.16,4.5,-0.03,-0.05,0.03,1.0,a
3136.0,3368.0,3126.0,4095.0,3869.0,3221.0,3246.0,3450.0,-0.8,9.22,3.96,0.05,-0.0,0.0,1.0,a
3140.0,3373.0,3120.0,4095.0,3863.0,3217.0,3244.0,3440.0,-1.19,9.27,3.63,-0.03,0.04,0.06,1.0,a
3142.0,3367.0,3136.0,4095.0,3879.0,3227.0,3248.0,3450.0,-0.99,9.28,3.81,-0.03,-0.01,0.07,1.0,a
3135.0,3366.0,3126.0,4095.0,3877.0,3232.0,3247.0,3441.0,-0.8,9.28,3.9,-0.05,0.0,0.09,1.0,a
3143.0,3359.0,3135.0,4095.0,3875.0,3227.0,3249.0,3457.0,-0.3,9.34,4.01,-0.01,-0.01,0.03,1.0,a
3133.0,3354.0,3120.0,4095.0,3873.0,3218.0,3243.0,3446.0,-0.71,9.44,3.53,-0.01,0.07,0.03,1.0,a
3138.0,3354.0,3118.0,4095.0,3871.0,3218.0,3248.0,3447.0,-0.78,9.42,3.53,-0.08,0.05,0.08,1.0,a
3136.0,3366.0,3121.0,4095.0,3863.0,3222.0,3242.0,3442.0,-0.77,9.4,3.74,-0.11,0.09,0.12,1.0,a
3133.0,3357.0,3121.0,4095.0,3876.0,3219.0,3246.0,3445.0,-1.08,9.31,3.85,-0.1,0.08,0.16,1.0,a
3128.0,3365.0,3124.0,4095.0,3869.0,3221.0,3243.0,3442.0,-0.74,9.33,3.68,-0.1,0.02,0.24,1.0,a
3130.0,3367.0,3120.0,4095.0,3873.0,3219.0,3247.0,3446.0,-0.37,9.31,3.71,-0.16,0.09,0.31,1.0,a
3147.0,3362.0,3123.0,4095.0,3863.0,3217.0,3243.0,3443.0,0.35,9.46,3.78,-0.22,0.06,0.25,1.0,a
3138.0,3371.0,3127.0,4095.0,3871.0,3217.0,3246.0,3440.0,0.24,9.3,3.87,-0.25,0.16,0.2,1.0,a
3137.0,3362.0,3123.0,4095.0,3867.0,3215.0,3234.0,3443.0,0.09,9.23,3.98,-0.21,-0.01,0.16,1.0,a
3138.0,3359.0,3124.0,4095.0,3869.0,3223.0,3243.0,3444.0,0.13,9.22,3.82,-0.25,0.01,0.19,1.0,a
3128.0,3357.0,3132.0,4095.0,3869.0,3225.0,3238.0,3444.0,0.45,9.3,4.15,-0.34,0.08,0.1,1.0,a
3143.0,3358.0,3135.0,4095.0,3878.0,3220.0,3248.0,3442.0,0.51,9.22,4.39,-0.27,-0.05,0.01,1.0,a
3137.0,3361.0,3131.0,4095.0,3869.0,3217.0,3235.0,3443.0,0.37,8.95,4.7,-0.22,0.05,0.07,1.0,a
3134.0,3369.0,3122.0,4095.0,3871.0,3230.0,3247.0,3453.0,-0.07,8.83,4.7,0.1,0.21,-0.02,1.0,a
3132.0,3367.0,3127.0,4095.0,3875.0,3227.0,3239.0,3450.0,-0.23,9.29,4.13,0.06,0.24,0.09,1.0,a
3141.0,3366.0,3126.0,4095.0,3895.0,3223.0,3243.0,3442.0,0.16,9.45,4.35,-0.09,0.04,0.18,1.0,a
3141.0,3371.0,3127.0,4095.0,3893.0,3231.0,3248.0,3443.0,0.77,8.99,4.51,-0.16,-0.12,0.18,1.0,a
3134.0,3362.0,3133.0,4095.0,3881.0,3227.0,3247.0,3439.0,0.86,9.0,4.37,-0.17,0.15,0.13,1.0,a
3133.0,3383.0,3120.0,4095.0,3888.0,3229.0,3243.0,3443.0,0.76,9.25,4.48,-0.31,-0.03,0.1,1.0,a
3145.0,3375.0,3131.0,4095.0,3903.0,3241.0,3257.0,3445.0,1.22,8.76,5.33,-0.38,-0.01,0.13,1.0,a
3134.0,3376.0,3134.0,4095.0,3906.0,3241.0,3249.0,3442.0,0.64,8.75,5.21,-0.29,0.01,0.1,1.0,a
3133.0,3376.0,3136.0,4095.0,3901.0,3248.0,3242.0,3440.0,0.77,8.75,5.4,0.19,0.07,-0.31,1.0,a
3137.0,3362.0,3131.0,4095.0,3920.0,3248.0,3231.0,3430.0,0.84,9.03,4.71,-0.08,-0.01,-0.13,1.0,a
3139.0,3376.0,3152.0,4095.0,3925.0,3248.0,3217.0,3405.0,0.16,9.05,4.51,-0.13,0.02,-0.05,1.0,a
3135.0,3379.0,3138.0,4095.0,3903.0,3242.0,3231.0,3457.0,0.75,9.61,4.44,-0.06,0.16,-0.14,1.0,a
3121.0,3381.0,3147.0,4095.0,3904.0,3206.0,3219.0,3467.0,0.47,8.34,5.07,-0.18,0.28,0.01,1.0,a
3119.0,3392.0,3151.0,4095.0,3915.0,3213.0,3229.0,3472.0,0.34,9.27,4.63,-0.2,0.1,-0.02,1.0,a
3122.0,3381.0,3145.0,4095.0,3902.0,3210.0,3223.0,3472.0,0.39,8.38,5.03,-0.18,0.07,0.11,1.0,a
3109.0,3374.0,3146.0,4095.0,3907.0,3216.0,3230.0,3472.0,0.21,8.99,4.96,-0.08,-0.11,-0.08,1.0,a
3120.0,3372.0,3147.0,4095.0,3903.0,3218.0,3232.0,3472.0,0.51,8.66,5.17,0.07,0.06,-0.03,1.0,a
3107.0,3365.0,3137.0,4095.0,3911.0,3226.0,3231.0,3476.0,0.57,8.83,5.02,-0.11,0.03,0.01,1.0,a
3115.0,3376.0,3135.0,4095.0,3919.0,3219.0,3233.0,3472.0,0.46,8.82,4.93,0.05,0.11,0.01,1.0,a
3113.0,3387.0,3142.0,4095.0,3914.0,3223.0,3235.0,3482.0,0.39,9.02,4.69,-0.17,0.11,0.03,1.0,a
3123.0,3376.0,3151.0,4095.0,3915.0,3230.0,3241.0,3472.0,0.34,8.91,4.79,-0.09,-0.09,0.04,1.0,a
3121.0,3376.0,3151.0,4095.0,3915.0,3236.0,3242.0,3483.0,0.7,8.99,4.86,-0.15,0.1,0.03,1.0,a
3119.0,3387.0,3141.0,4095.0,3889.0,3239.0,3243.0,3473.0,0.54,8.72,5.14,-0.19,0.08,0.06,1.0,a
3122.0,3376.0,3142.0,4095.0,3838.0,3226.0,3238.0,3471.0,0.91,8.29,5.48,-0.03,0.16,0.04,1.0,a
3111.0,3370.0,3136.0,4095.0,3791.0,3218.0,3237.0,3470.0,0.93,9.17,5.15,-0.01,0.05,0.02,1.0,a
3120.0,3375.0,3139.0,4095.0,3803.0,3222.0,3243.0,3473.0,0.74,8.82,5.05,0.03,0.47,-0.04,1.0,a
3120.0,3381.0,3146.0,4095.0,3815.0,3207.0,3242.0,3457.0,0.4,8.74,5.0,-0.06,0.08,-0.05,1.0,a
3120.0,3375.0,3133.0,4095.0,3830.0,3175.0,3245.0,3423.0,0.39,9.05,4.62,-0.03,0.24,-0.0,1.0,a
3126.0,3376.0,3136.0,4095.0,3829.0,3105.0,3246.0,2790.0,0.77,8.9,4.56,-0.07,0.43,-0.16,1.0,a
3184.0,3393.0,3123.0,4095.0,3781.0,3041.0,3254.0,3354.0,0.78,9.18,5.68,-0.14,0.18,-0.17,1.0,a
3376.0,3404.0,3130.0,4095.0,3763.0,3061.0,3267.0,3367.0,-0.87,8.25,5.23,-0.36,0.42,0.02,1.0,a
3251.0,3423.0,3147.0,4095.0,3744.0,3088.0,3280.0,3337.0,0.44,8.71,5.22,-0.18,-0.84,-0.06,1.0,a
3183.0,3435.0,3147.0,4095.0,3769.0,3083.0,3283.0,3344.0,-0.04,8.66,5.27,-0.02,-0.06,0.01,1.0,a
3178.0,3408.0,3170.0,4095.0,3760.0,3055.0,3252.0,3363.0,0.17,8.29,5.86,-0.19,-0.16,-0.09,1.0,a
3167.0,3387.0,3169.0,4095.0,3759.0,3050.0,3229.0,3357.0,-0.05,9.27,5.29,0.15,-0.23,-0.02,1.0,a
3094.0,3397.0,3189.0,4095.0,3728.0,3061.0,3222.0,3241.0,0.67,9.51,5.15,0.21,-0.34,-0.33,1.0,a
3071.0,3380.0,3221.0,4095.0,3703.0,3049.0,3216.0,3280.0,-0.0,7.84,5.08,-0.29,-0.34,-0.05,1.0,a
3043.0,3381.0,3216.0,4095.0,3675.0,3053.0,3223.0,3332.0,0.14,9.27,4.73,0.31,-0.19,-0.05,1.0,a
2990.0,3431.0,3231.0,4095.0,3698.0,3055.0,3248.0,3351.0,0.7,8.75,5.16,-0.37,-0.5,-0.17,1.0,a
2976.0,3425.0,3226.0,4095.0,3701.0,3052.0,3253.0,3408.0,0.3,8.47,5.47,-0.1,0.09,0.08,1.0,a
2979.0,3418.0,3218.0,4095.0,3711.0,3024.0,3248.0,3402.0,0.44,8.56,5.64,-0.28,-0.06,0.01,1.0,a
2960.0,3377.0,3211.0,4095.0,3707.0,3018.0,3215.0,3380.0,0.65,8.6,5.62,0.36,-0.13,-0.19,1.0,a
2974.0,3357.0,3227.0,4095.0,3722.0,3012.0,3191.0,3323.0,0.51,8.04,5.53,-0.13,0.09,0.02,1.0,a
2990.0,3362.0,3248.0,4095.0,3761.0,3024.0,3200.0,3318.0,0.54,10.35,4.24,0.04,0.19,-0.13,1.0,a
2992.0,3363.0,3244.0,4095.0,3764.0,3014.0,3206.0,3331.0,0.59,8.39,5.28,0.09,0.09,-0.16,1.0,a
2989.0,3359.0,3258.0,4095.0,3779.0,3025.0,3216.0,3335.0,0.34,8.17,5.44,-0.21,-0.12,-0.05,1.0,a
3004.0,3361.0,3250.0,4095.0,3790.0,3029.0,3214.0,3335.0,-0.06,8.81,5.31,0.22,0.1,-0.04,1.0,a
2997.0,3375.0,3270.0,4095.0,3807.0,3052.0,3232.0,3344.0,0.28,8.41,5.12,-0.23,0.01,0.08,1.0,a
2994.0,3374.0,3267.0,4095.0,3803.0,3053.0,3227.0,3342.0,0.38,8.61,5.1,-0.15,0.22,0.19,1.0,a
2985.0,3361.0,3266.0,4095.0,3792.0,3050.0,3223.0,3344.0,0.59,9.26,4.98,-0.09,0.12,0.02,1.0,a
2995.0,3350.0,3258.0,4095.0,3792.0,3051.0,3223.0,3345.0,0.85,8.21,5.49,0.02,-0.12,-0.04,1.0,a
2990.0,3350.0,3262.0,4095.0,3807.0,3057.0,3226.0,3343.0,0.82,8.86,5.36,0.0,0.07,0.03,1.0,a
2999.0,3369.0,3270.0,4095.0,3829.0,3058.0,3220.0,3333.0,0.38,8.58,4.98,-0.13,0.29,0.04,1.0,a
3006.0,3362.0,3270.0,4095.0,3841.0,3043.0,3218.0,3340.0,-0.05,8.65,4.81,-0.18,0.12,0.09,1.0,a
3014.0,3347.0,3262.0,4095.0,3856.0,3042.0,3217.0,3248.0,0.38,8.77,5.27,-0.06,0.14,0.15,1.0,a
3013.0,3348.0,3265.0,4095.0,3867.0,3050.0,3221.0,3319.0,0.15,8.32,5.57,-0.09,0.14,0.15,1.0,a
3021.0,3347.0,3258.0,4095.0,3882.0,3056.0,3226.0,3297.0,0.47,8.92,5.14,-0.07,0.07,0.16,1.0,a
3015.0,3347.0,3255.0,4095.0,3874.0,3047.0,3216.0,3314.0,1.11,8.49,5.52,-0.05,-0.03,0.08,1.0,a
3026.0,3345.0,3263.0,4095.0,3894.0,3055.0,3217.0,3313.0,1.05,9.0,5.28,0.01,-0.0,-0.0,1.0,a
3030.0,3359.0,3262.0,4095.0,3898.0,3060.0,3218.0,3315.0,1.09,8.78,5.25,-0.06,0.06,-0.18,1.0,a
3034.0,3342.0,3255.0,4095.0,3888.0,3056.0,3215.0,3278.0,0.77,8.62,5.31,0.0,0.21,0.11,1.0,a
3036.0,3344.0,3255.0,4095.0,3891.0,3056.0,3210.0,3262.0,0.57,8.83,5.22,-0.03,-0.02,-0.02,1.0,a
3056.0,3351.0,3246.0,4095.0,3903.0,3035.0,3199.0,3169.0,0.86,8.97,5.2,-0.06,-0.07,-0.11,1.0,a
3042.0,3358.0,3254.0,4095.0,3890.0,3034.0,3207.0,3209.0,0.83,8.58,5.26,-0.02,0.02,-0.05,1.0,a
3039.0,3339.0,3251.0,4095.0,3894.0,3035.0,3213.0,3239.0,0.68,8.9,5.08,0.04,0.02,-0.07,1.0,a
3047.0,3345.0,3248.0,4095.0,3888.0,3047.0,3216.0,3205.0,0.8,8.9,4.97,0.08,0.06,-0.07,1.0,a
3042.0,3344.0,3238.0,4095.0,3873.0,3051.0,3216.0,3125.0,0.81,8.79,5.13,0.12,-0.01,-0.11,1.0,a
3042.0,3371.0,3242.0,4087.0,3883.0,3065.0,3224.0,3335.0,0.85,8.97,5.12,0.06,-0.08,-0.06,1.0,a
3041.0,3344.0,3239.0,4086.0,3857.0,3059.0,3221.0,3373.0,1.0,9.01,5.23,0.12,-0.13,-0.22,1.0,a
3049.0,3346.0,3246.0,4043.0,3853.0,3061.0,3230.0,3388.0,0.66,8.74,5.13,0.14,-0.18,-0.25,1.0,a
3055.0,3359.0,3239.0,3962.0,3875.0,3068.0,3234.0,3375.0,0.06,8.96,4.58,0.18,-0.02,-0.2,1.0,a
3056.0,3360.0,3239.0,3992.0,3883.0,3066.0,3223.0,3345.0,-0.57,8.9,4.28,0.14,-0.12,-0.08,1.0,a
3057.0,3362.0,3239.0,4016.0,3867.0,3059.0,3230.0,3344.0,0.1,9.21,4.15,0.04,-0.37,0.02,1.0,a
3053.0,3351.0,3255.0,4025.0,3888.0,3070.0,3239.0,3328.0,0.1,9.26,4.1,0.1,-0.1,0.1,1.0,a
3045.0,3349.0,3241.0,3963.0,3873.0,3066.0,3230.0,3373.0,0.71,9.21,3.95,0.16,-0.49,0.05,1.0,a
3045.0,3362.0,3248.0,3923.0,3894.0,3071.0,3239.0,3390.0,1.46,9.03,4.29,0.06,-0.23,0.09,1.0,a
3047.0,3354.0,3249.0,3937.0,3895.0,3071.0,3234.0,3390.0,1.3,9.38,4.15,0.01,0.03,0.01,1.0,a
3047.0,3370.0,3243.0,3939.0,3888.0,3071.0,3235.0,3376.0,1.47,9.43,3.95,0.11,-0.21,-0.09,1.0,a
3049.0,3356.0,3253.0,3953.0,3891.0,3071.0,3235.0,3395.0,1.36,9.29,3.94,-0.02,-0.03,-0.09,1.0,a
3056.0,3355.0,3248.0,3934.0,3894.0,3071.0,3238.0,3393.0,0.82,9.5,3.68,-0.01,-0.07,-0.14,1.0,a
3057.0,3361.0,3239.0,3925.0,3881.0,3071.0,3238.0,3405.0,0.9,9.22,3.82,-0.07,-0.07,-0.15,1.0,a
3039.0,3361.0,3237.0,3930.0,3885.0,3071.0,3242.0,3391.0,0.71,9.69,3.71,-0.12,-0.06,-0.1,1.0,a
3043.0,3361.0,3240.0,3954.0,3876.0,3082.0,3246.0,3407.0,0.88,8.69,4.22,-0.13,-0.07,-0.09,1.0,a
3047.0,3361.0,3234.0,3968.0,3862.0,3068.0,3248.0,3343.0,0.47,9.38,3.95,-0.23,-0.04,0.02,1.0,a
3043.0,3375.0,3230.0,3967.0,3871.0,3056.0,3248.0,3351.0,0.65,9.09,4.07,-0.15,0.06,0.05,1.0,a
3045.0,3366.0,3233.0,3951.0,3857.0,3047.0,3248.0,3376.0,0.71,9.03,4.48,-0.24,-0.04,0.14,1.0,a
3033.0,3359.0,3242.0,3931.0,3870.0,3043.0,3248.0,3410.0,0.87,9.26,4.48,-0.1,0.11,0.19,1.0,a
3036.0,3344.0,3223.0,3968.0,3883.0,3031.0,3246.0,3327.0,1.21,8.97,4.62,-0.12,0.07,0.14,1.0,a
3054.0,3343.0,3236.0,4009.0,3887.0,3041.0,3248.0,3309.0,1.43,9.39,4.49,0.01,0.13,0.05,1.0,a
3045.0,3345.0,3248.0,4047.0,3894.0,3042.0,3245.0,3312.0,1.43,8.98,4.5,-0.01,0.06,0.0,1.0,a
3039.0,3335.0,3235.0,4085.0,3892.0,3041.0,3246.0,3372.0,1.14,9.12,4.54,0.03,0.1,0.04,1.0,a
3042.0,3350.0,3237.0,4095.0,3901.0,3039.0,3248.0,3380.0,0.85,8.97,4.66,0.12,0.05,0.06,1.0,a
3040.0,3345.0,3243.0,4095.0,3905.0,3049.0,3247.0,3379.0,1.02,9.13,4.17,0.19,0.1,0.08,1.0,a
3040.0,3344.0,3238.0,4095.0,3888.0,3046.0,3243.0,3389.0,1.42,9.43,3.63,0.16,0.1,0.12,1.0,a
3051.0,3338.0,3237.0,4095.0,3895.0,3047.0,3248.0,3391.0,1.97,9.33,3.79,0.11,0.15,0.06,1.0,a
3049.0,3335.0,3241.0,4095.0,3897.0,3053.0,3250.0,3396.0,2.1,9.46,3.76,0.13,0.03,-0.05,1.0,a
3056.0,3344.0,3245.0,4095.0,3905.0,3056.0,3241.0,3396.0,2.16,9.54,3.72,0.19,-0.19,-0.22,1.0,a
3030.0,3351.0,3235.0,4095.0,3898.0,3053.0,3248.0,3401.0,1.8,9.44,3.56,0.18,-0.22,-0.36,1.0,a
3046.0,3343.0,3243.0,4087.0,3894.0,3047.0,3248.0,3392.0,1.3,9.46,3.61,0.16,-0.21,-0.39,1.0,a
3046.0,3344.0,3237.0,4095.0,3906.0,3054.0,3251.0,3392.0,0.55,9.46,3.51,0.18,-0.14,-0.35,1.0,a
3039.0,3341.0,3237.0,4091.0,3914.0,3052.0,3248.0,3395.0,-0.24,9.18,3.53,0.23,-0.12,-0.25,1.0,a
3046.0,3343.0,3231.0,4095.0,3895.0,3055.0,3253.0,3382.0,-1.07,9.45,3.61,0.24,-0.06,-0.04,1.0,a
3054.0,3344.0,3243.0,4095.0,3904.0,3043.0,3244.0,3376.0,-0.8,9.1,3.15,0.34,0.13,0.35,1.0,a
3031.0,3331.0,3230.0,4095.0,3882.0,3047.0,3239.0,3395.0,1.3,10.02,1.69,0.26,-0.04,0.42,1.0,a
3046.0,3329.0,3237.0,4079.0,3881.0,3044.0,3246.0,3391.0,2.77,10.05,1.88,0.22,0.1,0.31,1.0,a
3046.0,3344.0,3246.0,4065.0,3883.0,3051.0,3247.0,3391.0,2.87,9.96,2.04,0.12,-0.02,0.06,1.0,a
3041.0,3341.0,3237.0,4031.0,3888.0,3044.0,3245.0,3392.0,2.21,9.89,1.93,0.1,-0.08,-0.15,1.0,a
3046.0,3344.0,3247.0,4029.0,3895.0,3044.0,3246.0,3392.0,1.67,9.84,2.09,0.02,-0.18,-0.28,1.0,a
3037.0,3329.0,3248.0,4010.0,3891.0,3035.0,3239.0,3395.0,1.25,9.79,2.25,0.04,-0.25,-0.3,1.0,a
3056.0,3333.0,3245.0,4030.0,3889.0,3039.0,3234.0,3402.0,0.96,9.78,2.15,0.05,-0.13,-0.26,1.0,a
3039.0,3317.0,3232.0,4016.0,3890.0,3039.0,3243.0,3408.0,1.08,9.89,1.92,0.01,-0.24,-0.25,1.0,a
3055.0,3333.0,3239.0,4016.0,3896.0,3041.0,3248.0,3410.0,0.99,10.01,1.79,-0.03,-0.11,-0.19,1.0,a
3047.0,3318.0,3240.0,4010.0,3888.0,3043.0,3248.0,3416.0,0.82,9.84,1.91,-0.05,-0.13,-0.2,1.0,a
3043.0,3318.0,3238.0,3991.0,3895.0,3041.0,3245.0,3407.0,0.93,9.76,2.23,-0.03,-0.16,-0.19,1.0,a
3040.0,3323.0,3238.0,3983.0,3886.0,3042.0,3247.0,3406.0,0.58,9.81,2.04,-0.01,-0.05,-0.18,1.0,a
3041.0,3329.0,3244.0,3983.0,3885.0,3039.0,3241.0,3393.0,0.66,9.84,1.95,-0.0,-0.14,-0.16,1.0,a
3043.0,3332.0,3247.0,3987.0,3898.0,3043.0,3246.0,3389.0,0.75,9.76,1.96,-0.06,-0.07,-0.1,1.0,a
3037.0,3333.0,3233.0,3974.0,3884.0,3038.0,3237.0,3372.0,1.05,9.96,1.78,-0.03,-0.12,-0.16,1.0,a
3039.0,3328.0,3238.0,3956.0,3881.0,3041.0,3235.0,3366.0,1.0,10.03,1.78,-0.07,-0.12,-0.24,1.0,a
3051.0,3328.0,3246.0,3952.0,3893.0,3037.0,3239.0,3358.0,0.69,9.92,1.79,-0.08,-0.16,-0.28,1.0,a
3047.0,3324.0,3237.0,3949.0,3890.0,3041.0,3232.0,3370.0,0.48,9.95,1.87,-0.1,-0.19,-0.3,1.0,a
3045.0,3341.0,3249.0,3930.0,3895.0,3035.0,3243.0,3378.0,0.41,9.89,1.85,-0.12,-0.15,-0.29,1.0,a
3059.0,3327.0,3251.0,3920.0,3899.0,3024.0,3237.0,3376.0,0.23,9.58,2.23,-0.17,-0.16,-0.28,1.0,a
3041.0,3326.0,3254.0,3846.0,3904.0,3024.0,3217.0,3360.0,0.21,10.22,2.22,0.12,-0.27,-0.47,1.0,a
3039.0,3335.0,3237.0,3791.0,3899.0,3007.0,3227.0,3283.0,-0.17,9.86,1.92,-0.07,-0.33,-0.36,1.0,a
3051.0,3343.0,3239.0,3807.0,3904.0,3002.0,3226.0,3331.0,-0.38,9.95,1.6,-0.04,-0.4,-0.33,1.0,a
3051.0,3327.0,3241.0,3826.0,3895.0,3003.0,3223.0,3312.0,-0.67,9.89,1.7,-0.11,-0.54,-0.27,1.0,a
3054.0,3319.0,3249.0,3838.0,3909.0,2997.0,3216.0,3334.0,-0.59,9.84,1.88,-0.27,-0.45,-0.2,1.0,a
3041.0,3313.0,3235.0,3829.0,3893.0,3003.0,3227.0,3342.0,-0.29,9.79,2.13,-0.12,-0.41,-0.23,1.0,a
3037.0,3319.0,3245.0,3828.0,3895.0,3002.0,3229.0,3323.0,-0.18,9.9,2.0,-0.18,-0.16,-0.23,1.0,a
3039.0,3323.0,3241.0,3839.0,3907.0,3008.0,3229.0,3379.0,-0.38,9.91,1.9,-0.23,-0.21,-0.3,1.0,a
3219.0,4095.0,931.0,4095.0,3858.0,3090.0,3196.0,3613.0,-0.74,9.31,3.7,-0.04,0.06,0.01,1.0,a
3224.0,4095.0,935.0,4095.0,3851.0,3088.0,3187.0,3614.0,-0.35,9.37,3.94,-0.03,-0.08,-0.05,1.0,a
3226.0,4095.0,923.0,4095.0,3868.0,3090.0,3199.0,3611.0,-0.53,9.47,3.48,-0.09,0.13,0.08,1.0,a
3220.0,4095.0,931.0,4095.0,3856.0,3088.0,3186.0,3600.0,-0.81,9.36,3.85,-0.21,-0.07,0.06,1.0,a
3218.0,4095.0,921.0,4095.0,3862.0,3086.0,3197.0,3612.0,-0.22,9.39,4.23,-0.27,-0.02,0.09,1.0,a
3226.0,4095.0,930.0,4095.0,3857.0,3088.0,3189.0,3605.0,-0.03,9.28,4.98,-0.3,-0.08,0.11,1.0,a
3228.0,4095.0,931.0,4095.0,3843.0,3088.0,3191.0,3608.0,0.34,9.45,5.05,-0.15,-0.16,0.07,1.0,a
3227.0,4095.0,923.0,4095.0,3866.0,3094.0,3199.0,3625.0,0.28,9.39,4.54,-0.02,-0.17,0.06,1.0,a
3223.0,4095.0,931.0,4095.0,3867.0,3097.0,3198.0,3619.0,0.02,9.28,4.0,-0.01,-0.28,0.03,1.0,a
3229.0,4095.0,926.0,4095.0,3860.0,3094.0,3200.0,3617.0,-0.41,8.82,3.78,-0.05,-0.27,0.06,1.0,a
3231.0,4095.0,930.0,4095.0,3859.0,3088.0,3191.0,3597.0,0.13,9.25,3.64,0.07,-0.2,-0.02,1.0,a
3229.0,4095.0,914.0,4095.0,3860.0,3085.0,3178.0,3523.0,-0.19,9.19,3.93,-0.09,-0.03,-0.02,1.0,a
3225.0,4095.0,922.0,4095.0,3861.0,3085.0,3184.0,3497.0,-0.32,9.05,4.39,-0.04,0.06,-0.1,1.0,a
3222.0,4095.0,926.0,4095.0,3851.0,3059.0,3169.0,3504.0,-0.67,9.03,4.31,-0.05,0.27,0.06,1.0,a
3233.0,4095.0,931.0,4095.0,3831.0,3045.0,3152.0,3539.0,0.01,9.11,4.32,-0.07,0.07,0.14,1.0,a
3231.0,4095.0,923.0,4095.0,3843.0,3045.0,3159.0,3551.0,0.73,9.27,4.41,-0.02,0.18,0.17,1.0,a
3219.0,4095.0,923.0,4095.0,3826.0,3045.0,3152.0,3536.0,0.62,9.27,4.33,-0.04,0.06,0.04,1.0,a
3226.0,4095.0,919.0,4095.0,3825.0,3049.0,3156.0,3539.0,0.16,9.13,4.19,-0.03,0.12,0.03,1.0,a
3223.0,4095.0,927.0,4095.0,3824.0,3045.0,3152.0,3537.0,-0.3,9.35,3.82,-0.01,0.02,0.01,1.0,a
3217.0,4095.0,928.0,4095.0,3835.0,3047.0,3153.0,3542.0,-0.14,9.27,3.68,-0.06,0.0,0.11,1.0,a
3215.0,4095.0,925.0,4095.0,3831.0,3041.0,3154.0,3540.0,-0.23,9.37,3.58,-0.13,0.1,0.08,1.0,a
3216.0,4095.0,917.0,4095.0,3837.0,3047.0,3158.0,3545.0,0.21,9.39,3.85,-0.1,-0.02,0.05,1.0,a
3217.0,4095.0,940.0,4095.0,3839.0,3051.0,3159.0,3549.0,0.66,9.58,3.95,-0.14,0.09,0.03,1.0,a
3223.0,4095.0,927.0,4095.0,3837.0,3047.0,3161.0,3555.0,0.46,9.25,4.42,-0.14,-0.02,0.06,1.0,a
3225.0,4095.0,927.0,4095.0,3833.0,3047.0,3154.0,3539.0,0.79,9.13,4.49,-0.18,-0.07,0.08,1.0,a
3231.0,4095.0,929.0,4095.0,3841.0,3055.0,3159.0,3549.0,0.81,9.0,4.39,-0.12,0.07,0.12,1.0,a
3215.0,4095.0,923.0,4095.0,3838.0,3051.0,3167.0,3551.0,0.82,9.0,4.31,-0.09,-0.09,0.08,1.0,a
3216.0,4095.0,930.0,4095.0,3839.0,3050.0,3161.0,3544.0,1.13,9.08,4.24,-0.12,-0.1,0.04,1.0,a
3216.0,4095.0,919.0,4095.0,3825.0,3044.0,3157.0,3543.0,1.14,9.08,4.28,-0.12,-0.0,0.03,1.0,a
3211.0,4095.0,919.0,4095.0,3827.0,3037.0,3157.0,3543.0,1.03,9.0,4.26,-0.14,-0.02,-0.01,1.0,a
3233.0,4095.0,929.0,4095.0,3834.0,3053.0,3161.0,3557.0,1.17,9.09,4.26,-0.15,0.06,0.01,1.0,a
3216.0,4095.0,918.0,4095.0,3833.0,3055.0,3165.0,3552.0,0.95,9.07,4.21,-0.21,0.3,0.07,1.0,a
3216.0,4095.0,915.0,4095.0,3824.0,3043.0,3166.0,3548.0,0.79,8.89,4.41,-0.23,0.27,0.12,1.0,a
3219.0,4095.0,921.0,4095.0,3827.0,3052.0,3158.0,3523.0,1.36,9.0,4.81,-0.3,1.4,0.25,1.0,a
3227.0,4095.0,921.0,4095.0,3832.0,3055.0,3159.0,3555.0,-0.14,8.65,5.36,-0.47,2.35,0.7,1.0,a
3226.0,4095.0,920.0,4095.0,3829.0,3056.0,3166.0,3565.0,0.17,9.04,5.04,-0.08,1.49,0.49,1.0,a
3215.0,4095.0,928.0,4095.0,3829.0,3056.0,3158.0,3543.0,0.19,8.89,5.01,-0.08,1.0,0.35,1.0,a
3213.0,4095.0,930.0,4095.0,3836.0,3056.0,3159.0,3551.0,0.41,8.77,5.1,-0.03,1.06,0.34,1.0,a
3213.0,4095.0,931.0,4095.0,3833.0,3056.0,3160.0,3551.0,0.14,8.92,4.83,0.05,0.81,0.26,1.0,a
3226.0,4095.0,923.0,4095.0,3818.0,3059.0,3162.0,3546.0,0.31,9.0,5.04,0.04,0.63,0.14,1.0,a
3223.0,4095.0,924.0,4095.0,3837.0,3065.0,3163.0,3555.0,0.14,8.81,5.11,0.07,0.87,0.12,1.0,a
3217.0,4095.0,929.0,4095.0,3825.0,3067.0,3175.0,3566.0,0.24,8.86,5.0,0.35,1.07,0.05,1.0,a
3216.0,4095.0,934.0,4095.0,3841.0,3085.0,3179.0,3568.0,-0.79,9.19,4.25,0.05,1.15,0.15,1.0,a
3216.0,4095.0,934.0,4095.0,3825.0,3082.0,3173.0,3518.0,-0.62,9.1,4.25,-0.08,1.32,0.15,1.0,a
3226.0,4095.0,933.0,4095.0,3843.0,3090.0,3180.0,3566.0,-1.3,9.22,4.22,-0.1,0.88,0.18,1.0,a
3227.0,4095.0,934.0,4095.0,3838.0,3082.0,3177.0,3528.0,-1.07,8.99,4.31,-0.06,0.98,0.13,1.0,a
3215.0,4095.0,934.0,4095.0,3818.0,3059.0,3178.0,3528.0,-0.4,9.54,3.94,-0.07,0.75,0.13,1.0,a
3216.0,4095.0,928.0,4095.0,3835.0,3071.0,3165.0,3529.0,-1.46,9.08,4.04,-0.14,1.31,0.21,1.0,a
3215.0,4095.0,931.0,4095.0,3817.0,3069.0,3172.0,3538.0,-0.93,9.21,4.01,-0.16,1.2,0.2,1.0,a
3216.0,4095.0,935.0,4095.0,3822.0,3071.0,3184.0,3549.0,-1.92,8.98,3.84,-0.06,0.72,0.12,1.0,a
3213.0,4095.0,935.0,4095.0,3837.0,3071.0,3180.0,3559.0,-1.46,8.99,3.98,-0.04,0.87,0.06,1.0,a
3217.0,4095.0,936.0,4095.0,3807.0,3070.0,3167.0,3559.0,-1.19,9.22,3.86,-0.04,0.56,0.08,1.0,a
3214.0,4095.0,929.0,4095.0,3825.0,3070.0,3172.0,3563.0,-2.23,8.99,3.82,-0.04,0.84,0.1,1.0,a
3214.0,4095.0,941.0,4095.0,3807.0,3071.0,3169.0,3568.0,-1.9,9.21,3.43,0.01,0.2,0.01,1.0,a
3211.0,4095.0,934.0,4095.0,3826.0,3071.0,3178.0,3568.0,-2.5,9.24,3.06,0.03,-0.81,-0.18,1.0,a
3221.0,4095.0,938.0,4095.0,3838.0,3089.0,3183.0,3568.0,-1.44,9.32,3.28,-0.03,-1.14,-0.27,1.0,a
3216.0,4095.0,942.0,4095.0,3835.0,3085.0,3182.0,3568.0,-1.18,9.33,3.87,-0.17,-0.86,-0.16,1.0,a
3216.0,4095.0,931.0,4095.0,3829.0,3071.0,3174.0,3569.0,-1.71,9.03,4.15,-0.16,-0.82,-0.09,1.0,a
3213.0,4095.0,941.0,4095.0,3837.0,3081.0,3174.0,3583.0,-0.68,9.4,4.0,0.02,-1.43,-0.3,1.0,a
3216.0,4095.0,946.0,4095.0,3838.0,3087.0,3183.0,3583.0,-0.99,9.05,4.07,-0.1,-1.11,-0.25,1.0,a
3206.0,4095.0,938.0,4095.0,3856.0,3087.0,3179.0,3605.0,-0.55,9.28,4.03,-0.13,-1.31,-0.22,1.0,a
3216.0,4095.0,935.0,4095.0,3849.0,3091.0,3184.0,3583.0,0.31,9.58,4.12,-0.19,-0.08,-0.26,1.0,a
3226.0,4095.0,943.0,4095.0,3846.0,3088.0,3182.0,3606.0,-0.84,9.25,4.57,-0.49,0.17,0.09,1.0,a
3218.0,4095.0,943.0,4095.0,3840.0,3085.0,3173.0,3601.0,-1.28,8.69,5.02,-0.3,-0.48,-0.16,1.0,a
3221.0,4095.0,935.0,4095.0,3846.0,3089.0,3177.0,3611.0,-0.56,8.72,5.12,-0.02,-1.22,-0.36,1.0,a
3216.0,4095.0,933.0,4095.0,3840.0,3090.0,3180.0,3614.0,-0.4,8.77,4.85,-0.1,-0.64,-0.22,1.0,a
3226.0,4095.0,944.0,4095.0,3856.0,3089.0,3179.0,3615.0,-0.05,8.92,4.67,-0.05,-0.54,-0.21,1.0,a
3211.0,4095.0,937.0,4095.0,3843.0,3103.0,3184.0,3600.0,-0.33,9.02,4.71,-0.17,0.1,-0.18,1.0,a
3216.0,4095.0,935.0,4095.0,3857.0,3104.0,3182.0,3613.0,-0.41,8.97,4.84,-0.17,-0.39,-0.24,1.0,a
3219.0,4095.0,942.0,4095.0,3843.0,3091.0,3169.0,3600.0,-1.0,8.89,4.97,-0.22,-0.64,-0.32,1.0,a
3223.0,4095.0,934.0,4095.0,3829.0,3091.0,3174.0,3602.0,-0.96,8.54,5.48,-0.25,-0.63,-0.21,1.0,a
3216.0,4095.0,935.0,4095.0,3851.0,3095.0,3184.0,3619.0,-0.38,8.45,5.6,-0.12,-0.57,-0.23,1.0,a
3218.0,4095.0,937.0,4095.0,3846.0,3094.0,3182.0,3614.0,-0.15,8.38,5.51,-0.14,-0.32,-0.2,1.0,a
3226.0,4095.0,930.0,4095.0,3843.0,3093.0,3183.0,3610.0,-0.2,8.37,5.42,-0.09,-0.13,-0.28,1.0,a
3216.0,4095.0,943.0,4095.0,3857.0,3101.0,3184.0,3627.0,-0.61,8.28,5.46,-0.09,-0.3,-0.3,1.0,a
3216.0,4095.0,929.0,4095.0,3856.0,3102.0,3183.0,3617.0,-0.51,8.35,5.41,-0.05,-0.42,-0.38,1.0,a
3216.0,4095.0,943.0,4095.0,3851.0,3099.0,3184.0,3618.0,-0.77,8.54,5.33,-0.1,-0.53,-0.34,1.0,a
3216.0,4095.0,935.0,4095.0,3858.0,3099.0,3183.0,3628.0,-0.77,8.46,5.35,-0.05,-0.75,-0.4,1.0,a
3210.0,4095.0,928.0,4095.0,3847.0,3094.0,3175.0,3620.0,-1.13,8.59,5.15,-0.09,-1.07,-0.34,1.0,a
3216.0,4095.0,940.0,4095.0,3851.0,3102.0,3184.0,3611.0,-0.15,8.35,5.69,-0.13,-0.94,-0.31,1.0,a
3221.0,4095.0,943.0,4095.0,3855.0,3094.0,3173.0,3617.0,-0.42,8.3,5.76,-0.16,-0.74,-0.16,1.0,a
3214.0,4095.0,943.0,4095.0,3851.0,3091.0,3182.0,3615.0,-0.13,8.39,5.67,-0.07,-0.71,-0.19,1.0,a
3220.0,4095.0,942.0,4095.0,3859.0,3101.0,3184.0,3622.0,0.31,8.52,5.56,-0.1,-0.62,-0.17,1.0,a
3216.0,4095.0,935.0,4095.0,3867.0,3101.0,3184.0,3618.0,-0.17,8.34,5.7,-0.14,-0.51,-0.11,1.0,a
3203.0,4095.0,927.0,4095.0,3859.0,3099.0,3174.0,3621.0,0.59,8.38,5.71,-0.08,-0.44,-0.2,1.0,a
3221.0,4095.0,937.0,4095.0,3851.0,3093.0,3171.0,3610.0,0.61,8.36,5.74,-0.13,-0.13,-0.09,1.0,a
3231.0,4095.0,941.0,4095.0,3863.0,3101.0,3179.0,3610.0,-0.03,8.2,5.76,-0.1,-0.26,-0.12,1.0,a
3218.0,4095.0,931.0,4095.0,3865.0,3101.0,3181.0,3615.0,1.1,8.44,5.91,-0.05,-0.61,-0.27,1.0,a
3223.0,4095.0,939.0,4095.0,3862.0,3101.0,3181.0,3600.0,0.38,8.37,5.83,-0.07,-0.22,-0.16,1.0,a
3219.0,4095.0,933.0,4095.0,3856.0,3102.0,3184.0,3611.0,1.24,8.32,6.1,0.01,-0.46,-0.32,1.0,a
3219.0,4095.0,928.0,4095.0,3856.0,3099.0,3181.0,3618.0,2.11,8.27,6.64,0.11,-0.05,-0.39,1.0,a
3216.0,4095.0,937.0,4095.0,3868.0,3107.0,3184.0,3606.0,0.74,8.44,5.78,0.29,-0.11,-0.59,1.0,a
3223.0,4095.0,933.0,4095.0,3865.0,3099.0,3182.0,3583.0,-0.54,8.52,5.14,0.14,-0.32,-0.52,1.0,a
3218.0,4095.0,939.0,4095.0,3850.0,3101.0,3178.0,3579.0,-0.52,8.48,5.08,0.02,-0.23,-0.26,1.0,a
3213.0,4095.0,944.0,4095.0,3860.0,3099.0,3183.0,3606.0,-0.28,8.4,5.18,-0.1,0.03,-0.06,1.0,a
3227.0,4095.0,934.0,4095.0,3867.0,3101.0,3180.0,3600.0,0.1,8.41,5.37,-0.2,-0.63,-0.11,1.0,a
3215.0,4095.0,934.0,4095.0,3877.0,3103.0,3184.0,3631.0,1.04,8.33,5.86,-0.16,-0.38,-0.16,1.0,a
3205.0,4095.0,937.0,4095.0,3861.0,3099.0,3183.0,3604.0,0.57,8.53,5.72,-0.11,-0.35,-0.25,1.0,a
3223.0,4095.0,931.0,4095.0,3868.0,3102.0,3184.0,3609.0,-0.08,8.52,5.47,-0.14,-0.33,-0.2,1.0,a
3230.0,4095.0,941.0,4095.0,3869.0,3106.0,3190.0,3629.0,0.3,8.54,5.65,-0.09,-0.17,-0.23,1.0,a
3216.0,4095.0,935.0,4095.0,3849.0,3088.0,3184.0,3614.0,-0.58,8.45,5.62,-0.42,0.27,-0.03,1.0,a
3209.0,4095.0,941.0,4095.0,3815.0,3061.0,3181.0,3619.0,0.05,8.38,5.81,-0.05,-0.43,-0.35,1.0,a
3205.0,4095.0,930.0,4095.0,3824.0,3067.0,3182.0,3600.0,0.4,8.07,5.92,0.03,-0.18,-0.19,1.0,a
3200.0,4095.0,939.0,4095.0,3803.0,3056.0,3179.0,3606.0,-0.01,8.32,5.59,0.03,-0.01,-0.23,1.0,a
3189.0,4095.0,928.0,4095.0,3818.0,3053.0,3179.0,3607.0,-0.21,8.29,5.64,0.08,-0.22,-0.21,1.0,a
3199.0,4095.0,930.0,4095.0,3793.0,3052.0,3171.0,3601.0,-0.14,8.37,5.41,0.04,-0.12,-0.16,1.0,a
3200.0,4095.0,934.0,4095.0,3807.0,3056.0,3175.0,3607.0,-0.02,8.49,5.43,0.1,-0.1,-0.16,1.0,a
3194.0,4095.0,938.0,4095.0,3808.0,3056.0,3177.0,3604.0,0.04,8.7,5.35,0.09,-0.05,-0.15,1.0,a
3203.0,4095.0,931.0,4095.0,3806.0,3058.0,3175.0,3605.0,-0.07,8.83,5.33,-0.02,0.02,-0.15,1.0,a
3190.0,4095.0,942.0,4095.0,3806.0,3056.0,3168.0,3605.0,-0.52,8.6,5.4,0.04,-0.04,-0.01,1.0,a
3202.0,4095.0,929.0,4095.0,3808.0,3061.0,3165.0,3613.0,0.09,8.68,5.45,-0.01,-0.12,-0.04,1.0,a
3199.0,4095.0,924.0,4095.0,3822.0,3066.0,3172.0,3614.0,0.16,8.51,5.47,-0.05,-0.24,0.01,1.0,a
3194.0,4095.0,915.0,4095.0,3813.0,3070.0,3173.0,3611.0,0.51,8.68,5.36,-0.1,-0.21,-0.11,1.0,a
3201.0,4095.0,923.0,4095.0,3837.0,3069.0,3172.0,3613.0,0.73,8.58,5.48,-0.01,-0.07,-0.19,1.0,a
3207.0,4095.0,919.0,4095.0,3827.0,3071.0,3177.0,3616.0,0.96,8.64,5.46,0.17,-0.18,-0.39,1.0,a
3203.0,4095.0,923.0,4095.0,3827.0,3088.0,3175.0,3611.0,0.03,8.79,4.88,0.09,0.07,-0.44,1.0,a
3184.0,4095.0,918.0,4095.0,3833.0,3086.0,3172.0,3583.0,-1.46,8.66,4.72,-0.08,0.17,-0.22,1.0,a
3177.0,4095.0,925.0,4095.0,3851.0,3091.0,3159.0,3599.0,-1.44,8.46,4.9,-0.03,0.02,-0.07,1.0,a
3167.0,4095.0,917.0,4095.0,3867.0,3103.0,3159.0,3581.0,-1.11,8.56,4.88,-0.21,0.1,0.04,1.0,a
3155.0,4095.0,912.0,4095.0,3846.0,3101.0,3139.0,3526.0,-0.47,8.66,5.35,-0.2,-0.04,0.05,1.0,a
3155.0,4095.0,903.0,4095.0,3859.0,3104.0,3149.0,3495.0,-0.47,8.66,5.64,-0.22,-0.02,0.09,1.0,a
3152.0,4095.0,896.0,4095.0,3872.0,3108.0,3152.0,3449.0,-0.75,8.58,5.85,-0.11,0.15,0.12,1.0,a
3159.0,4095.0,902.0,4095.0,3853.0,3103.0,3148.0,3440.0,-0.96,8.69,5.66,0.0,0.18,0.17,1.0,a
3167.0,4095.0,902.0,4095.0,3861.0,3116.0,3155.0,3468.0,-0.82,8.68,5.51,0.05,0.1,0.29,1.0,a
3155.0,4095.0,907.0,4095.0,3853.0,3103.0,3150.0,3507.0,0.21,8.79,5.49,0.14,0.07,0.24,1.0,a
3152.0,4095.0,905.0,4095.0,3856.0,3105.0,3154.0,3520.0,0.0,8.88,5.16,0.08,0.16,0.28,1.0,a
3152.0,4095.0,898.0,4095.0,3865.0,3109.0,3152.0,3533.0,0.46,8.91,5.07,0.14,0.06,0.16,1.0,a
3149.0,4095.0,906.0,4095.0,3872.0,3091.0,3149.0,3527.0,0.43,8.99,4.83,0.11,0.25,0.2,1.0,a
3154.0,4095.0,901.0,4095.0,3881.0,3103.0,3148.0,3537.0,0.27,8.89,4.77,0.03,0.23,0.22,1.0,a
3152.0,4095.0,911.0,4095.0,3857.0,3112.0,3152.0,3538.0,0.69,8.84,4.94,0.03,0.08,0.17,1.0,a
3150.0,4095.0,898.0,4095.0,3863.0,3106.0,3154.0,3539.0,0.67,8.86,4.87,-0.02,0.07,0.13,1.0,a
3146.0,4095.0,905.0,4095.0,3850.0,3100.0,3149.0,3537.0,0.78,8.78,4.8,-0.04,0.09,0.05,1.0,a
3159.0,4095.0,901.0,4095.0,3851.0,3120.0,3152.0,3551.0,0.5,8.66,4.94,-0.03,0.12,0.08,1.0,a
3149.0,4095.0,906.0,4095.0,3855.0,3103.0,3153.0,3539.0,0.45,8.74,4.84,-0.02,-0.01,0.09,1.0,a
3146.0,4095.0,897.0,4095.0,3841.0,3091.0,3146.0,3539.0,0.61,8.77,4.84,0.03,0.02,0.08,1.0,a
3152.0,4095.0,909.0,4095.0,3861.0,3103.0,3151.0,3550.0,0.53,9.0,4.65,0.04,0.05,0.08,1.0,a
3151.0,4095.0,905.0,4095.0,3845.0,3102.0,3151.0,3543.0,0.83,8.91,4.72,0.07,0.0,0.06,1.0,a
3151.0,4095.0,902.0,4095.0,3868.0,3110.0,3157.0,3554.0,1.01,9.1,4.53,0.05,0.11,0.05,1.0,a
3146.0,4095.0,892.0,4095.0,3854.0,3105.0,3152.0,3550.0,0.79,9.08,4.63,0.0,0.06,0.02,1.0,a
3160.0,4095.0,898.0,4095.0,3856.0,3097.0,3158.0,3554.0,0.73,9.24,4.4,-0.01,0.06,0.04,1.0,a
3142.0,4095.0,907.0,4095.0,3841.0,3103.0,3150.0,3546.0,1.02,9.31,4.02,-0.08,0.15,0.04,1.0,a
3150.0,4095.0,901.0,4095.0,3842.0,3104.0,3151.0,3539.0,0.57,9.04,4.24,-0.21,0.13,0.09,1.0,a
3146.0,4095.0,906.0,4095.0,3851.0,3109.0,3152.0,3547.0,0.61,8.85,4.79,-0.21,0.1,0.07,1.0,a
3158.0,4095.0,903.0,4095.0,3850.0,3113.0,3152.0,3553.0,0.55,8.73,4.99,-0.15,0.2,0.08,1.0,a
3150.0,4095.0,900.0,4095.0,3856.0,3109.0,3155.0,3557.0,1.03,8.83,5.02,-0.1,0.19,0.03,1.0,a
3148.0,4095.0,900.0,4095.0,3867.0,3110.0,3163.0,3560.0,1.14,8.97,4.89,-0.08,0.17,-0.01,1.0,a
3149.0,4095.0,896.0,4095.0,3859.0,3114.0,3161.0,3566.0,1.01,9.08,4.8,-0.09,0.16,-0.05,1.0,a
3159.0,4095.0,897.0,4095.0,3856.0,3109.0,3157.0,3566.0,0.67,8.88,4.95,-0.12,0.15,-0.05,1.0,a
3152.0,4095.0,906.0,4095.0,3855.0,3110.0,3152.0,3552.0,0.58,8.85,4.92,-0.15,0.15,-0.04,1.0,a
3151.0,4095.0,895.0,4095.0,3847.0,3113.0,3153.0,3559.0,0.55,8.71,5.02,-0.16,0.06,-0.02,1.0,a
3147.0,4095.0,897.0,4095.0,3849.0,3110.0,3152.0,3579.0,0.74,8.84,5.07,-0.26,0.0,0.0,1.0,a
3145.0,4095.0,900.0,4095.0,3850.0,3103.0,3155.0,3567.0,0.85,8.76,5.38,-0.1,0.06,-0.09,1.0,a
3149.0,4095.0,903.0,4095.0,3849.0,3119.0,3159.0,3568.0,0.76,8.83,5.17,-0.05,0.13,-0.12,1.0,a
3152.0,4095.0,897.0,4095.0,3861.0,3111.0,3159.0,3568.0,0.72,8.81,5.06,-0.08,0.09,-0.14,1.0,a
3152.0,4095.0,895.0,4095.0,3867.0,3114.0,3159.0,3565.0,0.62,8.76,5.15,-0.13,0.06,-0.14,1.0,a
3145.0,4095.0,897.0,4095.0,3843.0,3118.0,3155.0,3567.0,0.92,8.86,4.93,-0.17,0.05,-0.18,1.0,a
3152.0,4095.0,896.0,4095.0,3863.0,3121.0,3162.0,3571.0,0.46,8.73,4.94,-0.24,-0.01,-0.28,1.0,a
3147.0,4095.0,903.0,4095.0,3850.0,3120.0,3155.0,3568.0,-0.0,8.51,5.44,-0.29,-0.02,-0.25,1.0,a
3152.0,4095.0,902.0,4095.0,3855.0,3120.0,3158.0,3568.0,-0.45,8.39,5.61,-0.29,-0.0,-0.2,1.0,a
3150.0,4095.0,907.0,4095.0,3860.0,3117.0,3153.0,3568.0,-0.4,8.35,5.7,-0.21,-0.1,-0.16,1.0,a
3157.0,4095.0,899.0,4095.0,3866.0,3131.0,3165.0,3581.0,-0.13,8.4,5.66,-0.17,-0.04,-0.13,1.0,a
3153.0,4095.0,903.0,4095.0,3856.0,3122.0,3167.0,3575.0,-0.37,8.34,5.74,-0.15,0.1,-0.08,1.0,a
3152.0,4095.0,899.0,4095.0,3866.0,3131.0,3168.0,3577.0,-0.17,8.45,5.53,-0.14,0.07,-0.09,1.0,a
3162.0,4095.0,899.0,4095.0,3862.0,3126.0,3165.0,3579.0,-0.33,8.41,5.85,-0.14,0.15,-0.04,1.0,a
3139.0,4095.0,896.0,4095.0,3867.0,3126.0,3169.0,3569.0,-0.33,8.55,5.79,-0.12,0.1,-0.07,1.0,a
3145.0,4095.0,895.0,4095.0,3869.0,3125.0,3163.0,3583.0,-0.37,8.41,6.12,-0.06,0.13,-0.05,1.0,a
3152.0,4095.0,901.0,4095.0,3855.0,3121.0,3161.0,3568.0,-0.73,8.49,5.69,-0.03,0.17,0.02,1.0,a
3159.0,4095.0,898.0,4095.0,3863.0,3125.0,3166.0,3581.0,-0.61,8.36,5.71,-0.06,0.05,0.09,1.0,a
3150.0,4095.0,897.0,4095.0,3874.0,3124.0,3163.0,3581.0,-0.19,8.26,5.9,-0.09,0.09,0.13,1.0,a
3150.0,4095.0,894.0,4095.0,3862.0,3122.0,3162.0,3583.0,-0.26,8.19,5.93,-0.08,0.11,0.13,1.0,a
3148.0,4095.0,899.0,4095.0,3862.0,3127.0,3166.0,3575.0,-0.13,8.2,5.77,-0.03,0.12,0.05,1.0,a
3153.0,4095.0,902.0,4095.0,3863.0,3123.0,3163.0,3583.0,-0.16,8.37,5.62,-0.07,0.14,0.09,1.0,a
3152.0,4095.0,909.0,4095.0,3854.0,3127.0,3163.0,3580.0,-0.04,8.32,5.59,-0.07,0.07,0.08,1.0,a
3147.0,4095.0,901.0,4095.0,3873.0,3126.0,3167.0,3583.0,0.06,8.39,5.61,-0.13,0.1,0.06,1.0,a
3150.0,4095.0,901.0,4095.0,3875.0,3130.0,3173.0,3575.0,0.18,8.32,6.06,-0.1,0.01,0.0,1.0,a
3143.0,4095.0,901.0,4095.0,3846.0,3130.0,3167.0,3583.0,0.45,8.24,6.38,-0.02,-0.01,-0.1,1.0,a
3155.0,4095.0,901.0,4095.0,3870.0,3110.0,3159.0,3575.0,-0.02,8.42,5.99,0.04,0.11,-0.13,1.0,a
3147.0,4095.0,903.0,4095.0,3859.0,3120.0,3161.0,3572.0,-0.52,8.6,5.35,0.01,0.09,-0.1,1.0,a
3151.0,4095.0,903.0,4095.0,3875.0,3127.0,3171.0,3583.0,-0.55,8.46,5.52,-0.07,-0.04,-0.02,1.0,a
3163.0,4095.0,900.0,4095.0,3886.0,3143.0,3172.0,3583.0,-0.16,8.37,5.63,-0.12,0.06,0.04,1.0,a
3151.0,4095.0,907.0,4095.0,3849.0,3123.0,3164.0,3582.0,-0.11,8.29,5.9,-0.11,0.02,0.02,1.0,a
3151.0,4095.0,900.0,4095.0,3863.0,3131.0,3169.0,3583.0,-0.07,8.29,5.76,-0.1,0.03,0.0,1.0,a
3152.0,4095.0,902.0,4095.0,3859.0,3121.0,3172.0,3583.0,-0.22,8.28,5.82,-0.11,0.02,-0.02,1.0,a
3157.0,4095.0,906.0,4095.0,3854.0,3117.0,3161.0,3583.0,-0.24,8.28,5.82,-0.1,-0.0,-0.02,1.0,a
3151.0,4095.0,910.0,4095.0,3868.0,3129.0,3167.0,3581.0,-0.34,8.14,5.92,-0.13,-0.02,-0.03,1.0,a
3149.0,4095.0,897.0,4095.0,3846.0,3133.0,3166.0,3574.0,-0.19,8.2,6.08,-0.12,-0.04,-0.01,1.0,a
3148.0,4095.0,903.0,4095.0,3856.0,3120.0,3164.0,3579.0,-0.26,8.17,6.02,-0.23,0.05,0.01,1.0,a
3162.0,4095.0,912.0,4010.0,3850.0,3127.0,3162.0,3567.0,0.01,8.01,6.56,0.18,0.35,0.12,1.0,a
3149.0,4095.0,900.0,3581.0,3813.0,3053.0,3142.0,3499.0,-0.17,8.76,5.54,0.22,0.43,0.16,1.0,a
3133.0,4095.0,894.0,3619.0,3789.0,3018.0,3136.0,3481.0,-0.16,8.45,5.35,0.16,0.06,-0.07,1.0,a
3141.0,4095.0,888.0,3750.0,3742.0,3013.0,3138.0,3462.0,-0.01,8.84,5.32,0.17,0.13,-0.1,1.0,a
3146.0,4095.0,899.0,3817.0,3744.0,3021.0,3129.0,3469.0,-0.21,8.32,5.56,0.15,0.04,-0.02,1.0,a
3135.0,4095.0,906.0,3911.0,3749.0,3040.0,3127.0,3471.0,-0.25,8.37,5.62,0.53,0.31,-0.12,1.0,a
3139.0,4095.0,917.0,4083.0,3782.0,3066.0,3151.0,3457.0,-0.25,9.31,4.61,0.14,0.13,-0.03,1.0,a
3163.0,4095.0,1166.0,4095.0,3763.0,3120.0,3203.0,3583.0,-0.52,8.89,4.54,-0.01,-0.02,-0.18,1.0,a
3252.0,4095.0,1878.0,4031.0,3700.0,3237.0,3312.0,3727.0,-0.39,8.77,4.94,0.03,0.06,-0.08,1.0,a
3429.0,4095.0,2076.0,3987.0,3664.0,3338.0,3375.0,3762.0,-0.49,8.85,5.08,0.18,-0.09,-0.07,1.0,a
3418.0,4095.0,2074.0,4023.0,3679.0,3309.0,3322.0,3677.0,-0.42,8.99,4.81,0.06,0.16,-0.0,1.0,a
3341.0,4078.0,1991.0,4014.0,3715.0,3215.0,3226.0,3569.0,-0.66,9.03,4.39,-0.1,0.1,0.01,1.0,a
3291.0,4043.0,1952.0,4027.0,3739.0,3174.0,3200.0,3524.0,-0.57,8.79,4.61,-0.12,-0.11,0.0,1.0,a
3204.0,4018.0,1899.0,4048.0,3775.0,3148.0,3186.0,3538.0,-0.41,9.11,4.72,-0.09,0.03,0.08,1.0,a
3130.0,3957.0,2019.0,4095.0,3815.0,3115.0,3166.0,3425.0,-0.55,8.75,4.93,-0.12,0.15,0.09,1.0,a
3104.0,3944.0,2087.0,4095.0,3840.0,3121.0,3157.0,3347.0,-0.28,8.75,5.06,-0.17,-0.11,-0.07,1.0,a
3111.0,3920.0,2229.0,4095.0,3834.0,3135.0,3155.0,3396.0,-0.31,8.72,5.13,-0.01,0.02,-0.02,1.0,a
3099.0,3917.0,2631.0,4095.0,3839.0,3135.0,3154.0,3369.0,-0.39,8.91,4.96,-0.0,-0.01,-0.03,1.0,a
3107.0,3892.0,3271.0,4095.0,3833.0,3138.0,3161.0,3284.0,-0.4,8.83,5.02,0.04,-0.05,-0.04,1.0,a
3090.0,3887.0,3567.0,4095.0,3815.0,3145.0,3156.0,3325.0,-0.36,8.76,4.96,-0.04,-0.02,0.0,1.0,a
3110.0,3907.0,3614.0,4095.0,3795.0,3152.0,3177.0,3370.0,-0.26,8.85,4.9,0.05,-0.24,-0.08,1.0,a
3097.0,3931.0,3666.0,4095.0,3733.0,3156.0,3187.0,3392.0,0.08,8.84,4.95,-0.0,-0.22,-0.16,1.0,a
3110.0,3953.0,3647.0,4000.0,3692.0,3153.0,3205.0,3453.0,-0.18,8.88,4.89,-0.01,-0.0,-0.08,1.0,a
3107.0,3943.0,3659.0,3909.0,3690.0,3152.0,3204.0,3478.0,-0.4,8.9,4.74,0.03,-0.22,-0.14,1.0,a
3120.0,3951.0,3614.0,3782.0,3687.0,3127.0,3198.0,3441.0,-0.34,8.9,4.71,-0.07,-0.17,-0.14,1.0,a
3101.0,3935.0,3598.0,3745.0,3677.0,3129.0,3188.0,3440.0,-0.38,8.72,5.02,-0.03,-0.03,-0.11,1.0,a
3091.0,3953.0,3599.0,3755.0,3659.0,3146.0,3184.0,3446.0,-0.54,8.81,4.82,0.25,0.07,-0.03,1.0,a
3107.0,3933.0,3572.0,3802.0,3674.0,3152.0,3190.0,3440.0,-0.41,9.12,4.6,0.26,0.11,-0.0,1.0,a
3103.0,3939.0,3568.0,3830.0,3662.0,3165.0,3202.0,3469.0,-0.32,9.28,4.29,0.02,0.01,-0.04,1.0,a
3111.0,3951.0,3561.0,3872.0,3666.0,3162.0,3197.0,3439.0,-0.47,9.16,4.36,0.12,-0.02,-0.01,1.0,a
3120.0,3963.0,3565.0,4071.0,3681.0,3196.0,3199.0,3382.0,0.18,9.62,3.97,-0.06,0.01,0.11,1.0,a
3109.0,3952.0,3537.0,4078.0,3691.0,3172.0,3187.0,3407.0,-0.43,9.13,4.21,-0.15,0.04,-0.01,1.0,a
3107.0,3934.0,3529.0,4002.0,3687.0,3159.0,3186.0,3471.0,-0.19,9.29,4.25,-0.08,0.05,0.04,1.0,a
3113.0,3915.0,3515.0,4095.0,3674.0,3130.0,3180.0,3465.0,-0.43,8.95,4.19,-0.24,0.08,0.04,1.0,a
3107.0,3937.0,3506.0,4095.0,3680.0,3120.0,3181.0,3473.0,-0.45,8.97,4.38,-0.16,-0.03,0.03,1.0,a
3118.0,3911.0,3506.0,4095.0,3693.0,3135.0,3183.0,3472.0,-0.42,9.03,4.52,-0.04,-0.01,0.08,1.0,a
3109.0,3939.0,3519.0,4095.0,3686.0,3120.0,3186.0,3488.0,-0.14,9.25,4.49,-0.01,0.03,0.09,1.0,a
3106.0,3920.0,3506.0,4095.0,3680.0,3116.0,3185.0,3485.0,-0.31,9.01,4.47,-0.01,0.04,0.07,1.0,a
3111.0,3927.0,3504.0,4095.0,3690.0,3119.0,3181.0,3482.0,-0.12,9.17,4.24,-0.03,0.01,0.02,1.0,a
