hall_1,hall_2,hall_3,flex_t,flex_i,flex_m,flex_r,flex_p,accel_x,accel_y,accel_z,gyro_x,gyro_y,gyro_z,hand,sign
1453.0,3456.0,2162.0,3985.0,2968.0,2225.0,2611.0,2675.0,-3.94,8.78,7.49,-0.01,-0.32,-0.54,0.0,a
1453.0,3455.0,2160.0,3999.0,2960.0,2236.0,2608.0,2679.0,-3.08,8.96,6.76,0.2,-0.36,-0.42,0.0,a
1441.0,3457.0,2165.0,3990.0,2966.0,2236.0,2610.0,2679.0,-3.81,8.72,7.0,0.09,-0.32,-0.51,0.0,a
1442.0,3470.0,2175.0,3993.0,2967.0,2237.0,2608.0,2675.0,-4.46,8.5,6.94,0.12,-0.19,-0.44,0.0,a
1436.0,3456.0,2162.0,3952.0,2966.0,2235.0,2608.0,2679.0,-3.66,8.94,6.4,0.06,-0.23,-0.47,0.0,a
1422.0,3447.0,2176.0,3945.0,2966.0,2233.0,2599.0,2671.0,-4.07,8.79,6.73,-0.14,-0.11,-0.27,0.0,a
1425.0,3459.0,2166.0,3943.0,2964.0,2235.0,2598.0,2667.0,-4.09,8.84,7.05,-0.06,0.15,-0.1,0.0,a
1424.0,3453.0,2176.0,3945.0,2967.0,2238.0,2604.0,2671.0,-3.62,9.0,6.74,0.02,0.12,-0.01,0.0,a
1424.0,3451.0,2176.0,3946.0,2956.0,2224.0,2588.0,2667.0,-3.08,9.05,6.55,0.01,0.1,-0.01,0.0,a
1408.0,3454.0,2178.0,3911.0,2941.0,2218.0,2587.0,2670.0,-3.39,8.61,6.56,-0.05,0.26,-0.07,0.0,a
1392.0,3461.0,2174.0,3903.0,2939.0,2223.0,2587.0,2667.0,-3.61,8.63,6.69,-0.06,0.18,-0.07,0.0,a
1393.0,3457.0,2175.0,3911.0,2938.0,2224.0,2591.0,2672.0,-3.69,8.67,6.59,-0.04,0.24,-0.04,0.0,a
1389.0,3468.0,2175.0,3926.0,2945.0,2218.0,2591.0,2669.0,-3.99,8.86,6.81,-0.1,0.34,0.02,0.0,a
1403.0,3455.0,2174.0,3927.0,2944.0,2224.0,2591.0,2671.0,-3.96,8.95,6.73,-0.05,0.58,0.15,0.0,a
1407.0,3463.0,2176.0,3920.0,2947.0,2224.0,2599.0,2677.0,-3.44,9.26,6.69,-0.13,0.63,0.35,0.0,a
1418.0,3467.0,2170.0,3934.0,2955.0,2228.0,2602.0,2681.0,-2.67,9.3,6.48,-0.11,0.61,0.36,0.0,a
1414.0,3455.0,2170.0,3902.0,2959.0,2230.0,2600.0,2678.0,-2.24,9.24,6.33,-0.13,0.55,0.29,0.0,a
1421.0,3462.0,2176.0,3899.0,2958.0,2230.0,2603.0,2674.0,-2.78,9.28,6.0,-0.07,0.51,0.13,0.0,a
1430.0,3461.0,2165.0,3888.0,2960.0,2229.0,2604.0,2656.0,-2.46,9.19,6.36,-0.21,0.53,0.19,0.0,a
1432.0,3459.0,2150.0,3883.0,2957.0,2224.0,2604.0,2659.0,-2.39,9.21,6.57,-0.17,0.49,0.31,0.0,a
1439.0,3463.0,2145.0,3880.0,2962.0,2233.0,2610.0,2671.0,-1.96,9.14,6.67,-0.14,0.45,0.36,0.0,a
1446.0,3466.0,2150.0,3893.0,2961.0,2234.0,2611.0,2655.0,-1.39,9.3,6.46,-0.04,0.33,0.28,0.0,a
1451.0,3456.0,2143.0,3888.0,2966.0,2233.0,2608.0,2639.0,-1.03,9.5,6.33,-0.14,0.36,0.29,0.0,a
1456.0,3451.0,2125.0,3882.0,2960.0,2230.0,2609.0,2653.0,-0.58,9.36,6.62,-0.2,0.34,0.19,0.0,a
1459.0,3463.0,2112.0,3891.0,2967.0,2239.0,2617.0,2657.0,-0.45,9.36,6.72,-0.07,0.2,0.13,0.0,a
1459.0,3461.0,2097.0,3882.0,2972.0,2240.0,2615.0,2640.0,-0.26,9.39,6.61,0.12,-0.05,-0.09,0.0,a
1452.0,3466.0,2064.0,3856.0,2982.0,2243.0,2627.0,2673.0,-0.29,9.59,6.32,0.04,-0.0,-0.17,0.0,a
1431.0,3482.0,2000.0,3862.0,3015.0,2269.0,2666.0,2706.0,-0.7,9.87,6.07,0.1,-0.23,-0.27,0.0,a
1423.0,3473.0,1974.0,3869.0,3026.0,2285.0,2679.0,2739.0,-1.23,10.06,6.03,-0.05,-0.08,-0.2,0.0,a
1401.0,3466.0,2026.0,3818.0,3006.0,2253.0,2629.0,2706.0,-0.82,9.72,6.68,0.01,-0.19,-0.37,0.0,a
1397.0,3453.0,2083.0,3760.0,2979.0,2225.0,2559.0,2687.0,-1.41,9.23,7.31,0.12,-0.26,-0.32,0.0,a
1371.0,3448.0,2112.0,3687.0,2942.0,2213.0,2550.0,2646.0,-1.13,10.03,5.98,0.42,-0.7,-0.5,0.0,a
1328.0,3429.0,2128.0,3583.0,2928.0,2205.0,2532.0,2640.0,-1.05,9.55,6.38,0.15,-0.43,-0.54,0.0,a
1295.0,3426.0,2154.0,3577.0,2929.0,2207.0,2497.0,2593.0,-1.84,9.69,6.22,0.21,-0.9,-0.56,0.0,a
1305.0,3413.0,2174.0,3567.0,2932.0,2210.0,2494.0,2559.0,-2.05,9.63,6.32,0.04,-0.27,-0.42,0.0,a
1331.0,3411.0,2176.0,3602.0,2941.0,2224.0,2511.0,2598.0,-1.8,9.4,6.32,0.24,-0.03,-0.41,0.0,a
1353.0,3433.0,2133.0,3661.0,2974.0,2251.0,2550.0,2597.0,-3.11,9.49,6.38,0.33,-0.05,-0.5,0.0,a
1366.0,3436.0,2113.0,3693.0,2986.0,2259.0,2559.0,2624.0,-2.01,9.6,5.56,0.22,-0.35,-0.29,0.0,a
1360.0,3427.0,2107.0,3694.0,2993.0,2269.0,2591.0,2640.0,-2.46,9.72,5.17,0.15,-0.35,-0.37,0.0,a
1347.0,3417.0,2113.0,3701.0,3001.0,2267.0,2593.0,2653.0,-2.0,9.96,5.38,-0.19,-0.35,-0.45,0.0,a
1315.0,3421.0,2112.0,3699.0,2993.0,2265.0,2594.0,2659.0,-2.15,9.68,6.39,-0.0,-0.64,-0.25,0.0,a
1298.0,3440.0,2128.0,3571.0,2970.0,2257.0,2592.0,2662.0,-1.87,9.4,6.26,0.14,-0.81,-0.41,0.0,a
1287.0,3424.0,2130.0,3538.0,2965.0,2251.0,2559.0,2660.0,-2.78,9.21,6.92,0.08,-0.43,-0.3,0.0,a
1307.0,3428.0,2127.0,3597.0,2967.0,2253.0,2559.0,2665.0,-2.75,9.36,6.65,0.28,-0.38,-0.11,0.0,a
1323.0,3429.0,2130.0,3681.0,2969.0,2251.0,2583.0,2649.0,-2.29,9.18,6.33,0.11,-0.36,-0.17,0.0,a
1334.0,3433.0,2114.0,3741.0,2977.0,2261.0,2595.0,2655.0,-3.05,9.5,6.7,0.27,-0.42,-0.43,0.0,a
1360.0,3440.0,2120.0,3830.0,2976.0,2267.0,2602.0,2658.0,-2.83,8.99,7.06,0.24,-0.48,-0.43,0.0,a
1347.0,3419.0,2119.0,3925.0,2976.0,2267.0,2606.0,2659.0,-2.38,8.96,6.48,0.24,-0.38,-0.54,0.0,a
1347.0,3434.0,2111.0,4065.0,2975.0,2267.0,2601.0,2661.0,-2.58,9.0,6.18,0.19,-0.26,-0.56,0.0,a
1355.0,3427.0,2125.0,4095.0,2978.0,2263.0,2599.0,2667.0,-3.48,8.75,6.48,0.18,-0.04,-0.37,0.0,a
1354.0,3430.0,2127.0,4095.0,2953.0,2255.0,2592.0,2671.0,-3.15,8.45,6.35,0.37,-0.32,-0.44,0.0,a
1358.0,3408.0,2135.0,4095.0,2955.0,2259.0,2593.0,2678.0,-3.0,8.78,5.8,0.29,-0.36,-0.38,0.0,a
1353.0,3435.0,2131.0,4095.0,2950.0,2257.0,2587.0,2672.0,-3.46,8.88,6.05,0.26,-0.14,-0.33,0.0,a
1333.0,3440.0,2129.0,3975.0,2939.0,2253.0,2593.0,2674.0,-4.08,8.99,5.43,0.08,-0.17,-0.19,0.0,a
1328.0,3421.0,2126.0,4095.0,2933.0,2246.0,2589.0,2677.0,-3.44,9.17,5.13,0.18,-0.08,-0.14,0.0,a
1317.0,3425.0,2129.0,4095.0,2935.0,2249.0,2594.0,2678.0,-3.94,9.09,5.28,-0.02,-0.18,-0.16,0.0,a
1330.0,3408.0,2131.0,4095.0,2929.0,2246.0,2594.0,2679.0,-3.33,9.17,5.71,-0.0,-0.04,-0.13,0.0,a
1328.0,3425.0,2123.0,4095.0,2939.0,2254.0,2599.0,2688.0,-3.3,8.95,5.61,-0.05,0.11,0.08,0.0,a
1328.0,3434.0,2128.0,4095.0,2941.0,2246.0,2593.0,2684.0,-3.22,9.19,5.83,0.04,-0.06,-0.05,0.0,a
1328.0,3420.0,2128.0,4095.0,2950.0,2256.0,2606.0,2681.0,-2.7,9.22,5.84,0.09,-0.08,-0.08,0.0,a
1331.0,3417.0,2129.0,4095.0,2949.0,2259.0,2605.0,2691.0,-3.31,9.26,5.78,0.07,-0.08,-0.16,0.0,a
1332.0,3418.0,2125.0,4095.0,2940.0,2255.0,2602.0,2688.0,-3.61,8.94,6.19,0.05,0.09,-0.01,0.0,a
1328.0,3418.0,2128.0,4095.0,2943.0,2256.0,2602.0,2688.0,-3.58,8.9,6.03,0.04,0.24,0.11,0.0,a
1334.0,3421.0,2117.0,4095.0,2943.0,2256.0,2598.0,2687.0,-3.02,8.82,5.41,-0.03,0.31,0.0,0.0,a
1329.0,3410.0,2128.0,4095.0,2942.0,2256.0,2602.0,2688.0,-3.19,9.04,5.28,-0.36,0.49,-0.03,0.0,a
1302.0,3415.0,2127.0,3824.0,2943.0,2242.0,2597.0,2689.0,-3.22,9.33,5.7,-0.62,0.46,-0.05,0.0,a
1294.0,3423.0,2129.0,3495.0,2958.0,2235.0,2597.0,2688.0,-2.7,9.04,6.62,-0.58,0.55,0.15,0.0,a
1287.0,3426.0,2128.0,3514.0,2973.0,2241.0,2595.0,2688.0,-2.46,9.35,6.88,-0.17,0.5,0.09,0.0,a
1279.0,3421.0,2125.0,3583.0,2970.0,2243.0,2593.0,2686.0,-1.98,9.66,5.81,-0.08,0.46,0.0,0.0,a
1281.0,3428.0,2137.0,3662.0,2973.0,2245.0,2591.0,2683.0,-2.69,9.61,5.52,0.01,0.46,-0.16,0.0,a
1287.0,3426.0,2137.0,3682.0,2963.0,2242.0,2585.0,2683.0,-3.61,9.81,5.07,-0.21,0.4,-0.12,0.0,a
1297.0,3419.0,2126.0,3713.0,2965.0,2247.0,2586.0,2676.0,-2.9,9.34,6.16,-0.19,0.23,-0.01,0.0,a
1317.0,3415.0,2126.0,3719.0,2962.0,2255.0,2595.0,2661.0,-2.86,9.22,6.27,-0.09,0.33,-0.02,0.0,a
1320.0,3429.0,2096.0,3771.0,2992.0,2255.0,2602.0,2645.0,-2.38,9.58,6.23,-0.15,0.28,0.1,0.0,a
1327.0,3435.0,2081.0,3776.0,2991.0,2258.0,2615.0,2658.0,-2.3,9.53,6.28,-0.04,0.29,-0.07,0.0,a
1323.0,3422.0,2071.0,3792.0,2997.0,2267.0,2628.0,2662.0,-1.91,9.77,6.28,-0.09,0.19,0.01,0.0,a
1328.0,3421.0,2065.0,3797.0,2994.0,2269.0,2631.0,2674.0,-1.95,9.8,6.29,-0.07,0.3,0.03,0.0,a
1333.0,3431.0,2065.0,3803.0,2992.0,2262.0,2627.0,2675.0,-1.85,9.58,6.87,0.04,0.26,-0.01,0.0,a
1328.0,3431.0,2078.0,3814.0,2992.0,2256.0,2608.0,2672.0,-1.62,10.01,6.2,0.11,0.25,-0.06,0.0,a
1327.0,3418.0,2096.0,3787.0,2992.0,2256.0,2559.0,2666.0,-1.18,10.07,5.73,0.19,0.3,-0.2,0.0,a
1326.0,3413.0,2118.0,3683.0,2988.0,2238.0,2544.0,2654.0,-1.7,9.85,4.62,-0.44,0.72,0.08,0.0,a
1318.0,3403.0,2143.0,3695.0,2977.0,2237.0,2545.0,2655.0,-1.7,8.87,5.87,-0.23,0.24,-0.32,0.0,a
1313.0,3412.0,2141.0,3705.0,2969.0,2234.0,2547.0,2655.0,-2.14,9.19,6.59,-0.23,-0.85,-0.61,0.0,a
1321.0,3407.0,2130.0,3722.0,2975.0,2236.0,2559.0,2671.0,-1.0,8.16,7.15,0.05,-0.67,-0.7,0.0,a
1328.0,3414.0,2128.0,3751.0,2986.0,2255.0,2559.0,2679.0,-2.66,8.08,7.01,0.12,-0.04,-0.51,0.0,a
1337.0,3421.0,2129.0,3760.0,2986.0,2256.0,2581.0,2687.0,-2.12,8.68,7.29,0.27,-0.33,-0.46,0.0,a
1330.0,3408.0,2126.0,3771.0,2985.0,2257.0,2585.0,2689.0,-1.48,9.45,5.8,0.05,1.55,-0.44,0.0,a
1344.0,3417.0,2129.0,3778.0,2987.0,2257.0,2582.0,2684.0,-5.51,9.16,5.15,-0.45,2.24,-0.42,0.0,a
1344.0,3411.0,2128.0,3792.0,2987.0,2256.0,2587.0,2681.0,-6.15,8.68,5.68,-0.37,0.81,-0.22,0.0,a
1346.0,3409.0,2127.0,3805.0,2987.0,2258.0,2598.0,2694.0,-4.9,8.33,5.77,-0.15,0.17,-0.08,0.0,a
1351.0,3418.0,2115.0,3824.0,2981.0,2260.0,2595.0,2689.0,-4.52,8.2,5.56,-0.3,0.37,0.16,0.0,a
1357.0,3418.0,2125.0,3819.0,2992.0,2260.0,2598.0,2689.0,-3.68,8.78,6.0,-0.18,0.02,0.13,0.0,a
1350.0,3399.0,2128.0,3838.0,2992.0,2273.0,2607.0,2699.0,-3.33,9.32,5.91,-0.24,0.53,0.23,0.0,a
1350.0,3411.0,2122.0,3833.0,2989.0,2271.0,2605.0,2699.0,-1.7,9.39,6.17,-0.08,-0.23,0.07,0.0,a
1347.0,3409.0,2127.0,3855.0,2996.0,2272.0,2599.0,2698.0,-1.77,9.77,6.16,0.06,-0.72,0.02,0.0,a
1357.0,3408.0,2123.0,3857.0,2992.0,2269.0,2601.0,2694.0,-1.06,10.19,6.14,0.18,-0.65,-0.22,0.0,a
1342.0,3408.0,2130.0,3842.0,2992.0,2271.0,2601.0,2699.0,-3.2,9.79,7.11,0.22,-0.77,-0.03,0.0,a
1349.0,3422.0,2128.0,3839.0,2990.0,2267.0,2603.0,2702.0,-1.82,9.99,6.0,0.5,-0.68,-0.19,0.0,a
1347.0,3408.0,2139.0,3839.0,2987.0,2261.0,2603.0,2694.0,-2.25,9.65,5.79,0.36,-0.9,-0.01,0.0,a
1323.0,3406.0,2130.0,3790.0,2953.0,2253.0,2602.0,2703.0,-2.08,9.03,6.11,0.33,-0.68,-0.33,0.0,a
1323.0,3403.0,2135.0,3783.0,2961.0,2253.0,2598.0,2701.0,-4.03,9.1,5.87,0.19,-1.71,-0.43,0.0,a
1322.0,3406.0,2140.0,3791.0,2969.0,2256.0,2599.0,2711.0,-0.79,9.02,6.03,0.44,-1.58,-0.93,0.0,a
1331.0,3410.0,2139.0,3802.0,2979.0,2256.0,2599.0,2705.0,-4.68,8.6,7.12,0.0,-0.81,-0.38,0.0,a
1335.0,3407.0,2133.0,3809.0,2981.0,2256.0,2597.0,2702.0,-3.29,8.83,7.49,0.43,-2.64,-0.55,0.0,a
1343.0,3408.0,2150.0,3822.0,2986.0,2258.0,2602.0,2709.0,-3.13,9.01,6.97,0.54,-1.88,-0.46,0.0,a
1335.0,3409.0,2141.0,3820.0,2986.0,2256.0,2597.0,2709.0,-0.74,9.17,6.96,0.47,-1.17,-0.38,0.0,a
1339.0,3397.0,2145.0,3809.0,2981.0,2255.0,2597.0,2711.0,-3.8,9.44,5.94,0.07,-0.03,-0.32,0.0,a
1339.0,3405.0,2144.0,3815.0,2990.0,2257.0,2602.0,2710.0,-2.95,8.78,7.08,0.03,-1.01,-0.38,0.0,a
1350.0,3409.0,2151.0,3811.0,2986.0,2257.0,2606.0,2709.0,-2.94,9.05,6.86,0.21,-1.23,-0.38,0.0,a
1338.0,3403.0,2157.0,3819.0,2988.0,2256.0,2603.0,2709.0,-2.31,8.95,6.9,0.14,-1.29,-0.21,0.0,a
1344.0,3408.0,2144.0,3819.0,2986.0,2252.0,2596.0,2706.0,-1.77,9.0,6.71,0.13,-0.76,-0.25,0.0,a
1339.0,3408.0,2158.0,3817.0,2983.0,2254.0,2599.0,2710.0,-2.0,8.97,6.96,-0.11,-0.0,-0.09,0.0,a
1334.0,3421.0,2159.0,3831.0,2990.0,2253.0,2603.0,2707.0,-2.03,9.03,7.26,-0.13,0.5,-0.13,0.0,a
1337.0,3415.0,2143.0,3826.0,2987.0,2256.0,2605.0,2711.0,-2.6,8.99,6.76,-0.12,0.99,-0.03,0.0,a
1344.0,3411.0,2153.0,3829.0,2990.0,2258.0,2605.0,2711.0,-2.22,9.17,6.29,-0.25,2.16,0.08,0.0,a
1340.0,3408.0,2147.0,3822.0,2989.0,2260.0,2601.0,2711.0,-2.67,9.1,6.74,-0.43,1.82,0.21,0.0,a
1341.0,3409.0,2149.0,3810.0,2992.0,2265.0,2608.0,2724.0,-4.42,9.38,6.18,-0.48,2.27,0.16,0.0,a
1337.0,3399.0,2146.0,3807.0,2994.0,2266.0,2602.0,2720.0,-2.76,9.52,6.06,-0.42,2.36,0.0,0.0,a
1329.0,3410.0,2146.0,3790.0,2991.0,2269.0,2605.0,2723.0,-4.09,9.23,6.3,-0.53,1.52,0.06,0.0,a
1327.0,3407.0,2135.0,3802.0,2991.0,2263.0,2605.0,2724.0,-3.93,9.21,6.53,-0.42,0.85,-0.11,0.0,a
1328.0,3411.0,2135.0,3809.0,2995.0,2267.0,2607.0,2720.0,-2.46,9.07,6.91,-0.3,0.62,-0.12,0.0,a
1335.0,3406.0,2140.0,3801.0,2992.0,2267.0,2608.0,2725.0,-3.38,9.0,6.66,-0.23,0.75,-0.01,0.0,a
1328.0,3405.0,2129.0,3814.0,2992.0,2273.0,2608.0,2726.0,-3.12,9.05,6.52,-0.14,0.54,-0.13,0.0,a
1328.0,3408.0,2128.0,3818.0,2992.0,2273.0,2610.0,2726.0,-3.31,8.97,6.46,-0.16,0.41,-0.14,0.0,a
1338.0,3409.0,2139.0,3839.0,2993.0,2271.0,2607.0,2721.0,-3.89,8.74,6.57,-0.19,0.39,-0.07,0.0,a
1329.0,3400.0,2139.0,3826.0,2990.0,2273.0,2608.0,2722.0,-3.52,9.12,6.11,-0.15,0.37,-0.05,0.0,a
1335.0,3408.0,2139.0,3834.0,2997.0,2281.0,2608.0,2723.0,-3.88,8.57,6.76,-0.2,0.15,0.06,0.0,a
1331.0,3421.0,2131.0,3833.0,2992.0,2271.0,2609.0,2727.0,-3.25,8.99,5.94,-0.18,0.12,0.08,0.0,a
1345.0,3408.0,2140.0,3833.0,2993.0,2275.0,2608.0,2723.0,-3.23,8.69,6.76,-0.34,0.22,0.27,0.0,a
1344.0,3409.0,2132.0,3831.0,2995.0,2277.0,2599.0,2723.0,-1.99,8.86,7.67,-0.18,-0.5,0.19,0.0,a
1330.0,3395.0,2154.0,3823.0,2993.0,2258.0,2559.0,2688.0,-2.62,8.67,7.47,-0.13,-0.1,0.27,0.0,a
1334.0,3391.0,2186.0,3819.0,2992.0,2250.0,2521.0,2634.0,-1.83,8.47,7.3,-0.12,-0.06,0.13,0.0,a
1321.0,3394.0,2173.0,3811.0,2994.0,2255.0,2527.0,2650.0,-1.84,8.83,7.07,0.04,0.1,0.02,0.0,a
1325.0,3385.0,2162.0,3807.0,2993.0,2268.0,2545.0,2673.0,-1.46,8.7,7.37,0.01,0.04,-0.11,0.0,a
1334.0,3395.0,2134.0,3806.0,2992.0,2271.0,2559.0,2690.0,-1.21,9.59,7.11,0.05,-0.41,-0.21,0.0,a
1339.0,3405.0,2134.0,3827.0,3006.0,2282.0,2582.0,2704.0,-2.31,9.82,7.07,-0.08,-0.33,-0.18,0.0,a
1325.0,3396.0,2134.0,3815.0,2999.0,2277.0,2592.0,2710.0,-2.66,10.44,7.05,0.01,-0.3,-0.13,0.0,a
1264.0,3394.0,2151.0,3777.0,2970.0,2257.0,2559.0,2688.0,-2.17,9.87,7.45,0.09,-0.48,-0.41,0.0,a
1233.0,3395.0,2170.0,3693.0,2960.0,2242.0,2533.0,2608.0,-1.68,9.85,6.95,0.05,-0.4,-0.4,0.0,a
1216.0,3393.0,2191.0,3629.0,2958.0,2246.0,2543.0,2614.0,-2.34,9.33,7.38,0.21,-0.14,-0.41,0.0,a
1234.0,3385.0,2188.0,3635.0,2960.0,2257.0,2556.0,2649.0,-2.98,9.36,7.03,0.47,-0.04,-0.45,0.0,a
1265.0,3398.0,2169.0,3694.0,2979.0,2270.0,2559.0,2651.0,-3.24,9.65,6.46,0.41,0.18,-0.36,0.0,a
1296.0,3383.0,2160.0,3712.0,2986.0,2277.0,2559.0,2670.0,-3.11,9.46,6.44,0.35,0.03,-0.42,0.0,a
1319.0,3397.0,2129.0,3747.0,2999.0,2286.0,2592.0,2665.0,-3.26,9.41,6.14,0.3,0.04,-0.42,0.0,a
1333.0,3398.0,2131.0,3774.0,3010.0,2301.0,2608.0,2685.0,-3.5,9.02,6.34,0.14,-0.03,-0.39,0.0,a
1328.0,3401.0,2115.0,3774.0,3015.0,2302.0,2618.0,2692.0,-3.67,9.05,5.5,0.18,-0.06,-0.38,0.0,a
1325.0,3394.0,2112.0,3776.0,3019.0,2305.0,2625.0,2703.0,-2.79,8.64,6.5,-0.15,0.05,-0.23,0.0,a
1326.0,3399.0,2122.0,3777.0,3023.0,2315.0,2627.0,2708.0,-3.19,8.65,6.49,0.06,-0.09,-0.3,0.0,a
1328.0,3386.0,2112.0,3778.0,3024.0,2309.0,2621.0,2705.0,-3.57,8.6,6.58,-0.05,-0.09,-0.33,0.0,a
1311.0,3382.0,2130.0,3766.0,2992.0,2287.0,2589.0,2685.0,-3.84,8.57,6.43,-0.03,-0.09,-0.29,0.0,a
1309.0,3397.0,2147.0,3760.0,2983.0,2270.0,2559.0,2675.0,-3.67,8.54,6.71,-0.06,-0.04,-0.21,0.0,a
1306.0,3391.0,2155.0,3762.0,2992.0,2277.0,2559.0,2676.0,-3.77,8.5,6.23,-0.09,0.13,-0.11,0.0,a
1303.0,3402.0,2149.0,3734.0,2990.0,2277.0,2559.0,2678.0,-3.87,8.38,6.24,-0.11,0.02,-0.08,0.0,a
1297.0,3397.0,2142.0,3745.0,2992.0,2282.0,2559.0,2688.0,-3.04,8.27,6.8,-0.14,0.11,0.04,0.0,a
1305.0,3394.0,2141.0,3751.0,2992.0,2285.0,2582.0,2688.0,-2.78,8.13,7.19,-0.16,0.21,0.19,0.0,a
1313.0,3393.0,2139.0,3756.0,3005.0,2291.0,2592.0,2699.0,-2.31,8.54,7.06,0.01,0.15,0.15,0.0,a
1329.0,3397.0,2128.0,3760.0,3009.0,2304.0,2607.0,2697.0,-2.32,8.94,6.79,0.03,0.09,0.14,0.0,a
1323.0,3402.0,2119.0,3761.0,3007.0,2307.0,2613.0,2704.0,-1.56,9.37,6.52,-0.08,-0.15,0.02,0.0,a
1323.0,3388.0,2129.0,3762.0,3012.0,2305.0,2610.0,2705.0,-2.5,9.26,6.92,-0.16,0.09,-0.07,0.0,a
1317.0,3403.0,2135.0,3774.0,3010.0,2304.0,2612.0,2704.0,-1.91,9.44,6.83,-0.0,-0.22,-0.15,0.0,a
1310.0,3395.0,2130.0,3769.0,3008.0,2295.0,2606.0,2704.0,-2.26,9.76,6.72,-0.06,-0.11,-0.25,0.0,a
1305.0,3387.0,2133.0,3760.0,3003.0,2292.0,2597.0,2701.0,-1.98,9.58,6.85,0.01,-0.3,-0.33,0.0,a
1309.0,3403.0,2142.0,3764.0,3005.0,2287.0,2589.0,2701.0,-2.72,9.31,7.12,0.05,-0.32,-0.46,0.0,a
1296.0,3399.0,2148.0,3762.0,3001.0,2286.0,2579.0,2690.0,-2.57,9.26,6.93,0.21,-0.41,-0.31,0.0,a
1291.0,3403.0,2151.0,3733.0,3002.0,2279.0,2559.0,2687.0,-2.17,9.23,6.54,0.13,-0.51,-0.5,0.0,a
1287.0,3399.0,2149.0,3706.0,3003.0,2282.0,2559.0,2687.0,-3.06,8.92,6.96,0.11,-0.48,-0.51,0.0,a
1294.0,3392.0,2153.0,3701.0,3002.0,2279.0,2559.0,2687.0,-3.74,8.49,7.38,0.08,-0.42,-0.49,0.0,a
1293.0,3403.0,2160.0,3709.0,3010.0,2288.0,2559.0,2690.0,-3.51,8.48,7.3,0.3,-0.47,-0.31,0.0,a
1309.0,3407.0,2149.0,3728.0,3008.0,2293.0,2595.0,2703.0,-3.48,8.4,7.12,0.31,-0.32,-0.41,0.0,a
1317.0,3392.0,2147.0,3750.0,3014.0,2304.0,2608.0,2709.0,-3.63,8.58,6.82,0.12,-0.4,-0.37,0.0,a
1318.0,3392.0,2131.0,3760.0,3018.0,2304.0,2614.0,2715.0,-3.84,8.34,6.85,-0.01,-0.07,-0.26,0.0,a
1313.0,3403.0,2139.0,3760.0,3022.0,2309.0,2611.0,2715.0,-4.53,8.61,7.1,-0.14,-0.1,-0.15,0.0,a
1311.0,3413.0,2135.0,3767.0,3020.0,2305.0,2609.0,2720.0,-4.12,8.8,7.2,-0.15,-0.08,-0.09,0.0,a
1307.0,3392.0,2138.0,3753.0,3018.0,2297.0,2603.0,2706.0,-4.1,8.83,7.55,-0.22,0.07,0.07,0.0,a
1302.0,3405.0,2149.0,3737.0,3019.0,2295.0,2590.0,2701.0,-3.71,8.9,7.54,-0.02,0.09,0.08,0.0,a
1309.0,3390.0,2156.0,3709.0,3014.0,2288.0,2559.0,2690.0,-2.93,8.96,7.35,-0.07,0.14,0.12,0.0,a
1289.0,3390.0,2160.0,3679.0,3018.0,2278.0,2558.0,2674.0,-2.99,8.71,7.28,-0.08,0.2,0.04,0.0,a
1290.0,3386.0,2160.0,3675.0,3017.0,2283.0,2559.0,2673.0,-3.07,8.78,7.27,-0.03,0.23,0.11,0.0,a
1289.0,3386.0,2160.0,3673.0,3013.0,2279.0,2559.0,2675.0,-3.06,8.71,7.47,0.02,0.29,0.21,0.0,a
1303.0,3394.0,2159.0,3714.0,3010.0,2288.0,2579.0,2689.0,-2.79,9.04,7.24,0.13,0.37,0.17,0.0,a
1318.0,3391.0,2150.0,3755.0,3019.0,2303.0,2593.0,2702.0,-2.41,9.86,7.29,0.11,0.46,0.13,0.0,a
1323.0,3406.0,2147.0,3759.0,3023.0,2304.0,2603.0,2704.0,-2.66,10.09,6.97,0.17,0.39,-0.02,0.0,a
1319.0,3402.0,2147.0,3760.0,3022.0,2303.0,2608.0,2706.0,-2.45,9.63,6.51,0.23,0.38,-0.12,0.0,a
1332.0,3385.0,2139.0,3763.0,3024.0,2306.0,2607.0,2704.0,-2.26,9.53,6.28,0.19,0.32,-0.2,0.0,a
1329.0,3414.0,2138.0,3771.0,3024.0,2307.0,2607.0,2707.0,-2.54,9.13,6.1,0.1,0.29,-0.2,0.0,a
1319.0,3390.0,2137.0,3761.0,3023.0,2310.0,2609.0,2710.0,-2.29,9.45,5.91,0.13,0.05,-0.28,0.0,a
1317.0,3397.0,2150.0,3763.0,3024.0,2309.0,2610.0,2715.0,-2.76,9.18,5.97,-0.01,0.05,-0.32,0.0,a
1306.0,3397.0,2147.0,3758.0,3018.0,2289.0,2578.0,2689.0,-3.0,8.96,6.15,-0.08,-0.09,-0.24,0.0,a
1317.0,3389.0,2159.0,3762.0,3015.0,2288.0,2559.0,2683.0,-2.76,9.09,6.4,0.0,-0.15,-0.2,0.0,a
1293.0,3403.0,2177.0,3761.0,3014.0,2285.0,2559.0,2676.0,-2.57,9.37,6.45,0.02,-0.27,-0.06,0.0,a
1305.0,3389.0,2170.0,3772.0,3010.0,2285.0,2559.0,2679.0,-1.96,9.15,6.62,0.17,-0.3,-0.07,0.0,a
1308.0,3386.0,2147.0,3770.0,3025.0,2306.0,2597.0,2707.0,-1.98,9.05,6.51,0.21,-0.12,-0.11,0.0,a
1278.0,3387.0,2121.0,3703.0,3035.0,2310.0,2639.0,2736.0,-2.3,9.08,6.74,0.2,-0.2,-0.15,0.0,a
1282.0,3408.0,2113.0,3709.0,3042.0,2315.0,2650.0,2742.0,-2.33,9.34,6.2,0.24,-0.31,-0.16,0.0,a
1296.0,3411.0,2125.0,3727.0,3047.0,2318.0,2645.0,2749.0,-1.87,8.91,6.04,0.18,-0.38,-0.3,0.0,a
1280.0,3399.0,2128.0,3730.0,3038.0,2304.0,2634.0,2741.0,-1.0,9.22,5.67,0.09,-0.55,-0.47,0.0,a
1283.0,3399.0,2134.0,3766.0,3031.0,2295.0,2608.0,2727.0,-3.16,8.54,7.12,-0.06,-0.33,-0.53,0.0,a
1296.0,3394.0,2151.0,3776.0,3027.0,2294.0,2602.0,2715.0,-3.9,8.74,7.18,0.22,-0.4,-0.36,0.0,a
1289.0,3387.0,2130.0,3781.0,3020.0,2293.0,2607.0,2726.0,-2.71,9.19,6.11,0.34,-0.39,-0.36,0.0,a
1301.0,3390.0,2138.0,3792.0,3024.0,2304.0,2624.0,2736.0,-2.91,8.85,5.7,0.09,-0.16,-0.49,0.0,a
1307.0,3392.0,2116.0,3797.0,3041.0,2308.0,2637.0,2730.0,-3.63,8.38,6.28,-0.11,-0.05,-0.61,0.0,a
1303.0,3386.0,2112.0,3786.0,3038.0,2313.0,2642.0,2742.0,-4.64,8.02,6.85,-0.36,-0.04,-0.3,0.0,a
1296.0,3390.0,2119.0,3779.0,3043.0,2310.0,2646.0,2745.0,-4.72,8.16,7.69,-0.07,0.01,-0.2,0.0,a
1294.0,3402.0,2115.0,3775.0,3038.0,2301.0,2639.0,2739.0,-4.48,8.49,7.14,0.03,-0.01,-0.0,0.0,a
1286.0,3393.0,2129.0,3762.0,3040.0,2299.0,2624.0,2731.0,-3.74,8.66,6.44,0.05,0.09,0.05,0.0,a
1284.0,3399.0,2135.0,3747.0,3042.0,2288.0,2604.0,2711.0,-3.56,8.68,6.32,-0.12,0.07,0.09,0.0,a
1281.0,3408.0,2150.0,3739.0,3031.0,2288.0,2602.0,2710.0,-3.09,8.98,6.44,-0.27,0.19,0.16,0.0,a
1279.0,3405.0,2151.0,3743.0,3024.0,2279.0,2596.0,2715.0,-2.7,8.87,6.52,-0.37,0.15,0.15,0.0,a
1293.0,3390.0,2142.0,3751.0,3024.0,2285.0,2608.0,2721.0,-2.91,8.94,6.96,-0.29,0.23,0.05,0.0,a
1296.0,3392.0,2145.0,3760.0,3031.0,2289.0,2617.0,2731.0,-3.46,8.74,7.43,-0.25,0.41,0.24,0.0,a
1300.0,3391.0,2121.0,3757.0,3034.0,2302.0,2625.0,2730.0,-2.9,8.78,6.97,-0.03,0.2,0.29,0.0,a
1152.0,4027.0,967.0,4095.0,2864.0,2530.0,2789.0,2640.0,-2.17,9.63,5.52,-0.03,-0.16,-0.22,0.0,a
1124.0,4095.0,969.0,3835.0,2869.0,2531.0,2768.0,2624.0,-1.83,9.19,5.98,0.03,-0.08,-0.22,0.0,a
1123.0,4095.0,973.0,3811.0,2881.0,2529.0,2765.0,2625.0,-1.83,9.48,5.6,0.01,-0.06,-0.23,0.0,a
1133.0,4095.0,982.0,3898.0,2870.0,2544.0,2790.0,2645.0,-2.29,9.58,5.56,0.01,-0.1,-0.13,0.0,a
1136.0,4095.0,976.0,3902.0,2879.0,2544.0,2797.0,2655.0,-2.09,9.57,5.55,-0.01,0.04,-0.13,0.0,a
1136.0,4095.0,965.0,3916.0,2886.0,2543.0,2800.0,2662.0,-2.14,9.58,5.58,0.02,0.01,-0.14,0.0,a
1131.0,4095.0,976.0,3943.0,2882.0,2545.0,2799.0,2663.0,-2.46,9.5,5.48,-0.02,0.08,-0.15,0.0,a
1130.0,4095.0,971.0,3984.0,2881.0,2545.0,2800.0,2661.0,-2.04,9.5,5.63,-0.01,0.1,-0.09,0.0,a
1137.0,4095.0,965.0,4039.0,2879.0,2543.0,2800.0,2663.0,-2.1,9.5,5.56,0.05,0.1,-0.11,0.0,a
1138.0,4095.0,4095.0,4062.0,2883.0,2535.0,2793.0,2701.0,-2.23,9.55,5.39,-0.02,0.21,-0.01,0.0,a
1132.0,4095.0,4095.0,4080.0,2893.0,2535.0,2800.0,2726.0,-1.87,9.6,5.54,-0.06,0.24,-0.07,0.0,a
1140.0,4095.0,4095.0,4080.0,2890.0,2544.0,2804.0,2730.0,-2.36,9.56,5.05,0.02,0.17,0.01,0.0,a
1150.0,4095.0,4095.0,4091.0,2885.0,2545.0,2804.0,2703.0,-1.31,9.28,5.61,-0.15,0.3,0.13,0.0,a
1153.0,4095.0,4095.0,4085.0,2890.0,2550.0,2801.0,2682.0,-1.0,9.42,5.96,-0.08,0.29,0.13,0.0,a
1150.0,4095.0,4095.0,4071.0,2895.0,2547.0,2800.0,2658.0,-0.58,9.62,5.59,-0.13,0.28,0.0,0.0,a
1152.0,4095.0,4095.0,4058.0,2893.0,2555.0,2789.0,2666.0,-1.23,9.53,5.49,-0.18,0.35,-0.02,0.0,a
1146.0,4095.0,4095.0,4058.0,2895.0,2556.0,2778.0,2665.0,-0.92,9.76,5.51,-0.21,-0.07,-0.01,0.0,a
1151.0,4095.0,4095.0,4095.0,2907.0,2559.0,2793.0,2685.0,-0.36,9.65,6.06,-0.25,0.02,-0.06,0.0,a
1146.0,4095.0,4095.0,4095.0,2896.0,2559.0,2787.0,2695.0,-0.04,9.46,6.39,-0.13,-0.0,-0.14,0.0,a
1150.0,4095.0,4095.0,4095.0,2893.0,2559.0,2795.0,2702.0,-0.4,10.19,6.6,0.04,-0.37,-0.19,0.0,a
1152.0,4095.0,4095.0,4095.0,2897.0,2559.0,2800.0,2711.0,-1.27,10.7,6.0,0.32,-0.45,-0.25,0.0,a
1153.0,4095.0,4095.0,4095.0,2891.0,2559.0,2800.0,2715.0,-0.99,10.14,5.35,0.13,-0.4,-0.32,0.0,a
1142.0,4095.0,4095.0,4095.0,2896.0,2559.0,2805.0,2714.0,-0.95,9.46,6.17,-0.02,-0.56,-0.27,0.0,a
1143.0,4095.0,4095.0,4095.0,2895.0,2559.0,2806.0,2707.0,-0.28,9.11,6.78,0.16,-0.51,-0.34,0.0,a
1142.0,4095.0,4095.0,4095.0,2895.0,2559.0,2804.0,2721.0,-1.35,9.56,5.94,0.19,-0.48,-0.36,0.0,a
1134.0,4095.0,4095.0,4095.0,2899.0,2559.0,2803.0,2721.0,-1.39,9.74,5.95,0.06,-0.46,-0.19,0.0,a
1152.0,4095.0,4095.0,4095.0,2896.0,2559.0,2805.0,2719.0,-0.5,9.39,6.33,0.05,-0.39,-0.29,0.0,a
1150.0,4095.0,4095.0,4095.0,2900.0,2559.0,2811.0,2719.0,-1.25,9.21,5.9,0.05,-0.52,-0.42,0.0,a
1136.0,4095.0,4095.0,3931.0,2896.0,2559.0,2807.0,2715.0,-1.6,9.24,6.05,-0.12,-0.8,-0.43,0.0,a
1133.0,4095.0,4095.0,3834.0,2899.0,2559.0,2803.0,2727.0,-1.09,9.48,6.26,-0.26,-1.2,-0.37,0.0,a
1150.0,4095.0,4095.0,3938.0,2898.0,2559.0,2814.0,2727.0,-1.3,9.33,8.19,-0.32,-1.42,-0.26,0.0,a
1140.0,4095.0,4095.0,3962.0,2902.0,2559.0,2814.0,2722.0,-2.08,9.31,7.96,-0.02,-0.69,0.03,0.0,a
1140.0,4095.0,4095.0,3974.0,2903.0,2559.0,2817.0,2733.0,-0.76,9.27,7.55,-0.05,0.22,0.01,0.0,a
1149.0,4095.0,4095.0,4002.0,2896.0,2580.0,2814.0,2736.0,-0.43,9.17,7.7,0.04,-0.23,0.0,0.0,a
1137.0,4095.0,4095.0,4017.0,2902.0,2581.0,2815.0,2736.0,-0.68,9.58,7.24,0.12,-0.17,-0.11,0.0,a
1153.0,4095.0,4095.0,4049.0,2899.0,2559.0,2818.0,2738.0,-0.85,9.41,7.76,0.12,0.03,-0.12,0.0,a
1140.0,4095.0,4095.0,4083.0,2901.0,2559.0,2817.0,2741.0,-0.94,9.64,6.85,0.25,-0.62,-0.1,0.0,a
1142.0,4095.0,4095.0,4095.0,2905.0,2559.0,2820.0,2742.0,-0.84,9.63,6.49,0.18,0.13,-0.17,0.0,a
1139.0,4095.0,4095.0,4095.0,2899.0,2559.0,2819.0,2738.0,0.43,9.28,6.86,-0.0,0.19,-0.12,0.0,a
1143.0,4095.0,4095.0,4095.0,2903.0,2559.0,2816.0,2738.0,-0.51,9.46,7.14,-0.09,0.65,-0.16,0.0,a
1140.0,4095.0,4095.0,4095.0,2903.0,2579.0,2820.0,2736.0,-2.54,9.7,6.91,-0.37,1.67,0.25,0.0,a
1147.0,4095.0,4095.0,4095.0,2902.0,2559.0,2827.0,2743.0,-1.3,9.76,6.88,-0.32,1.74,0.1,0.0,a
1152.0,4095.0,4095.0,4095.0,2913.0,2559.0,2785.0,2747.0,-0.73,9.45,7.88,-0.55,0.72,0.17,0.0,a
1148.0,4095.0,4095.0,3971.0,2905.0,2559.0,2811.0,2756.0,-1.26,9.43,8.21,-0.11,1.12,-0.11,0.0,a
1152.0,4095.0,4095.0,4015.0,2909.0,2559.0,2816.0,2762.0,-1.16,9.23,8.07,0.1,1.21,-0.05,0.0,a
1152.0,4095.0,4095.0,4020.0,2903.0,2559.0,2821.0,2765.0,-1.38,9.37,7.16,0.23,1.01,-0.05,0.0,a
1155.0,4095.0,4095.0,4023.0,2909.0,2559.0,2819.0,2770.0,-2.31,9.21,6.88,0.11,0.61,-0.03,0.0,a
1145.0,4095.0,4095.0,3990.0,2914.0,2559.0,2815.0,2771.0,-1.75,8.92,6.57,-0.11,0.69,-0.02,0.0,a
1158.0,4095.0,4095.0,4003.0,2911.0,2559.0,2820.0,2779.0,-2.29,9.0,7.28,-0.13,0.39,-0.07,0.0,a
1151.0,4095.0,4095.0,4018.0,2914.0,2581.0,2823.0,2782.0,-2.16,9.38,7.08,0.01,0.62,0.06,0.0,a
1154.0,4095.0,4095.0,4035.0,2919.0,2559.0,2813.0,2784.0,-1.99,9.84,6.38,0.12,0.59,-0.0,0.0,a
1145.0,4095.0,4095.0,4033.0,2915.0,2559.0,2829.0,2788.0,-1.27,9.79,5.94,0.19,0.2,-0.25,0.0,a
1158.0,4095.0,4095.0,4035.0,2921.0,2559.0,2831.0,2797.0,-1.77,9.42,5.99,0.04,0.17,-0.47,0.0,a
1148.0,4095.0,4095.0,4043.0,2927.0,2581.0,2823.0,2800.0,-2.57,9.28,6.43,0.18,-0.06,-0.38,0.0,a
1148.0,4095.0,4095.0,3986.0,2928.0,2556.0,2830.0,2801.0,-2.4,8.87,5.97,0.27,-1.08,-0.17,0.0,a
1145.0,4095.0,4095.0,3973.0,2933.0,2544.0,2843.0,2813.0,-2.65,9.02,6.06,0.09,-0.3,-0.32,0.0,a
1149.0,4095.0,4095.0,4008.0,2930.0,2551.0,2843.0,2819.0,-2.45,8.9,6.18,0.25,-0.57,-0.28,0.0,a
1148.0,4095.0,4095.0,4018.0,2929.0,2549.0,2839.0,2821.0,-1.8,8.92,6.05,0.28,-1.04,-0.3,0.0,a
1154.0,4095.0,4095.0,4026.0,2931.0,2550.0,2847.0,2817.0,-2.83,8.85,6.13,0.13,-0.32,-0.19,0.0,a
1158.0,4095.0,4095.0,4034.0,2933.0,2557.0,2848.0,2823.0,-2.97,9.15,5.59,-0.09,-0.1,-0.24,0.0,a
1147.0,4095.0,4095.0,4043.0,2930.0,2549.0,2841.0,2819.0,-3.57,9.07,6.5,-0.22,-0.04,-0.01,0.0,a
1152.0,4095.0,4095.0,4045.0,2929.0,2558.0,2847.0,2822.0,-2.3,9.11,6.69,-0.22,0.11,0.11,0.0,a
1146.0,4095.0,4095.0,4048.0,2928.0,2559.0,2850.0,2816.0,-2.03,9.24,6.9,-0.13,0.02,0.11,0.0,a
1143.0,4095.0,4095.0,4051.0,2937.0,2559.0,2846.0,2823.0,-0.45,9.84,7.08,0.11,-0.4,0.07,0.0,a
1156.0,4095.0,4095.0,4069.0,2938.0,2559.0,2852.0,2828.0,-1.53,10.15,6.5,0.35,-0.25,-0.29,0.0,a
1169.0,4095.0,4095.0,4070.0,2931.0,2559.0,2850.0,2829.0,-2.25,9.82,5.83,0.33,-0.4,-0.4,0.0,a
1150.0,4095.0,4095.0,4074.0,2934.0,2553.0,2845.0,2800.0,-0.39,9.17,7.13,0.29,-0.6,-0.28,0.0,a
1147.0,4095.0,4095.0,4087.0,2934.0,2582.0,2835.0,2802.0,-2.25,9.52,4.59,0.6,-0.88,-0.51,0.0,a
1153.0,4095.0,4095.0,4048.0,2931.0,2559.0,2851.0,2819.0,-3.6,9.76,5.05,-0.16,-0.46,-0.36,0.0,a
1153.0,4095.0,4095.0,3950.0,2928.0,2579.0,2847.0,2830.0,-2.99,9.28,6.35,-0.28,0.01,-0.34,0.0,a
1167.0,4095.0,4095.0,4032.0,2928.0,2559.0,2853.0,2832.0,-3.54,8.1,6.8,-0.25,0.13,-0.05,0.0,a
1169.0,4095.0,4095.0,4021.0,2933.0,2559.0,2858.0,2829.0,-2.43,8.28,6.93,-0.41,0.23,0.33,0.0,a
1157.0,4095.0,4095.0,4030.0,2930.0,2559.0,2859.0,2832.0,-1.67,9.43,8.04,-0.29,0.32,0.39,0.0,a
1153.0,4095.0,4095.0,4022.0,2935.0,2580.0,2851.0,2832.0,-1.63,9.84,7.73,-0.22,0.63,0.11,0.0,a
1159.0,4095.0,4095.0,4005.0,2939.0,2589.0,2858.0,2832.0,-1.18,9.56,7.31,0.08,0.46,0.01,0.0,a
1162.0,4095.0,4095.0,4005.0,2939.0,2582.0,2859.0,2829.0,-1.31,9.56,6.37,0.05,0.29,-0.11,0.0,a
1152.0,4095.0,4095.0,3999.0,2942.0,2583.0,2853.0,2834.0,-1.38,9.61,6.99,0.08,0.32,-0.18,0.0,a
1141.0,4095.0,4095.0,4013.0,2938.0,2590.0,2839.0,2832.0,-1.0,9.81,6.18,0.05,0.02,-0.4,0.0,a
1134.0,4095.0,4095.0,3999.0,2944.0,2594.0,2841.0,2832.0,-1.44,9.18,7.48,0.11,-0.18,-0.58,0.0,a
1152.0,4095.0,4095.0,4015.0,2944.0,2591.0,2848.0,2829.0,-1.98,9.54,6.06,0.28,-0.32,-0.43,0.0,a
1153.0,4095.0,4095.0,4016.0,2941.0,2589.0,2851.0,2832.0,-2.81,8.99,6.8,-0.0,-0.18,-0.74,0.0,a
1137.0,4095.0,4095.0,4022.0,2941.0,2590.0,2838.0,2832.0,-3.47,8.98,7.18,0.13,-0.11,-0.49,0.0,a
1142.0,4095.0,4095.0,4034.0,2945.0,2596.0,2849.0,2833.0,-3.74,8.41,6.36,0.24,-0.06,-0.17,0.0,a
1148.0,4095.0,4095.0,4033.0,2949.0,2591.0,2850.0,2834.0,-3.64,8.37,6.19,-0.01,0.0,-0.1,0.0,a
1138.0,4095.0,4095.0,4048.0,2944.0,2595.0,2858.0,2833.0,-3.64,8.24,6.84,-0.2,0.13,0.03,0.0,a
1155.0,4095.0,4095.0,4027.0,2945.0,2597.0,2864.0,2835.0,-3.05,8.6,7.16,-0.18,0.26,0.27,0.0,a
1152.0,4095.0,4095.0,4034.0,2947.0,2598.0,2859.0,2832.0,-2.03,9.16,6.89,-0.05,0.19,0.22,0.0,a
1143.0,4095.0,4095.0,4039.0,2947.0,2598.0,2851.0,2834.0,-1.54,9.32,6.28,-0.14,0.17,0.09,0.0,a
1142.0,4095.0,4095.0,4038.0,2947.0,2604.0,2837.0,2832.0,-1.41,9.51,6.83,0.0,0.0,-0.06,0.0,a
1157.0,4095.0,4095.0,4059.0,2943.0,2602.0,2842.0,2832.0,-1.97,9.53,6.66,0.1,0.1,-0.09,0.0,a
1160.0,4095.0,4095.0,4049.0,2951.0,2608.0,2847.0,2835.0,-1.85,9.4,6.52,0.07,0.08,-0.15,0.0,a
1136.0,4095.0,4095.0,4079.0,2960.0,2604.0,2848.0,2834.0,-2.45,9.33,6.59,0.04,0.04,-0.21,0.0,a
1137.0,4095.0,4095.0,4075.0,2957.0,2608.0,2849.0,2832.0,-4.2,9.21,6.67,-0.16,0.7,-0.02,0.0,a
1139.0,4095.0,4032.0,4065.0,2960.0,2615.0,2832.0,2857.0,-2.35,9.29,6.42,0.04,0.11,-0.1,0.0,a
1137.0,4095.0,4095.0,4068.0,2961.0,2615.0,2832.0,2814.0,-2.32,9.11,6.89,0.03,0.06,-0.13,0.0,a
1136.0,4095.0,4095.0,4083.0,2958.0,2623.0,2846.0,2802.0,-1.58,9.09,7.06,0.17,0.17,-0.12,0.0,a
1147.0,4095.0,4095.0,4071.0,2955.0,2617.0,2832.0,2765.0,-1.9,9.7,5.67,-0.01,-0.01,-0.44,0.0,a
1136.0,4095.0,4095.0,4077.0,2959.0,2619.0,2832.0,2736.0,-3.12,9.46,6.15,0.0,-0.13,-0.17,0.0,a
1136.0,4095.0,4095.0,4079.0,2960.0,2622.0,2838.0,2736.0,-1.59,9.75,5.46,0.05,-0.3,-0.03,0.0,a
1137.0,4095.0,4095.0,4080.0,2960.0,2624.0,2833.0,2750.0,-1.47,9.9,5.8,-0.15,-0.58,-0.37,0.0,a
1136.0,4095.0,4095.0,4095.0,2963.0,2621.0,2832.0,2741.0,-1.68,9.47,6.62,-0.21,-0.79,-0.59,0.0,a
1135.0,4095.0,4095.0,4095.0,2960.0,2619.0,2834.0,2742.0,-2.11,8.92,7.6,0.09,-0.77,-0.42,0.0,a
1130.0,4095.0,4095.0,4095.0,2960.0,2624.0,2832.0,2736.0,-2.21,9.03,7.49,0.13,-0.59,-0.33,0.0,a
1141.0,4095.0,4095.0,4095.0,2959.0,2622.0,2842.0,2747.0,-1.23,9.51,7.52,0.3,-0.56,-0.28,0.0,a
1146.0,4095.0,4095.0,4095.0,2962.0,2624.0,2843.0,2758.0,-3.38,9.08,6.65,0.26,-0.62,-0.65,0.0,a
1143.0,4095.0,4095.0,4095.0,2960.0,2626.0,2849.0,2776.0,-4.22,9.01,7.3,0.08,-0.15,-0.46,0.0,a
1135.0,4095.0,4095.0,4095.0,2963.0,2624.0,2845.0,2784.0,-2.93,8.93,7.33,0.02,0.12,-0.26,0.0,a
1136.0,4095.0,4095.0,4095.0,2963.0,2625.0,2845.0,2784.0,-2.92,8.86,6.77,0.11,0.17,-0.22,0.0,a
1142.0,4095.0,4095.0,4095.0,2960.0,2627.0,2845.0,2787.0,-3.78,8.67,6.84,0.05,0.11,-0.17,0.0,a
1835.0,927.0,1279.0,4095.0,2889.0,2481.0,2903.0,2479.0,-1.73,9.04,4.96,-0.04,-0.32,-0.08,0.0,a
1831.0,946.0,1277.0,4095.0,2885.0,2480.0,2903.0,2482.0,-2.86,9.33,5.72,-0.19,-0.09,-0.1,0.0,a
1834.0,934.0,1273.0,4095.0,2887.0,2483.0,2898.0,2493.0,-2.72,9.66,5.47,0.0,-0.33,-0.15,0.0,a
1828.0,937.0,1273.0,4095.0,2891.0,2487.0,2898.0,2493.0,-2.07,9.25,5.87,0.02,-0.38,-0.11,0.0,a
1831.0,945.0,1274.0,4095.0,2890.0,2485.0,2899.0,2490.0,-3.01,9.07,6.43,-0.14,-0.12,-0.3,0.0,a
1826.0,933.0,1283.0,4095.0,2893.0,2493.0,2905.0,2497.0,-3.41,8.91,6.56,-0.04,-0.24,-0.12,0.0,a
1822.0,931.0,1277.0,4095.0,2887.0,2489.0,2899.0,2503.0,-2.73,8.9,7.03,-0.13,-0.18,-0.04,0.0,a
1821.0,937.0,1280.0,4095.0,2896.0,2487.0,2901.0,2497.0,-3.02,8.58,6.58,-0.06,0.14,0.0,0.0,a
1822.0,948.0,1279.0,4095.0,2896.0,2485.0,2895.0,2497.0,-3.17,9.55,6.56,-0.3,0.35,0.01,0.0,a
1836.0,932.0,1279.0,4095.0,2896.0,2490.0,2905.0,2499.0,-1.94,9.83,7.02,-0.02,0.29,0.09,0.0,a
1822.0,935.0,1262.0,4095.0,2886.0,2485.0,2903.0,2499.0,-1.66,9.19,6.62,0.08,0.3,-0.13,0.0,a
1826.0,937.0,1264.0,4095.0,2896.0,2493.0,2922.0,2506.0,-3.5,9.05,5.4,-0.09,0.6,-0.22,0.0,a
1825.0,930.0,1268.0,4095.0,2895.0,2481.0,2912.0,2510.0,-1.48,9.2,7.03,-0.29,0.18,0.14,0.0,a
1821.0,940.0,1266.0,4095.0,2901.0,2493.0,2913.0,2511.0,-1.12,9.03,6.93,0.12,-0.03,-0.05,0.0,a
1830.0,941.0,1265.0,4095.0,2897.0,2493.0,2915.0,2510.0,-1.49,9.94,6.12,-0.06,-0.16,-0.32,0.0,a
1835.0,943.0,1273.0,4095.0,2896.0,2494.0,2909.0,2512.0,-2.51,9.91,6.79,0.11,-0.26,-0.3,0.0,a
1835.0,939.0,1266.0,4095.0,2899.0,2494.0,2912.0,2512.0,-1.91,9.43,5.9,0.2,-0.47,-0.29,0.0,a
1829.0,927.0,1270.0,4095.0,2896.0,2490.0,2905.0,2513.0,-2.37,9.12,6.23,-0.08,-0.49,-0.37,0.0,a
1837.0,934.0,1270.0,4095.0,2898.0,2495.0,2913.0,2512.0,-2.49,8.88,7.63,-0.14,-0.26,-0.26,0.0,a
1825.0,930.0,1276.0,4095.0,2902.0,2497.0,2913.0,2518.0,-2.58,8.79,7.83,0.1,-0.38,-0.25,0.0,a
1824.0,931.0,1266.0,4095.0,2903.0,2497.0,2917.0,2525.0,-2.08,8.51,7.76,0.24,-0.2,0.04,0.0,a
1823.0,937.0,1264.0,4095.0,2897.0,2494.0,2914.0,2527.0,-1.91,9.4,7.12,0.14,-0.24,-0.26,0.0,a
1840.0,943.0,1271.0,4095.0,2905.0,2497.0,2918.0,2525.0,-2.69,9.18,6.89,0.21,-0.32,-0.16,0.0,a
1826.0,944.0,1264.0,3733.0,2864.0,2497.0,2913.0,2525.0,-2.16,9.62,6.3,0.23,-0.51,-0.17,0.0,a
1805.0,929.0,1264.0,3488.0,2990.0,2506.0,2913.0,2521.0,-2.25,9.87,6.53,0.05,-0.27,-0.13,0.0,a
1795.0,925.0,1262.0,3504.0,3041.0,2512.0,2911.0,2528.0,-1.93,9.29,7.29,0.03,-0.08,-0.24,0.0,a
1794.0,927.0,1254.0,3536.0,3058.0,2511.0,2918.0,2531.0,-2.01,9.24,6.99,0.09,0.07,-0.2,0.0,a
1787.0,934.0,1261.0,3521.0,3068.0,2509.0,2911.0,2530.0,-2.01,9.23,6.83,0.06,0.03,-0.19,0.0,a
1788.0,944.0,1249.0,3618.0,3064.0,2514.0,2922.0,2531.0,-0.86,9.67,6.26,0.14,-0.3,-0.32,0.0,a
1791.0,935.0,1259.0,3749.0,2994.0,2512.0,2928.0,2542.0,-1.69,9.32,7.02,0.16,-0.39,-0.39,0.0,a
1795.0,934.0,1252.0,3794.0,2956.0,2508.0,2925.0,2539.0,-2.54,9.44,6.85,0.37,-0.36,-0.45,0.0,a
1798.0,943.0,1250.0,3913.0,2880.0,2507.0,2923.0,2533.0,-3.08,9.4,6.78,0.38,-0.11,-0.34,0.0,a
1800.0,930.0,1264.0,3974.0,2864.0,2507.0,2927.0,2533.0,-3.07,9.46,6.13,0.2,0.24,-0.4,0.0,a
1799.0,929.0,1255.0,4006.0,2851.0,2507.0,2923.0,2535.0,-3.23,9.18,6.1,0.15,0.41,-0.45,0.0,a
1799.0,935.0,1263.0,4041.0,2847.0,2507.0,2928.0,2538.0,-4.99,8.72,4.92,-0.14,0.83,-0.46,0.0,a
1783.0,934.0,1253.0,4062.0,2858.0,2512.0,2926.0,2544.0,-3.0,8.34,5.45,-0.39,0.52,-0.09,0.0,a
1794.0,933.0,1258.0,4048.0,2847.0,2506.0,2923.0,2541.0,-3.26,8.45,6.25,-0.38,0.31,0.04,0.0,a
1794.0,942.0,1253.0,4043.0,2859.0,2507.0,2930.0,2542.0,-1.87,10.07,4.98,0.09,-0.53,-0.2,0.0,a
1793.0,940.0,1258.0,4054.0,2861.0,2511.0,2922.0,2544.0,-3.07,7.88,6.47,-0.11,-0.29,-0.12,0.0,a
1782.0,923.0,1264.0,4031.0,2864.0,2512.0,2928.0,2545.0,-3.31,8.53,6.21,-0.22,-0.19,-0.2,0.0,a
1795.0,934.0,1264.0,4001.0,2870.0,2509.0,2921.0,2544.0,-4.79,9.01,6.82,-0.18,-0.18,0.17,0.0,a
1803.0,930.0,1264.0,4066.0,2885.0,2509.0,2914.0,2544.0,-3.0,8.99,7.46,-0.26,-0.01,0.33,0.0,a
1802.0,938.0,1264.0,4062.0,2880.0,2512.0,2928.0,2546.0,-2.44,9.4,7.56,-0.07,0.1,0.26,0.0,a
1799.0,931.0,1265.0,4069.0,2883.0,2512.0,2925.0,2539.0,-2.16,9.06,7.69,-0.23,0.36,0.06,0.0,a
1802.0,944.0,1262.0,4076.0,2885.0,2514.0,2922.0,2549.0,-1.06,8.42,8.5,0.41,0.57,0.32,0.0,a
1803.0,936.0,1257.0,4086.0,2891.0,2514.0,2923.0,2547.0,-0.54,9.66,5.88,0.34,0.59,0.18,0.0,a
1803.0,929.0,1258.0,4077.0,2886.0,2511.0,2928.0,2544.0,-1.11,9.67,5.08,0.03,0.18,-0.24,0.0,a
1810.0,938.0,1258.0,4082.0,2896.0,2512.0,2929.0,2553.0,-1.78,10.02,5.94,-0.21,-0.04,-0.18,0.0,a
1808.0,937.0,1264.0,4067.0,2890.0,2513.0,2927.0,2549.0,-2.09,10.13,6.04,0.02,-0.4,-0.15,0.0,a
1800.0,943.0,1261.0,4081.0,2895.0,2519.0,2926.0,2549.0,-1.19,9.33,7.29,0.07,-0.48,0.03,0.0,a
1803.0,929.0,1267.0,4071.0,2895.0,2515.0,2927.0,2549.0,-1.12,9.98,6.72,0.15,-0.49,-0.22,0.0,a
1811.0,926.0,1264.0,4048.0,2895.0,2517.0,2925.0,2547.0,-1.8,9.96,6.81,0.18,-0.35,-0.27,0.0,a
1804.0,942.0,1264.0,4044.0,2887.0,2526.0,2929.0,2556.0,-1.85,9.91,6.44,0.17,-0.27,-0.44,0.0,a
1819.0,932.0,1266.0,4058.0,2888.0,2519.0,2930.0,2555.0,-2.8,9.74,7.16,0.12,-0.02,-0.47,0.0,a
1803.0,938.0,1262.0,4065.0,2896.0,2515.0,2932.0,2559.0,-2.77,9.44,5.76,0.17,0.0,-0.52,0.0,a
1809.0,931.0,1264.0,4049.0,2885.0,2507.0,2929.0,2559.0,-2.94,9.02,5.17,-0.11,-0.22,-0.56,0.0,a
1808.0,947.0,1240.0,4048.0,2894.0,2517.0,2931.0,2558.0,-2.67,8.59,7.54,-0.72,0.05,-0.12,0.0,a
1809.0,938.0,1254.0,4066.0,2895.0,2511.0,2930.0,2559.0,-2.37,8.16,8.48,-0.26,0.15,-0.2,0.0,a
1814.0,938.0,1250.0,4075.0,2897.0,2514.0,2927.0,2559.0,-2.12,6.28,7.25,-0.28,-0.23,0.53,0.0,a
1813.0,933.0,1258.0,4091.0,2896.0,2511.0,2922.0,2559.0,-2.29,10.08,7.56,-0.18,0.08,0.33,0.0,a
1804.0,944.0,1255.0,4074.0,2902.0,2522.0,2928.0,2559.0,-1.21,10.8,8.07,-0.13,0.09,0.19,0.0,a
1811.0,943.0,1248.0,4082.0,2900.0,2519.0,2928.0,2559.0,-1.12,9.45,8.67,0.03,0.2,-0.12,0.0,a
1810.0,927.0,1247.0,4080.0,2896.0,2514.0,2933.0,2559.0,-1.04,9.79,7.08,0.18,0.07,-0.35,0.0,a
1808.0,928.0,1243.0,4082.0,2899.0,2515.0,2929.0,2559.0,-0.97,9.36,7.23,0.18,-0.21,-0.57,0.0,a
1808.0,935.0,1248.0,4086.0,2901.0,2518.0,2934.0,2559.0,-1.97,8.54,7.28,0.16,-0.26,-0.51,0.0,a
1809.0,937.0,1244.0,4095.0,2898.0,2521.0,2933.0,2582.0,-2.08,8.42,7.41,0.08,-0.41,-0.52,0.0,a
1820.0,925.0,1254.0,4095.0,2901.0,2526.0,2928.0,2581.0,-2.88,8.51,7.59,0.0,-0.37,-0.46,0.0,a
1821.0,927.0,1242.0,4095.0,2895.0,2518.0,2930.0,2559.0,-2.5,7.93,8.11,-0.14,-0.61,-0.47,0.0,a
1798.0,933.0,1251.0,4095.0,2893.0,2522.0,2930.0,2581.0,-3.38,7.7,9.21,0.15,-1.67,-0.13,0.0,a
1798.0,929.0,1239.0,4095.0,2905.0,2526.0,2931.0,2588.0,-3.14,8.43,8.83,-0.26,0.9,0.01,0.0,a
1805.0,931.0,1257.0,4095.0,2903.0,2532.0,2929.0,2587.0,-3.25,8.73,8.62,0.09,0.46,0.04,0.0,a
1811.0,944.0,1248.0,4095.0,2903.0,2527.0,2929.0,2591.0,-3.63,8.11,8.18,-0.0,0.15,0.13,0.0,a
1803.0,927.0,1245.0,4095.0,2910.0,2530.0,2931.0,2591.0,-1.97,8.68,7.81,0.13,0.38,0.65,0.0,a
1811.0,935.0,1247.0,4095.0,2903.0,2527.0,2934.0,2589.0,-0.87,9.32,6.94,-0.07,0.26,0.44,0.0,a
1813.0,937.0,1245.0,4095.0,2906.0,2531.0,2935.0,2582.0,0.73,9.6,7.17,-0.29,-0.11,0.05,0.0,a
1808.0,927.0,1252.0,4095.0,2909.0,2529.0,2937.0,2579.0,-0.53,9.54,8.5,-0.17,-0.28,-0.19,0.0,a
1811.0,929.0,1255.0,4095.0,2902.0,2527.0,2933.0,2586.0,-0.01,9.26,7.94,0.09,-0.5,-0.38,0.0,a
1805.0,926.0,1246.0,4095.0,2880.0,2525.0,2933.0,2587.0,-0.71,9.27,8.33,0.11,-0.55,-0.46,0.0,a
1805.0,934.0,1251.0,4095.0,2865.0,2523.0,2932.0,2591.0,-1.7,9.15,8.49,0.21,-0.52,-0.32,0.0,a
1797.0,928.0,1247.0,4095.0,2866.0,2527.0,2929.0,2584.0,-1.54,9.35,8.02,0.08,-0.47,-0.27,0.0,a
1803.0,944.0,1247.0,4095.0,2866.0,2523.0,2934.0,2585.0,-0.99,9.05,8.79,0.09,-0.54,-0.29,0.0,a
1808.0,939.0,1236.0,4095.0,2870.0,2522.0,2935.0,2587.0,-1.02,8.58,9.05,0.15,-0.37,-0.34,0.0,a
1799.0,941.0,1243.0,4095.0,2871.0,2524.0,2939.0,2589.0,-0.51,8.66,8.36,0.15,-0.38,-0.45,0.0,a
1809.0,931.0,1244.0,4095.0,2875.0,2515.0,2935.0,2599.0,-1.38,8.67,8.71,-0.03,-0.11,-0.3,0.0,a
1796.0,942.0,1237.0,4095.0,2873.0,2517.0,2935.0,2588.0,-1.29,8.82,8.75,0.08,-0.04,-0.19,0.0,a
1806.0,929.0,1251.0,4095.0,2875.0,2515.0,2935.0,2588.0,-1.27,8.97,8.8,0.19,-0.29,-0.15,0.0,a
1801.0,943.0,1242.0,4095.0,2880.0,2522.0,2935.0,2590.0,-0.08,9.28,8.01,0.5,-1.53,-0.32,0.0,a
1808.0,938.0,1244.0,4095.0,2883.0,2512.0,2935.0,2591.0,-0.18,9.2,7.84,0.45,-1.87,-0.33,0.0,a
1807.0,940.0,1235.0,4095.0,2881.0,2511.0,2930.0,2591.0,0.75,9.4,7.65,0.21,0.58,-0.18,0.0,a
1805.0,924.0,1252.0,4095.0,2882.0,2512.0,2928.0,2597.0,-0.3,9.38,7.13,0.22,0.1,-0.3,0.0,a
1791.0,942.0,1258.0,4095.0,2877.0,2512.0,2927.0,2591.0,-0.3,9.33,6.94,0.13,0.17,-0.25,0.0,a
1789.0,926.0,1251.0,4095.0,2882.0,2496.0,2925.0,2597.0,-0.31,9.37,6.49,0.09,0.1,-0.18,0.0,a
1793.0,933.0,1247.0,4095.0,2883.0,2491.0,2917.0,2589.0,-0.71,9.6,6.74,0.05,-0.01,-0.24,0.0,a
1787.0,935.0,1249.0,4095.0,2878.0,2484.0,2910.0,2597.0,-1.0,9.76,7.03,0.1,0.11,-0.15,0.0,a
1797.0,938.0,1241.0,4095.0,2886.0,2495.0,2909.0,2593.0,-0.89,9.6,6.89,0.03,0.08,-0.19,0.0,a
1808.0,944.0,1251.0,4095.0,2893.0,2495.0,2924.0,2587.0,-0.51,9.37,7.27,-0.09,0.18,-0.12,0.0,a
1801.0,932.0,1263.0,4095.0,2892.0,2500.0,2929.0,2559.0,-0.88,9.36,7.06,0.04,0.23,-0.12,0.0,a
1808.0,925.0,1262.0,4095.0,2896.0,2502.0,2928.0,2559.0,-0.8,9.8,6.36,0.1,-0.07,-0.11,0.0,a
1795.0,934.0,1273.0,4095.0,2893.0,2502.0,2934.0,2544.0,-0.64,9.68,6.48,0.05,0.04,-0.22,0.0,a
1808.0,930.0,1342.0,4095.0,2896.0,2475.0,2967.0,2403.0,-1.44,9.65,6.11,-0.01,1.25,-0.07,0.0,a
1808.0,936.0,1353.0,4095.0,2895.0,2462.0,2961.0,2400.0,-0.88,9.37,6.9,-0.01,-0.7,-0.31,0.0,a
1799.0,924.0,1361.0,4095.0,2905.0,2457.0,2970.0,2375.0,-0.96,9.29,6.81,0.03,0.2,-0.15,0.0,a
1799.0,929.0,1375.0,4095.0,2905.0,2469.0,2988.0,2391.0,-0.79,9.56,6.59,0.03,0.48,-0.16,0.0,a
1803.0,917.0,1357.0,4095.0,2901.0,2481.0,2987.0,2430.0,-1.49,9.69,6.55,-0.11,1.23,-0.26,0.0,a
1806.0,918.0,1359.0,4095.0,2895.0,2480.0,2995.0,2441.0,-2.83,9.66,5.9,-0.59,3.14,-0.28,0.0,a
1795.0,915.0,1355.0,4095.0,2898.0,2483.0,2992.0,2448.0,-3.68,9.37,6.93,-0.04,0.41,-0.18,0.0,a
1807.0,919.0,1354.0,4095.0,2898.0,2482.0,3005.0,2455.0,-2.45,10.12,6.12,0.05,0.59,-0.28,0.0,a
1790.0,927.0,1359.0,4095.0,2898.0,2490.0,3007.0,2459.0,-3.1,9.11,5.87,-0.24,0.74,-0.41,0.0,a
1795.0,921.0,1355.0,4095.0,2891.0,2489.0,2998.0,2463.0,-2.93,8.73,6.23,-0.5,1.01,-0.3,0.0,a
1801.0,925.0,1355.0,4095.0,2906.0,2489.0,2999.0,2467.0,-3.43,8.3,6.9,-0.46,1.13,0.06,0.0,a
1797.0,931.0,1349.0,4095.0,2901.0,2492.0,2992.0,2475.0,-2.88,8.65,6.36,-0.21,0.66,-0.08,0.0,a
1801.0,919.0,1347.0,4095.0,2904.0,2487.0,2992.0,2479.0,-3.45,8.5,6.14,-0.19,0.37,-0.03,0.0,a
1790.0,925.0,1343.0,4095.0,2909.0,2499.0,2998.0,2483.0,-2.79,8.98,6.4,-0.1,0.35,0.12,0.0,a
1802.0,914.0,1343.0,4095.0,2914.0,2501.0,2994.0,2489.0,-2.48,9.56,5.9,-0.11,0.47,-0.1,0.0,a
1797.0,921.0,1350.0,4095.0,2913.0,2500.0,2992.0,2491.0,-2.72,9.04,6.17,-0.14,0.01,-0.28,0.0,a
1793.0,917.0,1345.0,4095.0,2909.0,2502.0,2989.0,2493.0,-3.45,9.28,6.03,0.06,-0.31,-0.17,0.0,a
