hall_1,hall_2,hall_3,flex_t,flex_i,flex_m,flex_r,flex_p,accel_x,accel_y,accel_z,gyro_x,gyro_y,gyro_z,hand,sign
3555.0,4095.0,991.0,3115.0,4095.0,4095.0,4095.0,4095.0,-0.8,9.33,7.34,-0.02,0.03,-0.14,0.0,b
3546.0,4095.0,992.0,3111.0,4095.0,4095.0,4095.0,4095.0,-0.68,9.26,7.35,0.0,-0.07,-0.17,0.0,b
3568.0,4095.0,986.0,3118.0,4095.0,4095.0,4095.0,4095.0,-0.64,9.32,7.39,0.02,0.01,-0.15,0.0,b
3562.0,4095.0,989.0,3107.0,4095.0,4095.0,4095.0,4095.0,-0.75,9.32,7.28,0.02,-0.04,-0.15,0.0,b
3559.0,4095.0,998.0,3115.0,4095.0,4095.0,4095.0,4095.0,-0.67,9.31,7.24,0.02,-0.05,-0.16,0.0,b
3554.0,4095.0,1001.0,3111.0,4095.0,4095.0,4095.0,4095.0,-0.81,9.32,7.32,0.01,0.07,-0.14,0.0,b
3533.0,4095.0,993.0,3114.0,4095.0,4095.0,4095.0,4095.0,-0.84,9.3,7.41,0.02,0.0,-0.15,0.0,b
3497.0,4095.0,975.0,3118.0,4095.0,4095.0,4095.0,4095.0,-0.75,9.28,7.26,0.01,0.01,-0.17,0.0,b
3471.0,4095.0,967.0,3120.0,4095.0,4095.0,4095.0,4095.0,-0.68,9.3,7.2,0.02,-0.03,-0.15,0.0,b
3498.0,4095.0,966.0,3125.0,4095.0,4095.0,4095.0,4095.0,-0.66,9.33,7.2,-0.01,0.02,-0.15,0.0,b
3490.0,4095.0,954.0,3118.0,4095.0,4095.0,4095.0,4095.0,-0.87,9.34,7.36,-0.02,0.06,-0.14,0.0,b
3549.0,4095.0,961.0,3123.0,4095.0,4095.0,4095.0,4095.0,-0.81,9.36,7.13,-0.07,0.01,-0.06,0.0,b
3605.0,4095.0,1020.0,3124.0,4095.0,4095.0,4095.0,4095.0,-0.61,9.21,7.52,-0.06,-0.05,-0.14,0.0,b
3650.0,4095.0,1143.0,3119.0,4095.0,3949.0,4095.0,4095.0,-0.52,9.38,6.88,0.02,-0.06,-0.14,0.0,b
3663.0,4095.0,2054.0,3120.0,4095.0,3705.0,4095.0,4095.0,-0.6,9.37,7.36,0.07,0.02,-0.15,0.0,b
3689.0,4095.0,2827.0,3122.0,4095.0,3568.0,4095.0,4095.0,-0.77,9.3,7.39,0.03,-0.03,-0.16,0.0,b
3728.0,4095.0,3487.0,3119.0,4095.0,3437.0,4095.0,4095.0,-0.75,9.33,7.34,0.05,0.01,-0.14,0.0,b
3746.0,4095.0,3710.0,3117.0,4095.0,3392.0,4095.0,4095.0,-0.69,9.31,7.36,0.03,-0.0,-0.15,0.0,b
3750.0,4095.0,3884.0,3121.0,4095.0,3334.0,4095.0,4095.0,-0.69,9.36,7.47,0.03,0.03,-0.14,0.0,b
3796.0,4095.0,4037.0,3123.0,4095.0,3295.0,4095.0,4095.0,-0.66,9.31,7.25,0.04,0.03,-0.13,0.0,b
3308.0,4095.0,1037.0,3293.0,4095.0,4095.0,4095.0,4095.0,-0.69,9.24,7.76,0.02,-0.08,-0.14,0.0,b
3319.0,4095.0,1009.0,3299.0,4095.0,4095.0,4095.0,4095.0,-0.7,9.22,7.56,0.04,-0.05,-0.13,0.0,b
3302.0,4095.0,1007.0,3294.0,4095.0,4095.0,4095.0,4095.0,-0.59,9.32,7.5,0.01,-0.08,-0.15,0.0,b
3303.0,4095.0,1035.0,3297.0,4095.0,4095.0,4095.0,4095.0,-0.78,9.23,7.75,-0.0,-0.06,-0.13,0.0,b
3291.0,4095.0,1045.0,3296.0,4095.0,4095.0,4095.0,4095.0,-0.92,9.29,7.81,0.03,-0.07,-0.09,0.0,b
3297.0,4095.0,1072.0,3303.0,4095.0,4095.0,4095.0,4095.0,-0.24,9.25,7.21,-0.03,-0.16,-0.16,0.0,b
3284.0,4095.0,1058.0,3302.0,4095.0,4095.0,4095.0,4095.0,0.99,9.72,6.89,-0.21,-0.31,-0.33,0.0,b
3283.0,4095.0,1057.0,3307.0,4095.0,4095.0,4095.0,4095.0,0.08,8.89,8.07,-0.34,-0.26,-0.69,0.0,b
3280.0,4095.0,1130.0,3310.0,4095.0,4095.0,4095.0,4095.0,-1.86,8.72,8.62,-0.06,-0.23,-0.53,0.0,b
3293.0,4095.0,1146.0,3313.0,4095.0,4095.0,4095.0,4095.0,-2.34,8.7,8.21,0.01,-0.22,-0.42,0.0,b
3290.0,4095.0,1181.0,3312.0,4095.0,4095.0,4095.0,4095.0,-2.33,8.65,8.4,0.02,0.01,0.04,0.0,b
3280.0,4095.0,1178.0,3310.0,4095.0,4095.0,4095.0,4095.0,-1.24,8.99,7.75,0.03,-0.04,0.17,0.0,b
3282.0,4095.0,1154.0,3313.0,4095.0,4095.0,4095.0,4095.0,-0.0,9.02,7.68,-0.08,-0.08,0.14,0.0,b
3262.0,4095.0,1147.0,3307.0,4095.0,4095.0,4095.0,4095.0,0.2,9.17,7.91,-0.09,0.08,0.09,0.0,b
3264.0,4095.0,1104.0,3297.0,4095.0,4095.0,4095.0,4095.0,2.33,8.98,7.04,-0.2,0.04,0.01,0.0,b
3269.0,4095.0,1170.0,3299.0,4095.0,4095.0,4095.0,4095.0,-0.52,8.57,8.54,0.03,-0.16,-0.5,0.0,b
3295.0,4095.0,1427.0,3312.0,4095.0,4095.0,4095.0,4095.0,-2.29,8.84,8.24,0.2,-0.16,-0.34,0.0,b
3289.0,4095.0,1385.0,3312.0,4095.0,4095.0,4095.0,4095.0,-1.5,9.07,8.01,0.11,-0.01,0.07,0.0,b
3280.0,4095.0,1386.0,3310.0,4095.0,4095.0,4095.0,4095.0,-0.91,8.84,8.2,-0.04,0.37,0.14,0.0,b
3281.0,4095.0,1312.0,3309.0,4095.0,4095.0,4095.0,4095.0,-0.12,9.12,8.68,-0.14,0.24,0.12,0.0,b
3248.0,4095.0,1658.0,3309.0,4095.0,4095.0,4095.0,4095.0,-0.53,9.24,7.7,0.11,0.08,-0.18,0.0,b
3253.0,4095.0,1584.0,3310.0,4095.0,4095.0,4095.0,4095.0,-0.14,9.18,7.59,0.02,0.05,-0.05,0.0,b
3259.0,4095.0,1264.0,3311.0,4095.0,4095.0,4095.0,4095.0,0.28,9.32,7.41,0.0,-0.01,-0.08,0.0,b
3269.0,4095.0,973.0,3306.0,4095.0,4095.0,4095.0,4095.0,-0.08,9.22,7.68,-0.01,-0.04,-0.14,0.0,b
3290.0,4095.0,989.0,3293.0,4095.0,4095.0,4095.0,4095.0,-0.0,9.2,7.7,0.05,-0.09,-0.18,0.0,b
3344.0,4095.0,1084.0,3293.0,4095.0,4095.0,4095.0,4095.0,-0.42,9.19,7.7,0.01,-0.01,-0.16,0.0,b
3422.0,4095.0,1442.0,3281.0,4095.0,4095.0,4095.0,4095.0,-0.01,9.07,8.16,0.04,-0.1,-0.17,0.0,b
3472.0,4095.0,1712.0,3273.0,4095.0,4095.0,4095.0,4095.0,-0.16,9.28,7.75,0.01,-0.04,-0.1,0.0,b
3583.0,4095.0,1929.0,3274.0,4095.0,4064.0,4095.0,4095.0,-0.05,9.2,7.67,0.08,-0.01,-0.17,0.0,b
3567.0,4095.0,2047.0,3270.0,4095.0,3922.0,4095.0,4095.0,-0.18,9.23,7.51,0.04,0.0,-0.16,0.0,b
3601.0,4095.0,2507.0,3281.0,4095.0,3808.0,4095.0,4095.0,-0.31,9.33,7.61,-0.0,-0.05,-0.12,0.0,b
3616.0,4095.0,3061.0,3276.0,4095.0,3674.0,4095.0,4095.0,0.27,9.28,7.15,-0.02,0.0,-0.0,0.0,b
3603.0,4095.0,3280.0,3280.0,4095.0,3619.0,4095.0,4095.0,-0.04,9.23,7.62,0.02,0.0,-0.12,0.0,b
3661.0,4095.0,3628.0,3271.0,4095.0,3561.0,4095.0,4095.0,0.09,9.34,7.42,0.01,-0.05,-0.12,0.0,b
3677.0,4095.0,3842.0,3266.0,4095.0,3455.0,4095.0,4095.0,0.06,9.32,7.41,0.01,-0.01,-0.14,0.0,b
3702.0,4095.0,4055.0,3275.0,4095.0,3459.0,4095.0,4095.0,0.0,9.25,7.58,-0.08,0.01,-0.13,0.0,b
3708.0,4095.0,3942.0,3279.0,4095.0,3482.0,4095.0,4095.0,-0.04,9.18,7.76,0.0,-0.02,-0.14,0.0,b
3677.0,4095.0,3616.0,3271.0,4095.0,3600.0,4095.0,4095.0,0.11,9.32,7.64,-0.04,-0.0,-0.13,0.0,b
3605.0,4095.0,3307.0,3280.0,4095.0,3792.0,4095.0,4095.0,0.08,9.23,7.74,-0.05,0.03,-0.13,0.0,b
3551.0,4095.0,3093.0,3277.0,4095.0,3984.0,4095.0,4095.0,0.08,9.17,7.75,-0.03,0.04,-0.14,0.0,b
3742.0,4095.0,2796.0,3153.0,4095.0,4095.0,4095.0,4095.0,-0.12,9.09,7.71,-0.17,0.04,-0.05,0.0,b
3728.0,4095.0,2832.0,3183.0,4095.0,4095.0,4095.0,4095.0,-0.09,9.24,7.96,-0.07,0.02,-0.08,0.0,b
3733.0,4095.0,2877.0,3200.0,4095.0,4095.0,4095.0,4095.0,0.02,9.11,8.01,0.05,0.05,-0.12,0.0,b
3728.0,4095.0,2928.0,3217.0,4095.0,4095.0,4095.0,4095.0,-0.13,9.19,7.83,0.02,-0.0,-0.12,0.0,b
3725.0,4095.0,2952.0,3243.0,4095.0,4095.0,4095.0,4095.0,-0.05,9.19,7.81,0.06,0.02,-0.15,0.0,b
3696.0,4095.0,3029.0,3281.0,4095.0,4095.0,4095.0,4095.0,-0.31,9.22,7.71,0.03,-0.02,-0.23,0.0,b
3701.0,4095.0,3050.0,3317.0,4095.0,4095.0,4095.0,4095.0,-0.07,9.1,7.63,0.08,-0.03,-0.18,0.0,b
3677.0,4095.0,3088.0,3407.0,4095.0,4095.0,4095.0,4095.0,-0.17,9.23,7.74,0.22,-0.13,-0.31,0.0,b
3634.0,4095.0,3101.0,3419.0,4095.0,4095.0,4095.0,4095.0,-0.1,9.2,7.52,0.16,0.02,-0.22,0.0,b
3560.0,4095.0,3090.0,3436.0,4095.0,4095.0,4095.0,4095.0,-0.35,9.3,7.48,0.18,-0.03,-0.2,0.0,b
3472.0,4095.0,3049.0,3441.0,4095.0,4095.0,4095.0,4095.0,-0.62,9.61,6.76,0.06,-0.08,-0.23,0.0,b
3374.0,4095.0,2932.0,3439.0,4095.0,4095.0,4095.0,4095.0,-0.36,9.39,7.32,-0.06,-0.03,-0.18,0.0,b
3350.0,4095.0,2731.0,3432.0,4095.0,4095.0,4095.0,4095.0,-0.23,9.5,7.63,0.0,-0.04,-0.14,0.0,b
3423.0,4095.0,1659.0,3427.0,4095.0,4095.0,4095.0,4095.0,-0.29,9.12,7.41,0.16,-0.02,0.06,0.0,b
3475.0,4095.0,1470.0,3395.0,4095.0,4095.0,4095.0,4095.0,-0.09,9.14,7.75,0.07,-0.1,-0.06,0.0,b
3483.0,4095.0,2229.0,3382.0,4095.0,3479.0,4095.0,4095.0,-0.1,9.23,7.58,0.01,-0.07,-0.1,0.0,b
3527.0,4095.0,2559.0,3391.0,4095.0,3281.0,4095.0,4095.0,-0.09,9.41,7.42,0.04,-0.01,-0.13,0.0,b
3557.0,4095.0,2736.0,3379.0,3972.0,3167.0,4095.0,4095.0,-0.25,9.37,7.39,0.02,0.01,-0.17,0.0,b
3637.0,4095.0,3012.0,3392.0,3925.0,3117.0,4095.0,4095.0,-0.18,9.32,7.44,-0.05,-0.0,-0.08,0.0,b
3659.0,4095.0,3200.0,3392.0,3935.0,3071.0,4095.0,4095.0,-0.12,9.23,7.57,0.0,0.03,-0.06,0.0,b
3543.0,4095.0,3133.0,3429.0,4095.0,4095.0,4095.0,4095.0,-0.02,9.14,7.83,-0.05,0.08,-0.14,0.0,b
3563.0,4095.0,3131.0,3440.0,4095.0,4095.0,4095.0,4095.0,-0.14,9.08,7.78,-0.06,0.07,-0.15,0.0,b
3583.0,4095.0,3137.0,3441.0,4095.0,4095.0,4095.0,4095.0,-0.08,9.15,7.97,-0.09,0.11,-0.15,0.0,b
3605.0,4095.0,3142.0,3440.0,4095.0,4095.0,4095.0,4095.0,-0.32,8.98,8.4,-0.09,0.08,-0.12,0.0,b
3634.0,4095.0,3136.0,3406.0,4095.0,4095.0,4095.0,4095.0,0.04,9.08,8.35,0.12,-0.16,-0.25,0.0,b
3635.0,4095.0,3120.0,3393.0,4095.0,4095.0,4095.0,4095.0,0.12,9.0,8.03,0.06,-0.04,-0.2,0.0,b
3472.0,4095.0,3120.0,3407.0,4095.0,4095.0,4095.0,4095.0,-0.45,9.23,7.94,-0.01,-0.13,-0.32,0.0,b
2769.0,4095.0,3143.0,3407.0,4095.0,4095.0,4095.0,4095.0,-0.52,9.07,7.64,-0.18,-0.05,-0.18,0.0,b
2865.0,4095.0,3170.0,3410.0,4095.0,4095.0,4095.0,4095.0,-0.39,9.24,7.84,-0.16,0.07,-0.06,0.0,b
3023.0,4095.0,3163.0,3424.0,4095.0,4095.0,4095.0,4095.0,-0.28,8.9,8.18,-0.28,0.09,-0.09,0.0,b
3339.0,4095.0,3172.0,3434.0,4095.0,4095.0,4095.0,4095.0,-0.28,8.9,8.65,-0.03,-0.02,-0.13,0.0,b
3414.0,4095.0,3168.0,3435.0,4095.0,4095.0,4095.0,4095.0,-0.04,8.89,8.72,-0.02,-0.01,-0.1,0.0,b
3462.0,4095.0,3154.0,3431.0,4095.0,4095.0,4095.0,4095.0,-0.22,8.98,8.45,0.1,0.0,-0.15,0.0,b
3577.0,4095.0,3156.0,3439.0,4095.0,4095.0,4095.0,4095.0,-0.26,8.87,8.18,0.03,-0.07,-0.2,0.0,b
3607.0,4095.0,3152.0,3440.0,4095.0,4095.0,4095.0,4095.0,-0.35,8.92,8.36,0.07,-0.02,-0.19,0.0,b
3632.0,4095.0,3114.0,3439.0,4095.0,4095.0,4095.0,4095.0,-0.28,9.03,8.0,-0.0,-0.1,-0.02,0.0,b
3625.0,4095.0,3015.0,3440.0,4095.0,4095.0,4095.0,4095.0,-0.11,9.02,8.2,0.03,-0.03,-0.1,0.0,b
3617.0,4095.0,1759.0,3435.0,4095.0,4095.0,4095.0,4095.0,-0.01,8.89,8.64,-0.01,-0.01,-0.08,0.0,b
3619.0,4095.0,1424.0,3440.0,4095.0,4095.0,4095.0,4095.0,0.06,8.94,8.26,-0.05,0.01,-0.03,0.0,b
3617.0,4095.0,1535.0,3447.0,4095.0,4095.0,4095.0,4095.0,0.36,8.87,8.35,0.01,0.02,-0.05,0.0,b
3266.0,4095.0,3159.0,3602.0,4095.0,4095.0,4095.0,4095.0,-0.35,9.23,7.48,0.1,-0.12,-0.18,0.0,b
3283.0,4095.0,3125.0,3577.0,4095.0,4095.0,4095.0,4095.0,-0.31,9.15,7.65,-0.0,-0.09,-0.11,0.0,b
3269.0,4095.0,3036.0,3518.0,4095.0,4095.0,4095.0,4095.0,-0.24,9.24,7.72,0.07,-0.08,-0.14,0.0,b
3299.0,4095.0,2945.0,3417.0,4095.0,4095.0,4095.0,4095.0,-0.13,9.19,7.58,0.02,-0.01,-0.14,0.0,b
3318.0,4095.0,2902.0,3373.0,4095.0,4095.0,4095.0,4095.0,-0.43,9.26,7.61,0.08,-0.01,-0.16,0.0,b
3327.0,4095.0,2879.0,3326.0,4095.0,4095.0,4095.0,4095.0,-0.34,9.17,7.67,0.06,0.0,-0.14,0.0,b
3328.0,4095.0,2853.0,3270.0,4095.0,4095.0,4095.0,4095.0,-0.17,9.29,7.63,0.16,-0.14,-0.16,0.0,b
3327.0,4095.0,2845.0,3261.0,4095.0,4095.0,4095.0,4095.0,-0.05,9.16,7.64,0.09,-0.07,-0.18,0.0,b
3327.0,4095.0,2846.0,3207.0,4095.0,4095.0,4095.0,4095.0,-0.23,9.37,7.48,0.05,-0.06,-0.17,0.0,b
3344.0,4095.0,2844.0,3198.0,4095.0,4095.0,4095.0,4095.0,-0.19,9.33,7.41,0.02,0.11,-0.17,0.0,b
3328.0,4095.0,2833.0,3195.0,4095.0,4095.0,4095.0,4095.0,-0.47,9.22,7.47,-0.03,0.1,-0.11,0.0,b
3343.0,4095.0,2842.0,3132.0,4095.0,4095.0,4095.0,4095.0,-0.31,9.14,7.46,0.21,0.06,-0.03,0.0,b
3346.0,4095.0,2832.0,3141.0,4095.0,4095.0,4095.0,4095.0,-0.15,9.42,7.39,-0.0,0.12,-0.1,0.0,b
3344.0,4095.0,2826.0,3193.0,4095.0,4095.0,4095.0,4095.0,-0.17,9.25,7.44,-0.03,0.1,-0.09,0.0,b
3329.0,4095.0,2832.0,3275.0,4095.0,4095.0,4095.0,4095.0,-0.12,9.37,7.45,-0.03,0.07,-0.08,0.0,b
3312.0,4095.0,2832.0,3312.0,4095.0,4095.0,4095.0,4095.0,-0.17,9.27,7.43,-0.05,0.09,-0.09,0.0,b
3282.0,4095.0,2823.0,3381.0,4095.0,4095.0,4095.0,4095.0,-0.35,9.26,7.84,0.01,0.03,-0.13,0.0,b
3271.0,4095.0,2821.0,3415.0,4095.0,4095.0,4095.0,4095.0,0.19,9.17,7.58,0.04,-0.03,-0.08,0.0,b
3252.0,4095.0,2818.0,3451.0,4095.0,4095.0,4095.0,4095.0,0.03,9.25,7.37,0.0,0.04,-0.17,0.0,b
3230.0,4095.0,2811.0,3525.0,4095.0,4095.0,4095.0,4095.0,-0.15,9.27,7.55,0.01,0.05,-0.16,0.0,b
3473.0,4095.0,2512.0,3488.0,4095.0,3504.0,4095.0,4095.0,0.02,9.25,7.76,-0.01,0.01,-0.1,0.0,b
3486.0,4095.0,2546.0,3492.0,4095.0,3397.0,4095.0,4095.0,0.11,9.23,7.62,-0.03,0.01,-0.09,0.0,b
3477.0,4095.0,2530.0,3483.0,4095.0,3339.0,4095.0,4095.0,0.44,8.98,7.98,0.02,-0.11,-0.06,0.0,b
3472.0,4095.0,2516.0,3488.0,4095.0,3359.0,4095.0,4095.0,0.36,9.13,7.98,-0.0,-0.01,-0.13,0.0,b
3440.0,4095.0,2558.0,3460.0,4095.0,3429.0,4095.0,4095.0,0.28,9.13,7.97,-0.02,-0.06,-0.18,0.0,b
3455.0,4095.0,2706.0,3399.0,4095.0,3422.0,4095.0,4095.0,0.31,9.2,7.48,0.06,-0.18,-0.26,0.0,b
3568.0,3527.0,2802.0,3358.0,3979.0,3110.0,4095.0,4095.0,0.18,9.03,7.77,0.0,-0.11,-0.15,0.0,b
3834.0,3443.0,3008.0,3379.0,3878.0,3047.0,4095.0,4095.0,0.47,9.34,7.72,0.02,-0.08,-0.11,0.0,b
3941.0,3415.0,3243.0,3379.0,3823.0,2975.0,4095.0,4095.0,0.23,9.14,7.8,0.09,-0.01,-0.13,0.0,b
3940.0,3408.0,3280.0,3393.0,3862.0,2987.0,4095.0,4095.0,0.35,9.25,7.48,0.03,-0.0,-0.14,0.0,b
3812.0,3401.0,3282.0,3401.0,3941.0,3011.0,4095.0,4095.0,-0.01,9.3,7.74,-0.04,0.11,-0.09,0.0,b
3782.0,3428.0,3267.0,3403.0,3993.0,3041.0,4095.0,4095.0,0.26,9.05,7.89,-0.08,0.05,-0.11,0.0,b
3751.0,3435.0,3293.0,3417.0,4074.0,3091.0,4095.0,4095.0,0.48,9.15,8.01,-0.03,-0.04,-0.14,0.0,b
3683.0,3408.0,3281.0,3415.0,4095.0,3221.0,4095.0,4095.0,0.37,9.19,7.89,-0.06,-0.01,-0.13,0.0,b
3487.0,3419.0,3248.0,3419.0,4095.0,3446.0,4095.0,4095.0,0.52,9.17,7.84,-0.1,-0.2,-0.16,0.0,b
3219.0,3437.0,3058.0,3414.0,4095.0,3723.0,4095.0,4095.0,0.25,9.1,7.9,-0.05,0.01,-0.22,0.0,b
2973.0,3471.0,2431.0,3415.0,4095.0,3970.0,4095.0,4095.0,0.1,9.14,8.12,0.04,-0.07,-0.19,0.0,b
2758.0,3575.0,1772.0,3423.0,4095.0,4095.0,4095.0,4095.0,0.33,9.13,7.97,0.04,0.03,-0.16,0.0,b
2518.0,3824.0,1669.0,3429.0,4095.0,4095.0,4095.0,4095.0,0.26,9.19,7.82,0.03,0.06,-0.18,0.0,b
2462.0,3831.0,1913.0,3430.0,4095.0,4095.0,4095.0,4095.0,0.17,9.12,7.98,0.02,0.1,-0.22,0.0,b
3387.0,3110.0,3088.0,3440.0,4095.0,3361.0,4095.0,4095.0,0.45,9.0,8.3,0.06,0.01,-0.12,0.0,b
3465.0,3094.0,3153.0,3447.0,4095.0,3474.0,4095.0,4095.0,0.39,9.07,8.03,0.03,-0.0,-0.15,0.0,b
3502.0,3071.0,3461.0,3445.0,4095.0,3552.0,4095.0,4095.0,0.32,9.33,7.73,-0.01,-0.01,-0.1,0.0,b
3530.0,3071.0,4007.0,3450.0,4095.0,3687.0,4095.0,4095.0,0.34,9.08,7.89,0.05,0.03,-0.13,0.0,b
3614.0,3067.0,3303.0,3447.0,4095.0,3839.0,4095.0,4095.0,0.34,9.11,7.9,0.0,0.06,-0.16,0.0,b
3664.0,3063.0,1943.0,3456.0,4095.0,4095.0,4095.0,4095.0,0.17,9.23,7.82,0.02,0.09,-0.17,0.0,b
3553.0,3056.0,1061.0,3455.0,4095.0,4095.0,4095.0,4095.0,0.24,9.23,7.8,-0.06,0.01,-0.19,0.0,b
3519.0,3071.0,976.0,3458.0,4095.0,4095.0,4095.0,4095.0,0.31,8.94,8.19,-0.01,-0.01,-0.16,0.0,b
3515.0,3067.0,1040.0,3454.0,4095.0,4095.0,4095.0,4095.0,0.4,9.12,7.99,0.03,-0.01,-0.18,0.0,b
3543.0,3071.0,1071.0,3455.0,4095.0,4095.0,4095.0,4095.0,0.2,9.1,7.9,0.05,0.02,-0.15,0.0,b
3273.0,3063.0,1207.0,3456.0,4095.0,4095.0,4095.0,4095.0,0.26,9.11,8.09,-0.0,0.08,-0.17,0.0,b
2992.0,3069.0,1718.0,3463.0,4095.0,4095.0,4095.0,4095.0,0.33,9.08,7.9,-0.03,0.01,-0.17,0.0,b
2991.0,3130.0,2164.0,3463.0,4095.0,4095.0,4095.0,4095.0,0.16,9.23,7.49,-0.1,-0.03,-0.19,0.0,b
2768.0,3146.0,2485.0,3472.0,4095.0,4095.0,4095.0,4095.0,0.11,9.14,7.83,-0.13,0.05,-0.18,0.0,b
2472.0,3280.0,2699.0,3473.0,4095.0,4095.0,4095.0,4095.0,0.14,9.03,7.97,-0.22,0.11,-0.11,0.0,b
2559.0,3635.0,2803.0,3463.0,4095.0,4095.0,4095.0,4095.0,0.15,8.81,8.16,-0.34,0.1,-0.1,0.0,b
2640.0,3675.0,2745.0,3462.0,4095.0,4095.0,4095.0,4095.0,0.15,8.89,8.79,-0.16,0.06,-0.1,0.0,b
2798.0,3678.0,2724.0,3463.0,4095.0,4095.0,4095.0,4095.0,0.32,8.84,8.89,0.01,0.02,-0.18,0.0,b
3101.0,3658.0,2704.0,3469.0,4095.0,4095.0,4095.0,4095.0,0.04,8.94,8.52,0.07,-0.02,-0.2,0.0,b
3381.0,3633.0,2706.0,3483.0,4095.0,4095.0,4095.0,4095.0,0.17,8.91,8.25,0.06,-0.05,-0.19,0.0,b
3685.0,3632.0,2677.0,3489.0,4095.0,4095.0,4095.0,4095.0,0.02,8.9,8.41,0.01,0.01,-0.15,0.0,b
3665.0,3649.0,2689.0,3503.0,4095.0,4095.0,4095.0,4095.0,-0.01,8.92,8.69,0.03,0.05,-0.13,0.0,b
3690.0,3653.0,2693.0,3501.0,4095.0,4095.0,4095.0,4095.0,0.14,8.82,8.57,0.04,-0.03,-0.18,0.0,b
3696.0,3653.0,2749.0,3472.0,4095.0,4095.0,4095.0,4095.0,0.01,8.9,8.52,0.06,-0.0,-0.2,0.0,b
3694.0,3635.0,2829.0,3449.0,4095.0,4095.0,4095.0,4095.0,-0.11,8.9,8.74,0.18,-0.03,-0.24,0.0,b
3734.0,3650.0,3024.0,3440.0,4095.0,4095.0,4095.0,4095.0,0.2,8.94,8.55,0.33,-0.03,-0.39,0.0,b
3725.0,3653.0,3089.0,3450.0,4095.0,4095.0,4095.0,4095.0,-0.07,8.95,8.1,0.3,0.27,-0.35,0.0,b
3721.0,3664.0,3119.0,3456.0,4095.0,4095.0,4095.0,4095.0,-0.2,9.16,8.44,0.2,-0.19,-0.64,0.0,b
3687.0,3653.0,3120.0,3456.0,4095.0,4095.0,4095.0,4095.0,-0.68,9.5,7.67,0.2,-0.1,-0.44,0.0,b
3674.0,3653.0,3122.0,3454.0,4095.0,4095.0,4095.0,4095.0,-1.13,9.14,7.78,0.16,-0.46,-0.28,0.0,b
3687.0,3650.0,3110.0,3458.0,4095.0,4095.0,4095.0,4095.0,-0.63,8.88,8.24,0.34,-1.52,-0.42,0.0,b
3699.0,3651.0,3069.0,3472.0,4095.0,4095.0,4095.0,4095.0,-0.91,9.12,8.2,0.55,-2.83,-0.55,0.0,b
3667.0,3635.0,3038.0,3474.0,4095.0,4095.0,4095.0,4095.0,0.27,8.88,7.05,0.48,-2.06,-0.47,0.0,b
3662.0,3649.0,3051.0,3478.0,4095.0,4095.0,4095.0,4095.0,0.86,9.49,6.23,0.34,-0.88,-0.2,0.0,b
3682.0,3655.0,3040.0,3474.0,4095.0,4095.0,4095.0,4095.0,0.53,9.57,6.2,0.02,-0.02,-0.09,0.0,b
3675.0,3655.0,3027.0,3476.0,4095.0,4095.0,4095.0,4095.0,0.34,9.51,6.85,-0.05,0.41,-0.02,0.0,b
3671.0,3638.0,3022.0,3472.0,4095.0,4095.0,4095.0,4095.0,0.41,9.44,7.14,-0.08,0.73,0.04,0.0,b
3676.0,3647.0,2992.0,3481.0,4095.0,4095.0,4095.0,4095.0,0.45,9.33,7.16,-0.1,0.8,-0.01,0.0,b
3671.0,3647.0,2990.0,3478.0,4095.0,4095.0,4095.0,4095.0,0.46,9.46,7.08,-0.08,0.95,0.01,0.0,b
3653.0,3635.0,2989.0,3481.0,4095.0,4095.0,4095.0,4095.0,0.07,9.53,7.04,-0.2,1.65,0.1,0.0,b
3649.0,3636.0,2884.0,3491.0,4095.0,4095.0,4095.0,4095.0,0.19,9.4,7.11,-0.04,0.22,-0.03,0.0,b
3642.0,3647.0,2864.0,3497.0,4095.0,4095.0,4095.0,4095.0,0.42,9.39,7.28,-0.05,0.07,-0.07,0.0,b
3648.0,3639.0,2858.0,3498.0,4095.0,4095.0,4095.0,4095.0,0.25,9.41,7.36,0.01,-0.16,-0.14,0.0,b
3647.0,3635.0,2839.0,3503.0,4095.0,4095.0,4095.0,4095.0,0.28,9.05,7.93,0.24,-0.35,-0.02,0.0,b
3639.0,3627.0,2789.0,3500.0,4095.0,4095.0,4095.0,4095.0,0.33,9.41,7.2,0.04,-0.27,-0.12,0.0,b
3664.0,3637.0,2751.0,3502.0,4095.0,4095.0,4095.0,4095.0,0.57,9.41,7.11,0.01,-0.2,-0.1,0.0,b
3650.0,3626.0,2698.0,3494.0,4095.0,4095.0,4095.0,4095.0,0.81,9.4,7.14,-0.02,-0.33,-0.15,0.0,b
3651.0,3635.0,2667.0,3497.0,4095.0,4095.0,4095.0,4095.0,0.46,9.46,7.22,0.02,-0.18,-0.18,0.0,b
3665.0,3629.0,2651.0,3499.0,4095.0,4095.0,4095.0,4095.0,0.68,9.32,7.08,0.04,-0.68,-0.23,0.0,b
3665.0,3625.0,2643.0,3500.0,4095.0,4095.0,4095.0,4095.0,0.53,9.37,7.01,0.04,-0.7,-0.24,0.0,b
3665.0,3637.0,2633.0,3502.0,4095.0,4095.0,4095.0,4095.0,0.71,9.53,6.99,-0.05,-0.28,-0.12,0.0,b
3662.0,3633.0,2626.0,3491.0,4095.0,4095.0,4095.0,4095.0,1.02,9.28,7.26,-0.1,0.21,-0.05,0.0,b
3660.0,3632.0,2620.0,3503.0,4095.0,4095.0,4095.0,4095.0,0.89,9.38,7.45,-0.07,0.7,-0.02,0.0,b
3655.0,3629.0,2611.0,3504.0,4095.0,4095.0,4095.0,4095.0,0.8,9.35,7.35,-0.05,0.97,0.02,0.0,b
3654.0,3633.0,2614.0,3496.0,4095.0,4095.0,4095.0,4095.0,1.45,9.39,6.96,-0.06,1.32,0.06,0.0,b
3632.0,3646.0,2638.0,3497.0,4095.0,4095.0,4095.0,4095.0,0.09,9.35,7.42,-0.16,1.53,0.09,0.0,b
3632.0,3631.0,2643.0,3506.0,4095.0,4095.0,4095.0,4095.0,-0.06,9.13,7.9,-0.08,0.55,-0.08,0.0,b
3639.0,3645.0,2653.0,3501.0,4095.0,4095.0,4095.0,4095.0,0.0,9.4,7.66,-0.07,0.78,-0.04,0.0,b
3623.0,3634.0,2672.0,3499.0,4095.0,4095.0,4095.0,4095.0,-0.09,9.13,7.82,-0.03,0.5,-0.06,0.0,b
3614.0,3632.0,2672.0,3502.0,4095.0,4095.0,4095.0,4095.0,0.37,9.33,7.52,-0.03,0.55,-0.08,0.0,b
3574.0,3646.0,2666.0,3501.0,4095.0,4095.0,4095.0,4095.0,0.07,9.28,7.62,0.23,-1.85,-0.53,0.0,b
3568.0,3632.0,2639.0,3501.0,4095.0,4095.0,4095.0,4095.0,0.23,9.34,7.2,0.11,-1.08,-0.32,0.0,b
3600.0,3649.0,2608.0,3503.0,4095.0,4095.0,4095.0,4095.0,0.46,9.42,7.16,-0.01,-0.41,-0.16,0.0,b
3600.0,3623.0,2559.0,3501.0,4095.0,4095.0,4095.0,4095.0,0.12,9.1,7.78,-0.05,-0.06,-0.08,0.0,b
3601.0,3626.0,2419.0,3504.0,4095.0,4095.0,4095.0,4095.0,0.56,9.21,7.94,-0.04,-0.35,-0.12,0.0,b
3596.0,3635.0,2273.0,3503.0,4095.0,4095.0,4095.0,4095.0,0.72,9.22,7.81,0.03,-0.42,-0.19,0.0,b
3583.0,3639.0,2203.0,3493.0,4095.0,4095.0,4095.0,4095.0,0.85,9.34,7.49,0.03,-0.06,-0.17,0.0,b
3573.0,3645.0,2237.0,3501.0,4095.0,4095.0,4095.0,4095.0,1.41,9.23,7.08,0.01,0.66,-0.07,0.0,b
3583.0,3645.0,2325.0,3511.0,4095.0,4095.0,4095.0,4095.0,-0.4,9.46,7.38,-0.11,1.65,0.12,0.0,b
3602.0,3627.0,2293.0,3507.0,4095.0,4095.0,4095.0,4095.0,0.07,8.99,8.12,-0.23,0.49,0.01,0.0,b
3583.0,3660.0,2351.0,3507.0,4095.0,4095.0,4095.0,4095.0,0.36,9.18,8.1,-0.08,0.39,-0.09,0.0,b
3573.0,3627.0,2355.0,3502.0,4095.0,4095.0,4095.0,4095.0,0.21,9.22,7.91,0.01,0.21,-0.12,0.0,b
3583.0,3648.0,2337.0,3504.0,4095.0,4095.0,4095.0,4095.0,0.34,9.19,7.75,0.0,0.04,-0.18,0.0,b
3627.0,3653.0,2266.0,3505.0,4095.0,4095.0,4095.0,4095.0,-0.13,9.26,7.8,-0.08,0.22,-0.1,0.0,b
3690.0,3643.0,2151.0,3499.0,4095.0,4095.0,4095.0,4095.0,0.22,9.08,7.84,-0.17,-0.01,-0.08,0.0,b
3748.0,3647.0,1996.0,3503.0,4095.0,4095.0,4095.0,4095.0,0.22,9.25,8.01,-0.16,0.19,-0.02,0.0,b
3763.0,3642.0,1819.0,3494.0,4095.0,4095.0,4095.0,4095.0,0.13,8.89,8.41,-0.13,0.08,-0.06,0.0,b
3841.0,3635.0,1454.0,3497.0,4095.0,4095.0,4095.0,4095.0,0.47,9.21,7.8,-0.09,-0.16,-0.14,0.0,b
3891.0,3650.0,1281.0,3481.0,4095.0,4095.0,4095.0,4095.0,0.46,9.05,8.12,0.05,-0.1,-0.24,0.0,b
3931.0,3652.0,1222.0,3488.0,4095.0,4095.0,4095.0,4095.0,0.11,8.83,8.48,0.08,-0.03,-0.11,0.0,b
3583.0,3663.0,1765.0,3487.0,4095.0,4095.0,4095.0,4095.0,0.18,9.17,7.98,0.16,0.03,-0.19,0.0,b
3565.0,3670.0,1904.0,3504.0,4095.0,4095.0,4095.0,4095.0,0.08,9.27,7.9,0.11,0.0,-0.21,0.0,b
3504.0,3671.0,2029.0,3494.0,4095.0,4095.0,4095.0,4095.0,0.08,9.24,7.81,0.03,0.03,-0.18,0.0,b
3482.0,3688.0,2112.0,3503.0,4095.0,4095.0,4095.0,4095.0,0.07,9.31,7.74,-0.03,0.03,-0.25,0.0,b
3431.0,3676.0,2177.0,3501.0,4095.0,4095.0,4095.0,4095.0,0.0,9.2,7.76,0.07,-0.03,-0.21,0.0,b
3379.0,3677.0,2215.0,3497.0,4095.0,4095.0,4095.0,4095.0,0.09,9.23,8.09,0.08,-0.09,-0.26,0.0,b
3392.0,3678.0,2237.0,3504.0,4095.0,4095.0,4095.0,4095.0,0.28,9.41,7.62,0.13,-0.13,-0.24,0.0,b
3365.0,3669.0,2256.0,3503.0,4095.0,4095.0,4095.0,4095.0,-0.04,9.37,7.3,-0.0,0.04,-0.13,0.0,b
3375.0,3679.0,2223.0,3504.0,4095.0,4095.0,4095.0,4095.0,-0.11,9.28,7.22,-0.08,0.04,-0.09,0.0,b
3386.0,3664.0,2191.0,3504.0,4095.0,4095.0,4095.0,4095.0,-0.13,9.29,8.16,0.0,0.03,-0.08,0.0,b
3414.0,3678.0,2083.0,3504.0,4095.0,4095.0,4095.0,4095.0,0.04,9.09,7.57,0.05,0.04,-0.02,0.0,b
3434.0,3645.0,1859.0,3499.0,4095.0,4095.0,4095.0,4095.0,-0.06,9.39,8.07,-0.01,-0.03,-0.11,0.0,b
3491.0,3541.0,1323.0,3482.0,4095.0,4095.0,4095.0,4095.0,0.11,9.13,7.46,0.01,-0.03,-0.16,0.0,b
3549.0,3535.0,1023.0,3479.0,4095.0,4095.0,4095.0,4095.0,-0.28,9.18,7.78,-0.03,-0.07,-0.08,0.0,b
3623.0,3524.0,998.0,3472.0,4095.0,4095.0,4095.0,4095.0,0.32,9.05,7.93,-0.0,-0.12,-0.2,0.0,b
3782.0,3538.0,975.0,3472.0,4095.0,4095.0,4095.0,4095.0,0.28,9.3,7.52,-0.01,-0.03,-0.15,0.0,b
3854.0,3546.0,971.0,3472.0,4095.0,4095.0,4095.0,4095.0,0.22,8.95,8.03,0.02,-0.09,-0.26,0.0,b
3937.0,3534.0,947.0,3465.0,4095.0,4095.0,4095.0,4095.0,0.28,9.19,7.82,-0.01,-0.08,-0.25,0.0,b
3979.0,3519.0,944.0,3467.0,4095.0,4095.0,4095.0,4095.0,-0.36,9.36,7.84,-0.06,0.04,-0.06,0.0,b
4034.0,3366.0,952.0,3455.0,4095.0,4095.0,4095.0,4095.0,0.09,8.85,7.91,-0.11,0.06,-0.05,0.0,b
3430.0,3661.0,1653.0,3505.0,4095.0,4095.0,4095.0,4095.0,0.21,9.24,7.73,0.02,-0.03,-0.17,0.0,b
3395.0,3651.0,1687.0,3510.0,4095.0,4095.0,4095.0,4095.0,-0.12,9.28,7.77,-0.03,-0.05,-0.09,0.0,b
3407.0,3663.0,1657.0,3497.0,4095.0,4095.0,4095.0,4095.0,0.17,9.02,7.85,-0.11,0.11,-0.03,0.0,b
3391.0,3664.0,1692.0,3518.0,4095.0,4095.0,4095.0,4095.0,0.14,9.06,8.26,-0.03,0.04,-0.1,0.0,b
3390.0,3646.0,1685.0,3511.0,4095.0,4095.0,4095.0,4095.0,0.39,9.07,8.08,0.01,-0.01,-0.15,0.0,b
3397.0,3663.0,1678.0,3514.0,4095.0,4095.0,4095.0,4095.0,0.18,9.12,7.93,0.04,-0.02,-0.18,0.0,b
3371.0,3659.0,1685.0,3504.0,4095.0,4095.0,4095.0,4095.0,0.03,9.13,7.81,0.0,-0.05,-0.17,0.0,b
3385.0,3648.0,1706.0,3517.0,4095.0,4095.0,4095.0,4095.0,-0.21,9.13,7.5,0.01,-0.04,-0.12,0.0,b
3418.0,3651.0,1718.0,3494.0,4095.0,4095.0,4095.0,4095.0,0.35,9.42,8.07,0.13,0.1,-0.08,0.0,b
3483.0,3646.0,1566.0,3489.0,4095.0,4095.0,4095.0,4095.0,0.5,8.92,8.48,0.02,-0.04,-0.16,0.0,b
3504.0,3637.0,1414.0,3477.0,4095.0,4095.0,4095.0,4095.0,0.23,9.15,8.4,0.1,0.08,-0.13,0.0,b
3527.0,3642.0,1018.0,3460.0,4095.0,4095.0,4095.0,4095.0,0.64,9.21,7.68,0.18,-0.17,-0.19,0.0,b
3568.0,3657.0,970.0,3471.0,4095.0,4095.0,4095.0,4095.0,0.25,9.19,7.75,0.09,-0.07,-0.23,0.0,b
3545.0,3657.0,971.0,3456.0,4095.0,4095.0,4095.0,4095.0,-0.11,9.27,7.82,0.05,0.02,-0.13,0.0,b
3538.0,3645.0,1326.0,3463.0,4095.0,4095.0,4095.0,4095.0,0.21,9.12,7.74,0.04,-0.02,-0.07,0.0,b
3540.0,3649.0,1666.0,3457.0,4095.0,4095.0,4095.0,4095.0,0.47,9.16,7.78,-0.01,0.02,-0.11,0.0,b
3535.0,3655.0,1650.0,3461.0,4095.0,4095.0,4095.0,4095.0,0.34,9.17,7.91,0.04,0.02,-0.15,0.0,b
3545.0,3663.0,1597.0,3465.0,4095.0,4095.0,4095.0,4095.0,0.29,9.17,7.93,0.02,-0.07,-0.16,0.0,b
3531.0,3665.0,1520.0,3466.0,4095.0,4095.0,4095.0,4095.0,0.07,9.17,7.8,0.04,0.03,-0.17,0.0,b
3505.0,3677.0,1535.0,3471.0,4095.0,4095.0,4095.0,4095.0,0.2,9.17,7.78,0.01,-0.04,-0.15,0.0,b
3398.0,3680.0,1167.0,3483.0,4095.0,4095.0,4095.0,4095.0,0.12,9.2,7.8,-0.02,0.03,-0.15,0.0,b
3408.0,3675.0,1107.0,3482.0,4095.0,4095.0,4095.0,4095.0,0.14,9.21,7.88,0.01,-0.04,-0.14,0.0,b
3403.0,3680.0,1089.0,3475.0,4095.0,4095.0,4095.0,4095.0,0.18,9.2,7.9,0.03,-0.08,-0.16,0.0,b
3410.0,3681.0,1057.0,3489.0,4095.0,4095.0,4095.0,4095.0,0.09,9.2,7.86,0.04,0.03,-0.16,0.0,b
3401.0,3695.0,1061.0,3483.0,4095.0,4095.0,4095.0,4095.0,0.07,9.14,7.85,0.02,-0.08,-0.16,0.0,b
3392.0,3674.0,1045.0,3483.0,4095.0,4095.0,4095.0,4095.0,0.19,9.25,7.77,0.03,-0.04,-0.15,0.0,b
3391.0,3669.0,1052.0,3481.0,4095.0,4095.0,4095.0,4095.0,0.18,9.24,7.78,-0.02,0.08,-0.13,0.0,b
3403.0,3676.0,1040.0,3498.0,4095.0,4095.0,4095.0,4095.0,0.22,9.15,7.87,0.0,0.04,-0.14,0.0,b
3396.0,3669.0,1023.0,3499.0,4095.0,4095.0,4095.0,4095.0,0.38,9.18,7.73,0.03,0.05,-0.14,0.0,b
3380.0,3698.0,1003.0,3507.0,4095.0,4095.0,4095.0,4095.0,-0.01,9.27,7.8,0.01,0.13,-0.15,0.0,b
3362.0,3679.0,1003.0,3510.0,4095.0,4095.0,4095.0,4095.0,0.22,9.13,7.84,-0.01,-0.03,-0.18,0.0,b
3355.0,3695.0,990.0,3504.0,4095.0,4095.0,4095.0,4095.0,0.06,9.25,7.91,0.03,0.03,-0.17,0.0,b
3355.0,3693.0,990.0,3504.0,4095.0,4095.0,4095.0,4095.0,0.07,9.28,7.82,0.0,0.0,-0.13,0.0,b
3378.0,3679.0,1073.0,3510.0,4095.0,4095.0,4095.0,4095.0,0.38,9.06,7.63,-0.02,0.01,-0.09,0.0,b
3378.0,3696.0,1355.0,3511.0,4095.0,4095.0,4095.0,4095.0,0.21,9.16,7.98,0.02,0.0,-0.14,0.0,b
3367.0,3669.0,1627.0,3498.0,4095.0,3845.0,4095.0,4095.0,0.23,9.07,8.31,0.07,-0.03,-0.14,0.0,b
3336.0,3662.0,1797.0,3489.0,4095.0,3632.0,4095.0,4095.0,0.23,9.13,7.88,0.09,-0.05,-0.2,0.0,b
3331.0,3674.0,1933.0,3501.0,4095.0,3575.0,4095.0,4095.0,0.27,9.16,7.78,0.05,-0.05,-0.19,0.0,b
3329.0,3666.0,1989.0,3499.0,4095.0,3583.0,4095.0,4095.0,0.05,9.24,7.7,0.03,0.02,-0.15,0.0,b
3327.0,3680.0,2177.0,3495.0,4095.0,3600.0,4095.0,4095.0,0.2,9.15,7.81,-0.01,-0.0,-0.12,0.0,b
3262.0,3671.0,1295.0,3509.0,4095.0,4095.0,4095.0,4095.0,0.3,9.2,7.72,0.0,-0.01,-0.14,0.0,b
3276.0,3677.0,1282.0,3518.0,4095.0,4095.0,4095.0,4095.0,0.28,9.22,7.74,-0.01,0.02,-0.15,0.0,b
3263.0,3665.0,1264.0,3510.0,4095.0,4095.0,4095.0,4095.0,0.28,9.17,7.89,-0.01,0.0,-0.14,0.0,b
3268.0,3669.0,1237.0,3520.0,4095.0,4095.0,4095.0,4095.0,0.39,9.18,7.77,-0.03,0.06,-0.15,0.0,b
3257.0,3658.0,1126.0,3520.0,4095.0,4095.0,4095.0,4095.0,0.2,9.16,7.85,-0.08,0.06,-0.15,0.0,b
3261.0,3676.0,1063.0,3535.0,4095.0,4095.0,4095.0,4095.0,0.08,9.07,8.09,-0.01,0.0,-0.16,0.0,b
3278.0,3688.0,1041.0,3527.0,4095.0,4095.0,4095.0,4095.0,0.19,9.13,8.02,0.02,-0.0,-0.16,0.0,b
3280.0,3709.0,1018.0,3537.0,4095.0,4095.0,4095.0,4095.0,0.28,9.18,7.79,0.0,0.01,-0.18,0.0,b
3273.0,3694.0,1008.0,3536.0,4095.0,4095.0,4095.0,4095.0,0.13,9.11,7.84,-0.04,0.02,-0.16,0.0,b
3287.0,3723.0,1001.0,3537.0,4095.0,4095.0,4095.0,4095.0,0.17,9.18,7.88,-0.1,0.02,-0.15,0.0,b
3274.0,3745.0,984.0,3537.0,4095.0,4095.0,4095.0,4095.0,0.28,9.11,7.98,-0.16,0.05,-0.14,0.0,b
3267.0,3856.0,987.0,3539.0,4095.0,4095.0,4095.0,4095.0,-0.2,8.77,8.45,-0.08,0.04,-0.21,0.0,b
3228.0,4095.0,995.0,3542.0,4095.0,4095.0,4095.0,4095.0,-0.11,9.13,8.18,-0.13,-0.07,-0.15,0.0,b
3220.0,4095.0,977.0,3540.0,4095.0,4095.0,4095.0,4095.0,0.03,9.1,8.14,-0.04,0.07,-0.15,0.0,b
3235.0,4095.0,976.0,3542.0,4095.0,4095.0,4095.0,4095.0,0.1,8.96,8.09,-0.11,0.03,-0.13,0.0,b
3243.0,4095.0,976.0,3546.0,4095.0,4095.0,4095.0,4095.0,-0.02,8.98,8.45,-0.03,-0.02,-0.12,0.0,b
3249.0,4095.0,989.0,3538.0,4095.0,4095.0,4095.0,4095.0,0.1,8.94,8.28,-0.05,0.04,-0.08,0.0,b
3262.0,4095.0,977.0,3545.0,4095.0,4095.0,4095.0,4095.0,0.28,9.16,8.33,0.11,0.07,-0.1,0.0,b
3265.0,4095.0,978.0,3557.0,4095.0,4095.0,4095.0,4095.0,0.17,9.02,8.2,-0.01,0.07,-0.12,0.0,b
3272.0,4095.0,976.0,3557.0,4095.0,4095.0,4095.0,4095.0,0.18,8.94,8.32,0.03,0.03,-0.13,0.0,b
3325.0,4095.0,990.0,3519.0,4095.0,4095.0,4095.0,4095.0,0.26,9.0,8.28,-0.02,0.04,-0.14,0.0,b
3350.0,4095.0,999.0,3509.0,4095.0,4095.0,4095.0,4095.0,0.14,9.03,8.31,-0.03,0.05,-0.12,0.0,b
3366.0,4095.0,986.0,3487.0,4095.0,4095.0,4095.0,4095.0,0.24,9.05,8.21,0.05,0.07,-0.1,0.0,b
3552.0,4095.0,960.0,3431.0,4095.0,4095.0,4095.0,4095.0,0.79,9.11,7.84,-0.03,-0.01,-0.08,0.0,b
3727.0,4095.0,1006.0,3409.0,4095.0,4095.0,4095.0,4095.0,-0.11,8.99,8.71,-0.05,0.09,-0.11,0.0,b
3895.0,4095.0,1957.0,3402.0,4095.0,4095.0,4095.0,4095.0,-0.11,8.79,8.15,-0.27,0.19,0.12,0.0,b
3956.0,4095.0,1855.0,3408.0,4095.0,4095.0,4095.0,4095.0,0.01,8.79,8.56,-0.07,0.05,-0.13,0.0,b
3985.0,4095.0,1621.0,3410.0,4095.0,4095.0,4095.0,4095.0,0.34,8.83,8.69,-0.08,-0.0,-0.04,0.0,b
3984.0,4095.0,1421.0,3408.0,4095.0,4095.0,4095.0,4095.0,0.38,8.93,8.53,0.0,-0.02,-0.12,0.0,b
3989.0,4095.0,1041.0,3409.0,4095.0,4095.0,4095.0,4095.0,0.49,8.86,8.52,-0.02,0.01,-0.13,0.0,b
3971.0,4095.0,999.0,3410.0,4095.0,4095.0,4095.0,4095.0,0.22,8.9,8.53,0.05,-0.03,-0.16,0.0,b
3987.0,4095.0,988.0,3415.0,4095.0,4095.0,4095.0,4095.0,0.42,8.9,8.47,0.0,-0.04,-0.15,0.0,b
3975.0,4095.0,985.0,3414.0,4095.0,4095.0,4095.0,4095.0,0.33,8.93,8.43,0.03,0.0,-0.14,0.0,b
3979.0,4095.0,980.0,3409.0,4095.0,4095.0,4095.0,4095.0,0.46,8.85,8.51,0.03,-0.0,-0.12,0.0,b
3967.0,4095.0,990.0,3408.0,4095.0,4095.0,4095.0,4095.0,0.45,8.85,8.58,0.05,-0.01,-0.14,0.0,b
3970.0,4095.0,1001.0,3430.0,4095.0,4095.0,4095.0,4095.0,0.28,8.83,8.81,0.09,-0.02,-0.2,0.0,b
3911.0,4095.0,1049.0,3439.0,4095.0,4095.0,4095.0,4095.0,0.65,9.04,8.24,0.13,-0.13,-0.23,0.0,b
3854.0,4095.0,1089.0,3451.0,4095.0,4095.0,4095.0,4095.0,0.46,9.05,8.15,0.16,-0.07,-0.26,0.0,b
3762.0,4095.0,1226.0,3471.0,4095.0,4095.0,4095.0,4095.0,0.32,9.07,8.11,0.09,-0.04,-0.21,0.0,b
3549.0,4095.0,1500.0,3488.0,4095.0,4095.0,4095.0,4095.0,0.1,8.96,8.27,0.01,-0.01,-0.29,0.0,b
3220.0,4095.0,990.0,3534.0,4095.0,4095.0,4095.0,4095.0,0.09,9.1,8.2,0.09,-0.17,-0.18,0.0,b
3220.0,4095.0,990.0,3534.0,4095.0,4095.0,4095.0,4095.0,0.09,9.1,8.2,0.09,-0.17,-0.18,0.0,b
3219.0,4095.0,998.0,3538.0,4095.0,4095.0,4095.0,4095.0,-0.04,8.86,8.57,0.26,-0.87,-0.43,0.0,b
3223.0,4095.0,994.0,3536.0,4095.0,4095.0,4095.0,4095.0,0.61,9.19,7.9,0.22,-0.42,-0.35,0.0,b
3219.0,4095.0,993.0,3533.0,4095.0,4095.0,4095.0,4095.0,-0.29,9.1,7.81,0.25,-0.63,-0.27,0.0,b
3230.0,4095.0,982.0,3526.0,4095.0,4095.0,4095.0,4095.0,0.18,9.17,7.95,0.26,-1.59,-0.5,0.0,b
3237.0,4095.0,991.0,3532.0,4095.0,4095.0,4095.0,4095.0,0.75,9.4,7.41,0.33,-1.39,-0.46,0.0,b
3241.0,4095.0,1003.0,3530.0,4095.0,4095.0,4095.0,4095.0,0.23,9.41,7.04,0.3,-1.08,-0.37,0.0,b
3248.0,4095.0,1069.0,3518.0,4095.0,4095.0,4095.0,4095.0,0.74,9.46,6.93,0.28,-1.03,-0.32,0.0,b
3244.0,4095.0,1465.0,3518.0,4095.0,4095.0,4095.0,4095.0,0.59,9.49,7.1,0.22,-1.25,-0.23,0.0,b
3250.0,4095.0,1635.0,3504.0,4095.0,4095.0,4095.0,4095.0,1.21,9.4,6.71,0.19,-1.1,-0.31,0.0,b
3245.0,4095.0,1664.0,3510.0,4095.0,4095.0,4095.0,4095.0,1.47,9.65,6.22,0.12,-0.11,-0.17,0.0,b
3248.0,4095.0,1731.0,3498.0,4095.0,4095.0,4095.0,4095.0,1.17,9.55,6.3,0.0,0.57,-0.09,0.0,b
3248.0,4095.0,1803.0,3472.0,4095.0,4095.0,4095.0,4095.0,0.74,9.53,6.56,-0.05,0.95,-0.05,0.0,b
3253.0,4095.0,1943.0,3468.0,4095.0,4095.0,4095.0,4095.0,0.26,9.53,7.09,0.02,0.42,-0.05,0.0,b
3254.0,4095.0,2064.0,3451.0,4095.0,4095.0,4095.0,4095.0,0.91,9.33,7.35,0.07,-1.02,-0.2,0.0,b
3241.0,4095.0,2075.0,3446.0,4095.0,4095.0,4095.0,4095.0,1.14,9.37,7.0,0.25,-0.49,-0.2,0.0,b
3246.0,4095.0,2078.0,3447.0,4095.0,4095.0,4095.0,4095.0,1.51,9.67,6.14,0.14,0.5,-0.1,0.0,b
3257.0,4095.0,2101.0,3461.0,4095.0,4095.0,4095.0,4095.0,1.16,9.59,5.97,0.04,1.28,-0.04,0.0,b
3252.0,4095.0,2096.0,3463.0,4095.0,4095.0,4095.0,4095.0,0.79,9.59,5.98,-0.05,1.62,0.07,0.0,b
3270.0,4095.0,2241.0,3492.0,4095.0,4095.0,4095.0,4095.0,0.47,9.12,7.65,-0.22,0.17,-0.28,0.0,b
3271.0,4095.0,2449.0,3505.0,4095.0,4095.0,4095.0,4095.0,0.24,9.09,7.88,-0.24,0.31,-0.26,0.0,b
3278.0,4095.0,2631.0,3517.0,4095.0,4095.0,4095.0,4095.0,-0.48,8.96,8.22,-0.15,0.06,-0.24,0.0,b
3280.0,4095.0,2666.0,3514.0,4095.0,4095.0,4095.0,4095.0,-0.43,8.91,8.55,-0.07,-0.18,-0.24,0.0,b
3278.0,4095.0,2674.0,3520.0,4095.0,4095.0,4095.0,4095.0,-0.79,8.78,9.06,0.08,-0.8,-0.34,0.0,b
3270.0,4095.0,2667.0,3520.0,4095.0,4095.0,4095.0,4095.0,0.31,8.83,8.63,0.25,-1.89,-0.63,0.0,b
3286.0,4095.0,2669.0,3526.0,4095.0,4095.0,4095.0,4095.0,0.09,9.34,7.89,0.33,-0.84,-0.49,0.0,b
3285.0,4095.0,2645.0,3519.0,4095.0,4095.0,4095.0,4095.0,-0.33,8.94,7.89,0.16,-1.18,-0.4,0.0,b
3280.0,4095.0,2645.0,3531.0,4095.0,4095.0,4095.0,4095.0,0.51,9.07,7.83,0.17,-1.27,-0.42,0.0,b
3281.0,4095.0,2638.0,3519.0,4095.0,4095.0,4095.0,4095.0,0.56,9.3,7.69,0.17,-0.61,-0.23,0.0,b
3283.0,4095.0,2608.0,3523.0,4095.0,4095.0,4095.0,4095.0,0.61,9.25,7.6,0.08,-0.44,-0.19,0.0,b
3285.0,4095.0,2603.0,3524.0,4095.0,4095.0,4095.0,4095.0,0.72,9.16,7.64,0.08,-0.49,-0.21,0.0,b
3281.0,4095.0,2608.0,3535.0,4095.0,4095.0,4095.0,4095.0,0.64,9.25,7.63,0.06,-0.58,-0.22,0.0,b
3287.0,4095.0,2612.0,3533.0,4095.0,4095.0,4095.0,4095.0,0.46,9.23,7.75,0.07,-0.63,-0.22,0.0,b
3284.0,4095.0,2607.0,3536.0,4095.0,4095.0,4095.0,4095.0,0.97,9.2,7.64,0.05,-0.98,-0.29,0.0,b
3297.0,4095.0,2603.0,3536.0,4095.0,4095.0,4095.0,4095.0,1.11,9.31,7.41,0.1,-0.83,-0.3,0.0,b
3283.0,4095.0,2592.0,3523.0,4095.0,4095.0,4095.0,4095.0,1.24,9.33,7.32,0.05,-0.55,-0.23,0.0,b
3283.0,4095.0,2538.0,3528.0,4095.0,4095.0,4095.0,4095.0,1.37,9.25,7.37,0.03,-0.25,-0.21,0.0,b
3285.0,4095.0,2445.0,3525.0,4095.0,4095.0,4095.0,4095.0,1.27,9.31,7.49,0.01,0.04,-0.14,0.0,b
3281.0,4095.0,2304.0,3527.0,4095.0,4095.0,4095.0,4095.0,1.17,9.3,7.48,0.03,0.18,-0.13,0.0,b
3344.0,4095.0,1033.0,3526.0,4095.0,4095.0,4095.0,4095.0,-0.04,8.73,8.98,-0.25,-0.04,-0.17,0.0,b
3326.0,4095.0,1023.0,3521.0,4095.0,4095.0,4095.0,4095.0,0.39,8.47,9.29,-0.27,-0.04,-0.13,0.0,b
3321.0,4095.0,1019.0,3529.0,4095.0,4095.0,4095.0,4095.0,0.29,8.29,9.77,-0.18,0.08,-0.13,0.0,b
3322.0,4095.0,1015.0,3523.0,4095.0,4095.0,4095.0,4095.0,0.3,8.27,10.14,-0.05,-0.07,-0.15,0.0,b
3313.0,4095.0,1013.0,3529.0,4095.0,4095.0,4095.0,4095.0,0.43,8.42,9.83,0.14,-0.0,-0.15,0.0,b
3325.0,4095.0,1008.0,3534.0,4095.0,4095.0,4095.0,4095.0,0.23,8.44,9.52,0.21,-0.05,-0.15,0.0,b
3327.0,4095.0,1013.0,3536.0,4095.0,4095.0,4095.0,4095.0,0.27,8.56,9.25,0.25,-0.04,-0.15,0.0,b
3326.0,4095.0,1007.0,3535.0,4095.0,4095.0,4095.0,4095.0,0.39,8.67,8.96,0.28,0.06,-0.1,0.0,b
3317.0,4095.0,1008.0,3531.0,4095.0,4095.0,4095.0,4095.0,0.34,8.64,8.95,0.29,0.06,-0.09,0.0,b
3327.0,4095.0,1005.0,3536.0,4095.0,4095.0,4095.0,4095.0,0.4,8.71,8.72,0.36,0.09,-0.08,0.0,b
3307.0,4095.0,1008.0,3525.0,4095.0,4095.0,4095.0,4095.0,0.5,8.84,8.37,0.39,-0.03,-0.11,0.0,b
3294.0,4095.0,1015.0,3523.0,4095.0,4095.0,4095.0,4095.0,0.58,9.07,8.35,0.37,-0.03,-0.13,0.0,b
3313.0,4095.0,1008.0,3525.0,4095.0,4095.0,4095.0,4095.0,0.49,9.0,8.14,0.38,0.08,-0.12,0.0,b
3287.0,4095.0,1008.0,3529.0,4095.0,4095.0,4095.0,4095.0,0.48,9.01,8.04,0.33,-0.02,-0.14,0.0,b
3298.0,4095.0,1014.0,3534.0,4095.0,4095.0,4095.0,4095.0,0.57,9.22,7.63,0.33,0.14,-0.14,0.0,b
3293.0,4095.0,1012.0,3522.0,4095.0,4095.0,4095.0,4095.0,0.39,9.3,7.38,0.29,0.1,-0.12,0.0,b
3282.0,4095.0,1023.0,3520.0,4095.0,4095.0,4095.0,4095.0,0.58,9.4,6.95,0.33,-0.13,-0.2,0.0,b
3279.0,4095.0,1020.0,3521.0,4095.0,4095.0,4095.0,4095.0,0.49,9.49,6.83,0.15,0.07,-0.11,0.0,b
3283.0,4095.0,1021.0,3520.0,4095.0,4095.0,4095.0,4095.0,0.51,9.44,7.02,0.09,0.06,-0.1,0.0,b
3289.0,4095.0,1023.0,3529.0,4095.0,4095.0,4095.0,4095.0,0.65,9.45,6.98,0.05,0.01,-0.11,0.0,b
3265.0,4095.0,991.0,3523.0,4095.0,4095.0,4095.0,4095.0,0.08,8.76,8.76,-0.05,-0.01,-0.19,0.0,b
3281.0,4095.0,1003.0,3537.0,4095.0,4095.0,4095.0,4095.0,-0.15,8.8,8.68,-0.03,-0.08,-0.2,0.0,b
3285.0,4095.0,983.0,3535.0,4095.0,4095.0,4095.0,4095.0,-0.06,8.79,8.76,-0.09,-0.27,-0.2,0.0,b
3283.0,4095.0,997.0,3522.0,4095.0,4095.0,4095.0,4095.0,-0.4,8.78,9.27,-0.03,-0.81,-0.26,0.0,b
3281.0,4095.0,1230.0,3515.0,4095.0,4095.0,4095.0,4095.0,0.98,8.6,9.11,-0.09,-1.4,-0.32,0.0,b
3261.0,3858.0,2071.0,3497.0,4095.0,4095.0,4095.0,4095.0,0.96,8.75,8.65,0.06,-0.66,-0.26,0.0,b
3234.0,3573.0,2831.0,3485.0,4095.0,4095.0,4095.0,4095.0,0.53,8.73,8.8,0.05,-0.4,-0.2,0.0,b
3243.0,3536.0,2973.0,3482.0,4095.0,4095.0,4095.0,4095.0,1.07,8.85,8.33,0.01,-0.35,-0.2,0.0,b
3247.0,3518.0,2865.0,3479.0,4095.0,4095.0,4095.0,4095.0,1.0,8.82,8.68,0.04,0.25,-0.06,0.0,b
3248.0,3537.0,2597.0,3490.0,4095.0,4095.0,4095.0,4095.0,1.17,8.75,8.62,0.12,0.86,0.04,0.0,b
3264.0,3583.0,2086.0,3488.0,4095.0,4095.0,4095.0,4095.0,0.49,8.86,8.6,0.1,1.48,0.22,0.0,b
3241.0,3603.0,1657.0,3499.0,4095.0,4095.0,4095.0,4095.0,0.55,8.9,7.97,0.01,1.64,0.22,0.0,b
3259.0,3634.0,1243.0,3506.0,4095.0,4095.0,4095.0,4095.0,0.03,8.99,8.13,-0.07,1.74,0.33,0.0,b
3262.0,3664.0,1072.0,3517.0,4095.0,4095.0,4095.0,4095.0,-0.5,8.86,8.68,-0.15,1.26,0.21,0.0,b
3243.0,3674.0,1046.0,3519.0,4095.0,4095.0,4095.0,4095.0,-0.17,8.58,9.12,-0.14,0.61,0.08,0.0,b
3249.0,3667.0,1023.0,3514.0,4095.0,4095.0,4095.0,4095.0,-0.56,8.64,9.63,-0.04,0.22,-0.02,0.0,b
3248.0,3682.0,1040.0,3520.0,4095.0,4095.0,4095.0,4095.0,-0.04,8.53,9.51,0.12,-0.64,-0.22,0.0,b
3252.0,3682.0,1037.0,3526.0,4095.0,4095.0,4095.0,4095.0,-0.62,8.7,9.28,0.28,-1.17,-0.33,0.0,b
3257.0,3674.0,1042.0,3516.0,4095.0,4095.0,4095.0,4095.0,0.63,8.71,8.81,0.27,-3.15,-0.71,0.0,b
3250.0,3683.0,1040.0,3506.0,4095.0,4095.0,4095.0,4095.0,1.85,9.17,7.96,0.35,-2.18,-0.67,0.0,b
921.0,949.0,2623.0,3008.0,4095.0,4095.0,4095.0,4095.0,-0.12,8.45,9.21,0.06,-0.06,-0.13,0.0,b
923.0,943.0,2631.0,3018.0,4095.0,4095.0,4095.0,4095.0,-0.03,8.59,9.12,0.02,0.17,-0.14,0.0,b
916.0,954.0,2630.0,3018.0,4095.0,4095.0,4095.0,4095.0,-0.02,8.45,9.18,0.03,-0.25,-0.2,0.0,b
918.0,955.0,2640.0,3025.0,4095.0,4095.0,4095.0,4095.0,0.11,8.49,9.35,0.02,-0.13,-0.29,0.0,b
911.0,944.0,2644.0,3035.0,4095.0,4095.0,4095.0,4095.0,-0.39,8.55,9.46,0.11,-0.5,-0.35,0.0,b
916.0,945.0,2633.0,3029.0,4095.0,4095.0,4095.0,4095.0,-0.15,8.51,9.48,0.14,-1.2,-0.44,0.0,b
913.0,942.0,2629.0,3027.0,4095.0,4095.0,4095.0,4095.0,0.31,8.58,9.19,0.22,-1.38,-0.52,0.0,b
918.0,944.0,2629.0,3038.0,4095.0,4095.0,4095.0,4095.0,0.74,8.6,8.84,0.24,-1.8,-0.55,0.0,b
907.0,938.0,2637.0,3038.0,4095.0,4095.0,4095.0,4095.0,0.45,8.72,8.84,0.27,-0.31,-0.32,0.0,b
913.0,945.0,2647.0,3038.0,4095.0,4095.0,4095.0,4095.0,0.2,8.98,8.74,0.18,0.53,-0.01,0.0,b
915.0,944.0,2647.0,3051.0,4095.0,4095.0,4095.0,4095.0,0.73,8.79,8.59,0.08,-0.18,-0.04,0.0,b
918.0,943.0,2635.0,3043.0,4095.0,4095.0,4095.0,4095.0,1.15,8.72,8.64,0.07,-0.25,-0.17,0.0,b
927.0,947.0,2639.0,3053.0,4095.0,4095.0,4095.0,4095.0,1.16,9.03,8.29,0.13,0.06,-0.14,0.0,b
914.0,958.0,2627.0,3051.0,4095.0,4095.0,4095.0,4095.0,1.1,8.92,8.09,0.01,0.34,-0.08,0.0,b
919.0,957.0,2633.0,3059.0,4095.0,4095.0,4095.0,4095.0,0.63,8.96,8.22,-0.22,2.01,0.19,0.0,b
915.0,949.0,2670.0,3071.0,4095.0,4095.0,4095.0,4095.0,-0.83,8.64,8.94,-0.09,1.58,0.29,0.0,b
916.0,948.0,2694.0,3082.0,4095.0,4095.0,4095.0,4095.0,0.08,8.59,8.86,-0.09,0.71,-0.05,0.0,b
926.0,943.0,2683.0,3087.0,4095.0,4095.0,4095.0,4095.0,0.45,8.77,8.38,-0.11,0.18,-0.18,0.0,b
914.0,949.0,2691.0,3092.0,4095.0,4095.0,4095.0,4095.0,-0.38,8.67,8.59,-0.16,-0.18,-0.25,0.0,b
913.0,955.0,2683.0,3088.0,4095.0,4095.0,4095.0,4095.0,-0.31,8.87,8.43,-0.21,-0.31,-0.19,0.0,b
915.0,963.0,2585.0,3137.0,4095.0,4095.0,4095.0,4095.0,0.09,8.78,8.36,0.46,-2.55,-0.72,0.0,b
912.0,974.0,2555.0,3137.0,4095.0,4095.0,4095.0,4095.0,0.58,8.98,7.79,0.55,-2.08,-0.68,0.0,b
911.0,993.0,2542.0,3136.0,4095.0,4095.0,4095.0,4095.0,0.65,9.2,7.45,0.33,-1.47,-0.52,0.0,b
914.0,1002.0,2527.0,3134.0,4095.0,4095.0,4095.0,4095.0,0.75,9.19,7.44,0.24,-0.8,-0.38,0.0,b
919.0,995.0,2526.0,3132.0,4095.0,4095.0,4095.0,4095.0,1.05,9.1,7.71,0.16,-0.03,-0.18,0.0,b
927.0,985.0,2529.0,3135.0,4095.0,4095.0,4095.0,4095.0,1.11,9.06,8.18,0.27,0.49,-0.06,0.0,b
913.0,988.0,2543.0,3136.0,4095.0,4095.0,4095.0,4095.0,0.77,9.1,8.16,0.36,0.87,-0.07,0.0,b
919.0,989.0,2545.0,3138.0,4095.0,4095.0,4095.0,4095.0,0.89,9.28,7.57,0.47,0.87,-0.09,0.0,b
927.0,982.0,2559.0,3139.0,4095.0,4095.0,4095.0,4095.0,0.22,9.61,6.56,0.51,1.36,-0.02,0.0,b
914.0,1002.0,2559.0,3138.0,4095.0,4095.0,4095.0,4095.0,-0.19,9.55,6.62,0.25,0.6,-0.06,0.0,b
926.0,982.0,2559.0,3146.0,4095.0,4095.0,4095.0,4095.0,0.15,9.57,6.27,0.21,0.07,-0.23,0.0,b
927.0,983.0,2537.0,3148.0,4095.0,4095.0,4095.0,4095.0,1.53,9.83,5.1,0.02,0.15,-0.45,0.0,b
914.0,1005.0,2515.0,3145.0,4095.0,4095.0,4095.0,4095.0,-0.27,9.72,5.96,-0.07,0.09,-0.57,0.0,b
913.0,989.0,2474.0,3146.0,4095.0,4095.0,4095.0,4095.0,-0.71,9.49,6.79,-0.43,0.03,-0.47,0.0,b
929.0,993.0,2440.0,3147.0,4095.0,4095.0,4095.0,4095.0,-1.1,9.45,6.95,-0.41,0.47,-0.11,0.0,b
927.0,1040.0,2258.0,3136.0,4095.0,4095.0,4095.0,4095.0,-0.78,8.99,7.57,-0.7,-0.1,-0.14,0.0,b
919.0,1175.0,2173.0,3136.0,4095.0,4095.0,4095.0,4095.0,-1.09,8.94,8.48,-0.34,0.78,-0.02,0.0,b
938.0,1281.0,1933.0,3137.0,4095.0,4095.0,4095.0,4095.0,-1.18,8.96,8.64,-0.47,0.19,0.05,0.0,b
956.0,3414.0,1199.0,3119.0,4095.0,4095.0,4095.0,4095.0,-0.47,8.8,8.61,-0.46,-0.76,-0.16,0.0,b
944.0,3984.0,977.0,2975.0,4095.0,4095.0,4095.0,4095.0,0.71,8.53,8.3,-0.48,-0.86,-0.33,0.0,b
945.0,940.0,1515.0,3167.0,4095.0,4095.0,4095.0,4095.0,-0.14,9.03,8.17,0.05,-0.16,-0.16,0.0,b
948.0,960.0,1515.0,3165.0,4095.0,4095.0,4095.0,4095.0,-0.34,9.16,8.15,0.08,0.04,-0.09,0.0,b
938.0,947.0,1488.0,3168.0,4095.0,4095.0,4095.0,4095.0,-0.43,9.1,8.44,0.09,-0.3,-0.09,0.0,b
935.0,953.0,1473.0,3174.0,4095.0,4095.0,4095.0,4095.0,-0.07,8.91,8.48,0.24,-0.49,-0.12,0.0,b
934.0,965.0,1489.0,3168.0,4095.0,4095.0,4095.0,4095.0,0.23,9.03,7.82,0.38,-0.32,-0.2,0.0,b
935.0,960.0,1645.0,3167.0,4095.0,4095.0,4095.0,4095.0,0.25,9.37,7.16,0.31,0.01,-0.15,0.0,b
941.0,949.0,1708.0,3173.0,4095.0,4095.0,4095.0,4095.0,-0.17,9.43,7.15,0.2,0.04,-0.09,0.0,b
919.0,961.0,1723.0,3169.0,4095.0,4095.0,4095.0,4095.0,0.31,9.31,6.96,0.13,-0.01,-0.09,0.0,b
928.0,948.0,1798.0,3168.0,4095.0,4095.0,4095.0,4095.0,0.2,9.44,7.05,-0.0,0.28,-0.01,0.0,b
933.0,955.0,1979.0,3168.0,4095.0,4095.0,4095.0,4095.0,0.42,9.22,7.35,0.06,0.85,0.21,0.0,b
927.0,965.0,2245.0,3168.0,4095.0,4095.0,4095.0,4095.0,-0.02,9.16,7.44,-0.16,0.46,0.05,0.0,b
933.0,1079.0,1498.0,3179.0,4095.0,4095.0,4095.0,4095.0,0.41,9.29,7.45,-0.33,-0.4,-0.05,0.0,b
939.0,2210.0,1306.0,3169.0,4095.0,4095.0,4095.0,4095.0,0.31,9.23,7.64,-0.21,0.2,-0.02,0.0,b
927.0,2385.0,1292.0,3179.0,4095.0,4095.0,4095.0,4095.0,0.16,8.95,8.27,0.1,-0.02,-0.13,0.0,b
943.0,2352.0,1341.0,3177.0,4095.0,4095.0,4095.0,4095.0,0.33,9.12,8.12,0.24,-0.3,-0.25,0.0,b
942.0,1413.0,1270.0,3179.0,4095.0,4095.0,4095.0,4095.0,0.57,9.12,7.92,0.41,-0.55,-0.38,0.0,b
920.0,965.0,1424.0,3184.0,4095.0,4095.0,4095.0,4095.0,0.39,9.37,7.16,0.31,-0.42,-0.36,0.0,b
926.0,946.0,1599.0,3185.0,4095.0,4095.0,4095.0,4095.0,0.38,9.56,6.69,0.39,0.1,-0.14,0.0,b
929.0,957.0,1856.0,3183.0,4095.0,4095.0,4095.0,4095.0,0.22,9.67,6.64,0.09,0.19,-0.03,0.0,b
937.0,949.0,2001.0,3184.0,4095.0,4095.0,4095.0,4095.0,0.23,9.46,6.83,-0.05,0.06,-0.04,0.0,b
929.0,959.0,2013.0,3189.0,4095.0,4095.0,4095.0,4095.0,0.25,9.54,6.63,-0.1,-0.04,-0.26,0.0,b
924.0,959.0,2023.0,3185.0,4095.0,4095.0,4095.0,4095.0,-0.14,9.43,7.12,-0.17,-0.18,-0.2,0.0,b
928.0,953.0,1926.0,3186.0,4095.0,4095.0,4095.0,4095.0,-0.26,9.51,7.35,-0.19,-0.63,-0.14,0.0,b
930.0,955.0,1642.0,3189.0,4095.0,4095.0,4095.0,4095.0,0.81,9.18,7.64,-0.28,-1.56,-0.32,0.0,b
944.0,945.0,1583.0,3184.0,4095.0,4095.0,4095.0,4095.0,1.17,9.38,7.02,0.02,-1.68,-0.48,0.0,b
929.0,955.0,1565.0,3193.0,4095.0,4095.0,4095.0,4095.0,0.29,9.42,7.18,0.05,-1.73,-0.52,0.0,b
933.0,955.0,1553.0,3184.0,4095.0,4095.0,4095.0,4095.0,1.27,9.35,7.08,-0.0,-1.57,-0.53,0.0,b
938.0,954.0,1535.0,3184.0,4095.0,4095.0,4095.0,4095.0,1.17,9.52,6.9,0.07,-0.64,-0.27,0.0,b
942.0,959.0,1535.0,3187.0,4095.0,4095.0,4095.0,4095.0,1.2,9.53,6.84,0.01,0.37,-0.02,0.0,b
933.0,959.0,1526.0,3189.0,4095.0,4095.0,4095.0,4095.0,1.26,9.46,6.85,-0.03,0.7,0.05,0.0,b
942.0,957.0,1535.0,3191.0,4095.0,4095.0,4095.0,4095.0,1.06,9.36,6.86,-0.02,1.04,0.12,0.0,b
944.0,955.0,1535.0,3188.0,4095.0,4095.0,4095.0,4095.0,0.68,9.45,7.23,-0.06,0.87,0.1,0.0,b
929.0,951.0,1509.0,3189.0,4095.0,4095.0,4095.0,4095.0,0.79,9.26,7.52,-0.09,0.47,0.01,0.0,b
933.0,953.0,1520.0,3194.0,4095.0,4095.0,4095.0,4095.0,1.04,9.24,7.55,-0.04,0.39,-0.01,0.0,b
933.0,956.0,1568.0,3198.0,4095.0,4095.0,4095.0,4095.0,1.18,9.37,7.33,-0.02,0.38,-0.02,0.0,b
944.0,963.0,1607.0,3199.0,4095.0,4095.0,4095.0,4095.0,1.03,9.34,7.37,-0.01,0.52,-0.03,0.0,b
950.0,964.0,1806.0,3203.0,4095.0,4095.0,4095.0,4095.0,0.78,9.36,7.51,-0.0,0.79,0.03,0.0,b
943.0,947.0,1802.0,3201.0,4095.0,4095.0,4095.0,4095.0,0.67,9.24,7.73,0.01,0.45,0.01,0.0,b
947.0,959.0,1746.0,3202.0,4095.0,4095.0,4095.0,4095.0,1.0,9.24,7.47,-0.02,0.1,-0.08,0.0,b
937.0,979.0,1535.0,3204.0,4095.0,4095.0,4095.0,4095.0,0.7,9.1,7.34,0.24,0.06,-0.03,0.0,b
931.0,2922.0,1363.0,3198.0,4095.0,4095.0,4095.0,4095.0,0.89,9.33,7.38,0.0,-0.06,-0.16,0.0,b
931.0,2922.0,1363.0,3198.0,4095.0,4095.0,4095.0,4095.0,0.89,9.33,7.38,0.0,-0.06,-0.16,0.0,b
928.0,3045.0,1415.0,3199.0,4095.0,4095.0,4095.0,4095.0,0.85,9.27,7.47,0.02,-0.03,-0.15,0.0,b
938.0,3248.0,1458.0,3196.0,4095.0,4095.0,4095.0,4095.0,0.94,9.3,7.37,0.04,-0.06,-0.17,0.0,b
923.0,3279.0,1449.0,3203.0,4095.0,4095.0,4095.0,4095.0,0.95,9.3,7.37,0.01,-0.06,-0.2,0.0,b
930.0,3269.0,1383.0,3199.0,4095.0,4095.0,4095.0,4095.0,0.86,9.22,7.58,0.02,-0.02,-0.19,0.0,b
944.0,3147.0,1302.0,3203.0,4095.0,4095.0,4095.0,4095.0,0.88,9.3,7.54,0.01,-0.08,-0.2,0.0,b
945.0,2661.0,1229.0,3205.0,4095.0,4095.0,4095.0,4095.0,0.96,9.35,7.48,0.0,-0.06,-0.19,0.0,b
950.0,1776.0,1153.0,3211.0,4095.0,4095.0,4095.0,4095.0,0.9,9.37,7.28,0.04,0.08,-0.16,0.0,b
958.0,1018.0,1133.0,3217.0,4095.0,4095.0,4095.0,4095.0,0.93,9.3,7.33,0.0,0.01,-0.17,0.0,b
955.0,973.0,1137.0,3219.0,4095.0,4095.0,4095.0,4095.0,0.79,9.38,7.22,-0.01,-0.03,-0.2,0.0,b
938.0,971.0,1200.0,3217.0,4095.0,4095.0,4095.0,4095.0,0.71,9.3,7.38,-0.03,0.04,-0.18,0.0,b
925.0,956.0,1267.0,3227.0,4095.0,4095.0,4095.0,4095.0,0.64,9.31,7.5,-0.01,0.03,-0.15,0.0,b
941.0,951.0,1276.0,3235.0,4095.0,4095.0,4095.0,4095.0,0.79,9.34,7.44,-0.04,-0.01,-0.13,0.0,b
937.0,956.0,1285.0,3231.0,4095.0,4095.0,4095.0,4095.0,0.8,9.37,7.51,0.0,0.01,-0.13,0.0,b
937.0,974.0,1293.0,3232.0,4095.0,4095.0,4095.0,4095.0,0.9,9.29,7.57,-0.04,0.01,-0.12,0.0,b
923.0,974.0,1298.0,3241.0,4095.0,4095.0,4095.0,4095.0,0.84,9.23,7.58,0.0,-0.06,-0.15,0.0,b
942.0,962.0,1317.0,3239.0,4095.0,4095.0,4095.0,4095.0,0.77,9.26,7.5,0.03,-0.02,-0.14,0.0,b
927.0,975.0,1306.0,3235.0,4095.0,4095.0,4095.0,4095.0,0.78,9.32,7.44,0.01,-0.0,-0.16,0.0,b
931.0,978.0,1298.0,3234.0,4095.0,4095.0,4095.0,4095.0,0.78,9.25,7.53,-0.03,-0.03,-0.16,0.0,b
919.0,958.0,1375.0,3246.0,4095.0,4095.0,4095.0,4095.0,1.16,9.47,7.18,0.04,1.02,0.07,0.0,b
915.0,959.0,1457.0,3249.0,4095.0,4095.0,4095.0,4095.0,0.0,9.39,7.37,-0.12,1.44,0.24,0.0,b
918.0,951.0,1625.0,3245.0,4095.0,4095.0,4095.0,4095.0,0.73,9.09,7.15,-0.26,0.02,-0.1,0.0,b
909.0,1001.0,1648.0,3247.0,4095.0,4095.0,4095.0,4095.0,1.13,9.02,8.3,-0.12,-0.57,-0.32,0.0,b
909.0,2243.0,1535.0,3238.0,4095.0,4095.0,4095.0,4095.0,0.7,9.11,8.17,0.03,-0.22,-0.19,0.0,b
917.0,2960.0,1583.0,3238.0,4095.0,4095.0,4095.0,4095.0,1.02,9.16,7.68,0.15,0.03,0.09,0.0,b
919.0,3572.0,1661.0,3238.0,4095.0,4095.0,4095.0,4095.0,0.85,9.05,7.72,-0.03,0.08,-0.07,0.0,b
927.0,3698.0,1857.0,3235.0,4095.0,4095.0,4095.0,4095.0,1.02,9.18,7.72,-0.09,0.01,-0.11,0.0,b
928.0,3710.0,1818.0,3245.0,4095.0,4095.0,4095.0,4095.0,0.92,9.16,8.17,-0.05,-0.01,-0.11,0.0,b
944.0,3709.0,1788.0,3241.0,4095.0,4095.0,4095.0,4095.0,1.05,9.09,8.11,0.0,-0.09,-0.18,0.0,b
944.0,3729.0,1787.0,3247.0,4095.0,4095.0,4095.0,4095.0,0.81,9.1,8.23,0.07,-0.07,-0.1,0.0,b
930.0,3710.0,1782.0,3250.0,4095.0,4095.0,4095.0,4095.0,0.83,9.1,8.06,0.02,-0.06,-0.15,0.0,b
945.0,3297.0,1759.0,3246.0,4095.0,4095.0,4095.0,4095.0,0.98,9.03,7.98,0.02,-0.13,-0.14,0.0,b
943.0,2688.0,1667.0,3251.0,4095.0,4095.0,4095.0,4095.0,1.16,9.1,7.96,0.06,-0.13,-0.18,0.0,b
943.0,2087.0,1616.0,3248.0,4095.0,4095.0,4095.0,4095.0,0.92,9.13,7.87,0.08,-0.01,-0.19,0.0,b
957.0,1535.0,1657.0,3264.0,4095.0,4095.0,4095.0,4095.0,0.96,9.13,7.48,-0.05,-0.02,-0.31,0.0,b
991.0,1129.0,1809.0,3264.0,4095.0,4095.0,4095.0,4095.0,1.0,9.29,7.71,-0.08,0.01,-0.28,0.0,b
1005.0,1002.0,1906.0,3273.0,4095.0,4095.0,4095.0,4095.0,0.74,9.22,7.83,-0.11,0.03,-0.26,0.0,b
1034.0,986.0,1962.0,3275.0,4095.0,4095.0,4095.0,4095.0,0.51,9.05,8.15,-0.1,-0.08,-0.19,0.0,b
1106.0,985.0,1946.0,3280.0,4095.0,4095.0,4095.0,4095.0,0.73,9.04,8.22,0.02,-0.05,-0.12,0.0,b
1350.0,1296.0,1890.0,3266.0,4095.0,4095.0,4095.0,4095.0,1.13,9.02,8.21,0.01,0.02,-0.1,0.0,b
1360.0,1349.0,1882.0,3269.0,4095.0,4095.0,4095.0,4095.0,0.98,9.05,8.18,0.05,-0.02,-0.14,0.0,b
1363.0,1521.0,1875.0,3264.0,4095.0,4095.0,4095.0,4095.0,0.93,9.1,7.99,0.05,-0.09,-0.16,0.0,b
1382.0,1633.0,1894.0,3266.0,4095.0,4095.0,4095.0,4095.0,0.93,9.14,7.94,0.02,0.04,-0.14,0.0,b
1406.0,1670.0,1887.0,3269.0,4095.0,4095.0,4095.0,4095.0,0.89,9.04,8.03,0.02,-0.01,-0.14,0.0,b
1419.0,1643.0,1877.0,3273.0,4095.0,4095.0,4095.0,4095.0,0.95,9.08,8.09,-0.01,0.1,-0.13,0.0,b
1232.0,1584.0,1735.0,3266.0,4095.0,4095.0,4095.0,4095.0,0.92,9.05,8.18,0.07,0.03,-0.17,0.0,b
974.0,2980.0,1451.0,3259.0,4095.0,4095.0,4095.0,4095.0,0.71,9.07,7.82,0.07,0.04,-0.13,0.0,b
925.0,4021.0,1248.0,3249.0,4095.0,4095.0,4095.0,4095.0,0.73,8.91,8.15,0.1,-0.03,0.11,0.0,b
931.0,4095.0,1347.0,3237.0,4095.0,4095.0,4095.0,4095.0,0.87,9.0,8.25,0.12,-0.02,0.0,0.0,b
944.0,4095.0,1446.0,3225.0,4095.0,4095.0,4095.0,4095.0,1.41,8.92,8.2,-0.02,-0.21,-0.09,0.0,b
947.0,4095.0,1556.0,3216.0,4095.0,4095.0,4095.0,4095.0,1.16,9.06,8.23,0.03,-0.15,-0.21,0.0,b
949.0,4095.0,1525.0,3216.0,4095.0,4095.0,4095.0,4095.0,1.04,9.17,8.35,0.09,-0.07,-0.21,0.0,b
944.0,4095.0,1522.0,3216.0,4095.0,4095.0,4095.0,4095.0,1.14,9.02,7.86,0.14,0.03,-0.14,0.0,b
944.0,4095.0,1535.0,3215.0,4095.0,4095.0,4095.0,4095.0,1.17,9.17,7.69,0.1,-0.02,-0.16,0.0,b
939.0,4095.0,1530.0,3221.0,4095.0,4095.0,4095.0,4095.0,1.25,9.17,7.73,0.04,-0.01,-0.18,0.0,b
932.0,4095.0,1469.0,3243.0,4095.0,4095.0,4095.0,4095.0,1.17,9.18,7.82,0.03,-0.04,-0.21,0.0,b
925.0,4095.0,1433.0,3246.0,4095.0,4095.0,4095.0,4095.0,1.11,9.11,7.63,0.01,-0.08,-0.24,0.0,b
944.0,4095.0,1375.0,3254.0,4095.0,4095.0,4095.0,4095.0,1.0,9.08,7.81,0.08,0.02,-0.21,0.0,b
957.0,4095.0,1348.0,3259.0,4095.0,4095.0,4095.0,4095.0,0.88,9.19,7.67,0.07,-0.05,-0.19,0.0,b
1247.0,4095.0,1396.0,3274.0,4095.0,4095.0,4095.0,4095.0,1.22,9.14,7.81,-0.01,0.01,-0.11,0.0,b
1253.0,4095.0,1404.0,3270.0,4095.0,4095.0,4095.0,4095.0,1.09,9.15,7.87,0.02,0.01,-0.12,0.0,b
1267.0,4095.0,1415.0,3280.0,4095.0,4095.0,4095.0,4095.0,1.11,9.2,7.88,0.05,0.03,-0.1,0.0,b
1301.0,4095.0,1428.0,3276.0,4095.0,4095.0,4095.0,4095.0,1.33,9.17,7.69,0.05,0.05,-0.11,0.0,b
1335.0,4095.0,1435.0,3279.0,4095.0,4095.0,4095.0,4095.0,1.24,9.18,7.64,0.06,0.01,-0.16,0.0,b
1390.0,4095.0,1424.0,3279.0,4095.0,4095.0,4095.0,4095.0,1.21,9.2,7.41,0.08,-0.03,-0.2,0.0,b
1823.0,4095.0,1533.0,3279.0,4095.0,4095.0,4095.0,4095.0,1.21,9.24,7.46,0.08,0.02,-0.23,0.0,b
2121.0,4095.0,1488.0,3282.0,4095.0,4095.0,4095.0,4095.0,0.76,9.01,8.48,0.05,0.01,-0.24,0.0,b
2428.0,4095.0,1440.0,3286.0,4095.0,4095.0,4095.0,4095.0,0.84,9.28,7.76,0.02,0.01,-0.17,0.0,b
2445.0,4095.0,1406.0,3285.0,4095.0,4095.0,4095.0,4095.0,1.06,9.28,7.66,0.01,-0.03,-0.13,0.0,b
2445.0,4095.0,1381.0,3294.0,4095.0,4095.0,4095.0,4095.0,1.16,9.28,7.55,0.04,-0.03,-0.15,0.0,b
2434.0,4095.0,1377.0,3291.0,4095.0,4095.0,4095.0,4095.0,1.19,9.27,7.52,-0.01,0.0,-0.13,0.0,b
2443.0,4095.0,1382.0,3299.0,4095.0,4095.0,4095.0,4095.0,1.07,9.15,7.68,0.01,-0.02,-0.16,0.0,b
2429.0,4095.0,1392.0,3296.0,4095.0,4095.0,4095.0,4095.0,0.99,9.23,7.72,0.03,-0.04,-0.15,0.0,b
2442.0,4095.0,1399.0,3303.0,4095.0,4095.0,4095.0,4095.0,1.06,9.19,7.69,0.04,-0.01,-0.11,0.0,b
2465.0,4095.0,1419.0,3298.0,4095.0,4095.0,4095.0,4095.0,1.08,9.23,7.65,0.11,-0.02,-0.06,0.0,b
2494.0,4095.0,1423.0,3299.0,4095.0,4095.0,4095.0,4095.0,1.24,9.25,7.52,0.1,0.02,-0.09,0.0,b
2495.0,4095.0,1423.0,3311.0,4095.0,4095.0,4095.0,4095.0,1.32,9.29,7.39,0.05,0.02,-0.12,0.0,b
2482.0,4095.0,1437.0,3307.0,4095.0,4095.0,4095.0,4095.0,1.26,9.37,7.31,-0.01,-0.0,-0.15,0.0,b
2486.0,4095.0,1474.0,3310.0,4095.0,4095.0,4095.0,4095.0,1.17,9.29,7.49,-0.02,-0.01,-0.13,0.0,b
938.0,4095.0,1049.0,3278.0,4095.0,4095.0,4095.0,4095.0,1.53,9.16,7.61,-0.01,-0.04,-0.13,0.0,b
944.0,4095.0,1063.0,3271.0,4095.0,4095.0,4095.0,4095.0,1.58,9.11,7.81,0.0,-0.05,-0.12,0.0,b
937.0,4095.0,1070.0,3271.0,4095.0,4095.0,4095.0,4095.0,1.67,9.09,7.71,0.01,-0.01,-0.15,0.0,b
943.0,4095.0,1070.0,3278.0,4095.0,4095.0,4095.0,4095.0,1.6,9.1,7.78,0.05,-0.06,-0.2,0.0,b
933.0,4095.0,1101.0,3275.0,4095.0,4095.0,4095.0,4095.0,1.54,9.1,7.83,0.14,-0.06,-0.26,0.0,b
917.0,4095.0,1280.0,3287.0,4095.0,4095.0,4095.0,4095.0,1.68,9.02,7.54,0.19,-0.0,-0.31,0.0,b
959.0,4095.0,1312.0,3319.0,4095.0,4095.0,4095.0,4095.0,1.24,9.32,7.34,0.03,-0.08,-0.3,0.0,b
1454.0,4095.0,1241.0,3340.0,4095.0,4095.0,4095.0,4095.0,1.81,9.78,7.35,0.05,-0.12,-0.24,0.0,b
2202.0,4095.0,1223.0,3356.0,4095.0,4095.0,4095.0,4095.0,1.27,9.41,7.05,-0.0,-0.02,-0.19,0.0,b
2361.0,4095.0,1259.0,3375.0,4095.0,4095.0,4095.0,4095.0,1.08,9.36,7.22,-0.16,0.3,-0.07,0.0,b
2434.0,4095.0,1264.0,3386.0,4095.0,4095.0,4095.0,4095.0,1.45,9.31,7.31,-0.11,0.35,-0.04,0.0,b
2448.0,4095.0,1235.0,3385.0,4095.0,4095.0,4095.0,4095.0,1.2,9.11,7.91,-0.11,0.4,-0.0,0.0,b
2523.0,4095.0,1185.0,3387.0,4095.0,4095.0,4095.0,4095.0,1.23,9.11,7.99,-0.0,0.14,-0.08,0.0,b
2615.0,4095.0,1086.0,3390.0,4095.0,4095.0,4095.0,4095.0,1.25,9.09,7.94,-0.02,-0.24,-0.18,0.0,b
2645.0,4095.0,1022.0,3378.0,4095.0,4095.0,4095.0,4095.0,1.5,9.11,7.73,-0.07,-0.51,-0.34,0.0,b
2626.0,4095.0,1023.0,3382.0,4095.0,4095.0,4095.0,4095.0,1.17,9.25,7.71,-0.1,-0.42,-0.28,0.0,b
2602.0,4095.0,1022.0,3376.0,4095.0,4095.0,4095.0,4095.0,1.36,9.09,7.59,-0.15,-0.17,-0.17,0.0,b
2590.0,4095.0,1015.0,3369.0,4095.0,4095.0,4095.0,4095.0,1.35,9.12,7.99,-0.08,0.17,-0.06,0.0,b
2484.0,4095.0,994.0,3351.0,4095.0,4095.0,4095.0,4095.0,1.27,9.03,8.1,-0.01,0.14,-0.08,0.0,b
2233.0,4095.0,1011.0,3340.0,4095.0,4095.0,4095.0,4095.0,1.58,9.05,7.42,0.0,-0.03,-0.07,0.0,b
1503.0,4095.0,1480.0,3295.0,4095.0,4095.0,4095.0,4095.0,1.47,9.02,8.03,-0.02,0.02,-0.12,0.0,b
1503.0,4095.0,1480.0,3295.0,4095.0,4095.0,4095.0,4095.0,1.47,9.02,8.03,-0.02,0.02,-0.12,0.0,b
1329.0,4095.0,1853.0,3283.0,4095.0,4095.0,4095.0,4095.0,1.55,8.99,8.01,0.01,0.02,-0.12,0.0,b
1280.0,4095.0,2241.0,3280.0,4095.0,4095.0,4095.0,4095.0,1.81,9.0,7.8,-0.01,0.04,-0.09,0.0,b
1205.0,4095.0,2271.0,3285.0,4095.0,4095.0,4095.0,4095.0,1.67,8.93,8.12,0.04,-0.02,-0.16,0.0,b
1168.0,4095.0,2263.0,3298.0,4095.0,4095.0,4095.0,4095.0,1.6,8.98,8.13,0.07,-0.08,-0.18,0.0,b
1261.0,4095.0,2242.0,3302.0,4095.0,4095.0,4095.0,4095.0,1.61,9.01,7.97,0.11,-0.09,-0.23,0.0,b
1468.0,4095.0,2175.0,3312.0,4095.0,4095.0,4095.0,4095.0,1.53,9.05,7.98,0.14,-0.11,-0.23,0.0,b
1535.0,4095.0,2079.0,3311.0,4095.0,4095.0,4095.0,4095.0,1.6,9.13,7.93,0.09,-0.13,-0.22,0.0,b
1570.0,4095.0,1981.0,3323.0,4095.0,4095.0,4095.0,4095.0,1.53,9.14,7.71,0.06,-0.08,-0.18,0.0,b
1613.0,4095.0,1961.0,3321.0,4095.0,4095.0,4095.0,4095.0,1.55,9.17,7.72,0.02,0.01,-0.13,0.0,b
1616.0,4095.0,1931.0,3316.0,4095.0,4095.0,4095.0,4095.0,1.51,9.08,7.84,0.05,-0.02,-0.14,0.0,b
1621.0,4095.0,1907.0,3324.0,4095.0,4095.0,4095.0,4095.0,1.55,9.09,7.78,0.0,-0.05,-0.15,0.0,b
1701.0,4095.0,1894.0,3325.0,4095.0,4095.0,4095.0,4095.0,1.54,9.13,7.88,0.1,-0.05,-0.19,0.0,b
1850.0,4095.0,1856.0,3327.0,4095.0,4095.0,4095.0,4095.0,1.0,8.91,8.32,0.04,-0.83,-0.5,0.0,b
2145.0,4095.0,1761.0,3340.0,4095.0,4095.0,4095.0,4095.0,1.93,9.1,7.81,0.1,-1.16,-0.59,0.0,b
2347.0,4095.0,1585.0,3344.0,4095.0,4095.0,4095.0,4095.0,1.81,9.47,7.04,0.07,-0.73,-0.52,0.0,b
2427.0,4095.0,1491.0,3344.0,4095.0,4095.0,4095.0,4095.0,1.49,9.34,6.74,0.01,-0.4,-0.29,0.0,b
2313.0,4095.0,1367.0,3357.0,4095.0,4095.0,4095.0,4095.0,1.55,9.44,6.95,-0.21,0.08,-0.07,0.0,b
2227.0,4095.0,1337.0,3356.0,4095.0,4095.0,4095.0,4095.0,1.74,9.15,7.58,-0.26,0.35,0.05,0.0,b
1484.0,939.0,3115.0,3139.0,4095.0,4095.0,4095.0,4095.0,0.22,9.57,6.81,-0.05,-0.06,-0.11,0.0,b
1488.0,931.0,3123.0,3139.0,4095.0,4095.0,4095.0,4095.0,-0.02,9.27,7.18,-0.04,-0.01,-0.08,0.0,b
1526.0,944.0,3120.0,3141.0,4095.0,4095.0,4095.0,4095.0,0.45,9.38,7.07,0.0,-0.05,-0.12,0.0,b
1553.0,941.0,3126.0,3142.0,4095.0,4095.0,4095.0,4095.0,0.19,9.49,7.14,0.03,0.05,-0.14,0.0,b
1575.0,931.0,3135.0,3145.0,4095.0,4095.0,4095.0,4095.0,0.07,9.48,7.16,0.04,-0.01,-0.17,0.0,b
1584.0,944.0,3122.0,3143.0,4095.0,4095.0,4095.0,4095.0,0.09,9.42,7.13,0.04,0.04,-0.18,0.0,b
1579.0,933.0,3126.0,3150.0,4095.0,4095.0,4095.0,4095.0,0.09,9.49,6.99,0.01,-0.02,-0.18,0.0,b
1581.0,945.0,3131.0,3152.0,4095.0,4095.0,4095.0,4095.0,0.0,9.44,7.07,-0.01,-0.08,-0.18,0.0,b
1578.0,939.0,3127.0,3150.0,4095.0,4095.0,4095.0,4095.0,-0.04,9.45,7.09,-0.0,0.08,-0.15,0.0,b
1587.0,942.0,3120.0,3151.0,4095.0,4095.0,4095.0,4095.0,0.11,9.39,7.11,0.0,-0.09,-0.16,0.0,b
1582.0,930.0,3134.0,3152.0,4095.0,4095.0,4095.0,4095.0,0.13,9.52,7.1,0.01,-0.03,-0.15,0.0,b
1616.0,941.0,3121.0,3150.0,4095.0,4095.0,4095.0,4095.0,0.01,9.42,7.15,-0.01,-0.01,-0.14,0.0,b
1621.0,938.0,3120.0,3152.0,4095.0,4095.0,4095.0,4095.0,-0.11,9.38,7.18,0.02,-0.12,-0.18,0.0,b
1616.0,946.0,3122.0,3158.0,4095.0,4095.0,4095.0,4095.0,0.12,9.47,7.12,-0.0,-0.37,-0.24,0.0,b
1618.0,951.0,3122.0,3163.0,4095.0,4095.0,4095.0,4095.0,0.25,9.36,7.16,0.01,-0.85,-0.34,0.0,b
1613.0,938.0,3120.0,3157.0,4095.0,4095.0,4095.0,4095.0,0.31,9.63,6.69,-0.01,-0.33,-0.26,0.0,b
1611.0,951.0,3131.0,3161.0,4095.0,4095.0,4095.0,4095.0,-0.0,9.5,6.79,-0.08,-0.1,-0.14,0.0,b
1627.0,938.0,3120.0,3159.0,4095.0,4095.0,4095.0,4095.0,-0.0,9.44,7.35,-0.16,-0.56,-0.17,0.0,b
1637.0,944.0,3118.0,3163.0,4095.0,4095.0,4095.0,4095.0,0.3,9.43,7.31,-0.0,-0.66,-0.27,0.0,b
1617.0,941.0,3136.0,3172.0,4095.0,4095.0,4095.0,4095.0,0.18,9.6,6.41,-0.03,-1.04,-0.35,0.0,b
2341.0,1138.0,3104.0,3225.0,4095.0,4095.0,4095.0,4095.0,0.55,8.99,8.15,0.18,-0.05,-0.17,0.0,b
2331.0,1130.0,3103.0,3231.0,4095.0,4095.0,4095.0,4095.0,0.7,8.98,8.18,0.17,0.03,-0.17,0.0,b
2346.0,1117.0,3103.0,3235.0,4095.0,4095.0,4095.0,4095.0,0.86,9.03,8.42,0.07,-0.16,-0.29,0.0,b
2291.0,1056.0,3088.0,3243.0,4095.0,4095.0,4095.0,4095.0,0.41,9.15,8.35,0.25,-0.11,-0.35,0.0,b
2287.0,1009.0,3110.0,3250.0,4095.0,4095.0,4095.0,4095.0,0.3,8.82,8.34,0.35,-0.13,-0.4,0.0,b
2256.0,1001.0,3111.0,3245.0,4095.0,4095.0,4095.0,4095.0,0.6,9.06,8.06,0.33,-0.28,-0.48,0.0,b
2240.0,997.0,3120.0,3243.0,4095.0,4095.0,4095.0,4095.0,0.07,9.29,7.65,0.32,-0.31,-0.45,0.0,b
2230.0,982.0,3118.0,3239.0,4095.0,4095.0,4095.0,4095.0,-0.07,9.32,7.57,0.23,-0.41,-0.38,0.0,b
2223.0,1003.0,3120.0,3245.0,4095.0,4095.0,4095.0,4095.0,0.45,9.43,7.01,0.13,-0.31,-0.37,0.0,b
2223.0,978.0,3105.0,3242.0,4095.0,4095.0,4095.0,4095.0,-0.43,9.38,7.37,0.02,-0.58,-0.32,0.0,b
2202.0,997.0,3108.0,3250.0,4095.0,4095.0,4095.0,4095.0,-0.21,9.2,7.49,0.03,-1.85,-0.59,0.0,b
2185.0,993.0,3092.0,3249.0,4095.0,4095.0,4095.0,4095.0,0.04,9.18,7.76,-0.14,-1.58,-0.36,0.0,b
2199.0,991.0,3070.0,3249.0,4095.0,4095.0,4095.0,4095.0,0.59,9.48,6.89,-0.23,-1.25,-0.15,0.0,b
2210.0,1008.0,3059.0,3248.0,4095.0,4095.0,4095.0,4095.0,0.86,9.11,7.33,-0.18,-0.58,-0.08,0.0,b
2225.0,1019.0,3065.0,3248.0,4095.0,4095.0,4095.0,4095.0,1.16,9.34,7.48,-0.01,0.22,-0.04,0.0,b
2241.0,1023.0,3053.0,3243.0,4095.0,4095.0,4095.0,4095.0,1.53,9.29,7.29,0.05,1.06,0.15,0.0,b
2267.0,986.0,3056.0,3249.0,4095.0,4095.0,4095.0,4095.0,0.81,9.45,7.17,-0.05,2.13,0.36,0.0,b
2332.0,945.0,3059.0,3254.0,4095.0,4095.0,4095.0,4095.0,0.93,9.1,7.58,-0.31,1.47,0.33,0.0,b
2547.0,947.0,3056.0,3263.0,4095.0,4095.0,4095.0,4095.0,0.35,9.07,8.35,-0.3,0.73,0.15,0.0,b
2681.0,953.0,3061.0,3255.0,4095.0,4095.0,4095.0,4095.0,1.15,8.87,8.39,-0.08,0.18,0.01,0.0,b
2709.0,953.0,3103.0,3281.0,4095.0,4095.0,4095.0,4095.0,0.43,9.18,7.28,0.24,-0.24,-0.36,0.0,b
2705.0,942.0,3093.0,3279.0,4095.0,4095.0,4095.0,4095.0,0.24,9.41,7.05,0.18,-0.02,-0.31,0.0,b
2731.0,953.0,3115.0,3277.0,4095.0,4095.0,4095.0,4095.0,0.22,8.99,7.86,0.25,-0.18,-0.49,0.0,b
2721.0,943.0,3119.0,3261.0,4095.0,4095.0,4095.0,4095.0,0.59,9.16,7.92,0.62,-0.47,-0.56,0.0,b
2736.0,942.0,3119.0,3259.0,4095.0,4095.0,4095.0,4095.0,-0.12,10.09,6.09,0.41,-0.63,-0.64,0.0,b
2709.0,944.0,3120.0,3255.0,4095.0,4095.0,4095.0,4095.0,0.04,9.56,6.42,0.22,-0.29,-0.38,0.0,b
2704.0,947.0,3132.0,3259.0,4095.0,4095.0,4095.0,4095.0,-0.76,9.76,6.03,-0.02,0.34,-0.06,0.0,b
2691.0,949.0,3131.0,3259.0,4095.0,4095.0,4095.0,4095.0,-0.37,9.39,6.89,-0.05,0.17,0.06,0.0,b
2688.0,945.0,3111.0,3265.0,4095.0,4095.0,4095.0,4095.0,-0.18,9.53,6.97,-0.12,-0.23,-0.04,0.0,b
2667.0,949.0,3098.0,3264.0,4095.0,4095.0,4095.0,4095.0,-0.1,9.38,7.27,-0.14,-0.94,-0.13,0.0,b
2642.0,949.0,3103.0,3280.0,4095.0,4095.0,4095.0,4095.0,0.16,9.59,7.13,0.12,-1.06,-0.3,0.0,b
2635.0,945.0,3107.0,3277.0,4095.0,4095.0,4095.0,4095.0,0.21,9.55,6.89,0.03,-1.1,-0.28,0.0,b
2614.0,956.0,3105.0,3282.0,4095.0,4095.0,4095.0,4095.0,0.53,9.52,6.77,0.05,-0.73,-0.28,0.0,b
2613.0,949.0,3097.0,3280.0,4095.0,4095.0,4095.0,4095.0,0.18,9.55,7.1,0.02,-0.59,-0.15,0.0,b
2625.0,944.0,3100.0,3280.0,4095.0,4095.0,4095.0,4095.0,0.74,9.37,6.95,0.01,-0.56,-0.21,0.0,b
2656.0,954.0,3090.0,3269.0,4095.0,4095.0,4095.0,4095.0,0.81,9.55,6.76,0.03,-0.0,-0.14,0.0,b
2778.0,949.0,3082.0,3273.0,4095.0,4095.0,4095.0,4095.0,0.8,9.49,6.75,0.12,0.43,-0.12,0.0,b
2896.0,943.0,3094.0,3266.0,4095.0,4095.0,4095.0,4095.0,0.54,9.54,6.7,0.04,0.78,-0.03,0.0,b
2960.0,946.0,3099.0,3271.0,4095.0,4095.0,4095.0,4095.0,1.0,9.63,6.36,-0.0,1.3,0.08,0.0,b
3014.0,949.0,3094.0,3267.0,4095.0,4095.0,4095.0,4095.0,-0.21,9.87,6.02,-0.15,2.78,0.34,0.0,b
2829.0,959.0,3123.0,3283.0,4095.0,4095.0,4095.0,4095.0,0.53,9.37,7.22,0.01,-0.14,-0.09,0.0,b
2791.0,977.0,3119.0,3283.0,4095.0,4095.0,4095.0,4095.0,0.77,9.36,7.21,-0.03,-0.18,-0.1,0.0,b
2765.0,960.0,3118.0,3281.0,4095.0,4095.0,4095.0,4095.0,0.73,9.33,7.22,0.04,-0.2,-0.15,0.0,b
2736.0,973.0,3106.0,3271.0,4095.0,4095.0,4095.0,4095.0,0.98,9.54,7.16,-0.0,-0.3,-0.18,0.0,b
2610.0,958.0,3105.0,3275.0,4095.0,4095.0,4095.0,4095.0,0.97,9.35,7.34,0.01,-0.06,-0.14,0.0,b
2587.0,971.0,3102.0,3267.0,4095.0,4095.0,4095.0,4095.0,1.1,9.42,6.79,0.0,0.99,0.01,0.0,b
2602.0,967.0,3106.0,3274.0,4095.0,4095.0,4095.0,4095.0,0.61,9.43,7.01,-0.04,0.95,0.12,0.0,b
2594.0,957.0,3119.0,3267.0,4095.0,4095.0,4095.0,4095.0,0.76,9.33,7.75,0.05,0.51,-0.07,0.0,b
2543.0,951.0,3101.0,3251.0,4095.0,4095.0,4095.0,4095.0,0.59,9.37,7.51,-0.03,0.42,-0.1,0.0,b
2559.0,945.0,3071.0,3250.0,4095.0,4095.0,4095.0,4095.0,0.53,9.48,7.21,-0.09,0.41,-0.02,0.0,b
2559.0,938.0,3052.0,3246.0,4095.0,4095.0,4095.0,4095.0,0.29,9.26,7.53,-0.1,-0.02,-0.15,0.0,b
2637.0,927.0,3030.0,3247.0,4095.0,4095.0,4095.0,4095.0,1.03,9.24,7.52,-0.09,-0.37,-0.22,0.0,b
2675.0,942.0,2999.0,3239.0,4095.0,4095.0,4095.0,4095.0,0.75,9.53,7.4,0.04,0.02,-0.22,0.0,b
2741.0,932.0,2966.0,3248.0,4095.0,4095.0,4095.0,4095.0,0.69,9.22,7.69,-0.05,-0.14,-0.22,0.0,b
2782.0,942.0,2958.0,3247.0,4095.0,4095.0,4095.0,4095.0,0.52,9.3,7.73,0.02,-0.06,-0.28,0.0,b
2816.0,927.0,2919.0,3241.0,4095.0,4095.0,4095.0,4095.0,0.3,9.4,7.33,0.02,0.02,-0.19,0.0,b
2833.0,934.0,2890.0,3239.0,4095.0,4095.0,4095.0,4095.0,0.28,9.25,7.44,-0.06,-0.09,-0.15,0.0,b
2866.0,941.0,2827.0,3238.0,4095.0,4095.0,4095.0,4095.0,0.55,9.29,7.55,-0.07,-0.05,-0.13,0.0,b
2913.0,925.0,2775.0,3243.0,4095.0,4095.0,4095.0,4095.0,0.58,9.31,7.63,-0.01,0.07,-0.11,0.0,b
2937.0,930.0,2714.0,3247.0,4095.0,4095.0,4095.0,4095.0,0.49,9.25,7.77,-0.0,0.0,-0.12,0.0,b
3481.0,960.0,2791.0,3297.0,4095.0,4095.0,4095.0,4095.0,-0.43,9.54,7.31,-0.1,0.1,-0.11,0.0,b
3470.0,978.0,2709.0,3302.0,4095.0,4095.0,4095.0,4095.0,0.1,9.36,7.33,-0.13,0.14,-0.07,0.0,b
3495.0,965.0,2720.0,3306.0,4095.0,4095.0,4095.0,4095.0,-0.03,9.39,7.56,-0.12,0.38,0.04,0.0,b
3473.0,973.0,2768.0,3305.0,4095.0,4095.0,4095.0,4095.0,0.42,9.32,7.71,-0.11,0.35,0.02,0.0,b
3269.0,976.0,2915.0,3309.0,4095.0,4095.0,4095.0,4095.0,0.45,9.21,7.66,-0.11,0.34,0.0,0.0,b
2896.0,977.0,2971.0,3303.0,4095.0,4095.0,4095.0,4095.0,0.28,9.39,7.79,-0.19,0.15,-0.07,0.0,b
2559.0,970.0,3021.0,3305.0,4095.0,4095.0,4095.0,4095.0,0.3,9.26,7.94,0.01,0.07,-0.18,0.0,b
1875.0,976.0,3030.0,3301.0,4095.0,4095.0,4095.0,4095.0,0.17,9.28,7.8,-0.05,0.09,-0.06,0.0,b
1381.0,945.0,2927.0,3276.0,4095.0,4095.0,4095.0,4095.0,0.21,9.05,7.66,0.03,-0.1,-0.15,0.0,b
1392.0,954.0,2652.0,3254.0,4095.0,4095.0,4095.0,4095.0,0.51,9.16,7.92,0.03,-0.11,-0.15,0.0,b
1505.0,1003.0,2005.0,3247.0,4095.0,4095.0,4095.0,4095.0,0.19,9.15,8.14,0.09,-0.05,-0.13,0.0,b
1602.0,2368.0,1090.0,3248.0,4095.0,4095.0,4095.0,4095.0,0.63,9.16,8.03,0.08,-0.18,-0.18,0.0,b
1648.0,2898.0,1019.0,3247.0,4095.0,4095.0,4095.0,4095.0,0.24,9.26,7.77,0.1,-0.23,-0.18,0.0,b
1718.0,3034.0,1008.0,3242.0,4095.0,4095.0,4095.0,4095.0,0.31,9.38,7.52,0.04,-0.03,-0.14,0.0,b
1761.0,3259.0,990.0,3250.0,4095.0,4095.0,4095.0,4095.0,0.13,9.12,7.8,0.04,-0.26,-0.17,0.0,b
1775.0,3328.0,978.0,3248.0,4095.0,4095.0,4095.0,4095.0,0.72,9.17,7.8,0.09,-0.47,-0.26,0.0,b
1776.0,3334.0,982.0,3250.0,4095.0,4095.0,4095.0,4095.0,0.45,9.31,7.76,0.15,-0.07,-0.19,0.0,b
2002.0,3303.0,979.0,3261.0,4095.0,4095.0,4095.0,4095.0,0.04,9.1,8.14,0.14,-0.89,-0.3,0.0,b
2303.0,3203.0,989.0,3276.0,4095.0,4095.0,4095.0,4095.0,0.61,9.13,7.95,0.3,-1.53,-0.45,0.0,b
2449.0,3069.0,1007.0,3288.0,4095.0,4095.0,4095.0,4095.0,0.84,9.56,7.07,0.34,-1.08,-0.4,0.0,b
1815.0,3536.0,958.0,3312.0,4095.0,3855.0,4095.0,4095.0,0.58,9.3,7.24,0.03,-0.29,-0.26,0.0,b
1815.0,3537.0,971.0,3318.0,4095.0,3865.0,4095.0,4095.0,0.71,9.45,7.25,0.03,-0.39,-0.29,0.0,b
1803.0,3540.0,963.0,3309.0,4095.0,3866.0,4095.0,4095.0,0.77,9.4,7.12,0.04,-0.23,-0.24,0.0,b
1773.0,3583.0,973.0,3312.0,4095.0,3889.0,4095.0,4095.0,0.84,9.49,7.18,0.05,-0.18,-0.18,0.0,b
1804.0,3630.0,976.0,3312.0,4095.0,3888.0,4095.0,4095.0,0.67,9.43,7.27,0.01,-0.42,-0.19,0.0,b
1835.0,3690.0,976.0,3309.0,4095.0,3904.0,4095.0,4095.0,0.97,9.4,7.16,-0.01,-0.57,-0.3,0.0,b
1824.0,3719.0,1041.0,3306.0,4095.0,3921.0,4095.0,4095.0,1.1,9.43,7.2,-0.04,-0.14,-0.18,0.0,b
1798.0,3799.0,1059.0,3303.0,4095.0,3951.0,4095.0,4095.0,0.83,9.34,7.21,-0.03,0.18,-0.07,0.0,b
1788.0,3787.0,1055.0,3298.0,4095.0,3987.0,4095.0,4095.0,0.75,9.39,7.21,0.01,0.19,-0.09,0.0,b
1797.0,3792.0,1076.0,3287.0,4095.0,4057.0,4095.0,4095.0,0.91,9.33,7.3,0.01,0.03,-0.13,0.0,b
1812.0,3794.0,1051.0,3299.0,4095.0,4095.0,4095.0,4095.0,1.02,9.51,7.11,0.01,0.31,-0.1,0.0,b
1745.0,3773.0,983.0,3308.0,4095.0,4095.0,4095.0,4095.0,1.28,9.49,6.82,0.01,1.07,0.01,0.0,b
1695.0,3622.0,965.0,3308.0,4095.0,4095.0,4095.0,4095.0,0.41,9.28,7.09,0.01,1.34,0.08,0.0,b
1791.0,2382.0,1485.0,3318.0,4095.0,4095.0,4095.0,4095.0,0.09,9.47,7.01,-0.12,0.77,-0.08,0.0,b
2140.0,1051.0,1837.0,3323.0,4095.0,4095.0,4095.0,4095.0,0.5,9.26,7.73,-0.08,0.72,-0.1,0.0,b
2333.0,960.0,2367.0,3329.0,4095.0,4095.0,4095.0,4095.0,0.54,9.26,7.53,-0.04,0.83,-0.1,0.0,b
2311.0,960.0,2939.0,3341.0,4095.0,4095.0,4095.0,4095.0,0.72,9.09,7.42,-0.02,0.71,-0.18,0.0,b
1808.0,961.0,3051.0,3344.0,4095.0,4095.0,4095.0,4095.0,-0.26,9.25,7.3,0.01,0.48,-0.21,0.0,b
1126.0,954.0,3051.0,3365.0,4095.0,4095.0,4095.0,4095.0,-0.19,9.31,7.5,-0.04,0.04,-0.22,0.0,b
976.0,959.0,3059.0,3367.0,4095.0,4095.0,4095.0,4095.0,-0.06,9.28,7.57,-0.03,-0.17,-0.17,0.0,b
944.0,950.0,2643.0,3198.0,4095.0,4095.0,4095.0,4095.0,0.31,9.44,7.63,0.22,-0.28,-0.3,0.0,b
937.0,946.0,2555.0,3252.0,4095.0,4095.0,4095.0,4095.0,-0.21,9.18,7.85,0.15,-0.99,-0.32,0.0,b
944.0,958.0,2207.0,3281.0,4095.0,4095.0,4095.0,4095.0,0.66,9.34,7.23,0.19,-1.14,-0.4,0.0,b
986.0,941.0,2145.0,3305.0,4095.0,4095.0,4095.0,4095.0,0.23,9.63,6.8,0.21,-0.73,-0.25,0.0,b
1246.0,946.0,2127.0,3313.0,4095.0,4095.0,4095.0,4095.0,0.22,9.44,6.73,0.08,-0.67,-0.23,0.0,b
1652.0,956.0,2073.0,3325.0,4095.0,4095.0,4095.0,4095.0,0.94,9.49,6.68,-0.02,-0.58,-0.14,0.0,b
2234.0,956.0,1729.0,3328.0,4095.0,4095.0,4095.0,4095.0,0.81,9.5,6.96,-0.2,-0.37,0.02,0.0,b
2827.0,966.0,1313.0,3343.0,4095.0,4095.0,4095.0,4095.0,1.04,9.37,7.13,-0.12,-0.04,0.3,0.0,b
2985.0,976.0,1106.0,3346.0,4095.0,4095.0,4095.0,4095.0,1.82,9.37,7.21,0.12,0.36,0.17,0.0,b
3024.0,983.0,1149.0,3355.0,4095.0,4095.0,4095.0,4095.0,1.25,9.42,7.3,0.03,-0.02,-0.11,0.0,b
2976.0,976.0,1136.0,3345.0,4095.0,4095.0,4095.0,4095.0,1.21,9.37,7.27,-0.01,-0.17,-0.19,0.0,b
2867.0,1323.0,1130.0,3343.0,4095.0,4095.0,4095.0,4095.0,-0.17,8.94,8.38,0.13,-0.07,0.06,0.0,b
2684.0,3184.0,1392.0,3330.0,4095.0,4095.0,4095.0,4095.0,1.08,9.39,6.89,-0.06,-0.26,0.04,0.0,b
2555.0,3771.0,1671.0,3303.0,4095.0,4095.0,4095.0,4095.0,1.51,9.63,7.21,0.06,0.0,0.16,0.0,b
2416.0,4095.0,1908.0,3268.0,4095.0,4095.0,4095.0,4095.0,2.09,9.71,6.69,-0.12,-0.03,0.26,0.0,b
2413.0,4095.0,2143.0,3271.0,4095.0,4095.0,4095.0,4095.0,1.82,9.09,7.5,-0.04,0.22,0.03,0.0,b
2375.0,4095.0,2237.0,3266.0,4095.0,4095.0,4095.0,4095.0,2.03,9.17,7.46,-0.14,0.05,-0.12,0.0,b
2329.0,4095.0,2172.0,3267.0,4095.0,4095.0,4095.0,4095.0,1.97,9.16,7.61,0.11,0.04,-0.18,0.0,b
2265.0,4095.0,2089.0,3267.0,4095.0,4095.0,4095.0,4095.0,2.08,9.23,7.49,0.0,0.32,-0.17,0.0,b
2237.0,4095.0,1987.0,3277.0,4095.0,4095.0,4095.0,4095.0,1.62,9.3,7.13,0.12,0.53,-0.09,0.0,b
1938.0,4095.0,1456.0,3290.0,4095.0,4095.0,4095.0,4095.0,1.36,9.25,7.41,-0.06,0.2,-0.15,0.0,b
1823.0,4095.0,2137.0,3293.0,4095.0,4095.0,4095.0,4095.0,1.29,9.26,7.56,-0.11,0.09,-0.19,0.0,b
1680.0,4095.0,2466.0,3298.0,4095.0,4095.0,4095.0,4095.0,1.25,9.28,7.62,-0.09,0.06,-0.2,0.0,b
1535.0,4095.0,2501.0,3291.0,4095.0,4095.0,4095.0,4095.0,1.42,9.09,7.73,-0.11,-0.1,-0.2,0.0,b
1486.0,4095.0,2371.0,3308.0,4095.0,4095.0,4095.0,4095.0,1.57,9.16,7.71,0.01,-0.14,-0.24,0.0,b
1407.0,4095.0,2287.0,3308.0,4095.0,4095.0,4095.0,4095.0,1.56,9.16,8.01,0.13,0.24,-0.13,0.0,b
1499.0,4095.0,2255.0,3312.0,4095.0,4095.0,4095.0,4095.0,1.18,9.35,7.51,-0.01,0.03,-0.14,0.0,b
1607.0,4095.0,2177.0,3311.0,4095.0,4095.0,4095.0,4095.0,1.39,9.17,7.52,0.02,0.01,-0.16,0.0,b
1639.0,4095.0,2030.0,3309.0,4095.0,4095.0,4095.0,4095.0,1.55,9.22,7.57,-0.01,-0.01,-0.15,0.0,b
1638.0,4095.0,1929.0,3313.0,4095.0,4095.0,4095.0,4095.0,1.39,9.14,7.63,0.03,0.02,-0.17,0.0,b
1680.0,4095.0,1838.0,3312.0,4095.0,4095.0,4095.0,4095.0,1.13,9.18,7.79,0.1,-0.13,-0.21,0.0,b
1710.0,4095.0,1722.0,3311.0,4095.0,4095.0,4095.0,4095.0,1.15,9.18,7.77,0.03,-0.17,-0.23,0.0,b
1732.0,4095.0,1594.0,3312.0,4095.0,4095.0,4095.0,4095.0,1.29,9.21,7.67,0.08,-0.21,-0.29,0.0,b
1776.0,4095.0,1228.0,3312.0,4095.0,4095.0,4095.0,4095.0,1.28,9.22,7.69,0.14,-0.12,-0.32,0.0,b
1927.0,4095.0,1309.0,3311.0,4095.0,4095.0,4095.0,4095.0,0.94,9.53,6.79,0.14,0.31,-0.25,0.0,b
2116.0,4095.0,1421.0,3313.0,4095.0,4095.0,4095.0,4095.0,0.92,9.39,7.19,0.09,0.19,-0.32,0.0,b
2126.0,4095.0,1535.0,3318.0,4095.0,4095.0,4095.0,4095.0,1.04,9.5,7.34,0.14,0.09,-0.25,0.0,b
2014.0,4095.0,1460.0,3320.0,4095.0,4095.0,4095.0,4095.0,0.54,9.45,7.0,-0.02,0.35,0.0,0.0,b
1775.0,4095.0,1151.0,3314.0,4095.0,4095.0,4095.0,4095.0,0.83,9.29,7.3,0.05,-0.04,-0.04,0.0,b
1710.0,4095.0,998.0,3301.0,4095.0,4095.0,4095.0,4095.0,1.47,9.31,7.52,0.08,-0.11,-0.1,0.0,b
1557.0,4050.0,962.0,3316.0,4095.0,3547.0,4095.0,4095.0,1.14,9.34,7.24,0.02,0.04,-0.17,0.0,b
1611.0,4095.0,964.0,3318.0,4095.0,3676.0,4095.0,4095.0,0.99,9.28,7.33,0.02,-0.07,-0.19,0.0,b
1634.0,4095.0,971.0,3327.0,4095.0,3753.0,4095.0,4095.0,1.2,9.28,7.42,-0.11,-0.1,-0.21,0.0,b
1665.0,4095.0,960.0,3315.0,4095.0,3810.0,4095.0,4095.0,1.11,9.39,7.21,0.0,0.03,-0.16,0.0,b
1644.0,4095.0,978.0,3326.0,4095.0,3943.0,4095.0,4095.0,1.07,9.31,7.42,0.01,-0.06,-0.21,0.0,b
1535.0,4095.0,992.0,3328.0,4095.0,4082.0,4095.0,4095.0,1.15,9.37,7.26,0.0,0.04,-0.22,0.0,b
1440.0,4095.0,1066.0,3325.0,4095.0,4095.0,4095.0,4095.0,0.95,9.28,7.48,0.03,0.07,-0.18,0.0,b
1330.0,4095.0,1111.0,3347.0,4095.0,4095.0,4095.0,4095.0,0.84,9.33,7.36,0.01,-0.04,-0.16,0.0,b
1205.0,4095.0,1133.0,3344.0,4095.0,4095.0,4095.0,4095.0,0.96,9.39,7.2,-0.04,0.09,-0.1,0.0,b
1186.0,4095.0,1156.0,3344.0,4095.0,4095.0,4095.0,4095.0,0.88,9.35,7.29,-0.07,0.07,-0.1,0.0,b
1230.0,4095.0,1195.0,3351.0,4095.0,4095.0,4095.0,4095.0,1.02,9.27,7.48,-0.11,0.04,-0.09,0.0,b
1270.0,4095.0,1249.0,3348.0,4095.0,4095.0,4095.0,4095.0,1.06,9.36,7.54,-0.22,-0.0,-0.03,0.0,b
1323.0,4095.0,1255.0,3346.0,4095.0,4095.0,4095.0,4095.0,1.36,9.03,7.84,-0.1,0.08,-0.1,0.0,b
1350.0,4095.0,1293.0,3347.0,4095.0,4095.0,4095.0,4095.0,1.2,9.22,7.77,-0.05,-0.06,-0.15,0.0,b
1360.0,4095.0,1330.0,3344.0,4095.0,4095.0,4095.0,4095.0,1.02,9.18,7.78,0.1,0.09,-0.16,0.0,b
1337.0,4095.0,1352.0,3344.0,4095.0,4095.0,4095.0,4095.0,1.05,9.29,7.4,0.04,-0.09,-0.18,0.0,b
1301.0,4095.0,1362.0,3350.0,4095.0,4095.0,4095.0,4095.0,0.96,9.33,7.39,0.01,-0.05,-0.16,0.0,b
1257.0,4095.0,1018.0,3347.0,4095.0,4095.0,4095.0,4095.0,0.95,9.25,7.79,-0.09,0.06,-0.03,0.0,b
1165.0,4095.0,967.0,3344.0,4095.0,4095.0,4095.0,4095.0,1.48,9.09,7.91,-0.04,0.08,-0.02,0.0,b
1144.0,4095.0,966.0,3346.0,4095.0,4095.0,4095.0,4095.0,1.33,9.18,7.9,-0.03,0.01,-0.12,0.0,b
1044.0,4095.0,1671.0,3369.0,4095.0,4095.0,4095.0,4095.0,1.01,9.2,7.63,-0.09,0.14,-0.19,0.0,b
1023.0,4095.0,1915.0,3361.0,4095.0,4095.0,4095.0,4095.0,0.96,9.19,7.67,-0.12,0.02,-0.25,0.0,b
1072.0,4095.0,1869.0,3373.0,4095.0,4095.0,4095.0,4095.0,0.99,9.17,7.8,-0.06,0.13,-0.19,0.0,b
1287.0,4095.0,1618.0,3376.0,4095.0,4095.0,4095.0,4095.0,0.96,9.1,8.08,-0.05,0.06,-0.29,0.0,b
1438.0,4095.0,1683.0,3378.0,4095.0,4095.0,4095.0,4095.0,0.81,9.09,7.95,-0.02,-0.1,-0.23,0.0,b
1840.0,4095.0,1456.0,3391.0,4095.0,4095.0,4095.0,4095.0,0.83,9.42,7.81,-0.08,0.1,-0.22,0.0,b
2150.0,4095.0,1424.0,3389.0,4095.0,4095.0,4095.0,4095.0,0.67,9.12,8.07,-0.07,0.08,-0.17,0.0,b
2194.0,4095.0,1339.0,3403.0,4095.0,4095.0,4095.0,4095.0,0.68,9.05,8.11,-0.01,-0.17,-0.29,0.0,b
2212.0,4095.0,1435.0,3393.0,4095.0,4095.0,4095.0,4095.0,0.76,8.97,8.2,0.03,-0.41,-0.36,0.0,b
2342.0,4095.0,1500.0,3397.0,4095.0,4095.0,4095.0,4095.0,0.66,9.14,8.03,0.17,-0.59,-0.54,0.0,b
2496.0,4095.0,1398.0,3403.0,4095.0,4095.0,4095.0,4095.0,0.73,8.98,8.06,0.29,-0.47,-0.36,0.0,b
2659.0,4095.0,1242.0,3402.0,4095.0,4095.0,4095.0,4095.0,0.24,9.22,7.68,0.2,-0.93,-0.45,0.0,b
2704.0,4095.0,1040.0,3399.0,4095.0,4095.0,4095.0,4095.0,1.01,9.14,7.68,0.22,-1.45,-0.55,0.0,b
2724.0,4095.0,1014.0,3396.0,4095.0,4095.0,4095.0,4095.0,0.29,9.46,7.33,0.25,-1.05,-0.45,0.0,b
2535.0,4095.0,993.0,3403.0,4095.0,4095.0,4095.0,4095.0,1.55,9.94,7.21,0.13,-0.73,-0.4,0.0,b
2349.0,4095.0,997.0,3405.0,4095.0,4095.0,4095.0,4095.0,0.91,9.49,6.83,0.02,-0.22,-0.16,0.0,b
2271.0,4095.0,982.0,3403.0,4095.0,4095.0,4095.0,4095.0,0.66,9.44,7.1,-0.06,0.04,-0.01,0.0,b
2224.0,4095.0,987.0,3408.0,4095.0,4095.0,4095.0,4095.0,1.17,9.33,7.2,-0.11,0.37,0.06,0.0,b
2176.0,4095.0,990.0,3409.0,4095.0,4095.0,4095.0,4095.0,1.13,9.36,7.35,-0.07,0.56,0.01,0.0,b
2109.0,4095.0,985.0,3405.0,4095.0,4095.0,4095.0,4095.0,0.66,9.36,7.39,-0.16,0.74,0.1,0.0,b
2005.0,4095.0,974.0,3410.0,4095.0,4095.0,4095.0,4095.0,1.14,9.17,7.86,-0.05,0.1,-0.1,0.0,b
2007.0,4095.0,974.0,3408.0,4095.0,4095.0,4095.0,4095.0,0.91,9.09,7.96,0.05,0.07,-0.11,0.0,b
1911.0,4095.0,986.0,3414.0,4095.0,4095.0,4095.0,4095.0,0.72,9.04,8.01,0.03,-0.11,-0.18,0.0,b
1707.0,4095.0,973.0,3411.0,4095.0,4095.0,4095.0,4095.0,0.82,9.17,8.03,0.03,-0.03,-0.16,0.0,b
1690.0,4095.0,977.0,3418.0,4095.0,4095.0,4095.0,4095.0,0.9,9.08,8.21,0.06,0.07,-0.14,0.0,b
1680.0,4095.0,974.0,3419.0,4095.0,4095.0,4095.0,4095.0,1.18,9.11,7.96,0.1,0.24,-0.1,0.0,b
1659.0,4095.0,989.0,3413.0,4095.0,4095.0,4095.0,4095.0,1.01,9.43,7.18,0.22,1.53,0.14,0.0,b
1683.0,4095.0,1232.0,3419.0,4095.0,4095.0,4095.0,4095.0,0.71,9.28,7.22,-0.09,1.72,0.33,0.0,b
1725.0,4095.0,1335.0,3418.0,4095.0,4095.0,4095.0,4095.0,0.64,9.02,7.71,-0.05,1.14,0.12,0.0,b
1774.0,4095.0,1392.0,3411.0,4095.0,4095.0,4095.0,4095.0,0.1,9.07,8.22,-0.14,0.47,-0.03,0.0,b
1791.0,4095.0,1378.0,3417.0,4095.0,4095.0,4095.0,4095.0,0.05,9.01,8.8,-0.04,-0.22,-0.2,0.0,b
1807.0,4095.0,1136.0,3419.0,4095.0,4095.0,4095.0,4095.0,-0.09,8.81,8.93,0.06,-1.47,-0.42,0.0,b
1830.0,4095.0,970.0,3413.0,4095.0,4095.0,4095.0,4095.0,1.02,9.05,8.65,0.25,-2.12,-0.61,0.0,b
1839.0,4095.0,977.0,3413.0,4095.0,4095.0,4095.0,4095.0,0.93,9.25,7.83,0.31,-1.47,-0.54,0.0,b
1851.0,4095.0,961.0,3411.0,4095.0,4095.0,4095.0,4095.0,1.15,9.3,6.93,0.26,-0.77,-0.37,0.0,b
1819.0,4095.0,972.0,3415.0,4095.0,4095.0,4095.0,4095.0,0.95,9.48,6.77,0.04,-0.09,-0.19,0.0,b
1804.0,4095.0,962.0,3406.0,4095.0,4095.0,4095.0,4095.0,0.74,9.33,7.37,-0.07,0.16,-0.06,0.0,b
1808.0,4095.0,973.0,3415.0,4095.0,4095.0,4095.0,4095.0,1.07,9.17,7.75,-0.02,-0.0,-0.08,0.0,b
1814.0,4095.0,963.0,3411.0,4095.0,4095.0,4095.0,4095.0,1.3,9.27,7.77,0.03,-0.02,-0.11,0.0,b
1815.0,4095.0,973.0,3408.0,4095.0,4095.0,4095.0,4095.0,1.15,9.26,7.53,0.05,0.02,-0.15,0.0,b
1593.0,4095.0,989.0,3423.0,4095.0,4095.0,4095.0,4095.0,0.68,8.83,8.39,-0.14,-0.32,-0.15,0.0,b
1621.0,4095.0,980.0,3417.0,4095.0,4095.0,4095.0,4095.0,0.76,9.01,8.58,0.0,-0.9,-0.33,0.0,b
1619.0,4095.0,991.0,3418.0,4095.0,4095.0,4095.0,4095.0,1.15,9.05,8.26,0.08,-1.29,-0.43,0.0,b
1619.0,4095.0,1005.0,3423.0,4095.0,4095.0,4095.0,4095.0,1.4,9.16,7.64,0.16,-0.61,-0.41,0.0,b
1599.0,4095.0,1005.0,3419.0,4095.0,4095.0,4095.0,4095.0,0.86,9.34,7.44,0.06,-0.01,-0.18,0.0,b
1535.0,4095.0,989.0,3408.0,4095.0,4095.0,4095.0,4095.0,0.64,9.2,7.76,0.0,-0.09,-0.16,0.0,b
1335.0,4095.0,965.0,3391.0,4095.0,4095.0,4095.0,4095.0,0.95,9.3,7.78,0.06,0.21,-0.05,0.0,b
1328.0,4095.0,963.0,3397.0,4095.0,4095.0,4095.0,4095.0,0.92,9.11,8.18,-0.02,0.23,0.0,0.0,b
1395.0,4095.0,991.0,3392.0,4095.0,4085.0,4095.0,4095.0,1.22,9.09,7.85,0.12,0.08,-0.17,0.0,b
1424.0,4095.0,991.0,3392.0,4095.0,3893.0,4095.0,4095.0,1.02,9.17,7.72,0.09,-0.01,-0.16,0.0,b
1437.0,4095.0,1007.0,3393.0,4095.0,3809.0,4095.0,4095.0,0.87,9.25,7.74,0.08,-0.03,-0.21,0.0,b
1463.0,4095.0,1002.0,3392.0,4095.0,3726.0,4095.0,4095.0,0.98,9.12,7.8,0.1,0.01,-0.16,0.0,b
1424.0,4095.0,1015.0,3390.0,4095.0,3632.0,4095.0,4095.0,0.81,9.27,7.86,0.05,0.1,-0.13,0.0,b
1387.0,4095.0,1296.0,3388.0,4095.0,3547.0,4095.0,4095.0,0.93,9.15,7.72,0.06,-0.02,-0.16,0.0,b
1296.0,4095.0,1331.0,3390.0,4095.0,3456.0,4095.0,4095.0,0.87,9.25,7.9,0.09,0.05,-0.18,0.0,b
1168.0,4095.0,1317.0,3392.0,4095.0,3405.0,4095.0,4095.0,0.91,9.25,7.67,0.06,0.03,-0.16,0.0,b
1088.0,4095.0,1375.0,3386.0,4095.0,3341.0,4095.0,4095.0,1.02,9.18,7.57,0.07,0.03,-0.19,0.0,b
1072.0,4095.0,1411.0,3383.0,4095.0,3308.0,4095.0,4095.0,0.92,9.28,7.58,0.07,0.04,-0.15,0.0,b
1041.0,4095.0,1415.0,3396.0,4095.0,3312.0,4095.0,4095.0,0.83,9.36,7.3,-0.06,-0.06,-0.21,0.0,b
1053.0,4095.0,1360.0,3393.0,4095.0,3332.0,4095.0,4095.0,0.98,9.23,7.47,0.03,-0.0,-0.17,0.0,b
2758.0,4095.0,1057.0,3483.0,4095.0,4095.0,4095.0,4095.0,0.63,9.22,7.69,0.01,-0.91,-0.31,0.0,b
2743.0,4095.0,1022.0,3487.0,4095.0,4095.0,4095.0,4095.0,1.23,9.13,7.73,0.05,-1.05,-0.39,0.0,b
2722.0,4095.0,1015.0,3484.0,4095.0,4095.0,4095.0,4095.0,1.37,9.28,7.58,0.08,-0.8,-0.29,0.0,b
2716.0,4095.0,1008.0,3483.0,4095.0,4095.0,4095.0,4095.0,1.44,9.29,7.41,0.06,-0.55,-0.26,0.0,b
2687.0,4095.0,1003.0,3478.0,4095.0,4095.0,4095.0,4095.0,1.43,9.28,7.38,-0.02,-0.16,-0.21,0.0,b
2643.0,4095.0,1005.0,3481.0,4095.0,4095.0,4095.0,4095.0,1.26,9.28,7.6,-0.02,0.2,-0.09,0.0,b
2597.0,4095.0,997.0,3473.0,4095.0,4095.0,4095.0,4095.0,1.29,9.27,7.52,-0.01,0.58,0.01,0.0,b
2557.0,4095.0,1003.0,3472.0,4095.0,4095.0,4095.0,4095.0,1.09,9.28,7.21,0.05,0.93,0.13,0.0,b
2538.0,4095.0,1008.0,3469.0,4095.0,4095.0,4095.0,4095.0,1.14,9.23,7.59,-0.07,0.87,0.12,0.0,b
2512.0,4095.0,1005.0,3466.0,4095.0,4095.0,4095.0,4095.0,1.01,9.14,7.87,-0.07,0.83,0.09,0.0,b
2480.0,4095.0,994.0,3463.0,4095.0,4095.0,4095.0,4095.0,1.17,9.09,7.93,-0.06,0.56,0.02,0.0,b
2491.0,4095.0,1014.0,3463.0,4095.0,4095.0,4095.0,4095.0,1.02,9.24,7.95,-0.19,0.45,-0.05,0.0,b
2517.0,4095.0,1038.0,3458.0,4095.0,4095.0,4095.0,4095.0,0.94,8.96,8.28,-0.12,0.2,-0.13,0.0,b
2503.0,4095.0,1049.0,3463.0,4095.0,4095.0,4095.0,4095.0,0.93,9.02,8.26,-0.06,0.09,-0.13,0.0,b
2506.0,4095.0,1087.0,3472.0,4095.0,4095.0,4095.0,4095.0,0.9,9.09,8.03,-0.06,0.55,-0.01,0.0,b
2497.0,4095.0,1086.0,3475.0,4095.0,4095.0,4095.0,4095.0,0.71,9.07,8.12,-0.12,0.65,0.08,0.0,b
2485.0,4095.0,1072.0,3475.0,4095.0,4095.0,4095.0,4095.0,1.08,8.79,8.37,-0.13,0.52,0.09,0.0,b
2500.0,4095.0,1069.0,3486.0,4095.0,4095.0,4095.0,4095.0,0.86,8.97,8.45,-0.13,0.62,0.06,0.0,b
2507.0,4095.0,1094.0,3478.0,4095.0,4095.0,4095.0,4095.0,1.16,8.8,8.31,-0.15,0.55,0.05,0.0,b
2525.0,4095.0,1212.0,3486.0,4095.0,4095.0,4095.0,4095.0,0.35,9.0,8.45,-0.07,0.92,0.12,0.0,b
2251.0,4095.0,1077.0,3472.0,4095.0,4095.0,4095.0,4095.0,1.62,8.97,8.14,0.08,-0.46,-0.22,0.0,b
2251.0,4095.0,1077.0,3472.0,4095.0,4095.0,4095.0,4095.0,1.62,8.97,8.14,0.08,-0.46,-0.22,0.0,b
2223.0,4095.0,1089.0,3467.0,4095.0,4095.0,4095.0,4095.0,1.68,9.0,8.05,0.12,-0.46,-0.24,0.0,b
2205.0,4095.0,1074.0,3471.0,4095.0,4095.0,4095.0,4095.0,1.89,9.17,7.77,0.08,-0.25,-0.26,0.0,b
2223.0,4095.0,1086.0,3473.0,4095.0,4095.0,4095.0,4095.0,1.72,9.07,7.74,0.05,-0.07,-0.2,0.0,b
2221.0,4095.0,1086.0,3486.0,4095.0,4095.0,4095.0,4095.0,1.56,9.05,7.9,0.07,0.04,-0.18,0.0,b
2256.0,4095.0,1321.0,3482.0,4095.0,4095.0,4095.0,4095.0,1.66,9.04,7.77,0.16,0.25,-0.1,0.0,b
2241.0,4095.0,1558.0,3479.0,4095.0,4095.0,4095.0,4095.0,1.99,9.25,7.5,0.17,0.8,0.03,0.0,b
2234.0,4095.0,1703.0,3472.0,4095.0,4095.0,4095.0,4095.0,1.0,9.29,7.47,0.19,1.88,0.31,0.0,b
2224.0,4095.0,1761.0,3483.0,4095.0,4095.0,4095.0,4095.0,0.89,9.34,7.35,0.01,1.24,0.22,0.0,b
2208.0,4095.0,1739.0,3483.0,4095.0,4095.0,4095.0,4095.0,1.05,9.07,7.91,-0.09,0.14,-0.06,0.0,b
2207.0,4095.0,1655.0,3481.0,4095.0,4095.0,4095.0,4095.0,1.3,8.99,8.21,-0.14,-0.51,-0.23,0.0,b
2187.0,4095.0,1573.0,3473.0,4095.0,4095.0,4095.0,4095.0,1.7,8.97,8.27,-0.02,-0.45,-0.27,0.0,b
2185.0,4095.0,1520.0,3474.0,4095.0,4095.0,4095.0,4095.0,1.48,9.03,8.09,0.1,-0.07,-0.19,0.0,b
2179.0,4095.0,1488.0,3475.0,4095.0,4095.0,4095.0,4095.0,1.13,9.11,7.92,0.18,-0.09,-0.15,0.0,b
2173.0,4095.0,1471.0,3479.0,4095.0,4095.0,4095.0,4095.0,1.4,9.22,7.81,0.09,-0.11,-0.16,0.0,b
2159.0,4095.0,1488.0,3482.0,4095.0,4095.0,4095.0,4095.0,1.47,9.08,7.84,0.03,0.01,-0.11,0.0,b
2160.0,4095.0,1509.0,3481.0,4095.0,4095.0,4095.0,4095.0,1.64,9.16,7.78,0.07,0.03,-0.11,0.0,b
2160.0,4095.0,1499.0,3473.0,4095.0,4095.0,4095.0,4095.0,1.58,9.14,7.6,0.04,-0.01,-0.14,0.0,b
2132.0,4095.0,1515.0,3482.0,4095.0,4095.0,4095.0,4095.0,1.43,9.17,7.6,0.04,-0.02,-0.17,0.0,b
2019.0,4095.0,1347.0,3488.0,4095.0,4095.0,4095.0,4095.0,1.21,9.05,7.76,0.01,0.0,-0.14,0.0,b
2004.0,4095.0,1359.0,3487.0,4095.0,4095.0,4095.0,4095.0,1.33,9.12,7.71,0.01,0.04,-0.1,0.0,b
1995.0,4095.0,1362.0,3482.0,4095.0,4095.0,4095.0,4095.0,1.67,9.18,7.68,-0.02,0.06,-0.06,0.0,b
1999.0,4095.0,1349.0,3486.0,4095.0,4095.0,4095.0,4095.0,1.9,9.13,7.8,0.01,0.05,-0.11,0.0,b
2007.0,4095.0,1450.0,3486.0,4095.0,4095.0,4095.0,4095.0,3.19,9.21,6.79,-0.03,1.12,0.07,0.0,b
1891.0,4095.0,1987.0,3487.0,4095.0,4095.0,4095.0,4095.0,0.43,9.43,7.54,0.03,2.84,0.48,0.0,b
1721.0,4095.0,2279.0,3482.0,4095.0,4095.0,4095.0,4095.0,0.51,8.88,8.53,-0.19,1.73,0.33,0.0,b
1425.0,4095.0,2810.0,3475.0,4095.0,4095.0,4095.0,4095.0,1.28,8.73,8.77,0.03,0.3,-0.29,0.0,b
1154.0,4095.0,2506.0,3475.0,4095.0,4095.0,4095.0,4095.0,1.34,8.93,8.55,-0.07,-0.3,-0.37,0.0,b
1072.0,4095.0,2175.0,3457.0,4095.0,4095.0,4095.0,4095.0,0.96,9.09,8.42,0.26,-0.16,-0.4,0.0,b
990.0,4095.0,1952.0,3424.0,4095.0,4095.0,4095.0,4095.0,0.2,9.22,8.53,0.47,0.2,-0.43,0.0,b
960.0,4095.0,1635.0,3391.0,4095.0,4095.0,4095.0,4095.0,-0.01,9.3,8.11,0.29,-1.09,-0.63,0.0,b
973.0,4095.0,1168.0,3366.0,4095.0,4095.0,4095.0,4095.0,0.91,9.32,7.06,0.21,-0.21,-0.39,0.0,b
972.0,4095.0,1075.0,3366.0,4095.0,3955.0,4095.0,4095.0,0.49,9.53,7.34,0.11,-0.16,-0.22,0.0,b
978.0,4095.0,1008.0,3354.0,4095.0,3803.0,4095.0,4095.0,0.59,9.32,7.21,0.04,-0.18,-0.19,0.0,b
971.0,4095.0,995.0,3344.0,4095.0,3746.0,4095.0,4095.0,0.43,9.4,7.58,0.06,-0.15,-0.29,0.0,b
987.0,4095.0,966.0,3339.0,4095.0,3709.0,4095.0,4095.0,0.44,9.37,7.58,0.05,-0.23,-0.24,0.0,b
978.0,4095.0,965.0,3329.0,4095.0,3645.0,4095.0,4095.0,0.31,9.4,7.33,0.0,-0.16,-0.21,0.0,b
976.0,4095.0,962.0,3342.0,4095.0,3637.0,4095.0,4095.0,0.15,9.33,7.47,0.0,-0.12,-0.14,0.0,b
976.0,4095.0,967.0,3333.0,4095.0,3583.0,4095.0,4095.0,0.56,9.34,7.52,0.02,-0.29,-0.14,0.0,b
2608.0,4095.0,988.0,3453.0,4095.0,4095.0,4095.0,4095.0,0.4,8.89,8.42,-0.19,0.13,-0.07,0.0,b
2653.0,4095.0,976.0,3461.0,4095.0,4095.0,4095.0,4095.0,0.6,8.93,8.58,-0.14,0.1,-0.06,0.0,b
2688.0,4095.0,976.0,3462.0,4095.0,4095.0,4095.0,4095.0,0.83,8.93,8.56,-0.01,0.06,-0.1,0.0,b
2631.0,4095.0,972.0,3469.0,4095.0,4095.0,4095.0,4095.0,0.96,9.01,8.36,-0.01,0.01,-0.16,0.0,b
2544.0,4095.0,975.0,3468.0,4095.0,4095.0,4095.0,4095.0,0.81,9.0,8.4,0.04,-0.0,-0.2,0.0,b
2083.0,4095.0,976.0,3476.0,4095.0,4095.0,4095.0,4095.0,0.64,8.92,8.22,-0.06,0.01,-0.18,0.0,b
1819.0,4095.0,976.0,3479.0,4095.0,4095.0,4095.0,4095.0,0.54,8.92,8.35,0.01,-0.08,-0.21,0.0,b
1793.0,4095.0,969.0,3481.0,4095.0,4095.0,4095.0,4095.0,0.45,8.96,8.47,0.03,-0.02,-0.17,0.0,b
2085.0,4095.0,967.0,3479.0,4095.0,4095.0,4095.0,4095.0,0.65,8.94,8.54,0.09,0.02,-0.19,0.0,b
2378.0,4095.0,963.0,3482.0,4095.0,4095.0,4095.0,4095.0,0.57,8.89,8.56,0.15,-0.04,-0.27,0.0,b
2483.0,4095.0,970.0,3479.0,4095.0,4095.0,4095.0,4095.0,0.6,8.75,8.63,0.22,-0.13,-0.44,0.0,b
2543.0,4095.0,975.0,3488.0,4095.0,4095.0,4095.0,4095.0,0.66,9.28,7.64,0.2,-0.14,-0.43,0.0,b
2559.0,4095.0,990.0,3491.0,4095.0,4095.0,4095.0,4095.0,0.41,9.21,7.92,0.09,-0.07,-0.3,0.0,b
2589.0,4095.0,993.0,3490.0,4095.0,4095.0,4095.0,4095.0,0.08,8.97,8.42,0.17,-0.15,-0.43,0.0,b
2605.0,4095.0,975.0,3495.0,4095.0,4095.0,4095.0,4095.0,-0.03,9.07,8.23,0.16,-0.5,-0.44,0.0,b
2594.0,4095.0,972.0,3502.0,4095.0,4095.0,4095.0,4095.0,0.12,9.19,7.76,0.13,-0.49,-0.31,0.0,b
2580.0,4095.0,976.0,3500.0,4095.0,4095.0,4095.0,4095.0,-0.4,9.16,7.91,0.1,-0.49,-0.17,0.0,b
2586.0,4095.0,976.0,3495.0,4095.0,4095.0,4095.0,4095.0,0.46,9.1,8.07,-0.04,-1.61,-0.39,0.0,b
2557.0,4095.0,974.0,3504.0,4095.0,4095.0,4095.0,4095.0,0.7,9.17,7.92,0.09,-1.51,-0.44,0.0,b
2559.0,4095.0,960.0,3491.0,4095.0,4095.0,4095.0,4095.0,0.57,9.32,7.41,0.08,-0.89,-0.34,0.0,b
2523.0,4095.0,978.0,3392.0,4095.0,4095.0,4095.0,4095.0,0.99,9.4,7.8,0.03,0.59,-0.04,0.0,b
2482.0,4095.0,994.0,3407.0,4095.0,4095.0,4095.0,4095.0,0.57,9.14,7.78,0.02,0.85,0.08,0.0,b
2450.0,4095.0,998.0,3415.0,4095.0,4095.0,4095.0,4095.0,0.52,9.05,7.92,-0.04,0.5,0.04,0.0,b
2426.0,4095.0,994.0,3429.0,4095.0,4095.0,4095.0,4095.0,0.86,9.11,8.02,-0.01,-0.03,-0.1,0.0,b
2410.0,4095.0,989.0,3440.0,4095.0,4095.0,4095.0,4095.0,0.92,9.09,8.17,-0.0,-0.2,-0.2,0.0,b
2383.0,4095.0,1002.0,3453.0,4095.0,4095.0,4095.0,4095.0,0.99,9.0,8.05,0.05,-0.07,-0.2,0.0,b
2347.0,4095.0,990.0,3458.0,4095.0,4095.0,4095.0,4095.0,0.6,9.08,8.0,0.04,-0.04,-0.19,0.0,b
2323.0,4095.0,987.0,3451.0,4095.0,4095.0,4095.0,4095.0,0.56,9.11,8.0,0.01,0.03,-0.15,0.0,b
2317.0,4095.0,997.0,3459.0,4095.0,4095.0,4095.0,4095.0,0.57,9.09,8.2,0.05,-0.17,-0.15,0.0,b
2288.0,4095.0,997.0,3463.0,4095.0,4095.0,4095.0,4095.0,0.95,9.09,8.0,0.12,-0.27,-0.17,0.0,b
2247.0,4095.0,998.0,3465.0,4095.0,4095.0,4095.0,4095.0,1.11,9.6,7.06,0.02,-0.18,-0.06,0.0,b
2218.0,4095.0,1006.0,3470.0,4095.0,4095.0,4095.0,4095.0,0.91,9.14,7.81,0.04,-0.06,-0.16,0.0,b
2205.0,4095.0,997.0,3467.0,4095.0,4095.0,4095.0,4095.0,0.75,9.11,7.87,0.05,-0.17,-0.21,0.0,b
2186.0,4095.0,1006.0,3456.0,4095.0,4095.0,4095.0,4095.0,0.91,9.14,7.82,0.04,-0.2,-0.17,0.0,b
2165.0,4095.0,1001.0,3465.0,4095.0,4095.0,4095.0,4095.0,0.93,9.26,7.74,0.03,-0.05,-0.14,0.0,b
2159.0,4095.0,1008.0,3465.0,4095.0,4095.0,4095.0,4095.0,1.0,9.19,7.88,0.01,0.03,-0.1,0.0,b
2161.0,4095.0,1002.0,3460.0,4095.0,4095.0,4095.0,4095.0,0.99,9.14,7.87,0.04,-0.04,-0.14,0.0,b
2140.0,4095.0,1004.0,3458.0,4095.0,4095.0,4095.0,4095.0,1.17,9.29,7.65,0.05,-0.08,-0.16,0.0,b
2131.0,4095.0,1018.0,3459.0,4095.0,4095.0,4095.0,4095.0,0.95,9.16,7.8,0.0,0.03,-0.14,0.0,b
2129.0,4095.0,1008.0,3460.0,4095.0,4095.0,4095.0,4095.0,0.93,9.16,7.84,0.02,0.02,-0.15,0.0,b
2091.0,4095.0,1040.0,3459.0,4095.0,4095.0,4095.0,4095.0,1.13,9.23,7.91,0.03,0.03,-0.12,0.0,b
2074.0,4095.0,1041.0,3459.0,4095.0,4095.0,4095.0,4095.0,1.05,9.12,7.88,0.05,0.01,-0.12,0.0,b
2068.0,4095.0,1044.0,3462.0,4095.0,4095.0,4095.0,4095.0,1.21,9.07,7.67,0.04,-0.01,-0.12,0.0,b
2057.0,4095.0,1040.0,3465.0,4095.0,4095.0,4095.0,4095.0,1.23,9.28,7.61,-0.0,-0.07,-0.17,0.0,b
2067.0,4095.0,1055.0,3466.0,4095.0,4095.0,4095.0,4095.0,1.06,9.12,7.81,-0.02,0.0,-0.17,0.0,b
2073.0,4095.0,1074.0,3466.0,4095.0,4095.0,4095.0,4095.0,0.92,9.2,7.9,0.05,-0.08,-0.24,0.0,b
2078.0,4095.0,1057.0,3459.0,4095.0,4095.0,4095.0,4095.0,0.97,9.12,7.91,-0.01,-0.09,-0.17,0.0,b
2096.0,4095.0,1062.0,3459.0,4095.0,4095.0,4095.0,4095.0,1.02,9.19,7.85,0.1,-0.07,-0.19,0.0,b
2093.0,4095.0,1071.0,3444.0,4095.0,4095.0,4095.0,4095.0,1.28,9.23,7.65,0.02,-0.04,-0.15,0.0,b
2103.0,4095.0,1092.0,3439.0,4095.0,4095.0,4095.0,4095.0,1.04,9.22,7.78,0.04,-0.01,-0.18,0.0,b
2069.0,4095.0,1086.0,3398.0,4095.0,4095.0,4095.0,4095.0,0.93,9.15,7.93,0.04,0.01,-0.15,0.0,b
2067.0,4095.0,1104.0,3398.0,4095.0,4095.0,4095.0,4095.0,1.05,9.1,7.79,0.1,-0.01,-0.12,0.0,b
2057.0,4095.0,1162.0,3395.0,4095.0,4095.0,4095.0,4095.0,1.05,9.16,7.58,0.06,0.07,-0.15,0.0,b
2040.0,4095.0,1209.0,3394.0,4095.0,4095.0,4095.0,4095.0,0.97,9.35,7.6,0.1,0.12,-0.15,0.0,b
2043.0,4095.0,1216.0,3391.0,4095.0,4095.0,4095.0,4095.0,1.02,9.23,7.55,0.11,0.16,-0.13,0.0,b
2070.0,4095.0,1181.0,3398.0,4095.0,4095.0,4095.0,4095.0,1.14,9.4,7.53,-0.02,0.18,-0.15,0.0,b
1978.0,4095.0,1280.0,3380.0,4095.0,4095.0,4095.0,4095.0,0.81,9.28,7.63,-0.1,0.13,-0.01,0.0,b
1962.0,4095.0,1565.0,3371.0,4095.0,4095.0,4095.0,4095.0,0.9,9.41,7.08,-0.2,-0.01,0.1,0.0,b
1744.0,4095.0,2306.0,3342.0,4095.0,3973.0,4095.0,4095.0,1.83,9.0,7.47,-0.03,-0.07,-0.0,0.0,b
1821.0,4095.0,2974.0,3334.0,4095.0,3626.0,4095.0,4095.0,1.57,9.22,7.65,-0.11,-0.14,-0.13,0.0,b
2078.0,4095.0,1474.0,3463.0,4095.0,4095.0,4095.0,4095.0,1.06,9.15,7.81,-0.03,0.09,-0.12,0.0,b
2057.0,4095.0,1390.0,3475.0,4095.0,4095.0,4095.0,4095.0,1.05,9.18,7.79,-0.05,0.05,-0.13,0.0,b
2021.0,4095.0,1227.0,3504.0,4095.0,4095.0,4095.0,4095.0,1.13,9.1,7.86,-0.05,0.26,-0.17,0.0,b
1893.0,4095.0,1072.0,3539.0,4095.0,4095.0,4095.0,4095.0,1.14,9.12,7.85,0.04,0.28,-0.18,0.0,b
1757.0,4095.0,1015.0,3578.0,4095.0,4095.0,4095.0,4095.0,1.0,9.14,7.69,0.04,0.5,-0.16,0.0,b
1648.0,4095.0,1008.0,3603.0,4095.0,4095.0,4095.0,4095.0,0.45,9.22,7.81,0.04,0.68,-0.12,0.0,b
1613.0,4095.0,988.0,3628.0,4095.0,4095.0,4095.0,4095.0,0.71,8.94,7.91,0.06,0.38,-0.21,0.0,b
1594.0,4095.0,987.0,3637.0,4095.0,4095.0,4095.0,4095.0,0.49,9.2,7.93,0.17,0.43,-0.32,0.0,b
1593.0,4095.0,989.0,3634.0,4095.0,4095.0,4095.0,4095.0,0.27,9.17,8.11,0.17,0.37,-0.28,0.0,b
1600.0,4095.0,975.0,3632.0,4095.0,4095.0,4095.0,4095.0,0.42,9.28,7.84,0.12,0.04,-0.35,0.0,b
1535.0,4095.0,982.0,3631.0,4095.0,4095.0,4095.0,4095.0,-0.01,9.3,7.65,0.05,0.06,-0.28,0.0,b
1427.0,4095.0,1011.0,3546.0,4095.0,4095.0,4095.0,4095.0,-0.11,9.28,7.76,0.0,-0.05,-0.1,0.0,b
1215.0,4095.0,997.0,3440.0,4095.0,4095.0,4095.0,4095.0,-0.15,9.09,8.03,0.22,-0.1,-0.03,0.0,b
1009.0,4095.0,1077.0,3390.0,4095.0,4095.0,4095.0,4095.0,0.35,9.33,7.72,0.18,0.14,-0.05,0.0,b
1002.0,4095.0,1194.0,3362.0,4095.0,4095.0,4095.0,4095.0,0.51,9.34,7.51,0.11,0.21,-0.1,0.0,b
989.0,4095.0,1284.0,3309.0,4095.0,4095.0,4095.0,4095.0,0.31,9.32,7.42,0.13,-0.0,-0.19,0.0,b
980.0,4095.0,1274.0,3283.0,4095.0,4095.0,4095.0,4095.0,0.28,9.39,7.33,0.09,-0.04,-0.21,0.0,b
958.0,4095.0,1252.0,3242.0,4095.0,4095.0,4095.0,4095.0,0.09,9.38,7.36,0.1,-0.03,-0.17,0.0,b
963.0,4095.0,1365.0,3221.0,4095.0,4095.0,4095.0,4095.0,0.11,9.32,7.3,0.04,-0.07,-0.16,0.0,b
963.0,4095.0,1425.0,3231.0,4095.0,4095.0,4095.0,4095.0,0.46,9.41,7.39,-0.01,0.0,-0.16,0.0,b
2224.0,4095.0,2665.0,3465.0,4095.0,4095.0,4095.0,4095.0,0.58,9.23,7.75,0.02,-0.03,-0.14,0.0,b
2206.0,4095.0,2657.0,3469.0,4095.0,4095.0,4095.0,4095.0,0.63,9.18,7.82,-0.0,0.07,-0.09,0.0,b
2197.0,4095.0,2645.0,3459.0,4095.0,4095.0,4095.0,4095.0,0.62,9.17,7.83,0.05,-0.02,-0.14,0.0,b
2190.0,4095.0,2649.0,3455.0,4095.0,4095.0,4095.0,4095.0,0.63,9.19,7.7,-0.0,0.06,-0.16,0.0,b
2182.0,4095.0,2649.0,3461.0,4095.0,4095.0,4095.0,4095.0,0.68,9.23,7.65,-0.0,0.01,-0.17,0.0,b
2179.0,4095.0,2640.0,3463.0,4095.0,4095.0,4095.0,4095.0,0.46,9.21,7.81,0.02,0.03,-0.15,0.0,b
2186.0,4095.0,2635.0,3471.0,4095.0,4095.0,4095.0,4095.0,0.6,9.2,7.81,0.02,-0.08,-0.17,0.0,b
2182.0,4095.0,2641.0,3470.0,4095.0,4095.0,4095.0,4095.0,0.62,9.23,7.83,0.02,0.04,-0.14,0.0,b
2176.0,4095.0,2635.0,3464.0,4095.0,4095.0,4095.0,4095.0,0.55,9.16,7.81,0.03,-0.02,-0.14,0.0,b
2167.0,4095.0,2639.0,3465.0,4095.0,4095.0,4095.0,4095.0,0.55,9.24,7.76,0.02,-0.03,-0.15,0.0,b
2173.0,4095.0,2635.0,3467.0,4095.0,4095.0,4095.0,4095.0,0.52,9.22,7.82,0.02,0.05,-0.15,0.0,b
2160.0,4095.0,2630.0,3469.0,4095.0,4095.0,4095.0,4095.0,0.56,9.22,7.78,0.02,-0.01,-0.15,0.0,b
2133.0,4095.0,2623.0,3463.0,4095.0,4095.0,4095.0,4095.0,0.58,9.21,7.75,0.02,0.02,-0.15,0.0,b
2112.0,4095.0,2624.0,3470.0,4095.0,4095.0,4095.0,4095.0,0.51,9.19,7.79,0.03,-0.05,-0.17,0.0,b
2093.0,4095.0,2622.0,3472.0,4095.0,4095.0,4095.0,4095.0,0.64,9.24,7.67,0.01,0.02,-0.15,0.0,b
2091.0,4095.0,2611.0,3470.0,4095.0,4095.0,4095.0,4095.0,0.54,9.25,7.72,-0.01,0.0,-0.14,0.0,b
2076.0,4095.0,2613.0,3476.0,4095.0,4095.0,4095.0,4095.0,0.51,9.18,7.9,-0.0,-0.02,-0.14,0.0,b
2064.0,4095.0,2620.0,3469.0,4095.0,4095.0,4095.0,4095.0,0.78,9.17,7.84,0.02,-0.02,-0.14,0.0,b
2068.0,4095.0,2607.0,3466.0,4095.0,4095.0,4095.0,4095.0,0.56,9.26,7.68,0.03,0.03,-0.15,0.0,b
2063.0,4095.0,2601.0,3461.0,4095.0,4095.0,4095.0,4095.0,0.55,9.2,7.81,-0.03,-0.08,-0.17,0.0,b
