hall_1,hall_2,hall_3,flex_t,flex_i,flex_m,flex_r,flex_p,accel_x,accel_y,accel_z,gyro_x,gyro_y,gyro_z,hand,sign
1361.0,946.0,3123.0,3403.0,4095.0,4095.0,4095.0,4095.0,-1.01,9.72,5.48,0.03,0.07,-0.16,0.0,b
1377.0,960.0,3115.0,3398.0,4095.0,4095.0,4095.0,4095.0,-0.76,9.74,5.59,0.05,-0.02,-0.16,0.0,b
1339.0,958.0,3123.0,3407.0,4095.0,4095.0,4095.0,4095.0,-0.79,9.68,5.65,-0.0,-0.07,-0.13,0.0,b
1321.0,967.0,3121.0,3399.0,4095.0,4095.0,4095.0,4095.0,-0.62,9.79,5.65,0.02,0.03,-0.15,0.0,b
1516.0,953.0,3127.0,3390.0,4095.0,4095.0,4095.0,4095.0,-0.61,9.67,5.7,0.03,-0.03,-0.17,0.0,b
1929.0,972.0,3043.0,3387.0,4095.0,4095.0,4095.0,4095.0,-0.76,9.69,5.64,0.0,0.07,-0.17,0.0,b
2288.0,971.0,2912.0,3377.0,4095.0,4095.0,4095.0,4095.0,-0.95,9.73,5.63,0.0,0.05,-0.15,0.0,b
2526.0,1104.0,2910.0,3383.0,4095.0,4095.0,4095.0,4095.0,-0.87,9.75,5.68,-0.02,-0.01,-0.14,0.0,b
2582.0,1246.0,2912.0,3373.0,4095.0,4095.0,4095.0,4095.0,-0.91,9.69,5.55,-0.02,-0.02,-0.13,0.0,b
2589.0,973.0,2905.0,3379.0,4095.0,4095.0,4095.0,4095.0,-0.63,9.74,5.78,0.01,-0.02,-0.15,0.0,b
2559.0,966.0,2902.0,3366.0,4095.0,4095.0,4095.0,4095.0,-0.62,9.71,5.7,0.01,0.01,-0.14,0.0,b
2583.0,960.0,2931.0,3373.0,4095.0,4095.0,4095.0,4095.0,-0.69,9.77,5.73,0.03,0.01,-0.14,0.0,b
2637.0,959.0,3057.0,3382.0,4095.0,4095.0,4095.0,4095.0,-0.75,9.71,5.76,0.03,0.04,-0.14,0.0,b
2635.0,964.0,3136.0,3398.0,4095.0,4095.0,4095.0,4095.0,-0.74,9.57,5.76,0.01,-0.04,-0.16,0.0,b
2603.0,964.0,3120.0,3391.0,4095.0,4095.0,4095.0,4095.0,-0.84,9.66,5.6,-0.01,-0.02,-0.15,0.0,b
2598.0,960.0,3120.0,3375.0,4095.0,4095.0,4095.0,4095.0,-0.71,9.76,5.71,0.02,0.01,-0.15,0.0,b
2595.0,957.0,3120.0,3394.0,4095.0,4095.0,4095.0,4095.0,-0.74,9.68,5.72,-0.01,-0.02,-0.13,0.0,b
2617.0,954.0,3120.0,3378.0,4095.0,4095.0,4095.0,4095.0,-0.68,9.7,5.71,0.03,-0.02,-0.15,0.0,b
2579.0,955.0,3129.0,3376.0,4095.0,4095.0,4095.0,4095.0,-0.71,9.7,5.68,0.03,-0.0,-0.17,0.0,b
2559.0,957.0,3120.0,3376.0,4095.0,4095.0,4095.0,4095.0,-0.71,9.73,5.68,-0.0,-0.03,-0.15,0.0,b
2298.0,973.0,3030.0,3391.0,4095.0,4095.0,4095.0,4095.0,-1.13,9.76,5.64,-0.0,-0.06,-0.16,0.0,b
2337.0,971.0,3033.0,3408.0,4095.0,4095.0,4095.0,4095.0,-1.07,9.69,5.86,0.0,-0.02,-0.12,0.0,b
2314.0,979.0,3026.0,3408.0,4095.0,4095.0,4095.0,4095.0,-0.81,9.69,5.88,0.04,-0.05,-0.14,0.0,b
2308.0,965.0,3020.0,3403.0,4095.0,4095.0,4095.0,4095.0,-0.99,9.71,5.65,0.04,0.08,-0.13,0.0,b
2387.0,973.0,3039.0,3401.0,4095.0,4095.0,4095.0,4095.0,-0.94,9.76,5.48,0.03,-0.0,-0.13,0.0,b
2369.0,973.0,3021.0,3402.0,4095.0,4095.0,4095.0,4095.0,-0.87,9.75,5.46,-0.02,0.0,-0.13,0.0,b
2366.0,980.0,3030.0,3409.0,4095.0,4095.0,4095.0,4095.0,-0.87,9.69,5.75,0.0,0.02,-0.13,0.0,b
2321.0,977.0,3023.0,3399.0,4095.0,4095.0,4095.0,4095.0,-0.85,9.66,5.75,-0.02,-0.02,-0.15,0.0,b
2320.0,976.0,3024.0,3408.0,4095.0,4095.0,4095.0,4095.0,-0.89,9.69,5.81,0.01,0.04,-0.14,0.0,b
2298.0,979.0,3024.0,3420.0,4095.0,4095.0,4095.0,4095.0,-0.73,9.71,5.8,0.01,-0.02,-0.17,0.0,b
2306.0,976.0,3035.0,3408.0,4095.0,4095.0,4095.0,4095.0,-0.88,9.63,5.63,-0.04,0.09,-0.14,0.0,b
2325.0,979.0,3038.0,3422.0,4095.0,4095.0,4095.0,4095.0,-0.95,9.67,5.83,-0.03,0.04,-0.14,0.0,b
2384.0,974.0,3033.0,3424.0,4095.0,4095.0,4095.0,4095.0,-0.86,9.71,5.81,-0.01,-0.02,-0.15,0.0,b
2369.0,987.0,3024.0,3419.0,4095.0,4095.0,4095.0,4095.0,-0.99,9.73,5.79,0.02,0.0,-0.17,0.0,b
2317.0,967.0,3043.0,3418.0,4095.0,4095.0,4095.0,4095.0,-0.98,9.74,5.75,0.02,-0.08,-0.14,0.0,b
2337.0,966.0,3045.0,3433.0,4095.0,4095.0,4095.0,4095.0,-0.71,9.67,5.79,0.01,-0.03,-0.15,0.0,b
2351.0,976.0,3029.0,3427.0,4095.0,4095.0,4095.0,4095.0,-0.78,9.72,5.84,0.03,0.04,-0.17,0.0,b
2384.0,976.0,3025.0,3440.0,4095.0,4095.0,4095.0,4095.0,-0.9,9.67,5.77,0.03,-0.02,-0.16,0.0,b
2463.0,976.0,3039.0,3428.0,4095.0,4095.0,4095.0,4095.0,-0.92,9.71,5.71,-0.0,0.0,-0.15,0.0,b
2486.0,982.0,3039.0,3444.0,4095.0,4095.0,4095.0,4095.0,-0.87,9.65,5.88,0.02,-0.05,-0.16,0.0,b
1040.0,974.0,3087.0,3255.0,4095.0,4095.0,4095.0,4095.0,-0.96,9.79,5.73,0.04,-0.0,-0.16,0.0,b
1018.0,974.0,3097.0,3248.0,4095.0,4095.0,4095.0,4095.0,-1.11,9.71,5.59,-0.0,0.04,-0.14,0.0,b
1014.0,976.0,3090.0,3255.0,4095.0,4095.0,4095.0,4095.0,-1.11,9.69,5.75,0.02,-0.02,-0.15,0.0,b
1022.0,978.0,3095.0,3261.0,4095.0,4095.0,4095.0,4095.0,-1.04,9.68,5.78,0.0,0.0,-0.14,0.0,b
1009.0,967.0,3088.0,3261.0,4095.0,4095.0,4095.0,4095.0,-0.98,9.71,5.73,0.02,0.01,-0.14,0.0,b
1014.0,965.0,3109.0,3264.0,4095.0,4095.0,4095.0,4095.0,-1.03,9.72,5.7,0.01,0.0,-0.14,0.0,b
1035.0,964.0,3101.0,3254.0,4095.0,4095.0,4095.0,4095.0,-1.06,9.66,5.75,0.01,-0.02,-0.15,0.0,b
1037.0,971.0,3088.0,3271.0,4095.0,4095.0,4095.0,4095.0,-1.01,9.68,5.73,0.0,0.04,-0.14,0.0,b
1040.0,982.0,3094.0,3265.0,4095.0,4095.0,4095.0,4095.0,-1.01,9.63,5.82,0.03,-0.02,-0.16,0.0,b
1033.0,965.0,3101.0,3262.0,4095.0,4095.0,4095.0,4095.0,-0.95,9.68,5.7,0.01,0.04,-0.15,0.0,b
1030.0,978.0,3102.0,3261.0,4095.0,4095.0,4095.0,4095.0,-1.08,9.73,5.67,0.01,-0.03,-0.16,0.0,b
1011.0,981.0,3099.0,3269.0,4095.0,4095.0,4095.0,4095.0,-1.0,9.67,5.78,0.0,0.03,-0.14,0.0,b
1041.0,966.0,3088.0,3269.0,4095.0,4095.0,4095.0,4095.0,-0.96,9.64,5.86,0.02,0.01,-0.14,0.0,b
1033.0,989.0,3093.0,3279.0,4095.0,4095.0,4095.0,4095.0,-1.05,9.7,5.71,0.03,-0.01,-0.15,0.0,b
1018.0,978.0,3090.0,3274.0,4095.0,4095.0,4095.0,4095.0,-0.97,9.67,5.78,0.03,-0.0,-0.15,0.0,b
1023.0,982.0,3089.0,3279.0,4095.0,4095.0,4095.0,4095.0,-1.02,9.68,5.66,0.0,0.01,-0.14,0.0,b
1038.0,982.0,3111.0,3287.0,4095.0,4095.0,4095.0,4095.0,-1.01,9.73,5.6,-0.02,0.02,-0.15,0.0,b
1079.0,967.0,3098.0,3280.0,4095.0,4095.0,4095.0,4095.0,-0.96,9.68,5.75,0.0,0.03,-0.14,0.0,b
1094.0,978.0,3106.0,3283.0,4095.0,4095.0,4095.0,4095.0,-1.01,9.7,5.76,-0.01,-0.0,-0.15,0.0,b
1108.0,975.0,3098.0,3280.0,4095.0,4095.0,4095.0,4095.0,-1.03,9.66,5.82,-0.0,0.0,-0.15,0.0,b
1654.0,4095.0,3088.0,3218.0,4095.0,4095.0,4095.0,4095.0,-0.96,9.62,5.81,0.01,-0.0,-0.14,0.0,b
1649.0,4095.0,3086.0,3230.0,4095.0,4095.0,4095.0,4095.0,-0.88,9.62,5.85,-0.01,-0.01,-0.14,0.0,b
1661.0,4095.0,3071.0,3222.0,4095.0,4095.0,4095.0,4095.0,-0.81,9.67,5.85,0.04,0.04,-0.14,0.0,b
1694.0,4095.0,3087.0,3246.0,4095.0,4095.0,4095.0,4095.0,-0.91,9.68,5.74,0.02,-0.03,-0.16,0.0,b
1701.0,4095.0,3063.0,3235.0,4095.0,4095.0,4095.0,4095.0,-0.87,9.72,5.83,0.0,0.0,-0.15,0.0,b
1707.0,4095.0,3071.0,3234.0,4095.0,4095.0,4095.0,4095.0,-0.91,9.71,5.79,0.02,0.01,-0.15,0.0,b
1712.0,4095.0,3071.0,3236.0,4095.0,4095.0,4095.0,4095.0,-0.9,9.73,5.74,0.0,0.01,-0.15,0.0,b
1725.0,4095.0,3071.0,3248.0,4095.0,4095.0,4095.0,4095.0,-0.89,9.69,5.81,0.01,-0.03,-0.16,0.0,b
1745.0,4095.0,3083.0,3237.0,4095.0,4095.0,4095.0,4095.0,-0.9,9.72,5.87,0.01,0.01,-0.16,0.0,b
1749.0,4095.0,3081.0,3235.0,4095.0,4095.0,4095.0,4095.0,-0.92,9.66,5.87,0.02,-0.01,-0.15,0.0,b
1761.0,4095.0,3087.0,3251.0,4095.0,4095.0,4095.0,4095.0,-0.78,9.67,5.82,-0.01,-0.01,-0.14,0.0,b
1801.0,4095.0,3071.0,3249.0,4095.0,4095.0,4095.0,4095.0,-0.84,9.71,5.83,-0.01,0.04,-0.14,0.0,b
1798.0,4095.0,3053.0,3265.0,4095.0,4095.0,4095.0,4095.0,-0.94,9.69,5.82,-0.01,0.0,-0.14,0.0,b
1819.0,4095.0,3070.0,3258.0,4095.0,4095.0,4095.0,4095.0,-0.83,9.69,5.92,0.0,0.01,-0.16,0.0,b
1808.0,4095.0,3071.0,3250.0,4095.0,4095.0,4095.0,4095.0,-0.92,9.69,5.95,0.01,0.0,-0.15,0.0,b
1820.0,4095.0,3066.0,3255.0,4095.0,4095.0,4095.0,4095.0,-0.99,9.6,5.87,0.03,-0.02,-0.15,0.0,b
1815.0,4095.0,3085.0,3260.0,4095.0,4095.0,4095.0,4095.0,-0.82,9.72,5.87,-0.01,0.03,-0.13,0.0,b
1834.0,4095.0,3096.0,3271.0,4095.0,4095.0,4095.0,4095.0,-0.9,9.65,5.75,0.02,0.01,-0.16,0.0,b
1826.0,4095.0,3071.0,3279.0,4095.0,4095.0,4095.0,4095.0,-0.92,9.71,5.83,0.01,0.0,-0.17,0.0,b
1791.0,4095.0,3089.0,3263.0,4095.0,4095.0,4095.0,4095.0,-0.94,9.61,5.9,0.01,-0.01,-0.16,0.0,b
2122.0,4095.0,2745.0,3312.0,4095.0,4095.0,4095.0,4095.0,-0.62,9.65,5.76,0.01,0.02,-0.14,0.0,b
2133.0,4095.0,2733.0,3312.0,4095.0,4095.0,4095.0,4095.0,-0.57,9.74,5.54,-0.03,-0.01,-0.15,0.0,b
2128.0,4095.0,2728.0,3318.0,4095.0,4095.0,4095.0,4095.0,-0.65,9.69,5.78,0.01,-0.02,-0.18,0.0,b
2147.0,4095.0,2715.0,3333.0,4095.0,4095.0,4095.0,4095.0,-0.55,9.75,5.73,0.04,0.0,-0.16,0.0,b
2158.0,4095.0,2677.0,3314.0,4095.0,4095.0,4095.0,4095.0,-0.62,9.71,5.64,0.02,-0.01,-0.14,0.0,b
2160.0,4095.0,2672.0,3327.0,4095.0,4095.0,4095.0,4095.0,-0.62,9.79,5.66,-0.01,0.03,-0.15,0.0,b
2171.0,4095.0,2672.0,3330.0,4095.0,4095.0,4095.0,4095.0,-0.64,9.73,5.75,0.04,-0.02,-0.16,0.0,b
2166.0,4095.0,2672.0,3324.0,4095.0,4095.0,4095.0,4095.0,-0.52,9.75,5.67,0.0,-0.0,-0.16,0.0,b
2170.0,4095.0,2641.0,3339.0,4095.0,4095.0,4095.0,4095.0,-0.59,9.69,5.81,0.03,-0.02,-0.16,0.0,b
2163.0,4095.0,2631.0,3328.0,4095.0,4095.0,4095.0,4095.0,-0.8,9.73,5.67,0.04,-0.01,-0.16,0.0,b
2159.0,4095.0,2602.0,3331.0,4095.0,4095.0,4095.0,4095.0,-0.6,9.79,5.57,0.02,0.0,-0.1,0.0,b
2162.0,4095.0,2586.0,3331.0,4095.0,4095.0,4095.0,4095.0,-0.47,9.71,5.74,-0.0,0.02,-0.13,0.0,b
2170.0,4095.0,2587.0,3345.0,4095.0,4095.0,4095.0,4095.0,-0.43,9.73,5.69,0.04,-0.0,-0.16,0.0,b
2160.0,4095.0,2579.0,3338.0,4095.0,4095.0,4095.0,4095.0,-0.67,9.67,5.71,0.02,0.0,-0.18,0.0,b
2176.0,4095.0,2583.0,3345.0,4095.0,4095.0,4095.0,4095.0,-0.73,9.78,5.59,0.02,-0.02,-0.16,0.0,b
2170.0,4095.0,2559.0,3343.0,4095.0,4095.0,4095.0,4095.0,-0.69,9.7,5.71,0.02,-0.02,-0.15,0.0,b
2175.0,4095.0,2559.0,3343.0,4095.0,4095.0,4095.0,4095.0,-0.5,9.77,5.59,0.01,0.0,-0.14,0.0,b
2167.0,4095.0,2559.0,3327.0,4095.0,4095.0,4095.0,4095.0,-0.57,9.67,5.74,0.01,-0.01,-0.14,0.0,b
2162.0,4095.0,2553.0,3348.0,4095.0,4095.0,4095.0,4095.0,-0.56,9.76,5.62,-0.03,0.0,-0.15,0.0,b
2164.0,4095.0,2557.0,3347.0,4095.0,4095.0,4095.0,4095.0,-0.61,9.75,5.73,0.02,0.01,-0.14,0.0,b
1605.0,3999.0,2753.0,3487.0,4095.0,4095.0,4095.0,4095.0,-0.67,9.68,5.66,0.02,0.01,-0.17,0.0,b
1605.0,3999.0,2753.0,3487.0,4095.0,4095.0,4095.0,4095.0,-0.67,9.68,5.66,0.02,0.01,-0.17,0.0,b
1654.0,4033.0,2747.0,3495.0,4095.0,4095.0,4095.0,4095.0,-0.84,9.63,5.7,0.0,0.0,-0.15,0.0,b
1659.0,4003.0,2747.0,3486.0,4095.0,4095.0,4095.0,4095.0,-0.72,9.7,5.73,0.0,-0.04,-0.15,0.0,b
1683.0,4021.0,2722.0,3488.0,4095.0,4095.0,4095.0,4095.0,-0.55,9.67,5.64,0.01,0.0,-0.14,0.0,b
1695.0,4031.0,2719.0,3509.0,4095.0,4095.0,4095.0,4095.0,-0.62,9.74,5.73,-0.02,0.05,-0.15,0.0,b
1699.0,4019.0,2723.0,3506.0,4095.0,4095.0,4095.0,4095.0,-0.63,9.71,5.78,0.01,-0.02,-0.16,0.0,b
1745.0,4016.0,2736.0,3504.0,4095.0,4095.0,4095.0,4095.0,-0.68,9.7,5.76,0.02,0.02,-0.15,0.0,b
1743.0,4048.0,2721.0,3511.0,4095.0,4095.0,4095.0,4095.0,-0.66,9.7,5.75,0.01,-0.01,-0.15,0.0,b
1787.0,4016.0,2713.0,3515.0,4095.0,4095.0,4095.0,4095.0,-0.65,9.69,5.7,0.01,0.02,-0.14,0.0,b
1812.0,4031.0,2695.0,3506.0,4095.0,4095.0,4095.0,4095.0,-0.56,9.79,5.67,0.03,0.0,-0.14,0.0,b
1776.0,4050.0,2699.0,3520.0,4095.0,4095.0,4095.0,4095.0,-0.65,9.68,5.75,0.01,0.0,-0.14,0.0,b
1778.0,4048.0,2710.0,3515.0,4095.0,4095.0,4095.0,4095.0,-0.61,9.77,5.68,0.0,-0.03,-0.16,0.0,b
1763.0,4047.0,2701.0,3519.0,4095.0,4095.0,4095.0,4095.0,-0.64,9.73,5.69,0.01,0.01,-0.15,0.0,b
1782.0,4050.0,2698.0,3539.0,4095.0,4095.0,4095.0,4095.0,-0.59,9.73,5.71,0.0,0.02,-0.15,0.0,b
1765.0,4048.0,2685.0,3531.0,4095.0,4095.0,4095.0,4095.0,-0.59,9.69,5.67,0.0,-0.01,-0.16,0.0,b
1818.0,4050.0,2670.0,3522.0,4095.0,4095.0,4095.0,4095.0,-0.62,9.74,5.75,0.01,0.01,-0.16,0.0,b
1797.0,4061.0,2667.0,3536.0,4095.0,4095.0,4095.0,4095.0,-0.72,9.68,5.73,0.01,-0.03,-0.16,0.0,b
1779.0,4057.0,2672.0,3526.0,4095.0,4095.0,4095.0,4095.0,-0.68,9.77,5.66,-0.02,-0.07,-0.16,0.0,b
1744.0,4039.0,2673.0,3532.0,4095.0,4095.0,4095.0,4095.0,-0.56,9.65,5.86,-0.02,-0.08,-0.16,0.0,b
1535.0,4095.0,2337.0,3461.0,4095.0,4095.0,4095.0,4095.0,-0.7,9.6,5.65,0.02,-0.01,-0.17,0.0,b
1535.0,4095.0,2337.0,3461.0,4095.0,4095.0,4095.0,4095.0,-0.7,9.6,5.65,0.02,-0.01,-0.17,0.0,b
1535.0,4095.0,2345.0,3469.0,4095.0,4095.0,4095.0,4095.0,-0.61,9.64,5.69,-0.04,-0.03,-0.13,0.0,b
1581.0,4095.0,2354.0,3471.0,4095.0,4095.0,4095.0,4095.0,-0.47,9.65,5.94,0.0,0.03,-0.1,0.0,b
1586.0,4095.0,2365.0,3472.0,4095.0,4095.0,4095.0,4095.0,-0.24,9.67,5.93,0.01,0.02,-0.12,0.0,b
1578.0,4095.0,2353.0,3479.0,4095.0,4095.0,4095.0,4095.0,-0.55,9.68,5.77,0.07,0.01,-0.21,0.0,b
1590.0,4095.0,2364.0,3483.0,4095.0,4095.0,4095.0,4095.0,-0.71,9.77,5.49,0.02,-0.04,-0.14,0.0,b
1603.0,4095.0,2358.0,3473.0,4095.0,4095.0,4095.0,4095.0,-0.29,9.73,5.57,0.04,-0.01,-0.14,0.0,b
1622.0,4095.0,2385.0,3479.0,4095.0,4095.0,4095.0,4095.0,-0.47,9.73,5.51,-0.01,-0.01,-0.16,0.0,b
1654.0,4095.0,2366.0,3476.0,4095.0,4095.0,4095.0,4095.0,-0.75,9.73,5.79,-0.05,-0.06,-0.2,0.0,b
1654.0,4095.0,2368.0,3483.0,4095.0,4095.0,4095.0,4095.0,-0.7,9.77,5.95,-0.05,0.04,-0.13,0.0,b
1648.0,4095.0,2363.0,3487.0,4095.0,4095.0,4095.0,4095.0,-0.43,9.7,6.07,-0.0,-0.03,-0.17,0.0,b
1666.0,4095.0,2373.0,3486.0,4095.0,4095.0,4095.0,4095.0,-0.62,9.74,5.83,0.08,0.0,-0.18,0.0,b
1651.0,4095.0,2384.0,3499.0,4095.0,4095.0,4095.0,4095.0,-0.57,9.79,5.68,0.03,0.03,-0.13,0.0,b
1680.0,4095.0,2391.0,3493.0,4095.0,4095.0,4095.0,4095.0,-0.45,9.78,5.58,0.04,-0.01,-0.15,0.0,b
1678.0,4095.0,2394.0,3497.0,4095.0,4095.0,4095.0,4095.0,-0.64,9.71,5.71,-0.0,0.02,-0.14,0.0,b
1695.0,4095.0,2404.0,3504.0,4095.0,4095.0,4095.0,4095.0,-0.45,9.72,5.82,-0.02,-0.01,-0.14,0.0,b
1700.0,4095.0,2399.0,3493.0,4095.0,4095.0,4095.0,4095.0,-0.48,9.75,5.83,0.05,0.02,-0.18,0.0,b
1702.0,4095.0,2405.0,3517.0,4095.0,4095.0,4095.0,4095.0,-0.59,9.73,5.7,-0.02,0.0,-0.16,0.0,b
1707.0,4095.0,2401.0,3499.0,4095.0,4095.0,4095.0,4095.0,-0.55,9.79,5.79,0.03,0.04,-0.16,0.0,b
951.0,3636.0,3391.0,3482.0,4095.0,4095.0,4095.0,4095.0,-1.2,9.59,5.53,-0.02,0.02,-0.11,0.0,b
944.0,3641.0,3375.0,3485.0,4095.0,4095.0,4095.0,4095.0,-1.25,9.58,5.56,0.02,-0.02,-0.18,0.0,b
955.0,3659.0,3391.0,3504.0,4095.0,4095.0,4095.0,4095.0,-1.26,9.6,5.61,-0.02,0.01,-0.13,0.0,b
947.0,3647.0,3373.0,3504.0,4095.0,4095.0,4095.0,4095.0,-1.12,9.62,5.64,0.01,-0.02,-0.13,0.0,b
964.0,3647.0,3371.0,3505.0,4095.0,4095.0,4095.0,4095.0,-1.13,9.66,5.59,0.02,0.05,-0.14,0.0,b
953.0,3659.0,3370.0,3509.0,4095.0,4095.0,4095.0,4095.0,-1.3,9.62,5.52,-0.01,-0.02,-0.15,0.0,b
956.0,3647.0,3368.0,3515.0,4095.0,4095.0,4095.0,4095.0,-1.19,9.72,5.58,-0.01,0.01,-0.13,0.0,b
960.0,3647.0,3376.0,3520.0,4095.0,4095.0,4095.0,4095.0,-1.32,9.64,5.66,-0.0,-0.04,-0.16,0.0,b
963.0,3641.0,3372.0,3511.0,4095.0,4095.0,4095.0,4095.0,-1.27,9.7,5.67,-0.03,0.0,-0.13,0.0,b
970.0,3655.0,3358.0,3514.0,4095.0,4095.0,4095.0,4095.0,-1.05,9.61,5.77,0.0,-0.01,-0.12,0.0,b
951.0,3661.0,3374.0,3522.0,4095.0,4095.0,4095.0,4095.0,-1.11,9.64,5.77,0.01,0.0,-0.14,0.0,b
962.0,3635.0,3376.0,3525.0,4095.0,4095.0,4095.0,4095.0,-1.07,9.65,5.61,0.04,-0.01,-0.16,0.0,b
971.0,3653.0,3378.0,3533.0,4095.0,4095.0,4095.0,4095.0,-1.32,9.73,5.45,0.01,-0.04,-0.19,0.0,b
967.0,3659.0,3370.0,3520.0,4095.0,4095.0,4095.0,4095.0,-1.18,9.71,5.59,0.0,0.0,-0.12,0.0,b
981.0,3648.0,3367.0,3522.0,4095.0,4095.0,4095.0,4095.0,-1.05,9.66,5.77,-0.03,0.01,-0.13,0.0,b
974.0,3659.0,3363.0,3531.0,4095.0,4095.0,4095.0,4095.0,-1.02,9.68,5.7,0.03,-0.04,-0.17,0.0,b
981.0,3651.0,3372.0,3531.0,4095.0,4095.0,4095.0,4095.0,-1.2,9.67,5.69,0.01,0.02,-0.16,0.0,b
985.0,3657.0,3375.0,3551.0,4095.0,4095.0,4095.0,4095.0,-1.15,9.74,5.59,-0.0,0.01,-0.17,0.0,b
975.0,3653.0,3376.0,3536.0,4095.0,4095.0,4095.0,4095.0,-1.39,9.69,5.69,0.02,0.02,-0.15,0.0,b
983.0,3663.0,3376.0,3540.0,4095.0,4095.0,4095.0,4095.0,-1.22,9.64,5.75,-0.07,0.06,-0.03,0.0,b
2161.0,4046.0,1635.0,3477.0,4095.0,4095.0,4095.0,4095.0,-1.07,9.65,5.38,0.0,-0.0,-0.14,0.0,b
2064.0,4054.0,1648.0,3479.0,4095.0,4095.0,4095.0,4095.0,-0.99,9.67,5.36,-0.0,0.03,-0.13,0.0,b
2062.0,4087.0,1671.0,3499.0,4095.0,4095.0,4095.0,4095.0,-0.93,9.63,5.54,0.03,-0.0,-0.15,0.0,b
2073.0,4055.0,1645.0,3511.0,4095.0,4095.0,4095.0,4095.0,-0.9,9.68,5.37,0.02,-0.05,-0.16,0.0,b
2102.0,4087.0,1667.0,3508.0,4095.0,4095.0,4095.0,4095.0,-0.98,9.72,5.28,0.01,0.01,-0.15,0.0,b
2125.0,4081.0,1707.0,3498.0,4095.0,4095.0,4095.0,4095.0,-1.15,9.75,5.2,0.02,-0.01,-0.17,0.0,b
2105.0,4095.0,1716.0,3492.0,4095.0,4095.0,4095.0,4095.0,-1.06,9.68,5.29,-0.03,-0.04,-0.13,0.0,b
2103.0,4077.0,1725.0,3507.0,4095.0,4095.0,4095.0,4095.0,-1.11,9.7,5.36,-0.04,0.01,-0.11,0.0,b
2115.0,4080.0,1735.0,3506.0,4095.0,4095.0,4095.0,4095.0,-0.83,9.7,5.49,-0.02,-0.04,-0.14,0.0,b
2091.0,4079.0,1730.0,3511.0,4095.0,4095.0,4095.0,4095.0,-0.96,9.72,5.55,-0.01,0.02,-0.16,0.0,b
2080.0,4095.0,1750.0,3523.0,4095.0,4095.0,4095.0,4095.0,-1.0,9.69,5.54,0.02,-0.02,-0.15,0.0,b
2067.0,4069.0,1757.0,3504.0,4095.0,4095.0,4095.0,4095.0,-1.02,9.75,5.39,0.02,0.0,-0.15,0.0,b
2064.0,4095.0,1767.0,3507.0,4095.0,4095.0,4095.0,4095.0,-1.0,9.73,5.39,-0.01,0.01,-0.12,0.0,b
2045.0,4095.0,1780.0,3507.0,4095.0,4095.0,4095.0,4095.0,-0.81,9.8,5.32,0.02,-0.0,-0.16,0.0,b
2064.0,4095.0,1788.0,3531.0,4095.0,4095.0,4095.0,4095.0,-1.08,9.73,5.3,-0.02,0.0,-0.18,0.0,b
2075.0,4078.0,1790.0,3504.0,4095.0,4095.0,4095.0,4095.0,-1.03,9.76,5.43,-0.05,-0.02,-0.15,0.0,b
2079.0,4087.0,1777.0,3527.0,4095.0,4095.0,4095.0,4095.0,-1.04,9.68,5.68,-0.02,-0.02,-0.15,0.0,b
2108.0,4095.0,1759.0,3532.0,4095.0,4095.0,4095.0,4095.0,-0.98,9.68,5.68,0.0,-0.0,-0.15,0.0,b
2105.0,4084.0,1776.0,3515.0,4095.0,4095.0,4095.0,4095.0,-0.98,9.73,5.62,0.04,-0.03,-0.14,0.0,b
2114.0,4095.0,1760.0,3533.0,4095.0,4095.0,4095.0,4095.0,-0.91,9.75,5.49,0.02,0.03,-0.13,0.0,b
2047.0,3335.0,2649.0,3457.0,4095.0,4095.0,4095.0,4095.0,-0.96,9.65,5.37,-0.01,0.01,-0.14,0.0,b
2007.0,3331.0,2651.0,3463.0,4095.0,4095.0,4095.0,4095.0,-0.84,9.7,5.26,-0.0,-0.01,-0.15,0.0,b
1984.0,3329.0,2643.0,3447.0,4095.0,4095.0,4095.0,4095.0,-0.81,9.73,5.31,-0.01,0.01,-0.16,0.0,b
2021.0,3335.0,2649.0,3455.0,4095.0,4095.0,4095.0,4095.0,-0.92,9.79,5.26,0.01,-0.0,-0.17,0.0,b
1999.0,3335.0,2645.0,3454.0,4095.0,4095.0,4095.0,4095.0,-0.97,9.69,5.37,-0.01,-0.01,-0.16,0.0,b
1986.0,3336.0,2656.0,3488.0,4095.0,4095.0,4095.0,4095.0,-0.93,9.78,5.25,0.02,-0.01,-0.15,0.0,b
1981.0,3321.0,2650.0,3477.0,4095.0,4095.0,4095.0,4095.0,-0.82,9.67,5.39,0.0,-0.02,-0.16,0.0,b
2000.0,3318.0,2671.0,3471.0,4095.0,4095.0,4095.0,4095.0,-0.86,9.82,5.31,0.0,0.01,-0.16,0.0,b
1999.0,3331.0,2650.0,3489.0,4095.0,4095.0,4095.0,4095.0,-1.01,9.67,5.42,-0.02,-0.01,-0.15,0.0,b
1989.0,3334.0,2666.0,3483.0,4095.0,4095.0,4095.0,4095.0,-0.92,9.75,5.35,-0.02,0.01,-0.15,0.0,b
1970.0,3326.0,2661.0,3465.0,4095.0,4095.0,4095.0,4095.0,-0.99,9.73,5.39,-0.02,0.03,-0.13,0.0,b
1985.0,3335.0,2662.0,3478.0,4095.0,4095.0,4095.0,4095.0,-0.94,9.75,5.4,0.03,-0.01,-0.15,0.0,b
1982.0,3329.0,2669.0,3474.0,4095.0,4095.0,4095.0,4095.0,-0.9,9.71,5.32,-0.01,0.0,-0.14,0.0,b
1997.0,3333.0,2663.0,3463.0,4095.0,4095.0,4095.0,4095.0,-0.86,9.75,5.4,0.02,-0.03,-0.17,0.0,b
2013.0,3326.0,2657.0,3476.0,4095.0,4095.0,4095.0,4095.0,-0.96,9.75,5.33,-0.01,0.04,-0.14,0.0,b
2032.0,3331.0,2664.0,3471.0,4095.0,4095.0,4095.0,4095.0,-0.87,9.75,5.39,0.04,-0.04,-0.16,0.0,b
2045.0,3331.0,2671.0,3473.0,4095.0,4095.0,4095.0,4095.0,-0.94,9.73,5.43,0.0,0.02,-0.15,0.0,b
2055.0,3328.0,2661.0,3474.0,4095.0,4095.0,4095.0,4095.0,-0.89,9.77,5.39,0.02,0.01,-0.14,0.0,b
2063.0,3325.0,2672.0,3479.0,4095.0,4095.0,4095.0,4095.0,-0.81,9.76,5.31,0.02,0.03,-0.15,0.0,b
2069.0,3330.0,2667.0,3474.0,4095.0,4095.0,4095.0,4095.0,-0.85,9.76,5.42,-0.0,0.01,-0.15,0.0,b
1003.0,4095.0,3217.0,3475.0,4095.0,4095.0,4095.0,4095.0,-0.95,9.95,5.48,-0.01,0.01,-0.12,0.0,b
1011.0,4095.0,3218.0,3494.0,4095.0,4095.0,4095.0,4095.0,-0.71,9.77,5.74,0.02,-0.04,-0.15,0.0,b
1005.0,4095.0,3216.0,3478.0,4095.0,4095.0,4095.0,4095.0,-0.68,9.81,5.67,0.01,0.01,-0.15,0.0,b
1008.0,4095.0,3206.0,3483.0,4095.0,4095.0,4095.0,4095.0,-0.85,9.77,5.52,0.06,0.01,-0.15,0.0,b
1007.0,4095.0,3211.0,3499.0,4095.0,4095.0,4095.0,4095.0,-0.85,9.79,5.31,0.01,-0.02,-0.17,0.0,b
1011.0,4095.0,3206.0,3502.0,4095.0,4095.0,4095.0,4095.0,-0.86,9.75,5.38,0.01,0.0,-0.15,0.0,b
1022.0,4095.0,3204.0,3486.0,4095.0,4095.0,4095.0,4095.0,-0.93,9.65,5.62,0.0,-0.05,-0.16,0.0,b
1023.0,4095.0,3211.0,3498.0,4095.0,4095.0,4095.0,4095.0,-0.84,9.72,5.57,0.03,-0.0,-0.14,0.0,b
1015.0,4095.0,3218.0,3481.0,4095.0,4095.0,4095.0,4095.0,-0.84,9.73,5.47,-0.01,0.02,-0.12,0.0,b
1022.0,4095.0,3217.0,3503.0,4095.0,4095.0,4095.0,4095.0,-0.83,9.73,5.58,-0.01,0.06,-0.09,0.0,b
1022.0,4095.0,3223.0,3499.0,4095.0,4095.0,4095.0,4095.0,-0.63,9.78,5.41,0.04,0.0,-0.14,0.0,b
1035.0,4095.0,3216.0,3499.0,4095.0,4095.0,4095.0,4095.0,-0.91,9.8,5.24,0.01,0.01,-0.18,0.0,b
1038.0,4095.0,3227.0,3509.0,4095.0,4095.0,4095.0,4095.0,-0.93,9.86,5.12,-0.04,-0.02,-0.14,0.0,b
1035.0,4095.0,3227.0,3515.0,4095.0,4095.0,4095.0,4095.0,-0.74,9.7,5.67,-0.05,-0.01,-0.11,0.0,b
1023.0,4095.0,3205.0,3501.0,4095.0,4095.0,4095.0,4095.0,-0.61,9.71,5.86,0.01,-0.01,-0.16,0.0,b
1017.0,4095.0,3222.0,3505.0,4095.0,4095.0,4095.0,4095.0,-0.96,9.73,5.58,0.06,-0.01,-0.16,0.0,b
1040.0,4095.0,3217.0,3515.0,4095.0,4095.0,4095.0,4095.0,-0.76,9.78,5.41,-0.0,0.0,-0.09,0.0,b
1034.0,4095.0,3218.0,3509.0,4095.0,4095.0,4095.0,4095.0,-0.57,9.74,5.6,0.03,0.02,-0.12,0.0,b
1022.0,4095.0,3216.0,3516.0,4095.0,4095.0,4095.0,4095.0,-0.61,9.79,5.44,0.02,0.03,-0.15,0.0,b
1022.0,4095.0,3216.0,3515.0,4095.0,4095.0,4095.0,4095.0,-0.7,9.78,5.51,0.02,-0.01,-0.15,0.0,b
2838.0,4003.0,3198.0,3466.0,4095.0,4095.0,4095.0,4095.0,-0.68,9.79,5.23,-0.0,-0.09,-0.14,0.0,b
2819.0,4015.0,3199.0,3473.0,4095.0,4095.0,4095.0,4095.0,-0.56,9.86,5.31,0.01,0.01,-0.15,0.0,b
2835.0,4028.0,3205.0,3473.0,4095.0,4095.0,4095.0,4095.0,-0.62,9.83,5.11,0.02,-0.04,-0.17,0.0,b
2842.0,4006.0,3206.0,3477.0,4095.0,4095.0,4095.0,4095.0,-0.68,9.81,5.18,0.03,0.01,-0.16,0.0,b
2841.0,4015.0,3202.0,3487.0,4095.0,4095.0,4095.0,4095.0,-0.68,9.83,5.12,-0.0,0.03,-0.15,0.0,b
2829.0,4029.0,3197.0,3481.0,4095.0,4095.0,4095.0,4095.0,-0.7,9.74,5.2,-0.0,0.01,-0.15,0.0,b
2843.0,4033.0,3202.0,3472.0,4095.0,4095.0,4095.0,4095.0,-0.65,9.88,5.16,-0.0,0.01,-0.14,0.0,b
2837.0,4028.0,3185.0,3491.0,4095.0,4095.0,4095.0,4095.0,-0.63,9.78,5.35,0.01,-0.0,-0.17,0.0,b
2843.0,4007.0,3189.0,3493.0,4095.0,4095.0,4095.0,4095.0,-0.75,9.79,5.23,0.0,0.03,-0.15,0.0,b
2837.0,4023.0,3196.0,3490.0,4095.0,4095.0,4095.0,4095.0,-0.67,9.79,5.15,0.04,0.01,-0.17,0.0,b
2829.0,4026.0,3207.0,3502.0,4095.0,4095.0,4095.0,4095.0,-0.79,9.81,5.13,-0.02,-0.01,-0.14,0.0,b
2832.0,4021.0,3203.0,3495.0,4095.0,4095.0,4095.0,4095.0,-0.57,9.72,5.33,0.01,-0.01,-0.14,0.0,b
2828.0,4020.0,3200.0,3490.0,4095.0,4095.0,4095.0,4095.0,-0.74,9.78,5.22,0.0,0.01,-0.17,0.0,b
2832.0,4009.0,3199.0,3502.0,4095.0,4095.0,4095.0,4095.0,-0.81,9.86,5.13,0.02,-0.0,-0.15,0.0,b
2830.0,4013.0,3198.0,3503.0,4095.0,4095.0,4095.0,4095.0,-0.66,9.71,5.29,-0.02,-0.01,-0.14,0.0,b
2832.0,4005.0,3194.0,3490.0,4095.0,4095.0,4095.0,4095.0,-0.58,9.8,5.24,0.01,-0.0,-0.12,0.0,b
2861.0,4015.0,3194.0,3500.0,4095.0,4095.0,4095.0,4095.0,-0.62,9.69,5.29,-0.04,0.01,-0.16,0.0,b
2859.0,4016.0,3193.0,3497.0,4095.0,4095.0,4095.0,4095.0,-0.73,9.88,5.17,0.01,0.03,-0.15,0.0,b
2874.0,4010.0,3184.0,3509.0,4095.0,4095.0,4095.0,4095.0,-0.69,9.73,5.28,-0.0,0.0,-0.15,0.0,b
2896.0,3995.0,3195.0,3505.0,4095.0,4095.0,4095.0,4095.0,-0.78,9.84,5.25,-0.01,0.04,-0.15,0.0,b
963.0,3376.0,2610.0,3445.0,4095.0,4095.0,4095.0,4095.0,-0.4,9.78,5.29,-0.01,-0.03,-0.16,0.0,b
954.0,3379.0,2614.0,3453.0,4095.0,4095.0,4095.0,4095.0,-0.67,9.81,5.29,-0.02,0.01,-0.18,0.0,b
946.0,3362.0,2608.0,3469.0,4095.0,4095.0,4095.0,4095.0,-0.64,9.85,5.24,0.02,0.01,-0.14,0.0,b
935.0,3366.0,2605.0,3462.0,4095.0,4095.0,4095.0,4095.0,-0.55,9.75,5.29,-0.03,0.02,-0.15,0.0,b
944.0,3375.0,2619.0,3462.0,4095.0,4095.0,4095.0,4095.0,-0.6,9.78,5.31,0.0,-0.0,-0.13,0.0,b
933.0,3380.0,2622.0,3486.0,4095.0,4095.0,4095.0,4095.0,-0.43,9.75,5.21,-0.05,-0.02,-0.09,0.0,b
925.0,3373.0,2651.0,3482.0,4095.0,4095.0,4095.0,4095.0,-0.43,9.84,5.38,0.06,0.01,-0.19,0.0,b
944.0,3367.0,2643.0,3483.0,4095.0,4095.0,4095.0,4095.0,-0.57,9.72,5.26,0.04,-0.01,-0.15,0.0,b
931.0,3365.0,2645.0,3492.0,4095.0,4095.0,4095.0,4095.0,-0.44,9.91,5.09,0.02,-0.01,-0.15,0.0,b
930.0,3376.0,2656.0,3487.0,4095.0,4095.0,4095.0,4095.0,-0.63,9.78,5.21,0.01,0.03,-0.13,0.0,b
928.0,3363.0,2663.0,3493.0,4095.0,4095.0,4095.0,4095.0,-0.42,9.84,5.18,0.0,-0.02,-0.14,0.0,b
936.0,3382.0,2671.0,3504.0,4095.0,4095.0,4095.0,4095.0,-0.48,9.76,5.25,0.01,0.01,-0.14,0.0,b
940.0,3370.0,2678.0,3498.0,4095.0,4095.0,4095.0,4095.0,-0.45,9.81,5.09,-0.05,0.01,-0.13,0.0,b
938.0,3367.0,2692.0,3504.0,4095.0,4095.0,4095.0,4095.0,-0.53,9.8,5.4,0.01,0.0,-0.17,0.0,b
931.0,3383.0,2698.0,3514.0,4095.0,4095.0,4095.0,4095.0,-0.64,9.78,5.32,-0.02,-0.0,-0.16,0.0,b
928.0,3374.0,2698.0,3504.0,4095.0,4095.0,4095.0,4095.0,-0.41,9.82,5.31,0.04,-0.02,-0.14,0.0,b
921.0,3369.0,2708.0,3515.0,4095.0,4095.0,4095.0,4095.0,-0.34,9.77,5.3,0.03,-0.01,-0.19,0.0,b
923.0,3387.0,2706.0,3504.0,4095.0,4095.0,4095.0,4095.0,-0.61,9.78,5.27,0.03,-0.01,-0.18,0.0,b
921.0,3376.0,2709.0,3504.0,4095.0,4095.0,4095.0,4095.0,-0.64,9.72,5.41,0.02,-0.02,-0.16,0.0,b
927.0,3366.0,2690.0,3514.0,4095.0,4095.0,4095.0,4095.0,-0.51,9.84,5.15,0.04,0.01,-0.16,0.0,b
915.0,4095.0,3662.0,3491.0,4095.0,4095.0,4095.0,4095.0,-0.51,9.85,5.2,0.0,-0.03,-0.16,0.0,b
929.0,4095.0,3657.0,3502.0,4095.0,4095.0,4095.0,4095.0,-0.33,9.93,5.23,-0.04,0.03,-0.13,0.0,b
930.0,4095.0,3679.0,3520.0,4095.0,4095.0,4095.0,4095.0,-0.3,9.85,5.46,0.02,0.01,-0.13,0.0,b
912.0,4095.0,3666.0,3501.0,4095.0,4095.0,4095.0,4095.0,-0.23,9.81,5.46,0.02,-0.04,-0.11,0.0,b
917.0,4095.0,3662.0,3506.0,4095.0,4095.0,4095.0,4095.0,0.05,9.78,5.49,0.09,-0.02,-0.19,0.0,b
913.0,4095.0,3664.0,3531.0,4095.0,4095.0,4095.0,4095.0,-0.56,9.85,4.89,0.07,0.02,-0.23,0.0,b
927.0,4095.0,3673.0,3519.0,4095.0,4095.0,4095.0,4095.0,-0.52,9.92,4.9,0.02,-0.03,-0.13,0.0,b
912.0,4095.0,3681.0,3520.0,4095.0,4095.0,4095.0,4095.0,-0.14,9.82,5.0,-0.03,-0.01,-0.11,0.0,b
923.0,4095.0,3664.0,3523.0,4095.0,4095.0,4095.0,4095.0,-0.1,9.88,5.1,-0.05,-0.03,-0.17,0.0,b
922.0,4095.0,3660.0,3510.0,4095.0,4095.0,4095.0,4095.0,-0.4,9.77,5.39,-0.03,-0.01,-0.2,0.0,b
919.0,4095.0,3647.0,3524.0,4095.0,4095.0,4095.0,4095.0,-0.32,9.81,5.36,-0.01,-0.04,-0.17,0.0,b
925.0,4095.0,3665.0,3530.0,4095.0,4095.0,4095.0,4095.0,-0.33,9.82,5.23,0.02,0.0,-0.18,0.0,b
924.0,4095.0,3675.0,3523.0,4095.0,4095.0,4095.0,4095.0,-0.37,9.83,5.21,0.02,-0.03,-0.16,0.0,b
911.0,4095.0,3667.0,3527.0,4095.0,4095.0,4095.0,4095.0,-0.18,9.81,5.29,0.01,-0.03,-0.18,0.0,b
914.0,4095.0,3663.0,3542.0,4095.0,4095.0,4095.0,4095.0,-0.45,9.85,5.23,0.0,-0.02,-0.19,0.0,b
914.0,4095.0,3660.0,3545.0,4095.0,4095.0,4095.0,4095.0,-0.27,9.79,5.36,-0.01,-0.04,-0.16,0.0,b
911.0,4095.0,3648.0,3541.0,4095.0,4095.0,4095.0,4095.0,-0.42,9.82,5.26,-0.02,0.02,-0.15,0.0,b
921.0,4095.0,3649.0,3551.0,4095.0,4095.0,4095.0,4095.0,-0.26,9.79,5.41,0.03,-0.01,-0.15,0.0,b
910.0,4095.0,3641.0,3531.0,4095.0,4095.0,4095.0,4095.0,-0.33,9.78,5.37,0.0,0.04,-0.17,0.0,b
923.0,4095.0,3652.0,3551.0,4095.0,4095.0,4095.0,4095.0,-0.44,9.81,5.31,0.02,-0.03,-0.16,0.0,b
3388.0,1993.0,2448.0,3405.0,4095.0,4095.0,4095.0,4095.0,-0.79,9.97,4.89,0.0,0.06,-0.17,0.0,b
3376.0,1995.0,2447.0,3418.0,4095.0,4095.0,4095.0,4095.0,-0.92,9.84,4.85,0.04,-0.04,-0.14,0.0,b
3383.0,1987.0,2451.0,3406.0,4095.0,4095.0,4095.0,4095.0,-0.81,9.85,4.83,0.02,0.03,-0.15,0.0,b
3376.0,2001.0,2449.0,3422.0,4095.0,4095.0,4095.0,4095.0,-0.82,9.78,4.93,-0.0,-0.04,-0.15,0.0,b
3377.0,1995.0,2458.0,3423.0,4095.0,4095.0,4095.0,4095.0,-0.98,9.74,5.02,-0.02,0.02,-0.14,0.0,b
3361.0,1991.0,2462.0,3411.0,4095.0,4095.0,4095.0,4095.0,-0.75,9.78,5.02,0.01,-0.03,-0.16,0.0,b
3357.0,2012.0,2448.0,3435.0,4095.0,4095.0,4095.0,4095.0,-1.02,9.74,5.02,0.02,-0.07,-0.18,0.0,b
3361.0,2005.0,2459.0,3443.0,4095.0,4095.0,4095.0,4095.0,-0.84,9.84,4.94,0.05,-0.13,-0.16,0.0,b
3353.0,2009.0,2459.0,3408.0,4095.0,4095.0,4095.0,4095.0,-0.53,9.83,4.99,0.01,-0.03,-0.13,0.0,b
3353.0,2017.0,2448.0,3455.0,4095.0,4095.0,4095.0,4095.0,-0.77,9.8,4.92,0.04,-0.0,-0.19,0.0,b
3327.0,2005.0,2454.0,3449.0,4095.0,4095.0,4095.0,4095.0,-1.04,9.76,4.77,0.03,0.03,-0.15,0.0,b
3331.0,2017.0,2459.0,3445.0,4095.0,4095.0,4095.0,4095.0,-0.85,9.86,4.83,-0.01,-0.03,-0.15,0.0,b
3328.0,2012.0,2455.0,3423.0,4095.0,4095.0,4095.0,4095.0,-1.08,9.74,5.07,-0.04,-0.0,-0.13,0.0,b
3317.0,2018.0,2443.0,3423.0,4095.0,4095.0,4095.0,4095.0,-0.8,9.86,4.97,-0.03,0.01,-0.12,0.0,b
3320.0,2020.0,2442.0,3442.0,4095.0,4095.0,4095.0,4095.0,-0.83,9.78,5.05,-0.02,-0.02,-0.14,0.0,b
3322.0,2025.0,2435.0,3440.0,4095.0,4095.0,4095.0,4095.0,-0.84,9.8,5.13,-0.03,-0.0,-0.16,0.0,b
3311.0,2021.0,2444.0,3455.0,4095.0,4095.0,4095.0,4095.0,-0.95,9.79,5.12,0.01,0.03,-0.19,0.0,b
3297.0,2030.0,2445.0,3421.0,4095.0,4095.0,4095.0,4095.0,-1.1,9.78,4.96,-0.02,-0.02,-0.15,0.0,b
3312.0,2015.0,2435.0,3459.0,4095.0,4095.0,4095.0,4095.0,-0.7,9.78,5.16,0.02,0.0,-0.11,0.0,b
3294.0,2006.0,2437.0,3441.0,4095.0,4095.0,4095.0,4095.0,-0.69,9.75,4.98,-0.02,0.01,-0.17,0.0,b
2850.0,4095.0,3017.0,3377.0,4095.0,4095.0,4095.0,4095.0,-1.18,9.56,5.12,0.02,0.01,-0.15,0.0,b
2881.0,4095.0,3029.0,3375.0,4095.0,4095.0,4095.0,4095.0,-1.18,9.72,4.89,0.03,0.0,-0.18,0.0,b
2891.0,4095.0,3014.0,3392.0,4095.0,4095.0,4095.0,4095.0,-1.31,9.76,5.04,-0.01,0.01,-0.16,0.0,b
2900.0,4095.0,3024.0,3376.0,4095.0,4095.0,4095.0,4095.0,-1.3,9.75,5.2,-0.0,0.04,-0.14,0.0,b
2912.0,4095.0,3022.0,3394.0,4095.0,4095.0,4095.0,4095.0,-1.24,9.74,5.17,0.01,0.01,-0.16,0.0,b
2931.0,4095.0,3011.0,3403.0,4095.0,4095.0,4095.0,4095.0,-1.28,9.73,5.04,0.01,0.04,-0.13,0.0,b
2930.0,4095.0,3025.0,3408.0,4095.0,4095.0,4095.0,4095.0,-1.13,9.7,5.25,-0.01,0.01,-0.14,0.0,b
2919.0,4095.0,3014.0,3413.0,4095.0,4095.0,4095.0,4095.0,-1.12,9.66,5.19,0.06,0.01,-0.14,0.0,b
2930.0,4095.0,3024.0,3399.0,4095.0,4095.0,4095.0,4095.0,-1.06,9.74,5.02,0.06,-0.01,-0.19,0.0,b
2920.0,4095.0,3014.0,3317.0,4095.0,4095.0,4095.0,4095.0,-1.44,9.7,4.88,0.04,0.01,-0.18,0.0,b
2926.0,4095.0,3011.0,3411.0,4095.0,4095.0,4095.0,4095.0,-1.25,9.84,4.75,0.01,-0.04,-0.16,0.0,b
2911.0,4095.0,3021.0,3410.0,4095.0,4095.0,4095.0,4095.0,-1.07,9.78,4.97,-0.02,-0.03,-0.13,0.0,b
2918.0,4095.0,3018.0,3408.0,4095.0,4095.0,4095.0,4095.0,-0.93,9.79,5.18,-0.03,-0.02,-0.16,0.0,b
2917.0,4095.0,3019.0,3405.0,4095.0,4095.0,4095.0,4095.0,-1.34,9.75,5.08,-0.02,0.03,-0.18,0.0,b
2926.0,4095.0,3006.0,3418.0,4095.0,4095.0,4095.0,4095.0,-1.44,9.72,5.1,-0.03,-0.02,-0.15,0.0,b
2918.0,4095.0,3005.0,3425.0,4095.0,4095.0,4095.0,4095.0,-1.28,9.68,5.27,-0.01,-0.04,-0.17,0.0,b
2907.0,4095.0,3007.0,3429.0,4095.0,4095.0,4095.0,4095.0,-1.26,9.68,5.41,0.01,0.03,-0.14,0.0,b
2912.0,4095.0,2999.0,3422.0,4095.0,4095.0,4095.0,4095.0,-1.35,9.75,5.17,0.04,-0.01,-0.13,0.0,b
2915.0,4095.0,3009.0,3450.0,4095.0,4095.0,4095.0,4095.0,-1.12,9.75,5.16,0.03,0.01,-0.12,0.0,b
2917.0,4095.0,2992.0,3434.0,4095.0,4095.0,4095.0,4095.0,-1.07,9.74,5.17,0.03,0.02,-0.16,0.0,b
3285.0,4095.0,3115.0,3448.0,4095.0,4095.0,4095.0,4095.0,-0.84,9.89,4.92,0.05,0.05,-0.13,0.0,b
3280.0,4095.0,3123.0,3446.0,4095.0,4095.0,4095.0,4095.0,-0.86,9.9,4.93,0.0,-0.07,-0.17,0.0,b
3305.0,4095.0,3121.0,3473.0,4095.0,4095.0,4095.0,4095.0,-0.96,9.8,5.08,0.03,0.03,-0.16,0.0,b
3307.0,4095.0,3119.0,3466.0,4095.0,4095.0,4095.0,4095.0,-0.98,9.8,5.04,-0.03,-0.04,-0.16,0.0,b
3309.0,4095.0,3121.0,3472.0,4095.0,4095.0,4095.0,4095.0,-0.98,9.72,5.2,0.02,0.01,-0.16,0.0,b
3302.0,4095.0,3117.0,3479.0,4095.0,4095.0,4095.0,4095.0,-1.1,9.75,5.1,-0.01,0.01,-0.15,0.0,b
3310.0,4095.0,3123.0,3472.0,4095.0,4095.0,4095.0,4095.0,-1.03,9.84,5.07,0.05,0.0,-0.16,0.0,b
3314.0,4095.0,3122.0,3472.0,4095.0,4095.0,4095.0,4095.0,-0.91,9.73,5.04,-0.01,0.02,-0.13,0.0,b
3299.0,4095.0,3111.0,3494.0,4095.0,4095.0,4095.0,4095.0,-0.87,9.84,5.0,0.01,0.04,-0.14,0.0,b
3312.0,4095.0,3101.0,3473.0,4095.0,4095.0,4095.0,4095.0,-0.81,9.74,4.97,0.01,-0.02,-0.15,0.0,b
3322.0,4095.0,3120.0,3472.0,4095.0,4095.0,4095.0,4095.0,-0.85,9.8,5.09,0.01,0.04,-0.16,0.0,b
3301.0,4095.0,3107.0,3494.0,4095.0,4095.0,4095.0,4095.0,-1.0,9.75,4.99,0.01,-0.01,-0.18,0.0,b
3313.0,4095.0,3111.0,3479.0,4095.0,4095.0,4095.0,4095.0,-1.16,9.79,5.02,-0.03,0.01,-0.17,0.0,b
3313.0,4095.0,3112.0,3472.0,4095.0,4095.0,4095.0,4095.0,-1.12,9.73,5.24,-0.01,-0.01,-0.15,0.0,b
3312.0,4095.0,3115.0,3498.0,4095.0,4095.0,4095.0,4095.0,-0.95,9.78,5.17,-0.01,0.01,-0.12,0.0,b
3313.0,4095.0,3115.0,3485.0,4095.0,4095.0,4095.0,4095.0,-1.05,9.73,5.11,0.05,-0.01,-0.14,0.0,b
3313.0,4095.0,3117.0,3493.0,4095.0,4095.0,4095.0,4095.0,-0.83,9.76,5.02,0.01,0.03,-0.13,0.0,b
3310.0,4095.0,3118.0,3498.0,4095.0,4095.0,4095.0,4095.0,-0.88,9.8,5.06,0.05,-0.01,-0.15,0.0,b
3309.0,4095.0,3120.0,3499.0,4095.0,4095.0,4095.0,4095.0,-0.78,9.82,4.75,-0.01,-0.03,-0.17,0.0,b
3327.0,4095.0,3105.0,3481.0,4095.0,4095.0,4095.0,4095.0,-0.9,9.76,5.15,-0.02,-0.02,-0.22,0.0,b
4029.0,4095.0,1193.0,3323.0,4095.0,4095.0,4095.0,4095.0,-1.22,9.71,4.66,0.02,-0.02,-0.18,0.0,b
4026.0,4095.0,1195.0,3321.0,4095.0,4095.0,4095.0,4095.0,-1.18,9.69,4.67,0.02,0.0,-0.18,0.0,b
4023.0,4095.0,1190.0,3340.0,4095.0,4095.0,4095.0,4095.0,-1.25,9.72,4.56,0.01,0.0,-0.17,0.0,b
4045.0,4095.0,1171.0,3345.0,4095.0,4095.0,4095.0,4095.0,-1.32,9.73,4.47,0.04,0.01,-0.16,0.0,b
4059.0,4095.0,1157.0,3341.0,4095.0,4095.0,4095.0,4095.0,-1.28,9.78,4.3,0.0,0.02,-0.14,0.0,b
4062.0,4095.0,1168.0,3349.0,4095.0,4095.0,4095.0,4095.0,-1.28,9.76,4.43,-0.01,-0.02,-0.15,0.0,b
4053.0,4095.0,1187.0,3347.0,4095.0,4095.0,4095.0,4095.0,-1.22,9.81,4.52,-0.03,0.01,-0.14,0.0,b
4079.0,4095.0,1195.0,3344.0,4095.0,4095.0,4095.0,4095.0,-1.07,9.75,4.66,0.0,-0.04,-0.14,0.0,b
4058.0,4095.0,1198.0,3370.0,4095.0,4095.0,4095.0,4095.0,-1.32,9.79,4.63,0.01,-0.01,-0.16,0.0,b
4050.0,4095.0,1222.0,3359.0,4095.0,4095.0,4095.0,4095.0,-1.23,9.81,4.5,0.05,-0.04,-0.16,0.0,b
4051.0,4095.0,1243.0,3358.0,4095.0,4095.0,4095.0,4095.0,-1.24,9.77,4.44,0.02,0.01,-0.16,0.0,b
4059.0,4095.0,1247.0,3365.0,4095.0,4095.0,4095.0,4095.0,-1.3,9.8,4.49,-0.0,0.01,-0.13,0.0,b
4047.0,4095.0,1243.0,3361.0,4095.0,4095.0,4095.0,4095.0,-1.18,9.76,4.56,0.03,-0.02,-0.16,0.0,b
4063.0,4095.0,1243.0,3356.0,4095.0,4095.0,4095.0,4095.0,-1.26,9.8,4.47,-0.02,0.03,-0.13,0.0,b
4049.0,4095.0,1238.0,3368.0,4095.0,4095.0,4095.0,4095.0,-1.16,9.74,4.57,0.01,-0.02,-0.16,0.0,b
4065.0,4095.0,1253.0,3375.0,4095.0,4095.0,4095.0,4095.0,-1.25,9.8,4.47,-0.02,0.04,-0.15,0.0,b
4066.0,4095.0,1248.0,3362.0,4095.0,4095.0,4095.0,4095.0,-1.3,9.73,4.62,0.01,-0.04,-0.15,0.0,b
4059.0,4095.0,1248.0,3381.0,4095.0,4095.0,4095.0,4095.0,-1.25,9.77,4.58,-0.01,-0.03,-0.13,0.0,b
4051.0,4095.0,1253.0,3376.0,4095.0,4095.0,4095.0,4095.0,-1.15,9.79,4.72,0.01,-0.0,-0.15,0.0,b
4036.0,4095.0,1264.0,3390.0,4095.0,4095.0,4095.0,4095.0,-1.25,9.73,4.63,0.01,-0.01,-0.16,0.0,b
959.0,4095.0,1645.0,3481.0,4095.0,4095.0,4095.0,4095.0,-0.92,9.94,4.56,0.01,-0.01,-0.17,0.0,b
959.0,4095.0,1637.0,3472.0,4095.0,4095.0,4095.0,4095.0,-0.82,9.89,4.76,-0.02,0.02,-0.12,0.0,b
947.0,4095.0,1636.0,3466.0,4095.0,4095.0,4095.0,4095.0,-0.47,9.82,5.03,-0.03,-0.01,-0.14,0.0,b
966.0,4095.0,1619.0,3470.0,4095.0,4095.0,4095.0,4095.0,-0.81,9.8,5.03,0.01,0.04,-0.2,0.0,b
955.0,4095.0,1615.0,3470.0,4095.0,4095.0,4095.0,4095.0,-0.98,9.85,4.94,0.06,-0.05,-0.17,0.0,b
967.0,4095.0,1606.0,3465.0,4095.0,4095.0,4095.0,4095.0,-0.62,9.75,4.99,0.0,-0.01,-0.13,0.0,b
965.0,4095.0,1600.0,3471.0,4095.0,4095.0,4095.0,4095.0,-0.7,9.84,5.14,0.03,0.01,-0.16,0.0,b
954.0,4095.0,1610.0,3472.0,4095.0,4095.0,4095.0,4095.0,-0.8,9.8,4.81,0.09,0.01,-0.17,0.0,b
965.0,4095.0,1585.0,3467.0,4095.0,4095.0,4095.0,4095.0,-0.77,9.84,4.57,0.05,0.02,-0.16,0.0,b
953.0,4095.0,1585.0,3479.0,4095.0,4095.0,4095.0,4095.0,-0.86,9.86,4.84,0.05,-0.02,-0.17,0.0,b
954.0,4095.0,1575.0,3485.0,4095.0,4095.0,4095.0,4095.0,-0.94,9.73,5.0,0.0,0.05,-0.12,0.0,b
956.0,4095.0,1566.0,3472.0,4095.0,4095.0,4095.0,4095.0,-0.73,9.85,4.92,0.02,-0.03,-0.13,0.0,b
964.0,4095.0,1553.0,3473.0,4095.0,4095.0,4095.0,4095.0,-0.47,9.79,4.84,0.1,0.03,-0.12,0.0,b
962.0,4095.0,1534.0,3486.0,4095.0,4095.0,4095.0,4095.0,-0.69,9.89,4.18,0.05,-0.02,-0.18,0.0,b
954.0,4095.0,1520.0,3457.0,4095.0,4095.0,4095.0,4095.0,-0.85,9.87,4.46,0.0,-0.01,-0.19,0.0,b
956.0,4095.0,1520.0,3475.0,4095.0,4095.0,4095.0,4095.0,-0.8,9.75,4.83,-0.03,-0.09,-0.18,0.0,b
949.0,4095.0,1519.0,3482.0,4095.0,4095.0,4095.0,4095.0,-1.0,9.8,4.73,-0.04,0.01,-0.15,0.0,b
959.0,4095.0,1520.0,3472.0,4095.0,4095.0,4095.0,4095.0,-0.81,9.78,4.82,-0.03,-0.02,-0.14,0.0,b
960.0,4095.0,1520.0,3482.0,4095.0,4095.0,4095.0,4095.0,-0.48,9.84,4.8,-0.03,-0.0,-0.14,0.0,b
946.0,4095.0,1525.0,3490.0,4095.0,4095.0,4095.0,4095.0,-0.84,9.79,4.85,0.01,-0.03,-0.2,0.0,b
2843.0,4095.0,2139.0,3491.0,4095.0,4095.0,4095.0,4095.0,-0.85,9.88,4.75,0.03,0.01,-0.16,0.0,b
2839.0,4095.0,2142.0,3515.0,4095.0,4095.0,4095.0,4095.0,-0.85,9.9,4.78,0.02,-0.02,-0.19,0.0,b
2833.0,4095.0,2143.0,3503.0,4095.0,4095.0,4095.0,4095.0,-0.94,9.81,4.96,-0.01,0.01,-0.16,0.0,b
2834.0,4095.0,2145.0,3510.0,4095.0,4095.0,4095.0,4095.0,-1.05,9.81,4.85,0.02,-0.02,-0.18,0.0,b
2810.0,4095.0,2153.0,3538.0,4095.0,4095.0,4095.0,4095.0,-1.01,9.83,4.87,0.03,-0.02,-0.15,0.0,b
2791.0,4095.0,2154.0,3518.0,4095.0,4095.0,4095.0,4095.0,-0.94,9.77,4.81,-0.02,0.01,-0.14,0.0,b
2785.0,4095.0,2148.0,3520.0,4095.0,4095.0,4095.0,4095.0,-0.91,9.81,4.9,0.02,-0.03,-0.18,0.0,b
2768.0,4095.0,2148.0,3522.0,4095.0,4095.0,4095.0,4095.0,-0.97,9.75,4.89,-0.0,0.01,-0.17,0.0,b
2763.0,4095.0,2156.0,3513.0,4095.0,4095.0,4095.0,4095.0,-1.02,9.81,4.89,0.03,-0.02,-0.18,0.0,b
2704.0,4095.0,2157.0,3536.0,4095.0,4095.0,4095.0,4095.0,-0.99,9.78,4.86,-0.0,-0.0,-0.17,0.0,b
2678.0,4095.0,2150.0,3537.0,4095.0,4095.0,4095.0,4095.0,-1.07,9.78,4.97,-0.0,0.02,-0.15,0.0,b
2682.0,4095.0,2141.0,3532.0,4095.0,4095.0,4095.0,4095.0,-1.02,9.75,4.93,-0.01,0.02,-0.13,0.0,b
2683.0,4095.0,2137.0,3537.0,4095.0,4095.0,4095.0,4095.0,-1.01,9.83,4.83,0.03,0.02,-0.16,0.0,b
2677.0,4095.0,2139.0,3542.0,4095.0,4095.0,4095.0,4095.0,-1.04,9.75,4.87,-0.01,0.01,-0.14,0.0,b
2684.0,4095.0,2138.0,3536.0,4095.0,4095.0,4095.0,4095.0,-0.93,9.83,4.88,0.02,-0.02,-0.14,0.0,b
2675.0,4095.0,2142.0,3537.0,4095.0,4095.0,4095.0,4095.0,-0.89,9.76,4.92,-0.01,0.02,-0.14,0.0,b
2663.0,4095.0,2144.0,3552.0,4095.0,4095.0,4095.0,4095.0,-0.93,9.83,5.03,0.0,-0.01,-0.17,0.0,b
2670.0,4095.0,2128.0,3551.0,4095.0,4095.0,4095.0,4095.0,-1.16,9.74,5.14,0.01,0.06,-0.11,0.0,b
2621.0,4095.0,2102.0,3542.0,4095.0,4095.0,4095.0,4095.0,-0.86,9.81,4.94,0.02,0.03,-0.06,0.0,b
2466.0,4095.0,2127.0,3536.0,4095.0,4095.0,4095.0,4095.0,-0.92,9.76,4.76,0.03,0.01,-0.15,0.0,b
1054.0,4095.0,2705.0,3486.0,4095.0,4095.0,4095.0,4095.0,-0.83,9.91,4.76,0.03,-0.03,-0.19,0.0,b
1049.0,4095.0,2715.0,3488.0,4095.0,4095.0,4095.0,4095.0,-0.96,9.84,4.84,-0.01,0.05,-0.13,0.0,b
1061.0,4095.0,2704.0,3515.0,4095.0,4095.0,4095.0,4095.0,-1.13,9.77,4.79,0.02,-0.03,-0.17,0.0,b
1052.0,4095.0,2680.0,3501.0,4095.0,4095.0,4095.0,4095.0,-1.03,9.9,4.71,0.01,0.03,-0.13,0.0,b
1059.0,4095.0,2652.0,3505.0,4095.0,4095.0,4095.0,4095.0,-0.91,9.83,4.82,0.06,-0.0,-0.13,0.0,b
1045.0,4095.0,2717.0,3524.0,4095.0,4095.0,4095.0,4095.0,-0.89,9.93,4.77,-0.03,-0.03,-0.16,0.0,b
1050.0,4095.0,2733.0,3517.0,4095.0,4095.0,4095.0,4095.0,-1.01,9.75,4.81,0.04,-0.06,-0.17,0.0,b
1072.0,4095.0,2743.0,3523.0,4095.0,4095.0,4095.0,4095.0,-0.91,9.85,4.68,0.0,-0.01,-0.16,0.0,b
1058.0,4095.0,2721.0,3530.0,4095.0,4095.0,4095.0,4095.0,-0.93,9.79,4.81,0.03,-0.02,-0.15,0.0,b
1056.0,4095.0,2625.0,3520.0,4095.0,4095.0,4095.0,4095.0,-1.07,9.82,4.74,0.01,0.02,-0.15,0.0,b
1062.0,4095.0,2627.0,3532.0,4095.0,4095.0,4095.0,4095.0,-1.0,9.79,4.7,0.04,-0.04,-0.16,0.0,b
1050.0,4095.0,2668.0,3545.0,4095.0,4095.0,4095.0,4095.0,-1.01,9.85,4.74,-0.03,0.01,-0.13,0.0,b
1047.0,4095.0,2711.0,3536.0,4095.0,4095.0,4095.0,4095.0,-0.9,9.79,4.87,0.01,-0.05,-0.16,0.0,b
1051.0,4095.0,2757.0,3534.0,4095.0,4095.0,4095.0,4095.0,-0.96,9.8,4.8,-0.0,0.03,-0.14,0.0,b
1047.0,4095.0,2800.0,3534.0,4095.0,4095.0,4095.0,4095.0,-0.97,9.78,4.77,0.02,-0.02,-0.16,0.0,b
1067.0,4095.0,2803.0,3534.0,4095.0,4095.0,4095.0,4095.0,-1.0,9.87,4.7,0.01,0.04,-0.14,0.0,b
1050.0,4095.0,2813.0,3542.0,4095.0,4095.0,4095.0,4095.0,-1.02,9.79,4.87,0.02,-0.01,-0.15,0.0,b
1061.0,4095.0,2807.0,3531.0,4095.0,4095.0,4095.0,4095.0,-0.9,9.78,4.83,0.01,0.02,-0.14,0.0,b
1057.0,4095.0,2815.0,3542.0,4095.0,4095.0,4095.0,4095.0,-0.89,9.83,4.79,0.04,-0.03,-0.16,0.0,b
1054.0,4095.0,2799.0,3542.0,4095.0,4095.0,4095.0,4095.0,-0.99,9.76,4.76,0.01,0.01,-0.15,0.0,b
3600.0,3410.0,3504.0,3397.0,4095.0,4095.0,4095.0,4095.0,-0.46,9.83,4.51,-0.05,0.04,-0.15,0.0,b
3605.0,3405.0,3526.0,3425.0,4095.0,4095.0,4095.0,4095.0,-0.49,9.76,4.7,-0.02,-0.02,-0.15,0.0,b
3621.0,3393.0,3489.0,3411.0,4095.0,4095.0,4095.0,4095.0,-0.51,9.83,4.61,0.03,-0.03,-0.2,0.0,b
3619.0,3394.0,3467.0,3434.0,4095.0,4095.0,4095.0,4095.0,-0.59,9.82,4.41,0.02,-0.02,-0.17,0.0,b
3600.0,3395.0,3463.0,3440.0,4095.0,4095.0,4095.0,4095.0,-0.62,9.92,4.44,-0.0,0.02,-0.16,0.0,b
3618.0,3398.0,3461.0,3437.0,4095.0,4095.0,4095.0,4095.0,-0.49,9.81,4.58,0.0,-0.05,-0.17,0.0,b
3583.0,3405.0,3411.0,3448.0,4095.0,4095.0,4095.0,4095.0,-0.47,9.87,4.46,-0.0,0.03,-0.15,0.0,b
3616.0,3390.0,3408.0,3465.0,4095.0,4095.0,4095.0,4095.0,-0.49,9.87,4.53,0.01,-0.04,-0.19,0.0,b
3596.0,3411.0,3414.0,3467.0,4095.0,4095.0,4095.0,4095.0,-0.48,9.86,4.47,-0.02,-0.01,-0.19,0.0,b
3617.0,3402.0,3401.0,3453.0,4095.0,4095.0,4095.0,4095.0,-0.73,10.0,4.61,0.02,0.05,-0.17,0.0,b
3600.0,3411.0,3371.0,3444.0,4095.0,4095.0,4095.0,4095.0,-0.62,9.86,4.53,0.03,-0.0,-0.16,0.0,b
3611.0,3397.0,3361.0,3463.0,4095.0,4095.0,4095.0,4095.0,-0.45,9.86,4.55,-0.0,-0.03,-0.17,0.0,b
3615.0,3397.0,3360.0,3472.0,4095.0,4095.0,4095.0,4095.0,-0.55,9.85,4.62,0.0,0.03,-0.17,0.0,b
3616.0,3405.0,3351.0,3459.0,4095.0,4095.0,4095.0,4095.0,-0.58,9.86,4.54,0.01,0.04,-0.16,0.0,b
3626.0,3393.0,3343.0,3452.0,4095.0,4095.0,4095.0,4095.0,-0.63,9.87,4.53,0.02,-0.04,-0.17,0.0,b
3614.0,3393.0,3328.0,3472.0,4095.0,4095.0,4095.0,4095.0,-0.52,9.84,4.57,-0.01,0.01,-0.14,0.0,b
3619.0,3408.0,3337.0,3467.0,4095.0,4095.0,4095.0,4095.0,-0.45,9.89,4.64,0.03,-0.04,-0.2,0.0,b
3631.0,3408.0,3340.0,3472.0,4095.0,4095.0,4095.0,4095.0,-0.68,9.83,4.56,0.01,0.0,-0.18,0.0,b
3597.0,3410.0,3328.0,3450.0,4095.0,4095.0,4095.0,4095.0,-0.66,9.86,4.64,0.01,-0.01,-0.16,0.0,b
3583.0,3426.0,3329.0,3451.0,4095.0,4095.0,4095.0,4095.0,-0.69,9.84,4.59,0.02,0.0,-0.17,0.0,b
3300.0,955.0,3120.0,3493.0,4095.0,4095.0,4095.0,4095.0,-0.82,9.68,5.18,-0.0,-0.05,-0.16,0.0,b
3331.0,960.0,3131.0,3481.0,4095.0,4095.0,4095.0,4095.0,-0.89,9.75,5.14,0.03,0.03,-0.14,0.0,b
3326.0,968.0,3140.0,3525.0,4095.0,4095.0,4095.0,4095.0,-0.7,9.78,5.03,0.06,0.0,-0.14,0.0,b
3347.0,958.0,3144.0,3511.0,4095.0,4095.0,4095.0,4095.0,-0.79,9.73,4.84,0.04,-0.01,-0.14,0.0,b
3247.0,960.0,3137.0,3523.0,4095.0,4095.0,4095.0,4095.0,-0.8,9.84,4.86,0.01,0.05,-0.09,0.0,b
3173.0,960.0,3149.0,3521.0,4095.0,4095.0,4095.0,4095.0,-0.79,9.8,4.98,0.01,0.04,-0.11,0.0,b
3231.0,954.0,3152.0,3526.0,4095.0,4095.0,4095.0,4095.0,-0.73,9.79,4.9,-0.02,-0.05,-0.13,0.0,b
3309.0,962.0,3140.0,3543.0,4095.0,4095.0,4095.0,4095.0,-0.74,9.82,5.1,-0.02,0.04,-0.11,0.0,b
3312.0,956.0,3135.0,3571.0,4095.0,4095.0,4095.0,4095.0,-0.62,9.78,5.05,-0.01,-0.04,-0.16,0.0,b
3378.0,959.0,3145.0,3566.0,4095.0,4095.0,4095.0,4095.0,-0.8,9.78,5.15,0.0,0.03,-0.15,0.0,b
3393.0,953.0,3134.0,3568.0,4095.0,4095.0,4095.0,4095.0,-0.77,9.77,5.03,0.02,-0.04,-0.16,0.0,b
3408.0,977.0,3137.0,3579.0,4095.0,4095.0,4095.0,4095.0,-0.75,9.79,5.07,0.01,0.02,-0.14,0.0,b
3390.0,944.0,3127.0,3570.0,4095.0,4095.0,4095.0,4095.0,-0.63,9.84,5.07,0.03,-0.03,-0.17,0.0,b
3413.0,953.0,3118.0,3579.0,4095.0,4095.0,4095.0,4095.0,-0.71,9.75,5.14,0.01,0.03,-0.14,0.0,b
3426.0,947.0,3117.0,3581.0,4095.0,4095.0,4095.0,4095.0,-0.7,9.86,4.9,0.02,0.0,-0.15,0.0,b
3439.0,944.0,3107.0,3600.0,4095.0,4095.0,4095.0,4095.0,-0.73,9.76,4.98,-0.01,0.04,-0.13,0.0,b
3447.0,942.0,3110.0,3578.0,4095.0,4095.0,4095.0,4095.0,-0.73,9.9,4.95,-0.03,-0.01,-0.13,0.0,b
3442.0,944.0,3112.0,3583.0,4095.0,4095.0,4095.0,4095.0,-0.69,9.75,5.15,-0.03,0.03,-0.08,0.0,b
3458.0,931.0,3102.0,3554.0,4095.0,4095.0,4095.0,4095.0,-0.6,9.82,5.1,0.01,-0.02,-0.15,0.0,b
3445.0,950.0,3111.0,3570.0,4095.0,4095.0,4095.0,4095.0,-0.67,9.77,5.12,0.02,0.03,-0.16,0.0,b
4095.0,3877.0,2932.0,3613.0,4095.0,4095.0,4095.0,4095.0,-0.6,9.74,5.46,0.08,0.05,-0.14,0.0,b
4095.0,3877.0,2932.0,3613.0,4095.0,4095.0,4095.0,4095.0,-0.6,9.74,5.46,0.08,0.05,-0.14,0.0,b
4095.0,3856.0,2925.0,3602.0,4095.0,4095.0,4095.0,4095.0,-0.56,9.74,5.45,0.08,0.01,-0.18,0.0,b
4095.0,3831.0,2930.0,3612.0,4095.0,4095.0,4095.0,4095.0,-0.56,9.85,5.33,0.06,0.03,-0.15,0.0,b
4095.0,3841.0,2929.0,3622.0,4095.0,4095.0,4095.0,4095.0,-0.48,9.75,5.36,0.07,-0.01,-0.17,0.0,b
4095.0,3851.0,2930.0,3611.0,4095.0,4095.0,4095.0,4095.0,-0.67,9.8,5.27,-0.0,0.02,-0.15,0.0,b
4095.0,3837.0,2941.0,3634.0,4095.0,4095.0,4095.0,4095.0,-0.72,9.85,5.32,0.03,0.03,-0.15,0.0,b
4095.0,3853.0,2938.0,3637.0,4095.0,4095.0,4095.0,4095.0,-0.68,9.73,5.35,0.01,0.01,-0.15,0.0,b
4095.0,3871.0,2943.0,3664.0,4095.0,4095.0,4095.0,4095.0,-0.72,9.86,5.2,0.03,0.0,-0.17,0.0,b
4095.0,3839.0,2935.0,3649.0,4095.0,4095.0,4095.0,4095.0,-0.64,9.72,5.34,-0.0,-0.0,-0.11,0.0,b
4095.0,3839.0,2951.0,3657.0,4095.0,4095.0,4095.0,4095.0,-0.39,9.79,5.49,-0.01,0.02,-0.11,0.0,b
4095.0,3851.0,2947.0,3686.0,4095.0,4095.0,4095.0,4095.0,-0.4,9.77,5.5,0.03,0.01,-0.14,0.0,b
4095.0,3865.0,2942.0,3675.0,4095.0,4095.0,4095.0,4095.0,-0.53,9.79,5.4,0.02,0.02,-0.17,0.0,b
4095.0,3845.0,2958.0,3683.0,4095.0,4095.0,4095.0,4095.0,-0.7,9.88,5.15,0.05,0.02,-0.17,0.0,b
4095.0,3875.0,2946.0,3669.0,4095.0,4095.0,4095.0,4095.0,-0.67,9.82,5.17,-0.02,-0.02,-0.17,0.0,b
4095.0,3875.0,2950.0,3691.0,4095.0,4095.0,4095.0,4095.0,-0.62,9.79,5.37,-0.0,-0.0,-0.16,0.0,b
4095.0,3857.0,2950.0,3694.0,4095.0,4095.0,4095.0,4095.0,-0.59,9.72,5.43,-0.02,-0.01,-0.15,0.0,b
4095.0,3885.0,2935.0,3696.0,4095.0,4095.0,4095.0,4095.0,-0.59,9.84,5.35,0.03,0.01,-0.17,0.0,b
4095.0,3861.0,2947.0,3713.0,4095.0,4095.0,4095.0,4095.0,-0.74,9.77,5.26,-0.02,0.0,-0.17,0.0,b
4095.0,3854.0,2922.0,3727.0,4095.0,4095.0,4095.0,4095.0,-0.77,9.82,5.4,0.0,0.01,-0.15,0.0,b
1489.0,4095.0,3551.0,3414.0,4095.0,4095.0,4095.0,4095.0,-0.92,9.65,5.08,-0.0,0.03,-0.13,0.0,b
1500.0,4095.0,3543.0,3456.0,4095.0,4095.0,4095.0,4095.0,-0.82,9.81,4.93,0.01,-0.04,-0.16,0.0,b
1493.0,4095.0,3568.0,3455.0,4095.0,4095.0,4095.0,4095.0,-0.95,9.72,5.15,0.02,0.03,-0.15,0.0,b
1500.0,4095.0,3554.0,3450.0,4095.0,4095.0,4095.0,4095.0,-0.84,9.82,4.84,0.02,-0.01,-0.15,0.0,b
1488.0,4095.0,3557.0,3472.0,4095.0,4095.0,4095.0,4095.0,-0.85,9.75,4.97,-0.0,-0.03,-0.18,0.0,b
1495.0,4095.0,3539.0,3472.0,4095.0,4095.0,4095.0,4095.0,-1.04,9.79,5.04,-0.02,0.03,-0.14,0.0,b
1494.0,4095.0,3542.0,3467.0,4095.0,4095.0,4095.0,4095.0,-0.96,9.77,5.09,0.0,-0.03,-0.15,0.0,b
1482.0,4095.0,3547.0,3493.0,4095.0,4095.0,4095.0,4095.0,-0.92,9.78,5.09,-0.0,0.0,-0.13,0.0,b
1491.0,4095.0,3536.0,3487.0,4095.0,4095.0,4095.0,4095.0,-0.92,9.75,5.06,0.02,-0.04,-0.16,0.0,b
1483.0,4095.0,3541.0,3501.0,4095.0,4095.0,4095.0,4095.0,-0.91,9.81,4.92,0.02,0.02,-0.16,0.0,b
1475.0,4095.0,3565.0,3513.0,4095.0,4095.0,4095.0,4095.0,-0.92,9.74,5.04,0.01,-0.04,-0.16,0.0,b
1485.0,4095.0,3539.0,3510.0,4095.0,4095.0,4095.0,4095.0,-0.91,9.78,5.1,-0.01,0.03,-0.13,0.0,b
1487.0,4095.0,3538.0,3504.0,4095.0,4095.0,4095.0,4095.0,-0.88,9.74,5.05,0.01,-0.03,-0.15,0.0,b
1495.0,4095.0,3518.0,3520.0,4095.0,4095.0,4095.0,4095.0,-0.93,9.82,5.08,0.01,0.02,-0.16,0.0,b
1478.0,4095.0,3525.0,3509.0,4095.0,4095.0,4095.0,4095.0,-0.87,9.75,5.09,0.02,-0.01,-0.14,0.0,b
1488.0,4095.0,3532.0,3522.0,4095.0,4095.0,4095.0,4095.0,-0.92,9.84,5.03,-0.01,0.01,-0.15,0.0,b
1481.0,4095.0,3536.0,3531.0,4095.0,4095.0,4095.0,4095.0,-0.91,9.75,5.09,0.02,-0.06,-0.18,0.0,b
1456.0,4095.0,3542.0,3521.0,4095.0,4095.0,4095.0,4095.0,-0.92,9.85,4.87,-0.02,0.09,-0.11,0.0,b
1463.0,4095.0,3562.0,3518.0,4095.0,4095.0,4095.0,4095.0,-0.93,9.75,5.03,0.03,-0.04,-0.16,0.0,b
1453.0,4095.0,3536.0,3518.0,4095.0,4095.0,4095.0,4095.0,-0.9,9.72,5.04,-0.02,0.02,-0.12,0.0,b
1378.0,4095.0,3376.0,3346.0,4095.0,4095.0,4095.0,4095.0,-0.98,9.71,4.85,-0.01,0.02,-0.14,0.0,b
1378.0,4095.0,3376.0,3346.0,4095.0,4095.0,4095.0,4095.0,-0.98,9.71,4.85,-0.01,0.02,-0.14,0.0,b
1435.0,4095.0,3385.0,3371.0,4095.0,4095.0,4095.0,4095.0,-0.97,9.81,4.82,0.0,0.0,-0.15,0.0,b
1450.0,4095.0,3386.0,3379.0,4095.0,4095.0,4095.0,4095.0,-0.96,9.7,4.93,0.01,0.01,-0.14,0.0,b
1417.0,4095.0,3394.0,3377.0,4095.0,4095.0,4095.0,4095.0,-0.96,9.73,4.82,-0.01,-0.01,-0.13,0.0,b
1415.0,4095.0,3392.0,3391.0,4095.0,4095.0,4095.0,4095.0,-0.96,9.77,4.86,0.01,0.01,-0.16,0.0,b
1360.0,4095.0,3399.0,3406.0,4095.0,4095.0,4095.0,4095.0,-1.03,9.76,4.72,-0.01,-0.02,-0.15,0.0,b
1360.0,4095.0,3419.0,3405.0,4095.0,4095.0,4095.0,4095.0,-0.94,9.82,4.82,0.01,0.02,-0.15,0.0,b
1382.0,4095.0,3434.0,3429.0,4095.0,4095.0,4095.0,4095.0,-0.87,9.75,4.79,-0.03,-0.0,-0.14,0.0,b
1386.0,4095.0,3408.0,3423.0,4095.0,4095.0,4095.0,4095.0,-0.94,9.82,4.73,0.0,0.03,-0.15,0.0,b
1381.0,4095.0,3427.0,3419.0,4095.0,4095.0,4095.0,4095.0,-1.04,9.77,4.75,-0.04,-0.02,-0.15,0.0,b
1440.0,4095.0,3442.0,3434.0,4095.0,4095.0,4095.0,4095.0,-1.06,9.77,4.94,-0.03,-0.03,-0.16,0.0,b
1454.0,4095.0,3455.0,3434.0,4095.0,4095.0,4095.0,4095.0,-0.94,9.75,5.09,-0.0,-0.01,-0.14,0.0,b
1422.0,4095.0,3438.0,3440.0,4095.0,4095.0,4095.0,4095.0,-0.87,9.78,5.04,0.02,0.02,-0.14,0.0,b
1356.0,4095.0,3457.0,3438.0,4095.0,4095.0,4095.0,4095.0,-0.8,9.74,4.85,0.04,-0.02,-0.16,0.0,b
1267.0,4095.0,3443.0,3440.0,4095.0,4095.0,4095.0,4095.0,-0.92,9.8,4.72,0.01,0.04,-0.14,0.0,b
1296.0,4095.0,3446.0,3451.0,4095.0,4095.0,4095.0,4095.0,-0.95,9.84,4.71,0.02,-0.01,-0.16,0.0,b
1235.0,4095.0,3469.0,3456.0,4095.0,4095.0,4095.0,4095.0,-1.07,9.79,4.89,-0.02,0.02,-0.15,0.0,b
1185.0,4095.0,3461.0,3466.0,4095.0,4095.0,4095.0,4095.0,-0.98,9.82,4.9,0.0,-0.01,-0.15,0.0,b
1223.0,4095.0,3471.0,3442.0,4095.0,4095.0,4095.0,4095.0,-0.9,9.77,4.93,0.0,0.0,-0.15,0.0,b
4095.0,3920.0,3100.0,3387.0,4095.0,4095.0,4095.0,4095.0,-1.19,9.79,4.79,-0.03,-0.04,-0.14,0.0,b
4095.0,3906.0,3099.0,3398.0,4095.0,4095.0,4095.0,4095.0,-1.03,9.69,4.85,-0.0,0.02,-0.14,0.0,b
4095.0,3909.0,3114.0,3415.0,4095.0,4095.0,4095.0,4095.0,-1.12,9.76,4.76,-0.02,-0.01,-0.15,0.0,b
4095.0,3921.0,3101.0,3418.0,4095.0,4095.0,4095.0,4095.0,-1.12,9.82,4.64,0.05,-0.04,-0.14,0.0,b
4095.0,3914.0,3094.0,3426.0,4095.0,4095.0,4095.0,4095.0,-1.16,9.78,4.67,0.0,-0.03,-0.16,0.0,b
4095.0,3950.0,3098.0,3439.0,4095.0,4095.0,4095.0,4095.0,-1.17,9.84,4.76,0.0,0.0,-0.14,0.0,b
4095.0,3900.0,3097.0,3437.0,4095.0,4095.0,4095.0,4095.0,-1.18,9.73,4.73,-0.0,-0.05,-0.15,0.0,b
4095.0,3920.0,3101.0,3467.0,4095.0,4095.0,4095.0,4095.0,-1.07,9.8,4.81,-0.0,0.01,-0.14,0.0,b
4095.0,3905.0,3110.0,3452.0,4095.0,4095.0,4095.0,4095.0,-1.01,9.74,4.84,-0.01,0.02,-0.15,0.0,b
4095.0,3927.0,3095.0,3430.0,4095.0,4095.0,4095.0,4095.0,-1.1,9.83,4.75,0.05,-0.02,-0.17,0.0,b
4095.0,3920.0,3095.0,3455.0,4095.0,4095.0,4095.0,4095.0,-1.22,9.73,4.66,-0.01,-0.02,-0.16,0.0,b
4095.0,3891.0,3097.0,3472.0,4095.0,4095.0,4095.0,4095.0,-1.13,9.82,4.66,-0.06,0.02,-0.13,0.0,b
4095.0,3823.0,3066.0,3501.0,4095.0,4095.0,4095.0,4095.0,-1.19,9.64,5.13,-0.03,0.02,-0.13,0.0,b
4095.0,3799.0,3083.0,3488.0,4095.0,4095.0,4095.0,4095.0,-1.04,9.83,4.92,0.02,-0.04,-0.19,0.0,b
4005.0,3825.0,3069.0,3499.0,4095.0,4095.0,4095.0,4095.0,-1.13,9.73,4.83,0.0,0.02,-0.15,0.0,b
3806.0,3824.0,3071.0,3500.0,4095.0,4095.0,4095.0,4095.0,-1.16,9.85,4.88,-0.01,0.03,-0.15,0.0,b
3775.0,3804.0,3071.0,3498.0,4095.0,4095.0,4095.0,4095.0,-1.07,9.74,4.88,0.01,0.0,-0.15,0.0,b
3751.0,3836.0,3069.0,3501.0,4095.0,4095.0,4095.0,4095.0,-1.14,9.79,4.85,-0.0,0.01,-0.16,0.0,b
3703.0,3824.0,3070.0,3516.0,4095.0,4095.0,4095.0,4095.0,-1.14,9.69,4.91,0.03,-0.01,-0.13,0.0,b
3680.0,3739.0,3071.0,3510.0,4095.0,4095.0,4095.0,4095.0,-1.22,9.84,4.92,0.0,-0.03,-0.13,0.0,b
1989.0,4095.0,3618.0,3401.0,4095.0,4095.0,4095.0,4095.0,-0.54,9.75,5.45,0.02,-0.06,-0.17,0.0,b
2085.0,4095.0,3600.0,3427.0,4095.0,4095.0,4095.0,4095.0,-0.72,9.7,5.53,-0.02,0.07,-0.15,0.0,b
1979.0,4095.0,3611.0,3440.0,4095.0,4095.0,4095.0,4095.0,-0.55,9.76,5.4,-0.02,-0.02,-0.14,0.0,b
2079.0,4095.0,3615.0,3431.0,4095.0,4095.0,4095.0,4095.0,-0.64,9.69,5.46,0.01,0.03,-0.15,0.0,b
1968.0,4095.0,3599.0,3421.0,4095.0,4095.0,4095.0,4095.0,-0.59,9.7,5.53,0.01,-0.0,-0.16,0.0,b
1695.0,4095.0,3576.0,3436.0,4095.0,4095.0,4095.0,4095.0,-0.48,9.84,5.23,-0.01,-0.04,-0.18,0.0,b
1639.0,4095.0,3579.0,3426.0,4095.0,4095.0,4095.0,4095.0,-0.65,9.75,5.5,0.0,0.05,-0.15,0.0,b
1505.0,4095.0,3599.0,3447.0,4095.0,4095.0,4095.0,4095.0,-0.62,9.74,5.48,-0.01,-0.03,-0.14,0.0,b
1392.0,4095.0,3574.0,3455.0,4095.0,4095.0,4095.0,4095.0,-0.65,9.78,5.49,0.02,0.01,-0.16,0.0,b
1302.0,4095.0,3567.0,3445.0,4095.0,4095.0,4095.0,4095.0,-0.73,9.83,5.35,0.03,0.0,-0.17,0.0,b
1249.0,4095.0,3562.0,3449.0,4095.0,4095.0,4095.0,4095.0,-0.6,9.71,5.5,-0.01,0.0,-0.12,0.0,b
1138.0,4095.0,3567.0,3472.0,4095.0,4095.0,4095.0,4095.0,-0.62,9.74,5.55,0.0,0.04,-0.16,0.0,b
1123.0,4095.0,3554.0,3466.0,4095.0,4095.0,4095.0,4095.0,-0.67,9.67,5.66,0.03,-0.01,-0.16,0.0,b
1121.0,4095.0,3574.0,3470.0,4095.0,4095.0,4095.0,4095.0,-0.79,9.74,5.55,0.02,-0.0,-0.15,0.0,b
1136.0,4095.0,3569.0,3484.0,4095.0,4095.0,4095.0,4095.0,-0.73,9.75,5.57,0.05,-0.02,-0.14,0.0,b
1073.0,4095.0,3554.0,3490.0,4095.0,4095.0,4095.0,4095.0,-0.65,9.77,5.42,0.04,-0.02,-0.14,0.0,b
1057.0,4095.0,3556.0,3482.0,4095.0,4095.0,4095.0,4095.0,-0.52,9.8,5.3,0.04,-0.02,-0.17,0.0,b
991.0,4095.0,3550.0,3504.0,4095.0,4095.0,4095.0,4095.0,-0.57,9.82,5.32,-0.04,-0.04,-0.17,0.0,b
972.0,4095.0,3541.0,3495.0,4095.0,4095.0,4095.0,4095.0,-0.82,9.79,5.48,-0.02,0.06,-0.11,0.0,b
976.0,4095.0,3582.0,3504.0,4095.0,4095.0,4095.0,4095.0,-0.72,9.72,5.54,-0.0,-0.09,-0.15,0.0,b
3024.0,4095.0,2559.0,3462.0,4095.0,4095.0,4095.0,4095.0,-0.92,9.81,5.27,-0.05,-0.05,-0.15,0.0,b
3025.0,4095.0,2589.0,3467.0,4095.0,4095.0,4095.0,4095.0,-0.79,9.77,5.38,-0.01,-0.03,-0.16,0.0,b
3047.0,4095.0,2605.0,3472.0,4095.0,4095.0,4095.0,4095.0,-0.91,9.8,5.08,0.01,0.03,-0.16,0.0,b
3043.0,4095.0,2591.0,3477.0,4095.0,4095.0,4095.0,4095.0,-0.72,9.8,5.15,-0.0,0.02,-0.12,0.0,b
3042.0,4095.0,2618.0,3472.0,4095.0,4095.0,4095.0,4095.0,-0.85,9.81,5.15,0.0,0.01,-0.15,0.0,b
3031.0,4095.0,2626.0,3487.0,4095.0,4095.0,4095.0,4095.0,-0.94,9.78,5.06,-0.02,0.02,-0.12,0.0,b
3027.0,4095.0,2615.0,3487.0,4095.0,4095.0,4095.0,4095.0,-0.78,9.79,5.11,-0.01,-0.01,-0.12,0.0,b
3034.0,4095.0,2623.0,3488.0,4095.0,4095.0,4095.0,4095.0,-0.76,9.79,5.14,-0.03,0.03,-0.14,0.0,b
3024.0,4095.0,2642.0,3509.0,4095.0,4095.0,4095.0,4095.0,-0.83,9.75,5.37,-0.0,-0.0,-0.16,0.0,b
3026.0,4095.0,2639.0,3499.0,4095.0,4095.0,4095.0,4095.0,-0.72,9.79,5.21,-0.01,0.04,-0.14,0.0,b
3009.0,4095.0,2634.0,3506.0,4095.0,4095.0,4095.0,4095.0,-0.84,9.76,5.2,0.05,-0.02,-0.16,0.0,b
3017.0,4095.0,2654.0,3513.0,4095.0,4095.0,4095.0,4095.0,-0.76,9.85,4.97,-0.01,0.02,-0.13,0.0,b
3010.0,4095.0,2640.0,3507.0,4095.0,4095.0,4095.0,4095.0,-0.74,9.85,5.17,0.02,-0.03,-0.16,0.0,b
3007.0,4095.0,2640.0,3503.0,4095.0,4095.0,4095.0,4095.0,-0.75,9.76,5.21,-0.02,-0.02,-0.16,0.0,b
2986.0,4095.0,2649.0,3503.0,4095.0,4095.0,4095.0,4095.0,-0.85,9.79,5.14,0.0,0.01,-0.15,0.0,b
2960.0,4095.0,2647.0,3518.0,4095.0,4095.0,4095.0,4095.0,-0.9,9.72,5.12,-0.03,0.0,-0.15,0.0,b
2827.0,4095.0,2642.0,3521.0,4095.0,4095.0,4095.0,4095.0,-0.91,9.82,5.12,-0.05,0.0,-0.14,0.0,b
2811.0,4095.0,2641.0,3509.0,4095.0,4095.0,4095.0,4095.0,-0.6,9.85,5.15,-0.03,-0.04,-0.12,0.0,b
2802.0,4095.0,2634.0,3518.0,4095.0,4095.0,4095.0,4095.0,-0.54,9.81,5.04,-0.06,0.01,-0.14,0.0,b
2791.0,4095.0,2610.0,3520.0,4095.0,4095.0,4095.0,4095.0,-0.73,9.82,4.98,-0.12,-0.07,-0.15,0.0,b
3562.0,3343.0,3121.0,3372.0,4095.0,4095.0,4095.0,4095.0,-0.59,9.89,5.24,0.05,-0.02,-0.12,0.0,b
3557.0,3344.0,3127.0,3375.0,4095.0,4095.0,4095.0,4095.0,-0.46,9.87,5.3,0.05,0.11,-0.11,0.0,b
3561.0,3340.0,3131.0,3370.0,4095.0,4095.0,4095.0,4095.0,-0.6,9.78,5.37,0.02,-0.01,-0.14,0.0,b
3561.0,3326.0,3134.0,3383.0,4095.0,4095.0,4095.0,4095.0,-0.55,9.84,5.37,0.01,0.0,-0.14,0.0,b
3551.0,3339.0,3123.0,3381.0,4095.0,4095.0,4095.0,4095.0,-0.72,9.8,5.4,-0.01,0.02,-0.14,0.0,b
3572.0,3336.0,3120.0,3391.0,4095.0,4095.0,4095.0,4095.0,-0.58,9.75,5.45,-0.01,-0.03,-0.14,0.0,b
3570.0,3349.0,3127.0,3383.0,4095.0,4095.0,4095.0,4095.0,-0.51,9.75,5.59,-0.04,-0.0,-0.12,0.0,b
3558.0,3353.0,3120.0,3382.0,4095.0,4095.0,4095.0,4095.0,-0.53,9.77,5.61,0.03,-0.01,-0.13,0.0,b
3553.0,3373.0,3141.0,3395.0,4095.0,4095.0,4095.0,4095.0,-0.35,9.73,5.58,0.01,-0.01,-0.14,0.0,b
3550.0,3362.0,3125.0,3383.0,4095.0,4095.0,4095.0,4095.0,-0.28,9.77,5.54,0.01,0.01,-0.14,0.0,b
3548.0,3355.0,3138.0,3394.0,4095.0,4095.0,4095.0,4095.0,-0.5,9.72,5.64,0.03,0.03,-0.17,0.0,b
3556.0,3440.0,3133.0,3399.0,4095.0,4095.0,4095.0,4095.0,-0.6,9.97,5.48,0.1,-0.15,-0.33,0.0,b
3552.0,3455.0,3137.0,3396.0,4095.0,4095.0,4095.0,4095.0,-0.83,9.78,5.35,0.07,-0.1,-0.24,0.0,b
3567.0,3443.0,3125.0,3418.0,4095.0,4095.0,4095.0,4095.0,-0.63,9.78,5.43,0.01,0.09,-0.08,0.0,b
3568.0,3443.0,3127.0,3408.0,4095.0,4095.0,4095.0,4095.0,-0.61,9.78,5.45,0.02,0.02,-0.1,0.0,b
3543.0,3473.0,3132.0,3399.0,4095.0,4095.0,4095.0,4095.0,-0.57,9.79,5.49,0.03,0.1,-0.08,0.0,b
3566.0,3453.0,3139.0,3412.0,4095.0,4095.0,4095.0,4095.0,-0.43,9.78,5.27,0.05,-0.01,-0.11,0.0,b
3547.0,3465.0,3129.0,3425.0,4095.0,4095.0,4095.0,4095.0,-0.42,9.75,5.35,0.03,0.02,-0.13,0.0,b
3549.0,3447.0,3139.0,3405.0,4095.0,4095.0,4095.0,4095.0,-0.43,9.83,5.3,0.01,0.03,-0.13,0.0,b
3554.0,3459.0,3136.0,3408.0,4095.0,4095.0,4095.0,4095.0,-0.45,9.76,5.34,0.03,0.01,-0.14,0.0,b
3883.0,3896.0,3162.0,3408.0,4095.0,4095.0,4095.0,4095.0,-0.49,10.06,5.03,0.02,0.01,-0.14,0.0,b
3881.0,3894.0,3152.0,3435.0,4095.0,4095.0,4095.0,4095.0,-0.62,9.89,5.16,0.03,0.03,-0.15,0.0,b
3888.0,3894.0,3143.0,3430.0,4095.0,4095.0,4095.0,4095.0,-0.66,9.89,5.1,-0.02,-0.02,-0.14,0.0,b
3883.0,3883.0,3162.0,3434.0,4095.0,4095.0,4095.0,4095.0,-0.62,9.81,5.26,0.05,-0.03,-0.16,0.0,b
3888.0,3920.0,3171.0,3449.0,4095.0,4095.0,4095.0,4095.0,-0.62,9.85,5.08,-0.03,0.01,-0.14,0.0,b
3884.0,3888.0,3161.0,3441.0,4095.0,4095.0,4095.0,4095.0,-0.72,9.82,5.3,0.04,-0.03,-0.18,0.0,b
3883.0,3894.0,3168.0,3437.0,4095.0,4095.0,4095.0,4095.0,-0.71,9.76,5.23,-0.0,0.02,-0.13,0.0,b
3883.0,3904.0,3175.0,3460.0,4095.0,4095.0,4095.0,4095.0,-0.61,9.87,5.12,0.03,-0.02,-0.16,0.0,b
3898.0,3888.0,3158.0,3456.0,4095.0,4095.0,4095.0,4095.0,-0.65,9.79,5.15,0.0,0.01,-0.15,0.0,b
3899.0,3909.0,3158.0,3472.0,4095.0,4095.0,4095.0,4095.0,-0.61,9.87,5.18,0.03,-0.01,-0.17,0.0,b
3888.0,3903.0,3152.0,3472.0,4095.0,4095.0,4095.0,4095.0,-0.6,9.82,5.1,0.02,0.01,-0.15,0.0,b
3886.0,3897.0,3171.0,3486.0,4095.0,4095.0,4095.0,4095.0,-0.67,9.81,5.23,-0.0,0.03,-0.15,0.0,b
3911.0,3909.0,3166.0,3483.0,4095.0,4095.0,4095.0,4095.0,-0.71,9.79,5.16,0.02,0.0,-0.16,0.0,b
3908.0,3916.0,3160.0,3499.0,4095.0,4095.0,4095.0,4095.0,-0.71,9.79,5.23,0.02,-0.01,-0.15,0.0,b
3886.0,3906.0,3162.0,3502.0,4095.0,4095.0,4095.0,4095.0,-0.65,9.8,5.18,-0.02,0.04,-0.13,0.0,b
3899.0,3931.0,3151.0,3499.0,4095.0,4095.0,4095.0,4095.0,-0.66,9.77,5.19,0.03,-0.0,-0.15,0.0,b
3893.0,3911.0,3135.0,3498.0,4095.0,4095.0,4095.0,4095.0,-0.67,9.77,5.09,-0.02,0.03,-0.13,0.0,b
3923.0,3917.0,3147.0,3482.0,4095.0,4095.0,4095.0,4095.0,-0.61,9.7,5.18,0.02,-0.03,-0.12,0.0,b
3910.0,3914.0,3154.0,3494.0,4095.0,4095.0,4095.0,4095.0,-0.67,9.81,5.22,-0.01,-0.0,-0.15,0.0,b
3919.0,3894.0,3129.0,3504.0,4095.0,4095.0,4095.0,4095.0,-0.7,9.82,5.22,0.02,-0.03,-0.15,0.0,b
4035.0,3302.0,2832.0,3391.0,4095.0,4095.0,4095.0,4095.0,-0.57,9.9,4.96,-0.03,-0.01,-0.16,0.0,b
4066.0,3305.0,2839.0,3400.0,4095.0,4095.0,4095.0,4095.0,-0.71,9.77,5.12,0.01,0.01,-0.17,0.0,b
4046.0,3301.0,2841.0,3408.0,4095.0,4095.0,4095.0,4095.0,-0.71,9.9,4.89,-0.02,0.0,-0.13,0.0,b
4048.0,3303.0,2836.0,3411.0,4095.0,4095.0,4095.0,4095.0,-0.59,9.8,4.93,0.05,0.01,-0.16,0.0,b
4027.0,3314.0,2832.0,3432.0,4095.0,4095.0,4095.0,4095.0,-0.54,9.86,4.98,-0.01,-0.0,-0.16,0.0,b
4049.0,3306.0,2835.0,3429.0,4095.0,4095.0,4095.0,4095.0,-0.64,9.82,5.01,0.02,-0.01,-0.17,0.0,b
4039.0,3302.0,2853.0,3435.0,4095.0,4095.0,4095.0,4095.0,-0.79,9.77,5.13,-0.01,0.02,-0.17,0.0,b
4049.0,3307.0,2854.0,3451.0,4095.0,4095.0,4095.0,4095.0,-0.65,9.74,5.08,0.01,-0.04,-0.16,0.0,b
4030.0,3296.0,2850.0,3440.0,4095.0,4095.0,4095.0,4095.0,-0.73,9.81,5.02,0.04,0.01,-0.17,0.0,b
4027.0,3300.0,2847.0,3445.0,4095.0,4095.0,4095.0,4095.0,-0.73,9.84,4.89,0.01,-0.02,-0.17,0.0,b
4041.0,3306.0,2857.0,3466.0,4095.0,4095.0,4095.0,4095.0,-0.75,9.83,4.96,0.02,0.03,-0.16,0.0,b
4037.0,3310.0,2853.0,3472.0,4095.0,4095.0,4095.0,4095.0,-0.64,9.86,4.96,0.02,-0.01,-0.15,0.0,b
4047.0,3302.0,2851.0,3477.0,4095.0,4095.0,4095.0,4095.0,-0.67,9.82,4.98,0.01,0.06,-0.14,0.0,b
4017.0,3314.0,2843.0,3497.0,4095.0,4095.0,4095.0,4095.0,-0.74,9.83,5.01,0.0,-0.03,-0.16,0.0,b
4017.0,3310.0,2863.0,3495.0,4095.0,4095.0,4095.0,4095.0,-0.62,9.82,5.06,0.01,-0.0,-0.16,0.0,b
4033.0,3312.0,2858.0,3499.0,4095.0,4095.0,4095.0,4095.0,-0.76,9.86,4.97,-0.01,0.02,-0.14,0.0,b
4023.0,3311.0,2854.0,3486.0,4095.0,4095.0,4095.0,4095.0,-0.67,9.8,5.08,0.04,0.01,-0.15,0.0,b
4006.0,3307.0,2838.0,3503.0,4095.0,4095.0,4095.0,4095.0,-0.73,9.86,4.9,-0.03,-0.01,-0.14,0.0,b
4012.0,3307.0,2843.0,3481.0,4095.0,4095.0,4095.0,4095.0,-0.76,9.83,5.07,0.04,0.04,-0.16,0.0,b
3984.0,3312.0,2844.0,3495.0,4095.0,4095.0,4095.0,4095.0,-0.67,9.89,4.92,-0.05,-0.01,-0.11,0.0,b
3668.0,3739.0,2391.0,3401.0,4095.0,4095.0,4095.0,4095.0,-0.56,9.96,4.99,0.01,-0.01,-0.16,0.0,b
3599.0,3727.0,2389.0,3396.0,4095.0,4095.0,4095.0,4095.0,-0.54,9.86,5.09,0.03,0.02,-0.14,0.0,b
3597.0,3703.0,2399.0,3397.0,4095.0,4095.0,4095.0,4095.0,-0.49,9.91,5.05,0.01,-0.02,-0.17,0.0,b
3558.0,3687.0,2397.0,3403.0,4095.0,4095.0,4095.0,4095.0,-0.51,9.85,5.12,0.05,0.03,-0.15,0.0,b
3523.0,3677.0,2396.0,3408.0,4095.0,4095.0,4095.0,4095.0,-0.52,9.88,5.05,-0.01,-0.01,-0.15,0.0,b
3495.0,3687.0,2387.0,3419.0,4095.0,4095.0,4095.0,4095.0,-0.48,9.88,5.05,0.03,0.02,-0.16,0.0,b
3457.0,3707.0,2388.0,3415.0,4095.0,4095.0,4095.0,4095.0,-0.62,9.79,5.19,0.01,-0.01,-0.15,0.0,b
3393.0,3696.0,2399.0,3415.0,4095.0,4095.0,4095.0,4095.0,-0.49,9.9,5.09,0.03,0.01,-0.15,0.0,b
3390.0,3695.0,2402.0,3426.0,4095.0,4095.0,4095.0,4095.0,-0.57,9.78,5.13,0.03,-0.0,-0.16,0.0,b
3376.0,3675.0,2411.0,3439.0,4095.0,4095.0,4095.0,4095.0,-0.51,9.89,4.97,0.02,-0.02,-0.16,0.0,b
3347.0,3686.0,2405.0,3421.0,4095.0,4095.0,4095.0,4095.0,-0.58,9.75,5.16,0.03,-0.0,-0.15,0.0,b
3344.0,3664.0,2396.0,3439.0,4095.0,4095.0,4095.0,4095.0,-0.55,9.83,5.04,0.0,0.01,-0.16,0.0,b
3344.0,3676.0,2400.0,3461.0,4095.0,4095.0,4095.0,4095.0,-0.63,9.83,5.03,0.04,-0.01,-0.16,0.0,b
3329.0,3689.0,2399.0,3451.0,4095.0,4095.0,4095.0,4095.0,-0.51,9.79,5.03,-0.0,-0.03,-0.16,0.0,b
3315.0,3671.0,2397.0,3435.0,4095.0,4095.0,4095.0,4095.0,-0.5,9.88,5.07,0.01,0.02,-0.17,0.0,b
3316.0,3664.0,2406.0,3454.0,4095.0,4095.0,4095.0,4095.0,-0.61,9.78,5.05,0.0,-0.02,-0.16,0.0,b
3315.0,3673.0,2391.0,3453.0,4095.0,4095.0,4095.0,4095.0,-0.6,9.85,5.03,0.02,0.04,-0.16,0.0,b
3307.0,3663.0,2403.0,3446.0,4095.0,4095.0,4095.0,4095.0,-0.62,9.8,5.06,-0.01,-0.03,-0.15,0.0,b
3315.0,3696.0,2400.0,3456.0,4095.0,4095.0,4095.0,4095.0,-0.62,9.84,5.14,0.0,0.04,-0.14,0.0,b
3311.0,3687.0,2394.0,3457.0,4095.0,4095.0,4095.0,4095.0,-0.55,9.77,5.11,0.02,-0.02,-0.15,0.0,b
3466.0,3971.0,2400.0,3328.0,4095.0,4095.0,4095.0,4095.0,-0.64,9.59,5.27,-0.03,0.02,-0.1,0.0,b
3459.0,3991.0,2427.0,3327.0,4095.0,4095.0,4095.0,4095.0,-0.66,9.75,5.14,0.02,0.0,-0.15,0.0,b
3455.0,3985.0,2422.0,3329.0,4095.0,4095.0,4095.0,4095.0,-0.65,9.76,5.11,0.02,-0.02,-0.15,0.0,b
3445.0,3973.0,2431.0,3318.0,4095.0,4095.0,4095.0,4095.0,-0.73,9.84,4.99,0.01,-0.01,-0.14,0.0,b
3392.0,3975.0,2426.0,3283.0,4095.0,4095.0,4095.0,4095.0,-0.65,9.69,4.99,-0.01,0.01,-0.14,0.0,b
3371.0,3987.0,2433.0,3308.0,4095.0,4095.0,4095.0,4095.0,-0.66,9.76,5.12,-0.0,0.02,-0.17,0.0,b
3342.0,4001.0,2443.0,3316.0,4095.0,4095.0,4095.0,4095.0,-0.75,9.77,5.15,0.04,0.01,-0.15,0.0,b
3329.0,3967.0,2438.0,3330.0,4095.0,4095.0,4095.0,4095.0,-0.64,9.82,5.13,0.0,0.03,-0.14,0.0,b
3305.0,3976.0,2441.0,3334.0,4095.0,4095.0,4095.0,4095.0,-0.6,9.79,5.1,0.04,0.0,-0.15,0.0,b
3290.0,3961.0,2442.0,3342.0,4095.0,4095.0,4095.0,4095.0,-0.54,9.83,4.93,-0.01,0.01,-0.16,0.0,b
3254.0,3971.0,2448.0,3344.0,4095.0,4095.0,4095.0,4095.0,-0.53,9.7,5.15,-0.02,-0.01,-0.18,0.0,b
3255.0,3984.0,2427.0,3353.0,4095.0,4095.0,4095.0,4095.0,-0.75,9.78,5.24,-0.0,-0.01,-0.17,0.0,b
3251.0,3991.0,2438.0,3359.0,4095.0,4095.0,4095.0,4095.0,-0.74,9.79,5.19,0.04,0.03,-0.16,0.0,b
3230.0,3965.0,2440.0,3375.0,4095.0,4095.0,4095.0,4095.0,-0.67,9.87,5.19,0.02,-0.01,-0.14,0.0,b
3219.0,3973.0,2433.0,3345.0,4095.0,4095.0,4095.0,4095.0,-0.59,9.83,5.14,0.04,0.03,-0.14,0.0,b
3232.0,3993.0,2426.0,3361.0,4095.0,4095.0,4095.0,4095.0,-0.64,9.82,5.05,0.0,0.0,-0.15,0.0,b
3216.0,3985.0,2415.0,3372.0,4095.0,4095.0,4095.0,4095.0,-0.57,9.86,5.03,0.02,-0.0,-0.16,0.0,b
3205.0,3961.0,2421.0,3370.0,4095.0,4095.0,4095.0,4095.0,-0.63,9.78,5.01,-0.05,-0.02,-0.17,0.0,b
3195.0,3967.0,2393.0,3366.0,4095.0,4095.0,4095.0,4095.0,-0.82,9.84,5.26,-0.0,0.03,-0.16,0.0,b
3201.0,3984.0,2369.0,3377.0,4095.0,4095.0,4095.0,4095.0,-0.83,9.76,5.2,-0.03,-0.05,-0.16,0.0,b
2246.0,954.0,3231.0,3425.0,4095.0,4095.0,4095.0,4095.0,-0.7,9.84,5.18,0.03,-0.01,-0.16,0.0,b
2300.0,937.0,3229.0,3423.0,4095.0,4095.0,4095.0,4095.0,-0.68,9.86,5.05,0.01,0.01,-0.16,0.0,b
2339.0,937.0,3223.0,3437.0,4095.0,4095.0,4095.0,4095.0,-0.74,9.83,5.08,0.0,-0.02,-0.16,0.0,b
2354.0,933.0,3222.0,3430.0,4095.0,4095.0,4095.0,4095.0,-0.69,9.81,5.1,0.04,-0.01,-0.15,0.0,b
2357.0,944.0,3222.0,3429.0,4095.0,4095.0,4095.0,4095.0,-0.63,9.89,4.93,0.0,0.01,-0.15,0.0,b
2351.0,939.0,3216.0,3440.0,4095.0,4095.0,4095.0,4095.0,-0.73,9.75,5.15,0.02,-0.01,-0.17,0.0,b
2352.0,928.0,3217.0,3444.0,4095.0,4095.0,4095.0,4095.0,-0.72,9.86,5.03,0.0,0.01,-0.16,0.0,b
2337.0,923.0,3217.0,3446.0,4095.0,4095.0,4095.0,4095.0,-0.72,9.73,5.09,0.02,-0.03,-0.16,0.0,b
2336.0,943.0,3216.0,3447.0,4095.0,4095.0,4095.0,4095.0,-0.74,9.82,5.02,-0.01,0.02,-0.15,0.0,b
2268.0,939.0,3216.0,3442.0,4095.0,4095.0,4095.0,4095.0,-0.64,9.8,5.05,-0.01,-0.0,-0.14,0.0,b
2205.0,927.0,3229.0,3446.0,4095.0,4095.0,4095.0,4095.0,-0.78,9.83,5.14,0.01,0.02,-0.15,0.0,b
2192.0,933.0,3216.0,3472.0,4095.0,4095.0,4095.0,4095.0,-0.69,9.8,5.12,0.02,-0.02,-0.15,0.0,b
2190.0,941.0,3216.0,3450.0,4095.0,4095.0,4095.0,4095.0,-0.67,9.84,5.09,-0.01,0.01,-0.14,0.0,b
2194.0,931.0,3226.0,3464.0,4095.0,4095.0,4095.0,4095.0,-0.72,9.8,5.14,0.05,0.02,-0.16,0.0,b
2164.0,933.0,3211.0,3462.0,4095.0,4095.0,4095.0,4095.0,-0.72,9.8,5.03,0.0,-0.02,-0.15,0.0,b
2153.0,930.0,3205.0,3442.0,4095.0,4095.0,4095.0,4095.0,-0.68,9.87,5.02,0.02,0.05,-0.14,0.0,b
2064.0,944.0,3205.0,3472.0,4095.0,4095.0,4095.0,4095.0,-0.6,9.81,5.1,-0.06,0.02,-0.13,0.0,b
2033.0,946.0,3215.0,3477.0,4095.0,4095.0,4095.0,4095.0,-0.66,9.86,5.19,0.02,0.01,-0.15,0.0,b
1984.0,951.0,3196.0,3452.0,4095.0,4095.0,4095.0,4095.0,-0.69,9.77,5.13,-0.01,0.02,-0.12,0.0,b
1979.0,942.0,3203.0,3465.0,4095.0,4095.0,4095.0,4095.0,-0.55,9.84,5.16,0.03,0.0,-0.16,0.0,b
3911.0,4095.0,3536.0,3372.0,4095.0,4095.0,4095.0,4095.0,-0.54,9.88,4.97,0.01,-0.02,-0.17,0.0,b
3921.0,4095.0,3533.0,3389.0,4095.0,4095.0,4095.0,4095.0,-0.66,9.8,5.01,-0.01,-0.05,-0.17,0.0,b
3926.0,4095.0,3527.0,3392.0,4095.0,4095.0,4095.0,4095.0,-0.8,9.86,5.04,-0.01,0.02,-0.14,0.0,b
3918.0,4095.0,3545.0,3379.0,4095.0,4095.0,4095.0,4095.0,-0.61,9.79,5.05,0.01,-0.02,-0.15,0.0,b
3934.0,4095.0,3538.0,3389.0,4095.0,4095.0,4095.0,4095.0,-0.72,9.82,5.05,-0.01,0.0,-0.14,0.0,b
3930.0,4095.0,3545.0,3407.0,4095.0,4095.0,4095.0,4095.0,-0.78,9.8,5.1,0.02,0.0,-0.16,0.0,b
3939.0,4095.0,3557.0,3390.0,4095.0,4095.0,4095.0,4095.0,-0.67,9.83,5.0,0.0,0.01,-0.16,0.0,b
3951.0,4095.0,3559.0,3405.0,4095.0,4095.0,4095.0,4095.0,-0.71,9.85,5.07,0.03,-0.01,-0.16,0.0,b
3939.0,4095.0,3553.0,3421.0,4095.0,4095.0,4095.0,4095.0,-0.72,9.83,4.86,0.0,0.04,-0.13,0.0,b
3967.0,4095.0,3532.0,3410.0,4095.0,4095.0,4095.0,4095.0,-0.56,9.82,4.95,-0.03,-0.01,-0.12,0.0,b
3949.0,4095.0,3569.0,3421.0,4095.0,4095.0,4095.0,4095.0,-0.48,9.75,5.1,-0.05,-0.02,-0.15,0.0,b
3952.0,4095.0,3538.0,3422.0,4095.0,4095.0,4095.0,4095.0,-0.55,9.78,5.16,0.01,-0.01,-0.18,0.0,b
3946.0,4095.0,3539.0,3423.0,4095.0,4095.0,4095.0,4095.0,-0.8,9.72,5.06,0.01,-0.02,-0.2,0.0,b
3937.0,4095.0,3557.0,3424.0,4095.0,4095.0,4095.0,4095.0,-0.86,9.84,5.08,-0.01,-0.01,-0.16,0.0,b
3935.0,4095.0,3571.0,3423.0,4095.0,4095.0,4095.0,4095.0,-0.62,9.74,5.13,0.01,-0.08,-0.15,0.0,b
3966.0,4095.0,3549.0,3421.0,4095.0,4095.0,4095.0,4095.0,-0.59,9.8,5.22,0.01,0.06,-0.16,0.0,b
3964.0,4095.0,3542.0,3441.0,4095.0,4095.0,4095.0,4095.0,-0.78,9.82,4.99,0.03,-0.01,-0.16,0.0,b
3957.0,4095.0,3559.0,3435.0,4095.0,4095.0,4095.0,4095.0,-0.79,9.79,5.08,-0.01,-0.0,-0.15,0.0,b
3951.0,4095.0,3538.0,3429.0,4095.0,4095.0,4095.0,4095.0,-0.69,9.82,5.09,0.02,0.02,-0.15,0.0,b
3929.0,4095.0,3554.0,3427.0,4095.0,4095.0,4095.0,4095.0,-0.72,9.74,5.06,-0.0,-0.04,-0.15,0.0,b
3923.0,4095.0,3199.0,3378.0,4095.0,4095.0,4095.0,4095.0,-0.4,9.89,4.79,-0.01,0.01,-0.16,0.0,b
3919.0,4095.0,3187.0,3392.0,4095.0,4095.0,4095.0,4095.0,-0.58,9.73,4.91,0.01,-0.04,-0.17,0.0,b
3914.0,4095.0,3185.0,3392.0,4095.0,4095.0,4095.0,4095.0,-0.57,9.85,4.87,0.04,0.0,-0.16,0.0,b
3926.0,4095.0,3186.0,3386.0,4095.0,4095.0,4095.0,4095.0,-0.53,9.86,4.86,0.04,0.0,-0.14,0.0,b
3950.0,4095.0,3183.0,3397.0,4095.0,4095.0,4095.0,4095.0,-0.52,9.82,4.75,-0.01,0.03,-0.14,0.0,b
3927.0,4095.0,3198.0,3404.0,4095.0,4095.0,4095.0,4095.0,-0.48,9.87,4.78,0.01,0.0,-0.16,0.0,b
3929.0,4095.0,3159.0,3402.0,4095.0,4095.0,4095.0,4095.0,-0.61,9.82,4.84,0.01,0.01,-0.15,0.0,b
3947.0,4095.0,3184.0,3411.0,4095.0,4095.0,4095.0,4095.0,-0.62,9.86,4.78,0.02,-0.01,-0.16,0.0,b
3914.0,4095.0,3179.0,3415.0,4095.0,4095.0,4095.0,4095.0,-0.55,9.85,4.69,-0.0,0.01,-0.15,0.0,b
3743.0,4095.0,3159.0,3407.0,4095.0,4095.0,4095.0,4095.0,-0.53,9.78,4.86,-0.02,-0.02,-0.16,0.0,b
3702.0,4095.0,3168.0,3418.0,4095.0,4095.0,4095.0,4095.0,-0.57,9.86,4.81,0.0,0.01,-0.18,0.0,b
3745.0,4095.0,3152.0,3426.0,4095.0,4095.0,4095.0,4095.0,-0.68,9.79,4.88,0.03,-0.01,-0.16,0.0,b
3721.0,4095.0,3170.0,3410.0,4095.0,4095.0,4095.0,4095.0,-0.66,9.84,4.83,0.0,0.04,-0.14,0.0,b
3714.0,4095.0,3158.0,3431.0,4095.0,4095.0,4095.0,4095.0,-0.51,9.84,4.93,0.02,-0.04,-0.14,0.0,b
3664.0,4095.0,3172.0,3438.0,4095.0,4095.0,4095.0,4095.0,-0.54,9.83,4.78,0.03,0.04,-0.15,0.0,b
3355.0,4095.0,3172.0,3431.0,4095.0,4095.0,4095.0,4095.0,-0.48,9.85,4.71,0.02,-0.04,-0.16,0.0,b
3350.0,4095.0,3159.0,3433.0,4095.0,4095.0,4095.0,4095.0,-0.68,9.8,4.85,-0.01,0.03,-0.15,0.0,b
3463.0,4095.0,3149.0,3447.0,4095.0,4095.0,4095.0,4095.0,-0.51,9.88,4.81,0.01,-0.02,-0.15,0.0,b
3472.0,4095.0,3152.0,3457.0,4095.0,4095.0,4095.0,4095.0,-0.48,9.81,4.82,0.01,-0.03,-0.15,0.0,b
3497.0,4095.0,3152.0,3467.0,4095.0,4095.0,4095.0,4095.0,-0.54,9.84,4.81,-0.05,0.03,-0.15,0.0,b
2992.0,4095.0,3283.0,3418.0,4095.0,4095.0,4095.0,4095.0,-0.7,9.92,5.05,0.03,-0.01,-0.15,0.0,b
2992.0,4095.0,3277.0,3415.0,4095.0,4095.0,4095.0,4095.0,-0.58,9.82,5.07,0.01,-0.02,-0.17,0.0,b
2991.0,4095.0,3275.0,3427.0,4095.0,4095.0,4095.0,4095.0,-0.59,9.82,5.11,0.01,0.03,-0.14,0.0,b
3001.0,4095.0,3262.0,3449.0,4095.0,4095.0,4095.0,4095.0,-0.56,9.76,5.05,0.03,-0.02,-0.15,0.0,b
3000.0,4095.0,3268.0,3440.0,4095.0,4095.0,4095.0,4095.0,-0.66,9.93,4.87,0.01,0.05,-0.15,0.0,b
3000.0,4095.0,3280.0,3440.0,4095.0,4095.0,4095.0,4095.0,-0.64,9.84,4.93,0.03,-0.03,-0.17,0.0,b
3008.0,4095.0,3269.0,3431.0,4095.0,4095.0,4095.0,4095.0,-0.69,9.83,5.02,-0.04,0.01,-0.14,0.0,b
3003.0,4095.0,3278.0,3441.0,4095.0,4095.0,4095.0,4095.0,-0.52,9.84,5.13,0.01,-0.02,-0.16,0.0,b
3025.0,4095.0,3271.0,3457.0,4095.0,4095.0,4095.0,4095.0,-0.6,9.85,5.14,0.02,0.0,-0.15,0.0,b
3009.0,4095.0,3281.0,3454.0,4095.0,4095.0,4095.0,4095.0,-0.63,9.83,5.01,0.02,0.01,-0.15,0.0,b
3018.0,4095.0,3267.0,3461.0,4095.0,4095.0,4095.0,4095.0,-0.66,9.83,5.03,0.02,-0.0,-0.16,0.0,b
3025.0,4095.0,3269.0,3465.0,4095.0,4095.0,4095.0,4095.0,-0.64,9.79,5.1,-0.0,0.02,-0.15,0.0,b
3021.0,4095.0,3278.0,3449.0,4095.0,4095.0,4095.0,4095.0,-0.8,9.84,5.03,0.07,-0.01,-0.18,0.0,b
3049.0,4095.0,3280.0,3456.0,4095.0,4095.0,4095.0,4095.0,-0.72,9.82,4.94,0.01,-0.02,-0.1,0.0,b
3055.0,4095.0,3277.0,3460.0,4095.0,4095.0,4095.0,4095.0,-0.34,9.84,5.08,-0.01,0.02,-0.11,0.0,b
3065.0,4095.0,3287.0,3454.0,4095.0,4095.0,4095.0,4095.0,-0.72,9.77,4.95,-0.0,0.04,-0.14,0.0,b
3139.0,4095.0,3282.0,3455.0,4095.0,4095.0,4095.0,4095.0,-0.7,9.87,4.9,-0.0,0.01,-0.11,0.0,b
3171.0,4095.0,3286.0,3472.0,4095.0,4095.0,4095.0,4095.0,-0.36,9.78,5.15,0.03,-0.05,-0.14,0.0,b
3170.0,4095.0,3293.0,3458.0,4095.0,4095.0,4095.0,4095.0,-0.6,9.85,4.96,0.01,0.02,-0.18,0.0,b
3184.0,4095.0,3290.0,3475.0,4095.0,4095.0,4095.0,4095.0,-0.68,9.87,5.07,0.04,0.01,-0.14,0.0,b
2773.0,4095.0,2915.0,3410.0,4095.0,4095.0,4095.0,4095.0,-1.1,9.77,4.85,-0.02,-0.0,-0.17,0.0,b
2752.0,4095.0,2896.0,3408.0,4095.0,4095.0,4095.0,4095.0,-1.19,9.72,5.13,0.04,-0.02,-0.18,0.0,b
2753.0,4095.0,2895.0,3427.0,4095.0,4095.0,4095.0,4095.0,-1.19,9.73,5.09,0.0,0.01,-0.14,0.0,b
2768.0,4095.0,2892.0,3421.0,4095.0,4095.0,4095.0,4095.0,-1.1,9.66,5.11,0.06,-0.04,-0.17,0.0,b
2766.0,4095.0,2880.0,3415.0,4095.0,4095.0,4095.0,4095.0,-1.12,9.78,4.8,0.01,0.05,-0.13,0.0,b
2734.0,4095.0,2887.0,3430.0,4095.0,4095.0,4095.0,4095.0,-1.2,9.77,4.88,0.03,-0.01,-0.15,0.0,b
2705.0,4095.0,2875.0,3420.0,4095.0,4095.0,4095.0,4095.0,-1.17,9.77,4.97,-0.01,0.01,-0.13,0.0,b
2699.0,4095.0,2889.0,3418.0,4095.0,4095.0,4095.0,4095.0,-0.98,9.79,4.94,0.03,-0.03,-0.16,0.0,b
2694.0,4095.0,2875.0,3439.0,4095.0,4095.0,4095.0,4095.0,-1.1,9.76,4.92,-0.01,0.02,-0.14,0.0,b
2690.0,4095.0,2886.0,3422.0,4095.0,4095.0,4095.0,4095.0,-1.11,9.78,4.96,-0.02,-0.02,-0.15,0.0,b
2618.0,4095.0,2875.0,3422.0,4095.0,4095.0,4095.0,4095.0,-1.06,9.74,4.96,-0.02,0.03,-0.13,0.0,b
2607.0,4095.0,2876.0,3440.0,4095.0,4095.0,4095.0,4095.0,-1.15,9.77,5.03,0.01,0.02,-0.16,0.0,b
2607.0,4095.0,2880.0,3431.0,4095.0,4095.0,4095.0,4095.0,-1.05,9.77,5.09,-0.04,0.01,-0.15,0.0,b
2585.0,4095.0,2897.0,3430.0,4095.0,4095.0,4095.0,4095.0,-1.19,9.8,5.1,0.02,0.04,-0.17,0.0,b
2559.0,4095.0,2882.0,3429.0,4095.0,4095.0,4095.0,4095.0,-1.23,9.73,5.03,0.01,-0.01,-0.15,0.0,b
2593.0,4095.0,2886.0,3434.0,4095.0,4095.0,4095.0,4095.0,-1.03,9.76,4.94,-0.0,0.02,-0.14,0.0,b
2583.0,4095.0,2895.0,3433.0,4095.0,4095.0,4095.0,4095.0,-1.12,9.7,5.11,0.02,-0.01,-0.16,0.0,b
2581.0,4095.0,2890.0,3429.0,4095.0,4095.0,4095.0,4095.0,-1.19,9.76,4.99,0.02,0.02,-0.16,0.0,b
2586.0,4095.0,2884.0,3426.0,4095.0,4095.0,4095.0,4095.0,-1.17,9.78,4.92,0.02,-0.01,-0.16,0.0,b
2581.0,4095.0,2891.0,3431.0,4095.0,4095.0,4095.0,4095.0,-1.21,9.75,5.0,-0.0,-0.02,-0.15,0.0,b
2657.0,4095.0,3442.0,3375.0,4095.0,4095.0,4095.0,4095.0,-1.16,9.72,4.96,-0.01,0.01,-0.14,0.0,b
2642.0,4095.0,3440.0,3366.0,4095.0,4095.0,4095.0,4095.0,-1.14,9.77,5.08,-0.01,0.01,-0.16,0.0,b
2632.0,4095.0,3445.0,3376.0,4095.0,4095.0,4095.0,4095.0,-1.14,9.79,4.98,0.03,-0.02,-0.16,0.0,b
2640.0,4095.0,3445.0,3371.0,4095.0,4095.0,4095.0,4095.0,-1.03,9.75,4.89,-0.0,-0.0,-0.14,0.0,b
2623.0,4095.0,3438.0,3376.0,4095.0,4095.0,4095.0,4095.0,-1.11,9.8,4.9,0.0,0.0,-0.15,0.0,b
2619.0,4095.0,3445.0,3376.0,4095.0,4095.0,4095.0,4095.0,-1.05,9.8,4.99,0.02,0.0,-0.15,0.0,b
2617.0,4095.0,3446.0,3374.0,4095.0,4095.0,4095.0,4095.0,-1.01,9.78,4.88,0.02,-0.0,-0.15,0.0,b
2586.0,4095.0,3440.0,3377.0,4095.0,4095.0,4095.0,4095.0,-0.96,9.84,4.89,0.02,-0.03,-0.18,0.0,b
2559.0,4095.0,3431.0,3381.0,4095.0,4095.0,4095.0,4095.0,-1.17,9.78,4.85,0.01,0.05,-0.14,0.0,b
2559.0,4095.0,3459.0,3396.0,4095.0,4095.0,4095.0,4095.0,-0.99,9.79,4.96,0.03,-0.01,-0.17,0.0,b
2559.0,4095.0,3447.0,3391.0,4095.0,4095.0,4095.0,4095.0,-1.07,9.75,4.92,-0.02,-0.01,-0.16,0.0,b
2544.0,4095.0,3439.0,3409.0,4095.0,4095.0,4095.0,4095.0,-1.13,9.8,4.93,0.03,0.0,-0.16,0.0,b
2550.0,4095.0,3435.0,3392.0,4095.0,4095.0,4095.0,4095.0,-1.15,9.76,4.95,-0.02,0.01,-0.13,0.0,b
2555.0,4095.0,3442.0,3397.0,4095.0,4095.0,4095.0,4095.0,-1.02,9.81,5.04,0.03,-0.03,-0.16,0.0,b
2550.0,4095.0,3453.0,3415.0,4095.0,4095.0,4095.0,4095.0,-1.01,9.74,4.99,0.02,0.02,-0.14,0.0,b
2547.0,4095.0,3435.0,3415.0,4095.0,4095.0,4095.0,4095.0,-1.04,9.81,4.91,0.01,-0.0,-0.16,0.0,b
2559.0,4095.0,3447.0,3426.0,4095.0,4095.0,4095.0,4095.0,-1.12,9.77,4.89,0.03,-0.02,-0.14,0.0,b
2547.0,4095.0,3459.0,3424.0,4095.0,4095.0,4095.0,4095.0,-0.98,9.79,4.96,-0.01,0.02,-0.14,0.0,b
2542.0,4095.0,3436.0,3421.0,4095.0,4095.0,4095.0,4095.0,-1.12,9.79,5.0,0.03,0.02,-0.15,0.0,b
2539.0,4095.0,3438.0,3440.0,4095.0,4095.0,4095.0,4095.0,-1.08,9.72,4.95,-0.02,-0.0,-0.14,0.0,b
3822.0,4095.0,2368.0,3346.0,4095.0,4095.0,4095.0,4095.0,-1.02,9.71,4.67,-0.0,-0.02,-0.12,0.0,b
3822.0,4095.0,2368.0,3346.0,4095.0,4095.0,4095.0,4095.0,-1.02,9.71,4.67,-0.0,-0.02,-0.12,0.0,b
3825.0,4095.0,2365.0,3356.0,4095.0,4095.0,4095.0,4095.0,-1.09,9.74,4.62,-0.01,-0.05,-0.16,0.0,b
3803.0,4095.0,2369.0,3378.0,4095.0,4095.0,4095.0,4095.0,-1.14,9.8,4.54,0.04,0.02,-0.16,0.0,b
3791.0,4095.0,2385.0,3384.0,4095.0,4095.0,4095.0,4095.0,-1.16,9.71,4.45,-0.01,-0.01,-0.15,0.0,b
3783.0,4095.0,2396.0,3389.0,4095.0,4095.0,4095.0,4095.0,-1.19,9.76,4.5,0.0,0.01,-0.15,0.0,b
3776.0,4095.0,2393.0,3370.0,4095.0,4095.0,4095.0,4095.0,-1.19,9.72,4.54,-0.02,-0.02,-0.15,0.0,b
3737.0,4095.0,2403.0,3393.0,4095.0,4095.0,4095.0,4095.0,-1.08,9.83,4.57,0.0,0.0,-0.15,0.0,b
3733.0,4095.0,2403.0,3393.0,4095.0,4095.0,4095.0,4095.0,-1.16,9.76,4.63,0.01,-0.02,-0.14,0.0,b
3749.0,4095.0,2391.0,3394.0,4095.0,4095.0,4095.0,4095.0,-1.18,9.84,4.51,0.02,0.01,-0.16,0.0,b
3746.0,4095.0,2405.0,3408.0,4095.0,4095.0,4095.0,4095.0,-1.15,9.74,4.56,0.02,-0.02,-0.16,0.0,b
3745.0,4095.0,2427.0,3405.0,4095.0,4095.0,4095.0,4095.0,-1.18,9.79,4.55,-0.01,0.03,-0.13,0.0,b
3734.0,4095.0,2452.0,3401.0,4095.0,4095.0,4095.0,4095.0,-1.05,9.75,4.56,0.0,-0.06,-0.15,0.0,b
3746.0,4095.0,2447.0,3402.0,4095.0,4095.0,4095.0,4095.0,-1.08,9.8,4.57,0.0,0.02,-0.14,0.0,b
3760.0,4095.0,2474.0,3406.0,4095.0,4095.0,4095.0,4095.0,-1.2,9.77,4.6,0.01,-0.03,-0.15,0.0,b
3719.0,4095.0,2516.0,3403.0,4095.0,4095.0,4095.0,4095.0,-1.18,9.76,4.57,0.01,0.0,-0.15,0.0,b
3709.0,4095.0,2551.0,3412.0,4095.0,4095.0,4095.0,4095.0,-1.11,9.75,4.6,0.02,-0.0,-0.15,0.0,b
3729.0,4095.0,2590.0,3423.0,4095.0,4095.0,4095.0,4095.0,-1.19,9.78,4.56,-0.01,-0.01,-0.14,0.0,b
3698.0,4095.0,2599.0,3406.0,4095.0,4095.0,4095.0,4095.0,-1.1,9.81,4.57,0.02,-0.01,-0.16,0.0,b
3696.0,4095.0,2599.0,3413.0,4095.0,4095.0,4095.0,4095.0,-1.17,9.77,4.55,-0.0,-0.0,-0.14,0.0,b
2844.0,4095.0,2765.0,3381.0,4095.0,4095.0,4095.0,4095.0,-1.19,9.69,4.73,0.01,-0.02,-0.17,0.0,b
2786.0,4095.0,2774.0,3381.0,4095.0,4095.0,4095.0,4095.0,-1.06,9.77,4.72,-0.0,0.01,-0.14,0.0,b
2755.0,4095.0,2772.0,3376.0,4095.0,4095.0,4095.0,4095.0,-1.16,9.72,4.73,0.04,-0.03,-0.18,0.0,b
2694.0,4095.0,2773.0,3371.0,4095.0,4079.0,4095.0,4095.0,-1.18,9.77,4.58,-0.01,0.07,-0.11,0.0,b
2554.0,4095.0,2795.0,3406.0,4095.0,4081.0,4095.0,4095.0,-1.08,9.77,4.7,0.04,-0.06,-0.16,0.0,b
2528.0,4095.0,2843.0,3395.0,4095.0,4095.0,4095.0,4095.0,-1.05,9.8,4.61,-0.0,0.04,-0.14,0.0,b
2474.0,4095.0,2866.0,3413.0,4095.0,4082.0,4095.0,4095.0,-1.11,9.82,4.64,0.02,-0.04,-0.16,0.0,b
2355.0,4095.0,2867.0,3405.0,4095.0,4093.0,4095.0,4095.0,-1.14,9.78,4.72,-0.03,0.03,-0.15,0.0,b
2320.0,4095.0,2883.0,3422.0,4095.0,4095.0,4095.0,4095.0,-1.15,9.81,4.75,0.02,-0.01,-0.16,0.0,b
2252.0,4095.0,2879.0,3423.0,4095.0,4095.0,4095.0,4095.0,-1.1,9.77,4.64,-0.04,-0.01,-0.13,0.0,b
2195.0,4095.0,2890.0,3425.0,4095.0,4085.0,4095.0,4095.0,-1.12,9.78,4.85,0.02,-0.01,-0.17,0.0,b
2174.0,4095.0,2898.0,3432.0,4095.0,4086.0,4095.0,4095.0,-1.09,9.74,4.74,0.0,0.02,-0.13,0.0,b
2143.0,4095.0,2886.0,3434.0,4095.0,4095.0,4095.0,4095.0,-1.09,9.81,4.72,0.01,0.01,-0.15,0.0,b
2133.0,4095.0,2897.0,3445.0,4095.0,4095.0,4095.0,4095.0,-1.21,9.73,4.77,0.02,-0.01,-0.16,0.0,b
2142.0,4095.0,2917.0,3446.0,4095.0,4089.0,4095.0,4095.0,-1.1,9.78,4.7,0.0,0.01,-0.13,0.0,b
2109.0,4095.0,2913.0,3443.0,4095.0,4095.0,4095.0,4095.0,-1.02,9.68,4.78,0.01,-0.03,-0.16,0.0,b
2087.0,4095.0,2931.0,3440.0,4095.0,4095.0,4095.0,4095.0,-1.1,9.82,4.79,-0.0,0.03,-0.14,0.0,b
2107.0,4095.0,2931.0,3440.0,4095.0,4094.0,4095.0,4095.0,-1.15,9.71,4.79,0.03,-0.01,-0.16,0.0,b
2091.0,4095.0,2933.0,3442.0,4095.0,4095.0,4095.0,4095.0,-1.14,9.83,4.62,-0.02,0.02,-0.14,0.0,b
2032.0,4095.0,2942.0,3435.0,4095.0,4075.0,4095.0,4095.0,-1.13,9.71,4.78,0.01,-0.01,-0.15,0.0,b
1252.0,4095.0,3360.0,3391.0,4095.0,4095.0,4095.0,4095.0,-1.16,9.79,4.67,-0.01,-0.07,-0.17,0.0,b
1235.0,4095.0,3354.0,3363.0,4095.0,4095.0,4095.0,4095.0,-1.19,9.73,4.74,-0.03,0.01,-0.14,0.0,b
1237.0,4095.0,3344.0,3377.0,4095.0,4095.0,4095.0,4095.0,-1.16,9.79,4.69,0.0,-0.02,-0.13,0.0,b
1219.0,4095.0,3359.0,3382.0,4095.0,4095.0,4095.0,4095.0,-1.14,9.73,4.64,-0.01,-0.08,-0.14,0.0,b
1227.0,4095.0,3361.0,3386.0,4095.0,4095.0,4095.0,4095.0,-1.17,9.84,4.63,-0.0,0.03,-0.14,0.0,b
1169.0,4095.0,3367.0,3391.0,4095.0,4095.0,4095.0,4095.0,-1.17,9.7,4.75,0.05,-0.03,-0.18,0.0,b
1171.0,4095.0,3372.0,3392.0,4095.0,4095.0,4095.0,4095.0,-1.22,9.79,4.58,-0.01,0.03,-0.13,0.0,b
1143.0,4095.0,3355.0,3392.0,4095.0,4095.0,4095.0,4095.0,-1.18,9.79,4.6,0.01,-0.06,-0.15,0.0,b
1055.0,4095.0,3353.0,3396.0,4095.0,4095.0,4095.0,4095.0,-1.11,9.85,4.45,-0.07,-0.02,-0.11,0.0,b
1014.0,4095.0,3357.0,3403.0,4095.0,4095.0,4095.0,4095.0,-1.27,9.73,4.82,-0.05,0.01,-0.13,0.0,b
998.0,4095.0,3361.0,3395.0,4095.0,4095.0,4095.0,4095.0,-1.14,9.81,4.93,-0.02,-0.05,-0.13,0.0,b
1008.0,4095.0,3345.0,3408.0,4095.0,4095.0,4095.0,4095.0,-1.14,9.72,4.97,0.01,0.02,-0.16,0.0,b
991.0,4095.0,3358.0,3408.0,4095.0,4095.0,4095.0,4095.0,-1.09,9.79,4.79,0.01,-0.02,-0.15,0.0,b
1012.0,4095.0,3353.0,3422.0,4095.0,4095.0,4095.0,4095.0,-1.08,9.82,4.83,0.04,0.02,-0.16,0.0,b
1010.0,4095.0,3367.0,3408.0,4095.0,4095.0,4095.0,4095.0,-1.13,9.8,4.73,0.0,-0.0,-0.15,0.0,b
995.0,4095.0,3360.0,3423.0,4095.0,4095.0,4095.0,4095.0,-1.15,9.85,4.71,0.01,0.04,-0.15,0.0,b
1010.0,4095.0,3373.0,3420.0,4095.0,4095.0,4095.0,4095.0,-1.21,9.72,4.81,0.0,0.02,-0.15,0.0,b
1009.0,4095.0,3359.0,3433.0,4095.0,4095.0,4095.0,4095.0,-1.1,9.86,4.68,0.01,0.02,-0.13,0.0,b
1005.0,4095.0,3354.0,3408.0,4095.0,4095.0,4095.0,4095.0,-1.15,9.69,4.84,-0.01,-0.01,-0.14,0.0,b
1008.0,4095.0,3359.0,3426.0,4095.0,4095.0,4095.0,4095.0,-1.05,9.84,4.72,-0.02,-0.01,-0.13,0.0,b
1857.0,4095.0,3190.0,3435.0,4095.0,4095.0,4095.0,4095.0,-1.15,9.75,4.6,0.02,-0.02,-0.18,0.0,b
1869.0,4095.0,3185.0,3441.0,4095.0,4095.0,4095.0,4095.0,-1.19,9.73,4.65,-0.01,-0.04,-0.2,0.0,b
1875.0,4095.0,3200.0,3451.0,4095.0,4095.0,4095.0,4095.0,-1.13,9.79,4.79,-0.01,-0.01,-0.14,0.0,b
1874.0,4095.0,3184.0,3460.0,4095.0,4095.0,4095.0,4095.0,-0.91,9.74,4.77,-0.02,0.0,-0.15,0.0,b
1872.0,4095.0,3200.0,3463.0,4095.0,4095.0,4095.0,4095.0,-1.12,9.81,4.78,-0.01,-0.02,-0.16,0.0,b
1872.0,4095.0,3196.0,3467.0,4095.0,4095.0,4095.0,4095.0,-1.07,9.72,4.94,-0.02,0.0,-0.16,0.0,b
1867.0,4095.0,3201.0,3472.0,4095.0,4095.0,4095.0,4095.0,-1.15,9.89,4.74,-0.04,-0.02,-0.13,0.0,b
1873.0,4095.0,3209.0,3464.0,4095.0,4095.0,4095.0,4095.0,-1.12,9.76,4.96,0.01,0.0,-0.15,0.0,b
1856.0,4095.0,3206.0,3487.0,4095.0,4095.0,4095.0,4095.0,-1.08,9.77,4.87,-0.02,0.01,-0.14,0.0,b
1857.0,4095.0,3215.0,3485.0,4095.0,4095.0,4095.0,4095.0,-1.04,9.81,4.89,0.02,-0.02,-0.16,0.0,b
1839.0,4095.0,3216.0,3478.0,4095.0,4095.0,4095.0,4095.0,-1.07,9.66,4.97,-0.02,-0.03,-0.17,0.0,b
1833.0,4095.0,3210.0,3486.0,4095.0,4095.0,4095.0,4095.0,-1.2,9.85,4.82,0.01,0.01,-0.16,0.0,b
1823.0,4095.0,3198.0,3499.0,4095.0,4095.0,4095.0,4095.0,-1.13,9.69,4.98,0.02,-0.01,-0.16,0.0,b
1819.0,4095.0,3215.0,3498.0,4095.0,4095.0,4095.0,4095.0,-1.15,9.81,4.88,-0.01,0.01,-0.14,0.0,b
1807.0,4095.0,3218.0,3504.0,4095.0,4095.0,4095.0,4095.0,-1.04,9.73,5.03,0.01,0.01,-0.14,0.0,b
1806.0,4095.0,3204.0,3504.0,4095.0,4095.0,4095.0,4095.0,-1.14,9.78,4.88,0.01,0.02,-0.15,0.0,b
1769.0,4095.0,3197.0,3504.0,4095.0,4095.0,4095.0,4095.0,-1.21,9.74,4.86,0.02,0.01,-0.13,0.0,b
1758.0,4095.0,3214.0,3505.0,4095.0,4095.0,4095.0,4095.0,-1.01,9.8,4.92,-0.01,0.03,-0.14,0.0,b
1771.0,4095.0,3195.0,3534.0,4095.0,4095.0,4095.0,4095.0,-1.15,9.73,4.98,0.02,0.0,-0.15,0.0,b
1767.0,4095.0,3197.0,3487.0,4095.0,4095.0,4095.0,4095.0,-1.1,9.84,4.85,-0.0,0.05,-0.13,0.0,b
2309.0,4095.0,2630.0,3510.0,4095.0,4095.0,4095.0,4095.0,-1.18,9.66,5.21,-0.04,0.07,-0.18,0.0,b
2309.0,4095.0,2630.0,3510.0,4095.0,4095.0,4095.0,4095.0,-1.18,9.66,5.21,-0.04,0.07,-0.18,0.0,b
2303.0,4095.0,2631.0,3504.0,4095.0,4095.0,4095.0,4095.0,-1.26,9.73,5.45,0.04,0.05,-0.15,0.0,b
2245.0,4095.0,2625.0,3516.0,4095.0,4095.0,4095.0,4095.0,-1.0,9.76,5.25,0.03,-0.01,-0.15,0.0,b
2218.0,4095.0,2632.0,3519.0,4095.0,4095.0,4095.0,4095.0,-0.9,9.77,5.34,-0.0,-0.03,-0.17,0.0,b
2208.0,4095.0,2638.0,3519.0,4095.0,4095.0,4095.0,4095.0,-0.94,9.65,5.47,-0.04,-0.03,-0.18,0.0,b
2197.0,4095.0,2629.0,3522.0,4095.0,4095.0,4095.0,4095.0,-1.12,9.75,5.53,0.0,0.02,-0.18,0.0,b
2185.0,4095.0,2637.0,3515.0,4095.0,4095.0,4095.0,4095.0,-1.06,9.7,5.4,0.03,-0.05,-0.18,0.0,b
2147.0,4095.0,2631.0,3537.0,4095.0,4095.0,4095.0,4095.0,-1.11,9.78,5.48,-0.0,0.03,-0.16,0.0,b
2123.0,4095.0,2634.0,3537.0,4095.0,4095.0,4095.0,4095.0,-1.15,9.68,5.5,0.03,0.0,-0.16,0.0,b
2130.0,4095.0,2640.0,3530.0,4095.0,4095.0,4095.0,4095.0,-1.06,9.76,5.4,0.01,-0.0,-0.16,0.0,b
2111.0,4095.0,2640.0,3535.0,4095.0,4095.0,4095.0,4095.0,-1.04,9.72,5.35,0.0,-0.01,-0.16,0.0,b
2096.0,4095.0,2630.0,3534.0,4095.0,4095.0,4095.0,4095.0,-1.07,9.74,5.43,-0.01,0.01,-0.16,0.0,b
2101.0,4095.0,2633.0,3554.0,4095.0,4095.0,4095.0,4095.0,-1.16,9.67,5.5,-0.0,0.01,-0.15,0.0,b
2109.0,4095.0,2625.0,3550.0,4095.0,4095.0,4095.0,4095.0,-1.08,9.71,5.52,0.02,-0.01,-0.17,0.0,b
2055.0,4095.0,2624.0,3568.0,4095.0,4095.0,4095.0,4095.0,-1.12,9.69,5.45,0.02,0.01,-0.15,0.0,b
2019.0,4095.0,2615.0,3552.0,4095.0,4095.0,4095.0,4095.0,-0.98,9.74,5.49,0.02,-0.01,-0.14,0.0,b
2011.0,4095.0,2611.0,3537.0,4095.0,4095.0,4095.0,4095.0,-1.09,9.64,5.54,0.04,-0.01,-0.16,0.0,b
2015.0,4095.0,2615.0,3563.0,4095.0,4095.0,4095.0,4095.0,-1.1,9.77,5.41,0.01,0.05,-0.16,0.0,b
2000.0,4095.0,2590.0,3557.0,4095.0,4095.0,4095.0,4095.0,-1.21,9.65,5.43,0.04,-0.05,-0.16,0.0,b
2608.0,4095.0,3411.0,3435.0,4095.0,4095.0,4095.0,4095.0,-1.26,9.69,5.28,-0.02,-0.04,-0.19,0.0,b
2522.0,4095.0,3364.0,3431.0,4095.0,4095.0,4095.0,4095.0,-1.31,9.73,5.28,0.0,0.07,-0.15,0.0,b
2511.0,4095.0,3344.0,3425.0,4095.0,4095.0,4095.0,4095.0,-1.32,9.71,5.17,0.04,0.0,-0.14,0.0,b
2512.0,4095.0,3337.0,3441.0,4095.0,4095.0,4095.0,4095.0,-1.29,9.71,5.1,0.03,-0.0,-0.15,0.0,b
2489.0,4095.0,3337.0,3430.0,4095.0,4095.0,4095.0,4095.0,-1.26,9.76,5.09,0.01,0.04,-0.15,0.0,b
2449.0,4095.0,3343.0,3440.0,4095.0,4095.0,4095.0,4095.0,-1.27,9.7,5.2,0.01,-0.03,-0.15,0.0,b
2430.0,4095.0,3338.0,3454.0,4095.0,4095.0,4095.0,4095.0,-1.27,9.75,5.12,-0.01,0.02,-0.14,0.0,b
2417.0,4095.0,3321.0,3456.0,4095.0,4095.0,4095.0,4095.0,-1.28,9.73,5.26,0.01,-0.01,-0.15,0.0,b
2391.0,4095.0,3329.0,3464.0,4095.0,4095.0,4095.0,4095.0,-1.37,9.75,5.14,0.01,0.0,-0.15,0.0,b
2344.0,4095.0,3324.0,3458.0,4095.0,4095.0,4095.0,4095.0,-1.12,9.68,5.21,-0.01,-0.05,-0.2,0.0,b
2338.0,4095.0,3310.0,3471.0,4095.0,4095.0,4095.0,4095.0,-1.27,9.7,5.2,-0.02,-0.02,-0.16,0.0,b
2320.0,4095.0,3160.0,3451.0,4095.0,4095.0,4095.0,4095.0,-1.36,9.68,5.29,0.01,0.02,-0.14,0.0,b
2288.0,4095.0,3024.0,3459.0,4095.0,4095.0,4095.0,4095.0,-1.36,9.69,5.3,0.01,-0.0,-0.14,0.0,b
2294.0,4095.0,2994.0,3482.0,4095.0,4095.0,4095.0,4095.0,-1.27,9.77,5.23,0.03,0.01,-0.15,0.0,b
2285.0,4095.0,3005.0,3472.0,4095.0,4095.0,4095.0,4095.0,-1.3,9.7,5.26,0.02,-0.0,-0.16,0.0,b
2261.0,4095.0,3006.0,3489.0,4095.0,4095.0,4095.0,4095.0,-1.22,9.81,5.16,0.04,0.03,-0.14,0.0,b
2261.0,4095.0,2993.0,3482.0,4095.0,4095.0,4095.0,4095.0,-1.15,9.69,5.14,0.01,-0.02,-0.17,0.0,b
2265.0,4095.0,2998.0,3476.0,4095.0,4095.0,4095.0,4095.0,-1.25,9.75,5.14,0.0,0.01,-0.17,0.0,b
2251.0,4095.0,2983.0,3472.0,4095.0,4095.0,4095.0,4095.0,-1.3,9.74,5.14,0.03,-0.01,-0.18,0.0,b
2261.0,4095.0,2992.0,3474.0,4095.0,4095.0,4095.0,4095.0,-1.4,9.72,5.2,-0.0,0.02,-0.15,0.0,b
1007.0,2636.0,2921.0,3410.0,4095.0,4095.0,4095.0,4095.0,-0.97,9.83,5.17,-0.01,-0.02,-0.17,0.0,b
995.0,2625.0,2924.0,3435.0,4095.0,4095.0,4095.0,4095.0,-1.05,9.86,5.19,0.0,0.02,-0.14,0.0,b
994.0,2638.0,2930.0,3430.0,4095.0,4095.0,4095.0,4095.0,-1.01,9.81,5.29,0.01,-0.04,-0.16,0.0,b
1002.0,2640.0,2925.0,3434.0,4095.0,4086.0,4095.0,4095.0,-1.02,9.8,5.08,0.02,-0.04,-0.14,0.0,b
1006.0,2630.0,2911.0,3423.0,4095.0,4079.0,4095.0,4095.0,-0.9,9.77,5.22,0.01,-0.0,-0.16,0.0,b
998.0,2640.0,2917.0,3438.0,4095.0,4087.0,4095.0,4095.0,-0.85,9.79,5.07,-0.01,0.01,-0.15,0.0,b
989.0,2640.0,2925.0,3435.0,4095.0,4095.0,4095.0,4095.0,-1.01,9.78,5.2,0.01,0.0,-0.16,0.0,b
988.0,2640.0,2926.0,3456.0,4095.0,4095.0,4095.0,4095.0,-1.13,9.74,5.05,-0.02,0.02,-0.16,0.0,b
997.0,2640.0,2927.0,3446.0,4095.0,4095.0,4095.0,4095.0,-1.06,9.77,5.16,-0.01,-0.03,-0.16,0.0,b
989.0,2639.0,2927.0,3457.0,4095.0,4082.0,4095.0,4095.0,-0.91,9.71,5.45,-0.01,0.01,-0.16,0.0,b
1003.0,2645.0,2925.0,3453.0,4095.0,4095.0,4095.0,4095.0,-1.04,9.76,5.39,0.0,0.01,-0.16,0.0,b
983.0,2649.0,2927.0,3463.0,4095.0,4095.0,4095.0,4095.0,-0.97,9.74,5.35,0.02,0.03,-0.13,0.0,b
992.0,2625.0,2928.0,3461.0,4095.0,4095.0,4095.0,4095.0,-1.0,9.75,5.27,0.04,-0.01,-0.15,0.0,b
979.0,2617.0,2938.0,3446.0,4095.0,4095.0,4095.0,4095.0,-1.0,9.79,5.14,0.02,0.03,-0.15,0.0,b
1006.0,2631.0,2928.0,3458.0,4095.0,4095.0,4095.0,4095.0,-0.97,9.77,5.2,0.03,-0.01,-0.15,0.0,b
992.0,2620.0,2933.0,3468.0,4095.0,4095.0,4095.0,4095.0,-0.92,9.81,5.17,0.03,0.01,-0.15,0.0,b
985.0,2615.0,2926.0,3461.0,4095.0,4095.0,4095.0,4095.0,-0.93,9.75,5.23,0.02,-0.0,-0.16,0.0,b
992.0,2619.0,2934.0,3465.0,4095.0,4095.0,4095.0,4095.0,-1.11,9.73,5.22,0.03,-0.01,-0.17,0.0,b
992.0,2608.0,2932.0,3477.0,4095.0,4095.0,4095.0,4095.0,-0.99,9.76,5.14,0.0,0.01,-0.14,0.0,b
995.0,2610.0,2949.0,3471.0,4095.0,4093.0,4095.0,4095.0,-0.95,9.78,5.2,0.02,-0.04,-0.15,0.0,b
3540.0,951.0,3060.0,3456.0,4095.0,4095.0,4095.0,4095.0,-0.89,9.79,5.04,-0.02,0.07,-0.15,0.0,b
3553.0,944.0,3062.0,3439.0,4095.0,4095.0,4095.0,4095.0,-0.82,9.82,5.13,0.01,-0.04,-0.17,0.0,b
3543.0,944.0,3069.0,3443.0,4095.0,4095.0,4095.0,4095.0,-0.91,9.79,5.13,0.01,-0.01,-0.13,0.0,b
3554.0,948.0,3060.0,3465.0,4095.0,4095.0,4095.0,4095.0,-0.65,9.81,5.2,0.0,-0.11,-0.14,0.0,b
3536.0,941.0,3056.0,3456.0,4095.0,4095.0,4095.0,4095.0,-0.55,9.77,5.28,0.0,-0.05,-0.15,0.0,b
3553.0,948.0,3056.0,3458.0,4095.0,4095.0,4095.0,4095.0,-0.66,9.77,5.22,0.04,-0.01,-0.17,0.0,b
3567.0,946.0,3058.0,3470.0,4095.0,4095.0,4095.0,4095.0,-0.7,9.76,5.17,0.03,0.02,-0.16,0.0,b
3567.0,957.0,3051.0,3457.0,4095.0,4095.0,4095.0,4095.0,-0.75,9.8,5.04,0.0,-0.03,-0.17,0.0,b
3568.0,947.0,3050.0,3463.0,4095.0,4095.0,4095.0,4095.0,-0.75,9.78,5.2,0.02,-0.01,-0.16,0.0,b
3568.0,943.0,3047.0,3472.0,4095.0,4095.0,4095.0,4095.0,-0.72,9.82,5.15,0.02,-0.02,-0.17,0.0,b
3568.0,952.0,3063.0,3472.0,4095.0,4095.0,4095.0,4095.0,-0.73,9.76,5.24,0.04,-0.01,-0.17,0.0,b
3582.0,949.0,3034.0,3481.0,4095.0,4095.0,4095.0,4095.0,-0.85,9.8,5.15,0.0,-0.0,-0.15,0.0,b
3568.0,950.0,3047.0,3494.0,4095.0,4095.0,4095.0,4095.0,-0.69,9.81,5.17,0.03,-0.04,-0.15,0.0,b
3583.0,954.0,3030.0,3475.0,4095.0,4095.0,4095.0,4095.0,-0.71,9.8,5.11,-0.0,-0.03,-0.14,0.0,b
3601.0,947.0,3010.0,3474.0,4095.0,4095.0,4095.0,4095.0,-0.76,9.82,5.11,0.03,-0.03,-0.16,0.0,b
3621.0,944.0,3015.0,3473.0,4095.0,4095.0,4095.0,4095.0,-0.75,9.76,5.15,-0.01,-0.02,-0.14,0.0,b
3605.0,953.0,3026.0,3495.0,4095.0,4095.0,4095.0,4095.0,-0.67,9.86,5.2,0.03,0.0,-0.14,0.0,b
3623.0,939.0,3031.0,3493.0,4095.0,4095.0,4095.0,4095.0,-0.68,9.73,5.25,0.0,0.05,-0.14,0.0,b
3621.0,954.0,3030.0,3479.0,4095.0,4095.0,4095.0,4095.0,-0.68,9.85,5.08,0.02,-0.01,-0.16,0.0,b
3643.0,955.0,2992.0,3504.0,4095.0,4095.0,4095.0,4095.0,-0.8,9.76,5.16,0.01,0.03,-0.14,0.0,b
2159.0,4095.0,2253.0,3476.0,4095.0,4095.0,4095.0,4095.0,-0.88,9.67,5.02,-0.04,-0.01,-0.11,0.0,b
2150.0,4095.0,2256.0,3490.0,4095.0,4095.0,4095.0,4095.0,-0.81,9.84,5.04,-0.0,0.0,-0.17,0.0,b
2107.0,4095.0,2241.0,3472.0,4095.0,4095.0,4095.0,4095.0,-0.77,9.81,5.08,0.02,-0.01,-0.14,0.0,b
2085.0,4095.0,2255.0,3475.0,4095.0,4095.0,4095.0,4095.0,-0.87,9.76,5.08,-0.01,0.01,-0.14,0.0,b
2038.0,4095.0,2239.0,3491.0,4095.0,4095.0,4095.0,4095.0,-0.71,9.85,4.88,0.01,0.03,-0.16,0.0,b
1993.0,4095.0,2272.0,3471.0,4095.0,4095.0,4095.0,4095.0,-1.0,9.71,5.06,-0.02,0.24,-0.14,0.0,b
2009.0,4095.0,2270.0,3475.0,4095.0,4095.0,4095.0,4095.0,-0.83,9.85,5.0,-0.02,-0.07,-0.14,0.0,b
1930.0,4095.0,2271.0,3493.0,4095.0,4095.0,4095.0,4095.0,-0.92,9.73,5.14,0.01,0.05,-0.16,0.0,b
1910.0,4095.0,2276.0,3479.0,4095.0,4095.0,4095.0,4095.0,-0.93,9.86,5.06,-0.01,-0.01,-0.12,0.0,b
1904.0,4095.0,2266.0,3484.0,4095.0,4095.0,4095.0,4095.0,-0.75,9.8,5.11,0.03,-0.04,-0.15,0.0,b
1872.0,4095.0,2273.0,3503.0,4095.0,4095.0,4095.0,4095.0,-0.86,9.76,5.11,-0.02,0.04,-0.13,0.0,b
1878.0,4095.0,2263.0,3491.0,4095.0,4095.0,4095.0,4095.0,-0.75,9.84,5.09,0.01,-0.03,-0.15,0.0,b
1850.0,4095.0,2278.0,3510.0,4095.0,4095.0,4095.0,4095.0,-0.87,9.73,5.1,-0.0,0.04,-0.16,0.0,b
1879.0,4095.0,2272.0,3502.0,4095.0,4095.0,4095.0,4095.0,-0.79,9.89,5.04,0.01,-0.01,-0.15,0.0,b
1860.0,4095.0,2255.0,3507.0,4095.0,4095.0,4095.0,4095.0,-0.88,9.78,5.21,0.04,0.03,-0.15,0.0,b
1827.0,4095.0,2269.0,3506.0,4095.0,4095.0,4095.0,4095.0,-0.8,9.77,5.05,-0.01,-0.04,-0.14,0.0,b
1850.0,4095.0,2271.0,3509.0,4095.0,4095.0,4095.0,4095.0,-0.73,9.83,5.06,0.05,-0.0,-0.15,0.0,b
1835.0,4095.0,2257.0,3513.0,4095.0,4095.0,4095.0,4095.0,-0.71,9.77,5.03,0.01,-0.03,-0.16,0.0,b
1808.0,4095.0,2270.0,3527.0,4095.0,4095.0,4095.0,4095.0,-0.82,9.84,5.04,0.01,0.01,-0.16,0.0,b
1758.0,4095.0,2261.0,3508.0,4095.0,4095.0,4095.0,4095.0,-0.9,9.69,5.17,0.01,-0.04,-0.16,0.0,b
1134.0,4095.0,2793.0,3417.0,4095.0,4095.0,4095.0,4095.0,-0.63,9.83,5.39,0.09,0.02,-0.16,0.0,b
1063.0,4095.0,2793.0,3427.0,4095.0,4095.0,4095.0,4095.0,-0.82,9.88,5.25,0.02,0.05,-0.14,0.0,b
1142.0,4095.0,2795.0,3435.0,4095.0,4095.0,4095.0,4095.0,-0.65,9.84,5.36,0.06,-0.03,-0.17,0.0,b
1065.0,4095.0,2793.0,3428.0,4095.0,4095.0,4095.0,4095.0,-0.68,9.73,5.4,0.01,0.06,-0.13,0.0,b
1047.0,4095.0,2790.0,3440.0,4095.0,4095.0,4095.0,4095.0,-0.64,9.81,5.23,0.06,-0.0,-0.15,0.0,b
1071.0,4095.0,2785.0,3438.0,4095.0,4095.0,4095.0,4095.0,-0.67,9.78,5.29,0.0,0.0,-0.15,0.0,b
1051.0,4095.0,2793.0,3439.0,4095.0,4095.0,4095.0,4095.0,-0.56,9.83,5.33,0.01,0.03,-0.16,0.0,b
1047.0,4095.0,2800.0,3452.0,4095.0,4095.0,4095.0,4095.0,-0.71,9.78,5.33,0.02,0.02,-0.15,0.0,b
1007.0,4095.0,2791.0,3454.0,4095.0,4095.0,4095.0,4095.0,-0.67,9.85,5.26,0.0,0.01,-0.15,0.0,b
986.0,4095.0,2788.0,3459.0,4095.0,4095.0,4095.0,4095.0,-0.76,9.75,5.36,0.02,0.01,-0.14,0.0,b
988.0,4095.0,2801.0,3445.0,4095.0,4095.0,4095.0,4095.0,-0.67,9.79,5.33,-0.01,0.02,-0.14,0.0,b
981.0,4095.0,2787.0,3468.0,4095.0,4095.0,4095.0,4095.0,-0.63,9.78,5.37,0.01,-0.01,-0.15,0.0,b
986.0,4095.0,2800.0,3452.0,4095.0,4095.0,4095.0,4095.0,-0.68,9.78,5.31,0.0,0.04,-0.14,0.0,b
981.0,4095.0,2785.0,3466.0,4095.0,4095.0,4095.0,4095.0,-0.7,9.78,5.4,0.02,-0.04,-0.16,0.0,b
985.0,4095.0,2794.0,3453.0,4095.0,4095.0,4095.0,4095.0,-0.74,9.89,5.22,0.01,0.04,-0.14,0.0,b
981.0,4095.0,2794.0,3456.0,4095.0,4095.0,4095.0,4095.0,-0.63,9.79,5.34,0.0,-0.06,-0.17,0.0,b
981.0,4095.0,2792.0,3470.0,4095.0,4095.0,4095.0,4095.0,-0.68,9.79,5.35,-0.01,0.03,-0.15,0.0,b
986.0,4095.0,2791.0,3471.0,4095.0,4095.0,4095.0,4095.0,-0.75,9.73,5.43,0.01,-0.03,-0.16,0.0,b
976.0,4095.0,2794.0,3479.0,4095.0,4095.0,4095.0,4095.0,-0.79,9.75,5.34,-0.02,0.0,-0.15,0.0,b
979.0,4095.0,2788.0,3471.0,4095.0,4095.0,4095.0,4095.0,-0.61,9.81,5.41,0.03,-0.05,-0.15,0.0,b
