hall_1,hall_2,hall_3,flex_t,flex_i,flex_m,flex_r,flex_p,accel_x,accel_y,accel_z,gyro_x,gyro_y,gyro_z,hand,sign
3429.0,3870.0,1330.0,2852.0,4095.0,4095.0,4095.0,4095.0,0.18,9.77,2.59,-0.07,-0.05,-0.06,1.0,b
3440.0,3872.0,1319.0,2859.0,4095.0,4095.0,4095.0,4095.0,0.28,9.73,2.69,-0.04,-0.04,-0.04,1.0,b
3454.0,3855.0,1330.0,2850.0,4095.0,4095.0,4095.0,4095.0,0.28,9.75,2.7,-0.04,0.03,-0.04,1.0,b
3443.0,3838.0,1325.0,2853.0,4095.0,4095.0,4095.0,4095.0,0.26,9.75,2.63,-0.05,-0.04,-0.05,1.0,b
3418.0,3843.0,1322.0,2847.0,4095.0,4095.0,4095.0,4095.0,0.25,9.8,2.64,-0.07,0.0,-0.05,1.0,b
3421.0,3843.0,1311.0,2839.0,4095.0,4095.0,4095.0,4095.0,0.21,9.73,2.61,-0.09,0.04,-0.04,1.0,b
3411.0,3840.0,1300.0,2838.0,4095.0,4095.0,4095.0,4095.0,0.19,9.79,2.64,-0.03,-0.01,-0.05,1.0,b
3439.0,3815.0,1317.0,2849.0,4095.0,4095.0,4095.0,4095.0,0.17,9.78,2.56,-0.06,0.01,-0.04,1.0,b
3430.0,3810.0,1296.0,2851.0,4095.0,4095.0,4095.0,4095.0,0.21,9.75,2.72,-0.03,-0.04,-0.05,1.0,b
3409.0,3830.0,1295.0,2847.0,4095.0,4095.0,4095.0,4095.0,0.23,9.73,2.7,-0.04,-0.0,-0.04,1.0,b
3413.0,3827.0,1290.0,2851.0,4095.0,4095.0,4095.0,4095.0,0.29,9.8,2.59,-0.02,-0.02,-0.06,1.0,b
3414.0,3797.0,1287.0,2850.0,4095.0,4095.0,4095.0,4095.0,0.14,9.76,2.57,-0.02,-0.0,-0.06,1.0,b
3410.0,3701.0,1278.0,2851.0,4095.0,4095.0,4095.0,4095.0,0.19,9.72,2.51,-0.08,-0.01,-0.06,1.0,b
3413.0,3684.0,1263.0,2850.0,4095.0,4095.0,4095.0,4095.0,0.14,9.75,2.61,-0.05,0.03,-0.07,1.0,b
3392.0,3683.0,1259.0,2845.0,4095.0,4095.0,4095.0,4095.0,0.04,9.79,2.58,-0.07,0.05,-0.06,1.0,b
3383.0,3666.0,1261.0,2849.0,4095.0,4095.0,4095.0,4095.0,-0.06,9.65,2.77,-0.06,-0.0,-0.03,1.0,b
3402.0,3696.0,1269.0,2845.0,4095.0,4095.0,4095.0,4095.0,0.29,9.78,2.72,-0.02,-0.0,-0.01,1.0,b
3392.0,3676.0,1279.0,2838.0,4095.0,4095.0,4095.0,4095.0,0.24,9.77,2.51,-0.04,0.02,-0.04,1.0,b
3382.0,3664.0,1296.0,2861.0,4095.0,4095.0,4095.0,4095.0,0.08,9.8,2.44,-0.08,0.04,-0.03,1.0,b
3396.0,3674.0,1322.0,2851.0,4095.0,4095.0,4095.0,4095.0,0.12,9.76,2.52,-0.05,-0.05,-0.03,1.0,b
3377.0,3678.0,1295.0,2863.0,4095.0,4095.0,4095.0,4095.0,0.16,9.73,2.44,-0.07,0.02,-0.03,1.0,b
3375.0,3651.0,1298.0,2862.0,4095.0,4095.0,4095.0,4095.0,0.12,9.72,2.56,-0.06,-0.03,-0.05,1.0,b
3367.0,3667.0,1296.0,2851.0,4095.0,4095.0,4095.0,4095.0,0.24,9.73,2.71,-0.06,0.02,-0.02,1.0,b
3369.0,3651.0,1289.0,2853.0,4095.0,4095.0,4095.0,4095.0,0.19,9.81,2.51,-0.06,0.06,-0.03,1.0,b
3373.0,3655.0,1296.0,2858.0,4095.0,4095.0,4095.0,4095.0,0.11,9.77,2.5,-0.06,-0.0,-0.03,1.0,b
3358.0,3666.0,1281.0,2862.0,4095.0,4095.0,4095.0,4095.0,0.21,9.78,2.56,-0.06,0.03,-0.02,1.0,b
3377.0,3681.0,1290.0,2863.0,4095.0,4095.0,4095.0,4095.0,0.29,9.78,2.61,-0.06,-0.0,-0.03,1.0,b
3371.0,3686.0,1296.0,2864.0,4095.0,4095.0,4095.0,4095.0,0.11,9.77,2.58,-0.1,0.05,-0.03,1.0,b
3371.0,3682.0,1283.0,2857.0,4095.0,4095.0,4095.0,4095.0,0.08,9.75,2.59,-0.04,-0.03,-0.04,1.0,b
3371.0,3685.0,1280.0,2863.0,4095.0,4095.0,4095.0,4095.0,0.16,9.78,2.57,-0.07,0.03,-0.03,1.0,b
3376.0,3679.0,1283.0,2855.0,4095.0,4095.0,4095.0,4095.0,0.25,9.82,2.52,-0.04,-0.05,-0.04,1.0,b
3376.0,3664.0,1283.0,2855.0,4095.0,4095.0,4095.0,4095.0,0.21,9.81,2.53,-0.08,0.03,-0.03,1.0,b
3362.0,3663.0,1285.0,2850.0,4095.0,4095.0,4095.0,4095.0,0.1,9.76,2.64,-0.07,0.0,-0.03,1.0,b
3365.0,3689.0,1279.0,2859.0,4095.0,4095.0,4095.0,4095.0,0.19,9.76,2.6,-0.06,0.04,-0.03,1.0,b
3350.0,3679.0,1273.0,2859.0,4095.0,4095.0,4095.0,4095.0,0.19,9.8,2.56,-0.08,0.02,-0.05,1.0,b
3376.0,3667.0,1270.0,2858.0,4095.0,4095.0,4095.0,4095.0,0.1,9.76,2.62,-0.05,0.01,-0.05,1.0,b
3367.0,3689.0,1264.0,2864.0,4095.0,4095.0,4095.0,4095.0,0.15,9.8,2.52,-0.05,-0.01,-0.03,1.0,b
3375.0,3667.0,1262.0,2863.0,4095.0,4095.0,4095.0,4095.0,0.18,9.8,2.53,-0.06,-0.01,-0.03,1.0,b
3348.0,3674.0,1241.0,2861.0,4095.0,4095.0,4095.0,4095.0,0.2,9.74,2.65,-0.05,-0.03,-0.03,1.0,b
3357.0,3678.0,1232.0,2864.0,4095.0,4095.0,4095.0,4095.0,0.18,9.78,2.67,-0.03,0.02,-0.03,1.0,b
3599.0,3972.0,2559.0,2894.0,4095.0,4095.0,4095.0,4095.0,-0.01,9.82,2.58,-0.07,0.03,-0.03,1.0,b
3601.0,3968.0,2545.0,2891.0,4095.0,4095.0,4095.0,4095.0,0.13,9.78,2.69,-0.06,-0.01,-0.04,1.0,b
3581.0,3952.0,2544.0,2891.0,4095.0,4095.0,4095.0,4095.0,0.08,9.76,2.74,-0.04,0.02,-0.03,1.0,b
3600.0,3954.0,2533.0,2900.0,4095.0,4095.0,4095.0,4095.0,0.08,9.79,2.52,-0.05,0.02,-0.04,1.0,b
3607.0,3952.0,2519.0,2905.0,4095.0,4095.0,4095.0,4095.0,0.17,9.82,2.56,-0.05,-0.01,-0.05,1.0,b
3605.0,3944.0,2503.0,2895.0,4095.0,4095.0,4095.0,4095.0,0.17,9.82,2.53,-0.06,-0.01,-0.04,1.0,b
3573.0,3963.0,2486.0,2896.0,4095.0,4095.0,4095.0,4095.0,0.02,9.83,2.52,-0.06,0.02,-0.04,1.0,b
3614.0,3947.0,2478.0,2896.0,4095.0,4095.0,4095.0,4095.0,-0.02,9.71,2.59,-0.04,-0.01,-0.03,1.0,b
3598.0,3919.0,2459.0,2903.0,4095.0,4095.0,4095.0,4095.0,0.16,9.75,2.65,-0.05,-0.0,-0.03,1.0,b
3606.0,3905.0,2440.0,2911.0,4095.0,4095.0,4095.0,4095.0,0.15,9.75,2.66,-0.09,0.01,-0.02,1.0,b
3612.0,3903.0,2432.0,2919.0,4095.0,4095.0,4095.0,4095.0,0.14,9.76,2.56,-0.06,-0.0,-0.04,1.0,b
3600.0,3875.0,2416.0,2913.0,4095.0,4095.0,4095.0,4095.0,0.08,9.76,2.56,-0.05,-0.0,-0.04,1.0,b
3583.0,3888.0,2400.0,2919.0,4095.0,4095.0,4095.0,4095.0,0.03,9.77,2.52,-0.09,0.0,-0.03,1.0,b
3583.0,3890.0,2387.0,2902.0,4095.0,4095.0,4095.0,4095.0,0.05,9.75,2.62,-0.07,0.01,-0.03,1.0,b
3599.0,3889.0,2381.0,2910.0,4095.0,4095.0,4095.0,4095.0,0.15,9.78,2.66,-0.06,-0.01,-0.03,1.0,b
3600.0,3888.0,2365.0,2912.0,4095.0,4095.0,4095.0,4095.0,0.15,9.76,2.64,-0.06,-0.0,-0.04,1.0,b
3609.0,3874.0,2355.0,2906.0,4095.0,4095.0,4095.0,4095.0,0.12,9.74,2.66,-0.05,0.01,-0.04,1.0,b
3607.0,3867.0,2354.0,2902.0,4095.0,4095.0,4095.0,4095.0,0.05,9.74,2.62,-0.05,0.01,-0.04,1.0,b
3616.0,3871.0,2347.0,2917.0,4095.0,4095.0,4095.0,4095.0,0.13,9.8,2.53,-0.04,-0.01,-0.05,1.0,b
3613.0,3876.0,2337.0,2915.0,4095.0,4095.0,4095.0,4095.0,0.07,9.78,2.56,-0.05,0.01,-0.04,1.0,b
3663.0,4095.0,3824.0,2887.0,4095.0,4095.0,4095.0,4095.0,-0.04,9.79,2.21,-0.07,0.06,-0.05,1.0,b
3663.0,4095.0,3823.0,2902.0,4095.0,4095.0,4095.0,4095.0,-0.07,9.82,2.24,-0.08,0.01,-0.03,1.0,b
3671.0,4095.0,3795.0,2897.0,4095.0,4095.0,4095.0,4095.0,0.07,9.86,2.31,-0.04,-0.02,-0.04,1.0,b
3675.0,4095.0,3818.0,2896.0,4095.0,4095.0,4095.0,4095.0,0.09,9.91,2.15,-0.04,-0.03,-0.04,1.0,b
3664.0,4095.0,3776.0,2869.0,4095.0,4095.0,4095.0,4095.0,0.05,9.93,2.08,-0.05,-0.01,-0.04,1.0,b
3663.0,4095.0,3814.0,2891.0,4095.0,4095.0,4095.0,4095.0,-0.03,9.85,2.15,-0.06,-0.05,-0.04,1.0,b
3680.0,4095.0,3809.0,2895.0,4095.0,4095.0,4095.0,4095.0,0.05,9.86,2.22,-0.05,0.05,-0.04,1.0,b
3664.0,4095.0,3824.0,2898.0,4095.0,4095.0,4095.0,4095.0,0.05,9.84,2.21,-0.06,0.02,-0.03,1.0,b
3680.0,4095.0,3815.0,2894.0,4095.0,4095.0,4095.0,4095.0,0.02,9.81,2.16,-0.07,0.02,-0.04,1.0,b
3664.0,4095.0,3805.0,2896.0,4095.0,4095.0,4095.0,4095.0,-0.05,9.82,2.28,-0.09,0.03,-0.03,1.0,b
3668.0,4095.0,3806.0,2902.0,4095.0,4095.0,4095.0,4095.0,-0.01,9.82,2.3,-0.06,0.05,-0.04,1.0,b
3677.0,4095.0,3809.0,2905.0,4095.0,4095.0,4095.0,4095.0,-0.0,9.86,2.16,-0.04,0.01,-0.03,1.0,b
3696.0,4095.0,3835.0,2909.0,4095.0,4095.0,4095.0,4095.0,0.08,9.9,2.04,-0.06,0.04,-0.04,1.0,b
3662.0,4095.0,3839.0,2906.0,4095.0,4095.0,4095.0,4095.0,-0.01,9.87,2.07,-0.1,0.06,-0.03,1.0,b
3677.0,4095.0,3878.0,2901.0,4095.0,4095.0,4095.0,4095.0,0.16,9.85,2.23,-0.06,0.01,-0.04,1.0,b
3687.0,4095.0,3903.0,2896.0,4095.0,4095.0,4095.0,4095.0,-0.02,9.92,2.16,-0.08,0.03,-0.04,1.0,b
3679.0,4095.0,3906.0,2896.0,4095.0,4095.0,4095.0,4095.0,-0.0,9.89,2.22,-0.08,-0.03,-0.04,1.0,b
3678.0,4095.0,3877.0,2896.0,4095.0,4095.0,4095.0,4095.0,-0.08,9.82,2.28,-0.07,-0.02,-0.02,1.0,b
3671.0,4095.0,3903.0,2902.0,4095.0,4095.0,4095.0,4095.0,0.05,9.91,2.2,-0.04,0.0,-0.03,1.0,b
3666.0,4095.0,3892.0,2901.0,4095.0,4095.0,4095.0,4095.0,0.04,9.87,2.19,-0.06,-0.01,-0.05,1.0,b
4095.0,4095.0,854.0,2803.0,4095.0,4095.0,4095.0,4095.0,-0.26,9.86,2.1,-0.06,-0.01,-0.03,1.0,b
4095.0,4095.0,848.0,2797.0,4095.0,4095.0,4095.0,4095.0,-0.29,9.83,2.15,-0.06,0.0,-0.04,1.0,b
4095.0,4095.0,857.0,2798.0,4095.0,4095.0,4095.0,4095.0,-0.28,9.88,2.22,-0.06,0.01,-0.04,1.0,b
4095.0,4095.0,846.0,2803.0,4095.0,4095.0,4095.0,4095.0,-0.38,9.81,2.25,-0.05,0.01,-0.03,1.0,b
4095.0,4095.0,846.0,2811.0,4095.0,4095.0,4095.0,4095.0,-0.36,9.82,2.2,-0.03,0.01,-0.04,1.0,b
4095.0,4095.0,851.0,2823.0,4095.0,4095.0,4095.0,4095.0,-0.23,9.83,2.18,-0.06,-0.03,-0.04,1.0,b
4095.0,4095.0,848.0,2826.0,4095.0,4095.0,4095.0,4095.0,-0.23,9.85,2.32,-0.07,-0.02,-0.04,1.0,b
4095.0,4095.0,848.0,2833.0,4095.0,4095.0,4095.0,4095.0,-0.31,9.79,2.26,-0.07,0.0,-0.03,1.0,b
4095.0,4095.0,847.0,2826.0,4095.0,4095.0,4095.0,4095.0,-0.37,9.84,2.21,-0.05,-0.01,-0.05,1.0,b
4095.0,4095.0,848.0,2825.0,4095.0,4095.0,4095.0,4095.0,-0.34,9.77,2.2,-0.08,-0.01,-0.02,1.0,b
4095.0,4095.0,848.0,2832.0,4095.0,4095.0,4095.0,4095.0,-0.26,9.85,2.27,-0.06,0.01,-0.02,1.0,b
4095.0,4095.0,855.0,2833.0,4095.0,4095.0,4095.0,4095.0,-0.23,9.81,2.23,-0.06,-0.01,-0.03,1.0,b
4095.0,4095.0,852.0,2837.0,4095.0,4095.0,4095.0,4095.0,-0.24,9.86,2.24,-0.1,0.01,-0.04,1.0,b
4095.0,4095.0,848.0,2848.0,4095.0,4095.0,4095.0,4095.0,-0.33,9.81,2.27,-0.05,0.01,-0.04,1.0,b
4095.0,4095.0,851.0,2834.0,4095.0,4095.0,4095.0,4095.0,-0.34,9.83,2.21,-0.07,0.0,-0.03,1.0,b
4095.0,4095.0,849.0,2833.0,4095.0,4095.0,4095.0,4095.0,-0.37,9.94,2.19,-0.06,0.0,-0.02,1.0,b
4095.0,4095.0,851.0,2846.0,4095.0,4095.0,4095.0,4095.0,-0.26,9.84,2.31,-0.08,0.0,-0.03,1.0,b
4095.0,4095.0,849.0,2838.0,4095.0,4095.0,4095.0,4095.0,-0.33,9.8,2.35,-0.06,-0.0,-0.04,1.0,b
4095.0,4095.0,848.0,2833.0,4095.0,4095.0,4095.0,4095.0,-0.28,9.85,2.3,-0.03,0.01,-0.05,1.0,b
4095.0,4095.0,852.0,2832.0,4095.0,4095.0,4095.0,4095.0,-0.33,9.84,2.15,-0.04,0.0,-0.03,1.0,b
4095.0,4095.0,875.0,2884.0,4095.0,4095.0,4095.0,4095.0,-0.38,9.84,2.05,-0.07,-0.01,-0.03,1.0,b
4095.0,4095.0,864.0,2886.0,4095.0,4095.0,4095.0,4095.0,-0.41,9.89,2.08,-0.07,0.01,-0.03,1.0,b
4095.0,4095.0,858.0,2882.0,4095.0,4095.0,4095.0,4095.0,-0.4,9.95,2.0,-0.04,-0.01,-0.03,1.0,b
4095.0,4095.0,853.0,2895.0,4095.0,4095.0,4095.0,4095.0,-0.4,9.96,1.96,-0.05,-0.0,-0.03,1.0,b
4095.0,4095.0,864.0,2885.0,4095.0,4095.0,4095.0,4095.0,-0.4,9.88,2.04,-0.06,0.02,-0.03,1.0,b
4095.0,4095.0,852.0,2881.0,4095.0,4095.0,4095.0,4095.0,-0.36,9.86,2.06,-0.04,-0.03,-0.03,1.0,b
4095.0,4095.0,860.0,2884.0,4095.0,4095.0,4095.0,4095.0,-0.47,9.91,1.92,-0.08,0.02,-0.04,1.0,b
4095.0,4095.0,858.0,2879.0,4095.0,4095.0,4095.0,4095.0,-0.45,9.85,2.04,-0.09,-0.02,-0.02,1.0,b
4095.0,4095.0,865.0,2880.0,4095.0,4095.0,4095.0,4095.0,-0.28,9.95,2.14,-0.06,0.03,-0.03,1.0,b
4095.0,4095.0,865.0,2887.0,4095.0,4095.0,4095.0,4095.0,-0.49,9.81,2.09,-0.05,-0.01,-0.03,1.0,b
4095.0,4095.0,862.0,2879.0,4095.0,4095.0,4095.0,4095.0,-0.31,9.84,2.09,-0.08,-0.01,-0.01,1.0,b
4095.0,4095.0,869.0,2889.0,4095.0,4095.0,4095.0,4095.0,-0.41,9.81,2.1,-0.07,-0.0,-0.01,1.0,b
4095.0,4095.0,855.0,2879.0,4095.0,4095.0,4095.0,4095.0,-0.35,9.87,2.04,-0.03,0.02,-0.04,1.0,b
4095.0,4095.0,855.0,2895.0,4095.0,4095.0,4095.0,4095.0,-0.35,9.86,2.02,-0.06,-0.0,-0.03,1.0,b
4095.0,4095.0,865.0,2883.0,4095.0,4095.0,4095.0,4095.0,-0.28,9.9,1.98,-0.07,0.01,-0.04,1.0,b
4095.0,4095.0,859.0,2883.0,4095.0,4095.0,4095.0,4095.0,-0.36,9.82,2.16,-0.08,0.0,-0.02,1.0,b
4095.0,4095.0,863.0,2885.0,4095.0,4095.0,4095.0,4095.0,-0.35,9.89,2.15,-0.07,-0.01,-0.04,1.0,b
4095.0,4095.0,860.0,2895.0,4095.0,4095.0,4095.0,4095.0,-0.34,9.8,2.15,-0.06,0.01,-0.03,1.0,b
4095.0,4095.0,858.0,2889.0,4095.0,4095.0,4095.0,4095.0,-0.32,9.91,2.09,-0.02,0.02,-0.04,1.0,b
4095.0,4095.0,862.0,2898.0,4095.0,4095.0,4095.0,4095.0,-0.28,9.91,1.9,-0.08,-0.0,-0.03,1.0,b
3079.0,4095.0,3855.0,2959.0,4095.0,4095.0,4095.0,4095.0,-0.2,9.88,1.87,-0.14,-0.0,-0.01,1.0,b
3088.0,4095.0,3849.0,2960.0,4095.0,4095.0,4095.0,4095.0,0.02,9.93,1.99,-0.07,0.01,-0.02,1.0,b
3108.0,4095.0,3830.0,2960.0,4095.0,4095.0,4095.0,4095.0,-0.13,9.86,1.97,-0.04,0.02,-0.05,1.0,b
3143.0,4095.0,3826.0,2963.0,4095.0,4095.0,4095.0,4095.0,-0.31,9.83,1.99,-0.07,-0.0,-0.02,1.0,b
3255.0,4095.0,3847.0,2960.0,4095.0,4095.0,4095.0,4095.0,-0.08,9.9,2.07,-0.04,-0.01,-0.03,1.0,b
3257.0,4095.0,3854.0,2960.0,4095.0,4095.0,4095.0,4095.0,-0.09,9.93,1.99,-0.06,0.01,-0.04,1.0,b
3275.0,4095.0,3821.0,2971.0,4095.0,4095.0,4095.0,4095.0,-0.23,9.88,1.89,-0.07,0.03,-0.03,1.0,b
3253.0,4095.0,3845.0,2969.0,4095.0,4095.0,4095.0,4095.0,-0.12,9.9,1.96,-0.05,-0.03,-0.04,1.0,b
3293.0,4095.0,3826.0,2972.0,4095.0,4095.0,4095.0,4095.0,-0.13,9.87,2.01,-0.07,0.04,-0.03,1.0,b
3339.0,4095.0,3843.0,2979.0,4095.0,4095.0,4095.0,4095.0,-0.15,9.91,1.9,-0.06,0.02,-0.03,1.0,b
3398.0,4095.0,3824.0,2977.0,4095.0,4095.0,4095.0,4095.0,-0.18,9.88,1.95,-0.09,0.04,-0.03,1.0,b
3387.0,4095.0,3836.0,2976.0,4095.0,4095.0,4095.0,4095.0,-0.23,9.9,1.94,-0.09,0.02,-0.03,1.0,b
3431.0,4095.0,3840.0,2983.0,4095.0,4095.0,4095.0,4095.0,-0.22,9.85,2.04,-0.06,-0.0,-0.03,1.0,b
3437.0,4095.0,3847.0,2982.0,4095.0,4095.0,4095.0,4095.0,-0.21,9.91,2.01,-0.06,0.03,-0.03,1.0,b
3470.0,4095.0,3856.0,2992.0,4095.0,4095.0,4095.0,4095.0,-0.14,9.86,1.93,-0.03,-0.02,-0.04,1.0,b
3477.0,4095.0,3892.0,2990.0,4095.0,4095.0,4095.0,4095.0,-0.11,9.9,2.01,-0.08,-0.01,-0.03,1.0,b
3484.0,4095.0,3923.0,2978.0,4095.0,4095.0,4095.0,4095.0,-0.14,9.92,2.0,-0.03,0.02,-0.04,1.0,b
3486.0,4095.0,3965.0,2982.0,4095.0,4095.0,4095.0,4095.0,-0.15,9.91,1.93,-0.08,-0.0,-0.04,1.0,b
3487.0,4095.0,3939.0,2988.0,4095.0,4095.0,4095.0,4095.0,-0.24,9.89,2.05,-0.06,-0.0,-0.03,1.0,b
3499.0,4095.0,3989.0,2978.0,4095.0,4095.0,4095.0,4095.0,-0.14,9.9,2.07,-0.04,0.01,-0.04,1.0,b
4095.0,4095.0,4095.0,3011.0,4095.0,4095.0,4095.0,4095.0,-0.28,9.91,1.88,-0.06,0.0,-0.05,1.0,b
4095.0,4095.0,4095.0,3024.0,4095.0,4095.0,4095.0,4095.0,-0.21,9.92,1.92,-0.06,0.0,-0.03,1.0,b
4095.0,4095.0,4095.0,3008.0,4095.0,4095.0,4095.0,4095.0,-0.3,9.85,2.03,-0.1,0.01,-0.03,1.0,b
4095.0,4095.0,4095.0,3022.0,4095.0,4095.0,4095.0,4095.0,-0.24,9.93,1.97,-0.07,0.02,-0.03,1.0,b
4095.0,4095.0,4095.0,3009.0,4095.0,4095.0,4095.0,4095.0,-0.34,9.87,1.92,-0.04,-0.0,-0.03,1.0,b
4095.0,4095.0,4095.0,3013.0,4095.0,4095.0,4095.0,4095.0,-0.29,9.83,1.88,-0.1,0.02,-0.01,1.0,b
4095.0,4095.0,4095.0,2995.0,4095.0,4095.0,4095.0,4095.0,-0.18,9.88,1.96,-0.04,-0.01,-0.03,1.0,b
4095.0,4095.0,4095.0,3023.0,4095.0,4095.0,4095.0,4095.0,-0.2,9.84,2.01,-0.08,-0.01,-0.03,1.0,b
4095.0,4095.0,4095.0,3019.0,4095.0,4095.0,4095.0,4095.0,-0.23,9.92,1.93,-0.06,0.01,-0.01,1.0,b
4095.0,4095.0,4095.0,3024.0,4095.0,4095.0,4095.0,4095.0,-0.24,9.92,1.96,-0.08,-0.01,-0.04,1.0,b
4095.0,4095.0,4095.0,3021.0,4095.0,4095.0,4095.0,4095.0,-0.12,9.91,2.04,-0.05,-0.01,-0.05,1.0,b
4095.0,4095.0,4095.0,3021.0,4095.0,4095.0,4095.0,4095.0,-0.29,9.92,1.95,-0.04,0.01,-0.04,1.0,b
4095.0,4095.0,4095.0,3019.0,4095.0,4095.0,4095.0,4095.0,-0.28,9.9,1.92,-0.08,0.0,-0.03,1.0,b
4095.0,4095.0,4095.0,3010.0,4095.0,4095.0,4095.0,4095.0,-0.22,9.9,1.95,-0.04,0.01,-0.05,1.0,b
4095.0,4095.0,4095.0,3023.0,4095.0,4095.0,4095.0,4095.0,-0.24,9.89,1.94,-0.07,-0.01,-0.04,1.0,b
4095.0,4095.0,4095.0,3015.0,4095.0,4095.0,4095.0,4095.0,-0.21,9.89,2.01,-0.06,0.01,-0.03,1.0,b
4095.0,4095.0,4095.0,3021.0,4095.0,4095.0,4095.0,4095.0,-0.25,9.88,2.04,-0.05,-0.01,-0.04,1.0,b
4095.0,4095.0,4095.0,3027.0,4095.0,4095.0,4095.0,4095.0,-0.24,9.93,1.87,-0.03,0.0,-0.05,1.0,b
4095.0,4095.0,4095.0,3025.0,4095.0,4095.0,4095.0,4095.0,-0.31,9.89,1.9,-0.05,0.0,-0.04,1.0,b
4095.0,4095.0,4095.0,3024.0,4095.0,4095.0,4095.0,4095.0,-0.22,9.89,2.01,-0.08,-0.01,-0.03,1.0,b
3277.0,4095.0,4095.0,2993.0,4095.0,4095.0,4095.0,4095.0,-0.15,9.93,2.0,-0.08,0.01,-0.03,1.0,b
3254.0,4095.0,4095.0,2997.0,4095.0,4095.0,4095.0,4095.0,-0.05,9.83,2.31,-0.04,0.01,-0.03,1.0,b
3249.0,4095.0,4095.0,3005.0,4095.0,4095.0,4095.0,4095.0,0.04,9.9,2.08,-0.03,-0.01,-0.04,1.0,b
3249.0,4095.0,4095.0,3007.0,4095.0,4095.0,4095.0,4095.0,-0.03,9.86,2.12,-0.06,-0.01,-0.04,1.0,b
3248.0,4095.0,4095.0,3014.0,4095.0,4095.0,4095.0,4095.0,0.01,9.88,2.21,-0.07,-0.02,-0.05,1.0,b
3249.0,4095.0,4095.0,3008.0,4095.0,4095.0,4095.0,4095.0,-0.01,9.82,2.14,-0.05,0.0,-0.03,1.0,b
3261.0,4095.0,4095.0,3012.0,4095.0,4095.0,4095.0,4095.0,0.0,9.85,2.15,-0.07,-0.02,-0.03,1.0,b
3251.0,4095.0,4095.0,3018.0,4095.0,4095.0,4095.0,4095.0,-0.04,9.81,2.19,-0.06,0.0,-0.05,1.0,b
3258.0,4095.0,4095.0,3019.0,4095.0,4095.0,4095.0,4095.0,-0.13,9.87,2.15,-0.08,0.0,-0.03,1.0,b
3240.0,4095.0,4095.0,3018.0,4095.0,4095.0,4095.0,4095.0,0.01,9.87,2.21,-0.06,-0.01,-0.03,1.0,b
3242.0,4095.0,4095.0,3008.0,4095.0,4095.0,4095.0,4095.0,0.02,9.9,2.23,-0.04,0.0,-0.03,1.0,b
3264.0,4095.0,4095.0,3018.0,4095.0,4095.0,4095.0,4095.0,-0.05,9.86,2.1,-0.06,0.02,-0.04,1.0,b
3255.0,4095.0,4095.0,3014.0,4095.0,4095.0,4095.0,4095.0,-0.05,9.85,2.2,-0.06,-0.01,-0.04,1.0,b
3249.0,4095.0,4095.0,3007.0,4095.0,4095.0,4095.0,4095.0,-0.03,9.85,2.18,-0.08,0.01,-0.02,1.0,b
3279.0,4095.0,4095.0,3018.0,4095.0,4095.0,4095.0,4095.0,-0.05,9.81,2.22,-0.05,0.03,-0.04,1.0,b
3263.0,4095.0,4095.0,3007.0,4095.0,4095.0,4095.0,4095.0,-0.01,9.93,2.13,-0.07,0.02,-0.05,1.0,b
3268.0,4095.0,4095.0,3001.0,4095.0,4095.0,4095.0,4095.0,-0.08,9.8,2.3,-0.07,0.03,-0.03,1.0,b
3247.0,4095.0,3937.0,2993.0,4095.0,4095.0,4095.0,4095.0,-0.04,9.82,2.37,-0.02,0.0,-0.03,1.0,b
3248.0,4095.0,3890.0,3001.0,4095.0,4095.0,4095.0,4095.0,-0.12,9.91,1.98,-0.09,0.02,-0.0,1.0,b
3264.0,4095.0,3850.0,2992.0,4095.0,4095.0,4095.0,4095.0,0.03,9.89,2.23,-0.05,-0.03,-0.04,1.0,b
3566.0,4095.0,3386.0,2870.0,4095.0,4095.0,4095.0,4095.0,-0.22,9.78,2.21,-0.1,-0.01,-0.04,1.0,b
3553.0,4095.0,3354.0,2879.0,4095.0,4095.0,4095.0,4095.0,-0.13,9.77,2.42,-0.08,-0.0,-0.03,1.0,b
3566.0,4095.0,3374.0,2891.0,4095.0,4095.0,4095.0,4095.0,-0.11,9.86,2.24,-0.03,0.01,-0.03,1.0,b
3565.0,4095.0,3376.0,2882.0,4095.0,4095.0,4095.0,4095.0,-0.29,9.9,2.03,-0.06,-0.01,-0.04,1.0,b
3553.0,4095.0,3367.0,2883.0,4095.0,4095.0,4095.0,4095.0,-0.12,9.86,2.18,-0.06,-0.02,-0.03,1.0,b
3567.0,4095.0,3359.0,2888.0,4095.0,4095.0,4095.0,4095.0,-0.22,9.84,2.17,-0.06,0.01,-0.03,1.0,b
3573.0,4095.0,3347.0,2890.0,4095.0,4095.0,4095.0,4095.0,-0.18,9.88,2.17,-0.05,-0.02,-0.03,1.0,b
3554.0,4095.0,3337.0,2886.0,4095.0,4095.0,4095.0,4095.0,-0.16,9.87,2.25,-0.05,-0.01,-0.03,1.0,b
3568.0,4095.0,3338.0,2898.0,4095.0,4095.0,4095.0,4095.0,-0.11,9.89,2.15,-0.06,-0.02,-0.03,1.0,b
3553.0,4095.0,3338.0,2907.0,4095.0,4095.0,4095.0,4095.0,-0.24,9.84,2.24,-0.04,-0.02,-0.04,1.0,b
3551.0,4095.0,3335.0,2902.0,4095.0,4095.0,4095.0,4095.0,-0.16,9.95,2.02,-0.03,-0.03,-0.05,1.0,b
3555.0,4095.0,3329.0,2900.0,4095.0,4095.0,4095.0,4095.0,-0.18,9.77,2.1,-0.06,0.02,-0.02,1.0,b
3567.0,4095.0,3315.0,2897.0,4095.0,4095.0,4095.0,4095.0,-0.07,9.87,2.15,-0.07,-0.0,-0.01,1.0,b
3568.0,4095.0,3329.0,2909.0,4095.0,4095.0,4095.0,4095.0,-0.04,9.86,2.19,-0.07,-0.05,-0.04,1.0,b
3581.0,4095.0,3347.0,2910.0,4095.0,4095.0,4095.0,4095.0,-0.27,9.77,2.24,-0.09,0.01,-0.03,1.0,b
3569.0,4095.0,3328.0,2919.0,4095.0,4095.0,4095.0,4095.0,-0.14,9.79,2.38,-0.04,-0.05,-0.04,1.0,b
3568.0,4095.0,3317.0,2903.0,4095.0,4095.0,4095.0,4095.0,-0.21,9.92,2.04,-0.07,0.04,-0.03,1.0,b
3605.0,4095.0,3309.0,2912.0,4095.0,4095.0,4095.0,4095.0,-0.15,9.79,2.27,-0.08,-0.02,-0.03,1.0,b
3575.0,4095.0,3332.0,2919.0,4095.0,4095.0,4095.0,4095.0,0.01,9.87,2.32,-0.05,-0.01,-0.03,1.0,b
3568.0,4095.0,3317.0,2907.0,4095.0,4095.0,4095.0,4095.0,-0.25,9.85,2.13,-0.06,0.03,-0.03,1.0,b
2621.0,3835.0,4095.0,2943.0,4095.0,4095.0,4095.0,4095.0,0.02,9.81,2.1,-0.06,0.05,-0.01,1.0,b
2657.0,3861.0,4095.0,2958.0,4095.0,4095.0,4095.0,4095.0,-0.12,9.81,2.1,-0.05,0.01,-0.05,1.0,b
2721.0,3846.0,4095.0,2945.0,4095.0,4095.0,4095.0,4095.0,-0.06,9.86,2.08,-0.05,0.0,-0.04,1.0,b
2800.0,3851.0,4095.0,2953.0,4095.0,4095.0,4095.0,4095.0,-0.15,9.92,1.88,-0.05,0.01,-0.05,1.0,b
2823.0,3866.0,4095.0,2949.0,4095.0,4095.0,4095.0,4095.0,-0.25,9.87,1.95,-0.08,-0.01,-0.04,1.0,b
2986.0,3856.0,4095.0,2956.0,4095.0,4095.0,4095.0,4095.0,-0.19,9.88,2.15,-0.07,0.01,-0.03,1.0,b
3041.0,3847.0,4095.0,2954.0,4095.0,4095.0,4095.0,4095.0,-0.17,9.95,2.02,-0.08,0.02,-0.01,1.0,b
3170.0,3877.0,4095.0,2960.0,4095.0,4095.0,4095.0,4095.0,-0.06,9.84,2.03,-0.1,0.02,0.0,1.0,b
3260.0,3856.0,4095.0,2962.0,4095.0,4095.0,4095.0,4095.0,-0.09,9.93,2.03,-0.11,0.01,0.0,1.0,b
3417.0,3830.0,4095.0,2962.0,4095.0,4095.0,4095.0,4095.0,-0.12,9.79,2.24,-0.05,0.02,-0.02,1.0,b
3463.0,3842.0,4095.0,2973.0,4095.0,4095.0,4095.0,4095.0,-0.11,9.84,2.15,-0.07,0.02,-0.02,1.0,b
3521.0,3834.0,4095.0,2967.0,4095.0,4095.0,4095.0,4095.0,-0.01,9.88,2.05,-0.03,-0.03,-0.05,1.0,b
3534.0,3841.0,4095.0,2965.0,4095.0,4095.0,4095.0,4095.0,-0.11,9.85,2.1,-0.08,-0.0,-0.01,1.0,b
3522.0,3855.0,4095.0,2977.0,4095.0,4095.0,4095.0,4095.0,-0.09,9.91,2.1,-0.06,-0.01,-0.04,1.0,b
3520.0,3860.0,4095.0,2962.0,4095.0,4095.0,4095.0,4095.0,-0.14,9.84,2.19,-0.08,0.02,-0.02,1.0,b
3530.0,3866.0,4095.0,2958.0,4095.0,4095.0,4095.0,4095.0,0.02,9.88,2.13,-0.03,0.02,-0.05,1.0,b
3539.0,3855.0,4095.0,2967.0,4095.0,4095.0,4095.0,4095.0,-0.14,9.84,2.03,-0.08,0.01,-0.03,1.0,b
3533.0,3856.0,4095.0,2960.0,4095.0,4095.0,4095.0,4095.0,-0.07,9.83,2.1,-0.09,-0.01,-0.02,1.0,b
3547.0,3852.0,4095.0,2959.0,4095.0,4095.0,4095.0,4095.0,-0.06,9.92,2.2,-0.1,0.01,-0.03,1.0,b
3551.0,3841.0,4095.0,2958.0,4095.0,4095.0,4095.0,4095.0,-0.14,9.83,2.23,-0.07,-0.0,-0.03,1.0,b
4095.0,4095.0,866.0,2960.0,4095.0,4095.0,4095.0,4095.0,-0.48,9.94,1.92,-0.14,0.08,-0.03,1.0,b
4095.0,4095.0,873.0,2965.0,4095.0,4095.0,4095.0,4095.0,-0.59,9.72,2.2,-0.14,0.06,-0.04,1.0,b
4095.0,4095.0,868.0,2960.0,4095.0,4095.0,4095.0,4095.0,-0.25,9.84,2.28,-0.03,-0.05,-0.04,1.0,b
4095.0,4095.0,867.0,2967.0,4095.0,4095.0,4095.0,4095.0,-0.38,9.88,2.12,-0.05,0.01,-0.03,1.0,b
4095.0,4095.0,863.0,2977.0,4095.0,4095.0,4095.0,4095.0,-0.46,9.87,2.01,-0.05,-0.03,-0.05,1.0,b
4095.0,4095.0,868.0,2969.0,4095.0,4095.0,4095.0,4095.0,-0.51,9.87,1.99,-0.08,0.01,-0.03,1.0,b
4095.0,4095.0,878.0,2965.0,4095.0,4095.0,4095.0,4095.0,-0.47,9.9,2.08,-0.08,0.03,-0.03,1.0,b
4095.0,4095.0,866.0,2976.0,4095.0,4095.0,4095.0,4095.0,-0.34,9.87,2.31,-0.1,0.12,-0.04,1.0,b
4095.0,4095.0,867.0,2971.0,4095.0,4095.0,4095.0,4095.0,-0.48,9.84,2.39,-0.12,0.27,-0.02,1.0,b
4095.0,4095.0,874.0,2959.0,4095.0,4095.0,4095.0,4095.0,-0.4,9.87,2.11,0.04,-0.14,-0.04,1.0,b
4095.0,4095.0,865.0,2960.0,4095.0,4095.0,4095.0,4095.0,-0.32,9.97,1.86,-0.06,0.11,0.01,1.0,b
4095.0,4095.0,864.0,2966.0,4095.0,4095.0,4095.0,4095.0,-0.48,9.81,1.92,-0.03,-0.09,-0.03,1.0,b
4095.0,4095.0,878.0,2961.0,4095.0,4095.0,4095.0,4095.0,-0.47,9.9,2.1,-0.08,0.01,-0.01,1.0,b
4095.0,4095.0,865.0,2959.0,4095.0,4095.0,4095.0,4095.0,-0.41,9.88,2.11,-0.05,-0.05,-0.03,1.0,b
4095.0,4095.0,880.0,2963.0,4095.0,4095.0,4095.0,4095.0,-0.43,9.83,2.1,-0.06,0.03,-0.03,1.0,b
4095.0,4095.0,870.0,2965.0,4095.0,4095.0,4095.0,4095.0,-0.46,9.84,2.13,-0.06,-0.01,-0.04,1.0,b
4095.0,4095.0,865.0,2970.0,4095.0,4095.0,4095.0,4095.0,-0.41,9.86,2.1,-0.04,-0.01,-0.03,1.0,b
4095.0,4095.0,869.0,2967.0,4095.0,4095.0,4095.0,4095.0,-0.4,9.84,2.14,-0.08,-0.0,-0.02,1.0,b
4095.0,4095.0,878.0,2960.0,4095.0,4095.0,4095.0,4095.0,-0.28,9.91,2.05,-0.02,-0.04,-0.03,1.0,b
4095.0,4095.0,858.0,2963.0,4095.0,4095.0,4095.0,4095.0,-0.39,9.87,1.99,-0.06,-0.01,-0.04,1.0,b
4095.0,4095.0,875.0,2977.0,4095.0,4095.0,4095.0,4095.0,-0.56,9.84,2.08,-0.06,-0.04,-0.02,1.0,b
4095.0,4095.0,868.0,2975.0,4095.0,4095.0,4095.0,4095.0,-0.32,9.9,2.11,-0.04,-0.02,-0.04,1.0,b
4095.0,4095.0,863.0,2981.0,4095.0,4095.0,4095.0,4095.0,-0.43,9.82,2.05,-0.04,0.01,-0.03,1.0,b
4095.0,4095.0,867.0,2976.0,4095.0,4095.0,4095.0,4095.0,-0.34,9.87,2.02,-0.07,-0.01,-0.03,1.0,b
4095.0,4095.0,866.0,2970.0,4095.0,4095.0,4095.0,4095.0,-0.38,9.86,2.12,-0.04,-0.0,-0.03,1.0,b
4095.0,4095.0,867.0,2971.0,4095.0,4095.0,4095.0,4095.0,-0.28,9.93,1.94,-0.08,0.0,-0.04,1.0,b
4095.0,4095.0,871.0,2973.0,4095.0,4095.0,4095.0,4095.0,-0.42,9.84,2.18,-0.05,-0.01,-0.05,1.0,b
4095.0,4095.0,874.0,2982.0,4095.0,4095.0,4095.0,4095.0,-0.34,9.9,2.08,-0.05,-0.0,-0.04,1.0,b
4095.0,4095.0,870.0,2986.0,4095.0,4095.0,4095.0,4095.0,-0.53,9.79,2.15,-0.05,-0.01,-0.03,1.0,b
4095.0,4095.0,863.0,2980.0,4095.0,4095.0,4095.0,4095.0,-0.25,9.93,2.05,-0.03,0.02,-0.02,1.0,b
4095.0,4095.0,880.0,2976.0,4095.0,4095.0,4095.0,4095.0,-0.41,9.88,1.92,-0.07,-0.02,-0.05,1.0,b
4095.0,4095.0,869.0,2975.0,4095.0,4095.0,4095.0,4095.0,-0.31,9.84,2.17,-0.05,0.01,-0.04,1.0,b
4095.0,4095.0,877.0,2960.0,4095.0,4095.0,4095.0,4095.0,-0.48,9.86,2.05,-0.06,-0.01,-0.04,1.0,b
4095.0,4095.0,873.0,2979.0,4095.0,4095.0,4095.0,4095.0,-0.34,9.88,1.98,-0.05,0.01,-0.02,1.0,b
4095.0,4095.0,865.0,2977.0,4095.0,4095.0,4095.0,4095.0,-0.34,9.84,2.03,-0.07,-0.02,-0.03,1.0,b
4095.0,4095.0,877.0,2979.0,4095.0,4095.0,4095.0,4095.0,-0.27,9.9,2.13,-0.04,0.01,-0.05,1.0,b
4095.0,4095.0,867.0,2977.0,4095.0,4095.0,4095.0,4095.0,-0.41,9.83,2.05,-0.07,-0.01,-0.04,1.0,b
4095.0,4095.0,862.0,2971.0,4095.0,4095.0,4095.0,4095.0,-0.36,9.91,2.12,-0.06,0.0,-0.04,1.0,b
4095.0,4095.0,867.0,2976.0,4095.0,4095.0,4095.0,4095.0,-0.36,9.87,2.18,-0.04,-0.02,-0.05,1.0,b
4095.0,4095.0,867.0,2958.0,4095.0,4095.0,4095.0,4095.0,-0.35,9.91,2.04,-0.07,0.03,-0.05,1.0,b
4095.0,4095.0,848.0,3031.0,4095.0,4095.0,4095.0,4095.0,-0.58,9.84,1.9,-0.05,0.02,-0.06,1.0,b
4095.0,4095.0,848.0,3055.0,4095.0,4095.0,4095.0,4095.0,-0.65,9.83,1.93,-0.08,0.02,-0.02,1.0,b
4095.0,4095.0,854.0,3045.0,4095.0,4095.0,4095.0,4095.0,-0.49,9.84,2.06,-0.09,-0.04,-0.02,1.0,b
4095.0,4095.0,834.0,3045.0,4095.0,4095.0,4095.0,4095.0,-0.5,9.88,2.11,-0.06,-0.01,-0.03,1.0,b
4095.0,4095.0,857.0,3045.0,4095.0,4095.0,4095.0,4095.0,-0.48,9.8,2.12,-0.07,-0.01,-0.03,1.0,b
4095.0,4095.0,853.0,3043.0,4095.0,4095.0,4095.0,4095.0,-0.38,9.86,2.05,-0.04,0.01,-0.01,1.0,b
4095.0,4095.0,853.0,3045.0,4095.0,4095.0,4095.0,4095.0,-0.46,9.83,1.97,-0.06,0.01,-0.04,1.0,b
4095.0,4095.0,848.0,3053.0,4095.0,4095.0,4095.0,4095.0,-0.57,9.86,1.95,-0.06,0.02,-0.02,1.0,b
4095.0,4095.0,849.0,3045.0,4095.0,4095.0,4095.0,4095.0,-0.37,9.88,2.01,-0.06,-0.0,-0.0,1.0,b
4095.0,4095.0,849.0,3047.0,4095.0,4095.0,4095.0,4095.0,-0.33,9.84,2.05,-0.06,0.01,-0.03,1.0,b
4095.0,4095.0,865.0,3034.0,4095.0,4095.0,4095.0,4095.0,-0.44,9.81,2.04,-0.05,0.0,-0.03,1.0,b
4095.0,4095.0,847.0,3043.0,4095.0,4095.0,4095.0,4095.0,-0.43,9.94,1.89,-0.05,-0.0,-0.03,1.0,b
4095.0,4095.0,849.0,3034.0,4095.0,4095.0,4095.0,4095.0,-0.52,9.85,1.96,-0.07,-0.01,-0.04,1.0,b
4095.0,4095.0,848.0,3030.0,4095.0,4095.0,4095.0,4095.0,-0.43,9.87,2.11,-0.06,-0.02,-0.04,1.0,b
4095.0,4095.0,848.0,3035.0,4095.0,4095.0,4095.0,4095.0,-0.44,9.84,2.03,-0.06,-0.0,-0.04,1.0,b
4095.0,4095.0,848.0,3013.0,4095.0,4095.0,4095.0,4095.0,-0.38,9.87,1.99,-0.07,-0.01,-0.03,1.0,b
4095.0,4095.0,855.0,3030.0,4095.0,4095.0,4095.0,4095.0,-0.35,9.83,2.01,-0.06,-0.01,-0.03,1.0,b
4095.0,4095.0,854.0,3027.0,4095.0,4095.0,4095.0,4095.0,-0.4,9.88,1.98,-0.05,0.0,-0.03,1.0,b
4095.0,4095.0,849.0,3042.0,4095.0,4095.0,4095.0,4095.0,-0.43,9.94,1.92,-0.09,-0.01,-0.05,1.0,b
4095.0,4095.0,849.0,3043.0,4095.0,4095.0,4095.0,4095.0,-0.45,9.8,2.22,-0.05,0.0,-0.05,1.0,b
4095.0,4095.0,4095.0,3011.0,4095.0,4095.0,4095.0,4095.0,-0.49,9.89,2.04,-0.09,-0.01,-0.02,1.0,b
4095.0,4095.0,4095.0,3025.0,4095.0,4095.0,4095.0,4095.0,-0.47,9.87,2.21,-0.06,0.01,-0.02,1.0,b
4095.0,4095.0,4095.0,3023.0,4095.0,4095.0,4095.0,4095.0,-0.43,9.84,2.12,-0.03,-0.02,-0.04,1.0,b
4095.0,4095.0,4095.0,3019.0,4095.0,4095.0,4095.0,4095.0,-0.67,9.89,2.0,-0.07,-0.0,-0.06,1.0,b
4095.0,4095.0,4095.0,3022.0,4095.0,4095.0,4095.0,4095.0,-0.5,9.88,2.18,0.0,0.0,-0.05,1.0,b
4095.0,4095.0,4095.0,3024.0,4095.0,4095.0,4095.0,4095.0,-0.64,9.86,2.02,-0.01,0.01,-0.01,1.0,b
4095.0,4095.0,4095.0,3028.0,4095.0,4095.0,4095.0,4095.0,-0.4,9.77,2.12,-0.01,-0.04,-0.02,1.0,b
4095.0,4095.0,4095.0,3011.0,4095.0,4095.0,4095.0,4095.0,-0.52,9.95,1.83,-0.04,-0.07,-0.01,1.0,b
4095.0,4095.0,4095.0,3023.0,4095.0,4095.0,4095.0,4095.0,-0.5,9.87,1.96,0.02,-0.01,-0.07,1.0,b
4095.0,4095.0,4095.0,3027.0,4095.0,4095.0,4095.0,4095.0,-0.76,9.75,2.19,-0.07,0.01,-0.03,1.0,b
4095.0,4095.0,4095.0,3039.0,4095.0,4095.0,4095.0,4095.0,-0.4,10.01,1.72,0.0,-0.04,0.02,1.0,b
4095.0,4095.0,4095.0,3024.0,4095.0,4095.0,4095.0,4095.0,-0.34,10.0,1.59,-0.0,-0.03,-0.06,1.0,b
4095.0,4095.0,4095.0,3035.0,4095.0,4095.0,4095.0,4095.0,-0.55,9.89,1.58,-0.03,0.01,-0.06,1.0,b
4095.0,4095.0,4095.0,3024.0,4095.0,4095.0,4095.0,4095.0,-0.63,9.81,1.73,-0.12,0.0,-0.01,1.0,b
4030.0,4095.0,4095.0,3027.0,4095.0,4095.0,4095.0,4095.0,-0.45,9.95,2.09,-0.09,-0.04,-0.02,1.0,b
3999.0,4095.0,4095.0,3034.0,4095.0,4095.0,4095.0,4095.0,-0.55,9.85,2.01,-0.08,-0.01,-0.05,1.0,b
4006.0,4095.0,4095.0,3027.0,4095.0,4095.0,4095.0,4095.0,-0.51,9.78,2.17,-0.06,-0.02,-0.01,1.0,b
3952.0,4095.0,4095.0,3039.0,4095.0,4095.0,4095.0,4095.0,-0.23,9.93,2.09,-0.04,-0.04,-0.01,1.0,b
3925.0,4095.0,4095.0,3031.0,4095.0,4095.0,4095.0,4095.0,-0.3,9.94,1.92,-0.01,-0.0,-0.05,1.0,b
3957.0,4095.0,4095.0,3045.0,4095.0,4095.0,4095.0,4095.0,-0.53,9.84,1.82,-0.06,-0.02,-0.05,1.0,b
3103.0,4095.0,4095.0,3003.0,4095.0,4095.0,4095.0,4095.0,-0.34,9.83,2.38,-0.05,0.04,-0.02,1.0,b
3110.0,4095.0,4095.0,2995.0,4095.0,4095.0,4095.0,4095.0,-0.35,9.81,2.38,-0.06,-0.05,-0.05,1.0,b
3129.0,4095.0,4095.0,3005.0,4095.0,4095.0,4095.0,4095.0,-0.35,9.75,2.36,-0.05,0.06,-0.03,1.0,b
3309.0,4095.0,4085.0,3024.0,4095.0,4095.0,4095.0,4095.0,-0.41,9.77,2.2,-0.08,0.0,-0.02,1.0,b
3339.0,4095.0,3493.0,3021.0,4095.0,4095.0,4095.0,4095.0,-0.34,9.84,2.22,-0.05,0.01,-0.02,1.0,b
3402.0,4095.0,3435.0,3018.0,4095.0,4095.0,4095.0,4095.0,-0.31,9.81,2.34,-0.08,-0.02,-0.03,1.0,b
3463.0,4095.0,3430.0,3023.0,4095.0,4095.0,4095.0,4095.0,-0.22,9.82,2.38,-0.06,0.02,-0.03,1.0,b
3526.0,4095.0,3440.0,3018.0,4095.0,4095.0,4095.0,4095.0,-0.49,9.77,2.35,-0.07,0.0,-0.04,1.0,b
3557.0,4095.0,3443.0,3023.0,4095.0,4095.0,4095.0,4095.0,-0.39,9.8,2.34,-0.08,0.04,-0.03,1.0,b
3567.0,4095.0,3457.0,3024.0,4095.0,4095.0,4095.0,4095.0,-0.38,9.92,2.22,-0.09,0.01,-0.03,1.0,b
3540.0,4095.0,3479.0,3024.0,4095.0,4095.0,4095.0,4095.0,-0.41,9.82,2.36,-0.08,0.03,-0.02,1.0,b
3553.0,4095.0,3503.0,3024.0,4095.0,4095.0,4095.0,4095.0,-0.39,9.79,2.4,-0.05,-0.01,-0.03,1.0,b
3554.0,4095.0,3497.0,3027.0,4095.0,4095.0,4095.0,4095.0,-0.31,9.78,2.46,-0.04,0.02,-0.03,1.0,b
3568.0,4095.0,3511.0,3031.0,4095.0,4095.0,4095.0,4095.0,-0.37,9.79,2.37,-0.04,0.01,-0.04,1.0,b
3558.0,4095.0,3503.0,3023.0,4095.0,4095.0,4095.0,4095.0,-0.45,9.87,2.2,-0.06,-0.02,-0.03,1.0,b
3553.0,4095.0,3515.0,3026.0,4095.0,4095.0,4095.0,4095.0,-0.36,9.73,2.3,-0.07,-0.01,-0.03,1.0,b
3567.0,4095.0,3510.0,3029.0,4095.0,4095.0,4095.0,4095.0,-0.36,9.84,2.46,-0.07,0.03,-0.02,1.0,b
3557.0,4095.0,3542.0,3015.0,4095.0,4095.0,4095.0,4095.0,-0.32,9.81,2.32,-0.03,0.01,-0.03,1.0,b
3578.0,4095.0,3554.0,3027.0,4095.0,4095.0,4095.0,4095.0,-0.23,9.92,2.24,-0.04,0.0,-0.04,1.0,b
3579.0,4095.0,3581.0,3018.0,4095.0,4095.0,4095.0,4095.0,-0.32,9.8,2.27,-0.05,0.02,-0.05,1.0,b
2559.0,4095.0,3305.0,3039.0,4095.0,4095.0,4095.0,4095.0,-0.5,9.85,2.22,-0.02,0.0,-0.03,1.0,b
2704.0,4095.0,3319.0,3052.0,4095.0,4095.0,4095.0,4095.0,-0.4,9.84,2.25,-0.04,0.01,-0.04,1.0,b
2719.0,4095.0,3313.0,3059.0,4095.0,4095.0,4095.0,4095.0,-0.37,9.84,2.15,-0.08,0.04,-0.02,1.0,b
2731.0,4095.0,3312.0,3055.0,4095.0,4095.0,4095.0,4095.0,-0.4,9.89,2.09,-0.07,-0.02,-0.04,1.0,b
2791.0,4095.0,3283.0,3057.0,4095.0,4095.0,4095.0,4095.0,-0.5,9.84,2.21,-0.1,0.02,-0.03,1.0,b
2873.0,4095.0,3281.0,3063.0,4095.0,4095.0,4095.0,4095.0,-0.43,9.85,2.26,-0.07,-0.0,-0.02,1.0,b
2895.0,4095.0,3280.0,3071.0,4095.0,4095.0,4095.0,4095.0,-0.52,9.79,2.26,-0.09,0.02,0.0,1.0,b
2891.0,4095.0,3306.0,3070.0,4095.0,4095.0,4095.0,4095.0,-0.34,9.8,2.32,-0.04,0.03,-0.02,1.0,b
2908.0,4095.0,3308.0,3065.0,4095.0,4095.0,4095.0,4095.0,-0.35,9.88,2.28,-0.07,-0.03,-0.03,1.0,b
2926.0,4095.0,3312.0,3069.0,4095.0,4095.0,4095.0,4095.0,-0.36,9.81,2.29,-0.04,0.01,-0.03,1.0,b
2935.0,4095.0,3305.0,3061.0,4095.0,4095.0,4095.0,4095.0,-0.47,9.86,2.18,-0.07,0.0,-0.04,1.0,b
2942.0,4095.0,3307.0,3056.0,4095.0,4095.0,4095.0,4095.0,-0.48,9.86,2.12,-0.06,0.02,-0.04,1.0,b
2961.0,4095.0,3311.0,3056.0,4095.0,4095.0,4095.0,4095.0,-0.51,9.77,2.25,-0.09,-0.01,-0.02,1.0,b
2960.0,4095.0,3315.0,3061.0,4095.0,4095.0,4095.0,4095.0,-0.29,9.8,2.31,-0.06,0.01,-0.03,1.0,b
2965.0,4095.0,3312.0,3057.0,4095.0,4095.0,4095.0,4095.0,-0.38,9.84,2.21,-0.06,-0.01,-0.03,1.0,b
2987.0,4095.0,3314.0,3056.0,4095.0,4095.0,4095.0,4095.0,-0.34,9.87,2.29,-0.04,0.01,-0.04,1.0,b
2991.0,4095.0,3308.0,3056.0,4095.0,4095.0,4095.0,4095.0,-0.43,9.81,2.23,-0.09,-0.01,-0.04,1.0,b
3010.0,4095.0,3319.0,3051.0,4095.0,4095.0,4095.0,4095.0,-0.41,9.78,2.36,-0.04,0.0,-0.03,1.0,b
3009.0,4095.0,3312.0,3062.0,4095.0,4095.0,4095.0,4095.0,-0.38,9.79,2.25,-0.05,0.02,-0.03,1.0,b
3026.0,4095.0,3311.0,3050.0,4095.0,4095.0,4095.0,4095.0,-0.3,9.82,2.21,-0.04,0.01,-0.04,1.0,b
3547.0,2803.0,869.0,3017.0,4095.0,4095.0,4095.0,4095.0,-0.27,9.87,2.35,-0.04,0.02,-0.02,1.0,b
3570.0,2812.0,865.0,3025.0,4095.0,4095.0,4095.0,4095.0,-0.24,9.9,2.15,-0.05,-0.01,-0.02,1.0,b
3552.0,2823.0,870.0,3038.0,4095.0,4095.0,4095.0,4095.0,-0.26,9.81,2.13,-0.05,0.02,-0.03,1.0,b
3548.0,2818.0,880.0,3027.0,4095.0,4095.0,4095.0,4095.0,-0.36,9.8,2.22,-0.07,0.0,-0.03,1.0,b
3573.0,2826.0,877.0,3037.0,4095.0,4095.0,4095.0,4095.0,-0.26,9.76,2.33,-0.04,0.01,-0.03,1.0,b
3562.0,2821.0,872.0,3035.0,4095.0,4095.0,4095.0,4095.0,-0.26,9.84,2.18,-0.08,0.0,-0.01,1.0,b
3576.0,2827.0,866.0,3035.0,4095.0,4095.0,4095.0,4095.0,-0.24,9.8,2.29,-0.07,0.04,-0.02,1.0,b
3577.0,2831.0,881.0,3039.0,4095.0,4095.0,4095.0,4095.0,-0.32,9.77,2.4,-0.08,0.02,-0.01,1.0,b
3570.0,2839.0,875.0,3034.0,4095.0,4095.0,4095.0,4095.0,-0.2,9.85,2.28,-0.04,-0.01,-0.03,1.0,b
3568.0,2841.0,878.0,3039.0,4095.0,4095.0,4095.0,4095.0,-0.32,9.8,2.26,-0.09,0.0,-0.02,1.0,b
3577.0,2863.0,877.0,3035.0,4095.0,4095.0,4095.0,4095.0,-0.22,9.8,2.33,-0.04,0.05,-0.01,1.0,b
3577.0,2877.0,871.0,3039.0,4095.0,4095.0,4095.0,4095.0,-0.22,9.87,2.17,-0.08,-0.01,-0.03,1.0,b
3571.0,2895.0,879.0,3049.0,4095.0,4095.0,4095.0,4095.0,-0.24,9.8,2.32,-0.06,0.03,-0.02,1.0,b
3583.0,2905.0,880.0,3055.0,4095.0,4095.0,4095.0,4095.0,-0.23,9.81,2.33,-0.09,0.0,-0.01,1.0,b
3579.0,2917.0,879.0,3038.0,4095.0,4095.0,4095.0,4095.0,-0.18,9.75,2.44,-0.05,0.02,-0.02,1.0,b
3596.0,2915.0,877.0,3039.0,4095.0,4095.0,4095.0,4095.0,-0.17,9.82,2.36,-0.05,-0.0,-0.03,1.0,b
3583.0,2918.0,874.0,3050.0,4095.0,4095.0,4095.0,4095.0,-0.19,9.83,2.29,-0.05,0.01,-0.03,1.0,b
3615.0,2925.0,868.0,3040.0,4095.0,4095.0,4095.0,4095.0,-0.25,9.86,2.21,-0.07,0.01,-0.03,1.0,b
3602.0,2927.0,869.0,3043.0,4095.0,4095.0,4095.0,4095.0,-0.23,9.82,2.26,-0.07,0.01,-0.03,1.0,b
3601.0,2937.0,878.0,3039.0,4095.0,4095.0,4095.0,4095.0,-0.23,9.92,2.29,-0.07,0.0,-0.02,1.0,b
3184.0,3487.0,4095.0,2960.0,4095.0,4095.0,4095.0,4095.0,-0.22,9.82,2.34,-0.06,0.0,-0.03,1.0,b
3243.0,3482.0,4095.0,2960.0,4095.0,4095.0,4095.0,4095.0,-0.27,9.84,2.26,-0.08,0.02,-0.01,1.0,b
3371.0,3509.0,4095.0,2975.0,4095.0,4095.0,4095.0,4095.0,-0.11,9.88,2.24,-0.08,0.03,-0.02,1.0,b
3419.0,3475.0,4095.0,2978.0,4095.0,4095.0,4095.0,4095.0,-0.17,9.83,2.29,-0.07,0.0,-0.03,1.0,b
3418.0,3486.0,4095.0,2970.0,4095.0,4095.0,4095.0,4095.0,-0.19,9.8,2.36,-0.09,0.02,-0.02,1.0,b
3472.0,3477.0,4095.0,2980.0,4095.0,4095.0,4095.0,4095.0,-0.23,9.84,2.44,-0.04,0.02,-0.04,1.0,b
3494.0,3476.0,4095.0,2978.0,4095.0,4095.0,4095.0,4095.0,-0.13,9.81,2.3,-0.06,-0.01,-0.03,1.0,b
3490.0,3504.0,4095.0,2986.0,4095.0,4095.0,4095.0,4095.0,-0.17,9.84,2.33,-0.08,0.02,-0.03,1.0,b
3487.0,3506.0,4095.0,2978.0,4095.0,4095.0,4095.0,4095.0,-0.22,9.84,2.35,-0.07,0.03,-0.03,1.0,b
3492.0,3493.0,4095.0,2987.0,4095.0,4095.0,4095.0,4095.0,-0.2,9.82,2.35,-0.06,0.01,-0.02,1.0,b
3499.0,3504.0,4095.0,2983.0,4095.0,4095.0,4095.0,4095.0,-0.12,9.75,2.55,-0.03,-0.01,-0.05,1.0,b
3490.0,3504.0,4095.0,2987.0,4095.0,4095.0,4095.0,4095.0,-0.08,9.84,2.34,-0.05,0.0,-0.02,1.0,b
3483.0,3519.0,4095.0,2987.0,4095.0,4095.0,4095.0,4095.0,-0.2,9.75,2.45,-0.08,0.03,-0.04,1.0,b
3494.0,3534.0,4095.0,2985.0,4095.0,4095.0,4095.0,4095.0,-0.19,9.81,2.33,-0.02,-0.02,-0.02,1.0,b
3497.0,3535.0,4095.0,2979.0,4095.0,4095.0,4095.0,4095.0,-0.06,9.83,2.29,-0.06,-0.02,-0.04,1.0,b
3487.0,3536.0,4095.0,2991.0,4095.0,4095.0,4095.0,4095.0,-0.09,9.84,2.34,-0.05,-0.01,-0.04,1.0,b
3509.0,3511.0,4095.0,2992.0,4095.0,4095.0,4095.0,4095.0,-0.28,9.77,2.35,-0.05,0.0,-0.02,1.0,b
3505.0,3517.0,4095.0,2992.0,4095.0,4095.0,4095.0,4095.0,0.07,9.88,2.4,-0.04,-0.05,-0.02,1.0,b
3519.0,3546.0,4095.0,2978.0,4095.0,4095.0,4095.0,4095.0,-0.01,9.83,2.14,-0.03,0.04,-0.07,1.0,b
3499.0,3540.0,4095.0,2975.0,4095.0,4095.0,4095.0,4095.0,-0.47,9.67,2.32,0.01,-0.01,-0.08,1.0,b
3191.0,1325.0,1250.0,2994.0,4095.0,4095.0,4095.0,4095.0,-0.28,9.92,2.28,-0.05,0.02,-0.03,1.0,b
3267.0,1343.0,1239.0,3002.0,4095.0,4095.0,4095.0,4095.0,0.03,9.94,2.15,-0.01,0.04,-0.05,1.0,b
3302.0,1363.0,1238.0,3005.0,4095.0,4095.0,4095.0,4095.0,-0.34,9.83,1.87,-0.03,0.0,-0.06,1.0,b
3313.0,1397.0,1231.0,3009.0,4095.0,4095.0,4095.0,4095.0,-0.45,9.9,1.96,-0.06,0.1,-0.03,1.0,b
3385.0,1418.0,1229.0,3014.0,4095.0,4095.0,4095.0,4095.0,-0.61,9.77,2.45,-0.06,0.05,-0.01,1.0,b
3423.0,1456.0,1219.0,3021.0,4095.0,4095.0,4095.0,4095.0,-0.33,9.84,2.23,-0.01,0.12,-0.03,1.0,b
3472.0,1515.0,1225.0,3018.0,4095.0,4095.0,4095.0,4095.0,-0.28,9.8,2.0,-0.06,0.15,0.02,1.0,b
3473.0,1582.0,1232.0,3015.0,4095.0,4095.0,4095.0,4095.0,0.0,10.0,1.83,-0.08,0.0,0.01,1.0,b
3483.0,1587.0,1241.0,3014.0,4095.0,4095.0,4095.0,4095.0,0.03,9.95,1.84,-0.1,0.01,0.01,1.0,b
3479.0,1607.0,1232.0,3024.0,4095.0,4095.0,4095.0,4095.0,-0.21,9.87,2.01,-0.14,0.03,-0.02,1.0,b
3472.0,1616.0,1234.0,3027.0,4095.0,4095.0,4095.0,4095.0,-0.01,9.92,2.42,-0.09,-0.01,-0.05,1.0,b
3483.0,1622.0,1244.0,3029.0,4095.0,4095.0,4095.0,4095.0,-0.32,9.81,2.42,-0.05,0.02,0.0,1.0,b
3474.0,1637.0,1247.0,3030.0,4095.0,4095.0,4095.0,4095.0,0.0,9.83,2.2,-0.04,0.01,-0.02,1.0,b
3477.0,1638.0,1239.0,3022.0,4095.0,4095.0,4095.0,4095.0,-0.01,9.97,1.9,-0.01,0.09,-0.03,1.0,b
3486.0,1635.0,1232.0,3024.0,4095.0,4095.0,4095.0,4095.0,-0.28,9.83,1.98,-0.08,-0.07,-0.08,1.0,b
3493.0,1645.0,1215.0,3024.0,4095.0,4095.0,4095.0,4095.0,-0.19,9.8,2.18,-0.07,0.02,-0.03,1.0,b
3490.0,1637.0,1230.0,3028.0,4095.0,4095.0,4095.0,4095.0,-0.16,9.8,2.16,-0.08,-0.07,-0.02,1.0,b
3485.0,1638.0,1218.0,3027.0,4095.0,4095.0,4095.0,4095.0,-0.12,9.95,2.06,-0.05,0.07,-0.06,1.0,b
3489.0,1649.0,1214.0,3025.0,4095.0,4095.0,4095.0,4095.0,-0.13,9.76,2.55,-0.08,-0.13,-0.1,1.0,b
3504.0,1648.0,1217.0,3031.0,4095.0,4095.0,4095.0,4095.0,-0.17,9.75,2.47,-0.03,0.09,-0.09,1.0,b
4095.0,3745.0,880.0,3018.0,4095.0,4095.0,4095.0,4095.0,-0.43,9.97,2.13,0.19,-0.0,-0.04,1.0,b
4095.0,3731.0,880.0,3008.0,4095.0,4095.0,4095.0,4095.0,-0.77,9.8,1.42,0.15,0.0,-0.09,1.0,b
4095.0,3755.0,887.0,3017.0,4095.0,4095.0,4095.0,4095.0,-1.21,9.86,0.87,0.02,0.0,0.09,1.0,b
4095.0,3739.0,881.0,3018.0,4095.0,4095.0,4095.0,4095.0,-0.5,9.95,0.91,-0.03,-0.01,0.13,1.0,b
4095.0,3764.0,887.0,3018.0,4095.0,4095.0,4095.0,4095.0,-0.08,10.25,0.67,-0.01,-0.07,0.12,1.0,b
4095.0,3780.0,888.0,3024.0,4095.0,4095.0,4095.0,4095.0,-0.38,10.01,1.48,-0.14,0.05,-0.06,1.0,b
4095.0,3760.0,885.0,3027.0,4095.0,4095.0,4095.0,4095.0,-1.0,9.75,1.92,-0.11,-0.04,-0.05,1.0,b
4095.0,3757.0,890.0,3015.0,4095.0,4095.0,4095.0,4095.0,-0.67,9.96,1.59,-0.04,0.02,0.01,1.0,b
4095.0,3743.0,886.0,3022.0,4095.0,4095.0,4095.0,4095.0,-0.66,9.84,1.72,-0.13,-0.04,-0.02,1.0,b
4095.0,3758.0,890.0,3024.0,4095.0,4095.0,4095.0,4095.0,-0.12,9.83,2.09,-0.01,-0.06,-0.0,1.0,b
4095.0,3740.0,885.0,3024.0,4095.0,4095.0,4095.0,4095.0,-0.29,9.96,1.55,0.03,0.0,-0.05,1.0,b
4095.0,3781.0,893.0,3027.0,4095.0,4095.0,4095.0,4095.0,-0.52,9.96,1.38,0.02,-0.04,-0.06,1.0,b
4095.0,3758.0,891.0,3033.0,4095.0,4095.0,4095.0,4095.0,-0.57,9.9,1.47,-0.04,0.0,0.01,1.0,b
4095.0,3760.0,895.0,3027.0,4095.0,4095.0,4095.0,4095.0,-0.25,10.02,1.45,0.01,-0.06,-0.01,1.0,b
4095.0,3760.0,899.0,3031.0,4095.0,4095.0,4095.0,4095.0,-0.26,9.98,1.58,0.01,-0.04,-0.06,1.0,b
4095.0,3767.0,895.0,3029.0,4095.0,4095.0,4095.0,4095.0,-0.31,10.04,1.23,0.02,0.02,-0.08,1.0,b
4095.0,3763.0,886.0,3034.0,4095.0,4095.0,4095.0,4095.0,-0.66,9.93,1.02,-0.03,0.07,-0.08,1.0,b
4095.0,3761.0,898.0,3020.0,4095.0,4095.0,4095.0,4095.0,-0.72,9.97,1.39,-0.05,0.02,-0.02,1.0,b
4095.0,3775.0,893.0,3023.0,4095.0,4095.0,4095.0,4095.0,-0.46,9.88,1.43,-0.04,0.17,-0.02,1.0,b
4095.0,3767.0,892.0,3025.0,4095.0,4095.0,4095.0,4095.0,-0.48,9.92,1.46,-0.05,0.04,-0.02,1.0,b
3271.0,4095.0,881.0,2974.0,4095.0,4095.0,4095.0,4095.0,-0.35,9.85,1.89,-0.02,0.01,-0.02,1.0,b
3302.0,4095.0,884.0,2965.0,4095.0,4095.0,4095.0,4095.0,-0.35,9.9,1.82,-0.03,0.0,-0.02,1.0,b
3329.0,4095.0,885.0,2983.0,4095.0,4095.0,4095.0,4095.0,-0.29,9.92,1.82,-0.04,-0.01,-0.02,1.0,b
3312.0,4095.0,895.0,2985.0,4095.0,4095.0,4095.0,4095.0,-0.35,9.89,1.83,-0.05,-0.0,-0.02,1.0,b
3328.0,4095.0,891.0,2977.0,4095.0,4095.0,4095.0,4095.0,-0.28,9.94,1.76,-0.09,0.01,-0.01,1.0,b
3354.0,4095.0,898.0,2978.0,4095.0,4095.0,4095.0,4095.0,-0.34,9.9,1.84,-0.07,0.03,-0.01,1.0,b
3346.0,4095.0,910.0,2985.0,4095.0,4095.0,4095.0,4095.0,-0.27,9.95,1.87,-0.04,-0.0,-0.02,1.0,b
3353.0,4095.0,901.0,2977.0,4095.0,4095.0,4095.0,4095.0,-0.33,9.94,1.73,-0.06,0.05,-0.02,1.0,b
3357.0,4095.0,903.0,2989.0,4095.0,4095.0,4095.0,4095.0,-0.35,9.87,1.82,-0.07,-0.01,-0.03,1.0,b
3366.0,4095.0,901.0,2974.0,4095.0,4095.0,4095.0,4095.0,-0.28,9.96,1.84,-0.08,0.03,-0.03,1.0,b
3351.0,4095.0,900.0,2990.0,4095.0,4095.0,4095.0,4095.0,-0.32,9.86,1.97,-0.08,0.01,-0.02,1.0,b
3367.0,4095.0,903.0,2992.0,4095.0,4095.0,4095.0,4095.0,-0.15,9.95,2.0,-0.04,0.03,-0.04,1.0,b
3367.0,4095.0,897.0,2979.0,4095.0,4095.0,4095.0,4095.0,-0.28,9.92,1.77,-0.04,0.04,-0.06,1.0,b
3381.0,4095.0,901.0,2992.0,4095.0,4095.0,4095.0,4095.0,-0.27,9.88,1.77,-0.08,-0.03,-0.06,1.0,b
3370.0,4095.0,895.0,2996.0,4095.0,4095.0,4095.0,4095.0,-0.35,9.93,1.91,-0.07,-0.0,-0.05,1.0,b
3359.0,4095.0,911.0,2991.0,4095.0,4095.0,4095.0,4095.0,-0.37,9.86,1.92,-0.04,-0.03,-0.05,1.0,b
3376.0,4095.0,903.0,2985.0,4095.0,4095.0,4095.0,4095.0,-0.39,9.91,1.85,-0.07,0.04,-0.03,1.0,b
3373.0,4095.0,897.0,2992.0,4095.0,4095.0,4095.0,4095.0,-0.31,9.88,1.79,-0.06,-0.04,-0.02,1.0,b
3374.0,4095.0,905.0,2987.0,4095.0,4095.0,4095.0,4095.0,-0.22,9.94,1.78,-0.09,0.0,-0.03,1.0,b
3376.0,4095.0,887.0,2988.0,4095.0,4095.0,4095.0,4095.0,-0.29,9.84,1.85,-0.11,-0.02,-0.04,1.0,b
1574.0,3632.0,928.0,2966.0,4095.0,4095.0,4095.0,4095.0,-0.19,9.98,1.65,-0.08,0.0,-0.03,1.0,b
1583.0,3660.0,924.0,2965.0,4095.0,4095.0,4095.0,4095.0,-0.21,9.91,1.93,-0.11,-0.02,-0.01,1.0,b
1584.0,3627.0,910.0,2959.0,4095.0,4095.0,4095.0,4095.0,-0.1,9.85,2.04,-0.08,0.01,-0.03,1.0,b
1589.0,3632.0,915.0,2960.0,4095.0,4095.0,4095.0,4095.0,-0.11,9.99,1.97,-0.06,-0.01,-0.02,1.0,b
1670.0,3626.0,917.0,2974.0,4095.0,4095.0,4095.0,4095.0,-0.01,10.0,1.87,-0.03,0.02,-0.04,1.0,b
1714.0,3638.0,921.0,2960.0,4095.0,4095.0,4095.0,4095.0,-0.15,9.99,1.74,-0.0,0.01,-0.07,1.0,b
1727.0,3635.0,911.0,2975.0,4095.0,4095.0,4095.0,4095.0,-0.22,9.91,1.53,-0.05,-0.01,-0.05,1.0,b
1753.0,3645.0,913.0,2973.0,4095.0,4095.0,4095.0,4095.0,-0.24,9.9,1.71,-0.04,-0.01,-0.03,1.0,b
1821.0,3647.0,915.0,2970.0,4095.0,4095.0,4095.0,4095.0,-0.29,9.89,1.78,-0.04,0.02,-0.02,1.0,b
1871.0,3665.0,912.0,2967.0,4095.0,4095.0,4095.0,4095.0,-0.2,9.97,1.67,-0.03,0.02,-0.01,1.0,b
1885.0,3664.0,910.0,2962.0,4095.0,4095.0,4095.0,4095.0,-0.25,9.95,1.58,-0.06,0.02,0.02,1.0,b
1942.0,3670.0,908.0,2973.0,4095.0,4095.0,4095.0,4095.0,-0.03,9.97,1.82,-0.08,0.04,0.01,1.0,b
1977.0,3696.0,913.0,2973.0,4095.0,4095.0,4095.0,4095.0,0.14,10.04,1.86,-0.05,0.0,-0.05,1.0,b
2057.0,3689.0,911.0,2967.0,4095.0,4095.0,4095.0,4095.0,-0.03,9.93,1.81,-0.05,0.04,-0.05,1.0,b
2079.0,3683.0,912.0,2960.0,4095.0,4095.0,4095.0,4095.0,-0.05,9.93,1.82,-0.07,-0.02,-0.03,1.0,b
2111.0,3703.0,909.0,2962.0,4095.0,4095.0,4095.0,4095.0,-0.1,9.9,1.94,-0.03,0.01,-0.03,1.0,b
2221.0,3717.0,917.0,2959.0,4095.0,4095.0,4095.0,4095.0,-0.17,9.96,1.55,-0.03,0.01,-0.03,1.0,b
2343.0,3731.0,911.0,2960.0,4095.0,4095.0,4095.0,4095.0,-0.15,9.97,1.39,-0.05,0.03,-0.01,1.0,b
3004.0,3760.0,913.0,2960.0,4095.0,4095.0,4095.0,4095.0,0.01,10.03,1.67,-0.13,-0.04,-0.03,1.0,b
3271.0,3829.0,912.0,2955.0,4095.0,4095.0,4095.0,4095.0,-0.01,9.86,2.04,-0.14,-0.02,-0.01,1.0,b
3247.0,4053.0,2108.0,2959.0,4095.0,4095.0,4095.0,4095.0,0.09,9.84,2.28,-0.09,0.02,-0.04,1.0,b
3251.0,4049.0,1955.0,2961.0,4095.0,4095.0,4095.0,4095.0,-0.07,9.75,2.39,-0.04,0.03,-0.06,1.0,b
3254.0,4087.0,1837.0,2953.0,4095.0,4095.0,4095.0,4095.0,0.0,9.81,2.23,-0.01,-0.04,-0.0,1.0,b
3262.0,4081.0,1791.0,2960.0,4095.0,4095.0,4095.0,4095.0,0.22,9.95,2.05,-0.04,0.01,-0.05,1.0,b
3269.0,4095.0,1790.0,2962.0,4095.0,4095.0,4095.0,4095.0,0.12,9.93,2.11,-0.1,0.0,-0.07,1.0,b
3257.0,4095.0,1785.0,2963.0,4095.0,4095.0,4095.0,4095.0,-0.11,9.83,2.3,-0.08,-0.06,-0.07,1.0,b
3249.0,4095.0,1783.0,2960.0,4095.0,4095.0,4095.0,4095.0,-0.26,9.77,2.32,-0.09,-0.0,-0.04,1.0,b
3257.0,4095.0,1779.0,2975.0,4095.0,4095.0,4095.0,4095.0,-0.21,9.82,2.34,-0.06,-0.05,-0.03,1.0,b
3259.0,4095.0,1783.0,2986.0,4095.0,4095.0,4095.0,4095.0,-0.05,9.79,2.31,-0.07,0.02,0.02,1.0,b
3269.0,4095.0,1789.0,2991.0,4095.0,4095.0,4095.0,4095.0,0.14,9.96,2.14,-0.06,0.01,0.01,1.0,b
3251.0,4091.0,1789.0,2986.0,4095.0,4095.0,4095.0,4095.0,0.21,9.88,2.18,-0.08,0.03,-0.01,1.0,b
3267.0,4078.0,1794.0,2987.0,4095.0,4095.0,4095.0,4095.0,0.16,9.89,2.15,-0.09,0.02,-0.03,1.0,b
3254.0,4095.0,1807.0,2990.0,4095.0,4095.0,4095.0,4095.0,0.04,9.76,2.48,-0.12,-0.02,-0.04,1.0,b
3250.0,4095.0,1813.0,2994.0,4095.0,4095.0,4095.0,4095.0,-0.02,9.76,2.64,-0.08,-0.02,-0.06,1.0,b
3273.0,4085.0,1801.0,2992.0,4095.0,4095.0,4095.0,4095.0,-0.02,9.75,2.5,-0.07,0.04,-0.04,1.0,b
3255.0,4094.0,1808.0,2995.0,4095.0,4095.0,4095.0,4095.0,0.04,9.86,2.38,-0.06,0.03,-0.04,1.0,b
3263.0,4090.0,1807.0,2993.0,4095.0,4095.0,4095.0,4095.0,0.03,9.79,2.35,-0.08,0.02,-0.03,1.0,b
3248.0,4095.0,1803.0,2994.0,4095.0,4095.0,4095.0,4095.0,0.0,9.86,2.35,-0.06,0.04,-0.05,1.0,b
3250.0,4095.0,1801.0,2987.0,4095.0,4095.0,4095.0,4095.0,0.04,9.77,2.38,-0.07,-0.02,-0.04,1.0,b
3249.0,4095.0,1778.0,2999.0,4095.0,4095.0,4095.0,4095.0,0.13,9.85,2.41,-0.07,0.08,-0.04,1.0,b
4095.0,4095.0,855.0,3097.0,4095.0,4095.0,4095.0,4095.0,-0.17,9.86,2.2,-0.05,-0.01,-0.05,1.0,b
4095.0,4095.0,851.0,3109.0,4095.0,4095.0,4095.0,4095.0,-0.29,9.75,2.32,-0.08,0.03,-0.04,1.0,b
4095.0,4095.0,847.0,3121.0,4095.0,4095.0,4095.0,4095.0,-0.05,9.88,2.27,-0.02,-0.04,-0.04,1.0,b
4095.0,4095.0,855.0,3085.0,4095.0,4095.0,4095.0,4095.0,-0.21,9.84,2.15,-0.06,0.01,-0.04,1.0,b
4095.0,4095.0,851.0,3113.0,4095.0,4095.0,4095.0,4095.0,-0.2,9.83,2.21,-0.07,-0.02,-0.03,1.0,b
4095.0,4095.0,851.0,3115.0,4095.0,4095.0,4095.0,4095.0,-0.15,9.91,2.22,-0.03,-0.01,-0.03,1.0,b
4095.0,4095.0,853.0,3107.0,4095.0,4095.0,4095.0,4095.0,-0.07,9.88,2.15,-0.04,0.01,-0.05,1.0,b
4095.0,4095.0,847.0,3117.0,4095.0,4095.0,4095.0,4095.0,0.02,9.8,2.32,-0.04,0.05,-0.04,1.0,b
4095.0,4095.0,852.0,3104.0,4095.0,4095.0,4095.0,4095.0,-0.06,9.87,2.33,-0.04,0.02,-0.08,1.0,b
4095.0,4095.0,853.0,3114.0,4095.0,4095.0,4095.0,4095.0,-0.35,9.79,2.27,-0.03,-0.03,-0.11,1.0,b
4095.0,4095.0,856.0,3103.0,4095.0,4095.0,4095.0,4095.0,-0.47,9.8,2.05,-0.04,-0.09,-0.1,1.0,b
4095.0,4095.0,858.0,3092.0,4095.0,4095.0,4095.0,4095.0,-0.37,9.79,2.06,-0.02,-0.08,-0.08,1.0,b
4095.0,4095.0,853.0,3105.0,4095.0,4095.0,4095.0,4095.0,-0.46,9.9,1.85,-0.07,0.06,-0.03,1.0,b
4095.0,4095.0,855.0,3105.0,4095.0,4095.0,4095.0,4095.0,-0.32,9.83,1.98,-0.08,-0.03,-0.02,1.0,b
4095.0,4095.0,858.0,3098.0,4095.0,4095.0,4095.0,4095.0,-0.31,9.91,2.05,-0.1,0.04,0.0,1.0,b
4095.0,4095.0,860.0,3105.0,4095.0,4095.0,4095.0,4095.0,-0.12,9.84,2.23,-0.1,-0.03,-0.0,1.0,b
4095.0,4095.0,857.0,3114.0,4095.0,4095.0,4095.0,4095.0,0.02,9.85,2.46,-0.07,0.06,-0.01,1.0,b
4095.0,4095.0,848.0,3111.0,4095.0,4095.0,4095.0,4095.0,-0.07,9.83,2.36,-0.04,0.0,-0.04,1.0,b
4095.0,4095.0,850.0,3118.0,4095.0,4095.0,4095.0,4095.0,-0.2,9.87,2.23,-0.03,0.0,-0.03,1.0,b
4095.0,4095.0,859.0,3111.0,4095.0,4095.0,4095.0,4095.0,-0.29,9.91,2.0,-0.05,0.03,-0.03,1.0,b
3408.0,3808.0,4084.0,3186.0,4095.0,4095.0,4095.0,4095.0,-0.3,9.78,2.23,-0.09,0.01,-0.03,1.0,b
3419.0,3823.0,4095.0,3181.0,4095.0,4095.0,4095.0,4095.0,-0.25,9.71,2.41,-0.1,0.01,-0.01,1.0,b
3434.0,3805.0,4059.0,3177.0,4095.0,4095.0,4095.0,4095.0,-0.17,9.79,2.4,-0.06,0.02,-0.03,1.0,b
3457.0,3799.0,4079.0,3175.0,4095.0,4095.0,4095.0,4095.0,-0.2,9.74,2.46,-0.08,0.04,-0.01,1.0,b
3490.0,3824.0,4078.0,3167.0,4095.0,4095.0,4095.0,4095.0,-0.2,9.85,2.34,-0.03,0.02,-0.04,1.0,b
3489.0,3824.0,4064.0,3171.0,4095.0,4095.0,4095.0,4095.0,-0.35,9.76,2.27,-0.09,-0.03,-0.04,1.0,b
3486.0,3791.0,4048.0,3183.0,4095.0,4095.0,4095.0,4095.0,-0.36,9.75,2.46,-0.07,0.04,-0.03,1.0,b
3505.0,3790.0,4069.0,3184.0,4095.0,4095.0,4095.0,4095.0,-0.19,9.8,2.48,-0.07,-0.01,-0.02,1.0,b
3511.0,3783.0,4064.0,3179.0,4095.0,4095.0,4095.0,4095.0,-0.16,9.81,2.4,-0.05,0.05,-0.02,1.0,b
3503.0,3811.0,4066.0,3195.0,4095.0,4095.0,4095.0,4095.0,-0.26,9.86,2.25,-0.07,-0.01,-0.03,1.0,b
3504.0,3818.0,4058.0,3193.0,4095.0,4095.0,4095.0,4095.0,-0.3,9.75,2.32,-0.09,0.01,-0.04,1.0,b
3501.0,3791.0,4048.0,3186.0,4095.0,4095.0,4095.0,4095.0,-0.26,9.83,2.46,-0.1,-0.04,-0.02,1.0,b
3497.0,3807.0,4048.0,3191.0,4095.0,4095.0,4095.0,4095.0,-0.19,9.77,2.5,-0.09,0.02,-0.04,1.0,b
3502.0,3794.0,4071.0,3197.0,4095.0,4095.0,4095.0,4095.0,-0.25,9.86,2.37,-0.04,-0.08,-0.04,1.0,b
3498.0,3794.0,4067.0,3211.0,4095.0,4095.0,4095.0,4095.0,-0.32,9.8,2.39,-0.08,0.03,-0.03,1.0,b
3490.0,3793.0,4051.0,3216.0,4095.0,4095.0,4095.0,4095.0,-0.24,9.82,2.45,-0.06,-0.04,-0.02,1.0,b
3508.0,3807.0,4075.0,3203.0,4095.0,4095.0,4095.0,4095.0,-0.16,9.8,2.52,-0.05,0.03,-0.04,1.0,b
3520.0,3792.0,4053.0,3201.0,4095.0,4095.0,4095.0,4095.0,-0.18,9.81,2.33,-0.05,-0.0,-0.03,1.0,b
3495.0,3785.0,4068.0,3211.0,4095.0,4095.0,4095.0,4095.0,-0.27,9.86,2.2,-0.08,0.05,-0.05,1.0,b
3508.0,3802.0,4095.0,3205.0,4095.0,4095.0,4095.0,4095.0,-0.39,9.75,2.51,-0.11,0.0,-0.03,1.0,b
3622.0,3549.0,887.0,2953.0,4095.0,4095.0,4095.0,4095.0,-0.29,9.79,1.86,-0.06,-0.03,-0.05,1.0,b
3623.0,3558.0,894.0,2956.0,4095.0,4095.0,4095.0,4095.0,-0.17,9.89,2.06,-0.05,0.0,-0.03,1.0,b
3615.0,3555.0,889.0,2960.0,4095.0,4095.0,4095.0,4095.0,-0.02,9.9,2.13,-0.05,0.01,-0.02,1.0,b
3635.0,3545.0,886.0,2960.0,4095.0,4095.0,4095.0,4095.0,0.0,9.9,2.0,-0.03,0.05,-0.04,1.0,b
3626.0,3547.0,882.0,2961.0,4095.0,4095.0,4095.0,4095.0,-0.03,9.94,1.92,-0.05,-0.03,-0.05,1.0,b
3627.0,3550.0,893.0,2975.0,4095.0,4095.0,4095.0,4095.0,-0.17,9.86,2.01,-0.06,0.01,-0.04,1.0,b
3627.0,3535.0,891.0,2978.0,4095.0,4095.0,4095.0,4095.0,-0.17,9.86,2.08,-0.08,0.0,-0.02,1.0,b
3644.0,3536.0,890.0,2961.0,4095.0,4095.0,4095.0,4095.0,0.04,9.85,2.13,-0.02,0.01,-0.02,1.0,b
3641.0,3541.0,885.0,2972.0,4095.0,4095.0,4095.0,4095.0,-0.2,9.93,1.74,-0.07,-0.01,-0.04,1.0,b
3621.0,3549.0,883.0,2978.0,4095.0,4095.0,4095.0,4095.0,-0.11,9.81,2.01,-0.08,-0.0,-0.02,1.0,b
3627.0,3553.0,894.0,2979.0,4095.0,4095.0,4095.0,4095.0,-0.08,9.91,2.09,-0.09,0.04,-0.02,1.0,b
3645.0,3539.0,891.0,2976.0,4095.0,4095.0,4095.0,4095.0,0.02,9.8,2.29,-0.04,-0.03,-0.02,1.0,b
3639.0,3530.0,885.0,2989.0,4095.0,4095.0,4095.0,4095.0,0.17,9.94,2.02,-0.02,0.02,-0.02,1.0,b
3631.0,3545.0,885.0,2980.0,4095.0,4095.0,4095.0,4095.0,-0.01,9.95,1.78,-0.07,0.0,-0.05,1.0,b
3659.0,3536.0,896.0,2992.0,4095.0,4095.0,4095.0,4095.0,-0.21,9.84,1.98,-0.15,0.02,-0.03,1.0,b
3668.0,3546.0,893.0,2985.0,4095.0,4095.0,4095.0,4095.0,-0.13,9.84,2.24,-0.09,-0.01,-0.02,1.0,b
3668.0,3542.0,883.0,3002.0,4095.0,4095.0,4095.0,4095.0,0.05,9.78,2.45,-0.08,-0.01,-0.01,1.0,b
4095.0,3551.0,881.0,3003.0,4095.0,4095.0,4095.0,4095.0,-0.03,9.92,2.13,-0.01,0.03,0.02,1.0,b
4095.0,3547.0,894.0,3004.0,4095.0,4095.0,4095.0,4095.0,0.03,9.89,1.98,-0.09,0.01,-0.0,1.0,b
4095.0,3538.0,892.0,3006.0,4095.0,4095.0,4095.0,4095.0,0.12,9.95,2.09,-0.06,0.0,-0.04,1.0,b
3535.0,4095.0,892.0,2947.0,4095.0,4095.0,4095.0,4095.0,-0.05,9.85,2.07,-0.07,-0.02,-0.05,1.0,b
3534.0,4095.0,886.0,2955.0,4095.0,4095.0,4095.0,4095.0,-0.28,9.86,2.11,-0.05,-0.0,-0.04,1.0,b
3529.0,4095.0,883.0,2947.0,4095.0,4095.0,4095.0,4095.0,-0.24,9.87,1.92,-0.04,-0.01,-0.03,1.0,b
3543.0,4095.0,887.0,2955.0,4095.0,4095.0,4095.0,4095.0,-0.25,9.93,1.8,-0.04,-0.04,-0.04,1.0,b
3527.0,4095.0,889.0,2951.0,4095.0,4095.0,4095.0,4095.0,-0.25,9.9,1.85,-0.06,0.01,-0.02,1.0,b
3527.0,4095.0,883.0,2954.0,4095.0,4095.0,4095.0,4095.0,-0.08,9.89,1.96,-0.05,-0.04,-0.02,1.0,b
3539.0,4095.0,889.0,2947.0,4095.0,4095.0,4095.0,4095.0,0.04,9.93,2.17,-0.06,-0.02,-0.03,1.0,b
3518.0,4095.0,891.0,2953.0,4095.0,4095.0,4095.0,4095.0,-0.1,9.82,2.14,-0.03,-0.02,-0.06,1.0,b
3523.0,4095.0,887.0,2956.0,4095.0,4095.0,4095.0,4095.0,-0.37,9.91,1.75,-0.04,-0.01,-0.05,1.0,b
3521.0,4095.0,887.0,2954.0,4095.0,4095.0,4095.0,4095.0,-0.38,9.91,1.66,-0.07,-0.05,-0.03,1.0,b
3527.0,4095.0,880.0,2958.0,4095.0,4095.0,4095.0,4095.0,-0.45,9.9,1.73,-0.12,-0.01,0.0,1.0,b
3527.0,4095.0,885.0,2962.0,4095.0,4095.0,4095.0,4095.0,-0.11,9.87,2.13,-0.12,0.01,0.0,1.0,b
3529.0,4095.0,894.0,2962.0,4095.0,4095.0,4095.0,4095.0,0.05,9.92,2.02,-0.1,0.01,0.01,1.0,b
3522.0,4095.0,891.0,2958.0,4095.0,4095.0,4095.0,4095.0,0.07,10.0,1.85,-0.06,-0.01,-0.05,1.0,b
3529.0,4095.0,895.0,2960.0,4095.0,4095.0,4095.0,4095.0,-0.19,9.76,2.25,-0.11,-0.08,-0.04,1.0,b
3527.0,4095.0,891.0,2960.0,4095.0,4095.0,4095.0,4095.0,-0.16,9.84,2.3,-0.05,0.01,-0.03,1.0,b
3535.0,4095.0,882.0,2969.0,4095.0,4095.0,4095.0,4095.0,0.05,9.83,2.29,-0.05,-0.05,-0.05,1.0,b
3531.0,4095.0,883.0,2966.0,4095.0,4095.0,4095.0,4095.0,-0.15,9.78,2.24,-0.04,0.0,-0.03,1.0,b
3540.0,4095.0,894.0,2968.0,4095.0,4095.0,4095.0,4095.0,0.09,9.92,2.11,-0.05,-0.08,-0.07,1.0,b
3516.0,4095.0,894.0,2975.0,4095.0,4095.0,4095.0,4095.0,-0.15,9.9,2.06,-0.0,0.03,-0.11,1.0,b
1903.0,4095.0,896.0,3184.0,4095.0,4095.0,4095.0,4095.0,-0.21,9.89,1.73,-0.05,0.02,-0.06,1.0,b
1965.0,4095.0,898.0,3184.0,4095.0,4095.0,4095.0,4095.0,-0.27,9.97,1.88,-0.07,-0.05,-0.08,1.0,b
2045.0,4095.0,895.0,3173.0,4095.0,4095.0,4095.0,4095.0,-0.4,9.85,2.08,-0.08,-0.01,-0.05,1.0,b
2096.0,4095.0,894.0,3181.0,4095.0,4095.0,4095.0,4095.0,-0.33,9.9,1.96,-0.07,-0.02,-0.03,1.0,b
2304.0,4095.0,900.0,3171.0,4095.0,4095.0,4095.0,4095.0,-0.18,9.91,1.98,-0.04,0.02,-0.04,1.0,b
2608.0,4095.0,896.0,3158.0,4095.0,4095.0,4095.0,4095.0,-0.11,9.93,1.79,-0.05,0.02,-0.02,1.0,b
2645.0,4095.0,897.0,3154.0,4095.0,4095.0,4095.0,4095.0,-0.17,9.93,1.73,-0.06,0.03,-0.03,1.0,b
2651.0,4095.0,901.0,3159.0,4095.0,4095.0,4095.0,4095.0,-0.28,9.89,1.86,-0.08,-0.01,-0.01,1.0,b
2670.0,4095.0,905.0,3158.0,4095.0,4095.0,4095.0,4095.0,-0.16,9.87,2.1,-0.09,0.01,0.01,1.0,b
2672.0,4095.0,901.0,3175.0,4095.0,4095.0,4095.0,4095.0,-0.19,9.99,2.1,-0.03,0.01,-0.01,1.0,b
2765.0,4095.0,901.0,3178.0,4095.0,4095.0,4095.0,4095.0,-0.01,9.92,1.98,-0.01,0.03,-0.01,1.0,b
2818.0,4095.0,900.0,3170.0,4095.0,4095.0,4095.0,4095.0,-0.1,9.97,1.72,-0.04,0.0,-0.04,1.0,b
2859.0,4095.0,907.0,3183.0,4095.0,4095.0,4095.0,4095.0,-0.12,9.88,1.75,-0.06,-0.01,-0.04,1.0,b
2891.0,4095.0,899.0,3174.0,4095.0,4095.0,4095.0,4095.0,-0.04,9.89,1.95,-0.07,-0.02,-0.05,1.0,b
2896.0,4095.0,895.0,3173.0,4095.0,4095.0,4095.0,4095.0,-0.21,9.96,1.93,-0.06,-0.01,-0.06,1.0,b
2895.0,4095.0,899.0,3171.0,4095.0,4095.0,4095.0,4095.0,-0.26,9.79,2.0,-0.1,0.03,-0.02,1.0,b
2902.0,4095.0,897.0,3166.0,4095.0,4095.0,4095.0,4095.0,-0.09,9.95,1.97,-0.05,-0.03,-0.02,1.0,b
2910.0,4095.0,903.0,3169.0,4095.0,4095.0,4095.0,4095.0,0.05,9.9,2.04,-0.06,0.02,-0.04,1.0,b
2928.0,4095.0,897.0,3166.0,4095.0,4095.0,4095.0,4095.0,-0.11,9.96,1.99,-0.04,-0.01,-0.07,1.0,b
2955.0,4095.0,901.0,3155.0,4095.0,4095.0,4095.0,4095.0,-0.19,9.82,1.89,-0.05,0.0,-0.03,1.0,b
3560.0,4095.0,885.0,3056.0,4095.0,4095.0,4095.0,4095.0,-0.3,10.0,1.62,-0.06,0.04,-0.03,1.0,b
3568.0,4095.0,893.0,3063.0,4095.0,4095.0,4095.0,4095.0,-0.24,9.94,1.73,-0.05,-0.0,-0.05,1.0,b
3558.0,4095.0,890.0,3071.0,4095.0,4095.0,4095.0,4095.0,-0.23,9.96,1.69,-0.02,-0.01,-0.05,1.0,b
3543.0,4095.0,891.0,3071.0,4095.0,4095.0,4095.0,4095.0,-0.37,9.94,1.6,-0.04,0.02,-0.03,1.0,b
3551.0,4095.0,885.0,3071.0,4095.0,4095.0,4095.0,4095.0,-0.38,9.87,1.63,-0.05,0.0,-0.02,1.0,b
3568.0,4095.0,887.0,3071.0,4095.0,4095.0,4095.0,4095.0,-0.2,9.92,1.71,-0.05,-0.0,-0.03,1.0,b
3553.0,4095.0,889.0,3071.0,4095.0,4095.0,4095.0,4095.0,-0.28,9.95,1.59,-0.08,0.01,-0.01,1.0,b
3558.0,4095.0,895.0,3083.0,4095.0,4095.0,4095.0,4095.0,-0.36,9.86,1.63,-0.07,0.01,-0.02,1.0,b
3568.0,4095.0,897.0,3088.0,4095.0,4095.0,4095.0,4095.0,-0.23,10.05,1.55,-0.07,-0.01,-0.03,1.0,b
3566.0,4095.0,882.0,3101.0,4095.0,4095.0,4095.0,4095.0,-0.31,9.92,1.64,-0.1,-0.02,-0.02,1.0,b
3569.0,4095.0,893.0,3088.0,4095.0,4095.0,4095.0,4095.0,-0.19,9.94,1.82,-0.03,0.03,-0.03,1.0,b
3571.0,4095.0,895.0,3098.0,4095.0,4095.0,4095.0,4095.0,-0.32,9.99,1.57,-0.03,0.03,-0.04,1.0,b
3578.0,4095.0,895.0,3107.0,4095.0,4095.0,4095.0,4095.0,-0.37,9.91,1.5,-0.09,0.02,-0.01,1.0,b
3583.0,4095.0,891.0,3093.0,4095.0,4095.0,4095.0,4095.0,-0.22,9.96,1.72,-0.09,0.01,-0.01,1.0,b
3600.0,4095.0,885.0,3085.0,4095.0,4095.0,4095.0,4095.0,-0.16,9.96,1.68,-0.06,-0.02,-0.03,1.0,b
3607.0,4095.0,888.0,3087.0,4095.0,4095.0,4095.0,4095.0,-0.21,9.94,1.66,-0.07,0.0,-0.03,1.0,b
3583.0,4095.0,899.0,3088.0,4095.0,4095.0,4095.0,4095.0,-0.22,9.93,1.81,-0.05,0.01,-0.02,1.0,b
3607.0,4095.0,897.0,3088.0,4095.0,4095.0,4095.0,4095.0,-0.22,9.91,1.6,-0.03,-0.0,-0.04,1.0,b
3608.0,4095.0,894.0,3098.0,4095.0,4095.0,4095.0,4095.0,-0.16,9.9,1.63,-0.03,-0.01,-0.04,1.0,b
3583.0,4095.0,897.0,3101.0,4095.0,4095.0,4095.0,4095.0,-0.23,10.0,1.59,-0.08,-0.0,-0.03,1.0,b
4095.0,4095.0,981.0,3056.0,4095.0,4095.0,4095.0,4095.0,-0.36,9.94,1.85,-0.04,0.04,-0.05,1.0,b
4095.0,4095.0,975.0,3062.0,4095.0,4095.0,4095.0,4095.0,-0.39,9.85,1.76,-0.07,-0.01,-0.03,1.0,b
4095.0,4095.0,990.0,3058.0,4095.0,4095.0,4095.0,4095.0,-0.2,9.94,1.78,-0.07,0.02,-0.03,1.0,b
4095.0,4095.0,975.0,3069.0,4095.0,4095.0,4095.0,4095.0,-0.33,9.96,1.76,-0.12,0.01,-0.02,1.0,b
4095.0,4095.0,982.0,3067.0,4095.0,4095.0,4095.0,4095.0,-0.22,9.88,2.03,-0.05,-0.0,-0.05,1.0,b
4095.0,4095.0,995.0,3066.0,4095.0,4095.0,4095.0,4095.0,-0.4,9.97,1.79,-0.07,0.01,-0.04,1.0,b
4095.0,4095.0,979.0,3085.0,4095.0,4095.0,4095.0,4095.0,-0.33,9.86,1.75,-0.09,0.02,-0.01,1.0,b
4095.0,4095.0,985.0,3082.0,4095.0,4095.0,4095.0,4095.0,-0.31,9.93,1.92,-0.06,-0.01,-0.04,1.0,b
4095.0,4095.0,986.0,3071.0,4095.0,4095.0,4095.0,4095.0,-0.37,9.95,1.87,-0.04,0.01,-0.03,1.0,b
4095.0,4095.0,976.0,3089.0,4095.0,4095.0,4095.0,4095.0,-0.27,9.83,1.86,-0.08,-0.02,-0.01,1.0,b
4095.0,4095.0,979.0,3088.0,4095.0,4095.0,4095.0,4095.0,-0.37,9.95,1.73,-0.02,0.04,-0.03,1.0,b
4095.0,4095.0,972.0,3088.0,4095.0,4095.0,4095.0,4095.0,-0.46,9.89,1.65,-0.1,-0.02,0.01,1.0,b
4095.0,4095.0,975.0,3091.0,4095.0,4095.0,4095.0,4095.0,-0.25,9.91,1.77,-0.04,0.03,0.0,1.0,b
4095.0,4095.0,976.0,3098.0,4095.0,4095.0,4095.0,4095.0,-0.18,10.0,1.81,-0.09,-0.02,-0.02,1.0,b
4095.0,4095.0,976.0,3088.0,4095.0,4095.0,4095.0,4095.0,-0.23,9.88,1.89,-0.03,0.02,-0.05,1.0,b
4095.0,4095.0,979.0,3099.0,4095.0,4095.0,4095.0,4095.0,-0.49,9.87,1.86,-0.08,0.01,-0.01,1.0,b
4095.0,4095.0,960.0,3098.0,4095.0,4095.0,4095.0,4095.0,-0.25,9.92,1.82,-0.04,0.03,0.0,1.0,b
4095.0,4095.0,965.0,3111.0,4095.0,4095.0,4095.0,4095.0,-0.08,9.93,1.87,-0.05,0.03,-0.01,1.0,b
4095.0,4095.0,957.0,3106.0,4095.0,4095.0,4095.0,4095.0,-0.03,9.95,2.02,-0.03,0.06,-0.05,1.0,b
4095.0,4095.0,944.0,3105.0,4095.0,4095.0,4095.0,4095.0,-0.12,9.83,1.82,-0.03,-0.0,-0.05,1.0,b
4095.0,4095.0,880.0,2990.0,4095.0,4095.0,4095.0,4095.0,-0.28,9.89,1.96,-0.05,0.03,-0.02,1.0,b
4095.0,4095.0,881.0,2992.0,4095.0,4095.0,4095.0,4095.0,-0.07,9.92,1.93,-0.05,0.01,-0.02,1.0,b
4095.0,4095.0,885.0,3000.0,4095.0,4095.0,4095.0,4095.0,-0.11,10.02,1.96,-0.05,0.01,-0.04,1.0,b
4095.0,4095.0,879.0,3003.0,4095.0,4095.0,4095.0,4095.0,-0.18,9.79,2.09,-0.07,0.03,-0.03,1.0,b
4095.0,4095.0,875.0,2999.0,4095.0,4095.0,4095.0,4095.0,-0.16,9.93,1.95,-0.05,-0.01,-0.04,1.0,b
4095.0,4095.0,880.0,2992.0,4095.0,4095.0,4095.0,4095.0,-0.24,9.84,1.87,-0.04,0.03,-0.03,1.0,b
4095.0,4095.0,880.0,3005.0,4095.0,4095.0,4095.0,4095.0,-0.19,9.97,1.79,-0.03,-0.01,-0.03,1.0,b
4095.0,4095.0,891.0,3009.0,4095.0,4095.0,4095.0,4095.0,-0.2,9.96,1.78,-0.05,0.03,-0.04,1.0,b
4095.0,4095.0,879.0,3008.0,4095.0,4095.0,4095.0,4095.0,-0.19,9.88,1.93,-0.08,0.01,-0.03,1.0,b
4095.0,4095.0,880.0,3013.0,4095.0,4095.0,4095.0,4095.0,-0.18,9.89,2.0,-0.02,0.02,-0.04,1.0,b
4095.0,4095.0,879.0,3006.0,4095.0,4095.0,4095.0,4095.0,-0.18,9.92,1.88,-0.07,-0.03,-0.03,1.0,b
4095.0,4095.0,883.0,3010.0,4095.0,4095.0,4095.0,4095.0,-0.24,9.82,1.89,-0.1,0.02,-0.02,1.0,b
3929.0,4095.0,881.0,3021.0,4095.0,4095.0,4095.0,4095.0,-0.27,10.0,1.94,-0.01,-0.03,-0.04,1.0,b
3864.0,4095.0,886.0,3023.0,4095.0,4095.0,4095.0,4095.0,-0.28,10.0,1.72,-0.07,-0.01,-0.03,1.0,b
3876.0,4095.0,881.0,3015.0,4095.0,4095.0,4095.0,4095.0,-0.1,9.87,1.89,-0.04,-0.01,-0.03,1.0,b
3913.0,4095.0,880.0,3021.0,4095.0,4095.0,4095.0,4095.0,-0.17,9.98,1.8,-0.06,-0.02,-0.04,1.0,b
3854.0,4095.0,880.0,3020.0,4095.0,4095.0,4095.0,4095.0,-0.13,9.85,1.85,-0.06,0.01,-0.04,1.0,b
3866.0,4095.0,883.0,3029.0,4095.0,4095.0,4095.0,4095.0,-0.15,9.96,1.88,-0.07,-0.01,-0.03,1.0,b
3878.0,4095.0,882.0,3024.0,4095.0,4095.0,4095.0,4095.0,-0.12,9.9,1.89,-0.06,0.04,-0.04,1.0,b
3871.0,4095.0,879.0,3024.0,4095.0,4095.0,4095.0,4095.0,-0.21,9.9,1.99,-0.06,-0.02,-0.03,1.0,b
3536.0,4095.0,3253.0,3012.0,4095.0,4095.0,4095.0,4095.0,0.11,10.02,1.65,-0.03,-0.05,-0.02,1.0,b
3548.0,4095.0,3254.0,3024.0,4095.0,4095.0,4095.0,4095.0,-0.01,9.95,1.58,-0.06,-0.02,-0.03,1.0,b
3563.0,4095.0,3267.0,3024.0,4095.0,4095.0,4095.0,4095.0,-0.05,9.89,1.83,-0.04,-0.03,-0.05,1.0,b
3557.0,4095.0,3283.0,3021.0,4095.0,4095.0,4095.0,4095.0,-0.02,9.83,1.81,-0.06,-0.01,-0.03,1.0,b
3555.0,4095.0,3252.0,3023.0,4095.0,4095.0,4095.0,4095.0,-0.06,10.01,1.83,-0.08,-0.0,-0.02,1.0,b
3568.0,4095.0,3263.0,3026.0,4095.0,4095.0,4095.0,4095.0,0.02,9.82,1.98,-0.07,0.03,-0.02,1.0,b
3561.0,4095.0,3266.0,3029.0,4095.0,4095.0,4095.0,4095.0,-0.1,9.98,1.83,-0.06,0.01,-0.03,1.0,b
3550.0,4095.0,3261.0,3024.0,4095.0,4095.0,4095.0,4095.0,-0.04,9.96,1.68,-0.12,0.01,-0.03,1.0,b
3564.0,4095.0,3275.0,3029.0,4095.0,4095.0,4095.0,4095.0,-0.04,9.99,1.98,-0.08,0.01,-0.03,1.0,b
3555.0,4095.0,3276.0,3030.0,4095.0,4095.0,4095.0,4095.0,0.11,9.94,2.07,-0.05,0.0,-0.04,1.0,b
3568.0,4095.0,3292.0,3023.0,4095.0,4095.0,4095.0,4095.0,0.11,9.96,2.09,-0.06,0.01,-0.05,1.0,b
3571.0,4095.0,3267.0,3029.0,4095.0,4095.0,4095.0,4095.0,0.02,9.87,1.94,-0.0,-0.04,-0.06,1.0,b
3573.0,4095.0,3297.0,3035.0,4095.0,4095.0,4095.0,4095.0,-0.13,9.97,1.77,-0.07,0.03,-0.05,1.0,b
3571.0,4095.0,3305.0,3031.0,4095.0,4095.0,4095.0,4095.0,-0.2,9.82,1.87,-0.06,-0.04,-0.05,1.0,b
3568.0,4095.0,3298.0,3026.0,4095.0,4095.0,4095.0,4095.0,0.01,9.92,1.96,-0.05,0.02,-0.02,1.0,b
3570.0,4095.0,3298.0,3026.0,4095.0,4095.0,4095.0,4095.0,0.06,9.94,1.89,-0.07,-0.03,-0.03,1.0,b
3579.0,4095.0,3290.0,3030.0,4095.0,4095.0,4095.0,4095.0,0.03,9.94,2.05,-0.04,0.02,-0.05,1.0,b
3549.0,4095.0,3310.0,3035.0,4095.0,4095.0,4095.0,4095.0,-0.07,9.88,1.92,-0.03,-0.01,-0.04,1.0,b
3568.0,4095.0,3329.0,3038.0,4095.0,4095.0,4095.0,4095.0,0.03,9.97,1.74,-0.03,0.01,-0.05,1.0,b
3599.0,4095.0,3323.0,3041.0,4095.0,4095.0,4095.0,4095.0,0.02,9.89,1.89,-0.03,-0.01,-0.05,1.0,b
3665.0,4084.0,3724.0,3187.0,4095.0,4095.0,4095.0,4095.0,-0.48,9.85,1.77,-0.1,-0.01,-0.05,1.0,b
3696.0,4053.0,3728.0,3198.0,4095.0,4095.0,4095.0,4095.0,-0.54,9.96,1.81,-0.07,0.01,-0.04,1.0,b
3661.0,4093.0,3722.0,3184.0,4095.0,4095.0,4095.0,4095.0,-0.35,9.89,1.87,-0.06,-0.03,-0.04,1.0,b
3669.0,4083.0,3702.0,3184.0,4095.0,4095.0,4095.0,4095.0,-0.38,10.01,1.75,-0.03,-0.01,-0.04,1.0,b
3651.0,4091.0,3703.0,3183.0,4095.0,4095.0,4095.0,4095.0,-0.33,9.89,1.84,-0.04,-0.03,-0.07,1.0,b
3681.0,4080.0,3725.0,3185.0,4095.0,4095.0,4095.0,4095.0,-0.59,9.97,1.72,-0.04,-0.01,-0.09,1.0,b
3701.0,4087.0,3717.0,3184.0,4095.0,4095.0,4095.0,4095.0,-0.58,9.79,1.75,-0.07,-0.04,-0.06,1.0,b
3721.0,4095.0,3719.0,3184.0,4095.0,4095.0,4095.0,4095.0,-0.57,9.91,1.82,0.0,-0.04,-0.07,1.0,b
3704.0,4075.0,3728.0,3185.0,4095.0,4095.0,4095.0,4095.0,-0.54,9.9,1.61,-0.09,-0.04,-0.05,1.0,b
3719.0,4095.0,3732.0,3194.0,4095.0,4095.0,4095.0,4095.0,-0.64,9.9,1.89,-0.02,0.01,-0.05,1.0,b
3699.0,4095.0,3717.0,3190.0,4095.0,4095.0,4095.0,4095.0,-0.56,9.92,1.69,-0.02,-0.0,-0.03,1.0,b
3717.0,4090.0,3760.0,3186.0,4095.0,4095.0,4095.0,4095.0,-0.57,9.92,1.58,-0.02,-0.01,-0.03,1.0,b
3725.0,4095.0,3749.0,3195.0,4095.0,4095.0,4095.0,4095.0,-0.49,9.92,1.64,-0.07,0.03,-0.04,1.0,b
3725.0,4095.0,3750.0,3201.0,4095.0,4095.0,4095.0,4095.0,-0.51,9.94,1.57,-0.05,-0.04,-0.03,1.0,b
3719.0,4095.0,3729.0,3216.0,4095.0,4095.0,4095.0,4095.0,-0.52,9.96,1.66,-0.08,0.02,-0.02,1.0,b
3729.0,4095.0,3760.0,3216.0,4095.0,4095.0,4095.0,4095.0,-0.65,9.85,1.81,-0.1,-0.0,-0.01,1.0,b
3747.0,4095.0,3749.0,3211.0,4095.0,4095.0,4095.0,4095.0,-0.61,9.75,2.01,-0.05,-0.01,0.02,1.0,b
3776.0,4095.0,3745.0,3209.0,4095.0,4095.0,4095.0,4095.0,-0.46,9.93,1.61,-0.02,0.02,0.06,1.0,b
4095.0,4085.0,3781.0,3200.0,4095.0,4095.0,4095.0,4095.0,-0.09,10.05,1.59,-0.06,0.01,0.0,1.0,b
4095.0,4095.0,3787.0,3205.0,4095.0,4095.0,4095.0,4095.0,-0.54,9.86,1.59,-0.1,0.13,-0.0,1.0,b
2753.0,4095.0,1104.0,3178.0,4095.0,4095.0,4095.0,4095.0,-0.34,9.93,1.87,-0.04,-0.03,-0.05,1.0,b
2800.0,4095.0,1091.0,3161.0,4095.0,4095.0,4095.0,4095.0,-0.33,9.95,1.87,-0.1,0.05,-0.0,1.0,b
2923.0,4095.0,1107.0,3171.0,4095.0,4095.0,4095.0,4095.0,-0.04,9.88,2.06,-0.04,-0.03,-0.02,1.0,b
3038.0,4095.0,1104.0,3170.0,4095.0,4095.0,4095.0,4095.0,-0.2,9.95,1.88,-0.06,0.04,-0.03,1.0,b
3098.0,4095.0,1104.0,3163.0,4095.0,4095.0,4095.0,4095.0,-0.19,9.82,1.91,-0.04,0.0,-0.04,1.0,b
3212.0,4095.0,1107.0,3189.0,4095.0,4095.0,4095.0,4095.0,-0.27,9.92,1.96,-0.07,0.01,-0.02,1.0,b
3344.0,4095.0,1118.0,3162.0,4095.0,4095.0,4095.0,4095.0,-0.13,9.9,1.92,-0.04,0.02,-0.01,1.0,b
3453.0,4095.0,1119.0,3151.0,4095.0,4095.0,4095.0,4095.0,-0.15,9.96,1.87,-0.04,-0.01,-0.04,1.0,b
3469.0,4095.0,1123.0,3156.0,4095.0,4095.0,4095.0,4095.0,-0.26,9.89,1.89,-0.07,0.02,-0.04,1.0,b
3505.0,4095.0,1122.0,3134.0,4095.0,4095.0,4095.0,4095.0,-0.2,9.91,1.92,-0.03,0.0,-0.04,1.0,b
3557.0,4095.0,1131.0,3138.0,4095.0,4095.0,4095.0,4095.0,-0.27,9.87,1.91,-0.05,0.05,-0.04,1.0,b
3536.0,4095.0,1122.0,3133.0,4095.0,4095.0,4095.0,4095.0,-0.26,9.93,1.81,-0.03,-0.04,-0.02,1.0,b
3568.0,4095.0,1135.0,3136.0,4095.0,4095.0,4095.0,4095.0,-0.08,9.95,1.82,-0.02,0.03,-0.03,1.0,b
3567.0,4095.0,1125.0,3123.0,4095.0,4095.0,4095.0,4095.0,-0.24,9.9,1.81,-0.09,-0.01,-0.04,1.0,b
3546.0,4095.0,1134.0,3137.0,4095.0,4095.0,4095.0,4095.0,-0.22,9.84,1.95,-0.02,0.02,-0.03,1.0,b
3566.0,4095.0,1136.0,3136.0,4095.0,4095.0,4095.0,4095.0,-0.21,9.96,1.8,-0.09,-0.0,-0.03,1.0,b
3559.0,4095.0,1135.0,3131.0,4095.0,4095.0,4095.0,4095.0,-0.16,9.88,1.97,-0.04,-0.02,-0.05,1.0,b
3568.0,4095.0,1126.0,3133.0,4095.0,4095.0,4095.0,4095.0,-0.17,10.01,1.85,-0.03,0.0,-0.06,1.0,b
3548.0,4095.0,1108.0,3141.0,4095.0,4095.0,4095.0,4095.0,-0.26,9.82,1.82,-0.04,-0.01,-0.04,1.0,b
3555.0,4095.0,1072.0,3137.0,4095.0,4095.0,4095.0,4095.0,-0.19,9.94,1.82,-0.02,0.01,-0.04,1.0,b
2203.0,4095.0,1743.0,3218.0,4095.0,4095.0,4095.0,4095.0,-0.29,10.03,1.6,-0.13,0.01,-0.04,1.0,b
2288.0,4095.0,1745.0,3219.0,4095.0,4095.0,4095.0,4095.0,-0.08,9.95,1.8,-0.07,-0.03,-0.03,1.0,b
2278.0,4095.0,1747.0,3222.0,4095.0,4095.0,4095.0,4095.0,-0.2,9.95,1.81,-0.07,-0.01,-0.02,1.0,b
2293.0,4095.0,1761.0,3206.0,4095.0,4095.0,4095.0,4095.0,-0.08,9.89,1.71,-0.04,0.03,-0.01,1.0,b
2300.0,4095.0,1769.0,3217.0,4095.0,4095.0,4095.0,4095.0,-0.14,9.96,1.71,-0.07,-0.01,-0.02,1.0,b
2303.0,4095.0,1781.0,3216.0,4095.0,4095.0,4095.0,4095.0,0.03,9.9,1.86,-0.08,0.03,-0.02,1.0,b
2303.0,4095.0,1791.0,3215.0,4095.0,4095.0,4095.0,4095.0,-0.08,10.02,1.71,-0.05,-0.01,-0.04,1.0,b
2302.0,4095.0,1791.0,3210.0,4095.0,4095.0,4095.0,4095.0,-0.11,9.9,1.69,-0.07,0.02,-0.04,1.0,b
2316.0,4095.0,1815.0,3203.0,4095.0,4095.0,4095.0,4095.0,-0.22,9.99,1.74,-0.05,0.01,-0.02,1.0,b
2342.0,4095.0,1854.0,3207.0,4095.0,4095.0,4095.0,4095.0,-0.08,10.06,1.64,-0.05,0.0,-0.03,1.0,b
2433.0,4095.0,1866.0,3197.0,4095.0,4095.0,4095.0,4095.0,-0.05,9.95,1.64,-0.1,0.03,-0.01,1.0,b
2496.0,4095.0,1890.0,3221.0,4095.0,4095.0,4095.0,4095.0,-0.09,9.99,1.74,-0.06,0.01,-0.04,1.0,b
3107.0,4095.0,1920.0,3232.0,4095.0,4095.0,4095.0,4095.0,-0.1,9.95,1.72,-0.1,0.01,-0.04,1.0,b
3283.0,4095.0,1984.0,3234.0,4095.0,4095.0,4095.0,4095.0,-0.11,9.96,1.86,-0.07,0.01,-0.02,1.0,b
3277.0,4095.0,1986.0,3242.0,4095.0,4095.0,4095.0,4095.0,-0.07,9.9,1.83,-0.05,0.03,-0.01,1.0,b
3283.0,4095.0,1989.0,3248.0,4095.0,4095.0,4095.0,4095.0,-0.07,9.99,1.76,-0.06,-0.02,-0.03,1.0,b
3281.0,4095.0,2000.0,3241.0,4095.0,4095.0,4095.0,4095.0,-0.06,9.91,1.84,-0.04,0.01,-0.02,1.0,b
3283.0,4095.0,2000.0,3235.0,4095.0,4095.0,4095.0,4095.0,0.15,9.98,1.85,-0.05,-0.02,-0.04,1.0,b
3394.0,4095.0,2020.0,3245.0,4095.0,4095.0,4095.0,4095.0,0.0,9.9,1.85,-0.02,0.04,-0.1,1.0,b
3520.0,4095.0,2102.0,3244.0,4095.0,4095.0,4095.0,4095.0,-0.18,9.97,1.74,-0.02,-0.0,-0.08,1.0,b
4095.0,3599.0,2725.0,3003.0,4095.0,4095.0,4095.0,4095.0,-0.39,10.01,1.57,-0.02,0.03,-0.04,1.0,b
4095.0,3578.0,2731.0,3007.0,4095.0,4095.0,4095.0,4095.0,-0.31,9.9,1.54,-0.07,-0.0,-0.02,1.0,b
4095.0,3583.0,2731.0,2993.0,4095.0,4095.0,4095.0,4095.0,-0.21,9.96,1.58,-0.04,0.02,-0.04,1.0,b
4095.0,3575.0,2723.0,2997.0,4095.0,4095.0,4095.0,4095.0,-0.32,9.95,1.51,-0.1,-0.05,-0.05,1.0,b
4095.0,3583.0,2733.0,3007.0,4095.0,4095.0,4095.0,4095.0,-0.16,9.82,1.92,-0.06,-0.02,-0.08,1.0,b
4095.0,3571.0,2738.0,3007.0,4095.0,4095.0,4095.0,4095.0,-0.36,9.9,1.71,-0.08,0.01,-0.07,1.0,b
4095.0,3583.0,2746.0,3003.0,4095.0,4095.0,4095.0,4095.0,-0.39,9.92,1.75,-0.01,0.03,-0.07,1.0,b
4095.0,3575.0,2749.0,2999.0,4095.0,4095.0,4095.0,4095.0,-0.5,9.88,1.64,-0.03,0.04,-0.01,1.0,b
4095.0,3607.0,2736.0,3009.0,4095.0,4095.0,4095.0,4095.0,-0.25,9.98,1.55,0.02,0.02,-0.03,1.0,b
4095.0,3600.0,2756.0,3010.0,4095.0,4095.0,4095.0,4095.0,-0.3,10.05,1.36,-0.04,-0.02,-0.06,1.0,b
4095.0,3583.0,2763.0,3002.0,4095.0,4095.0,4095.0,4095.0,-0.46,9.91,1.53,-0.03,0.0,-0.09,1.0,b
4095.0,3583.0,2768.0,2993.0,4095.0,4095.0,4095.0,4095.0,-0.73,9.86,1.37,-0.05,-0.0,-0.03,1.0,b
4095.0,3568.0,2768.0,2998.0,4095.0,4095.0,4095.0,4095.0,-0.38,10.06,1.28,-0.07,-0.07,-0.01,1.0,b
4095.0,3583.0,2767.0,3014.0,4095.0,4095.0,4095.0,4095.0,-0.27,9.94,1.64,-0.11,0.01,-0.01,1.0,b
4095.0,3579.0,2770.0,3007.0,4095.0,4095.0,4095.0,4095.0,-0.35,10.04,1.64,-0.05,-0.01,-0.05,1.0,b
4095.0,3603.0,2774.0,3003.0,4095.0,4095.0,4095.0,4095.0,-0.48,9.95,1.54,-0.05,0.03,-0.02,1.0,b
4095.0,3600.0,2783.0,3002.0,4095.0,4095.0,4095.0,4095.0,-0.17,10.05,1.52,-0.02,0.01,-0.05,1.0,b
4095.0,3568.0,2777.0,3008.0,4095.0,4095.0,4095.0,4095.0,-0.17,9.89,1.6,-0.08,-0.0,-0.06,1.0,b
4095.0,3568.0,2798.0,3003.0,4095.0,4095.0,4095.0,4095.0,-0.37,9.99,1.48,-0.03,0.02,-0.09,1.0,b
4095.0,3573.0,2799.0,3018.0,4095.0,4095.0,4095.0,4095.0,-0.61,9.88,1.52,-0.09,-0.03,-0.06,1.0,b
3543.0,3583.0,1571.0,3061.0,4095.0,4095.0,4095.0,4095.0,-0.34,9.81,1.89,-0.09,-0.01,-0.03,1.0,b
3543.0,3558.0,1575.0,3067.0,4095.0,4095.0,4095.0,4095.0,-0.3,9.9,1.99,-0.07,0.0,-0.03,1.0,b
3539.0,3568.0,1570.0,3067.0,4095.0,4095.0,4095.0,4095.0,-0.29,9.89,1.84,-0.02,-0.02,-0.05,1.0,b
3554.0,3567.0,1578.0,3057.0,4095.0,4095.0,4095.0,4095.0,-0.44,9.92,1.78,-0.08,-0.0,-0.04,1.0,b
3535.0,3559.0,1581.0,3056.0,4095.0,4095.0,4095.0,4095.0,-0.35,9.9,1.88,-0.03,-0.01,-0.05,1.0,b
3553.0,3577.0,1584.0,3063.0,4095.0,4095.0,4095.0,4095.0,-0.28,9.9,1.81,-0.05,-0.06,-0.04,1.0,b
3549.0,3559.0,1582.0,3071.0,4095.0,4095.0,4095.0,4095.0,-0.34,9.88,1.87,-0.03,-0.01,-0.07,1.0,b
3551.0,3568.0,1594.0,3071.0,4095.0,4095.0,4095.0,4095.0,-0.5,9.87,1.87,-0.02,-0.05,-0.06,1.0,b
3558.0,3582.0,1595.0,3069.0,4095.0,4095.0,4095.0,4095.0,-0.66,9.88,1.67,-0.06,0.01,-0.04,1.0,b
3563.0,3575.0,1601.0,3071.0,4095.0,4095.0,4095.0,4095.0,-0.48,9.86,1.77,-0.01,-0.07,-0.04,1.0,b
3564.0,3578.0,1600.0,3071.0,4095.0,4095.0,4095.0,4095.0,-0.68,9.89,1.58,-0.06,0.03,0.01,1.0,b
3552.0,3569.0,1609.0,3071.0,4095.0,4095.0,4095.0,4095.0,-0.2,10.0,1.69,-0.03,-0.03,0.02,1.0,b
3543.0,3561.0,1607.0,3071.0,4095.0,4095.0,4095.0,4095.0,-0.3,9.97,1.7,-0.07,0.05,-0.01,1.0,b
3541.0,3553.0,1611.0,3086.0,4095.0,4095.0,4095.0,4095.0,-0.25,9.95,1.75,-0.09,0.01,-0.02,1.0,b
3543.0,3577.0,1573.0,3068.0,4095.0,4095.0,4095.0,4095.0,-0.41,9.88,1.88,-0.06,-0.01,-0.02,1.0,b
3550.0,3568.0,1535.0,3085.0,4095.0,4095.0,4095.0,4095.0,-0.11,9.97,1.88,-0.04,0.02,-0.04,1.0,b
3511.0,3583.0,1535.0,3066.0,4095.0,4095.0,4095.0,4095.0,-0.42,9.88,1.7,-0.05,0.0,-0.05,1.0,b
3547.0,3579.0,1529.0,3057.0,4095.0,4095.0,4095.0,4095.0,-0.36,9.93,1.74,-0.03,0.01,-0.05,1.0,b
3567.0,3578.0,1535.0,3082.0,4095.0,4095.0,4095.0,4095.0,-0.42,9.91,1.66,-0.06,-0.01,-0.04,1.0,b
3543.0,3570.0,1535.0,3071.0,4095.0,4095.0,4095.0,4095.0,-0.31,9.92,1.71,-0.05,0.03,-0.03,1.0,b
2226.0,3785.0,2403.0,3071.0,4095.0,4095.0,4095.0,4095.0,-0.4,9.92,1.81,-0.07,-0.0,-0.03,1.0,b
2312.0,3745.0,2394.0,3110.0,4095.0,4095.0,4095.0,4095.0,-0.26,9.88,1.87,-0.05,-0.01,-0.05,1.0,b
2339.0,3759.0,2393.0,3111.0,4095.0,4095.0,4095.0,4095.0,-0.43,9.91,1.87,-0.09,0.01,-0.05,1.0,b
2442.0,3765.0,2394.0,3109.0,4095.0,4095.0,4095.0,4095.0,-0.31,9.88,1.96,-0.04,0.01,-0.04,1.0,b
2623.0,3767.0,2386.0,3103.0,4095.0,4095.0,4095.0,4095.0,-0.34,9.88,1.92,-0.07,0.01,-0.03,1.0,b
2785.0,3760.0,2411.0,3105.0,4095.0,4095.0,4095.0,4095.0,-0.37,9.82,1.94,-0.09,0.02,-0.02,1.0,b
2911.0,3760.0,2405.0,3104.0,4095.0,4095.0,4095.0,4095.0,-0.32,9.97,1.9,-0.08,-0.01,-0.03,1.0,b
3056.0,3755.0,2407.0,3099.0,4095.0,4095.0,4095.0,4095.0,-0.27,9.91,1.99,-0.06,0.01,-0.03,1.0,b
3104.0,3785.0,2406.0,3098.0,4095.0,4095.0,4095.0,4095.0,-0.39,9.84,1.92,-0.05,0.01,-0.04,1.0,b
3109.0,3773.0,2399.0,3113.0,4095.0,4095.0,4095.0,4095.0,-0.34,9.88,1.95,-0.08,0.01,-0.03,1.0,b
3133.0,3763.0,2411.0,3111.0,4095.0,4095.0,4095.0,4095.0,-0.36,9.82,2.04,-0.06,0.01,-0.02,1.0,b
3166.0,3779.0,2394.0,3111.0,4095.0,4095.0,4095.0,4095.0,-0.21,9.86,1.99,-0.05,0.01,-0.05,1.0,b
3181.0,3770.0,2416.0,3114.0,4095.0,4095.0,4095.0,4095.0,-0.42,9.91,1.79,-0.05,-0.01,-0.05,1.0,b
3225.0,3779.0,2432.0,3105.0,4095.0,4095.0,4095.0,4095.0,-0.34,9.88,1.92,-0.09,0.01,-0.03,1.0,b
3255.0,3772.0,2437.0,3114.0,4095.0,4095.0,4095.0,4095.0,-0.35,9.93,1.93,-0.04,-0.02,-0.03,1.0,b
3274.0,3781.0,2434.0,3107.0,4095.0,4095.0,4095.0,4095.0,-0.33,9.91,1.8,-0.06,0.02,-0.03,1.0,b
3261.0,3802.0,2432.0,3115.0,4095.0,4095.0,4095.0,4095.0,-0.29,9.91,1.91,-0.07,-0.02,-0.03,1.0,b
3263.0,3775.0,2445.0,3108.0,4095.0,4095.0,4095.0,4095.0,-0.32,9.85,2.05,-0.06,-0.0,-0.03,1.0,b
3270.0,3790.0,2439.0,3119.0,4095.0,4095.0,4095.0,4095.0,-0.26,9.93,2.0,-0.05,0.01,-0.03,1.0,b
3286.0,3765.0,2433.0,3120.0,4095.0,4095.0,4095.0,4095.0,-0.26,9.88,1.92,-0.05,-0.02,-0.04,1.0,b
3383.0,4095.0,891.0,3269.0,4095.0,4095.0,4095.0,4095.0,-0.59,9.96,1.53,-0.12,-0.0,-0.04,1.0,b
3445.0,4095.0,880.0,3266.0,4095.0,4095.0,4095.0,4095.0,-0.61,9.84,1.87,-0.08,0.0,-0.02,1.0,b
3506.0,4095.0,882.0,3269.0,4095.0,4095.0,4095.0,4095.0,-0.44,9.95,1.81,-0.05,-0.0,0.0,1.0,b
3523.0,4095.0,891.0,3280.0,4095.0,4095.0,4095.0,4095.0,-0.27,9.94,1.65,-0.06,0.02,-0.01,1.0,b
3530.0,4095.0,877.0,3275.0,4095.0,4095.0,4095.0,4095.0,-0.38,9.99,1.75,-0.06,0.01,-0.05,1.0,b
3529.0,4095.0,878.0,3265.0,4095.0,4095.0,4095.0,4095.0,-0.41,9.87,1.82,-0.06,0.02,-0.04,1.0,b
3531.0,4095.0,880.0,3271.0,4095.0,4095.0,4095.0,4095.0,-0.53,9.96,1.6,-0.08,0.0,-0.03,1.0,b
3526.0,4095.0,882.0,3278.0,4095.0,4095.0,4095.0,4095.0,-0.52,9.89,1.78,-0.09,-0.01,-0.02,1.0,b
3531.0,4095.0,886.0,3269.0,4095.0,4095.0,4095.0,4095.0,-0.51,9.93,1.79,-0.07,0.01,-0.02,1.0,b
3539.0,4095.0,887.0,3265.0,4095.0,4095.0,4095.0,4095.0,-0.51,9.84,1.75,-0.07,-0.01,-0.03,1.0,b
3536.0,4095.0,879.0,3249.0,4095.0,4095.0,4095.0,4095.0,-0.42,9.96,1.77,-0.08,0.04,-0.01,1.0,b
3534.0,4095.0,885.0,3257.0,4095.0,4095.0,4095.0,4095.0,-0.36,9.87,1.72,-0.05,-0.01,-0.01,1.0,b
3542.0,4095.0,881.0,3257.0,4095.0,4095.0,4095.0,4095.0,-0.29,9.96,1.72,-0.08,0.05,-0.02,1.0,b
3536.0,4095.0,886.0,3253.0,4095.0,4095.0,4095.0,4095.0,-0.38,9.91,1.7,-0.08,0.0,-0.04,1.0,b
3533.0,4095.0,880.0,3253.0,4095.0,4095.0,4095.0,4095.0,-0.3,9.94,1.97,-0.11,0.08,-0.03,1.0,b
3532.0,4095.0,885.0,3240.0,4095.0,4095.0,4095.0,4095.0,-0.38,9.87,2.02,-0.03,0.0,-0.05,1.0,b
3533.0,4095.0,881.0,3233.0,4095.0,4095.0,4095.0,4095.0,-0.5,9.89,1.99,-0.03,0.05,-0.05,1.0,b
3536.0,4095.0,889.0,3247.0,4095.0,4095.0,4095.0,4095.0,-0.41,9.9,1.83,0.01,-0.02,-0.03,1.0,b
3542.0,4095.0,899.0,3227.0,4095.0,4095.0,4095.0,4095.0,-0.31,9.98,1.6,-0.03,0.0,-0.04,1.0,b
3522.0,4095.0,881.0,3214.0,4095.0,4095.0,4095.0,4095.0,-0.43,9.96,1.64,-0.07,-0.02,-0.05,1.0,b
3535.0,3607.0,3990.0,3088.0,4095.0,4095.0,4095.0,4095.0,-0.36,9.93,1.87,-0.04,0.01,-0.05,1.0,b
3539.0,3583.0,3982.0,3087.0,4095.0,4095.0,4095.0,4095.0,-0.31,9.83,1.79,-0.05,0.0,-0.03,1.0,b
3543.0,3606.0,3947.0,3095.0,4095.0,4095.0,4095.0,4095.0,-0.23,9.84,1.85,-0.06,-0.01,-0.02,1.0,b
3558.0,3603.0,3952.0,3105.0,4095.0,4095.0,4095.0,4095.0,-0.21,9.85,1.83,-0.1,0.01,-0.02,1.0,b
3555.0,3604.0,3962.0,3095.0,4095.0,4095.0,4095.0,4095.0,-0.17,9.94,1.9,-0.07,-0.04,-0.04,1.0,b
3567.0,3599.0,3933.0,3094.0,4095.0,4095.0,4095.0,4095.0,-0.3,9.87,1.84,-0.08,0.0,-0.03,1.0,b
3567.0,3600.0,3943.0,3098.0,4095.0,4095.0,4095.0,4095.0,-0.2,9.97,1.83,-0.03,-0.02,-0.05,1.0,b
3597.0,3597.0,3952.0,3104.0,4095.0,4095.0,4095.0,4095.0,-0.4,9.86,1.85,-0.07,-0.02,-0.03,1.0,b
3583.0,3583.0,3986.0,3101.0,4095.0,4095.0,4095.0,4095.0,-0.24,10.0,1.77,-0.03,0.03,-0.04,1.0,b
3583.0,3610.0,3984.0,3095.0,4095.0,4095.0,4095.0,4095.0,-0.26,9.85,1.92,-0.05,-0.01,-0.03,1.0,b
3576.0,3621.0,3991.0,3100.0,4095.0,4095.0,4095.0,4095.0,-0.28,9.99,1.93,-0.05,0.01,-0.04,1.0,b
3566.0,3607.0,3984.0,3116.0,4095.0,4095.0,4095.0,4095.0,-0.06,9.88,1.98,-0.05,-0.01,-0.05,1.0,b
3572.0,3598.0,3989.0,3108.0,4095.0,4095.0,4095.0,4095.0,-0.25,9.97,1.76,-0.01,0.04,-0.09,1.0,b
3551.0,3579.0,3984.0,3108.0,4095.0,4095.0,4095.0,4095.0,-0.55,9.9,1.66,-0.04,0.0,-0.08,1.0,b
3566.0,3600.0,3979.0,3115.0,4095.0,4095.0,4095.0,4095.0,-0.62,9.88,1.73,-0.06,-0.03,-0.04,1.0,b
3583.0,3605.0,3984.0,3109.0,4095.0,4095.0,4095.0,4095.0,-0.28,9.91,1.87,-0.07,-0.02,-0.02,1.0,b
3557.0,3575.0,3977.0,3104.0,4095.0,4095.0,4095.0,4095.0,-0.31,9.88,1.89,-0.09,-0.01,-0.03,1.0,b
3569.0,3598.0,3984.0,3104.0,4095.0,4095.0,4095.0,4095.0,-0.11,9.91,1.93,-0.03,-0.01,-0.03,1.0,b
3570.0,3583.0,3985.0,3107.0,4095.0,4095.0,4095.0,4095.0,-0.24,9.92,1.7,-0.04,-0.01,-0.04,1.0,b
3583.0,3598.0,3999.0,3098.0,4095.0,4095.0,4095.0,4095.0,-0.38,9.88,1.73,-0.05,-0.01,-0.03,1.0,b
3300.0,3599.0,3239.0,2948.0,4095.0,4095.0,4095.0,4095.0,-0.52,9.86,1.67,-0.07,0.07,-0.04,1.0,b
3311.0,3583.0,3264.0,2957.0,4095.0,4095.0,4095.0,4095.0,-0.66,9.84,2.1,-0.13,0.02,-0.07,1.0,b
3308.0,3602.0,3239.0,2963.0,4095.0,4095.0,4095.0,4095.0,-0.65,9.78,2.14,-0.05,-0.02,-0.06,1.0,b
3306.0,3583.0,3266.0,2975.0,4095.0,4095.0,4095.0,4095.0,-0.47,9.95,1.73,-0.04,-0.06,-0.02,1.0,b
3315.0,3622.0,3265.0,2974.0,4095.0,4095.0,4095.0,4095.0,-0.48,10.09,1.39,-0.02,0.02,-0.04,1.0,b
3312.0,3601.0,3269.0,2972.0,4095.0,4095.0,4095.0,4095.0,-0.79,9.81,1.68,-0.08,-0.0,-0.06,1.0,b
3313.0,3606.0,3267.0,2977.0,4095.0,4095.0,4095.0,4095.0,-0.66,9.79,2.04,-0.11,-0.03,0.0,1.0,b
3295.0,3600.0,3285.0,2993.0,4095.0,4095.0,4095.0,4095.0,-0.6,9.84,2.05,-0.1,0.02,0.01,1.0,b
3303.0,3599.0,3274.0,2990.0,4095.0,4095.0,4095.0,4095.0,-0.37,9.88,1.98,-0.01,0.05,0.05,1.0,b
3318.0,3617.0,3279.0,3006.0,4095.0,4095.0,4095.0,4095.0,-0.1,9.98,1.58,-0.0,0.08,-0.05,1.0,b
3306.0,3605.0,3280.0,2998.0,4095.0,4095.0,4095.0,4095.0,-0.62,9.86,1.61,-0.07,0.02,-0.07,1.0,b
3307.0,3600.0,3279.0,3004.0,4095.0,4095.0,4095.0,4095.0,-0.79,9.74,2.2,-0.09,-0.01,-0.04,1.0,b
3306.0,3581.0,3279.0,2995.0,4095.0,4095.0,4095.0,4095.0,-0.77,9.79,2.16,-0.07,-0.01,0.01,1.0,b
3306.0,3617.0,3302.0,2998.0,4095.0,4095.0,4095.0,4095.0,-0.56,9.97,1.8,-0.03,0.03,-0.01,1.0,b
3305.0,3627.0,3291.0,2998.0,4095.0,4095.0,4095.0,4095.0,-0.3,9.96,1.4,0.03,0.04,0.01,1.0,b
3306.0,3600.0,3282.0,2997.0,4095.0,4095.0,4095.0,4095.0,-0.55,10.06,1.1,-0.04,0.06,0.01,1.0,b
3312.0,3614.0,3298.0,2994.0,4095.0,4095.0,4095.0,4095.0,-0.49,9.89,1.63,-0.09,0.02,0.0,1.0,b
3312.0,3583.0,3303.0,2979.0,4095.0,4095.0,4095.0,4095.0,-0.39,9.98,1.94,-0.05,0.09,-0.0,1.0,b
3307.0,3583.0,3301.0,3006.0,4095.0,4095.0,4095.0,4095.0,-0.41,9.87,1.76,-0.04,0.04,-0.02,1.0,b
3299.0,3600.0,3313.0,2992.0,4095.0,4095.0,4095.0,4095.0,-0.47,9.95,1.67,-0.08,0.02,-0.01,1.0,b
4095.0,3658.0,874.0,3135.0,4095.0,4095.0,4095.0,4095.0,-0.0,9.85,2.39,-0.01,0.0,-0.07,1.0,b
4095.0,3639.0,876.0,3165.0,4095.0,4095.0,4095.0,4095.0,-0.09,9.83,1.9,-0.01,-0.01,-0.02,1.0,b
4095.0,3630.0,870.0,3175.0,4095.0,4095.0,4095.0,4095.0,-0.12,10.05,1.72,-0.04,-0.04,-0.04,1.0,b
4095.0,3647.0,880.0,3167.0,4095.0,4095.0,4095.0,4095.0,0.13,9.87,1.99,-0.08,-0.0,-0.05,1.0,b
4095.0,3650.0,875.0,3165.0,4095.0,4095.0,4095.0,4095.0,0.0,9.93,2.04,-0.09,-0.05,-0.06,1.0,b
4095.0,3639.0,874.0,3179.0,4095.0,4095.0,4095.0,4095.0,0.05,9.86,2.22,-0.01,0.0,-0.07,1.0,b
4095.0,3627.0,877.0,3184.0,4095.0,4095.0,4095.0,4095.0,-0.21,9.86,1.93,-0.03,-0.03,-0.06,1.0,b
4095.0,3639.0,879.0,3183.0,4095.0,4095.0,4095.0,4095.0,-0.27,9.87,1.77,-0.03,0.05,-0.03,1.0,b
4095.0,3637.0,880.0,3182.0,4095.0,4095.0,4095.0,4095.0,-0.11,9.86,1.88,-0.09,-0.01,0.0,1.0,b
4095.0,3623.0,880.0,3183.0,4095.0,4095.0,4095.0,4095.0,0.14,9.95,1.97,-0.09,0.02,-0.0,1.0,b
4095.0,3628.0,876.0,3191.0,4095.0,4095.0,4095.0,4095.0,0.17,9.9,2.25,-0.06,-0.02,-0.08,1.0,b
4095.0,3632.0,869.0,3189.0,4095.0,4095.0,4095.0,4095.0,-0.13,9.85,2.09,-0.05,-0.02,-0.08,1.0,b
4095.0,3621.0,870.0,3187.0,4095.0,4095.0,4095.0,4095.0,-0.19,9.85,2.0,-0.04,-0.07,-0.07,1.0,b
4095.0,3625.0,879.0,3184.0,4095.0,4095.0,4095.0,4095.0,-0.33,9.84,1.96,-0.06,-0.01,-0.03,1.0,b
4095.0,3632.0,877.0,3179.0,4095.0,4095.0,4095.0,4095.0,-0.09,9.87,1.96,-0.03,-0.02,-0.03,1.0,b
4095.0,3638.0,864.0,3181.0,4095.0,4095.0,4095.0,4095.0,-0.06,9.95,1.83,-0.07,0.01,0.0,1.0,b
4095.0,3612.0,874.0,3184.0,4095.0,4095.0,4095.0,4095.0,0.16,9.96,1.97,-0.07,0.06,-0.03,1.0,b
4095.0,3635.0,874.0,3188.0,4095.0,4095.0,4095.0,4095.0,-0.07,9.91,2.02,-0.08,-0.01,-0.05,1.0,b
4095.0,3632.0,874.0,3175.0,4095.0,4095.0,4095.0,4095.0,-0.03,9.87,2.16,-0.04,0.03,-0.04,1.0,b
4095.0,3600.0,866.0,3181.0,4095.0,4095.0,4095.0,4095.0,-0.04,9.89,2.13,0.0,-0.0,-0.09,1.0,b
4095.0,4095.0,4095.0,2960.0,4095.0,4095.0,4095.0,4095.0,-0.13,9.87,2.08,-0.07,0.01,-0.02,1.0,b
4095.0,4095.0,4095.0,2960.0,4095.0,4095.0,4095.0,4095.0,-0.25,9.87,2.09,-0.03,0.04,-0.03,1.0,b
4095.0,4095.0,4095.0,2959.0,4095.0,4095.0,4095.0,4095.0,-0.1,9.86,2.16,-0.04,0.02,-0.01,1.0,b
4095.0,4095.0,4095.0,2966.0,4095.0,4095.0,4095.0,4095.0,-0.07,9.89,2.07,-0.05,0.05,-0.02,1.0,b
4095.0,4095.0,4095.0,2965.0,4095.0,4095.0,4095.0,4095.0,-0.03,9.91,1.96,-0.03,-0.01,-0.04,1.0,b
4095.0,4095.0,4095.0,2971.0,4095.0,4095.0,4095.0,4095.0,-0.06,9.85,1.93,-0.05,-0.01,-0.03,1.0,b
4095.0,4095.0,4095.0,2974.0,4095.0,4095.0,4095.0,4095.0,-0.2,9.93,1.91,-0.06,0.02,-0.04,1.0,b
4095.0,4095.0,4095.0,2985.0,4095.0,4095.0,4095.0,4095.0,-0.13,9.87,1.97,-0.04,0.01,-0.03,1.0,b
4095.0,4095.0,4095.0,2969.0,4095.0,4095.0,4095.0,4095.0,-0.23,9.91,1.92,-0.05,0.0,-0.02,1.0,b
4095.0,4095.0,4095.0,2977.0,4095.0,4095.0,4095.0,4095.0,-0.07,9.88,2.01,-0.06,0.03,-0.03,1.0,b
4095.0,4095.0,4095.0,2984.0,4095.0,4095.0,4095.0,4095.0,-0.14,9.95,2.02,-0.05,0.0,-0.03,1.0,b
4095.0,4095.0,4095.0,2978.0,4095.0,4095.0,4095.0,4095.0,-0.09,9.86,2.09,-0.06,0.02,-0.04,1.0,b
4095.0,4095.0,4095.0,2979.0,4095.0,4095.0,4095.0,4095.0,-0.17,9.87,2.04,-0.02,0.02,-0.03,1.0,b
4095.0,4095.0,4095.0,2970.0,4095.0,4095.0,4095.0,4095.0,-0.07,9.88,2.0,-0.07,0.0,-0.04,1.0,b
4095.0,4095.0,4095.0,2977.0,4095.0,4095.0,4095.0,4095.0,-0.01,9.9,2.0,-0.05,-0.03,-0.03,1.0,b
4095.0,4095.0,4095.0,2973.0,4095.0,4095.0,4095.0,4095.0,-0.09,9.93,1.93,-0.03,0.03,-0.04,1.0,b
4095.0,4095.0,4095.0,2982.0,4095.0,4095.0,4095.0,4095.0,-0.17,9.89,1.9,-0.06,-0.01,-0.04,1.0,b
4095.0,4095.0,4095.0,2979.0,4095.0,4095.0,4095.0,4095.0,-0.11,9.9,1.95,-0.05,-0.0,-0.03,1.0,b
4095.0,4095.0,4095.0,2990.0,4095.0,4095.0,4095.0,4095.0,-0.16,9.9,2.03,-0.06,0.01,-0.02,1.0,b
4095.0,4095.0,4095.0,2991.0,4095.0,4095.0,4095.0,4095.0,-0.03,9.86,2.01,-0.05,0.02,-0.01,1.0,b
3001.0,3602.0,4095.0,2988.0,4095.0,4095.0,4095.0,4095.0,0.08,9.97,2.09,-0.04,-0.02,-0.05,1.0,b
3026.0,3600.0,4095.0,2997.0,4095.0,4095.0,4095.0,4095.0,-0.16,9.86,2.04,-0.1,0.02,-0.04,1.0,b
3031.0,3599.0,4095.0,3008.0,4095.0,4095.0,4095.0,4095.0,-0.1,9.9,2.26,-0.01,0.01,-0.04,1.0,b
3051.0,3614.0,4095.0,3015.0,4095.0,4095.0,4095.0,4095.0,-0.08,9.79,2.05,-0.03,0.01,-0.04,1.0,b
3056.0,3601.0,4095.0,3017.0,4095.0,4095.0,4095.0,4095.0,0.0,9.98,1.95,-0.04,-0.04,-0.04,1.0,b
3054.0,3583.0,4095.0,3024.0,4095.0,4095.0,4095.0,4095.0,-0.04,9.81,2.05,-0.08,-0.03,-0.04,1.0,b
3063.0,3602.0,4095.0,3029.0,4095.0,4095.0,4095.0,4095.0,-0.1,10.0,2.04,-0.05,-0.01,-0.06,1.0,b
3082.0,3615.0,4095.0,3030.0,4095.0,4095.0,4095.0,4095.0,-0.28,9.78,2.09,-0.06,-0.01,-0.04,1.0,b
3103.0,3610.0,4095.0,3031.0,4095.0,4095.0,4095.0,4095.0,-0.13,9.87,2.12,-0.06,-0.01,-0.01,1.0,b
3104.0,3617.0,4095.0,3034.0,4095.0,4095.0,4095.0,4095.0,0.06,9.9,2.06,-0.04,-0.01,-0.04,1.0,b
3118.0,3599.0,4095.0,3030.0,4095.0,4095.0,4095.0,4095.0,-0.07,9.9,2.09,-0.09,-0.01,-0.04,1.0,b
3109.0,3623.0,4095.0,3043.0,4095.0,4095.0,4095.0,4095.0,-0.09,9.87,2.12,-0.03,0.0,-0.07,1.0,b
3136.0,3606.0,4095.0,3035.0,4095.0,4095.0,4095.0,4095.0,-0.17,9.89,1.92,-0.1,-0.04,-0.03,1.0,b
3109.0,3611.0,4095.0,3042.0,4095.0,4095.0,4095.0,4095.0,-0.0,9.87,2.1,-0.05,0.01,-0.05,1.0,b
3120.0,3615.0,4095.0,3050.0,4095.0,4095.0,4095.0,4095.0,-0.22,9.89,2.07,-0.1,-0.01,-0.03,1.0,b
3142.0,3616.0,4095.0,3039.0,4095.0,4095.0,4095.0,4095.0,-0.06,9.83,2.24,-0.02,0.03,-0.05,1.0,b
3152.0,3595.0,4095.0,3044.0,4095.0,4095.0,4095.0,4095.0,-0.06,9.86,2.14,-0.04,-0.04,-0.05,1.0,b
3188.0,3600.0,4095.0,3045.0,4095.0,4095.0,4095.0,4095.0,-0.09,9.9,1.95,-0.02,0.04,-0.07,1.0,b
3182.0,3598.0,4095.0,3046.0,4095.0,4095.0,4095.0,4095.0,-0.18,9.87,2.01,-0.05,-0.02,-0.06,1.0,b
3197.0,3601.0,4095.0,3048.0,4095.0,4095.0,4095.0,4095.0,-0.31,9.88,1.99,-0.03,-0.0,-0.05,1.0,b
790.0,4095.0,3488.0,2975.0,4095.0,4095.0,4095.0,4095.0,0.01,9.79,2.21,0.04,0.0,-0.03,1.0,b
2846.0,4095.0,3485.0,3015.0,4095.0,4095.0,4095.0,4095.0,-0.22,9.9,2.03,-0.08,-0.0,-0.04,1.0,b
2853.0,4095.0,3486.0,3015.0,4095.0,4095.0,4095.0,4095.0,-0.16,9.84,2.28,-0.05,-0.03,-0.05,1.0,b
2865.0,4095.0,3494.0,3025.0,4095.0,4095.0,4095.0,4095.0,-0.23,9.82,2.23,-0.09,-0.01,-0.02,1.0,b
2903.0,4095.0,3504.0,3029.0,4095.0,4095.0,4095.0,4095.0,-0.04,9.88,2.27,-0.04,0.01,-0.04,1.0,b
2927.0,4095.0,3511.0,3025.0,4095.0,4095.0,4095.0,4095.0,-0.28,9.78,2.14,0.01,-0.0,-0.05,1.0,b
2956.0,4095.0,3515.0,3027.0,4095.0,4095.0,4095.0,4095.0,-0.07,9.99,1.95,-0.07,0.02,-0.01,1.0,b
3003.0,4095.0,3502.0,3034.0,4095.0,4095.0,4095.0,4095.0,-0.07,9.79,2.26,-0.03,0.02,-0.07,1.0,b
3067.0,4095.0,3498.0,3022.0,4095.0,4095.0,4095.0,4095.0,-0.34,9.89,2.03,-0.08,0.02,-0.07,1.0,b
3143.0,4095.0,3499.0,3022.0,4095.0,4095.0,4095.0,4095.0,-0.22,9.86,2.19,-0.1,0.05,-0.09,1.0,b
3204.0,4095.0,3506.0,3014.0,4095.0,4095.0,4095.0,4095.0,-0.3,9.89,2.36,-0.06,-0.06,-0.1,1.0,b
3231.0,4095.0,3495.0,3024.0,4095.0,4095.0,4095.0,4095.0,-0.27,9.84,2.19,-0.05,-0.06,-0.08,1.0,b
3306.0,4095.0,3500.0,3031.0,4095.0,4095.0,4095.0,4095.0,-0.5,9.9,2.01,-0.06,-0.02,-0.07,1.0,b
3339.0,4095.0,3483.0,3031.0,4095.0,4095.0,4095.0,4095.0,-0.38,9.77,2.07,-0.09,-0.03,-0.02,1.0,b
3334.0,4095.0,3488.0,3035.0,4095.0,4095.0,4095.0,4095.0,-0.15,9.9,2.14,-0.06,0.02,-0.02,1.0,b
3391.0,4095.0,3497.0,3040.0,4095.0,4095.0,4095.0,4095.0,-0.18,9.82,2.14,-0.09,0.01,-0.03,1.0,b
3408.0,4095.0,3502.0,3040.0,4095.0,4095.0,4095.0,4095.0,-0.25,9.87,2.41,-0.07,0.01,-0.04,1.0,b
3407.0,4095.0,3519.0,3030.0,4095.0,4095.0,4095.0,4095.0,-0.14,9.7,2.45,-0.01,0.05,-0.01,1.0,b
3429.0,4095.0,3511.0,3045.0,4095.0,4095.0,4095.0,4095.0,-0.07,10.01,2.05,0.01,-0.03,-0.02,1.0,b
3434.0,4095.0,3507.0,3033.0,4095.0,4095.0,4095.0,4095.0,-0.11,9.87,2.1,0.01,0.01,-0.08,1.0,b
4095.0,4095.0,4095.0,2942.0,4095.0,4095.0,4095.0,4095.0,-0.4,9.97,2.08,-0.06,0.0,-0.02,1.0,b
4095.0,4095.0,4095.0,2942.0,4095.0,4095.0,4095.0,4095.0,-0.34,9.75,2.29,-0.02,-0.01,-0.02,1.0,b
4095.0,4095.0,4095.0,2950.0,4095.0,4095.0,4095.0,4095.0,-0.34,9.9,1.99,-0.09,0.0,-0.01,1.0,b
4095.0,4095.0,4095.0,2943.0,4095.0,4095.0,4095.0,4095.0,-0.26,9.83,2.11,-0.06,-0.01,-0.03,1.0,b
4095.0,4095.0,4095.0,2959.0,4095.0,4095.0,4095.0,4095.0,-0.41,9.89,2.18,-0.08,0.01,-0.03,1.0,b
4095.0,4095.0,4095.0,2947.0,4095.0,4095.0,4095.0,4095.0,-0.36,9.9,1.99,-0.05,0.02,-0.03,1.0,b
4095.0,4095.0,4095.0,2950.0,4095.0,4095.0,4095.0,4095.0,-0.35,9.85,2.23,-0.02,-0.02,-0.03,1.0,b
4095.0,4095.0,4095.0,2943.0,4095.0,4095.0,4095.0,4095.0,-0.34,9.88,2.1,-0.08,0.03,-0.01,1.0,b
4095.0,4095.0,4095.0,2950.0,4095.0,4095.0,4095.0,4095.0,-0.28,9.88,2.18,-0.06,-0.03,-0.03,1.0,b
4095.0,4095.0,4095.0,2954.0,4095.0,4095.0,4095.0,4095.0,-0.34,9.85,2.18,-0.08,0.02,-0.02,1.0,b
4095.0,4095.0,4095.0,2954.0,4095.0,4095.0,4095.0,4095.0,-0.18,9.94,2.14,-0.04,-0.02,-0.05,1.0,b
4095.0,4095.0,4095.0,2958.0,4095.0,4095.0,4095.0,4095.0,-0.34,9.79,2.26,-0.05,0.01,-0.04,1.0,b
4095.0,4095.0,4095.0,2959.0,4095.0,4095.0,4095.0,4095.0,-0.28,9.85,2.22,-0.06,-0.01,-0.05,1.0,b
4095.0,4095.0,4095.0,2948.0,4095.0,4095.0,4095.0,4095.0,-0.32,9.81,2.17,-0.03,0.01,-0.05,1.0,b
4095.0,4095.0,4095.0,2959.0,4095.0,4095.0,4095.0,4095.0,-0.32,9.86,2.12,-0.05,-0.01,-0.04,1.0,b
4095.0,4095.0,4095.0,2951.0,4095.0,4095.0,4095.0,4095.0,-0.28,9.87,2.0,-0.05,-0.0,-0.05,1.0,b
4095.0,4095.0,4095.0,2963.0,4095.0,4095.0,4095.0,4095.0,-0.37,9.87,2.02,-0.06,-0.02,-0.05,1.0,b
4095.0,4095.0,4095.0,2960.0,4095.0,4095.0,4095.0,4095.0,-0.39,9.86,2.02,-0.06,0.01,-0.04,1.0,b
4095.0,4095.0,4095.0,2954.0,4095.0,4095.0,4095.0,4095.0,-0.47,9.82,2.09,-0.09,-0.0,-0.02,1.0,b
4095.0,4095.0,4095.0,2957.0,4095.0,4095.0,4095.0,4095.0,-0.34,9.81,2.16,-0.06,-0.01,-0.02,1.0,b
3310.0,4095.0,2943.0,3003.0,4095.0,4095.0,4095.0,4095.0,-0.36,9.84,2.13,-0.07,0.03,-0.0,1.0,b
3357.0,4095.0,2933.0,2998.0,4095.0,4095.0,4095.0,4095.0,-0.21,9.96,2.01,-0.05,0.04,-0.04,1.0,b
3387.0,4095.0,2942.0,3002.0,4095.0,4095.0,4095.0,4095.0,-0.28,9.76,2.24,-0.08,-0.0,-0.01,1.0,b
3435.0,4095.0,2935.0,3009.0,4095.0,4095.0,4095.0,4095.0,-0.13,9.93,2.23,-0.05,0.04,-0.02,1.0,b
3463.0,4095.0,2939.0,3008.0,4095.0,4095.0,4095.0,4095.0,-0.12,9.82,2.14,-0.03,-0.02,-0.05,1.0,b
3469.0,4095.0,2925.0,3021.0,4095.0,4095.0,4095.0,4095.0,-0.35,9.9,2.09,-0.06,0.01,-0.02,1.0,b
3522.0,4095.0,2919.0,3008.0,4095.0,4095.0,4095.0,4095.0,-0.07,9.91,2.07,-0.05,-0.04,-0.04,1.0,b
3556.0,4095.0,2919.0,3010.0,4095.0,4095.0,4095.0,4095.0,-0.35,9.74,2.24,-0.07,-0.01,-0.05,1.0,b
3564.0,4095.0,2928.0,3011.0,4095.0,4095.0,4095.0,4095.0,-0.27,9.79,2.21,-0.04,-0.0,-0.03,1.0,b
3581.0,4095.0,2929.0,3009.0,4095.0,4095.0,4095.0,4095.0,-0.13,9.96,1.97,-0.08,-0.04,-0.02,1.0,b
3600.0,4095.0,2928.0,3021.0,4095.0,4095.0,4095.0,4095.0,-0.17,9.84,2.05,-0.05,-0.01,-0.05,1.0,b
3598.0,4095.0,2918.0,3013.0,4095.0,4095.0,4095.0,4095.0,-0.31,9.88,2.18,-0.07,0.02,-0.05,1.0,b
3611.0,4095.0,2913.0,3017.0,4095.0,4095.0,4095.0,4095.0,-0.29,9.82,2.24,-0.06,-0.0,-0.03,1.0,b
3597.0,4095.0,2911.0,3014.0,4095.0,4095.0,4095.0,4095.0,-0.28,9.94,2.07,-0.04,0.03,-0.04,1.0,b
3618.0,4095.0,2906.0,3011.0,4095.0,4095.0,4095.0,4095.0,-0.24,9.76,2.17,-0.06,-0.03,-0.03,1.0,b
3629.0,4095.0,2906.0,3008.0,4095.0,4095.0,4095.0,4095.0,-0.22,9.86,2.28,-0.02,0.03,-0.04,1.0,b
3611.0,4095.0,2901.0,3016.0,4095.0,4095.0,4095.0,4095.0,-0.13,9.8,2.16,-0.01,-0.0,-0.02,1.0,b
3635.0,4095.0,2897.0,3013.0,4095.0,4095.0,4095.0,4095.0,-0.05,10.03,1.73,0.03,-0.02,-0.06,1.0,b
3606.0,4095.0,2896.0,3002.0,4095.0,4095.0,4095.0,4095.0,-0.46,9.81,1.95,-0.1,-0.02,-0.07,1.0,b
3579.0,4095.0,2911.0,3007.0,4095.0,4095.0,4095.0,4095.0,-0.62,9.76,2.21,-0.08,-0.02,-0.0,1.0,b
2639.0,4095.0,890.0,2958.0,4095.0,4095.0,4095.0,4095.0,-0.31,9.68,2.51,-0.06,0.03,0.01,1.0,b
2637.0,4095.0,890.0,2961.0,4095.0,4095.0,4095.0,4095.0,-0.28,9.75,2.65,-0.03,0.0,-0.02,1.0,b
2630.0,4095.0,896.0,2963.0,4095.0,4095.0,4095.0,4095.0,-0.08,9.63,2.66,-0.1,0.01,-0.0,1.0,b
2627.0,4095.0,895.0,2966.0,4095.0,4095.0,4095.0,4095.0,-0.11,9.75,2.69,-0.04,-0.01,-0.03,1.0,b
2631.0,4095.0,889.0,2971.0,4095.0,4095.0,4095.0,4095.0,-0.26,9.75,2.56,-0.08,0.01,-0.04,1.0,b
2645.0,4095.0,896.0,2974.0,4095.0,4095.0,4095.0,4095.0,-0.34,9.75,2.57,-0.08,-0.01,-0.02,1.0,b
2677.0,4095.0,896.0,2966.0,4095.0,4095.0,4095.0,4095.0,-0.28,9.75,2.65,-0.03,-0.03,-0.01,1.0,b
2669.0,4095.0,908.0,2971.0,4095.0,4095.0,4095.0,4095.0,-0.23,9.87,2.47,-0.02,0.06,0.0,1.0,b
2671.0,4095.0,901.0,2969.0,4095.0,4095.0,4095.0,4095.0,-0.22,9.67,2.53,-0.09,-0.04,-0.01,1.0,b
2687.0,4095.0,895.0,2974.0,4095.0,4095.0,4095.0,4095.0,-0.24,9.81,2.69,-0.12,0.04,0.01,1.0,b
2683.0,4095.0,898.0,2981.0,4095.0,4095.0,4095.0,4095.0,-0.2,9.68,2.69,-0.03,0.01,-0.01,1.0,b
2691.0,4095.0,912.0,2973.0,4095.0,4095.0,4095.0,4095.0,-0.17,9.79,2.63,-0.04,0.03,-0.01,1.0,b
2675.0,4095.0,897.0,2977.0,4095.0,4095.0,4095.0,4095.0,-0.04,9.79,2.51,-0.05,-0.01,-0.03,1.0,b
2700.0,4095.0,898.0,2987.0,4095.0,4095.0,4095.0,4095.0,-0.12,9.84,2.51,-0.05,0.0,-0.05,1.0,b
2682.0,4095.0,895.0,2975.0,4095.0,4095.0,4095.0,4095.0,-0.21,9.72,2.62,-0.07,0.01,-0.04,1.0,b
2686.0,4095.0,895.0,2992.0,4095.0,4095.0,4095.0,4095.0,-0.16,9.84,2.6,-0.03,0.0,-0.03,1.0,b
2670.0,4095.0,895.0,2989.0,4095.0,4095.0,4095.0,4095.0,-0.1,9.74,2.54,-0.07,-0.01,-0.05,1.0,b
2630.0,4095.0,890.0,2987.0,4095.0,4095.0,4095.0,4095.0,-0.14,9.75,2.77,-0.06,-0.02,-0.05,1.0,b
2559.0,4095.0,897.0,2986.0,4095.0,4095.0,4095.0,4095.0,-0.19,9.75,2.65,-0.05,0.03,-0.04,1.0,b
2559.0,4095.0,895.0,2991.0,4095.0,4095.0,4095.0,4095.0,-0.21,9.76,2.52,-0.06,0.02,-0.03,1.0,b
1281.0,3573.0,897.0,2896.0,4095.0,4095.0,4095.0,4095.0,0.08,9.8,2.74,-0.07,0.01,-0.02,1.0,b
1290.0,3600.0,896.0,2896.0,4095.0,4095.0,4095.0,4095.0,0.06,9.75,2.81,-0.03,-0.03,-0.04,1.0,b
1294.0,3582.0,902.0,2905.0,4095.0,4095.0,4095.0,4095.0,0.11,9.73,2.79,-0.07,0.03,-0.03,1.0,b
1296.0,3575.0,897.0,2905.0,4095.0,4095.0,4095.0,4095.0,-0.02,9.73,2.66,-0.04,-0.02,-0.05,1.0,b
1307.0,3606.0,902.0,2907.0,4095.0,4095.0,4095.0,4095.0,-0.06,9.76,2.75,-0.09,0.03,-0.02,1.0,b
1307.0,3613.0,909.0,2910.0,4095.0,4095.0,4095.0,4095.0,0.13,9.69,2.85,-0.06,-0.01,-0.04,1.0,b
1302.0,3583.0,897.0,2910.0,4095.0,4095.0,4095.0,4095.0,0.04,9.74,2.75,-0.12,0.03,-0.03,1.0,b
1300.0,3629.0,896.0,2910.0,4095.0,4095.0,4095.0,4095.0,-0.0,9.69,2.75,-0.02,-0.01,-0.04,1.0,b
1302.0,3616.0,903.0,2921.0,4095.0,4095.0,4095.0,4095.0,-0.05,9.66,2.81,-0.1,-0.0,-0.01,1.0,b
1319.0,3603.0,912.0,2911.0,4095.0,4095.0,4095.0,4095.0,0.07,9.73,2.8,-0.06,-0.01,-0.02,1.0,b
1328.0,3614.0,905.0,2923.0,4095.0,4095.0,4095.0,4095.0,0.17,9.69,2.88,-0.07,0.03,-0.03,1.0,b
1327.0,3622.0,898.0,2919.0,4095.0,4095.0,4095.0,4095.0,0.0,9.73,2.78,-0.05,-0.0,-0.05,1.0,b
1330.0,3578.0,900.0,2917.0,4095.0,4095.0,4095.0,4095.0,0.02,9.73,2.77,-0.08,0.01,-0.04,1.0,b
1331.0,3600.0,901.0,2914.0,4095.0,4095.0,4095.0,4095.0,-0.03,9.78,2.68,-0.03,0.01,-0.06,1.0,b
1345.0,3625.0,911.0,2925.0,4095.0,4095.0,4095.0,4095.0,-0.05,9.72,2.62,-0.06,-0.02,-0.04,1.0,b
1346.0,3629.0,901.0,2918.0,4095.0,4095.0,4095.0,4095.0,0.01,9.75,2.78,-0.07,0.02,-0.03,1.0,b
1355.0,3600.0,912.0,2918.0,4095.0,4095.0,4095.0,4095.0,0.03,9.73,2.75,-0.07,-0.02,-0.04,1.0,b
1349.0,3613.0,901.0,2922.0,4095.0,4095.0,4095.0,4095.0,0.08,9.71,2.81,-0.04,-0.01,-0.04,1.0,b
1360.0,3598.0,897.0,2922.0,4095.0,4095.0,4095.0,4095.0,0.05,9.74,2.81,-0.06,-0.02,-0.05,1.0,b
1397.0,3601.0,908.0,2926.0,4095.0,4095.0,4095.0,4095.0,-0.04,9.65,2.85,-0.07,0.03,-0.06,1.0,b
1094.0,4095.0,4095.0,2849.0,4095.0,4095.0,4095.0,4095.0,-0.38,9.82,2.23,-0.1,0.04,-0.04,1.0,b
1104.0,4095.0,4095.0,2847.0,4095.0,4095.0,4095.0,4095.0,-0.48,9.92,2.23,-0.09,0.02,-0.07,1.0,b
1049.0,4095.0,4095.0,2843.0,4095.0,4095.0,4095.0,4095.0,-0.59,9.77,2.32,-0.1,0.03,-0.01,1.0,b
1051.0,4095.0,4095.0,2845.0,4095.0,4095.0,4095.0,4095.0,-0.51,9.84,2.25,-0.1,0.04,-0.04,1.0,b
1054.0,4095.0,4095.0,2850.0,4095.0,4095.0,4095.0,4095.0,-0.51,9.83,2.51,-0.14,0.05,-0.04,1.0,b
1055.0,4095.0,922.0,2848.0,4095.0,4095.0,4095.0,4095.0,-0.52,9.83,2.43,-0.03,0.1,-0.04,1.0,b
1042.0,4095.0,929.0,2850.0,4095.0,4095.0,4095.0,4095.0,-0.53,9.8,2.39,-0.01,0.05,-0.05,1.0,b
1034.0,4095.0,928.0,2850.0,4095.0,4095.0,4095.0,4095.0,-0.51,9.79,2.39,-0.07,-0.03,-0.05,1.0,b
1023.0,4095.0,925.0,2847.0,4095.0,4095.0,4095.0,4095.0,-0.36,9.89,2.29,0.03,-0.07,-0.07,1.0,b
1033.0,4095.0,927.0,2848.0,4095.0,4095.0,4095.0,4095.0,-0.45,9.74,2.44,-0.04,-0.19,-0.1,1.0,b
1023.0,4095.0,940.0,2847.0,4095.0,4095.0,4095.0,4095.0,-0.62,9.8,2.29,-0.02,-0.09,-0.12,1.0,b
1020.0,4095.0,927.0,2855.0,4095.0,4095.0,4095.0,4095.0,-0.73,9.74,2.38,-0.09,-0.12,-0.08,1.0,b
1023.0,4095.0,928.0,2832.0,4095.0,4095.0,4095.0,4095.0,-0.68,9.77,2.43,-0.09,0.02,-0.02,1.0,b
1013.0,4095.0,927.0,2862.0,4095.0,4095.0,4095.0,4095.0,-0.61,9.79,2.5,-0.08,-0.03,-0.04,1.0,b
1019.0,4095.0,925.0,2848.0,4095.0,4095.0,4095.0,4095.0,-0.64,9.77,2.45,-0.08,0.08,-0.05,1.0,b
1023.0,4095.0,916.0,2851.0,4095.0,4095.0,4095.0,4095.0,-0.76,9.81,2.32,-0.06,0.03,-0.05,1.0,b
1023.0,4095.0,925.0,2847.0,4095.0,4095.0,4095.0,4095.0,-0.73,9.77,2.43,-0.09,0.04,-0.06,1.0,b
1079.0,4095.0,916.0,2855.0,4095.0,4095.0,4095.0,4095.0,-0.71,9.63,2.73,-0.04,0.02,-0.1,1.0,b
1109.0,4095.0,928.0,2837.0,4095.0,4095.0,4095.0,4095.0,-0.88,9.77,2.26,-0.08,0.05,-0.03,1.0,b
1088.0,4095.0,934.0,2855.0,4095.0,4095.0,4095.0,4095.0,-0.85,9.69,2.54,-0.09,0.05,-0.03,1.0,b
1104.0,4095.0,926.0,2850.0,4095.0,4095.0,4095.0,4095.0,-0.72,9.77,2.52,-0.05,0.0,-0.03,1.0,b
1088.0,4095.0,929.0,2845.0,4095.0,4095.0,4095.0,4095.0,-0.83,9.75,2.44,-0.07,0.01,-0.03,1.0,b
1072.0,4095.0,932.0,2847.0,4095.0,4095.0,4095.0,4095.0,-0.78,9.73,2.45,-0.07,-0.01,-0.02,1.0,b
1073.0,4095.0,933.0,2847.0,4095.0,4095.0,4095.0,4095.0,-0.73,9.73,2.57,-0.05,-0.03,-0.04,1.0,b
1057.0,4095.0,939.0,2848.0,4095.0,4095.0,4095.0,4095.0,-0.79,9.7,2.51,-0.06,-0.04,-0.04,1.0,b
1059.0,4095.0,933.0,2846.0,4095.0,4095.0,4095.0,4095.0,-0.7,9.76,2.52,-0.06,0.01,-0.04,1.0,b
1066.0,4095.0,932.0,2847.0,4095.0,4095.0,4095.0,4095.0,-0.8,9.77,2.41,-0.05,-0.04,-0.04,1.0,b
1054.0,4095.0,929.0,2841.0,4095.0,4095.0,4095.0,4095.0,-0.8,9.74,2.46,-0.06,-0.03,-0.06,1.0,b
1057.0,4095.0,939.0,2848.0,4095.0,4095.0,4095.0,4095.0,-0.9,9.75,2.46,-0.06,-0.01,-0.04,1.0,b
1058.0,4095.0,934.0,2858.0,4095.0,4095.0,4095.0,4095.0,-0.8,9.76,2.5,-0.03,-0.02,-0.04,1.0,b
1045.0,4095.0,935.0,2853.0,4095.0,4095.0,4095.0,4095.0,-0.86,9.76,2.42,-0.03,-0.08,-0.04,1.0,b
1049.0,4095.0,933.0,2847.0,4095.0,4095.0,4095.0,4095.0,-0.73,9.8,2.43,-0.06,-0.08,-0.06,1.0,b
1046.0,4095.0,930.0,2859.0,4095.0,4095.0,4095.0,4095.0,-0.8,9.75,2.56,-0.07,-0.03,-0.06,1.0,b
1055.0,4095.0,931.0,2858.0,4095.0,4095.0,4095.0,4095.0,-0.86,9.69,2.55,-0.05,-0.03,-0.04,1.0,b
1043.0,4095.0,935.0,2855.0,4095.0,4095.0,4095.0,4095.0,-0.76,9.78,2.44,-0.07,-0.01,-0.03,1.0,b
1042.0,4095.0,933.0,2864.0,4095.0,4095.0,4095.0,4095.0,-0.74,9.74,2.54,-0.07,-0.04,-0.04,1.0,b
1054.0,4095.0,935.0,2853.0,4095.0,4095.0,4095.0,4095.0,-0.85,9.7,2.55,-0.05,-0.01,-0.05,1.0,b
1042.0,4095.0,933.0,2863.0,4095.0,4095.0,4095.0,4095.0,-0.88,9.71,2.47,-0.09,0.03,-0.03,1.0,b
1040.0,4095.0,937.0,2854.0,4095.0,4095.0,4095.0,4095.0,-0.91,9.72,2.51,-0.08,0.02,-0.01,1.0,b
1050.0,4095.0,933.0,2851.0,4095.0,4095.0,4095.0,4095.0,-0.79,9.72,2.6,-0.1,0.03,-0.02,1.0,b
895.0,4095.0,4095.0,2821.0,4095.0,4095.0,4095.0,4095.0,-1.05,9.8,1.85,-0.07,0.02,-0.03,1.0,b
895.0,4095.0,4095.0,2819.0,4095.0,4095.0,4095.0,4095.0,-1.12,9.76,2.04,-0.07,-0.0,-0.04,1.0,b
902.0,4095.0,4095.0,2821.0,4095.0,4095.0,4095.0,4095.0,-1.2,9.71,2.04,-0.07,-0.02,-0.05,1.0,b
898.0,4095.0,4095.0,2831.0,4095.0,4095.0,4095.0,4095.0,-1.07,9.73,2.14,-0.05,-0.04,-0.03,1.0,b
897.0,4095.0,4095.0,2829.0,4095.0,4095.0,4095.0,4095.0,-1.11,9.84,1.88,-0.02,-0.04,-0.04,1.0,b
898.0,4095.0,4095.0,2833.0,4095.0,4095.0,4095.0,4095.0,-1.06,9.83,1.84,-0.02,-0.02,-0.05,1.0,b
908.0,4095.0,4095.0,2829.0,4095.0,4095.0,4095.0,4095.0,-1.22,9.81,1.86,-0.08,-0.03,-0.05,1.0,b
897.0,4095.0,4095.0,2832.0,4095.0,4095.0,4095.0,4095.0,-1.11,9.71,2.15,-0.05,-0.01,-0.03,1.0,b
898.0,4095.0,4095.0,2826.0,4095.0,4095.0,4095.0,4095.0,-1.16,9.8,1.9,-0.06,0.03,-0.01,1.0,b
907.0,4095.0,4095.0,2830.0,4095.0,4095.0,4095.0,4095.0,-1.09,9.78,2.04,-0.04,-0.0,-0.04,1.0,b
927.0,4095.0,4095.0,2846.0,4095.0,4095.0,4095.0,4095.0,-1.15,9.74,2.03,-0.06,0.02,-0.03,1.0,b
928.0,4095.0,4095.0,2835.0,4095.0,4095.0,4095.0,4095.0,-1.2,9.8,1.77,-0.03,-0.09,-0.03,1.0,b
922.0,4095.0,4095.0,2832.0,4095.0,4095.0,4095.0,4095.0,-1.18,9.83,1.91,-0.03,-0.09,-0.04,1.0,b
921.0,4095.0,4095.0,2839.0,4095.0,4095.0,4095.0,4095.0,-1.12,9.85,1.78,-0.07,-0.04,-0.01,1.0,b
928.0,4095.0,4095.0,2832.0,4095.0,4095.0,4095.0,4095.0,-1.04,9.79,1.98,-0.09,-0.03,-0.03,1.0,b
924.0,4095.0,4095.0,2839.0,4095.0,4095.0,4095.0,4095.0,-1.0,9.78,2.06,-0.06,-0.0,-0.02,1.0,b
932.0,4095.0,4095.0,2858.0,4095.0,4095.0,4095.0,4095.0,-0.98,9.89,1.87,-0.08,0.03,-0.02,1.0,b
946.0,4095.0,4095.0,2836.0,4095.0,4095.0,4095.0,4095.0,-1.15,9.84,1.91,-0.08,0.02,-0.04,1.0,b
1197.0,4095.0,4095.0,2832.0,4095.0,4095.0,4095.0,4095.0,-1.1,9.82,2.03,-0.07,-0.07,-0.04,1.0,b
1186.0,4095.0,4095.0,2838.0,4095.0,4095.0,4095.0,4095.0,-1.02,9.84,2.01,-0.04,-0.05,-0.05,1.0,b
1186.0,4095.0,4095.0,2839.0,4095.0,4095.0,4095.0,4095.0,-0.99,9.84,2.02,-0.06,0.0,-0.02,1.0,b
1171.0,4095.0,4095.0,2846.0,4095.0,4095.0,4095.0,4095.0,-1.01,9.77,2.08,-0.04,-0.01,-0.05,1.0,b
1157.0,4095.0,4095.0,2850.0,4095.0,4095.0,4095.0,4095.0,-1.0,9.74,2.11,-0.06,0.0,-0.04,1.0,b
1154.0,4095.0,4095.0,2851.0,4095.0,4095.0,4095.0,4095.0,-1.04,9.78,2.01,-0.05,-0.01,-0.04,1.0,b
1136.0,4095.0,4095.0,2846.0,4095.0,4095.0,4095.0,4095.0,-1.13,9.74,2.08,-0.12,-0.0,0.0,1.0,b
1117.0,4095.0,4095.0,2849.0,4095.0,4095.0,4095.0,4095.0,-1.04,9.79,2.12,-0.04,0.04,-0.02,1.0,b
1122.0,4095.0,4095.0,2846.0,4095.0,4095.0,4095.0,4095.0,-1.0,9.84,2.01,-0.06,-0.0,-0.04,1.0,b
1104.0,4095.0,4095.0,2849.0,4095.0,4095.0,4095.0,4095.0,-1.04,9.8,2.08,-0.07,0.0,-0.03,1.0,b
1111.0,4095.0,4095.0,2853.0,4095.0,4095.0,4095.0,4095.0,-0.98,9.81,2.02,-0.06,-0.02,-0.04,1.0,b
1101.0,4095.0,4095.0,2852.0,4095.0,4095.0,4095.0,4095.0,-0.96,9.74,2.1,-0.07,-0.02,-0.04,1.0,b
1082.0,4095.0,4095.0,2845.0,4095.0,4095.0,4095.0,4095.0,-1.0,9.78,2.16,-0.05,0.01,-0.03,1.0,b
1069.0,4095.0,4095.0,2859.0,4095.0,4095.0,4095.0,4095.0,-0.96,9.81,2.03,-0.06,-0.03,-0.03,1.0,b
1071.0,4095.0,4095.0,2863.0,4095.0,4095.0,4095.0,4095.0,-1.11,9.74,2.1,-0.07,-0.01,-0.04,1.0,b
1078.0,4095.0,4095.0,2859.0,4095.0,4095.0,4095.0,4095.0,-1.02,9.78,2.18,-0.05,-0.02,-0.02,1.0,b
1062.0,4095.0,4095.0,2864.0,4095.0,4095.0,4095.0,4095.0,-0.96,9.84,2.08,-0.04,0.01,-0.04,1.0,b
1058.0,4095.0,4095.0,2864.0,4095.0,4095.0,4095.0,4095.0,-0.97,9.81,2.08,-0.04,-0.04,-0.04,1.0,b
1049.0,4095.0,4095.0,2866.0,4095.0,4095.0,4095.0,4095.0,-1.01,9.79,2.05,-0.03,-0.05,-0.04,1.0,b
1062.0,4095.0,4095.0,2862.0,4095.0,4095.0,4095.0,4095.0,-0.9,9.82,2.09,-0.06,-0.03,-0.04,1.0,b
1056.0,4095.0,4095.0,2863.0,4095.0,4095.0,4095.0,4095.0,-1.01,9.8,2.1,-0.06,-0.01,-0.03,1.0,b
1056.0,4095.0,4095.0,2861.0,4095.0,4095.0,4095.0,4095.0,-1.02,9.79,2.08,-0.07,0.02,-0.03,1.0,b
956.0,4095.0,4095.0,2910.0,4095.0,4095.0,4095.0,4095.0,-1.06,9.85,2.14,-0.06,0.05,-0.03,1.0,b
959.0,4095.0,4095.0,2922.0,4095.0,4095.0,4095.0,4095.0,-1.01,9.84,2.13,-0.04,-0.02,-0.04,1.0,b
958.0,4095.0,4095.0,2914.0,4095.0,4095.0,4095.0,4095.0,-1.04,9.72,2.22,-0.09,0.03,-0.01,1.0,b
946.0,4095.0,4095.0,2918.0,4095.0,4095.0,4095.0,4095.0,-0.96,9.73,2.31,-0.08,-0.01,-0.03,1.0,b
953.0,4095.0,4095.0,2923.0,4095.0,4095.0,4095.0,4095.0,-1.05,9.8,2.1,-0.06,0.0,-0.02,1.0,b
954.0,4095.0,4095.0,2924.0,4095.0,4095.0,4095.0,4095.0,-1.04,9.77,2.21,-0.08,-0.02,-0.02,1.0,b
954.0,4095.0,4095.0,2923.0,4095.0,4095.0,4095.0,4095.0,-0.87,9.76,2.33,-0.04,-0.05,-0.04,1.0,b
958.0,4095.0,4095.0,2930.0,4095.0,4095.0,4095.0,4095.0,-1.08,9.83,2.15,-0.06,0.0,-0.03,1.0,b
953.0,4095.0,4095.0,2929.0,4095.0,4095.0,4095.0,4095.0,-0.97,9.79,2.27,-0.06,0.0,-0.03,1.0,b
947.0,4095.0,4095.0,2928.0,4095.0,4095.0,4095.0,4095.0,-1.0,9.8,2.19,-0.06,-0.04,-0.03,1.0,b
945.0,4095.0,4095.0,2933.0,4095.0,4095.0,4095.0,4095.0,-0.96,9.76,2.23,-0.04,-0.03,-0.03,1.0,b
947.0,4095.0,4095.0,2937.0,4095.0,4095.0,4095.0,4095.0,-0.96,9.82,2.17,-0.04,0.01,-0.05,1.0,b
959.0,4095.0,4095.0,2935.0,4095.0,4095.0,4095.0,4095.0,-1.0,9.8,2.19,-0.05,0.0,-0.04,1.0,b
945.0,4095.0,4095.0,2934.0,4095.0,4095.0,4095.0,4095.0,-0.96,9.78,2.25,-0.06,0.02,-0.03,1.0,b
955.0,4095.0,4095.0,2931.0,4095.0,4095.0,4095.0,4095.0,-0.99,9.77,2.23,-0.06,0.02,-0.03,1.0,b
954.0,4095.0,4095.0,2943.0,4095.0,4095.0,4095.0,4095.0,-0.96,9.76,2.22,-0.05,-0.01,-0.05,1.0,b
945.0,4095.0,4095.0,2928.0,4095.0,4095.0,4095.0,4095.0,-1.02,9.77,2.2,-0.07,0.01,-0.03,1.0,b
959.0,4095.0,4095.0,2938.0,4095.0,4095.0,4095.0,4095.0,-0.99,9.8,2.18,-0.09,0.04,-0.03,1.0,b
977.0,4095.0,4095.0,2932.0,4095.0,4095.0,4095.0,4095.0,-1.05,9.79,2.23,-0.05,-0.01,-0.04,1.0,b
954.0,4095.0,4095.0,2946.0,4095.0,4095.0,4095.0,4095.0,-1.01,9.8,2.21,-0.05,-0.02,-0.04,1.0,b
951.0,4095.0,4095.0,2939.0,4095.0,4095.0,4095.0,4095.0,-1.1,9.78,2.2,-0.06,-0.03,-0.04,1.0,b
946.0,4095.0,4095.0,2947.0,4095.0,4095.0,4095.0,4095.0,-1.01,9.78,2.25,-0.06,-0.0,-0.03,1.0,b
961.0,4095.0,4095.0,2945.0,4095.0,4095.0,4095.0,4095.0,-0.99,9.78,2.22,-0.05,-0.03,-0.03,1.0,b
951.0,4095.0,4095.0,2943.0,4095.0,4095.0,4095.0,4095.0,-1.04,9.83,2.14,-0.05,-0.03,-0.04,1.0,b
954.0,4095.0,4095.0,2940.0,4095.0,4095.0,4095.0,4095.0,-1.04,9.82,2.21,-0.06,0.05,-0.02,1.0,b
965.0,4095.0,4095.0,2945.0,4095.0,4095.0,4095.0,4095.0,-0.94,9.79,2.22,-0.06,0.02,-0.03,1.0,b
955.0,4095.0,4095.0,2943.0,4095.0,4095.0,4095.0,4095.0,-0.99,9.76,2.27,-0.06,0.01,-0.04,1.0,b
954.0,4095.0,4095.0,2943.0,4095.0,4095.0,4095.0,4095.0,-0.9,9.82,2.25,-0.04,-0.01,-0.03,1.0,b
963.0,4095.0,4095.0,2943.0,4095.0,4095.0,4095.0,4095.0,-1.01,9.77,2.23,-0.07,-0.0,-0.03,1.0,b
949.0,4095.0,4095.0,2941.0,4095.0,4095.0,4095.0,4095.0,-0.93,9.77,2.25,-0.07,0.06,-0.03,1.0,b
951.0,4095.0,4095.0,2943.0,4095.0,4095.0,4095.0,4095.0,-0.95,9.78,2.21,-0.05,0.05,-0.03,1.0,b
954.0,4095.0,4095.0,2943.0,4095.0,4095.0,4095.0,4095.0,-0.98,9.76,2.24,-0.05,-0.0,-0.03,1.0,b
949.0,4095.0,4095.0,2942.0,4095.0,4095.0,4095.0,4095.0,-1.0,9.78,2.21,-0.08,0.01,-0.02,1.0,b
951.0,4095.0,4095.0,2940.0,4095.0,4095.0,4095.0,4095.0,-0.94,9.79,2.18,-0.05,0.03,-0.03,1.0,b
946.0,4095.0,4095.0,2943.0,4095.0,4095.0,4095.0,4095.0,-0.97,9.77,2.24,-0.07,0.01,-0.02,1.0,b
951.0,4095.0,4095.0,2943.0,4095.0,4095.0,4095.0,4095.0,-0.91,9.8,2.26,-0.05,-0.0,-0.03,1.0,b
969.0,4095.0,4095.0,2935.0,4095.0,4095.0,4095.0,4095.0,-0.97,9.79,2.17,-0.06,-0.01,-0.04,1.0,b
953.0,4095.0,4095.0,2935.0,4095.0,4095.0,4095.0,4095.0,-1.02,9.76,2.21,-0.05,-0.03,-0.03,1.0,b
955.0,4095.0,4095.0,2935.0,4095.0,4095.0,4095.0,4095.0,-0.96,9.75,2.21,-0.08,0.03,-0.02,1.0,b
960.0,4095.0,4095.0,2946.0,4095.0,4095.0,4095.0,4095.0,-0.96,9.77,2.25,-0.06,0.04,-0.03,1.0,b
946.0,4095.0,4095.0,2936.0,4095.0,4095.0,4095.0,4095.0,-1.01,9.82,2.18,-0.07,0.04,-0.03,1.0,b
958.0,4095.0,4095.0,2944.0,4095.0,4095.0,4095.0,4095.0,-0.93,9.79,2.21,-0.06,0.02,-0.03,1.0,b
953.0,4095.0,4095.0,2949.0,4095.0,4095.0,4095.0,4095.0,-0.94,9.81,2.21,-0.05,-0.01,-0.04,1.0,b
954.0,4095.0,4095.0,2943.0,4095.0,4095.0,4095.0,4095.0,-0.93,9.76,2.21,-0.07,0.0,-0.03,1.0,b
959.0,4095.0,4095.0,2938.0,4095.0,4095.0,4095.0,4095.0,-0.91,9.81,2.23,-0.06,0.04,-0.03,1.0,b
960.0,4095.0,4095.0,2945.0,4095.0,4095.0,4095.0,4095.0,-0.96,9.79,2.24,-0.04,0.0,-0.04,1.0,b
960.0,4095.0,4095.0,2949.0,4095.0,4095.0,4095.0,4095.0,-0.98,9.78,2.2,-0.05,0.02,-0.03,1.0,b
958.0,4095.0,4095.0,2941.0,4095.0,4095.0,4095.0,4095.0,-0.94,9.78,2.2,-0.06,-0.03,-0.04,1.0,b
950.0,4095.0,4095.0,2951.0,4095.0,4095.0,4095.0,4095.0,-0.95,9.8,2.2,-0.06,-0.01,-0.03,1.0,b
959.0,4095.0,4095.0,2945.0,4095.0,4095.0,4095.0,4095.0,-0.98,9.79,2.19,-0.06,0.03,-0.03,1.0,b
954.0,4095.0,4095.0,2949.0,4095.0,4095.0,4095.0,4095.0,-0.95,9.81,2.24,-0.05,0.03,-0.04,1.0,b
957.0,4095.0,4095.0,2954.0,4095.0,4095.0,4095.0,4095.0,-0.98,9.78,2.22,-0.06,0.01,-0.04,1.0,b
959.0,4095.0,4095.0,2951.0,4095.0,4095.0,4095.0,4095.0,-1.02,9.75,2.29,-0.04,-0.05,-0.04,1.0,b
961.0,4095.0,4095.0,2951.0,4095.0,4095.0,4095.0,4095.0,-0.99,9.8,2.15,-0.03,-0.04,-0.04,1.0,b
963.0,4095.0,4095.0,2955.0,4095.0,4095.0,4095.0,4095.0,-0.98,9.79,2.2,-0.03,-0.01,-0.04,1.0,b
956.0,4095.0,4095.0,2950.0,4095.0,4095.0,4095.0,4095.0,-0.95,9.8,2.23,-0.05,-0.01,-0.03,1.0,b
970.0,4095.0,4095.0,2950.0,4095.0,4095.0,4095.0,4095.0,-0.96,9.81,2.19,-0.04,-0.02,-0.05,1.0,b
959.0,4095.0,4095.0,2949.0,4095.0,4095.0,4095.0,4095.0,-0.97,9.74,2.19,-0.06,0.01,-0.04,1.0,b
963.0,4095.0,4095.0,2959.0,4095.0,4095.0,4095.0,4095.0,-0.96,9.74,2.25,-0.05,-0.0,-0.04,1.0,b
965.0,4095.0,4095.0,2957.0,4095.0,4095.0,4095.0,4095.0,-0.95,9.77,2.21,-0.08,0.02,-0.03,1.0,b
954.0,4095.0,4095.0,2959.0,4095.0,4095.0,4095.0,4095.0,-1.01,9.77,2.24,-0.08,0.04,-0.02,1.0,b
959.0,4095.0,4095.0,2958.0,4095.0,4095.0,4095.0,4095.0,-0.99,9.83,2.12,-0.06,0.01,-0.03,1.0,b
960.0,4095.0,4095.0,2950.0,4095.0,4095.0,4095.0,4095.0,-0.95,9.79,2.23,-0.05,-0.02,-0.04,1.0,b
954.0,4095.0,4095.0,2945.0,4095.0,4095.0,4095.0,4095.0,-0.92,9.82,2.16,-0.06,0.01,-0.03,1.0,b
960.0,4095.0,4095.0,2945.0,4095.0,4095.0,4095.0,4095.0,-0.95,9.79,2.24,-0.05,-0.01,-0.05,1.0,b
958.0,4095.0,4095.0,2954.0,4095.0,4095.0,4095.0,4095.0,-0.95,9.8,2.16,-0.06,-0.01,-0.03,1.0,b
965.0,4095.0,4095.0,2960.0,4095.0,4095.0,4095.0,4095.0,-0.95,9.78,2.18,-0.07,0.02,-0.02,1.0,b
959.0,4095.0,4095.0,2955.0,4095.0,4095.0,4095.0,4095.0,-0.96,9.76,2.21,-0.06,-0.0,-0.04,1.0,b
955.0,4095.0,4095.0,2945.0,4095.0,4095.0,4095.0,4095.0,-0.96,9.77,2.28,-0.07,-0.0,-0.03,1.0,b
958.0,4095.0,4095.0,2950.0,4095.0,4095.0,4095.0,4095.0,-0.96,9.77,2.19,-0.07,0.01,-0.03,1.0,b
960.0,4095.0,4095.0,2960.0,4095.0,4095.0,4095.0,4095.0,-0.98,9.78,2.2,-0.06,0.01,-0.04,1.0,b
960.0,4095.0,4095.0,2959.0,4095.0,4095.0,4095.0,4095.0,-0.95,9.8,2.25,-0.06,0.01,-0.03,1.0,b
968.0,4095.0,4095.0,2959.0,4095.0,4095.0,4095.0,4095.0,-0.93,9.79,2.16,-0.08,0.02,-0.03,1.0,b
967.0,4095.0,4095.0,2953.0,4095.0,4095.0,4095.0,4095.0,-1.0,9.78,2.24,-0.06,-0.0,-0.03,1.0,b
969.0,4095.0,4095.0,2950.0,4095.0,4095.0,4095.0,4095.0,-0.95,9.8,2.19,-0.06,0.0,-0.03,1.0,b
960.0,4095.0,4095.0,2950.0,4095.0,4095.0,4095.0,4095.0,-0.89,9.83,2.2,-0.06,0.04,-0.03,1.0,b
963.0,4095.0,4095.0,2954.0,4095.0,4095.0,4095.0,4095.0,-0.98,9.78,2.21,-0.07,-0.01,-0.04,1.0,b
959.0,4095.0,4095.0,2955.0,4095.0,4095.0,4095.0,4095.0,-0.95,9.76,2.28,-0.05,-0.03,-0.05,1.0,b
955.0,4095.0,4095.0,2957.0,4095.0,4095.0,4095.0,4095.0,-0.93,9.81,2.12,-0.06,-0.01,-0.04,1.0,b
955.0,4095.0,4095.0,2942.0,4095.0,4095.0,4095.0,4095.0,-0.98,9.75,2.26,-0.06,-0.03,-0.04,1.0,b
4095.0,4095.0,4095.0,2935.0,4095.0,4095.0,4095.0,4095.0,-0.76,9.78,2.23,-0.05,-0.01,-0.04,1.0,b
4095.0,4095.0,4095.0,2957.0,4095.0,4095.0,4095.0,4095.0,-0.81,9.83,2.15,-0.04,-0.02,-0.04,1.0,b
4095.0,4095.0,4095.0,2954.0,4095.0,4095.0,4095.0,4095.0,-0.83,9.86,2.16,-0.05,-0.01,-0.05,1.0,b
4095.0,4095.0,4095.0,2955.0,4095.0,4095.0,4095.0,4095.0,-0.79,9.82,2.19,-0.03,0.01,-0.05,1.0,b
4095.0,4095.0,4095.0,2960.0,4095.0,4095.0,4095.0,4095.0,-0.85,9.85,2.05,-0.05,-0.01,-0.05,1.0,b
4095.0,4095.0,4095.0,2960.0,4095.0,4095.0,4095.0,4095.0,-0.76,9.85,2.14,-0.06,-0.01,-0.03,1.0,b
4095.0,4095.0,4095.0,2970.0,4095.0,4095.0,4095.0,4095.0,-0.83,9.8,2.14,-0.06,0.01,-0.03,1.0,b
4095.0,4095.0,4095.0,2965.0,4095.0,4095.0,4095.0,4095.0,-0.81,9.83,2.18,-0.02,-0.04,-0.04,1.0,b
4095.0,4095.0,4095.0,2979.0,4095.0,4095.0,4095.0,4095.0,-0.9,9.78,2.06,-0.06,0.01,-0.02,1.0,b
4095.0,4095.0,4095.0,2981.0,4095.0,4095.0,4095.0,4095.0,-0.75,9.86,2.11,-0.07,-0.01,-0.02,1.0,b
4095.0,4095.0,4095.0,2987.0,4095.0,4095.0,4095.0,4095.0,-0.84,9.82,2.13,-0.03,-0.05,-0.04,1.0,b
4095.0,4095.0,4095.0,2978.0,4095.0,4095.0,4095.0,4095.0,-0.78,9.85,2.02,-0.05,-0.06,-0.04,1.0,b
4095.0,4095.0,4095.0,2994.0,4095.0,4095.0,4095.0,4095.0,-0.8,9.81,2.17,-0.07,-0.0,-0.03,1.0,b
4095.0,4095.0,4095.0,2985.0,4095.0,4095.0,4095.0,4095.0,-0.81,9.79,2.17,-0.04,-0.01,-0.04,1.0,b
4095.0,4095.0,4095.0,2983.0,4095.0,4095.0,4095.0,4095.0,-0.87,9.82,2.04,-0.08,-0.01,-0.03,1.0,b
4095.0,4095.0,4095.0,3002.0,4095.0,4095.0,4095.0,4095.0,-0.84,9.83,2.13,-0.09,0.04,-0.01,1.0,b
4095.0,4095.0,4095.0,3005.0,4095.0,4095.0,4095.0,4095.0,-0.77,9.82,2.14,-0.07,0.03,-0.01,1.0,b
4095.0,4095.0,4095.0,2995.0,4095.0,4095.0,4095.0,4095.0,-0.8,9.83,2.02,-0.09,-0.0,-0.03,1.0,b
4095.0,4095.0,4095.0,3004.0,4095.0,4095.0,4095.0,4095.0,-0.82,9.78,2.17,-0.07,0.03,-0.02,1.0,b
4095.0,4095.0,4095.0,3007.0,4095.0,4095.0,4095.0,4095.0,-0.8,9.87,2.08,-0.08,0.03,-0.02,1.0,b
4095.0,4095.0,4095.0,2997.0,4095.0,4095.0,4095.0,4095.0,-0.78,9.8,2.18,-0.07,0.01,-0.04,1.0,b
4095.0,4095.0,4095.0,3007.0,4095.0,4095.0,4095.0,4095.0,-0.74,9.84,2.09,-0.05,0.01,-0.03,1.0,b
4095.0,4095.0,4095.0,3003.0,4095.0,4095.0,4095.0,4095.0,-0.79,9.86,2.06,-0.06,-0.0,-0.03,1.0,b
4095.0,4095.0,4095.0,2994.0,4095.0,4095.0,4095.0,4095.0,-0.8,9.8,2.26,-0.05,0.01,-0.02,1.0,b
4095.0,4095.0,4095.0,3001.0,4095.0,4095.0,4095.0,4095.0,-0.71,9.83,2.07,-0.05,-0.02,-0.05,1.0,b
4095.0,4095.0,4095.0,3011.0,4095.0,4095.0,4095.0,4095.0,-0.92,9.82,2.04,-0.09,-0.01,-0.05,1.0,b
4095.0,4095.0,4095.0,3012.0,4095.0,4095.0,4095.0,4095.0,-0.82,9.84,2.09,-0.06,-0.01,-0.03,1.0,b
4095.0,4095.0,4095.0,3005.0,4095.0,4095.0,4095.0,4095.0,-0.78,9.81,2.14,-0.05,-0.02,-0.03,1.0,b
4095.0,4095.0,4095.0,3002.0,4095.0,4095.0,4095.0,4095.0,-0.74,9.83,2.04,-0.05,0.01,-0.04,1.0,b
4095.0,4095.0,4095.0,2992.0,4095.0,4095.0,4095.0,4095.0,-0.77,9.81,2.18,-0.05,-0.01,-0.04,1.0,b
4095.0,4095.0,4095.0,3007.0,4095.0,4095.0,4095.0,4095.0,-0.78,9.83,2.14,-0.05,-0.02,-0.04,1.0,b
4095.0,4095.0,4095.0,3003.0,4095.0,4095.0,4095.0,4095.0,-0.81,9.85,2.08,-0.04,0.03,-0.03,1.0,b
4095.0,4095.0,4095.0,3008.0,4095.0,4095.0,4095.0,4095.0,-0.84,9.87,2.01,-0.07,-0.02,-0.03,1.0,b
4095.0,4095.0,4095.0,3003.0,4095.0,4095.0,4095.0,4095.0,-0.69,9.87,2.12,-0.07,-0.01,-0.02,1.0,b
4095.0,4095.0,4095.0,3015.0,4095.0,4095.0,4095.0,4095.0,-0.75,9.86,2.17,-0.07,0.06,-0.03,1.0,b
4095.0,4095.0,4095.0,3019.0,4095.0,4095.0,4095.0,4095.0,-0.79,9.86,2.09,-0.03,-0.02,-0.06,1.0,b
4095.0,4095.0,4095.0,3010.0,4095.0,4095.0,4095.0,4095.0,-0.76,9.81,2.11,-0.01,-0.06,-0.06,1.0,b
4095.0,4095.0,4095.0,3013.0,4095.0,4095.0,4095.0,4095.0,-0.74,9.81,2.15,-0.04,0.01,-0.05,1.0,b
4095.0,4095.0,4095.0,3018.0,4095.0,4095.0,4095.0,4095.0,-0.75,9.81,2.06,-0.07,0.01,-0.03,1.0,b
4095.0,4095.0,4095.0,3019.0,4095.0,4095.0,4095.0,4095.0,-0.86,9.79,2.12,-0.06,0.02,-0.03,1.0,b
4095.0,4095.0,4095.0,3009.0,4095.0,4095.0,4095.0,4095.0,-0.85,9.82,2.02,-0.07,-0.01,-0.02,1.0,b
4095.0,4095.0,4095.0,3021.0,4095.0,4095.0,4095.0,4095.0,-0.84,9.85,2.11,-0.05,0.02,-0.04,1.0,b
4095.0,4095.0,4095.0,3024.0,4095.0,4095.0,4095.0,4095.0,-0.82,9.84,2.1,-0.05,-0.0,-0.04,1.0,b
4095.0,4095.0,4095.0,3025.0,4095.0,4095.0,4095.0,4095.0,-0.86,9.82,2.1,-0.05,0.02,-0.04,1.0,b
4095.0,4095.0,4095.0,3023.0,4095.0,4095.0,4095.0,4095.0,-0.75,9.85,2.08,-0.05,0.03,-0.04,1.0,b
4095.0,4095.0,4095.0,3025.0,4095.0,4095.0,4095.0,4095.0,-0.8,9.82,2.11,-0.06,-0.04,-0.03,1.0,b
4095.0,4095.0,4095.0,3014.0,4095.0,4095.0,4095.0,4095.0,-0.83,9.85,2.11,-0.05,0.02,-0.03,1.0,b
4095.0,4095.0,4095.0,3024.0,4095.0,4095.0,4095.0,4095.0,-0.84,9.82,2.06,-0.06,0.01,-0.03,1.0,b
4095.0,4095.0,4095.0,3024.0,4095.0,4095.0,4095.0,4095.0,-0.78,9.84,2.08,-0.05,-0.01,-0.03,1.0,b
4095.0,4095.0,4095.0,3030.0,4095.0,4095.0,4095.0,4095.0,-0.71,9.83,2.11,-0.05,-0.0,-0.03,1.0,b
4095.0,4095.0,4095.0,3028.0,4095.0,4095.0,4095.0,4095.0,-0.77,9.84,2.09,-0.06,0.01,-0.03,1.0,b
4095.0,4095.0,4095.0,3029.0,4095.0,4095.0,4095.0,4095.0,-0.85,9.79,2.1,-0.07,0.05,-0.03,1.0,b
4095.0,4095.0,4095.0,3024.0,4095.0,4095.0,4095.0,4095.0,-0.83,9.88,1.98,-0.08,0.06,-0.03,1.0,b
4095.0,4095.0,4095.0,3031.0,4095.0,4095.0,4095.0,4095.0,-0.83,9.83,2.11,-0.07,0.04,-0.04,1.0,b
4095.0,4095.0,4095.0,3031.0,4095.0,4095.0,4095.0,4095.0,-0.8,9.84,2.04,-0.06,0.03,-0.03,1.0,b
4095.0,4095.0,4095.0,3034.0,4095.0,4095.0,4095.0,4095.0,-0.79,9.83,2.05,-0.08,0.01,-0.04,1.0,b
4095.0,4095.0,4095.0,3024.0,4095.0,4095.0,4095.0,4095.0,-0.79,9.81,2.23,-0.05,0.01,-0.03,1.0,b
4095.0,4095.0,4095.0,3024.0,4095.0,4095.0,4095.0,4095.0,-0.74,9.82,2.09,-0.06,0.02,-0.03,1.0,b
4095.0,4095.0,4095.0,3027.0,4095.0,4095.0,4095.0,4095.0,-0.89,9.82,2.09,-0.07,0.03,-0.03,1.0,b
4095.0,4095.0,4095.0,3041.0,4095.0,4095.0,4095.0,4095.0,-0.79,9.8,2.15,-0.05,0.03,-0.03,1.0,b
1513.0,4022.0,4095.0,3057.0,4095.0,4095.0,4095.0,4095.0,-1.18,9.74,1.94,-0.05,-0.04,-0.04,1.0,b
1460.0,4001.0,4095.0,3071.0,4095.0,4095.0,4095.0,4095.0,-1.25,9.81,1.98,-0.06,-0.02,-0.03,1.0,b
1424.0,3987.0,4095.0,3082.0,4095.0,4095.0,4095.0,4095.0,-1.22,9.81,1.95,-0.04,0.0,-0.03,1.0,b
1409.0,4015.0,4095.0,3085.0,4095.0,4095.0,4095.0,4095.0,-1.13,9.77,1.96,-0.07,-0.02,-0.02,1.0,b
1396.0,4016.0,4095.0,3083.0,4095.0,4095.0,4095.0,4095.0,-1.25,9.7,1.98,-0.04,0.0,-0.05,1.0,b
1362.0,3979.0,4095.0,3088.0,4095.0,4095.0,4095.0,4095.0,-1.13,9.78,1.9,-0.05,0.05,-0.02,1.0,b
1334.0,3968.0,4095.0,3083.0,4095.0,4095.0,4095.0,4095.0,-1.2,9.78,1.95,-0.07,0.02,-0.02,1.0,b
1307.0,3983.0,4095.0,3089.0,4095.0,4095.0,4095.0,4095.0,-1.07,9.8,2.03,-0.06,0.03,-0.03,1.0,b
1279.0,4095.0,4095.0,3104.0,4095.0,4095.0,4095.0,4095.0,-1.06,9.76,2.21,-0.03,-0.04,-0.08,1.0,b
1267.0,4032.0,4095.0,3088.0,4095.0,4095.0,4095.0,4095.0,-1.57,9.91,1.5,0.0,0.06,-0.02,1.0,b
1247.0,3979.0,4095.0,3099.0,4095.0,4095.0,4095.0,4095.0,-1.16,9.83,1.86,-0.04,-0.04,-0.02,1.0,b
1145.0,3965.0,4095.0,3093.0,4095.0,4095.0,4095.0,4095.0,-1.16,9.8,1.97,-0.01,-0.05,-0.06,1.0,b
1104.0,3972.0,4095.0,3094.0,4095.0,4095.0,4095.0,4095.0,-1.04,9.82,1.93,-0.02,-0.07,-0.04,1.0,b
1109.0,3984.0,4095.0,3101.0,4095.0,4095.0,4095.0,4095.0,-1.09,9.83,1.84,-0.05,-0.02,-0.05,1.0,b
1114.0,3963.0,4095.0,3098.0,4095.0,4095.0,4095.0,4095.0,-1.16,9.86,1.81,-0.06,0.04,-0.03,1.0,b
1111.0,3938.0,4095.0,3104.0,4095.0,4095.0,4095.0,4095.0,-1.22,9.79,1.9,-0.09,0.07,-0.02,1.0,b
1076.0,3973.0,4095.0,3106.0,4095.0,4095.0,4095.0,4095.0,-1.13,9.8,1.97,-0.07,0.02,-0.03,1.0,b
1068.0,3922.0,4095.0,3101.0,4095.0,4095.0,4095.0,4095.0,-1.21,9.82,1.84,-0.06,0.03,-0.03,1.0,b
1079.0,3920.0,4095.0,3107.0,4095.0,4095.0,4095.0,4095.0,-1.16,9.8,2.01,-0.05,0.0,-0.05,1.0,b
1110.0,3927.0,4095.0,3111.0,4095.0,4095.0,4095.0,4095.0,-0.72,10.0,1.73,-0.03,-0.01,-0.09,1.0,b
1130.0,3919.0,4095.0,3117.0,4095.0,4095.0,4095.0,4095.0,-1.38,9.76,1.89,-0.09,-0.08,-0.07,1.0,b
1126.0,3937.0,4095.0,3107.0,4095.0,4095.0,4095.0,4095.0,-1.17,9.79,2.08,-0.07,0.04,-0.01,1.0,b
1122.0,3793.0,4095.0,3105.0,4095.0,4095.0,4095.0,4095.0,-1.09,9.84,1.95,-0.09,0.03,-0.01,1.0,b
1221.0,3991.0,4095.0,3110.0,4095.0,4095.0,4095.0,4095.0,-1.2,9.77,2.1,-0.04,-0.05,-0.05,1.0,b
1296.0,3907.0,4095.0,3103.0,4095.0,4095.0,4095.0,4095.0,-1.21,9.77,1.91,-0.06,-0.06,-0.06,1.0,b
1313.0,3910.0,4095.0,3113.0,4095.0,4095.0,4095.0,4095.0,-1.27,9.78,1.94,-0.06,-0.07,-0.02,1.0,b
1304.0,3899.0,4095.0,3109.0,4095.0,4095.0,4095.0,4095.0,-1.14,9.82,1.9,-0.09,0.02,-0.02,1.0,b
1315.0,3895.0,4095.0,3123.0,4095.0,4095.0,4095.0,4095.0,-1.01,9.8,2.21,-0.08,0.02,-0.03,1.0,b
1321.0,3920.0,4095.0,3118.0,4095.0,4095.0,4095.0,4095.0,-1.07,9.75,2.04,-0.03,0.07,-0.04,1.0,b
1313.0,3906.0,4095.0,3122.0,4095.0,4095.0,4095.0,4095.0,-1.31,9.8,1.89,-0.08,0.05,-0.04,1.0,b
1319.0,3899.0,4095.0,3123.0,4095.0,4095.0,4095.0,4095.0,-1.05,9.75,2.08,-0.06,0.02,-0.02,1.0,b
1321.0,3888.0,4095.0,3122.0,4095.0,4095.0,4095.0,4095.0,-1.08,9.73,2.16,-0.03,-0.0,-0.04,1.0,b
1308.0,3901.0,4095.0,3120.0,4095.0,4095.0,4095.0,4095.0,-1.15,9.8,1.86,-0.06,0.04,-0.03,1.0,b
1311.0,3918.0,4095.0,3121.0,4095.0,4095.0,4095.0,4095.0,-1.22,9.72,2.1,-0.09,0.03,-0.03,1.0,b
1314.0,3904.0,4095.0,3111.0,4095.0,4095.0,4095.0,4095.0,-1.05,9.89,1.81,-0.01,0.05,-0.01,1.0,b
1327.0,3892.0,4095.0,3124.0,4095.0,4095.0,4095.0,4095.0,-1.04,9.79,2.03,-0.08,0.02,-0.0,1.0,b
1315.0,3911.0,4095.0,3121.0,4095.0,4095.0,4095.0,4095.0,-1.07,9.8,2.07,-0.08,-0.0,0.01,1.0,b
1318.0,3884.0,4095.0,3131.0,4095.0,4095.0,4095.0,4095.0,-1.02,9.82,2.07,-0.07,-0.02,-0.03,1.0,b
1312.0,3909.0,4095.0,3127.0,4095.0,4095.0,4095.0,4095.0,-1.07,9.77,2.07,-0.06,-0.01,-0.03,1.0,b
1323.0,3874.0,4095.0,3130.0,4095.0,4095.0,4095.0,4095.0,-0.97,9.84,1.92,-0.08,-0.03,-0.03,1.0,b
3939.0,4095.0,4095.0,3088.0,4095.0,4095.0,4095.0,4095.0,-1.44,9.68,2.37,-0.12,0.05,-0.02,1.0,b
3911.0,4095.0,4095.0,3087.0,4095.0,4095.0,4095.0,4095.0,-1.41,9.73,2.13,-0.05,0.07,-0.03,1.0,b
3952.0,4095.0,4095.0,3095.0,4095.0,4095.0,4095.0,4095.0,-1.41,9.68,2.14,-0.08,0.03,-0.01,1.0,b
3930.0,4095.0,4095.0,3095.0,4095.0,4095.0,4095.0,4095.0,-1.64,9.72,2.15,-0.1,0.05,0.01,1.0,b
3935.0,4095.0,4095.0,3104.0,4095.0,4095.0,4095.0,4095.0,-1.29,9.79,2.19,-0.0,0.01,-0.02,1.0,b
3933.0,4095.0,4095.0,3114.0,4095.0,4095.0,4095.0,4095.0,-1.26,9.68,2.3,-0.02,-0.05,-0.05,1.0,b
3947.0,4095.0,4095.0,3115.0,4095.0,4095.0,4095.0,4095.0,-1.39,9.76,1.96,-0.03,-0.05,-0.05,1.0,b
3947.0,4095.0,4095.0,3106.0,4095.0,4095.0,4095.0,4095.0,-1.45,9.67,2.17,-0.06,-0.08,-0.04,1.0,b
3939.0,4095.0,4095.0,3120.0,4095.0,4095.0,4095.0,4095.0,-1.11,9.74,2.2,-0.02,-0.05,-0.01,1.0,b
3955.0,4095.0,4095.0,3118.0,4095.0,4095.0,4095.0,4095.0,-1.4,9.73,2.02,-0.09,-0.07,-0.07,1.0,b
