hall_1,hall_2,hall_3,flex_t,flex_i,flex_m,flex_r,flex_p,accel_x,accel_y,accel_z,gyro_x,gyro_y,gyro_z,hand,sign
2791.0,4095.0,2480.0,3166.0,4095.0,4095.0,4095.0,4095.0,-2.15,9.2,7.1,-0.01,0.05,-0.1,0.0,b
2794.0,4095.0,2446.0,3163.0,4095.0,4095.0,4095.0,4095.0,-2.19,9.2,7.07,-0.04,0.01,-0.12,0.0,b
2784.0,4095.0,2450.0,3168.0,4095.0,4095.0,4095.0,4095.0,-2.18,9.12,7.3,0.02,0.04,-0.15,0.0,b
2801.0,4095.0,2457.0,3162.0,4095.0,4095.0,4095.0,4095.0,-2.39,9.13,7.38,-0.0,-0.03,-0.12,0.0,b
2800.0,4095.0,2429.0,3162.0,4095.0,4095.0,4095.0,4095.0,-2.07,9.13,7.38,0.03,-0.01,-0.16,0.0,b
2798.0,4095.0,2398.0,3163.0,4095.0,4095.0,4095.0,4095.0,-1.93,9.32,7.27,0.03,-0.05,-0.19,0.0,b
2800.0,4095.0,2346.0,3165.0,4095.0,4095.0,4095.0,4095.0,-1.76,9.16,7.43,0.05,-0.06,-0.24,0.0,b
2799.0,4095.0,2363.0,3163.0,4095.0,4095.0,4095.0,4095.0,-2.06,9.25,7.41,0.08,0.02,-0.22,0.0,b
2802.0,4095.0,2320.0,3167.0,4095.0,4095.0,4095.0,4095.0,-1.69,9.42,7.25,0.13,-0.23,-0.26,0.0,b
2803.0,4095.0,2318.0,3165.0,4095.0,4095.0,4095.0,4095.0,-2.25,9.11,7.26,0.16,0.03,-0.22,0.0,b
2800.0,4095.0,2335.0,3171.0,4095.0,4095.0,4095.0,4095.0,-2.6,9.21,6.67,0.23,0.11,-0.22,0.0,b
2800.0,4095.0,2320.0,3172.0,4095.0,4095.0,4095.0,4095.0,-2.2,9.38,6.48,0.09,-0.16,-0.26,0.0,b
2795.0,4095.0,2336.0,3162.0,4095.0,4095.0,4095.0,4095.0,-2.16,8.97,7.06,-0.06,-0.02,-0.35,0.0,b
2800.0,4095.0,2355.0,3166.0,4095.0,4095.0,4095.0,4095.0,-2.92,8.71,7.3,-0.03,-0.07,-0.4,0.0,b
2812.0,4095.0,2362.0,3168.0,4095.0,4095.0,4095.0,4095.0,-3.18,8.62,7.4,0.05,-0.23,-0.34,0.0,b
2813.0,4095.0,2353.0,3168.0,4095.0,4095.0,4095.0,4095.0,-3.16,8.6,7.25,0.09,-0.15,-0.14,0.0,b
2802.0,4095.0,2355.0,3168.0,4095.0,4095.0,4095.0,4095.0,-2.92,8.74,6.77,0.11,-0.29,-0.07,0.0,b
2801.0,4095.0,2356.0,3167.0,4095.0,4095.0,4095.0,4095.0,-2.54,8.82,6.73,-0.02,-0.15,-0.07,0.0,b
2806.0,4095.0,2336.0,3175.0,4095.0,4095.0,4095.0,4095.0,-2.83,8.9,6.86,-0.1,-0.22,-0.13,0.0,b
2803.0,4095.0,2339.0,3177.0,4095.0,4095.0,4095.0,4095.0,-3.04,8.71,6.92,-0.21,-0.1,-0.05,0.0,b
2805.0,4095.0,2347.0,3177.0,4095.0,4095.0,4095.0,4095.0,-2.88,8.91,7.09,-0.22,-0.16,-0.04,0.0,b
2774.0,4095.0,2341.0,3171.0,4095.0,4083.0,4095.0,4095.0,-2.7,8.83,7.15,-0.22,0.04,-0.08,0.0,b
2759.0,4095.0,2332.0,3175.0,4095.0,4046.0,4095.0,4095.0,-3.19,8.77,6.89,-0.34,0.24,-0.21,0.0,b
2763.0,4095.0,2335.0,3169.0,4095.0,4058.0,4095.0,4095.0,-3.59,8.99,7.34,-0.51,0.47,-0.12,0.0,b
2781.0,4095.0,2339.0,3169.0,4095.0,4078.0,4095.0,4095.0,-3.5,9.05,8.3,-0.55,0.35,-0.06,0.0,b
2776.0,4095.0,2359.0,3175.0,4095.0,4080.0,4095.0,4095.0,-3.39,8.84,8.93,-0.42,0.51,0.1,0.0,b
2784.0,4095.0,2371.0,3181.0,4095.0,4080.0,4095.0,4095.0,-2.97,9.0,8.89,-0.26,0.4,0.17,0.0,b
2794.0,4095.0,2415.0,3173.0,4095.0,4048.0,4095.0,4095.0,-2.77,8.69,8.99,-0.16,0.51,0.29,0.0,b
2800.0,4095.0,2390.0,3173.0,4095.0,4053.0,4095.0,4095.0,-2.4,8.7,8.86,-0.12,0.54,0.33,0.0,b
2802.0,4095.0,2389.0,3174.0,4095.0,4055.0,4095.0,4095.0,-2.24,8.78,8.18,-0.02,0.42,0.25,0.0,b
2817.0,4095.0,2387.0,3172.0,4095.0,4049.0,4095.0,4095.0,-1.94,8.75,7.64,-0.08,0.29,0.21,0.0,b
2816.0,4095.0,2379.0,3175.0,4095.0,4048.0,4095.0,4095.0,-1.77,8.32,8.0,-0.22,0.29,0.27,0.0,b
2829.0,4095.0,2367.0,3173.0,4095.0,4063.0,4095.0,4095.0,-1.4,8.4,8.61,-0.07,-0.17,0.3,0.0,b
2832.0,4095.0,2355.0,3171.0,4095.0,4060.0,4095.0,4095.0,-1.54,8.54,8.03,0.1,-0.45,0.16,0.0,b
2834.0,4095.0,2330.0,3171.0,4095.0,4067.0,4095.0,4095.0,-1.08,8.35,7.64,-0.27,0.02,0.44,0.0,b
2837.0,4095.0,2329.0,3182.0,4095.0,4050.0,4095.0,4095.0,-0.22,8.83,8.11,-0.27,-0.02,0.21,0.0,b
2849.0,4095.0,2357.0,3183.0,4095.0,4041.0,4095.0,4095.0,-0.23,8.39,8.41,-0.37,0.11,0.09,0.0,b
2851.0,4095.0,2354.0,3182.0,4095.0,4048.0,4095.0,4095.0,-0.22,8.53,9.12,-0.46,0.08,0.08,0.0,b
2837.0,4095.0,2357.0,3181.0,4095.0,4048.0,4095.0,4095.0,-0.26,8.55,9.49,-0.34,-0.05,-0.1,0.0,b
2864.0,4095.0,2382.0,3180.0,4095.0,4032.0,4095.0,4095.0,-0.02,8.67,9.64,-0.37,-0.02,0.03,0.0,b
2842.0,4095.0,2369.0,3181.0,4095.0,4031.0,4095.0,4095.0,0.38,8.69,10.32,-0.24,-0.05,-0.12,0.0,b
2849.0,4095.0,2378.0,3178.0,4095.0,4042.0,4095.0,4095.0,0.59,8.46,10.98,-0.05,-0.21,-0.18,0.0,b
2869.0,4095.0,2365.0,3185.0,4095.0,4043.0,4095.0,4095.0,0.57,8.54,10.04,0.23,-0.11,-0.2,0.0,b
2868.0,4095.0,2352.0,3172.0,4095.0,4023.0,4095.0,4095.0,0.79,9.11,9.5,0.32,-0.37,-0.38,0.0,b
2870.0,4095.0,2355.0,3178.0,4095.0,4032.0,4095.0,4095.0,0.09,8.87,9.56,0.38,-0.26,-0.53,0.0,b
2864.0,4095.0,2355.0,3184.0,4095.0,4046.0,4095.0,4095.0,-0.36,9.04,9.39,0.42,-0.38,-0.62,0.0,b
2867.0,4095.0,2356.0,3184.0,4095.0,4034.0,4095.0,4095.0,-1.18,8.96,9.16,0.5,-0.28,-0.6,0.0,b
2862.0,4095.0,2311.0,3185.0,4095.0,4045.0,4095.0,4095.0,-1.42,8.85,8.84,0.49,-0.39,-0.52,0.0,b
2865.0,4095.0,2293.0,3189.0,4095.0,4041.0,4095.0,4095.0,-0.83,9.01,8.24,0.56,-0.48,-0.49,0.0,b
2878.0,4095.0,2278.0,3187.0,4095.0,4035.0,4095.0,4095.0,-1.38,8.92,8.11,0.36,-0.34,-0.6,0.0,b
2861.0,4095.0,2296.0,3184.0,4095.0,4037.0,4095.0,4095.0,-1.77,9.13,7.77,0.32,-0.47,-0.43,0.0,b
2859.0,4095.0,2294.0,3191.0,4095.0,4029.0,4095.0,4095.0,-1.34,8.84,7.87,0.17,-0.43,-0.43,0.0,b
2863.0,4095.0,2303.0,3197.0,4095.0,4044.0,4095.0,4095.0,-1.55,8.83,8.15,0.2,-0.41,-0.46,0.0,b
2864.0,4095.0,2306.0,3200.0,4095.0,4046.0,4095.0,4095.0,-1.48,8.82,8.11,0.21,-0.41,-0.51,0.0,b
2854.0,4095.0,2303.0,3192.0,4095.0,4033.0,4095.0,4095.0,-1.72,8.61,8.15,0.22,-0.35,-0.53,0.0,b
2853.0,4095.0,2298.0,3195.0,4095.0,4047.0,4095.0,4095.0,-1.67,8.55,7.95,0.19,-0.3,-0.54,0.0,b
2851.0,4095.0,2299.0,3197.0,4095.0,4047.0,4095.0,4095.0,-2.36,8.26,7.98,0.21,-0.24,-0.61,0.0,b
2860.0,4095.0,2317.0,3197.0,4095.0,4051.0,4095.0,4095.0,-2.94,8.29,7.84,0.23,-0.2,-0.68,0.0,b
2910.0,4095.0,2290.0,3191.0,4095.0,4026.0,4095.0,4095.0,-3.31,8.81,7.29,0.05,-0.02,-0.39,0.0,b
2935.0,4095.0,2304.0,3187.0,4095.0,4032.0,4095.0,4095.0,-3.19,9.02,7.24,0.02,-0.03,-0.34,0.0,b
2928.0,4095.0,2306.0,3194.0,4095.0,4048.0,4095.0,4095.0,-3.05,10.15,7.78,-0.04,0.1,-0.25,0.0,b
2921.0,4095.0,2334.0,3194.0,4095.0,4048.0,4095.0,4095.0,-3.0,8.71,7.73,0.07,0.04,-0.34,0.0,b
2901.0,4095.0,2347.0,3187.0,4095.0,4036.0,4095.0,4095.0,-3.31,9.1,7.24,-0.1,0.21,-0.24,0.0,b
2909.0,4095.0,2337.0,3195.0,4095.0,4048.0,4095.0,4095.0,-3.19,8.82,7.2,-0.14,0.15,-0.16,0.0,b
2901.0,4095.0,2355.0,3191.0,4095.0,4048.0,4095.0,4095.0,-2.72,8.45,7.94,-0.18,-0.05,-0.17,0.0,b
2917.0,4095.0,2346.0,3191.0,4095.0,4029.0,4095.0,4095.0,-2.72,8.79,8.15,-0.14,0.06,-0.16,0.0,b
2900.0,4095.0,2384.0,3194.0,4095.0,4041.0,4095.0,4095.0,-3.45,8.38,9.03,0.01,0.05,-0.02,0.0,b
2910.0,4095.0,2371.0,3194.0,4095.0,4030.0,4095.0,4095.0,-2.25,8.73,8.97,0.49,-0.48,-0.16,0.0,b
2898.0,4095.0,2354.0,3196.0,4095.0,4016.0,4095.0,4095.0,-2.4,9.1,7.53,0.33,0.35,0.18,0.0,b
2910.0,4095.0,2355.0,3199.0,4095.0,4032.0,4095.0,4095.0,-2.22,9.0,6.85,0.16,0.53,0.24,0.0,b
2906.0,4095.0,2399.0,3203.0,4095.0,4026.0,4095.0,4095.0,-1.91,9.13,6.73,0.06,0.51,0.06,0.0,b
2987.0,4095.0,2009.0,3197.0,4095.0,4030.0,4095.0,4095.0,-2.22,9.09,6.82,-0.11,0.5,0.15,0.0,b
3033.0,4095.0,1965.0,3190.0,4095.0,4041.0,4095.0,4095.0,-1.97,9.11,7.12,-0.26,0.56,0.22,0.0,b
3071.0,4095.0,2174.0,3206.0,4095.0,4045.0,4095.0,4095.0,-2.08,8.96,7.65,-0.14,0.25,0.08,0.0,b
3070.0,4095.0,2617.0,3197.0,4095.0,4047.0,4095.0,4095.0,-1.73,9.15,7.55,-0.08,0.17,0.02,0.0,b
3134.0,4095.0,4017.0,3207.0,4095.0,4095.0,4095.0,4095.0,-1.98,9.06,7.2,0.0,0.09,0.07,0.0,b
3153.0,4095.0,4095.0,3201.0,4095.0,4080.0,4095.0,4095.0,-1.79,9.41,7.28,0.16,-0.14,-0.22,0.0,b
3174.0,4095.0,4095.0,3206.0,4095.0,4055.0,4095.0,4095.0,-1.59,9.15,7.38,0.04,-0.06,-0.2,0.0,b
3161.0,4095.0,4095.0,3199.0,4095.0,4095.0,4095.0,4095.0,-2.26,9.39,7.19,0.0,0.21,-0.11,0.0,b
3151.0,4095.0,4095.0,3201.0,4095.0,4095.0,4095.0,4095.0,-2.37,9.14,7.2,-0.11,0.14,-0.02,0.0,b
3157.0,4095.0,4095.0,3207.0,4095.0,4095.0,4095.0,4095.0,-1.92,9.21,7.26,0.11,-0.07,-0.16,0.0,b
3153.0,4095.0,4095.0,3212.0,4095.0,4095.0,4095.0,4095.0,-1.61,9.21,6.83,-0.13,0.3,-0.01,0.0,b
3168.0,4095.0,4095.0,3207.0,4095.0,4095.0,4095.0,4095.0,-1.91,8.84,7.4,-0.21,-0.03,-0.21,0.0,b
3156.0,4095.0,4095.0,3216.0,4095.0,4095.0,4095.0,4095.0,-1.63,8.9,7.47,-0.19,-0.0,-0.25,0.0,b
3162.0,4095.0,4095.0,3197.0,4095.0,3797.0,4095.0,4095.0,-2.03,8.87,7.72,-0.19,-0.04,-0.22,0.0,b
3141.0,4095.0,4095.0,3196.0,4095.0,3632.0,4095.0,4095.0,-2.0,9.05,7.72,-0.07,-0.07,-0.16,0.0,b
3138.0,4095.0,4095.0,3185.0,4095.0,3600.0,4095.0,4095.0,-2.22,9.0,7.76,-0.01,-0.09,-0.13,0.0,b
3158.0,4095.0,4095.0,3175.0,4095.0,3583.0,4095.0,4095.0,-1.87,9.09,7.82,0.07,-0.43,-0.22,0.0,b
3136.0,4095.0,4095.0,3179.0,4095.0,3621.0,4095.0,4095.0,-1.88,9.15,7.9,0.11,-0.01,-0.13,0.0,b
3137.0,4095.0,4095.0,3200.0,4095.0,3706.0,4095.0,4095.0,-1.96,9.04,7.87,0.1,-0.16,-0.19,0.0,b
3102.0,4095.0,4095.0,3250.0,4095.0,3741.0,4095.0,4095.0,-2.03,9.11,7.75,0.12,-0.11,-0.21,0.0,b
3088.0,4095.0,4095.0,3345.0,4095.0,3757.0,4095.0,4095.0,-2.0,9.1,7.51,0.12,0.02,-0.14,0.0,b
3088.0,4095.0,4095.0,3401.0,4095.0,3761.0,4095.0,4095.0,-2.12,9.02,7.53,0.12,-0.1,-0.22,0.0,b
3086.0,4095.0,4095.0,3405.0,4095.0,3766.0,4095.0,4095.0,-2.08,9.05,7.38,0.04,0.08,-0.13,0.0,b
3069.0,4095.0,4095.0,3377.0,4095.0,3755.0,4095.0,4095.0,-2.03,9.17,7.3,0.03,0.08,-0.05,0.0,b
3071.0,4095.0,4095.0,3390.0,4095.0,3760.0,4095.0,4095.0,-1.77,9.1,7.37,0.01,0.0,-0.14,0.0,b
3069.0,4095.0,4095.0,3398.0,4095.0,3765.0,4095.0,4095.0,-1.76,9.15,7.46,-0.02,0.02,-0.11,0.0,b
3062.0,4095.0,4087.0,3401.0,4095.0,3769.0,4095.0,4095.0,-1.92,9.09,7.62,0.03,-0.02,-0.17,0.0,b
3056.0,4095.0,3857.0,3391.0,4095.0,3781.0,4095.0,4095.0,-1.9,9.19,7.38,-0.09,0.12,-0.13,0.0,b
3062.0,4095.0,4003.0,3379.0,4095.0,3769.0,4095.0,4095.0,-2.16,9.1,7.52,-0.11,0.08,-0.1,0.0,b
3058.0,4095.0,4095.0,3343.0,4095.0,3771.0,4095.0,4095.0,-2.01,8.94,7.66,-0.08,0.03,-0.15,0.0,b
3056.0,4095.0,4095.0,3295.0,4095.0,3782.0,4095.0,4095.0,-2.03,9.03,7.65,0.01,0.0,-0.09,0.0,b
3051.0,4095.0,3953.0,3233.0,4095.0,3766.0,4095.0,4095.0,-2.01,9.02,7.68,-0.02,-0.04,-0.12,0.0,b
3056.0,4095.0,3510.0,3204.0,4095.0,3756.0,4095.0,4095.0,-1.51,8.96,7.88,0.08,-0.03,-0.13,0.0,b
3059.0,4095.0,3478.0,3191.0,4095.0,3762.0,4095.0,4095.0,-1.58,9.11,7.85,0.11,-0.16,-0.25,0.0,b
3046.0,4095.0,3463.0,3024.0,4095.0,3763.0,4095.0,4095.0,-1.91,9.09,7.73,0.05,-0.04,-0.22,0.0,b
3058.0,4095.0,3471.0,3219.0,4095.0,3776.0,4095.0,4095.0,-2.23,9.14,7.58,0.07,0.05,-0.15,0.0,b
3061.0,4095.0,3471.0,3211.0,4095.0,3773.0,4095.0,4095.0,-2.2,9.11,7.58,0.04,0.17,-0.11,0.0,b
3057.0,4095.0,3522.0,3247.0,4095.0,3787.0,4095.0,4095.0,-2.38,9.09,7.67,0.17,-0.12,-0.11,0.0,b
3049.0,4095.0,3630.0,3249.0,4095.0,3781.0,4095.0,4095.0,-2.29,9.11,7.61,0.13,-0.2,-0.13,0.0,b
3046.0,4095.0,3728.0,3341.0,4095.0,3799.0,4095.0,4095.0,-1.66,9.54,7.28,0.22,-0.12,-0.13,0.0,b
3046.0,4095.0,3743.0,3373.0,4095.0,3795.0,4095.0,4095.0,-2.17,9.54,7.21,0.08,0.37,-0.15,0.0,b
3056.0,4095.0,3731.0,3286.0,4095.0,3797.0,4095.0,4095.0,-3.29,9.83,6.56,0.06,0.43,-0.11,0.0,b
3047.0,4095.0,3717.0,3253.0,4095.0,3792.0,4095.0,4095.0,-3.26,9.9,5.79,-0.08,0.25,-0.02,0.0,b
3056.0,4095.0,3718.0,3222.0,4095.0,3803.0,4095.0,4095.0,-2.98,9.32,6.03,-0.39,0.42,0.36,0.0,b
3058.0,4095.0,3806.0,3198.0,4095.0,3810.0,4095.0,4095.0,-1.21,8.49,7.68,-0.49,0.03,0.3,0.0,b
3055.0,4095.0,3855.0,3182.0,4095.0,3799.0,4095.0,4095.0,-0.22,8.29,7.96,-0.36,-0.09,0.11,0.0,b
3038.0,4095.0,3859.0,3184.0,4095.0,3807.0,4095.0,4095.0,0.12,7.98,8.58,-0.41,0.17,0.16,0.0,b
3037.0,4095.0,3869.0,3187.0,4095.0,3810.0,4095.0,4095.0,0.19,7.96,8.69,-0.22,0.01,-0.11,0.0,b
3047.0,4095.0,3663.0,3196.0,4095.0,3782.0,4095.0,4095.0,0.12,8.61,8.19,-0.54,0.06,0.04,0.0,b
3031.0,4095.0,3547.0,3206.0,4095.0,3811.0,4095.0,4095.0,-0.01,8.66,9.26,-0.32,0.31,-0.21,0.0,b
3021.0,4095.0,3472.0,3215.0,4095.0,3871.0,4095.0,4095.0,-0.39,9.1,9.13,0.02,0.17,-0.24,0.0,b
3028.0,4095.0,3563.0,3213.0,4095.0,3888.0,4095.0,4095.0,-0.85,9.09,9.42,0.41,-0.1,-0.68,0.0,b
3039.0,4095.0,3568.0,3184.0,4095.0,3889.0,4095.0,4095.0,-1.38,9.52,8.64,0.64,-0.12,-0.66,0.0,b
3044.0,4095.0,3583.0,3157.0,4095.0,3870.0,4095.0,4095.0,-1.73,9.25,8.31,0.64,-0.56,-0.96,0.0,b
3043.0,4095.0,3543.0,3163.0,4095.0,3871.0,4095.0,4095.0,-2.44,9.21,7.78,0.61,-0.25,-0.54,0.0,b
3047.0,4095.0,3554.0,3171.0,4095.0,3888.0,4095.0,4095.0,-1.67,8.84,7.34,0.46,-0.43,-0.65,0.0,b
3059.0,4095.0,3528.0,3177.0,4095.0,3888.0,4095.0,4095.0,-2.54,8.6,7.2,0.52,-0.4,-0.61,0.0,b
3056.0,4095.0,3566.0,3169.0,4095.0,3878.0,4095.0,4095.0,-3.3,8.32,6.86,0.51,-0.38,-0.75,0.0,b
3059.0,4095.0,3603.0,3166.0,4095.0,3869.0,4095.0,4095.0,-3.52,8.7,6.26,0.3,-0.2,-0.57,0.0,b
3067.0,4095.0,3657.0,3175.0,4095.0,3875.0,4095.0,4095.0,-3.77,8.28,6.28,0.15,-0.18,-0.56,0.0,b
3071.0,4095.0,3680.0,3163.0,4095.0,3871.0,4095.0,4095.0,-3.9,8.66,5.99,0.34,-0.8,-1.09,0.0,b
3061.0,4095.0,3663.0,3165.0,4095.0,3860.0,4095.0,4095.0,-5.07,8.46,6.14,-0.22,-0.08,-0.19,0.0,b
3067.0,4095.0,3653.0,3168.0,4095.0,3856.0,4095.0,4095.0,-4.39,8.47,6.88,-0.37,0.09,0.24,0.0,b
3062.0,4095.0,3666.0,3174.0,4095.0,3863.0,4095.0,4095.0,-3.65,8.39,7.72,-0.35,0.12,0.42,0.0,b
3051.0,4095.0,3706.0,3179.0,4095.0,3866.0,4095.0,4095.0,-2.66,8.68,7.98,-0.25,0.31,0.36,0.0,b
3063.0,4095.0,3699.0,3184.0,4095.0,3878.0,4095.0,4095.0,-3.26,9.26,7.13,-0.19,0.56,0.13,0.0,b
3056.0,4095.0,3686.0,3182.0,4095.0,3871.0,4095.0,4095.0,-3.6,9.55,6.81,-0.29,0.28,0.05,0.0,b
3056.0,4095.0,3689.0,3185.0,4095.0,3873.0,4095.0,4095.0,-3.74,9.52,7.33,-0.43,0.62,0.25,0.0,b
3052.0,4095.0,3682.0,3187.0,4095.0,3862.0,4095.0,4095.0,-2.79,9.0,7.89,-0.33,0.36,0.43,0.0,b
3032.0,4095.0,3726.0,3187.0,4095.0,3877.0,4095.0,4095.0,-1.86,8.89,7.81,-0.23,0.49,0.3,0.0,b
3048.0,4095.0,3743.0,3187.0,4095.0,3874.0,4095.0,4095.0,-1.95,8.84,7.88,-0.32,0.6,0.25,0.0,b
3054.0,4095.0,3760.0,3191.0,4095.0,3883.0,4095.0,4095.0,-1.83,8.68,8.04,-0.24,0.48,0.04,0.0,b
3056.0,4095.0,3821.0,3200.0,4095.0,3875.0,4095.0,4095.0,-1.64,8.84,7.59,-0.26,0.21,-0.09,0.0,b
3042.0,4095.0,3821.0,3191.0,4095.0,3872.0,4095.0,4095.0,-1.45,8.51,8.29,-0.4,0.3,-0.06,0.0,b
3053.0,4095.0,3820.0,3194.0,4095.0,3879.0,4095.0,4095.0,-1.61,8.55,9.66,-0.23,0.23,-0.13,0.0,b
3037.0,4095.0,3815.0,3198.0,4095.0,3882.0,4095.0,4095.0,-1.41,8.61,9.5,0.1,0.12,-0.13,0.0,b
3041.0,4095.0,3807.0,3200.0,4095.0,3877.0,4095.0,4095.0,-0.59,9.26,8.73,0.27,-0.23,-0.19,0.0,b
3029.0,4095.0,3808.0,3197.0,4095.0,3875.0,4095.0,4095.0,-0.98,9.1,8.92,0.66,-0.33,-0.55,0.0,b
3027.0,4095.0,3860.0,3199.0,4095.0,3875.0,4095.0,4095.0,-1.96,9.38,7.89,0.82,-0.59,-0.69,0.0,b
3024.0,4095.0,3984.0,3202.0,4095.0,3882.0,4095.0,4095.0,-2.82,9.63,6.46,0.88,-0.46,-0.66,0.0,b
3029.0,4095.0,4069.0,3204.0,4095.0,3892.0,4095.0,4095.0,-2.3,9.18,6.35,0.56,-0.62,-0.54,0.0,b
3057.0,4095.0,4082.0,3208.0,4095.0,3881.0,4095.0,4095.0,-3.23,8.83,6.5,0.61,-0.87,-0.61,0.0,b
3056.0,4095.0,4095.0,3211.0,4095.0,3871.0,4095.0,4095.0,-2.6,9.14,6.21,0.29,-0.91,-0.46,0.0,b
3083.0,4095.0,4095.0,3219.0,4095.0,3871.0,4095.0,4095.0,-4.05,8.22,7.3,0.25,-0.61,-0.33,0.0,b
3098.0,4095.0,4095.0,3216.0,4095.0,3856.0,4095.0,4095.0,-4.28,8.65,6.62,0.34,-0.47,0.09,0.0,b
3088.0,4095.0,4095.0,3216.0,4095.0,3869.0,4095.0,4095.0,-2.94,9.38,6.42,0.22,-0.43,-0.04,0.0,b
3091.0,4095.0,4095.0,3218.0,4095.0,3881.0,4095.0,4095.0,-2.59,9.15,6.97,0.04,-0.32,-0.08,0.0,b
3104.0,4095.0,4095.0,3225.0,4095.0,3889.0,4095.0,4095.0,-2.07,8.93,7.01,0.11,-0.21,-0.16,0.0,b
3100.0,4095.0,4095.0,3216.0,4095.0,3879.0,4095.0,4095.0,-2.06,9.15,6.95,0.09,-0.28,-0.37,0.0,b
3098.0,4095.0,4095.0,3223.0,4095.0,3890.0,4095.0,4095.0,-2.76,8.95,6.72,0.07,-0.27,-0.43,0.0,b
3104.0,4095.0,4095.0,3227.0,4095.0,3899.0,4095.0,4095.0,-3.09,8.73,6.65,0.05,-0.35,-0.41,0.0,b
3093.0,4095.0,4095.0,3231.0,4095.0,3897.0,4095.0,4095.0,-3.47,8.96,6.55,0.04,-0.44,-0.3,0.0,b
3109.0,4095.0,4095.0,3232.0,4095.0,3883.0,4095.0,4095.0,-2.96,9.03,6.49,-0.03,-0.33,-0.2,0.0,b
2726.0,2934.0,1072.0,3314.0,4095.0,4095.0,4095.0,4095.0,-3.56,8.94,6.27,-0.09,0.16,0.03,0.0,b
2729.0,2926.0,1059.0,3326.0,4095.0,4095.0,4095.0,4095.0,-3.09,9.14,6.08,-0.12,0.22,0.03,0.0,b
2766.0,2922.0,1047.0,3331.0,4095.0,4095.0,4095.0,4095.0,-2.16,9.15,5.89,0.04,-0.1,-0.08,0.0,b
2813.0,2916.0,1050.0,3329.0,4095.0,4095.0,4095.0,4095.0,-1.84,9.3,6.01,-0.01,-0.23,-0.35,0.0,b
2781.0,2912.0,1051.0,3339.0,4095.0,4095.0,4095.0,4095.0,-2.62,9.44,5.84,0.16,-0.45,-0.42,0.0,b
2753.0,2903.0,1053.0,3335.0,4095.0,4095.0,4095.0,4095.0,-3.47,9.0,5.93,0.24,-0.56,-0.46,0.0,b
2787.0,2937.0,1040.0,3335.0,4095.0,4095.0,4095.0,4095.0,-3.62,8.56,5.86,0.04,-0.47,-0.49,0.0,b
2800.0,2911.0,1043.0,3333.0,4095.0,4095.0,4095.0,4095.0,-3.76,8.42,6.18,-0.16,-0.55,-0.52,0.0,b
2931.0,2915.0,1047.0,3344.0,4095.0,4095.0,4095.0,4095.0,-5.1,8.17,7.15,-0.15,-0.31,-0.21,0.0,b
2797.0,3187.0,1043.0,3347.0,4095.0,4095.0,4095.0,4095.0,-4.28,8.27,7.13,-0.09,-0.25,-0.16,0.0,b
2450.0,3210.0,1037.0,3338.0,4095.0,4095.0,4095.0,4095.0,-3.97,8.7,7.26,-0.19,0.12,0.11,0.0,b
2160.0,3216.0,1062.0,3335.0,4095.0,4095.0,4095.0,4095.0,-3.76,8.6,7.55,-0.06,0.16,0.22,0.0,b
1917.0,3216.0,1059.0,3342.0,4095.0,4095.0,4095.0,4095.0,-3.56,8.57,7.08,-0.12,0.15,0.17,0.0,b
1862.0,3219.0,1061.0,3357.0,4095.0,4095.0,4095.0,4095.0,-3.36,9.23,7.63,-0.26,0.07,0.28,0.0,b
1923.0,3219.0,1056.0,3435.0,4095.0,4095.0,4095.0,4095.0,-2.31,9.24,8.21,-0.11,0.41,0.12,0.0,b
2000.0,3183.0,1033.0,3441.0,4095.0,4095.0,4095.0,4095.0,-2.27,9.64,7.64,-0.0,0.42,-0.23,0.0,b
2273.0,3201.0,1023.0,3429.0,4095.0,4095.0,4095.0,4095.0,-2.74,8.4,7.41,0.15,0.31,-0.37,0.0,b
2282.0,3191.0,1023.0,3431.0,4095.0,4095.0,4095.0,4095.0,-3.0,8.58,6.56,0.05,0.25,-0.27,0.0,b
2261.0,3202.0,1021.0,3460.0,4095.0,4095.0,4095.0,4095.0,-3.71,8.27,7.25,-0.08,0.35,0.07,0.0,b
2288.0,3198.0,1036.0,3444.0,4095.0,4095.0,4095.0,4095.0,-2.92,9.07,6.8,-0.05,0.25,0.13,0.0,b
2278.0,3184.0,1021.0,3459.0,4095.0,4095.0,4095.0,4095.0,-3.16,10.66,7.29,-0.21,0.5,-0.25,0.0,b
2291.0,3181.0,1022.0,3450.0,4095.0,4095.0,4095.0,4095.0,-2.12,9.4,6.47,0.22,-0.28,-0.26,0.0,b
2266.0,3166.0,1038.0,3466.0,4095.0,4095.0,4095.0,4095.0,-3.2,7.97,6.76,0.24,-0.06,-0.34,0.0,b
2206.0,3171.0,1031.0,3449.0,4095.0,4095.0,4095.0,4095.0,-4.39,7.55,6.23,0.18,0.1,0.05,0.0,b
2239.0,3183.0,1046.0,3461.0,4095.0,4095.0,4095.0,4095.0,-2.96,8.11,5.76,-0.01,-0.43,0.45,0.0,b
2271.0,3159.0,1035.0,3466.0,4095.0,4095.0,4095.0,4095.0,-1.62,9.13,7.16,-0.54,-0.21,0.1,0.0,b
2320.0,3157.0,1040.0,3472.0,4095.0,4095.0,4095.0,4095.0,-2.17,9.47,8.4,-0.11,-0.64,-0.23,0.0,b
2372.0,3945.0,1065.0,3482.0,4095.0,4095.0,4095.0,4095.0,-2.97,9.34,8.05,0.33,-1.37,-0.41,0.0,b
2421.0,4095.0,1057.0,3495.0,4095.0,4095.0,4095.0,4095.0,-1.87,9.99,7.29,0.55,-2.86,-0.62,0.0,b
2399.0,4095.0,1060.0,3475.0,4095.0,4095.0,4095.0,4095.0,-1.27,9.35,7.43,-0.04,2.5,-0.4,0.0,b
2389.0,4095.0,1069.0,3491.0,4095.0,4095.0,4095.0,4095.0,-2.86,8.56,7.32,0.43,-0.8,-0.49,0.0,b
2423.0,4095.0,1509.0,3474.0,4095.0,4095.0,4095.0,4095.0,-1.96,8.67,6.2,0.32,0.03,-0.04,0.0,b
2383.0,4095.0,1636.0,3501.0,4095.0,4095.0,4095.0,4095.0,-2.08,9.73,5.94,0.31,0.35,-0.18,0.0,b
2397.0,4095.0,1639.0,3495.0,4095.0,4095.0,4095.0,4095.0,-2.28,9.25,6.22,-0.06,-0.01,-0.65,0.0,b
2387.0,3410.0,1856.0,3491.0,4095.0,4095.0,4095.0,4095.0,-3.29,8.32,6.76,-0.13,-0.38,-0.83,0.0,b
2313.0,3401.0,1801.0,3483.0,4095.0,4095.0,4095.0,4095.0,-4.64,8.05,7.19,-0.07,-0.49,-0.76,0.0,b
2284.0,3417.0,1709.0,3499.0,4095.0,4095.0,4095.0,4095.0,-5.3,7.99,7.49,-0.07,-0.15,-0.47,0.0,b
2154.0,3978.0,1561.0,3479.0,4095.0,4095.0,4095.0,4095.0,-5.28,8.01,7.27,-0.02,-0.08,-0.31,0.0,b
2383.0,1567.0,1600.0,3486.0,4095.0,4095.0,4095.0,4095.0,-5.2,8.26,7.17,-0.12,0.29,-0.12,0.0,b
2369.0,1901.0,1673.0,3472.0,4095.0,4095.0,4095.0,4095.0,-4.54,8.17,7.4,-0.07,0.17,-0.07,0.0,b
2055.0,975.0,1693.0,3463.0,4095.0,4095.0,4095.0,4095.0,-4.18,7.9,7.3,0.14,-0.08,-0.17,0.0,b
1709.0,971.0,1780.0,3463.0,4095.0,4095.0,4095.0,4095.0,-4.43,8.34,6.97,0.07,0.02,-0.23,0.0,b
1652.0,977.0,1765.0,3455.0,4095.0,4095.0,4095.0,4095.0,-4.38,8.13,6.78,0.03,-0.04,-0.21,0.0,b
1828.0,1010.0,1631.0,3453.0,4095.0,4095.0,4095.0,4095.0,-4.95,8.02,7.26,-0.15,-0.03,-0.24,0.0,b
1517.0,993.0,1779.0,3435.0,4095.0,4095.0,4095.0,4095.0,-4.67,8.0,7.6,0.08,0.1,-0.11,0.0,b
1456.0,1118.0,1657.0,3433.0,4095.0,4095.0,4095.0,4095.0,-4.15,8.23,7.1,0.07,-0.11,-0.27,0.0,b
1422.0,1311.0,1394.0,3467.0,4095.0,4095.0,4095.0,4095.0,-5.07,7.96,7.43,-0.04,0.22,-0.46,0.0,b
1433.0,1099.0,1307.0,3471.0,4095.0,4095.0,4095.0,4095.0,-5.63,7.46,7.62,0.04,0.09,-0.55,0.0,b
1458.0,1167.0,1292.0,3471.0,4095.0,4095.0,4095.0,4095.0,-5.41,8.06,6.49,-0.24,0.09,0.01,0.0,b
1340.0,1220.0,1530.0,3471.0,4095.0,4095.0,4095.0,4095.0,-4.7,8.36,7.23,-0.08,-0.13,-0.08,0.0,b
1351.0,1101.0,1408.0,3474.0,4095.0,4095.0,4095.0,4095.0,-5.27,7.61,7.5,0.16,-0.21,-0.59,0.0,b
1414.0,1055.0,1345.0,3478.0,4095.0,4095.0,4095.0,4095.0,-5.74,6.97,7.25,0.39,-0.36,-0.82,0.0,b
1405.0,1041.0,1341.0,3471.0,4095.0,4095.0,4095.0,4095.0,-6.73,7.43,6.78,0.29,-0.42,-0.39,0.0,b
1419.0,1014.0,1255.0,3472.0,4095.0,4095.0,4095.0,4095.0,-6.17,6.84,6.38,0.07,-0.51,0.37,0.0,b
1442.0,985.0,1239.0,3460.0,4095.0,4095.0,4095.0,4095.0,-7.08,7.56,6.95,0.08,-0.13,0.53,0.0,b
1456.0,958.0,1264.0,3449.0,4095.0,4095.0,4095.0,4095.0,-4.78,8.21,7.44,-0.25,0.11,0.89,0.0,b
1456.0,967.0,1360.0,3431.0,4095.0,4095.0,4095.0,4095.0,-3.03,8.18,7.49,-0.07,0.24,0.49,0.0,b
1469.0,959.0,1383.0,3449.0,4095.0,4095.0,4095.0,4095.0,-3.35,8.81,7.28,-0.1,0.22,0.23,0.0,b
1470.0,967.0,1439.0,3442.0,4095.0,4095.0,4095.0,4095.0,-2.48,8.71,6.67,-0.1,0.25,0.13,0.0,b
1465.0,963.0,1455.0,3443.0,4095.0,4095.0,4095.0,4095.0,-2.19,8.52,7.02,-0.15,0.14,-0.07,0.0,b
1469.0,963.0,1424.0,3406.0,4095.0,4095.0,4095.0,4095.0,-2.39,8.66,7.15,-0.15,0.15,-0.19,0.0,b
1488.0,959.0,1457.0,3418.0,4095.0,4095.0,4095.0,4095.0,-3.33,8.25,7.48,-0.05,0.04,0.13,0.0,b
1445.0,969.0,1470.0,3418.0,4095.0,4095.0,4095.0,4095.0,-4.06,9.45,7.18,-0.03,0.17,0.16,0.0,b
1407.0,960.0,1535.0,3425.0,4095.0,4095.0,4095.0,4095.0,-2.76,9.41,6.97,-0.21,0.28,0.06,0.0,b
1413.0,959.0,1522.0,3423.0,4095.0,4095.0,4095.0,4095.0,-3.17,9.11,8.62,-0.18,0.65,0.09,0.0,b
1427.0,965.0,1589.0,3414.0,4095.0,4095.0,4095.0,4095.0,-1.28,9.96,7.89,0.57,0.6,0.07,0.0,b
1412.0,978.0,1619.0,3423.0,4095.0,4095.0,4095.0,4095.0,-1.92,9.74,6.0,0.2,0.3,-0.32,0.0,b
1420.0,981.0,1639.0,3426.0,4095.0,4095.0,4095.0,4095.0,-1.98,9.08,6.15,0.15,0.21,-0.49,0.0,b
1365.0,990.0,1648.0,3427.0,4095.0,4095.0,4095.0,4095.0,-2.2,8.86,5.81,0.29,-0.12,-0.34,0.0,b
1377.0,994.0,1686.0,3433.0,4095.0,4095.0,4095.0,4095.0,-2.37,9.02,7.24,0.08,-0.04,-0.66,0.0,b
1367.0,986.0,1743.0,3433.0,4095.0,4095.0,4095.0,4095.0,-4.09,8.26,5.78,0.61,-0.35,-0.66,0.0,b
1370.0,1114.0,1647.0,3440.0,4095.0,4095.0,4095.0,4095.0,-4.07,7.91,5.09,0.51,-0.48,-0.43,0.0,b
1360.0,1175.0,1641.0,3427.0,4095.0,4095.0,4095.0,4095.0,-4.91,7.87,4.95,0.1,0.44,-0.17,0.0,b
1354.0,1153.0,1615.0,3447.0,4095.0,4095.0,4095.0,4095.0,-4.61,8.29,4.85,-0.07,-0.77,0.02,0.0,b
1358.0,1168.0,1641.0,3447.0,4095.0,4095.0,4095.0,4095.0,-4.34,8.55,6.17,-0.25,-0.55,0.04,0.0,b
1357.0,1158.0,1642.0,3440.0,4095.0,4095.0,4095.0,4095.0,-4.01,8.9,6.45,-0.25,-0.33,0.03,0.0,b
1360.0,1158.0,1655.0,3434.0,4095.0,4095.0,4095.0,4095.0,-3.55,8.6,6.97,-0.3,-0.15,0.0,0.0,b
1366.0,1147.0,1650.0,3455.0,4095.0,4095.0,4095.0,4095.0,-4.65,8.08,7.13,-0.76,0.64,-0.35,0.0,b
1350.0,1157.0,1645.0,3463.0,4095.0,4095.0,4095.0,4095.0,-4.86,8.41,8.26,-0.48,0.31,0.38,0.0,b
1378.0,1120.0,1459.0,3451.0,4095.0,4095.0,4095.0,4095.0,-2.73,8.56,7.11,0.25,0.23,0.68,0.0,b
1393.0,990.0,1303.0,3451.0,4095.0,4095.0,4095.0,4095.0,-2.65,9.41,6.73,-0.22,0.07,0.17,0.0,b
1398.0,995.0,1342.0,3445.0,4095.0,4095.0,4095.0,4095.0,-2.61,9.47,7.58,-0.42,0.35,0.15,0.0,b
1412.0,999.0,1341.0,3453.0,4095.0,4095.0,4095.0,4095.0,-1.66,9.06,7.95,-0.25,0.38,0.15,0.0,b
1424.0,1056.0,1484.0,3403.0,4095.0,4095.0,4095.0,4095.0,-1.98,8.48,7.25,0.0,0.11,0.69,0.0,b
1428.0,1074.0,1531.0,3403.0,4095.0,4095.0,4095.0,4095.0,0.05,9.1,6.94,-0.18,0.12,0.22,0.0,b
1451.0,1072.0,1563.0,3397.0,4095.0,4095.0,4095.0,4095.0,-0.51,9.83,8.08,-0.45,0.12,-0.31,0.0,b
1436.0,1053.0,1564.0,3411.0,4095.0,4095.0,4095.0,4095.0,-2.27,10.24,8.76,0.23,0.19,-0.5,0.0,b
1433.0,1053.0,1610.0,3407.0,4095.0,4095.0,4095.0,4095.0,-1.78,10.71,6.76,0.76,0.04,-0.22,0.0,b
