hall_1,hall_2,hall_3,flex_t,flex_i,flex_m,flex_r,flex_p,accel_x,accel_y,accel_z,gyro_x,gyro_y,gyro_z,sign
3182.0,2953.0,3106.0,4095.0,2818.0,3047.0,2288.0,2515.0,2.7,8.78,2.03,0.48,-0.13,0.34,c3
3309.0,3045.0,3195.0,4095.0,2822.0,3088.0,2339.0,2739.0,2.47,9.12,0.53,0.33,0.43,0.01,c3
3498.0,3066.0,3212.0,4095.0,2831.0,3121.0,2375.0,2855.0,1.82,9.27,0.65,0.71,0.83,-0.11,c3
3863.0,3010.0,3155.0,4095.0,2832.0,3067.0,2320.0,2887.0,2.21,9.23,1.1,1.2,1.62,-0.44,c3
3853.0,3002.0,3151.0,4095.0,2862.0,3056.0,2305.0,2898.0,0.09,10.01,-0.24,0.58,1.6,-0.56,c3
3824.0,3009.0,3166.0,4095.0,2878.0,3093.0,2337.0,2934.0,0.39,9.57,-0.85,1.02,0.62,-0.18,c3
3792.0,2960.0,3114.0,4095.0,2915.0,3050.0,2295.0,2842.0,2.03,10.59,-1.82,-0.26,-0.64,-0.1,c3
3719.0,2949.0,3106.0,4095.0,3013.0,3091.0,2337.0,2620.0,2.45,9.15,0.03,-0.34,-0.89,-0.33,c3
3712.0,2931.0,3071.0,4095.0,3063.0,3138.0,2415.0,2667.0,2.56,10.6,-1.58,0.93,1.42,-1.74,c3
3295.0,2997.0,3145.0,4095.0,3163.0,3231.0,2559.0,2809.0,-5.88,8.85,-1.84,0.53,3.0,-1.92,c3
3152.0,2941.0,3099.0,4095.0,3136.0,3280.0,2621.0,2813.0,-1.35,9.4,-0.92,0.8,0.82,0.29,c3
3089.0,2919.0,3061.0,4095.0,3136.0,3285.0,2559.0,2702.0,0.97,10.82,0.23,-0.71,0.71,-0.22,c3
3149.0,2955.0,3105.0,4095.0,3090.0,3234.0,2449.0,2613.0,0.07,9.56,0.47,-0.25,-1.89,0.46,c3
3408.0,3003.0,3146.0,4095.0,2961.0,3050.0,2354.0,2523.0,-1.03,8.19,-0.61,0.05,0.54,-0.22,c3
3989.0,2997.0,3146.0,4095.0,2875.0,2987.0,2271.0,2644.0,-1.66,10.19,-2.31,-0.6,-0.28,0.83,c3
4071.0,3043.0,3196.0,4095.0,2858.0,3030.0,2305.0,2815.0,0.93,8.71,-0.11,-0.83,-0.66,0.99,c3
4059.0,3034.0,3184.0,4095.0,2889.0,3030.0,2300.0,2837.0,1.66,10.03,-0.56,-1.03,-1.88,0.56,c3
4043.0,3010.0,3164.0,4095.0,2898.0,3024.0,2295.0,2831.0,1.37,9.18,0.58,-1.06,-1.72,0.86,c3
4095.0,3015.0,3157.0,4095.0,2974.0,3043.0,2331.0,2811.0,3.21,9.08,1.83,-1.04,-1.37,0.41,c3
4095.0,2990.0,3134.0,4095.0,3058.0,2993.0,2335.0,2805.0,2.45,10.95,2.0,-0.76,-0.65,-0.62,c3
2907.0,2999.0,3157.0,4095.0,3136.0,3023.0,2405.0,2811.0,0.73,9.95,1.77,-0.28,-1.19,-0.69,c3
3131.0,3008.0,3153.0,4095.0,3174.0,3165.0,2512.0,2794.0,-0.19,10.34,0.62,0.37,-1.24,-0.51,c3
3136.0,3007.0,3139.0,4095.0,3139.0,3181.0,2512.0,2741.0,-0.06,9.31,0.38,0.31,-0.49,-0.79,c3
3250.0,3001.0,3143.0,4095.0,3008.0,3091.0,2448.0,2627.0,0.09,9.64,0.25,0.82,-1.09,-0.36,c3
3425.0,3019.0,3153.0,4095.0,2894.0,2986.0,2352.0,2523.0,2.12,10.38,-0.67,0.82,-1.14,0.16,c3
3824.0,3012.0,3152.0,4095.0,2864.0,2959.0,2298.0,2672.0,-0.07,9.33,-0.71,0.22,-0.27,-0.49,c3
4095.0,3021.0,3166.0,4095.0,2864.0,2973.0,2313.0,2853.0,0.26,9.44,-0.74,0.41,-0.25,-0.41,c3
4095.0,3004.0,3153.0,4095.0,2870.0,2967.0,2310.0,2913.0,-0.32,9.48,-0.81,0.4,-0.11,-0.38,c3
4095.0,3002.0,3149.0,4095.0,2869.0,2978.0,2320.0,2939.0,-0.52,9.61,-1.92,0.43,-0.37,-0.09,c3
4095.0,3012.0,3152.0,4095.0,2894.0,2992.0,2323.0,2947.0,-0.66,10.13,-2.28,0.1,-0.29,-0.0,c3
4095.0,2995.0,3135.0,4095.0,2902.0,2986.0,2315.0,2832.0,-2.34,9.3,-1.32,-0.12,-0.22,0.21,c3
4095.0,3014.0,3152.0,4095.0,2919.0,3005.0,2346.0,2789.0,0.29,9.5,-0.99,-0.23,0.46,-0.07,c3
4095.0,3056.0,3197.0,4095.0,2931.0,3057.0,2406.0,2816.0,-1.78,8.07,-1.75,-0.35,2.31,-0.37,c3
4078.0,3107.0,3248.0,4095.0,2976.0,3148.0,2505.0,2804.0,0.44,10.22,-1.17,-0.52,0.38,0.04,c3
3874.0,3055.0,3181.0,4095.0,3010.0,3171.0,2559.0,2848.0,-2.75,9.25,0.05,-0.5,2.12,-0.63,c3
3335.0,3120.0,3251.0,4095.0,3079.0,3361.0,2771.0,3115.0,-0.66,9.6,-0.69,-0.27,0.71,-0.06,c3
3216.0,3123.0,3247.0,4095.0,2999.0,3440.0,2820.0,3138.0,-2.28,9.09,-0.74,-0.26,0.27,-0.11,c3
3280.0,3120.0,3258.0,4095.0,2915.0,3330.0,2624.0,2831.0,0.54,9.54,0.23,0.28,-0.2,-0.2,c3
4095.0,3121.0,3263.0,4095.0,2921.0,3248.0,2549.0,2662.0,-1.39,9.53,-0.77,-0.05,-0.3,0.49,c3
4095.0,3123.0,3271.0,4095.0,2928.0,3210.0,2521.0,2699.0,0.18,9.58,0.21,0.78,-0.05,0.35,c3
4095.0,3110.0,3259.0,4095.0,2944.0,3170.0,2519.0,2787.0,-1.07,9.69,-0.9,-0.27,0.19,-0.04,c3
3665.0,3103.0,3250.0,4095.0,2966.0,3184.0,2527.0,2838.0,1.02,9.55,0.56,0.01,0.15,-0.13,c3
3139.0,3094.0,3248.0,4095.0,3003.0,3201.0,2511.0,2845.0,0.56,9.16,0.11,-0.35,0.21,-0.24,c3
3088.0,3099.0,3248.0,4095.0,3055.0,3257.0,2544.0,2769.0,0.4,10.37,-0.62,0.52,1.3,-0.72,c3
3312.0,3107.0,3242.0,4095.0,3050.0,3319.0,2630.0,2794.0,-1.25,9.64,0.07,0.74,1.51,-0.35,c3
3234.0,3089.0,3225.0,4095.0,3117.0,3376.0,2691.0,2898.0,-2.21,8.68,-0.01,0.82,1.82,-0.57,c3
3127.0,3199.0,3346.0,4095.0,3184.0,3471.0,2775.0,3159.0,-1.1,9.37,-4.43,0.27,-3.37,1.49,c3
3111.0,2693.0,3057.0,4095.0,3207.0,3229.0,2468.0,2883.0,2.04,9.29,-1.86,-0.89,-4.38,0.46,c3
3125.0,2688.0,3071.0,4095.0,3255.0,3191.0,2469.0,2935.0,-0.1,9.93,-1.45,0.99,-3.29,0.15,c3
3123.0,2642.0,3050.0,4095.0,3193.0,3039.0,2405.0,2833.0,1.16,9.26,-2.13,0.8,-1.71,0.48,c3
3199.0,2608.0,3038.0,3935.0,3164.0,3010.0,2299.0,2695.0,0.82,8.34,-2.27,0.42,-0.05,1.15,c3
3194.0,2598.0,3041.0,3285.0,3045.0,2977.0,2296.0,2595.0,-0.71,9.17,-2.81,0.1,0.1,0.77,c3
3221.0,2640.0,3045.0,3440.0,3035.0,2931.0,2282.0,2559.0,1.05,10.35,-2.58,-0.65,-0.12,0.99,c3
3290.0,2739.0,3066.0,3583.0,3023.0,2942.0,2351.0,2559.0,5.52,11.6,-1.67,0.87,-1.95,0.18,c3
3314.0,2800.0,3062.0,3894.0,3030.0,2958.0,2285.0,2559.0,-0.91,7.73,-1.23,0.13,0.62,-1.14,c3
3325.0,2857.0,3091.0,4095.0,3037.0,2987.0,2329.0,2626.0,-0.02,10.03,-3.11,0.59,0.03,-0.72,c3
3306.0,2852.0,3100.0,4095.0,3088.0,3014.0,2384.0,2630.0,0.14,10.37,-4.03,0.19,0.14,-1.06,c3
3286.0,2866.0,3103.0,4095.0,3184.0,3095.0,2654.0,2653.0,3.31,9.32,-3.29,-0.22,0.92,-1.64,c3
3302.0,2981.0,3150.0,4095.0,3245.0,3202.0,2555.0,2770.0,0.24,8.74,-5.61,-0.4,4.63,-3.59,c3
3421.0,2861.0,2995.0,4095.0,3248.0,3046.0,2383.0,2598.0,-8.17,7.32,-3.44,-1.82,4.73,-1.99,c3
4095.0,3127.0,3239.0,4095.0,3142.0,3166.0,2666.0,2821.0,-5.2,8.67,-4.22,-1.12,0.92,1.44,c3
3222.0,2910.0,3027.0,4095.0,3085.0,3034.0,2431.0,2703.0,0.44,8.24,-4.27,-2.37,-2.97,2.62,c3
3045.0,2924.0,3043.0,4095.0,2995.0,3071.0,2480.0,2799.0,-0.59,9.59,-0.08,-0.37,-0.86,0.7,c3
3093.0,2935.0,3059.0,4095.0,2937.0,3137.0,2495.0,2761.0,2.41,9.93,-0.71,-0.65,-1.04,0.46,c3
3191.0,2935.0,3058.0,4095.0,2895.0,3111.0,2462.0,2722.0,-0.34,10.06,-0.63,-0.08,0.93,-0.02,c3
3279.0,2955.0,3081.0,4095.0,2993.0,3112.0,2469.0,2707.0,0.58,9.51,-0.94,-0.47,1.44,-0.13,c3
3229.0,2944.0,3059.0,4095.0,3161.0,3113.0,2512.0,2657.0,-1.67,9.68,-1.42,-0.26,2.74,-0.92,c3
2502.0,2930.0,3042.0,4095.0,3173.0,3173.0,2645.0,2758.0,-1.41,9.36,-0.19,-0.57,1.67,-0.35,c3
2172.0,2970.0,3090.0,4095.0,3041.0,3201.0,2592.0,2838.0,-1.02,9.84,0.06,-0.13,-0.14,0.28,c3
1571.0,2985.0,3088.0,4095.0,2974.0,3152.0,2511.0,2778.0,0.45,10.64,-0.16,0.19,-0.38,0.39,c3
1749.0,2973.0,3086.0,4095.0,2906.0,3114.0,2453.0,2714.0,0.31,9.25,-0.04,0.09,-0.66,0.56,c3
1980.0,2995.0,3094.0,4095.0,2870.0,3086.0,2419.0,2651.0,0.55,9.65,-0.56,0.22,-0.16,0.17,c3
1869.0,2995.0,3109.0,4095.0,2823.0,3035.0,2388.0,2615.0,0.72,9.8,-0.72,0.12,-0.68,0.56,c3
1564.0,2999.0,3117.0,4095.0,2797.0,3011.0,2362.0,2608.0,-0.34,9.54,-0.82,0.3,0.36,0.12,c3
1377.0,2992.0,3115.0,4095.0,2767.0,2986.0,2333.0,2618.0,1.29,9.87,-1.16,0.18,-0.12,0.47,c3
1339.0,2989.0,3105.0,4095.0,2751.0,2972.0,2322.0,2640.0,0.13,9.11,-0.91,-0.05,-0.13,0.36,c3
1335.0,2981.0,3100.0,4095.0,2744.0,2974.0,2322.0,2640.0,1.31,10.15,-1.34,0.06,-0.19,0.64,c3
1324.0,2949.0,3067.0,3746.0,2702.0,2965.0,2317.0,2608.0,2.35,9.61,-1.2,0.03,-0.31,0.57,c3
1314.0,2957.0,3063.0,3655.0,2704.0,2986.0,2327.0,2601.0,2.32,9.4,-1.62,-0.05,-0.11,0.18,c3
1333.0,2962.0,3083.0,3741.0,2777.0,3033.0,2388.0,2614.0,1.84,10.64,-2.36,-0.53,-0.1,0.28,c3
2978.0,2967.0,3060.0,4035.0,2871.0,3109.0,2473.0,2688.0,2.75,9.14,-1.18,-0.54,-0.37,0.21,c3
3013.0,2981.0,3071.0,4095.0,2957.0,3119.0,2480.0,2757.0,1.54,9.6,-0.45,-1.08,1.02,-0.99,c3
3023.0,3009.0,3102.0,4095.0,2982.0,3123.0,2419.0,2770.0,2.16,9.45,0.74,-0.48,0.2,-0.19,c3
3071.0,2999.0,3104.0,4095.0,2945.0,3099.0,2405.0,2691.0,2.03,9.13,0.47,0.2,-0.77,0.46,c3
3127.0,3023.0,3124.0,4095.0,2917.0,3058.0,2451.0,2676.0,1.86,9.26,0.05,-0.18,-0.14,0.23,c3
3131.0,3021.0,3125.0,4095.0,2903.0,3042.0,2377.0,2654.0,1.47,10.04,-0.4,-0.45,-0.11,0.12,c3
3109.0,2976.0,3071.0,4095.0,2922.0,3011.0,2336.0,2606.0,1.39,8.84,0.8,-0.81,-0.22,0.16,c3
3146.0,2992.0,3099.0,4095.0,2997.0,3043.0,2374.0,2615.0,1.97,9.67,0.49,-0.69,-0.05,0.16,c3
3149.0,2993.0,3095.0,4095.0,3051.0,3056.0,2398.0,2624.0,1.8,9.25,1.71,-0.51,0.15,0.12,c3
3131.0,2991.0,3103.0,4095.0,3120.0,3071.0,2415.0,2636.0,2.41,9.78,0.85,-0.8,0.02,0.11,c3
2624.0,3008.0,3120.0,4095.0,3216.0,3111.0,2459.0,2638.0,1.58,7.81,2.32,-0.46,-0.31,0.38,c3
2583.0,3026.0,3146.0,4095.0,3227.0,3135.0,2477.0,2662.0,2.51,9.19,2.14,-0.11,0.23,0.03,c3
2706.0,3031.0,3152.0,4095.0,3273.0,3159.0,2497.0,2682.0,2.76,8.88,3.19,0.2,0.2,-0.05,c3
2726.0,3011.0,3143.0,4095.0,3297.0,3175.0,2498.0,2673.0,3.12,9.37,2.15,0.4,-0.01,-0.16,c3
2701.0,3017.0,3151.0,4095.0,3279.0,3201.0,2500.0,2687.0,2.01,9.84,1.4,0.64,0.31,-0.17,c3
2705.0,3021.0,3149.0,4095.0,3266.0,3205.0,2512.0,2714.0,2.86,9.69,0.86,0.61,0.19,-0.45,c3
2756.0,2999.0,3094.0,4095.0,3298.0,3233.0,2609.0,2758.0,1.59,9.54,1.34,0.48,-0.1,-0.43,c3
2669.0,2979.0,3127.0,4095.0,3255.0,3207.0,2639.0,2795.0,1.25,9.22,1.2,0.64,0.05,-0.4,c3
2171.0,2982.0,3105.0,4095.0,3171.0,3146.0,2607.0,2729.0,0.38,7.46,0.96,1.24,-0.3,-0.03,c3
1535.0,2877.0,3005.0,4095.0,3090.0,3015.0,2425.0,2559.0,1.52,9.76,-1.62,0.25,-0.62,-0.18,c3
1690.0,2943.0,3068.0,4095.0,3102.0,3056.0,2454.0,2513.0,2.89,9.66,-1.78,0.76,-2.26,-0.08,c3
1731.0,2943.0,3063.0,4095.0,2951.0,2998.0,2421.0,2459.0,2.75,8.33,0.3,0.01,-1.43,-0.37,c3
1649.0,2942.0,3053.0,4095.0,2899.0,2967.0,2403.0,2466.0,0.78,10.5,-1.81,-0.32,-0.51,-0.45,c3
1633.0,3007.0,3120.0,4095.0,2932.0,3019.0,2406.0,2509.0,1.16,10.12,-0.47,-0.01,-0.89,0.13,c3
1731.0,3015.0,3120.0,4095.0,2928.0,3008.0,2386.0,2651.0,-0.42,10.02,-1.85,-0.75,-0.32,0.29,c3
2667.0,2997.0,3087.0,4095.0,2959.0,3023.0,2407.0,2715.0,1.28,9.89,-0.3,-0.26,-0.31,0.29,c3
3106.0,2977.0,3069.0,4095.0,3023.0,3081.0,2453.0,2736.0,-0.09,8.6,0.42,-0.52,0.0,-0.52,c3
3056.0,2896.0,3069.0,4095.0,3120.0,3186.0,2502.0,2753.0,0.8,9.94,-0.16,0.02,-0.25,-0.2,c3
3040.0,2880.0,3057.0,4095.0,3167.0,3249.0,2553.0,2751.0,1.61,9.27,-0.2,-0.46,-0.34,-0.39,c3
2913.0,2953.0,3059.0,4095.0,3194.0,3248.0,2559.0,2703.0,-0.34,9.96,-1.39,-0.42,-0.16,0.07,c3
2849.0,2946.0,3063.0,4095.0,2986.0,3071.0,2470.0,2539.0,-1.19,8.63,-0.03,-0.31,-0.02,0.33,c3
3091.0,2954.0,3056.0,4095.0,2768.0,2899.0,2321.0,2491.0,0.6,9.73,-0.07,-0.4,0.41,0.01,c3
3216.0,2957.0,3079.0,4095.0,2767.0,2895.0,2284.0,2640.0,0.75,9.88,-0.02,0.03,0.0,0.28,c3
3426.0,2959.0,3084.0,4095.0,2791.0,2913.0,2282.0,2764.0,0.39,10.42,-0.61,0.55,0.55,0.15,c3
3485.0,2955.0,3093.0,4095.0,2801.0,2926.0,2287.0,2819.0,0.84,9.35,-0.56,0.41,0.69,0.04,c3
3391.0,2960.0,3084.0,4095.0,2818.0,2937.0,2304.0,2842.0,1.92,9.58,-1.61,0.51,0.86,-0.08,c3
3030.0,2927.0,3056.0,4095.0,2829.0,2944.0,2310.0,2755.0,2.41,10.23,-1.3,-0.53,1.76,-0.61,c3
2893.0,2944.0,3059.0,4095.0,2979.0,3039.0,2384.0,2559.0,1.59,9.3,0.01,-0.31,2.04,-0.96,c3
2913.0,3104.0,3221.0,4095.0,3085.0,3275.0,2649.0,2802.0,-0.37,9.75,-0.77,-0.17,2.45,-1.01,c3
2945.0,3007.0,3123.0,4095.0,3071.0,3245.0,2641.0,2878.0,-2.21,9.04,-1.0,-0.28,1.34,-0.46,c3
3056.0,3026.0,3137.0,4095.0,3059.0,3324.0,2726.0,3061.0,-0.79,9.3,-1.28,0.44,-0.4,0.28,c3
3070.0,3056.0,3153.0,4095.0,3035.0,3409.0,2770.0,3254.0,0.65,9.76,0.2,-0.14,-0.3,0.41,c3
3147.0,2976.0,3071.0,4095.0,2958.0,3264.0,2598.0,2934.0,-0.51,9.61,0.36,0.43,0.66,0.13,c3
3270.0,2965.0,3082.0,4095.0,2817.0,3059.0,2448.0,2599.0,-0.45,9.47,-0.43,1.47,0.18,0.66,c3
3479.0,3011.0,3137.0,3891.0,2746.0,3005.0,2432.0,2612.0,-0.29,10.43,-2.62,-0.15,0.78,0.15,c3
4095.0,3062.0,3197.0,3888.0,2786.0,3027.0,2438.0,2774.0,1.24,9.31,-1.53,-0.13,-1.23,0.89,c3
4095.0,3165.0,3285.0,3974.0,2817.0,3130.0,2526.0,2929.0,0.07,9.13,-1.57,-0.33,-0.57,0.22,c3
4095.0,3159.0,3291.0,4095.0,2865.0,3135.0,2512.0,2959.0,0.96,10.04,-1.04,-0.07,-0.84,0.63,c3
4095.0,3155.0,3283.0,4095.0,2897.0,3153.0,2535.0,2960.0,-0.16,9.28,-0.25,-0.06,-0.5,0.68,c3
4095.0,3136.0,3261.0,4095.0,2938.0,3183.0,2612.0,2756.0,1.1,9.27,-0.09,-0.38,-0.05,0.22,c3
3440.0,3063.0,3184.0,4095.0,3011.0,3223.0,2592.0,2753.0,1.25,10.06,0.12,-0.27,-0.2,0.33,c3
3201.0,3030.0,3152.0,4095.0,3013.0,3268.0,2671.0,2725.0,1.43,9.44,1.0,-0.23,-0.59,0.34,c3
3248.0,3023.0,3145.0,4095.0,2992.0,3258.0,2611.0,2608.0,2.36,9.86,-0.17,0.34,-0.84,0.52,c3
3234.0,3025.0,3152.0,4095.0,2943.0,3241.0,2559.0,2548.0,2.97,9.3,-0.93,0.03,-0.71,0.09,c3
3248.0,3018.0,3147.0,4095.0,2877.0,3152.0,2510.0,2533.0,2.48,9.79,-1.31,-0.18,-0.17,-0.47,c3
3408.0,3035.0,3164.0,4095.0,2854.0,3071.0,2448.0,2685.0,2.06,8.56,-0.61,-0.41,-0.37,-0.3,c3
3867.0,3037.0,3161.0,4095.0,2823.0,3019.0,2384.0,2845.0,0.91,10.52,-1.41,-0.1,0.41,-0.62,c3
3977.0,3030.0,3173.0,4031.0,2829.0,3018.0,2382.0,2910.0,1.95,10.53,-1.31,0.11,0.11,-0.22,c3
3953.0,2990.0,3118.0,3966.0,2806.0,2992.0,2355.0,2917.0,1.76,10.83,-1.66,-0.06,0.39,-0.28,c3
3952.0,2978.0,3115.0,3968.0,2815.0,2992.0,2368.0,2928.0,1.76,9.45,-1.01,0.02,0.05,-0.17,c3
3914.0,2992.0,3120.0,4069.0,2835.0,3011.0,2392.0,2939.0,1.01,9.17,-0.91,0.08,0.16,-0.06,c3
3839.0,2990.0,3129.0,4095.0,2879.0,3046.0,2438.0,2798.0,-0.11,8.82,-0.67,-0.63,0.13,-0.24,c3
3666.0,2980.0,3103.0,4095.0,3023.0,3163.0,2549.0,2637.0,1.63,10.86,-0.75,-0.42,0.51,-0.05,c3
2389.0,3053.0,3164.0,4095.0,3196.0,3423.0,2891.0,2927.0,0.86,9.28,-0.06,-0.46,0.35,-0.18,c3
2889.0,2987.0,3105.0,4095.0,3284.0,3458.0,2977.0,3008.0,-0.58,10.11,-0.95,-0.62,1.18,-0.45,c3
2931.0,2959.0,3071.0,4095.0,3319.0,3434.0,2929.0,2928.0,0.98,9.74,-0.15,-0.26,0.18,-0.13,c3
2938.0,2967.0,3058.0,4095.0,3216.0,3321.0,2736.0,2636.0,-1.18,9.27,-0.55,0.63,0.15,-0.14,c3
2502.0,3024.0,3139.0,4095.0,3017.0,3202.0,2622.0,2543.0,0.23,9.78,-0.96,0.52,0.48,0.48,c3
1727.0,2944.0,3067.0,4095.0,2928.0,2998.0,2435.0,2559.0,0.66,8.95,0.66,0.21,0.9,0.59,c3
1566.0,2960.0,3086.0,4095.0,2864.0,2955.0,2429.0,2710.0,1.59,9.36,1.8,0.24,0.59,0.44,c3
1442.0,2946.0,3063.0,4095.0,2838.0,2925.0,2391.0,2778.0,2.41,8.54,2.04,-0.46,0.88,-0.27,c3
1405.0,2958.0,3079.0,4095.0,2823.0,2946.0,2403.0,2822.0,1.09,9.37,0.41,0.14,1.52,-0.4,c3
1425.0,2949.0,3071.0,4095.0,2849.0,2972.0,2378.0,2803.0,0.11,8.85,0.56,-0.5,0.01,-0.0,c3
1633.0,2944.0,3062.0,4095.0,2944.0,3066.0,2468.0,2559.0,1.54,9.26,-0.93,-0.42,-0.75,-0.51,c3
2021.0,2931.0,3051.0,4095.0,3120.0,3248.0,2662.0,2626.0,0.93,8.83,0.5,-0.94,-0.84,-0.17,c3
2657.0,2928.0,3038.0,4095.0,3039.0,3295.0,2689.0,2635.0,1.29,8.1,0.36,-0.26,-0.68,-0.14,c3
2256.0,2943.0,3066.0,4095.0,2799.0,3025.0,2451.0,2541.0,-0.34,7.38,-0.41,-0.55,-0.32,-0.16,c3
2095.0,2934.0,3056.0,3920.0,2726.0,2918.0,2352.0,2719.0,1.48,9.34,0.24,-1.05,-0.2,0.05,c3
1874.0,2931.0,3054.0,3791.0,2719.0,2912.0,2326.0,2815.0,1.76,11.33,2.87,-0.72,0.2,-0.33,c3
1328.0,2929.0,3056.0,3878.0,2754.0,2927.0,2341.0,2836.0,-0.62,11.8,0.73,-0.65,1.05,-0.65,c3
1392.0,2936.0,3063.0,4095.0,2851.0,2977.0,2384.0,2787.0,-2.6,7.86,2.29,-0.82,0.15,0.32,c3
1421.0,2942.0,3057.0,4095.0,2961.0,3106.0,2503.0,2661.0,2.15,11.88,3.52,-0.25,-0.54,0.18,c3
1370.0,2927.0,3043.0,4095.0,2955.0,3122.0,2527.0,2629.0,0.79,10.81,5.28,-0.01,-0.03,0.11,c3
1367.0,2927.0,3043.0,4095.0,2880.0,3030.0,2432.0,2559.0,1.03,11.85,4.04,0.62,-0.13,0.15,c3
1361.0,2917.0,3055.0,4055.0,2771.0,2909.0,2353.0,2671.0,-0.09,9.89,2.37,1.07,-0.07,0.11,c3
1359.0,2922.0,3047.0,4055.0,2768.0,2903.0,2352.0,2736.0,0.68,9.76,1.39,0.99,-0.21,0.11,c3
1382.0,2918.0,3041.0,4095.0,2813.0,2924.0,2367.0,2703.0,0.59,9.33,0.08,0.56,-0.42,0.24,c3
1715.0,2919.0,3040.0,4095.0,2955.0,3047.0,2448.0,2550.0,0.99,9.81,-0.19,0.62,-0.68,0.32,c3
2516.0,2927.0,3027.0,4095.0,3267.0,3259.0,2647.0,2599.0,1.04,9.95,0.14,0.1,-0.3,0.02,c3
2587.0,2926.0,3029.0,4095.0,3280.0,3346.0,2767.0,2646.0,0.51,9.55,1.12,0.38,-0.11,0.01,c3
2701.0,2927.0,3024.0,4095.0,2909.0,3318.0,2753.0,2661.0,0.94,9.56,2.13,0.94,-0.33,0.61,c3
2021.0,2919.0,3030.0,4084.0,2733.0,2967.0,2497.0,2477.0,1.88,9.45,0.1,0.79,0.33,-0.11,c3
1347.0,2909.0,3039.0,3824.0,2713.0,2887.0,2374.0,2607.0,1.11,7.52,0.25,-0.02,-0.04,-0.09,c3
1354.0,2899.0,3033.0,3740.0,2723.0,2885.0,2352.0,2672.0,1.26,9.02,-0.48,0.61,0.54,-0.25,c3
1408.0,2903.0,3024.0,3966.0,2781.0,2922.0,2369.0,2676.0,-1.94,6.06,-0.57,0.65,-0.11,0.04,c3
1489.0,2909.0,3024.0,4095.0,2991.0,3120.0,2479.0,2545.0,2.2,9.57,-1.12,0.19,-0.83,0.03,c3
2415.0,2928.0,3025.0,4095.0,3120.0,3281.0,2701.0,2704.0,0.71,9.68,-0.83,0.87,0.22,-0.19,c3
2285.0,2925.0,3035.0,4095.0,2835.0,3021.0,2534.0,2544.0,1.75,8.73,-2.84,1.43,-0.58,0.27,c3
2121.0,2941.0,3058.0,3833.0,2743.0,2926.0,2381.0,2661.0,1.35,9.41,-5.25,-0.1,0.47,-0.36,c3
1995.0,2947.0,3071.0,3375.0,2705.0,2914.0,2349.0,2783.0,1.98,9.58,-7.49,-0.71,0.45,-0.87,c3
1980.0,2917.0,3037.0,3408.0,2737.0,2922.0,2659.0,2785.0,0.67,8.83,-5.54,-2.19,0.13,-1.06,c3
2011.0,2930.0,3056.0,3697.0,2832.0,3029.0,2559.0,2667.0,0.08,7.42,-1.06,-3.03,0.37,-1.26,c3
1367.0,2962.0,3069.0,4049.0,3054.0,3230.0,2625.0,2634.0,-1.28,8.71,3.65,-2.51,-0.34,-0.47,c3
1393.0,2971.0,3088.0,4095.0,3093.0,3312.0,2743.0,2732.0,-1.88,8.66,4.46,-1.13,0.87,-0.68,c3
1392.0,2957.0,3070.0,4095.0,2958.0,3215.0,2630.0,2608.0,-2.36,11.85,4.11,-0.43,-0.13,-0.1,c3
1361.0,2951.0,3087.0,4069.0,2807.0,2980.0,2382.0,2624.0,-2.65,9.05,3.62,-0.77,0.12,-0.18,c3
1362.0,2942.0,3071.0,4004.0,2800.0,2960.0,2342.0,2747.0,-1.36,8.36,3.14,-0.88,0.09,-0.2,c3
1369.0,2942.0,3081.0,4095.0,2839.0,2992.0,2385.0,2762.0,-1.28,8.88,2.96,-0.35,0.36,-0.04,c3
1411.0,2965.0,3087.0,4095.0,2976.0,3152.0,2559.0,2643.0,-4.12,6.96,5.04,-1.33,0.13,-0.16,c3
1424.0,2972.0,3071.0,4095.0,3174.0,3376.0,2763.0,2852.0,-2.23,8.85,6.88,0.67,-0.13,0.39,c3
1394.0,2956.0,3056.0,4095.0,3065.0,3334.0,2743.0,2804.0,-2.26,8.81,5.74,1.5,-0.23,0.37,c3
1365.0,2928.0,3043.0,4095.0,2801.0,2984.0,2416.0,2526.0,0.06,8.14,4.0,2.74,-1.76,0.69,c3
1392.0,2925.0,3049.0,4095.0,2800.0,2921.0,2351.0,2664.0,-0.45,8.62,0.58,1.1,-0.65,-0.01,c3
1443.0,2935.0,3071.0,4095.0,2859.0,2959.0,2549.0,2738.0,0.81,8.41,-0.24,2.87,-1.62,0.19,c3
1596.0,2942.0,3079.0,4095.0,2912.0,2980.0,2455.0,2817.0,-1.34,9.06,-1.51,2.21,-2.15,-0.29,c3
1585.0,3013.0,3147.0,4095.0,3061.0,3152.0,2523.0,2811.0,-0.05,9.55,-3.58,1.5,-2.53,-0.81,c3
1418.0,2940.0,3053.0,4095.0,2976.0,3195.0,2611.0,2768.0,-1.02,7.7,-3.57,1.15,-1.76,-0.25,c3
1399.0,2949.0,3081.0,4095.0,2913.0,3226.0,2627.0,2781.0,-2.3,9.84,-4.64,0.52,-0.18,-0.18,c3
1388.0,2991.0,3110.0,4095.0,2882.0,3178.0,2544.0,2703.0,-3.21,8.2,-3.25,0.24,-0.46,0.09,c3
1355.0,2988.0,3120.0,4095.0,2769.0,3036.0,2384.0,2709.0,-2.29,8.94,-4.8,0.4,0.14,0.1,c3
1345.0,2987.0,3120.0,4095.0,2775.0,3017.0,2347.0,2823.0,-1.65,9.39,-4.27,0.48,0.19,0.31,c3
1338.0,2982.0,3119.0,4079.0,2775.0,3025.0,2338.0,2884.0,-1.67,8.78,-3.85,0.05,0.49,0.27,c3
1328.0,2980.0,3119.0,3932.0,2779.0,3035.0,2369.0,2929.0,-1.52,9.43,-4.05,0.27,0.58,0.12,c3
1329.0,2979.0,3115.0,3888.0,2783.0,3047.0,2401.0,2951.0,-1.4,8.5,-3.96,-0.06,0.38,0.13,c3
1323.0,2983.0,3123.0,3943.0,2789.0,3059.0,2365.0,2982.0,-0.55,9.15,-4.78,-0.26,0.36,0.36,c3
1325.0,2986.0,3119.0,3995.0,2791.0,3057.0,2581.0,2986.0,-2.15,7.47,-4.39,-1.01,0.61,0.69,c3
1322.0,2987.0,3121.0,4095.0,2817.0,3050.0,2595.0,2874.0,0.56,9.5,-4.24,-0.43,-0.1,1.01,c3
1341.0,2999.0,3130.0,4095.0,2902.0,3106.0,2465.0,2714.0,0.56,7.95,-3.19,-1.11,0.33,0.87,c3
3174.0,3003.0,3121.0,4095.0,2961.0,3174.0,2854.0,2814.0,1.48,9.76,-3.34,-0.63,1.03,-0.0,c3
3151.0,2995.0,3106.0,4095.0,3003.0,3220.0,2706.0,2858.0,1.63,9.9,-2.19,-1.06,0.39,0.01,c3
3151.0,3007.0,3103.0,4095.0,3067.0,3267.0,2586.0,2929.0,0.94,10.21,-1.15,-0.82,0.27,0.16,c3
3107.0,2986.0,3088.0,4095.0,3173.0,3287.0,2559.0,2875.0,1.78,9.72,-0.06,-0.93,-0.02,0.04,c3
3158.0,2956.0,3088.0,4095.0,3151.0,3274.0,2533.0,2763.0,0.1,8.37,-1.42,-0.51,0.17,0.13,c3
3170.0,2963.0,3083.0,4095.0,3125.0,3184.0,2450.0,2640.0,1.43,9.02,-0.58,-0.65,0.19,0.44,c3
3173.0,2971.0,3083.0,4095.0,3085.0,3035.0,2503.0,2495.0,1.0,9.05,-0.63,-0.6,0.52,0.29,c3
3156.0,2960.0,3086.0,4095.0,3114.0,3023.0,2300.0,2463.0,1.88,9.02,1.08,-0.81,0.32,0.47,c3
3099.0,2963.0,3087.0,4095.0,3179.0,3021.0,2287.0,2474.0,1.81,9.01,1.56,-0.49,0.61,0.24,c3
2950.0,2960.0,3083.0,4095.0,3280.0,3061.0,2304.0,2495.0,2.81,8.84,1.36,-0.3,0.43,0.13,c3
2492.0,2960.0,3087.0,4095.0,3295.0,3070.0,2334.0,2505.0,2.41,8.68,1.17,0.13,0.16,-0.04,c3
2374.0,2951.0,3081.0,4095.0,3325.0,3059.0,2384.0,2544.0,2.44,8.78,1.1,-0.16,0.21,-0.14,c3
2391.0,2931.0,3071.0,4095.0,3339.0,3103.0,2448.0,2627.0,2.46,9.29,1.09,-0.3,0.2,-0.48,c3
2041.0,2929.0,3081.0,4095.0,3237.0,3153.0,2503.0,2667.0,1.21,8.87,1.97,0.25,-0.01,-0.22,c3
1519.0,2937.0,3079.0,4095.0,3023.0,3120.0,2544.0,2679.0,0.89,9.83,0.76,-0.01,0.21,-0.24,c3
1489.0,2929.0,3085.0,4095.0,2989.0,3071.0,2485.0,2587.0,2.14,11.8,0.39,0.24,0.07,0.41,c3
1576.0,2927.0,3067.0,4095.0,3017.0,3056.0,2383.0,2528.0,2.73,8.47,1.59,-0.17,0.0,0.34,c3
1535.0,2947.0,3091.0,4095.0,2991.0,3038.0,2370.0,2602.0,3.09,9.3,1.0,-0.07,-0.22,0.38,c3
