hall_1,hall_2,hall_3,flex_t,flex_i,flex_m,flex_r,flex_p,accel_x,accel_y,accel_z,gyro_x,gyro_y,gyro_z,hand,sign
3333.0,3811.0,4095.0,4095.0,3990.0,3071.0,4095.0,4095.0,-1.4,8.4,8.99,0.02,-0.08,0.01,0.0,c
3354.0,3823.0,4095.0,4095.0,3993.0,3089.0,4095.0,4095.0,-0.75,8.39,9.24,-0.02,0.08,-0.08,0.0,c
3333.0,3792.0,4095.0,4095.0,3983.0,3085.0,4095.0,4095.0,-1.13,8.08,9.83,-0.1,-0.11,-0.25,0.0,c
3344.0,3799.0,4095.0,4095.0,3981.0,3071.0,4095.0,4095.0,-1.29,8.01,9.9,-0.02,0.0,-0.21,0.0,c
3331.0,3809.0,4095.0,4095.0,4013.0,3088.0,4095.0,4095.0,-1.51,8.15,9.49,0.05,-0.07,-0.23,0.0,c
3340.0,3814.0,4095.0,4095.0,3984.0,3086.0,4095.0,4095.0,-1.46,8.02,9.81,-0.07,-0.03,-0.12,0.0,c
3338.0,3821.0,4095.0,4095.0,4001.0,3088.0,4095.0,4095.0,-1.17,8.06,9.66,-0.1,-0.04,-0.11,0.0,c
3328.0,3799.0,4095.0,4095.0,3990.0,3088.0,4095.0,4095.0,-1.08,7.97,9.92,-0.14,-0.11,-0.18,0.0,c
3354.0,3809.0,4095.0,4095.0,4016.0,3107.0,4095.0,4095.0,-1.11,7.83,10.1,-0.15,-0.07,-0.18,0.0,c
3335.0,3792.0,4095.0,4095.0,3999.0,3094.0,4095.0,4095.0,-1.26,7.7,10.36,-0.07,-0.1,-0.22,0.0,c
3341.0,3818.0,4095.0,4095.0,4003.0,3103.0,4095.0,4095.0,-1.23,7.61,10.47,-0.04,-0.0,-0.16,0.0,c
3339.0,3803.0,4095.0,4095.0,4010.0,3097.0,4095.0,4095.0,-1.23,7.73,10.15,-0.01,-0.04,-0.16,0.0,c
3341.0,3824.0,4095.0,4095.0,4011.0,3100.0,4095.0,4095.0,-1.23,7.72,10.23,-0.05,-0.07,-0.2,0.0,c
3346.0,3803.0,4095.0,4095.0,3995.0,3095.0,4095.0,4095.0,-1.04,7.59,10.34,-0.12,-0.03,-0.18,0.0,c
3341.0,3798.0,4095.0,4095.0,4020.0,3106.0,4095.0,4095.0,-1.19,7.44,10.68,-0.06,-0.03,-0.24,0.0,c
3344.0,3804.0,4095.0,4095.0,3997.0,3111.0,4095.0,4095.0,-1.44,7.52,10.51,-0.04,-0.03,-0.2,0.0,c
3333.0,3814.0,4095.0,4095.0,3995.0,3098.0,4095.0,4095.0,-1.38,7.44,10.56,-0.07,-0.06,-0.17,0.0,c
3344.0,3823.0,4095.0,4095.0,4007.0,3103.0,4095.0,4095.0,-1.24,7.33,10.88,-0.05,-0.02,-0.19,0.0,c
3331.0,3807.0,4095.0,4095.0,3996.0,3102.0,4095.0,4095.0,-1.13,7.38,10.65,-0.03,-0.0,-0.21,0.0,c
3354.0,3813.0,4095.0,4095.0,4007.0,3110.0,4095.0,4095.0,-1.35,7.33,10.68,-0.06,-0.01,-0.24,0.0,c
3339.0,3803.0,4095.0,4095.0,4000.0,3117.0,4095.0,4095.0,-2.33,7.43,10.18,0.05,0.07,-0.09,0.0,c
3348.0,3824.0,4095.0,4095.0,4016.0,3123.0,4095.0,4095.0,-2.11,7.32,10.4,0.07,0.02,-0.11,0.0,c
3341.0,3801.0,4095.0,4095.0,4005.0,3119.0,4095.0,4095.0,-2.13,7.32,10.53,0.14,0.09,-0.06,0.0,c
3347.0,3825.0,4095.0,4095.0,4026.0,3120.0,4095.0,4095.0,-2.05,7.58,10.08,0.19,0.12,-0.01,0.0,c
3342.0,3817.0,4095.0,4095.0,3997.0,3107.0,4095.0,4095.0,-2.07,7.86,9.66,0.17,0.04,-0.04,0.0,c
3354.0,3798.0,4095.0,4095.0,4016.0,3123.0,4095.0,4095.0,-2.27,7.78,9.78,0.05,0.0,-0.01,0.0,c
3337.0,3805.0,4095.0,4095.0,4010.0,3119.0,4095.0,4095.0,-3.16,7.4,10.85,0.18,-0.5,-0.02,0.0,c
3358.0,3831.0,4095.0,4095.0,4011.0,3109.0,4095.0,4095.0,-0.68,8.1,9.44,0.29,0.02,0.4,0.0,c
3353.0,3827.0,4095.0,4095.0,4005.0,3107.0,4095.0,4095.0,0.0,8.4,9.41,0.22,0.12,0.23,0.0,c
3343.0,3806.0,4095.0,4095.0,4000.0,3110.0,4095.0,4095.0,-0.18,8.52,9.39,0.13,-0.02,-0.11,0.0,c
3365.0,3792.0,4080.0,4095.0,4000.0,3115.0,4095.0,4095.0,-0.59,8.52,8.96,-0.02,-0.07,-0.21,0.0,c
3357.0,3773.0,4025.0,4095.0,4001.0,3118.0,4092.0,4095.0,-0.63,8.62,8.94,-0.11,0.08,-0.2,0.0,c
3358.0,3795.0,4080.0,4095.0,4007.0,3113.0,4079.0,4095.0,-0.78,8.41,9.31,-0.03,0.09,-0.24,0.0,c
3367.0,3793.0,4095.0,4095.0,3993.0,3100.0,4092.0,4095.0,-0.88,8.36,9.36,-0.08,0.1,-0.24,0.0,c
3350.0,3810.0,4095.0,4095.0,4017.0,3098.0,4095.0,4095.0,-1.07,8.14,9.68,0.03,0.22,-0.4,0.0,c
3344.0,3803.0,4095.0,4095.0,3994.0,3083.0,4095.0,4095.0,-1.33,8.09,9.46,-0.04,-0.01,-0.32,0.0,c
3337.0,3794.0,4095.0,4095.0,4019.0,3082.0,4095.0,4095.0,-1.5,8.07,9.52,-0.1,-0.07,-0.36,0.0,c
3319.0,3798.0,4095.0,4095.0,3984.0,3041.0,4095.0,4095.0,-1.6,8.17,9.23,-0.17,-0.03,-0.39,0.0,c
3316.0,3813.0,4095.0,4095.0,3933.0,2967.0,4071.0,4095.0,-1.84,7.59,10.24,-0.29,-0.07,-0.43,0.0,c
3303.0,3805.0,4095.0,4095.0,3904.0,2925.0,4021.0,4095.0,-2.29,7.17,10.48,-0.12,-0.08,-0.43,0.0,c
3306.0,3798.0,3846.0,4095.0,3913.0,2964.0,3879.0,4095.0,-2.13,7.84,9.79,0.04,0.05,-0.11,0.0,c
3283.0,3787.0,3830.0,4095.0,3887.0,2963.0,3888.0,4095.0,-2.12,7.81,9.8,0.07,0.04,-0.09,0.0,c
3285.0,3814.0,3850.0,4095.0,3901.0,2961.0,3899.0,4066.0,-2.26,7.78,9.88,0.11,0.07,-0.01,0.0,c
3273.0,3787.0,3824.0,4095.0,3888.0,2962.0,3904.0,4080.0,-1.94,8.0,9.69,0.09,0.01,-0.01,0.0,c
3280.0,3798.0,3843.0,4095.0,3911.0,2961.0,3919.0,4095.0,-1.83,8.06,9.48,0.11,0.12,0.0,0.0,c
3283.0,3802.0,3839.0,4095.0,3901.0,2960.0,3904.0,4081.0,-1.77,8.13,9.41,0.13,0.07,-0.0,0.0,c
3281.0,3802.0,3858.0,4095.0,3901.0,2972.0,3909.0,4087.0,-1.7,8.34,9.09,0.09,0.0,-0.05,0.0,c
3285.0,3801.0,3839.0,4095.0,3901.0,2961.0,3907.0,4095.0,-1.57,8.26,9.58,0.04,0.0,-0.05,0.0,c
3290.0,3809.0,3831.0,4095.0,3909.0,2967.0,3920.0,4095.0,-1.56,8.36,9.35,0.02,-0.03,-0.1,0.0,c
3281.0,3814.0,3850.0,4095.0,3902.0,2973.0,3931.0,4095.0,-1.46,8.35,9.23,-0.0,-0.05,-0.12,0.0,c
3279.0,3789.0,3825.0,4095.0,3895.0,2963.0,3911.0,4087.0,-1.38,8.33,9.31,-0.01,-0.05,-0.13,0.0,c
3287.0,3793.0,3846.0,4095.0,3903.0,2975.0,3937.0,4095.0,-1.43,8.23,9.46,0.02,-0.08,-0.14,0.0,c
3285.0,3792.0,3825.0,4095.0,3905.0,2973.0,3925.0,4095.0,-1.51,8.33,9.28,0.02,-0.08,-0.13,0.0,c
3286.0,3823.0,3839.0,4095.0,3920.0,2975.0,3934.0,4095.0,-1.27,8.33,9.31,-0.02,0.01,-0.01,0.0,c
3286.0,3789.0,3839.0,4095.0,3889.0,2971.0,3923.0,4095.0,-0.94,8.36,9.36,0.03,-0.08,-0.08,0.0,c
3283.0,3790.0,3846.0,4095.0,3915.0,2973.0,3931.0,4095.0,-1.0,8.43,9.18,-0.05,-0.03,-0.09,0.0,c
3282.0,3783.0,3839.0,4095.0,3907.0,2971.0,3921.0,4095.0,-0.96,8.36,9.35,-0.06,-0.08,-0.11,0.0,c
3293.0,3822.0,3853.0,4095.0,3888.0,2971.0,3950.0,4095.0,-0.91,8.3,9.53,-0.06,-0.06,-0.1,0.0,c
3281.0,3783.0,3866.0,4095.0,3877.0,2973.0,3931.0,4095.0,-0.86,8.22,9.67,-0.11,-0.02,-0.1,0.0,c
3298.0,3787.0,3891.0,4095.0,3890.0,2974.0,3953.0,4095.0,-0.66,8.24,9.55,-0.1,-0.07,-0.16,0.0,c
3295.0,3798.0,3920.0,4095.0,3891.0,2974.0,3957.0,4095.0,-1.15,7.62,10.42,-0.1,0.0,-0.24,0.0,c
3290.0,3789.0,3908.0,4095.0,3890.0,2973.0,3950.0,4095.0,-1.08,7.59,10.5,-0.06,-0.01,-0.21,0.0,c
3295.0,3791.0,3934.0,4095.0,3914.0,2983.0,3959.0,4095.0,-1.07,7.54,10.52,-0.01,0.01,-0.22,0.0,c
3280.0,3783.0,3906.0,4095.0,3897.0,2975.0,3953.0,4095.0,-0.88,7.58,10.53,0.0,0.06,-0.25,0.0,c
3294.0,3799.0,3983.0,4095.0,3911.0,2984.0,3959.0,4095.0,-1.24,7.48,10.68,0.0,0.17,-0.31,0.0,c
3299.0,3797.0,3991.0,4095.0,3888.0,2974.0,3965.0,4095.0,-1.57,7.55,10.32,0.08,0.04,-0.39,0.0,c
3295.0,3787.0,4005.0,4095.0,3906.0,2982.0,3964.0,4095.0,-1.81,7.53,10.25,0.06,0.1,-0.37,0.0,c
3282.0,3773.0,3984.0,4095.0,3916.0,2986.0,3965.0,4095.0,-2.25,7.44,10.29,0.06,0.07,-0.34,0.0,c
3280.0,3769.0,3987.0,4095.0,3903.0,2977.0,3954.0,4095.0,-2.5,7.42,10.24,0.07,0.02,-0.27,0.0,c
3300.0,3792.0,4002.0,4095.0,3902.0,2983.0,3968.0,4095.0,-2.43,7.46,10.16,0.06,0.05,-0.15,0.0,c
3284.0,3776.0,3997.0,4095.0,3899.0,2987.0,3967.0,4095.0,-2.27,7.55,10.1,0.11,0.02,-0.14,0.0,c
3283.0,3799.0,4016.0,4095.0,3907.0,2988.0,3953.0,4095.0,-2.32,7.69,9.78,0.06,-0.0,-0.17,0.0,c
3280.0,3773.0,3984.0,4095.0,3895.0,2992.0,3965.0,4095.0,-2.4,7.55,10.15,0.04,0.02,-0.15,0.0,c
3295.0,3781.0,4017.0,4095.0,3920.0,2992.0,3962.0,4095.0,-2.37,7.63,9.93,0.1,0.01,-0.12,0.0,c
3295.0,3771.0,3982.0,4095.0,3898.0,2990.0,3949.0,4095.0,-2.01,7.75,9.5,0.09,0.1,-0.12,0.0,c
3307.0,3813.0,4002.0,4095.0,3920.0,2992.0,3971.0,4095.0,-2.3,7.74,9.79,0.13,0.05,-0.14,0.0,c
3293.0,3781.0,3999.0,4095.0,3906.0,2983.0,3963.0,4095.0,-2.28,7.87,9.63,0.08,0.01,-0.16,0.0,c
3283.0,3794.0,3995.0,4095.0,3920.0,2992.0,3977.0,4095.0,-2.39,7.84,9.64,0.04,0.03,-0.16,0.0,c
3280.0,3777.0,4003.0,4095.0,3906.0,2991.0,3959.0,4095.0,-2.33,7.88,9.55,0.04,0.01,-0.16,0.0,c
3295.0,3809.0,3998.0,4095.0,3895.0,2988.0,3968.0,4095.0,-2.42,7.83,9.59,0.07,0.03,-0.15,0.0,c
3290.0,3798.0,4016.0,4095.0,3918.0,2992.0,3970.0,4095.0,-2.21,8.12,9.37,0.12,0.09,-0.06,0.0,c
3280.0,3790.0,4007.0,4095.0,3911.0,2992.0,3969.0,4095.0,-2.19,8.33,8.89,0.18,0.05,-0.1,0.0,c
3297.0,3793.0,4026.0,4095.0,3905.0,2993.0,3989.0,4095.0,-2.23,8.53,8.57,0.12,0.11,-0.09,0.0,c
3282.0,3778.0,4017.0,4095.0,3916.0,2989.0,3971.0,4095.0,-2.29,8.55,8.56,0.1,-0.02,-0.15,0.0,c
3306.0,3792.0,4020.0,4095.0,3910.0,2995.0,3985.0,4095.0,-2.31,8.52,8.55,0.07,0.03,-0.1,0.0,c
3295.0,3792.0,3990.0,4095.0,3911.0,2997.0,3961.0,4095.0,-2.3,8.48,8.66,0.06,0.01,-0.08,0.0,c
3295.0,3792.0,4035.0,4095.0,3918.0,3005.0,3987.0,4095.0,-2.04,8.62,8.44,0.11,-0.0,-0.01,0.0,c
3290.0,3775.0,4035.0,4095.0,3939.0,3005.0,3977.0,4095.0,-1.88,8.79,8.15,0.11,0.03,-0.02,0.0,c
3291.0,3791.0,4027.0,4095.0,3904.0,2994.0,3969.0,4095.0,-1.75,8.9,8.09,0.02,0.07,-0.05,0.0,c
3293.0,3787.0,4046.0,4095.0,3926.0,3003.0,3988.0,4095.0,-1.71,8.77,8.32,0.03,-0.08,-0.15,0.0,c
3295.0,3777.0,4032.0,4095.0,3908.0,2995.0,3964.0,4095.0,-1.76,8.76,8.28,0.05,-0.05,-0.14,0.0,c
3287.0,3807.0,4035.0,4095.0,3914.0,2999.0,3968.0,4095.0,-1.69,8.86,8.15,0.02,-0.06,-0.13,0.0,c
3282.0,3773.0,4030.0,4095.0,3914.0,2998.0,3956.0,4095.0,-1.64,8.8,8.31,0.02,-0.05,-0.11,0.0,c
3312.0,3799.0,4033.0,4095.0,3920.0,3006.0,3989.0,4095.0,-1.53,8.93,8.05,0.05,-0.08,-0.13,0.0,c
3303.0,3777.0,4031.0,4095.0,3918.0,3003.0,3959.0,4095.0,-1.37,8.9,8.15,-0.04,-0.0,-0.11,0.0,c
3301.0,3791.0,4042.0,4095.0,3917.0,3005.0,3977.0,4095.0,-1.44,8.8,8.32,-0.02,-0.03,-0.16,0.0,c
3289.0,3779.0,4037.0,4095.0,3909.0,2998.0,3962.0,4095.0,-1.7,8.75,8.44,0.02,-0.01,-0.16,0.0,c
3291.0,3782.0,4031.0,4095.0,3925.0,3009.0,3986.0,4095.0,-1.65,8.81,8.26,0.01,-0.04,-0.12,0.0,c
3293.0,3771.0,4016.0,4095.0,3932.0,3010.0,3984.0,4095.0,-1.45,8.83,8.32,0.0,-0.09,-0.12,0.0,c
3295.0,3783.0,4029.0,4095.0,3920.0,3003.0,3978.0,4095.0,-1.33,8.81,8.45,-0.02,-0.08,-0.14,0.0,c
3294.0,3773.0,4055.0,4095.0,3916.0,3012.0,3967.0,4095.0,-1.53,8.73,8.48,0.0,-0.03,-0.14,0.0,c
3300.0,3790.0,4080.0,4095.0,3913.0,3008.0,3986.0,4095.0,-1.41,8.8,8.48,-0.02,0.01,-0.12,0.0,c
3293.0,3771.0,4080.0,4095.0,3917.0,3002.0,3965.0,4095.0,-1.4,8.8,8.42,0.03,-0.05,-0.15,0.0,c
3298.0,3786.0,4080.0,4095.0,3925.0,3011.0,3981.0,4095.0,-1.46,8.81,8.4,-0.04,-0.06,-0.12,0.0,c
3293.0,3792.0,4083.0,4095.0,3906.0,2999.0,3971.0,4095.0,-1.36,8.69,8.65,-0.06,-0.05,-0.09,0.0,c
3300.0,3798.0,4095.0,4095.0,3936.0,3009.0,3979.0,4095.0,-1.11,8.71,8.69,-0.03,-0.05,-0.1,0.0,c
3289.0,3789.0,4095.0,4095.0,3903.0,3003.0,3970.0,4095.0,-1.07,8.72,8.76,-0.02,-0.07,-0.13,0.0,c
3301.0,3796.0,4095.0,4095.0,3919.0,3007.0,3965.0,4095.0,-1.05,8.68,8.8,-0.03,-0.03,-0.13,0.0,c
3311.0,3786.0,4095.0,4095.0,3917.0,3008.0,3981.0,4095.0,-1.01,8.76,8.66,-0.01,-0.02,-0.16,0.0,c
3281.0,3793.0,4095.0,4095.0,3916.0,3012.0,3965.0,4095.0,-1.13,8.74,8.67,-0.02,-0.03,-0.19,0.0,c
3295.0,3799.0,4095.0,4095.0,3936.0,3014.0,3978.0,4095.0,-1.12,8.63,8.79,-0.04,-0.03,-0.18,0.0,c
3301.0,3797.0,4095.0,4095.0,3905.0,3008.0,3981.0,4095.0,-1.09,8.64,8.88,-0.02,-0.04,-0.17,0.0,c
3287.0,3795.0,4095.0,4095.0,3935.0,3019.0,3984.0,4095.0,-1.16,8.59,8.95,-0.05,-0.04,-0.18,0.0,c
3291.0,3792.0,4091.0,4095.0,3917.0,3011.0,3979.0,4095.0,-1.23,8.51,9.03,-0.04,-0.02,-0.17,0.0,c
3305.0,3803.0,4095.0,4095.0,3923.0,3021.0,3998.0,4095.0,-1.08,8.54,9.04,-0.03,-0.03,-0.17,0.0,c
3294.0,3781.0,4095.0,4095.0,3919.0,3010.0,3973.0,4095.0,-1.11,8.59,8.92,-0.03,-0.04,-0.19,0.0,c
3303.0,3781.0,4095.0,4095.0,3918.0,3017.0,3991.0,4095.0,-1.17,8.53,9.05,-0.05,-0.05,-0.19,0.0,c
3293.0,3776.0,4095.0,4095.0,3925.0,3015.0,3982.0,4095.0,-1.24,8.37,9.29,-0.04,-0.01,-0.18,0.0,c
3295.0,3794.0,4095.0,4095.0,3931.0,3023.0,3997.0,4095.0,-1.19,8.43,9.2,-0.03,-0.01,-0.17,0.0,c
3294.0,3781.0,4095.0,4095.0,3932.0,3008.0,3992.0,4095.0,-1.24,8.42,9.22,-0.02,-0.04,-0.19,0.0,c
3296.0,3785.0,4095.0,4095.0,3942.0,3021.0,3979.0,4095.0,-1.29,8.23,9.49,-0.06,-0.01,-0.21,0.0,c
3293.0,3782.0,4095.0,4095.0,3923.0,3014.0,3981.0,4095.0,-1.48,8.15,9.66,-0.03,0.03,-0.16,0.0,c
3291.0,3803.0,4095.0,4095.0,3941.0,3019.0,3984.0,4095.0,-1.36,8.3,9.36,-0.01,-0.04,-0.2,0.0,c
3287.0,3792.0,4095.0,4095.0,3918.0,3010.0,3972.0,4095.0,-1.39,8.18,9.49,-0.03,-0.03,-0.2,0.0,c
3306.0,3788.0,4095.0,4095.0,3935.0,3024.0,3979.0,4095.0,-1.43,8.12,9.6,-0.03,-0.01,-0.19,0.0,c
3298.0,3793.0,4095.0,4095.0,3918.0,3018.0,3984.0,4095.0,-1.55,8.06,9.66,0.01,-0.01,-0.17,0.0,c
3291.0,3798.0,4095.0,4095.0,3935.0,3024.0,3993.0,4095.0,-1.33,8.14,9.58,-0.0,-0.02,-0.16,0.0,c
3284.0,3790.0,4095.0,4095.0,3921.0,3024.0,4001.0,4095.0,-1.53,8.1,9.57,-0.02,0.01,-0.18,0.0,c
3290.0,3791.0,4095.0,4095.0,3933.0,3023.0,3981.0,4095.0,-1.57,8.03,9.74,-0.03,-0.01,-0.17,0.0,c
3303.0,3787.0,4095.0,4095.0,3935.0,3023.0,3997.0,4095.0,-1.52,8.01,9.83,0.0,-0.02,-0.19,0.0,c
3284.0,3771.0,4095.0,4095.0,3926.0,3024.0,3983.0,4095.0,-1.66,7.99,9.76,0.01,0.0,-0.14,0.0,c
3300.0,3814.0,4095.0,4095.0,3940.0,3024.0,3988.0,4095.0,-1.48,8.01,9.76,0.02,-0.01,-0.15,0.0,c
3300.0,3778.0,4095.0,4095.0,3935.0,3024.0,3968.0,4095.0,-1.53,8.03,9.66,0.02,0.01,-0.16,0.0,c
3287.0,3783.0,4095.0,4095.0,3937.0,3021.0,3994.0,4095.0,-1.56,8.02,9.68,-0.03,-0.01,-0.15,0.0,c
3282.0,3775.0,4095.0,4095.0,3920.0,3024.0,3985.0,4095.0,-1.59,8.0,9.77,0.03,-0.03,-0.16,0.0,c
3301.0,3792.0,4095.0,4095.0,3938.0,3025.0,4008.0,4095.0,-1.58,8.03,9.72,0.03,-0.02,-0.15,0.0,c
3298.0,3813.0,4095.0,4095.0,3923.0,3019.0,3982.0,4095.0,-1.53,7.98,9.81,-0.0,-0.01,-0.15,0.0,c
3291.0,3799.0,4095.0,4095.0,3942.0,3029.0,3995.0,4095.0,-1.6,8.0,9.71,0.0,-0.0,-0.17,0.0,c
3283.0,3777.0,4095.0,4095.0,3935.0,3024.0,3974.0,4095.0,-1.67,8.01,9.7,-0.02,-0.04,-0.18,0.0,c
3303.0,3807.0,4095.0,4095.0,3925.0,3019.0,3982.0,4095.0,-1.57,7.92,9.93,-0.01,-0.01,-0.15,0.0,c
3289.0,3782.0,4095.0,4095.0,3921.0,3022.0,3983.0,4095.0,-1.53,7.99,9.77,-0.01,-0.02,-0.17,0.0,c
3286.0,3809.0,4095.0,4095.0,3934.0,3025.0,3989.0,4095.0,-1.4,7.91,9.99,-0.06,0.07,-0.2,0.0,c
3311.0,3801.0,4095.0,4095.0,3920.0,3024.0,3988.0,4095.0,-1.88,7.8,10.0,-0.01,0.0,-0.24,0.0,c
3302.0,3793.0,4095.0,4095.0,3924.0,3023.0,3993.0,4095.0,-1.84,7.79,9.98,-0.03,0.03,-0.2,0.0,c
3292.0,3785.0,4095.0,4095.0,3927.0,3024.0,3981.0,4095.0,-1.92,7.81,9.9,0.01,-0.02,-0.21,0.0,c
3294.0,3791.0,4095.0,4095.0,3926.0,3024.0,4007.0,4095.0,-1.98,7.78,9.9,-0.02,0.01,-0.15,0.0,c
3281.0,3792.0,4095.0,4095.0,3933.0,3027.0,4005.0,4095.0,-1.9,7.81,9.94,0.01,-0.02,-0.16,0.0,c
3297.0,3790.0,4095.0,4095.0,3920.0,3024.0,3996.0,4095.0,-1.87,7.8,9.98,0.0,-0.03,-0.16,0.0,c
3296.0,3807.0,4095.0,4095.0,3946.0,3033.0,4003.0,4095.0,-1.87,7.77,9.94,0.02,0.0,-0.15,0.0,c
3284.0,3798.0,4095.0,4095.0,3923.0,3023.0,3985.0,4095.0,-1.86,7.81,9.91,0.0,0.0,-0.16,0.0,c
3302.0,3794.0,4095.0,4095.0,3934.0,3027.0,4006.0,4095.0,-1.9,7.76,9.97,-0.0,-0.01,-0.17,0.0,c
3289.0,3795.0,4095.0,4095.0,3920.0,3025.0,3994.0,4095.0,-1.8,7.81,9.88,0.0,0.0,-0.16,0.0,c
3287.0,3794.0,4095.0,4095.0,3924.0,3026.0,3994.0,4095.0,-1.83,7.74,9.94,-0.01,-0.01,-0.2,0.0,c
3286.0,3779.0,4095.0,4095.0,3938.0,3027.0,3989.0,4095.0,-1.98,7.65,10.09,-0.01,0.01,-0.18,0.0,c
3309.0,3796.0,4095.0,4095.0,3937.0,3035.0,4004.0,4095.0,-1.97,7.72,10.0,0.04,0.03,-0.17,0.0,c
3290.0,3778.0,4095.0,4095.0,3922.0,3024.0,3985.0,4095.0,-2.01,7.75,9.92,0.03,0.01,-0.21,0.0,c
3307.0,3804.0,4095.0,4095.0,3933.0,3027.0,3997.0,4095.0,-2.13,7.66,10.03,0.03,0.02,-0.22,0.0,c
3303.0,3783.0,4095.0,4095.0,3927.0,3028.0,3993.0,4095.0,-2.15,7.69,9.97,0.05,0.04,-0.18,0.0,c
3287.0,3787.0,4095.0,4095.0,3921.0,3030.0,3991.0,4095.0,-2.13,7.72,9.91,0.06,0.06,-0.2,0.0,c
3282.0,3797.0,4095.0,4095.0,3953.0,3035.0,4001.0,4095.0,-2.35,7.7,9.88,0.04,0.02,-0.22,0.0,c
3293.0,3787.0,4095.0,4095.0,3941.0,3035.0,3999.0,4095.0,-2.42,7.85,9.59,0.05,0.04,-0.11,0.0,c
3294.0,3787.0,4095.0,4095.0,3922.0,3030.0,3997.0,4095.0,-2.57,7.73,9.84,0.09,0.06,-0.06,0.0,c
3311.0,3808.0,4095.0,4095.0,3951.0,3043.0,4007.0,4095.0,-2.38,8.01,9.42,0.11,0.02,-0.04,0.0,c
3298.0,3789.0,4095.0,4095.0,3915.0,3029.0,3997.0,4095.0,-2.18,8.12,9.26,0.1,0.06,-0.04,0.0,c
3293.0,3792.0,4095.0,4095.0,3942.0,3040.0,3985.0,4095.0,-2.23,8.17,9.23,0.04,-0.01,-0.1,0.0,c
3294.0,3799.0,4095.0,4095.0,3935.0,3035.0,3999.0,4095.0,-2.26,8.21,9.07,0.04,-0.1,-0.12,0.0,c
3282.0,3785.0,4095.0,4095.0,3926.0,3031.0,3979.0,4095.0,-2.12,8.28,9.14,-0.01,-0.05,-0.07,0.0,c
3303.0,3807.0,4095.0,4095.0,3931.0,3039.0,4013.0,4095.0,-1.63,8.31,8.95,-0.13,-0.03,-0.1,0.0,c
3298.0,3786.0,4095.0,4095.0,3926.0,3035.0,3987.0,4095.0,-1.88,8.29,9.15,-0.12,-0.34,0.12,0.0,c
3312.0,3810.0,4095.0,4095.0,3943.0,3039.0,4013.0,4095.0,-1.39,7.73,11.13,-0.46,0.01,0.13,0.0,c
3308.0,3792.0,4095.0,4095.0,3925.0,3034.0,3987.0,4095.0,-0.36,7.13,11.92,-0.26,0.39,0.37,0.0,c
3297.0,3805.0,4095.0,4095.0,3949.0,3029.0,4004.0,4095.0,-0.28,7.03,9.94,-0.07,0.46,0.41,0.0,c
3294.0,3792.0,4095.0,4095.0,3923.0,3027.0,3997.0,4095.0,0.11,7.96,10.3,-0.6,0.45,0.53,0.0,c
3295.0,3797.0,4095.0,4095.0,3934.0,3037.0,3994.0,4095.0,0.07,7.37,11.36,-0.75,0.79,0.71,0.0,c
3286.0,3792.0,4095.0,4095.0,3915.0,3031.0,3995.0,4095.0,-0.12,7.19,11.96,-0.31,0.75,0.66,0.0,c
3295.0,3813.0,4095.0,4095.0,3931.0,3044.0,4015.0,4095.0,-0.46,7.22,10.26,-0.07,0.4,0.11,0.0,c
3302.0,3796.0,4095.0,4095.0,3914.0,3029.0,4016.0,4095.0,-2.13,6.83,10.74,0.08,0.21,0.02,0.0,c
3283.0,3782.0,4095.0,4095.0,3915.0,3026.0,3985.0,4095.0,-0.93,6.74,10.73,0.23,-0.25,0.16,0.0,c
3291.0,3797.0,4095.0,4095.0,3937.0,3042.0,4002.0,4095.0,-0.29,7.4,11.7,-0.22,0.15,0.24,0.0,c
3279.0,3802.0,4095.0,4095.0,3921.0,3033.0,3999.0,4095.0,-0.7,7.35,12.06,0.17,0.23,0.29,0.0,c
3309.0,3794.0,4095.0,4095.0,3942.0,3040.0,4010.0,4095.0,0.21,8.53,9.89,0.07,-0.2,-0.21,0.0,c
3303.0,3783.0,4095.0,4095.0,3921.0,3019.0,3979.0,4095.0,0.13,8.27,9.11,-0.01,-0.23,-0.36,0.0,c
3322.0,3780.0,4095.0,4095.0,3935.0,3024.0,4000.0,4095.0,-0.47,8.06,10.05,-0.09,-0.16,-0.29,0.0,c
3301.0,3792.0,4095.0,4095.0,3941.0,3030.0,4002.0,4095.0,-0.3,7.98,9.91,0.1,-0.1,-0.24,0.0,c
3312.0,3789.0,4095.0,4095.0,3922.0,3031.0,4007.0,4095.0,-0.23,8.17,9.75,0.05,-0.16,-0.18,0.0,c
3305.0,3814.0,4095.0,4095.0,3936.0,3029.0,4012.0,4095.0,-0.11,8.07,10.49,-0.07,0.03,-0.08,0.0,c
3307.0,3770.0,4095.0,4095.0,3939.0,3033.0,4031.0,4095.0,0.3,8.42,9.66,0.04,-0.07,-0.18,0.0,c
3312.0,3812.0,4095.0,4095.0,3942.0,3035.0,4043.0,4095.0,0.21,8.26,9.62,0.04,-0.14,-0.32,0.0,c
3300.0,3810.0,4095.0,4095.0,3933.0,3024.0,4016.0,4095.0,-0.2,8.14,9.93,0.16,-0.03,-0.36,0.0,c
3311.0,3811.0,4095.0,4095.0,3947.0,3026.0,4031.0,4095.0,-0.7,8.23,9.07,0.22,-0.14,-0.38,0.0,c
3284.0,3770.0,4095.0,4095.0,3938.0,3029.0,4026.0,4095.0,-0.58,8.39,9.33,0.02,-0.08,-0.29,0.0,c
3311.0,3793.0,4095.0,4095.0,3947.0,3040.0,4038.0,4095.0,-0.51,8.38,9.45,-0.04,-0.14,-0.26,0.0,c
3291.0,3779.0,4095.0,4095.0,3924.0,3033.0,4033.0,4095.0,-0.26,8.19,9.95,0.07,-0.53,-0.54,0.0,c
3295.0,3796.0,4095.0,4095.0,3938.0,3042.0,4031.0,4095.0,-0.85,8.37,9.38,0.13,-0.33,-0.45,0.0,c
3312.0,3789.0,4095.0,4095.0,3952.0,3039.0,4037.0,4095.0,-0.99,8.15,9.58,-0.1,-0.02,-0.19,0.0,c
3297.0,3771.0,4095.0,4095.0,3939.0,3037.0,4032.0,4095.0,-0.45,8.3,9.6,0.03,0.04,-0.13,0.0,c
3301.0,3805.0,4095.0,4095.0,3941.0,3039.0,4048.0,4095.0,-0.77,8.15,9.52,-0.03,0.16,-0.1,0.0,c
3281.0,3792.0,4095.0,4095.0,3933.0,3025.0,4017.0,4095.0,-0.7,8.29,9.58,-0.07,-0.12,-0.16,0.0,c
3300.0,3819.0,4095.0,4095.0,3943.0,3038.0,4043.0,4095.0,-0.55,8.03,10.03,-0.01,-0.05,-0.15,0.0,c
3297.0,3787.0,4095.0,4095.0,3934.0,3038.0,4020.0,4095.0,-0.54,8.33,9.7,0.01,0.02,-0.17,0.0,c
3747.0,3824.0,2106.0,4095.0,3782.0,2966.0,3983.0,4095.0,-1.47,7.48,10.2,-0.1,-0.1,-0.24,0.0,c
3761.0,3831.0,2107.0,4095.0,3777.0,2978.0,4001.0,4095.0,-1.71,7.27,10.72,-0.1,-0.19,-0.28,0.0,c
3760.0,3819.0,2122.0,4095.0,3776.0,2979.0,3991.0,4095.0,-1.58,7.0,11.06,-0.09,-0.03,-0.18,0.0,c
3743.0,3824.0,2115.0,4095.0,3782.0,2975.0,3982.0,4095.0,-1.32,7.03,11.18,0.0,-0.05,-0.14,0.0,c
3751.0,3819.0,2123.0,4095.0,3791.0,2986.0,4014.0,4095.0,-1.35,7.18,10.82,0.07,-0.01,-0.17,0.0,c
3728.0,3808.0,2112.0,4095.0,3790.0,2980.0,3983.0,4095.0,-1.43,7.24,10.74,0.05,0.01,-0.19,0.0,c
3751.0,3845.0,2112.0,4095.0,3787.0,2975.0,3993.0,4095.0,-1.55,7.27,10.69,0.04,-0.0,-0.18,0.0,c
3731.0,3827.0,2106.0,4095.0,3789.0,2981.0,3984.0,4095.0,-1.57,7.21,10.81,0.03,-0.03,-0.17,0.0,c
3742.0,3816.0,2109.0,4095.0,3806.0,2990.0,4001.0,4095.0,-1.47,7.19,10.78,0.02,-0.04,-0.16,0.0,c
3728.0,3811.0,2097.0,4095.0,3792.0,2986.0,3998.0,4095.0,-1.46,7.27,10.71,0.01,-0.06,-0.2,0.0,c
3754.0,3812.0,2100.0,4095.0,3803.0,2992.0,4019.0,4095.0,-1.53,7.21,10.82,0.04,-0.04,-0.19,0.0,c
3733.0,3810.0,2107.0,4095.0,3801.0,2992.0,4007.0,4095.0,-1.55,7.24,10.68,0.02,-0.01,-0.16,0.0,c
3757.0,3845.0,2102.0,4095.0,3792.0,2991.0,4002.0,4095.0,-1.59,7.3,10.66,0.03,-0.04,-0.16,0.0,c
3734.0,3824.0,2107.0,4095.0,3797.0,2992.0,4007.0,4095.0,-1.46,7.24,10.73,0.01,-0.1,-0.2,0.0,c
3735.0,3842.0,2081.0,4095.0,3798.0,2989.0,3995.0,4095.0,-1.36,7.08,11.07,0.04,-0.1,-0.21,0.0,c
3760.0,3827.0,2068.0,4095.0,3799.0,2991.0,4013.0,4095.0,-1.47,7.31,10.73,0.07,0.05,-0.2,0.0,c
3741.0,3829.0,2071.0,4095.0,3793.0,2987.0,3986.0,4095.0,-1.7,7.44,10.35,0.05,-0.1,-0.29,0.0,c
3763.0,3826.0,2064.0,4095.0,3805.0,2992.0,3997.0,4095.0,-1.74,7.28,10.58,-0.04,-0.06,-0.24,0.0,c
3750.0,3831.0,2061.0,4095.0,3794.0,2989.0,4007.0,4095.0,-1.64,7.13,10.87,-0.03,-0.12,-0.23,0.0,c
3735.0,3853.0,2064.0,4095.0,3814.0,2998.0,4016.0,4095.0,-1.68,7.04,11.02,0.05,-0.06,-0.2,0.0,c
3753.0,3839.0,1995.0,4095.0,3818.0,3006.0,4037.0,4095.0,-1.6,7.2,10.78,-0.01,0.02,-0.14,0.0,c
3725.0,3827.0,2000.0,4095.0,3820.0,2999.0,4027.0,4095.0,-1.75,7.1,10.85,0.01,-0.0,-0.15,0.0,c
3744.0,3841.0,2004.0,4095.0,3818.0,3002.0,4033.0,4095.0,-1.7,7.09,10.92,0.01,-0.02,-0.13,0.0,c
3735.0,3842.0,2007.0,4095.0,3818.0,2995.0,4013.0,4095.0,-1.56,7.19,10.78,-0.0,0.0,-0.13,0.0,c
3754.0,3852.0,2010.0,4095.0,3826.0,3004.0,4031.0,4095.0,-1.64,7.13,10.85,0.02,-0.01,-0.16,0.0,c
3742.0,3825.0,2015.0,4095.0,3811.0,2994.0,4014.0,4095.0,-1.68,7.07,10.9,0.02,-0.01,-0.16,0.0,c
3750.0,3835.0,2000.0,4095.0,3837.0,3007.0,4031.0,4095.0,-1.62,7.09,10.89,0.0,-0.04,-0.14,0.0,c
3727.0,3835.0,2006.0,4095.0,3818.0,3008.0,4018.0,4095.0,-1.57,7.16,10.85,0.03,-0.05,-0.15,0.0,c
3735.0,3833.0,2015.0,4095.0,3830.0,3007.0,4027.0,4095.0,-1.45,7.12,10.89,0.02,0.01,-0.14,0.0,c
3727.0,3831.0,2005.0,4095.0,3824.0,3007.0,4028.0,4095.0,-1.59,7.15,10.77,-0.0,-0.02,-0.16,0.0,c
3757.0,3854.0,2014.0,4095.0,3836.0,3008.0,4029.0,4095.0,-1.64,7.15,10.81,0.01,0.01,-0.14,0.0,c
3742.0,3833.0,2014.0,4095.0,3826.0,3004.0,4047.0,4095.0,-1.59,7.07,10.96,0.02,-0.02,-0.15,0.0,c
3742.0,3840.0,2004.0,4095.0,3822.0,3003.0,4017.0,4095.0,-1.59,7.08,10.93,0.04,-0.01,-0.15,0.0,c
3739.0,3847.0,2003.0,4095.0,3838.0,3014.0,4029.0,4095.0,-1.58,7.18,10.81,0.01,-0.01,-0.14,0.0,c
3757.0,3815.0,1986.0,4095.0,3824.0,3009.0,4026.0,4095.0,-1.57,7.09,10.92,0.01,0.01,-0.12,0.0,c
3759.0,3845.0,1973.0,4095.0,3839.0,3014.0,4045.0,4095.0,-1.54,7.16,10.87,0.07,0.01,-0.14,0.0,c
3742.0,3824.0,1969.0,4095.0,3823.0,3007.0,4020.0,4095.0,-1.48,7.17,10.81,0.04,0.0,-0.15,0.0,c
3767.0,3839.0,1969.0,4095.0,3834.0,3017.0,4038.0,4095.0,-1.54,7.2,10.75,0.01,-0.01,-0.16,0.0,c
3741.0,3831.0,1961.0,4095.0,3824.0,3010.0,4045.0,4095.0,-1.56,7.12,10.99,0.0,-0.02,-0.17,0.0,c
3765.0,3835.0,1963.0,4095.0,3831.0,3021.0,4041.0,4095.0,-1.58,7.13,10.88,0.01,-0.03,-0.15,0.0,c
3730.0,3827.0,1974.0,4095.0,3827.0,3020.0,4025.0,4095.0,-1.54,7.11,10.89,-0.0,-0.01,-0.14,0.0,c
3741.0,3849.0,1979.0,4095.0,3831.0,3019.0,4035.0,4095.0,-1.48,7.08,10.97,0.01,-0.02,-0.15,0.0,c
3751.0,3833.0,1978.0,4095.0,3824.0,3016.0,4037.0,4095.0,-1.53,7.1,10.93,0.01,-0.02,-0.15,0.0,c
3774.0,3838.0,1983.0,4095.0,3837.0,3025.0,4039.0,4095.0,-1.47,7.08,10.89,0.02,-0.0,-0.15,0.0,c
3760.0,3847.0,1979.0,4095.0,3828.0,3013.0,4028.0,4095.0,-1.58,7.1,10.93,0.01,-0.01,-0.14,0.0,c
3766.0,3839.0,1977.0,4095.0,3845.0,3023.0,4034.0,4095.0,-1.45,7.13,10.93,0.02,-0.02,-0.15,0.0,c
3763.0,3839.0,1967.0,4095.0,3827.0,3011.0,4021.0,4095.0,-1.5,7.1,10.91,0.01,-0.02,-0.15,0.0,c
3760.0,3845.0,1981.0,4095.0,3840.0,3018.0,4039.0,4095.0,-1.47,7.12,10.88,0.01,-0.02,-0.15,0.0,c
3757.0,3832.0,1977.0,4095.0,3830.0,3014.0,4007.0,4095.0,-1.44,7.12,10.91,0.0,-0.03,-0.16,0.0,c
3761.0,3843.0,1969.0,4095.0,3833.0,3017.0,4016.0,4095.0,-1.44,7.08,10.96,0.01,0.02,-0.15,0.0,c
3758.0,3843.0,1967.0,4095.0,3850.0,3024.0,4034.0,4095.0,-1.56,7.1,10.91,0.0,0.01,-0.15,0.0,c
3751.0,3825.0,1968.0,4095.0,3841.0,3021.0,4016.0,4095.0,-1.51,7.1,10.88,0.0,0.01,-0.14,0.0,c
3760.0,3845.0,1970.0,4095.0,3838.0,3018.0,4037.0,4095.0,-1.48,7.11,10.88,0.01,-0.01,-0.14,0.0,c
3760.0,3836.0,1967.0,4095.0,3830.0,3011.0,4027.0,4095.0,-1.49,7.09,10.92,0.01,0.0,-0.15,0.0,c
3747.0,3830.0,1909.0,4095.0,3863.0,3024.0,4048.0,4095.0,-1.48,7.06,11.04,0.02,0.0,-0.14,0.0,c
3759.0,3853.0,1901.0,4095.0,3827.0,3018.0,4048.0,4095.0,-1.55,7.1,10.87,0.01,0.0,-0.14,0.0,c
3769.0,3838.0,1897.0,4095.0,3851.0,3024.0,4065.0,4095.0,-1.46,7.13,10.89,0.03,-0.02,-0.15,0.0,c
3760.0,3839.0,1906.0,4095.0,3845.0,3012.0,4033.0,4095.0,-1.49,7.09,10.92,0.02,-0.0,-0.15,0.0,c
3763.0,3836.0,1895.0,4095.0,3855.0,3024.0,4049.0,4095.0,-1.52,7.08,10.9,0.02,-0.0,-0.15,0.0,c
3755.0,3830.0,1893.0,4095.0,3829.0,3018.0,4047.0,4095.0,-1.51,7.11,10.89,0.01,0.0,-0.14,0.0,c
3760.0,3837.0,1904.0,4095.0,3831.0,3023.0,4050.0,4095.0,-1.51,7.09,10.97,-0.0,0.01,-0.15,0.0,c
3777.0,3867.0,1904.0,4095.0,3845.0,3024.0,4058.0,4095.0,-1.52,7.1,10.88,0.03,-0.01,-0.14,0.0,c
3744.0,3856.0,1899.0,4095.0,3828.0,3013.0,4047.0,4095.0,-1.35,7.11,10.88,0.01,-0.0,-0.16,0.0,c
3750.0,3845.0,1904.0,4095.0,3851.0,3025.0,4054.0,4095.0,-1.54,7.03,10.95,0.01,0.0,-0.16,0.0,c
3751.0,3859.0,1887.0,4095.0,3839.0,3021.0,4042.0,4095.0,-1.5,7.09,10.88,0.01,-0.01,-0.13,0.0,c
3754.0,3851.0,1888.0,4095.0,3856.0,3024.0,4055.0,4095.0,-1.33,7.07,10.91,0.0,-0.03,-0.15,0.0,c
3745.0,3845.0,1893.0,4095.0,3851.0,3023.0,4048.0,4095.0,-1.48,7.04,10.99,0.0,0.01,-0.15,0.0,c
3747.0,3851.0,1905.0,4095.0,3857.0,3027.0,4071.0,4095.0,-1.55,7.04,10.95,0.01,-0.01,-0.15,0.0,c
3741.0,3841.0,1901.0,4095.0,3842.0,3019.0,4048.0,4095.0,-1.43,7.04,10.99,0.01,-0.0,-0.14,0.0,c
3776.0,3856.0,1894.0,4095.0,3867.0,3034.0,4054.0,4095.0,-1.45,7.04,11.01,-0.02,-0.01,-0.15,0.0,c
3748.0,3878.0,1903.0,4095.0,3841.0,3023.0,4050.0,4095.0,-1.48,7.01,11.02,0.0,-0.01,-0.15,0.0,c
3750.0,3862.0,1903.0,4095.0,3831.0,3021.0,4047.0,4095.0,-1.43,7.02,10.99,0.02,-0.0,-0.14,0.0,c
3775.0,3858.0,1902.0,4095.0,3865.0,3027.0,4057.0,4095.0,-1.43,7.05,10.97,0.0,0.01,-0.14,0.0,c
3760.0,3857.0,1902.0,4095.0,3842.0,3019.0,4048.0,4095.0,-1.51,7.02,11.0,0.0,-0.02,-0.16,0.0,c
3770.0,3866.0,1906.0,4095.0,3858.0,3029.0,4065.0,4095.0,-1.44,7.01,11.07,0.0,-0.02,-0.15,0.0,c
3760.0,3858.0,1904.0,4095.0,3849.0,3025.0,4049.0,4095.0,-1.39,7.01,11.03,0.01,-0.0,-0.15,0.0,c
3771.0,3863.0,1892.0,4095.0,3864.0,3030.0,4057.0,4095.0,-1.43,7.01,11.0,-0.01,-0.02,-0.15,0.0,c
3759.0,3856.0,1897.0,4095.0,3849.0,3022.0,4033.0,4095.0,-1.45,7.0,11.06,0.02,-0.01,-0.15,0.0,c
3775.0,3861.0,1903.0,4095.0,3861.0,3029.0,4041.0,4095.0,-1.49,7.04,10.96,0.05,-0.02,-0.14,0.0,c
3760.0,3851.0,1899.0,4095.0,3843.0,3025.0,4036.0,4095.0,-1.35,7.01,11.04,0.01,-0.01,-0.14,0.0,c
3762.0,3874.0,1914.0,4095.0,3856.0,3039.0,4055.0,4095.0,-1.31,7.03,11.02,0.01,-0.0,-0.15,0.0,c
3751.0,3852.0,1902.0,4095.0,3845.0,3028.0,4048.0,4095.0,-1.36,7.01,11.07,0.01,-0.0,-0.14,0.0,c
3760.0,3854.0,1909.0,4095.0,3856.0,3035.0,4050.0,4095.0,-1.38,7.06,10.95,0.03,-0.01,-0.15,0.0,c
3750.0,3858.0,1907.0,4095.0,3848.0,3026.0,4049.0,4095.0,-1.24,7.04,11.06,0.0,-0.01,-0.15,0.0,c
3766.0,3882.0,1915.0,4095.0,3857.0,3035.0,4049.0,4095.0,-1.4,7.03,11.02,0.02,0.0,-0.15,0.0,c
3754.0,3857.0,1916.0,4095.0,3846.0,3031.0,4041.0,4095.0,-1.36,7.04,10.97,0.0,-0.0,-0.15,0.0,c
3762.0,3871.0,1919.0,4095.0,3854.0,3026.0,4043.0,4095.0,-1.3,7.02,11.07,0.0,-0.01,-0.15,0.0,c
3763.0,3873.0,1915.0,4095.0,3856.0,3033.0,4061.0,4095.0,-1.39,7.04,11.0,0.01,-0.02,-0.17,0.0,c
3760.0,3873.0,1922.0,4095.0,3847.0,3029.0,4048.0,4095.0,-1.39,6.98,11.09,0.01,-0.01,-0.15,0.0,c
3760.0,3891.0,1923.0,4095.0,3857.0,3040.0,4053.0,4095.0,-1.35,7.02,11.07,-0.02,0.01,-0.13,0.0,c
3743.0,3873.0,1927.0,4095.0,3856.0,3034.0,4043.0,4095.0,-1.35,6.99,11.09,0.02,-0.01,-0.16,0.0,c
3765.0,3871.0,1936.0,4095.0,3860.0,3040.0,4037.0,4095.0,-1.37,7.03,11.0,0.04,-0.06,-0.2,0.0,c
3763.0,3874.0,1934.0,4095.0,3847.0,3030.0,4045.0,4095.0,-1.4,7.04,11.04,0.01,-0.03,-0.18,0.0,c
3770.0,3876.0,1941.0,4095.0,3867.0,3047.0,4063.0,4095.0,-1.4,7.0,11.01,0.03,-0.0,-0.16,0.0,c
3763.0,3886.0,1977.0,4095.0,3849.0,3033.0,4037.0,4095.0,-1.41,6.99,10.98,0.02,-0.05,-0.16,0.0,c
3771.0,3890.0,2027.0,4095.0,3861.0,3040.0,4041.0,4095.0,-1.41,7.03,11.04,0.06,-0.09,-0.18,0.0,c
3734.0,3881.0,2015.0,4095.0,3872.0,3033.0,4035.0,4095.0,-1.29,7.0,11.11,0.03,-0.12,-0.18,0.0,c
3757.0,3914.0,2042.0,4095.0,3861.0,3045.0,4051.0,4095.0,-1.19,7.03,11.11,0.06,-0.21,-0.24,0.0,c
3764.0,3902.0,2064.0,4095.0,3866.0,3039.0,4055.0,4095.0,-1.16,7.1,11.03,0.02,-0.01,-0.12,0.0,c
3743.0,3895.0,2117.0,4095.0,3859.0,3038.0,4012.0,4095.0,-1.27,7.1,11.03,0.03,-0.12,-0.14,0.0,c
3760.0,3913.0,2109.0,4095.0,3860.0,3049.0,4007.0,4095.0,-0.03,7.51,10.77,0.09,0.01,-0.13,0.0,c
3792.0,3939.0,2089.0,4095.0,3878.0,3056.0,4027.0,4095.0,-0.16,7.63,10.48,0.12,0.05,-0.09,0.0,c
3760.0,3915.0,2082.0,4095.0,3866.0,3045.0,4014.0,4095.0,-0.16,7.78,10.32,0.12,-0.03,-0.09,0.0,c
3767.0,3920.0,2073.0,4095.0,3876.0,3058.0,4029.0,4095.0,-0.07,7.79,10.29,0.09,-0.01,-0.04,0.0,c
3753.0,3902.0,2073.0,4095.0,3877.0,3056.0,4016.0,4095.0,0.24,7.86,10.25,0.08,-0.04,-0.04,0.0,c
3775.0,3913.0,2069.0,4095.0,3888.0,3056.0,4026.0,4095.0,0.31,7.87,10.23,0.05,-0.05,-0.07,0.0,c
3760.0,3911.0,2080.0,4095.0,3862.0,3047.0,4007.0,4095.0,0.26,7.9,10.17,0.02,-0.1,-0.1,0.0,c
3760.0,3919.0,2084.0,4095.0,3875.0,3051.0,4019.0,4095.0,0.4,7.88,10.19,-0.01,-0.22,-0.13,0.0,c
3779.0,3926.0,2068.0,4095.0,3875.0,3062.0,4042.0,4095.0,0.7,7.8,10.32,0.03,-0.12,-0.05,0.0,c
3771.0,3921.0,2065.0,4095.0,3879.0,3056.0,4019.0,4095.0,0.92,7.89,10.18,-0.01,-0.08,-0.04,0.0,c
3778.0,3915.0,2065.0,4095.0,3886.0,3053.0,4016.0,4095.0,0.87,7.85,10.19,-0.02,-0.1,-0.07,0.0,c
3762.0,3911.0,2065.0,4095.0,3869.0,3051.0,4019.0,4095.0,1.13,7.79,10.32,-0.04,-0.09,-0.07,0.0,c
3774.0,3919.0,2057.0,4095.0,3875.0,3056.0,4031.0,4095.0,1.22,7.79,10.25,-0.02,-0.08,-0.08,0.0,c
3759.0,3926.0,2059.0,4095.0,3867.0,3054.0,4016.0,4095.0,1.38,7.93,10.03,-0.06,-0.09,-0.11,0.0,c
3777.0,3926.0,2046.0,4095.0,3876.0,3056.0,4033.0,4095.0,1.4,7.73,10.32,-0.11,-0.09,-0.15,0.0,c
3760.0,3922.0,2037.0,4095.0,3861.0,3055.0,4019.0,4095.0,1.43,7.52,10.64,-0.12,-0.04,-0.13,0.0,c
3773.0,3932.0,2032.0,4095.0,3886.0,3059.0,4036.0,4095.0,1.48,7.45,10.73,-0.1,-0.01,-0.14,0.0,c
3774.0,3926.0,2022.0,4095.0,3879.0,3056.0,4016.0,4095.0,1.48,7.42,10.73,-0.09,-0.04,-0.18,0.0,c
3775.0,3947.0,2016.0,4095.0,3887.0,3066.0,4038.0,4095.0,1.43,7.31,10.82,-0.09,-0.03,-0.19,0.0,c
3776.0,3941.0,2026.0,4095.0,3875.0,3056.0,4039.0,4095.0,1.46,7.29,10.82,-0.07,-0.01,-0.19,0.0,c
3786.0,3920.0,2001.0,4095.0,3868.0,3056.0,4029.0,4095.0,1.09,7.24,10.92,0.0,0.02,-0.23,0.0,c
3781.0,3950.0,2006.0,4095.0,3888.0,3062.0,4041.0,4095.0,0.94,7.15,11.01,-0.01,0.06,-0.24,0.0,c
3775.0,3921.0,1989.0,4095.0,3862.0,3051.0,4016.0,4095.0,0.83,7.1,11.14,-0.02,0.06,-0.21,0.0,c
3769.0,3931.0,2000.0,4095.0,3877.0,3062.0,4037.0,4095.0,0.69,7.12,11.16,0.04,0.01,-0.21,0.0,c
3791.0,3923.0,1999.0,4095.0,3868.0,3058.0,4044.0,4095.0,0.68,7.17,11.02,0.01,0.05,-0.16,0.0,c
3760.0,3923.0,1984.0,4095.0,3871.0,3056.0,4018.0,4095.0,0.74,7.17,11.08,0.01,0.01,-0.2,0.0,c
3792.0,3946.0,2005.0,4095.0,3877.0,3065.0,4039.0,4095.0,0.62,7.13,11.11,0.02,0.03,-0.19,0.0,c
3776.0,3933.0,1986.0,4095.0,3875.0,3059.0,4032.0,4095.0,0.57,7.15,11.14,0.01,0.07,-0.16,0.0,c
3792.0,3943.0,2001.0,4095.0,3880.0,3066.0,4045.0,4095.0,0.47,7.15,11.06,-0.03,0.04,-0.16,0.0,c
3773.0,3951.0,2000.0,4095.0,3869.0,3059.0,4033.0,4095.0,0.48,7.16,11.16,0.01,-0.0,-0.21,0.0,c
3781.0,3934.0,1991.0,4095.0,3869.0,3066.0,4050.0,4095.0,0.43,7.1,11.22,0.03,0.04,-0.2,0.0,c
3776.0,3922.0,1995.0,4095.0,3870.0,3066.0,4036.0,4095.0,0.36,7.13,11.14,0.03,0.05,-0.22,0.0,c
3780.0,3936.0,2000.0,4095.0,3886.0,3061.0,4034.0,4095.0,0.19,7.13,11.1,0.04,0.08,-0.22,0.0,c
3760.0,3946.0,1982.0,4095.0,3870.0,3061.0,4023.0,4095.0,0.08,7.16,11.11,0.05,0.03,-0.22,0.0,c
3795.0,3953.0,1970.0,4095.0,3869.0,3063.0,4048.0,4095.0,0.0,7.18,11.08,0.06,0.05,-0.2,0.0,c
3764.0,3930.0,1971.0,4095.0,3861.0,3056.0,4031.0,4095.0,-0.08,7.15,11.06,0.07,0.08,-0.17,0.0,c
3786.0,3936.0,1981.0,4095.0,3863.0,3061.0,4033.0,4095.0,-0.12,7.21,11.03,0.09,0.03,-0.18,0.0,c
3770.0,3952.0,1959.0,4095.0,3888.0,3069.0,4048.0,4095.0,-0.09,7.36,10.84,0.08,0.03,-0.18,0.0,c
3765.0,3941.0,1966.0,4095.0,3867.0,3062.0,4021.0,4095.0,-0.21,7.39,10.78,0.06,0.02,-0.18,0.0,c
3809.0,3967.0,1973.0,4095.0,3871.0,3067.0,4041.0,4095.0,-0.25,7.42,10.76,0.05,0.03,-0.16,0.0,c
3777.0,3974.0,1958.0,4095.0,3881.0,3069.0,4031.0,4095.0,-0.34,7.54,10.64,0.06,0.0,-0.21,0.0,c
3775.0,3952.0,1961.0,4095.0,3873.0,3065.0,4016.0,4095.0,-0.48,7.52,10.63,0.05,0.05,-0.17,0.0,c
3786.0,3963.0,1959.0,4095.0,3873.0,3071.0,4038.0,4095.0,-0.5,7.58,10.57,0.05,0.04,-0.14,0.0,c
3801.0,3968.0,1959.0,4095.0,3866.0,3062.0,4033.0,4095.0,-0.45,7.64,10.52,0.07,0.04,-0.13,0.0,c
3788.0,3949.0,1954.0,4095.0,3866.0,3062.0,4015.0,4095.0,-0.43,7.7,10.43,0.05,0.01,-0.14,0.0,c
3789.0,3967.0,1958.0,4095.0,3886.0,3069.0,4033.0,4095.0,-0.52,7.63,10.56,0.05,0.01,-0.14,0.0,c
3788.0,3951.0,1953.0,4095.0,3855.0,3062.0,4033.0,4095.0,-0.31,7.78,10.28,0.07,-0.01,-0.17,0.0,c
3787.0,3970.0,1962.0,4095.0,3869.0,3066.0,4034.0,4095.0,-0.48,7.77,10.38,0.04,0.01,-0.16,0.0,c
3792.0,3949.0,1962.0,4095.0,3862.0,3058.0,4015.0,4095.0,-0.52,7.78,10.31,0.07,-0.0,-0.17,0.0,c
3798.0,3977.0,1965.0,4095.0,3882.0,3071.0,4030.0,4095.0,-0.58,7.85,10.21,0.05,0.01,-0.15,0.0,c
3779.0,3959.0,1966.0,4095.0,3863.0,3063.0,4022.0,4095.0,-0.51,7.82,10.26,0.05,-0.05,-0.16,0.0,c
3780.0,3959.0,1957.0,4095.0,3871.0,3083.0,4037.0,4095.0,-0.49,7.78,10.3,0.04,-0.01,-0.15,0.0,c
3788.0,3957.0,1966.0,4095.0,3866.0,3061.0,4025.0,4095.0,-0.49,7.82,10.26,0.06,0.0,-0.13,0.0,c
3792.0,3969.0,1966.0,4095.0,3878.0,3069.0,4026.0,4095.0,-0.44,7.92,10.13,0.06,-0.01,-0.14,0.0,c
3778.0,3963.0,1965.0,4095.0,3857.0,3063.0,4029.0,4095.0,-0.43,7.89,10.16,0.06,0.02,-0.13,0.0,c
3795.0,3969.0,1957.0,4095.0,3858.0,3066.0,4027.0,4095.0,-0.54,7.92,10.11,0.08,-0.02,-0.14,0.0,c
3813.0,3983.0,1963.0,4095.0,3868.0,3079.0,4032.0,4095.0,-0.46,7.87,10.2,0.11,-0.08,-0.16,0.0,c
3787.0,3949.0,1964.0,4095.0,3877.0,3064.0,4020.0,4095.0,-0.37,8.09,9.9,0.12,-0.09,-0.16,0.0,c
3779.0,3960.0,1967.0,4095.0,3879.0,3068.0,4017.0,4095.0,-0.27,8.16,9.72,0.1,-0.07,-0.17,0.0,c
3790.0,3974.0,1963.0,4095.0,3874.0,3067.0,4015.0,4095.0,-0.34,8.15,9.79,0.04,0.01,-0.12,0.0,c
3782.0,3971.0,1955.0,4095.0,3882.0,3061.0,4017.0,4095.0,-0.04,8.46,9.32,0.03,-0.04,-0.15,0.0,c
3776.0,3985.0,1966.0,4095.0,3883.0,3071.0,4030.0,4095.0,-0.17,8.36,9.49,0.03,-0.04,-0.15,0.0,c
3781.0,3982.0,1954.0,4095.0,3860.0,3056.0,4016.0,4095.0,-0.38,8.43,9.34,0.08,-0.14,-0.12,0.0,c
3785.0,3972.0,1958.0,4095.0,3885.0,3071.0,4031.0,4095.0,-0.11,8.39,9.41,0.08,-0.26,-0.05,0.0,c
3810.0,4016.0,1925.0,4095.0,3856.0,3056.0,3994.0,4095.0,0.53,8.52,9.33,0.07,-0.1,0.04,0.0,c
3799.0,4021.0,1921.0,4095.0,3869.0,3063.0,3997.0,4095.0,0.89,8.49,9.43,0.05,-0.12,-0.07,0.0,c
3792.0,4022.0,1920.0,4095.0,3856.0,3062.0,4001.0,4095.0,0.84,8.5,9.3,0.1,0.03,-0.08,0.0,c
3802.0,4015.0,1919.0,4095.0,3872.0,3067.0,4016.0,4095.0,0.71,8.56,9.2,0.06,-0.09,-0.14,0.0,c
3803.0,4006.0,1920.0,4095.0,3871.0,3065.0,4011.0,4095.0,0.69,8.6,9.08,0.05,-0.01,-0.09,0.0,c
3803.0,4048.0,1914.0,4095.0,3871.0,3067.0,4022.0,4095.0,0.86,8.66,9.02,0.05,-0.02,-0.11,0.0,c
3783.0,3989.0,1920.0,4095.0,3878.0,3069.0,4012.0,4095.0,0.93,8.67,9.03,0.04,-0.02,-0.15,0.0,c
3785.0,4019.0,1925.0,4095.0,3888.0,3067.0,4006.0,4095.0,0.77,8.6,9.01,0.03,0.03,-0.13,0.0,c
3787.0,4010.0,1935.0,4095.0,3887.0,3071.0,4033.0,4095.0,0.81,8.55,9.15,0.04,0.0,-0.14,0.0,c
3795.0,4009.0,1923.0,4095.0,3868.0,3067.0,4021.0,4095.0,0.78,8.56,9.13,0.11,0.04,-0.08,0.0,c
3787.0,4007.0,1946.0,4095.0,3887.0,3071.0,4021.0,4095.0,0.87,8.75,8.81,0.08,0.02,-0.09,0.0,c
3779.0,4026.0,1933.0,4095.0,3867.0,3067.0,4027.0,4095.0,0.96,8.79,8.71,0.06,-0.03,-0.13,0.0,c
3807.0,4014.0,1936.0,4095.0,3886.0,3085.0,4039.0,4095.0,0.88,8.68,8.95,0.05,0.02,-0.1,0.0,c
3778.0,4009.0,1933.0,4095.0,3872.0,3065.0,4019.0,4095.0,0.94,8.8,8.69,0.03,-0.01,-0.13,0.0,c
3797.0,4036.0,1946.0,4095.0,3885.0,3078.0,4039.0,4095.0,0.98,8.77,8.79,0.01,-0.04,-0.14,0.0,c
3792.0,4002.0,1935.0,4095.0,3863.0,3063.0,4020.0,4095.0,0.95,8.75,8.79,0.01,-0.02,-0.12,0.0,c
3786.0,4000.0,1947.0,4095.0,3859.0,3066.0,4025.0,4095.0,0.95,8.3,9.56,-0.11,-0.03,-0.17,0.0,c
3799.0,4016.0,1949.0,4095.0,3888.0,3079.0,4032.0,4095.0,0.93,8.36,9.49,-0.07,-0.02,-0.19,0.0,c
3773.0,3987.0,1937.0,4095.0,3877.0,3071.0,4018.0,4095.0,0.98,8.34,9.61,-0.13,0.02,-0.16,0.0,c
3789.0,4021.0,1939.0,4095.0,3888.0,3079.0,4042.0,4095.0,0.89,8.11,9.9,-0.07,-0.04,-0.19,0.0,c
3789.0,4007.0,1941.0,4095.0,3874.0,3071.0,4031.0,4095.0,0.91,8.32,9.59,-0.03,0.01,-0.16,0.0,c
3787.0,3997.0,1936.0,4095.0,3889.0,3071.0,4032.0,4095.0,1.02,8.31,9.57,-0.05,-0.0,-0.19,0.0,c
3775.0,3995.0,1943.0,4095.0,3886.0,3071.0,4037.0,4095.0,1.03,8.22,9.73,-0.09,0.01,-0.25,0.0,c
3797.0,4026.0,1941.0,4095.0,3885.0,3079.0,4032.0,4095.0,0.69,8.05,9.97,-0.1,0.1,-0.23,0.0,c
3791.0,4014.0,1938.0,4095.0,3888.0,3087.0,4043.0,4095.0,0.47,7.99,10.14,-0.05,0.02,-0.24,0.0,c
3779.0,3997.0,1941.0,4095.0,3884.0,3071.0,4016.0,4095.0,0.44,7.97,10.03,-0.01,0.07,-0.16,0.0,c
3792.0,4035.0,1949.0,4095.0,3877.0,3071.0,4051.0,4095.0,0.56,8.01,10.09,-0.02,0.07,-0.17,0.0,c
3783.0,3996.0,1939.0,4095.0,3865.0,3071.0,4021.0,4095.0,0.45,7.99,10.0,-0.03,0.04,-0.21,0.0,c
3802.0,4008.0,1955.0,4095.0,3889.0,3085.0,4030.0,4095.0,0.28,7.95,10.1,-0.05,0.03,-0.21,0.0,c
3791.0,4015.0,1941.0,4095.0,3874.0,3069.0,4027.0,4095.0,0.23,7.92,10.15,-0.01,0.09,-0.16,0.0,c
3806.0,4014.0,1943.0,4095.0,3879.0,3081.0,4039.0,4095.0,0.26,7.92,10.16,-0.02,0.03,-0.17,0.0,c
3803.0,4004.0,1936.0,4095.0,3871.0,3070.0,4031.0,4095.0,0.28,7.93,10.16,-0.01,0.17,-0.14,0.0,c
3807.0,4018.0,1947.0,4095.0,3889.0,3082.0,4032.0,4095.0,0.01,7.88,10.22,-0.04,0.05,-0.2,0.0,c
3798.0,4008.0,1933.0,4095.0,3879.0,3083.0,4033.0,4095.0,-0.11,7.8,10.32,-0.1,0.01,-0.18,0.0,c
3794.0,4019.0,1939.0,4095.0,3920.0,3085.0,4034.0,4095.0,-0.11,7.77,10.38,-0.08,0.04,-0.17,0.0,c
3806.0,4015.0,1918.0,4095.0,3920.0,3090.0,4043.0,4095.0,0.15,7.86,10.28,-0.1,0.21,-0.14,0.0,c
909.0,3090.0,4095.0,4095.0,3550.0,3061.0,3950.0,4041.0,-0.59,7.65,10.48,-0.0,0.1,-0.07,0.0,c
917.0,3086.0,4095.0,4095.0,3549.0,3062.0,3942.0,4017.0,-0.69,7.64,10.47,-0.02,0.1,-0.11,0.0,c
923.0,3088.0,4095.0,4095.0,3554.0,3068.0,3966.0,4042.0,-0.89,7.48,10.58,-0.08,-0.01,-0.11,0.0,c
911.0,3089.0,4095.0,4095.0,3550.0,3063.0,3945.0,4025.0,-0.86,7.43,10.62,-0.02,-0.12,-0.15,0.0,c
926.0,3084.0,4095.0,4095.0,3577.0,3086.0,3951.0,4027.0,-0.73,7.42,10.77,-0.07,-0.07,-0.07,0.0,c
932.0,3102.0,4095.0,4095.0,3554.0,3071.0,3942.0,4022.0,-0.39,7.3,10.92,-0.06,-0.01,-0.01,0.0,c
933.0,3099.0,4095.0,4095.0,3557.0,3081.0,3950.0,4042.0,-0.2,7.36,10.94,-0.01,0.01,-0.07,0.0,c
931.0,3093.0,4095.0,4095.0,3564.0,3071.0,3958.0,4033.0,-0.38,7.37,10.81,0.02,-0.08,-0.14,0.0,c
922.0,3092.0,4095.0,4095.0,3564.0,3092.0,3967.0,4054.0,-0.48,7.38,10.77,-0.02,-0.18,-0.15,0.0,c
918.0,3097.0,4095.0,4095.0,3567.0,3085.0,3963.0,4049.0,-0.18,7.33,10.89,-0.03,-0.16,-0.1,0.0,c
941.0,3088.0,4095.0,4095.0,3561.0,3071.0,3947.0,4034.0,0.11,7.32,10.93,-0.04,-0.05,-0.07,0.0,c
935.0,3105.0,4095.0,4095.0,3568.0,3083.0,3962.0,4053.0,0.14,7.29,10.93,0.0,-0.02,-0.1,0.0,c
938.0,3088.0,4095.0,4095.0,3562.0,3083.0,3945.0,4032.0,0.09,7.33,10.92,-0.0,-0.03,-0.12,0.0,c
937.0,3093.0,4095.0,4095.0,3571.0,3088.0,3958.0,4048.0,0.1,7.24,10.97,0.01,-0.04,-0.12,0.0,c
925.0,3088.0,4095.0,4095.0,3568.0,3083.0,3946.0,4033.0,0.1,7.22,11.0,-0.01,-0.01,-0.09,0.0,c
927.0,3088.0,4095.0,4095.0,3573.0,3090.0,3955.0,4061.0,0.22,7.25,10.95,0.02,-0.05,-0.11,0.0,c
933.0,3091.0,4095.0,4095.0,3559.0,3083.0,3942.0,4048.0,0.3,7.24,11.04,0.0,-0.04,-0.1,0.0,c
929.0,3093.0,4095.0,4095.0,3571.0,3088.0,3952.0,4062.0,0.29,7.22,11.06,-0.01,-0.02,-0.1,0.0,c
937.0,3086.0,4095.0,4095.0,3562.0,3078.0,3953.0,4053.0,0.3,7.26,11.01,-0.02,-0.05,-0.1,0.0,c
935.0,3092.0,4095.0,4095.0,3559.0,3085.0,3963.0,4064.0,0.41,7.24,10.94,-0.02,-0.07,-0.09,0.0,c
937.0,3098.0,4095.0,4095.0,3569.0,3085.0,3958.0,4075.0,0.13,7.35,10.91,0.07,0.05,-0.25,0.0,c
921.0,3089.0,4095.0,4095.0,3552.0,3071.0,3951.0,4050.0,-0.01,7.39,10.79,0.06,0.09,-0.24,0.0,c
931.0,3102.0,4095.0,4095.0,3564.0,3063.0,3943.0,4048.0,-0.23,7.44,10.72,0.05,0.04,-0.23,0.0,c
929.0,3094.0,4095.0,4095.0,3571.0,3086.0,3959.0,4048.0,-0.36,7.37,10.89,0.01,0.04,-0.2,0.0,c
921.0,3098.0,4095.0,4095.0,3552.0,3062.0,3937.0,4022.0,-0.49,7.56,10.53,0.15,-0.06,-0.13,0.0,c
927.0,3103.0,4095.0,4095.0,3572.0,3087.0,3959.0,4042.0,0.09,7.78,10.63,-0.03,0.07,-0.01,0.0,c
942.0,3088.0,4095.0,4095.0,3556.0,3071.0,3949.0,4022.0,-0.06,7.64,10.64,-0.07,0.41,-0.37,0.0,c
943.0,3099.0,4095.0,4095.0,3569.0,3061.0,3959.0,4051.0,-0.99,6.19,10.27,0.06,0.02,-0.22,0.0,c
935.0,3090.0,4095.0,4095.0,3563.0,3033.0,3947.0,4014.0,0.09,6.25,10.77,0.61,0.58,-0.37,0.0,c
947.0,3094.0,4095.0,4095.0,3577.0,3066.0,3982.0,4049.0,0.05,7.51,10.6,0.16,0.01,-0.18,0.0,c
950.0,3091.0,4095.0,4095.0,3568.0,3059.0,3961.0,4048.0,-0.54,7.66,10.32,0.28,0.12,-0.14,0.0,c
957.0,3108.0,4095.0,4095.0,3581.0,3071.0,3981.0,4041.0,-0.42,8.04,9.87,0.15,-0.09,-0.31,0.0,c
973.0,3095.0,4095.0,4095.0,3569.0,3071.0,3965.0,4038.0,-0.66,7.97,9.96,-0.03,0.23,-0.23,0.0,c
974.0,3103.0,4095.0,4095.0,3581.0,3071.0,3975.0,4060.0,-1.4,7.79,10.35,-0.07,0.22,-0.25,0.0,c
960.0,3114.0,4095.0,4095.0,3573.0,3071.0,3968.0,4063.0,-1.4,7.69,10.23,0.05,0.18,-0.1,0.0,c
971.0,3097.0,4095.0,4095.0,3578.0,3083.0,3959.0,4046.0,-1.58,7.77,10.18,0.09,0.2,0.01,0.0,c
979.0,3099.0,4095.0,4095.0,3578.0,3088.0,3983.0,4060.0,-1.2,7.96,9.87,0.12,0.0,-0.03,0.0,c
979.0,3111.0,4095.0,4095.0,3578.0,3071.0,3959.0,4046.0,-0.99,8.04,9.84,0.13,0.03,-0.04,0.0,c
969.0,3090.0,4095.0,4095.0,3583.0,3071.0,3957.0,4051.0,-0.95,8.15,9.73,0.13,0.03,-0.03,0.0,c
964.0,3088.0,4095.0,4095.0,3578.0,3071.0,3956.0,4048.0,-0.86,8.27,9.5,0.08,-0.08,-0.12,0.0,c
975.0,3095.0,4095.0,4095.0,3573.0,3066.0,3955.0,4049.0,-0.71,8.13,9.75,-0.03,-0.03,-0.12,0.0,c
967.0,3110.0,4095.0,4095.0,3599.0,3092.0,3981.0,4060.0,-0.64,8.14,9.88,-0.04,-0.04,-0.12,0.0,c
981.0,3093.0,4095.0,4095.0,3575.0,3071.0,3984.0,4069.0,-0.6,8.21,9.63,0.02,-0.05,-0.13,0.0,c
986.0,3094.0,4095.0,4095.0,3577.0,3079.0,3966.0,4051.0,-0.58,8.18,9.7,-0.01,-0.04,-0.12,0.0,c
982.0,3088.0,4095.0,4095.0,3597.0,3087.0,3966.0,4051.0,-0.54,8.12,9.76,-0.06,-0.09,-0.12,0.0,c
975.0,3091.0,4095.0,4095.0,3580.0,3082.0,3962.0,4054.0,-0.51,8.09,9.91,-0.06,-0.08,-0.11,0.0,c
985.0,3091.0,4095.0,4095.0,3583.0,3086.0,3975.0,4071.0,-0.3,8.03,9.96,-0.08,-0.1,-0.1,0.0,c
982.0,3104.0,4095.0,4095.0,3574.0,3086.0,3957.0,4061.0,-0.18,7.96,10.11,-0.04,-0.07,-0.12,0.0,c
991.0,3103.0,4095.0,4095.0,3571.0,3088.0,3984.0,4075.0,-0.11,8.07,9.91,-0.06,-0.08,-0.18,0.0,c
992.0,3088.0,4095.0,4095.0,3583.0,3083.0,3964.0,4039.0,-0.16,7.87,10.2,-0.14,-0.06,-0.17,0.0,c
981.0,3089.0,4095.0,4095.0,3583.0,3088.0,3982.0,4049.0,-0.16,7.66,10.53,-0.1,-0.03,-0.17,0.0,c
976.0,3092.0,4095.0,4095.0,3579.0,3085.0,3962.0,4032.0,0.14,7.9,10.22,-0.11,-0.03,-0.26,0.0,c
993.0,3095.0,4095.0,4095.0,3597.0,3086.0,3977.0,4053.0,-0.32,7.57,10.52,-0.18,-0.06,-0.33,0.0,c
1002.0,3091.0,4095.0,4095.0,3574.0,3084.0,3978.0,4035.0,-0.51,7.26,10.94,-0.16,0.03,-0.26,0.0,c
987.0,3091.0,4095.0,4095.0,3597.0,3085.0,3965.0,4015.0,-0.49,7.25,10.97,-0.05,0.0,-0.24,0.0,c
981.0,3099.0,4095.0,4095.0,3583.0,3089.0,3984.0,4017.0,-0.68,7.29,10.88,-0.02,-0.0,-0.24,0.0,c
983.0,3102.0,4095.0,4095.0,3568.0,3081.0,3959.0,4006.0,-0.68,7.23,10.87,-0.07,-0.01,-0.21,0.0,c
988.0,3105.0,4095.0,4095.0,3583.0,3088.0,3973.0,4036.0,-0.58,7.19,11.04,-0.07,-0.02,-0.23,0.0,c
978.0,3105.0,4095.0,4095.0,3574.0,3081.0,3966.0,4027.0,-0.64,7.07,11.09,-0.08,0.01,-0.23,0.0,c
996.0,3093.0,4095.0,4095.0,3574.0,3095.0,3981.0,4042.0,-0.77,6.98,11.21,-0.1,0.02,-0.21,0.0,c
988.0,3091.0,4095.0,4095.0,3583.0,3092.0,3985.0,4059.0,-1.32,6.67,11.45,0.04,0.03,-0.22,0.0,c
981.0,3097.0,4095.0,4095.0,3573.0,3087.0,3975.0,4049.0,-1.15,6.73,11.4,0.05,0.06,-0.17,0.0,c
999.0,3119.0,4095.0,4095.0,3583.0,3090.0,3982.0,4059.0,-1.12,6.77,11.3,0.06,0.05,-0.22,0.0,c
979.0,3104.0,4095.0,4095.0,3583.0,3092.0,3968.0,4061.0,-1.38,6.78,11.25,0.04,0.04,-0.24,0.0,c
975.0,3091.0,4095.0,4095.0,3582.0,3097.0,3977.0,4049.0,-1.59,6.8,11.18,0.03,0.03,-0.22,0.0,c
993.0,3105.0,4095.0,4095.0,3583.0,3090.0,3989.0,4062.0,-1.63,6.73,11.26,0.01,0.01,-0.18,0.0,c
983.0,3102.0,4095.0,4095.0,3580.0,3088.0,3967.0,4049.0,-1.54,6.78,11.2,0.02,0.0,-0.13,0.0,c
976.0,3107.0,4095.0,4095.0,3583.0,3097.0,3982.0,4066.0,-1.47,6.77,11.26,0.02,0.01,-0.13,0.0,c
972.0,3095.0,4095.0,4095.0,3583.0,3089.0,3955.0,4055.0,-1.51,6.8,11.21,0.02,-0.0,-0.16,0.0,c
976.0,3100.0,4095.0,4095.0,3583.0,3093.0,3987.0,4070.0,-1.65,6.74,11.26,-0.01,-0.0,-0.15,0.0,c
979.0,3099.0,4095.0,4095.0,3578.0,3090.0,3958.0,4052.0,-1.49,6.78,11.2,0.0,-0.01,-0.13,0.0,c
983.0,3110.0,4095.0,4095.0,3583.0,3088.0,3974.0,4065.0,-1.47,6.75,11.3,0.03,0.01,-0.14,0.0,c
989.0,3094.0,4095.0,4095.0,3579.0,3088.0,3961.0,4054.0,-1.51,6.73,11.28,0.05,0.04,-0.09,0.0,c
976.0,3109.0,4095.0,4095.0,3583.0,3092.0,3998.0,4081.0,-1.46,6.83,11.2,0.08,0.03,-0.12,0.0,c
983.0,3095.0,4095.0,4095.0,3583.0,3090.0,3962.0,4065.0,-1.48,6.9,11.11,0.07,-0.01,-0.17,0.0,c
990.0,3110.0,4095.0,4095.0,3573.0,3087.0,3960.0,4048.0,-1.46,6.93,11.06,0.05,0.02,-0.14,0.0,c
998.0,3108.0,4095.0,4095.0,3597.0,3101.0,3984.0,4053.0,-1.47,6.89,11.06,0.04,0.01,-0.16,0.0,c
969.0,3106.0,4095.0,4095.0,3583.0,3087.0,3957.0,4045.0,-1.56,6.51,11.19,0.02,0.01,-0.13,0.0,c
951.0,3103.0,4095.0,4095.0,3583.0,3097.0,3978.0,4070.0,-1.56,6.86,11.13,0.08,0.05,-0.16,0.0,c
960.0,3109.0,4095.0,4095.0,3570.0,3085.0,3952.0,4066.0,-1.66,6.96,11.0,0.1,0.0,-0.16,0.0,c
1023.0,3094.0,4095.0,4095.0,3581.0,3091.0,3972.0,4062.0,-1.35,7.44,10.55,0.04,-0.02,-0.14,0.0,c
1021.0,3118.0,4095.0,4095.0,3583.0,3095.0,3991.0,4088.0,-1.29,7.2,10.87,-0.01,0.03,-0.14,0.0,c
1023.0,3117.0,4095.0,4095.0,3571.0,3094.0,3979.0,4080.0,-1.52,7.24,10.74,0.08,-0.04,-0.2,0.0,c
1014.0,3118.0,4095.0,4095.0,3583.0,3095.0,3966.0,4070.0,-1.56,7.31,10.67,0.07,-0.06,-0.18,0.0,c
1019.0,3103.0,4095.0,4095.0,3597.0,3095.0,3982.0,4094.0,-1.4,7.33,10.66,0.08,-0.17,-0.24,0.0,c
1011.0,3113.0,4095.0,4095.0,3575.0,3098.0,3984.0,4084.0,-1.27,7.39,10.62,0.11,-0.24,-0.3,0.0,c
1005.0,3113.0,4095.0,4095.0,3597.0,3097.0,3990.0,4086.0,-1.39,7.45,10.49,0.08,-0.04,-0.18,0.0,c
1005.0,3093.0,4095.0,4095.0,3573.0,3092.0,3971.0,4077.0,-1.44,7.44,10.55,0.02,0.02,-0.1,0.0,c
1008.0,3118.0,4095.0,4095.0,3583.0,3099.0,3996.0,4095.0,-1.41,7.39,10.65,0.07,0.02,-0.09,0.0,c
1021.0,3099.0,4095.0,4095.0,3583.0,3098.0,3980.0,4078.0,-1.53,7.24,10.88,0.18,0.06,0.02,0.0,c
1008.0,3103.0,4095.0,4095.0,3595.0,3100.0,3988.0,4080.0,-1.02,7.88,10.03,0.13,0.04,0.01,0.0,c
1014.0,3106.0,4095.0,4095.0,3583.0,3091.0,3983.0,4077.0,-0.94,7.92,10.03,0.08,-0.03,-0.1,0.0,c
1008.0,3115.0,4095.0,4095.0,3583.0,3099.0,3986.0,4084.0,-1.01,7.86,10.1,0.0,-0.01,-0.15,0.0,c
1033.0,3114.0,4095.0,4095.0,3570.0,3095.0,3985.0,4075.0,-1.11,7.71,10.33,0.0,-0.04,-0.17,0.0,c
1021.0,3113.0,4095.0,4095.0,3583.0,3102.0,3997.0,4091.0,-1.27,7.65,10.36,0.08,0.03,-0.1,0.0,c
1012.0,3116.0,4095.0,4095.0,3600.0,3102.0,3987.0,4081.0,-1.07,7.83,10.18,0.07,0.0,-0.07,0.0,c
1023.0,3111.0,4095.0,4095.0,3583.0,3090.0,3973.0,4067.0,-0.88,7.93,10.06,0.09,-0.03,-0.07,0.0,c
1017.0,3109.0,4095.0,4095.0,3583.0,3103.0,3995.0,4080.0,-0.79,7.96,10.02,0.09,-0.03,-0.09,0.0,c
1013.0,3105.0,4095.0,4095.0,3580.0,3095.0,3981.0,4074.0,-0.83,7.99,9.87,0.07,-0.06,-0.13,0.0,c
1021.0,3108.0,4095.0,4095.0,3582.0,3099.0,3987.0,4095.0,-0.69,7.97,10.0,0.06,-0.04,-0.1,0.0,c
1011.0,3113.0,4095.0,4095.0,3583.0,3095.0,3997.0,4085.0,-0.65,7.98,10.01,-0.01,0.0,-0.17,0.0,c
1008.0,3102.0,4095.0,4095.0,3581.0,3089.0,3979.0,4070.0,-0.76,8.02,9.95,-0.01,0.02,-0.15,0.0,c
1011.0,3111.0,4095.0,4095.0,3583.0,3102.0,3997.0,4094.0,-0.88,8.11,9.84,0.04,0.03,-0.13,0.0,c
1011.0,3120.0,4095.0,4095.0,3583.0,3094.0,3977.0,4067.0,-0.88,7.96,10.0,-0.08,0.05,-0.13,0.0,c
1023.0,3099.0,4095.0,4095.0,3583.0,3094.0,3984.0,4075.0,-0.6,7.91,10.0,0.1,-0.02,-0.04,0.0,c
1022.0,3111.0,4095.0,4095.0,3583.0,3095.0,3991.0,4095.0,-0.68,7.93,10.25,0.0,0.04,-0.09,0.0,c
1018.0,3098.0,4095.0,4095.0,3583.0,3088.0,3983.0,4062.0,-0.37,8.43,9.47,0.05,0.12,-0.14,0.0,c
1008.0,3104.0,4095.0,4095.0,3599.0,3101.0,3991.0,4090.0,-1.33,8.14,10.0,-0.0,0.2,-0.25,0.0,c
1017.0,3103.0,4095.0,4095.0,3583.0,3092.0,3983.0,4075.0,-1.31,8.6,10.03,0.08,0.02,-0.19,0.0,c
1014.0,3111.0,4095.0,4095.0,3583.0,3089.0,3982.0,4077.0,-0.82,8.45,9.56,0.04,0.25,-0.19,0.0,c
1023.0,3101.0,4095.0,4095.0,3574.0,3089.0,3982.0,4070.0,-0.84,7.92,9.62,0.15,-0.07,-0.15,0.0,c
1093.0,3119.0,4095.0,4095.0,3598.0,3098.0,3994.0,4086.0,-0.6,8.42,9.06,0.24,-0.2,-0.06,0.0,c
1341.0,3115.0,4095.0,4095.0,3582.0,3085.0,3981.0,4047.0,-0.34,8.56,9.18,-0.07,-0.2,-0.07,0.0,c
1744.0,3113.0,4095.0,4095.0,3583.0,3088.0,3989.0,4058.0,-0.24,7.9,9.97,-0.62,-0.29,-0.35,0.0,c
1867.0,3117.0,4095.0,4095.0,3569.0,3069.0,3987.0,4059.0,-0.75,6.5,10.83,-0.57,-0.04,-0.29,0.0,c
1904.0,3124.0,4095.0,4095.0,3600.0,3081.0,4003.0,4047.0,-0.72,6.68,10.89,-0.04,0.01,-0.09,0.0,c
1889.0,3120.0,4095.0,4095.0,3583.0,3067.0,3984.0,4033.0,-0.44,7.79,10.87,0.41,0.07,0.14,0.0,c
1833.0,3109.0,4095.0,4095.0,3579.0,3059.0,3984.0,4016.0,-0.32,7.55,10.5,0.27,0.25,0.15,0.0,c
1850.0,3128.0,4095.0,4095.0,3583.0,3063.0,4004.0,4032.0,-0.44,7.72,10.03,0.31,0.08,0.06,0.0,c
1819.0,3116.0,4095.0,4095.0,3583.0,3062.0,3984.0,4016.0,-0.3,8.51,10.23,0.27,0.01,0.0,0.0,c
1859.0,3132.0,4095.0,4095.0,3600.0,3088.0,3997.0,4037.0,0.11,8.35,9.56,0.04,0.08,-0.04,0.0,c
1870.0,3107.0,4095.0,4095.0,3583.0,3071.0,3984.0,4026.0,0.19,8.51,9.3,-0.03,-0.13,-0.19,0.0,c
1837.0,3135.0,4095.0,4095.0,3600.0,3083.0,3993.0,4041.0,-0.09,8.12,9.87,-0.03,0.12,-0.06,0.0,c
1842.0,3120.0,4095.0,4095.0,3599.0,3083.0,3995.0,4047.0,0.06,8.32,9.53,-0.03,0.04,-0.06,0.0,c
1861.0,3119.0,4095.0,4095.0,3579.0,3071.0,3989.0,4042.0,0.14,8.32,9.61,-0.02,-0.06,-0.07,0.0,c
1850.0,3127.0,4095.0,4095.0,3583.0,3079.0,3989.0,4053.0,0.32,8.34,9.54,-0.03,-0.13,-0.1,0.0,c
1808.0,3136.0,4095.0,4095.0,3600.0,3080.0,3975.0,4023.0,0.58,8.23,9.6,-0.09,-0.08,-0.09,0.0,c
1801.0,3120.0,4095.0,4095.0,3598.0,3082.0,3998.0,4047.0,0.41,8.24,9.62,-0.02,-0.12,-0.2,0.0,c
1780.0,3115.0,4095.0,4095.0,3583.0,3071.0,3988.0,4034.0,0.58,8.21,9.72,-0.09,-0.11,-0.14,0.0,c
1760.0,3120.0,4095.0,4095.0,3600.0,3088.0,3989.0,4043.0,0.66,8.07,9.96,-0.22,-0.04,-0.18,0.0,c
1759.0,3120.0,4095.0,4095.0,3583.0,3067.0,3987.0,4021.0,0.59,7.86,10.27,-0.1,-0.06,-0.2,0.0,c
1714.0,3122.0,4095.0,4095.0,3597.0,3086.0,4011.0,4041.0,0.64,7.99,10.07,-0.11,-0.04,-0.23,0.0,c
1731.0,3123.0,4095.0,4095.0,3579.0,3068.0,3982.0,4037.0,0.48,7.81,10.26,-0.16,-0.05,-0.27,0.0,c
1708.0,3130.0,4095.0,4095.0,3600.0,3081.0,3998.0,4047.0,0.3,7.66,10.48,-0.13,-0.03,-0.24,0.0,c
1405.0,3121.0,4095.0,4095.0,3583.0,3071.0,3990.0,4027.0,0.22,7.59,10.55,-0.06,-0.02,-0.2,0.0,c
1485.0,3127.0,4095.0,4095.0,3583.0,3070.0,3985.0,4030.0,0.31,7.52,10.75,-0.09,0.02,-0.19,0.0,c
1566.0,3126.0,4095.0,4095.0,3597.0,3071.0,3986.0,4035.0,0.28,7.46,10.77,-0.02,0.02,-0.21,0.0,c
1613.0,3129.0,4095.0,4095.0,3575.0,3067.0,3984.0,4035.0,0.36,7.45,10.83,-0.01,0.16,-0.18,0.0,c
1689.0,3131.0,4095.0,4095.0,3583.0,3081.0,4001.0,4049.0,0.17,7.43,10.77,0.01,0.14,-0.27,0.0,c
1719.0,3126.0,4095.0,4095.0,3583.0,3071.0,4000.0,4029.0,-0.21,7.45,10.72,0.04,0.08,-0.33,0.0,c
1792.0,3126.0,4095.0,4095.0,3583.0,3071.0,4005.0,4042.0,-0.98,7.44,10.74,0.09,0.03,-0.19,0.0,c
1773.0,3120.0,4095.0,4095.0,3598.0,3071.0,4002.0,4037.0,-1.02,7.55,10.52,0.18,0.06,-0.16,0.0,c
1783.0,3126.0,4095.0,4095.0,3583.0,3068.0,3988.0,4033.0,-1.04,7.79,10.14,0.14,-0.02,-0.24,0.0,c
1770.0,3136.0,4095.0,4095.0,3582.0,3067.0,3991.0,4048.0,-1.14,7.85,10.08,0.09,-0.01,-0.24,0.0,c
1643.0,3125.0,4095.0,4095.0,3583.0,3069.0,3987.0,4022.0,-1.27,7.76,10.14,0.02,0.07,-0.18,0.0,c
1618.0,3109.0,4095.0,4095.0,3598.0,3066.0,3987.0,4041.0,-1.36,7.74,10.17,0.02,0.01,-0.19,0.0,c
1601.0,3115.0,4095.0,4095.0,3583.0,3065.0,3995.0,4032.0,-1.45,7.65,10.28,0.06,0.03,-0.13,0.0,c
1623.0,3143.0,4095.0,4095.0,3603.0,3071.0,3999.0,4033.0,-1.29,7.75,10.14,0.09,0.03,-0.08,0.0,c
1606.0,3120.0,4095.0,4095.0,3583.0,3067.0,3988.0,4039.0,-1.23,7.8,10.11,0.13,-0.03,-0.13,0.0,c
1613.0,3120.0,4095.0,4095.0,3599.0,3067.0,3999.0,4047.0,-1.17,8.02,9.8,0.12,0.02,-0.13,0.0,c
1574.0,3120.0,4095.0,4095.0,3583.0,3063.0,3984.0,4024.0,-1.32,8.04,9.78,0.08,0.1,-0.07,0.0,c
1505.0,3126.0,4095.0,4095.0,3603.0,3069.0,3990.0,4029.0,-1.22,8.06,9.74,0.08,0.01,-0.1,0.0,c
1565.0,3134.0,4095.0,4095.0,3583.0,3071.0,4013.0,4033.0,-1.18,8.07,9.82,0.06,-0.01,-0.1,0.0,c
1600.0,3131.0,4095.0,4095.0,3574.0,3057.0,3981.0,4022.0,-1.19,8.08,9.77,0.08,-0.02,-0.1,0.0,c
1621.0,3122.0,4095.0,4095.0,3600.0,3071.0,3991.0,4033.0,-1.29,8.17,9.62,0.07,-0.08,-0.1,0.0,c
1649.0,3120.0,4095.0,4095.0,3579.0,3057.0,3999.0,4029.0,-1.11,8.25,9.55,0.05,-0.07,-0.03,0.0,c
1651.0,3143.0,4095.0,4095.0,3583.0,3061.0,4006.0,4041.0,-0.85,8.44,9.25,0.0,-0.11,-0.03,0.0,c
1631.0,3116.0,4095.0,4095.0,3582.0,3056.0,3985.0,4029.0,-0.49,8.32,9.52,-0.2,-0.13,-0.1,0.0,c
1651.0,3120.0,4095.0,4095.0,3600.0,3070.0,3999.0,4032.0,-0.57,7.94,10.11,-0.11,-0.1,-0.14,0.0,c
1645.0,3123.0,4095.0,4095.0,3583.0,3056.0,3983.0,4016.0,-0.47,8.06,9.9,-0.08,-0.12,-0.16,0.0,c
1681.0,3131.0,4095.0,4095.0,3575.0,3059.0,3993.0,4027.0,-0.56,7.67,10.43,-0.14,-0.05,-0.23,0.0,c
1678.0,3142.0,4095.0,4095.0,3598.0,3071.0,4015.0,4038.0,-0.51,7.64,10.41,-0.13,-0.02,-0.23,0.0,c
1670.0,3129.0,4095.0,4095.0,3581.0,3056.0,3990.0,4029.0,-0.73,7.39,10.82,-0.1,0.02,-0.2,0.0,c
1677.0,3120.0,4095.0,4095.0,3583.0,3066.0,4002.0,4032.0,-0.79,7.37,10.81,-0.01,-0.02,-0.18,0.0,c
1680.0,3136.0,4095.0,4095.0,3583.0,3061.0,3984.0,4027.0,-0.68,7.48,10.65,0.0,0.0,-0.15,0.0,c
1710.0,3126.0,4095.0,4095.0,3598.0,3071.0,4000.0,4033.0,-0.59,7.53,10.56,-0.04,-0.02,-0.19,0.0,c
1719.0,3120.0,4095.0,4095.0,3583.0,3060.0,3995.0,4032.0,-0.74,7.3,10.88,-0.05,0.01,-0.2,0.0,c
1731.0,3122.0,4095.0,4095.0,3597.0,3065.0,4015.0,4047.0,-0.84,7.26,10.93,-0.03,0.0,-0.17,0.0,c
1721.0,3121.0,4095.0,4095.0,3599.0,3059.0,3998.0,4022.0,-0.82,7.31,10.8,0.0,-0.0,-0.17,0.0,c
1727.0,3125.0,4095.0,4095.0,3583.0,3069.0,4000.0,4035.0,-0.71,7.26,10.89,-0.03,-0.01,-0.17,0.0,c
1708.0,3134.0,4095.0,4095.0,3582.0,3060.0,3989.0,4031.0,-0.85,7.16,11.03,-0.03,0.0,-0.17,0.0,c
1693.0,3127.0,4095.0,4095.0,3595.0,3070.0,4012.0,4042.0,-0.8,7.14,11.04,-0.01,0.01,-0.17,0.0,c
1709.0,3125.0,4095.0,4095.0,3600.0,3071.0,4007.0,4032.0,-0.85,7.16,11.03,-0.0,0.03,-0.15,0.0,c
1703.0,3120.0,4095.0,4095.0,3583.0,3069.0,3999.0,4016.0,-0.86,7.18,10.99,0.01,0.01,-0.17,0.0,c
1718.0,3131.0,4095.0,4095.0,3601.0,3066.0,3998.0,4032.0,-0.87,7.11,11.06,0.0,0.03,-0.16,0.0,c
1729.0,3125.0,4095.0,4095.0,3583.0,3059.0,3994.0,4026.0,-0.87,7.08,11.08,0.03,0.03,-0.17,0.0,c
1732.0,3130.0,4095.0,4095.0,3599.0,3071.0,4001.0,4049.0,-0.85,7.11,11.06,0.06,0.02,-0.21,0.0,c
1744.0,3126.0,4095.0,4095.0,3597.0,3063.0,3985.0,4020.0,-1.16,7.23,10.89,0.04,0.03,-0.25,0.0,c
1718.0,3136.0,4095.0,4095.0,3603.0,3063.0,3993.0,4030.0,-1.25,7.17,10.9,0.03,0.08,-0.19,0.0,c
1712.0,3122.0,4095.0,4095.0,3597.0,3069.0,4000.0,4025.0,-1.24,7.13,10.93,0.04,0.01,-0.23,0.0,c
2640.0,3122.0,4095.0,4095.0,3602.0,3071.0,3999.0,4062.0,-1.47,6.98,11.12,0.11,-0.03,-0.22,0.0,c
2738.0,3121.0,4095.0,4095.0,3610.0,3071.0,4016.0,4080.0,-1.59,7.06,10.94,0.03,0.01,-0.13,0.0,c
2717.0,3122.0,4095.0,4095.0,3605.0,3071.0,3998.0,4066.0,-1.52,7.05,10.99,0.04,-0.0,-0.11,0.0,c
2704.0,3135.0,4095.0,4095.0,3614.0,3081.0,4006.0,4073.0,-1.41,7.07,10.94,0.05,0.02,-0.09,0.0,c
2704.0,3120.0,4095.0,4095.0,3615.0,3071.0,3986.0,4067.0,-1.35,7.14,10.89,0.07,0.0,-0.11,0.0,c
2717.0,3120.0,4095.0,4095.0,3614.0,3071.0,4000.0,4080.0,-1.38,7.25,10.77,0.04,0.01,-0.13,0.0,c
2683.0,3125.0,4095.0,4095.0,3611.0,3071.0,3999.0,4067.0,-1.37,7.27,10.78,0.04,0.01,-0.12,0.0,c
2672.0,3138.0,4095.0,4095.0,3631.0,3088.0,4023.0,4083.0,-1.4,7.22,10.8,0.03,0.01,-0.14,0.0,c
2653.0,3119.0,4095.0,4095.0,3613.0,3071.0,4004.0,4080.0,-1.45,7.2,10.85,0.04,0.01,-0.12,0.0,c
2691.0,3131.0,4095.0,4095.0,3631.0,3071.0,3993.0,4064.0,-1.33,7.31,10.69,0.03,0.02,-0.13,0.0,c
2686.0,3116.0,4095.0,4095.0,3628.0,3083.0,4010.0,4079.0,-1.36,7.27,10.72,0.04,-0.0,-0.14,0.0,c
2698.0,3120.0,4095.0,4095.0,3610.0,3071.0,4001.0,4080.0,-1.4,7.29,10.73,0.01,-0.03,-0.16,0.0,c
2693.0,3123.0,4095.0,4095.0,3625.0,3083.0,4010.0,4095.0,-1.38,7.18,10.87,0.06,0.03,-0.08,0.0,c
2639.0,3113.0,4095.0,4095.0,3613.0,3071.0,3995.0,4065.0,-1.52,7.26,10.78,0.11,-0.07,-0.08,0.0,c
2655.0,3119.0,4095.0,4095.0,3622.0,3082.0,4013.0,4091.0,-1.34,7.35,10.69,0.15,-0.1,-0.05,0.0,c
2625.0,3122.0,4095.0,4095.0,3611.0,3071.0,4005.0,4071.0,-1.07,7.42,10.68,0.18,-0.02,0.02,0.0,c
2635.0,3133.0,4095.0,4095.0,3616.0,3069.0,3999.0,4087.0,-0.89,7.56,10.5,0.29,0.04,0.1,0.0,c
2634.0,3120.0,4095.0,4095.0,3613.0,3071.0,4015.0,4080.0,-0.61,8.0,9.93,0.29,0.04,0.07,0.0,c
2654.0,3120.0,4095.0,4095.0,3606.0,3083.0,4021.0,4095.0,-0.53,8.18,9.71,0.23,-0.02,-0.0,0.0,c
2613.0,3128.0,4095.0,4095.0,3607.0,3082.0,4006.0,4079.0,-0.58,8.23,9.62,0.15,-0.05,-0.01,0.0,c
3264.0,3389.0,4095.0,4095.0,3638.0,2943.0,3811.0,3802.0,-1.03,8.51,9.22,0.02,0.03,-0.1,0.0,c
3262.0,3387.0,4095.0,4095.0,3642.0,2929.0,3806.0,3802.0,-1.02,8.34,9.28,0.01,0.07,-0.09,0.0,c
3269.0,3380.0,4095.0,4095.0,3647.0,2937.0,3809.0,3795.0,-1.12,8.42,9.26,-0.06,-0.01,-0.04,0.0,c
3255.0,3381.0,4095.0,4095.0,3644.0,2927.0,3792.0,3792.0,-0.81,8.36,9.34,-0.08,0.0,-0.03,0.0,c
3266.0,3391.0,4095.0,4095.0,3648.0,2928.0,3782.0,3795.0,-0.35,8.65,8.8,-0.02,0.25,-0.02,0.0,c
3268.0,3383.0,4095.0,4095.0,3636.0,2933.0,3774.0,3792.0,-1.17,8.0,10.18,-0.41,0.7,0.13,0.0,c
3267.0,3392.0,4095.0,4095.0,3653.0,2944.0,3793.0,3798.0,-1.52,7.83,9.96,-0.15,0.15,-0.0,0.0,c
3253.0,3366.0,4095.0,4095.0,3647.0,2939.0,3786.0,3791.0,-1.05,7.79,10.35,-0.05,-0.22,-0.02,0.0,c
3255.0,3390.0,4095.0,4095.0,3650.0,2945.0,3779.0,3803.0,-0.51,7.9,10.1,-0.03,-0.14,0.03,0.0,c
3264.0,3386.0,4095.0,4095.0,3647.0,2933.0,3778.0,3791.0,-0.43,7.87,10.34,0.0,-0.14,0.01,0.0,c
3274.0,3380.0,4095.0,4095.0,3647.0,2944.0,3792.0,3822.0,0.19,7.92,9.89,0.09,-0.3,-0.14,0.0,c
3263.0,3364.0,4095.0,4095.0,3649.0,2945.0,3781.0,3792.0,0.17,7.93,10.29,0.04,-0.09,-0.19,0.0,c
3267.0,3376.0,4095.0,4095.0,3657.0,2945.0,3781.0,3803.0,-0.07,8.09,9.94,0.08,-0.04,-0.24,0.0,c
3267.0,3375.0,4095.0,4095.0,3642.0,2935.0,3787.0,3822.0,-0.25,8.1,9.88,0.04,-0.0,-0.23,0.0,c
3280.0,3392.0,4095.0,4095.0,3657.0,2945.0,3801.0,3809.0,-0.36,8.01,10.04,0.01,0.02,-0.19,0.0,c
3280.0,3391.0,4095.0,4095.0,3655.0,2943.0,3806.0,3824.0,-0.44,7.97,10.13,0.08,0.09,-0.13,0.0,c
3255.0,3370.0,4095.0,4095.0,3651.0,2944.0,3783.0,3804.0,-0.34,8.16,9.8,0.07,-0.0,-0.17,0.0,c
3264.0,3379.0,4095.0,4095.0,3654.0,2943.0,3792.0,3824.0,-0.45,8.15,9.68,0.03,0.01,-0.15,0.0,c
3269.0,3378.0,4095.0,4095.0,3658.0,2943.0,3792.0,3807.0,-0.48,8.14,9.91,-0.01,-0.02,-0.14,0.0,c
3271.0,3387.0,4095.0,4095.0,3673.0,2946.0,3792.0,3807.0,-0.33,8.14,9.86,0.0,-0.03,-0.12,0.0,c
3276.0,3390.0,4095.0,4095.0,3664.0,2942.0,3792.0,3813.0,-0.54,8.11,9.81,0.02,-0.05,-0.17,0.0,c
3276.0,3379.0,4095.0,4095.0,3665.0,2944.0,3802.0,3822.0,-0.36,8.08,10.0,0.05,0.05,-0.11,0.0,c
3258.0,3376.0,4095.0,4095.0,3661.0,2945.0,3797.0,3806.0,-0.34,8.08,9.85,0.05,0.02,-0.12,0.0,c
3279.0,3390.0,4095.0,4095.0,3668.0,2947.0,3796.0,3825.0,-0.6,8.11,9.88,-0.02,-0.02,-0.08,0.0,c
3271.0,3381.0,4095.0,4095.0,3659.0,2943.0,3793.0,3814.0,-0.31,8.19,9.71,-0.01,-0.05,-0.06,0.0,c
3264.0,3374.0,4095.0,4095.0,3681.0,2951.0,3808.0,3818.0,0.03,7.93,10.22,-0.03,-0.0,-0.09,0.0,c
3275.0,3371.0,4095.0,4095.0,3660.0,2943.0,3786.0,3801.0,-0.19,7.97,10.15,0.02,0.03,-0.1,0.0,c
3280.0,3386.0,4095.0,4095.0,3667.0,2947.0,3802.0,3817.0,0.06,8.1,9.95,0.1,-0.02,-0.17,0.0,c
3275.0,3371.0,4095.0,4095.0,3664.0,2946.0,3792.0,3801.0,-0.02,8.11,9.95,0.11,0.02,-0.23,0.0,c
3280.0,3380.0,4095.0,4095.0,3674.0,2948.0,3812.0,3827.0,-0.37,8.2,9.73,0.15,-0.01,-0.26,0.0,c
3262.0,3373.0,4095.0,4095.0,3663.0,2942.0,3789.0,3798.0,-0.48,8.33,9.46,0.1,-0.04,-0.26,0.0,c
3281.0,3377.0,4095.0,4095.0,3661.0,2949.0,3805.0,3817.0,-0.55,8.27,9.53,0.06,0.04,-0.19,0.0,c
3281.0,3381.0,4095.0,4095.0,3664.0,2951.0,3806.0,3822.0,-0.55,8.39,9.34,0.03,-0.05,-0.18,0.0,c
3278.0,3383.0,4095.0,4095.0,3658.0,2946.0,3798.0,3814.0,-0.51,8.25,9.65,-0.04,-0.02,-0.16,0.0,c
3263.0,3379.0,4095.0,4095.0,3683.0,2951.0,3799.0,3815.0,-0.5,8.24,9.72,-0.03,-0.02,-0.16,0.0,c
3282.0,3371.0,4095.0,4095.0,3663.0,2944.0,3796.0,3815.0,-0.48,8.23,9.71,0.01,0.01,-0.14,0.0,c
3279.0,3385.0,4095.0,4095.0,3663.0,2953.0,3814.0,3824.0,-0.55,8.32,9.51,-0.02,-0.07,-0.18,0.0,c
3278.0,3381.0,4095.0,4095.0,3664.0,2941.0,3791.0,3810.0,-0.45,8.2,9.74,-0.02,-0.01,-0.14,0.0,c
3267.0,3393.0,4095.0,4095.0,3671.0,2950.0,3806.0,3823.0,-0.5,8.17,9.76,-0.05,-0.05,-0.18,0.0,c
3273.0,3370.0,4095.0,4095.0,3667.0,2949.0,3797.0,3802.0,-0.35,8.13,9.94,-0.05,-0.06,-0.18,0.0,c
3280.0,3387.0,4095.0,4095.0,3677.0,2952.0,3792.0,3797.0,-0.49,8.14,9.86,0.01,-0.0,-0.15,0.0,c
3273.0,3367.0,4095.0,4095.0,3657.0,2938.0,3790.0,3797.0,-0.48,8.07,9.9,0.05,0.01,-0.15,0.0,c
3285.0,3376.0,4095.0,4095.0,3677.0,2946.0,3803.0,3803.0,-0.49,8.16,9.77,0.09,0.04,-0.15,0.0,c
3289.0,3379.0,4095.0,4095.0,3664.0,2947.0,3796.0,3792.0,-0.58,8.3,9.61,0.05,0.04,-0.14,0.0,c
3281.0,3377.0,4095.0,4095.0,3669.0,2950.0,3803.0,3811.0,-0.51,8.23,9.64,0.06,-0.0,-0.21,0.0,c
3280.0,3366.0,4095.0,4095.0,3664.0,2951.0,3791.0,3799.0,-0.6,8.33,9.47,0.01,-0.01,-0.21,0.0,c
3281.0,3376.0,4095.0,4095.0,3670.0,2957.0,3809.0,3822.0,-0.75,8.32,9.44,-0.06,0.03,-0.17,0.0,c
3279.0,3375.0,4095.0,4095.0,3671.0,2944.0,3795.0,3807.0,-0.83,8.2,9.76,-0.08,0.04,-0.18,0.0,c
3281.0,3373.0,4095.0,4095.0,3671.0,2946.0,3795.0,3814.0,-0.81,8.08,9.78,-0.07,0.02,-0.11,0.0,c
3265.0,3371.0,4095.0,4095.0,3655.0,2950.0,3792.0,3798.0,-0.62,8.07,9.95,-0.07,-0.03,-0.12,0.0,c
3285.0,3391.0,4095.0,4095.0,3670.0,2949.0,3807.0,3823.0,-0.56,7.91,10.18,-0.03,0.01,-0.13,0.0,c
3285.0,3373.0,4095.0,4095.0,3663.0,2954.0,3799.0,3818.0,-0.72,7.99,10.04,0.02,0.01,-0.17,0.0,c
3269.0,3376.0,4095.0,4095.0,3665.0,2953.0,3791.0,3808.0,-0.76,8.04,9.84,0.0,-0.01,-0.15,0.0,c
3280.0,3387.0,4095.0,4095.0,3669.0,2960.0,3815.0,3823.0,-0.67,7.98,10.0,-0.04,-0.03,-0.15,0.0,c
3285.0,3379.0,4095.0,4095.0,3664.0,2951.0,3798.0,3797.0,-0.62,7.92,10.13,-0.01,-0.0,-0.15,0.0,c
3295.0,3379.0,4095.0,4095.0,3653.0,2951.0,3815.0,3822.0,-0.55,7.95,10.02,-0.01,-0.02,-0.17,0.0,c
3280.0,3369.0,4095.0,4095.0,3664.0,2953.0,3811.0,3803.0,-0.71,7.87,10.24,0.04,-0.01,-0.19,0.0,c
3294.0,3376.0,4095.0,4095.0,3678.0,2961.0,3813.0,3792.0,-0.83,8.05,9.88,0.07,0.02,-0.17,0.0,c
3287.0,3383.0,4095.0,4095.0,3659.0,2949.0,3798.0,3798.0,-0.75,8.1,9.72,-0.03,-0.03,-0.15,0.0,c
3280.0,3376.0,4095.0,4095.0,3664.0,2965.0,3809.0,3817.0,-0.65,7.86,10.22,-0.02,-0.06,-0.15,0.0,c
3297.0,3383.0,4095.0,4095.0,3662.0,2949.0,3795.0,3793.0,-0.9,8.26,9.56,-0.02,-0.06,-0.15,0.0,c
3307.0,3383.0,4095.0,4095.0,3662.0,2957.0,3809.0,3822.0,-0.47,8.1,9.97,-0.03,0.14,-0.02,0.0,c
3289.0,3385.0,4095.0,4095.0,3664.0,2959.0,3793.0,3802.0,-0.48,8.14,9.84,0.03,-0.01,-0.11,0.0,c
3291.0,3379.0,4095.0,4095.0,3678.0,2960.0,3801.0,3809.0,-0.57,8.28,9.63,0.0,0.03,-0.13,0.0,c
3280.0,3392.0,4095.0,4095.0,3665.0,2958.0,3798.0,3794.0,-1.28,7.97,10.15,0.08,0.18,0.09,0.0,c
3293.0,3387.0,4095.0,4095.0,3666.0,2958.0,3813.0,3817.0,-0.49,8.48,9.0,0.08,-0.18,0.13,0.0,c
3278.0,3377.0,4095.0,4095.0,3667.0,2960.0,3808.0,3809.0,0.72,8.38,9.48,-0.0,-0.03,0.13,0.0,c
3294.0,3378.0,4095.0,4095.0,3664.0,2954.0,3804.0,3809.0,0.56,8.38,9.5,0.02,-0.03,-0.04,0.0,c
3290.0,3389.0,4095.0,4095.0,3675.0,2959.0,3809.0,3807.0,0.43,8.21,9.82,0.03,-0.09,-0.16,0.0,c
3299.0,3389.0,4095.0,4095.0,3661.0,2956.0,3803.0,3807.0,0.52,8.21,9.91,0.13,-0.02,-0.24,0.0,c
3283.0,3397.0,4095.0,4095.0,3669.0,2960.0,3815.0,3813.0,0.21,8.39,9.34,0.22,0.01,-0.34,0.0,c
3289.0,3385.0,4095.0,4095.0,3655.0,2958.0,3792.0,3802.0,-0.07,8.61,9.11,0.04,0.08,-0.28,0.0,c
3285.0,3392.0,4095.0,4095.0,3648.0,2961.0,3827.0,3828.0,-0.5,8.53,9.26,0.07,-0.02,-0.29,0.0,c
3274.0,3379.0,4095.0,4095.0,3644.0,2957.0,3815.0,3824.0,-0.55,8.57,9.15,0.02,0.14,-0.19,0.0,c
3282.0,3393.0,4095.0,4095.0,3648.0,2957.0,3838.0,3849.0,-0.54,8.29,9.51,-0.05,0.14,-0.13,0.0,c
3254.0,3390.0,4095.0,4095.0,3657.0,2953.0,3818.0,3834.0,-0.54,8.26,9.45,0.04,-0.02,-0.22,0.0,c
3271.0,3405.0,4095.0,4095.0,3664.0,2962.0,3834.0,3843.0,-0.6,8.45,9.27,0.02,0.04,-0.14,0.0,c
3255.0,3376.0,4095.0,4095.0,3663.0,2953.0,3829.0,3841.0,-0.55,8.35,9.42,0.01,-0.02,-0.14,0.0,c
3268.0,3384.0,4095.0,4095.0,3679.0,2950.0,3824.0,3830.0,-0.56,8.4,9.37,0.01,-0.07,-0.16,0.0,c
3282.0,3387.0,4095.0,4095.0,3675.0,2957.0,3818.0,3850.0,-0.5,8.44,9.35,0.02,-0.04,-0.17,0.0,c
3268.0,3382.0,4095.0,4095.0,3664.0,2955.0,3824.0,3837.0,-0.47,8.32,9.55,0.0,-0.01,-0.14,0.0,c
3282.0,3394.0,4095.0,4095.0,3690.0,2962.0,3840.0,3853.0,-0.51,8.41,9.45,0.04,0.01,-0.14,0.0,c
3264.0,3379.0,4095.0,4095.0,3693.0,2959.0,3828.0,3837.0,-0.4,8.32,9.58,0.01,0.11,-0.12,0.0,c
3277.0,3403.0,4095.0,4095.0,3702.0,2960.0,3855.0,3862.0,-0.69,8.32,9.52,0.09,0.04,-0.12,0.0,c
3270.0,3394.0,4095.0,4095.0,3705.0,2967.0,3853.0,3856.0,-0.71,8.34,9.39,0.03,0.09,-0.03,0.0,c
3254.0,3380.0,4095.0,4095.0,3699.0,2959.0,3835.0,3840.0,-0.47,8.43,9.25,0.0,-0.08,-0.03,0.0,c
3262.0,3397.0,4095.0,4095.0,3706.0,2960.0,3839.0,3859.0,-0.07,8.52,9.25,0.05,-0.09,-0.09,0.0,c
3258.0,3386.0,4095.0,4095.0,3701.0,2955.0,3827.0,3842.0,-0.01,8.38,9.47,0.03,-0.05,-0.15,0.0,c
3267.0,3390.0,4095.0,4095.0,3713.0,2965.0,3839.0,3851.0,-0.07,8.43,9.5,0.03,-0.01,-0.19,0.0,c
3259.0,3393.0,4095.0,4095.0,3699.0,2959.0,3825.0,3839.0,-0.31,8.38,9.42,0.04,0.05,-0.22,0.0,c
3274.0,3387.0,4095.0,4095.0,3742.0,2966.0,3839.0,3850.0,-0.27,8.49,9.34,-0.02,0.18,-0.26,0.0,c
3255.0,3376.0,4095.0,4095.0,3778.0,2964.0,3819.0,3829.0,-0.52,8.61,8.58,-0.0,-0.24,-0.2,0.0,c
3280.0,3391.0,4095.0,4095.0,3787.0,2974.0,3844.0,3856.0,-0.15,8.25,9.72,-0.15,0.29,-0.05,0.0,c
3263.0,3388.0,4095.0,4095.0,3767.0,2970.0,3820.0,3833.0,-0.83,8.42,9.33,-0.03,-0.05,-0.26,0.0,c
3281.0,3405.0,4095.0,4095.0,3780.0,2969.0,3842.0,3859.0,-0.98,8.23,9.54,-0.16,0.07,-0.05,0.0,c
3265.0,3376.0,4095.0,4095.0,3776.0,2973.0,3825.0,3836.0,-0.15,8.14,9.84,-0.19,0.15,-0.02,0.0,c
3260.0,3380.0,4095.0,4095.0,3789.0,2969.0,3831.0,3834.0,-0.57,7.89,10.36,-0.07,0.35,-0.02,0.0,c
3280.0,3391.0,4095.0,4095.0,3792.0,2981.0,3847.0,3856.0,-0.73,8.07,9.88,0.1,0.04,-0.14,0.0,c
3258.0,3394.0,4095.0,4095.0,3776.0,2969.0,3827.0,3839.0,-0.54,8.26,9.56,0.06,0.02,-0.18,0.0,c
3266.0,3378.0,4095.0,4095.0,3792.0,2981.0,3852.0,3856.0,-0.82,8.27,9.61,-0.03,-0.04,-0.24,0.0,c
3265.0,3397.0,4095.0,4095.0,3771.0,2970.0,3813.0,3846.0,-0.52,8.2,9.71,-0.02,-0.02,-0.15,0.0,c
3270.0,3397.0,4095.0,4095.0,3802.0,2982.0,3829.0,3847.0,-0.62,8.24,9.56,-0.06,-0.06,-0.18,0.0,c
3269.0,3395.0,4095.0,4095.0,3783.0,2976.0,3824.0,3845.0,-0.48,8.04,10.0,-0.1,-0.06,-0.2,0.0,c
3282.0,3409.0,4095.0,4095.0,3797.0,2982.0,3829.0,3845.0,-0.32,7.86,10.32,-0.08,-0.02,-0.24,0.0,c
3268.0,3392.0,4095.0,4095.0,3805.0,2987.0,3829.0,3831.0,-0.88,7.86,10.13,0.1,0.11,-0.15,0.0,c
3276.0,3383.0,4095.0,4095.0,3782.0,2971.0,3824.0,3824.0,-0.41,8.07,9.88,0.1,0.04,-0.09,0.0,c
3274.0,3396.0,4095.0,4095.0,3786.0,2981.0,3854.0,3853.0,-0.84,8.19,9.73,0.16,0.07,-0.17,0.0,c
3267.0,3376.0,4095.0,4095.0,3790.0,2976.0,3824.0,3833.0,-0.94,8.25,9.5,0.01,-0.04,-0.19,0.0,c
3272.0,3389.0,4095.0,4095.0,3792.0,2981.0,3839.0,3855.0,-0.68,8.08,9.8,0.05,0.08,-0.02,0.0,c
3266.0,3395.0,4095.0,4095.0,3779.0,2975.0,3827.0,3830.0,-0.31,8.31,9.6,0.03,-0.06,-0.2,0.0,c
3280.0,3399.0,4095.0,4095.0,3774.0,2979.0,3843.0,3851.0,-0.64,8.26,9.62,-0.02,-0.02,-0.23,0.0,c
3267.0,3385.0,4095.0,4095.0,3789.0,2975.0,3822.0,3833.0,-0.8,8.17,9.77,0.01,-0.03,-0.27,0.0,c
3266.0,3383.0,4095.0,4095.0,3787.0,2976.0,3841.0,3840.0,-0.99,8.14,9.76,0.05,-0.02,-0.23,0.0,c
3279.0,3391.0,4095.0,4095.0,3771.0,2973.0,3823.0,3834.0,-0.96,8.14,9.78,0.03,-0.0,-0.22,0.0,c
3280.0,3405.0,4095.0,4095.0,3785.0,2979.0,3824.0,3835.0,-1.15,8.16,9.67,0.04,0.06,-0.14,0.0,c
3275.0,3380.0,4095.0,4095.0,3788.0,2975.0,3825.0,3828.0,-0.96,8.33,9.32,0.0,-0.09,-0.22,0.0,c
3277.0,3390.0,4095.0,4095.0,3765.0,2980.0,3827.0,3824.0,-0.88,8.15,9.57,-0.02,0.0,-0.14,0.0,c
3279.0,3402.0,4095.0,4095.0,3791.0,2977.0,3824.0,3822.0,-0.88,8.15,9.73,0.01,0.01,-0.17,0.0,c
3279.0,3391.0,4095.0,4095.0,3767.0,2979.0,3822.0,3827.0,-1.09,8.16,9.67,0.01,0.0,-0.18,0.0,c
3280.0,3391.0,4095.0,4095.0,3784.0,2988.0,3833.0,3827.0,-1.08,8.17,9.62,-0.01,-0.04,-0.19,0.0,c
3273.0,3401.0,4095.0,4095.0,3758.0,2974.0,3825.0,3847.0,-0.81,8.11,9.75,-0.01,-0.01,-0.1,0.0,c
3280.0,3398.0,4095.0,4095.0,3745.0,2975.0,3807.0,3830.0,-0.94,8.18,9.65,0.01,-0.03,-0.17,0.0,c
3275.0,3401.0,4095.0,4095.0,3750.0,2979.0,3799.0,3824.0,-1.15,8.31,9.42,-0.04,-0.01,-0.15,0.0,c
3280.0,3391.0,4095.0,4095.0,3759.0,2977.0,3813.0,3826.0,-0.85,8.21,9.67,-0.15,0.11,-0.05,0.0,c
3271.0,3386.0,4095.0,4095.0,3760.0,2976.0,3812.0,3813.0,-0.64,7.85,10.22,-0.19,0.08,-0.17,0.0,c
3279.0,3395.0,4095.0,4095.0,3764.0,2985.0,3822.0,3829.0,-1.11,7.88,10.07,0.01,0.09,-0.2,0.0,c
3274.0,3399.0,4095.0,4095.0,3755.0,2971.0,3810.0,3825.0,-1.07,7.88,9.9,-0.04,-0.0,-0.21,0.0,c
3276.0,3407.0,4095.0,4095.0,3760.0,2991.0,3833.0,3831.0,-1.09,7.84,10.11,-0.07,0.01,-0.23,0.0,c
3280.0,3377.0,4095.0,4095.0,3758.0,2980.0,3823.0,3815.0,-1.18,7.75,10.15,-0.07,-0.08,-0.31,0.0,c
3278.0,3394.0,4095.0,4095.0,3750.0,2973.0,3826.0,3827.0,-1.37,7.56,10.34,-0.1,0.3,-0.1,0.0,c
3273.0,3397.0,4095.0,4095.0,3712.0,2976.0,3815.0,3825.0,-1.82,7.67,10.1,-0.06,0.49,0.08,0.0,c
3289.0,3408.0,4095.0,4095.0,3719.0,2977.0,3817.0,3831.0,-1.8,7.47,10.54,0.0,0.02,-0.11,0.0,c
3280.0,3395.0,4095.0,4095.0,3717.0,2974.0,3822.0,3829.0,-1.44,7.43,10.6,0.14,-0.0,-0.06,0.0,c
3285.0,3405.0,4095.0,4095.0,3742.0,2982.0,3824.0,3818.0,-1.58,8.0,9.77,0.2,-0.04,-0.11,0.0,c
3281.0,3406.0,4095.0,4095.0,3731.0,2987.0,3839.0,3839.0,-1.23,7.78,10.01,0.04,0.16,0.07,0.0,c
3270.0,3398.0,4095.0,4095.0,3725.0,2979.0,3820.0,3824.0,-1.07,7.94,9.98,0.1,0.05,-0.03,0.0,c
3290.0,3407.0,4095.0,4095.0,3728.0,2993.0,3838.0,3834.0,-1.18,8.03,9.79,0.06,-0.0,-0.19,0.0,c
3277.0,3391.0,4095.0,4095.0,3727.0,2983.0,3823.0,3821.0,-1.27,8.1,9.58,-0.01,0.01,-0.17,0.0,c
3283.0,3404.0,4095.0,4095.0,3731.0,2982.0,3838.0,3843.0,-1.45,7.85,10.07,-0.03,-0.0,-0.17,0.0,c
3271.0,3391.0,4095.0,4095.0,3721.0,2975.0,3822.0,3829.0,-1.46,7.97,9.88,0.06,-0.08,-0.19,0.0,c
3287.0,3394.0,4095.0,4095.0,3731.0,2977.0,3829.0,3844.0,-1.43,8.0,9.77,0.02,0.02,-0.16,0.0,c
3282.0,3392.0,4095.0,4095.0,3728.0,2977.0,3821.0,3826.0,-1.46,7.99,9.8,0.0,-0.03,-0.15,0.0,c
3274.0,3393.0,4095.0,4095.0,3735.0,2989.0,3831.0,3849.0,-1.46,7.98,9.81,0.03,-0.0,-0.11,0.0,c
3281.0,3403.0,4095.0,4095.0,3722.0,2978.0,3820.0,3827.0,-1.3,8.01,9.77,0.01,-0.01,-0.1,0.0,c
3280.0,3406.0,4095.0,4095.0,3737.0,2985.0,3827.0,3837.0,-1.24,8.02,9.92,-0.0,-0.03,-0.11,0.0,c
3280.0,3405.0,4095.0,4095.0,3722.0,2973.0,3824.0,3829.0,-1.31,7.99,9.82,0.01,-0.03,-0.12,0.0,c
3281.0,3402.0,4095.0,4095.0,3743.0,2986.0,3835.0,3836.0,-1.27,8.0,9.84,-0.01,-0.01,-0.11,0.0,c
3276.0,3389.0,4095.0,4095.0,3728.0,2979.0,3821.0,3834.0,-1.17,8.03,9.84,0.02,-0.02,-0.12,0.0,c
3298.0,3399.0,4095.0,4095.0,3729.0,2983.0,3824.0,3835.0,-1.12,8.02,9.85,0.02,-0.02,-0.13,0.0,c
3280.0,3391.0,4095.0,4095.0,3733.0,2978.0,3814.0,3823.0,-1.1,8.07,9.78,0.01,-0.03,-0.15,0.0,c
3290.0,3411.0,4095.0,4095.0,3742.0,2991.0,3834.0,3839.0,-1.15,8.02,9.92,-0.0,0.0,-0.15,0.0,c
3270.0,3391.0,4095.0,4095.0,3728.0,2983.0,3824.0,3829.0,-1.12,8.04,9.83,0.02,-0.01,-0.15,0.0,c
3301.0,3409.0,4095.0,4095.0,3729.0,2978.0,3828.0,3831.0,-1.14,8.06,9.83,0.0,-0.01,-0.15,0.0,c
3286.0,3402.0,4095.0,4095.0,3734.0,2982.0,3824.0,3837.0,-1.12,8.04,9.81,-0.01,0.0,-0.14,0.0,c
3277.0,3390.0,4095.0,4095.0,3740.0,2981.0,3823.0,3831.0,-1.1,7.95,9.98,-0.02,-0.04,-0.18,0.0,c
3293.0,3407.0,4095.0,4095.0,3739.0,2983.0,3827.0,3841.0,-1.15,7.96,9.92,0.02,-0.0,-0.15,0.0,c
3274.0,3399.0,4095.0,4095.0,3741.0,2983.0,3829.0,3839.0,-1.16,7.98,9.86,0.05,0.04,-0.14,0.0,c
3285.0,3397.0,4095.0,4095.0,3749.0,2986.0,3827.0,3835.0,-1.09,8.1,9.7,-0.02,-0.22,-0.28,0.0,c
3286.0,3395.0,4095.0,4095.0,3728.0,2976.0,3815.0,3837.0,-1.24,7.99,9.91,0.03,-0.16,-0.26,0.0,c
3286.0,3399.0,4095.0,4095.0,3731.0,2987.0,3838.0,3858.0,-1.3,8.01,9.84,-0.0,-0.22,-0.23,0.0,c
3306.0,3407.0,4095.0,4095.0,3730.0,2981.0,3830.0,3856.0,-1.12,8.06,9.85,0.07,0.01,-0.17,0.0,c
3293.0,3390.0,4095.0,4095.0,3739.0,2982.0,3822.0,3835.0,-1.0,7.92,10.03,-0.04,0.04,-0.1,0.0,c
3299.0,3394.0,4095.0,4095.0,3746.0,2981.0,3833.0,3851.0,-0.91,7.88,10.08,0.01,-0.04,-0.16,0.0,c
3285.0,3387.0,4095.0,4095.0,3734.0,2975.0,3814.0,3834.0,-0.87,7.87,10.14,-0.02,0.02,-0.14,0.0,c
3287.0,3414.0,4095.0,4095.0,3745.0,2983.0,3826.0,3847.0,-1.05,7.82,10.16,0.02,-0.05,-0.19,0.0,c
3280.0,3392.0,4095.0,4095.0,3737.0,2976.0,3822.0,3827.0,-1.02,7.88,10.05,0.05,-0.02,-0.19,0.0,c
3298.0,3399.0,4095.0,4095.0,3744.0,2979.0,3824.0,3853.0,-1.01,7.93,9.98,0.02,0.03,-0.13,0.0,c
3284.0,3389.0,4095.0,4095.0,3741.0,2976.0,3824.0,3830.0,-0.99,7.94,10.02,0.03,-0.03,-0.15,0.0,c
3285.0,3413.0,4095.0,4095.0,3738.0,2977.0,3842.0,3854.0,-0.97,7.92,10.06,0.0,-0.01,-0.15,0.0,c
3273.0,3399.0,4095.0,4095.0,3742.0,2977.0,3819.0,3845.0,-0.97,7.86,10.14,0.0,0.0,-0.14,0.0,c
3290.0,3396.0,4095.0,4095.0,3757.0,2983.0,3833.0,3854.0,-1.02,7.93,10.02,0.03,0.01,-0.14,0.0,c
3282.0,3395.0,4095.0,4095.0,3749.0,2981.0,3829.0,3853.0,-0.98,7.93,10.04,0.02,0.01,-0.14,0.0,c
3289.0,3392.0,4095.0,4095.0,3746.0,2978.0,3824.0,3844.0,-0.98,7.84,10.13,0.01,-0.01,-0.14,0.0,c
3294.0,3399.0,4095.0,4095.0,3747.0,2982.0,3830.0,3847.0,-0.97,7.89,10.07,0.01,-0.01,-0.15,0.0,c
3294.0,3407.0,4095.0,4095.0,3735.0,2974.0,3822.0,3854.0,-0.97,7.92,9.99,0.01,0.0,-0.15,0.0,c
3298.0,3402.0,4095.0,4095.0,3756.0,2987.0,3843.0,3856.0,-1.02,7.89,10.02,0.01,-0.0,-0.13,0.0,c
3280.0,3400.0,4095.0,4095.0,3741.0,2985.0,3824.0,3838.0,-0.93,7.88,10.11,0.01,-0.01,-0.15,0.0,c
3286.0,3413.0,4095.0,4095.0,3746.0,2987.0,3831.0,3865.0,-0.94,7.93,9.98,0.0,-0.0,-0.15,0.0,c
3286.0,3397.0,4095.0,4095.0,3747.0,2978.0,3818.0,3843.0,-0.97,7.86,10.14,0.02,-0.01,-0.15,0.0,c
3280.0,3403.0,4095.0,4095.0,3760.0,2980.0,3824.0,3841.0,-1.03,7.91,10.07,0.02,-0.01,-0.16,0.0,c
3295.0,3417.0,4095.0,4095.0,3742.0,2979.0,3819.0,3843.0,-0.99,7.88,10.07,0.02,-0.03,-0.16,0.0,c
3289.0,3408.0,4095.0,4095.0,3749.0,2981.0,3835.0,3859.0,-0.95,7.78,10.23,0.02,0.01,-0.13,0.0,c
3281.0,3389.0,4095.0,4095.0,3742.0,2976.0,3822.0,3854.0,-0.92,8.1,10.07,0.11,-0.04,-0.16,0.0,c
3308.0,3413.0,4095.0,4095.0,3760.0,2991.0,3842.0,3859.0,-0.98,7.91,10.03,0.01,-0.04,-0.17,0.0,c
3296.0,3399.0,4095.0,4095.0,3742.0,2977.0,3812.0,3847.0,-1.01,7.87,10.07,-0.01,-0.0,-0.14,0.0,c
3295.0,3399.0,4095.0,4095.0,3759.0,2981.0,3826.0,3857.0,-0.71,7.86,10.16,-0.09,0.08,-0.1,0.0,c
3283.0,3393.0,4095.0,4095.0,3753.0,2977.0,3821.0,3844.0,-1.12,7.64,10.48,-0.02,0.06,-0.2,0.0,c
3280.0,3399.0,4095.0,4095.0,3760.0,2990.0,3830.0,3851.0,-1.4,7.85,10.03,0.01,-0.0,-0.12,0.0,c
3295.0,3406.0,4095.0,4095.0,3757.0,2985.0,3834.0,3865.0,-0.83,7.79,10.18,-0.2,-0.12,-0.15,0.0,c
3280.0,3399.0,4095.0,4095.0,3748.0,2985.0,3825.0,3843.0,-1.03,7.52,10.7,-0.03,-0.04,-0.2,0.0,c
3298.0,3408.0,4095.0,4095.0,3751.0,2979.0,3826.0,3854.0,-1.07,7.55,10.52,0.01,-0.4,-0.29,0.0,c
3277.0,3407.0,4095.0,4095.0,3749.0,2980.0,3811.0,3834.0,-0.45,7.46,10.67,-0.0,-0.24,-0.17,0.0,c
3291.0,3413.0,4095.0,4095.0,3759.0,2983.0,3826.0,3862.0,-0.52,7.48,10.68,-0.02,0.22,-0.0,0.0,c
3285.0,3401.0,4095.0,4095.0,3742.0,2981.0,3821.0,3835.0,-0.58,7.52,10.71,-0.01,0.05,-0.12,0.0,c
3299.0,3407.0,4095.0,4095.0,3760.0,2987.0,3838.0,3849.0,-0.71,7.56,10.57,0.02,-0.02,-0.18,0.0,c
3295.0,3399.0,4095.0,4095.0,3739.0,2978.0,3819.0,3835.0,-0.78,7.49,10.66,0.01,-0.01,-0.16,0.0,c
3294.0,3409.0,4095.0,4095.0,3755.0,2986.0,3844.0,3855.0,-0.78,7.52,10.55,0.04,-0.02,-0.14,0.0,c
3285.0,3392.0,4095.0,4095.0,3733.0,2980.0,3823.0,3839.0,-0.7,7.65,10.4,0.02,0.01,-0.13,0.0,c
3284.0,3395.0,4095.0,4095.0,3760.0,2983.0,3825.0,3842.0,-0.75,7.56,10.58,-0.04,0.02,-0.14,0.0,c
3289.0,3407.0,4095.0,4095.0,3743.0,2980.0,3825.0,3858.0,-0.74,7.47,10.67,-0.05,-0.01,-0.14,0.0,c
3974.0,3228.0,3351.0,4095.0,4090.0,3254.0,4035.0,4034.0,-0.19,8.28,9.59,-0.03,-0.06,-0.27,0.0,c
3974.0,3229.0,3346.0,4095.0,4083.0,3249.0,4027.0,4048.0,-0.72,8.27,9.56,-0.07,-0.12,-0.43,0.0,c
4001.0,3243.0,3301.0,4095.0,4059.0,3245.0,4001.0,4022.0,-0.53,7.85,10.26,-0.1,0.24,-0.31,0.0,c
4032.0,3235.0,3290.0,4095.0,4062.0,3246.0,4032.0,4049.0,-1.84,7.85,9.95,0.01,0.19,-0.44,0.0,c
3983.0,3220.0,3271.0,4095.0,4059.0,3242.0,4009.0,4029.0,-2.25,7.79,9.9,0.2,-0.01,-0.37,0.0,c
3985.0,3238.0,3274.0,4095.0,4080.0,3242.0,4043.0,4049.0,-1.85,8.1,9.51,0.12,0.09,-0.18,0.0,c
3984.0,3228.0,3270.0,4095.0,4063.0,3241.0,4016.0,4034.0,-1.83,8.08,9.47,0.02,0.0,-0.22,0.0,c
3989.0,3232.0,3275.0,4095.0,4067.0,3248.0,4050.0,4062.0,-1.98,7.94,9.74,0.06,-0.08,-0.23,0.0,c
3968.0,3237.0,3251.0,4095.0,4057.0,3246.0,4019.0,4048.0,-1.92,8.1,9.45,0.09,0.0,-0.16,0.0,c
3938.0,3240.0,3238.0,4095.0,4080.0,3248.0,4048.0,4046.0,-1.72,8.1,9.47,0.04,0.08,-0.11,0.0,c
3999.0,3242.0,3228.0,4095.0,4095.0,3262.0,4027.0,4060.0,-1.87,8.0,9.58,0.06,-0.0,-0.17,0.0,c
4047.0,3235.0,3211.0,4095.0,4075.0,3266.0,4023.0,4055.0,-2.05,8.15,9.41,0.14,0.07,-0.14,0.0,c
4039.0,3223.0,3223.0,4095.0,4095.0,3275.0,4048.0,4063.0,-1.87,8.2,9.35,-0.02,0.05,-0.1,0.0,c
4060.0,3231.0,3210.0,4095.0,4095.0,3274.0,4023.0,4049.0,-1.94,8.18,9.2,-0.03,-0.02,-0.16,0.0,c
4048.0,3241.0,3209.0,4095.0,4095.0,3277.0,4058.0,4069.0,-2.02,8.23,9.21,-0.08,-0.12,-0.19,0.0,c
4010.0,3233.0,3194.0,4095.0,4080.0,3276.0,4035.0,4065.0,-1.92,7.86,9.92,-0.06,-0.08,-0.17,0.0,c
4021.0,3238.0,3184.0,4095.0,4095.0,3278.0,4031.0,4080.0,-1.96,7.92,9.82,-0.06,0.08,-0.03,0.0,c
4034.0,3226.0,3165.0,4095.0,4080.0,3279.0,4031.0,4058.0,-1.77,8.09,9.41,-0.1,-0.06,-0.08,0.0,c
4033.0,3223.0,3177.0,4095.0,4095.0,3284.0,4047.0,4060.0,-1.8,7.73,10.27,-0.01,0.09,-0.09,0.0,c
4048.0,3218.0,3155.0,4095.0,4079.0,3279.0,4037.0,4068.0,-1.92,7.97,9.64,0.07,-0.11,-0.15,0.0,c
3878.0,3237.0,3235.0,4095.0,4095.0,3273.0,4095.0,4087.0,-0.96,8.28,9.5,0.01,-0.02,-0.2,0.0,c
3849.0,3221.0,3231.0,4095.0,4095.0,3269.0,4095.0,4082.0,-1.03,8.35,9.34,-0.17,-0.07,-0.23,0.0,c
3873.0,3227.0,3231.0,4095.0,4095.0,3264.0,4095.0,4090.0,-0.85,7.86,10.25,-0.14,-0.05,-0.28,0.0,c
3863.0,3232.0,3248.0,4095.0,4095.0,3269.0,4095.0,4086.0,-1.18,7.76,10.24,-0.09,-0.12,-0.42,0.0,c
3894.0,3227.0,3313.0,4095.0,4095.0,3261.0,4095.0,4093.0,-1.78,7.59,10.41,0.0,-0.1,-0.31,0.0,c
3872.0,3216.0,3364.0,4095.0,4095.0,3255.0,4095.0,4074.0,-1.34,7.83,9.98,0.07,0.01,-0.19,0.0,c
3650.0,3218.0,3632.0,4095.0,4095.0,3251.0,4095.0,4090.0,-1.59,7.73,10.29,0.36,0.39,-0.27,0.0,c
3562.0,3216.0,3987.0,4095.0,4083.0,3185.0,4095.0,4095.0,-2.03,8.12,9.51,0.2,0.1,-0.15,0.0,c
3583.0,3228.0,4065.0,4095.0,4027.0,3147.0,4095.0,4095.0,-2.12,8.12,9.33,0.1,-0.52,-0.35,0.0,c
3564.0,3218.0,4095.0,4095.0,3987.0,3127.0,4095.0,4095.0,-1.51,8.03,9.64,-0.06,0.08,0.05,0.0,c
3539.0,3220.0,4081.0,4095.0,3903.0,3088.0,4095.0,4048.0,-1.33,8.03,9.69,-0.03,0.23,0.11,0.0,c
3523.0,3220.0,4061.0,4095.0,3903.0,3082.0,4074.0,4001.0,-0.8,7.94,10.12,0.16,-0.44,-0.3,0.0,c
3562.0,3238.0,4081.0,4095.0,3902.0,3090.0,4094.0,4058.0,-1.36,8.09,9.68,0.22,-0.31,-0.27,0.0,c
3536.0,3217.0,4082.0,4095.0,3920.0,3086.0,4074.0,4030.0,-1.04,8.56,8.82,0.11,-0.04,-0.11,0.0,c
3550.0,3232.0,4063.0,4095.0,3930.0,3091.0,4095.0,4070.0,-1.1,8.4,9.33,0.02,0.08,-0.06,0.0,c
3533.0,3233.0,4042.0,4095.0,3919.0,3050.0,4095.0,4080.0,-1.1,8.84,9.08,0.06,-0.02,-0.16,0.0,c
3514.0,3216.0,4027.0,4095.0,3924.0,3069.0,4095.0,4070.0,-0.83,8.28,9.49,-0.11,-0.02,-0.12,0.0,c
3536.0,3247.0,3989.0,4095.0,3953.0,3086.0,4095.0,4095.0,-0.88,8.15,9.84,-0.03,0.03,-0.13,0.0,c
3513.0,3228.0,3824.0,4095.0,3930.0,3071.0,4095.0,4095.0,-0.94,8.17,9.74,-0.01,0.28,-0.05,0.0,c
3503.0,3225.0,3851.0,4095.0,3951.0,3087.0,4095.0,4095.0,-1.04,8.37,9.31,-0.01,0.06,-0.13,0.0,c
3503.0,3227.0,3567.0,4095.0,3995.0,3114.0,4095.0,4095.0,-1.32,8.0,9.84,0.1,-0.01,-0.32,0.0,c
3498.0,3225.0,3487.0,4095.0,4011.0,3120.0,4095.0,4095.0,-1.55,8.15,9.4,0.04,-0.03,-0.17,0.0,c
3515.0,3230.0,3344.0,4095.0,4019.0,3121.0,4095.0,4095.0,-1.18,8.16,9.45,-0.11,-0.07,-0.11,0.0,c
3509.0,3216.0,3255.0,4095.0,4000.0,3120.0,4095.0,4095.0,-0.61,7.98,9.95,-0.05,0.01,-0.09,0.0,c
3504.0,3243.0,3226.0,4095.0,4016.0,3120.0,4095.0,4095.0,-1.11,8.13,9.66,0.02,0.04,-0.18,0.0,c
3504.0,3225.0,3211.0,4095.0,3999.0,3118.0,4095.0,4095.0,-1.48,8.14,9.58,-0.01,0.05,-0.16,0.0,c
3513.0,3225.0,3232.0,4095.0,4016.0,3120.0,4095.0,4095.0,-1.5,8.02,9.81,-0.04,-0.05,-0.13,0.0,c
3504.0,3227.0,3214.0,4095.0,4010.0,3120.0,4095.0,4095.0,-0.95,8.12,9.66,0.01,-0.05,-0.1,0.0,c
3518.0,3231.0,3216.0,4095.0,4032.0,3125.0,4095.0,4095.0,-1.16,7.97,10.03,0.04,0.01,-0.17,0.0,c
3507.0,3232.0,3230.0,4095.0,4016.0,3121.0,4095.0,4095.0,-0.92,8.18,9.51,-0.03,0.06,-0.11,0.0,c
3518.0,3225.0,3222.0,4095.0,4030.0,3133.0,4095.0,4095.0,-1.27,8.11,9.68,-0.15,0.61,0.02,0.0,c
3494.0,3216.0,3225.0,4095.0,4020.0,3123.0,4095.0,4095.0,-1.67,7.8,10.1,-0.09,-0.88,-0.58,0.0,c
3523.0,3234.0,3263.0,4095.0,4016.0,3120.0,4095.0,4095.0,-0.88,7.75,10.16,-0.03,0.12,-0.19,0.0,c
3518.0,3222.0,3251.0,4095.0,4029.0,3126.0,4095.0,4095.0,-1.67,7.86,10.01,0.03,0.31,-0.16,0.0,c
3505.0,3216.0,3184.0,4095.0,4023.0,3129.0,4095.0,4095.0,-2.04,7.83,9.94,0.05,-0.17,-0.35,0.0,c
3498.0,3234.0,3185.0,4095.0,4023.0,3127.0,4095.0,4095.0,-2.41,7.86,9.8,0.08,-0.08,-0.12,0.0,c
3504.0,3219.0,3179.0,4095.0,4014.0,3122.0,4095.0,4095.0,-1.44,7.82,10.01,0.07,-1.25,-0.53,0.0,c
3520.0,3217.0,3183.0,4095.0,4034.0,3133.0,4095.0,4095.0,-1.06,7.9,9.99,0.08,-0.35,-0.06,0.0,c
3500.0,3220.0,3161.0,4095.0,4033.0,3123.0,4095.0,4095.0,-0.7,8.04,9.89,0.02,0.13,0.16,0.0,c
3531.0,3233.0,3158.0,4095.0,4022.0,3133.0,4095.0,4095.0,-0.45,8.02,9.94,0.03,-0.13,-0.04,0.0,c
3520.0,3211.0,2892.0,4095.0,4036.0,3135.0,4095.0,4095.0,-0.41,8.45,9.4,-0.13,0.34,0.14,0.0,c
3526.0,3228.0,2891.0,4095.0,4036.0,3135.0,4095.0,4095.0,0.3,8.27,9.62,-0.07,-0.14,-0.16,0.0,c
3537.0,3223.0,2869.0,4095.0,4030.0,3129.0,4095.0,4095.0,-0.17,8.12,9.9,-0.07,0.6,0.1,0.0,c
3574.0,3229.0,2883.0,4095.0,4031.0,3111.0,4095.0,4095.0,-0.62,8.33,9.51,-0.08,0.04,-0.09,0.0,c
3564.0,3217.0,2875.0,4095.0,4029.0,3115.0,4095.0,4095.0,0.11,8.01,10.12,-0.1,-0.18,-0.24,0.0,c
3571.0,3216.0,2871.0,4095.0,4045.0,3120.0,4095.0,4095.0,-0.37,8.05,9.88,-0.07,-0.14,-0.27,0.0,c
3571.0,3230.0,2838.0,4095.0,4033.0,3119.0,4095.0,4095.0,-0.21,8.31,9.46,-0.08,-0.11,-0.31,0.0,c
3529.0,3217.0,2826.0,4095.0,4022.0,3105.0,4095.0,4095.0,-0.48,7.82,10.29,-0.29,0.01,-0.24,0.0,c
3548.0,3235.0,2727.0,4095.0,4023.0,3104.0,4095.0,4095.0,-0.68,7.59,10.64,-0.09,-0.06,-0.31,0.0,c
3523.0,3216.0,2746.0,4095.0,4018.0,3109.0,4095.0,4095.0,-0.82,7.58,10.68,-0.0,0.05,-0.28,0.0,c
3583.0,3230.0,2805.0,4095.0,4039.0,3121.0,4095.0,4095.0,-0.85,7.72,10.36,0.13,-0.39,-0.28,0.0,c
3568.0,3225.0,2828.0,4095.0,4018.0,3120.0,4080.0,4020.0,-0.29,7.71,10.58,0.05,0.43,0.27,0.0,c
3583.0,3234.0,2864.0,4095.0,4018.0,3122.0,4095.0,4031.0,-1.02,7.69,10.49,0.13,0.17,-0.03,0.0,c
3575.0,3227.0,2878.0,4095.0,4016.0,3119.0,4071.0,3989.0,-0.04,7.9,10.21,0.14,-0.1,-0.13,0.0,c
3568.0,3227.0,2865.0,4095.0,4041.0,3126.0,4089.0,4016.0,0.18,7.86,10.3,0.08,-0.17,-0.18,0.0,c
3566.0,3227.0,2834.0,4095.0,4017.0,3115.0,4081.0,4035.0,-0.32,8.37,9.39,0.32,-0.44,-0.53,0.0,c
3566.0,3237.0,2801.0,4095.0,4043.0,3123.0,4094.0,4019.0,-0.58,8.07,9.68,0.02,-0.01,-0.4,0.0,c
3572.0,3222.0,2863.0,4095.0,4033.0,3120.0,4095.0,4038.0,-0.27,8.15,9.91,-0.01,0.19,-0.23,0.0,c
3577.0,3231.0,2883.0,4095.0,4023.0,3120.0,4090.0,4023.0,-1.02,9.33,9.78,0.06,-0.02,-0.29,0.0,c
3583.0,3236.0,2895.0,4095.0,4038.0,3131.0,4095.0,4042.0,-1.64,9.0,9.32,0.2,-0.03,-0.79,0.0,c
3631.0,3215.0,2864.0,4095.0,4026.0,3152.0,4095.0,4095.0,-0.92,8.22,9.48,0.09,0.11,-0.2,0.0,c
3632.0,3230.0,2899.0,4095.0,4031.0,3152.0,4095.0,4095.0,-0.92,8.45,9.06,-0.03,0.19,-0.3,0.0,c
3638.0,3233.0,2914.0,4095.0,4048.0,3153.0,4095.0,4095.0,-1.67,8.2,9.49,-0.01,0.29,-0.29,0.0,c
3644.0,3235.0,2945.0,4095.0,4037.0,3153.0,4095.0,4095.0,-1.76,8.21,9.13,-0.04,0.24,-0.28,0.0,c
3653.0,3223.0,3007.0,4095.0,4053.0,3157.0,4095.0,4095.0,-2.28,7.99,9.51,0.12,-0.07,-0.41,0.0,c
3645.0,3219.0,3019.0,4095.0,4032.0,3149.0,4095.0,4095.0,-2.81,8.05,9.35,0.14,-0.13,-0.24,0.0,c
3658.0,3237.0,3089.0,4095.0,4048.0,3152.0,4095.0,4095.0,-2.48,8.24,9.9,-0.04,-0.07,-0.04,0.0,c
3667.0,3215.0,3136.0,4095.0,4018.0,3149.0,4095.0,4095.0,-1.63,8.17,9.39,0.15,-0.09,-0.03,0.0,c
3678.0,3219.0,3129.0,4095.0,4046.0,3157.0,4095.0,4095.0,-1.5,8.3,9.28,0.08,0.01,-0.07,0.0,c
3659.0,3230.0,3120.0,4095.0,4028.0,3156.0,4095.0,4095.0,-1.51,8.19,9.51,-0.01,0.19,-0.05,0.0,c
3665.0,3228.0,3131.0,4095.0,4031.0,3152.0,4095.0,4095.0,-1.8,8.36,9.14,0.04,0.07,-0.12,0.0,c
3664.0,3214.0,3125.0,4095.0,4028.0,3153.0,4095.0,4083.0,-1.88,8.35,9.07,-0.03,0.04,-0.09,0.0,c
3691.0,3218.0,3113.0,4095.0,4054.0,3161.0,4095.0,4095.0,-1.61,8.18,9.52,-0.09,0.08,-0.05,0.0,c
3682.0,3218.0,3127.0,4095.0,4039.0,3161.0,4095.0,4095.0,-1.33,8.24,9.15,-0.15,0.1,0.07,0.0,c
3686.0,3219.0,3136.0,4095.0,4046.0,3158.0,4095.0,4087.0,-2.03,8.22,9.62,0.05,-0.05,-0.11,0.0,c
3703.0,3231.0,3121.0,4095.0,4041.0,3164.0,4095.0,4095.0,-1.59,8.38,9.16,-0.08,0.12,-0.1,0.0,c
3687.0,3228.0,3120.0,4095.0,4030.0,3166.0,4095.0,4095.0,-1.47,7.83,10.17,-0.11,0.03,-0.09,0.0,c
3711.0,3223.0,3123.0,4095.0,4032.0,3165.0,4095.0,4095.0,-1.77,7.97,9.72,0.08,0.0,0.03,0.0,c
3661.0,3228.0,3134.0,4095.0,4039.0,3153.0,4095.0,4084.0,-1.83,8.44,9.32,0.31,-0.32,-0.15,0.0,c
3675.0,3227.0,3162.0,4095.0,4042.0,3163.0,4095.0,4095.0,-0.67,8.81,8.27,0.02,-0.1,0.16,0.0,c
3676.0,3241.0,3152.0,4095.0,4051.0,3167.0,4095.0,4095.0,-0.49,8.34,9.17,0.35,-0.11,-0.35,0.0,c
3692.0,3216.0,3115.0,4095.0,4048.0,3161.0,4095.0,4095.0,-0.52,7.51,10.93,-0.34,-0.09,-0.24,0.0,c
3702.0,3223.0,3114.0,4095.0,4033.0,3167.0,4095.0,4095.0,-0.9,7.92,10.0,0.16,0.06,-0.08,0.0,c
3693.0,3225.0,3083.0,4095.0,4031.0,3159.0,4095.0,4095.0,-0.31,8.19,9.84,-0.11,-0.03,-0.2,0.0,c
3673.0,3217.0,3102.0,4095.0,4065.0,3158.0,4095.0,4095.0,-0.96,7.73,10.59,0.13,-0.46,-0.31,0.0,c
3645.0,3206.0,3139.0,4095.0,4047.0,3154.0,4095.0,4095.0,-0.53,7.93,10.09,0.07,-0.1,-0.35,0.0,c
3664.0,3235.0,3146.0,4095.0,4063.0,3163.0,4095.0,4095.0,-1.04,7.84,10.33,-0.11,-0.05,-0.29,0.0,c
3677.0,3217.0,3045.0,4095.0,4067.0,3165.0,4095.0,4095.0,-1.64,7.75,10.34,-0.03,0.45,0.19,0.0,c
3684.0,3220.0,3027.0,4095.0,4069.0,3175.0,4095.0,4095.0,-0.32,8.26,9.53,0.06,0.51,0.38,0.0,c
3663.0,3213.0,3015.0,4095.0,4050.0,3169.0,4095.0,4095.0,-0.21,8.26,9.82,0.04,-0.02,-0.13,0.0,c
3663.0,3241.0,3015.0,4095.0,4067.0,3173.0,4095.0,4095.0,-0.47,8.25,9.65,0.16,-0.0,-0.2,0.0,c
3692.0,3221.0,3023.0,4095.0,4080.0,3177.0,4095.0,4095.0,-0.5,8.27,9.65,0.11,-0.03,-0.24,0.0,c
3666.0,3219.0,3008.0,4095.0,4072.0,3180.0,4095.0,4095.0,-0.88,8.43,9.15,0.1,-0.04,-0.31,0.0,c
3685.0,3214.0,3031.0,4095.0,4077.0,3179.0,4095.0,4095.0,-0.71,8.34,9.29,-0.12,0.05,-0.22,0.0,c
3666.0,3218.0,3025.0,4095.0,4080.0,3169.0,4095.0,4095.0,-1.07,8.12,9.78,-0.08,0.03,-0.15,0.0,c
3667.0,3216.0,3043.0,4095.0,4077.0,3174.0,4095.0,4095.0,-0.2,8.42,8.85,-0.23,-0.25,-0.34,0.0,c
3667.0,3216.0,3088.0,4095.0,4082.0,3175.0,4095.0,4095.0,-1.0,7.65,10.48,-0.04,-0.1,-0.23,0.0,c
3681.0,3216.0,3189.0,4095.0,4081.0,3174.0,4095.0,4095.0,-0.29,7.36,10.49,0.37,0.26,-0.26,0.0,c
3664.0,3206.0,3164.0,4095.0,4080.0,3170.0,4095.0,4095.0,-1.8,8.02,9.73,0.29,-0.04,-0.1,0.0,c
3683.0,3232.0,3153.0,4095.0,4085.0,3183.0,4095.0,4095.0,-2.14,8.28,9.71,0.04,0.32,0.03,0.0,c
3664.0,3232.0,2921.0,4095.0,4093.0,3191.0,4095.0,4095.0,-0.78,7.98,9.83,-0.1,-0.03,-0.1,0.0,c
3675.0,3216.0,2910.0,4095.0,4080.0,3186.0,4095.0,4095.0,-0.73,7.8,10.18,-0.06,-0.16,-0.13,0.0,c
3653.0,3226.0,2909.0,4095.0,4095.0,3191.0,4095.0,4095.0,-0.56,7.62,10.47,-0.09,0.08,0.05,0.0,c
3638.0,3222.0,2918.0,4095.0,4093.0,3189.0,4095.0,4095.0,-0.98,7.58,10.39,-0.11,0.46,0.05,0.0,c
3642.0,3216.0,2913.0,4095.0,4095.0,3187.0,4095.0,4095.0,-0.15,8.09,9.77,0.01,0.42,0.14,0.0,c
3651.0,3223.0,2921.0,4095.0,4095.0,3197.0,4095.0,4095.0,-0.5,7.54,10.76,0.04,-0.16,-0.3,0.0,c
3648.0,3209.0,2910.0,4095.0,4095.0,3184.0,4095.0,4095.0,-0.48,7.71,10.49,0.3,-0.03,-0.32,0.0,c
3639.0,3222.0,2945.0,4095.0,4095.0,3189.0,4095.0,4095.0,-0.92,7.51,10.67,0.01,-0.68,-0.8,0.0,c
3664.0,3211.0,2969.0,4095.0,4080.0,3185.0,4095.0,4095.0,-2.18,7.81,10.0,0.53,0.37,-0.38,0.0,c
3697.0,3234.0,3020.0,4095.0,4095.0,3199.0,4095.0,4095.0,-1.79,8.33,8.79,0.31,-0.06,-0.12,0.0,c
3600.0,3201.0,3311.0,4095.0,4095.0,3200.0,4095.0,4095.0,-0.82,8.34,9.46,-0.05,0.15,-0.06,0.0,c
3509.0,3233.0,3376.0,4095.0,4095.0,3215.0,4095.0,4095.0,-0.66,8.11,10.08,-0.03,0.12,0.02,0.0,c
3491.0,3213.0,3301.0,4095.0,4095.0,3197.0,4095.0,4095.0,-0.61,7.91,10.04,-0.01,-0.03,-0.14,0.0,c
3488.0,3216.0,3283.0,4095.0,4095.0,3206.0,4095.0,4095.0,-0.92,7.98,10.12,0.07,0.2,-0.22,0.0,c
3487.0,3222.0,3280.0,4095.0,4086.0,3195.0,4095.0,4095.0,-1.47,8.34,9.21,0.26,0.06,-0.28,0.0,c
3493.0,3218.0,3280.0,4095.0,4095.0,3188.0,4095.0,4095.0,-1.62,8.42,9.13,0.14,0.0,-0.15,0.0,c
3510.0,3216.0,3377.0,4095.0,4080.0,3169.0,4095.0,4095.0,-1.17,8.21,9.38,-0.06,-0.21,-0.14,0.0,c
3491.0,3221.0,3216.0,4095.0,4072.0,3170.0,4095.0,4095.0,-1.78,8.1,9.87,0.21,-0.02,-0.3,0.0,c
3498.0,3215.0,3052.0,4095.0,4095.0,3184.0,4095.0,4095.0,-1.45,8.4,8.96,0.1,-0.04,-0.05,0.0,c
3458.0,3216.0,3015.0,4095.0,4091.0,3170.0,4095.0,4095.0,-1.27,8.6,8.96,0.13,0.11,-0.02,0.0,c
3435.0,3227.0,2717.0,4095.0,4095.0,3183.0,4095.0,4095.0,-0.22,8.33,9.6,-0.05,-0.08,-0.2,0.0,c
3440.0,3222.0,2695.0,4095.0,4095.0,3179.0,4095.0,4095.0,-0.49,8.34,9.42,-0.01,-0.06,-0.28,0.0,c
3421.0,3211.0,2679.0,4095.0,4087.0,3181.0,4095.0,4095.0,-0.53,8.37,9.37,-0.03,-0.04,-0.23,0.0,c
3437.0,3218.0,2687.0,4095.0,4091.0,3175.0,4095.0,4095.0,-0.76,8.26,9.6,-0.07,-0.05,-0.24,0.0,c
3419.0,3214.0,2665.0,4095.0,4087.0,3174.0,4095.0,4095.0,-0.79,8.3,9.49,-0.08,-0.05,-0.25,0.0,c
3430.0,3223.0,2687.0,4095.0,4095.0,3181.0,4095.0,4095.0,-0.74,8.09,9.85,-0.05,0.13,-0.2,0.0,c
3437.0,3215.0,2746.0,4095.0,4090.0,3168.0,4095.0,4095.0,-0.89,8.09,9.8,-0.04,-0.01,-0.26,0.0,c
3431.0,3229.0,2768.0,4095.0,4095.0,3175.0,4095.0,4095.0,-0.86,8.14,9.73,-0.01,-0.09,-0.35,0.0,c
3421.0,3211.0,2768.0,4095.0,4080.0,3169.0,4095.0,4095.0,-1.12,7.92,10.06,0.02,-0.25,-0.51,0.0,c
3454.0,3225.0,2817.0,4095.0,4095.0,3179.0,4095.0,4095.0,-1.64,7.96,9.88,0.02,0.1,-0.42,0.0,c
3434.0,3231.0,2835.0,4095.0,4091.0,3170.0,4095.0,4095.0,-2.05,7.9,9.84,0.05,0.19,-0.24,0.0,c
3440.0,3221.0,2846.0,4095.0,4095.0,3178.0,4095.0,4095.0,-2.03,7.96,9.67,0.04,0.04,-0.19,0.0,c
3440.0,3205.0,2921.0,4095.0,4077.0,3184.0,4095.0,4095.0,-1.74,7.97,9.78,0.08,0.21,-0.13,0.0,c
3440.0,3207.0,3541.0,4095.0,4095.0,3183.0,4095.0,4095.0,-2.01,8.0,9.56,0.06,-0.05,-0.22,0.0,c
3467.0,3223.0,3618.0,4095.0,4095.0,3190.0,4095.0,4095.0,-1.99,8.04,9.59,0.16,-0.16,-0.28,0.0,c
3443.0,3211.0,3601.0,4095.0,4095.0,3187.0,4095.0,4095.0,-1.94,8.18,9.17,0.11,0.11,-0.16,0.0,c
3465.0,3222.0,3575.0,4095.0,4095.0,3202.0,4095.0,4095.0,-2.26,8.14,9.28,0.05,0.11,-0.12,0.0,c
3468.0,3216.0,3569.0,4095.0,4095.0,3191.0,4095.0,4095.0,-2.07,8.22,9.22,0.11,0.04,-0.1,0.0,c
3487.0,3216.0,3557.0,4095.0,4095.0,3200.0,4095.0,4095.0,-2.0,8.3,9.15,0.11,-0.04,-0.12,0.0,c
3452.0,3214.0,3543.0,4095.0,4095.0,3191.0,4095.0,4095.0,-1.88,8.33,9.06,0.09,0.05,-0.09,0.0,c
3471.0,3215.0,3614.0,4095.0,4095.0,3196.0,4095.0,4095.0,-2.07,8.36,9.06,0.07,0.11,0.11,0.0,c
3488.0,3210.0,3570.0,4095.0,4095.0,3198.0,4095.0,4095.0,-1.66,8.63,8.6,0.14,0.03,0.07,0.0,c
3475.0,3226.0,3537.0,4095.0,4095.0,3199.0,4095.0,4095.0,-1.36,8.7,8.54,0.01,0.02,0.02,0.0,c
3498.0,3238.0,3565.0,4095.0,4095.0,3198.0,4095.0,4095.0,-1.21,8.68,8.58,0.13,0.05,0.02,0.0,c
3502.0,3219.0,3546.0,4095.0,4095.0,3199.0,4095.0,4095.0,-1.04,8.85,8.45,0.07,0.05,-0.04,0.0,c
3494.0,3237.0,3575.0,4095.0,4095.0,3205.0,4095.0,4095.0,-1.19,8.81,8.5,0.08,0.0,-0.11,0.0,c
3491.0,3214.0,3559.0,4095.0,4095.0,3202.0,4095.0,4095.0,-1.28,8.88,8.38,0.05,0.01,-0.12,0.0,c
3489.0,3226.0,3565.0,4095.0,4095.0,3206.0,4095.0,4095.0,-1.25,8.93,8.25,0.05,0.01,-0.1,0.0,c
3470.0,3205.0,3547.0,4095.0,4095.0,3197.0,4095.0,4095.0,-1.07,8.93,8.32,0.02,0.02,-0.07,0.0,c
3501.0,3216.0,3561.0,4095.0,4095.0,3197.0,4095.0,4095.0,-0.93,8.94,8.28,-0.05,-0.03,-0.1,0.0,c
3485.0,3223.0,3580.0,4095.0,4095.0,3202.0,4095.0,4095.0,-1.03,8.78,8.54,0.0,-0.01,-0.12,0.0,c
3498.0,3219.0,3554.0,4095.0,4095.0,3198.0,4095.0,4095.0,-0.94,8.94,8.3,-0.02,-0.02,-0.12,0.0,c
3500.0,3227.0,3537.0,4095.0,4095.0,3210.0,4095.0,4095.0,-0.98,8.88,8.37,-0.02,-0.05,-0.13,0.0,c
3473.0,3216.0,3549.0,4095.0,4095.0,3199.0,4095.0,4095.0,-1.03,8.83,8.44,-0.05,-0.04,-0.1,0.0,c
3489.0,3223.0,3546.0,4095.0,4095.0,3203.0,4095.0,4095.0,-0.87,8.74,8.77,-0.03,-0.06,-0.07,0.0,c
3488.0,3223.0,3536.0,4095.0,4095.0,3200.0,4095.0,4095.0,-0.69,8.83,8.57,-0.03,-0.04,-0.07,0.0,c
3489.0,3234.0,3536.0,4095.0,4095.0,3209.0,4095.0,4095.0,-0.56,8.85,8.57,-0.01,-0.05,-0.11,0.0,c
3471.0,3219.0,3511.0,4095.0,4095.0,3200.0,4095.0,4095.0,-0.45,8.8,8.65,-0.03,-0.02,-0.14,0.0,c
3502.0,3230.0,3505.0,4095.0,4095.0,3210.0,4095.0,4095.0,-0.59,8.74,8.84,-0.04,-0.03,-0.18,0.0,c
3488.0,3216.0,3504.0,4095.0,4095.0,3195.0,4095.0,4095.0,-0.73,8.73,8.77,-0.03,-0.04,-0.19,0.0,c
3487.0,3218.0,3492.0,4095.0,4095.0,3209.0,4095.0,4095.0,-1.66,8.09,9.63,-0.04,-0.03,-0.2,0.0,c
3489.0,3218.0,3501.0,4095.0,4095.0,3211.0,4095.0,4095.0,-1.77,7.92,9.86,-0.01,-0.01,-0.18,0.0,c
3503.0,3225.0,3483.0,4095.0,4095.0,3209.0,4095.0,4095.0,-1.67,8.05,9.64,0.02,-0.0,-0.18,0.0,c
3505.0,3216.0,3506.0,4095.0,4095.0,3211.0,4095.0,4095.0,-1.68,8.01,9.73,0.0,-0.02,-0.21,0.0,c
3490.0,3217.0,3495.0,4095.0,4095.0,3201.0,4095.0,4095.0,-1.79,7.95,9.78,0.01,0.01,-0.21,0.0,c
3500.0,3214.0,3517.0,4095.0,4095.0,3218.0,4095.0,4095.0,-1.81,8.14,9.57,0.03,0.02,-0.23,0.0,c
3477.0,3218.0,3494.0,4095.0,4095.0,3215.0,4095.0,4095.0,-1.86,7.89,9.88,0.06,0.03,-0.22,0.0,c
3501.0,3216.0,3510.0,4095.0,4095.0,3222.0,4095.0,4095.0,-2.09,7.93,9.74,0.16,0.09,-0.21,0.0,c
3477.0,3231.0,3520.0,4095.0,4095.0,3212.0,4095.0,4095.0,-2.19,8.08,9.36,0.11,0.03,-0.21,0.0,c
3491.0,3220.0,3517.0,4095.0,4095.0,3231.0,4095.0,4095.0,-2.19,8.14,9.28,0.09,0.06,-0.19,0.0,c
3490.0,3218.0,3503.0,4095.0,4095.0,3216.0,4095.0,4095.0,-2.3,8.11,9.32,0.1,0.02,-0.18,0.0,c
3474.0,3206.0,3505.0,4095.0,4095.0,3216.0,4095.0,4095.0,-2.36,8.16,9.22,0.11,0.07,-0.15,0.0,c
3478.0,3213.0,3513.0,4095.0,4095.0,3230.0,4095.0,4095.0,-2.53,8.23,9.07,0.13,0.1,-0.07,0.0,c
3486.0,3211.0,3479.0,4095.0,4095.0,3217.0,4095.0,4095.0,-2.4,8.27,8.91,0.1,0.09,0.01,0.0,c
3494.0,3226.0,3504.0,4095.0,4095.0,3221.0,4095.0,4095.0,-2.29,8.32,9.0,0.09,0.05,0.06,0.0,c
3486.0,3216.0,3485.0,4095.0,4095.0,3222.0,4095.0,4095.0,-2.11,8.41,8.92,0.15,0.12,0.14,0.0,c
3477.0,3221.0,3495.0,4095.0,4095.0,3231.0,4095.0,4095.0,-1.61,8.68,8.49,0.13,0.0,0.06,0.0,c
3473.0,3227.0,3500.0,4095.0,4095.0,3223.0,4095.0,4095.0,-1.41,8.88,8.21,0.09,-0.02,-0.02,0.0,c
3497.0,3218.0,3504.0,4095.0,4095.0,3222.0,4095.0,4095.0,-1.45,8.84,8.38,0.04,-0.04,-0.05,0.0,c
3460.0,3205.0,3493.0,4095.0,4095.0,3219.0,4095.0,4095.0,-1.31,8.86,8.31,-0.02,-0.05,-0.09,0.0,c
