hall_1,hall_2,hall_3,flex_t,flex_i,flex_m,flex_r,flex_p,accel_x,accel_y,accel_z,gyro_x,gyro_y,gyro_z,hand,sign
3463.0,4095.0,4037.0,4095.0,4095.0,3361.0,3898.0,3376.0,1.68,6.67,7.66,-0.03,0.13,0.02,1.0,c
3455.0,4095.0,4020.0,4095.0,4095.0,3365.0,3883.0,3375.0,1.74,6.84,7.35,0.02,-0.13,-0.01,1.0,c
3454.0,4095.0,4041.0,4095.0,4095.0,3376.0,3890.0,3399.0,2.19,7.04,7.35,-0.02,-0.1,-0.0,1.0,c
3451.0,4095.0,4033.0,4095.0,4095.0,3366.0,3894.0,3389.0,2.09,6.9,7.39,-0.05,0.0,-0.05,1.0,c
3460.0,4095.0,4051.0,4095.0,4095.0,3371.0,3891.0,3374.0,2.09,7.01,7.26,-0.04,-0.01,-0.04,1.0,c
3454.0,4095.0,4023.0,4095.0,4095.0,3366.0,3888.0,3398.0,2.09,6.94,7.29,-0.1,-0.0,-0.04,1.0,c
3447.0,4095.0,4035.0,4095.0,4095.0,3362.0,3905.0,3383.0,1.96,6.84,7.42,-0.1,-0.04,-0.06,1.0,c
3446.0,4095.0,4018.0,4095.0,4095.0,3362.0,3894.0,3374.0,1.89,6.88,7.47,-0.06,-0.04,-0.05,1.0,c
3447.0,4095.0,4015.0,4095.0,4095.0,3367.0,3919.0,3391.0,1.91,6.88,7.41,-0.06,-0.02,-0.02,1.0,c
3445.0,4095.0,3995.0,4095.0,4095.0,3361.0,3901.0,3364.0,2.07,6.88,7.46,-0.01,-0.05,-0.02,1.0,c
3471.0,4095.0,4015.0,4095.0,4095.0,3363.0,3899.0,3370.0,2.16,6.99,7.35,0.04,-0.06,-0.04,1.0,c
3459.0,4095.0,3989.0,4095.0,4095.0,3381.0,3905.0,3436.0,2.11,6.95,7.31,-0.04,-0.06,-0.05,1.0,c
3456.0,4095.0,4000.0,4095.0,4095.0,3375.0,3897.0,3421.0,2.04,6.95,7.25,-0.09,-0.03,-0.02,1.0,c
3469.0,4095.0,4021.0,4095.0,4095.0,3395.0,3927.0,3441.0,2.16,6.93,7.33,-0.09,-0.01,-0.01,1.0,c
3440.0,4095.0,4011.0,4095.0,4095.0,3376.0,3907.0,3439.0,2.16,6.89,7.43,-0.11,-0.03,-0.02,1.0,c
3443.0,4095.0,3998.0,4095.0,4095.0,3407.0,3930.0,3440.0,2.02,6.86,7.31,-0.15,0.03,0.02,1.0,c
3457.0,4095.0,3989.0,4095.0,4095.0,3386.0,3919.0,3443.0,2.27,6.69,7.58,-0.18,0.12,0.04,1.0,c
3462.0,4095.0,4016.0,4095.0,4095.0,3408.0,3934.0,3484.0,2.24,6.62,7.59,-0.15,0.01,-0.01,1.0,c
3454.0,4095.0,3990.0,4095.0,4095.0,3401.0,3910.0,3456.0,2.14,6.64,7.62,-0.13,0.02,-0.01,1.0,c
3450.0,4095.0,4009.0,4095.0,4095.0,3410.0,3950.0,3470.0,2.09,6.5,7.69,-0.13,0.11,0.0,1.0,c
3456.0,4095.0,3971.0,4095.0,4095.0,3422.0,3935.0,3462.0,2.06,6.41,7.78,-0.08,0.01,-0.04,1.0,c
3458.0,4095.0,4015.0,4095.0,4095.0,3423.0,3971.0,3485.0,2.14,6.41,7.81,-0.08,0.01,-0.07,1.0,c
3450.0,4095.0,3986.0,4095.0,4095.0,3412.0,3934.0,3472.0,2.13,6.37,7.87,-0.1,0.0,-0.09,1.0,c
3458.0,4095.0,4009.0,4095.0,4095.0,3434.0,3963.0,3486.0,1.97,6.34,7.86,-0.11,0.02,-0.11,1.0,c
3456.0,4095.0,3981.0,4095.0,4095.0,3419.0,3977.0,3483.0,1.91,6.35,7.83,-0.14,-0.0,-0.12,1.0,c
3462.0,4095.0,4009.0,4095.0,4095.0,3428.0,3952.0,3483.0,1.75,6.23,8.05,-0.15,0.04,-0.12,1.0,c
3443.0,4095.0,4002.0,4095.0,4095.0,3421.0,3951.0,3487.0,1.78,6.18,8.07,-0.08,-0.04,-0.11,1.0,c
3456.0,4095.0,4001.0,4095.0,4095.0,3434.0,3954.0,3499.0,1.86,6.17,8.14,-0.08,-0.06,-0.12,1.0,c
3450.0,4095.0,3983.0,4095.0,4095.0,3436.0,3956.0,3514.0,1.74,6.17,8.03,-0.09,0.06,-0.12,1.0,c
3447.0,4095.0,3984.0,4095.0,4095.0,3422.0,3942.0,3497.0,1.78,6.23,8.07,-0.07,-0.11,-0.14,1.0,c
3461.0,4095.0,3995.0,4095.0,4095.0,3445.0,3981.0,3520.0,1.53,6.2,8.07,-0.06,-0.0,-0.11,1.0,c
3440.0,4095.0,3985.0,4095.0,4095.0,3424.0,3962.0,3515.0,1.55,6.23,8.11,-0.08,-0.02,-0.1,1.0,c
3454.0,4095.0,3995.0,4095.0,4095.0,3441.0,3969.0,3520.0,1.64,6.22,7.99,-0.07,0.0,-0.09,1.0,c
3463.0,4095.0,3980.0,4095.0,4095.0,3422.0,3959.0,3519.0,1.53,6.21,8.18,-0.06,-0.03,-0.09,1.0,c
3455.0,4095.0,4005.0,4095.0,4095.0,3440.0,3978.0,3503.0,1.49,6.22,8.08,-0.05,-0.01,-0.08,1.0,c
3442.0,4095.0,3984.0,4095.0,4095.0,3419.0,3943.0,3503.0,1.53,6.25,8.14,-0.06,0.01,-0.07,1.0,c
3461.0,4095.0,3994.0,4095.0,4095.0,3435.0,3967.0,3495.0,1.57,6.22,8.11,-0.0,-0.03,-0.09,1.0,c
3456.0,4095.0,3986.0,4095.0,4095.0,3435.0,3954.0,3478.0,1.6,6.27,8.15,0.03,-0.05,-0.11,1.0,c
3457.0,4095.0,3993.0,4095.0,4095.0,3456.0,3977.0,3487.0,1.46,6.4,7.94,0.04,-0.02,-0.11,1.0,c
3453.0,4095.0,3969.0,4095.0,4095.0,3438.0,3974.0,3483.0,1.39,6.53,7.84,0.03,-0.06,-0.1,1.0,c
3462.0,4095.0,3989.0,4095.0,4095.0,3456.0,3991.0,3517.0,1.44,7.05,7.39,0.09,-0.08,-0.06,1.0,c
3453.0,4095.0,3984.0,4095.0,4095.0,3453.0,3973.0,3504.0,1.42,7.23,7.09,0.02,-0.07,0.0,1.0,c
3455.0,4095.0,3998.0,4095.0,4095.0,3462.0,3996.0,3503.0,1.67,7.21,7.14,0.04,-0.06,0.0,1.0,c
3454.0,4095.0,3975.0,4095.0,4095.0,3449.0,3972.0,3494.0,1.8,7.24,7.07,0.03,-0.1,-0.05,1.0,c
3457.0,4095.0,4000.0,4095.0,4095.0,3456.0,4003.0,3500.0,1.78,7.3,7.05,0.01,-0.05,-0.06,1.0,c
3457.0,4095.0,4007.0,4095.0,4095.0,3449.0,3975.0,3473.0,1.73,7.37,6.96,0.02,-0.03,-0.07,1.0,c
3461.0,4095.0,3978.0,4095.0,4095.0,3443.0,3983.0,3481.0,1.67,7.43,6.85,0.04,-0.06,-0.1,1.0,c
3456.0,4095.0,4005.0,4095.0,4095.0,3467.0,3996.0,3490.0,1.71,7.47,6.89,0.03,-0.1,-0.09,1.0,c
3449.0,4095.0,3984.0,4095.0,4095.0,3449.0,3977.0,3442.0,1.78,7.52,6.83,0.06,-0.03,-0.1,1.0,c
3442.0,4095.0,4003.0,4095.0,4095.0,3474.0,3983.0,3444.0,1.62,7.67,6.67,0.06,-0.07,-0.08,1.0,c
3439.0,4095.0,3958.0,4095.0,4095.0,3461.0,3995.0,3453.0,1.64,7.72,6.55,0.05,-0.08,-0.06,1.0,c
3455.0,4095.0,3963.0,4095.0,4095.0,3467.0,3998.0,3440.0,1.66,7.81,6.4,0.03,-0.02,-0.02,1.0,c
3441.0,4095.0,3955.0,4095.0,4095.0,3471.0,3991.0,3439.0,1.76,7.89,6.29,0.01,-0.01,0.01,1.0,c
3447.0,4095.0,3979.0,4095.0,4095.0,3468.0,3993.0,3438.0,1.89,7.92,6.28,-0.03,0.0,-0.0,1.0,c
3447.0,4095.0,3968.0,4095.0,4095.0,3470.0,4020.0,3429.0,1.93,7.89,6.35,0.02,-0.0,-0.05,1.0,c
3458.0,4095.0,3963.0,4095.0,4095.0,3485.0,4027.0,3453.0,1.8,7.95,6.24,-0.02,-0.06,-0.04,1.0,c
3456.0,4095.0,3958.0,4095.0,4095.0,3477.0,4005.0,3425.0,1.86,7.96,6.31,-0.01,-0.04,-0.02,1.0,c
3454.0,4095.0,3959.0,4095.0,4095.0,3464.0,3975.0,3427.0,1.82,7.99,6.17,-0.01,-0.03,0.01,1.0,c
3472.0,4095.0,3991.0,4095.0,4095.0,3466.0,4021.0,3459.0,1.92,8.03,6.17,0.01,-0.04,0.03,1.0,c
3459.0,4095.0,3949.0,4095.0,4095.0,3457.0,4002.0,3421.0,2.02,8.09,5.95,0.01,-0.01,0.03,1.0,c
3449.0,4095.0,3962.0,4095.0,4095.0,3472.0,4016.0,3435.0,2.14,8.05,5.97,-0.09,-0.01,-0.0,1.0,c
3443.0,4095.0,3975.0,4095.0,4095.0,3487.0,4041.0,3418.0,2.27,8.09,5.85,-0.07,0.05,0.05,1.0,c
3447.0,4095.0,3954.0,4095.0,4095.0,3477.0,4017.0,3433.0,2.32,7.98,6.01,-0.12,0.05,0.04,1.0,c
3455.0,4095.0,3952.0,4095.0,4095.0,3481.0,4003.0,3408.0,2.38,7.86,6.17,-0.08,0.07,0.01,1.0,c
3457.0,4095.0,3967.0,4095.0,4095.0,3487.0,4032.0,3439.0,2.27,8.0,5.97,-0.09,0.04,0.01,1.0,c
3450.0,4095.0,3970.0,4095.0,4095.0,3473.0,4030.0,3440.0,2.3,7.92,6.05,-0.09,-0.01,0.03,1.0,c
3472.0,4095.0,3975.0,4095.0,4095.0,3489.0,4041.0,3440.0,2.38,7.83,6.11,-0.13,0.04,0.06,1.0,c
3460.0,4095.0,3945.0,4095.0,4095.0,3486.0,4023.0,3449.0,2.5,7.76,6.22,-0.12,0.04,0.08,1.0,c
3461.0,4095.0,3971.0,4095.0,4095.0,3475.0,4039.0,3404.0,2.65,7.77,6.18,-0.15,0.06,0.04,1.0,c
3449.0,4095.0,3941.0,4095.0,4095.0,3477.0,4022.0,3408.0,2.54,7.66,6.4,-0.12,-0.01,0.03,1.0,c
3454.0,4095.0,3970.0,4095.0,4095.0,3492.0,4039.0,3425.0,2.64,7.61,6.53,-0.1,0.0,0.04,1.0,c
3458.0,4095.0,3954.0,4095.0,4095.0,3477.0,4007.0,3430.0,2.61,7.6,6.45,-0.08,-0.02,0.03,1.0,c
3465.0,4095.0,3949.0,4095.0,4095.0,3485.0,4031.0,3443.0,2.56,7.73,6.2,-0.13,0.18,0.12,1.0,c
3454.0,4095.0,3938.0,4095.0,4095.0,3485.0,4023.0,3462.0,2.75,7.51,6.39,-0.17,0.02,0.09,1.0,c
3472.0,4095.0,3952.0,4095.0,4095.0,3487.0,4035.0,3453.0,3.01,7.28,6.68,-0.19,0.16,0.1,1.0,c
3450.0,4095.0,3958.0,4095.0,4095.0,3503.0,4049.0,3455.0,3.01,7.21,6.84,-0.15,0.03,-0.05,1.0,c
3455.0,4095.0,3932.0,4095.0,4095.0,3488.0,4033.0,3477.0,2.65,7.24,6.82,-0.16,0.04,-0.04,1.0,c
3472.0,4095.0,3954.0,4095.0,4095.0,3497.0,4054.0,3473.0,2.67,7.17,6.9,-0.14,0.08,-0.01,1.0,c
3450.0,4095.0,3947.0,4095.0,4095.0,3494.0,4031.0,3493.0,2.6,7.17,6.89,-0.14,0.02,-0.01,1.0,c
3462.0,4095.0,3959.0,4095.0,4095.0,3500.0,4047.0,3504.0,2.73,7.03,7.08,-0.14,0.04,-0.01,1.0,c
3455.0,4095.0,3951.0,4095.0,4095.0,3492.0,4049.0,3475.0,2.73,6.45,7.54,-0.03,0.01,0.05,1.0,c
3465.0,4095.0,3957.0,4095.0,4095.0,3503.0,4063.0,3510.0,2.98,6.41,7.59,-0.05,0.0,0.01,1.0,c
3442.0,4095.0,3942.0,4095.0,4095.0,3501.0,4045.0,3482.0,2.94,6.37,7.6,-0.03,-0.02,-0.0,1.0,c
3452.0,4095.0,3950.0,4095.0,4095.0,3511.0,4062.0,3533.0,2.93,6.37,7.63,-0.09,-0.04,0.02,1.0,c
3449.0,4095.0,3935.0,4095.0,4095.0,3506.0,4077.0,3543.0,2.95,6.31,7.64,-0.1,-0.02,-0.0,1.0,c
3455.0,4095.0,3959.0,4095.0,4095.0,3503.0,4063.0,3519.0,2.96,6.21,7.79,-0.06,-0.04,0.0,1.0,c
3469.0,4095.0,3956.0,4095.0,4095.0,3515.0,4065.0,3530.0,3.02,6.25,7.67,-0.03,0.02,0.02,1.0,c
3454.0,4095.0,3952.0,4095.0,4095.0,3501.0,4055.0,3519.0,3.17,6.24,7.68,-0.03,-0.05,0.01,1.0,c
3470.0,4095.0,3952.0,4095.0,4095.0,3509.0,4081.0,3543.0,3.17,6.28,7.59,-0.01,-0.06,-0.01,1.0,c
3445.0,4095.0,3942.0,4095.0,4095.0,3504.0,4054.0,3511.0,3.24,6.32,7.56,-0.0,-0.08,-0.01,1.0,c
3453.0,4095.0,3950.0,4095.0,4095.0,3519.0,4078.0,3508.0,3.16,6.33,7.56,0.02,-0.02,-0.02,1.0,c
3457.0,4095.0,3920.0,4095.0,4095.0,3505.0,4059.0,3520.0,3.21,6.47,7.38,0.01,-0.01,0.03,1.0,c
3467.0,4095.0,3920.0,4095.0,4095.0,3517.0,4077.0,3517.0,3.29,6.51,7.25,-0.0,0.01,0.04,1.0,c
3450.0,4095.0,3926.0,4095.0,4095.0,3504.0,4047.0,3478.0,3.45,6.47,7.36,-0.02,-0.02,0.01,1.0,c
3460.0,4095.0,3936.0,4095.0,4095.0,3520.0,4070.0,3516.0,3.39,6.49,7.33,-0.03,-0.06,-0.03,1.0,c
3453.0,4095.0,3934.0,4095.0,4095.0,3510.0,4042.0,3527.0,3.51,6.51,7.35,-0.01,0.01,-0.03,1.0,c
3471.0,4095.0,3952.0,4095.0,4095.0,3506.0,4057.0,3534.0,3.3,6.62,7.09,0.02,-0.01,-0.03,1.0,c
3450.0,4095.0,3933.0,4095.0,4095.0,3525.0,4065.0,3543.0,3.41,6.67,7.08,0.02,-0.04,-0.03,1.0,c
3450.0,4095.0,3923.0,4095.0,4095.0,3505.0,4048.0,3520.0,3.56,6.74,7.02,-0.02,-0.02,-0.01,1.0,c
3470.0,4095.0,3939.0,4095.0,4095.0,3524.0,4067.0,3513.0,3.53,6.72,7.03,-0.03,0.01,-0.02,1.0,c
3455.0,4095.0,3898.0,4095.0,4095.0,3536.0,4081.0,3482.0,3.36,7.18,6.51,0.02,0.0,-0.03,1.0,c
3456.0,4095.0,3888.0,4095.0,4095.0,3518.0,4059.0,3485.0,3.56,7.22,6.49,-0.03,-0.03,-0.03,1.0,c
3456.0,4095.0,3895.0,4095.0,4095.0,3538.0,4057.0,3488.0,3.54,7.19,6.49,-0.03,-0.01,-0.04,1.0,c
3446.0,4095.0,3887.0,4095.0,4095.0,3519.0,4058.0,3475.0,3.51,7.15,6.6,-0.02,-0.06,-0.07,1.0,c
3450.0,4095.0,3884.0,4095.0,4095.0,3536.0,4080.0,3514.0,3.44,7.24,6.48,-0.01,-0.04,-0.06,1.0,c
3463.0,4095.0,3874.0,4095.0,4095.0,3528.0,4073.0,3513.0,3.49,7.25,6.42,-0.02,-0.01,-0.06,1.0,c
3462.0,4095.0,3883.0,4095.0,4095.0,3532.0,4080.0,3535.0,3.43,7.3,6.4,-0.02,-0.04,-0.05,1.0,c
3456.0,4095.0,3900.0,4095.0,4095.0,3525.0,4061.0,3506.0,3.49,7.36,6.34,-0.03,-0.02,-0.06,1.0,c
3459.0,4095.0,3895.0,4095.0,4095.0,3543.0,4091.0,3505.0,3.42,7.32,6.35,-0.03,-0.03,-0.07,1.0,c
3446.0,4095.0,3878.0,4095.0,4095.0,3536.0,4080.0,3504.0,3.46,7.44,6.26,-0.05,0.04,-0.03,1.0,c
3439.0,4095.0,3898.0,4095.0,4095.0,3543.0,4080.0,3509.0,3.48,7.38,6.32,-0.03,-0.04,-0.07,1.0,c
3451.0,4095.0,3874.0,4095.0,4095.0,3540.0,4090.0,3523.0,3.45,7.39,6.43,-0.05,-0.06,-0.07,1.0,c
3454.0,4095.0,3858.0,4095.0,4095.0,3525.0,4080.0,3457.0,3.37,7.43,6.27,-0.01,-0.02,-0.05,1.0,c
3466.0,4095.0,3847.0,4095.0,4095.0,3530.0,4093.0,3471.0,3.47,7.54,6.11,0.05,0.03,-0.05,1.0,c
3469.0,4095.0,3856.0,4095.0,4095.0,3523.0,4063.0,3458.0,3.45,7.56,6.2,-0.02,0.01,-0.06,1.0,c
3472.0,4095.0,3861.0,4095.0,4095.0,3536.0,4080.0,3476.0,3.38,7.61,6.01,-0.02,-0.04,-0.08,1.0,c
3470.0,4095.0,3838.0,4095.0,4095.0,3521.0,4063.0,3473.0,3.32,7.64,5.98,-0.06,-0.02,-0.07,1.0,c
3459.0,4095.0,3871.0,4095.0,4095.0,3527.0,4095.0,3485.0,3.39,7.64,6.01,-0.06,-0.04,-0.07,1.0,c
3456.0,4095.0,3807.0,4095.0,4095.0,3534.0,4083.0,3471.0,3.33,7.69,6.04,-0.04,-0.0,-0.08,1.0,c
3467.0,4095.0,3819.0,4095.0,4095.0,3534.0,4095.0,3483.0,3.39,7.67,5.99,-0.06,-0.05,-0.09,1.0,c
3472.0,4095.0,3795.0,4095.0,4095.0,3543.0,4095.0,3444.0,3.11,7.76,5.93,-0.03,0.03,-0.07,1.0,c
3458.0,4095.0,3777.0,4095.0,4095.0,3535.0,4090.0,3655.0,3.17,7.92,5.75,-0.06,0.06,-0.04,1.0,c
3467.0,4095.0,3781.0,4095.0,4095.0,3540.0,4095.0,3689.0,3.03,7.83,5.91,-0.1,-0.03,-0.04,1.0,c
3450.0,4095.0,3760.0,4095.0,4095.0,3536.0,4091.0,3665.0,3.16,7.73,6.03,-0.07,-0.03,-0.05,1.0,c
3472.0,4095.0,3777.0,4095.0,4095.0,3552.0,4078.0,3748.0,3.07,7.81,5.94,-0.05,-0.01,-0.06,1.0,c
3461.0,4095.0,3749.0,4095.0,4095.0,3525.0,4073.0,3690.0,3.04,7.86,5.86,-0.09,-0.01,-0.04,1.0,c
3463.0,4095.0,3757.0,4095.0,4095.0,3543.0,4078.0,3744.0,3.18,7.8,6.01,-0.06,0.01,-0.05,1.0,c
3455.0,4095.0,3755.0,4095.0,4095.0,3533.0,4080.0,3749.0,3.14,7.84,5.92,-0.05,-0.03,-0.07,1.0,c
3472.0,4095.0,3755.0,4095.0,4095.0,3539.0,4090.0,3722.0,3.06,7.88,5.85,-0.06,0.03,-0.07,1.0,c
3459.0,4095.0,3743.0,4095.0,4095.0,3552.0,4095.0,3740.0,3.04,7.87,5.88,-0.09,-0.03,-0.1,1.0,c
3452.0,4085.0,3743.0,4095.0,4095.0,3537.0,4095.0,3712.0,2.96,7.81,6.08,-0.06,-0.05,-0.09,1.0,c
3469.0,4095.0,3743.0,4095.0,4095.0,3549.0,4095.0,3725.0,2.88,7.89,5.92,-0.05,-0.02,-0.07,1.0,c
3455.0,4077.0,3731.0,4095.0,4095.0,3547.0,4092.0,3712.0,2.94,7.9,5.91,-0.06,0.03,-0.06,1.0,c
3472.0,4095.0,3747.0,4095.0,4095.0,3549.0,4095.0,3758.0,2.95,7.92,5.85,-0.06,-0.02,-0.06,1.0,c
3467.0,4085.0,3695.0,4095.0,4095.0,3521.0,4069.0,3765.0,3.0,8.06,5.82,-0.05,-0.02,-0.06,1.0,c
3463.0,4083.0,3710.0,4095.0,4095.0,3554.0,4095.0,3809.0,2.87,7.92,5.83,-0.06,-0.0,-0.06,1.0,c
3457.0,4092.0,3691.0,4095.0,4095.0,3538.0,4095.0,3809.0,2.87,7.92,5.93,-0.05,-0.02,-0.1,1.0,c
3468.0,4093.0,3710.0,4095.0,4095.0,3549.0,4095.0,3831.0,2.75,7.95,5.81,-0.06,-0.05,-0.08,1.0,c
3445.0,4080.0,3703.0,4095.0,4095.0,3535.0,4095.0,3824.0,2.74,7.96,5.89,-0.06,0.0,-0.04,1.0,c
3478.0,4089.0,3712.0,4095.0,4095.0,3542.0,4095.0,3835.0,2.87,8.06,5.67,-0.06,0.03,-0.03,1.0,c
3460.0,4062.0,3661.0,4095.0,4095.0,3546.0,4083.0,3920.0,2.7,8.08,5.7,-0.04,-0.01,-0.1,1.0,c
3473.0,4055.0,3659.0,4095.0,4095.0,3543.0,4093.0,3938.0,2.53,8.16,5.54,-0.0,0.03,-0.05,1.0,c
3456.0,4031.0,3662.0,4095.0,4095.0,3541.0,4095.0,3920.0,2.67,8.23,5.56,-0.07,0.0,-0.04,1.0,c
3469.0,4079.0,3691.0,4095.0,4095.0,3551.0,4095.0,3920.0,2.76,8.12,5.72,-0.06,0.01,-0.07,1.0,c
3466.0,4048.0,3669.0,4095.0,4095.0,3541.0,4081.0,3888.0,2.54,8.19,5.59,-0.08,-0.01,-0.09,1.0,c
3457.0,4052.0,3659.0,4095.0,4095.0,3536.0,4069.0,3886.0,2.38,8.16,5.71,-0.07,0.02,-0.04,1.0,c
3472.0,4051.0,3679.0,4095.0,4095.0,3559.0,4095.0,3906.0,2.61,8.14,5.75,-0.06,-0.01,-0.02,1.0,c
3472.0,4043.0,3664.0,4095.0,4095.0,3536.0,4080.0,3925.0,2.6,8.19,5.68,-0.03,0.0,-0.06,1.0,c
3468.0,4053.0,3677.0,4095.0,4095.0,3558.0,4095.0,3949.0,2.57,8.2,5.68,-0.06,-0.02,-0.06,1.0,c
3466.0,4048.0,3662.0,4095.0,4095.0,3550.0,4095.0,3913.0,2.7,8.15,5.75,-0.06,-0.01,-0.07,1.0,c
3477.0,4053.0,3683.0,4095.0,4095.0,3533.0,4095.0,3952.0,2.48,8.26,5.66,-0.11,0.12,-0.04,1.0,c
3469.0,4043.0,3665.0,4095.0,4095.0,3548.0,4095.0,3921.0,2.4,8.14,5.83,-0.06,0.02,-0.09,1.0,c
3479.0,4048.0,3678.0,4095.0,4095.0,3554.0,4095.0,3905.0,2.17,8.21,5.69,-0.05,0.02,-0.05,1.0,c
3467.0,4059.0,3651.0,4095.0,4095.0,3545.0,4080.0,3920.0,2.44,8.26,5.67,-0.01,-0.06,-0.08,1.0,c
3484.0,4052.0,3671.0,4095.0,4095.0,3557.0,4095.0,3942.0,2.35,8.26,5.63,-0.05,-0.04,-0.09,1.0,c
3449.0,4037.0,3662.0,4095.0,4095.0,3562.0,4095.0,3962.0,2.27,8.26,5.6,-0.02,0.02,-0.09,1.0,c
3461.0,4067.0,3677.0,4095.0,4095.0,3545.0,4080.0,3963.0,2.26,8.32,5.62,-0.07,0.01,-0.07,1.0,c
3472.0,4057.0,3666.0,4095.0,4095.0,3557.0,4095.0,3984.0,2.24,8.32,5.59,-0.04,-0.01,-0.1,1.0,c
3454.0,4042.0,3658.0,4095.0,4095.0,3543.0,4094.0,3969.0,2.05,8.38,5.53,-0.09,0.02,-0.07,1.0,c
3471.0,4038.0,3689.0,4095.0,4095.0,3562.0,4095.0,3965.0,2.08,8.32,5.66,-0.08,0.04,-0.07,1.0,c
3454.0,4034.0,3669.0,4095.0,4095.0,3568.0,4095.0,3997.0,1.8,8.2,5.84,-0.08,-0.02,-0.05,1.0,c
3472.0,4048.0,3662.0,4095.0,4095.0,3554.0,4095.0,3999.0,1.88,8.2,5.99,-0.08,-0.05,-0.06,1.0,c
3460.0,4042.0,3663.0,4095.0,4095.0,3536.0,4084.0,4005.0,1.89,8.26,5.8,-0.07,0.0,-0.04,1.0,c
3467.0,4048.0,3684.0,4095.0,4095.0,3567.0,4095.0,4007.0,1.95,8.19,5.94,-0.1,0.03,-0.07,1.0,c
3463.0,4021.0,3648.0,4095.0,4095.0,3558.0,4087.0,3989.0,1.75,8.19,5.92,-0.06,0.01,-0.09,1.0,c
3469.0,4019.0,3662.0,4095.0,4095.0,3565.0,4095.0,3990.0,1.59,8.18,5.92,-0.07,0.03,-0.06,1.0,c
3470.0,4001.0,3655.0,4095.0,4095.0,3561.0,4095.0,3985.0,1.72,8.17,5.94,-0.06,0.02,-0.05,1.0,c
3482.0,4031.0,3658.0,4095.0,4095.0,3555.0,4080.0,3999.0,1.76,8.26,5.82,-0.08,0.03,-0.07,1.0,c
3456.0,4015.0,3637.0,4095.0,4095.0,3558.0,4093.0,4007.0,1.8,8.23,5.86,-0.12,-0.01,-0.13,1.0,c
3469.0,4009.0,3648.0,4095.0,4095.0,3575.0,4095.0,4054.0,1.54,8.17,6.03,-0.15,0.02,-0.15,1.0,c
3469.0,4010.0,3646.0,4095.0,4095.0,3549.0,4090.0,4030.0,1.37,8.11,6.1,-0.15,0.06,-0.14,1.0,c
3485.0,4032.0,3670.0,4095.0,4095.0,3570.0,4095.0,4037.0,1.2,7.99,6.33,-0.13,-0.03,-0.14,1.0,c
3471.0,4003.0,3642.0,4095.0,4095.0,3568.0,4095.0,4053.0,1.15,7.95,6.39,-0.08,0.04,-0.08,1.0,c
3470.0,4011.0,3648.0,4095.0,4095.0,3555.0,4081.0,4033.0,1.14,8.01,6.3,-0.06,0.0,-0.07,1.0,c
3482.0,3997.0,3647.0,4095.0,4095.0,3570.0,4095.0,4048.0,1.16,8.04,6.22,-0.06,-0.02,-0.06,1.0,c
3465.0,3991.0,3648.0,4095.0,4095.0,3567.0,4081.0,4048.0,1.17,7.98,6.34,-0.09,-0.0,-0.05,1.0,c
3455.0,4007.0,3649.0,4095.0,4095.0,3582.0,4095.0,4090.0,1.19,7.95,6.41,-0.05,-0.01,-0.06,1.0,c
3462.0,4015.0,3633.0,4095.0,4095.0,3555.0,4095.0,4071.0,1.15,8.05,6.25,-0.07,0.03,-0.04,1.0,c
3472.0,4004.0,3653.0,4095.0,4095.0,3570.0,4095.0,4092.0,1.16,7.98,6.34,-0.09,0.03,-0.04,1.0,c
3456.0,4015.0,3645.0,4095.0,4095.0,3559.0,4085.0,4066.0,1.04,7.96,6.36,-0.07,0.02,-0.06,1.0,c
3473.0,3990.0,3643.0,4095.0,4095.0,3558.0,4095.0,4095.0,1.09,7.98,6.31,-0.06,0.03,-0.01,1.0,c
3464.0,4019.0,3665.0,4095.0,4095.0,3579.0,4095.0,4095.0,1.13,7.94,6.45,-0.08,-0.02,-0.03,1.0,c
3455.0,3999.0,3633.0,4095.0,4095.0,3565.0,4095.0,4080.0,1.08,7.9,6.4,-0.09,-0.02,-0.03,1.0,c
3472.0,4005.0,3648.0,4095.0,4095.0,3570.0,4095.0,4085.0,1.14,7.83,6.59,-0.07,-0.02,-0.05,1.0,c
3455.0,3999.0,3644.0,4095.0,4095.0,3567.0,4095.0,4082.0,1.11,7.87,6.47,-0.06,-0.0,-0.04,1.0,c
3472.0,4005.0,3648.0,4095.0,4095.0,3575.0,4095.0,4095.0,1.03,7.91,6.41,-0.06,0.04,-0.02,1.0,c
3458.0,3994.0,3633.0,4095.0,4095.0,3568.0,4095.0,4095.0,1.17,7.88,6.5,-0.09,-0.08,-0.02,1.0,c
3475.0,4012.0,3647.0,4095.0,4095.0,3569.0,4095.0,4095.0,1.13,7.82,6.58,-0.08,0.05,-0.0,1.0,c
3463.0,3985.0,3627.0,4095.0,4095.0,3563.0,4095.0,4081.0,1.07,7.8,6.56,-0.11,0.04,0.01,1.0,c
3472.0,4013.0,3652.0,4095.0,4095.0,3568.0,4095.0,4095.0,1.21,7.81,6.63,-0.09,0.04,0.01,1.0,c
3469.0,3987.0,3645.0,4095.0,4095.0,3567.0,4089.0,4061.0,1.22,7.76,6.59,-0.09,-0.01,0.01,1.0,c
3472.0,4002.0,3632.0,4095.0,4095.0,3567.0,4095.0,4080.0,1.27,7.75,6.62,-0.07,-0.02,-0.01,1.0,c
3482.0,4003.0,3639.0,4095.0,4095.0,3569.0,4095.0,4095.0,1.28,7.74,6.64,-0.06,0.01,-0.02,1.0,c
3456.0,3989.0,3637.0,4095.0,4095.0,3579.0,4095.0,4077.0,1.31,7.71,6.76,-0.05,-0.02,-0.01,1.0,c
3477.0,3999.0,3630.0,4095.0,4095.0,3567.0,4095.0,4087.0,1.39,7.74,6.66,-0.05,-0.02,-0.03,1.0,c
3474.0,3987.0,3632.0,4095.0,4095.0,3568.0,4095.0,4091.0,1.57,7.65,6.96,0.0,-0.13,-0.11,1.0,c
3464.0,3999.0,3632.0,4095.0,4095.0,3571.0,4095.0,4094.0,1.53,7.76,6.66,0.12,-0.07,-0.22,1.0,c
3455.0,3984.0,3621.0,4095.0,4095.0,3568.0,4095.0,4095.0,0.81,8.07,6.12,-0.0,-0.04,-0.12,1.0,c
3475.0,4015.0,3642.0,4095.0,4095.0,3568.0,4095.0,4095.0,1.05,8.03,6.22,-0.01,0.02,-0.04,1.0,c
3470.0,3991.0,3638.0,4095.0,4095.0,3563.0,4077.0,4095.0,1.09,8.07,6.21,-0.06,0.02,-0.02,1.0,c
3441.0,4095.0,3681.0,4048.0,4095.0,3527.0,3919.0,3635.0,1.14,8.55,5.49,0.01,0.04,-0.06,1.0,c
3446.0,4095.0,3664.0,4048.0,4095.0,3515.0,3900.0,3610.0,1.41,8.65,5.27,-0.0,-0.07,-0.03,1.0,c
3451.0,4095.0,3666.0,4054.0,4095.0,3533.0,3917.0,3583.0,1.41,8.8,5.04,-0.02,0.01,0.01,1.0,c
3447.0,4095.0,3666.0,4055.0,4095.0,3519.0,3901.0,3651.0,1.33,8.62,5.36,-0.14,0.0,-0.11,1.0,c
3454.0,4095.0,3690.0,4068.0,4095.0,3531.0,3911.0,3646.0,0.95,8.47,5.67,-0.08,0.02,-0.06,1.0,c
3437.0,4095.0,3667.0,4061.0,4095.0,3522.0,3903.0,3632.0,1.38,8.64,5.21,-0.05,-0.03,0.02,1.0,c
3448.0,4095.0,3682.0,4071.0,4095.0,3535.0,3920.0,3638.0,1.93,8.71,5.21,-0.08,0.07,-0.07,1.0,c
3442.0,4095.0,3696.0,4061.0,4095.0,3520.0,3885.0,3675.0,1.38,8.64,5.47,-0.08,-0.02,-0.17,1.0,c
3453.0,4095.0,3669.0,4069.0,4095.0,3524.0,3903.0,3712.0,0.56,8.54,5.43,-0.09,0.04,-0.19,1.0,c
3440.0,4095.0,3664.0,4080.0,4095.0,3504.0,3879.0,3695.0,0.56,8.48,5.66,-0.07,0.0,-0.06,1.0,c
3447.0,4095.0,3687.0,4094.0,4095.0,3537.0,3906.0,3703.0,1.12,8.62,5.38,0.0,-0.01,0.03,1.0,c
3441.0,4095.0,3664.0,4071.0,4095.0,3521.0,3888.0,3691.0,1.38,8.62,5.43,-0.01,-0.04,-0.0,1.0,c
3440.0,4095.0,3674.0,4064.0,4095.0,3527.0,3887.0,3696.0,0.99,8.75,5.1,-0.04,0.08,-0.05,1.0,c
3444.0,4095.0,3684.0,4080.0,4095.0,3527.0,3891.0,3745.0,2.32,8.96,4.76,-0.14,0.14,-0.28,1.0,c
3440.0,4095.0,3670.0,4071.0,4095.0,3507.0,3880.0,3739.0,0.45,8.51,5.41,-0.28,0.18,-0.44,1.0,c
3440.0,4095.0,3681.0,4090.0,4095.0,3537.0,3940.0,3769.0,-0.33,8.36,5.98,-0.21,0.01,-0.3,1.0,c
3433.0,4095.0,3666.0,4058.0,4095.0,3522.0,3890.0,3788.0,-0.3,8.23,5.9,-0.19,-0.09,-0.22,1.0,c
3455.0,4095.0,3687.0,4067.0,4095.0,3535.0,3911.0,3792.0,-0.27,8.22,6.2,-0.11,-0.0,-0.15,1.0,c
3439.0,4095.0,3664.0,4065.0,4095.0,3516.0,3874.0,3794.0,-0.37,8.26,6.01,-0.06,0.04,-0.04,1.0,c
3443.0,4095.0,3693.0,4071.0,4095.0,3533.0,3919.0,3801.0,-0.46,8.31,5.78,-0.06,0.05,0.01,1.0,c
3472.0,4095.0,3697.0,4063.0,4095.0,3481.0,3938.0,3747.0,1.46,8.68,5.17,-0.06,0.01,-0.02,1.0,c
3443.0,4095.0,3709.0,4074.0,4095.0,3485.0,3921.0,3793.0,1.52,8.63,5.4,-0.11,-0.09,-0.12,1.0,c
3440.0,4095.0,3719.0,4080.0,4095.0,3501.0,3949.0,3785.0,1.39,8.68,5.27,-0.13,0.02,-0.12,1.0,c
3440.0,4095.0,3705.0,4086.0,4095.0,3497.0,3938.0,3747.0,1.16,8.48,5.56,-0.16,-0.04,-0.14,1.0,c
3455.0,4095.0,3710.0,4094.0,4095.0,3495.0,3943.0,3763.0,0.96,8.39,5.77,-0.13,-0.01,-0.18,1.0,c
3443.0,4095.0,3708.0,4095.0,4095.0,3494.0,3935.0,3803.0,1.13,8.52,5.65,-0.08,-0.07,-0.13,1.0,c
3453.0,4095.0,3691.0,4065.0,4095.0,3491.0,3917.0,3741.0,0.97,8.55,5.43,-0.14,0.05,-0.11,1.0,c
3457.0,4095.0,3725.0,4095.0,4095.0,3510.0,3951.0,3760.0,0.91,8.44,5.8,-0.22,0.05,-0.12,1.0,c
3440.0,4095.0,3691.0,4082.0,4095.0,3493.0,3920.0,3759.0,0.86,8.25,6.02,-0.12,0.08,-0.17,1.0,c
3453.0,4095.0,3725.0,4095.0,4095.0,3515.0,3946.0,3777.0,0.53,8.29,5.94,-0.07,0.04,-0.18,1.0,c
3438.0,4095.0,3699.0,4075.0,4095.0,3505.0,3921.0,3824.0,0.27,8.27,6.0,-0.02,-0.04,-0.19,1.0,c
3455.0,4095.0,3710.0,4095.0,4095.0,3507.0,3943.0,3832.0,0.21,8.41,5.77,-0.03,-0.04,-0.12,1.0,c
3453.0,4095.0,3699.0,4087.0,4095.0,3514.0,3925.0,3926.0,0.27,8.4,5.73,-0.03,0.02,-0.12,1.0,c
3458.0,4095.0,3725.0,4095.0,4095.0,3535.0,3958.0,3920.0,0.26,8.32,6.02,-0.0,-0.02,-0.14,1.0,c
3451.0,4095.0,3702.0,4095.0,4095.0,3527.0,3942.0,3952.0,0.17,8.43,5.81,0.05,-0.06,-0.14,1.0,c
3463.0,4095.0,3710.0,4095.0,4095.0,3525.0,3929.0,3973.0,0.01,8.45,5.76,0.09,-0.09,-0.16,1.0,c
3455.0,4095.0,3697.0,4095.0,4095.0,3519.0,3937.0,3996.0,-0.11,8.65,5.29,0.04,-0.03,-0.11,1.0,c
3439.0,4095.0,3694.0,4095.0,4095.0,3539.0,3929.0,3957.0,-0.08,8.7,5.28,0.02,0.0,-0.09,1.0,c
3445.0,4095.0,3723.0,4095.0,4095.0,3536.0,3933.0,3952.0,-0.17,8.64,5.3,-0.01,-0.01,-0.08,1.0,c
3443.0,4095.0,3709.0,4095.0,4095.0,3540.0,3935.0,3963.0,-0.19,8.68,5.43,0.04,-0.02,-0.05,1.0,c
3440.0,4095.0,3703.0,4095.0,4095.0,3562.0,3924.0,3984.0,1.63,8.97,4.59,-0.09,0.03,-0.0,1.0,c
3446.0,4095.0,3698.0,4095.0,4095.0,3569.0,3960.0,4019.0,1.58,9.11,4.24,-0.04,0.05,0.01,1.0,c
3433.0,4095.0,3694.0,4093.0,4095.0,3553.0,3931.0,3984.0,1.86,9.1,4.24,-0.03,-0.09,-0.01,1.0,c
3457.0,4095.0,3724.0,4095.0,4095.0,3559.0,3949.0,4015.0,1.75,9.19,4.14,-0.1,-0.03,0.01,1.0,c
3441.0,4095.0,3696.0,4095.0,4095.0,3554.0,3933.0,3999.0,1.66,8.99,4.47,-0.14,-0.07,0.03,1.0,c
3454.0,4095.0,3713.0,4095.0,4095.0,3561.0,3956.0,3986.0,1.89,9.01,4.52,-0.07,-0.08,0.05,1.0,c
3443.0,4095.0,3701.0,4095.0,4095.0,3558.0,3948.0,4018.0,2.17,8.94,4.57,-0.06,-0.05,0.05,1.0,c
3451.0,4095.0,3681.0,4095.0,4095.0,3552.0,3934.0,4014.0,2.12,9.03,4.26,-0.11,0.12,0.11,1.0,c
3443.0,4095.0,3703.0,4095.0,4095.0,3566.0,3948.0,3968.0,2.38,9.05,4.39,-0.15,0.09,0.08,1.0,c
3454.0,4095.0,3697.0,4095.0,4095.0,3553.0,3923.0,3967.0,2.25,8.87,4.63,-0.17,0.05,0.04,1.0,c
3444.0,4095.0,3687.0,4095.0,4095.0,3571.0,3949.0,3975.0,2.29,8.78,4.74,-0.21,0.04,0.08,1.0,c
3443.0,4095.0,3703.0,4095.0,4095.0,3566.0,3931.0,3949.0,2.46,8.67,4.95,-0.21,-0.05,0.0,1.0,c
3450.0,4095.0,3712.0,4095.0,4095.0,3567.0,3952.0,3975.0,2.56,8.6,5.14,-0.23,0.02,0.01,1.0,c
3443.0,4095.0,3684.0,4095.0,4095.0,3566.0,3939.0,3974.0,2.42,8.52,5.18,-0.21,0.07,-0.05,1.0,c
3455.0,4095.0,3695.0,4095.0,4095.0,3559.0,3949.0,3967.0,2.41,8.37,5.49,-0.13,-0.08,-0.03,1.0,c
3435.0,4095.0,3693.0,4095.0,4095.0,3583.0,3924.0,3933.0,2.36,8.37,5.39,-0.08,0.04,0.02,1.0,c
3467.0,4095.0,3696.0,4095.0,4095.0,3568.0,3959.0,3903.0,2.41,8.22,5.78,-0.11,-0.01,-0.02,1.0,c
3440.0,4095.0,3702.0,4095.0,4095.0,3546.0,3920.0,3881.0,2.3,8.3,5.48,-0.03,0.05,-0.04,1.0,c
3469.0,4095.0,3707.0,4095.0,4095.0,3554.0,3921.0,3884.0,2.6,8.42,5.41,-0.07,0.04,-0.01,1.0,c
3447.0,4095.0,3713.0,4095.0,4095.0,3574.0,3935.0,3904.0,2.6,8.34,5.39,-0.01,-0.02,-0.01,1.0,c
3446.0,4095.0,3682.0,4095.0,4095.0,3557.0,3894.0,3984.0,1.5,9.16,4.09,-0.11,-0.08,-0.12,1.0,c
3466.0,4095.0,3701.0,4095.0,4095.0,3569.0,3918.0,3995.0,1.62,9.03,4.53,-0.06,0.02,-0.03,1.0,c
3449.0,4095.0,3687.0,4061.0,4095.0,3562.0,3894.0,3975.0,1.81,9.07,4.25,-0.0,-0.07,-0.0,1.0,c
3455.0,4095.0,3665.0,4060.0,4095.0,3565.0,3925.0,4018.0,2.6,9.33,3.95,0.08,-0.01,-0.06,1.0,c
3452.0,4095.0,3693.0,4058.0,4095.0,3559.0,3923.0,4006.0,1.58,9.08,4.23,-0.12,0.13,-0.19,1.0,c
3430.0,4095.0,3681.0,4030.0,4095.0,3558.0,3917.0,4000.0,1.53,9.19,4.24,-0.04,0.15,-0.12,1.0,c
3466.0,4095.0,3707.0,4032.0,4095.0,3568.0,3922.0,4038.0,1.74,9.31,3.95,0.1,0.07,-0.15,1.0,c
3450.0,4095.0,3699.0,3997.0,4095.0,3546.0,3922.0,4079.0,1.12,9.25,4.02,-0.04,-0.11,-0.16,1.0,c
3440.0,4095.0,3703.0,4027.0,4095.0,3563.0,3963.0,4085.0,1.25,9.28,4.01,-0.03,0.01,-0.04,1.0,c
3440.0,4095.0,3695.0,4005.0,4095.0,3561.0,3958.0,4073.0,1.29,9.33,3.97,-0.05,0.03,-0.04,1.0,c
3450.0,4095.0,3695.0,4016.0,4095.0,3574.0,3975.0,4075.0,1.28,9.27,4.12,-0.06,-0.13,-0.1,1.0,c
3441.0,4095.0,3694.0,3983.0,4095.0,3554.0,3959.0,4083.0,1.0,9.16,4.17,-0.02,-0.03,-0.08,1.0,c
3443.0,4095.0,3707.0,4025.0,4095.0,3565.0,3985.0,4091.0,1.05,9.34,3.9,-0.07,0.02,-0.0,1.0,c
3453.0,4095.0,3678.0,3993.0,4095.0,3541.0,3995.0,4080.0,1.42,9.38,3.8,-0.05,0.05,0.07,1.0,c
3449.0,4095.0,3710.0,4023.0,4095.0,3573.0,4013.0,4087.0,1.53,9.34,3.87,-0.0,0.01,-0.03,1.0,c
3441.0,4095.0,3696.0,4016.0,4095.0,3557.0,3975.0,4087.0,1.27,9.2,4.18,-0.04,-0.05,-0.07,1.0,c
3426.0,4095.0,3696.0,4016.0,4095.0,3557.0,4002.0,4079.0,1.26,9.37,3.66,0.01,-0.04,-0.05,1.0,c
3443.0,4095.0,3705.0,4009.0,4095.0,3574.0,4019.0,4095.0,1.23,9.27,3.98,-0.03,-0.12,-0.04,1.0,c
3447.0,4095.0,3679.0,4005.0,4095.0,3563.0,4005.0,4063.0,1.76,9.45,3.76,0.04,-0.1,-0.02,1.0,c
3445.0,4095.0,3714.0,4050.0,4095.0,3574.0,4035.0,4064.0,1.46,9.42,3.55,0.07,0.12,-0.06,1.0,c
3451.0,4095.0,3694.0,4095.0,4095.0,3557.0,4003.0,4016.0,0.96,8.68,5.51,-0.03,-0.43,-0.01,1.0,c
3430.0,4095.0,3691.0,4087.0,4095.0,3557.0,3986.0,4030.0,1.22,8.75,5.2,-0.06,-0.0,0.02,1.0,c
3462.0,4095.0,3691.0,4090.0,4095.0,3566.0,4015.0,4049.0,0.9,8.84,5.13,-0.04,-0.01,-0.05,1.0,c
3462.0,4095.0,3683.0,4095.0,4095.0,3564.0,4021.0,4049.0,0.71,8.93,4.87,-0.06,-0.01,-0.0,1.0,c
3447.0,4095.0,3678.0,4095.0,4095.0,3568.0,3984.0,4016.0,0.68,8.66,5.39,-0.09,-0.06,-0.01,1.0,c
3456.0,4095.0,3682.0,4095.0,4095.0,3574.0,4010.0,4039.0,0.66,8.71,5.26,0.02,0.04,0.1,1.0,c
3440.0,4095.0,3671.0,4095.0,4095.0,3557.0,3975.0,3987.0,0.78,8.84,4.95,-0.02,0.08,0.12,1.0,c
3449.0,4095.0,3689.0,4091.0,3881.0,3566.0,3926.0,4032.0,1.14,8.65,5.3,0.03,-0.13,0.12,1.0,c
3447.0,4095.0,3652.0,4093.0,4095.0,3555.0,3921.0,4017.0,2.0,8.97,4.78,0.1,-0.05,0.14,1.0,c
3447.0,4095.0,3671.0,4095.0,4095.0,3577.0,3951.0,4059.0,2.08,9.04,4.59,0.1,-0.14,-0.04,1.0,c
3440.0,4095.0,3661.0,4087.0,4095.0,3550.0,3935.0,4053.0,1.53,9.19,4.19,-0.0,0.02,-0.13,1.0,c
3454.0,4095.0,3687.0,4095.0,3851.0,3574.0,3954.0,4059.0,1.19,9.0,4.69,-0.07,-0.14,-0.15,1.0,c
3440.0,4095.0,3659.0,4083.0,3937.0,3567.0,3946.0,4053.0,1.37,9.1,4.48,-0.01,-0.03,0.0,1.0,c
3455.0,4095.0,3679.0,4090.0,3946.0,3575.0,3956.0,4081.0,2.13,9.24,4.34,0.03,-0.03,-0.05,1.0,c
3435.0,4095.0,3661.0,4093.0,3920.0,3580.0,3954.0,4079.0,1.22,9.11,4.4,-0.12,-0.03,-0.25,1.0,c
3439.0,4095.0,3665.0,4087.0,3898.0,3562.0,3930.0,4077.0,0.71,8.94,4.82,-0.05,0.09,-0.11,1.0,c
3444.0,4095.0,3671.0,4095.0,3920.0,3581.0,3943.0,4065.0,0.68,9.11,4.39,0.02,0.12,0.08,1.0,c
3442.0,4095.0,3665.0,4083.0,3901.0,3567.0,3942.0,4028.0,1.13,9.14,4.16,0.12,0.31,0.23,1.0,c
3453.0,4095.0,3663.0,4095.0,3906.0,3582.0,3936.0,4048.0,1.52,9.27,4.0,0.05,0.03,0.13,1.0,c
3440.0,4095.0,3657.0,4086.0,3919.0,3568.0,3952.0,4029.0,1.75,9.28,4.13,-0.05,0.02,0.02,1.0,c
3469.0,4095.0,3653.0,4095.0,4010.0,3571.0,3971.0,4035.0,1.88,9.14,4.3,-0.27,-0.13,-0.21,1.0,c
3442.0,4095.0,3639.0,4095.0,3991.0,3563.0,3958.0,4017.0,1.43,8.9,4.88,-0.26,0.11,-0.21,1.0,c
3443.0,4095.0,3646.0,4095.0,4015.0,3568.0,3977.0,4031.0,1.25,8.93,4.88,-0.14,-0.04,-0.23,1.0,c
3440.0,4095.0,3648.0,4095.0,4021.0,3583.0,4010.0,4059.0,1.03,9.06,4.52,-0.12,0.1,-0.23,1.0,c
3440.0,4095.0,3643.0,4095.0,3951.0,3568.0,4000.0,4039.0,0.72,8.93,4.82,-0.11,-0.0,-0.2,1.0,c
3451.0,4095.0,3648.0,4095.0,3928.0,3573.0,4002.0,4045.0,0.51,9.04,4.62,-0.07,0.04,-0.12,1.0,c
3438.0,4095.0,3651.0,4095.0,3984.0,3536.0,3985.0,4037.0,0.58,8.96,4.85,-0.1,-0.0,-0.11,1.0,c
3450.0,4095.0,3658.0,4095.0,4004.0,3561.0,3986.0,4017.0,0.57,8.93,4.9,-0.04,0.01,-0.13,1.0,c
3439.0,4095.0,3632.0,4095.0,4034.0,3559.0,4002.0,3981.0,1.05,8.68,5.55,0.04,-0.2,-0.24,1.0,c
3460.0,4095.0,3626.0,4095.0,4019.0,3569.0,3982.0,3938.0,0.5,9.18,4.26,0.18,0.25,-0.25,1.0,c
3432.0,4095.0,3623.0,4095.0,4048.0,3568.0,3999.0,3894.0,-0.96,9.15,4.21,0.05,-0.09,-0.37,1.0,c
3455.0,4095.0,3635.0,4095.0,4047.0,3583.0,4015.0,3939.0,-0.75,9.21,4.17,0.11,0.09,0.03,1.0,c
3431.0,4095.0,3616.0,4094.0,3995.0,3568.0,3996.0,3920.0,-0.26,9.41,3.77,0.01,0.01,0.11,1.0,c
3441.0,4095.0,3617.0,4095.0,4001.0,3599.0,4015.0,3959.0,0.08,9.32,3.96,-0.09,-0.03,0.07,1.0,c
3441.0,4095.0,3631.0,4095.0,4016.0,3583.0,4011.0,3952.0,0.45,9.26,4.26,0.0,0.01,0.07,1.0,c
3438.0,4095.0,3623.0,4095.0,3953.0,3583.0,4001.0,3915.0,0.02,9.25,4.17,-0.02,-0.02,-0.03,1.0,c
3444.0,4095.0,3633.0,4095.0,3981.0,3582.0,4014.0,3905.0,-0.08,9.39,3.85,0.02,0.04,0.1,1.0,c
3442.0,4095.0,3618.0,4095.0,3917.0,3567.0,3975.0,3868.0,0.35,9.35,3.94,-0.12,-0.05,0.09,1.0,c
3449.0,4095.0,3637.0,4095.0,3959.0,3583.0,4007.0,3901.0,0.6,9.35,4.07,-0.09,0.05,0.1,1.0,c
3429.0,4095.0,3620.0,4095.0,3952.0,3603.0,3991.0,3858.0,0.61,9.4,3.91,-0.1,-0.01,0.02,1.0,c
3429.0,4095.0,3607.0,4090.0,3984.0,3580.0,4015.0,3886.0,0.95,9.2,4.31,-0.02,-0.01,-0.01,1.0,c
3443.0,4095.0,3625.0,4095.0,4005.0,3598.0,4019.0,3877.0,0.8,9.2,4.26,-0.05,-0.18,-0.01,1.0,c
3440.0,4095.0,3602.0,4095.0,4005.0,3573.0,4000.0,3890.0,0.99,9.4,3.81,-0.06,0.09,0.03,1.0,c
3451.0,4095.0,3639.0,4095.0,4021.0,3583.0,4026.0,3878.0,1.09,8.99,4.73,-0.18,-0.19,-0.04,1.0,c
3439.0,4095.0,3620.0,4086.0,4002.0,3581.0,3990.0,3868.0,1.2,9.17,4.34,-0.11,-0.0,0.01,1.0,c
3440.0,4095.0,3630.0,4095.0,4006.0,3583.0,4020.0,3845.0,1.21,9.0,4.68,-0.15,-0.05,-0.04,1.0,c
3431.0,4095.0,3613.0,4095.0,4007.0,3583.0,4002.0,3799.0,1.22,8.84,5.17,0.04,-0.14,-0.17,1.0,c
3450.0,4095.0,3611.0,4095.0,4016.0,3600.0,4034.0,3824.0,0.74,9.28,4.01,0.09,-0.08,-0.06,1.0,c
3433.0,4095.0,3632.0,4095.0,4030.0,3580.0,3997.0,3843.0,1.34,9.36,3.87,-0.06,-0.03,0.12,1.0,c
3455.0,4095.0,3626.0,4095.0,4034.0,3605.0,4015.0,3866.0,2.09,9.3,4.24,-0.13,0.19,0.11,1.0,c
3453.0,4095.0,3621.0,4095.0,3999.0,3583.0,4014.0,3792.0,1.75,9.16,4.52,-0.06,0.24,0.0,1.0,c
3437.0,4095.0,3611.0,4095.0,4016.0,3565.0,4001.0,3782.0,0.3,9.15,4.24,-0.29,0.19,-0.19,1.0,c
3443.0,4095.0,3626.0,4095.0,4021.0,3567.0,4021.0,3801.0,0.47,8.89,5.03,-0.16,-0.1,0.03,1.0,c
3431.0,4095.0,3599.0,4074.0,4045.0,3568.0,4012.0,3831.0,0.95,8.7,5.24,-0.09,-0.14,-0.07,1.0,c
3435.0,4095.0,3619.0,4095.0,4089.0,3583.0,4019.0,3841.0,1.24,9.01,4.58,-0.17,-0.09,-0.01,1.0,c
3437.0,4095.0,3601.0,4083.0,4077.0,3579.0,4016.0,3847.0,1.17,9.09,4.42,-0.33,0.1,0.25,1.0,c
3440.0,4095.0,3605.0,4095.0,4095.0,3611.0,4022.0,3888.0,1.79,8.44,5.67,-0.15,0.01,0.19,1.0,c
3440.0,4095.0,3583.0,4095.0,4066.0,3600.0,4033.0,3874.0,1.13,8.48,5.52,-0.2,-0.16,-0.1,1.0,c
3439.0,4095.0,3617.0,4095.0,4095.0,3617.0,4027.0,3907.0,0.83,8.83,4.86,-0.18,0.32,0.05,1.0,c
3431.0,4095.0,3600.0,4081.0,4089.0,3583.0,4006.0,3901.0,1.54,8.4,5.65,-0.18,-0.01,0.17,1.0,c
3447.0,4095.0,3605.0,4091.0,4095.0,3615.0,4038.0,3927.0,1.1,9.17,4.27,-0.18,0.01,0.06,1.0,c
3422.0,4095.0,3600.0,4081.0,4095.0,3621.0,4032.0,3958.0,1.32,9.22,4.17,-0.12,0.03,0.07,1.0,c
3438.0,4095.0,3617.0,4095.0,4095.0,3617.0,4041.0,3983.0,1.58,9.23,4.16,-0.06,-0.13,-0.03,1.0,c
3435.0,4095.0,3583.0,4075.0,4095.0,3617.0,4045.0,4010.0,1.46,9.26,4.06,-0.03,0.02,-0.06,1.0,c
3455.0,4095.0,3583.0,4083.0,4095.0,3626.0,4052.0,4052.0,1.52,9.28,4.0,-0.13,0.01,-0.11,1.0,c
3426.0,4095.0,3606.0,4070.0,4095.0,3611.0,4053.0,4011.0,1.34,9.22,4.17,-0.08,-0.01,-0.16,1.0,c
3433.0,4095.0,3606.0,4090.0,4095.0,3609.0,4023.0,3977.0,1.17,9.24,4.19,-0.06,0.05,-0.2,1.0,c
3444.0,4095.0,3615.0,4085.0,4095.0,3616.0,4061.0,4016.0,0.9,9.24,4.18,-0.06,0.04,-0.2,1.0,c
3438.0,4095.0,3601.0,4061.0,4088.0,3605.0,4048.0,4011.0,0.58,9.27,4.2,0.02,0.05,-0.14,1.0,c
3435.0,4095.0,3599.0,4066.0,4095.0,3610.0,4050.0,4017.0,0.62,9.32,4.13,0.0,0.07,-0.1,1.0,c
3438.0,4095.0,3600.0,4023.0,4095.0,3599.0,4042.0,4048.0,0.5,9.4,3.89,-0.03,0.18,-0.03,1.0,c
3440.0,4095.0,3615.0,3991.0,4095.0,3618.0,4059.0,3994.0,0.39,9.35,4.08,-0.12,0.01,-0.0,1.0,c
3435.0,4095.0,3583.0,3947.0,4095.0,3552.0,4034.0,4016.0,0.3,9.21,4.08,-0.23,0.03,0.09,1.0,c
3449.0,4095.0,3599.0,3952.0,4095.0,3487.0,3951.0,4011.0,0.81,9.19,4.39,-0.21,0.17,0.15,1.0,c
3424.0,4095.0,3573.0,3913.0,4095.0,3461.0,3974.0,4021.0,0.81,9.08,4.34,-0.09,-0.01,0.03,1.0,c
3436.0,4095.0,3598.0,3913.0,4095.0,3456.0,4015.0,4093.0,0.9,9.15,4.35,-0.17,0.23,0.13,1.0,c
3427.0,4095.0,3557.0,3917.0,4095.0,3444.0,3986.0,4095.0,0.95,9.22,4.6,-0.16,-0.18,-0.08,1.0,c
3443.0,4095.0,3573.0,3957.0,4095.0,3441.0,4017.0,4095.0,0.93,8.96,4.86,-0.07,-0.03,-0.04,1.0,c
3435.0,4091.0,3573.0,3965.0,4095.0,3445.0,4001.0,4095.0,0.99,8.88,4.7,0.0,0.05,-0.0,1.0,c
3427.0,4093.0,3563.0,3952.0,4095.0,3441.0,4003.0,4095.0,0.98,9.09,4.5,-0.12,0.0,0.01,1.0,c
3424.0,3889.0,3568.0,4011.0,4095.0,3472.0,4028.0,4095.0,0.92,8.19,6.15,-0.1,0.18,-0.0,1.0,c
3439.0,3882.0,3571.0,4028.0,4095.0,3472.0,4031.0,4095.0,0.92,8.12,6.21,0.02,0.07,-0.0,1.0,c
3432.0,3888.0,3568.0,4045.0,4095.0,3463.0,4013.0,4095.0,0.86,8.35,5.87,0.13,0.15,0.12,1.0,c
3440.0,3885.0,3568.0,4050.0,4095.0,3474.0,4024.0,4095.0,0.98,8.6,5.36,0.14,0.21,0.2,1.0,c
3421.0,3882.0,3555.0,4030.0,4095.0,3463.0,4021.0,4095.0,1.18,8.73,5.12,0.07,-0.05,0.06,1.0,c
3438.0,3876.0,3574.0,4064.0,4095.0,3491.0,4038.0,4095.0,1.54,8.65,5.36,0.02,0.03,0.05,1.0,c
3430.0,3875.0,3571.0,4048.0,4095.0,3473.0,4011.0,4095.0,1.47,8.66,5.35,0.1,0.14,0.02,1.0,c
3428.0,3889.0,3568.0,4080.0,4095.0,3481.0,4029.0,4095.0,1.13,8.74,5.13,0.09,0.17,0.04,1.0,c
3438.0,3867.0,3570.0,4080.0,4095.0,3471.0,4010.0,4095.0,1.16,8.93,4.8,0.09,-0.12,-0.05,1.0,c
3431.0,3888.0,3577.0,4095.0,4095.0,3494.0,4037.0,4095.0,1.24,8.9,4.84,0.01,0.15,0.12,1.0,c
3422.0,3869.0,3559.0,4064.0,4095.0,3473.0,4016.0,4095.0,1.44,8.89,4.83,-0.01,0.12,0.14,1.0,c
3423.0,3875.0,3559.0,4089.0,4095.0,3486.0,4045.0,4095.0,1.51,8.96,4.83,-0.08,0.29,0.24,1.0,c
3418.0,3856.0,3555.0,4067.0,4095.0,3498.0,4045.0,4095.0,1.27,8.94,4.62,-0.09,0.41,0.3,1.0,c
3425.0,3873.0,3553.0,4074.0,4095.0,3483.0,4019.0,4095.0,1.67,8.77,4.97,-0.13,0.03,0.12,1.0,c
3440.0,3877.0,3553.0,4091.0,4095.0,3473.0,4037.0,4095.0,1.68,8.79,4.96,-0.16,0.14,0.15,1.0,c
3431.0,3870.0,3553.0,4074.0,4095.0,3482.0,4045.0,4095.0,1.9,8.8,4.92,-0.17,0.06,0.08,1.0,c
3442.0,3873.0,3568.0,4080.0,4095.0,3504.0,4055.0,4095.0,1.85,8.68,5.07,-0.2,-0.01,0.01,1.0,c
3427.0,3887.0,3551.0,4077.0,4095.0,3516.0,4046.0,4095.0,2.04,8.52,5.38,-0.15,-0.02,0.04,1.0,c
3440.0,3860.0,3552.0,4083.0,4095.0,3504.0,4038.0,4095.0,2.04,8.51,5.32,-0.16,-0.02,0.01,1.0,c
3407.0,3856.0,3555.0,4086.0,4095.0,3504.0,4040.0,4095.0,2.14,8.41,5.6,-0.27,-0.01,0.01,1.0,c
3430.0,3878.0,3567.0,4095.0,4095.0,3510.0,4016.0,4095.0,2.05,8.12,5.95,-0.14,0.03,-0.05,1.0,c
3437.0,3894.0,3569.0,4095.0,4095.0,3511.0,4053.0,4095.0,2.09,8.04,6.15,-0.12,0.04,-0.06,1.0,c
3415.0,3861.0,3555.0,4095.0,4095.0,3507.0,4026.0,4095.0,2.1,8.12,5.98,-0.08,-0.01,-0.12,1.0,c
3417.0,3869.0,3554.0,4095.0,4095.0,3507.0,4059.0,4095.0,1.8,8.02,6.06,-0.11,-0.05,-0.17,1.0,c
3426.0,3853.0,3561.0,4095.0,4095.0,3493.0,4042.0,4095.0,1.73,8.02,6.12,-0.13,0.0,-0.11,1.0,c
3446.0,3885.0,3578.0,4095.0,4095.0,3506.0,4071.0,4095.0,1.79,7.95,6.4,-0.05,-0.04,-0.13,1.0,c
3425.0,3857.0,3557.0,4095.0,4095.0,3504.0,4050.0,4095.0,1.7,8.09,6.15,-0.03,-0.01,-0.12,1.0,c
3440.0,3887.0,3555.0,4095.0,4095.0,3504.0,4050.0,4095.0,1.71,8.0,6.29,-0.04,-0.07,-0.14,1.0,c
3440.0,3865.0,3565.0,4095.0,4095.0,3495.0,4050.0,4095.0,1.64,8.01,6.33,0.01,-0.06,-0.16,1.0,c
3410.0,3854.0,3558.0,4095.0,4095.0,3504.0,4047.0,4095.0,1.39,8.26,5.81,0.02,0.05,-0.12,1.0,c
3450.0,3888.0,3573.0,4095.0,4095.0,3511.0,4047.0,4095.0,1.27,8.24,5.91,-0.02,-0.03,-0.1,1.0,c
3423.0,3853.0,3561.0,4095.0,4095.0,3494.0,4041.0,4095.0,1.41,8.29,5.83,-0.01,0.06,-0.06,1.0,c
3427.0,3895.0,3569.0,4095.0,4095.0,3506.0,4054.0,4095.0,1.4,8.27,5.84,0.02,0.01,-0.12,1.0,c
3425.0,3875.0,3557.0,4071.0,4095.0,3499.0,4045.0,4095.0,1.11,8.32,5.84,0.0,0.0,-0.15,1.0,c
3441.0,3877.0,3557.0,4095.0,4095.0,3509.0,4080.0,4095.0,1.02,8.37,5.79,0.02,-0.0,-0.1,1.0,c
3419.0,3861.0,3558.0,4086.0,4095.0,3504.0,4047.0,4095.0,1.03,8.41,5.82,0.06,-0.08,-0.11,1.0,c
3435.0,3870.0,3573.0,4095.0,4095.0,3530.0,4047.0,4095.0,1.05,8.55,5.53,0.07,-0.08,-0.12,1.0,c
3431.0,3857.0,3550.0,4077.0,4095.0,3503.0,4062.0,4095.0,1.03,8.67,5.31,0.02,-0.07,-0.1,1.0,c
3440.0,3888.0,3581.0,4091.0,4095.0,3508.0,4067.0,4095.0,0.99,8.64,5.32,-0.02,-0.05,-0.1,1.0,c
3427.0,3872.0,3561.0,4093.0,4095.0,3504.0,4038.0,4095.0,0.97,8.63,5.45,0.03,-0.02,-0.1,1.0,c
3600.0,915.0,3443.0,4095.0,4095.0,3561.0,4095.0,3311.0,1.78,7.64,6.63,-0.04,0.05,-0.03,1.0,c
3581.0,927.0,3433.0,4095.0,4095.0,3540.0,4095.0,3341.0,1.85,7.68,6.46,-0.15,-0.02,0.02,1.0,c
3583.0,933.0,3439.0,4095.0,4095.0,3549.0,4095.0,3344.0,1.92,7.92,6.24,0.1,0.01,0.01,1.0,c
3597.0,922.0,3439.0,4095.0,4095.0,3536.0,4095.0,3824.0,1.97,7.95,6.17,0.04,0.05,-0.02,1.0,c
3583.0,935.0,3440.0,4095.0,4095.0,3558.0,4095.0,3821.0,1.69,7.99,6.27,0.07,0.05,-0.09,1.0,c
3583.0,931.0,3421.0,4095.0,4095.0,3556.0,4095.0,3889.0,1.74,8.06,6.11,0.1,0.05,-0.08,1.0,c
3577.0,930.0,3417.0,4095.0,4095.0,3537.0,4095.0,3905.0,1.75,8.16,5.97,-0.0,0.06,-0.09,1.0,c
3583.0,944.0,3426.0,4095.0,4095.0,3539.0,4095.0,3917.0,1.67,8.15,5.99,0.06,-0.05,-0.16,1.0,c
3569.0,935.0,3396.0,4095.0,4095.0,3536.0,4093.0,3990.0,1.73,8.37,5.63,0.04,-0.07,-0.18,1.0,c
3566.0,933.0,3415.0,4095.0,4095.0,3558.0,4095.0,3995.0,1.37,8.33,5.81,-0.05,0.02,-0.21,1.0,c
3565.0,937.0,3409.0,4095.0,4095.0,3545.0,4095.0,4039.0,0.91,8.3,5.79,-0.09,0.13,-0.13,1.0,c
3575.0,934.0,3395.0,4095.0,4095.0,3552.0,4095.0,4063.0,1.03,8.33,5.83,-0.03,0.05,-0.09,1.0,c
3555.0,934.0,3402.0,4095.0,4095.0,3547.0,4095.0,4071.0,1.22,8.36,5.74,-0.05,-0.04,-0.13,1.0,c
3575.0,944.0,3403.0,4095.0,4095.0,3559.0,4095.0,4095.0,1.22,8.44,5.66,-0.02,-0.03,-0.13,1.0,c
3554.0,937.0,3399.0,4095.0,4095.0,3541.0,4095.0,4038.0,0.92,8.43,5.69,-0.07,0.02,-0.14,1.0,c
3563.0,943.0,3401.0,4095.0,4095.0,3575.0,4095.0,4062.0,0.54,8.34,5.87,-0.09,0.02,-0.15,1.0,c
3549.0,938.0,3395.0,4095.0,4095.0,3579.0,4095.0,4048.0,0.61,8.32,5.89,-0.07,0.06,-0.08,1.0,c
3561.0,937.0,3394.0,4095.0,4095.0,3557.0,4095.0,4048.0,0.7,8.39,5.86,-0.05,0.01,-0.11,1.0,c
3578.0,938.0,3404.0,4095.0,4095.0,3573.0,4095.0,4059.0,0.68,8.47,5.67,-0.05,-0.04,-0.08,1.0,c
3541.0,927.0,3391.0,4095.0,4095.0,3568.0,4095.0,4070.0,0.71,8.54,5.54,-0.05,-0.04,-0.09,1.0,c
3566.0,912.0,3365.0,4095.0,4095.0,3567.0,4095.0,4095.0,1.95,8.49,5.59,0.06,-0.04,0.1,1.0,c
3546.0,905.0,3360.0,4095.0,4095.0,3567.0,4095.0,4095.0,1.74,8.68,4.91,-0.11,0.06,-0.02,1.0,c
3569.0,901.0,3375.0,4095.0,4095.0,3571.0,4095.0,4095.0,1.59,8.26,5.83,-0.19,-0.13,-0.13,1.0,c
3568.0,907.0,3360.0,4095.0,4095.0,3568.0,4095.0,4095.0,1.74,8.03,6.3,-0.01,-0.31,-0.26,1.0,c
3568.0,906.0,3367.0,4095.0,4095.0,3560.0,4095.0,4095.0,1.32,8.76,4.91,-0.0,-0.01,-0.04,1.0,c
3579.0,915.0,3371.0,4095.0,4095.0,3580.0,4095.0,4095.0,1.8,8.79,4.95,-0.11,0.09,0.13,1.0,c
3547.0,910.0,3361.0,4095.0,4095.0,3573.0,4095.0,4095.0,1.78,8.28,5.77,-0.23,0.03,0.02,1.0,c
3561.0,903.0,3373.0,4095.0,4095.0,3569.0,4095.0,4095.0,1.3,7.96,6.31,-0.18,0.01,0.01,1.0,c
3559.0,911.0,3376.0,4095.0,4095.0,3568.0,4095.0,4095.0,1.79,8.04,6.1,-0.07,0.01,0.05,1.0,c
3569.0,911.0,3362.0,4095.0,4095.0,3571.0,4095.0,4095.0,2.05,8.33,5.68,-0.02,-0.03,0.06,1.0,c
3549.0,910.0,3361.0,4095.0,4095.0,3571.0,4095.0,4095.0,2.41,8.51,5.33,-0.04,0.04,0.09,1.0,c
3564.0,908.0,3376.0,4095.0,4095.0,3583.0,4095.0,4095.0,2.23,8.12,5.94,-0.16,0.08,-0.09,1.0,c
3549.0,912.0,3363.0,4095.0,4095.0,3575.0,4095.0,4095.0,1.44,8.0,6.28,-0.11,0.0,-0.13,1.0,c
3559.0,912.0,3374.0,4095.0,4095.0,3579.0,4095.0,4095.0,1.31,8.06,6.1,-0.06,0.02,0.06,1.0,c
3561.0,912.0,3350.0,4095.0,4095.0,3579.0,4095.0,4095.0,2.21,8.05,6.04,-0.01,-0.02,0.09,1.0,c
3567.0,912.0,3365.0,4095.0,4095.0,3577.0,4095.0,4095.0,2.6,8.3,5.66,0.02,-0.02,0.03,1.0,c
3568.0,903.0,3377.0,4095.0,4095.0,3583.0,4095.0,4095.0,2.4,8.39,5.48,-0.11,0.06,-0.09,1.0,c
3547.0,905.0,3356.0,4095.0,4095.0,3579.0,4095.0,4095.0,1.56,7.99,6.19,-0.14,0.02,-0.17,1.0,c
3563.0,914.0,3367.0,4095.0,4095.0,3583.0,4095.0,4095.0,1.32,7.99,6.23,-0.03,0.04,0.02,1.0,c
3537.0,912.0,3364.0,4095.0,4095.0,3569.0,4095.0,4095.0,1.99,8.11,5.92,-0.03,-0.06,0.05,1.0,c
3568.0,907.0,3376.0,4095.0,4095.0,3583.0,4095.0,4095.0,2.04,7.94,6.2,-0.12,0.0,-0.06,1.0,c
3553.0,900.0,3365.0,4095.0,4095.0,3598.0,4095.0,4095.0,1.96,7.75,6.52,-0.11,-0.04,-0.05,1.0,c
3568.0,909.0,3382.0,4095.0,4095.0,3583.0,4095.0,4095.0,2.07,7.78,6.47,-0.08,-0.02,-0.05,1.0,c
3558.0,911.0,3359.0,4095.0,4095.0,3571.0,4095.0,4095.0,1.97,7.83,6.27,-0.09,-0.0,-0.04,1.0,c
3553.0,906.0,3371.0,4095.0,4095.0,3583.0,4095.0,4095.0,2.09,7.74,6.44,-0.13,-0.07,-0.09,1.0,c
3558.0,908.0,3362.0,4095.0,4095.0,3572.0,4095.0,4095.0,2.08,7.69,6.57,-0.1,-0.02,-0.09,1.0,c
3571.0,911.0,3379.0,4095.0,4095.0,3583.0,4095.0,4095.0,1.87,7.74,6.44,-0.1,-0.02,-0.07,1.0,c
3536.0,905.0,3371.0,4095.0,4095.0,3583.0,4095.0,4095.0,1.91,7.76,6.46,-0.08,-0.09,-0.08,1.0,c
3567.0,910.0,3376.0,4095.0,4095.0,3606.0,4095.0,4095.0,1.92,7.71,6.53,-0.09,-0.1,-0.08,1.0,c
3563.0,909.0,3373.0,4095.0,4095.0,3581.0,4095.0,4095.0,1.82,7.7,6.47,-0.1,0.02,-0.03,1.0,c
3570.0,909.0,3372.0,4095.0,4095.0,3605.0,4095.0,4095.0,1.93,7.62,6.62,-0.1,-0.02,-0.02,1.0,c
3561.0,912.0,3375.0,4095.0,4095.0,3598.0,4095.0,4095.0,1.85,7.63,6.56,-0.16,0.04,0.07,1.0,c
3555.0,907.0,3359.0,4095.0,4095.0,3583.0,4095.0,4095.0,1.9,7.52,6.65,-0.13,0.08,0.13,1.0,c
3570.0,902.0,3376.0,4095.0,4095.0,3600.0,4095.0,4095.0,2.29,7.4,6.85,-0.07,-0.03,0.08,1.0,c
3568.0,905.0,3365.0,4095.0,4095.0,3583.0,4095.0,4095.0,2.33,7.4,6.87,-0.05,-0.03,0.05,1.0,c
3567.0,912.0,3375.0,4095.0,4095.0,3605.0,4095.0,4095.0,2.33,7.48,6.63,-0.04,0.01,0.03,1.0,c
3558.0,902.0,3367.0,4095.0,4095.0,3583.0,4095.0,4095.0,2.42,7.53,6.58,-0.06,0.01,0.01,1.0,c
3567.0,905.0,3379.0,4095.0,4095.0,3583.0,4095.0,4095.0,2.47,7.36,6.72,-0.01,0.01,0.01,1.0,c
3557.0,907.0,3370.0,4095.0,4095.0,3575.0,4095.0,4095.0,2.43,7.42,6.69,-0.01,-0.01,0.0,1.0,c
3559.0,905.0,3363.0,4095.0,4095.0,3583.0,4095.0,4095.0,2.45,7.48,6.66,0.02,0.0,-0.03,1.0,c
3559.0,910.0,3362.0,4095.0,4095.0,3600.0,4095.0,4095.0,2.44,7.87,6.17,-0.01,-0.01,-0.0,1.0,c
3568.0,896.0,3361.0,4095.0,4095.0,3583.0,4095.0,4095.0,2.52,7.85,6.21,-0.02,-0.04,-0.01,1.0,c
3559.0,899.0,3349.0,4095.0,4095.0,3583.0,4095.0,4095.0,2.51,7.95,6.01,0.0,0.03,-0.02,1.0,c
3568.0,901.0,3371.0,4095.0,4095.0,3602.0,4095.0,4095.0,2.48,7.94,6.04,-0.02,0.02,-0.04,1.0,c
3536.0,902.0,3358.0,4095.0,4095.0,3610.0,4095.0,4095.0,2.48,7.97,6.02,-0.04,0.05,-0.01,1.0,c
3567.0,903.0,3372.0,4095.0,4095.0,3582.0,4095.0,4095.0,2.49,7.98,6.07,-0.03,-0.03,-0.04,1.0,c
3550.0,903.0,3366.0,4095.0,4095.0,3600.0,4095.0,4095.0,2.45,8.03,5.91,-0.03,-0.01,-0.05,1.0,c
3547.0,899.0,3361.0,4095.0,4095.0,3600.0,4095.0,4095.0,2.53,8.02,5.97,-0.04,-0.04,-0.06,1.0,c
3568.0,907.0,3370.0,4095.0,4095.0,3601.0,4095.0,4095.0,2.49,8.03,5.97,-0.0,-0.0,-0.08,1.0,c
3562.0,897.0,3351.0,4095.0,4095.0,3600.0,4095.0,4095.0,2.39,8.11,5.86,0.02,0.03,-0.08,1.0,c
3558.0,910.0,3365.0,4095.0,4095.0,3611.0,4095.0,4095.0,2.28,8.17,5.77,0.01,0.02,-0.06,1.0,c
3550.0,906.0,3361.0,4095.0,4095.0,3600.0,4095.0,4095.0,2.21,8.3,5.61,-0.03,-0.03,-0.07,1.0,c
3565.0,909.0,3369.0,4095.0,4095.0,3609.0,4095.0,4095.0,2.3,8.21,5.75,-0.02,-0.05,-0.06,1.0,c
3556.0,897.0,3367.0,4095.0,4095.0,3583.0,4095.0,4095.0,2.42,8.15,5.88,0.05,-0.09,-0.11,1.0,c
3562.0,896.0,3344.0,4095.0,4095.0,3607.0,4095.0,4095.0,2.1,8.39,5.44,-0.04,0.1,0.02,1.0,c
3551.0,907.0,3355.0,4095.0,4095.0,3600.0,4095.0,4095.0,2.24,8.38,5.43,-0.01,-0.02,-0.03,1.0,c
3561.0,902.0,3365.0,4095.0,4095.0,3603.0,4095.0,4095.0,2.23,8.46,5.35,-0.04,0.01,-0.02,1.0,c
3558.0,900.0,3365.0,4095.0,4095.0,3607.0,4095.0,4095.0,2.32,8.3,5.62,-0.03,-0.06,-0.04,1.0,c
3561.0,911.0,3373.0,4095.0,4095.0,3583.0,4095.0,4095.0,2.33,8.39,5.43,0.01,-0.03,-0.03,1.0,c
3566.0,902.0,3373.0,4095.0,4095.0,3606.0,4095.0,4095.0,2.37,8.46,5.33,-0.0,-0.04,-0.06,1.0,c
3553.0,896.0,3370.0,4095.0,4095.0,3583.0,4095.0,4095.0,2.32,8.59,5.13,-0.01,-0.07,-0.1,1.0,c
3555.0,906.0,3376.0,4095.0,4095.0,3617.0,4095.0,4095.0,2.31,8.64,5.06,0.02,-0.08,-0.12,1.0,c
3541.0,898.0,3360.0,4095.0,4095.0,3600.0,4095.0,4095.0,2.21,8.76,4.89,-0.09,-0.02,-0.07,1.0,c
3575.0,906.0,3371.0,4095.0,4095.0,3603.0,4095.0,4095.0,2.19,8.66,5.04,-0.03,-0.0,-0.07,1.0,c
3549.0,899.0,3361.0,4095.0,4095.0,3613.0,4095.0,4095.0,2.13,8.74,4.94,-0.04,-0.01,-0.07,1.0,c
3547.0,902.0,3351.0,4095.0,4095.0,3600.0,4095.0,4095.0,2.14,8.65,4.83,-0.03,-0.02,-0.08,1.0,c
3554.0,898.0,3360.0,4095.0,4095.0,3614.0,4095.0,4095.0,2.13,8.77,4.92,-0.01,-0.03,-0.08,1.0,c
3548.0,905.0,3344.0,4095.0,4095.0,3583.0,4095.0,4095.0,2.11,8.79,4.83,-0.05,-0.01,-0.06,1.0,c
3555.0,890.0,3361.0,4095.0,4095.0,3601.0,4095.0,4095.0,2.04,8.77,4.84,-0.01,-0.01,-0.09,1.0,c
3547.0,898.0,3346.0,4095.0,4095.0,3599.0,4095.0,4095.0,2.06,8.84,4.73,-0.01,-0.03,-0.1,1.0,c
3561.0,911.0,3349.0,4095.0,4095.0,3618.0,4095.0,4095.0,2.15,8.81,4.82,-0.02,-0.05,-0.14,1.0,c
3536.0,907.0,3344.0,4095.0,4095.0,3600.0,4095.0,4095.0,1.82,8.87,4.75,-0.08,0.01,-0.15,1.0,c
3536.0,896.0,3355.0,4095.0,4095.0,3607.0,4095.0,4095.0,1.53,8.86,4.79,-0.08,0.09,-0.07,1.0,c
3552.0,901.0,3344.0,4095.0,4095.0,3601.0,4095.0,4095.0,1.63,8.86,4.86,-0.04,-0.02,-0.08,1.0,c
3563.0,895.0,3353.0,4095.0,4095.0,3614.0,4095.0,4095.0,1.68,8.85,4.86,-0.02,-0.04,-0.09,1.0,c
3559.0,901.0,3344.0,4095.0,4095.0,3583.0,4095.0,4095.0,1.7,8.89,4.77,-0.02,0.0,-0.09,1.0,c
3541.0,899.0,3355.0,4095.0,4095.0,3598.0,4095.0,4095.0,1.48,8.98,4.66,-0.05,0.03,-0.08,1.0,c
3567.0,899.0,3355.0,4095.0,4095.0,3626.0,4095.0,4095.0,1.45,8.9,4.76,-0.05,-0.01,-0.08,1.0,c
3538.0,902.0,3346.0,4095.0,4095.0,3602.0,4095.0,4095.0,1.42,8.93,4.75,-0.03,-0.03,-0.08,1.0,c
3552.0,908.0,3363.0,4095.0,4095.0,3616.0,4095.0,4095.0,1.57,8.95,4.72,-0.06,0.01,-0.05,1.0,c
3535.0,899.0,3354.0,4095.0,4095.0,3599.0,4095.0,4095.0,1.35,8.97,4.76,-0.05,-0.02,-0.07,1.0,c
3565.0,894.0,3362.0,4095.0,4095.0,3615.0,4095.0,4095.0,1.3,8.98,4.71,-0.08,-0.01,-0.07,1.0,c
3541.0,898.0,3355.0,4095.0,4095.0,3616.0,4095.0,4095.0,1.27,9.0,4.69,-0.08,0.05,-0.04,1.0,c
3537.0,906.0,3344.0,4095.0,4095.0,3618.0,4095.0,4095.0,1.17,8.95,4.75,-0.08,0.02,-0.06,1.0,c
3553.0,898.0,3366.0,4095.0,4095.0,3626.0,4095.0,4095.0,1.16,8.96,4.78,-0.06,-0.01,-0.06,1.0,c
3543.0,896.0,3338.0,4095.0,4095.0,3600.0,4095.0,4095.0,1.18,8.88,4.89,-0.05,-0.02,-0.06,1.0,c
3536.0,895.0,3347.0,4095.0,4095.0,3621.0,4095.0,4095.0,1.19,8.89,4.87,-0.06,0.0,-0.05,1.0,c
3539.0,896.0,3344.0,4095.0,4095.0,3616.0,4095.0,4095.0,1.15,8.96,4.78,-0.06,0.01,-0.06,1.0,c
3550.0,900.0,3358.0,4095.0,4095.0,3627.0,4095.0,4095.0,1.03,9.0,4.75,-0.09,0.03,-0.03,1.0,c
3536.0,899.0,3340.0,4095.0,4095.0,3615.0,4095.0,4095.0,1.02,8.96,4.77,-0.09,0.04,-0.01,1.0,c
3546.0,893.0,3358.0,4095.0,4095.0,3617.0,4095.0,4095.0,1.15,8.92,4.87,-0.08,-0.01,-0.05,1.0,c
3538.0,895.0,3345.0,4095.0,4095.0,3599.0,4095.0,4095.0,1.21,8.96,4.76,-0.05,-0.01,-0.08,1.0,c
3550.0,898.0,3357.0,4095.0,4095.0,3622.0,4095.0,4095.0,1.13,8.97,4.79,-0.09,0.05,-0.11,1.0,c
3528.0,897.0,3362.0,4095.0,4095.0,3621.0,4095.0,4095.0,0.78,8.93,4.85,-0.12,0.07,-0.09,1.0,c
3546.0,882.0,3345.0,4095.0,4095.0,3603.0,4095.0,4095.0,0.74,8.85,5.01,-0.1,0.02,-0.08,1.0,c
3533.0,904.0,3345.0,4095.0,4095.0,3618.0,4095.0,4095.0,0.78,8.84,5.03,-0.08,-0.0,-0.05,1.0,c
3527.0,891.0,3356.0,4095.0,4095.0,3604.0,4095.0,4095.0,0.8,8.83,5.06,-0.08,0.01,-0.05,1.0,c
3536.0,905.0,3361.0,4095.0,4095.0,3606.0,4095.0,4095.0,0.74,8.87,5.01,-0.07,0.04,-0.06,1.0,c
3539.0,893.0,3345.0,4095.0,4095.0,3602.0,4095.0,4095.0,0.75,8.88,4.96,-0.07,0.01,-0.07,1.0,c
3542.0,905.0,3368.0,4095.0,4095.0,3630.0,4095.0,4095.0,0.64,8.81,5.15,-0.1,0.0,-0.06,1.0,c
3546.0,891.0,3353.0,4095.0,4095.0,3615.0,4095.0,4095.0,0.71,8.76,5.16,-0.07,0.0,-0.02,1.0,c
3546.0,905.0,3355.0,4095.0,4095.0,3601.0,4095.0,4095.0,0.72,8.84,5.07,-0.06,0.03,-0.05,1.0,c
3534.0,899.0,3355.0,4095.0,4095.0,3613.0,4095.0,4095.0,0.51,8.79,5.08,-0.12,-0.0,-0.05,1.0,c
3541.0,895.0,3358.0,4095.0,4095.0,3628.0,4095.0,4095.0,0.53,8.72,5.26,-0.14,0.01,0.0,1.0,c
3541.0,902.0,3352.0,4095.0,4095.0,3601.0,4095.0,4095.0,0.7,8.64,5.43,-0.09,-0.02,-0.01,1.0,c
3551.0,902.0,3361.0,4095.0,4095.0,3623.0,4095.0,4095.0,0.88,8.68,5.4,-0.09,-0.0,-0.01,1.0,c
3521.0,894.0,3360.0,4095.0,4095.0,3615.0,4095.0,4095.0,0.79,8.72,5.25,-0.07,0.02,-0.05,1.0,c
3527.0,891.0,3355.0,4095.0,4095.0,3622.0,4095.0,4095.0,0.56,8.7,5.33,-0.09,0.0,-0.07,1.0,c
3530.0,893.0,3344.0,4095.0,4095.0,3621.0,4095.0,4095.0,0.63,8.65,5.41,-0.1,0.03,-0.03,1.0,c
3557.0,897.0,3366.0,4095.0,4095.0,3618.0,4095.0,4095.0,0.63,8.6,5.49,-0.12,0.01,-0.04,1.0,c
3547.0,891.0,3349.0,4095.0,4095.0,3583.0,4095.0,4095.0,0.31,8.65,5.41,-0.11,0.09,0.05,1.0,c
3533.0,897.0,3361.0,4095.0,4095.0,3623.0,4095.0,4095.0,0.71,8.53,5.58,-0.16,-0.01,0.04,1.0,c
3523.0,896.0,3358.0,4095.0,4095.0,3612.0,4095.0,4095.0,0.9,8.43,5.75,-0.14,-0.03,-0.01,1.0,c
3530.0,895.0,3363.0,4095.0,4095.0,3605.0,4095.0,4095.0,0.73,8.45,5.69,-0.12,0.04,0.02,1.0,c
3533.0,899.0,3365.0,4095.0,4095.0,3628.0,4095.0,4095.0,0.63,8.51,5.58,-0.15,0.09,0.07,1.0,c
3536.0,896.0,3360.0,4095.0,4095.0,3606.0,4095.0,4095.0,0.82,8.33,5.9,-0.14,0.04,0.06,1.0,c
3554.0,898.0,3347.0,4095.0,4095.0,3625.0,4095.0,4095.0,1.04,8.32,5.94,-0.12,0.01,0.02,1.0,c
3535.0,895.0,3340.0,4095.0,4095.0,3605.0,4095.0,4095.0,0.86,8.17,6.11,-0.03,0.04,0.02,1.0,c
3536.0,889.0,3359.0,4095.0,4095.0,3623.0,4095.0,4095.0,0.85,8.27,5.85,-0.01,-0.01,0.07,1.0,c
3557.0,899.0,3358.0,4095.0,4095.0,3599.0,4095.0,4095.0,1.13,8.36,6.09,-0.34,0.33,0.39,1.0,c
3539.0,896.0,3346.0,4095.0,4095.0,3616.0,4095.0,4095.0,1.32,8.13,6.02,-0.03,0.02,0.0,1.0,c
3553.0,905.0,3357.0,4095.0,4095.0,3611.0,4095.0,4095.0,1.49,8.04,6.26,-0.07,0.0,0.01,1.0,c
3527.0,894.0,3359.0,4095.0,4095.0,3613.0,4095.0,4095.0,1.34,8.09,6.11,-0.03,0.01,-0.04,1.0,c
3549.0,896.0,3356.0,4095.0,4095.0,3625.0,4095.0,4095.0,1.16,8.13,6.11,-0.02,-0.02,-0.06,1.0,c
3536.0,897.0,3344.0,4095.0,4095.0,3617.0,4095.0,4095.0,1.36,8.12,6.12,-0.08,-0.06,-0.04,1.0,c
3549.0,897.0,3365.0,4095.0,4095.0,3613.0,4095.0,4095.0,2.03,8.45,5.53,-0.16,-0.22,-0.23,1.0,c
3542.0,902.0,3356.0,4095.0,4095.0,3623.0,4095.0,4095.0,1.46,8.11,6.0,-0.33,-0.19,-0.37,1.0,c
3532.0,893.0,3349.0,4095.0,4095.0,3617.0,4095.0,4095.0,0.76,7.55,6.89,-0.3,0.02,-0.2,1.0,c
3559.0,901.0,3351.0,4095.0,4095.0,3627.0,4095.0,4095.0,0.26,7.45,7.12,-0.05,0.1,-0.01,1.0,c
3552.0,890.0,3354.0,4095.0,4095.0,3615.0,4095.0,4095.0,0.79,7.71,6.68,0.04,0.01,0.15,1.0,c
3545.0,899.0,3359.0,4095.0,4095.0,3625.0,4095.0,4095.0,1.09,7.91,6.29,0.03,0.08,0.27,1.0,c
3536.0,893.0,3349.0,4095.0,4095.0,3605.0,4095.0,4095.0,1.7,8.09,6.1,0.04,-0.04,0.2,1.0,c
3539.0,898.0,3362.0,4095.0,4095.0,3630.0,4095.0,4095.0,2.04,7.96,6.24,-0.01,-0.07,0.07,1.0,c
3543.0,899.0,3349.0,4095.0,4095.0,3617.0,4095.0,4095.0,1.75,7.87,6.46,-0.03,0.12,0.07,1.0,c
3553.0,898.0,3359.0,4095.0,4095.0,3622.0,4095.0,4095.0,1.24,7.75,6.5,-0.02,-0.02,0.06,1.0,c
3548.0,898.0,3355.0,4095.0,4095.0,3635.0,4095.0,4095.0,1.61,7.97,6.22,0.05,-0.12,0.09,1.0,c
3553.0,897.0,3365.0,4095.0,4095.0,3631.0,4095.0,4095.0,2.15,8.01,6.07,0.02,-0.05,0.17,1.0,c
3535.0,900.0,3354.0,4095.0,4095.0,3618.0,4095.0,4095.0,2.47,8.04,5.94,0.02,-0.05,0.11,1.0,c
3549.0,894.0,3346.0,4095.0,4095.0,3607.0,4095.0,4095.0,2.6,8.14,5.79,0.02,-0.03,0.05,1.0,c
3554.0,901.0,3360.0,4095.0,4095.0,3635.0,4095.0,4095.0,2.62,8.15,5.77,-0.03,0.02,0.01,1.0,c
3551.0,898.0,3348.0,4095.0,4095.0,3632.0,4095.0,4095.0,-0.18,7.26,7.22,-0.01,-0.02,-0.04,1.0,c
3548.0,902.0,3355.0,4095.0,4095.0,3619.0,4095.0,4095.0,-0.15,7.37,7.12,0.01,-0.04,-0.01,1.0,c
3563.0,894.0,3356.0,4095.0,4095.0,3630.0,4095.0,4095.0,-0.31,7.54,6.86,0.06,-0.06,0.07,1.0,c
3543.0,890.0,3351.0,4095.0,4095.0,3623.0,4095.0,4095.0,0.16,7.75,6.59,0.01,-0.09,0.11,1.0,c
3566.0,903.0,3354.0,4095.0,4095.0,3641.0,4095.0,4095.0,0.42,7.63,6.76,-0.08,-0.07,0.12,1.0,c
3540.0,896.0,3358.0,4095.0,4095.0,3633.0,4095.0,4095.0,0.42,7.47,6.93,-0.08,-0.06,0.05,1.0,c
3536.0,896.0,3351.0,4012.0,4095.0,3629.0,4095.0,4095.0,0.65,7.53,6.96,-0.05,-0.04,0.03,1.0,c
3569.0,900.0,3369.0,3886.0,4095.0,3629.0,4095.0,4095.0,0.82,7.58,6.87,0.02,-0.04,-0.02,1.0,c
3554.0,902.0,3353.0,3723.0,4095.0,3622.0,4095.0,4095.0,0.76,7.82,6.49,-0.04,0.04,-0.02,1.0,c
3564.0,903.0,3372.0,3699.0,4095.0,3628.0,4095.0,4095.0,0.65,7.72,6.56,-0.1,0.03,-0.04,1.0,c
3554.0,898.0,3358.0,3643.0,4095.0,3625.0,4095.0,4095.0,0.63,7.65,6.77,-0.1,0.03,-0.02,1.0,c
3568.0,899.0,3365.0,3488.0,4095.0,3636.0,4095.0,4095.0,0.61,7.51,7.01,-0.1,-0.02,-0.07,1.0,c
3561.0,903.0,3355.0,3515.0,4095.0,3605.0,4095.0,4095.0,0.72,7.6,6.87,-0.01,-0.02,-0.02,1.0,c
3551.0,899.0,3358.0,3527.0,4095.0,3627.0,4095.0,4095.0,0.7,7.71,6.68,-0.04,-0.01,-0.05,1.0,c
3566.0,899.0,3356.0,3555.0,4095.0,3626.0,4095.0,4095.0,0.64,7.66,6.79,-0.02,0.02,-0.05,1.0,c
3566.0,903.0,3360.0,3629.0,4095.0,3646.0,4095.0,4095.0,0.57,7.68,6.7,-0.06,-0.03,-0.06,1.0,c
3562.0,895.0,3362.0,3628.0,4095.0,3622.0,4095.0,4095.0,0.59,7.68,6.68,-0.05,-0.01,-0.05,1.0,c
3545.0,895.0,3344.0,3648.0,4095.0,3619.0,4095.0,4095.0,0.68,7.63,6.8,-0.07,-0.01,-0.03,1.0,c
3564.0,895.0,3363.0,3639.0,4095.0,3629.0,4095.0,4095.0,0.64,7.68,6.72,-0.08,-0.04,-0.04,1.0,c
3556.0,895.0,3347.0,3639.0,4095.0,3620.0,4095.0,4095.0,0.67,7.68,6.8,-0.03,0.0,-0.05,1.0,c
3546.0,896.0,3351.0,3677.0,4095.0,3614.0,4095.0,4095.0,0.57,7.68,6.77,-0.05,0.01,-0.08,1.0,c
3563.0,893.0,3360.0,3687.0,4095.0,3630.0,4095.0,4095.0,1.19,7.49,7.02,-0.04,0.06,-0.21,1.0,c
3554.0,899.0,3354.0,3683.0,4095.0,3612.0,4095.0,4095.0,0.14,7.75,6.56,-0.02,0.18,-0.26,1.0,c
3568.0,897.0,3359.0,3696.0,4095.0,3628.0,4095.0,4095.0,-0.13,7.69,6.77,-0.09,0.01,-0.28,1.0,c
3573.0,896.0,3356.0,3691.0,4095.0,3621.0,4095.0,4095.0,-0.29,7.69,6.7,-0.07,0.09,-0.22,1.0,c
3553.0,898.0,3353.0,3683.0,4095.0,3630.0,4095.0,4095.0,-0.45,7.63,6.73,-0.03,0.02,-0.25,1.0,c
3548.0,891.0,3361.0,3696.0,4095.0,3630.0,4095.0,4095.0,-0.81,7.73,6.52,-0.03,0.05,-0.21,1.0,c
3556.0,896.0,3345.0,3677.0,4095.0,3617.0,4095.0,4095.0,-0.93,7.63,6.76,-0.05,-0.05,-0.16,1.0,c
3569.0,903.0,3369.0,3703.0,4095.0,3625.0,4095.0,4095.0,-0.96,7.62,6.76,-0.01,0.0,-0.12,1.0,c
3558.0,896.0,3347.0,3685.0,4095.0,3618.0,4095.0,4095.0,-1.06,7.55,6.88,0.07,-0.04,-0.09,1.0,c
3556.0,901.0,3355.0,3694.0,4095.0,3644.0,4095.0,4095.0,-0.91,7.78,6.53,0.18,-0.09,-0.05,1.0,c
3557.0,895.0,3344.0,3678.0,4095.0,3616.0,4095.0,4095.0,-1.02,8.08,6.1,0.12,-0.15,-0.0,1.0,c
3566.0,897.0,3350.0,3699.0,4095.0,3639.0,4095.0,4095.0,-0.73,8.16,5.96,0.06,-0.08,0.07,1.0,c
3551.0,903.0,3356.0,3701.0,4095.0,3618.0,4095.0,4095.0,-0.41,8.14,6.02,0.04,-0.06,0.09,1.0,c
3568.0,897.0,3351.0,3670.0,4095.0,3637.0,4095.0,4095.0,-0.27,8.18,6.05,0.02,-0.08,0.05,1.0,c
3579.0,909.0,3361.0,3698.0,4095.0,3639.0,4095.0,4095.0,-0.25,8.22,5.96,-0.03,0.04,0.1,1.0,c
3556.0,896.0,3344.0,3683.0,4095.0,3623.0,4095.0,4095.0,-0.12,8.25,5.94,-0.02,-0.04,0.05,1.0,c
3568.0,905.0,3359.0,3696.0,4095.0,3632.0,4095.0,4095.0,-0.08,8.3,5.91,-0.05,0.01,0.12,1.0,c
3548.0,899.0,3348.0,3684.0,4095.0,3637.0,4095.0,4095.0,0.25,8.32,5.85,-0.08,-0.04,0.12,1.0,c
3577.0,901.0,3363.0,3681.0,4095.0,3634.0,4095.0,4095.0,0.38,8.31,5.9,-0.07,-0.06,0.0,1.0,c
3663.0,3397.0,3166.0,4095.0,4095.0,3514.0,4095.0,3474.0,1.22,7.39,7.02,0.0,0.16,0.15,1.0,c
3667.0,3405.0,3181.0,4095.0,4095.0,3515.0,4095.0,3479.0,1.29,7.33,7.09,-0.03,0.05,0.09,1.0,c
3644.0,3395.0,3171.0,4095.0,4095.0,3520.0,4095.0,3472.0,1.15,7.2,7.19,-0.09,0.07,0.03,1.0,c
3657.0,3403.0,3184.0,4095.0,4095.0,3525.0,4095.0,3403.0,1.56,7.19,7.24,-0.1,0.06,-0.1,1.0,c
3647.0,3394.0,3167.0,4095.0,4095.0,3519.0,4095.0,3461.0,0.98,7.16,7.32,-0.05,0.09,-0.16,1.0,c
3666.0,3408.0,3171.0,4095.0,4095.0,3545.0,4095.0,3477.0,1.07,7.34,7.13,-0.02,-0.04,-0.11,1.0,c
3648.0,3396.0,3171.0,4095.0,4095.0,3526.0,4095.0,3488.0,1.29,7.41,6.97,-0.12,-0.05,-0.15,1.0,c
3654.0,3399.0,3173.0,4095.0,4095.0,3564.0,4095.0,3502.0,0.62,7.16,7.35,-0.07,0.04,-0.23,1.0,c
3661.0,3398.0,3162.0,4095.0,4095.0,3527.0,4095.0,3513.0,0.01,7.08,7.28,-0.12,0.03,-0.17,1.0,c
3677.0,3408.0,3175.0,4095.0,4095.0,3551.0,4095.0,3506.0,0.45,7.06,7.3,-0.14,-0.05,-0.0,1.0,c
3642.0,3390.0,3177.0,4095.0,4095.0,3540.0,4095.0,3536.0,0.92,6.97,7.54,-0.07,-0.09,-0.13,1.0,c
3666.0,3415.0,3173.0,4095.0,4095.0,3547.0,4095.0,3599.0,1.01,7.26,7.19,0.01,0.04,-0.06,1.0,c
3662.0,3395.0,3167.0,4095.0,4095.0,3546.0,4095.0,3583.0,0.63,7.11,7.35,-0.08,0.05,-0.12,1.0,c
3648.0,3408.0,3167.0,4095.0,4095.0,3550.0,4095.0,3505.0,0.31,7.04,7.34,-0.07,0.05,-0.12,1.0,c
3653.0,3408.0,3183.0,4095.0,4095.0,3551.0,4095.0,3558.0,0.25,7.03,7.5,-0.14,0.04,-0.03,1.0,c
3655.0,3392.0,3155.0,4095.0,4095.0,3552.0,4095.0,3557.0,0.5,6.97,7.55,-0.1,-0.02,-0.07,1.0,c
3667.0,3403.0,3171.0,4095.0,4095.0,3565.0,4095.0,3572.0,0.7,7.09,7.43,-0.04,-0.15,-0.16,1.0,c
3649.0,3401.0,3169.0,4095.0,4095.0,3545.0,4095.0,3577.0,0.48,7.14,7.35,-0.08,-0.09,-0.11,1.0,c
3652.0,3392.0,3180.0,4095.0,4095.0,3562.0,4095.0,3631.0,0.53,7.0,7.46,-0.04,0.0,-0.03,1.0,c
3639.0,3397.0,3153.0,4095.0,4095.0,3558.0,4095.0,3681.0,0.22,6.92,7.52,-0.12,-0.06,-0.1,1.0,c
3664.0,3410.0,3175.0,4095.0,4095.0,3576.0,4095.0,3759.0,1.35,7.05,7.35,0.0,0.01,0.09,1.0,c
3648.0,3397.0,3163.0,4095.0,4095.0,3558.0,4095.0,3778.0,1.34,7.11,7.31,-0.03,0.01,0.01,1.0,c
3646.0,3401.0,3169.0,4095.0,4095.0,3568.0,4095.0,3798.0,1.42,7.14,7.21,-0.02,-0.01,-0.0,1.0,c
3636.0,3390.0,3175.0,4095.0,4095.0,3567.0,4095.0,3805.0,1.49,7.19,7.19,-0.0,-0.01,0.03,1.0,c
3663.0,3399.0,3179.0,4095.0,4095.0,3581.0,4095.0,3841.0,1.56,7.21,7.18,-0.04,0.04,-0.01,1.0,c
3647.0,3394.0,3161.0,4095.0,4095.0,3567.0,4095.0,3811.0,1.31,7.11,7.32,-0.05,0.06,-0.1,1.0,c
3640.0,3408.0,3178.0,4095.0,4095.0,3572.0,4095.0,3723.0,0.83,7.13,7.34,0.0,-0.02,-0.14,1.0,c
3638.0,3407.0,3171.0,4095.0,4095.0,3563.0,4095.0,3639.0,0.93,7.33,7.13,0.0,-0.01,-0.05,1.0,c
3667.0,3403.0,3178.0,4095.0,4095.0,3582.0,4095.0,3739.0,1.34,7.37,7.01,-0.02,-0.06,-0.04,1.0,c
3647.0,3398.0,3167.0,4095.0,4095.0,3559.0,4095.0,3721.0,1.62,7.41,6.99,0.0,-0.01,-0.04,1.0,c
3670.0,3414.0,3175.0,4095.0,4095.0,3583.0,4095.0,3780.0,1.31,7.49,6.89,-0.03,0.03,-0.09,1.0,c
3632.0,3385.0,3180.0,4095.0,4095.0,3581.0,4095.0,3762.0,0.82,7.4,7.06,-0.12,0.11,-0.06,1.0,c
3641.0,3392.0,3174.0,4095.0,4095.0,3570.0,4095.0,3728.0,0.72,7.25,7.28,-0.05,0.0,-0.03,1.0,c
3659.0,3403.0,3170.0,4095.0,4095.0,3582.0,4095.0,3750.0,1.22,7.45,6.96,-0.01,0.01,-0.03,1.0,c
3651.0,3392.0,3173.0,4095.0,4095.0,3579.0,4095.0,3710.0,1.26,7.58,6.78,-0.02,-0.06,-0.11,1.0,c
3634.0,3405.0,3169.0,4095.0,4095.0,3579.0,4095.0,3748.0,1.13,7.59,6.79,-0.05,-0.01,-0.08,1.0,c
3642.0,3386.0,3157.0,4095.0,4095.0,3579.0,4095.0,3766.0,0.98,7.37,7.09,-0.04,-0.0,-0.08,1.0,c
3641.0,3391.0,3171.0,4095.0,4095.0,3583.0,4095.0,3733.0,0.62,7.35,7.04,-0.07,0.04,-0.07,1.0,c
3649.0,3403.0,3163.0,4095.0,4095.0,3564.0,4095.0,3773.0,0.44,7.38,7.06,-0.03,0.06,0.01,1.0,c
3638.0,3414.0,3179.0,4095.0,4095.0,3598.0,4095.0,3790.0,0.87,7.36,7.18,-0.03,-0.05,0.04,1.0,c
3637.0,3402.0,3175.0,4095.0,4095.0,3578.0,4095.0,3792.0,1.19,7.37,7.17,-0.05,0.03,-0.12,1.0,c
3652.0,3396.0,3170.0,4095.0,4095.0,3572.0,4095.0,3741.0,0.85,7.55,6.84,-0.07,0.06,-0.17,1.0,c
3650.0,3402.0,3174.0,4095.0,4095.0,3583.0,4095.0,3789.0,0.71,7.63,6.77,-0.11,0.07,-0.18,1.0,c
3637.0,3399.0,3158.0,4095.0,4095.0,3582.0,4095.0,3775.0,0.84,7.52,6.91,-0.13,0.08,-0.2,1.0,c
3654.0,3408.0,3173.0,4095.0,4095.0,3583.0,4095.0,3833.0,0.37,7.38,7.04,-0.12,0.11,-0.2,1.0,c
3648.0,3392.0,3168.0,4095.0,4095.0,3567.0,4095.0,3824.0,0.07,7.49,6.94,-0.13,0.11,-0.13,1.0,c
3649.0,3395.0,3179.0,4095.0,4095.0,3602.0,4095.0,3840.0,-0.06,7.35,7.08,-0.13,0.1,-0.06,1.0,c
3649.0,3391.0,3164.0,4095.0,4095.0,3568.0,4095.0,3840.0,-0.21,7.21,7.19,-0.1,0.03,-0.07,1.0,c
3663.0,3408.0,3173.0,4095.0,4095.0,3605.0,4095.0,3856.0,0.06,7.2,7.29,-0.14,0.0,-0.07,1.0,c
3648.0,3393.0,3163.0,4095.0,4095.0,3583.0,4095.0,3785.0,-0.0,7.12,7.43,-0.13,0.0,-0.07,1.0,c
3670.0,3408.0,3164.0,4095.0,4095.0,3583.0,4095.0,3845.0,-0.1,7.16,7.26,-0.12,-0.04,-0.05,1.0,c
3643.0,3397.0,3161.0,4095.0,4095.0,3569.0,4095.0,3836.0,-0.03,7.18,7.24,-0.13,-0.02,0.0,1.0,c
3664.0,3407.0,3182.0,4095.0,4095.0,3572.0,4095.0,3806.0,0.11,6.92,7.55,-0.15,0.02,0.03,1.0,c
3661.0,3407.0,3181.0,4095.0,4095.0,3600.0,4095.0,3871.0,0.05,6.9,7.63,-0.13,0.01,-0.01,1.0,c
3651.0,3393.0,3163.0,4095.0,4095.0,3581.0,4095.0,3882.0,0.09,6.88,7.72,-0.07,-0.01,-0.01,1.0,c
3656.0,3408.0,3173.0,4095.0,4095.0,3583.0,4095.0,3894.0,0.09,6.97,7.45,-0.09,-0.01,-0.02,1.0,c
3646.0,3401.0,3165.0,4095.0,4095.0,3582.0,4095.0,3920.0,-0.01,6.95,7.46,-0.07,0.02,0.01,1.0,c
3679.0,3414.0,3181.0,4095.0,4095.0,3609.0,4095.0,3942.0,0.07,6.94,7.54,-0.06,-0.04,-0.0,1.0,c
3653.0,3407.0,3176.0,4095.0,4095.0,3574.0,4095.0,3888.0,0.17,6.89,7.57,-0.05,-0.03,0.02,1.0,c
3648.0,3405.0,3173.0,4095.0,4095.0,3583.0,4095.0,3903.0,0.23,6.94,7.54,-0.05,-0.03,0.05,1.0,c
3648.0,3399.0,3163.0,4095.0,4095.0,3583.0,4095.0,3839.0,0.5,6.96,7.54,-0.03,0.02,0.05,1.0,c
3664.0,3411.0,3187.0,4095.0,4095.0,3601.0,4095.0,3817.0,0.57,6.99,7.48,-0.01,-0.07,0.01,1.0,c
3659.0,3407.0,3173.0,4095.0,4095.0,3583.0,4095.0,3819.0,0.68,7.01,7.48,0.0,-0.04,0.02,1.0,c
3648.0,3408.0,3166.0,4095.0,4095.0,3581.0,4095.0,3808.0,0.69,6.99,7.42,-0.0,-0.03,0.03,1.0,c
3655.0,3405.0,3172.0,4095.0,4095.0,3583.0,4095.0,3845.0,0.77,7.11,7.31,-0.01,-0.04,0.03,1.0,c
3642.0,3407.0,3161.0,4095.0,4095.0,3596.0,4095.0,3856.0,0.87,7.04,7.44,-0.0,-0.08,-0.02,1.0,c
3646.0,3425.0,3174.0,4095.0,4095.0,3583.0,4095.0,3847.0,0.9,7.2,7.24,0.03,-0.06,-0.02,1.0,c
3645.0,3405.0,3164.0,4095.0,4095.0,3583.0,4095.0,3845.0,0.95,7.26,7.18,0.01,-0.05,-0.0,1.0,c
3664.0,3411.0,3180.0,4095.0,4095.0,3569.0,4095.0,3799.0,1.01,7.27,7.13,0.01,-0.07,-0.02,1.0,c
3645.0,3396.0,3161.0,4095.0,4095.0,3583.0,4095.0,3783.0,1.18,7.35,7.09,0.01,-0.05,-0.05,1.0,c
3664.0,3408.0,3171.0,4095.0,4095.0,3597.0,4095.0,3833.0,1.09,7.43,7.0,0.0,-0.04,-0.07,1.0,c
3643.0,3399.0,3173.0,4095.0,4095.0,3583.0,4095.0,3830.0,1.02,7.43,7.01,-0.02,-0.03,-0.06,1.0,c
3664.0,3407.0,3172.0,4095.0,4095.0,3583.0,4095.0,3791.0,1.05,7.44,7.02,-0.02,0.0,-0.02,1.0,c
3658.0,3392.0,3163.0,4095.0,4095.0,3599.0,4095.0,3681.0,1.08,7.44,6.98,-0.01,-0.0,-0.01,1.0,c
3651.0,3397.0,3175.0,4095.0,4095.0,3603.0,4095.0,3731.0,1.3,7.44,7.05,-0.0,-0.01,-0.01,1.0,c
3649.0,3405.0,3184.0,4095.0,4095.0,3600.0,4095.0,3792.0,1.09,7.52,6.9,-0.01,0.06,-0.0,1.0,c
3635.0,3395.0,3165.0,4095.0,4095.0,3598.0,4095.0,3799.0,1.08,7.57,6.87,-0.0,0.01,-0.01,1.0,c
3647.0,3407.0,3178.0,4095.0,4095.0,3610.0,4095.0,3806.0,1.11,7.61,6.76,-0.02,-0.03,-0.03,1.0,c
3654.0,3411.0,3163.0,4095.0,4095.0,3599.0,4095.0,3824.0,1.12,7.61,6.79,-0.01,-0.03,-0.05,1.0,c
3652.0,3403.0,3168.0,4095.0,4095.0,3606.0,4095.0,3797.0,1.17,7.59,6.79,0.01,-0.05,-0.07,1.0,c
3631.0,3403.0,3171.0,4095.0,4095.0,3603.0,4095.0,3830.0,1.25,7.93,6.37,0.0,0.04,0.03,1.0,c
3658.0,3423.0,3170.0,4095.0,4095.0,3607.0,4095.0,3829.0,1.34,7.92,6.42,-0.02,-0.01,-0.01,1.0,c
3641.0,3397.0,3158.0,4095.0,4095.0,3583.0,4095.0,3807.0,1.37,7.89,6.41,-0.01,0.02,-0.0,1.0,c
3655.0,3401.0,3175.0,4095.0,4095.0,3615.0,4095.0,3870.0,1.3,7.98,6.28,0.04,0.06,-0.03,1.0,c
3647.0,3395.0,3167.0,4095.0,4095.0,3600.0,4095.0,3856.0,1.37,8.01,6.26,0.01,0.07,-0.05,1.0,c
3663.0,3408.0,3173.0,4095.0,4095.0,3601.0,4095.0,3863.0,1.24,8.05,6.25,-0.0,0.01,-0.1,1.0,c
3644.0,3392.0,3163.0,4095.0,4095.0,3597.0,4095.0,3824.0,1.21,8.18,6.05,-0.02,0.03,-0.1,1.0,c
3651.0,3410.0,3174.0,4095.0,4095.0,3615.0,4095.0,3799.0,1.02,8.12,5.99,-0.06,0.05,-0.11,1.0,c
3641.0,3393.0,3162.0,4095.0,4095.0,3583.0,4095.0,3856.0,1.0,8.18,6.13,-0.06,0.03,-0.08,1.0,c
3647.0,3410.0,3184.0,4095.0,4095.0,3620.0,4095.0,3857.0,1.03,8.1,6.16,-0.06,0.02,-0.11,1.0,c
3655.0,3406.0,3175.0,4095.0,4095.0,3607.0,4095.0,3915.0,0.75,8.12,6.16,-0.07,0.0,-0.12,1.0,c
3638.0,3390.0,3155.0,4095.0,4095.0,3603.0,4095.0,3887.0,0.82,8.12,6.18,-0.06,0.02,-0.09,1.0,c
3660.0,3408.0,3175.0,4095.0,4095.0,3613.0,4095.0,3898.0,0.84,8.18,6.08,-0.09,-0.01,-0.1,1.0,c
3643.0,3383.0,3168.0,4095.0,4095.0,3605.0,4095.0,3871.0,0.67,8.09,6.25,-0.12,0.05,-0.11,1.0,c
3666.0,3410.0,3166.0,4095.0,4095.0,3600.0,4095.0,3861.0,0.54,8.01,6.39,-0.1,0.01,-0.12,1.0,c
3632.0,3405.0,3171.0,4095.0,4095.0,3604.0,4095.0,3856.0,0.38,8.03,6.32,-0.09,0.0,-0.08,1.0,c
3650.0,3399.0,3161.0,4095.0,4095.0,3602.0,4095.0,3861.0,0.49,8.02,6.37,-0.11,0.03,-0.03,1.0,c
3635.0,3389.0,3159.0,4095.0,4095.0,3623.0,4095.0,3866.0,0.5,7.99,6.34,-0.11,-0.01,-0.06,1.0,c
3650.0,3402.0,3179.0,4095.0,4095.0,3604.0,4095.0,3886.0,0.46,8.02,6.34,-0.11,0.03,-0.04,1.0,c
3641.0,3393.0,3169.0,4095.0,4095.0,3606.0,4095.0,3874.0,0.42,7.95,6.41,-0.15,0.05,0.0,1.0,c
3642.0,3393.0,3159.0,4095.0,4095.0,3601.0,4095.0,3803.0,0.54,7.86,6.59,-0.12,0.0,-0.01,1.0,c
3664.0,3410.0,3178.0,4095.0,4095.0,3609.0,4095.0,3771.0,0.43,7.75,6.61,-0.12,0.05,0.01,1.0,c
3632.0,3405.0,3173.0,4095.0,4095.0,3614.0,4095.0,3760.0,0.48,7.76,6.63,-0.17,0.02,0.03,1.0,c
3648.0,3408.0,3173.0,4095.0,4095.0,3615.0,4095.0,3731.0,0.47,7.6,6.82,-0.19,-0.02,0.01,1.0,c
3646.0,3406.0,3174.0,4095.0,4095.0,3605.0,4095.0,3726.0,0.47,7.46,6.96,-0.17,0.07,0.05,1.0,c
3651.0,3407.0,3175.0,4095.0,4095.0,3621.0,4095.0,3758.0,0.47,7.44,7.05,-0.15,0.03,0.04,1.0,c
3642.0,3392.0,3166.0,4095.0,4095.0,3600.0,4095.0,3824.0,0.55,7.4,7.0,-0.07,0.0,0.04,1.0,c
3655.0,3395.0,3170.0,4095.0,4095.0,3625.0,4095.0,3901.0,0.77,7.42,6.99,-0.05,-0.05,0.03,1.0,c
3632.0,3391.0,3153.0,4095.0,4095.0,3613.0,4095.0,3886.0,0.73,7.47,6.94,-0.08,-0.04,0.03,1.0,c
3648.0,3407.0,3159.0,4095.0,4095.0,3600.0,4095.0,3853.0,0.84,7.42,7.01,-0.07,-0.01,0.06,1.0,c
3661.0,3408.0,3175.0,4095.0,4095.0,3619.0,4095.0,3861.0,0.89,7.38,7.07,-0.06,-0.06,0.03,1.0,c
3635.0,3395.0,3163.0,4095.0,4095.0,3613.0,4095.0,3963.0,1.17,7.42,7.0,0.0,-0.05,0.01,1.0,c
3654.0,3419.0,3158.0,4095.0,4095.0,3615.0,4095.0,4003.0,1.08,7.46,6.98,-0.04,-0.02,0.06,1.0,c
3635.0,3392.0,3164.0,4095.0,4095.0,3619.0,4095.0,3991.0,1.24,7.49,6.93,-0.05,-0.01,0.04,1.0,c
3658.0,3407.0,3181.0,4095.0,4095.0,3621.0,4095.0,4037.0,1.35,7.47,6.9,-0.04,-0.01,0.01,1.0,c
3641.0,3401.0,3162.0,4095.0,4095.0,3606.0,4095.0,4019.0,1.29,7.46,6.94,-0.05,-0.03,-0.03,1.0,c
3652.0,3411.0,3178.0,4095.0,4095.0,3616.0,4095.0,4016.0,1.2,7.49,6.89,-0.03,-0.0,-0.03,1.0,c
3659.0,3401.0,3163.0,4095.0,4095.0,3609.0,4095.0,4003.0,1.19,7.47,6.96,-0.05,-0.03,-0.02,1.0,c
3648.0,3419.0,3165.0,4095.0,4095.0,3626.0,4095.0,4042.0,1.22,7.56,6.78,-0.02,-0.02,0.0,1.0,c
3643.0,3387.0,3161.0,4095.0,4095.0,3613.0,4095.0,4039.0,1.29,7.58,6.76,-0.09,-0.04,0.03,1.0,c
3649.0,3405.0,3174.0,4095.0,4095.0,3623.0,4095.0,4051.0,1.81,7.29,7.09,-0.17,-0.04,0.01,1.0,c
3645.0,3401.0,3165.0,4095.0,4095.0,3605.0,4095.0,4031.0,1.78,7.23,7.15,-0.18,-0.07,-0.08,1.0,c
3661.0,3405.0,3170.0,4095.0,4095.0,3612.0,4095.0,4048.0,1.71,7.08,7.29,-0.18,-0.01,-0.06,1.0,c
3649.0,3392.0,3162.0,4095.0,4095.0,3615.0,4095.0,4032.0,1.72,6.96,7.45,-0.15,-0.02,-0.08,1.0,c
3662.0,3417.0,3172.0,4095.0,4095.0,3623.0,4095.0,4058.0,1.74,6.96,7.42,-0.11,-0.07,-0.16,1.0,c
3632.0,3407.0,3153.0,4095.0,4095.0,3611.0,4095.0,4055.0,1.61,6.96,7.42,-0.1,0.08,-0.12,1.0,c
3632.0,3413.0,3171.0,4095.0,4095.0,3639.0,4095.0,4038.0,1.42,6.98,7.4,-0.09,0.05,-0.16,1.0,c
3633.0,3397.0,3167.0,4095.0,4095.0,3619.0,4095.0,4044.0,1.38,7.01,7.43,-0.11,0.1,-0.15,1.0,c
3655.0,3397.0,3163.0,4095.0,4095.0,3625.0,4095.0,4048.0,1.22,6.87,7.64,-0.11,0.06,-0.2,1.0,c
3648.0,3407.0,3171.0,4095.0,4095.0,3625.0,4095.0,4045.0,0.82,6.9,7.57,-0.06,0.06,-0.18,1.0,c
3645.0,3399.0,3155.0,4095.0,4095.0,3616.0,4095.0,4050.0,0.71,6.94,7.49,-0.05,0.02,-0.16,1.0,c
3635.0,3405.0,3175.0,4095.0,4095.0,3632.0,4095.0,4070.0,0.68,6.97,7.54,-0.05,-0.09,-0.18,1.0,c
3643.0,3405.0,3155.0,4095.0,4095.0,3616.0,4095.0,4069.0,0.57,7.02,7.4,-0.06,0.03,-0.09,1.0,c
3657.0,3408.0,3181.0,4095.0,4095.0,3619.0,4095.0,4095.0,0.7,6.98,7.44,-0.04,-0.0,-0.1,1.0,c
3649.0,3403.0,3169.0,4095.0,4095.0,3607.0,4095.0,4078.0,0.56,7.0,7.43,-0.08,-0.01,-0.1,1.0,c
3661.0,3408.0,3169.0,4095.0,4095.0,3601.0,4095.0,4095.0,0.51,6.97,7.52,-0.05,0.03,-0.09,1.0,c
3636.0,3393.0,3158.0,4095.0,4095.0,3619.0,4095.0,4095.0,0.47,6.98,7.48,-0.03,0.05,-0.08,1.0,c
3659.0,3409.0,3171.0,4095.0,4095.0,3632.0,4095.0,4095.0,0.33,7.04,7.42,-0.05,-0.01,-0.09,1.0,c
3627.0,3397.0,3154.0,4095.0,4095.0,3611.0,4095.0,4095.0,0.29,7.03,7.38,-0.06,-0.02,-0.07,1.0,c
3650.0,3408.0,3162.0,4095.0,4095.0,3615.0,4095.0,4095.0,0.31,6.96,7.55,-0.06,0.01,-0.05,1.0,c
3658.0,3407.0,3161.0,4095.0,4095.0,3620.0,4095.0,4095.0,0.3,7.08,7.37,-0.04,-0.01,-0.04,1.0,c
3632.0,3387.0,3157.0,4095.0,4095.0,3619.0,4095.0,4095.0,0.27,7.13,7.41,-0.05,0.01,-0.03,1.0,c
3643.0,3403.0,3176.0,4095.0,4095.0,3631.0,4095.0,4095.0,0.34,7.06,7.41,-0.06,0.02,-0.03,1.0,c
3651.0,3408.0,3155.0,4095.0,4095.0,3605.0,4095.0,4095.0,0.4,6.96,7.58,-0.02,-0.02,-0.05,1.0,c
3647.0,3408.0,3165.0,4095.0,4095.0,3631.0,4095.0,4095.0,0.21,6.99,7.44,0.05,0.05,-0.02,1.0,c
3631.0,3411.0,3161.0,4095.0,4095.0,3627.0,4095.0,4095.0,0.25,7.23,7.27,0.07,0.01,-0.01,1.0,c
3655.0,3419.0,3169.0,4095.0,4095.0,3634.0,4095.0,4095.0,0.43,7.27,7.19,0.06,-0.03,-0.02,1.0,c
3631.0,3395.0,3170.0,4095.0,4095.0,3627.0,4095.0,4095.0,0.42,7.37,7.11,0.04,0.04,-0.03,1.0,c
3650.0,3404.0,3163.0,4095.0,4095.0,3632.0,4095.0,4095.0,0.31,7.49,6.96,0.01,-0.03,-0.06,1.0,c
3650.0,3399.0,3163.0,4095.0,4095.0,3627.0,4095.0,4095.0,0.28,7.43,7.06,-0.0,-0.03,-0.05,1.0,c
3642.0,3409.0,3165.0,4095.0,4095.0,3617.0,4095.0,4095.0,0.28,7.47,7.04,0.01,-0.01,-0.01,1.0,c
3642.0,3411.0,3170.0,4095.0,4095.0,3623.0,4095.0,4095.0,0.38,7.54,6.93,0.05,-0.09,-0.04,1.0,c
3643.0,3407.0,3165.0,4095.0,4095.0,3616.0,4095.0,4095.0,0.41,7.68,6.72,0.03,-0.01,0.02,1.0,c
3659.0,3411.0,3177.0,4095.0,4095.0,3632.0,4095.0,4095.0,0.44,7.78,6.58,-0.02,-0.06,0.0,1.0,c
3645.0,3406.0,3166.0,4095.0,4095.0,3631.0,4095.0,4095.0,0.51,7.79,6.6,-0.03,-0.03,0.04,1.0,c
3645.0,3403.0,3159.0,4095.0,4095.0,3635.0,4095.0,4095.0,0.6,7.7,6.67,-0.02,-0.08,0.01,1.0,c
3647.0,3397.0,3165.0,4095.0,4095.0,3623.0,4095.0,4095.0,0.75,7.83,6.56,-0.02,-0.02,0.04,1.0,c
3644.0,3405.0,3167.0,4095.0,4095.0,3622.0,4095.0,4095.0,0.92,7.86,6.5,-0.05,-0.04,0.01,1.0,c
3641.0,3392.0,3165.0,4095.0,4095.0,3617.0,4095.0,4095.0,0.87,7.83,6.56,-0.07,-0.0,-0.03,1.0,c
3661.0,3413.0,3152.0,4095.0,4095.0,3641.0,4095.0,4095.0,0.7,7.79,6.6,-0.09,0.01,-0.01,1.0,c
3637.0,3405.0,3166.0,4095.0,4095.0,3630.0,4095.0,4095.0,1.59,7.68,6.23,0.05,-0.04,-0.05,1.0,c
3632.0,3407.0,3169.0,4095.0,4095.0,3627.0,4095.0,4094.0,1.37,7.85,6.44,-0.02,-0.03,0.01,1.0,c
3643.0,3431.0,3173.0,4095.0,4095.0,3653.0,4095.0,4095.0,1.55,7.89,6.4,-0.05,0.01,-0.02,1.0,c
3611.0,3399.0,3152.0,4095.0,4095.0,3653.0,4095.0,4095.0,1.37,7.91,6.35,-0.09,-0.01,-0.05,1.0,c
3631.0,3413.0,3171.0,4095.0,4095.0,3647.0,4095.0,4095.0,1.41,7.73,6.75,-0.0,0.03,-0.02,1.0,c
3614.0,3408.0,3161.0,4095.0,4095.0,3664.0,4095.0,4095.0,1.29,7.89,6.39,-0.04,-0.0,0.01,1.0,c
3632.0,3425.0,3179.0,4095.0,4095.0,3664.0,4095.0,4095.0,1.5,7.84,6.38,-0.08,-0.01,0.05,1.0,c
3606.0,3414.0,3161.0,4095.0,4095.0,3664.0,4095.0,4095.0,1.63,7.76,6.61,-0.08,-0.01,-0.01,1.0,c
3633.0,3423.0,3177.0,4095.0,4095.0,3668.0,4095.0,4095.0,1.49,7.82,6.44,-0.04,0.05,-0.01,1.0,c
3623.0,3403.0,3165.0,4095.0,4095.0,3661.0,4095.0,4095.0,1.52,7.86,6.45,-0.09,0.03,-0.01,1.0,c
3627.0,3415.0,3158.0,4095.0,4095.0,3685.0,4095.0,4095.0,1.55,7.81,6.51,-0.1,0.05,-0.04,1.0,c
3632.0,3408.0,3172.0,4095.0,4095.0,3679.0,4095.0,4095.0,1.28,7.65,6.71,-0.06,0.01,-0.08,1.0,c
3626.0,3415.0,3167.0,4095.0,4095.0,3653.0,4095.0,4095.0,1.35,7.77,6.55,-0.02,0.0,-0.02,1.0,c
3644.0,3423.0,3171.0,4095.0,4095.0,3674.0,4095.0,4095.0,1.57,7.86,6.4,-0.02,-0.01,-0.0,1.0,c
3631.0,3413.0,3166.0,4095.0,4095.0,3654.0,4095.0,4095.0,1.8,7.97,6.38,-0.08,-0.02,0.02,1.0,c
3636.0,3419.0,3164.0,4095.0,4095.0,3675.0,4095.0,4095.0,1.69,7.8,6.51,-0.14,0.05,-0.01,1.0,c
3632.0,3406.0,3159.0,4095.0,4095.0,3654.0,4095.0,4095.0,1.18,7.6,6.8,-0.13,0.05,-0.05,1.0,c
3634.0,3419.0,3179.0,4095.0,4095.0,3673.0,4095.0,4095.0,1.18,7.58,6.81,-0.03,-0.02,-0.01,1.0,c
3621.0,3403.0,3157.0,4095.0,4095.0,3663.0,4095.0,4095.0,1.61,7.7,6.64,0.04,-0.08,-0.05,1.0,c
3633.0,3419.0,3169.0,4095.0,4095.0,3663.0,4095.0,4095.0,1.87,8.03,6.09,0.07,-0.06,0.0,1.0,c
3632.0,3415.0,3165.0,4095.0,4095.0,3659.0,4095.0,4095.0,0.77,7.66,6.72,-0.06,0.07,-0.08,1.0,c
3629.0,3423.0,3175.0,4095.0,4095.0,3677.0,4095.0,4095.0,1.13,7.86,6.46,-0.09,-0.01,0.01,1.0,c
3621.0,3408.0,3159.0,4095.0,4095.0,3664.0,4095.0,4095.0,1.54,7.83,6.47,-0.02,-0.11,0.01,1.0,c
3639.0,3408.0,3159.0,4095.0,4095.0,3677.0,4095.0,4095.0,1.96,8.12,6.07,-0.03,0.04,0.07,1.0,c
3632.0,3406.0,3169.0,4095.0,4095.0,3663.0,4095.0,4095.0,1.62,7.69,6.69,-0.14,0.05,-0.09,1.0,c
3638.0,3415.0,3168.0,4095.0,4095.0,3670.0,4095.0,4095.0,0.93,7.63,6.73,-0.05,0.02,-0.13,1.0,c
3622.0,3408.0,3163.0,4095.0,4095.0,3665.0,4095.0,4095.0,1.12,7.89,6.43,-0.06,0.03,0.04,1.0,c
3643.0,3429.0,3177.0,4095.0,4095.0,3674.0,4095.0,4095.0,1.83,7.98,6.29,-0.07,-0.04,0.07,1.0,c
3630.0,3423.0,3169.0,4095.0,4095.0,3682.0,4095.0,4095.0,1.68,7.68,6.64,-0.15,0.01,-0.11,1.0,c
3632.0,3415.0,3152.0,4095.0,4095.0,3670.0,4095.0,4095.0,1.07,7.47,6.96,-0.02,-0.0,-0.14,1.0,c
3623.0,3411.0,3171.0,4095.0,4095.0,3675.0,4095.0,4095.0,1.23,7.91,6.34,0.0,-0.01,-0.01,1.0,c
3631.0,3412.0,3152.0,4095.0,4095.0,3664.0,4095.0,4095.0,1.49,7.95,6.28,-0.11,-0.0,0.04,1.0,c
3632.0,3431.0,3159.0,4095.0,4095.0,3679.0,4095.0,4095.0,1.68,7.82,6.55,-0.14,0.06,0.03,1.0,c
3629.0,3410.0,3153.0,4095.0,4095.0,3671.0,4095.0,4095.0,1.2,7.3,7.16,-0.13,-0.01,-0.11,1.0,c
3636.0,3423.0,3175.0,4095.0,4095.0,3686.0,4095.0,4095.0,1.07,7.61,6.75,0.03,0.03,-0.04,1.0,c
3622.0,3406.0,3162.0,4095.0,4095.0,3666.0,4095.0,4095.0,1.42,7.95,6.24,-0.05,0.06,0.06,1.0,c
3627.0,3431.0,3168.0,4095.0,4095.0,3671.0,4095.0,4095.0,1.81,7.88,6.39,-0.09,-0.02,0.06,1.0,c
3621.0,3403.0,3164.0,4095.0,4095.0,3665.0,4095.0,4095.0,1.6,7.57,6.75,-0.12,0.02,-0.08,1.0,c
3648.0,3414.0,3167.0,4095.0,4095.0,3675.0,4095.0,4095.0,0.97,7.5,6.99,-0.03,0.08,-0.05,1.0,c
3613.0,3395.0,3165.0,4095.0,4095.0,3685.0,4095.0,4095.0,1.21,7.75,6.62,-0.03,-0.01,-0.03,1.0,c
3623.0,3417.0,3156.0,4095.0,4095.0,3681.0,4095.0,4095.0,1.91,7.58,6.78,-0.07,-0.02,-0.01,1.0,c
3635.0,3437.0,3159.0,4095.0,4095.0,3703.0,4095.0,4095.0,1.93,7.59,6.71,-0.04,-0.03,-0.03,1.0,c
3610.0,3414.0,3162.0,4095.0,4095.0,3689.0,4095.0,4095.0,1.93,7.64,6.59,-0.08,-0.02,-0.05,1.0,c
3633.0,3440.0,3174.0,4095.0,4095.0,3688.0,4095.0,4095.0,1.86,7.55,6.73,-0.11,-0.01,-0.09,1.0,c
3634.0,3434.0,3164.0,4095.0,4095.0,3670.0,4095.0,4095.0,1.81,7.61,6.64,-0.15,-0.01,-0.1,1.0,c
3645.0,3453.0,3183.0,4095.0,4095.0,3687.0,4095.0,4095.0,1.77,7.47,6.88,-0.13,-0.01,-0.1,1.0,c
3632.0,3427.0,3171.0,4095.0,4095.0,3699.0,4095.0,4095.0,1.72,7.42,6.88,-0.1,0.04,-0.08,1.0,c
3631.0,3433.0,3161.0,4095.0,4095.0,3671.0,4095.0,4095.0,1.76,7.47,6.88,-0.08,0.02,-0.12,1.0,c
3623.0,3425.0,3169.0,4095.0,4095.0,3702.0,4095.0,4095.0,1.59,7.4,6.98,-0.07,0.07,-0.14,1.0,c
3625.0,3430.0,3164.0,4095.0,4095.0,3696.0,4095.0,4095.0,1.27,7.42,6.92,-0.12,0.07,-0.12,1.0,c
3626.0,3418.0,3163.0,4095.0,4095.0,3711.0,4095.0,4095.0,1.13,7.41,7.04,-0.12,0.07,-0.09,1.0,c
3619.0,3426.0,3155.0,4095.0,4095.0,3696.0,4095.0,4095.0,1.1,7.34,7.07,-0.08,0.03,-0.07,1.0,c
3632.0,3421.0,3167.0,4095.0,4095.0,3701.0,4095.0,4095.0,1.13,7.39,7.0,-0.04,0.01,-0.06,1.0,c
3621.0,3421.0,3157.0,4095.0,4095.0,3695.0,4095.0,4095.0,1.23,7.46,6.94,-0.06,0.02,-0.05,1.0,c
3653.0,3434.0,3166.0,4095.0,4095.0,3696.0,4095.0,4095.0,1.1,7.43,6.97,-0.08,0.01,-0.09,1.0,c
3617.0,3414.0,3162.0,4095.0,4095.0,3696.0,4095.0,4095.0,0.95,7.39,7.03,-0.1,0.05,-0.06,1.0,c
3644.0,3435.0,3182.0,4095.0,4095.0,3695.0,4095.0,4095.0,1.1,7.26,7.27,-0.05,0.02,-0.1,1.0,c
3616.0,3435.0,3158.0,4095.0,4095.0,3703.0,4095.0,4095.0,0.88,7.33,7.09,-0.02,-0.03,-0.13,1.0,c
3616.0,3414.0,3158.0,4095.0,4095.0,3679.0,4095.0,4095.0,0.82,7.41,6.98,0.0,0.01,-0.1,1.0,c
3636.0,3425.0,3172.0,4095.0,4095.0,3703.0,4095.0,4095.0,0.84,7.42,7.02,0.02,-0.01,-0.09,1.0,c
3635.0,3423.0,3159.0,4095.0,4095.0,3686.0,4095.0,4095.0,0.18,7.94,6.45,0.02,-0.03,-0.07,1.0,c
3638.0,3445.0,3177.0,4095.0,4095.0,3694.0,4095.0,4095.0,0.22,7.92,6.38,-0.01,-0.03,-0.04,1.0,c
3637.0,3422.0,3159.0,4095.0,4095.0,3683.0,4095.0,4095.0,0.34,7.86,6.57,0.0,-0.02,-0.05,1.0,c
3647.0,3439.0,3159.0,4095.0,4095.0,3699.0,4095.0,4095.0,0.21,7.98,6.37,0.03,0.03,-0.1,1.0,c
3637.0,3423.0,3162.0,4095.0,4095.0,3690.0,4095.0,4095.0,0.12,8.05,6.34,0.0,-0.02,-0.06,1.0,c
3632.0,3430.0,3157.0,4095.0,4095.0,3703.0,4095.0,4095.0,0.24,8.06,6.26,0.03,-0.04,-0.04,1.0,c
3617.0,3430.0,3158.0,4095.0,4095.0,3680.0,4095.0,4095.0,0.32,8.09,6.19,0.02,-0.04,-0.03,1.0,c
3631.0,3438.0,3166.0,4095.0,4095.0,3687.0,4095.0,4095.0,0.41,8.19,6.07,0.02,-0.04,-0.04,1.0,c
3637.0,3427.0,3159.0,4095.0,4095.0,3685.0,4095.0,4095.0,0.34,8.21,6.15,0.04,-0.0,-0.05,1.0,c
3638.0,3445.0,3170.0,4095.0,4095.0,3691.0,4095.0,4095.0,0.08,8.19,6.12,0.1,-0.05,-0.06,1.0,c
3617.0,3426.0,3159.0,4095.0,4095.0,3698.0,4095.0,4095.0,0.26,8.33,5.89,0.02,-0.0,0.07,1.0,c
3639.0,3444.0,3165.0,4095.0,4095.0,3693.0,4095.0,4095.0,0.59,8.41,5.8,-0.02,-0.11,0.01,1.0,c
3647.0,3434.0,3173.0,4095.0,4095.0,3698.0,4095.0,4095.0,0.72,8.37,5.84,-0.01,0.01,0.01,1.0,c
3620.0,3421.0,3159.0,4095.0,4095.0,3694.0,4095.0,4095.0,0.5,8.42,5.76,0.02,-0.02,-0.02,1.0,c
3626.0,3414.0,3162.0,4095.0,4095.0,3719.0,4095.0,4095.0,0.46,8.5,5.65,0.02,-0.03,0.03,1.0,c
3614.0,3429.0,3167.0,4095.0,4095.0,3693.0,4095.0,4095.0,0.57,8.58,5.5,-0.01,-0.03,0.09,1.0,c
3631.0,3435.0,3170.0,4095.0,4095.0,3702.0,4095.0,4095.0,0.98,8.61,5.47,-0.06,-0.06,0.04,1.0,c
3638.0,3415.0,3157.0,4095.0,4095.0,3693.0,4095.0,4095.0,0.83,8.54,5.52,-0.1,-0.05,0.0,1.0,c
3632.0,3424.0,3167.0,4095.0,4095.0,3707.0,4095.0,4095.0,0.94,8.4,5.76,-0.05,-0.01,0.02,1.0,c
3632.0,3429.0,3152.0,4095.0,4095.0,3685.0,4095.0,4095.0,0.99,8.47,5.63,-0.04,0.0,0.04,1.0,c
3578.0,4095.0,3568.0,4033.0,4095.0,3733.0,4095.0,4095.0,1.66,7.32,7.01,-0.01,0.12,0.04,1.0,c
3568.0,4095.0,3561.0,4059.0,4095.0,3740.0,4095.0,4095.0,2.01,7.21,7.12,-0.02,-0.13,-0.07,1.0,c
3581.0,4095.0,3542.0,4033.0,4095.0,3725.0,4095.0,4095.0,1.99,7.25,6.99,-0.08,-0.02,0.01,1.0,c
3600.0,4095.0,3559.0,4095.0,4095.0,3745.0,4095.0,4095.0,1.82,7.16,7.1,-0.14,-0.02,-0.01,1.0,c
3570.0,4095.0,3535.0,4095.0,4095.0,3729.0,4095.0,4095.0,1.68,7.05,7.39,-0.07,0.01,-0.06,1.0,c
3579.0,4095.0,3554.0,4095.0,4095.0,3751.0,4095.0,4095.0,1.92,7.23,7.08,-0.04,-0.03,-0.06,1.0,c
3568.0,4095.0,3539.0,4095.0,4095.0,3731.0,4095.0,4095.0,2.04,7.08,7.26,-0.11,-0.02,-0.1,1.0,c
3573.0,4095.0,3539.0,4095.0,4095.0,3742.0,4095.0,4095.0,2.08,7.27,6.98,-0.1,0.08,-0.1,1.0,c
3578.0,4095.0,3549.0,4095.0,4095.0,3732.0,4095.0,4095.0,1.71,7.12,7.19,-0.18,0.08,-0.2,1.0,c
3583.0,4095.0,3546.0,4095.0,4095.0,3751.0,4095.0,4095.0,1.17,6.9,7.52,-0.15,0.07,-0.21,1.0,c
3567.0,4095.0,3518.0,4095.0,4095.0,3739.0,4095.0,4095.0,1.08,6.9,7.63,-0.12,0.13,-0.11,1.0,c
3574.0,4095.0,3543.0,4095.0,4095.0,3735.0,4095.0,4095.0,1.33,6.99,7.44,-0.12,0.1,-0.14,1.0,c
3601.0,4095.0,3529.0,4095.0,4095.0,3751.0,4095.0,4095.0,1.26,6.99,7.44,-0.14,0.11,-0.23,1.0,c
3573.0,4095.0,3509.0,4095.0,4095.0,3735.0,4095.0,4095.0,0.63,6.85,7.56,-0.15,0.1,-0.27,1.0,c
3600.0,4095.0,3531.0,4095.0,4095.0,3738.0,4095.0,4095.0,0.38,6.71,7.74,-0.11,0.04,-0.26,1.0,c
3568.0,4095.0,3520.0,4095.0,4095.0,3741.0,4095.0,4095.0,0.15,6.63,7.79,-0.1,0.04,-0.22,1.0,c
3583.0,4095.0,3523.0,4095.0,4095.0,3760.0,4095.0,4095.0,0.32,6.63,7.88,-0.06,0.03,-0.19,1.0,c
3579.0,4095.0,3502.0,4095.0,4095.0,3734.0,4095.0,4095.0,0.25,6.72,7.8,-0.03,0.06,-0.24,1.0,c
3600.0,4095.0,3521.0,4095.0,4095.0,3757.0,4095.0,4095.0,-0.34,6.74,7.66,-0.04,0.05,-0.2,1.0,c
3577.0,4095.0,3504.0,4095.0,4095.0,3750.0,4095.0,4095.0,-0.36,6.66,7.78,-0.03,0.02,-0.15,1.0,c
3583.0,4095.0,3422.0,4095.0,4095.0,3770.0,4095.0,4095.0,-0.72,7.01,7.38,0.07,-0.04,-0.09,1.0,c
3580.0,4095.0,3404.0,4095.0,4095.0,3741.0,4095.0,4095.0,-0.61,7.11,7.35,0.08,-0.09,-0.1,1.0,c
3600.0,4095.0,3409.0,4095.0,4095.0,3759.0,4095.0,4095.0,-0.76,7.34,7.02,0.11,-0.01,-0.07,1.0,c
3581.0,4095.0,3408.0,4095.0,4095.0,3735.0,4095.0,4095.0,-0.77,7.43,6.96,0.11,-0.06,-0.07,1.0,c
3605.0,4095.0,3411.0,4095.0,4095.0,3761.0,4095.0,4095.0,-0.85,7.58,6.74,0.05,-0.04,-0.01,1.0,c
3579.0,4095.0,3393.0,4095.0,4095.0,3746.0,4095.0,4095.0,-0.66,7.58,6.8,0.03,-0.08,0.02,1.0,c
3616.0,4095.0,3407.0,4095.0,4095.0,3760.0,4095.0,4095.0,-0.57,7.58,6.77,0.01,-0.07,0.06,1.0,c
3579.0,4095.0,3388.0,4095.0,4095.0,3767.0,4095.0,4095.0,-0.48,7.66,6.71,-0.03,-0.06,0.11,1.0,c
3578.0,4095.0,3395.0,4095.0,4095.0,3757.0,4095.0,4095.0,-0.29,7.69,6.73,-0.02,-0.08,0.17,1.0,c
3583.0,4095.0,3409.0,4095.0,4095.0,3748.0,4095.0,4095.0,0.05,7.63,6.84,-0.05,-0.1,0.21,1.0,c
3583.0,4095.0,3385.0,4095.0,4095.0,3742.0,4095.0,4095.0,0.28,7.63,6.83,-0.02,-0.08,0.25,1.0,c
3600.0,4095.0,3411.0,4095.0,4095.0,3770.0,4095.0,4095.0,0.75,7.87,6.51,-0.14,0.32,0.53,1.0,c
3579.0,4095.0,3391.0,4095.0,4095.0,3758.0,4095.0,4095.0,1.07,7.76,6.57,-0.09,0.31,0.4,1.0,c
3599.0,4095.0,3398.0,4095.0,4095.0,3747.0,4095.0,4095.0,1.21,7.64,6.72,-0.08,-0.06,0.02,1.0,c
3583.0,4095.0,3391.0,4095.0,4095.0,3747.0,4095.0,4095.0,0.11,7.39,7.16,-0.05,0.2,0.26,1.0,c
3575.0,4095.0,3392.0,4095.0,4095.0,3751.0,4095.0,4095.0,1.11,7.68,6.6,-0.03,0.38,0.62,1.0,c
3583.0,4095.0,3386.0,4095.0,4095.0,3749.0,4095.0,4095.0,2.3,7.59,6.77,-0.11,-0.2,-0.04,1.0,c
3582.0,4095.0,3391.0,4095.0,4095.0,3745.0,4095.0,4095.0,1.35,7.5,6.96,-0.04,0.05,-0.09,1.0,c
3581.0,4095.0,3391.0,4095.0,4095.0,3751.0,4095.0,4095.0,1.06,7.55,6.89,-0.06,0.04,-0.06,1.0,c
3581.0,4095.0,3382.0,4095.0,4095.0,3744.0,4095.0,4095.0,1.07,7.66,6.65,-0.04,-0.0,-0.03,1.0,c
3598.0,4095.0,3374.0,4095.0,4095.0,3755.0,4095.0,4095.0,1.27,7.65,6.73,-0.06,-0.0,-0.07,1.0,c
3583.0,4095.0,3368.0,4095.0,4095.0,3747.0,4095.0,4095.0,0.91,7.51,6.9,-0.06,0.01,-0.02,1.0,c
3609.0,4095.0,3382.0,4095.0,4095.0,3753.0,4095.0,4095.0,1.27,7.78,6.53,-0.03,-0.06,-0.05,1.0,c
3578.0,4095.0,3371.0,4095.0,4095.0,3739.0,4095.0,4095.0,1.25,7.64,6.67,-0.08,-0.01,-0.07,1.0,c
3571.0,4095.0,3365.0,4095.0,4095.0,3740.0,4095.0,4095.0,1.47,7.81,6.52,-0.05,0.03,-0.03,1.0,c
3583.0,4095.0,3383.0,4095.0,4095.0,3722.0,4095.0,4095.0,1.04,7.5,6.86,-0.15,0.01,-0.06,1.0,c
3583.0,4095.0,3374.0,4095.0,4095.0,3746.0,4095.0,4095.0,0.9,7.38,7.1,-0.0,-0.02,-0.07,1.0,c
3582.0,4095.0,3370.0,4095.0,4095.0,3742.0,4095.0,4095.0,1.19,7.73,6.56,0.0,-0.0,-0.03,1.0,c
3569.0,4095.0,3374.0,4095.0,4095.0,3727.0,4095.0,4095.0,1.28,7.73,6.6,-0.09,-0.01,0.03,1.0,c
3578.0,4095.0,3365.0,4095.0,4095.0,3737.0,4095.0,4095.0,1.48,7.85,6.53,-0.09,0.02,-0.01,1.0,c
3583.0,4095.0,3369.0,4095.0,4095.0,3728.0,4095.0,4095.0,0.97,7.36,7.16,-0.08,-0.05,-0.13,1.0,c
3603.0,4095.0,3373.0,4095.0,4095.0,3756.0,4095.0,4095.0,0.91,7.51,6.93,0.01,-0.01,-0.02,1.0,c
3578.0,4095.0,3366.0,4095.0,4095.0,3716.0,4095.0,4095.0,1.28,7.85,6.45,-0.05,-0.02,-0.02,1.0,c
3583.0,4095.0,3376.0,4095.0,4095.0,3718.0,4095.0,4095.0,1.22,7.86,6.5,-0.07,0.0,0.03,1.0,c
3582.0,4095.0,3369.0,4095.0,4095.0,3697.0,4095.0,4095.0,1.53,7.7,6.66,-0.11,0.04,0.03,1.0,c
3600.0,4095.0,3369.0,4095.0,4095.0,3714.0,4095.0,4095.0,1.17,7.27,7.26,-0.01,-0.11,-0.18,1.0,c
3583.0,4095.0,3366.0,4095.0,4095.0,3722.0,4095.0,4095.0,1.04,7.82,6.51,0.08,-0.02,-0.06,1.0,c
3600.0,4095.0,3380.0,4095.0,4095.0,3728.0,4095.0,4095.0,1.34,8.02,6.3,-0.03,-0.03,-0.05,1.0,c
3583.0,4095.0,3366.0,4095.0,4095.0,3735.0,4095.0,4095.0,1.41,7.77,6.55,-0.07,-0.09,-0.04,1.0,c
3567.0,4095.0,3365.0,4095.0,4095.0,3716.0,4095.0,4095.0,1.26,7.9,6.41,-0.06,0.07,-0.1,1.0,c
3583.0,4095.0,3369.0,4095.0,4095.0,3697.0,4095.0,4095.0,1.19,7.92,6.33,-0.08,0.02,-0.0,1.0,c
3599.0,4095.0,3375.0,4095.0,4095.0,3736.0,4095.0,4095.0,1.3,7.7,6.65,-0.13,0.04,-0.03,1.0,c
3572.0,4095.0,3361.0,4095.0,4095.0,3731.0,4095.0,4095.0,0.85,7.62,6.81,-0.11,0.01,-0.06,1.0,c
3599.0,4095.0,3365.0,4095.0,4095.0,3733.0,4095.0,4095.0,0.99,7.66,6.69,-0.07,0.0,-0.02,1.0,c
3563.0,4095.0,3374.0,4095.0,4095.0,3727.0,4095.0,4095.0,1.1,7.57,6.83,-0.02,-0.14,-0.06,1.0,c
3583.0,4095.0,3382.0,4095.0,4095.0,3733.0,4095.0,4095.0,1.76,8.19,6.0,-0.01,0.1,0.06,1.0,c
3583.0,4095.0,3371.0,4095.0,4095.0,3719.0,4095.0,4095.0,1.26,7.64,6.77,-0.15,-0.03,-0.17,1.0,c
3583.0,4095.0,3368.0,4095.0,4095.0,3741.0,4095.0,4095.0,0.44,7.61,6.78,-0.08,0.0,-0.09,1.0,c
3605.0,4095.0,3370.0,4095.0,4095.0,3749.0,4095.0,4095.0,1.16,7.77,6.58,-0.0,-0.05,0.03,1.0,c
3568.0,4095.0,3357.0,4095.0,4095.0,3726.0,4095.0,4095.0,1.65,7.96,6.35,-0.03,-0.02,0.07,1.0,c
3602.0,4095.0,3371.0,4095.0,4095.0,3759.0,4095.0,4095.0,1.56,7.88,6.39,-0.11,0.05,-0.08,1.0,c
3575.0,4095.0,3369.0,4095.0,4095.0,3739.0,4095.0,4095.0,0.93,7.67,6.77,-0.03,0.08,-0.12,1.0,c
3583.0,4095.0,3382.0,4095.0,4095.0,3745.0,4095.0,4095.0,0.76,7.83,6.55,-0.07,-0.01,-0.01,1.0,c
3579.0,4095.0,3366.0,4095.0,4095.0,3750.0,4095.0,4095.0,1.52,7.84,6.53,-0.05,0.01,0.06,1.0,c
3599.0,4095.0,3376.0,4095.0,4095.0,3757.0,4095.0,4095.0,1.58,7.84,6.48,-0.09,0.03,-0.05,1.0,c
3583.0,4095.0,3364.0,4095.0,4095.0,3760.0,4095.0,4095.0,0.82,7.61,6.86,-0.1,-0.01,-0.11,1.0,c
3600.0,4095.0,3379.0,4095.0,4095.0,3753.0,4095.0,4095.0,0.65,7.74,6.61,-0.1,0.01,0.02,1.0,c
3579.0,4095.0,3371.0,4095.0,4095.0,3758.0,4095.0,4095.0,1.27,7.77,6.62,-0.1,0.02,0.06,1.0,c
3579.0,4095.0,3375.0,4095.0,4095.0,3778.0,4095.0,4095.0,1.6,7.82,6.56,-0.06,0.02,-0.0,1.0,c
3583.0,4095.0,3377.0,4095.0,4095.0,3775.0,4095.0,4095.0,1.06,7.68,6.7,-0.09,0.01,-0.12,1.0,c
3599.0,4095.0,3369.0,4095.0,4095.0,3738.0,4095.0,4095.0,1.11,7.71,6.65,0.02,0.02,-0.04,1.0,c
3583.0,4095.0,3360.0,4095.0,4095.0,3737.0,4095.0,4095.0,1.18,7.92,6.38,-0.06,0.01,-0.02,1.0,c
3606.0,4095.0,3359.0,4095.0,4095.0,3756.0,4095.0,4095.0,1.07,7.84,6.4,-0.07,0.03,-0.0,1.0,c
3583.0,4095.0,3375.0,4095.0,4095.0,3767.0,4095.0,4095.0,1.2,7.6,6.86,-0.04,0.02,-0.02,1.0,c
3568.0,4095.0,3364.0,4095.0,4095.0,3749.0,4095.0,4095.0,1.07,7.74,6.56,0.01,-0.04,-0.06,1.0,c
3604.0,4095.0,3363.0,4095.0,4095.0,3751.0,4095.0,4095.0,1.29,7.93,6.37,-0.08,-0.04,-0.0,1.0,c
3580.0,4095.0,3359.0,4095.0,4095.0,3751.0,4095.0,4095.0,1.3,7.69,6.74,-0.12,0.01,-0.04,1.0,c
3575.0,4095.0,3363.0,4095.0,4095.0,3743.0,4095.0,4095.0,1.15,7.61,6.8,-0.04,-0.03,-0.07,1.0,c
3569.0,4095.0,3346.0,4095.0,4095.0,3755.0,4095.0,4095.0,1.01,7.8,6.52,-0.06,-0.03,-0.05,1.0,c
3583.0,4095.0,3360.0,4095.0,4095.0,3760.0,4095.0,4095.0,1.43,7.85,6.51,-0.08,0.02,0.02,1.0,c
3582.0,4095.0,3365.0,4095.0,4095.0,3759.0,4095.0,4095.0,1.23,7.47,7.02,-0.1,-0.03,-0.07,1.0,c
3581.0,4095.0,3370.0,4095.0,4095.0,3774.0,4095.0,4095.0,0.95,7.7,6.65,-0.04,-0.02,-0.03,1.0,c
3583.0,4095.0,3353.0,4095.0,4095.0,3757.0,4095.0,4095.0,1.39,7.9,6.38,-0.06,-0.04,-0.01,1.0,c
3578.0,4095.0,3362.0,4095.0,4095.0,3755.0,4095.0,4095.0,1.4,7.75,6.6,-0.1,0.05,-0.04,1.0,c
3599.0,4095.0,3355.0,4095.0,4095.0,3743.0,4095.0,4095.0,0.92,7.54,6.95,-0.08,0.03,-0.05,1.0,c
3581.0,4095.0,3358.0,4095.0,4095.0,3748.0,4095.0,4095.0,1.11,7.72,6.62,-0.05,-0.03,0.03,1.0,c
3600.0,4095.0,3362.0,4095.0,4095.0,3751.0,4095.0,4095.0,1.35,7.69,6.67,-0.08,-0.03,-0.04,1.0,c
3568.0,4095.0,3357.0,4095.0,4095.0,3747.0,4095.0,4095.0,1.4,7.79,6.46,-0.03,0.04,-0.0,1.0,c
3581.0,4095.0,3356.0,4095.0,4095.0,3778.0,4095.0,4095.0,1.1,7.67,6.74,-0.11,0.03,-0.06,1.0,c
3562.0,4095.0,3356.0,4095.0,4095.0,3759.0,4095.0,4095.0,1.2,7.63,6.86,-0.06,0.0,0.0,1.0,c
3583.0,4095.0,3359.0,4095.0,4095.0,3774.0,4095.0,4095.0,1.24,7.78,6.53,-0.09,0.02,-0.03,1.0,c
3583.0,4095.0,3350.0,4095.0,4095.0,3755.0,4095.0,4095.0,1.46,7.74,6.65,-0.08,0.02,-0.03,1.0,c
3580.0,4095.0,3347.0,4095.0,4095.0,3758.0,4095.0,4095.0,1.12,7.56,6.86,-0.08,0.0,-0.07,1.0,c
3583.0,4095.0,3339.0,4095.0,4095.0,3776.0,4095.0,4095.0,1.12,7.62,6.78,-0.02,-0.02,-0.04,1.0,c
3582.0,4095.0,3346.0,4095.0,4095.0,3755.0,4095.0,4095.0,1.33,7.73,6.59,0.05,-0.02,-0.09,1.0,c
3583.0,4095.0,3354.0,4095.0,4095.0,3757.0,4095.0,4095.0,1.24,8.19,5.97,-0.02,-0.01,-0.06,1.0,c
3568.0,4094.0,3349.0,4095.0,4095.0,3757.0,4095.0,4095.0,1.28,7.73,6.65,-0.14,-0.03,-0.08,1.0,c
3583.0,4095.0,3358.0,4095.0,4095.0,3773.0,4095.0,4095.0,0.79,7.7,6.7,-0.09,0.05,-0.05,1.0,c
3571.0,4095.0,3347.0,4095.0,4095.0,3751.0,4095.0,4095.0,0.93,7.75,6.59,-0.05,0.02,0.02,1.0,c
3603.0,4095.0,3349.0,4095.0,4095.0,3769.0,4095.0,4095.0,1.54,7.88,6.5,-0.05,-0.04,0.01,1.0,c
3583.0,4095.0,3328.0,4095.0,4095.0,3745.0,4095.0,4095.0,1.46,7.92,6.27,-0.13,0.05,-0.04,1.0,c
3602.0,4095.0,3359.0,4095.0,4095.0,3766.0,4095.0,4095.0,0.83,7.56,6.92,-0.08,0.0,-0.08,1.0,c
3578.0,4095.0,3354.0,4095.0,4095.0,3759.0,4095.0,4095.0,1.05,7.82,6.49,0.02,-0.02,-0.02,1.0,c
3583.0,4095.0,3349.0,4095.0,4095.0,3759.0,4095.0,4095.0,1.28,7.82,6.52,-0.05,-0.05,-0.03,1.0,c
3604.0,4095.0,3363.0,4095.0,4095.0,3760.0,4095.0,4095.0,1.48,7.97,6.28,-0.05,0.03,-0.04,1.0,c
3570.0,4095.0,3346.0,4095.0,4095.0,3749.0,4095.0,4095.0,1.08,7.76,6.56,-0.12,0.06,-0.05,1.0,c
3583.0,4095.0,3351.0,4095.0,4095.0,3761.0,4095.0,4095.0,0.84,7.51,7.0,-0.08,0.03,-0.01,1.0,c
3583.0,4095.0,3339.0,4095.0,4095.0,3758.0,4095.0,4095.0,1.15,7.75,6.59,-0.02,-0.03,-0.01,1.0,c
3599.0,4095.0,3357.0,4095.0,4095.0,3762.0,4095.0,4095.0,1.41,7.83,6.49,-0.04,-0.0,-0.02,1.0,c
3597.0,4095.0,3345.0,4095.0,4095.0,3760.0,4095.0,4095.0,1.43,7.9,6.45,-0.09,0.03,-0.01,1.0,c
3583.0,4095.0,3348.0,4095.0,4095.0,3765.0,4095.0,4095.0,1.43,7.83,6.45,-0.08,0.0,-0.06,1.0,c
3580.0,4095.0,3344.0,4095.0,4095.0,3759.0,4095.0,4095.0,0.93,7.58,6.82,-0.12,0.02,-0.05,1.0,c
3597.0,4095.0,3357.0,4095.0,4095.0,3767.0,4095.0,4095.0,0.98,7.56,6.86,-0.03,-0.01,-0.01,1.0,c
3572.0,4095.0,3344.0,4095.0,4095.0,3765.0,4095.0,4095.0,1.38,7.75,6.6,-0.03,-0.01,-0.01,1.0,c
3571.0,4095.0,3346.0,4095.0,4095.0,3776.0,4095.0,4095.0,1.49,7.84,6.45,-0.03,-0.01,-0.02,1.0,c
3583.0,4095.0,3344.0,4095.0,4095.0,3744.0,4095.0,4095.0,1.28,7.74,6.51,-0.13,0.02,-0.07,1.0,c
3583.0,4095.0,3345.0,4095.0,4095.0,3772.0,4095.0,4095.0,0.72,7.43,7.04,-0.07,0.01,-0.06,1.0,c
3583.0,4095.0,3344.0,4093.0,4095.0,3757.0,4095.0,4095.0,1.23,7.71,6.65,-0.01,-0.01,0.02,1.0,c
3597.0,4095.0,3358.0,4095.0,4095.0,3746.0,4095.0,4095.0,1.59,7.9,6.4,-0.06,0.0,0.01,1.0,c
3577.0,4095.0,3344.0,4080.0,4095.0,3750.0,4095.0,4095.0,1.38,7.68,6.7,-0.12,0.05,-0.05,1.0,c
3582.0,4095.0,3350.0,4095.0,4095.0,3767.0,4095.0,4095.0,0.98,7.38,7.14,-0.06,0.03,-0.06,1.0,c
3583.0,4095.0,3361.0,4095.0,4095.0,3773.0,4095.0,4095.0,1.02,7.75,6.57,0.01,-0.02,-0.04,1.0,c
3575.0,4095.0,3349.0,4095.0,4095.0,3749.0,4095.0,4095.0,1.36,7.83,6.49,-0.05,0.02,0.02,1.0,c
3601.0,4095.0,3344.0,4095.0,4095.0,3777.0,4095.0,4095.0,1.47,7.76,6.59,-0.1,0.01,-0.02,1.0,c
3575.0,4095.0,3349.0,4095.0,4095.0,3747.0,4095.0,4095.0,1.21,7.63,6.7,-0.1,0.02,-0.08,1.0,c
3603.0,4095.0,3355.0,4095.0,4095.0,3765.0,4095.0,4095.0,0.85,7.49,6.97,-0.05,0.01,-0.04,1.0,c
3575.0,4095.0,3346.0,4095.0,4095.0,3739.0,4095.0,4095.0,1.12,7.74,6.65,-0.01,-0.04,-0.01,1.0,c
3583.0,4095.0,3361.0,4095.0,4095.0,3766.0,4095.0,4095.0,1.52,7.81,6.52,-0.05,-0.03,0.02,1.0,c
3575.0,4095.0,3344.0,4080.0,4095.0,3757.0,4095.0,4095.0,1.61,7.87,6.45,-0.09,-0.02,-0.06,1.0,c
3600.0,4095.0,3366.0,4095.0,4095.0,3760.0,4095.0,4095.0,0.92,7.51,6.87,-0.11,-0.0,-0.11,1.0,c
3571.0,4095.0,3339.0,4063.0,4095.0,3749.0,4095.0,4095.0,1.43,7.73,6.69,-0.07,0.02,-0.08,1.0,c
3604.0,4095.0,3349.0,4067.0,4095.0,3767.0,4095.0,4095.0,0.79,7.52,6.95,-0.08,-0.02,-0.11,1.0,c
3579.0,4095.0,3344.0,4053.0,4095.0,3776.0,4095.0,4095.0,0.79,7.53,6.89,0.02,-0.0,-0.0,1.0,c
3583.0,4095.0,3349.0,4069.0,4095.0,3763.0,4095.0,4095.0,1.41,7.88,6.44,0.03,-0.02,0.03,1.0,c
3583.0,4095.0,3344.0,4043.0,4095.0,3760.0,4095.0,4095.0,1.64,8.02,6.22,-0.1,0.03,0.01,1.0,c
3599.0,4095.0,3347.0,4066.0,4095.0,3761.0,4095.0,4095.0,1.19,7.65,6.78,-0.13,0.02,-0.08,1.0,c
3581.0,4095.0,3333.0,4045.0,4095.0,3770.0,4095.0,4095.0,0.66,7.61,6.86,-0.05,-0.02,-0.06,1.0,c
3571.0,4095.0,3351.0,4063.0,4095.0,3759.0,4095.0,4095.0,0.95,7.75,6.61,-0.03,-0.09,-0.02,1.0,c
3583.0,4095.0,3360.0,4082.0,4095.0,3764.0,4095.0,4095.0,1.63,7.88,6.45,-0.02,-0.0,0.06,1.0,c
3580.0,4095.0,3345.0,4054.0,4095.0,3759.0,4095.0,4095.0,1.52,7.91,6.4,-0.1,-0.01,-0.06,1.0,c
3582.0,4095.0,3345.0,4083.0,4095.0,3778.0,4095.0,4095.0,1.06,7.65,6.78,-0.1,0.03,-0.09,1.0,c
3582.0,4095.0,3344.0,4070.0,4095.0,3760.0,4095.0,4095.0,0.73,7.64,6.72,-0.07,0.03,-0.03,1.0,c
3583.0,4095.0,3344.0,4091.0,4095.0,3760.0,4095.0,4095.0,1.25,7.66,6.65,-0.04,-0.05,0.03,1.0,c
3583.0,4095.0,3346.0,4076.0,4095.0,3768.0,4095.0,4095.0,1.7,7.83,6.51,-0.02,-0.01,-0.01,1.0,c
3599.0,4095.0,3358.0,4095.0,4095.0,3766.0,4095.0,4095.0,1.35,7.77,6.55,-0.09,0.04,-0.13,1.0,c
3569.0,4095.0,3344.0,4077.0,4095.0,3758.0,4095.0,4095.0,0.66,7.47,6.95,-0.08,0.04,-0.05,1.0,c
3581.0,4095.0,3344.0,4093.0,4095.0,3769.0,4095.0,4095.0,1.15,7.64,6.73,-0.0,-0.02,0.03,1.0,c
3578.0,4095.0,3332.0,4064.0,4095.0,3760.0,4095.0,4095.0,1.63,7.78,6.63,-0.05,-0.0,0.02,1.0,c
3604.0,4095.0,3354.0,4082.0,4095.0,3751.0,4095.0,4095.0,1.37,7.64,6.77,-0.09,0.02,-0.06,1.0,c
3601.0,4095.0,3348.0,4071.0,4095.0,3761.0,4095.0,4095.0,1.04,7.63,6.72,-0.01,0.01,-0.07,1.0,c
