hall_1,hall_2,hall_3,flex_t,flex_i,flex_m,flex_r,flex_p,accel_x,accel_y,accel_z,gyro_x,gyro_y,gyro_z,sign
2946.0,845.0,1235.0,4005.0,4095.0,2446.0,2781.0,2735.0,1.33,9.6,6.83,-0.07,0.42,-0.25,d
2951.0,851.0,1235.0,3999.0,4095.0,2443.0,2777.0,2732.0,1.49,9.52,6.42,0.02,0.37,-0.24,d
2948.0,847.0,1242.0,4026.0,4095.0,2447.0,2782.0,2734.0,1.15,9.3,6.56,0.1,0.14,-0.27,d
2949.0,849.0,1243.0,4009.0,4095.0,2448.0,2778.0,2729.0,1.36,9.66,5.74,0.07,-0.18,-0.24,d
2948.0,849.0,1235.0,3998.0,4095.0,2445.0,2782.0,2736.0,1.0,9.7,5.97,0.01,-0.13,-0.18,d
2948.0,857.0,1247.0,3995.0,4095.0,2446.0,2780.0,2735.0,1.64,9.88,5.75,-0.16,-0.06,-0.07,d
2943.0,860.0,1235.0,4000.0,4095.0,2447.0,2782.0,2736.0,1.8,9.69,6.58,-0.07,-0.1,-0.06,d
2950.0,851.0,1234.0,4022.0,4095.0,2449.0,2783.0,2734.0,1.84,9.56,6.62,0.05,0.0,-0.08,d
2945.0,852.0,1237.0,4009.0,4095.0,2445.0,2778.0,2730.0,1.81,9.79,6.43,0.14,-0.04,-0.19,d
2954.0,849.0,1246.0,4031.0,4095.0,2442.0,2781.0,2734.0,1.43,9.74,6.43,0.15,-0.05,-0.21,d
2964.0,864.0,1241.0,4022.0,4095.0,2447.0,2783.0,2731.0,1.54,9.68,6.57,0.1,-0.08,-0.3,d
2943.0,853.0,1234.0,4017.0,4095.0,2448.0,2778.0,2733.0,1.44,9.78,6.24,0.0,0.18,-0.27,d
2946.0,857.0,1237.0,4004.0,4095.0,2446.0,2783.0,2735.0,1.5,9.62,6.58,0.14,-0.11,-0.31,d
2951.0,852.0,1232.0,4022.0,4095.0,2448.0,2784.0,2735.0,1.3,9.79,6.12,0.11,0.03,-0.28,d
2959.0,861.0,1235.0,4034.0,4095.0,2449.0,2790.0,2731.0,1.2,9.8,6.2,0.1,-0.11,-0.29,d
2958.0,850.0,1239.0,4011.0,4095.0,2446.0,2785.0,2734.0,1.32,9.64,6.26,-0.01,0.1,-0.25,d
2948.0,848.0,1233.0,4022.0,4095.0,2448.0,2787.0,2735.0,0.91,9.67,6.07,0.04,-0.05,-0.29,d
2947.0,858.0,1231.0,4003.0,4095.0,2448.0,2783.0,2736.0,1.47,9.89,5.02,0.0,-0.79,-0.35,d
2953.0,846.0,1230.0,3984.0,4095.0,2438.0,2775.0,2736.0,2.02,10.05,5.3,-0.14,-1.27,-0.6,d
2950.0,858.0,1232.0,4007.0,4095.0,2446.0,2778.0,2733.0,1.25,10.23,6.45,0.09,-0.61,-0.61,d
2947.0,854.0,1222.0,4014.0,4095.0,2442.0,2782.0,2732.0,2.0,9.82,5.19,0.11,-0.49,-0.57,d
2961.0,855.0,1210.0,3993.0,4095.0,2437.0,2773.0,2733.0,0.52,8.77,2.51,-0.37,0.08,-0.52,d
2960.0,848.0,1223.0,4021.0,4095.0,2437.0,2786.0,2735.0,-1.33,8.54,9.6,-1.09,0.26,-0.44,d
2953.0,857.0,1222.0,4016.0,4095.0,2427.0,2778.0,2733.0,-0.22,9.52,7.55,-0.22,-0.19,-0.34,d
2944.0,851.0,1234.0,4016.0,4095.0,2422.0,2781.0,2736.0,-0.7,9.35,7.96,-0.05,-0.06,-0.25,d
2955.0,855.0,1222.0,4025.0,4095.0,2422.0,2781.0,2735.0,0.03,9.17,7.19,0.6,-0.36,-0.29,d
2953.0,854.0,1228.0,4032.0,4095.0,2430.0,2783.0,2725.0,-0.18,9.31,5.54,0.66,-0.58,-0.37,d
2957.0,851.0,1211.0,4025.0,4095.0,2435.0,2782.0,2725.0,-0.14,9.47,5.77,0.63,-0.89,-0.5,d
2955.0,859.0,1216.0,4021.0,4095.0,2439.0,2781.0,2731.0,0.12,9.64,5.59,0.72,-0.44,-0.33,d
2960.0,853.0,1218.0,4017.0,4095.0,2432.0,2778.0,2721.0,0.28,8.77,4.79,0.8,-0.17,-0.18,d
2950.0,859.0,1210.0,4022.0,4095.0,2435.0,2781.0,2729.0,-0.95,8.51,4.91,0.34,0.23,0.26,d
2951.0,847.0,1216.0,4035.0,4095.0,2431.0,2778.0,2723.0,-0.25,11.08,4.61,0.06,0.33,0.5,d
2949.0,855.0,1197.0,4044.0,4095.0,2431.0,2779.0,2730.0,0.23,10.06,5.39,-0.29,0.1,0.0,d
2953.0,860.0,1209.0,4048.0,4095.0,2431.0,2782.0,2734.0,-0.35,10.07,6.28,-0.27,-0.11,-0.03,d
2954.0,857.0,1198.0,4043.0,4095.0,2430.0,2780.0,2729.0,2.39,10.07,4.96,-0.1,-0.32,0.03,d
2954.0,855.0,1200.0,4049.0,4095.0,2421.0,2779.0,2726.0,1.53,9.8,5.47,-0.12,0.02,-0.2,d
2953.0,848.0,1199.0,4058.0,4095.0,2422.0,2775.0,2736.0,0.78,10.46,5.5,-0.21,0.17,-0.16,d
2955.0,849.0,1185.0,4063.0,4095.0,2425.0,2783.0,2737.0,0.83,10.12,5.87,-0.26,0.22,-0.11,d
2953.0,855.0,1177.0,4095.0,4095.0,2429.0,2794.0,2740.0,0.45,9.97,5.92,-0.17,0.01,-0.24,d
2947.0,855.0,1178.0,4095.0,4095.0,2433.0,2799.0,2751.0,0.59,9.58,5.92,-0.08,0.08,-0.23,d
2945.0,853.0,1179.0,4095.0,4095.0,2430.0,2800.0,2752.0,0.46,9.5,5.91,-0.08,0.17,-0.25,d
2957.0,846.0,1184.0,4095.0,4095.0,2418.0,2799.0,2746.0,1.23,9.5,5.76,-0.25,0.17,-0.41,d
2947.0,858.0,1190.0,4095.0,4095.0,2427.0,2795.0,2751.0,0.04,9.78,6.42,-0.05,0.08,-0.57,d
2944.0,855.0,1182.0,4095.0,4095.0,2430.0,2802.0,2752.0,0.21,9.8,6.01,0.11,-0.18,-0.3,d
2951.0,851.0,1188.0,4095.0,4095.0,2426.0,2801.0,2752.0,0.11,9.76,5.84,0.11,-0.1,-0.23,d
2960.0,855.0,1181.0,4095.0,4095.0,2427.0,2800.0,2751.0,-0.06,9.64,5.75,0.05,-0.0,-0.15,d
2960.0,852.0,1182.0,4095.0,4095.0,2417.0,2800.0,2752.0,-0.54,9.63,6.0,0.03,-0.06,-0.09,d
2957.0,860.0,1175.0,4095.0,4095.0,2419.0,2802.0,2754.0,-0.28,9.68,6.01,0.01,-0.02,-0.0,d
2957.0,849.0,1179.0,4095.0,4095.0,2417.0,2802.0,2753.0,0.29,9.66,6.05,0.09,-0.14,-0.03,d
2947.0,853.0,1172.0,4095.0,4095.0,2418.0,2800.0,2752.0,0.13,9.81,5.88,-0.01,-0.04,-0.0,d
2942.0,858.0,1184.0,4095.0,4095.0,2426.0,2800.0,2753.0,0.68,9.71,5.87,0.05,-0.11,-0.07,d
2946.0,854.0,1181.0,4095.0,4095.0,2422.0,2802.0,2751.0,0.38,9.68,6.07,0.01,-0.12,-0.07,d
2950.0,850.0,1179.0,4095.0,4095.0,2433.0,2805.0,2749.0,0.76,9.83,5.91,0.01,0.02,-0.1,d
2950.0,850.0,1163.0,4095.0,4095.0,2436.0,2814.0,2753.0,0.34,9.71,6.01,0.05,-0.12,-0.16,d
2951.0,842.0,1171.0,4095.0,4095.0,2443.0,2817.0,2754.0,0.53,9.6,5.95,0.21,0.05,-0.09,d
2943.0,848.0,1154.0,4095.0,4095.0,2448.0,2828.0,2767.0,-0.36,9.84,5.58,0.22,0.22,0.12,d
2941.0,848.0,1121.0,4095.0,4095.0,2452.0,2826.0,2768.0,-0.57,9.66,5.58,0.11,0.2,0.39,d
2950.0,844.0,1119.0,4095.0,4095.0,2451.0,2830.0,2768.0,0.69,9.56,5.75,0.1,0.19,0.48,d
2945.0,870.0,1107.0,4095.0,4095.0,2453.0,2829.0,2768.0,1.9,9.64,5.48,0.07,-0.01,0.37,d
2954.0,903.0,1092.0,4095.0,4095.0,2456.0,2832.0,2765.0,2.37,9.56,5.71,0.02,-0.08,0.22,d
2950.0,935.0,1075.0,4095.0,4095.0,2450.0,2829.0,2765.0,2.31,9.67,5.77,0.05,0.14,0.19,d
2943.0,953.0,1063.0,4095.0,4095.0,2454.0,2821.0,2768.0,2.3,9.64,5.63,0.13,0.1,0.13,d
2947.0,1212.0,1055.0,4095.0,4095.0,2454.0,2819.0,2771.0,2.24,9.63,5.56,0.08,0.05,0.04,d
2950.0,1219.0,1062.0,4095.0,4095.0,2464.0,2829.0,2768.0,2.17,9.6,5.59,0.03,-0.04,-0.02,d
2947.0,1328.0,1070.0,4095.0,4095.0,2471.0,2830.0,2763.0,2.17,9.62,5.63,0.09,-0.06,-0.05,d
2947.0,1397.0,1071.0,4095.0,4095.0,2470.0,2826.0,2758.0,2.03,9.55,5.72,0.15,-0.16,-0.1,d
2957.0,1441.0,1070.0,4095.0,4095.0,2470.0,2823.0,2757.0,1.81,9.6,5.54,0.11,0.05,-0.01,d
2951.0,1435.0,1066.0,4095.0,4095.0,2476.0,2827.0,2762.0,3.19,9.52,5.27,0.09,-0.42,-0.03,d
2949.0,1535.0,1067.0,4095.0,4095.0,2463.0,2819.0,2749.0,2.74,9.56,5.18,0.11,-0.03,-0.17,d
2946.0,1834.0,1040.0,4095.0,4095.0,2469.0,2815.0,2739.0,2.63,9.62,4.93,0.11,0.02,-0.2,d
2960.0,1961.0,1018.0,4095.0,4095.0,2475.0,2803.0,2743.0,2.36,9.62,4.92,0.11,0.13,-0.2,d
2960.0,2085.0,1012.0,4095.0,4095.0,2480.0,2802.0,2736.0,2.45,9.46,5.15,0.03,-0.06,-0.24,d
2949.0,2121.0,1014.0,4095.0,4095.0,2480.0,2802.0,2737.0,1.99,9.64,5.21,0.03,0.02,-0.19,d
2947.0,2196.0,1007.0,4095.0,4095.0,2480.0,2795.0,2735.0,2.26,9.64,5.11,0.04,-0.03,-0.18,d
2951.0,2249.0,1002.0,4095.0,4095.0,2482.0,2783.0,2726.0,1.81,9.75,5.03,0.02,0.0,-0.11,d
2943.0,2282.0,1001.0,4095.0,4095.0,2479.0,2787.0,2722.0,2.01,9.61,5.18,0.1,-0.02,-0.08,d
2954.0,2346.0,1004.0,4095.0,4095.0,2480.0,2768.0,2719.0,2.6,9.76,4.75,0.13,-0.05,-0.05,d
2950.0,2365.0,1009.0,4095.0,4095.0,2480.0,2770.0,2714.0,2.5,9.55,5.06,0.05,0.03,-0.07,d
2950.0,2373.0,1018.0,4095.0,4095.0,2480.0,2771.0,2704.0,2.75,9.69,4.96,0.05,-0.03,-0.04,d
2948.0,2377.0,1043.0,4095.0,4095.0,2483.0,2774.0,2699.0,2.75,9.61,5.04,0.06,0.09,-0.11,d
2943.0,2359.0,1042.0,4095.0,4095.0,2486.0,2769.0,2697.0,2.75,9.6,4.78,0.01,0.07,-0.15,d
2955.0,2327.0,1051.0,4095.0,4095.0,2485.0,2785.0,2704.0,2.38,9.61,4.94,0.07,0.09,-0.19,d
2946.0,2314.0,1046.0,4095.0,4095.0,2482.0,2783.0,2704.0,2.55,9.59,4.68,-0.06,0.15,-0.14,d
2950.0,2282.0,1051.0,4095.0,4095.0,2482.0,2789.0,2704.0,2.88,9.45,4.98,-0.04,0.04,-0.23,d
2946.0,2192.0,1078.0,4095.0,4095.0,2485.0,2789.0,2699.0,2.64,9.65,4.68,-0.1,0.03,-0.29,d
2947.0,2085.0,1104.0,4095.0,4095.0,2485.0,2801.0,2704.0,1.97,9.77,5.14,-0.04,-0.0,-0.32,d
2949.0,2064.0,1098.0,4095.0,4095.0,2483.0,2801.0,2713.0,2.04,9.84,5.08,-0.11,-0.08,-0.28,d
2947.0,1928.0,1098.0,4095.0,4095.0,2480.0,2816.0,2726.0,2.15,9.59,5.49,-0.05,-0.09,-0.26,d
2944.0,1913.0,1095.0,4095.0,4095.0,2487.0,2830.0,2736.0,2.02,9.53,5.38,-0.06,-0.14,-0.24,d
2950.0,1924.0,1088.0,4095.0,4095.0,2487.0,2832.0,2746.0,2.01,9.63,5.19,-0.07,-0.12,-0.18,d
2950.0,2064.0,1095.0,4095.0,4095.0,2498.0,2834.0,2751.0,1.75,9.72,5.36,0.05,0.05,-0.17,d
2948.0,2067.0,1095.0,4095.0,4095.0,2493.0,2837.0,2751.0,2.09,9.69,5.19,-0.06,-0.21,-0.1,d
2958.0,2047.0,1098.0,4095.0,4095.0,2480.0,2819.0,2733.0,2.51,9.68,5.19,-0.05,0.05,-0.17,d
2949.0,2243.0,1102.0,4095.0,4095.0,2461.0,2799.0,2715.0,1.96,9.73,5.18,-0.03,-0.05,-0.22,d
2947.0,2415.0,1113.0,4016.0,4095.0,2446.0,2781.0,2691.0,1.62,9.67,5.1,0.05,-0.05,-0.23,d
2951.0,2418.0,1128.0,4019.0,4095.0,2436.0,2769.0,2683.0,1.65,9.66,5.38,0.07,-0.11,-0.16,d
2949.0,2391.0,1120.0,4017.0,4095.0,2447.0,2779.0,2683.0,2.1,9.66,5.14,0.02,-0.08,-0.13,d
2958.0,2305.0,1116.0,4031.0,4095.0,2450.0,2774.0,2682.0,2.1,9.63,5.37,-0.02,-0.02,-0.06,d
2960.0,2230.0,1115.0,4041.0,4095.0,2455.0,2781.0,2688.0,2.55,9.64,5.37,0.02,-0.04,-0.15,d
2957.0,2176.0,1111.0,4037.0,4095.0,2457.0,2783.0,2690.0,2.38,9.54,5.29,-0.05,0.04,-0.15,d
2949.0,2161.0,1110.0,4033.0,4095.0,2465.0,2791.0,2695.0,2.26,9.68,5.23,0.06,-0.02,-0.19,d
2951.0,2112.0,1119.0,4050.0,4095.0,2468.0,2786.0,2690.0,2.03,9.45,5.35,0.04,-0.03,-0.19,d
2953.0,2085.0,1115.0,4033.0,4095.0,2468.0,2796.0,2693.0,1.8,9.54,4.97,-0.01,-0.01,-0.15,d
2939.0,2064.0,1126.0,4021.0,4095.0,2467.0,2787.0,2693.0,2.08,9.66,5.18,0.03,-0.03,-0.11,d
2939.0,2055.0,1126.0,4030.0,4095.0,2469.0,2797.0,2701.0,2.07,9.65,5.12,-0.08,-0.02,-0.09,d
2951.0,2022.0,1121.0,4048.0,4095.0,2469.0,2795.0,2697.0,2.53,9.63,5.37,-0.04,-0.01,-0.12,d
2950.0,2009.0,1120.0,4049.0,4095.0,2478.0,2803.0,2704.0,2.29,9.67,5.27,-0.05,-0.02,-0.14,d
2955.0,1998.0,1125.0,4059.0,4095.0,2475.0,2799.0,2701.0,2.27,9.7,5.27,-0.01,-0.01,-0.16,d
2954.0,2019.0,1129.0,4035.0,4095.0,2473.0,2794.0,2704.0,2.25,9.61,5.31,-0.01,0.02,-0.15,d
2950.0,2025.0,1125.0,4055.0,4095.0,2479.0,2800.0,2704.0,2.1,9.71,5.15,-0.02,-0.05,-0.16,d
2943.0,2000.0,1130.0,4048.0,4095.0,2477.0,2801.0,2707.0,2.2,9.66,5.22,-0.06,0.02,-0.14,d
2947.0,1981.0,1127.0,4080.0,4095.0,2480.0,2801.0,2709.0,2.25,9.92,5.26,-0.09,-0.0,-0.1,d
2951.0,1949.0,1127.0,4085.0,4095.0,2480.0,2801.0,2710.0,2.55,9.59,5.63,-0.08,0.02,-0.17,d
2949.0,1927.0,1129.0,4095.0,4095.0,2479.0,2804.0,2713.0,2.54,9.53,5.61,0.01,0.03,-0.21,d
2946.0,1910.0,1127.0,4095.0,4095.0,2479.0,2806.0,2715.0,2.21,9.42,5.6,-0.01,0.02,-0.22,d
2959.0,1934.0,1134.0,4095.0,4095.0,2475.0,2800.0,2709.0,1.98,9.48,5.61,-0.05,-0.02,-0.2,d
2943.0,1982.0,1147.0,4095.0,4095.0,2473.0,2806.0,2715.0,2.0,9.73,5.52,0.02,0.01,-0.15,d
2947.0,1962.0,1141.0,4095.0,4095.0,2470.0,2802.0,2717.0,2.37,9.72,5.45,-0.08,-0.05,-0.18,d
2951.0,1855.0,1135.0,4095.0,4095.0,2482.0,2822.0,2733.0,2.45,9.52,5.74,0.03,0.07,-0.23,d
2944.0,1707.0,1129.0,4095.0,4095.0,2486.0,2831.0,2739.0,1.95,9.5,5.51,0.06,0.07,-0.23,d
2953.0,1605.0,1120.0,4095.0,4095.0,2492.0,2834.0,2742.0,1.79,9.57,5.61,0.06,-0.03,-0.23,d
2956.0,1585.0,1109.0,4095.0,4095.0,2497.0,2835.0,2750.0,1.76,9.88,5.35,-0.02,0.04,-0.15,d
2946.0,1605.0,1110.0,4095.0,4095.0,2499.0,2842.0,2753.0,1.75,9.79,5.54,-0.02,-0.03,-0.14,d
2958.0,1620.0,1117.0,4095.0,4095.0,2505.0,2839.0,2752.0,1.74,9.62,5.6,0.01,0.08,-0.09,d
2950.0,1696.0,1108.0,4095.0,4095.0,2507.0,2845.0,2754.0,1.94,9.46,5.45,0.03,0.0,-0.15,d
2951.0,1861.0,1114.0,4095.0,4095.0,2501.0,2845.0,2753.0,1.88,9.64,5.59,-0.01,0.06,-0.11,d
2947.0,2097.0,1125.0,4095.0,4095.0,2495.0,2834.0,2749.0,1.83,9.51,5.74,0.23,-0.16,-0.23,d
2960.0,2358.0,1138.0,4095.0,4095.0,2480.0,2807.0,2722.0,2.47,9.89,4.95,0.51,-0.23,-0.35,d
2947.0,2390.0,1150.0,4095.0,4095.0,2482.0,2800.0,2689.0,2.09,9.78,4.87,0.3,-0.12,-0.35,d
2955.0,2337.0,1139.0,4095.0,4095.0,2491.0,2805.0,2700.0,1.53,10.03,4.7,0.04,-0.05,-0.18,d
2949.0,2233.0,1103.0,4095.0,4095.0,2491.0,2815.0,2710.0,1.49,9.64,5.08,-0.01,0.04,-0.03,d
2945.0,2119.0,1071.0,4095.0,4095.0,2493.0,2816.0,2726.0,1.83,9.67,5.15,-0.07,-0.06,-0.04,d
2955.0,1874.0,1057.0,4095.0,4095.0,2501.0,2828.0,2741.0,2.05,9.47,5.28,-0.12,-0.15,0.07,d
2954.0,1535.0,1049.0,4095.0,4095.0,2498.0,2831.0,2743.0,1.84,9.79,5.2,-0.11,-0.02,0.13,d
2949.0,1277.0,1049.0,4095.0,4095.0,2512.0,2837.0,2755.0,2.29,9.53,5.18,-0.1,0.1,0.1,d
2959.0,1253.0,1053.0,4095.0,4095.0,2512.0,2838.0,2752.0,2.42,9.65,5.2,-0.11,0.02,0.03,d
2953.0,1165.0,1047.0,4095.0,4095.0,2509.0,2835.0,2751.0,2.82,9.58,5.39,-0.02,0.05,-0.04,d
2959.0,1136.0,1056.0,4095.0,4095.0,2518.0,2848.0,2753.0,3.07,9.57,5.23,-0.06,0.03,-0.09,d
2947.0,1157.0,1045.0,4095.0,4095.0,2519.0,2849.0,2755.0,2.59,9.67,5.37,0.1,0.02,-0.17,d
2946.0,1223.0,1050.0,4095.0,4095.0,2526.0,2859.0,2755.0,2.35,9.59,5.2,-0.01,0.02,-0.07,d
2958.0,1277.0,1053.0,4095.0,4095.0,2529.0,2849.0,2756.0,2.28,9.67,5.25,-0.02,0.03,-0.02,d
2945.0,1276.0,1053.0,4095.0,4095.0,2531.0,2855.0,2755.0,2.77,9.44,5.42,-0.09,0.06,0.02,d
2947.0,1267.0,1057.0,4095.0,4095.0,2530.0,2860.0,2759.0,3.07,9.42,5.55,0.03,0.02,-0.12,d
2949.0,1223.0,1052.0,4095.0,4095.0,2530.0,2858.0,2757.0,3.08,9.52,5.38,-0.04,0.08,-0.25,d
2947.0,1210.0,1054.0,4095.0,4095.0,2531.0,2858.0,2760.0,2.7,9.5,5.56,0.01,0.0,-0.34,d
2949.0,1193.0,1059.0,4095.0,4095.0,2529.0,2859.0,2758.0,2.53,9.49,5.43,0.01,0.01,-0.3,d
2953.0,1169.0,1055.0,4095.0,4095.0,2528.0,2853.0,2759.0,2.26,9.52,5.45,0.03,-0.11,-0.34,d
2946.0,1111.0,1065.0,4095.0,4095.0,2530.0,2861.0,2760.0,2.19,9.62,5.32,0.01,-0.07,-0.31,d
2953.0,1094.0,1059.0,4095.0,4095.0,2523.0,2851.0,2754.0,2.46,9.63,5.23,-0.02,-0.13,-0.24,d
2944.0,1130.0,1068.0,4095.0,4095.0,2521.0,2853.0,2755.0,2.38,9.69,5.52,-0.01,-0.03,-0.27,d
2946.0,1175.0,1056.0,4095.0,4095.0,2517.0,2850.0,2754.0,2.28,9.69,5.51,0.01,0.01,-0.28,d
2941.0,1216.0,1058.0,4095.0,4095.0,2509.0,2851.0,2755.0,2.34,9.44,5.6,0.04,-0.0,-0.33,d
2945.0,1287.0,1065.0,4095.0,4095.0,2487.0,2849.0,2751.0,2.23,9.68,5.35,0.02,0.07,-0.37,d
2945.0,1377.0,1072.0,4095.0,4095.0,2478.0,2847.0,2753.0,1.86,9.54,5.61,0.03,0.15,-0.52,d
2960.0,1666.0,1072.0,4095.0,4095.0,2463.0,2842.0,2745.0,1.09,9.58,5.39,0.09,0.11,-0.62,d
2955.0,1905.0,1069.0,4095.0,4095.0,2459.0,2838.0,2745.0,0.59,9.79,5.27,-0.05,0.01,-0.3,d
2949.0,2129.0,1058.0,4095.0,4095.0,2448.0,2835.0,2736.0,1.19,9.71,5.55,-0.07,-0.09,-0.18,d
2948.0,2246.0,1046.0,4095.0,4095.0,2461.0,2834.0,2736.0,1.73,9.7,5.69,-0.02,-0.02,-0.12,d
2954.0,2431.0,1056.0,4095.0,4095.0,2473.0,2835.0,2736.0,2.22,9.69,5.54,0.14,-0.05,-0.21,d
2947.0,2691.0,1073.0,4095.0,4095.0,2480.0,2822.0,2725.0,1.17,10.13,5.24,0.22,0.13,-0.25,d
2944.0,2957.0,1095.0,4095.0,4095.0,2458.0,2800.0,2707.0,1.24,9.56,5.31,-0.05,-0.19,-0.2,d
2944.0,3205.0,1107.0,4095.0,4095.0,2461.0,2800.0,2709.0,1.31,9.8,5.48,-0.02,-0.05,-0.22,d
2949.0,3321.0,1114.0,4095.0,4095.0,2457.0,2803.0,2717.0,1.49,9.96,5.16,-0.11,-0.1,-0.14,d
2957.0,3391.0,1127.0,4095.0,4095.0,2448.0,2799.0,2716.0,1.23,9.78,5.79,-0.04,0.01,-0.14,d
2941.0,3441.0,1119.0,4095.0,4095.0,2430.0,2762.0,2703.0,1.38,9.75,5.67,0.04,0.03,-0.15,d
2951.0,3357.0,1127.0,4095.0,4095.0,2441.0,2781.0,2713.0,1.35,9.75,5.78,0.03,0.07,-0.19,d
2951.0,3278.0,1134.0,4095.0,4095.0,2457.0,2801.0,2725.0,1.17,9.77,5.48,0.01,0.01,-0.15,d
2948.0,3196.0,1129.0,4095.0,4095.0,2457.0,2815.0,2736.0,1.33,9.77,5.26,0.03,0.07,-0.13,d
2960.0,3120.0,1099.0,4095.0,4095.0,2463.0,2821.0,2743.0,1.37,9.73,5.32,-0.05,0.08,-0.14,d
2943.0,3061.0,1093.0,4095.0,4095.0,2467.0,2832.0,2762.0,1.42,9.67,5.45,-0.04,0.04,-0.14,d
2955.0,3054.0,1104.0,4095.0,4095.0,2463.0,2832.0,2762.0,1.24,9.75,5.4,-0.13,-0.0,-0.09,d
2943.0,3110.0,1104.0,4095.0,4095.0,2462.0,2833.0,2763.0,1.72,9.73,5.37,-0.17,0.04,-0.06,d
2951.0,3201.0,1114.0,4095.0,4095.0,2471.0,2832.0,2767.0,1.51,9.71,6.01,-0.19,0.12,-0.11,d
2950.0,3345.0,1120.0,4095.0,4095.0,2480.0,2839.0,2774.0,1.67,9.64,6.17,-0.12,0.03,-0.16,d
2955.0,3461.0,1057.0,4095.0,4095.0,2491.0,2878.0,2787.0,1.27,9.49,6.26,-0.1,0.07,-0.15,d
2954.0,3492.0,1018.0,4095.0,4095.0,2509.0,2928.0,2817.0,1.26,9.36,6.3,0.04,0.0,-0.22,d
2947.0,3503.0,1008.0,4095.0,4095.0,2513.0,2931.0,2832.0,1.18,9.6,5.87,0.06,-0.01,-0.18,d
2957.0,3567.0,1011.0,4095.0,4095.0,2519.0,2928.0,2832.0,1.22,9.54,5.87,0.03,-0.07,-0.2,d
2950.0,3606.0,1023.0,4095.0,4095.0,2527.0,2922.0,2834.0,1.29,9.69,6.09,-0.02,-0.03,-0.15,d
2950.0,3603.0,1041.0,4095.0,4095.0,2532.0,2928.0,2832.0,1.57,9.6,6.06,-0.07,0.0,-0.22,d
2943.0,3542.0,1071.0,4095.0,4095.0,2530.0,2923.0,2836.0,1.37,9.56,6.31,0.06,-0.02,-0.25,d
2952.0,3440.0,1063.0,4095.0,4095.0,2531.0,2928.0,2841.0,0.74,9.68,5.84,0.06,-0.06,-0.19,d
2956.0,3359.0,1022.0,4095.0,4095.0,2540.0,2949.0,2849.0,1.05,9.59,6.04,0.07,-0.03,-0.12,d
2947.0,3189.0,1001.0,4095.0,4095.0,2541.0,2951.0,2850.0,1.48,9.72,5.87,-0.0,-0.01,-0.06,d
2943.0,3002.0,1009.0,4095.0,4095.0,2535.0,2957.0,2845.0,1.34,9.72,5.98,0.04,0.09,-0.08,d
2951.0,2624.0,1123.0,4095.0,4095.0,2544.0,2955.0,2834.0,1.6,9.69,6.04,0.07,0.0,-0.12,d
2946.0,2602.0,1940.0,4095.0,4095.0,2541.0,2951.0,2830.0,1.47,9.8,5.84,0.13,0.11,-0.13,d
2954.0,2662.0,1990.0,4095.0,4095.0,2537.0,2947.0,2832.0,1.64,9.62,5.76,0.05,-0.02,-0.15,d
2951.0,2729.0,1875.0,4095.0,4095.0,2544.0,2947.0,2841.0,1.47,9.61,5.84,0.03,0.07,-0.19,d
2939.0,2694.0,1930.0,4095.0,4095.0,2541.0,2947.0,2831.0,1.0,9.75,5.99,0.07,0.07,-0.17,d
2946.0,2762.0,1987.0,4095.0,4095.0,2542.0,2951.0,2835.0,1.36,9.67,5.66,0.04,-0.04,-0.21,d
2944.0,2859.0,1915.0,4095.0,4095.0,2542.0,2950.0,2846.0,1.61,9.64,5.85,0.06,-0.02,-0.23,d
2954.0,2991.0,1568.0,4095.0,4095.0,2544.0,2943.0,2845.0,1.54,9.74,5.69,-0.04,0.03,-0.28,d
2942.0,3227.0,1303.0,4095.0,4095.0,2544.0,2946.0,2861.0,0.89,9.72,5.95,0.02,0.08,-0.29,d
2943.0,3402.0,1334.0,4095.0,4095.0,2544.0,2944.0,2867.0,0.8,9.67,5.78,0.01,-0.02,-0.23,d
2950.0,3502.0,1344.0,4095.0,4095.0,2544.0,2934.0,2864.0,0.96,9.62,5.67,-0.02,-0.01,-0.22,d
2960.0,3555.0,1357.0,4095.0,4095.0,2537.0,2925.0,2853.0,1.04,9.67,5.87,0.02,0.03,-0.26,d
2950.0,3618.0,1369.0,4095.0,4095.0,2531.0,2910.0,2845.0,1.28,9.68,5.72,0.07,-0.05,-0.32,d
2956.0,3693.0,1372.0,4095.0,4095.0,2528.0,2902.0,2834.0,1.03,9.68,5.78,0.08,-0.08,-0.43,d
2959.0,3743.0,1370.0,4095.0,4095.0,2530.0,2896.0,2832.0,0.54,9.83,5.68,0.03,-0.12,-0.35,d
2960.0,3782.0,1365.0,4095.0,4095.0,2531.0,2893.0,2832.0,0.21,9.65,5.95,0.02,0.04,-0.2,d
2957.0,3837.0,1358.0,4095.0,4095.0,2537.0,2889.0,2833.0,0.22,9.51,6.01,0.11,0.01,-0.3,d
2949.0,3873.0,1365.0,4095.0,4095.0,2538.0,2886.0,2832.0,0.48,9.6,5.9,0.07,-0.22,-0.21,d
2946.0,3892.0,1365.0,4095.0,4095.0,2533.0,2875.0,2819.0,0.85,9.88,5.59,0.06,-0.1,-0.22,d
2953.0,3892.0,1374.0,4095.0,4095.0,2532.0,2874.0,2815.0,0.78,9.92,5.42,-0.06,-0.02,-0.23,d
2955.0,3909.0,1367.0,4095.0,4095.0,2530.0,2869.0,2813.0,0.69,9.69,5.85,0.02,-0.05,-0.21,d
2947.0,3948.0,1368.0,4095.0,4095.0,2531.0,2864.0,2808.0,0.86,9.83,5.58,0.03,-0.22,-0.24,d
2949.0,3977.0,1368.0,4095.0,4095.0,2529.0,2866.0,2806.0,0.41,9.77,5.58,0.05,-0.26,-0.24,d
2949.0,3952.0,1365.0,4095.0,4095.0,2532.0,2865.0,2805.0,-0.02,9.74,5.54,0.06,0.02,-0.18,d
2955.0,4020.0,1363.0,4095.0,4095.0,2530.0,2859.0,2800.0,0.39,9.81,5.5,0.02,-0.23,-0.18,d
2955.0,4016.0,1366.0,4095.0,4095.0,2527.0,2857.0,2800.0,1.19,9.83,5.63,0.04,-0.23,-0.12,d
2949.0,4048.0,1389.0,4095.0,4095.0,2527.0,2852.0,2791.0,0.7,9.87,5.59,-0.03,-0.24,-0.26,d
2951.0,4017.0,1379.0,4095.0,4095.0,2528.0,2853.0,2794.0,0.66,9.71,5.86,0.07,-0.22,-0.25,d
2943.0,4043.0,1377.0,4095.0,4095.0,2524.0,2849.0,2791.0,-0.09,9.81,5.79,0.15,-0.46,-0.18,d
2955.0,4076.0,1377.0,4095.0,4095.0,2528.0,2854.0,2799.0,0.52,9.91,5.2,0.05,-0.08,-0.21,d
2955.0,4085.0,1377.0,4095.0,4095.0,2527.0,2851.0,2799.0,0.83,9.82,5.32,-0.01,0.12,-0.16,d
2943.0,4075.0,1377.0,4095.0,4095.0,2513.0,2843.0,2800.0,0.13,9.66,5.21,-0.09,0.9,-0.07,d
2959.0,4080.0,1374.0,4095.0,4095.0,2513.0,2842.0,2797.0,0.4,9.68,5.25,-0.15,0.94,-0.03,d
2945.0,4091.0,1381.0,4095.0,4095.0,2510.0,2839.0,2791.0,-0.53,9.48,5.71,-0.14,0.93,0.03,d
2940.0,4095.0,1385.0,4095.0,4095.0,2498.0,2833.0,2797.0,1.05,9.87,5.43,-0.06,0.68,-0.03,d
2959.0,4071.0,1389.0,4095.0,4095.0,2502.0,2834.0,2786.0,0.64,9.93,5.87,-0.03,0.76,-0.1,d
2955.0,4095.0,1389.0,4095.0,4095.0,2486.0,2830.0,2768.0,0.62,10.02,5.8,-0.05,0.96,-0.22,d
2946.0,4095.0,1390.0,4095.0,4095.0,2480.0,2821.0,2768.0,0.16,9.78,5.63,-0.09,0.91,-0.1,d
2946.0,4095.0,1390.0,4095.0,4095.0,2469.0,2818.0,2763.0,-0.23,9.91,5.88,-0.17,0.77,-0.09,d
2958.0,4095.0,1399.0,4094.0,4095.0,2457.0,2800.0,2741.0,-0.24,9.57,6.54,-0.12,0.33,-0.09,d
2949.0,4095.0,1408.0,4095.0,4095.0,2446.0,2783.0,2733.0,0.07,9.36,6.51,0.06,-0.25,-0.06,d
