hall_1,hall_2,hall_3,flex_t,flex_i,flex_m,flex_r,flex_p,accel_x,accel_y,accel_z,gyro_x,gyro_y,gyro_z,hand,sign
3056.0,4095.0,1184.0,3505.0,4095.0,2381.0,2624.0,2495.0,0.22,9.56,6.77,0.02,0.0,-0.19,0.0,d
3055.0,4095.0,1179.0,3499.0,4095.0,2366.0,2615.0,2489.0,0.15,9.61,6.77,0.03,0.01,-0.18,0.0,d
3042.0,4095.0,1184.0,3505.0,4095.0,2368.0,2618.0,2494.0,0.11,9.6,6.76,0.01,0.03,-0.16,0.0,d
3056.0,4095.0,1190.0,3515.0,4095.0,2370.0,2622.0,2493.0,0.17,9.59,6.66,0.05,0.02,-0.16,0.0,d
3053.0,4095.0,1182.0,3504.0,4095.0,2374.0,2635.0,2502.0,-0.03,9.59,6.71,0.02,0.0,-0.16,0.0,d
3039.0,4095.0,1191.0,3488.0,4095.0,2374.0,2626.0,2499.0,0.18,9.61,6.74,0.01,0.01,-0.14,0.0,d
3053.0,4095.0,1186.0,3505.0,4095.0,2369.0,2623.0,2498.0,0.12,9.63,6.75,0.02,0.0,-0.16,0.0,d
3051.0,4095.0,1184.0,3510.0,4095.0,2369.0,2624.0,2497.0,0.07,9.58,6.59,0.04,0.01,-0.14,0.0,d
3056.0,4095.0,1195.0,3524.0,4095.0,2375.0,2624.0,2506.0,-0.04,9.56,6.75,0.02,0.01,-0.14,0.0,d
3050.0,4095.0,1187.0,3518.0,4095.0,2373.0,2626.0,2503.0,0.27,9.43,6.67,-0.02,0.02,-0.12,0.0,d
3051.0,4095.0,1174.0,3516.0,4095.0,2380.0,2627.0,2502.0,0.21,9.72,6.67,0.11,0.03,-0.05,0.0,d
3051.0,4095.0,1199.0,3519.0,4095.0,2382.0,2629.0,2508.0,0.28,9.66,6.28,0.04,0.02,-0.2,0.0,d
3040.0,4095.0,1187.0,3515.0,4095.0,2380.0,2629.0,2508.0,-0.16,9.6,6.75,0.03,0.01,-0.13,0.0,d
3051.0,4095.0,1190.0,3507.0,4095.0,2383.0,2626.0,2502.0,0.38,9.74,6.38,0.07,0.0,-0.14,0.0,d
3055.0,4095.0,1193.0,3522.0,4095.0,2379.0,2633.0,2501.0,0.02,9.33,6.49,-0.09,0.04,-0.18,0.0,d
3042.0,4095.0,1197.0,3518.0,4095.0,2384.0,2638.0,2502.0,0.46,9.59,6.81,-0.13,-0.01,-0.14,0.0,d
3043.0,4095.0,1195.0,3518.0,4095.0,2383.0,2630.0,2509.0,0.24,9.83,6.97,-0.0,-0.04,-0.2,0.0,d
3056.0,4095.0,1198.0,3520.0,4095.0,2386.0,2638.0,2512.0,0.33,9.56,6.43,0.08,-0.09,-0.21,0.0,d
3047.0,4095.0,1189.0,3518.0,4095.0,2383.0,2641.0,2506.0,0.31,9.42,6.49,0.03,-0.03,-0.19,0.0,d
3046.0,4095.0,1190.0,3475.0,4095.0,2384.0,2641.0,2512.0,0.04,9.74,6.4,0.06,-0.06,-0.15,0.0,d
3037.0,4095.0,1193.0,3530.0,4095.0,2381.0,2643.0,2517.0,-0.26,9.94,6.8,-0.04,0.14,-0.12,0.0,d
3043.0,4095.0,1195.0,3511.0,4095.0,2377.0,2647.0,2510.0,0.31,9.42,6.68,0.04,0.07,-0.12,0.0,d
3040.0,4095.0,1189.0,3504.0,4095.0,2384.0,2649.0,2498.0,0.21,9.63,6.49,0.08,0.03,-0.14,0.0,d
3040.0,4095.0,1193.0,3520.0,4095.0,2384.0,2655.0,2522.0,-0.07,9.67,6.65,0.04,0.1,-0.16,0.0,d
3047.0,4095.0,1197.0,3502.0,4095.0,2387.0,2654.0,2512.0,0.06,9.79,6.13,0.07,0.04,-0.1,0.0,d
3056.0,4095.0,1200.0,3515.0,4095.0,2384.0,2652.0,2511.0,-0.19,9.63,6.28,-0.0,0.03,-0.19,0.0,d
3052.0,4095.0,1194.0,3514.0,4095.0,2383.0,2650.0,2515.0,0.34,9.89,6.33,-0.01,0.0,-0.12,0.0,d
3047.0,4095.0,1194.0,3522.0,4095.0,2387.0,2654.0,2512.0,0.14,9.45,6.4,0.02,-0.09,-0.29,0.0,d
3056.0,4095.0,1205.0,3511.0,4095.0,2389.0,2652.0,2518.0,-0.27,9.88,6.73,-0.08,0.11,-0.2,0.0,d
3056.0,4095.0,1200.0,3517.0,4095.0,2374.0,2654.0,2514.0,-0.13,9.56,6.52,0.16,0.06,-0.19,0.0,d
3056.0,4095.0,1199.0,3519.0,4095.0,2390.0,2646.0,2512.0,-0.23,9.52,6.2,-0.01,0.04,-0.2,0.0,d
3047.0,4095.0,1198.0,3520.0,4095.0,2387.0,2641.0,2517.0,-0.53,9.53,6.62,-0.01,0.02,-0.16,0.0,d
3051.0,4095.0,1201.0,3515.0,4095.0,2352.0,2657.0,2512.0,-0.15,9.59,6.32,0.01,-0.02,-0.13,0.0,d
3041.0,4095.0,1197.0,3531.0,4095.0,2389.0,2666.0,2512.0,-0.18,9.58,6.47,-0.02,-0.01,-0.13,0.0,d
3055.0,4095.0,1194.0,3527.0,4095.0,2385.0,2656.0,2515.0,-0.3,9.69,6.53,-0.02,-0.0,-0.14,0.0,d
3050.0,4095.0,1200.0,3517.0,4095.0,2384.0,2659.0,2512.0,-0.21,9.63,6.58,0.02,-0.01,-0.12,0.0,d
3056.0,4095.0,1187.0,3516.0,4095.0,2375.0,2662.0,2512.0,-0.08,9.62,6.47,0.03,0.0,-0.12,0.0,d
3055.0,4095.0,1201.0,3529.0,4095.0,2380.0,2661.0,2518.0,-0.1,9.63,6.49,-0.0,0.0,-0.14,0.0,d
3055.0,4095.0,1199.0,3542.0,4095.0,2378.0,2662.0,2530.0,0.02,9.68,6.49,-0.01,0.01,-0.15,0.0,d
3056.0,4095.0,1197.0,3542.0,4095.0,2377.0,2671.0,2537.0,-0.18,9.66,6.39,0.02,-0.02,-0.18,0.0,d
3056.0,4095.0,1195.0,3535.0,4095.0,2372.0,2671.0,2543.0,-0.22,9.6,6.53,-0.01,0.01,-0.16,0.0,d
3055.0,4095.0,1198.0,3536.0,4095.0,2367.0,2673.0,2538.0,-0.18,9.57,6.4,0.03,-0.03,-0.15,0.0,d
3056.0,4095.0,1194.0,3539.0,4095.0,2379.0,2672.0,2534.0,-0.28,9.64,6.54,0.0,-0.0,-0.12,0.0,d
3055.0,4095.0,1188.0,3529.0,4095.0,2374.0,2672.0,2535.0,-0.17,9.73,6.58,0.02,-0.0,-0.13,0.0,d
3054.0,4095.0,1200.0,3536.0,4095.0,2379.0,2678.0,2534.0,-0.04,9.66,6.63,-0.0,0.0,-0.16,0.0,d
3043.0,4095.0,1191.0,3536.0,4095.0,2374.0,2673.0,2534.0,-0.1,9.65,6.4,0.06,-0.01,-0.17,0.0,d
3056.0,4095.0,1189.0,3543.0,4095.0,2359.0,2673.0,2539.0,-0.25,9.65,6.41,-0.0,-0.01,-0.18,0.0,d
3052.0,4095.0,1200.0,3542.0,4095.0,2381.0,2637.0,2537.0,-0.23,9.62,6.46,-0.01,-0.01,-0.16,0.0,d
3056.0,4095.0,1195.0,3554.0,4095.0,2383.0,2676.0,2544.0,-0.09,9.65,6.45,0.02,-0.02,-0.15,0.0,d
3046.0,4095.0,1199.0,3552.0,4095.0,2350.0,2682.0,2542.0,-0.25,9.62,6.61,0.01,-0.01,-0.14,0.0,d
3055.0,4095.0,1189.0,3557.0,4095.0,2378.0,2687.0,2544.0,-0.14,9.63,6.45,0.0,0.01,-0.14,0.0,d
3051.0,4095.0,1200.0,3550.0,4095.0,2365.0,2688.0,2539.0,-0.27,9.61,6.52,0.01,-0.01,-0.16,0.0,d
3059.0,4095.0,1192.0,3554.0,4095.0,2381.0,2684.0,2536.0,-0.09,9.59,6.39,-0.01,-0.05,-0.12,0.0,d
3051.0,4095.0,1187.0,3555.0,4095.0,2379.0,2685.0,2537.0,-0.21,9.7,6.57,0.01,-0.03,-0.15,0.0,d
3037.0,4095.0,1182.0,3547.0,4095.0,2379.0,2683.0,2541.0,-0.07,9.63,6.53,0.02,-0.03,-0.16,0.0,d
3046.0,4095.0,1186.0,3552.0,4095.0,2378.0,2687.0,2542.0,-0.23,9.6,6.56,0.01,-0.02,-0.15,0.0,d
3056.0,4095.0,1190.0,3548.0,4095.0,2373.0,2682.0,2551.0,-0.15,9.6,6.62,0.02,-0.0,-0.12,0.0,d
3043.0,4095.0,1196.0,3557.0,4095.0,2378.0,2684.0,2542.0,-0.05,9.66,6.55,0.01,0.02,-0.14,0.0,d
3067.0,4095.0,1200.0,3568.0,4095.0,2373.0,2686.0,2543.0,-0.13,9.66,6.58,0.01,-0.01,-0.16,0.0,d
3051.0,4095.0,1198.0,3568.0,4095.0,2384.0,2688.0,2544.0,0.14,9.6,6.49,-0.01,-0.0,-0.15,0.0,d
3063.0,4095.0,1199.0,3539.0,4095.0,2375.0,2686.0,2546.0,-0.25,9.62,6.59,0.03,-0.04,-0.19,0.0,d
3056.0,4095.0,1184.0,3561.0,4095.0,2382.0,2689.0,2553.0,-0.12,9.63,6.6,0.01,-0.02,-0.15,0.0,d
3046.0,4095.0,1183.0,3553.0,4095.0,2378.0,2689.0,2543.0,-0.17,9.65,6.54,0.02,-0.01,-0.15,0.0,d
3055.0,4095.0,1195.0,3551.0,4095.0,2387.0,2692.0,2534.0,-0.13,9.58,6.62,-0.02,0.01,-0.15,0.0,d
3041.0,4095.0,1199.0,3563.0,4095.0,2390.0,2697.0,2544.0,-0.18,9.62,6.59,0.03,0.01,-0.14,0.0,d
3055.0,4095.0,1194.0,3554.0,4095.0,2386.0,2689.0,2554.0,-0.18,9.62,6.64,-0.0,0.01,-0.15,0.0,d
3049.0,4095.0,1195.0,3558.0,4095.0,2383.0,2695.0,2553.0,-0.14,9.63,6.58,0.01,-0.0,-0.13,0.0,d
3055.0,4095.0,1195.0,3562.0,4095.0,2389.0,2702.0,2554.0,-0.07,9.66,6.63,0.01,-0.0,-0.14,0.0,d
3055.0,4095.0,1200.0,3556.0,4095.0,2384.0,2709.0,2556.0,-0.11,9.62,6.58,-0.0,-0.02,-0.17,0.0,d
3054.0,4095.0,1187.0,3551.0,4095.0,2386.0,2693.0,2558.0,-0.16,9.66,6.52,0.03,-0.03,-0.15,0.0,d
3050.0,4095.0,1190.0,3568.0,4095.0,2391.0,2701.0,2544.0,-0.18,9.58,6.68,-0.0,0.01,-0.14,0.0,d
3051.0,4095.0,1198.0,3567.0,4095.0,2381.0,2697.0,2544.0,-0.03,9.62,6.42,-0.01,-0.01,-0.13,0.0,d
3055.0,4095.0,1200.0,3565.0,4095.0,2384.0,2700.0,2546.0,-0.2,9.64,6.78,0.02,0.02,-0.14,0.0,d
3045.0,4095.0,1200.0,3559.0,4095.0,2391.0,2693.0,2555.0,-0.05,9.65,6.5,0.02,-0.02,-0.15,0.0,d
3056.0,4095.0,1194.0,3571.0,4095.0,2381.0,2693.0,2559.0,-0.09,9.6,6.57,0.01,-0.01,-0.15,0.0,d
3062.0,4095.0,1202.0,3571.0,4095.0,2384.0,2699.0,2559.0,-0.11,9.64,6.72,-0.0,0.02,-0.13,0.0,d
3056.0,4095.0,1197.0,3562.0,4095.0,2381.0,2706.0,2559.0,0.02,9.67,6.59,0.02,-0.0,-0.14,0.0,d
3044.0,4095.0,1197.0,3574.0,4095.0,2385.0,2706.0,2580.0,-0.1,9.64,6.61,0.02,-0.01,-0.15,0.0,d
3057.0,4095.0,1200.0,3569.0,4095.0,2385.0,2704.0,2559.0,-0.07,9.62,6.56,0.01,-0.03,-0.14,0.0,d
3057.0,4095.0,1203.0,3559.0,4095.0,2387.0,2707.0,2583.0,0.01,9.63,6.64,0.02,0.01,-0.13,0.0,d
3056.0,4095.0,1191.0,3564.0,4095.0,2385.0,2706.0,2583.0,-0.06,9.63,6.62,0.02,-0.0,-0.15,0.0,d
3043.0,4095.0,1193.0,3554.0,4095.0,2397.0,2707.0,2559.0,-0.04,9.64,6.68,0.02,0.0,-0.15,0.0,d
3054.0,4095.0,1193.0,3557.0,4095.0,2387.0,2704.0,2581.0,-0.06,9.64,6.58,0.03,-0.01,-0.15,0.0,d
3039.0,4095.0,1197.0,3573.0,4095.0,2384.0,2705.0,2579.0,-0.01,9.65,6.64,0.02,0.01,-0.15,0.0,d
3043.0,4095.0,1193.0,3521.0,4095.0,2389.0,2705.0,2581.0,-0.04,9.63,6.6,0.02,0.0,-0.16,0.0,d
3055.0,4095.0,1195.0,3565.0,4095.0,2390.0,2711.0,2589.0,-0.02,9.57,6.6,0.02,-0.01,-0.17,0.0,d
3045.0,4095.0,1201.0,3574.0,4095.0,2386.0,2704.0,2585.0,-0.02,9.63,6.53,0.02,0.01,-0.13,0.0,d
3043.0,4095.0,1200.0,3558.0,4095.0,2390.0,2704.0,2590.0,-0.1,9.64,6.63,0.01,0.01,-0.17,0.0,d
3051.0,4095.0,1193.0,3578.0,4095.0,2393.0,2703.0,2598.0,-0.16,9.62,6.51,0.03,-0.01,-0.14,0.0,d
3025.0,988.0,1230.0,3536.0,4095.0,2335.0,2786.0,2579.0,-0.26,9.72,6.24,0.02,-0.01,-0.15,0.0,d
3018.0,987.0,1222.0,3546.0,4095.0,2339.0,2783.0,2585.0,-0.38,9.7,6.05,0.01,-0.0,-0.16,0.0,d
3024.0,993.0,1227.0,3549.0,4095.0,2336.0,2781.0,2590.0,-0.28,9.71,6.17,0.02,0.01,-0.14,0.0,d
3027.0,986.0,1223.0,3551.0,4095.0,2332.0,2775.0,2559.0,-0.4,9.76,6.18,0.02,-0.01,-0.16,0.0,d
3020.0,984.0,1232.0,3549.0,4095.0,2338.0,2783.0,2580.0,-0.27,9.66,6.2,0.03,0.0,-0.16,0.0,d
3014.0,985.0,1231.0,3558.0,4095.0,2339.0,2779.0,2559.0,-0.35,9.68,6.17,0.02,0.0,-0.16,0.0,d
3024.0,986.0,1226.0,3561.0,4095.0,2342.0,2782.0,2581.0,-0.34,9.67,6.11,-0.01,-0.01,-0.15,0.0,d
3024.0,981.0,1230.0,3559.0,4095.0,2345.0,2786.0,2589.0,-0.35,9.74,6.1,0.0,-0.02,-0.14,0.0,d
3026.0,990.0,1232.0,3553.0,4095.0,2342.0,2781.0,2580.0,-0.34,9.74,6.13,0.01,-0.0,-0.15,0.0,d
3019.0,988.0,1216.0,3550.0,4095.0,2337.0,2783.0,2586.0,-0.32,9.77,6.05,-0.0,0.03,-0.14,0.0,d
3023.0,995.0,1219.0,3558.0,4095.0,2346.0,2787.0,2585.0,-0.29,9.69,6.26,0.0,0.04,-0.14,0.0,d
3018.0,1006.0,1223.0,3557.0,4095.0,2341.0,2783.0,2591.0,-0.14,9.74,6.08,0.03,-0.01,-0.15,0.0,d
3013.0,1023.0,1227.0,3565.0,4095.0,2350.0,2789.0,2582.0,-0.33,9.68,6.05,-0.0,-0.03,-0.16,0.0,d
3038.0,1047.0,1215.0,3566.0,4095.0,2337.0,2794.0,2591.0,-0.4,9.74,6.14,0.0,-0.02,-0.14,0.0,d
3027.0,1049.0,1214.0,3574.0,4095.0,2339.0,2794.0,2601.0,-0.29,9.69,6.07,0.0,-0.01,-0.16,0.0,d
3024.0,1040.0,1206.0,3568.0,4095.0,2341.0,2783.0,2594.0,-0.34,9.71,6.18,-0.0,-0.02,-0.14,0.0,d
3024.0,1039.0,1206.0,3573.0,4095.0,2333.0,2782.0,2597.0,-0.42,9.78,6.19,-0.0,0.01,-0.15,0.0,d
3031.0,1043.0,1207.0,3570.0,4095.0,2336.0,2791.0,2599.0,-0.33,9.78,6.05,0.03,0.01,-0.16,0.0,d
3028.0,1039.0,1222.0,3571.0,4095.0,2343.0,2789.0,2599.0,-0.27,9.63,6.11,0.0,0.02,-0.15,0.0,d
3024.0,1035.0,1213.0,3575.0,4095.0,2339.0,2788.0,2599.0,-0.32,9.77,6.14,0.02,-0.01,-0.15,0.0,d
3024.0,1023.0,1207.0,3598.0,4095.0,2340.0,2794.0,2608.0,-0.33,9.77,6.16,0.02,-0.0,-0.16,0.0,d
3031.0,1022.0,1205.0,3583.0,4095.0,2341.0,2791.0,2608.0,-0.28,9.66,6.22,0.03,0.01,-0.17,0.0,d
3025.0,1035.0,1200.0,3581.0,4095.0,2351.0,2793.0,2597.0,-0.43,9.77,5.87,-0.04,0.02,-0.13,0.0,d
3013.0,1039.0,1216.0,3598.0,4095.0,2348.0,2795.0,2604.0,-0.22,9.68,6.31,0.04,-0.01,-0.16,0.0,d
3019.0,1045.0,1201.0,3600.0,4095.0,2347.0,2793.0,2607.0,-0.38,9.76,6.09,0.03,-0.01,-0.16,0.0,d
3023.0,1054.0,1210.0,3583.0,4095.0,2347.0,2800.0,2606.0,-0.4,9.69,6.13,0.01,0.02,-0.16,0.0,d
3026.0,1043.0,1210.0,3615.0,4095.0,2350.0,2798.0,2609.0,-0.38,9.72,6.13,0.02,0.0,-0.14,0.0,d
3025.0,1040.0,1216.0,3611.0,4095.0,2352.0,2802.0,2617.0,-0.45,9.76,6.14,-0.01,0.0,-0.15,0.0,d
3023.0,1051.0,1220.0,3600.0,4095.0,2352.0,2795.0,2617.0,-0.32,9.72,6.08,0.02,0.0,-0.16,0.0,d
3028.0,1035.0,1209.0,3620.0,4095.0,2347.0,2800.0,2610.0,-0.4,9.7,6.1,0.01,-0.01,-0.16,0.0,d
3024.0,1034.0,1213.0,3622.0,4095.0,2352.0,2800.0,2607.0,-0.39,9.73,6.05,0.03,-0.01,-0.15,0.0,d
3019.0,1041.0,1216.0,3583.0,4095.0,2352.0,2800.0,2613.0,-0.32,9.7,6.01,0.02,-0.02,-0.16,0.0,d
3023.0,1041.0,1217.0,3600.0,4095.0,2349.0,2800.0,2613.0,-0.38,9.69,6.09,0.01,-0.03,-0.16,0.0,d
3024.0,1040.0,1217.0,3618.0,4095.0,2352.0,2805.0,2615.0,-0.39,9.7,6.13,-0.0,0.01,-0.14,0.0,d
3020.0,1052.0,1216.0,3617.0,4095.0,2347.0,2797.0,2618.0,-0.3,9.76,6.05,0.02,-0.0,-0.15,0.0,d
3029.0,1042.0,1212.0,3619.0,4095.0,2346.0,2798.0,2619.0,-0.35,9.79,5.92,0.01,-0.01,-0.15,0.0,d
3024.0,1042.0,1211.0,3630.0,4095.0,2351.0,2800.0,2611.0,-0.27,9.68,6.05,0.01,-0.01,-0.16,0.0,d
3029.0,1043.0,1206.0,3621.0,4095.0,2345.0,2800.0,2608.0,-0.4,9.72,6.02,0.01,-0.04,-0.16,0.0,d
3028.0,1046.0,1207.0,3619.0,4095.0,2358.0,2799.0,2610.0,-0.41,9.75,6.07,0.02,-0.01,-0.15,0.0,d
3021.0,1053.0,1218.0,3620.0,4095.0,2346.0,2799.0,2611.0,-0.46,9.71,6.15,0.03,0.01,-0.15,0.0,d
3022.0,1063.0,1203.0,3617.0,4095.0,2347.0,2800.0,2615.0,-0.32,9.77,5.93,0.03,-0.02,-0.17,0.0,d
3015.0,942.0,1087.0,3216.0,4095.0,2368.0,2510.0,2322.0,0.96,9.74,6.56,0.01,0.0,-0.15,0.0,d
3019.0,942.0,1083.0,3207.0,4095.0,2371.0,2507.0,2325.0,0.95,9.63,6.6,0.01,0.0,-0.16,0.0,d
3024.0,934.0,1082.0,3215.0,4095.0,2375.0,2502.0,2327.0,0.92,9.62,6.62,0.03,-0.02,-0.16,0.0,d
3009.0,947.0,1085.0,3216.0,4095.0,2382.0,2506.0,2327.0,1.02,9.79,6.62,-0.03,0.08,-0.13,0.0,d
3015.0,943.0,1079.0,3216.0,4095.0,2379.0,2508.0,2336.0,0.86,9.67,6.58,0.03,0.05,-0.14,0.0,d
3015.0,938.0,1070.0,3217.0,4095.0,2379.0,2512.0,2336.0,0.8,9.54,6.62,0.03,0.01,-0.16,0.0,d
3011.0,951.0,1070.0,3216.0,4095.0,2384.0,2512.0,2333.0,0.84,9.65,6.61,0.01,0.05,-0.15,0.0,d
3010.0,932.0,1071.0,3210.0,4095.0,2382.0,2507.0,2336.0,1.03,9.63,6.57,0.01,-0.01,-0.17,0.0,d
3010.0,944.0,1067.0,3217.0,4095.0,2383.0,2513.0,2340.0,0.73,9.54,6.71,-0.02,0.02,-0.16,0.0,d
3011.0,944.0,1065.0,3210.0,4095.0,2384.0,2512.0,2346.0,0.97,9.59,6.64,0.04,-0.0,-0.11,0.0,d
3021.0,942.0,1075.0,3207.0,4095.0,2382.0,2514.0,2346.0,0.93,9.7,6.6,0.01,0.01,-0.14,0.0,d
3010.0,950.0,1072.0,3209.0,4095.0,2385.0,2513.0,2346.0,0.86,9.66,6.63,0.02,-0.02,-0.16,0.0,d
3013.0,945.0,1066.0,3216.0,4095.0,2386.0,2519.0,2349.0,0.92,9.61,6.62,0.01,-0.03,-0.16,0.0,d
3022.0,947.0,1067.0,3226.0,4095.0,2383.0,2514.0,2351.0,0.94,9.62,6.64,-0.01,0.02,-0.15,0.0,d
3011.0,941.0,1072.0,3239.0,4095.0,2385.0,2518.0,2352.0,0.97,9.64,6.58,0.02,-0.05,-0.14,0.0,d
3015.0,939.0,1070.0,3241.0,4095.0,2386.0,2518.0,2347.0,0.89,9.61,6.61,0.02,-0.05,-0.15,0.0,d
3024.0,931.0,1075.0,3244.0,4095.0,2384.0,2522.0,2348.0,0.88,9.65,6.6,0.03,-0.03,-0.13,0.0,d
3019.0,934.0,1074.0,3234.0,4095.0,2386.0,2517.0,2352.0,0.98,9.56,6.67,0.03,-0.02,-0.14,0.0,d
3022.0,944.0,1072.0,3233.0,4095.0,2384.0,2522.0,2352.0,0.97,9.63,6.53,0.02,-0.03,-0.12,0.0,d
3023.0,934.0,1071.0,3237.0,4095.0,2384.0,2522.0,2351.0,1.06,9.7,6.62,0.03,-0.04,-0.14,0.0,d
3017.0,935.0,1065.0,3237.0,4095.0,2386.0,2515.0,2355.0,0.96,9.62,6.57,0.01,-0.02,-0.15,0.0,d
3019.0,930.0,1072.0,3243.0,4095.0,2386.0,2525.0,2351.0,1.12,9.58,6.57,0.04,-0.04,-0.14,0.0,d
3021.0,929.0,1072.0,3245.0,4095.0,2385.0,2529.0,2352.0,1.02,9.61,6.6,0.01,-0.01,-0.14,0.0,d
3016.0,934.0,1072.0,3239.0,4095.0,2385.0,2522.0,2357.0,0.94,9.65,6.59,0.04,-0.02,-0.15,0.0,d
3025.0,931.0,1078.0,3247.0,4095.0,2387.0,2529.0,2352.0,1.08,9.61,6.56,0.03,0.0,-0.13,0.0,d
3022.0,933.0,1079.0,3242.0,4095.0,2391.0,2529.0,2357.0,1.18,9.56,6.69,0.04,0.01,-0.15,0.0,d
3027.0,937.0,1072.0,3246.0,4095.0,2387.0,2526.0,2354.0,1.0,9.7,6.2,0.04,-0.05,-0.15,0.0,d
3023.0,935.0,1072.0,3247.0,4095.0,2389.0,2525.0,2354.0,0.88,9.63,6.49,-0.03,-0.04,-0.1,0.0,d
3030.0,937.0,1072.0,3254.0,4095.0,2393.0,2529.0,2355.0,1.35,9.67,6.59,0.01,-0.03,-0.16,0.0,d
3017.0,947.0,1066.0,3246.0,4095.0,2397.0,2529.0,2354.0,1.14,9.61,6.58,0.01,-0.02,-0.17,0.0,d
3019.0,945.0,1085.0,3246.0,4095.0,2389.0,2535.0,2362.0,1.19,9.57,6.58,0.02,0.02,-0.15,0.0,d
3015.0,940.0,1065.0,3241.0,4095.0,2394.0,2529.0,2358.0,1.06,9.69,6.51,0.01,0.01,-0.16,0.0,d
3019.0,933.0,1072.0,3245.0,4095.0,2389.0,2533.0,2364.0,1.07,9.66,6.49,0.0,0.0,-0.16,0.0,d
3021.0,944.0,1072.0,3238.0,4095.0,2390.0,2530.0,2363.0,1.09,9.64,6.49,0.03,-0.01,-0.16,0.0,d
3020.0,938.0,1062.0,3248.0,4095.0,2394.0,2531.0,2368.0,1.14,9.59,6.4,-0.0,-0.03,-0.14,0.0,d
3015.0,944.0,1066.0,3248.0,4095.0,2395.0,2526.0,2366.0,1.14,9.65,6.72,-0.0,-0.02,-0.16,0.0,d
3008.0,944.0,1062.0,3242.0,4095.0,2394.0,2524.0,2367.0,1.15,9.64,6.49,0.04,-0.03,-0.17,0.0,d
3024.0,935.0,1069.0,3248.0,4095.0,2389.0,2529.0,2368.0,0.98,9.55,6.48,-0.0,0.01,-0.15,0.0,d
3020.0,944.0,1061.0,3248.0,4095.0,2389.0,2527.0,2368.0,1.11,9.66,6.54,0.0,-0.01,-0.14,0.0,d
3018.0,937.0,1075.0,3248.0,4095.0,2390.0,2526.0,2367.0,0.98,9.67,6.54,0.03,-0.01,-0.15,0.0,d
3011.0,950.0,1074.0,3248.0,4095.0,2397.0,2531.0,2369.0,1.1,9.64,6.52,0.0,-0.01,-0.16,0.0,d
3017.0,4095.0,3431.0,3311.0,4095.0,2338.0,2643.0,2371.0,0.79,9.76,5.95,0.03,0.01,-0.16,0.0,d
3024.0,4095.0,3422.0,3312.0,4095.0,2346.0,2645.0,2368.0,0.78,9.7,5.98,-0.01,-0.01,-0.15,0.0,d
3026.0,4095.0,3422.0,3309.0,4095.0,2342.0,2657.0,2375.0,0.82,9.68,6.13,-0.0,-0.02,-0.15,0.0,d
3024.0,4095.0,3429.0,3299.0,4095.0,2343.0,2645.0,2373.0,0.83,9.79,5.99,0.06,-0.03,-0.13,0.0,d
3034.0,4095.0,3424.0,3301.0,4095.0,2342.0,2653.0,2382.0,0.86,9.74,5.92,0.01,-0.03,-0.15,0.0,d
3027.0,4095.0,3425.0,3296.0,4095.0,2343.0,2657.0,2378.0,0.94,9.78,6.05,0.01,-0.05,-0.14,0.0,d
3011.0,4095.0,3423.0,3298.0,4095.0,2345.0,2655.0,2384.0,0.83,9.83,6.0,0.02,-0.05,-0.16,0.0,d
3031.0,4095.0,3418.0,3283.0,4095.0,2341.0,2658.0,2378.0,0.79,9.76,6.06,0.02,-0.04,-0.16,0.0,d
3019.0,4095.0,3428.0,3291.0,4095.0,2351.0,2663.0,2375.0,0.85,9.73,6.01,0.0,-0.02,-0.17,0.0,d
3010.0,4095.0,3430.0,3302.0,4095.0,2350.0,2662.0,2377.0,0.87,9.7,6.11,0.02,-0.02,-0.16,0.0,d
3023.0,4095.0,3437.0,3294.0,4095.0,2349.0,2661.0,2383.0,0.85,9.77,5.95,0.02,-0.0,-0.17,0.0,d
3018.0,4095.0,3445.0,3298.0,4095.0,2348.0,2663.0,2377.0,0.72,9.75,5.98,0.01,-0.02,-0.15,0.0,d
3022.0,4095.0,3422.0,3296.0,4095.0,2352.0,2665.0,2375.0,0.83,9.72,6.07,0.03,-0.02,-0.15,0.0,d
3024.0,4095.0,3426.0,3310.0,4095.0,2347.0,2667.0,2374.0,0.76,9.8,5.99,0.01,0.0,-0.15,0.0,d
3018.0,4095.0,3421.0,3308.0,4095.0,2352.0,2671.0,2384.0,0.75,9.71,6.06,0.02,0.0,-0.15,0.0,d
3015.0,4095.0,3439.0,3310.0,4095.0,2352.0,2663.0,2381.0,0.81,9.74,5.96,0.01,0.01,-0.15,0.0,d
3022.0,4095.0,3419.0,3308.0,4095.0,2349.0,2666.0,2384.0,0.72,9.79,6.03,0.0,0.01,-0.15,0.0,d
3021.0,4095.0,3433.0,3311.0,4095.0,2347.0,2667.0,2383.0,0.8,9.8,5.97,0.03,0.0,-0.16,0.0,d
3023.0,4095.0,3430.0,3303.0,4095.0,2354.0,2651.0,2383.0,0.75,9.73,5.95,0.02,0.01,-0.16,0.0,d
3030.0,4095.0,3440.0,3314.0,4095.0,2354.0,2673.0,2385.0,0.86,9.78,5.99,0.01,-0.01,-0.15,0.0,d
3014.0,4095.0,3431.0,3310.0,4095.0,2350.0,2670.0,2384.0,0.85,9.79,6.03,0.01,-0.01,-0.16,0.0,d
3031.0,4095.0,3430.0,3312.0,4095.0,2352.0,2671.0,2382.0,0.72,9.79,5.93,0.02,-0.02,-0.16,0.0,d
3013.0,4095.0,3421.0,3311.0,4095.0,2353.0,2671.0,2384.0,0.69,9.78,6.0,0.03,-0.0,-0.15,0.0,d
3021.0,4095.0,3427.0,3313.0,4095.0,2351.0,2670.0,2384.0,0.77,9.76,5.94,-0.01,0.01,-0.14,0.0,d
3022.0,4095.0,3427.0,3323.0,4095.0,2353.0,2673.0,2389.0,0.83,9.82,5.99,0.02,-0.01,-0.15,0.0,d
3015.0,4095.0,3429.0,3315.0,4095.0,2353.0,2669.0,2384.0,0.78,9.79,5.91,0.03,-0.01,-0.15,0.0,d
3021.0,4095.0,3425.0,3319.0,4095.0,2355.0,2672.0,2384.0,0.74,9.69,6.04,0.0,-0.0,-0.16,0.0,d
3027.0,4095.0,3420.0,3316.0,4095.0,2334.0,2673.0,2384.0,0.77,9.78,5.97,0.04,-0.01,-0.15,0.0,d
3024.0,4095.0,3440.0,3313.0,4095.0,2352.0,2671.0,2387.0,0.78,9.74,5.93,0.02,-0.01,-0.16,0.0,d
3011.0,4095.0,3421.0,3312.0,4095.0,2352.0,2672.0,2385.0,0.77,9.74,5.99,0.03,-0.01,-0.16,0.0,d
3029.0,4095.0,3440.0,3314.0,4095.0,2354.0,2672.0,2391.0,0.8,9.76,5.85,-0.02,-0.04,-0.14,0.0,d
3025.0,4095.0,3435.0,3312.0,4095.0,2351.0,2672.0,2399.0,0.86,9.81,6.05,0.03,-0.03,-0.16,0.0,d
3017.0,4095.0,3440.0,3313.0,4095.0,2353.0,2676.0,2398.0,0.71,9.74,5.89,0.01,0.01,-0.17,0.0,d
3024.0,4095.0,3434.0,3319.0,4095.0,2352.0,2674.0,2397.0,0.72,9.79,5.97,0.04,-0.01,-0.15,0.0,d
3031.0,4095.0,3434.0,3317.0,4095.0,2363.0,2678.0,2400.0,0.66,9.76,5.77,0.01,0.0,-0.14,0.0,d
3017.0,4095.0,3421.0,3321.0,4095.0,2355.0,2674.0,2403.0,0.81,9.82,5.98,0.01,0.01,-0.14,0.0,d
3011.0,4095.0,3418.0,3317.0,4095.0,2354.0,2672.0,2399.0,0.84,9.82,5.92,-0.0,-0.0,-0.16,0.0,d
3019.0,4095.0,3444.0,3323.0,4095.0,2359.0,2675.0,2400.0,0.75,9.76,5.98,0.02,-0.0,-0.16,0.0,d
3010.0,4095.0,3440.0,3318.0,4095.0,2353.0,2678.0,2404.0,0.67,9.73,5.88,0.02,0.0,-0.16,0.0,d
3024.0,4095.0,3427.0,3323.0,4095.0,2352.0,2674.0,2403.0,0.83,9.73,5.9,-0.02,-0.04,-0.13,0.0,d
3012.0,4095.0,3433.0,3328.0,4095.0,2355.0,2681.0,2402.0,0.82,9.86,5.94,0.02,-0.02,-0.14,0.0,d
3023.0,4095.0,4095.0,3312.0,4095.0,2367.0,2634.0,2316.0,0.72,9.66,6.58,0.03,-0.0,-0.17,0.0,d
3013.0,4095.0,4095.0,3316.0,4095.0,2362.0,2630.0,2309.0,0.68,9.62,6.56,0.03,-0.0,-0.16,0.0,d
3021.0,4095.0,4095.0,3314.0,4095.0,2365.0,2635.0,2319.0,0.61,9.65,6.66,0.01,0.02,-0.18,0.0,d
3019.0,4095.0,4095.0,3308.0,4095.0,2363.0,2631.0,2313.0,0.68,9.62,6.64,0.02,-0.01,-0.17,0.0,d
3007.0,4095.0,4095.0,3312.0,4095.0,2367.0,2635.0,2295.0,0.64,9.66,6.55,0.02,-0.01,-0.17,0.0,d
3015.0,4095.0,4095.0,3315.0,4095.0,2364.0,2639.0,2324.0,0.56,9.66,6.42,0.04,-0.05,-0.17,0.0,d
3017.0,4095.0,4095.0,3307.0,4095.0,2366.0,2639.0,2319.0,0.46,9.66,6.54,0.01,-0.02,-0.17,0.0,d
3015.0,4095.0,4095.0,3318.0,4095.0,2374.0,2642.0,2317.0,0.65,9.64,6.58,0.02,-0.01,-0.15,0.0,d
3017.0,4095.0,4095.0,3325.0,4095.0,2368.0,2640.0,2318.0,0.53,9.66,6.36,0.02,-0.02,-0.15,0.0,d
3017.0,4095.0,4095.0,3315.0,4095.0,2370.0,2645.0,2321.0,0.46,9.71,6.54,-0.01,0.0,-0.13,0.0,d
3029.0,4095.0,4095.0,3323.0,4095.0,2373.0,2640.0,2351.0,0.57,9.74,6.6,0.01,0.03,-0.14,0.0,d
3016.0,4095.0,4095.0,3325.0,4095.0,2368.0,2647.0,2347.0,0.69,9.69,6.49,0.02,-0.02,-0.17,0.0,d
3024.0,4095.0,4095.0,3319.0,4095.0,2371.0,2649.0,2331.0,0.64,9.59,6.61,0.01,-0.0,-0.16,0.0,d
3007.0,4095.0,4095.0,3326.0,4095.0,2371.0,2654.0,2336.0,0.63,9.62,6.43,0.01,-0.03,-0.17,0.0,d
3007.0,4095.0,4095.0,3317.0,4095.0,2371.0,2649.0,2329.0,0.5,9.64,6.5,-0.01,-0.06,-0.18,0.0,d
3015.0,4095.0,4095.0,3326.0,4095.0,2368.0,2650.0,2347.0,0.62,9.73,6.43,0.04,-0.02,-0.12,0.0,d
3008.0,4095.0,4095.0,3319.0,4095.0,2370.0,2653.0,2352.0,0.54,9.65,6.6,0.03,0.01,-0.15,0.0,d
3007.0,4095.0,4095.0,3319.0,4095.0,2374.0,2657.0,2346.0,0.42,9.64,6.44,0.01,0.0,-0.15,0.0,d
3014.0,4095.0,4095.0,3321.0,4095.0,2371.0,2657.0,2353.0,0.48,9.67,6.51,0.03,-0.01,-0.14,0.0,d
3014.0,4095.0,4095.0,3322.0,4095.0,2375.0,2654.0,2355.0,0.57,9.69,6.6,-0.0,0.01,-0.16,0.0,d
3021.0,4095.0,4095.0,3322.0,4095.0,2377.0,2657.0,2357.0,0.47,9.64,6.57,0.0,0.02,-0.15,0.0,d
3022.0,4095.0,4095.0,3325.0,4095.0,2369.0,2656.0,2368.0,0.58,9.67,6.49,0.02,-0.02,-0.15,0.0,d
3015.0,4095.0,4095.0,3323.0,4095.0,2384.0,2660.0,2366.0,0.49,9.67,6.57,0.03,0.01,-0.15,0.0,d
3007.0,4095.0,4095.0,3329.0,4095.0,2378.0,2665.0,2367.0,0.56,9.62,6.43,0.02,-0.02,-0.16,0.0,d
3021.0,4095.0,4095.0,3318.0,4095.0,2369.0,2663.0,2368.0,0.54,9.66,6.62,0.0,-0.01,-0.16,0.0,d
3018.0,4095.0,4095.0,3314.0,4095.0,2372.0,2659.0,2361.0,0.6,9.61,6.62,0.02,0.0,-0.15,0.0,d
3019.0,4095.0,4095.0,3319.0,4095.0,2380.0,2666.0,2365.0,0.53,9.64,6.46,0.02,0.01,-0.14,0.0,d
3022.0,4095.0,4095.0,3327.0,4095.0,2378.0,2671.0,2375.0,0.53,9.63,6.52,0.01,0.02,-0.14,0.0,d
3022.0,4095.0,4095.0,3331.0,4095.0,2383.0,2669.0,2378.0,0.62,9.71,6.59,0.0,-0.0,-0.15,0.0,d
3010.0,4095.0,4095.0,3327.0,4095.0,2377.0,2672.0,2352.0,0.49,9.64,6.54,0.0,-0.02,-0.16,0.0,d
3022.0,4095.0,4095.0,3319.0,4095.0,2383.0,2670.0,2374.0,0.57,9.63,6.59,0.03,-0.01,-0.16,0.0,d
3010.0,4095.0,4095.0,3328.0,4095.0,2382.0,2672.0,2366.0,0.52,9.62,6.55,-0.01,0.01,-0.15,0.0,d
3008.0,4095.0,4095.0,3333.0,4095.0,2378.0,2672.0,2371.0,0.57,9.72,6.59,0.03,0.02,-0.15,0.0,d
3011.0,4095.0,4095.0,3330.0,4095.0,2379.0,2670.0,2369.0,0.44,9.66,6.57,0.03,0.01,-0.17,0.0,d
3024.0,4095.0,4095.0,3327.0,4095.0,2381.0,2672.0,2371.0,0.52,9.62,6.51,0.0,-0.01,-0.16,0.0,d
3019.0,4095.0,4095.0,3331.0,4095.0,2379.0,2672.0,2370.0,0.56,9.67,6.51,0.0,0.0,-0.13,0.0,d
3023.0,4095.0,4095.0,3331.0,4095.0,2379.0,2672.0,2375.0,0.55,9.71,6.48,0.04,-0.02,-0.15,0.0,d
3006.0,4095.0,4095.0,3333.0,4095.0,2383.0,2672.0,2379.0,0.53,9.67,6.55,-0.03,0.06,-0.13,0.0,d
3014.0,4095.0,4095.0,3331.0,4095.0,2384.0,2672.0,2385.0,0.65,9.65,6.58,-0.0,0.03,-0.12,0.0,d
3015.0,4095.0,4095.0,3326.0,4095.0,2379.0,2673.0,2375.0,0.52,9.74,6.5,0.03,-0.03,-0.15,0.0,d
3008.0,4095.0,4095.0,3337.0,4095.0,2384.0,2672.0,2382.0,0.46,9.64,6.53,0.03,-0.01,-0.17,0.0,d
