hall_1,hall_2,hall_3,flex_t,flex_i,flex_m,flex_r,flex_p,accel_x,accel_y,accel_z,gyro_x,gyro_y,gyro_z,hand,sign
2914.0,3280.0,3087.0,3805.0,4095.0,3231.0,3455.0,3439.0,-1.0,9.46,3.34,0.05,0.01,-0.06,1.0,d
2922.0,3280.0,3071.0,3792.0,4095.0,3236.0,3431.0,3479.0,-1.11,9.55,3.05,-0.03,-0.04,-0.06,1.0,d
2916.0,3266.0,3071.0,3792.0,4095.0,3223.0,3428.0,3645.0,-1.14,9.48,3.14,0.0,-0.02,-0.02,1.0,d
2927.0,3258.0,3084.0,3803.0,4095.0,3216.0,3418.0,3722.0,-1.12,9.56,3.19,0.03,0.02,-0.02,1.0,d
2925.0,3270.0,3088.0,3810.0,4095.0,3216.0,3423.0,3683.0,-1.03,9.49,2.96,-0.07,0.01,-0.02,1.0,d
2919.0,3259.0,3085.0,3806.0,4095.0,3226.0,3437.0,3733.0,-1.07,9.55,3.12,-0.1,-0.02,-0.02,1.0,d
2915.0,3254.0,3084.0,3798.0,4095.0,3223.0,3427.0,3743.0,-1.09,9.44,3.29,-0.03,-0.05,-0.04,1.0,d
2927.0,3262.0,3067.0,3794.0,4095.0,3216.0,3419.0,3799.0,-1.07,9.51,3.17,-0.02,-0.01,-0.03,1.0,d
2926.0,3256.0,3089.0,3807.0,4095.0,3210.0,3440.0,3839.0,-1.07,9.48,3.1,-0.08,0.01,-0.03,1.0,d
2915.0,3257.0,3083.0,3809.0,4095.0,3202.0,3423.0,3818.0,-0.98,9.49,3.27,-0.06,-0.01,-0.02,1.0,d
2928.0,3227.0,3069.0,3915.0,4095.0,3184.0,3423.0,3834.0,-1.12,9.51,3.3,0.02,-0.12,-0.03,1.0,d
2920.0,3236.0,3083.0,4005.0,4095.0,3184.0,3425.0,3845.0,-0.96,9.65,3.0,-0.09,0.02,-0.03,1.0,d
2923.0,3248.0,3071.0,4081.0,4095.0,3202.0,3438.0,3864.0,-0.92,9.53,3.26,-0.08,0.08,0.02,1.0,d
2928.0,3222.0,3085.0,4095.0,4095.0,3272.0,3527.0,3820.0,-1.22,9.34,3.29,0.28,0.03,0.04,1.0,d
2930.0,3221.0,3058.0,4095.0,4095.0,3314.0,3619.0,3529.0,-0.99,9.63,2.78,0.28,-0.14,-0.04,1.0,d
2921.0,3200.0,3071.0,4095.0,4095.0,3299.0,3628.0,3637.0,-0.68,9.65,2.65,0.06,-0.08,-0.09,1.0,d
2921.0,3198.0,3071.0,4095.0,4095.0,3307.0,3647.0,3599.0,-0.92,9.8,2.61,0.08,0.01,-0.04,1.0,d
2915.0,3198.0,3060.0,4095.0,4095.0,3287.0,3669.0,3526.0,-0.97,9.6,2.52,0.0,-0.02,-0.01,1.0,d
2926.0,3201.0,3054.0,4095.0,4095.0,3298.0,3697.0,3621.0,-0.99,9.62,2.62,-0.08,-0.04,-0.04,1.0,d
2925.0,3196.0,3056.0,4095.0,4095.0,3314.0,3696.0,3607.0,-0.97,9.62,2.66,-0.03,0.02,-0.03,1.0,d
2922.0,3198.0,3057.0,4095.0,4095.0,3327.0,3680.0,3635.0,-0.99,9.67,2.66,-0.05,0.01,-0.04,1.0,d
2924.0,3202.0,3059.0,4095.0,4095.0,3309.0,3648.0,3744.0,-0.99,9.7,2.65,-0.06,-0.04,-0.07,1.0,d
2930.0,3206.0,3058.0,4095.0,4095.0,3301.0,3622.0,3763.0,-1.0,9.61,2.6,-0.07,-0.07,0.0,1.0,d
2930.0,3199.0,3062.0,4095.0,4095.0,3253.0,3573.0,3582.0,-0.94,9.55,2.74,0.02,0.0,-0.05,1.0,d
2928.0,3213.0,3067.0,4095.0,4095.0,3238.0,3531.0,3802.0,-1.09,9.78,2.48,-0.12,-0.06,-0.05,1.0,d
2928.0,3209.0,3081.0,4095.0,4095.0,3181.0,3431.0,3832.0,-1.0,9.67,2.61,-0.12,-0.27,-0.0,1.0,d
2928.0,3241.0,3069.0,4095.0,4095.0,3091.0,3323.0,3786.0,-0.81,9.71,2.76,-0.1,-0.13,-0.0,1.0,d
2934.0,3237.0,3068.0,4095.0,4095.0,3067.0,3307.0,3739.0,-0.81,9.56,2.82,-0.18,-0.06,0.0,1.0,d
2939.0,3235.0,3059.0,4079.0,4095.0,3042.0,3282.0,3728.0,-0.95,9.56,2.94,-0.09,0.03,0.01,1.0,d
2942.0,3231.0,3070.0,3919.0,4095.0,3024.0,3269.0,3696.0,-0.75,9.65,2.83,-0.04,-0.06,-0.03,1.0,d
2924.0,3222.0,3059.0,3683.0,4095.0,2978.0,3245.0,3669.0,-0.79,9.71,2.84,-0.06,-0.03,-0.03,1.0,d
2937.0,3206.0,3071.0,3518.0,4095.0,2971.0,3234.0,3702.0,-0.77,9.62,2.84,-0.06,-0.01,-0.01,1.0,d
2928.0,3218.0,3083.0,3476.0,4095.0,2973.0,3226.0,3714.0,-0.71,9.64,2.95,-0.0,-0.05,-0.01,1.0,d
2935.0,3215.0,3071.0,3405.0,4095.0,2960.0,3227.0,3696.0,-0.92,9.64,2.72,-0.03,0.07,-0.01,1.0,d
2928.0,3216.0,3069.0,3357.0,4095.0,2960.0,3220.0,3681.0,-0.81,9.67,2.71,-0.09,0.02,0.0,1.0,d
2938.0,3216.0,3081.0,3297.0,4095.0,2929.0,3198.0,3664.0,-0.7,9.66,2.77,-0.08,0.07,-0.03,1.0,d
2934.0,3211.0,3089.0,3248.0,4095.0,2928.0,3181.0,3634.0,-0.8,9.68,2.69,-0.12,-0.01,-0.01,1.0,d
2928.0,3210.0,3085.0,3226.0,4095.0,2911.0,3177.0,3635.0,-0.8,9.63,2.81,-0.14,0.03,-0.01,1.0,d
2928.0,3203.0,3100.0,3174.0,4095.0,2891.0,3152.0,3583.0,-0.75,9.64,2.94,-0.11,-0.0,0.01,1.0,d
2934.0,3206.0,3091.0,3137.0,4095.0,2875.0,3141.0,3568.0,-0.62,9.72,2.89,-0.04,0.01,0.02,1.0,d
2928.0,3221.0,3104.0,3152.0,4095.0,2883.0,3157.0,3561.0,-0.6,9.7,2.79,-0.07,0.03,-0.0,1.0,d
2935.0,3216.0,3100.0,3155.0,4095.0,2887.0,3149.0,3582.0,-0.59,9.58,2.89,-0.06,0.02,0.01,1.0,d
2934.0,3213.0,3107.0,3173.0,4095.0,2907.0,3148.0,3622.0,-0.69,9.6,3.0,-0.05,0.01,0.02,1.0,d
2931.0,3226.0,3108.0,3199.0,4095.0,2905.0,3153.0,3534.0,-0.61,9.65,2.96,-0.02,-0.03,-0.02,1.0,d
2943.0,3238.0,3119.0,3216.0,4095.0,2915.0,3158.0,3472.0,-0.68,9.63,2.78,-0.01,0.02,-0.01,1.0,d
2935.0,3249.0,3091.0,3223.0,4095.0,2931.0,3155.0,3364.0,-0.62,9.66,2.68,-0.02,0.0,-0.01,1.0,d
2930.0,3278.0,3091.0,3245.0,4095.0,2934.0,3154.0,3371.0,-0.45,9.73,2.74,-0.08,-0.06,-0.06,1.0,d
2928.0,3289.0,3104.0,3248.0,4095.0,2928.0,3154.0,3366.0,-0.62,9.72,2.72,-0.06,0.0,-0.05,1.0,d
2928.0,3319.0,3038.0,3247.0,4095.0,2930.0,3145.0,3238.0,-0.56,9.7,2.85,-0.06,-0.15,-0.08,1.0,d
2930.0,3407.0,2842.0,3248.0,4095.0,2944.0,3139.0,3472.0,-0.75,9.59,2.98,-0.13,-0.12,-0.0,1.0,d
2930.0,3449.0,2691.0,3250.0,4095.0,2950.0,3148.0,3526.0,-0.61,9.64,2.91,-0.08,-0.02,-0.01,1.0,d
2931.0,3441.0,2638.0,3269.0,4095.0,2945.0,3154.0,3456.0,-0.42,9.7,2.97,-0.05,-0.03,-0.08,1.0,d
2927.0,3466.0,2736.0,3261.0,4095.0,2950.0,3134.0,3583.0,-0.5,9.6,2.81,-0.12,0.02,-0.14,1.0,d
2931.0,3518.0,2862.0,3258.0,4095.0,2947.0,3111.0,3526.0,-0.64,9.62,2.95,-0.09,-0.01,-0.05,1.0,d
2925.0,3557.0,3028.0,3263.0,4095.0,2944.0,3114.0,3391.0,-0.68,9.61,2.98,-0.07,-0.08,-0.06,1.0,d
2923.0,3575.0,3408.0,3264.0,4095.0,2957.0,3107.0,3475.0,-0.55,9.7,3.01,-0.09,-0.02,-0.01,1.0,d
2928.0,3598.0,3561.0,3271.0,4095.0,2953.0,3119.0,3451.0,-0.7,9.57,3.08,-0.07,0.09,-0.01,1.0,d
2931.0,3625.0,3726.0,3263.0,4095.0,2957.0,3120.0,3524.0,-0.6,9.55,3.12,-0.09,-0.01,-0.0,1.0,d
2934.0,3618.0,4037.0,3269.0,4095.0,2951.0,3130.0,3522.0,-0.6,9.63,3.0,-0.05,-0.01,-0.03,1.0,d
2928.0,3639.0,4095.0,3275.0,4095.0,2958.0,3127.0,3522.0,-0.63,9.58,2.98,-0.07,-0.01,-0.01,1.0,d
2933.0,3623.0,4095.0,3287.0,4095.0,2960.0,3126.0,3553.0,-0.57,9.61,3.04,-0.06,0.02,-0.03,1.0,d
2918.0,3606.0,4095.0,3286.0,4095.0,2957.0,3125.0,3571.0,-0.5,9.62,3.04,-0.03,0.0,-0.04,1.0,d
2929.0,3611.0,4095.0,3302.0,4095.0,2970.0,3130.0,3550.0,-0.57,9.72,2.94,-0.07,-0.01,-0.05,1.0,d
2937.0,3583.0,4095.0,3309.0,4095.0,2975.0,3155.0,3619.0,-0.64,9.55,3.13,-0.04,-0.02,-0.04,1.0,d
2935.0,3567.0,4050.0,3352.0,4095.0,2992.0,3166.0,3654.0,-0.56,9.64,3.04,0.03,0.01,-0.06,1.0,d
2928.0,3538.0,3931.0,3406.0,4095.0,3025.0,3202.0,3706.0,-0.56,9.72,2.78,-0.02,0.02,-0.04,1.0,d
2926.0,3536.0,3802.0,3479.0,4095.0,3057.0,3233.0,3721.0,-0.57,9.69,2.83,-0.05,-0.02,-0.06,1.0,d
2924.0,3536.0,3696.0,3579.0,4095.0,3102.0,3257.0,3750.0,-0.47,9.66,3.02,-0.04,-0.03,-0.11,1.0,d
2930.0,3511.0,3625.0,3661.0,4095.0,3138.0,3310.0,3753.0,-0.68,9.63,2.86,-0.07,-0.05,-0.07,1.0,d
2931.0,3512.0,3567.0,3695.0,4095.0,3152.0,3314.0,3756.0,-0.73,9.66,3.0,-0.03,-0.06,-0.09,1.0,d
2926.0,3492.0,3536.0,3712.0,4095.0,3169.0,3329.0,3730.0,-0.78,9.62,2.9,-0.08,-0.01,-0.1,1.0,d
2929.0,3483.0,3536.0,3707.0,4095.0,3158.0,3332.0,3758.0,-0.74,9.57,2.91,-0.1,0.04,-0.04,1.0,d
2933.0,3471.0,3572.0,3651.0,4095.0,3141.0,3293.0,3808.0,-0.72,9.58,2.93,-0.13,0.07,-0.06,1.0,d
2928.0,3481.0,3583.0,3548.0,4095.0,3118.0,3280.0,3815.0,-0.67,9.67,3.05,-0.03,0.03,-0.04,1.0,d
2934.0,3481.0,3583.0,3534.0,4095.0,3101.0,3278.0,3793.0,-0.77,9.55,3.04,0.02,0.03,-0.02,1.0,d
2922.0,3479.0,3606.0,3529.0,4095.0,3105.0,3294.0,3805.0,-0.51,9.69,3.03,0.12,-0.03,-0.09,1.0,d
2927.0,3492.0,3583.0,3583.0,4095.0,3119.0,3306.0,3819.0,-0.64,9.67,2.88,0.05,0.02,-0.08,1.0,d
2929.0,3504.0,3583.0,3653.0,4095.0,3157.0,3309.0,3840.0,-0.69,9.59,2.86,0.18,-0.03,-0.16,1.0,d
2929.0,3476.0,3536.0,3685.0,4095.0,3172.0,3347.0,3836.0,-1.01,9.76,2.47,0.02,-0.06,-0.06,1.0,d
2925.0,3461.0,3509.0,3728.0,4095.0,3212.0,3373.0,3820.0,-0.86,9.67,2.6,-0.01,-0.07,-0.03,1.0,d
2928.0,3478.0,3494.0,3730.0,4095.0,3211.0,3385.0,3793.0,-0.54,9.75,2.79,0.06,-0.05,-0.06,1.0,d
2924.0,3470.0,3488.0,3730.0,4095.0,3215.0,3383.0,3790.0,-0.82,9.63,2.65,0.06,-0.01,-0.09,1.0,d
2927.0,3472.0,3487.0,3730.0,4095.0,3210.0,3395.0,3806.0,-0.8,9.75,2.43,0.07,-0.07,-0.11,1.0,d
2927.0,3466.0,3511.0,3750.0,4095.0,3222.0,3403.0,3803.0,-0.99,9.68,2.32,0.01,-0.04,-0.1,1.0,d
2928.0,3472.0,3491.0,3751.0,4095.0,3229.0,3393.0,3808.0,-1.02,9.76,2.21,0.05,-0.02,-0.11,1.0,d
2923.0,3461.0,3520.0,3728.0,4095.0,3214.0,3392.0,3855.0,-1.11,9.75,2.24,-0.03,-0.02,-0.08,1.0,d
2930.0,3475.0,3509.0,3694.0,4095.0,3221.0,3387.0,3863.0,-0.95,9.74,2.31,-0.0,-0.02,-0.05,1.0,d
2927.0,3477.0,3509.0,3697.0,4095.0,3207.0,3377.0,3879.0,-1.04,9.74,2.3,-0.05,-0.02,-0.05,1.0,d
2928.0,3478.0,3519.0,3645.0,4095.0,3195.0,3376.0,3867.0,-1.0,9.7,2.29,-0.08,-0.02,-0.03,1.0,d
2928.0,3455.0,3565.0,3598.0,4095.0,3179.0,3357.0,3856.0,-1.19,9.76,2.24,-0.15,0.02,-0.02,1.0,d
2917.0,3446.0,3664.0,3465.0,4095.0,3094.0,3264.0,3810.0,-0.91,9.69,2.51,-0.19,0.1,-0.07,1.0,d
2928.0,3453.0,3764.0,3335.0,4095.0,3023.0,3227.0,3742.0,-1.0,9.7,2.34,-0.08,0.09,-0.02,1.0,d
2928.0,3431.0,3827.0,3279.0,4095.0,3003.0,3207.0,3742.0,-1.11,9.74,2.3,-0.17,-0.0,0.05,1.0,d
2935.0,3451.0,3929.0,3232.0,4095.0,2961.0,3187.0,3703.0,-0.85,9.79,2.48,-0.12,0.02,-0.02,1.0,d
2923.0,3430.0,3983.0,3185.0,4095.0,2950.0,3184.0,3690.0,-0.92,9.65,2.52,-0.13,0.0,0.01,1.0,d
2929.0,3401.0,4095.0,3120.0,4095.0,2913.0,3139.0,3670.0,-0.77,9.64,2.84,-0.12,0.05,-0.05,1.0,d
2928.0,3399.0,4095.0,3067.0,4095.0,2899.0,3141.0,3648.0,-0.95,9.73,2.51,-0.1,0.05,-0.04,1.0,d
2919.0,3392.0,4095.0,2996.0,4095.0,2885.0,3128.0,3634.0,-0.96,9.62,2.67,-0.15,0.03,-0.05,1.0,d
2934.0,3387.0,4095.0,2960.0,4095.0,2859.0,3114.0,3601.0,-0.98,9.7,2.73,-0.11,0.09,0.0,1.0,d
2929.0,3390.0,4095.0,2905.0,4095.0,2849.0,3105.0,3607.0,-0.83,9.73,2.6,-0.1,-0.01,-0.01,1.0,d
2929.0,3389.0,4095.0,2825.0,4095.0,2829.0,3083.0,3567.0,-0.89,9.69,2.77,-0.14,0.04,0.03,1.0,d
2917.0,3394.0,4095.0,2798.0,4095.0,2822.0,3085.0,3558.0,-0.79,9.61,2.56,-0.18,-0.04,0.0,1.0,d
2931.0,3397.0,4095.0,2710.0,4095.0,2797.0,3055.0,3471.0,-0.76,9.67,2.82,-0.12,-0.01,-0.02,1.0,d
2925.0,3409.0,4095.0,2678.0,4095.0,2784.0,3040.0,3429.0,-0.88,9.63,2.95,-0.13,-0.03,0.0,1.0,d
2927.0,3418.0,4095.0,2640.0,4095.0,2779.0,3041.0,3413.0,-0.64,9.59,3.0,-0.06,-0.04,-0.01,1.0,d
2918.0,3422.0,4095.0,2640.0,4095.0,2793.0,3041.0,3473.0,-0.77,9.68,2.82,-0.05,0.07,0.01,1.0,d
2929.0,3423.0,4095.0,2655.0,4095.0,2807.0,3051.0,3497.0,-0.78,9.64,2.76,-0.1,-0.03,-0.03,1.0,d
2928.0,3417.0,4095.0,2663.0,4095.0,2811.0,3054.0,3539.0,-0.79,9.6,3.02,-0.1,-0.03,-0.02,1.0,d
2918.0,3421.0,4095.0,2625.0,4095.0,2828.0,3056.0,3559.0,-0.75,9.6,2.97,-0.05,0.02,-0.04,1.0,d
2928.0,3435.0,4095.0,2617.0,4095.0,2818.0,3057.0,3583.0,-0.85,9.62,2.91,-0.04,-0.1,-0.06,1.0,d
2929.0,3424.0,4095.0,2559.0,4095.0,2820.0,3055.0,3618.0,-0.65,9.51,2.94,-0.03,0.03,-0.08,1.0,d
2919.0,3426.0,4095.0,2551.0,4095.0,2789.0,3041.0,3630.0,-0.83,9.78,2.64,-0.14,0.12,0.01,1.0,d
2926.0,3430.0,4095.0,2544.0,4095.0,2780.0,3027.0,3613.0,-0.67,9.6,2.97,-0.08,0.02,0.01,1.0,d
2918.0,3436.0,4095.0,2532.0,4095.0,2780.0,3026.0,3606.0,-0.93,9.61,2.96,-0.07,0.07,0.01,1.0,d
2928.0,3431.0,4095.0,2559.0,4095.0,2797.0,3030.0,3618.0,-0.91,9.61,2.99,-0.03,-0.06,-0.03,1.0,d
2927.0,3425.0,4095.0,2581.0,4095.0,2801.0,3035.0,3631.0,-0.8,9.59,2.91,-0.04,0.02,0.0,1.0,d
2923.0,3447.0,4095.0,2613.0,4095.0,2823.0,3056.0,3634.0,-0.82,9.66,2.72,-0.16,-0.04,0.01,1.0,d
2925.0,3408.0,4095.0,2651.0,4095.0,2846.0,3069.0,3664.0,-0.74,9.5,3.08,-0.09,-0.14,-0.01,1.0,d
2926.0,3411.0,4095.0,2703.0,4095.0,2902.0,3105.0,3687.0,-0.89,9.81,2.64,-0.16,-0.07,0.0,1.0,d
2934.0,3415.0,4095.0,2789.0,4095.0,2943.0,3139.0,3710.0,-0.67,9.55,2.86,-0.27,-0.12,0.08,1.0,d
2919.0,3408.0,3981.0,2843.0,4095.0,2966.0,3157.0,3754.0,-0.51,9.58,3.13,-0.2,-0.02,0.05,1.0,d
2919.0,3426.0,3925.0,2883.0,4095.0,2985.0,3183.0,3732.0,-0.51,9.52,3.38,-0.18,-0.02,0.06,1.0,d
2926.0,3423.0,3832.0,2922.0,4095.0,3019.0,3203.0,3785.0,-0.6,9.44,3.32,-0.16,-0.04,0.07,1.0,d
2925.0,3418.0,3772.0,2988.0,4095.0,3066.0,3235.0,3792.0,-0.42,9.47,3.53,-0.1,0.04,0.11,1.0,d
2924.0,3390.0,3702.0,3091.0,4095.0,3118.0,3283.0,3824.0,-0.28,9.44,3.47,-0.06,0.05,0.05,1.0,d
2915.0,3387.0,3680.0,3218.0,4095.0,3149.0,3289.0,3823.0,-0.35,9.56,3.22,-0.25,0.0,0.07,1.0,d
2927.0,3393.0,3675.0,3287.0,4095.0,3155.0,3339.0,3841.0,0.06,9.46,3.67,-0.18,-0.02,0.01,1.0,d
2917.0,3375.0,3661.0,3322.0,4095.0,3165.0,3342.0,3861.0,-0.03,9.44,3.93,-0.07,0.07,-0.03,1.0,d
2928.0,3376.0,3675.0,3307.0,4095.0,3165.0,3348.0,3872.0,-0.33,9.43,3.56,-0.05,0.08,-0.06,1.0,d
2919.0,3376.0,3667.0,3322.0,4095.0,3142.0,3337.0,3882.0,-0.34,9.48,3.34,-0.11,0.14,-0.08,1.0,d
2923.0,3346.0,3677.0,3353.0,4095.0,3131.0,3336.0,3877.0,-0.25,9.48,3.76,-0.12,0.03,-0.06,1.0,d
2923.0,3340.0,3655.0,3479.0,4095.0,3153.0,3351.0,3927.0,-0.37,9.45,3.64,-0.09,-0.0,-0.02,1.0,d
2930.0,3333.0,3598.0,3719.0,4095.0,3206.0,3420.0,3986.0,-0.45,9.45,3.46,-0.04,-0.01,-0.05,1.0,d
2923.0,3315.0,3547.0,3856.0,4095.0,3232.0,3440.0,4039.0,-0.32,9.49,3.51,-0.14,-0.04,-0.02,1.0,d
2928.0,3275.0,3530.0,3867.0,4095.0,3240.0,3461.0,4012.0,-0.27,9.45,3.62,-0.06,-0.02,-0.05,1.0,d
2928.0,3255.0,3481.0,3919.0,4095.0,3260.0,3491.0,3993.0,-0.48,9.39,3.63,-0.09,-0.09,-0.01,1.0,d
2918.0,3265.0,3439.0,3957.0,4095.0,3280.0,3533.0,4013.0,-0.36,9.46,3.6,-0.06,-0.15,-0.01,1.0,d
2918.0,3248.0,3398.0,3890.0,4095.0,3326.0,3583.0,3999.0,-0.2,9.48,3.44,-0.17,-0.1,0.03,1.0,d
2928.0,3247.0,3376.0,3994.0,4095.0,3370.0,3634.0,4030.0,-0.34,9.43,3.78,-0.09,-0.06,-0.03,1.0,d
2924.0,3238.0,3376.0,4016.0,4095.0,3382.0,3651.0,4013.0,-0.43,9.31,3.87,-0.15,-0.02,0.01,1.0,d
2923.0,3227.0,3355.0,4016.0,4095.0,3362.0,3683.0,3972.0,-0.27,9.32,3.94,-0.05,0.04,0.03,1.0,d
2928.0,3233.0,3350.0,4047.0,4095.0,3405.0,3694.0,3989.0,-0.12,9.42,3.69,-0.02,0.04,0.0,1.0,d
2915.0,3213.0,3363.0,4048.0,4095.0,3355.0,3670.0,3985.0,-0.01,9.41,3.65,-0.06,0.02,-0.01,1.0,d
2928.0,3163.0,3383.0,4083.0,4095.0,3216.0,3569.0,3951.0,0.06,9.42,3.84,-0.0,0.1,-0.03,1.0,d
2928.0,3179.0,3408.0,4021.0,4095.0,3168.0,3504.0,3843.0,-0.11,9.49,3.65,-0.04,0.02,-0.04,1.0,d
2929.0,3194.0,3461.0,4017.0,4095.0,3184.0,3466.0,3961.0,-0.24,9.33,3.74,-0.04,-0.03,-0.05,1.0,d
2922.0,3189.0,3487.0,3991.0,4095.0,3174.0,3455.0,3775.0,-0.23,9.55,3.72,-0.0,0.02,-0.01,1.0,d
2928.0,3194.0,3519.0,3993.0,4095.0,3189.0,3461.0,3725.0,-0.21,9.41,3.51,-0.07,-0.05,-0.03,1.0,d
2930.0,3198.0,3503.0,3991.0,4095.0,3184.0,3466.0,3565.0,-0.11,9.47,3.66,-0.08,0.03,-0.01,1.0,d
2927.0,3200.0,3510.0,3991.0,4095.0,3186.0,3471.0,3792.0,-0.09,9.39,3.78,-0.08,-0.01,-0.04,1.0,d
2922.0,3190.0,3519.0,3995.0,4095.0,3184.0,3472.0,3781.0,0.01,9.36,3.82,-0.07,-0.02,-0.05,1.0,d
2927.0,3184.0,3525.0,3894.0,4095.0,3199.0,3471.0,3895.0,-0.03,9.5,3.63,-0.07,0.1,-0.04,1.0,d
2922.0,3216.0,3535.0,3710.0,4095.0,3194.0,3441.0,3874.0,-0.28,9.51,3.55,-0.06,-0.03,-0.11,1.0,d
2928.0,3248.0,3533.0,3625.0,4095.0,3197.0,3403.0,3888.0,-0.34,9.31,3.76,-0.07,-0.04,-0.05,1.0,d
2923.0,3236.0,3519.0,3638.0,4095.0,3190.0,3413.0,3903.0,-0.3,9.41,3.78,-0.07,0.01,0.01,1.0,d
2930.0,3241.0,3523.0,3667.0,4095.0,3212.0,3437.0,3911.0,-0.14,9.4,3.78,-0.08,-0.02,0.01,1.0,d
2913.0,3261.0,3527.0,3695.0,4095.0,3203.0,3415.0,3907.0,-0.16,9.4,3.75,-0.08,0.03,0.01,1.0,d
2921.0,3257.0,3536.0,3702.0,4095.0,3203.0,3431.0,3911.0,0.07,9.33,4.0,-0.06,-0.02,0.0,1.0,d
2937.0,3250.0,3520.0,3696.0,4095.0,3214.0,3435.0,3930.0,0.11,9.32,3.97,-0.04,-0.02,-0.02,1.0,d
2919.0,3259.0,3534.0,3699.0,4095.0,3202.0,3415.0,3931.0,-0.09,9.4,3.67,-0.07,0.02,-0.01,1.0,d
2929.0,3261.0,3542.0,3700.0,4095.0,3199.0,3412.0,3899.0,-0.01,9.49,3.58,-0.11,-0.03,-0.02,1.0,d
2928.0,3248.0,3557.0,3712.0,4095.0,3201.0,3419.0,3883.0,-0.04,9.41,3.72,-0.1,-0.03,-0.03,1.0,d
2924.0,3254.0,3563.0,3715.0,4095.0,3195.0,3411.0,3881.0,-0.23,9.36,3.71,-0.13,-0.03,-0.06,1.0,d
2923.0,3248.0,3567.0,3679.0,4095.0,3138.0,3402.0,3878.0,-0.08,9.3,4.07,-0.09,0.03,-0.0,1.0,d
2924.0,3230.0,3558.0,3687.0,4095.0,3120.0,3397.0,3871.0,-0.33,9.37,3.61,-0.12,-0.02,0.06,1.0,d
2921.0,3227.0,3571.0,3651.0,4095.0,3079.0,3379.0,3866.0,-0.39,9.25,3.9,-0.04,0.03,0.12,1.0,d
2928.0,3232.0,3627.0,3614.0,4095.0,3007.0,3343.0,3918.0,-0.3,9.52,3.48,-0.12,0.09,0.22,1.0,d
2928.0,3248.0,3664.0,3567.0,4095.0,3094.0,3306.0,3894.0,0.97,9.25,4.02,-0.01,-0.01,-0.05,1.0,d
2919.0,3238.0,3677.0,3551.0,4095.0,3063.0,3297.0,3873.0,0.91,9.42,4.18,0.04,0.04,-0.05,1.0,d
2917.0,3247.0,3674.0,3569.0,4095.0,3099.0,3315.0,3890.0,-0.03,9.22,4.01,-0.05,0.01,-0.07,1.0,d
2918.0,3247.0,3696.0,3570.0,4095.0,3113.0,3316.0,3902.0,0.05,9.32,4.0,-0.01,-0.06,-0.1,1.0,d
2925.0,3249.0,3697.0,3556.0,4095.0,3103.0,3319.0,3925.0,-0.04,9.33,3.93,0.0,0.04,-0.07,1.0,d
2928.0,3271.0,3718.0,3568.0,4095.0,3115.0,3313.0,3915.0,0.07,9.33,3.96,-0.03,-0.02,-0.08,1.0,d
2940.0,3265.0,3693.0,3571.0,4095.0,3117.0,3312.0,3911.0,0.12,9.34,3.91,-0.02,-0.05,-0.04,1.0,d
2922.0,3250.0,3712.0,3562.0,4095.0,3122.0,3315.0,3898.0,0.21,9.47,3.81,0.08,-0.01,-0.11,1.0,d
2928.0,3274.0,3694.0,3565.0,4095.0,3126.0,3338.0,3920.0,-0.21,9.58,3.2,0.05,-0.02,-0.04,1.0,d
2915.0,3264.0,3696.0,3567.0,4095.0,3152.0,3343.0,3910.0,0.05,9.49,3.3,-0.01,-0.02,-0.06,1.0,d
2928.0,3262.0,3660.0,3582.0,4095.0,3157.0,3343.0,3875.0,-0.04,9.61,3.41,-0.09,-0.01,-0.04,1.0,d
