hall_1,hall_2,hall_3,flex_t,flex_i,flex_m,flex_r,flex_p,accel_x,accel_y,accel_z,gyro_x,gyro_y,gyro_z,sign
1333.0,3166.0,3436.0,2497.0,3155.0,3403.0,2800.0,3363.0,-0.03,9.2,2.08,-0.2,0.12,0.02,e
1326.0,3173.0,3438.0,2502.0,3153.0,3399.0,2789.0,3337.0,0.23,9.29,2.18,0.03,0.17,0.07,e
1312.0,3167.0,3438.0,2503.0,3151.0,3389.0,2778.0,3306.0,0.06,9.22,1.95,-0.1,0.24,0.1,e
1330.0,3168.0,3431.0,2512.0,3150.0,3394.0,2783.0,3312.0,0.53,9.27,1.97,-0.14,0.14,0.05,e
1327.0,3165.0,3437.0,2533.0,3152.0,3396.0,2781.0,3313.0,-0.69,9.07,1.79,-0.17,0.67,0.05,e
1326.0,3161.0,3424.0,2534.0,3152.0,3399.0,2780.0,3319.0,0.53,9.32,2.6,-0.24,0.38,0.1,e
1329.0,3158.0,3440.0,2531.0,3157.0,3397.0,2783.0,3323.0,-0.26,8.98,2.87,-0.13,0.79,0.04,e
1328.0,3161.0,3434.0,2533.0,3162.0,3398.0,2789.0,3328.0,0.34,9.32,2.75,0.04,0.13,0.13,e
1328.0,3168.0,3429.0,2523.0,3164.0,3407.0,2789.0,3345.0,0.81,8.88,3.34,-0.04,0.25,0.05,e
1327.0,3189.0,3457.0,2511.0,3163.0,3427.0,2817.0,3405.0,0.04,9.48,2.94,0.14,0.31,-0.03,e
1333.0,3185.0,3441.0,2514.0,3167.0,3426.0,2823.0,3408.0,0.48,9.07,2.36,0.03,0.43,-0.08,e
1344.0,3279.0,3547.0,2522.0,3184.0,3514.0,2921.0,3509.0,0.43,9.51,1.59,0.04,1.16,-0.12,e
1362.0,3217.0,3477.0,2550.0,3191.0,3465.0,2876.0,3472.0,-0.59,9.17,2.16,0.05,0.78,0.02,e
1370.0,3249.0,3517.0,2555.0,3191.0,3503.0,2912.0,3517.0,-0.22,9.39,2.32,0.03,0.47,-0.01,e
1364.0,3338.0,3602.0,2546.0,3185.0,3600.0,2992.0,3603.0,-0.86,9.04,2.58,0.06,-0.21,0.01,e
1363.0,3411.0,3693.0,2547.0,3189.0,3670.0,3060.0,3683.0,-0.36,9.39,2.49,-0.05,0.07,-0.09,e
1355.0,3190.0,3442.0,2543.0,3186.0,3433.0,2846.0,3449.0,-0.78,9.33,2.23,0.24,0.21,0.04,e
1360.0,3180.0,3437.0,2532.0,3183.0,3421.0,2833.0,3440.0,-0.51,9.34,1.86,0.11,0.29,0.0,e
1355.0,3184.0,3434.0,2534.0,3184.0,3425.0,2839.0,3456.0,-0.68,9.51,1.77,0.24,0.08,0.09,e
1359.0,3202.0,3460.0,2540.0,3184.0,3445.0,2864.0,3489.0,0.02,9.33,1.71,-0.04,0.1,0.01,e
1355.0,3196.0,3450.0,2545.0,3182.0,3440.0,2853.0,3483.0,-0.23,9.5,1.59,-0.02,0.16,0.06,e
1353.0,3211.0,3469.0,2547.0,3184.0,3454.0,2865.0,3494.0,-0.11,9.2,1.83,-0.17,0.16,0.03,e
1355.0,3152.0,3456.0,2547.0,3184.0,3447.0,2857.0,3487.0,-0.23,9.5,1.97,0.01,0.11,0.04,e
1357.0,3163.0,3434.0,2551.0,3184.0,3412.0,2829.0,3459.0,-0.47,9.22,1.93,-0.08,0.14,0.03,e
1370.0,3184.0,3440.0,2544.0,3189.0,3434.0,2846.0,3479.0,-0.11,9.49,1.93,0.06,0.12,0.01,e
1375.0,3190.0,3449.0,2542.0,3205.0,3447.0,2866.0,3531.0,-0.4,9.4,1.89,-0.1,0.4,0.03,e
1392.0,3217.0,3486.0,2593.0,3217.0,3476.0,2902.0,3583.0,-0.46,9.45,1.73,-0.04,0.36,0.08,e
1399.0,3238.0,3493.0,2614.0,3221.0,3498.0,2918.0,3612.0,-0.17,9.43,1.73,0.05,0.04,-0.01,e
1406.0,3248.0,3511.0,2625.0,3227.0,3504.0,2922.0,3621.0,-0.21,9.33,1.78,-0.07,-0.17,-0.05,e
1394.0,3151.0,3397.0,2624.0,3230.0,3409.0,2823.0,3495.0,-0.34,9.5,1.91,0.04,-0.0,-0.06,e
1398.0,3245.0,3504.0,2623.0,3227.0,3507.0,2921.0,3565.0,-0.52,9.2,1.87,0.12,0.0,-0.01,e
1397.0,3267.0,3515.0,2617.0,3223.0,3521.0,2930.0,3567.0,-0.34,9.57,1.81,0.01,-0.04,-0.01,e
1402.0,3206.0,3457.0,2605.0,3233.0,3470.0,2883.0,3514.0,-0.39,9.33,1.87,0.06,-0.07,0.0,e
1405.0,3198.0,3455.0,2591.0,3234.0,3456.0,2870.0,3504.0,-0.25,9.44,1.77,-0.01,-0.06,0.04,e
1402.0,3190.0,3449.0,2583.0,3233.0,3453.0,2864.0,3502.0,-0.4,9.39,1.67,0.16,-0.0,0.02,e
1397.0,3185.0,3442.0,2592.0,3234.0,3456.0,2866.0,3498.0,-0.23,9.52,1.48,0.06,-0.1,-0.02,e
1411.0,3082.0,3301.0,2593.0,3233.0,3311.0,2717.0,3346.0,-0.17,9.45,1.51,0.09,-0.15,-0.07,e
1405.0,3184.0,3437.0,2587.0,3237.0,3454.0,2859.0,3485.0,-0.16,9.42,1.81,0.11,-0.12,-0.06,e
1394.0,3192.0,3449.0,2603.0,3237.0,3456.0,2867.0,3490.0,-0.23,9.57,1.21,0.13,-0.18,-0.09,e
1398.0,3202.0,3461.0,2591.0,3235.0,3472.0,2885.0,3510.0,-0.42,9.4,0.86,-0.13,-0.32,-0.09,e
1399.0,3191.0,3443.0,2559.0,3233.0,3455.0,2876.0,3504.0,-0.59,9.56,1.21,0.02,-0.47,0.0,e
1399.0,3201.0,3456.0,2535.0,3223.0,3472.0,2887.0,3518.0,-0.21,9.56,1.36,0.2,-0.54,0.02,e
1401.0,3177.0,3434.0,2525.0,3220.0,3423.0,2823.0,3440.0,-0.3,9.48,1.04,0.0,-0.08,-0.01,e
1405.0,3013.0,3259.0,2522.0,3209.0,3274.0,2666.0,3317.0,-0.02,9.51,1.14,0.1,-0.23,-0.01,e
1402.0,3187.0,3440.0,2513.0,3200.0,3442.0,2846.0,3472.0,0.09,9.48,1.17,-0.1,-0.05,-0.06,e
1399.0,3325.0,3583.0,2499.0,3207.0,3601.0,2989.0,3618.0,0.04,9.42,1.37,-0.05,0.07,-0.06,e
1406.0,3152.0,3409.0,2511.0,3221.0,3429.0,2828.0,3428.0,-0.64,9.65,1.04,-0.14,0.43,-0.09,e
1394.0,3156.0,3421.0,2554.0,3226.0,3431.0,2784.0,3381.0,0.07,9.82,1.07,-0.76,0.43,-0.07,e
1441.0,3136.0,3381.0,2624.0,3254.0,3408.0,2743.0,3299.0,-1.97,8.99,1.89,-0.5,0.31,0.08,e
1438.0,3133.0,3366.0,2640.0,3254.0,3385.0,2726.0,3252.0,-0.47,9.65,2.16,-0.21,-0.06,0.09,e
1447.0,3120.0,3362.0,2655.0,3262.0,3383.0,2720.0,3248.0,-0.24,9.28,1.96,-0.17,0.07,-0.01,e
1441.0,3109.0,3365.0,2659.0,3262.0,3387.0,2717.0,3248.0,0.05,9.28,2.18,-0.25,-0.1,-0.0,e
1441.0,3108.0,3369.0,2669.0,3266.0,3389.0,2713.0,3254.0,-0.15,9.39,2.27,-0.21,0.12,-0.05,e
1439.0,3108.0,3357.0,2672.0,3269.0,3389.0,2705.0,3248.0,-0.6,8.96,2.48,-0.17,0.08,-0.03,e
1444.0,3118.0,3353.0,2672.0,3274.0,3393.0,2742.0,3312.0,-0.78,9.14,2.07,-0.04,-0.0,-0.01,e
1426.0,3163.0,3371.0,2675.0,3294.0,3471.0,2849.0,3489.0,-0.13,9.77,2.26,-0.02,-0.13,0.03,e
1407.0,3179.0,3355.0,2672.0,3308.0,3490.0,2878.0,3606.0,-0.56,9.17,2.21,0.01,-0.19,-0.07,e
1361.0,3195.0,3356.0,2657.0,3302.0,3517.0,2919.0,3778.0,-0.1,9.44,2.27,0.05,0.05,-0.12,e
1371.0,3210.0,3369.0,2659.0,3309.0,3532.0,2950.0,3906.0,-0.62,9.13,2.14,-0.16,0.09,-0.03,e
1865.0,3216.0,3361.0,2672.0,3305.0,3549.0,2964.0,3939.0,-0.59,9.15,2.29,-0.11,-0.16,0.11,e
3729.0,3203.0,3345.0,2668.0,3312.0,3553.0,2971.0,3876.0,-0.34,9.05,2.5,-0.08,-0.19,0.25,e
4095.0,3198.0,3351.0,2639.0,3305.0,3558.0,2960.0,3760.0,0.16,9.43,2.56,-0.12,-0.36,0.09,e
4095.0,3198.0,3355.0,2644.0,3268.0,3514.0,2928.0,3760.0,-0.07,9.47,2.33,0.12,-0.17,0.07,e
4095.0,3202.0,3371.0,2653.0,3216.0,3469.0,2896.0,3790.0,0.22,9.52,2.32,-0.1,-0.19,-0.11,e
4095.0,3216.0,3399.0,2663.0,3198.0,3483.0,2932.0,3863.0,-0.58,9.07,2.12,-0.19,-0.16,0.01,e
3856.0,3150.0,3361.0,2668.0,3168.0,3467.0,2951.0,4007.0,0.18,9.47,2.62,-0.13,-0.4,0.07,e
3704.0,2894.0,3335.0,2663.0,3140.0,3429.0,2992.0,4095.0,-0.28,9.18,2.45,-0.23,0.01,-0.06,e
3853.0,2935.0,3412.0,2662.0,3152.0,3486.0,3088.0,4095.0,0.28,9.0,2.55,-0.09,-0.56,0.06,e
3971.0,2999.0,3507.0,2657.0,3178.0,3600.0,3171.0,4095.0,0.16,9.02,3.05,0.13,-0.36,0.11,e
4095.0,3035.0,3504.0,2662.0,3189.0,3600.0,3150.0,4095.0,0.03,9.37,2.86,-0.08,-0.04,0.1,e
4095.0,3071.0,3541.0,2654.0,3218.0,3612.0,3119.0,4095.0,0.36,9.02,2.96,0.17,-0.39,0.35,e
4095.0,2947.0,3381.0,2659.0,3246.0,3468.0,2881.0,3664.0,0.43,9.35,2.77,0.1,-0.16,0.16,e
4095.0,2969.0,3376.0,2647.0,3263.0,3466.0,2832.0,3511.0,0.34,9.33,2.68,0.18,-0.17,0.19,e
4095.0,2967.0,3354.0,2639.0,3263.0,3451.0,2822.0,3472.0,0.91,9.32,2.34,0.29,-0.28,0.13,e
4095.0,3035.0,3413.0,2623.0,3259.0,3493.0,2868.0,3501.0,2.48,9.06,1.82,0.28,-0.5,-0.06,e
4095.0,3248.0,3570.0,2615.0,3248.0,3481.0,2830.0,3493.0,1.82,9.26,0.89,-0.12,-0.59,-0.52,e
4095.0,3376.0,3703.0,2618.0,3254.0,3471.0,2797.0,3386.0,3.28,9.45,1.68,0.08,-0.92,-0.58,e
4095.0,3488.0,3719.0,2597.0,3247.0,3454.0,2739.0,3269.0,1.82,8.78,1.99,0.14,-0.68,-0.71,e
4095.0,3312.0,3466.0,2589.0,3227.0,3458.0,2736.0,3229.0,1.12,9.18,1.72,0.02,-0.15,-0.75,e
4095.0,3328.0,3467.0,2578.0,3184.0,3478.0,2752.0,3236.0,-0.58,9.32,1.67,0.62,-0.13,-0.6,e
4095.0,3177.0,3321.0,2617.0,3151.0,3373.0,2635.0,3164.0,-1.71,9.19,1.56,0.52,-0.73,-0.49,e
4095.0,3119.0,3338.0,2624.0,3135.0,3440.0,2730.0,3280.0,-1.36,10.69,0.9,0.34,-0.6,-0.42,e
3841.0,2983.0,3290.0,2623.0,3108.0,3419.0,2713.0,3314.0,-1.0,10.32,0.05,0.12,-1.06,0.27,e
3605.0,2960.0,3291.0,2623.0,3088.0,3429.0,2725.0,3348.0,-0.61,9.24,-0.1,-0.08,-0.5,0.39,e
3398.0,2973.0,3294.0,2608.0,3088.0,3437.0,2718.0,3370.0,-0.04,9.6,-0.27,-0.1,-0.26,0.35,e
3234.0,2894.0,3299.0,2559.0,3068.0,3415.0,2688.0,3355.0,-0.79,9.55,-0.04,0.15,-0.21,0.2,e
3216.0,2845.0,3335.0,2530.0,3111.0,3439.0,2704.0,3296.0,-0.52,9.61,-0.79,-0.3,0.15,0.14,e
3227.0,2864.0,3343.0,2555.0,3120.0,3418.0,2693.0,3222.0,0.22,9.65,-0.0,0.09,0.43,0.14,e
3294.0,2910.0,3332.0,2559.0,3089.0,3382.0,2699.0,3190.0,-0.5,8.86,1.18,-0.17,0.64,-0.19,e
3381.0,2915.0,3329.0,2559.0,3088.0,3333.0,2761.0,3162.0,-0.87,9.61,1.05,0.21,0.42,-0.22,e
3696.0,2911.0,3330.0,2559.0,3124.0,3331.0,2723.0,3157.0,0.49,9.26,2.68,0.19,0.15,-0.31,e
3651.0,2890.0,3303.0,2559.0,3146.0,3305.0,2725.0,3105.0,0.14,10.1,1.91,0.19,0.54,-0.6,e
3715.0,2891.0,3307.0,2559.0,3153.0,3290.0,2646.0,3071.0,-0.3,10.36,1.04,0.68,0.54,-0.29,e
4095.0,2899.0,3296.0,2559.0,3159.0,3270.0,2633.0,3071.0,-0.68,8.97,0.38,-0.12,0.19,-0.04,e
4095.0,2896.0,3297.0,2578.0,3171.0,3264.0,2624.0,3088.0,-1.21,9.79,0.36,-0.4,0.14,0.01,e
4095.0,2896.0,3309.0,2581.0,3178.0,3270.0,2641.0,3106.0,-1.04,9.52,1.26,-0.29,-0.12,0.29,e
2487.0,2889.0,3300.0,2592.0,3182.0,3278.0,2640.0,3108.0,-0.18,9.63,1.51,-0.04,-0.03,0.24,e
2520.0,2906.0,3289.0,2591.0,3184.0,3295.0,2619.0,3105.0,-0.66,9.86,0.68,0.03,0.27,0.2,e
2346.0,2957.0,3303.0,2594.0,3183.0,3310.0,2603.0,3091.0,-0.09,9.63,1.13,0.25,0.24,0.2,e
1781.0,2976.0,3304.0,2594.0,3190.0,3289.0,2608.0,3093.0,0.29,9.51,0.56,-0.08,0.16,0.0,e
1447.0,2967.0,3298.0,2559.0,3191.0,3274.0,2583.0,3071.0,-0.27,9.22,-0.01,-0.07,0.0,0.11,e
1475.0,2961.0,3291.0,2578.0,3216.0,3296.0,2593.0,3095.0,0.08,9.91,-0.32,0.0,-0.05,0.15,e
1441.0,2959.0,3291.0,2584.0,3222.0,3302.0,2611.0,3121.0,0.16,9.84,-0.1,0.01,0.07,0.25,e
1424.0,2959.0,3287.0,2594.0,3207.0,3301.0,2626.0,3125.0,0.32,9.45,0.87,-0.09,-0.19,0.18,e
1405.0,2951.0,3290.0,2603.0,3210.0,3298.0,2625.0,3133.0,-0.4,9.73,0.31,-0.22,-0.01,0.14,e
1390.0,2951.0,3285.0,2608.0,3206.0,3301.0,2627.0,3130.0,-0.11,10.32,0.39,-0.28,-0.07,0.24,e
2249.0,2960.0,3303.0,2621.0,3237.0,3302.0,2638.0,3127.0,-0.66,10.0,0.51,-0.38,-0.48,0.47,e
3201.0,2961.0,3313.0,2595.0,3195.0,3318.0,2655.0,3130.0,0.38,9.37,0.4,-0.51,-0.56,0.49,e
3264.0,2827.0,3235.0,2559.0,3169.0,3248.0,2557.0,3029.0,2.34,8.84,1.59,-0.36,-0.72,0.26,e
3281.0,2819.0,3262.0,2584.0,3201.0,3290.0,2613.0,3054.0,1.35,8.25,0.45,0.45,-0.09,-0.01,e
3298.0,2805.0,3252.0,2585.0,3221.0,3299.0,2644.0,3057.0,1.37,9.44,-0.31,0.67,-0.01,-0.25,e
3280.0,2785.0,3250.0,2553.0,3207.0,3297.0,2611.0,3063.0,0.51,9.49,-1.3,0.32,0.23,-0.22,e
3283.0,2795.0,3271.0,2550.0,3231.0,3329.0,2640.0,3096.0,1.58,9.78,-1.05,-0.13,0.31,-0.14,e
3248.0,2711.0,3280.0,2535.0,3216.0,3312.0,2708.0,3120.0,1.2,9.56,-0.96,-0.15,-0.14,-0.19,e
3259.0,2694.0,3295.0,2544.0,3248.0,3323.0,2643.0,3179.0,1.75,8.45,0.29,0.32,-0.29,0.24,e
3268.0,2697.0,3291.0,2534.0,3226.0,3349.0,2672.0,3211.0,3.4,9.84,0.45,-1.01,0.18,0.19,e
3281.0,2701.0,3283.0,2541.0,3217.0,3362.0,2681.0,3237.0,3.96,10.08,2.39,-0.21,0.12,-0.25,e
3295.0,2707.0,3298.0,2546.0,3215.0,3366.0,2697.0,3260.0,1.0,9.94,1.9,-0.42,0.37,-0.4,e
3312.0,2796.0,3302.0,2551.0,3213.0,3355.0,2682.0,3231.0,0.46,9.88,1.99,-0.27,0.25,-0.47,e
3319.0,2832.0,3329.0,2544.0,3213.0,3377.0,2688.0,3210.0,-0.01,9.61,1.37,0.07,-0.27,-0.52,e
3327.0,2857.0,3327.0,2545.0,3216.0,3376.0,2691.0,3179.0,-0.35,9.16,1.38,-0.3,-0.33,-1.31,e
3356.0,2847.0,3301.0,2525.0,3222.0,3347.0,2668.0,3126.0,-0.97,8.64,3.92,1.0,-1.05,-0.46,e
3390.0,2863.0,3312.0,2527.0,3220.0,3339.0,2662.0,3115.0,-0.13,10.3,2.07,0.27,0.42,-0.99,e
3358.0,2815.0,3285.0,2543.0,3214.0,3312.0,2650.0,3103.0,-2.92,9.22,1.02,1.12,-0.44,-1.35,e
3294.0,2809.0,3328.0,2618.0,3229.0,3343.0,2718.0,3177.0,-4.24,8.49,-0.4,0.91,-1.16,-0.82,e
3195.0,2715.0,3297.0,2541.0,3159.0,3319.0,2704.0,3186.0,-1.56,9.33,-1.22,1.16,-1.87,0.85,e
3133.0,2695.0,3287.0,2467.0,3071.0,3319.0,2704.0,3204.0,-1.41,11.1,-1.73,0.66,-1.27,0.32,e
3132.0,2705.0,3285.0,2484.0,3061.0,3340.0,2726.0,3237.0,-1.96,6.05,-1.27,-0.37,-0.41,0.6,e
3133.0,2717.0,3303.0,2491.0,3052.0,3358.0,2735.0,3254.0,-0.02,11.93,-0.91,-0.19,-0.56,0.69,e
3184.0,2741.0,3286.0,2490.0,3056.0,3342.0,2704.0,3206.0,-0.03,7.98,-0.99,-1.15,1.62,0.1,e
3188.0,2739.0,3287.0,2477.0,3055.0,3319.0,2688.0,3162.0,-0.61,11.57,-0.51,0.33,0.93,-0.27,e
3247.0,2738.0,3289.0,2454.0,3043.0,3327.0,2699.0,3200.0,-1.73,9.23,-1.07,0.14,4.73,-1.73,e
3378.0,2706.0,3280.0,2449.0,3062.0,3312.0,2704.0,3211.0,-3.33,8.33,-1.44,-0.39,1.39,0.19,e
3477.0,2980.0,3553.0,2431.0,3062.0,3555.0,2955.0,3493.0,-1.42,10.53,-1.53,0.03,1.92,-0.18,e
3601.0,2962.0,3527.0,2432.0,3071.0,3530.0,2909.0,3490.0,-2.22,8.51,-1.29,-0.69,0.83,0.31,e
3750.0,2894.0,3435.0,2447.0,3087.0,3456.0,2830.0,3423.0,-2.71,8.89,-0.97,-0.48,1.0,0.24,e
3808.0,2940.0,3434.0,2454.0,3095.0,3459.0,2825.0,3413.0,0.28,9.75,0.45,-0.51,0.56,0.3,e
4095.0,3132.0,3504.0,2449.0,3149.0,3521.0,3556.0,3499.0,-2.38,9.66,-0.28,-0.58,1.4,-0.05,e
4095.0,3055.0,3376.0,2448.0,3162.0,3449.0,3171.0,3421.0,-1.29,9.08,-0.45,-0.31,0.78,0.23,e
4095.0,3175.0,3473.0,2471.0,3180.0,3552.0,3451.0,3568.0,-1.28,9.77,-0.31,-0.16,-0.35,0.3,e
4095.0,3195.0,3490.0,2466.0,3193.0,3583.0,3334.0,3664.0,-1.07,9.49,0.49,-0.45,-0.24,0.01,e
1406.0,3223.0,3459.0,2470.0,3237.0,3559.0,2945.0,3583.0,-2.29,9.16,-0.32,-0.28,0.19,0.32,e
2074.0,3234.0,3461.0,2478.0,3255.0,3566.0,3356.0,3555.0,-1.03,9.52,-0.19,-0.22,0.18,0.28,e
1342.0,3291.0,3503.0,2483.0,3206.0,3601.0,3376.0,3641.0,-2.46,9.26,-0.72,0.09,-0.63,0.48,e
1345.0,3248.0,3440.0,2516.0,3200.0,3536.0,2950.0,3583.0,1.81,8.5,0.56,-0.6,-3.03,0.68,e
1313.0,3278.0,3469.0,2483.0,3197.0,3566.0,3002.0,3643.0,-0.25,9.64,0.46,-0.42,-2.3,0.36,e
4095.0,3200.0,3379.0,2487.0,3217.0,3473.0,2909.0,3528.0,2.77,9.76,1.24,0.07,-2.56,0.13,e
3374.0,3184.0,3375.0,2481.0,3246.0,3483.0,2911.0,3546.0,1.21,9.46,0.17,-0.28,-1.15,-0.07,e
3307.0,3184.0,3390.0,2512.0,3302.0,3523.0,2951.0,3626.0,1.83,9.07,0.52,-0.08,-0.84,-0.57,e
3312.0,3152.0,3355.0,2512.0,3343.0,3529.0,2961.0,3674.0,1.07,9.31,0.29,-0.08,-0.47,-0.44,e
3283.0,3141.0,3324.0,2483.0,3337.0,3508.0,2942.0,3664.0,0.65,10.68,0.15,0.1,-0.57,-0.35,e
3287.0,3120.0,3311.0,2470.0,3303.0,3472.0,2939.0,3606.0,0.84,9.14,0.62,0.21,-0.91,-0.53,e
3275.0,3145.0,3341.0,2451.0,3227.0,3440.0,3130.0,3439.0,1.0,10.69,-0.03,1.78,-2.16,-0.71,e
3259.0,3135.0,3328.0,2432.0,3187.0,3399.0,2855.0,3309.0,0.09,8.71,-0.85,-0.1,-0.06,-1.07,e
3277.0,3156.0,3354.0,2439.0,3170.0,3411.0,2835.0,3301.0,-1.78,9.91,-0.84,0.3,-0.14,-0.29,e
3280.0,3178.0,3363.0,2438.0,3175.0,3424.0,2855.0,3376.0,-2.21,8.39,-0.83,-0.01,0.36,-0.38,e
3285.0,3183.0,3356.0,2446.0,3201.0,3433.0,2877.0,3504.0,-1.3,9.96,-0.65,-0.5,-0.08,0.01,e
3290.0,3184.0,3357.0,2459.0,3261.0,3455.0,2898.0,3710.0,-1.16,9.18,-0.17,-0.19,-0.4,0.15,e
3311.0,3187.0,3359.0,2454.0,3351.0,3479.0,2935.0,3885.0,-1.46,9.07,-0.29,-0.5,0.35,0.1,e
3296.0,3171.0,3344.0,2436.0,3367.0,3497.0,2961.0,3868.0,-0.76,10.15,0.34,0.21,0.33,0.12,e
3242.0,3168.0,3335.0,2471.0,3356.0,3493.0,3008.0,3827.0,-1.73,8.96,0.26,0.07,0.71,0.17,e
3275.0,3166.0,3332.0,2467.0,3312.0,3475.0,2907.0,3766.0,0.82,10.58,0.34,0.09,0.9,-0.14,e
4095.0,3166.0,3331.0,2417.0,3188.0,2675.0,2857.0,3671.0,-4.64,9.37,-0.8,0.68,2.17,-0.38,e
3426.0,3177.0,3344.0,2410.0,3179.0,3397.0,3135.0,3548.0,-1.1,8.95,-0.79,-0.31,2.13,0.25,e
2887.0,3170.0,3355.0,2425.0,3183.0,3374.0,2768.0,3398.0,-0.59,10.34,-1.21,-0.48,-0.32,0.99,e
2741.0,3089.0,3278.0,2442.0,3203.0,3301.0,2731.0,3266.0,-1.0,9.12,-0.54,-0.57,0.81,0.94,e
2739.0,3134.0,3323.0,2460.0,3216.0,3392.0,2977.0,3393.0,-0.05,9.77,-0.3,-0.73,1.83,0.26,e
2740.0,3147.0,3363.0,2460.0,3226.0,3363.0,3103.0,3333.0,2.19,9.76,1.01,-0.73,2.1,0.3,e
2674.0,2955.0,3152.0,2469.0,3233.0,3202.0,2945.0,3152.0,-2.08,9.15,-0.16,-0.22,2.53,0.06,e
2421.0,2910.0,3122.0,2487.0,3293.0,3211.0,2960.0,3105.0,0.86,9.64,0.74,-0.25,0.99,0.32,e
2881.0,2857.0,3085.0,2511.0,3312.0,3191.0,2736.0,3001.0,-0.08,9.11,0.89,-0.09,0.14,0.01,e
3041.0,2779.0,3069.0,2512.0,3230.0,3171.0,2688.0,2964.0,1.18,10.34,1.02,-0.22,-0.56,0.02,e
3726.0,2764.0,3069.0,2513.0,3179.0,3137.0,2661.0,2935.0,-0.1,9.28,0.96,0.4,0.12,-0.11,e
4095.0,2919.0,3235.0,2513.0,3199.0,3302.0,2875.0,3106.0,-0.11,8.99,0.64,-0.02,-0.17,0.1,e
4095.0,2928.0,3263.0,2511.0,3206.0,3335.0,2711.0,3142.0,-0.43,9.41,0.12,0.14,-0.89,0.11,e
3797.0,2975.0,3376.0,2485.0,3216.0,3460.0,2955.0,3247.0,3.1,10.2,1.05,0.19,-1.93,0.13,e
3750.0,2997.0,3429.0,2480.0,3236.0,3552.0,3152.0,3382.0,0.42,9.22,-0.04,-0.12,-1.45,-0.14,e
3665.0,2973.0,3397.0,2475.0,3251.0,3516.0,3200.0,3473.0,1.41,9.84,0.63,-0.24,-0.33,-0.11,e
3625.0,2957.0,3373.0,2473.0,3258.0,3499.0,3123.0,3463.0,-0.39,9.6,0.51,-0.25,0.31,-0.16,e
3643.0,3029.0,3413.0,2481.0,3280.0,3562.0,3207.0,3561.0,0.59,9.88,0.51,-0.16,0.33,-0.1,e
3574.0,3009.0,3380.0,2494.0,3315.0,3599.0,3181.0,3636.0,-0.22,9.19,0.37,-0.46,-0.18,-0.3,e
3568.0,3005.0,3348.0,2496.0,3321.0,3555.0,3062.0,3646.0,0.28,9.91,0.76,-0.09,-0.92,-0.29,e
3598.0,2913.0,3245.0,2501.0,3324.0,3463.0,2978.0,3559.0,0.78,9.49,0.59,-0.31,-0.97,-0.34,e
3583.0,2940.0,3277.0,2489.0,3315.0,3473.0,2983.0,3573.0,0.08,9.5,0.53,-0.2,-0.95,-0.26,e
3622.0,3029.0,3358.0,2497.0,3283.0,3501.0,3016.0,3597.0,-1.2,10.3,0.37,0.35,-0.63,-0.24,e
3580.0,2955.0,3280.0,2484.0,3263.0,3431.0,2873.0,3526.0,0.46,9.81,1.18,-0.05,-0.79,-0.57,e
3568.0,2992.0,3323.0,2483.0,3280.0,3470.0,2921.0,3577.0,0.1,9.18,0.13,-0.39,-0.86,-0.57,e
3637.0,3014.0,3337.0,2491.0,3250.0,3392.0,3037.0,3452.0,0.98,9.19,1.1,-0.63,-0.63,-0.08,e
3757.0,2991.0,3315.0,2480.0,3210.0,3311.0,2935.0,3263.0,0.52,9.87,2.06,-0.29,-0.59,0.23,e
3791.0,2993.0,3328.0,2482.0,3189.0,3321.0,2695.0,3212.0,0.2,9.64,2.69,-0.53,0.38,-0.16,e
3790.0,2991.0,3333.0,2478.0,3185.0,3337.0,2717.0,3200.0,-0.18,9.11,2.56,-0.59,-0.07,-0.57,e
3761.0,2932.0,3283.0,2469.0,3200.0,3297.0,2677.0,3163.0,-0.64,9.23,2.6,-0.03,-0.58,-0.5,e
3746.0,2926.0,3279.0,2451.0,3227.0,3314.0,2704.0,3174.0,-0.53,9.76,2.48,-0.22,-0.46,-0.71,e
3569.0,2939.0,3289.0,2461.0,3248.0,3347.0,3008.0,3299.0,-1.29,8.57,1.98,-0.31,-0.3,-0.73,e
3534.0,2960.0,3303.0,2435.0,3274.0,3370.0,2962.0,3467.0,-2.07,8.53,2.28,0.42,-0.35,-0.42,e
3562.0,2982.0,3297.0,2454.0,3298.0,3375.0,3136.0,3566.0,-1.26,8.98,2.66,-0.6,0.06,-0.55,e
3562.0,2971.0,3295.0,2490.0,3331.0,3378.0,2870.0,3548.0,-2.6,8.75,3.05,0.0,-0.03,-0.12,e
3454.0,2977.0,3307.0,2513.0,3292.0,3394.0,3152.0,3541.0,-2.07,8.74,2.74,-0.21,0.07,0.62,e
3406.0,2988.0,3311.0,2516.0,3295.0,3421.0,3262.0,3559.0,-1.74,9.43,2.56,-0.24,0.4,0.68,e
3382.0,3024.0,3312.0,2522.0,3305.0,3440.0,3056.0,3568.0,-1.5,8.99,3.29,0.2,1.0,1.0,e
3504.0,3023.0,3270.0,2495.0,3243.0,3325.0,2759.0,3503.0,-0.0,9.19,2.8,-0.03,1.1,0.28,e
3814.0,3079.0,3280.0,2491.0,3210.0,3278.0,2711.0,3519.0,0.02,9.75,2.51,0.12,0.01,0.32,e
4095.0,3088.0,3285.0,2476.0,3220.0,3267.0,2915.0,3524.0,-0.51,8.82,2.68,0.1,0.78,0.11,e
4095.0,3093.0,3291.0,2469.0,3227.0,3265.0,2757.0,3422.0,0.05,9.62,2.47,0.14,0.46,0.23,e
4095.0,3088.0,3280.0,2479.0,3231.0,3255.0,2709.0,3297.0,-1.43,9.18,1.85,0.27,0.33,0.32,e
4095.0,3099.0,3280.0,2480.0,3241.0,3265.0,2718.0,3231.0,0.38,9.33,1.75,-0.07,0.09,0.46,e
4032.0,3103.0,3287.0,2485.0,3233.0,3275.0,2733.0,3152.0,-0.03,9.89,3.09,0.04,0.33,0.12,e
3839.0,3095.0,3274.0,2489.0,3195.0,3265.0,2721.0,3129.0,-0.33,9.17,2.0,0.52,1.52,0.02,e
3958.0,3120.0,3293.0,2496.0,3173.0,3280.0,2749.0,3166.0,0.38,9.33,1.01,0.2,-0.13,0.1,e
3987.0,3133.0,3305.0,2496.0,3179.0,3296.0,2750.0,3199.0,-0.23,9.48,0.15,0.03,-0.22,0.14,e
3517.0,3137.0,3291.0,2511.0,3173.0,3313.0,2958.0,3312.0,0.89,9.35,1.08,0.06,-1.02,0.08,e
3353.0,3152.0,3295.0,2487.0,3165.0,3361.0,3047.0,3486.0,0.91,9.57,1.33,0.07,-0.73,-0.0,e
3351.0,3168.0,3281.0,2487.0,3203.0,3408.0,3157.0,3600.0,0.34,9.95,2.05,0.41,-0.45,0.13,e
3357.0,3167.0,3280.0,2490.0,3217.0,3425.0,3184.0,3657.0,0.03,9.23,0.94,-0.06,-0.26,-0.05,e
3347.0,3165.0,3279.0,2493.0,3234.0,3434.0,3179.0,3658.0,0.41,10.15,0.81,0.15,-0.36,0.09,e
3393.0,3160.0,3277.0,2505.0,3289.0,3437.0,3177.0,3649.0,0.33,9.15,1.77,0.3,-0.06,0.08,e
3274.0,3177.0,3281.0,2501.0,3375.0,3435.0,3180.0,3662.0,0.03,9.98,1.07,0.14,0.18,0.13,e
3159.0,3167.0,3280.0,2498.0,3392.0,3409.0,3113.0,3562.0,0.64,9.54,0.61,0.43,0.21,-0.01,e
3387.0,3169.0,3292.0,2486.0,3391.0,3378.0,3059.0,3507.0,0.02,9.5,-0.09,0.02,0.1,-0.1,e
4095.0,3182.0,3297.0,2489.0,3378.0,3365.0,3056.0,3490.0,0.66,9.79,-0.42,0.3,-0.1,-0.05,e
4095.0,3173.0,3286.0,2493.0,3383.0,3345.0,3039.0,3438.0,0.94,9.32,0.0,-0.06,0.26,-0.1,e
4095.0,3168.0,3279.0,2494.0,3401.0,3342.0,3016.0,3344.0,1.01,9.58,-0.02,0.03,0.11,0.03,e
1350.0,3165.0,3280.0,2470.0,3385.0,3315.0,2944.0,3167.0,0.27,9.26,0.02,0.1,0.48,-0.06,e
1388.0,3152.0,3279.0,2462.0,3347.0,3287.0,2911.0,3146.0,1.82,10.07,0.6,0.26,0.46,-0.48,e
1343.0,3153.0,3282.0,2451.0,3334.0,3275.0,2896.0,3141.0,-1.29,9.41,-1.09,0.42,0.32,-0.55,e
1350.0,3158.0,3283.0,2457.0,3321.0,3280.0,2901.0,3161.0,0.05,9.09,-1.18,0.06,-0.31,-0.38,e
1357.0,3152.0,3281.0,2464.0,3319.0,3279.0,2896.0,3163.0,-0.94,9.63,-1.79,0.04,-0.87,-0.09,e
