hall_1,hall_2,hall_3,flex_t,flex_i,flex_m,flex_r,flex_p,accel_x,accel_y,accel_z,gyro_x,gyro_y,gyro_z,hand,sign
3222.0,3550.0,3226.0,3003.0,2422.0,2210.0,2430.0,2256.0,-1.79,9.46,6.66,0.02,0.09,-0.15,0.0,e
3216.0,3554.0,3233.0,2994.0,2428.0,2208.0,2423.0,2261.0,-1.65,9.39,6.55,0.01,-0.02,-0.15,0.0,e
3217.0,3571.0,3229.0,3015.0,2428.0,2207.0,2420.0,2263.0,-1.68,9.37,6.5,0.04,-0.02,-0.15,0.0,e
3217.0,3571.0,3229.0,3015.0,2428.0,2207.0,2420.0,2263.0,-1.68,9.37,6.5,0.04,-0.02,-0.15,0.0,e
3213.0,3554.0,3233.0,3015.0,2421.0,2214.0,2419.0,2260.0,-1.57,9.35,6.75,-0.02,-0.01,-0.15,0.0,e
3213.0,3554.0,3233.0,3015.0,2421.0,2214.0,2419.0,2260.0,-1.57,9.35,6.75,-0.02,-0.01,-0.15,0.0,e
3213.0,3554.0,3233.0,3015.0,2421.0,2214.0,2419.0,2260.0,-1.57,9.35,6.75,-0.02,-0.01,-0.15,0.0,e
3206.0,3536.0,3233.0,3008.0,2423.0,2209.0,2419.0,2263.0,-1.6,9.4,6.54,0.02,-0.02,-0.15,0.0,e
3206.0,3536.0,3233.0,3008.0,2423.0,2209.0,2419.0,2263.0,-1.6,9.4,6.54,0.02,-0.02,-0.15,0.0,e
3206.0,3536.0,3233.0,3008.0,2423.0,2209.0,2419.0,2263.0,-1.6,9.4,6.54,0.02,-0.02,-0.15,0.0,e
3206.0,3536.0,3233.0,3008.0,2423.0,2209.0,2419.0,2263.0,-1.6,9.4,6.54,0.02,-0.02,-0.15,0.0,e
3206.0,3536.0,3233.0,3008.0,2423.0,2209.0,2419.0,2263.0,-1.6,9.4,6.54,0.02,-0.02,-0.15,0.0,e
3206.0,3536.0,3233.0,3008.0,2423.0,2209.0,2419.0,2263.0,-1.6,9.4,6.54,0.02,-0.02,-0.15,0.0,e
3207.0,3562.0,3232.0,3011.0,2426.0,2211.0,2429.0,2263.0,-1.69,9.41,6.61,-0.0,-0.01,-0.15,0.0,e
3207.0,3562.0,3232.0,3011.0,2426.0,2211.0,2429.0,2263.0,-1.69,9.41,6.61,-0.0,-0.01,-0.15,0.0,e
3216.0,3562.0,3233.0,3007.0,2430.0,2206.0,2421.0,2259.0,-1.65,9.4,6.56,0.02,0.03,-0.15,0.0,e
3219.0,3536.0,3219.0,3014.0,2423.0,2215.0,2418.0,2272.0,-1.75,9.4,6.6,0.0,0.01,-0.15,0.0,e
3219.0,3536.0,3219.0,3014.0,2423.0,2215.0,2418.0,2272.0,-1.75,9.4,6.6,0.0,0.01,-0.15,0.0,e
3219.0,3536.0,3219.0,3014.0,2423.0,2215.0,2418.0,2272.0,-1.75,9.4,6.6,0.0,0.01,-0.15,0.0,e
3349.0,3583.0,3032.0,3087.0,2368.0,2139.0,2351.0,2177.0,-1.37,9.5,6.76,-0.03,-0.02,-0.15,0.0,e
3349.0,3583.0,3032.0,3087.0,2368.0,2139.0,2351.0,2177.0,-1.37,9.5,6.76,-0.03,-0.02,-0.15,0.0,e
3349.0,3583.0,3032.0,3087.0,2368.0,2139.0,2351.0,2177.0,-1.37,9.5,6.76,-0.03,-0.02,-0.15,0.0,e
3349.0,3583.0,3032.0,3087.0,2368.0,2139.0,2351.0,2177.0,-1.37,9.5,6.76,-0.03,-0.02,-0.15,0.0,e
3350.0,3574.0,3017.0,3091.0,2375.0,2135.0,2347.0,2180.0,-1.52,9.43,6.82,-0.01,-0.02,-0.15,0.0,e
3350.0,3574.0,3017.0,3091.0,2375.0,2135.0,2347.0,2180.0,-1.52,9.43,6.82,-0.01,-0.02,-0.15,0.0,e
3350.0,3574.0,3017.0,3091.0,2375.0,2135.0,2347.0,2180.0,-1.52,9.43,6.82,-0.01,-0.02,-0.15,0.0,e
3350.0,3574.0,3017.0,3091.0,2375.0,2135.0,2347.0,2180.0,-1.52,9.43,6.82,-0.01,-0.02,-0.15,0.0,e
3350.0,3574.0,3017.0,3091.0,2375.0,2135.0,2347.0,2180.0,-1.52,9.43,6.82,-0.01,-0.02,-0.15,0.0,e
3350.0,3574.0,3017.0,3091.0,2375.0,2135.0,2347.0,2180.0,-1.52,9.43,6.82,-0.01,-0.02,-0.15,0.0,e
3345.0,3568.0,3015.0,3092.0,2379.0,2144.0,2355.0,2182.0,-1.77,9.37,6.65,-0.01,-0.02,-0.15,0.0,e
3345.0,3568.0,3015.0,3092.0,2379.0,2144.0,2355.0,2182.0,-1.77,9.37,6.65,-0.01,-0.02,-0.15,0.0,e
3345.0,3568.0,3015.0,3092.0,2379.0,2144.0,2355.0,2182.0,-1.77,9.37,6.65,-0.01,-0.02,-0.15,0.0,e
3345.0,3568.0,3015.0,3092.0,2379.0,2144.0,2355.0,2182.0,-1.77,9.37,6.65,-0.01,-0.02,-0.15,0.0,e
3345.0,3568.0,3015.0,3092.0,2379.0,2144.0,2355.0,2182.0,-1.77,9.37,6.65,-0.01,-0.02,-0.15,0.0,e
3345.0,3568.0,3015.0,3092.0,2379.0,2144.0,2355.0,2182.0,-1.77,9.37,6.65,-0.01,-0.02,-0.15,0.0,e
3362.0,3568.0,3018.0,3105.0,2383.0,2150.0,2353.0,2187.0,-1.68,9.37,7.08,0.03,0.01,-0.15,0.0,e
3362.0,3568.0,3018.0,3105.0,2383.0,2150.0,2353.0,2187.0,-1.68,9.37,7.08,0.03,0.01,-0.15,0.0,e
3349.0,3571.0,3021.0,3101.0,2383.0,2147.0,2351.0,2186.0,-1.4,9.29,7.08,-0.05,-0.03,-0.15,0.0,e
3349.0,3571.0,3021.0,3101.0,2383.0,2147.0,2351.0,2186.0,-1.4,9.29,7.08,-0.05,-0.03,-0.15,0.0,e
3349.0,3571.0,3021.0,3101.0,2383.0,2147.0,2351.0,2186.0,-1.4,9.29,7.08,-0.05,-0.03,-0.15,0.0,e
3377.0,3414.0,3011.0,3202.0,2421.0,2174.0,2371.0,2165.0,-1.15,0.0,9.37,7.1,-0.1,-0.06,-0.16,e
3377.0,3414.0,3011.0,3202.0,2421.0,2174.0,2371.0,2165.0,-1.15,0.0,9.37,7.1,-0.1,-0.06,-0.16,e
3377.0,3414.0,3011.0,3202.0,2421.0,2174.0,2371.0,2165.0,-1.15,0.0,9.37,7.1,-0.1,-0.06,-0.16,e
3377.0,3414.0,3011.0,3202.0,2421.0,2174.0,2371.0,2165.0,-1.15,0.0,9.37,7.1,-0.1,-0.06,-0.16,e
3377.0,3414.0,3011.0,3202.0,2421.0,2174.0,2371.0,2165.0,-1.15,0.0,9.37,7.1,-0.1,-0.06,-0.16,e
3377.0,3414.0,3011.0,3202.0,2421.0,2174.0,2371.0,2165.0,-1.15,0.0,9.37,7.1,-0.1,-0.06,-0.16,e
3377.0,3414.0,3011.0,3202.0,2421.0,2174.0,2371.0,2165.0,-1.15,0.0,9.37,7.1,-0.1,-0.06,-0.16,e
3377.0,3414.0,3011.0,3202.0,2421.0,2174.0,2371.0,2165.0,-1.15,0.0,9.37,7.1,-0.1,-0.06,-0.16,e
3377.0,3414.0,3011.0,3202.0,2421.0,2174.0,2371.0,2165.0,-1.15,0.0,9.37,7.1,-0.1,-0.06,-0.16,e
3377.0,3414.0,3011.0,3202.0,2421.0,2174.0,2371.0,2165.0,-1.15,0.0,9.37,7.1,-0.1,-0.06,-0.16,e
3377.0,3414.0,3011.0,3202.0,2421.0,2174.0,2371.0,2165.0,-1.15,0.0,9.37,7.1,-0.1,-0.06,-0.16,e
3377.0,3414.0,3011.0,3202.0,2421.0,2174.0,2371.0,2165.0,-1.15,0.0,9.37,7.1,-0.1,-0.06,-0.16,e
3377.0,3414.0,3011.0,3202.0,2421.0,2174.0,2371.0,2165.0,-1.15,0.0,9.37,7.1,-0.1,-0.06,-0.16,e
3377.0,3414.0,3011.0,3202.0,2421.0,2174.0,2371.0,2165.0,-1.15,0.0,9.37,7.1,-0.1,-0.06,-0.16,e
3377.0,3414.0,3011.0,3202.0,2421.0,2174.0,2371.0,2165.0,-1.15,0.0,9.37,7.1,-0.1,-0.06,-0.16,e
3377.0,3414.0,3011.0,3202.0,2421.0,2174.0,2371.0,2165.0,-1.15,0.0,9.37,7.1,-0.1,-0.06,-0.16,e
3377.0,3414.0,3011.0,3202.0,2421.0,2174.0,2371.0,2165.0,-1.15,0.0,9.37,7.1,-0.1,-0.06,-0.16,e
3377.0,3414.0,3011.0,3202.0,2421.0,2174.0,2371.0,2165.0,-1.15,0.0,9.37,7.1,-0.1,-0.06,-0.16,e
3377.0,3414.0,3011.0,3202.0,2421.0,2174.0,2371.0,2165.0,-1.15,0.0,9.37,7.1,-0.1,-0.06,-0.16,e
3377.0,3414.0,3011.0,3202.0,2421.0,2174.0,2371.0,2165.0,-1.15,0.0,9.37,7.1,-0.1,-0.06,-0.16,e
3379.0,3641.0,3007.0,3344.0,2406.0,2151.0,2352.0,2156.0,-0.95,9.3,7.03,-0.04,0.0,-0.15,0.0,e
3379.0,3641.0,3007.0,3344.0,2406.0,2151.0,2352.0,2156.0,-0.95,9.3,7.03,-0.04,0.0,-0.15,0.0,e
3379.0,3641.0,3007.0,3344.0,2406.0,2151.0,2352.0,2156.0,-0.95,9.3,7.03,-0.04,0.0,-0.15,0.0,e
3379.0,3641.0,3007.0,3344.0,2406.0,2151.0,2352.0,2156.0,-0.95,9.3,7.03,-0.04,0.0,-0.15,0.0,e
3379.0,3641.0,3007.0,3344.0,2406.0,2151.0,2352.0,2156.0,-0.95,9.3,7.03,-0.04,0.0,-0.15,0.0,e
3379.0,3641.0,3007.0,3344.0,2406.0,2151.0,2352.0,2156.0,-0.95,9.3,7.03,-0.04,0.0,-0.15,0.0,e
3379.0,3641.0,3007.0,3344.0,2406.0,2151.0,2352.0,2156.0,-0.95,9.3,7.03,-0.04,0.0,-0.15,0.0,e
3379.0,3641.0,3007.0,3344.0,2406.0,2151.0,2352.0,2156.0,-0.95,9.3,7.03,-0.04,0.0,-0.15,0.0,e
3379.0,3641.0,3007.0,3344.0,2406.0,2151.0,2352.0,2156.0,-0.95,9.3,7.03,-0.04,0.0,-0.15,0.0,e
3379.0,3641.0,3007.0,3344.0,2406.0,2151.0,2352.0,2156.0,-0.95,9.3,7.03,-0.04,0.0,-0.15,0.0,e
3379.0,3641.0,3007.0,3344.0,2406.0,2151.0,2352.0,2156.0,-0.95,9.3,7.03,-0.04,0.0,-0.15,0.0,e
3379.0,3641.0,3007.0,3344.0,2406.0,2151.0,2352.0,2156.0,-0.95,9.3,7.03,-0.04,0.0,-0.15,0.0,e
3379.0,3641.0,3007.0,3344.0,2406.0,2151.0,2352.0,2156.0,-0.95,9.3,7.03,-0.04,0.0,-0.15,0.0,e
3429.0,3471.0,2971.0,3015.0,2448.0,2189.0,2422.0,2172.0,-1.07,9.68,6.38,0.02,-0.03,-0.15,0.0,e
3429.0,3471.0,2971.0,3015.0,2448.0,2189.0,2422.0,2172.0,-1.07,9.68,6.38,0.02,-0.03,-0.15,0.0,e
3429.0,3471.0,2971.0,3015.0,2448.0,2189.0,2422.0,2172.0,-1.07,9.68,6.38,0.02,-0.03,-0.15,0.0,e
3429.0,3471.0,2971.0,3015.0,2448.0,2189.0,2422.0,2172.0,-1.07,9.68,6.38,0.02,-0.03,-0.15,0.0,e
3429.0,3471.0,2971.0,3015.0,2448.0,2189.0,2422.0,2172.0,-1.07,9.68,6.38,0.02,-0.03,-0.15,0.0,e
3429.0,3471.0,2971.0,3015.0,2448.0,2189.0,2422.0,2172.0,-1.07,9.68,6.38,0.02,-0.03,-0.15,0.0,e
3429.0,3471.0,2971.0,3015.0,2448.0,2189.0,2422.0,2172.0,-1.07,9.68,6.38,0.02,-0.03,-0.15,0.0,e
3429.0,3471.0,2971.0,3015.0,2448.0,2189.0,2422.0,2172.0,-1.07,9.68,6.38,0.02,-0.03,-0.15,0.0,e
3424.0,3481.0,2989.0,3054.0,2480.0,2207.0,2448.0,2203.0,-0.62,9.6,6.52,-0.0,0.02,-0.15,0.0,e
3424.0,3481.0,2989.0,3054.0,2480.0,2207.0,2448.0,2203.0,-0.62,9.6,6.52,-0.0,0.02,-0.15,0.0,e
3424.0,3481.0,2989.0,3054.0,2480.0,2207.0,2448.0,2203.0,-0.62,9.6,6.52,-0.0,0.02,-0.15,0.0,e
3424.0,3481.0,2989.0,3054.0,2480.0,2207.0,2448.0,2203.0,-0.62,9.6,6.52,-0.0,0.02,-0.15,0.0,e
3424.0,3481.0,2989.0,3054.0,2480.0,2207.0,2448.0,2203.0,-0.62,9.6,6.52,-0.0,0.02,-0.15,0.0,e
3424.0,3481.0,2989.0,3054.0,2480.0,2207.0,2448.0,2203.0,-0.62,9.6,6.52,-0.0,0.02,-0.15,0.0,e
3424.0,3481.0,2989.0,3054.0,2480.0,2207.0,2448.0,2203.0,-0.62,9.6,6.52,-0.0,0.02,-0.15,0.0,e
3424.0,3481.0,2989.0,3054.0,2480.0,2207.0,2448.0,2203.0,-0.62,9.6,6.52,-0.0,0.02,-0.15,0.0,e
3424.0,3481.0,2989.0,3054.0,2480.0,2207.0,2448.0,2203.0,-0.62,9.6,6.52,-0.0,0.02,-0.15,0.0,e
3424.0,3481.0,2989.0,3054.0,2480.0,2207.0,2448.0,2203.0,-0.62,9.6,6.52,-0.0,0.02,-0.15,0.0,e
3424.0,3481.0,2989.0,3054.0,2480.0,2207.0,2448.0,2203.0,-0.62,9.6,6.52,-0.0,0.02,-0.15,0.0,e
3426.0,3456.0,2977.0,3069.0,2487.0,2218.0,2458.0,2202.0,-0.75,9.45,6.78,0.07,0.0,-0.15,0.0,e
3426.0,3456.0,2977.0,3069.0,2487.0,2218.0,2458.0,2202.0,-0.75,9.45,6.78,0.07,0.0,-0.15,0.0,e
3426.0,3456.0,2977.0,3069.0,2487.0,2218.0,2458.0,2202.0,-0.75,9.45,6.78,0.07,0.0,-0.15,0.0,e
3426.0,3456.0,2977.0,3069.0,2487.0,2218.0,2458.0,2202.0,-0.75,9.45,6.78,0.07,0.0,-0.15,0.0,e
3426.0,3456.0,2977.0,3069.0,2487.0,2218.0,2458.0,2202.0,-0.75,9.45,6.78,0.07,0.0,-0.15,0.0,e
3426.0,3456.0,2977.0,3069.0,2487.0,2218.0,2458.0,2202.0,-0.75,9.45,6.78,0.07,0.0,-0.15,0.0,e
3426.0,3456.0,2977.0,3069.0,2487.0,2218.0,2458.0,2202.0,-0.75,9.45,6.78,0.07,0.0,-0.15,0.0,e
3426.0,3456.0,2977.0,3069.0,2487.0,2218.0,2458.0,2202.0,-0.75,9.45,6.78,0.07,0.0,-0.15,0.0,e
3293.0,3493.0,2998.0,3119.0,2362.0,2160.0,2327.0,2131.0,-0.75,9.47,6.38,0.0,-0.01,-0.15,0.0,e
3293.0,3493.0,2998.0,3119.0,2362.0,2160.0,2327.0,2131.0,-0.75,9.47,6.38,0.0,-0.01,-0.15,0.0,e
3294.0,3487.0,2983.0,3122.0,2367.0,2165.0,2342.0,2138.0,-0.76,9.66,6.29,0.01,0.01,-0.15,0.0,e
3294.0,3487.0,2983.0,3122.0,2367.0,2165.0,2342.0,2138.0,-0.76,9.66,6.29,0.01,0.01,-0.15,0.0,e
3294.0,3487.0,2983.0,3122.0,2367.0,2165.0,2342.0,2138.0,-0.76,9.66,6.29,0.01,0.01,-0.15,0.0,e
3288.0,3482.0,2999.0,3120.0,2368.0,2167.0,2333.0,2142.0,-0.67,9.56,6.44,-0.03,0.02,-0.15,0.0,e
3297.0,3486.0,3006.0,3121.0,2383.0,2173.0,2341.0,2140.0,-0.82,9.59,6.46,-0.01,0.01,-0.15,0.0,e
3297.0,3486.0,3006.0,3121.0,2383.0,2173.0,2341.0,2140.0,-0.82,9.59,6.46,-0.01,0.01,-0.15,0.0,e
3307.0,3507.0,2993.0,3152.0,2397.0,2167.0,2349.0,2146.0,-0.78,9.64,6.25,-0.01,0.0,-0.15,0.0,e
3307.0,3507.0,2993.0,3152.0,2397.0,2167.0,2349.0,2146.0,-0.78,9.64,6.25,-0.01,0.0,-0.15,0.0,e
3307.0,3507.0,2993.0,3152.0,2397.0,2167.0,2349.0,2146.0,-0.78,9.64,6.25,-0.01,0.0,-0.15,0.0,e
3297.0,3491.0,2992.0,3152.0,2398.0,2167.0,2342.0,2142.0,-0.7,9.61,6.44,-0.03,-0.03,-0.15,0.0,e
3297.0,3491.0,2992.0,3152.0,2398.0,2167.0,2342.0,2142.0,-0.7,9.61,6.44,-0.03,-0.03,-0.15,0.0,e
3297.0,3486.0,2986.0,3153.0,2397.0,2183.0,2348.0,2159.0,-0.71,9.55,6.52,-0.03,0.02,-0.15,0.0,e
3297.0,3486.0,2986.0,3153.0,2397.0,2183.0,2348.0,2159.0,-0.71,9.55,6.52,-0.03,0.02,-0.15,0.0,e
3297.0,3486.0,2986.0,3153.0,2397.0,2183.0,2348.0,2159.0,-0.71,9.55,6.52,-0.03,0.02,-0.15,0.0,e
3190.0,3282.0,3109.0,3138.0,2350.0,2192.0,2447.0,2180.0,-1.02,9.53,6.66,0.01,0.05,-0.15,0.0,e
3190.0,3282.0,3109.0,3138.0,2350.0,2192.0,2447.0,2180.0,-1.02,9.53,6.66,0.01,0.05,-0.15,0.0,e
3190.0,3282.0,3109.0,3138.0,2350.0,2192.0,2447.0,2180.0,-1.02,9.53,6.66,0.01,0.05,-0.15,0.0,e
3190.0,3282.0,3109.0,3138.0,2350.0,2192.0,2447.0,2180.0,-1.02,9.53,6.66,0.01,0.05,-0.15,0.0,e
3190.0,3282.0,3109.0,3138.0,2350.0,2192.0,2447.0,2180.0,-1.02,9.53,6.66,0.01,0.05,-0.15,0.0,e
3190.0,3282.0,3109.0,3138.0,2350.0,2192.0,2447.0,2180.0,-1.02,9.53,6.66,0.01,0.05,-0.15,0.0,e
3190.0,3282.0,3109.0,3138.0,2350.0,2192.0,2447.0,2180.0,-1.02,9.53,6.66,0.01,0.05,-0.15,0.0,e
3183.0,3294.0,3095.0,3140.0,2343.0,2192.0,2445.0,2190.0,-0.91,9.42,6.77,0.01,-0.02,-0.15,0.0,e
3185.0,3285.0,3101.0,3149.0,2346.0,2204.0,2444.0,2191.0,-0.97,9.48,6.76,0.01,0.02,-0.15,0.0,e
3185.0,3285.0,3101.0,3149.0,2346.0,2204.0,2444.0,2191.0,-0.97,9.48,6.76,0.01,0.02,-0.15,0.0,e
3185.0,3285.0,3101.0,3149.0,2346.0,2204.0,2444.0,2191.0,-0.97,9.48,6.76,0.01,0.02,-0.15,0.0,e
3184.0,3285.0,3104.0,3151.0,2352.0,2203.0,2441.0,2197.0,-0.91,9.52,6.46,0.01,-0.02,-0.15,0.0,e
3184.0,3285.0,3104.0,3151.0,2352.0,2203.0,2441.0,2197.0,-0.91,9.52,6.46,0.01,-0.02,-0.15,0.0,e
3184.0,3285.0,3104.0,3151.0,2352.0,2203.0,2441.0,2197.0,-0.91,9.52,6.46,0.01,-0.02,-0.15,0.0,e
3257.0,3407.0,2973.0,3031.0,2494.0,2218.0,2433.0,2130.0,-0.62,9.68,6.52,0.01,0.01,-0.15,0.0,e
3257.0,3407.0,2973.0,3031.0,2494.0,2218.0,2433.0,2130.0,-0.62,9.68,6.52,0.01,0.01,-0.15,0.0,e
3257.0,3407.0,2973.0,3031.0,2494.0,2218.0,2433.0,2130.0,-0.62,9.68,6.52,0.01,0.01,-0.15,0.0,e
3257.0,3407.0,2973.0,3031.0,2494.0,2218.0,2433.0,2130.0,-0.62,9.68,6.52,0.01,0.01,-0.15,0.0,e
3257.0,3407.0,2973.0,3031.0,2494.0,2218.0,2433.0,2130.0,-0.62,9.68,6.52,0.01,0.01,-0.15,0.0,e
3257.0,3407.0,2973.0,3031.0,2494.0,2218.0,2433.0,2130.0,-0.62,9.68,6.52,0.01,0.01,-0.15,0.0,e
3257.0,3407.0,2973.0,3031.0,2494.0,2218.0,2433.0,2130.0,-0.62,9.68,6.52,0.01,0.01,-0.15,0.0,e
3257.0,3407.0,2973.0,3031.0,2494.0,2218.0,2433.0,2130.0,-0.62,9.68,6.52,0.01,0.01,-0.15,0.0,e
3257.0,3407.0,2973.0,3031.0,2494.0,2218.0,2433.0,2130.0,-0.62,9.68,6.52,0.01,0.01,-0.15,0.0,e
3257.0,3407.0,2973.0,3031.0,2494.0,2218.0,2433.0,2130.0,-0.62,9.68,6.52,0.01,0.01,-0.15,0.0,e
3257.0,3407.0,2973.0,3031.0,2494.0,2218.0,2433.0,2130.0,-0.62,9.68,6.52,0.01,0.01,-0.15,0.0,e
3258.0,3408.0,2986.0,3071.0,2506.0,2228.0,2433.0,2147.0,-0.63,9.56,6.62,-0.03,0.01,-0.15,0.0,e
3258.0,3408.0,2986.0,3071.0,2506.0,2228.0,2433.0,2147.0,-0.63,9.56,6.62,-0.03,0.01,-0.15,0.0,e
3258.0,3408.0,2986.0,3071.0,2506.0,2228.0,2433.0,2147.0,-0.63,9.56,6.62,-0.03,0.01,-0.15,0.0,e
3258.0,3408.0,2986.0,3071.0,2506.0,2228.0,2433.0,2147.0,-0.63,9.56,6.62,-0.03,0.01,-0.15,0.0,e
3258.0,3408.0,2986.0,3071.0,2506.0,2228.0,2433.0,2147.0,-0.63,9.56,6.62,-0.03,0.01,-0.15,0.0,e
3258.0,3408.0,2986.0,3071.0,2506.0,2228.0,2433.0,2147.0,-0.63,9.56,6.62,-0.03,0.01,-0.15,0.0,e
3258.0,3408.0,2986.0,3071.0,2506.0,2228.0,2433.0,2147.0,-0.63,9.56,6.62,-0.03,0.01,-0.15,0.0,e
3258.0,3408.0,2986.0,3071.0,2506.0,2228.0,2433.0,2147.0,-0.63,9.56,6.62,-0.03,0.01,-0.15,0.0,e
3258.0,3408.0,2986.0,3071.0,2506.0,2228.0,2433.0,2147.0,-0.63,9.56,6.62,-0.03,0.01,-0.15,0.0,e
3258.0,3408.0,2986.0,3071.0,2506.0,2228.0,2433.0,2147.0,-0.63,9.56,6.62,-0.03,0.01,-0.15,0.0,e
3258.0,3408.0,2986.0,3071.0,2506.0,2228.0,2433.0,2147.0,-0.63,9.56,6.62,-0.03,0.01,-0.15,0.0,e
3258.0,3408.0,2986.0,3071.0,2506.0,2228.0,2433.0,2147.0,-0.63,9.56,6.62,-0.03,0.01,-0.15,0.0,e
3251.0,3408.0,2976.0,3082.0,2507.0,2230.0,2446.0,2157.0,-0.66,9.47,6.8,-0.03,0.04,-0.15,0.0,e
3251.0,3408.0,2976.0,3082.0,2507.0,2230.0,2446.0,2157.0,-0.66,9.47,6.8,-0.03,0.04,-0.15,0.0,e
3251.0,3408.0,2976.0,3082.0,2507.0,2230.0,2446.0,2157.0,-0.66,9.47,6.8,-0.03,0.04,-0.15,0.0,e
3251.0,3408.0,2976.0,3082.0,2507.0,2230.0,2446.0,2157.0,-0.66,9.47,6.8,-0.03,0.04,-0.15,0.0,e
3271.0,3380.0,2994.0,3050.0,2368.0,2206.0,2403.0,2202.0,-0.38,9.91,6.03,0.07,0.03,-0.15,0.0,e
3271.0,3380.0,2994.0,3050.0,2368.0,2206.0,2403.0,2202.0,-0.38,9.91,6.03,0.07,0.03,-0.15,0.0,e
3271.0,3380.0,2994.0,3050.0,2368.0,2206.0,2403.0,2202.0,-0.38,9.91,6.03,0.07,0.03,-0.15,0.0,e
3271.0,3380.0,2994.0,3050.0,2368.0,2206.0,2403.0,2202.0,-0.38,9.91,6.03,0.07,0.03,-0.15,0.0,e
3261.0,3376.0,2989.0,3045.0,2383.0,2202.0,2416.0,2200.0,-0.38,9.73,5.97,-0.08,0.02,-0.15,0.0,e
3261.0,3376.0,2989.0,3045.0,2383.0,2202.0,2416.0,2200.0,-0.38,9.73,5.97,-0.08,0.02,-0.15,0.0,e
3261.0,3376.0,2989.0,3045.0,2383.0,2202.0,2416.0,2200.0,-0.38,9.73,5.97,-0.08,0.02,-0.15,0.0,e
3261.0,3376.0,2989.0,3045.0,2383.0,2202.0,2416.0,2200.0,-0.38,9.73,5.97,-0.08,0.02,-0.15,0.0,e
3261.0,3365.0,2989.0,3049.0,2405.0,2215.0,2429.0,2214.0,-0.34,9.67,6.15,0.0,-0.05,0.03,-0.12,e
3261.0,3365.0,2989.0,3049.0,2405.0,2215.0,2429.0,2214.0,-0.34,9.67,6.15,0.0,-0.05,0.03,-0.12,e
3261.0,3365.0,2989.0,3049.0,2405.0,2215.0,2429.0,2214.0,-0.34,9.67,6.15,0.0,-0.05,0.03,-0.12,e
3261.0,3365.0,2989.0,3049.0,2405.0,2215.0,2429.0,2214.0,-0.34,9.67,6.15,0.0,-0.05,0.03,-0.12,e
3261.0,3365.0,2989.0,3049.0,2405.0,2215.0,2429.0,2214.0,-0.34,9.67,6.15,0.0,-0.05,0.03,-0.12,e
3261.0,3365.0,2989.0,3049.0,2405.0,2215.0,2429.0,2214.0,-0.34,9.67,6.15,0.0,-0.05,0.03,-0.12,e
3261.0,3365.0,2989.0,3049.0,2405.0,2215.0,2429.0,2214.0,-0.34,9.67,6.15,0.0,-0.05,0.03,-0.12,e
3261.0,3365.0,2989.0,3049.0,2405.0,2215.0,2429.0,2214.0,-0.34,9.67,6.15,0.0,-0.05,0.03,-0.12,e
3250.0,3393.0,2991.0,3060.0,2416.0,2219.0,2428.0,2225.0,-0.34,9.69,6.29,0.01,-0.0,-0.15,0.0,e
3250.0,3393.0,2991.0,3060.0,2416.0,2219.0,2428.0,2225.0,-0.34,9.69,6.29,0.01,-0.0,-0.15,0.0,e
3250.0,3393.0,2991.0,3060.0,2416.0,2219.0,2428.0,2225.0,-0.34,9.69,6.29,0.01,-0.0,-0.15,0.0,e
3239.0,3383.0,2983.0,3086.0,2416.0,2225.0,2436.0,2236.0,-0.06,9.74,6.15,0.0,-0.04,0.04,-0.13,e
3239.0,3383.0,2983.0,3086.0,2416.0,2225.0,2436.0,2236.0,-0.06,9.74,6.15,0.0,-0.04,0.04,-0.13,e
3239.0,3383.0,2983.0,3086.0,2416.0,2225.0,2436.0,2236.0,-0.06,9.74,6.15,0.0,-0.04,0.04,-0.13,e
3239.0,3383.0,2983.0,3086.0,2416.0,2225.0,2436.0,2236.0,-0.06,9.74,6.15,0.0,-0.04,0.04,-0.13,e
3310.0,3376.0,3033.0,3059.0,2527.0,2241.0,2497.0,2283.0,-0.24,9.75,6.27,-0.01,-0.05,-0.15,0.0,e
3310.0,3376.0,3033.0,3059.0,2527.0,2241.0,2497.0,2283.0,-0.24,9.75,6.27,-0.01,-0.05,-0.15,0.0,e
3310.0,3376.0,3033.0,3059.0,2527.0,2241.0,2497.0,2283.0,-0.24,9.75,6.27,-0.01,-0.05,-0.15,0.0,e
3310.0,3376.0,3033.0,3059.0,2527.0,2241.0,2497.0,2283.0,-0.24,9.75,6.27,-0.01,-0.05,-0.15,0.0,e
3310.0,3376.0,3033.0,3059.0,2527.0,2241.0,2497.0,2283.0,-0.24,9.75,6.27,-0.01,-0.05,-0.15,0.0,e
3310.0,3376.0,3033.0,3059.0,2527.0,2241.0,2497.0,2283.0,-0.24,9.75,6.27,-0.01,-0.05,-0.15,0.0,e
3310.0,3376.0,3033.0,3059.0,2527.0,2241.0,2497.0,2283.0,-0.24,9.75,6.27,-0.01,-0.05,-0.15,0.0,e
3310.0,3376.0,3033.0,3059.0,2527.0,2241.0,2497.0,2283.0,-0.24,9.75,6.27,-0.01,-0.05,-0.15,0.0,e
3308.0,3376.0,3026.0,3065.0,2540.0,2250.0,2498.0,2288.0,-0.4,9.63,6.22,-0.01,0.1,-0.15,0.0,e
3308.0,3376.0,3026.0,3065.0,2540.0,2250.0,2498.0,2288.0,-0.4,9.63,6.22,-0.01,0.1,-0.15,0.0,e
3308.0,3376.0,3026.0,3065.0,2540.0,2250.0,2498.0,2288.0,-0.4,9.63,6.22,-0.01,0.1,-0.15,0.0,e
3308.0,3376.0,3026.0,3065.0,2540.0,2250.0,2498.0,2288.0,-0.4,9.63,6.22,-0.01,0.1,-0.15,0.0,e
3301.0,3374.0,3033.0,3081.0,2548.0,2232.0,2510.0,2287.0,-0.14,9.7,6.15,0.0,-0.01,0.09,-0.11,e
3301.0,3374.0,3033.0,3081.0,2548.0,2232.0,2510.0,2287.0,-0.14,9.7,6.15,0.0,-0.01,0.09,-0.11,e
3301.0,3374.0,3033.0,3081.0,2548.0,2232.0,2510.0,2287.0,-0.14,9.7,6.15,0.0,-0.01,0.09,-0.11,e
3301.0,3374.0,3033.0,3081.0,2548.0,2232.0,2510.0,2287.0,-0.14,9.7,6.15,0.0,-0.01,0.09,-0.11,e
3301.0,3374.0,3033.0,3081.0,2548.0,2232.0,2510.0,2287.0,-0.14,9.7,6.15,0.0,-0.01,0.09,-0.11,e
3511.0,3324.0,3068.0,3040.0,2492.0,2246.0,2477.0,2234.0,-0.58,9.74,5.77,-0.0,-0.02,-0.15,0.0,e
3511.0,3324.0,3068.0,3040.0,2492.0,2246.0,2477.0,2234.0,-0.58,9.74,5.77,-0.0,-0.02,-0.15,0.0,e
3511.0,3324.0,3068.0,3040.0,2492.0,2246.0,2477.0,2234.0,-0.58,9.74,5.77,-0.0,-0.02,-0.15,0.0,e
3511.0,3324.0,3068.0,3040.0,2492.0,2246.0,2477.0,2234.0,-0.58,9.74,5.77,-0.0,-0.02,-0.15,0.0,e
3511.0,3324.0,3068.0,3040.0,2492.0,2246.0,2477.0,2234.0,-0.58,9.74,5.77,-0.0,-0.02,-0.15,0.0,e
3511.0,3324.0,3068.0,3040.0,2492.0,2246.0,2477.0,2234.0,-0.58,9.74,5.77,-0.0,-0.02,-0.15,0.0,e
3511.0,3324.0,3068.0,3040.0,2492.0,2246.0,2477.0,2234.0,-0.58,9.74,5.77,-0.0,-0.02,-0.15,0.0,e
3501.0,3345.0,3067.0,3051.0,2503.0,2265.0,2483.0,2240.0,-0.57,9.65,6.03,-0.05,0.03,-0.15,0.0,e
3501.0,3345.0,3067.0,3051.0,2503.0,2265.0,2483.0,2240.0,-0.57,9.65,6.03,-0.05,0.03,-0.15,0.0,e
3501.0,3345.0,3067.0,3051.0,2503.0,2265.0,2483.0,2240.0,-0.57,9.65,6.03,-0.05,0.03,-0.15,0.0,e
3501.0,3345.0,3067.0,3051.0,2503.0,2265.0,2483.0,2240.0,-0.57,9.65,6.03,-0.05,0.03,-0.15,0.0,e
3513.0,3344.0,3065.0,3055.0,2517.0,2256.0,2496.0,2239.0,-0.65,9.8,5.75,0.01,0.0,-0.15,0.0,e
3513.0,3344.0,3065.0,3055.0,2517.0,2256.0,2496.0,2239.0,-0.65,9.8,5.75,0.01,0.0,-0.15,0.0,e
3513.0,3344.0,3065.0,3055.0,2517.0,2256.0,2496.0,2239.0,-0.65,9.8,5.75,0.01,0.0,-0.15,0.0,e
3513.0,3344.0,3065.0,3055.0,2517.0,2256.0,2496.0,2239.0,-0.65,9.8,5.75,0.01,0.0,-0.15,0.0,e
3513.0,3344.0,3065.0,3055.0,2517.0,2256.0,2496.0,2239.0,-0.65,9.8,5.75,0.01,0.0,-0.15,0.0,e
3519.0,3341.0,3060.0,3059.0,2511.0,2271.0,2489.0,2253.0,-0.51,9.62,5.98,-0.01,0.0,-0.15,0.0,e
3506.0,3347.0,3057.0,3062.0,2524.0,2256.0,2491.0,2250.0,-0.51,9.64,6.14,0.01,0.0,-0.15,0.0,e
3506.0,3347.0,3057.0,3062.0,2524.0,2256.0,2491.0,2250.0,-0.51,9.64,6.14,0.01,0.0,-0.15,0.0,e
3510.0,3343.0,3065.0,3064.0,2517.0,2255.0,2497.0,2243.0,-0.6,9.77,6.01,0.02,0.01,-0.15,0.0,e
3499.0,3329.0,3071.0,3065.0,2512.0,2261.0,2489.0,2260.0,-0.58,9.62,6.1,0.05,0.01,-0.15,0.0,e
3515.0,3331.0,3069.0,3066.0,2517.0,2259.0,2493.0,2249.0,-0.74,9.74,5.84,0.01,0.03,-0.15,0.0,e
3509.0,3331.0,3063.0,3059.0,2519.0,2256.0,2502.0,2245.0,-0.68,9.69,5.82,0.04,-0.0,-0.15,0.0,e
3540.0,3319.0,3056.0,3065.0,2442.0,2213.0,2465.0,2227.0,-0.49,9.54,6.28,-0.04,-0.03,-0.15,0.0,e
3540.0,3319.0,3056.0,3065.0,2442.0,2213.0,2465.0,2227.0,-0.49,9.54,6.28,-0.04,-0.03,-0.15,0.0,e
3537.0,3328.0,3056.0,3079.0,2448.0,2207.0,2466.0,2228.0,-0.56,9.71,6.11,-0.01,-0.05,-0.15,0.0,e
3537.0,3328.0,3056.0,3079.0,2448.0,2207.0,2466.0,2228.0,-0.56,9.71,6.11,-0.01,-0.05,-0.15,0.0,e
3537.0,3328.0,3056.0,3079.0,2448.0,2207.0,2466.0,2228.0,-0.56,9.71,6.11,-0.01,-0.05,-0.15,0.0,e
3539.0,3344.0,3069.0,3071.0,2447.0,2219.0,2471.0,2233.0,-0.42,9.58,6.34,0.01,0.01,-0.15,0.0,e
3531.0,3326.0,3059.0,3088.0,2450.0,2224.0,2479.0,2238.0,-0.39,9.66,6.08,0.03,0.01,-0.15,0.0,e
3531.0,3326.0,3059.0,3088.0,2450.0,2224.0,2479.0,2238.0,-0.39,9.66,6.08,0.03,0.01,-0.15,0.0,e
3531.0,3326.0,3059.0,3088.0,2450.0,2224.0,2479.0,2238.0,-0.39,9.66,6.08,0.03,0.01,-0.15,0.0,e
3531.0,3326.0,3059.0,3088.0,2450.0,2224.0,2479.0,2238.0,-0.39,9.66,6.08,0.03,0.01,-0.15,0.0,e
3547.0,3329.0,3063.0,3091.0,2457.0,2225.0,2480.0,2240.0,-0.47,9.68,6.15,0.0,-0.01,0.04,-0.14,e
3547.0,3329.0,3063.0,3091.0,2457.0,2225.0,2480.0,2240.0,-0.47,9.68,6.15,0.0,-0.01,0.04,-0.14,e
3549.0,3343.0,3059.0,3094.0,2455.0,2225.0,2482.0,2235.0,-0.4,9.76,6.12,-0.02,-0.02,-0.15,0.0,e
3536.0,3319.0,3068.0,3088.0,2464.0,2224.0,2488.0,2244.0,-0.46,9.67,6.28,0.04,0.03,-0.15,0.0,e
3534.0,3325.0,3067.0,3090.0,2461.0,2227.0,2480.0,2241.0,-0.34,9.67,6.32,0.04,0.03,-0.15,0.0,e
3534.0,3325.0,3067.0,3090.0,2461.0,2227.0,2480.0,2241.0,-0.34,9.67,6.32,0.04,0.03,-0.15,0.0,e
3531.0,3328.0,3062.0,3093.0,2471.0,2225.0,2481.0,2239.0,-0.53,9.66,6.1,0.05,0.0,-0.15,0.0,e
3531.0,3328.0,3062.0,3093.0,2471.0,2225.0,2481.0,2239.0,-0.53,9.66,6.1,0.05,0.0,-0.15,0.0,e
3531.0,3457.0,2993.0,3063.0,2512.0,2237.0,2496.0,2254.0,-0.5,9.72,6.15,0.0,0.01,0.05,-0.14,e
3531.0,3457.0,2993.0,3063.0,2512.0,2237.0,2496.0,2254.0,-0.5,9.72,6.15,0.0,0.01,0.05,-0.14,e
3531.0,3457.0,2993.0,3063.0,2512.0,2237.0,2496.0,2254.0,-0.5,9.72,6.15,0.0,0.01,0.05,-0.14,e
3531.0,3457.0,2993.0,3063.0,2512.0,2237.0,2496.0,2254.0,-0.5,9.72,6.15,0.0,0.01,0.05,-0.14,e
3531.0,3457.0,2993.0,3063.0,2512.0,2237.0,2496.0,2254.0,-0.5,9.72,6.15,0.0,0.01,0.05,-0.14,e
3536.0,3446.0,3009.0,3071.0,2515.0,2239.0,2508.0,2267.0,-0.21,9.66,6.11,-0.01,0.01,-0.15,0.0,e
3536.0,3446.0,3009.0,3071.0,2515.0,2239.0,2508.0,2267.0,-0.21,9.66,6.11,-0.01,0.01,-0.15,0.0,e
3536.0,3446.0,3009.0,3071.0,2515.0,2239.0,2508.0,2267.0,-0.21,9.66,6.11,-0.01,0.01,-0.15,0.0,e
3519.0,3445.0,2991.0,3093.0,2520.0,2255.0,2505.0,2261.0,-0.13,9.61,6.41,-0.01,-0.02,-0.15,0.0,e
3519.0,3445.0,2991.0,3093.0,2520.0,2255.0,2505.0,2261.0,-0.13,9.61,6.41,-0.01,-0.02,-0.15,0.0,e
3519.0,3445.0,2991.0,3093.0,2520.0,2255.0,2505.0,2261.0,-0.13,9.61,6.41,-0.01,-0.02,-0.15,0.0,e
3519.0,3445.0,2991.0,3093.0,2520.0,2255.0,2505.0,2261.0,-0.13,9.61,6.41,-0.01,-0.02,-0.15,0.0,e
3519.0,3445.0,2991.0,3093.0,2520.0,2255.0,2505.0,2261.0,-0.13,9.61,6.41,-0.01,-0.02,-0.15,0.0,e
3525.0,3435.0,2992.0,3089.0,2519.0,2247.0,2501.0,2263.0,-0.33,9.61,6.4,0.05,0.05,-0.15,0.0,e
3533.0,3439.0,2991.0,3089.0,2530.0,2258.0,2512.0,2265.0,-0.51,9.73,6.14,0.04,0.01,-0.15,0.0,e
3533.0,3439.0,2991.0,3089.0,2530.0,2258.0,2512.0,2265.0,-0.51,9.73,6.14,0.04,0.01,-0.15,0.0,e
3526.0,3442.0,2991.0,3105.0,2527.0,2256.0,2511.0,2266.0,-0.32,9.65,6.17,0.01,-0.01,-0.15,0.0,e
3526.0,3442.0,2991.0,3105.0,2527.0,2256.0,2511.0,2266.0,-0.32,9.65,6.17,0.01,-0.01,-0.15,0.0,e
3526.0,3442.0,2991.0,3105.0,2527.0,2256.0,2511.0,2266.0,-0.32,9.65,6.17,0.01,-0.01,-0.15,0.0,e
3330.0,3280.0,3053.0,3003.0,2522.0,2248.0,2501.0,2269.0,-0.63,9.62,6.52,0.03,0.0,-0.15,0.0,e
3330.0,3280.0,3053.0,3003.0,2522.0,2248.0,2501.0,2269.0,-0.63,9.62,6.52,0.03,0.0,-0.15,0.0,e
3330.0,3280.0,3053.0,3003.0,2522.0,2248.0,2501.0,2269.0,-0.63,9.62,6.52,0.03,0.0,-0.15,0.0,e
3330.0,3280.0,3053.0,3003.0,2522.0,2248.0,2501.0,2269.0,-0.63,9.62,6.52,0.03,0.0,-0.15,0.0,e
3330.0,3280.0,3053.0,3003.0,2522.0,2248.0,2501.0,2269.0,-0.63,9.62,6.52,0.03,0.0,-0.15,0.0,e
3330.0,3280.0,3053.0,3003.0,2522.0,2248.0,2501.0,2269.0,-0.63,9.62,6.52,0.03,0.0,-0.15,0.0,e
3330.0,3280.0,3053.0,3003.0,2522.0,2248.0,2501.0,2269.0,-0.63,9.62,6.52,0.03,0.0,-0.15,0.0,e
3330.0,3280.0,3053.0,3003.0,2522.0,2248.0,2501.0,2269.0,-0.63,9.62,6.52,0.03,0.0,-0.15,0.0,e
3330.0,3280.0,3053.0,3003.0,2522.0,2248.0,2501.0,2269.0,-0.63,9.62,6.52,0.03,0.0,-0.15,0.0,e
3330.0,3280.0,3053.0,3003.0,2522.0,2248.0,2501.0,2269.0,-0.63,9.62,6.52,0.03,0.0,-0.15,0.0,e
3330.0,3280.0,3053.0,3003.0,2522.0,2248.0,2501.0,2269.0,-0.63,9.62,6.52,0.03,0.0,-0.15,0.0,e
3330.0,3280.0,3053.0,3003.0,2522.0,2248.0,2501.0,2269.0,-0.63,9.62,6.52,0.03,0.0,-0.15,0.0,e
3330.0,3280.0,3053.0,3003.0,2522.0,2248.0,2501.0,2269.0,-0.63,9.62,6.52,0.03,0.0,-0.15,0.0,e
3330.0,3280.0,3053.0,3003.0,2522.0,2248.0,2501.0,2269.0,-0.63,9.62,6.52,0.03,0.0,-0.15,0.0,e
3323.0,3293.0,3054.0,3021.0,2522.0,2259.0,2502.0,2269.0,-0.39,9.54,6.78,0.01,-0.01,-0.15,0.0,e
3323.0,3293.0,3054.0,3021.0,2522.0,2259.0,2502.0,2269.0,-0.39,9.54,6.78,0.01,-0.01,-0.15,0.0,e
3323.0,3293.0,3054.0,3021.0,2522.0,2259.0,2502.0,2269.0,-0.39,9.54,6.78,0.01,-0.01,-0.15,0.0,e
3315.0,3291.0,3052.0,3014.0,2527.0,2254.0,2511.0,2273.0,-0.35,9.58,6.58,0.02,-0.02,-0.15,0.0,e
3315.0,3295.0,3047.0,3022.0,2518.0,2251.0,2498.0,2267.0,-0.31,9.57,6.58,-0.0,0.04,-0.15,0.0,e
3329.0,3278.0,3042.0,3043.0,2527.0,2257.0,2507.0,2269.0,-0.51,9.65,6.42,0.01,0.0,-0.15,0.0,e
3329.0,3278.0,3042.0,3043.0,2527.0,2257.0,2507.0,2269.0,-0.51,9.65,6.42,0.01,0.0,-0.15,0.0,e
3329.0,3278.0,3042.0,3043.0,2527.0,2257.0,2507.0,2269.0,-0.51,9.65,6.42,0.01,0.0,-0.15,0.0,e
3188.0,3402.0,2992.0,3099.0,2486.0,2241.0,2475.0,2273.0,-0.43,9.56,6.75,0.03,-0.01,-0.15,0.0,e
3188.0,3402.0,2992.0,3099.0,2486.0,2241.0,2475.0,2273.0,-0.43,9.56,6.75,0.03,-0.01,-0.15,0.0,e
3188.0,3402.0,2992.0,3099.0,2486.0,2241.0,2475.0,2273.0,-0.43,9.56,6.75,0.03,-0.01,-0.15,0.0,e
3188.0,3402.0,2992.0,3099.0,2486.0,2241.0,2475.0,2273.0,-0.43,9.56,6.75,0.03,-0.01,-0.15,0.0,e
3188.0,3402.0,2992.0,3099.0,2486.0,2241.0,2475.0,2273.0,-0.43,9.56,6.75,0.03,-0.01,-0.15,0.0,e
3188.0,3402.0,2992.0,3099.0,2486.0,2241.0,2475.0,2273.0,-0.43,9.56,6.75,0.03,-0.01,-0.15,0.0,e
3188.0,3402.0,2992.0,3099.0,2486.0,2241.0,2475.0,2273.0,-0.43,9.56,6.75,0.03,-0.01,-0.15,0.0,e
3187.0,3399.0,2995.0,3117.0,2496.0,2258.0,2479.0,2284.0,-0.43,9.53,6.77,0.01,0.02,-0.15,0.0,e
3193.0,3408.0,2979.0,3116.0,2494.0,2256.0,2460.0,2277.0,-0.29,9.53,6.77,0.01,0.02,-0.15,0.0,e
3358.0,3351.0,2990.0,3039.0,2554.0,2301.0,2531.0,2301.0,-0.36,9.6,6.39,-0.0,-0.01,-0.15,0.0,e
3358.0,3351.0,2990.0,3039.0,2554.0,2301.0,2531.0,2301.0,-0.36,9.6,6.39,-0.0,-0.01,-0.15,0.0,e
3358.0,3351.0,2990.0,3039.0,2554.0,2301.0,2531.0,2301.0,-0.36,9.6,6.39,-0.0,-0.01,-0.15,0.0,e
3358.0,3351.0,2990.0,3039.0,2554.0,2301.0,2531.0,2301.0,-0.36,9.6,6.39,-0.0,-0.01,-0.15,0.0,e
3358.0,3351.0,2990.0,3039.0,2554.0,2301.0,2531.0,2301.0,-0.36,9.6,6.39,-0.0,-0.01,-0.15,0.0,e
3358.0,3351.0,2990.0,3039.0,2554.0,2301.0,2531.0,2301.0,-0.36,9.6,6.39,-0.0,-0.01,-0.15,0.0,e
3358.0,3351.0,2990.0,3039.0,2554.0,2301.0,2531.0,2301.0,-0.36,9.6,6.39,-0.0,-0.01,-0.15,0.0,e
3358.0,3351.0,2990.0,3039.0,2554.0,2301.0,2531.0,2301.0,-0.36,9.6,6.39,-0.0,-0.01,-0.15,0.0,e
3358.0,3351.0,2990.0,3039.0,2554.0,2301.0,2531.0,2301.0,-0.36,9.6,6.39,-0.0,-0.01,-0.15,0.0,e
3358.0,3351.0,2990.0,3039.0,2554.0,2301.0,2531.0,2301.0,-0.36,9.6,6.39,-0.0,-0.01,-0.15,0.0,e
3358.0,3351.0,2990.0,3039.0,2554.0,2301.0,2531.0,2301.0,-0.36,9.6,6.39,-0.0,-0.01,-0.15,0.0,e
3358.0,3351.0,2990.0,3039.0,2554.0,2301.0,2531.0,2301.0,-0.36,9.6,6.39,-0.0,-0.01,-0.15,0.0,e
3358.0,3351.0,2990.0,3039.0,2554.0,2301.0,2531.0,2301.0,-0.36,9.6,6.39,-0.0,-0.01,-0.15,0.0,e
3358.0,3351.0,2990.0,3039.0,2554.0,2301.0,2531.0,2301.0,-0.36,9.6,6.39,-0.0,-0.01,-0.15,0.0,e
3358.0,3351.0,2990.0,3039.0,2554.0,2301.0,2531.0,2301.0,-0.36,9.6,6.39,-0.0,-0.01,-0.15,0.0,e
3358.0,3351.0,2990.0,3039.0,2554.0,2301.0,2531.0,2301.0,-0.36,9.6,6.39,-0.0,-0.01,-0.15,0.0,e
3358.0,3351.0,2990.0,3039.0,2554.0,2301.0,2531.0,2301.0,-0.36,9.6,6.39,-0.0,-0.01,-0.15,0.0,e
3358.0,3351.0,2990.0,3039.0,2554.0,2301.0,2531.0,2301.0,-0.36,9.6,6.39,-0.0,-0.01,-0.15,0.0,e
3358.0,3351.0,2990.0,3039.0,2554.0,2301.0,2531.0,2301.0,-0.36,9.6,6.39,-0.0,-0.01,-0.15,0.0,e
3358.0,3351.0,2990.0,3039.0,2554.0,2301.0,2531.0,2301.0,-0.36,9.6,6.39,-0.0,-0.01,-0.15,0.0,e
3358.0,3351.0,2990.0,3039.0,2554.0,2301.0,2531.0,2301.0,-0.36,9.6,6.39,-0.0,-0.01,-0.15,0.0,e
3358.0,3351.0,2990.0,3039.0,2554.0,2301.0,2531.0,2301.0,-0.36,9.6,6.39,-0.0,-0.01,-0.15,0.0,e
3358.0,3351.0,2990.0,3039.0,2554.0,2301.0,2531.0,2301.0,-0.36,9.6,6.39,-0.0,-0.01,-0.15,0.0,e
3358.0,3351.0,2990.0,3039.0,2554.0,2301.0,2531.0,2301.0,-0.36,9.6,6.39,-0.0,-0.01,-0.15,0.0,e
3358.0,3351.0,2990.0,3039.0,2554.0,2301.0,2531.0,2301.0,-0.36,9.6,6.39,-0.0,-0.01,-0.15,0.0,e
3358.0,3351.0,2990.0,3039.0,2554.0,2301.0,2531.0,2301.0,-0.36,9.6,6.39,-0.0,-0.01,-0.15,0.0,e
3358.0,3351.0,2990.0,3039.0,2554.0,2301.0,2531.0,2301.0,-0.36,9.6,6.39,-0.0,-0.01,-0.15,0.0,e
3349.0,3358.0,2992.0,3050.0,2559.0,2291.0,2533.0,2288.0,-0.39,9.66,6.37,-0.02,0.01,-0.15,0.0,e
3349.0,3358.0,2992.0,3050.0,2559.0,2291.0,2533.0,2288.0,-0.39,9.66,6.37,-0.02,0.01,-0.15,0.0,e
3349.0,3358.0,2992.0,3050.0,2559.0,2291.0,2533.0,2288.0,-0.39,9.66,6.37,-0.02,0.01,-0.15,0.0,e
3349.0,3358.0,2992.0,3050.0,2559.0,2291.0,2533.0,2288.0,-0.39,9.66,6.37,-0.02,0.01,-0.15,0.0,e
3227.0,3489.0,2974.0,3070.0,2557.0,2279.0,2534.0,2245.0,-0.19,9.62,6.15,0.0,0.03,0.03,-0.16,e
3227.0,3489.0,2974.0,3070.0,2557.0,2279.0,2534.0,2245.0,-0.19,9.62,6.15,0.0,0.03,0.03,-0.16,e
3227.0,3489.0,2974.0,3070.0,2557.0,2279.0,2534.0,2245.0,-0.19,9.62,6.15,0.0,0.03,0.03,-0.16,e
3225.0,3487.0,2964.0,3056.0,2547.0,2280.0,2531.0,2245.0,-0.15,0.0,9.7,6.25,0.03,-0.05,-0.19,e
3230.0,3482.0,2976.0,3067.0,2544.0,2281.0,2534.0,2252.0,-0.12,9.73,6.15,0.0,0.05,0.03,-0.17,e
3233.0,3494.0,2971.0,3071.0,2549.0,2286.0,2543.0,2256.0,-0.16,9.7,6.16,-0.01,0.04,-0.15,0.0,e
3233.0,3494.0,2971.0,3071.0,2549.0,2286.0,2543.0,2256.0,-0.16,9.7,6.16,-0.01,0.04,-0.15,0.0,e
3234.0,3504.0,2975.0,3088.0,2558.0,2286.0,2533.0,2254.0,-0.11,9.71,6.01,0.04,0.04,-0.15,0.0,e
3234.0,3504.0,2975.0,3088.0,2558.0,2286.0,2533.0,2254.0,-0.11,9.71,6.01,0.04,0.04,-0.15,0.0,e
3225.0,3479.0,2982.0,3090.0,2559.0,2283.0,2542.0,2254.0,-0.17,9.7,6.08,0.03,0.03,-0.15,0.0,e
3225.0,3479.0,2982.0,3090.0,2559.0,2283.0,2542.0,2254.0,-0.17,9.7,6.08,0.03,0.03,-0.15,0.0,e
3235.0,3494.0,2977.0,3109.0,2559.0,2288.0,2544.0,2263.0,0.07,9.79,5.95,0.01,-0.07,-0.15,0.0,e
3235.0,3494.0,2977.0,3109.0,2559.0,2288.0,2544.0,2263.0,0.07,9.79,5.95,0.01,-0.07,-0.15,0.0,e
3235.0,3494.0,2977.0,3109.0,2559.0,2288.0,2544.0,2263.0,0.07,9.79,5.95,0.01,-0.07,-0.15,0.0,e
3235.0,3494.0,2977.0,3109.0,2559.0,2288.0,2544.0,2263.0,0.07,9.79,5.95,0.01,-0.07,-0.15,0.0,e
3235.0,3494.0,2977.0,3109.0,2559.0,2288.0,2544.0,2263.0,0.07,9.79,5.95,0.01,-0.07,-0.15,0.0,e
3235.0,3494.0,2977.0,3109.0,2559.0,2288.0,2544.0,2263.0,0.07,9.79,5.95,0.01,-0.07,-0.15,0.0,e
3235.0,3494.0,2977.0,3109.0,2559.0,2288.0,2544.0,2263.0,0.07,9.79,5.95,0.01,-0.07,-0.15,0.0,e
3234.0,3494.0,2971.0,3108.0,2559.0,2291.0,2547.0,2266.0,-0.05,9.68,6.15,0.0,0.02,0.01,-0.16,e
3234.0,3494.0,2971.0,3108.0,2559.0,2291.0,2547.0,2266.0,-0.05,9.68,6.15,0.0,0.02,0.01,-0.16,e
3234.0,3494.0,2971.0,3108.0,2559.0,2291.0,2547.0,2266.0,-0.05,9.68,6.15,0.0,0.02,0.01,-0.16,e
3376.0,3310.0,3197.0,3169.0,2539.0,2275.0,2491.0,2315.0,-0.36,9.73,6.0,0.01,0.01,-0.15,0.0,e
3376.0,3310.0,3197.0,3169.0,2539.0,2275.0,2491.0,2315.0,-0.36,9.73,6.0,0.01,0.01,-0.15,0.0,e
3376.0,3310.0,3197.0,3169.0,2539.0,2275.0,2491.0,2315.0,-0.36,9.73,6.0,0.01,0.01,-0.15,0.0,e
3376.0,3310.0,3197.0,3169.0,2539.0,2275.0,2491.0,2315.0,-0.36,9.73,6.0,0.01,0.01,-0.15,0.0,e
3376.0,3310.0,3197.0,3169.0,2539.0,2275.0,2491.0,2315.0,-0.36,9.73,6.0,0.01,0.01,-0.15,0.0,e
3376.0,3310.0,3197.0,3169.0,2539.0,2275.0,2491.0,2315.0,-0.36,9.73,6.0,0.01,0.01,-0.15,0.0,e
3376.0,3310.0,3197.0,3169.0,2539.0,2275.0,2491.0,2315.0,-0.36,9.73,6.0,0.01,0.01,-0.15,0.0,e
3376.0,3310.0,3197.0,3169.0,2539.0,2275.0,2491.0,2315.0,-0.36,9.73,6.0,0.01,0.01,-0.15,0.0,e
3376.0,3310.0,3197.0,3169.0,2539.0,2275.0,2491.0,2315.0,-0.36,9.73,6.0,0.01,0.01,-0.15,0.0,e
3377.0,3303.0,3190.0,3183.0,2544.0,2278.0,2494.0,2334.0,-0.15,0.0,9.75,6.03,0.03,-0.03,-0.18,e
3377.0,3303.0,3190.0,3183.0,2544.0,2278.0,2494.0,2334.0,-0.15,0.0,9.75,6.03,0.03,-0.03,-0.18,e
3377.0,3303.0,3190.0,3183.0,2544.0,2278.0,2494.0,2334.0,-0.15,0.0,9.75,6.03,0.03,-0.03,-0.18,e
3377.0,3303.0,3190.0,3183.0,2544.0,2278.0,2494.0,2334.0,-0.15,0.0,9.75,6.03,0.03,-0.03,-0.18,e
3377.0,3303.0,3190.0,3183.0,2544.0,2278.0,2494.0,2334.0,-0.15,0.0,9.75,6.03,0.03,-0.03,-0.18,e
3377.0,3303.0,3190.0,3183.0,2544.0,2278.0,2494.0,2334.0,-0.15,0.0,9.75,6.03,0.03,-0.03,-0.18,e
3377.0,3303.0,3190.0,3183.0,2544.0,2278.0,2494.0,2334.0,-0.15,0.0,9.75,6.03,0.03,-0.03,-0.18,e
3377.0,3303.0,3190.0,3183.0,2544.0,2278.0,2494.0,2334.0,-0.15,0.0,9.75,6.03,0.03,-0.03,-0.18,e
3377.0,3303.0,3190.0,3183.0,2544.0,2278.0,2494.0,2334.0,-0.15,0.0,9.75,6.03,0.03,-0.03,-0.18,e
3387.0,3314.0,3197.0,3169.0,2556.0,2272.0,2499.0,2322.0,-0.17,9.71,5.88,-0.03,0.01,-0.15,0.0,e
3361.0,3312.0,3012.0,3095.0,2515.0,2265.0,2477.0,2287.0,-0.4,9.68,6.04,0.03,0.02,-0.15,0.0,e
3361.0,3312.0,3012.0,3095.0,2515.0,2265.0,2477.0,2287.0,-0.4,9.68,6.04,0.03,0.02,-0.15,0.0,e
3361.0,3312.0,3012.0,3095.0,2515.0,2265.0,2477.0,2287.0,-0.4,9.68,6.04,0.03,0.02,-0.15,0.0,e
3361.0,3312.0,3012.0,3095.0,2515.0,2265.0,2477.0,2287.0,-0.4,9.68,6.04,0.03,0.02,-0.15,0.0,e
3344.0,3314.0,3003.0,3110.0,2537.0,2272.0,2494.0,2302.0,-0.39,9.66,5.93,-0.0,0.02,-0.15,0.0,e
3344.0,3314.0,3003.0,3110.0,2537.0,2272.0,2494.0,2302.0,-0.39,9.66,5.93,-0.0,0.02,-0.15,0.0,e
3344.0,3314.0,3003.0,3110.0,2537.0,2272.0,2494.0,2302.0,-0.39,9.66,5.93,-0.0,0.02,-0.15,0.0,e
3344.0,3314.0,3003.0,3110.0,2537.0,2272.0,2494.0,2302.0,-0.39,9.66,5.93,-0.0,0.02,-0.15,0.0,e
3344.0,3314.0,3003.0,3110.0,2537.0,2272.0,2494.0,2302.0,-0.39,9.66,5.93,-0.0,0.02,-0.15,0.0,e
3344.0,3314.0,3003.0,3110.0,2537.0,2272.0,2494.0,2302.0,-0.39,9.66,5.93,-0.0,0.02,-0.15,0.0,e
3344.0,3314.0,3003.0,3110.0,2537.0,2272.0,2494.0,2302.0,-0.39,9.66,5.93,-0.0,0.02,-0.15,0.0,e
3344.0,3314.0,3003.0,3110.0,2537.0,2272.0,2494.0,2302.0,-0.39,9.66,5.93,-0.0,0.02,-0.15,0.0,e
3361.0,3311.0,2995.0,3119.0,2539.0,2285.0,2493.0,2306.0,-0.51,9.78,5.77,-0.01,-0.02,-0.15,0.0,e
3361.0,3311.0,2995.0,3119.0,2539.0,2285.0,2493.0,2306.0,-0.51,9.78,5.77,-0.01,-0.02,-0.15,0.0,e
3361.0,3311.0,2995.0,3119.0,2539.0,2285.0,2493.0,2306.0,-0.51,9.78,5.77,-0.01,-0.02,-0.15,0.0,e
3645.0,3358.0,3011.0,3139.0,2543.0,2272.0,2480.0,2252.0,-0.7,9.67,5.98,-0.02,0.01,-0.15,0.0,e
3645.0,3358.0,3011.0,3139.0,2543.0,2272.0,2480.0,2252.0,-0.7,9.67,5.98,-0.02,0.01,-0.15,0.0,e
3645.0,3358.0,3011.0,3139.0,2543.0,2272.0,2480.0,2252.0,-0.7,9.67,5.98,-0.02,0.01,-0.15,0.0,e
3645.0,3358.0,3011.0,3139.0,2543.0,2272.0,2480.0,2252.0,-0.7,9.67,5.98,-0.02,0.01,-0.15,0.0,e
3645.0,3358.0,3011.0,3139.0,2543.0,2272.0,2480.0,2252.0,-0.7,9.67,5.98,-0.02,0.01,-0.15,0.0,e
3645.0,3358.0,3011.0,3139.0,2543.0,2272.0,2480.0,2252.0,-0.7,9.67,5.98,-0.02,0.01,-0.15,0.0,e
3645.0,3358.0,3011.0,3139.0,2543.0,2272.0,2480.0,2252.0,-0.7,9.67,5.98,-0.02,0.01,-0.15,0.0,e
3645.0,3358.0,3011.0,3139.0,2543.0,2272.0,2480.0,2252.0,-0.7,9.67,5.98,-0.02,0.01,-0.15,0.0,e
3645.0,3358.0,3011.0,3139.0,2543.0,2272.0,2480.0,2252.0,-0.7,9.67,5.98,-0.02,0.01,-0.15,0.0,e
3645.0,3358.0,3011.0,3139.0,2543.0,2272.0,2480.0,2252.0,-0.7,9.67,5.98,-0.02,0.01,-0.15,0.0,e
3645.0,3358.0,3011.0,3139.0,2543.0,2272.0,2480.0,2252.0,-0.7,9.67,5.98,-0.02,0.01,-0.15,0.0,e
3645.0,3358.0,3011.0,3139.0,2543.0,2272.0,2480.0,2252.0,-0.7,9.67,5.98,-0.02,0.01,-0.15,0.0,e
3653.0,3364.0,3019.0,3138.0,2554.0,2283.0,2493.0,2261.0,-0.59,9.72,5.81,-0.02,0.02,-0.15,0.0,e
3653.0,3364.0,3019.0,3138.0,2554.0,2283.0,2493.0,2261.0,-0.59,9.72,5.81,-0.02,0.02,-0.15,0.0,e
3653.0,3364.0,3019.0,3138.0,2554.0,2283.0,2493.0,2261.0,-0.59,9.72,5.81,-0.02,0.02,-0.15,0.0,e
3653.0,3364.0,3019.0,3138.0,2554.0,2283.0,2493.0,2261.0,-0.59,9.72,5.81,-0.02,0.02,-0.15,0.0,e
3653.0,3364.0,3019.0,3138.0,2554.0,2283.0,2493.0,2261.0,-0.59,9.72,5.81,-0.02,0.02,-0.15,0.0,e
3653.0,3364.0,3019.0,3138.0,2554.0,2283.0,2493.0,2261.0,-0.59,9.72,5.81,-0.02,0.02,-0.15,0.0,e
3653.0,3364.0,3019.0,3138.0,2554.0,2283.0,2493.0,2261.0,-0.59,9.72,5.81,-0.02,0.02,-0.15,0.0,e
3345.0,3377.0,3019.0,3185.0,2501.0,2263.0,2511.0,2293.0,-0.28,9.73,5.85,-0.03,0.04,-0.15,0.0,e
3345.0,3377.0,3019.0,3185.0,2501.0,2263.0,2511.0,2293.0,-0.28,9.73,5.85,-0.03,0.04,-0.15,0.0,e
3345.0,3377.0,3019.0,3185.0,2501.0,2263.0,2511.0,2293.0,-0.28,9.73,5.85,-0.03,0.04,-0.15,0.0,e
3345.0,3377.0,3019.0,3185.0,2501.0,2263.0,2511.0,2293.0,-0.28,9.73,5.85,-0.03,0.04,-0.15,0.0,e
3345.0,3377.0,3019.0,3185.0,2501.0,2263.0,2511.0,2293.0,-0.28,9.73,5.85,-0.03,0.04,-0.15,0.0,e
3345.0,3377.0,3019.0,3185.0,2501.0,2263.0,2511.0,2293.0,-0.28,9.73,5.85,-0.03,0.04,-0.15,0.0,e
3345.0,3377.0,3019.0,3185.0,2501.0,2263.0,2511.0,2293.0,-0.28,9.73,5.85,-0.03,0.04,-0.15,0.0,e
3345.0,3377.0,3019.0,3185.0,2501.0,2263.0,2511.0,2293.0,-0.28,9.73,5.85,-0.03,0.04,-0.15,0.0,e
3345.0,3377.0,3019.0,3185.0,2501.0,2263.0,2511.0,2293.0,-0.28,9.73,5.85,-0.03,0.04,-0.15,0.0,e
3345.0,3377.0,3019.0,3185.0,2501.0,2263.0,2511.0,2293.0,-0.28,9.73,5.85,-0.03,0.04,-0.15,0.0,e
3345.0,3377.0,3019.0,3185.0,2501.0,2263.0,2511.0,2293.0,-0.28,9.73,5.85,-0.03,0.04,-0.15,0.0,e
3345.0,3377.0,3019.0,3185.0,2501.0,2263.0,2511.0,2293.0,-0.28,9.73,5.85,-0.03,0.04,-0.15,0.0,e
3345.0,3377.0,3019.0,3185.0,2501.0,2263.0,2511.0,2293.0,-0.28,9.73,5.85,-0.03,0.04,-0.15,0.0,e
3345.0,3377.0,3019.0,3185.0,2501.0,2263.0,2511.0,2293.0,-0.28,9.73,5.85,-0.03,0.04,-0.15,0.0,e
3345.0,3377.0,3019.0,3185.0,2501.0,2263.0,2511.0,2293.0,-0.28,9.73,5.85,-0.03,0.04,-0.15,0.0,e
3345.0,3377.0,3019.0,3185.0,2501.0,2263.0,2511.0,2293.0,-0.28,9.73,5.85,-0.03,0.04,-0.15,0.0,e
3345.0,3377.0,3019.0,3185.0,2501.0,2263.0,2511.0,2293.0,-0.28,9.73,5.85,-0.03,0.04,-0.15,0.0,e
3345.0,3377.0,3019.0,3185.0,2501.0,2263.0,2511.0,2293.0,-0.28,9.73,5.85,-0.03,0.04,-0.15,0.0,e
3356.0,3377.0,3024.0,3195.0,2501.0,2256.0,2516.0,2294.0,-0.5,9.58,6.04,0.04,-0.03,-0.15,0.0,e
3356.0,3377.0,3024.0,3195.0,2501.0,2256.0,2516.0,2294.0,-0.5,9.58,6.04,0.04,-0.03,-0.15,0.0,e
3356.0,3377.0,3024.0,3195.0,2501.0,2256.0,2516.0,2294.0,-0.5,9.58,6.04,0.04,-0.03,-0.15,0.0,e
3356.0,3377.0,3024.0,3195.0,2501.0,2256.0,2516.0,2294.0,-0.5,9.58,6.04,0.04,-0.03,-0.15,0.0,e
3356.0,3377.0,3024.0,3195.0,2501.0,2256.0,2516.0,2294.0,-0.5,9.58,6.04,0.04,-0.03,-0.15,0.0,e
3337.0,3432.0,3045.0,3184.0,2496.0,2230.0,2448.0,2274.0,-0.61,9.69,6.08,0.0,0.06,-0.15,0.0,e
3337.0,3432.0,3045.0,3184.0,2496.0,2230.0,2448.0,2274.0,-0.61,9.69,6.08,0.0,0.06,-0.15,0.0,e
3337.0,3432.0,3045.0,3184.0,2496.0,2230.0,2448.0,2274.0,-0.61,9.69,6.08,0.0,0.06,-0.15,0.0,e
3337.0,3432.0,3045.0,3184.0,2496.0,2230.0,2448.0,2274.0,-0.61,9.69,6.08,0.0,0.06,-0.15,0.0,e
3337.0,3432.0,3045.0,3184.0,2496.0,2230.0,2448.0,2274.0,-0.61,9.69,6.08,0.0,0.06,-0.15,0.0,e
3337.0,3432.0,3045.0,3184.0,2496.0,2230.0,2448.0,2274.0,-0.61,9.69,6.08,0.0,0.06,-0.15,0.0,e
3337.0,3432.0,3045.0,3184.0,2496.0,2230.0,2448.0,2274.0,-0.61,9.69,6.08,0.0,0.06,-0.15,0.0,e
3319.0,3441.0,3042.0,3197.0,2483.0,2228.0,2453.0,2273.0,-0.51,9.73,5.98,0.01,0.02,-0.15,0.0,e
3319.0,3441.0,3042.0,3197.0,2483.0,2228.0,2453.0,2273.0,-0.51,9.73,5.98,0.01,0.02,-0.15,0.0,e
3319.0,3441.0,3042.0,3197.0,2483.0,2228.0,2453.0,2273.0,-0.51,9.73,5.98,0.01,0.02,-0.15,0.0,e
3319.0,3441.0,3042.0,3197.0,2483.0,2228.0,2453.0,2273.0,-0.51,9.73,5.98,0.01,0.02,-0.15,0.0,e
3331.0,3441.0,3038.0,3205.0,2502.0,2234.0,2448.0,2282.0,-0.57,9.64,6.08,0.01,0.01,-0.15,0.0,e
3328.0,3428.0,3059.0,3213.0,2506.0,2245.0,2457.0,2288.0,-0.7,9.73,5.77,0.05,0.05,-0.15,0.0,e
3328.0,3428.0,3059.0,3213.0,2506.0,2245.0,2457.0,2288.0,-0.7,9.73,5.77,0.05,0.05,-0.15,0.0,e
3328.0,3428.0,3059.0,3213.0,2506.0,2245.0,2457.0,2288.0,-0.7,9.73,5.77,0.05,0.05,-0.15,0.0,e
3328.0,3428.0,3059.0,3213.0,2506.0,2245.0,2457.0,2288.0,-0.7,9.73,5.77,0.05,0.05,-0.15,0.0,e
3334.0,3443.0,3049.0,3206.0,2509.0,2228.0,2461.0,2288.0,-0.47,9.71,5.61,0.01,-0.06,-0.15,0.0,e
3341.0,3449.0,3056.0,3195.0,2506.0,2238.0,2457.0,2286.0,-0.48,9.75,5.77,0.05,0.05,-0.15,0.0,e
3339.0,3434.0,3056.0,3218.0,2508.0,2245.0,2455.0,2291.0,-0.7,9.62,5.95,-0.01,-0.03,-0.15,0.0,e
3339.0,3434.0,3056.0,3218.0,2508.0,2245.0,2455.0,2291.0,-0.7,9.62,5.95,-0.01,-0.03,-0.15,0.0,e
3339.0,3434.0,3056.0,3218.0,2508.0,2245.0,2455.0,2291.0,-0.7,9.62,5.95,-0.01,-0.03,-0.15,0.0,e
3339.0,3434.0,3056.0,3218.0,2508.0,2245.0,2455.0,2291.0,-0.7,9.62,5.95,-0.01,-0.03,-0.15,0.0,e
3339.0,3434.0,3056.0,3218.0,2508.0,2245.0,2455.0,2291.0,-0.7,9.62,5.95,-0.01,-0.03,-0.15,0.0,e
3310.0,3783.0,3002.0,3170.0,2550.0,2290.0,2544.0,2291.0,-0.31,9.7,5.68,0.05,0.05,-0.15,0.0,e
3310.0,3783.0,3002.0,3170.0,2550.0,2290.0,2544.0,2291.0,-0.31,9.7,5.68,0.05,0.05,-0.15,0.0,e
3310.0,3783.0,3002.0,3170.0,2550.0,2290.0,2544.0,2291.0,-0.31,9.7,5.68,0.05,0.05,-0.15,0.0,e
3310.0,3783.0,3002.0,3170.0,2550.0,2290.0,2544.0,2291.0,-0.31,9.7,5.68,0.05,0.05,-0.15,0.0,e
3310.0,3783.0,3002.0,3170.0,2550.0,2290.0,2544.0,2291.0,-0.31,9.7,5.68,0.05,0.05,-0.15,0.0,e
3310.0,3783.0,3002.0,3170.0,2550.0,2290.0,2544.0,2291.0,-0.31,9.7,5.68,0.05,0.05,-0.15,0.0,e
3310.0,3783.0,3002.0,3170.0,2550.0,2290.0,2544.0,2291.0,-0.31,9.7,5.68,0.05,0.05,-0.15,0.0,e
3310.0,3783.0,3002.0,3170.0,2550.0,2290.0,2544.0,2291.0,-0.31,9.7,5.68,0.05,0.05,-0.15,0.0,e
3310.0,3783.0,3002.0,3170.0,2550.0,2290.0,2544.0,2291.0,-0.31,9.7,5.68,0.05,0.05,-0.15,0.0,e
3310.0,3783.0,3002.0,3170.0,2550.0,2290.0,2544.0,2291.0,-0.31,9.7,5.68,0.05,0.05,-0.15,0.0,e
3310.0,3783.0,3002.0,3170.0,2550.0,2290.0,2544.0,2291.0,-0.31,9.7,5.68,0.05,0.05,-0.15,0.0,e
3310.0,3783.0,3002.0,3170.0,2550.0,2290.0,2544.0,2291.0,-0.31,9.7,5.68,0.05,0.05,-0.15,0.0,e
3310.0,3783.0,3002.0,3170.0,2550.0,2290.0,2544.0,2291.0,-0.31,9.7,5.68,0.05,0.05,-0.15,0.0,e
3324.0,3780.0,2983.0,3168.0,2557.0,2288.0,2551.0,2295.0,-0.2,9.83,5.64,-0.0,0.0,-0.15,0.0,e
3324.0,3780.0,2983.0,3168.0,2557.0,2288.0,2551.0,2295.0,-0.2,9.83,5.64,-0.0,0.0,-0.15,0.0,e
3324.0,3780.0,2983.0,3168.0,2557.0,2288.0,2551.0,2295.0,-0.2,9.83,5.64,-0.0,0.0,-0.15,0.0,e
3324.0,3780.0,2983.0,3168.0,2557.0,2288.0,2551.0,2295.0,-0.2,9.83,5.64,-0.0,0.0,-0.15,0.0,e
3324.0,3780.0,2983.0,3168.0,2557.0,2288.0,2551.0,2295.0,-0.2,9.83,5.64,-0.0,0.0,-0.15,0.0,e
3333.0,3789.0,3007.0,3171.0,2549.0,2299.0,2543.0,2303.0,-0.2,9.73,5.73,0.06,0.01,-0.15,0.0,e
3487.0,3328.0,3024.0,3168.0,2527.0,2245.0,2465.0,2267.0,-0.6,9.74,5.88,-0.03,0.0,-0.15,0.0,e
3487.0,3328.0,3024.0,3168.0,2527.0,2245.0,2465.0,2267.0,-0.6,9.74,5.88,-0.03,0.0,-0.15,0.0,e
3487.0,3328.0,3024.0,3168.0,2527.0,2245.0,2465.0,2267.0,-0.6,9.74,5.88,-0.03,0.0,-0.15,0.0,e
3487.0,3328.0,3024.0,3168.0,2527.0,2245.0,2465.0,2267.0,-0.6,9.74,5.88,-0.03,0.0,-0.15,0.0,e
3487.0,3328.0,3024.0,3168.0,2527.0,2245.0,2465.0,2267.0,-0.6,9.74,5.88,-0.03,0.0,-0.15,0.0,e
3487.0,3328.0,3024.0,3168.0,2527.0,2245.0,2465.0,2267.0,-0.6,9.74,5.88,-0.03,0.0,-0.15,0.0,e
3487.0,3328.0,3024.0,3168.0,2527.0,2245.0,2465.0,2267.0,-0.6,9.74,5.88,-0.03,0.0,-0.15,0.0,e
3487.0,3328.0,3024.0,3168.0,2527.0,2245.0,2465.0,2267.0,-0.6,9.74,5.88,-0.03,0.0,-0.15,0.0,e
3487.0,3328.0,3024.0,3168.0,2527.0,2245.0,2465.0,2267.0,-0.6,9.74,5.88,-0.03,0.0,-0.15,0.0,e
3471.0,3323.0,3008.0,3189.0,2537.0,2251.0,2477.0,2269.0,-0.65,9.66,6.0,0.02,0.01,-0.15,0.0,e
3471.0,3323.0,3008.0,3189.0,2537.0,2251.0,2477.0,2269.0,-0.65,9.66,6.0,0.02,0.01,-0.15,0.0,e
3471.0,3323.0,3008.0,3189.0,2537.0,2251.0,2477.0,2269.0,-0.65,9.66,6.0,0.02,0.01,-0.15,0.0,e
3488.0,3319.0,3010.0,3184.0,2542.0,2256.0,2469.0,2274.0,-0.71,9.71,5.88,0.02,-0.03,-0.15,0.0,e
3472.0,3311.0,3018.0,3187.0,2543.0,2253.0,2475.0,2279.0,-0.67,9.75,5.96,0.01,-0.01,-0.15,0.0,e
3472.0,3311.0,3018.0,3187.0,2543.0,2253.0,2475.0,2279.0,-0.67,9.75,5.96,0.01,-0.01,-0.15,0.0,e
3472.0,3311.0,3018.0,3187.0,2543.0,2253.0,2475.0,2279.0,-0.67,9.75,5.96,0.01,-0.01,-0.15,0.0,e
3476.0,3323.0,3018.0,3214.0,2543.0,2259.0,2480.0,2287.0,-0.69,9.69,5.83,-0.1,-0.02,-0.15,0.0,e
3476.0,3323.0,3018.0,3214.0,2543.0,2259.0,2480.0,2287.0,-0.69,9.69,5.83,-0.1,-0.02,-0.15,0.0,e
3476.0,3323.0,3018.0,3214.0,2543.0,2259.0,2480.0,2287.0,-0.69,9.69,5.83,-0.1,-0.02,-0.15,0.0,e
3476.0,3323.0,3018.0,3214.0,2543.0,2259.0,2480.0,2287.0,-0.69,9.69,5.83,-0.1,-0.02,-0.15,0.0,e
3476.0,3323.0,3018.0,3214.0,2543.0,2259.0,2480.0,2287.0,-0.69,9.69,5.83,-0.1,-0.02,-0.15,0.0,e
3476.0,3323.0,3018.0,3214.0,2543.0,2259.0,2480.0,2287.0,-0.69,9.69,5.83,-0.1,-0.02,-0.15,0.0,e
3233.0,3318.0,3003.0,3069.0,2474.0,2169.0,2435.0,2191.0,-0.63,9.64,6.2,0.08,0.06,-0.15,0.0,e
3233.0,3318.0,3003.0,3069.0,2474.0,2169.0,2435.0,2191.0,-0.63,9.64,6.2,0.08,0.06,-0.15,0.0,e
3232.0,3331.0,3022.0,3086.0,2490.0,2175.0,2438.0,2199.0,-0.64,9.67,6.32,0.08,-0.01,-0.15,0.0,e
3232.0,3331.0,3022.0,3086.0,2490.0,2175.0,2438.0,2199.0,-0.64,9.67,6.32,0.08,-0.01,-0.15,0.0,e
3232.0,3331.0,3022.0,3086.0,2490.0,2175.0,2438.0,2199.0,-0.64,9.67,6.32,0.08,-0.01,-0.15,0.0,e
3232.0,3331.0,3022.0,3086.0,2490.0,2175.0,2438.0,2199.0,-0.64,9.67,6.32,0.08,-0.01,-0.15,0.0,e
3228.0,3338.0,3006.0,3092.0,2500.0,2194.0,2448.0,2215.0,-0.73,9.73,6.1,0.02,-0.04,-0.15,0.0,e
3228.0,3338.0,3006.0,3092.0,2500.0,2194.0,2448.0,2215.0,-0.73,9.73,6.1,0.02,-0.04,-0.15,0.0,e
3228.0,3338.0,3006.0,3092.0,2500.0,2194.0,2448.0,2215.0,-0.73,9.73,6.1,0.02,-0.04,-0.15,0.0,e
3228.0,3338.0,3006.0,3092.0,2500.0,2194.0,2448.0,2215.0,-0.73,9.73,6.1,0.02,-0.04,-0.15,0.0,e
3228.0,3338.0,3006.0,3092.0,2500.0,2194.0,2448.0,2215.0,-0.73,9.73,6.1,0.02,-0.04,-0.15,0.0,e
3228.0,3338.0,3006.0,3092.0,2500.0,2194.0,2448.0,2215.0,-0.73,9.73,6.1,0.02,-0.04,-0.15,0.0,e
3216.0,3341.0,3019.0,3098.0,2512.0,2190.0,2449.0,2223.0,-0.51,9.69,6.25,-0.0,0.01,-0.15,0.0,e
3216.0,3341.0,3019.0,3098.0,2512.0,2190.0,2449.0,2223.0,-0.51,9.69,6.25,-0.0,0.01,-0.15,0.0,e
3222.0,3331.0,3015.0,3118.0,2512.0,2191.0,2451.0,2225.0,-0.68,9.67,6.29,0.02,-0.02,-0.15,0.0,e
3222.0,3331.0,3015.0,3118.0,2512.0,2191.0,2451.0,2225.0,-0.68,9.67,6.29,0.02,-0.02,-0.15,0.0,e
3222.0,3331.0,3015.0,3118.0,2512.0,2191.0,2451.0,2225.0,-0.68,9.67,6.29,0.02,-0.02,-0.15,0.0,e
3222.0,3331.0,3015.0,3118.0,2512.0,2191.0,2451.0,2225.0,-0.68,9.67,6.29,0.02,-0.02,-0.15,0.0,e
3222.0,3331.0,3015.0,3118.0,2512.0,2191.0,2451.0,2225.0,-0.68,9.67,6.29,0.02,-0.02,-0.15,0.0,e
3213.0,3342.0,3017.0,3109.0,2523.0,2192.0,2455.0,2222.0,-0.54,9.55,6.3,0.02,0.03,-0.15,0.0,e
3287.0,3295.0,3002.0,3213.0,2455.0,2257.0,2432.0,2231.0,0.11,9.69,6.21,0.05,-0.01,-0.15,0.0,e
3287.0,3295.0,3002.0,3213.0,2455.0,2257.0,2432.0,2231.0,0.11,9.69,6.21,0.05,-0.01,-0.15,0.0,e
3287.0,3295.0,3002.0,3213.0,2455.0,2257.0,2432.0,2231.0,0.11,9.69,6.21,0.05,-0.01,-0.15,0.0,e
3287.0,3295.0,3002.0,3213.0,2455.0,2257.0,2432.0,2231.0,0.11,9.69,6.21,0.05,-0.01,-0.15,0.0,e
3287.0,3295.0,3002.0,3213.0,2455.0,2257.0,2432.0,2231.0,0.11,9.69,6.21,0.05,-0.01,-0.15,0.0,e
3287.0,3295.0,3002.0,3213.0,2455.0,2257.0,2432.0,2231.0,0.11,9.69,6.21,0.05,-0.01,-0.15,0.0,e
3287.0,3295.0,3002.0,3213.0,2455.0,2257.0,2432.0,2231.0,0.11,9.69,6.21,0.05,-0.01,-0.15,0.0,e
3287.0,3295.0,3002.0,3213.0,2455.0,2257.0,2432.0,2231.0,0.11,9.69,6.21,0.05,-0.01,-0.15,0.0,e
3287.0,3295.0,3002.0,3213.0,2455.0,2257.0,2432.0,2231.0,0.11,9.69,6.21,0.05,-0.01,-0.15,0.0,e
3287.0,3295.0,3002.0,3213.0,2455.0,2257.0,2432.0,2231.0,0.11,9.69,6.21,0.05,-0.01,-0.15,0.0,e
3287.0,3295.0,3002.0,3213.0,2455.0,2257.0,2432.0,2231.0,0.11,9.69,6.21,0.05,-0.01,-0.15,0.0,e
3287.0,3295.0,3002.0,3213.0,2455.0,2257.0,2432.0,2231.0,0.11,9.69,6.21,0.05,-0.01,-0.15,0.0,e
3287.0,3295.0,3002.0,3213.0,2455.0,2257.0,2432.0,2231.0,0.11,9.69,6.21,0.05,-0.01,-0.15,0.0,e
3287.0,3295.0,3002.0,3213.0,2455.0,2257.0,2432.0,2231.0,0.11,9.69,6.21,0.05,-0.01,-0.15,0.0,e
3287.0,3295.0,3002.0,3213.0,2455.0,2257.0,2432.0,2231.0,0.11,9.69,6.21,0.05,-0.01,-0.15,0.0,e
3287.0,3295.0,3002.0,3213.0,2455.0,2257.0,2432.0,2231.0,0.11,9.69,6.21,0.05,-0.01,-0.15,0.0,e
3287.0,3295.0,3002.0,3213.0,2455.0,2257.0,2432.0,2231.0,0.11,9.69,6.21,0.05,-0.01,-0.15,0.0,e
3287.0,3295.0,3002.0,3213.0,2455.0,2257.0,2432.0,2231.0,0.11,9.69,6.21,0.05,-0.01,-0.15,0.0,e
3287.0,3295.0,3002.0,3213.0,2455.0,2257.0,2432.0,2231.0,0.11,9.69,6.21,0.05,-0.01,-0.15,0.0,e
3287.0,3295.0,3002.0,3213.0,2455.0,2257.0,2432.0,2231.0,0.11,9.69,6.21,0.05,-0.01,-0.15,0.0,e
3287.0,3295.0,3002.0,3213.0,2455.0,2257.0,2432.0,2231.0,0.11,9.69,6.21,0.05,-0.01,-0.15,0.0,e
3287.0,3295.0,3002.0,3213.0,2455.0,2257.0,2432.0,2231.0,0.11,9.69,6.21,0.05,-0.01,-0.15,0.0,e
3287.0,3295.0,3002.0,3213.0,2455.0,2257.0,2432.0,2231.0,0.11,9.69,6.21,0.05,-0.01,-0.15,0.0,e
3287.0,3295.0,3002.0,3213.0,2455.0,2257.0,2432.0,2231.0,0.11,9.69,6.21,0.05,-0.01,-0.15,0.0,e
3287.0,3295.0,3002.0,3213.0,2455.0,2257.0,2432.0,2231.0,0.11,9.69,6.21,0.05,-0.01,-0.15,0.0,e
3287.0,3295.0,3002.0,3213.0,2455.0,2257.0,2432.0,2231.0,0.11,9.69,6.21,0.05,-0.01,-0.15,0.0,e
3287.0,3295.0,3002.0,3213.0,2455.0,2257.0,2432.0,2231.0,0.11,9.69,6.21,0.05,-0.01,-0.15,0.0,e
3287.0,3295.0,3002.0,3213.0,2455.0,2257.0,2432.0,2231.0,0.11,9.69,6.21,0.05,-0.01,-0.15,0.0,e
3287.0,3295.0,3002.0,3213.0,2455.0,2257.0,2432.0,2231.0,0.11,9.69,6.21,0.05,-0.01,-0.15,0.0,e
3300.0,3295.0,2999.0,3210.0,2476.0,2265.0,2441.0,2233.0,-0.15,0.0,9.4,6.62,-0.05,0.04,-0.09,e
3300.0,3295.0,2999.0,3210.0,2476.0,2265.0,2441.0,2233.0,-0.15,0.0,9.4,6.62,-0.05,0.04,-0.09,e
3300.0,3295.0,2999.0,3210.0,2476.0,2265.0,2441.0,2233.0,-0.15,0.0,9.4,6.62,-0.05,0.04,-0.09,e
3318.0,3318.0,3031.0,3169.0,2479.0,2224.0,2470.0,2249.0,-0.63,9.72,6.16,0.06,0.05,-0.15,0.0,e
3318.0,3318.0,3031.0,3169.0,2479.0,2224.0,2470.0,2249.0,-0.63,9.72,6.16,0.06,0.05,-0.15,0.0,e
3318.0,3318.0,3031.0,3169.0,2479.0,2224.0,2470.0,2249.0,-0.63,9.72,6.16,0.06,0.05,-0.15,0.0,e
3318.0,3318.0,3031.0,3169.0,2479.0,2224.0,2470.0,2249.0,-0.63,9.72,6.16,0.06,0.05,-0.15,0.0,e
3318.0,3318.0,3031.0,3169.0,2479.0,2224.0,2470.0,2249.0,-0.63,9.72,6.16,0.06,0.05,-0.15,0.0,e
3318.0,3318.0,3031.0,3169.0,2479.0,2224.0,2470.0,2249.0,-0.63,9.72,6.16,0.06,0.05,-0.15,0.0,e
3318.0,3318.0,3031.0,3169.0,2479.0,2224.0,2470.0,2249.0,-0.63,9.72,6.16,0.06,0.05,-0.15,0.0,e
3318.0,3318.0,3031.0,3169.0,2479.0,2224.0,2470.0,2249.0,-0.63,9.72,6.16,0.06,0.05,-0.15,0.0,e
3318.0,3318.0,3031.0,3169.0,2479.0,2224.0,2470.0,2249.0,-0.63,9.72,6.16,0.06,0.05,-0.15,0.0,e
3318.0,3318.0,3031.0,3169.0,2479.0,2224.0,2470.0,2249.0,-0.63,9.72,6.16,0.06,0.05,-0.15,0.0,e
3317.0,3344.0,3036.0,3175.0,2468.0,2231.0,2471.0,2253.0,-0.64,9.52,6.3,0.02,-0.01,-0.15,0.0,e
3303.0,3323.0,3027.0,3223.0,2496.0,2255.0,2480.0,2257.0,-0.6,9.72,6.16,0.0,-0.01,-0.15,0.0,e
3303.0,3323.0,3027.0,3223.0,2496.0,2255.0,2480.0,2257.0,-0.6,9.72,6.16,0.0,-0.01,-0.15,0.0,e
3303.0,3323.0,3027.0,3223.0,2496.0,2255.0,2480.0,2257.0,-0.6,9.72,6.16,0.0,-0.01,-0.15,0.0,e
3303.0,3323.0,3027.0,3223.0,2496.0,2255.0,2480.0,2257.0,-0.6,9.72,6.16,0.0,-0.01,-0.15,0.0,e
3303.0,3323.0,3027.0,3223.0,2496.0,2255.0,2480.0,2257.0,-0.6,9.72,6.16,0.0,-0.01,-0.15,0.0,e
3303.0,3323.0,3027.0,3223.0,2496.0,2255.0,2480.0,2257.0,-0.6,9.72,6.16,0.0,-0.01,-0.15,0.0,e
3303.0,3323.0,3027.0,3223.0,2496.0,2255.0,2480.0,2257.0,-0.6,9.72,6.16,0.0,-0.01,-0.15,0.0,e
3303.0,3323.0,3027.0,3223.0,2496.0,2255.0,2480.0,2257.0,-0.6,9.72,6.16,0.0,-0.01,-0.15,0.0,e
3303.0,3323.0,3027.0,3223.0,2496.0,2255.0,2480.0,2257.0,-0.6,9.72,6.16,0.0,-0.01,-0.15,0.0,e
3303.0,3323.0,3027.0,3223.0,2496.0,2255.0,2480.0,2257.0,-0.6,9.72,6.16,0.0,-0.01,-0.15,0.0,e
3303.0,3323.0,3027.0,3223.0,2496.0,2255.0,2480.0,2257.0,-0.6,9.72,6.16,0.0,-0.01,-0.15,0.0,e
3303.0,3323.0,3027.0,3223.0,2496.0,2255.0,2480.0,2257.0,-0.6,9.72,6.16,0.0,-0.01,-0.15,0.0,e
3303.0,3323.0,3027.0,3223.0,2496.0,2255.0,2480.0,2257.0,-0.6,9.72,6.16,0.0,-0.01,-0.15,0.0,e
3303.0,3323.0,3027.0,3223.0,2496.0,2255.0,2480.0,2257.0,-0.6,9.72,6.16,0.0,-0.01,-0.15,0.0,e
3303.0,3323.0,3027.0,3223.0,2496.0,2255.0,2480.0,2257.0,-0.6,9.72,6.16,0.0,-0.01,-0.15,0.0,e
3303.0,3323.0,3027.0,3223.0,2496.0,2255.0,2480.0,2257.0,-0.6,9.72,6.16,0.0,-0.01,-0.15,0.0,e
3303.0,3323.0,3027.0,3223.0,2496.0,2255.0,2480.0,2257.0,-0.6,9.72,6.16,0.0,-0.01,-0.15,0.0,e
3319.0,3325.0,3017.0,3141.0,2514.0,2240.0,2485.0,2272.0,-1.04,9.57,6.07,0.05,0.05,-0.15,0.0,e
3319.0,3325.0,3017.0,3141.0,2514.0,2240.0,2485.0,2272.0,-1.04,9.57,6.07,0.05,0.05,-0.15,0.0,e
3319.0,3325.0,3017.0,3141.0,2514.0,2240.0,2485.0,2272.0,-1.04,9.57,6.07,0.05,0.05,-0.15,0.0,e
3319.0,3325.0,3017.0,3141.0,2514.0,2240.0,2485.0,2272.0,-1.04,9.57,6.07,0.05,0.05,-0.15,0.0,e
3319.0,3325.0,3017.0,3141.0,2514.0,2240.0,2485.0,2272.0,-1.04,9.57,6.07,0.05,0.05,-0.15,0.0,e
3317.0,3319.0,3010.0,3165.0,2528.0,2247.0,2487.0,2272.0,-0.91,9.69,5.96,0.03,-0.03,-0.15,0.0,e
3317.0,3319.0,3010.0,3165.0,2528.0,2247.0,2487.0,2272.0,-0.91,9.69,5.96,0.03,-0.03,-0.15,0.0,e
3317.0,3319.0,3010.0,3165.0,2528.0,2247.0,2487.0,2272.0,-0.91,9.69,5.96,0.03,-0.03,-0.15,0.0,e
3317.0,3319.0,3010.0,3165.0,2528.0,2247.0,2487.0,2272.0,-0.91,9.69,5.96,0.03,-0.03,-0.15,0.0,e
3317.0,3319.0,3010.0,3165.0,2528.0,2247.0,2487.0,2272.0,-0.91,9.69,5.96,0.03,-0.03,-0.15,0.0,e
3317.0,3319.0,3010.0,3165.0,2528.0,2247.0,2487.0,2272.0,-0.91,9.69,5.96,0.03,-0.03,-0.15,0.0,e
3317.0,3319.0,3010.0,3165.0,2528.0,2247.0,2487.0,2272.0,-0.91,9.69,5.96,0.03,-0.03,-0.15,0.0,e
3309.0,3313.0,3011.0,3191.0,2537.0,2254.0,2503.0,2261.0,-0.83,9.74,6.09,0.0,0.01,-0.15,0.0,e
3309.0,3313.0,3011.0,3191.0,2537.0,2254.0,2503.0,2261.0,-0.83,9.74,6.09,0.0,0.01,-0.15,0.0,e
3309.0,3313.0,3011.0,3191.0,2537.0,2254.0,2503.0,2261.0,-0.83,9.74,6.09,0.0,0.01,-0.15,0.0,e
3309.0,3313.0,3011.0,3191.0,2537.0,2254.0,2503.0,2261.0,-0.83,9.74,6.09,0.0,0.01,-0.15,0.0,e
3309.0,3313.0,3011.0,3191.0,2537.0,2254.0,2503.0,2261.0,-0.83,9.74,6.09,0.0,0.01,-0.15,0.0,e
3309.0,3313.0,3011.0,3191.0,2537.0,2254.0,2503.0,2261.0,-0.83,9.74,6.09,0.0,0.01,-0.15,0.0,e
3309.0,3313.0,3011.0,3191.0,2537.0,2254.0,2503.0,2261.0,-0.83,9.74,6.09,0.0,0.01,-0.15,0.0,e
3309.0,3313.0,3011.0,3191.0,2537.0,2254.0,2503.0,2261.0,-0.83,9.74,6.09,0.0,0.01,-0.15,0.0,e
3190.0,3370.0,2992.0,3070.0,2482.0,2251.0,2461.0,2226.0,-1.07,9.68,6.21,0.05,0.05,-0.15,0.0,e
3199.0,3394.0,2995.0,3071.0,2486.0,2253.0,2458.0,2241.0,-0.86,9.61,6.23,-0.01,-0.04,-0.15,0.0,e
3194.0,3377.0,2995.0,3131.0,2496.0,2262.0,2466.0,2257.0,-0.93,9.6,6.22,0.03,0.01,-0.15,0.0,e
3194.0,3377.0,2995.0,3131.0,2496.0,2262.0,2466.0,2257.0,-0.93,9.6,6.22,0.03,0.01,-0.15,0.0,e
3194.0,3377.0,2995.0,3131.0,2496.0,2262.0,2466.0,2257.0,-0.93,9.6,6.22,0.03,0.01,-0.15,0.0,e
3194.0,3377.0,2995.0,3131.0,2496.0,2262.0,2466.0,2257.0,-0.93,9.6,6.22,0.03,0.01,-0.15,0.0,e
3194.0,3377.0,2995.0,3131.0,2496.0,2262.0,2466.0,2257.0,-0.93,9.6,6.22,0.03,0.01,-0.15,0.0,e
3194.0,3377.0,2995.0,3131.0,2496.0,2262.0,2466.0,2257.0,-0.93,9.6,6.22,0.03,0.01,-0.15,0.0,e
3194.0,3377.0,2995.0,3131.0,2496.0,2262.0,2466.0,2257.0,-0.93,9.6,6.22,0.03,0.01,-0.15,0.0,e
3194.0,3377.0,2995.0,3131.0,2496.0,2262.0,2466.0,2257.0,-0.93,9.6,6.22,0.03,0.01,-0.15,0.0,e
3194.0,3377.0,2995.0,3131.0,2496.0,2262.0,2466.0,2257.0,-0.93,9.6,6.22,0.03,0.01,-0.15,0.0,e
3194.0,3377.0,2995.0,3131.0,2496.0,2262.0,2466.0,2257.0,-0.93,9.6,6.22,0.03,0.01,-0.15,0.0,e
3210.0,3393.0,2986.0,3139.0,2509.0,2271.0,2473.0,2257.0,-0.84,9.66,6.22,0.03,0.03,-0.15,0.0,e
3210.0,3393.0,2986.0,3139.0,2509.0,2271.0,2473.0,2257.0,-0.84,9.66,6.22,0.03,0.03,-0.15,0.0,e
3205.0,3381.0,2989.0,3143.0,2507.0,2263.0,2466.0,2257.0,-0.96,9.61,6.19,-0.02,0.02,-0.15,0.0,e
3200.0,3382.0,2992.0,3151.0,2498.0,2262.0,2479.0,2256.0,-0.91,9.58,6.27,-0.01,-0.01,-0.15,0.0,e
3187.0,3621.0,3102.0,3089.0,2505.0,2241.0,2467.0,2285.0,-0.75,9.81,5.96,-0.02,0.04,-0.15,0.0,e
3187.0,3621.0,3102.0,3089.0,2505.0,2241.0,2467.0,2285.0,-0.75,9.81,5.96,-0.02,0.04,-0.15,0.0,e
3187.0,3621.0,3102.0,3089.0,2505.0,2241.0,2467.0,2285.0,-0.75,9.81,5.96,-0.02,0.04,-0.15,0.0,e
3187.0,3621.0,3102.0,3089.0,2505.0,2241.0,2467.0,2285.0,-0.75,9.81,5.96,-0.02,0.04,-0.15,0.0,e
3187.0,3621.0,3102.0,3089.0,2505.0,2241.0,2467.0,2285.0,-0.75,9.81,5.96,-0.02,0.04,-0.15,0.0,e
3187.0,3621.0,3102.0,3089.0,2505.0,2241.0,2467.0,2285.0,-0.75,9.81,5.96,-0.02,0.04,-0.15,0.0,e
3187.0,3621.0,3102.0,3089.0,2505.0,2241.0,2467.0,2285.0,-0.75,9.81,5.96,-0.02,0.04,-0.15,0.0,e
3187.0,3621.0,3102.0,3089.0,2505.0,2241.0,2467.0,2285.0,-0.75,9.81,5.96,-0.02,0.04,-0.15,0.0,e
3187.0,3621.0,3102.0,3089.0,2505.0,2241.0,2467.0,2285.0,-0.75,9.81,5.96,-0.02,0.04,-0.15,0.0,e
3187.0,3621.0,3102.0,3089.0,2505.0,2241.0,2467.0,2285.0,-0.75,9.81,5.96,-0.02,0.04,-0.15,0.0,e
3187.0,3621.0,3102.0,3089.0,2505.0,2241.0,2467.0,2285.0,-0.75,9.81,5.96,-0.02,0.04,-0.15,0.0,e
3187.0,3621.0,3102.0,3089.0,2505.0,2241.0,2467.0,2285.0,-0.75,9.81,5.96,-0.02,0.04,-0.15,0.0,e
3187.0,3621.0,3102.0,3089.0,2505.0,2241.0,2467.0,2285.0,-0.75,9.81,5.96,-0.02,0.04,-0.15,0.0,e
3187.0,3621.0,3102.0,3089.0,2505.0,2241.0,2467.0,2285.0,-0.75,9.81,5.96,-0.02,0.04,-0.15,0.0,e
3187.0,3621.0,3102.0,3089.0,2505.0,2241.0,2467.0,2285.0,-0.75,9.81,5.96,-0.02,0.04,-0.15,0.0,e
3187.0,3621.0,3102.0,3089.0,2505.0,2241.0,2467.0,2285.0,-0.75,9.81,5.96,-0.02,0.04,-0.15,0.0,e
3187.0,3621.0,3102.0,3089.0,2505.0,2241.0,2467.0,2285.0,-0.75,9.81,5.96,-0.02,0.04,-0.15,0.0,e
3187.0,3621.0,3102.0,3089.0,2505.0,2241.0,2467.0,2285.0,-0.75,9.81,5.96,-0.02,0.04,-0.15,0.0,e
3187.0,3621.0,3102.0,3089.0,2505.0,2241.0,2467.0,2285.0,-0.75,9.81,5.96,-0.02,0.04,-0.15,0.0,e
3187.0,3621.0,3102.0,3089.0,2505.0,2241.0,2467.0,2285.0,-0.75,9.81,5.96,-0.02,0.04,-0.15,0.0,e
3187.0,3621.0,3102.0,3089.0,2505.0,2241.0,2467.0,2285.0,-0.75,9.81,5.96,-0.02,0.04,-0.15,0.0,e
3187.0,3621.0,3102.0,3089.0,2505.0,2241.0,2467.0,2285.0,-0.75,9.81,5.96,-0.02,0.04,-0.15,0.0,e
3187.0,3621.0,3102.0,3089.0,2505.0,2241.0,2467.0,2285.0,-0.75,9.81,5.96,-0.02,0.04,-0.15,0.0,e
3187.0,3621.0,3102.0,3089.0,2505.0,2241.0,2467.0,2285.0,-0.75,9.81,5.96,-0.02,0.04,-0.15,0.0,e
3187.0,3621.0,3102.0,3089.0,2505.0,2241.0,2467.0,2285.0,-0.75,9.81,5.96,-0.02,0.04,-0.15,0.0,e
3187.0,3616.0,3102.0,3083.0,2506.0,2252.0,2471.0,2287.0,-0.82,9.59,6.3,0.09,0.06,-0.15,0.0,e
3186.0,3621.0,3093.0,3088.0,2507.0,2242.0,2474.0,2291.0,-0.78,9.61,6.09,0.02,-0.06,-0.15,0.0,e
3171.0,3632.0,3102.0,3099.0,2506.0,2245.0,2478.0,2285.0,-0.68,9.65,6.17,0.02,-0.04,-0.15,0.0,e
3171.0,3632.0,3102.0,3099.0,2506.0,2245.0,2478.0,2285.0,-0.68,9.65,6.17,0.02,-0.04,-0.15,0.0,e
3175.0,3609.0,3094.0,3127.0,2535.0,2250.0,2486.0,2291.0,-0.46,9.66,6.21,-0.02,-0.04,-0.15,0.0,e
3175.0,3609.0,3094.0,3127.0,2535.0,2250.0,2486.0,2291.0,-0.46,9.66,6.21,-0.02,-0.04,-0.15,0.0,e
3175.0,3609.0,3094.0,3127.0,2535.0,2250.0,2486.0,2291.0,-0.46,9.66,6.21,-0.02,-0.04,-0.15,0.0,e
3175.0,3609.0,3094.0,3127.0,2535.0,2250.0,2486.0,2291.0,-0.46,9.66,6.21,-0.02,-0.04,-0.15,0.0,e
3175.0,3609.0,3094.0,3127.0,2535.0,2250.0,2486.0,2291.0,-0.46,9.66,6.21,-0.02,-0.04,-0.15,0.0,e
3175.0,3609.0,3094.0,3127.0,2535.0,2250.0,2486.0,2291.0,-0.46,9.66,6.21,-0.02,-0.04,-0.15,0.0,e
3175.0,3609.0,3094.0,3127.0,2535.0,2250.0,2486.0,2291.0,-0.46,9.66,6.21,-0.02,-0.04,-0.15,0.0,e
3190.0,3632.0,3115.0,3131.0,2544.0,2256.0,2497.0,2295.0,-0.72,9.6,6.21,0.03,0.03,-0.15,0.0,e
3190.0,3632.0,3115.0,3131.0,2544.0,2256.0,2497.0,2295.0,-0.72,9.6,6.21,0.03,0.03,-0.15,0.0,e
3190.0,3632.0,3115.0,3131.0,2544.0,2256.0,2497.0,2295.0,-0.72,9.6,6.21,0.03,0.03,-0.15,0.0,e
3190.0,3632.0,3115.0,3131.0,2544.0,2256.0,2497.0,2295.0,-0.72,9.6,6.21,0.03,0.03,-0.15,0.0,e
3190.0,3632.0,3115.0,3131.0,2544.0,2256.0,2497.0,2295.0,-0.72,9.6,6.21,0.03,0.03,-0.15,0.0,e
3190.0,3632.0,3115.0,3131.0,2544.0,2256.0,2497.0,2295.0,-0.72,9.6,6.21,0.03,0.03,-0.15,0.0,e
3190.0,3632.0,3115.0,3131.0,2544.0,2256.0,2497.0,2295.0,-0.72,9.6,6.21,0.03,0.03,-0.15,0.0,e
3303.0,3360.0,2992.0,3171.0,2627.0,2291.0,2559.0,2316.0,-1.41,9.61,5.64,0.04,0.02,-0.15,0.0,e
3303.0,3360.0,2992.0,3171.0,2627.0,2291.0,2559.0,2316.0,-1.41,9.61,5.64,0.04,0.02,-0.15,0.0,e
3303.0,3360.0,2992.0,3171.0,2627.0,2291.0,2559.0,2316.0,-1.41,9.61,5.64,0.04,0.02,-0.15,0.0,e
3299.0,3365.0,2991.0,3173.0,2630.0,2286.0,2559.0,2319.0,-1.14,9.7,5.65,0.02,-0.03,-0.15,0.0,e
3307.0,3365.0,2975.0,3187.0,2629.0,2299.0,2554.0,2311.0,-1.36,9.6,5.65,0.0,0.0,-0.15,0.0,e
3307.0,3365.0,2975.0,3187.0,2629.0,2299.0,2554.0,2311.0,-1.36,9.6,5.65,0.0,0.0,-0.15,0.0,e
3307.0,3365.0,2975.0,3187.0,2629.0,2299.0,2554.0,2311.0,-1.36,9.6,5.65,0.0,0.0,-0.15,0.0,e
3297.0,3377.0,2979.0,3184.0,2623.0,2298.0,2551.0,2302.0,-1.14,9.68,5.67,0.03,0.06,-0.15,0.0,e
3297.0,3377.0,2979.0,3184.0,2623.0,2298.0,2551.0,2302.0,-1.14,9.68,5.67,0.03,0.06,-0.15,0.0,e
3297.0,3377.0,2979.0,3184.0,2623.0,2298.0,2551.0,2302.0,-1.14,9.68,5.67,0.03,0.06,-0.15,0.0,e
3297.0,3377.0,2979.0,3184.0,2623.0,2298.0,2551.0,2302.0,-1.14,9.68,5.67,0.03,0.06,-0.15,0.0,e
3294.0,3362.0,2991.0,3183.0,2635.0,2298.0,2558.0,2306.0,-1.27,9.66,5.5,-0.04,-0.01,-0.15,0.0,e
3294.0,3362.0,2991.0,3183.0,2635.0,2298.0,2558.0,2306.0,-1.27,9.66,5.5,-0.04,-0.01,-0.15,0.0,e
3294.0,3362.0,2991.0,3183.0,2635.0,2298.0,2558.0,2306.0,-1.27,9.66,5.5,-0.04,-0.01,-0.15,0.0,e
3294.0,3362.0,2991.0,3183.0,2635.0,2298.0,2558.0,2306.0,-1.27,9.66,5.5,-0.04,-0.01,-0.15,0.0,e
3294.0,3362.0,2991.0,3183.0,2635.0,2298.0,2558.0,2306.0,-1.27,9.66,5.5,-0.04,-0.01,-0.15,0.0,e
3294.0,3362.0,2991.0,3183.0,2635.0,2298.0,2558.0,2306.0,-1.27,9.66,5.5,-0.04,-0.01,-0.15,0.0,e
3294.0,3362.0,2991.0,3183.0,2635.0,2298.0,2558.0,2306.0,-1.27,9.66,5.5,-0.04,-0.01,-0.15,0.0,e
3294.0,3362.0,2991.0,3183.0,2635.0,2298.0,2558.0,2306.0,-1.27,9.66,5.5,-0.04,-0.01,-0.15,0.0,e
3294.0,3362.0,2991.0,3183.0,2635.0,2298.0,2558.0,2306.0,-1.27,9.66,5.5,-0.04,-0.01,-0.15,0.0,e
3294.0,3362.0,2991.0,3183.0,2635.0,2298.0,2558.0,2306.0,-1.27,9.66,5.5,-0.04,-0.01,-0.15,0.0,e
3226.0,3393.0,3114.0,3206.0,2527.0,2271.0,2484.0,2320.0,-1.07,9.63,5.81,0.05,-0.09,-0.15,0.0,e
3226.0,3393.0,3114.0,3206.0,2527.0,2271.0,2484.0,2320.0,-1.07,9.63,5.81,0.05,-0.09,-0.15,0.0,e
3226.0,3393.0,3114.0,3206.0,2527.0,2271.0,2484.0,2320.0,-1.07,9.63,5.81,0.05,-0.09,-0.15,0.0,e
3226.0,3393.0,3114.0,3206.0,2527.0,2271.0,2484.0,2320.0,-1.07,9.63,5.81,0.05,-0.09,-0.15,0.0,e
3226.0,3393.0,3114.0,3206.0,2527.0,2271.0,2484.0,2320.0,-1.07,9.63,5.81,0.05,-0.09,-0.15,0.0,e
3226.0,3393.0,3114.0,3206.0,2527.0,2271.0,2484.0,2320.0,-1.07,9.63,5.81,0.05,-0.09,-0.15,0.0,e
3226.0,3393.0,3114.0,3206.0,2527.0,2271.0,2484.0,2320.0,-1.07,9.63,5.81,0.05,-0.09,-0.15,0.0,e
3226.0,3393.0,3114.0,3206.0,2527.0,2271.0,2484.0,2320.0,-1.07,9.63,5.81,0.05,-0.09,-0.15,0.0,e
3226.0,3393.0,3114.0,3206.0,2527.0,2271.0,2484.0,2320.0,-1.07,9.63,5.81,0.05,-0.09,-0.15,0.0,e
3226.0,3393.0,3114.0,3206.0,2527.0,2271.0,2484.0,2320.0,-1.07,9.63,5.81,0.05,-0.09,-0.15,0.0,e
3226.0,3393.0,3114.0,3206.0,2527.0,2271.0,2484.0,2320.0,-1.07,9.63,5.81,0.05,-0.09,-0.15,0.0,e
3218.0,3399.0,3099.0,3213.0,2523.0,2275.0,2487.0,2318.0,-0.89,9.65,5.86,0.01,-0.07,-0.15,0.0,e
3218.0,3399.0,3099.0,3213.0,2523.0,2275.0,2487.0,2318.0,-0.89,9.65,5.86,0.01,-0.07,-0.15,0.0,e
3217.0,3393.0,3092.0,3216.0,2526.0,2283.0,2485.0,2331.0,-1.03,9.56,6.0,-0.0,-0.02,-0.15,0.0,e
3217.0,3393.0,3092.0,3216.0,2526.0,2283.0,2485.0,2331.0,-1.03,9.56,6.0,-0.0,-0.02,-0.15,0.0,e
3217.0,3393.0,3092.0,3216.0,2526.0,2283.0,2485.0,2331.0,-1.03,9.56,6.0,-0.0,-0.02,-0.15,0.0,e
3227.0,3509.0,3009.0,3165.0,2517.0,2256.0,2463.0,2282.0,-0.82,9.73,5.53,0.11,-0.07,-0.15,0.0,e
3227.0,3509.0,3009.0,3165.0,2517.0,2256.0,2463.0,2282.0,-0.82,9.73,5.53,0.11,-0.07,-0.15,0.0,e
3227.0,3509.0,3009.0,3165.0,2517.0,2256.0,2463.0,2282.0,-0.82,9.73,5.53,0.11,-0.07,-0.15,0.0,e
3227.0,3509.0,3009.0,3165.0,2517.0,2256.0,2463.0,2282.0,-0.82,9.73,5.53,0.11,-0.07,-0.15,0.0,e
3227.0,3509.0,3009.0,3165.0,2517.0,2256.0,2463.0,2282.0,-0.82,9.73,5.53,0.11,-0.07,-0.15,0.0,e
3227.0,3509.0,3009.0,3165.0,2517.0,2256.0,2463.0,2282.0,-0.82,9.73,5.53,0.11,-0.07,-0.15,0.0,e
3227.0,3509.0,3009.0,3165.0,2517.0,2256.0,2463.0,2282.0,-0.82,9.73,5.53,0.11,-0.07,-0.15,0.0,e
3227.0,3509.0,3009.0,3165.0,2517.0,2256.0,2463.0,2282.0,-0.82,9.73,5.53,0.11,-0.07,-0.15,0.0,e
3227.0,3509.0,3009.0,3165.0,2517.0,2256.0,2463.0,2282.0,-0.82,9.73,5.53,0.11,-0.07,-0.15,0.0,e
3227.0,3509.0,3009.0,3165.0,2517.0,2256.0,2463.0,2282.0,-0.82,9.73,5.53,0.11,-0.07,-0.15,0.0,e
3227.0,3509.0,3009.0,3165.0,2517.0,2256.0,2463.0,2282.0,-0.82,9.73,5.53,0.11,-0.07,-0.15,0.0,e
3216.0,3501.0,3008.0,3183.0,2515.0,2256.0,2466.0,2288.0,-0.6,9.65,6.15,0.0,-0.02,-0.04,-0.16,e
3216.0,3501.0,3008.0,3183.0,2515.0,2256.0,2466.0,2288.0,-0.6,9.65,6.15,0.0,-0.02,-0.04,-0.16,e
3218.0,3515.0,2998.0,3188.0,2521.0,2256.0,2468.0,2289.0,-0.83,9.76,6.16,0.05,0.01,-0.15,0.0,e
3218.0,3515.0,2998.0,3188.0,2521.0,2256.0,2468.0,2289.0,-0.83,9.76,6.16,0.05,0.01,-0.15,0.0,e
3225.0,3490.0,2997.0,3187.0,2527.0,2255.0,2473.0,2288.0,-1.03,9.86,5.77,0.02,0.04,-0.15,0.0,e
3225.0,3490.0,2997.0,3187.0,2527.0,2255.0,2473.0,2288.0,-1.03,9.86,5.77,0.02,0.04,-0.15,0.0,e
3217.0,3503.0,3005.0,3205.0,2522.0,2259.0,2477.0,2287.0,-0.72,9.66,6.03,0.02,-0.06,-0.15,0.0,e
3217.0,3503.0,3005.0,3205.0,2522.0,2259.0,2477.0,2287.0,-0.72,9.66,6.03,0.02,-0.06,-0.15,0.0,e
3217.0,3503.0,3005.0,3205.0,2522.0,2259.0,2477.0,2287.0,-0.72,9.66,6.03,0.02,-0.06,-0.15,0.0,e
3170.0,3663.0,3186.0,3152.0,2554.0,2285.0,2515.0,2335.0,-0.9,9.71,6.01,0.03,-0.02,-0.15,0.0,e
3170.0,3663.0,3186.0,3152.0,2554.0,2285.0,2515.0,2335.0,-0.9,9.71,6.01,0.03,-0.02,-0.15,0.0,e
3170.0,3663.0,3186.0,3152.0,2554.0,2285.0,2515.0,2335.0,-0.9,9.71,6.01,0.03,-0.02,-0.15,0.0,e
3170.0,3663.0,3186.0,3152.0,2554.0,2285.0,2515.0,2335.0,-0.9,9.71,6.01,0.03,-0.02,-0.15,0.0,e
3170.0,3663.0,3186.0,3152.0,2554.0,2285.0,2515.0,2335.0,-0.9,9.71,6.01,0.03,-0.02,-0.15,0.0,e
3180.0,3689.0,3190.0,3148.0,2549.0,2285.0,2517.0,2337.0,-0.79,9.52,6.21,0.01,-0.0,-0.15,0.0,e
3180.0,3689.0,3190.0,3148.0,2549.0,2285.0,2517.0,2337.0,-0.79,9.52,6.21,0.01,-0.0,-0.15,0.0,e
3185.0,3701.0,3202.0,3169.0,2558.0,2286.0,2511.0,2330.0,-0.93,9.66,5.98,0.07,0.06,-0.15,0.0,e
3185.0,3701.0,3202.0,3169.0,2558.0,2286.0,2511.0,2330.0,-0.93,9.66,5.98,0.07,0.06,-0.15,0.0,e
3170.0,3723.0,3185.0,3199.0,2559.0,2294.0,2528.0,2336.0,-0.79,9.77,6.09,0.03,-0.1,-0.15,0.0,e
3170.0,3723.0,3185.0,3199.0,2559.0,2294.0,2528.0,2336.0,-0.79,9.77,6.09,0.03,-0.1,-0.15,0.0,e
3170.0,3723.0,3185.0,3199.0,2559.0,2294.0,2528.0,2336.0,-0.79,9.77,6.09,0.03,-0.1,-0.15,0.0,e
3184.0,3696.0,3183.0,3211.0,2589.0,2295.0,2541.0,2342.0,-0.84,9.62,6.13,0.0,-0.02,-0.15,0.0,e
3184.0,3696.0,3183.0,3211.0,2589.0,2295.0,2541.0,2342.0,-0.84,9.62,6.13,0.0,-0.02,-0.15,0.0,e
3184.0,3696.0,3183.0,3211.0,2589.0,2295.0,2541.0,2342.0,-0.84,9.62,6.13,0.0,-0.02,-0.15,0.0,e
3184.0,3696.0,3183.0,3211.0,2589.0,2295.0,2541.0,2342.0,-0.84,9.62,6.13,0.0,-0.02,-0.15,0.0,e
3184.0,3696.0,3183.0,3211.0,2589.0,2295.0,2541.0,2342.0,-0.84,9.62,6.13,0.0,-0.02,-0.15,0.0,e
3184.0,3696.0,3183.0,3211.0,2589.0,2295.0,2541.0,2342.0,-0.84,9.62,6.13,0.0,-0.02,-0.15,0.0,e
3181.0,3714.0,3184.0,3214.0,2585.0,2299.0,2539.0,2346.0,-0.81,9.65,6.2,0.05,-0.0,-0.15,0.0,e
3181.0,3714.0,3184.0,3214.0,2585.0,2299.0,2539.0,2346.0,-0.81,9.65,6.2,0.05,-0.0,-0.15,0.0,e
3181.0,3714.0,3184.0,3214.0,2585.0,2299.0,2539.0,2346.0,-0.81,9.65,6.2,0.05,-0.0,-0.15,0.0,e
3213.0,3583.0,3120.0,3124.0,2559.0,2224.0,2463.0,2304.0,-0.89,9.57,6.34,-0.01,-0.0,-0.15,0.0,e
3213.0,3583.0,3120.0,3124.0,2559.0,2224.0,2463.0,2304.0,-0.89,9.57,6.34,-0.01,-0.0,-0.15,0.0,e
3213.0,3583.0,3120.0,3124.0,2559.0,2224.0,2463.0,2304.0,-0.89,9.57,6.34,-0.01,-0.0,-0.15,0.0,e
3213.0,3583.0,3120.0,3124.0,2559.0,2224.0,2463.0,2304.0,-0.89,9.57,6.34,-0.01,-0.0,-0.15,0.0,e
3213.0,3583.0,3120.0,3124.0,2559.0,2224.0,2463.0,2304.0,-0.89,9.57,6.34,-0.01,-0.0,-0.15,0.0,e
3207.0,3570.0,3107.0,3141.0,2587.0,2248.0,2465.0,2312.0,-1.08,9.55,5.93,-0.01,-0.01,-0.15,0.0,e
3207.0,3570.0,3107.0,3141.0,2587.0,2248.0,2465.0,2312.0,-1.08,9.55,5.93,-0.01,-0.01,-0.15,0.0,e
3207.0,3570.0,3107.0,3141.0,2587.0,2248.0,2465.0,2312.0,-1.08,9.55,5.93,-0.01,-0.01,-0.15,0.0,e
3207.0,3570.0,3107.0,3141.0,2587.0,2248.0,2465.0,2312.0,-1.08,9.55,5.93,-0.01,-0.01,-0.15,0.0,e
3207.0,3570.0,3107.0,3141.0,2587.0,2248.0,2465.0,2312.0,-1.08,9.55,5.93,-0.01,-0.01,-0.15,0.0,e
3207.0,3570.0,3107.0,3141.0,2587.0,2248.0,2465.0,2312.0,-1.08,9.55,5.93,-0.01,-0.01,-0.15,0.0,e
3207.0,3570.0,3107.0,3141.0,2587.0,2248.0,2465.0,2312.0,-1.08,9.55,5.93,-0.01,-0.01,-0.15,0.0,e
3207.0,3570.0,3107.0,3141.0,2587.0,2248.0,2465.0,2312.0,-1.08,9.55,5.93,-0.01,-0.01,-0.15,0.0,e
3207.0,3570.0,3107.0,3141.0,2587.0,2248.0,2465.0,2312.0,-1.08,9.55,5.93,-0.01,-0.01,-0.15,0.0,e
3213.0,3575.0,3088.0,3165.0,2596.0,2251.0,2471.0,2311.0,-1.19,9.54,6.11,0.01,-0.02,-0.15,0.0,e
3213.0,3575.0,3088.0,3165.0,2596.0,2251.0,2471.0,2311.0,-1.19,9.54,6.11,0.01,-0.02,-0.15,0.0,e
3213.0,3575.0,3088.0,3165.0,2596.0,2251.0,2471.0,2311.0,-1.19,9.54,6.11,0.01,-0.02,-0.15,0.0,e
3213.0,3575.0,3088.0,3165.0,2596.0,2251.0,2471.0,2311.0,-1.19,9.54,6.11,0.01,-0.02,-0.15,0.0,e
3213.0,3575.0,3088.0,3165.0,2596.0,2251.0,2471.0,2311.0,-1.19,9.54,6.11,0.01,-0.02,-0.15,0.0,e
3213.0,3575.0,3088.0,3165.0,2596.0,2251.0,2471.0,2311.0,-1.19,9.54,6.11,0.01,-0.02,-0.15,0.0,e
3210.0,3566.0,3090.0,3167.0,2597.0,2253.0,2478.0,2311.0,-1.24,9.6,6.03,-0.03,0.04,-0.15,0.0,e
3216.0,3490.0,3122.0,3129.0,2546.0,2261.0,2450.0,2258.0,-0.7,9.68,5.93,-0.01,-0.0,-0.15,0.0,e
3216.0,3490.0,3122.0,3129.0,2546.0,2261.0,2450.0,2258.0,-0.7,9.68,5.93,-0.01,-0.0,-0.15,0.0,e
3216.0,3490.0,3122.0,3129.0,2546.0,2261.0,2450.0,2258.0,-0.7,9.68,5.93,-0.01,-0.0,-0.15,0.0,e
3216.0,3490.0,3122.0,3129.0,2546.0,2261.0,2450.0,2258.0,-0.7,9.68,5.93,-0.01,-0.0,-0.15,0.0,e
3216.0,3490.0,3122.0,3129.0,2546.0,2261.0,2450.0,2258.0,-0.7,9.68,5.93,-0.01,-0.0,-0.15,0.0,e
3216.0,3490.0,3122.0,3129.0,2546.0,2261.0,2450.0,2258.0,-0.7,9.68,5.93,-0.01,-0.0,-0.15,0.0,e
3216.0,3490.0,3122.0,3129.0,2546.0,2261.0,2450.0,2258.0,-0.7,9.68,5.93,-0.01,-0.0,-0.15,0.0,e
3216.0,3490.0,3122.0,3129.0,2546.0,2261.0,2450.0,2258.0,-0.7,9.68,5.93,-0.01,-0.0,-0.15,0.0,e
3216.0,3498.0,3120.0,3135.0,2554.0,2261.0,2455.0,2257.0,-0.61,9.75,6.0,0.04,-0.0,-0.15,0.0,e
3187.0,3529.0,2991.0,3118.0,2559.0,2288.0,2449.0,2237.0,-0.41,9.65,5.9,-0.02,-0.01,-0.15,0.0,e
3187.0,3529.0,2991.0,3118.0,2559.0,2288.0,2449.0,2237.0,-0.41,9.65,5.9,-0.02,-0.01,-0.15,0.0,e
3187.0,3529.0,2991.0,3118.0,2559.0,2288.0,2449.0,2237.0,-0.41,9.65,5.9,-0.02,-0.01,-0.15,0.0,e
3187.0,3529.0,2991.0,3118.0,2559.0,2288.0,2449.0,2237.0,-0.41,9.65,5.9,-0.02,-0.01,-0.15,0.0,e
3187.0,3529.0,2991.0,3118.0,2559.0,2288.0,2449.0,2237.0,-0.41,9.65,5.9,-0.02,-0.01,-0.15,0.0,e
3187.0,3529.0,2991.0,3118.0,2559.0,2288.0,2449.0,2237.0,-0.41,9.65,5.9,-0.02,-0.01,-0.15,0.0,e
3187.0,3529.0,2991.0,3118.0,2559.0,2288.0,2449.0,2237.0,-0.41,9.65,5.9,-0.02,-0.01,-0.15,0.0,e
3187.0,3529.0,2991.0,3118.0,2559.0,2288.0,2449.0,2237.0,-0.41,9.65,5.9,-0.02,-0.01,-0.15,0.0,e
3187.0,3529.0,2991.0,3118.0,2559.0,2288.0,2449.0,2237.0,-0.41,9.65,5.9,-0.02,-0.01,-0.15,0.0,e
3187.0,3529.0,2991.0,3118.0,2559.0,2288.0,2449.0,2237.0,-0.41,9.65,5.9,-0.02,-0.01,-0.15,0.0,e
3187.0,3529.0,2991.0,3118.0,2559.0,2288.0,2449.0,2237.0,-0.41,9.65,5.9,-0.02,-0.01,-0.15,0.0,e
3187.0,3529.0,2991.0,3118.0,2559.0,2288.0,2449.0,2237.0,-0.41,9.65,5.9,-0.02,-0.01,-0.15,0.0,e
3187.0,3529.0,2991.0,3118.0,2559.0,2288.0,2449.0,2237.0,-0.41,9.65,5.9,-0.02,-0.01,-0.15,0.0,e
3187.0,3529.0,2991.0,3118.0,2559.0,2288.0,2449.0,2237.0,-0.41,9.65,5.9,-0.02,-0.01,-0.15,0.0,e
3187.0,3529.0,2991.0,3118.0,2559.0,2288.0,2449.0,2237.0,-0.41,9.65,5.9,-0.02,-0.01,-0.15,0.0,e
3187.0,3529.0,2991.0,3118.0,2559.0,2288.0,2449.0,2237.0,-0.41,9.65,5.9,-0.02,-0.01,-0.15,0.0,e
3187.0,3529.0,2991.0,3118.0,2559.0,2288.0,2449.0,2237.0,-0.41,9.65,5.9,-0.02,-0.01,-0.15,0.0,e
3187.0,3529.0,2991.0,3118.0,2559.0,2288.0,2449.0,2237.0,-0.41,9.65,5.9,-0.02,-0.01,-0.15,0.0,e
3187.0,3529.0,2991.0,3118.0,2559.0,2288.0,2449.0,2237.0,-0.41,9.65,5.9,-0.02,-0.01,-0.15,0.0,e
3187.0,3529.0,2991.0,3118.0,2559.0,2288.0,2449.0,2237.0,-0.41,9.65,5.9,-0.02,-0.01,-0.15,0.0,e
3187.0,3529.0,2991.0,3118.0,2559.0,2288.0,2449.0,2237.0,-0.41,9.65,5.9,-0.02,-0.01,-0.15,0.0,e
3184.0,3525.0,2997.0,3115.0,2581.0,2287.0,2461.0,2237.0,-0.44,9.8,5.98,0.04,0.0,-0.15,0.0,e
3199.0,3536.0,2992.0,3129.0,2580.0,2283.0,2462.0,2237.0,-0.4,9.65,6.03,-0.0,-0.04,-0.15,0.0,e
3183.0,3520.0,2997.0,3154.0,2591.0,2289.0,2461.0,2238.0,-0.44,9.74,5.85,-0.04,-0.0,-0.15,0.0,e
3183.0,3520.0,2997.0,3154.0,2591.0,2289.0,2461.0,2238.0,-0.44,9.74,5.85,-0.04,-0.0,-0.15,0.0,e
3183.0,3520.0,2997.0,3154.0,2591.0,2289.0,2461.0,2238.0,-0.44,9.74,5.85,-0.04,-0.0,-0.15,0.0,e
3223.0,3410.0,3026.0,3165.0,2608.0,2289.0,2475.0,2288.0,-0.65,9.7,5.89,0.03,-0.05,-0.15,0.0,e
3223.0,3410.0,3026.0,3165.0,2608.0,2289.0,2475.0,2288.0,-0.65,9.7,5.89,0.03,-0.05,-0.15,0.0,e
3223.0,3410.0,3026.0,3165.0,2608.0,2289.0,2475.0,2288.0,-0.65,9.7,5.89,0.03,-0.05,-0.15,0.0,e
3223.0,3410.0,3026.0,3165.0,2608.0,2289.0,2475.0,2288.0,-0.65,9.7,5.89,0.03,-0.05,-0.15,0.0,e
3223.0,3410.0,3026.0,3165.0,2608.0,2289.0,2475.0,2288.0,-0.65,9.7,5.89,0.03,-0.05,-0.15,0.0,e
3223.0,3410.0,3026.0,3165.0,2608.0,2289.0,2475.0,2288.0,-0.65,9.7,5.89,0.03,-0.05,-0.15,0.0,e
3223.0,3410.0,3026.0,3165.0,2608.0,2289.0,2475.0,2288.0,-0.65,9.7,5.89,0.03,-0.05,-0.15,0.0,e
3223.0,3410.0,3026.0,3165.0,2608.0,2289.0,2475.0,2288.0,-0.65,9.7,5.89,0.03,-0.05,-0.15,0.0,e
3223.0,3410.0,3026.0,3165.0,2608.0,2289.0,2475.0,2288.0,-0.65,9.7,5.89,0.03,-0.05,-0.15,0.0,e
3223.0,3410.0,3026.0,3165.0,2608.0,2289.0,2475.0,2288.0,-0.65,9.7,5.89,0.03,-0.05,-0.15,0.0,e
3223.0,3410.0,3026.0,3165.0,2608.0,2289.0,2475.0,2288.0,-0.65,9.7,5.89,0.03,-0.05,-0.15,0.0,e
3223.0,3410.0,3026.0,3165.0,2608.0,2289.0,2475.0,2288.0,-0.65,9.7,5.89,0.03,-0.05,-0.15,0.0,e
3223.0,3410.0,3026.0,3165.0,2608.0,2289.0,2475.0,2288.0,-0.65,9.7,5.89,0.03,-0.05,-0.15,0.0,e
3223.0,3410.0,3026.0,3165.0,2608.0,2289.0,2475.0,2288.0,-0.65,9.7,5.89,0.03,-0.05,-0.15,0.0,e
3223.0,3410.0,3026.0,3165.0,2608.0,2289.0,2475.0,2288.0,-0.65,9.7,5.89,0.03,-0.05,-0.15,0.0,e
3223.0,3410.0,3026.0,3165.0,2608.0,2289.0,2475.0,2288.0,-0.65,9.7,5.89,0.03,-0.05,-0.15,0.0,e
3223.0,3410.0,3026.0,3165.0,2608.0,2289.0,2475.0,2288.0,-0.65,9.7,5.89,0.03,-0.05,-0.15,0.0,e
3223.0,3410.0,3026.0,3165.0,2608.0,2289.0,2475.0,2288.0,-0.65,9.7,5.89,0.03,-0.05,-0.15,0.0,e
3223.0,3410.0,3026.0,3165.0,2608.0,2289.0,2475.0,2288.0,-0.65,9.7,5.89,0.03,-0.05,-0.15,0.0,e
3223.0,3410.0,3026.0,3165.0,2608.0,2289.0,2475.0,2288.0,-0.65,9.7,5.89,0.03,-0.05,-0.15,0.0,e
3223.0,3410.0,3026.0,3165.0,2608.0,2289.0,2475.0,2288.0,-0.65,9.7,5.89,0.03,-0.05,-0.15,0.0,e
3232.0,3406.0,3023.0,3172.0,2628.0,2303.0,2481.0,2292.0,-0.43,9.58,6.15,0.0,0.0,0.06,-0.12,e
3232.0,3406.0,3023.0,3172.0,2628.0,2303.0,2481.0,2292.0,-0.43,9.58,6.15,0.0,0.0,0.06,-0.12,e
3232.0,3406.0,3023.0,3172.0,2628.0,2303.0,2481.0,2292.0,-0.43,9.58,6.15,0.0,0.0,0.06,-0.12,e
3232.0,3406.0,3023.0,3172.0,2628.0,2303.0,2481.0,2292.0,-0.43,9.58,6.15,0.0,0.0,0.06,-0.12,e
3270.0,3516.0,3060.0,3184.0,2559.0,2279.0,2490.0,2301.0,-0.88,9.74,6.16,-0.0,0.06,-0.15,0.0,e
3270.0,3516.0,3060.0,3184.0,2559.0,2279.0,2490.0,2301.0,-0.88,9.74,6.16,-0.0,0.06,-0.15,0.0,e
3270.0,3516.0,3060.0,3184.0,2559.0,2279.0,2490.0,2301.0,-0.88,9.74,6.16,-0.0,0.06,-0.15,0.0,e
3270.0,3516.0,3060.0,3184.0,2559.0,2279.0,2490.0,2301.0,-0.88,9.74,6.16,-0.0,0.06,-0.15,0.0,e
3270.0,3516.0,3060.0,3184.0,2559.0,2279.0,2490.0,2301.0,-0.88,9.74,6.16,-0.0,0.06,-0.15,0.0,e
3270.0,3516.0,3060.0,3184.0,2559.0,2279.0,2490.0,2301.0,-0.88,9.74,6.16,-0.0,0.06,-0.15,0.0,e
3270.0,3516.0,3060.0,3184.0,2559.0,2279.0,2490.0,2301.0,-0.88,9.74,6.16,-0.0,0.06,-0.15,0.0,e
3270.0,3516.0,3060.0,3184.0,2559.0,2279.0,2490.0,2301.0,-0.88,9.74,6.16,-0.0,0.06,-0.15,0.0,e
3263.0,3515.0,3044.0,3181.0,2559.0,2288.0,2495.0,2298.0,-0.53,9.62,5.94,0.03,-0.06,-0.15,0.0,e
3263.0,3515.0,3044.0,3181.0,2559.0,2288.0,2495.0,2298.0,-0.53,9.62,5.94,0.03,-0.06,-0.15,0.0,e
3263.0,3515.0,3044.0,3181.0,2559.0,2288.0,2495.0,2298.0,-0.53,9.62,5.94,0.03,-0.06,-0.15,0.0,e
3264.0,3546.0,3038.0,3187.0,2559.0,2285.0,2501.0,2302.0,-0.77,9.81,5.99,0.04,0.04,-0.15,0.0,e
3261.0,3513.0,3042.0,3199.0,2559.0,2294.0,2506.0,2314.0,-0.65,9.75,5.94,0.02,0.02,-0.15,0.0,e
3261.0,3513.0,3042.0,3199.0,2559.0,2294.0,2506.0,2314.0,-0.65,9.75,5.94,0.02,0.02,-0.15,0.0,e
3261.0,3513.0,3042.0,3199.0,2559.0,2294.0,2506.0,2314.0,-0.65,9.75,5.94,0.02,0.02,-0.15,0.0,e
3261.0,3513.0,3042.0,3199.0,2559.0,2294.0,2506.0,2314.0,-0.65,9.75,5.94,0.02,0.02,-0.15,0.0,e
3266.0,3526.0,3058.0,3201.0,2579.0,2300.0,2496.0,2309.0,-0.65,9.68,5.92,0.02,-0.01,-0.15,0.0,e
3271.0,3521.0,3055.0,3211.0,2559.0,2296.0,2502.0,2319.0,-0.53,9.74,5.92,-0.09,-0.08,-0.15,0.0,e
3271.0,3521.0,3055.0,3211.0,2559.0,2296.0,2502.0,2319.0,-0.53,9.74,5.92,-0.09,-0.08,-0.15,0.0,e
3271.0,3521.0,3055.0,3211.0,2559.0,2296.0,2502.0,2319.0,-0.53,9.74,5.92,-0.09,-0.08,-0.15,0.0,e
3280.0,3395.0,3134.0,3086.0,2460.0,2218.0,2441.0,2224.0,-0.94,9.64,6.02,0.07,-0.02,-0.15,0.0,e
3280.0,3395.0,3134.0,3086.0,2460.0,2218.0,2441.0,2224.0,-0.94,9.64,6.02,0.07,-0.02,-0.15,0.0,e
3280.0,3395.0,3134.0,3086.0,2460.0,2218.0,2441.0,2224.0,-0.94,9.64,6.02,0.07,-0.02,-0.15,0.0,e
3280.0,3402.0,3129.0,3091.0,2463.0,2215.0,2451.0,2227.0,-0.83,9.72,6.04,-0.02,0.0,-0.15,0.0,e
3290.0,3389.0,3124.0,3089.0,2474.0,2231.0,2455.0,2238.0,-1.06,9.66,5.99,0.02,0.02,-0.15,0.0,e
3290.0,3389.0,3124.0,3089.0,2474.0,2231.0,2455.0,2238.0,-1.06,9.66,5.99,0.02,0.02,-0.15,0.0,e
3290.0,3389.0,3124.0,3089.0,2474.0,2231.0,2455.0,2238.0,-1.06,9.66,5.99,0.02,0.02,-0.15,0.0,e
3277.0,3403.0,3127.0,3100.0,2481.0,2233.0,2453.0,2241.0,-0.92,9.61,6.11,0.01,-0.01,-0.15,0.0,e
3277.0,3403.0,3127.0,3100.0,2481.0,2233.0,2453.0,2241.0,-0.92,9.61,6.11,0.01,-0.01,-0.15,0.0,e
3277.0,3403.0,3127.0,3100.0,2481.0,2233.0,2453.0,2241.0,-0.92,9.61,6.11,0.01,-0.01,-0.15,0.0,e
3280.0,3399.0,3131.0,3102.0,2501.0,2230.0,2460.0,2243.0,-1.03,9.6,6.03,0.03,0.03,-0.15,0.0,e
3280.0,3399.0,3131.0,3102.0,2501.0,2230.0,2460.0,2243.0,-1.03,9.6,6.03,0.03,0.03,-0.15,0.0,e
3280.0,3396.0,3141.0,3120.0,2495.0,2238.0,2465.0,2253.0,-0.99,9.78,5.94,0.01,0.0,-0.15,0.0,e
3280.0,3396.0,3141.0,3120.0,2495.0,2238.0,2465.0,2253.0,-0.99,9.78,5.94,0.01,0.0,-0.15,0.0,e
3280.0,3396.0,3141.0,3120.0,2495.0,2238.0,2465.0,2253.0,-0.99,9.78,5.94,0.01,0.0,-0.15,0.0,e
3280.0,3408.0,3138.0,3136.0,2498.0,2251.0,2469.0,2250.0,-0.82,9.95,6.14,0.04,0.01,-0.15,0.0,e
3280.0,3408.0,3138.0,3136.0,2498.0,2251.0,2469.0,2250.0,-0.82,9.95,6.14,0.04,0.01,-0.15,0.0,e
3293.0,3406.0,3126.0,3136.0,2498.0,2247.0,2471.0,2256.0,-1.02,9.63,6.2,0.0,0.03,-0.15,0.0,e
3293.0,3406.0,3126.0,3136.0,2498.0,2247.0,2471.0,2256.0,-1.02,9.63,6.2,0.0,0.03,-0.15,0.0,e
3293.0,3406.0,3126.0,3136.0,2498.0,2247.0,2471.0,2256.0,-1.02,9.63,6.2,0.0,0.03,-0.15,0.0,e
3329.0,3616.0,3027.0,3131.0,2626.0,2262.0,2489.0,2298.0,-0.77,9.65,5.83,0.01,0.02,-0.15,0.0,e
3329.0,3616.0,3027.0,3131.0,2626.0,2262.0,2489.0,2298.0,-0.77,9.65,5.83,0.01,0.02,-0.15,0.0,e
3329.0,3616.0,3027.0,3131.0,2626.0,2262.0,2489.0,2298.0,-0.77,9.65,5.83,0.01,0.02,-0.15,0.0,e
3329.0,3616.0,3027.0,3131.0,2626.0,2262.0,2489.0,2298.0,-0.77,9.65,5.83,0.01,0.02,-0.15,0.0,e
3329.0,3616.0,3027.0,3131.0,2626.0,2262.0,2489.0,2298.0,-0.77,9.65,5.83,0.01,0.02,-0.15,0.0,e
3329.0,3616.0,3027.0,3131.0,2626.0,2262.0,2489.0,2298.0,-0.77,9.65,5.83,0.01,0.02,-0.15,0.0,e
3329.0,3616.0,3027.0,3131.0,2626.0,2262.0,2489.0,2298.0,-0.77,9.65,5.83,0.01,0.02,-0.15,0.0,e
3329.0,3616.0,3027.0,3131.0,2626.0,2262.0,2489.0,2298.0,-0.77,9.65,5.83,0.01,0.02,-0.15,0.0,e
3329.0,3616.0,3027.0,3131.0,2626.0,2262.0,2489.0,2298.0,-0.77,9.65,5.83,0.01,0.02,-0.15,0.0,e
3329.0,3616.0,3027.0,3131.0,2626.0,2262.0,2489.0,2298.0,-0.77,9.65,5.83,0.01,0.02,-0.15,0.0,e
3329.0,3616.0,3027.0,3131.0,2626.0,2262.0,2489.0,2298.0,-0.77,9.65,5.83,0.01,0.02,-0.15,0.0,e
3302.0,3614.0,3036.0,3147.0,2637.0,2267.0,2481.0,2300.0,-0.79,9.62,5.79,0.0,0.04,-0.15,0.0,e
3302.0,3614.0,3036.0,3147.0,2637.0,2267.0,2481.0,2300.0,-0.79,9.62,5.79,0.0,0.04,-0.15,0.0,e
3314.0,3606.0,3036.0,3126.0,2646.0,2262.0,2484.0,2305.0,-0.76,9.72,5.81,-0.0,-0.07,-0.15,0.0,e
3314.0,3606.0,3036.0,3126.0,2646.0,2262.0,2484.0,2305.0,-0.76,9.72,5.81,-0.0,-0.07,-0.15,0.0,e
3314.0,3606.0,3036.0,3126.0,2646.0,2262.0,2484.0,2305.0,-0.76,9.72,5.81,-0.0,-0.07,-0.15,0.0,e
3314.0,3606.0,3036.0,3126.0,2646.0,2262.0,2484.0,2305.0,-0.76,9.72,5.81,-0.0,-0.07,-0.15,0.0,e
3321.0,3614.0,3027.0,3139.0,2640.0,2273.0,2485.0,2305.0,-0.91,9.75,5.72,0.02,-0.04,-0.15,0.0,e
3321.0,3614.0,3027.0,3139.0,2640.0,2273.0,2485.0,2305.0,-0.91,9.75,5.72,0.02,-0.04,-0.15,0.0,e
3235.0,3307.0,2991.0,3281.0,2606.0,2289.0,2473.0,2246.0,-0.66,9.83,5.83,0.02,-0.02,-0.15,0.0,e
3235.0,3307.0,2991.0,3281.0,2606.0,2289.0,2473.0,2246.0,-0.66,9.83,5.83,0.02,-0.02,-0.15,0.0,e
3235.0,3307.0,2991.0,3281.0,2606.0,2289.0,2473.0,2246.0,-0.66,9.83,5.83,0.02,-0.02,-0.15,0.0,e
3235.0,3307.0,2991.0,3281.0,2606.0,2289.0,2473.0,2246.0,-0.66,9.83,5.83,0.02,-0.02,-0.15,0.0,e
3235.0,3307.0,2991.0,3281.0,2606.0,2289.0,2473.0,2246.0,-0.66,9.83,5.83,0.02,-0.02,-0.15,0.0,e
3235.0,3307.0,2991.0,3281.0,2606.0,2289.0,2473.0,2246.0,-0.66,9.83,5.83,0.02,-0.02,-0.15,0.0,e
3235.0,3307.0,2991.0,3281.0,2606.0,2289.0,2473.0,2246.0,-0.66,9.83,5.83,0.02,-0.02,-0.15,0.0,e
3235.0,3307.0,2991.0,3281.0,2606.0,2289.0,2473.0,2246.0,-0.66,9.83,5.83,0.02,-0.02,-0.15,0.0,e
3235.0,3307.0,2991.0,3281.0,2606.0,2289.0,2473.0,2246.0,-0.66,9.83,5.83,0.02,-0.02,-0.15,0.0,e
3235.0,3307.0,2991.0,3281.0,2606.0,2289.0,2473.0,2246.0,-0.66,9.83,5.83,0.02,-0.02,-0.15,0.0,e
3231.0,3303.0,2997.0,3273.0,2606.0,2301.0,2466.0,2269.0,-0.73,9.64,5.98,0.03,0.02,-0.15,0.0,e
3231.0,3303.0,2997.0,3273.0,2606.0,2301.0,2466.0,2269.0,-0.73,9.64,5.98,0.03,0.02,-0.15,0.0,e
3231.0,3303.0,2997.0,3273.0,2606.0,2301.0,2466.0,2269.0,-0.73,9.64,5.98,0.03,0.02,-0.15,0.0,e
3231.0,3303.0,2997.0,3273.0,2606.0,2301.0,2466.0,2269.0,-0.73,9.64,5.98,0.03,0.02,-0.15,0.0,e
3231.0,3303.0,2997.0,3273.0,2606.0,2301.0,2466.0,2269.0,-0.73,9.64,5.98,0.03,0.02,-0.15,0.0,e
3230.0,3297.0,2990.0,3287.0,2617.0,2302.0,2485.0,2278.0,-0.53,9.81,6.07,0.02,0.01,-0.15,0.0,e
3230.0,3297.0,2990.0,3287.0,2617.0,2302.0,2485.0,2278.0,-0.53,9.81,6.07,0.02,0.01,-0.15,0.0,e
3230.0,3297.0,2990.0,3287.0,2617.0,2302.0,2485.0,2278.0,-0.53,9.81,6.07,0.02,0.01,-0.15,0.0,e
3230.0,3297.0,2990.0,3287.0,2617.0,2302.0,2485.0,2278.0,-0.53,9.81,6.07,0.02,0.01,-0.15,0.0,e
3230.0,3293.0,2991.0,3290.0,2625.0,2299.0,2481.0,2273.0,-0.69,9.79,5.81,-0.01,-0.01,-0.15,0.0,e
3230.0,3293.0,2991.0,3290.0,2625.0,2299.0,2481.0,2273.0,-0.69,9.79,5.81,-0.01,-0.01,-0.15,0.0,e
3230.0,3293.0,2991.0,3290.0,2625.0,2299.0,2481.0,2273.0,-0.69,9.79,5.81,-0.01,-0.01,-0.15,0.0,e
3230.0,3293.0,2991.0,3290.0,2625.0,2299.0,2481.0,2273.0,-0.69,9.79,5.81,-0.01,-0.01,-0.15,0.0,e
3184.0,3298.0,2990.0,3151.0,2607.0,2303.0,2460.0,2243.0,-0.7,9.79,6.15,0.0,0.03,-0.03,-0.16,e
3205.0,3297.0,2998.0,3175.0,2608.0,2304.0,2464.0,2252.0,-0.38,9.62,6.39,0.02,0.03,-0.15,0.0,e
3205.0,3297.0,2998.0,3175.0,2608.0,2304.0,2464.0,2252.0,-0.38,9.62,6.39,0.02,0.03,-0.15,0.0,e
3205.0,3297.0,2998.0,3175.0,2608.0,2304.0,2464.0,2252.0,-0.38,9.62,6.39,0.02,0.03,-0.15,0.0,e
3205.0,3297.0,2998.0,3175.0,2608.0,2304.0,2464.0,2252.0,-0.38,9.62,6.39,0.02,0.03,-0.15,0.0,e
3205.0,3297.0,2998.0,3175.0,2608.0,2304.0,2464.0,2252.0,-0.38,9.62,6.39,0.02,0.03,-0.15,0.0,e
3194.0,3307.0,2977.0,3187.0,2623.0,2320.0,2478.0,2256.0,-0.5,9.57,6.42,0.02,-0.02,-0.15,0.0,e
3194.0,3307.0,2977.0,3187.0,2623.0,2320.0,2478.0,2256.0,-0.5,9.57,6.42,0.02,-0.02,-0.15,0.0,e
3194.0,3307.0,2977.0,3187.0,2623.0,2320.0,2478.0,2256.0,-0.5,9.57,6.42,0.02,-0.02,-0.15,0.0,e
3194.0,3307.0,2977.0,3187.0,2623.0,2320.0,2478.0,2256.0,-0.5,9.57,6.42,0.02,-0.02,-0.15,0.0,e
3194.0,3307.0,2977.0,3187.0,2623.0,2320.0,2478.0,2256.0,-0.5,9.57,6.42,0.02,-0.02,-0.15,0.0,e
3194.0,3307.0,2977.0,3187.0,2623.0,2320.0,2478.0,2256.0,-0.5,9.57,6.42,0.02,-0.02,-0.15,0.0,e
3194.0,3307.0,2977.0,3187.0,2623.0,2320.0,2478.0,2256.0,-0.5,9.57,6.42,0.02,-0.02,-0.15,0.0,e
3199.0,3309.0,2975.0,3180.0,2627.0,2309.0,2479.0,2256.0,-0.51,9.65,6.26,-0.02,-0.01,-0.15,0.0,e
3239.0,3607.0,2998.0,3191.0,2522.0,2255.0,2474.0,2298.0,-0.7,9.58,6.13,-0.04,-0.04,-0.15,0.0,e
3239.0,3607.0,2998.0,3191.0,2522.0,2255.0,2474.0,2298.0,-0.7,9.58,6.13,-0.04,-0.04,-0.15,0.0,e
3239.0,3607.0,2998.0,3191.0,2522.0,2255.0,2474.0,2298.0,-0.7,9.58,6.13,-0.04,-0.04,-0.15,0.0,e
3239.0,3607.0,2998.0,3191.0,2522.0,2255.0,2474.0,2298.0,-0.7,9.58,6.13,-0.04,-0.04,-0.15,0.0,e
3239.0,3607.0,2998.0,3191.0,2522.0,2255.0,2474.0,2298.0,-0.7,9.58,6.13,-0.04,-0.04,-0.15,0.0,e
3239.0,3607.0,2998.0,3191.0,2522.0,2255.0,2474.0,2298.0,-0.7,9.58,6.13,-0.04,-0.04,-0.15,0.0,e
3239.0,3607.0,2998.0,3191.0,2522.0,2255.0,2474.0,2298.0,-0.7,9.58,6.13,-0.04,-0.04,-0.15,0.0,e
3239.0,3607.0,2998.0,3191.0,2522.0,2255.0,2474.0,2298.0,-0.7,9.58,6.13,-0.04,-0.04,-0.15,0.0,e
3239.0,3607.0,2998.0,3191.0,2522.0,2255.0,2474.0,2298.0,-0.7,9.58,6.13,-0.04,-0.04,-0.15,0.0,e
3223.0,3602.0,3013.0,3190.0,2543.0,2249.0,2471.0,2288.0,-0.85,9.77,6.11,0.11,0.02,-0.15,0.0,e
3232.0,3615.0,3008.0,3187.0,2543.0,2254.0,2480.0,2298.0,-0.55,9.61,6.08,0.03,-0.04,-0.15,0.0,e
3232.0,3615.0,3008.0,3187.0,2543.0,2254.0,2480.0,2298.0,-0.55,9.61,6.08,0.03,-0.04,-0.15,0.0,e
3232.0,3615.0,3008.0,3187.0,2543.0,2254.0,2480.0,2298.0,-0.55,9.61,6.08,0.03,-0.04,-0.15,0.0,e
3226.0,3600.0,3001.0,3192.0,2547.0,2257.0,2480.0,2295.0,-0.72,9.82,6.0,-0.01,-0.02,-0.15,0.0,e
3229.0,3632.0,3010.0,3217.0,2558.0,2277.0,2487.0,2315.0,-0.7,9.59,5.99,-0.05,0.01,-0.15,0.0,e
3229.0,3632.0,3010.0,3217.0,2558.0,2277.0,2487.0,2315.0,-0.7,9.59,5.99,-0.05,0.01,-0.15,0.0,e
3229.0,3632.0,3010.0,3217.0,2558.0,2277.0,2487.0,2315.0,-0.7,9.59,5.99,-0.05,0.01,-0.15,0.0,e
3229.0,3632.0,3010.0,3217.0,2558.0,2277.0,2487.0,2315.0,-0.7,9.59,5.99,-0.05,0.01,-0.15,0.0,e
3229.0,3632.0,3010.0,3217.0,2558.0,2277.0,2487.0,2315.0,-0.7,9.59,5.99,-0.05,0.01,-0.15,0.0,e
3229.0,3632.0,3010.0,3217.0,2558.0,2277.0,2487.0,2315.0,-0.7,9.59,5.99,-0.05,0.01,-0.15,0.0,e
3229.0,3632.0,3010.0,3217.0,2558.0,2277.0,2487.0,2315.0,-0.7,9.59,5.99,-0.05,0.01,-0.15,0.0,e
3229.0,3632.0,3010.0,3217.0,2558.0,2277.0,2487.0,2315.0,-0.7,9.59,5.99,-0.05,0.01,-0.15,0.0,e
3313.0,3427.0,3056.0,3168.0,2559.0,2269.0,2464.0,2282.0,-0.98,9.68,5.79,-0.01,-0.03,-0.15,0.0,e
3313.0,3427.0,3056.0,3168.0,2559.0,2269.0,2464.0,2282.0,-0.98,9.68,5.79,-0.01,-0.03,-0.15,0.0,e
3313.0,3427.0,3056.0,3168.0,2559.0,2269.0,2464.0,2282.0,-0.98,9.68,5.79,-0.01,-0.03,-0.15,0.0,e
3313.0,3427.0,3056.0,3168.0,2559.0,2269.0,2464.0,2282.0,-0.98,9.68,5.79,-0.01,-0.03,-0.15,0.0,e
3313.0,3427.0,3056.0,3168.0,2559.0,2269.0,2464.0,2282.0,-0.98,9.68,5.79,-0.01,-0.03,-0.15,0.0,e
3313.0,3427.0,3056.0,3168.0,2559.0,2269.0,2464.0,2282.0,-0.98,9.68,5.79,-0.01,-0.03,-0.15,0.0,e
3313.0,3427.0,3056.0,3168.0,2559.0,2269.0,2464.0,2282.0,-0.98,9.68,5.79,-0.01,-0.03,-0.15,0.0,e
3313.0,3427.0,3056.0,3168.0,2559.0,2269.0,2464.0,2282.0,-0.98,9.68,5.79,-0.01,-0.03,-0.15,0.0,e
3313.0,3427.0,3056.0,3168.0,2559.0,2269.0,2464.0,2282.0,-0.98,9.68,5.79,-0.01,-0.03,-0.15,0.0,e
3324.0,3432.0,3056.0,3184.0,2597.0,2286.0,2477.0,2302.0,-0.96,9.64,6.09,0.0,-0.02,-0.15,0.0,e
3324.0,3432.0,3056.0,3184.0,2597.0,2286.0,2477.0,2302.0,-0.96,9.64,6.09,0.0,-0.02,-0.15,0.0,e
3324.0,3432.0,3056.0,3184.0,2597.0,2286.0,2477.0,2302.0,-0.96,9.64,6.09,0.0,-0.02,-0.15,0.0,e
3324.0,3432.0,3056.0,3184.0,2597.0,2286.0,2477.0,2302.0,-0.96,9.64,6.09,0.0,-0.02,-0.15,0.0,e
3324.0,3432.0,3056.0,3184.0,2597.0,2286.0,2477.0,2302.0,-0.96,9.64,6.09,0.0,-0.02,-0.15,0.0,e
3324.0,3432.0,3056.0,3184.0,2597.0,2286.0,2477.0,2302.0,-0.96,9.64,6.09,0.0,-0.02,-0.15,0.0,e
3324.0,3432.0,3056.0,3184.0,2597.0,2286.0,2477.0,2302.0,-0.96,9.64,6.09,0.0,-0.02,-0.15,0.0,e
3324.0,3432.0,3056.0,3184.0,2597.0,2286.0,2477.0,2302.0,-0.96,9.64,6.09,0.0,-0.02,-0.15,0.0,e
3324.0,3432.0,3056.0,3184.0,2597.0,2286.0,2477.0,2302.0,-0.96,9.64,6.09,0.0,-0.02,-0.15,0.0,e
3286.0,3490.0,3118.0,3248.0,2532.0,2239.0,2432.0,2260.0,-0.39,9.7,6.15,0.0,0.07,0.0,-0.19,e
3286.0,3490.0,3118.0,3248.0,2532.0,2239.0,2432.0,2260.0,-0.39,9.7,6.15,0.0,0.07,0.0,-0.19,e
3286.0,3490.0,3118.0,3248.0,2532.0,2239.0,2432.0,2260.0,-0.39,9.7,6.15,0.0,0.07,0.0,-0.19,e
3286.0,3490.0,3118.0,3248.0,2532.0,2239.0,2432.0,2260.0,-0.39,9.7,6.15,0.0,0.07,0.0,-0.19,e
3286.0,3490.0,3118.0,3248.0,2532.0,2239.0,2432.0,2260.0,-0.39,9.7,6.15,0.0,0.07,0.0,-0.19,e
3286.0,3490.0,3118.0,3248.0,2532.0,2239.0,2432.0,2260.0,-0.39,9.7,6.15,0.0,0.07,0.0,-0.19,e
3286.0,3490.0,3118.0,3248.0,2532.0,2239.0,2432.0,2260.0,-0.39,9.7,6.15,0.0,0.07,0.0,-0.19,e
3286.0,3490.0,3118.0,3248.0,2532.0,2239.0,2432.0,2260.0,-0.39,9.7,6.15,0.0,0.07,0.0,-0.19,e
3286.0,3490.0,3118.0,3248.0,2532.0,2239.0,2432.0,2260.0,-0.39,9.7,6.15,0.0,0.07,0.0,-0.19,e
3286.0,3490.0,3118.0,3248.0,2532.0,2239.0,2432.0,2260.0,-0.39,9.7,6.15,0.0,0.07,0.0,-0.19,e
3296.0,3478.0,3122.0,3250.0,2559.0,2244.0,2439.0,2263.0,-0.65,9.66,6.18,0.05,0.04,-0.15,0.0,e
3296.0,3478.0,3122.0,3250.0,2559.0,2244.0,2439.0,2263.0,-0.65,9.66,6.18,0.05,0.04,-0.15,0.0,e
3296.0,3478.0,3122.0,3250.0,2559.0,2244.0,2439.0,2263.0,-0.65,9.66,6.18,0.05,0.04,-0.15,0.0,e
3296.0,3478.0,3122.0,3250.0,2559.0,2244.0,2439.0,2263.0,-0.65,9.66,6.18,0.05,0.04,-0.15,0.0,e
3296.0,3478.0,3122.0,3250.0,2559.0,2244.0,2439.0,2263.0,-0.65,9.66,6.18,0.05,0.04,-0.15,0.0,e
3293.0,3491.0,3111.0,3262.0,2589.0,2263.0,2447.0,2269.0,-0.48,9.68,6.14,-0.07,-0.03,-0.15,0.0,e
3293.0,3491.0,3111.0,3262.0,2589.0,2263.0,2447.0,2269.0,-0.48,9.68,6.14,-0.07,-0.03,-0.15,0.0,e
3293.0,3491.0,3111.0,3262.0,2589.0,2263.0,2447.0,2269.0,-0.48,9.68,6.14,-0.07,-0.03,-0.15,0.0,e
3293.0,3491.0,3111.0,3262.0,2589.0,2263.0,2447.0,2269.0,-0.48,9.68,6.14,-0.07,-0.03,-0.15,0.0,e
3245.0,3403.0,3039.0,3313.0,2523.0,2246.0,2435.0,2224.0,-0.82,9.79,5.87,-0.04,-0.03,-0.15,0.0,e
3245.0,3403.0,3039.0,3313.0,2523.0,2246.0,2435.0,2224.0,-0.82,9.79,5.87,-0.04,-0.03,-0.15,0.0,e
3245.0,3403.0,3039.0,3313.0,2523.0,2246.0,2435.0,2224.0,-0.82,9.79,5.87,-0.04,-0.03,-0.15,0.0,e
3245.0,3403.0,3039.0,3313.0,2523.0,2246.0,2435.0,2224.0,-0.82,9.79,5.87,-0.04,-0.03,-0.15,0.0,e
3245.0,3403.0,3039.0,3313.0,2523.0,2246.0,2435.0,2224.0,-0.82,9.79,5.87,-0.04,-0.03,-0.15,0.0,e
3245.0,3403.0,3039.0,3313.0,2523.0,2246.0,2435.0,2224.0,-0.82,9.79,5.87,-0.04,-0.03,-0.15,0.0,e
3245.0,3403.0,3039.0,3313.0,2523.0,2246.0,2435.0,2224.0,-0.82,9.79,5.87,-0.04,-0.03,-0.15,0.0,e
3245.0,3403.0,3039.0,3313.0,2523.0,2246.0,2435.0,2224.0,-0.82,9.79,5.87,-0.04,-0.03,-0.15,0.0,e
3245.0,3403.0,3039.0,3313.0,2523.0,2246.0,2435.0,2224.0,-0.82,9.79,5.87,-0.04,-0.03,-0.15,0.0,e
3245.0,3403.0,3039.0,3313.0,2523.0,2246.0,2435.0,2224.0,-0.82,9.79,5.87,-0.04,-0.03,-0.15,0.0,e
3245.0,3403.0,3039.0,3313.0,2523.0,2246.0,2435.0,2224.0,-0.82,9.79,5.87,-0.04,-0.03,-0.15,0.0,e
3245.0,3403.0,3039.0,3313.0,2523.0,2246.0,2435.0,2224.0,-0.82,9.79,5.87,-0.04,-0.03,-0.15,0.0,e
3250.0,3420.0,3037.0,3346.0,2557.0,2269.0,2453.0,2235.0,-0.63,9.68,5.98,-0.04,0.01,-0.15,0.0,e
3250.0,3420.0,3037.0,3346.0,2557.0,2269.0,2453.0,2235.0,-0.63,9.68,5.98,-0.04,0.01,-0.15,0.0,e
3250.0,3420.0,3037.0,3346.0,2557.0,2269.0,2453.0,2235.0,-0.63,9.68,5.98,-0.04,0.01,-0.15,0.0,e
3250.0,3420.0,3037.0,3346.0,2557.0,2269.0,2453.0,2235.0,-0.63,9.68,5.98,-0.04,0.01,-0.15,0.0,e
3250.0,3420.0,3037.0,3346.0,2557.0,2269.0,2453.0,2235.0,-0.63,9.68,5.98,-0.04,0.01,-0.15,0.0,e
3250.0,3420.0,3037.0,3346.0,2557.0,2269.0,2453.0,2235.0,-0.63,9.68,5.98,-0.04,0.01,-0.15,0.0,e
3250.0,3420.0,3037.0,3346.0,2557.0,2269.0,2453.0,2235.0,-0.63,9.68,5.98,-0.04,0.01,-0.15,0.0,e
3250.0,3420.0,3037.0,3346.0,2557.0,2269.0,2453.0,2235.0,-0.63,9.68,5.98,-0.04,0.01,-0.15,0.0,e
3250.0,3420.0,3037.0,3346.0,2557.0,2269.0,2453.0,2235.0,-0.63,9.68,5.98,-0.04,0.01,-0.15,0.0,e
3250.0,3420.0,3037.0,3346.0,2557.0,2269.0,2453.0,2235.0,-0.63,9.68,5.98,-0.04,0.01,-0.15,0.0,e
3250.0,3420.0,3037.0,3346.0,2557.0,2269.0,2453.0,2235.0,-0.63,9.68,5.98,-0.04,0.01,-0.15,0.0,e
3250.0,3420.0,3037.0,3346.0,2557.0,2269.0,2453.0,2235.0,-0.63,9.68,5.98,-0.04,0.01,-0.15,0.0,e
3250.0,3420.0,3037.0,3346.0,2557.0,2269.0,2453.0,2235.0,-0.63,9.68,5.98,-0.04,0.01,-0.15,0.0,e
3250.0,3420.0,3037.0,3346.0,2557.0,2269.0,2453.0,2235.0,-0.63,9.68,5.98,-0.04,0.01,-0.15,0.0,e
3280.0,3449.0,3034.0,3200.0,2496.0,2238.0,2435.0,2224.0,-0.42,9.65,6.2,-0.04,-0.04,-0.15,0.0,e
3280.0,3449.0,3034.0,3200.0,2496.0,2238.0,2435.0,2224.0,-0.42,9.65,6.2,-0.04,-0.04,-0.15,0.0,e
3280.0,3449.0,3034.0,3200.0,2496.0,2238.0,2435.0,2224.0,-0.42,9.65,6.2,-0.04,-0.04,-0.15,0.0,e
3273.0,3453.0,3038.0,3218.0,2506.0,2243.0,2462.0,2241.0,-0.46,9.58,6.36,-0.02,0.01,-0.15,0.0,e
3273.0,3453.0,3038.0,3218.0,2506.0,2243.0,2462.0,2241.0,-0.46,9.58,6.36,-0.02,0.01,-0.15,0.0,e
3273.0,3453.0,3038.0,3218.0,2506.0,2243.0,2462.0,2241.0,-0.46,9.58,6.36,-0.02,0.01,-0.15,0.0,e
3273.0,3453.0,3038.0,3218.0,2506.0,2243.0,2462.0,2241.0,-0.46,9.58,6.36,-0.02,0.01,-0.15,0.0,e
3273.0,3453.0,3038.0,3218.0,2506.0,2243.0,2462.0,2241.0,-0.46,9.58,6.36,-0.02,0.01,-0.15,0.0,e
3273.0,3453.0,3038.0,3218.0,2506.0,2243.0,2462.0,2241.0,-0.46,9.58,6.36,-0.02,0.01,-0.15,0.0,e
3277.0,3449.0,3047.0,3226.0,2519.0,2243.0,2459.0,2236.0,-0.63,9.76,6.14,0.01,-0.03,-0.15,0.0,e
3277.0,3449.0,3047.0,3226.0,2519.0,2243.0,2459.0,2236.0,-0.63,9.76,6.14,0.01,-0.03,-0.15,0.0,e
3277.0,3449.0,3047.0,3226.0,2519.0,2243.0,2459.0,2236.0,-0.63,9.76,6.14,0.01,-0.03,-0.15,0.0,e
