hall_1_L,hall_2_L,hall_3_L,flex_t_L,flex_i_L,flex_m_L,flex_r_L,flex_p_L,accel_x_L,accel_y_L,accel_z_L,gyro_x_L,gyro_y_L,gyro_z_L,hand,hall_1_R,hall_2_R,hall_3_R,flex_t_R,flex_i_R,flex_m_R,flex_r_R,flex_p_R,accel_x_R,accel_y_R,accel_z_R,gyro_x_R,gyro_y_R,gyro_z_R,hand,sign
3063.0,1300.0,3153.0,4095.0,3200.0,3390.0,4095.0,4095.0,8.08,2.13,5.53,0.3,-0.44,-1.61,0.0,1403.0,2319.0,964.0,3325.0,4095.0,4035.0,4095.0,3696.0,-6.28,-2.62,6.98,1.26,0.74,0.59,1.0,excuse-me
3275.0,967.0,3130.0,4095.0,3100.0,3687.0,4095.0,4095.0,7.31,1.03,4.24,0.0,-3.15,-0.36,0.0,945.0,2271.0,944.0,3434.0,4095.0,4095.0,4095.0,4095.0,-4.71,0.89,5.09,1.32,0.54,0.62,1.0,excuse-me
3581.0,962.0,3323.0,4048.0,3407.0,3793.0,4095.0,4095.0,8.56,1.69,-0.98,-0.07,-4.95,-0.16,0.0,947.0,2169.0,864.0,3311.0,4095.0,3563.0,4095.0,2880.0,-11.71,0.55,5.43,1.63,0.26,2.55,1.0,excuse-me
3632.0,2342.0,3194.0,4095.0,3609.0,4095.0,4095.0,4095.0,4.32,2.94,-4.36,0.06,-0.77,-0.69,0.0,934.0,2559.0,880.0,2864.0,4095.0,3678.0,4095.0,3824.0,0.4,0.8,-1.98,0.3,-0.32,3.07,1.0,excuse-me
3733.0,2410.0,3181.0,4095.0,3677.0,4095.0,4095.0,4095.0,3.63,3.66,-2.72,-0.8,0.46,-0.36,0.0,945.0,2640.0,871.0,2807.0,4095.0,3780.0,4095.0,3664.0,11.84,14.71,14.21,-1.16,-1.32,-0.88,1.0,excuse-me
3779.0,2413.0,3166.0,4095.0,3665.0,4095.0,4095.0,4095.0,4.59,4.55,-3.16,0.33,0.09,-0.43,0.0,953.0,3298.0,873.0,2876.0,4095.0,3792.0,4095.0,3568.0,-4.95,-2.23,-0.12,1.72,0.6,1.47,1.0,excuse-me
3793.0,2641.0,3152.0,4095.0,3711.0,4095.0,4095.0,4095.0,4.82,3.8,-3.96,-0.03,0.24,-0.36,0.0,944.0,3523.0,877.0,2895.0,4095.0,3750.0,4095.0,3696.0,9.79,14.17,6.94,-1.87,-0.32,-1.42,1.0,excuse-me
3815.0,2631.0,3139.0,4095.0,3696.0,4095.0,4095.0,4095.0,4.93,3.95,-2.82,0.08,0.21,-0.1,0.0,948.0,3487.0,878.0,2958.0,4095.0,3686.0,4095.0,3734.0,-13.21,-1.94,4.2,2.04,0.49,1.57,1.0,excuse-me
3814.0,2647.0,3154.0,4095.0,3696.0,4095.0,4095.0,4095.0,6.0,3.32,-4.57,0.07,-0.02,-0.19,0.0,959.0,3571.0,875.0,2922.0,4095.0,3556.0,4095.0,3709.0,6.46,10.36,4.72,-1.79,0.2,-0.39,1.0,excuse-me
3785.0,2613.0,3145.0,4095.0,3690.0,4095.0,4095.0,4095.0,5.02,4.13,-3.8,-0.07,0.12,-0.14,0.0,951.0,3651.0,879.0,2992.0,4095.0,3558.0,4095.0,3690.0,-19.69,-3.73,10.81,3.34,0.83,0.42,1.0,excuse-me
3795.0,2607.0,3169.0,4095.0,3665.0,4095.0,4095.0,4095.0,5.39,3.85,-3.45,0.05,-0.0,-0.12,0.0,943.0,3745.0,880.0,2983.0,4095.0,3552.0,4095.0,3741.0,-0.76,-1.07,-3.24,0.79,1.12,1.85,1.0,excuse-me
3792.0,2598.0,3172.0,4095.0,3667.0,4095.0,4095.0,4095.0,5.52,3.59,-4.63,-0.16,0.04,-0.06,0.0,939.0,3995.0,879.0,2927.0,4095.0,3433.0,4095.0,3730.0,12.49,16.77,12.85,-1.67,-2.08,-1.78,1.0,excuse-me
3810.0,2559.0,3168.0,4095.0,3661.0,4095.0,4095.0,4095.0,5.23,3.99,-3.05,0.0,-0.0,-0.03,0.0,947.0,3989.0,880.0,2991.0,4095.0,3508.0,4094.0,3777.0,-16.12,-0.58,13.88,0.67,-0.09,-1.71,1.0,excuse-me
3816.0,2559.0,3167.0,4095.0,3633.0,4095.0,4095.0,4095.0,5.26,4.49,-3.19,0.09,-0.06,-0.18,0.0,945.0,3970.0,879.0,2999.0,4095.0,3578.0,4095.0,3830.0,-3.12,7.21,7.27,0.02,0.16,-0.2,1.0,excuse-me
3814.0,2543.0,3170.0,4095.0,3641.0,4095.0,4095.0,4095.0,5.14,4.08,-3.42,-0.01,-0.05,-0.14,0.0,949.0,3968.0,882.0,3018.0,4095.0,3614.0,4095.0,3843.0,-4.29,6.02,6.29,-0.01,0.04,-0.03,1.0,excuse-me
3803.0,2480.0,3174.0,4095.0,3634.0,4095.0,4095.0,4095.0,5.27,3.82,-3.55,0.0,0.02,-0.16,0.0,960.0,3986.0,877.0,3018.0,4095.0,3601.0,4095.0,3827.0,-3.6,6.59,6.84,-0.08,0.08,-0.09,1.0,excuse-me
3814.0,2470.0,3156.0,4095.0,3644.0,4095.0,4095.0,4095.0,5.2,4.0,-3.34,0.01,-0.07,-0.1,0.0,958.0,4003.0,880.0,3024.0,4095.0,3623.0,4095.0,3829.0,-3.73,6.16,6.47,-0.16,-0.02,-0.05,1.0,excuse-me
3806.0,2444.0,3164.0,4095.0,3648.0,4095.0,4095.0,4095.0,5.21,3.91,-3.67,0.04,-0.06,-0.19,0.0,955.0,4030.0,880.0,3024.0,4095.0,3600.0,4095.0,3859.0,-3.78,6.43,6.84,-0.04,-0.02,-0.07,1.0,excuse-me
3811.0,2419.0,3178.0,4095.0,3632.0,4095.0,4095.0,4095.0,5.28,3.92,-3.54,-0.01,-0.1,-0.1,0.0,949.0,4067.0,877.0,3023.0,4095.0,3568.0,4081.0,3851.0,-3.94,6.22,6.66,-0.03,-0.03,-0.03,1.0,excuse-me
3842.0,2419.0,3180.0,4095.0,3641.0,4095.0,4095.0,4095.0,5.0,3.91,-3.36,-0.05,0.0,-0.08,0.0,947.0,4071.0,881.0,3023.0,4095.0,3583.0,4095.0,3857.0,-4.01,6.08,6.68,-0.02,0.0,-0.08,1.0,excuse-me
3220.0,1016.0,2894.0,3760.0,3119.0,3328.0,3869.0,3261.0,9.41,2.14,-1.71,0.54,-1.11,0.09,0.0,1300.0,1987.0,2167.0,2859.0,4095.0,3660.0,4095.0,3951.0,-8.53,-3.04,9.52,-0.6,0.15,-1.34,1.0,excuse-me
3328.0,1015.0,2906.0,3727.0,3134.0,3302.0,3911.0,3312.0,8.54,2.39,-2.13,0.24,0.15,0.12,0.0,1554.0,2019.0,1974.0,2862.0,4095.0,3702.0,4095.0,4007.0,-7.23,-3.76,7.14,-0.56,-0.18,-0.07,1.0,excuse-me
3069.0,1501.0,3211.0,3856.0,3265.0,3534.0,4095.0,4095.0,7.11,4.64,-0.63,-0.36,-1.42,-0.7,0.0,2043.0,2244.0,2448.0,3218.0,4095.0,3837.0,4095.0,4095.0,-6.42,-1.53,10.96,-0.13,0.13,-0.05,1.0,excuse-me
3337.0,1243.0,3555.0,3819.0,3353.0,3803.0,4095.0,4095.0,7.51,3.55,-5.89,0.77,-2.57,-0.99,0.0,926.0,1021.0,4095.0,2951.0,4095.0,3952.0,4095.0,4095.0,-8.77,-10.35,6.74,4.22,0.99,5.38,1.0,excuse-me
3317.0,1648.0,3495.0,3824.0,3434.0,3984.0,4095.0,4095.0,6.02,1.4,-4.46,-0.7,-0.64,-0.44,0.0,950.0,907.0,3843.0,2771.0,4095.0,3809.0,4095.0,2543.0,0.7,-1.22,-0.4,1.2,-0.01,3.87,1.0,excuse-me
3315.0,1749.0,3495.0,3984.0,3535.0,4086.0,4095.0,4095.0,5.19,1.71,-3.6,-0.18,-0.1,-0.41,0.0,957.0,912.0,3730.0,2797.0,4095.0,3887.0,4095.0,3638.0,2.08,3.01,-0.58,-0.95,0.77,1.62,1.0,excuse-me
3327.0,1743.0,3495.0,4001.0,3525.0,4095.0,4095.0,4095.0,4.54,3.36,-3.84,-0.07,0.28,-0.41,0.0,991.0,1648.0,3708.0,2937.0,4095.0,3959.0,4095.0,3843.0,-16.21,7.43,24.49,1.04,-0.49,-1.17,1.0,excuse-me
3327.0,1745.0,3486.0,3983.0,3527.0,4070.0,4095.0,4095.0,4.22,3.92,-3.88,0.15,0.09,-0.11,0.0,989.0,1733.0,3666.0,2970.0,4095.0,3954.0,4095.0,3862.0,-8.37,-0.39,1.63,1.83,0.31,1.16,1.0,excuse-me
3333.0,1723.0,3488.0,3999.0,3546.0,4032.0,4095.0,4095.0,4.88,3.12,-5.03,-0.06,0.09,-0.25,0.0,985.0,1799.0,3673.0,3001.0,4095.0,3957.0,4095.0,3840.0,-1.31,1.34,-2.09,-0.4,1.3,1.18,1.0,excuse-me
3312.0,1744.0,3469.0,3969.0,3557.0,4066.0,4095.0,4095.0,4.42,3.34,-4.87,-0.2,0.03,-0.12,0.0,967.0,1842.0,3657.0,2973.0,4095.0,3913.0,4095.0,3881.0,6.02,11.52,4.32,-1.86,0.58,0.05,1.0,excuse-me
3325.0,1722.0,3495.0,3994.0,3535.0,4079.0,4095.0,4095.0,3.95,3.55,-3.45,-0.06,-0.12,-0.17,0.0,998.0,1827.0,3622.0,3088.0,4095.0,3922.0,4095.0,3908.0,-20.53,-1.18,10.45,2.51,0.71,0.12,1.0,excuse-me
3317.0,1712.0,3484.0,4010.0,3549.0,4067.0,4095.0,4095.0,4.49,4.0,-3.18,0.13,-0.01,-0.16,0.0,973.0,1865.0,3600.0,3088.0,4095.0,3946.0,4095.0,4022.0,-1.6,1.39,-3.21,0.36,0.88,2.02,1.0,excuse-me
3342.0,1694.0,3481.0,3983.0,3540.0,4037.0,4095.0,4095.0,4.61,3.27,-4.8,-0.06,0.01,-0.24,0.0,980.0,1900.0,3583.0,3101.0,4095.0,3913.0,4095.0,4043.0,5.28,7.15,0.53,-1.81,0.91,-0.02,1.0,excuse-me
3344.0,1671.0,3501.0,4016.0,3541.0,4004.0,4095.0,4095.0,4.43,3.91,-3.69,0.01,0.08,-0.12,0.0,997.0,1878.0,3575.0,3121.0,4095.0,3872.0,4095.0,4095.0,-20.17,0.07,12.53,2.48,0.39,-0.64,1.0,excuse-me
3317.0,1659.0,3477.0,4073.0,3543.0,4018.0,4095.0,4095.0,4.58,3.55,-4.07,0.09,0.01,-0.22,0.0,976.0,1895.0,3571.0,3163.0,4095.0,3683.0,4095.0,4095.0,-4.91,-0.76,-1.71,0.73,1.09,1.71,1.0,excuse-me
3334.0,1648.0,3480.0,4059.0,3553.0,4016.0,4095.0,4095.0,4.83,3.33,-4.51,0.0,0.01,-0.2,0.0,994.0,1938.0,3583.0,3163.0,4095.0,3648.0,4095.0,4052.0,10.31,14.76,11.26,-1.15,-1.39,-1.48,1.0,excuse-me
3313.0,1627.0,3466.0,4061.0,3547.0,4007.0,4095.0,4095.0,4.77,3.78,-3.88,0.03,-0.03,-0.07,0.0,1013.0,1879.0,3549.0,3175.0,4095.0,3763.0,4095.0,4095.0,-16.29,-1.24,12.64,0.13,-0.07,-1.58,1.0,excuse-me
3341.0,1608.0,3474.0,4092.0,3541.0,4011.0,4095.0,4095.0,4.48,4.22,-3.96,0.07,-0.01,-0.19,0.0,1003.0,1910.0,3567.0,3228.0,4095.0,3785.0,4095.0,4095.0,-3.81,4.97,4.25,0.08,0.06,0.14,1.0,excuse-me
3350.0,1606.0,3493.0,4057.0,3520.0,3997.0,4095.0,4095.0,4.57,3.45,-4.22,0.03,0.02,-0.22,0.0,1013.0,1925.0,3547.0,3239.0,4095.0,3796.0,4095.0,4095.0,-4.4,6.11,6.97,-0.06,0.11,-0.09,1.0,excuse-me
3326.0,1594.0,3474.0,4087.0,3531.0,3999.0,4095.0,4095.0,4.64,3.73,-4.21,0.02,-0.04,-0.13,0.0,1005.0,1939.0,3555.0,3244.0,4095.0,3792.0,4095.0,4095.0,-3.74,6.25,6.87,-0.04,0.02,-0.06,1.0,excuse-me
2775.0,1277.0,3280.0,3917.0,2987.0,2982.0,3930.0,3344.0,10.69,-1.81,5.58,0.54,-0.09,-0.44,0.0,2343.0,2850.0,1936.0,3409.0,4095.0,4095.0,4095.0,4095.0,-7.02,-7.29,3.35,0.48,-0.88,0.09,1.0,excuse-me
2686.0,1794.0,3213.0,3937.0,3095.0,2992.0,3953.0,3345.0,11.05,-1.65,5.99,0.24,0.18,-0.78,0.0,1623.0,3614.0,1925.0,3478.0,4095.0,4095.0,4095.0,4095.0,-9.37,-8.68,5.06,0.68,0.32,0.71,1.0,excuse-me
3553.0,1057.0,4095.0,4095.0,3223.0,3319.0,4095.0,3954.0,5.69,1.73,1.77,0.55,-6.1,-1.59,0.0,999.0,4095.0,1170.0,3355.0,4095.0,4095.0,4095.0,4095.0,-16.74,-11.95,3.94,2.23,-0.99,2.55,1.0,excuse-me
3108.0,3406.0,3058.0,3927.0,3457.0,3802.0,4095.0,4095.0,9.9,0.57,-4.65,0.28,-2.58,-1.58,0.0,2395.0,4095.0,2673.0,2774.0,4095.0,4095.0,4095.0,4095.0,-4.52,-5.0,-1.65,2.63,-1.89,4.48,1.0,excuse-me
3974.0,4095.0,3180.0,4095.0,3574.0,4095.0,4095.0,4095.0,5.45,1.41,-3.41,-0.4,-0.57,-0.57,0.0,1364.0,4095.0,2932.0,3009.0,4095.0,4073.0,4095.0,4095.0,0.06,1.5,-1.43,0.74,0.01,3.32,1.0,excuse-me
3950.0,4095.0,3181.0,4095.0,3610.0,4095.0,4095.0,4095.0,4.7,2.13,-3.72,-0.59,-0.17,-0.31,0.0,1211.0,4095.0,3057.0,3058.0,4095.0,3667.0,4095.0,3385.0,12.38,11.24,12.94,-1.48,-1.76,-1.52,1.0,excuse-me
3946.0,4095.0,3171.0,4095.0,3663.0,4095.0,4095.0,4095.0,4.13,3.94,-3.48,-0.12,0.01,-0.35,0.0,1267.0,4095.0,3280.0,3138.0,4095.0,3677.0,4095.0,3873.0,-16.33,-0.38,16.4,1.04,-0.19,-2.38,1.0,excuse-me
3940.0,4095.0,3165.0,4095.0,3648.0,4095.0,4095.0,4095.0,3.6,4.25,-3.7,0.11,-0.08,-0.24,0.0,1303.0,4095.0,3307.0,3152.0,4095.0,3785.0,4095.0,4095.0,-11.03,-1.41,0.59,0.48,0.59,1.5,1.0,excuse-me
3965.0,4095.0,3175.0,4095.0,3639.0,4095.0,4095.0,4095.0,3.88,3.67,-4.46,0.13,-0.07,-0.12,0.0,1269.0,4095.0,3354.0,3129.0,4095.0,3728.0,4095.0,4095.0,12.24,11.98,7.07,-1.17,-1.14,-0.9,1.0,excuse-me
3954.0,4095.0,3163.0,4095.0,3600.0,4095.0,4095.0,4095.0,3.84,4.02,-3.72,-0.04,0.13,-0.01,0.0,1341.0,4095.0,3371.0,3233.0,4095.0,3843.0,4095.0,4095.0,-14.14,-1.0,3.98,2.17,0.4,0.57,1.0,excuse-me
3943.0,4095.0,3184.0,4095.0,3568.0,4095.0,4095.0,4095.0,4.64,3.68,-4.71,-0.04,0.03,0.0,0.0,1318.0,4095.0,3397.0,3214.0,4095.0,3805.0,4095.0,4095.0,-1.01,1.7,-1.83,-0.49,0.98,1.81,1.0,excuse-me
3951.0,4095.0,3165.0,4095.0,3573.0,4095.0,4095.0,4095.0,4.32,3.65,-4.78,-0.17,0.07,-0.06,0.0,1328.0,4095.0,3450.0,3183.0,4095.0,3709.0,4095.0,4095.0,1.74,9.9,16.51,0.1,-0.85,-2.74,1.0,excuse-me
3969.0,4095.0,3184.0,4095.0,3568.0,4026.0,4095.0,4095.0,4.45,3.88,-3.63,0.11,-0.02,-0.15,0.0,1367.0,4095.0,3472.0,3237.0,4095.0,3745.0,4095.0,4095.0,-21.35,-4.02,13.6,2.04,0.54,-0.44,1.0,excuse-me
3959.0,4095.0,3187.0,4095.0,3570.0,4095.0,4095.0,4095.0,4.21,3.71,-4.47,0.14,-0.06,-0.18,0.0,1338.0,4095.0,3474.0,3264.0,4095.0,3746.0,4095.0,4095.0,-4.81,-0.03,-0.28,0.76,1.43,2.0,1.0,excuse-me
3974.0,4095.0,3187.0,4095.0,3554.0,4089.0,4095.0,4095.0,4.07,3.87,-3.79,-0.15,0.07,-0.13,0.0,1341.0,4095.0,3606.0,3211.0,4095.0,3686.0,4095.0,4095.0,-12.7,0.04,14.1,0.24,-0.35,-2.15,1.0,excuse-me
3987.0,4095.0,3187.0,4095.0,3563.0,4095.0,4095.0,4095.0,4.09,4.22,-4.13,0.03,0.03,-0.11,0.0,1342.0,4095.0,3605.0,3251.0,4095.0,3693.0,4095.0,4095.0,-4.88,3.66,4.38,0.32,-0.04,0.25,1.0,excuse-me
3967.0,4095.0,3192.0,4095.0,3565.0,4085.0,4095.0,4095.0,4.33,3.65,-4.46,-0.05,0.04,-0.04,0.0,1301.0,4095.0,3614.0,3264.0,4095.0,3728.0,4095.0,4095.0,-3.33,5.53,7.53,-0.01,-0.05,-0.06,1.0,excuse-me
3980.0,4095.0,3184.0,4095.0,3551.0,4080.0,4095.0,4095.0,4.26,3.78,-4.0,-0.01,0.04,-0.08,0.0,1303.0,4095.0,3598.0,3262.0,4095.0,3727.0,4095.0,4095.0,-3.48,5.43,7.61,-0.02,-0.05,-0.07,1.0,excuse-me
3983.0,4095.0,3184.0,4095.0,3567.0,4041.0,4095.0,4095.0,4.59,3.79,-3.83,0.05,0.15,-0.03,0.0,1288.0,4095.0,3633.0,3260.0,4095.0,3733.0,4095.0,4095.0,-3.56,5.33,7.53,-0.05,-0.05,-0.03,1.0,excuse-me
3987.0,4095.0,3197.0,4095.0,3558.0,4043.0,4095.0,4095.0,4.64,3.83,-4.33,0.04,0.01,-0.15,0.0,1255.0,4095.0,3631.0,3248.0,4095.0,3728.0,4095.0,4095.0,-3.41,5.52,7.65,-0.06,0.0,-0.11,1.0,excuse-me
3342.0,2949.0,3110.0,4095.0,3425.0,3689.0,4095.0,4095.0,8.52,-0.43,-5.07,0.61,-0.88,-0.01,0.0,1470.0,3602.0,2405.0,3394.0,4095.0,4095.0,4095.0,4095.0,-6.74,-7.31,-3.48,-0.41,1.81,0.04,1.0,excuse-me
3456.0,2944.0,3071.0,4095.0,3414.0,3694.0,4095.0,4095.0,5.44,0.09,-2.3,-0.0,0.09,-0.23,0.0,1136.0,3926.0,2495.0,3435.0,4095.0,4047.0,4095.0,4095.0,-5.44,-5.2,-3.59,0.27,-0.58,0.36,1.0,excuse-me
3630.0,2895.0,3299.0,4095.0,3449.0,3738.0,4095.0,4095.0,5.63,3.52,-6.76,-0.65,-0.66,-0.92,0.0,2267.0,3374.0,2135.0,3374.0,4095.0,4095.0,4095.0,4095.0,-13.33,-8.33,-6.68,-1.48,-2.85,3.38,1.0,excuse-me
3760.0,2416.0,3145.0,3993.0,3620.0,4095.0,4095.0,4095.0,5.54,-1.49,-0.11,-0.76,-1.22,-0.35,0.0,2186.0,2337.0,3043.0,3279.0,4095.0,3943.0,4095.0,4095.0,-3.5,-10.81,-0.99,1.29,-8.54,5.89,1.0,excuse-me
3764.0,2319.0,3150.0,4053.0,3613.0,4095.0,4095.0,4095.0,5.38,1.46,-3.22,-0.18,-0.49,-0.3,0.0,1519.0,2521.0,1197.0,3411.0,4095.0,3619.0,4095.0,4095.0,10.92,2.63,5.2,0.94,-0.76,3.65,1.0,excuse-me
3792.0,2369.0,3150.0,4061.0,3654.0,4095.0,4095.0,4095.0,4.31,3.46,-2.66,-0.3,0.11,-0.37,0.0,1574.0,4095.0,923.0,3663.0,4095.0,3751.0,4095.0,4095.0,-8.63,0.37,21.44,0.08,-1.44,-4.04,1.0,excuse-me
3822.0,2305.0,3145.0,3968.0,3642.0,4095.0,4095.0,4095.0,3.82,4.8,-3.51,0.18,0.25,-0.25,0.0,1586.0,4095.0,920.0,3495.0,4095.0,3856.0,4095.0,4095.0,-14.92,-1.16,1.42,2.82,1.46,0.41,1.0,excuse-me
3826.0,2293.0,3149.0,3957.0,3650.0,4095.0,4095.0,4095.0,4.29,3.6,-5.0,0.1,0.05,-0.25,0.0,1566.0,4095.0,959.0,3507.0,4095.0,3775.0,4095.0,4095.0,2.18,2.21,-3.27,-1.23,1.59,2.15,1.0,excuse-me
3807.0,2288.0,3139.0,3967.0,3642.0,4095.0,4095.0,4095.0,4.38,3.89,-3.71,-0.09,0.1,-0.11,0.0,1588.0,4095.0,1038.0,3583.0,4095.0,3776.0,4095.0,4095.0,15.96,9.47,10.06,-2.66,-0.85,-0.47,1.0,excuse-me
3792.0,2289.0,3151.0,3927.0,3632.0,4095.0,4095.0,4095.0,4.23,4.36,-3.79,0.03,0.1,-0.04,0.0,1584.0,4095.0,975.0,3531.0,4095.0,3818.0,4095.0,4095.0,-6.53,3.34,22.15,-0.35,-0.96,-3.63,1.0,excuse-me
3829.0,2277.0,3156.0,3888.0,3646.0,4095.0,4095.0,4095.0,4.4,4.3,-3.28,0.19,0.08,-0.19,0.0,1497.0,4095.0,946.0,3536.0,4095.0,3843.0,4095.0,4095.0,0.88,-0.88,-6.11,-0.61,1.38,2.93,1.0,excuse-me
3808.0,2240.0,3142.0,3883.0,3639.0,4095.0,4095.0,4095.0,4.24,3.67,-4.35,-0.1,0.01,-0.16,0.0,1474.0,4095.0,933.0,3637.0,4095.0,3807.0,4095.0,4095.0,15.11,10.12,12.32,-2.41,-0.42,0.37,1.0,excuse-me
3831.0,2225.0,3147.0,3843.0,3629.0,4095.0,4095.0,4095.0,4.13,4.24,-3.68,-0.04,0.04,-0.2,0.0,1525.0,4095.0,897.0,3426.0,4095.0,3845.0,4095.0,4059.0,-23.73,-5.3,6.58,3.5,1.5,0.07,1.0,excuse-me
3823.0,2224.0,3154.0,3903.0,3613.0,4095.0,4095.0,4095.0,4.55,3.73,-4.98,0.07,-0.04,-0.19,0.0,1524.0,4095.0,893.0,3455.0,4095.0,3817.0,4095.0,4095.0,-2.56,-0.33,-5.9,0.03,1.47,2.85,1.0,excuse-me
3824.0,2209.0,3150.0,3919.0,3623.0,4095.0,4095.0,4095.0,4.44,3.64,-4.51,-0.2,-0.04,-0.14,0.0,1523.0,4095.0,869.0,3619.0,4095.0,3727.0,4095.0,4095.0,-2.24,4.66,17.9,-1.51,-0.65,-3.38,1.0,excuse-me
3813.0,2165.0,3159.0,3967.0,3583.0,4095.0,4095.0,4095.0,4.03,4.35,-3.73,-0.02,-0.09,-0.23,0.0,1527.0,4095.0,877.0,3555.0,4095.0,3751.0,4095.0,4095.0,-11.78,1.37,7.42,0.65,-0.01,-0.49,1.0,excuse-me
3819.0,2173.0,3147.0,3946.0,3635.0,4095.0,4095.0,4095.0,4.42,3.78,-4.22,-0.04,0.03,-0.09,0.0,1519.0,4095.0,879.0,3583.0,4095.0,3744.0,4095.0,4095.0,-1.86,4.85,7.32,0.05,-0.07,0.03,1.0,excuse-me
3809.0,2160.0,3182.0,3943.0,3634.0,4095.0,4095.0,4095.0,4.32,4.15,-3.86,0.01,-0.04,-0.16,0.0,1505.0,4095.0,879.0,3598.0,4095.0,3721.0,4095.0,4095.0,-3.44,4.72,8.31,0.03,-0.05,-0.05,1.0,excuse-me
3809.0,2144.0,3154.0,3971.0,3608.0,4095.0,4095.0,4095.0,4.34,4.07,-4.02,0.09,-0.04,-0.12,0.0,1488.0,4095.0,880.0,3583.0,4095.0,3707.0,4095.0,4095.0,-3.39,4.64,7.92,-0.02,0.02,-0.08,1.0,excuse-me
3821.0,2115.0,3167.0,4001.0,3625.0,4095.0,4095.0,4095.0,4.47,4.04,-4.06,0.04,-0.09,-0.21,0.0,1456.0,4095.0,885.0,3583.0,4095.0,3683.0,4095.0,4095.0,-3.39,4.78,8.47,0.04,0.02,-0.02,1.0,excuse-me
3870.0,1023.0,3205.0,4053.0,3612.0,4088.0,4095.0,4095.0,4.49,2.59,-3.15,-0.13,0.33,0.02,0.0,1472.0,4095.0,907.0,3568.0,4095.0,3863.0,4095.0,4095.0,-3.2,4.58,8.57,0.05,-0.29,-0.11,1.0,excuse-me
3355.0,1142.0,2834.0,3505.0,3306.0,3653.0,4095.0,4095.0,5.65,1.44,-0.66,-0.15,5.25,2.17,0.0,2693.0,4095.0,2235.0,3233.0,4095.0,3803.0,4095.0,4095.0,-0.58,1.47,5.62,-0.65,0.07,-1.7,1.0,excuse-me
3026.0,2673.0,2864.0,3426.0,3322.0,3488.0,4095.0,3583.0,9.76,2.69,-2.17,0.89,0.72,0.86,0.0,2768.0,2869.0,2790.0,3345.0,4095.0,4095.0,4095.0,4095.0,-11.15,0.96,16.01,-0.36,1.11,-0.35,1.0,excuse-me
3003.0,1712.0,2887.0,4095.0,3376.0,3663.0,4095.0,4095.0,7.22,2.45,-4.5,0.64,-2.87,-0.83,0.0,2769.0,2795.0,2800.0,3376.0,4095.0,4095.0,4095.0,4095.0,-6.86,3.42,11.36,0.84,1.35,0.31,1.0,excuse-me
3376.0,1017.0,3547.0,4095.0,3419.0,3789.0,4095.0,4095.0,6.03,3.24,-6.67,-0.28,-1.22,-0.48,0.0,2118.0,4095.0,2613.0,3301.0,4095.0,4095.0,4095.0,4095.0,-15.97,-0.84,-1.9,2.58,1.33,2.9,1.0,excuse-me
3395.0,1032.0,3543.0,3963.0,3472.0,3837.0,4095.0,4095.0,6.37,0.53,-5.39,-0.94,-0.48,-0.37,0.0,1433.0,4095.0,3455.0,3445.0,4095.0,4095.0,4095.0,4095.0,0.17,-3.61,-6.75,-1.72,-1.08,4.63,1.0,excuse-me
3401.0,1012.0,3535.0,3936.0,3571.0,3993.0,4095.0,4095.0,4.75,0.49,-1.54,-0.45,-0.4,-0.78,0.0,1713.0,4095.0,1197.0,3054.0,4095.0,3855.0,4095.0,4095.0,2.43,5.82,25.38,-0.94,-1.96,-3.76,1.0,excuse-me
3408.0,1013.0,3523.0,3918.0,3583.0,4010.0,4095.0,4095.0,4.29,3.28,-4.63,0.17,0.11,-0.19,0.0,1732.0,4095.0,1013.0,3065.0,4095.0,3923.0,4095.0,4095.0,-1.62,-0.84,-6.65,0.63,1.63,2.51,1.0,excuse-me
3419.0,1002.0,3531.0,3978.0,3600.0,4016.0,4095.0,4095.0,4.53,3.22,-5.24,-0.24,-0.05,-0.12,0.0,1737.0,4095.0,1003.0,3043.0,4095.0,3984.0,4095.0,4095.0,14.71,9.45,20.18,-1.95,-1.43,-3.19,1.0,excuse-me
3411.0,976.0,3498.0,4016.0,3583.0,4048.0,4095.0,4095.0,4.76,3.76,-3.29,0.2,-0.03,-0.08,0.0,1755.0,4095.0,912.0,3118.0,4095.0,3868.0,4095.0,4095.0,-26.8,-6.06,28.27,2.86,0.16,-1.76,1.0,excuse-me
3417.0,975.0,3487.0,4090.0,3600.0,4053.0,4095.0,4095.0,4.39,3.75,-4.22,0.12,0.11,-0.08,0.0,1742.0,4095.0,953.0,3165.0,4095.0,3991.0,4095.0,4095.0,6.16,3.24,-1.89,-2.47,2.41,1.75,1.0,excuse-me
3413.0,983.0,3497.0,4045.0,3570.0,4080.0,4095.0,4095.0,4.72,3.37,-4.1,-0.16,-0.23,-0.23,0.0,1728.0,4095.0,933.0,3049.0,4095.0,3983.0,4095.0,4095.0,22.09,12.07,14.74,-2.91,-1.11,-1.92,1.0,excuse-me
3408.0,976.0,3511.0,4049.0,3601.0,4093.0,4095.0,4095.0,4.07,3.74,-3.42,-0.03,-0.02,-0.21,0.0,1743.0,4095.0,922.0,3152.0,4095.0,3890.0,4095.0,4095.0,-14.39,-0.83,3.86,2.67,1.06,0.65,1.0,excuse-me
3402.0,975.0,3494.0,4034.0,3632.0,4067.0,4095.0,4095.0,4.68,3.36,-5.45,-0.01,-0.05,-0.05,0.0,1744.0,4095.0,923.0,3167.0,4095.0,3925.0,4095.0,4095.0,2.17,2.41,-5.06,-0.47,1.34,2.4,1.0,excuse-me
3411.0,976.0,3493.0,4049.0,3619.0,4061.0,4095.0,4095.0,4.44,3.49,-3.66,-0.04,-0.08,-0.14,0.0,1745.0,4095.0,917.0,3169.0,4095.0,3952.0,4095.0,4095.0,-10.54,1.63,17.52,-0.41,-0.62,-1.85,1.0,excuse-me
3407.0,974.0,3495.0,4061.0,3607.0,4089.0,4095.0,4095.0,3.65,3.9,-4.15,0.16,0.01,-0.04,0.0,1744.0,4095.0,923.0,3183.0,4095.0,3922.0,4095.0,4095.0,-5.7,3.27,6.89,0.43,-0.04,-0.32,1.0,excuse-me
3415.0,997.0,3503.0,4031.0,3599.0,4065.0,4095.0,4095.0,4.1,3.52,-3.64,0.19,-0.02,-0.11,0.0,1732.0,4095.0,929.0,3194.0,4095.0,3961.0,4095.0,4095.0,-2.08,4.57,8.58,0.08,-0.05,-0.02,1.0,excuse-me
3422.0,961.0,3499.0,4032.0,3627.0,4066.0,4095.0,4095.0,4.8,3.36,-4.6,0.03,0.04,-0.14,0.0,1719.0,4095.0,915.0,3194.0,4095.0,3922.0,4095.0,4095.0,-2.28,4.75,8.38,-0.16,-0.07,-0.11,1.0,excuse-me
3425.0,976.0,3517.0,4011.0,3578.0,4021.0,4095.0,4095.0,4.41,2.87,-3.87,-0.08,0.05,-0.05,0.0,1502.0,4095.0,891.0,3223.0,4095.0,3934.0,4095.0,4095.0,-2.63,3.45,7.6,-0.18,-0.11,-0.61,1.0,excuse-me
3413.0,975.0,3504.0,3949.0,3564.0,4039.0,4095.0,4095.0,4.87,3.31,-4.2,0.21,0.09,-0.06,0.0,1488.0,4095.0,899.0,3247.0,4095.0,4021.0,4095.0,4095.0,-4.11,4.08,9.71,-0.35,0.33,-0.08,1.0,excuse-me
3066.0,977.0,3044.0,4095.0,2986.0,3151.0,4095.0,3696.0,6.95,-6.68,7.99,-0.76,1.62,-0.52,0.0,981.0,3695.0,1905.0,3488.0,4095.0,3908.0,4095.0,4095.0,3.17,-7.61,4.68,-0.39,0.71,0.49,1.0,excuse-me
3101.0,963.0,3113.0,4095.0,3005.0,3166.0,4095.0,3786.0,5.97,-7.11,8.45,-0.36,0.19,-0.65,0.0,1075.0,3550.0,2099.0,3536.0,4095.0,3923.0,4095.0,4095.0,3.43,-8.34,6.04,0.41,0.84,-0.05,1.0,excuse-me
3142.0,979.0,3071.0,4095.0,2959.0,3159.0,4095.0,3760.0,5.21,-5.91,8.97,-0.25,0.45,-0.52,0.0,980.0,3628.0,2128.0,3708.0,4095.0,3913.0,4095.0,4095.0,-1.82,-7.9,9.37,-0.14,0.32,-0.24,1.0,excuse-me
3275.0,958.0,3166.0,4095.0,2978.0,3169.0,4095.0,3741.0,9.32,-5.79,10.56,0.77,-2.33,-1.2,0.0,950.0,3765.0,1992.0,3685.0,4095.0,3874.0,4095.0,4095.0,-4.69,-7.46,11.11,0.78,0.82,0.19,1.0,excuse-me
3186.0,991.0,3315.0,4095.0,3179.0,3326.0,4095.0,3919.0,13.18,-3.79,6.9,1.05,-3.55,-2.26,0.0,987.0,4095.0,1261.0,3714.0,4095.0,4095.0,4095.0,4095.0,-6.95,-10.45,16.02,2.75,1.78,2.67,1.0,excuse-me
3690.0,1005.0,3255.0,4095.0,3541.0,4095.0,4095.0,4095.0,5.43,-2.22,-4.11,-1.31,-2.08,-1.65,0.0,1001.0,4095.0,922.0,3418.0,4095.0,4095.0,4095.0,4095.0,-4.36,-8.16,2.24,2.67,2.09,5.58,1.0,excuse-me
3659.0,984.0,3241.0,3920.0,3631.0,4095.0,4095.0,4095.0,4.97,0.8,-0.92,-0.88,-0.76,-0.5,0.0,1909.0,4095.0,880.0,2919.0,4095.0,4095.0,4095.0,4095.0,1.79,-1.94,-4.63,0.08,0.57,4.92,1.0,excuse-me
3642.0,997.0,3235.0,4062.0,3603.0,4095.0,4095.0,4095.0,5.28,2.77,-1.67,-0.26,-0.48,-0.14,0.0,1803.0,4095.0,879.0,3047.0,4095.0,4095.0,4095.0,4095.0,9.06,3.71,0.74,-3.38,-0.49,1.63,1.0,excuse-me
3659.0,977.0,3218.0,4084.0,3610.0,4095.0,4095.0,4095.0,3.12,5.16,-3.21,-0.5,0.28,-0.02,0.0,1706.0,4005.0,883.0,2979.0,4095.0,4095.0,4095.0,4095.0,-26.06,-10.71,21.02,1.94,1.82,-1.2,1.0,excuse-me
3506.0,973.0,3118.0,3882.0,3444.0,3911.0,4095.0,4095.0,3.78,3.88,-3.99,0.06,-0.12,0.12,0.0,1644.0,3986.0,884.0,3007.0,4095.0,4095.0,4095.0,4095.0,-4.85,-1.26,-2.73,1.32,1.21,2.33,1.0,excuse-me
3555.0,971.0,3149.0,3967.0,3500.0,4002.0,4095.0,4095.0,4.09,4.02,-4.28,-0.08,-0.08,-0.08,0.0,1558.0,3950.0,894.0,3010.0,4095.0,4095.0,4095.0,4095.0,-20.03,-8.28,25.75,2.09,0.94,-2.24,1.0,excuse-me
3601.0,977.0,3181.0,4038.0,3515.0,4048.0,4095.0,4095.0,4.28,4.05,-4.37,0.19,0.04,-0.12,0.0,1515.0,3915.0,882.0,3035.0,4095.0,4095.0,4095.0,4095.0,-9.32,-2.52,-3.8,1.99,1.06,2.18,1.0,excuse-me
3600.0,979.0,3193.0,4031.0,3509.0,4030.0,4095.0,4095.0,4.32,3.58,-4.81,-0.07,-0.09,-0.32,0.0,1378.0,3835.0,887.0,3171.0,4095.0,3997.0,4095.0,4095.0,20.42,9.32,22.58,-2.59,-1.89,-2.3,1.0,excuse-me
3600.0,976.0,3162.0,4046.0,3511.0,4020.0,4095.0,4095.0,4.48,4.14,-3.17,0.15,0.02,-0.34,0.0,1328.0,3807.0,886.0,3071.0,4095.0,3945.0,4095.0,4095.0,-6.77,-0.93,-7.38,1.06,1.3,2.39,1.0,excuse-me
3625.0,976.0,3171.0,4068.0,3521.0,4035.0,4095.0,4095.0,4.7,3.64,-4.16,-0.09,-0.06,-0.28,0.0,1302.0,3775.0,895.0,3133.0,4095.0,3958.0,4095.0,4095.0,12.16,6.36,5.91,-2.83,-0.26,1.12,1.0,excuse-me
3620.0,978.0,3183.0,4091.0,3523.0,4016.0,4095.0,4095.0,3.94,4.2,-4.4,0.11,0.07,-0.13,0.0,1287.0,3807.0,896.0,3159.0,4095.0,3952.0,4095.0,4095.0,-6.66,1.76,7.64,0.45,0.19,-0.21,1.0,excuse-me
3600.0,982.0,3183.0,4061.0,3517.0,4016.0,4095.0,4095.0,3.93,4.26,-3.88,-0.08,-0.04,-0.26,0.0,1299.0,3795.0,891.0,3184.0,4095.0,3965.0,4095.0,4095.0,-3.6,3.63,9.41,-0.06,0.11,-0.09,1.0,excuse-me
3620.0,975.0,3187.0,4048.0,3514.0,4014.0,4095.0,4095.0,4.61,3.88,-4.37,0.02,0.07,-0.11,0.0,1299.0,3786.0,890.0,3187.0,4095.0,3959.0,4095.0,4095.0,-1.76,3.95,8.61,0.04,0.04,0.08,1.0,excuse-me
3610.0,977.0,3188.0,4064.0,3511.0,4028.0,4095.0,4095.0,4.9,4.26,-3.88,0.05,-0.06,-0.17,0.0,1294.0,3807.0,895.0,3184.0,4095.0,3954.0,4095.0,4095.0,-2.72,3.76,9.27,0.04,0.03,-0.04,1.0,excuse-me
3609.0,974.0,3179.0,4083.0,3514.0,4013.0,4095.0,4095.0,4.61,4.13,-3.99,0.09,-0.02,-0.18,0.0,1290.0,3797.0,891.0,3186.0,4095.0,3943.0,4095.0,4095.0,-2.94,3.93,8.62,-0.0,0.02,-0.02,1.0,excuse-me
2931.0,2474.0,3952.0,3866.0,3419.0,3687.0,4095.0,3755.0,10.1,-0.69,0.47,-0.32,0.32,0.36,0.0,2688.0,4095.0,1915.0,2711.0,4095.0,4095.0,4095.0,4095.0,-5.96,-2.2,8.15,-0.46,0.65,-0.42,1.0,excuse-me
2768.0,3801.0,3686.0,3898.0,3541.0,3832.0,4095.0,3866.0,10.06,-0.86,1.3,-0.25,0.03,-0.17,0.0,2147.0,4095.0,959.0,2876.0,4095.0,4095.0,4095.0,4095.0,-6.02,-3.51,7.07,-0.38,0.39,-0.87,1.0,excuse-me
2949.0,2290.0,2581.0,3989.0,3431.0,3776.0,4095.0,3811.0,10.07,-0.07,1.13,0.02,-0.39,-0.73,0.0,2756.0,2613.0,2634.0,2731.0,4095.0,4095.0,4095.0,4095.0,-3.53,-2.75,10.96,-0.5,0.6,-1.65,1.0,excuse-me
3002.0,2421.0,2864.0,4095.0,3390.0,3773.0,4095.0,4066.0,10.0,3.69,-1.07,-0.58,-0.75,-1.22,0.0,2427.0,3725.0,2186.0,2943.0,4095.0,4095.0,4095.0,4095.0,-22.67,-15.86,15.19,3.68,2.5,1.09,1.0,excuse-me
3760.0,975.0,3216.0,3978.0,3548.0,4023.0,4095.0,4095.0,6.64,1.28,-5.33,0.18,-2.95,-1.32,0.0,1088.0,4095.0,3638.0,2627.0,4095.0,4095.0,4095.0,4095.0,-9.05,-14.22,1.54,3.31,1.02,6.12,1.0,excuse-me
3687.0,973.0,3216.0,4095.0,3614.0,4095.0,4095.0,4095.0,4.57,3.44,-2.54,-0.58,-0.37,-0.68,0.0,1046.0,4095.0,4095.0,2969.0,4095.0,4008.0,4095.0,3955.0,9.11,3.79,0.31,-3.38,-0.84,2.47,1.0,excuse-me
3686.0,973.0,3215.0,3910.0,3635.0,4095.0,4095.0,4095.0,3.86,4.65,-2.02,0.15,0.28,-0.56,0.0,947.0,4095.0,3386.0,2786.0,4095.0,4095.0,4095.0,4095.0,-14.19,-6.61,26.89,0.5,0.27,-3.62,1.0,excuse-me
3707.0,962.0,3206.0,3713.0,3615.0,4095.0,4095.0,4095.0,3.52,5.04,-3.06,0.01,0.34,-0.23,0.0,944.0,4095.0,3150.0,3026.0,4095.0,4095.0,4095.0,4095.0,7.77,2.38,-5.63,-0.93,1.4,2.45,1.0,excuse-me
3671.0,979.0,3193.0,3893.0,3583.0,4063.0,4095.0,4095.0,4.45,3.89,-3.4,-0.16,0.05,0.07,0.0,928.0,4095.0,3181.0,2979.0,4095.0,4095.0,4095.0,4095.0,14.39,7.53,12.93,-3.23,-0.49,-1.02,1.0,excuse-me
3731.0,975.0,3222.0,4011.0,3538.0,4074.0,4095.0,4095.0,4.51,5.18,-3.46,0.09,-0.02,-0.25,0.0,941.0,3973.0,3207.0,2993.0,4095.0,4095.0,4095.0,4095.0,-0.7,-1.05,-4.59,0.3,1.01,3.07,1.0,excuse-me
3724.0,977.0,3215.0,4015.0,3562.0,4060.0,4095.0,4095.0,4.73,3.64,-4.49,-0.1,-0.06,-0.29,0.0,930.0,3942.0,3476.0,3071.0,4095.0,4095.0,4095.0,4095.0,14.42,8.17,5.15,-3.15,0.83,0.37,1.0,excuse-me
3726.0,972.0,3213.0,4045.0,3570.0,4080.0,4095.0,4095.0,3.57,4.36,-2.81,-0.08,0.12,0.02,0.0,932.0,3946.0,3487.0,3100.0,4095.0,4095.0,4095.0,4095.0,6.96,7.57,23.62,-1.41,-1.3,-3.61,1.0,excuse-me
3728.0,966.0,3221.0,4041.0,3553.0,4065.0,4095.0,4095.0,4.78,4.18,-4.43,0.15,0.06,-0.13,0.0,946.0,3967.0,3614.0,3149.0,4095.0,4095.0,4095.0,4095.0,5.9,4.8,-1.06,-2.54,1.92,1.71,1.0,excuse-me
3698.0,964.0,3217.0,4059.0,3536.0,4032.0,4095.0,4095.0,4.83,3.87,-4.41,0.06,-0.11,-0.2,0.0,925.0,3966.0,3561.0,3120.0,4095.0,4095.0,4095.0,4095.0,16.05,12.28,12.79,-2.36,-1.78,-1.29,1.0,excuse-me
3705.0,960.0,3217.0,4095.0,3559.0,4051.0,4095.0,4095.0,4.63,4.2,-3.79,0.0,0.03,-0.2,0.0,926.0,4001.0,3515.0,3133.0,4095.0,4095.0,4095.0,4095.0,-6.52,2.93,4.93,0.68,0.0,-0.17,1.0,excuse-me
3733.0,965.0,3226.0,4095.0,3557.0,4044.0,4095.0,4095.0,4.69,4.01,-4.43,0.03,-0.01,-0.13,0.0,935.0,4030.0,3565.0,3167.0,4095.0,4095.0,4095.0,4095.0,-3.25,4.64,8.86,0.03,0.02,-0.25,1.0,excuse-me
3728.0,961.0,3227.0,4095.0,3545.0,4048.0,4095.0,4095.0,4.48,4.25,-3.79,0.03,0.01,-0.16,0.0,944.0,4023.0,3547.0,3159.0,4095.0,4095.0,4095.0,4095.0,-2.65,4.88,8.27,-0.09,0.04,-0.05,1.0,excuse-me
3737.0,965.0,3231.0,4095.0,3540.0,4037.0,4095.0,4095.0,4.52,4.21,-3.85,0.01,0.04,-0.16,0.0,934.0,4011.0,3546.0,3157.0,4095.0,4095.0,4095.0,4095.0,-2.67,4.68,8.08,-0.02,-0.02,-0.05,1.0,excuse-me
3737.0,969.0,3219.0,4095.0,3556.0,4034.0,4095.0,4095.0,4.4,4.28,-3.56,0.05,0.06,-0.14,0.0,937.0,4047.0,3572.0,3177.0,4095.0,4091.0,4095.0,4095.0,-2.8,4.63,8.52,-0.07,-0.0,-0.14,1.0,excuse-me
3739.0,958.0,3236.0,4095.0,3547.0,4037.0,4095.0,4095.0,4.47,4.2,-3.97,0.02,0.01,-0.16,0.0,928.0,4007.0,3568.0,3186.0,4095.0,4095.0,4095.0,4095.0,-2.69,4.54,8.33,-0.09,-0.02,-0.05,1.0,excuse-me
3040.0,1053.0,2637.0,4095.0,3374.0,3453.0,4095.0,4045.0,7.8,3.17,0.08,0.09,-0.44,-0.15,0.0,2759.0,2793.0,2724.0,3342.0,4095.0,4095.0,4095.0,4095.0,-5.05,-3.72,8.11,0.14,-0.08,-0.13,1.0,excuse-me
4095.0,965.0,3343.0,4095.0,3662.0,4095.0,4095.0,4095.0,7.21,3.19,-2.7,0.85,-2.25,-0.64,0.0,2554.0,3793.0,2482.0,3529.0,4095.0,4095.0,4095.0,4095.0,-7.25,-5.04,8.19,0.19,0.88,-0.7,1.0,excuse-me
4095.0,1049.0,3334.0,4095.0,3691.0,4095.0,4095.0,4095.0,5.1,3.1,-3.7,0.31,-0.81,0.34,0.0,1927.0,4095.0,959.0,3071.0,4047.0,4095.0,4095.0,4095.0,-15.45,-9.77,13.95,3.43,1.39,2.79,1.0,excuse-me
3987.0,1073.0,3422.0,4095.0,3599.0,4095.0,4095.0,4095.0,6.06,2.11,-4.81,-0.2,-0.24,-0.22,0.0,1408.0,4095.0,3542.0,2710.0,4095.0,4095.0,4095.0,4095.0,7.45,1.01,-4.83,-1.9,0.02,3.0,1.0,excuse-me
3968.0,976.0,3518.0,4095.0,3575.0,4095.0,4095.0,4095.0,6.67,2.24,-3.75,0.06,-0.32,-0.05,0.0,1351.0,4095.0,912.0,2747.0,4095.0,4095.0,4095.0,4095.0,-2.84,-2.14,21.09,0.58,-0.96,-3.9,1.0,excuse-me
3968.0,988.0,3538.0,4095.0,3605.0,4095.0,4095.0,4095.0,4.84,3.37,-3.7,0.23,0.17,-0.38,0.0,1414.0,4095.0,925.0,2733.0,4095.0,4095.0,4095.0,4095.0,-20.37,-5.17,5.38,2.75,1.82,0.45,1.0,excuse-me
3981.0,995.0,3532.0,4095.0,3599.0,4095.0,4095.0,4095.0,5.27,2.71,-4.7,0.21,0.04,-0.12,0.0,1265.0,4095.0,1674.0,2733.0,4095.0,4095.0,4095.0,4095.0,14.32,7.61,3.89,-3.32,0.38,0.68,1.0,excuse-me
3991.0,982.0,3536.0,4095.0,3602.0,4057.0,4095.0,4095.0,4.49,3.36,-3.84,-0.21,0.04,-0.29,0.0,1191.0,4095.0,1007.0,2774.0,4095.0,3968.0,4095.0,4095.0,-23.37,-6.43,10.35,3.89,1.83,-0.25,1.0,excuse-me
3986.0,991.0,3536.0,4095.0,3582.0,3984.0,4095.0,4095.0,4.75,3.18,-4.2,-0.02,-0.11,0.03,0.0,973.0,4095.0,1307.0,2830.0,4095.0,4052.0,4095.0,4095.0,-2.64,-1.26,-5.15,0.81,1.36,2.72,1.0,excuse-me
3983.0,991.0,3546.0,4095.0,3575.0,3942.0,4095.0,4095.0,4.7,3.41,-3.63,-0.15,0.11,-0.14,0.0,982.0,4095.0,1703.0,2825.0,4095.0,3873.0,4095.0,4095.0,18.45,12.5,20.46,-2.08,-1.86,-2.94,1.0,excuse-me
3964.0,983.0,3545.0,4095.0,3568.0,3926.0,4095.0,4095.0,4.78,3.6,-3.59,0.14,0.2,-0.18,0.0,1032.0,4095.0,981.0,2830.0,4095.0,3855.0,4095.0,3886.0,-9.21,-2.65,-1.19,1.97,1.48,2.23,1.0,excuse-me
3945.0,985.0,3537.0,4095.0,3552.0,3914.0,4095.0,4095.0,4.93,2.45,-4.94,0.21,-0.11,-0.06,0.0,989.0,4095.0,1161.0,2854.0,4095.0,3829.0,4095.0,4095.0,6.53,4.56,-1.06,-1.01,1.12,2.26,1.0,excuse-me
3955.0,993.0,3546.0,4095.0,3534.0,3919.0,4095.0,4095.0,4.84,2.57,-5.02,-0.15,-0.14,-0.2,0.0,978.0,4095.0,1313.0,2883.0,4095.0,3670.0,4095.0,4095.0,11.53,8.66,9.06,-2.45,-0.49,-0.95,1.0,excuse-me
3945.0,999.0,3538.0,4095.0,3538.0,3926.0,4095.0,4095.0,4.53,3.21,-4.15,-0.23,0.05,-0.23,0.0,1052.0,4095.0,1070.0,2865.0,4095.0,3562.0,4095.0,4095.0,-6.48,3.64,17.27,-0.08,-0.9,-2.88,1.0,excuse-me
3943.0,995.0,3536.0,4095.0,3534.0,3929.0,4095.0,4095.0,4.18,3.4,-3.89,-0.19,0.01,-0.13,0.0,1054.0,4095.0,978.0,2891.0,4095.0,3575.0,4095.0,4095.0,-2.26,4.87,7.39,-0.04,-0.02,-0.09,1.0,excuse-me
3966.0,1006.0,3535.0,4095.0,3535.0,3931.0,4095.0,4095.0,4.67,3.23,-4.39,0.0,-0.03,-0.05,0.0,1046.0,4095.0,966.0,2895.0,4095.0,3570.0,4095.0,4095.0,-2.89,5.16,8.43,0.02,0.06,-0.19,1.0,excuse-me
3935.0,986.0,3522.0,4095.0,3536.0,3911.0,4095.0,4095.0,4.68,3.15,-4.24,0.02,-0.0,-0.12,0.0,1065.0,4095.0,979.0,2914.0,4095.0,3613.0,4095.0,4095.0,-2.98,5.26,8.2,0.02,0.0,-0.09,1.0,excuse-me
3933.0,989.0,3535.0,4095.0,3541.0,3889.0,4095.0,4095.0,4.54,3.15,-3.97,-0.05,-0.02,-0.13,0.0,1045.0,4095.0,979.0,2911.0,4095.0,3623.0,4095.0,4095.0,-3.03,5.12,7.97,-0.05,-0.01,-0.1,1.0,excuse-me
3952.0,998.0,3529.0,4095.0,3537.0,3886.0,4095.0,4095.0,4.66,3.17,-4.24,0.04,-0.08,-0.15,0.0,1043.0,4095.0,979.0,2928.0,4095.0,3627.0,4095.0,4095.0,-3.11,5.01,7.86,-0.09,-0.0,-0.11,1.0,excuse-me
3975.0,1004.0,3536.0,4095.0,3543.0,3888.0,4095.0,4095.0,4.96,3.24,-4.53,0.01,0.02,-0.1,0.0,1039.0,4095.0,989.0,2924.0,4095.0,3610.0,4095.0,4095.0,-3.12,4.96,8.04,-0.07,0.04,-0.08,1.0,excuse-me
4095.0,1102.0,3529.0,3717.0,2879.0,3331.0,4095.0,3702.0,8.11,1.56,-2.74,-0.55,-1.33,-0.47,0.0,1315.0,3646.0,3361.0,2991.0,4095.0,3870.0,4095.0,4095.0,-17.71,-6.44,10.98,3.46,-0.37,1.95,1.0,excuse-me
4050.0,1007.0,3766.0,3877.0,3059.0,3407.0,4095.0,3860.0,7.89,0.75,-3.0,-0.96,-1.35,-0.44,0.0,945.0,4095.0,4095.0,2914.0,4095.0,3728.0,4095.0,3987.0,-1.37,-1.8,-2.25,1.04,-0.03,4.1,1.0,excuse-me
3729.0,976.0,3440.0,4039.0,3422.0,3907.0,4095.0,4095.0,5.75,1.16,-3.62,-0.02,-0.75,-0.64,0.0,1117.0,4095.0,4095.0,2950.0,4095.0,3878.0,4095.0,4095.0,4.15,2.67,-5.43,-1.32,0.81,2.3,1.0,excuse-me
3729.0,981.0,3441.0,4079.0,3469.0,3971.0,4095.0,4095.0,5.59,2.38,-3.03,-0.16,-0.28,-0.21,0.0,1243.0,4095.0,4095.0,3130.0,4095.0,4015.0,4095.0,4095.0,5.32,6.61,17.49,-1.53,-1.43,-3.19,1.0,excuse-me
3799.0,955.0,3458.0,4095.0,3456.0,4016.0,4095.0,4095.0,4.14,3.74,-3.8,0.19,0.05,-0.47,0.0,1315.0,4095.0,4095.0,3153.0,4095.0,3839.0,4095.0,4095.0,-21.76,-3.09,18.54,2.33,0.92,-1.23,1.0,excuse-me
3809.0,961.0,3447.0,4095.0,3456.0,3987.0,4095.0,4095.0,3.95,3.22,-4.76,0.21,0.05,-0.26,0.0,1275.0,4095.0,4095.0,3242.0,4095.0,3856.0,4095.0,4095.0,5.66,4.43,0.66,-1.67,1.8,1.78,1.0,excuse-me
3840.0,982.0,3443.0,4095.0,3458.0,3999.0,4095.0,4095.0,4.08,3.21,-4.33,0.03,0.21,-0.24,0.0,1284.0,4095.0,4095.0,3145.0,4095.0,3869.0,4095.0,4095.0,15.46,12.2,13.29,-2.1,-0.9,-1.27,1.0,excuse-me
3792.0,976.0,3467.0,4095.0,3440.0,3977.0,4095.0,4095.0,4.33,2.81,-3.74,-0.09,0.05,-0.24,0.0,1294.0,4095.0,4095.0,3264.0,4095.0,3830.0,4095.0,4095.0,-15.2,-3.27,2.56,3.54,1.62,0.12,1.0,excuse-me
3797.0,976.0,3463.0,4095.0,3442.0,3967.0,4095.0,4095.0,4.45,3.47,-4.69,0.27,0.04,-0.18,0.0,1265.0,4095.0,4095.0,3298.0,4095.0,3831.0,4095.0,4095.0,-3.22,-0.07,-5.08,-0.19,1.14,2.19,1.0,excuse-me
3779.0,961.0,3453.0,4095.0,3439.0,3979.0,4095.0,4095.0,4.87,2.93,-3.86,-0.07,-0.11,-0.22,0.0,1278.0,4095.0,4095.0,3295.0,4095.0,3856.0,4095.0,4095.0,3.09,5.03,5.72,-3.24,1.4,1.38,1.0,excuse-me
3794.0,973.0,3470.0,4095.0,3456.0,3956.0,4095.0,4095.0,4.59,3.11,-3.78,-0.02,0.01,-0.13,0.0,1298.0,4095.0,4095.0,3170.0,4095.0,3762.0,4095.0,4095.0,-15.39,-2.38,22.96,1.57,0.46,-3.26,1.0,excuse-me
3761.0,963.0,3461.0,4095.0,3469.0,3936.0,4095.0,4095.0,4.39,3.53,-3.9,0.2,-0.1,-0.18,0.0,1293.0,4095.0,4095.0,3313.0,4095.0,3831.0,4095.0,4095.0,-10.27,-2.81,-2.58,2.5,1.56,1.89,1.0,excuse-me
3787.0,950.0,3467.0,4095.0,3489.0,3949.0,4095.0,4095.0,4.78,3.06,-4.27,-0.06,-0.12,-0.22,0.0,1294.0,4095.0,4095.0,3312.0,4095.0,3782.0,4095.0,4095.0,7.08,7.18,4.99,-2.83,0.47,-0.37,1.0,excuse-me
3776.0,960.0,3459.0,4095.0,3483.0,3945.0,4095.0,4095.0,3.93,3.27,-3.25,-0.02,-0.08,-0.07,0.0,1297.0,4095.0,4095.0,3344.0,4095.0,3741.0,4095.0,4095.0,7.13,8.24,15.25,-1.91,-1.76,-2.85,1.0,excuse-me
3772.0,959.0,3472.0,4095.0,3478.0,3921.0,4095.0,4095.0,4.76,3.2,-5.08,0.19,-0.15,-0.24,0.0,1309.0,4095.0,4095.0,3455.0,4095.0,3733.0,4095.0,4095.0,-2.03,4.27,6.4,0.21,0.13,0.07,1.0,excuse-me
3781.0,966.0,3483.0,4095.0,3458.0,3950.0,4095.0,4095.0,4.62,2.89,-4.96,0.0,0.05,-0.13,0.0,1312.0,4095.0,4095.0,3454.0,4095.0,3745.0,4095.0,4095.0,-2.7,4.49,8.46,-0.04,0.13,-0.28,1.0,excuse-me
3778.0,960.0,3461.0,4095.0,3466.0,3961.0,4095.0,4095.0,4.38,2.97,-4.48,-0.01,0.03,-0.14,0.0,1303.0,4095.0,4095.0,3465.0,4095.0,3747.0,4095.0,4095.0,-3.18,4.5,8.39,-0.01,0.02,-0.07,1.0,excuse-me
3786.0,958.0,3462.0,4095.0,3467.0,3927.0,4095.0,4095.0,4.27,2.97,-4.38,-0.0,0.01,-0.11,0.0,1297.0,4095.0,4095.0,3467.0,4095.0,3775.0,4095.0,4095.0,-3.15,4.44,8.45,-0.01,0.02,-0.08,1.0,excuse-me
3762.0,956.0,3482.0,4095.0,3473.0,3905.0,4095.0,4095.0,4.35,2.99,-4.47,-0.02,0.03,-0.12,0.0,1302.0,4095.0,4095.0,3455.0,4095.0,3783.0,4095.0,4095.0,-3.06,4.61,8.37,0.04,0.03,-0.09,1.0,excuse-me
3792.0,961.0,3472.0,4095.0,3456.0,3921.0,4095.0,4095.0,4.42,2.9,-4.4,-0.03,0.03,-0.11,0.0,1304.0,4095.0,4095.0,3472.0,4095.0,3781.0,4095.0,4095.0,-3.13,4.58,8.46,0.01,-0.03,-0.06,1.0,excuse-me
3146.0,1002.0,2655.0,3815.0,2816.0,2958.0,3760.0,3148.0,11.23,-0.92,6.3,0.64,-1.37,-0.61,0.0,2426.0,3425.0,2805.0,3373.0,4095.0,3920.0,4095.0,4095.0,-5.82,-4.92,7.77,0.79,0.35,-0.41,1.0,excuse-me
3151.0,1009.0,3069.0,3795.0,2882.0,2928.0,3709.0,3191.0,9.47,0.07,3.12,0.42,-1.27,-1.13,0.0,2384.0,3088.0,2871.0,3278.0,4095.0,3966.0,4095.0,4095.0,-8.38,-5.11,7.63,1.18,0.58,0.18,1.0,excuse-me
3134.0,964.0,2342.0,3801.0,3136.0,3213.0,4090.0,3825.0,7.92,1.97,0.11,-0.02,-5.0,-1.56,0.0,934.0,4085.0,2821.0,3382.0,4095.0,4075.0,4095.0,4095.0,-15.51,-9.88,9.28,2.52,0.66,2.81,1.0,excuse-me
3287.0,976.0,3346.0,4093.0,3568.0,4014.0,4095.0,4095.0,6.75,1.99,-5.1,-0.22,-1.38,-1.16,0.0,927.0,4095.0,2861.0,3281.0,4095.0,4095.0,4095.0,4095.0,-5.17,-5.62,0.97,1.88,0.75,4.94,1.0,excuse-me
3284.0,962.0,3345.0,4095.0,3600.0,4069.0,4095.0,4095.0,5.35,2.15,-3.6,-0.37,-0.66,-0.78,0.0,923.0,4019.0,3440.0,3248.0,4095.0,3813.0,4095.0,4095.0,6.52,4.4,7.74,-1.78,-0.06,2.32,1.0,excuse-me
3299.0,977.0,3357.0,4080.0,3606.0,4077.0,4095.0,4095.0,3.89,3.71,-2.84,-0.1,0.27,-0.25,0.0,959.0,4095.0,2899.0,3249.0,4095.0,3862.0,4095.0,4095.0,-8.9,0.47,22.63,0.92,-1.13,-3.35,1.0,excuse-me
3311.0,963.0,3366.0,4064.0,3608.0,4048.0,4095.0,4095.0,3.84,4.28,-3.98,0.08,0.1,-0.36,0.0,951.0,4095.0,2945.0,3289.0,4095.0,3890.0,4095.0,4095.0,-16.21,-1.26,3.08,2.32,1.09,1.02,1.0,excuse-me
3312.0,973.0,3371.0,4091.0,3602.0,4037.0,4095.0,4095.0,4.53,3.64,-4.89,0.08,-0.1,-0.19,0.0,943.0,4095.0,3184.0,3269.0,4095.0,3921.0,4095.0,4095.0,2.24,1.71,-1.12,-0.11,1.03,2.78,1.0,excuse-me
3312.0,977.0,3374.0,4095.0,3639.0,4048.0,4095.0,4095.0,4.18,3.63,-4.08,0.07,-0.06,-0.18,0.0,940.0,4095.0,3297.0,3293.0,4095.0,3870.0,4095.0,4095.0,12.6,7.95,4.41,-2.21,0.71,0.27,1.0,excuse-me
3322.0,982.0,3376.0,4094.0,3626.0,4027.0,4095.0,4095.0,3.69,4.1,-4.64,0.01,0.08,-0.04,0.0,963.0,4095.0,3067.0,3287.0,4095.0,3890.0,4095.0,4095.0,-20.92,-3.76,19.26,2.4,1.05,-1.33,1.0,excuse-me
3297.0,973.0,3397.0,4095.0,3583.0,3971.0,4095.0,4095.0,3.97,4.0,-4.0,0.03,-0.1,-0.14,0.0,942.0,4095.0,3129.0,3296.0,4095.0,3918.0,4095.0,4095.0,-7.17,-0.94,-2.26,1.39,1.07,2.14,1.0,excuse-me
3322.0,976.0,3406.0,4095.0,3580.0,3942.0,4095.0,4095.0,4.33,3.4,-4.88,-0.1,-0.16,-0.15,0.0,929.0,4095.0,2839.0,3301.0,4095.0,3845.0,4095.0,4095.0,11.87,8.82,8.07,-2.52,-0.61,-0.8,1.0,excuse-me
3298.0,970.0,3408.0,4095.0,3568.0,3949.0,4095.0,4095.0,4.22,3.96,-5.1,-0.09,0.09,0.08,0.0,970.0,4095.0,2172.0,3283.0,4095.0,3888.0,4095.0,4095.0,-18.28,-3.38,10.5,3.6,0.88,-0.35,1.0,excuse-me
3305.0,976.0,3385.0,4095.0,3563.0,3952.0,4095.0,4095.0,3.87,4.37,-3.05,0.09,-0.04,-0.2,0.0,963.0,4095.0,2249.0,3311.0,4095.0,3922.0,4095.0,4095.0,-3.37,-0.41,-4.21,1.1,1.06,2.22,1.0,excuse-me
3305.0,972.0,3411.0,4095.0,3557.0,3905.0,4095.0,4095.0,4.36,3.44,-4.86,0.14,-0.2,-0.21,0.0,943.0,4095.0,2420.0,3309.0,4095.0,3885.0,4095.0,4095.0,5.13,5.08,0.34,-1.96,1.45,0.99,1.0,excuse-me
3305.0,973.0,3409.0,4095.0,3550.0,3914.0,4095.0,4095.0,3.85,4.0,-4.2,-0.15,0.0,-0.12,0.0,957.0,4095.0,2339.0,3303.0,4095.0,3824.0,4095.0,4095.0,-6.06,2.91,7.1,0.48,-0.15,-0.34,1.0,excuse-me
3305.0,987.0,3393.0,4095.0,3561.0,3891.0,4095.0,4095.0,3.7,3.99,-4.32,-0.02,0.01,-0.14,0.0,954.0,4095.0,2403.0,3312.0,4095.0,3856.0,4095.0,4095.0,-2.23,4.45,7.88,-0.13,0.1,-0.05,1.0,excuse-me
3326.0,960.0,3414.0,4095.0,3561.0,3869.0,4095.0,4095.0,4.06,3.9,-3.77,-0.01,0.14,-0.06,0.0,944.0,4095.0,2489.0,3327.0,4095.0,3851.0,4095.0,4095.0,-2.93,4.3,9.1,-0.08,-0.11,-0.1,1.0,excuse-me
3312.0,977.0,3428.0,4095.0,3565.0,3854.0,4095.0,4095.0,4.33,3.9,-4.11,-0.02,0.05,-0.15,0.0,944.0,4095.0,2459.0,3344.0,4095.0,3814.0,4095.0,4095.0,-2.86,4.34,8.72,-0.11,0.08,-0.16,1.0,excuse-me
3305.0,971.0,3436.0,4095.0,3568.0,3856.0,4095.0,4095.0,4.28,3.89,-4.04,0.02,-0.01,-0.19,0.0,944.0,4095.0,2435.0,3370.0,4095.0,3856.0,4095.0,4095.0,-2.91,4.28,8.78,-0.12,0.02,0.0,1.0,excuse-me
3085.0,2311.0,3120.0,3763.0,3152.0,3597.0,4095.0,3707.0,9.78,-1.06,1.85,0.28,-0.78,-0.65,0.0,2598.0,2299.0,2013.0,3099.0,4095.0,3929.0,4095.0,4095.0,-6.17,-2.96,10.71,1.49,0.16,0.14,1.0,excuse-me
3029.0,2779.0,2250.0,3853.0,3199.0,3773.0,4095.0,3648.0,9.21,-1.92,1.77,-0.22,2.05,-0.95,0.0,2611.0,1897.0,1913.0,2843.0,4095.0,3914.0,4095.0,4093.0,-4.99,-1.77,8.2,1.7,0.09,0.61,1.0,excuse-me
3018.0,2256.0,2559.0,4095.0,3199.0,3770.0,4095.0,4010.0,8.25,1.61,-1.68,-0.21,-4.67,-1.3,0.0,1437.0,973.0,1279.0,3071.0,4095.0,4095.0,4095.0,4095.0,-11.6,-2.57,4.97,1.32,2.0,2.56,1.0,excuse-me
3088.0,4095.0,3059.0,3984.0,3674.0,4095.0,4095.0,4095.0,5.79,1.3,-1.97,-0.47,-1.96,-1.13,0.0,1664.0,883.0,4095.0,2623.0,4095.0,4095.0,4095.0,4095.0,-1.84,-2.84,-1.26,-0.31,-0.33,4.35,1.0,excuse-me
3083.0,4095.0,3085.0,4060.0,3681.0,4095.0,4095.0,4095.0,4.47,2.33,-3.9,0.09,-1.58,-0.75,0.0,2003.0,1451.0,4095.0,2655.0,4095.0,4095.0,4095.0,4095.0,4.8,4.37,4.81,-1.34,0.05,2.17,1.0,excuse-me
3107.0,4095.0,3095.0,4095.0,3695.0,4095.0,4095.0,4095.0,6.24,3.21,-2.14,-1.08,0.11,0.08,0.0,1377.0,4095.0,4095.0,2737.0,4095.0,4032.0,4095.0,4095.0,9.9,7.94,7.75,-1.65,-1.42,-0.43,1.0,excuse-me
3109.0,4095.0,3082.0,4095.0,3705.0,4095.0,4095.0,4095.0,4.68,4.51,-3.37,-0.23,0.24,-0.04,0.0,1579.0,4095.0,4095.0,2960.0,4095.0,4095.0,4095.0,4095.0,-21.95,-2.32,2.45,2.9,0.87,0.4,1.0,excuse-me
3140.0,4095.0,3095.0,4095.0,3644.0,4095.0,4095.0,4095.0,4.14,3.29,-4.04,0.43,-0.23,-0.11,0.0,1575.0,4095.0,4095.0,2878.0,4095.0,4095.0,4095.0,4095.0,-1.04,0.03,-1.62,-0.38,1.11,3.15,1.0,excuse-me
3157.0,4095.0,3107.0,4095.0,3583.0,4095.0,4095.0,4095.0,4.79,3.18,-4.6,0.17,-0.22,-0.07,0.0,1499.0,4095.0,4095.0,2865.0,4095.0,4095.0,4095.0,4095.0,8.84,7.31,18.41,-1.65,-1.11,-3.54,1.0,excuse-me
3194.0,4095.0,3119.0,4095.0,3583.0,4095.0,4095.0,4095.0,4.18,3.76,-4.35,-0.43,0.18,-0.02,0.0,1520.0,4095.0,4095.0,2884.0,4095.0,4095.0,4095.0,4095.0,-4.18,-1.1,-6.3,1.28,0.68,2.08,1.0,excuse-me
3216.0,4095.0,3119.0,4095.0,3578.0,4095.0,4095.0,4095.0,4.99,3.72,-4.24,0.24,-0.02,-0.08,0.0,1566.0,4095.0,4095.0,2912.0,4095.0,4095.0,4095.0,4095.0,5.96,3.94,0.76,-2.66,1.78,1.51,1.0,excuse-me
3221.0,4095.0,3118.0,4095.0,3579.0,4095.0,4095.0,4095.0,4.75,3.63,-4.25,-0.13,0.15,-0.16,0.0,1531.0,4095.0,4095.0,2893.0,4095.0,4095.0,4095.0,4095.0,16.11,11.46,19.07,-2.19,-2.21,-1.11,1.0,excuse-me
3200.0,4095.0,3121.0,4095.0,3583.0,4095.0,4095.0,4095.0,4.19,3.96,-3.53,0.03,0.05,-0.31,0.0,1535.0,4095.0,4095.0,2914.0,4095.0,4095.0,4095.0,4095.0,-7.81,1.2,20.98,0.96,-0.63,-3.35,1.0,excuse-me
3213.0,4095.0,3117.0,4095.0,3598.0,4095.0,4095.0,4095.0,4.16,4.02,-3.73,0.23,0.05,-0.3,0.0,1638.0,4095.0,4095.0,2977.0,4095.0,4095.0,4095.0,4095.0,0.24,-1.25,-7.43,-0.48,1.12,2.56,1.0,excuse-me
3207.0,4095.0,3114.0,4095.0,3549.0,4095.0,4095.0,4095.0,3.99,3.22,-4.47,-0.06,-0.31,-0.23,0.0,1612.0,4095.0,4095.0,2944.0,4095.0,4095.0,4095.0,4095.0,15.47,10.06,10.01,-2.86,-0.49,0.24,1.0,excuse-me
3216.0,4095.0,3130.0,4095.0,3495.0,3882.0,4095.0,4095.0,3.79,3.83,-4.22,-0.04,0.06,-0.14,0.0,1603.0,4095.0,4095.0,2943.0,4095.0,4095.0,4095.0,4095.0,-3.91,3.73,18.64,-0.87,-0.72,-2.56,1.0,excuse-me
3213.0,4095.0,3147.0,4095.0,3513.0,3979.0,4095.0,4095.0,3.97,3.89,-4.6,0.01,0.02,-0.35,0.0,1610.0,4095.0,4095.0,2971.0,4095.0,4095.0,4095.0,4095.0,-3.35,3.84,8.1,0.0,0.28,-0.23,1.0,excuse-me
3207.0,4095.0,3151.0,4095.0,3526.0,3956.0,4095.0,4095.0,4.07,4.08,-3.93,-0.05,0.1,-0.33,0.0,1612.0,4095.0,4095.0,2976.0,4095.0,4095.0,4095.0,4095.0,-2.49,4.77,9.57,0.09,0.06,-0.03,1.0,excuse-me
3232.0,4095.0,3130.0,4095.0,3535.0,3937.0,4095.0,4095.0,3.65,3.99,-4.34,0.03,0.07,-0.14,0.0,1594.0,4095.0,4095.0,2990.0,4095.0,4095.0,4095.0,4095.0,-2.84,4.63,7.69,0.09,0.12,-0.03,1.0,excuse-me
3209.0,4095.0,3136.0,4095.0,3549.0,3943.0,4095.0,4095.0,3.73,4.02,-3.86,-0.05,0.08,-0.05,0.0,1590.0,4095.0,4095.0,2998.0,4095.0,4095.0,4095.0,4095.0,-2.23,5.0,7.96,0.09,0.07,-0.12,1.0,excuse-me
3345.0,1002.0,2219.0,4086.0,3047.0,3229.0,4095.0,3518.0,6.71,0.05,-5.08,-0.41,-0.2,-0.69,0.0,2699.0,3071.0,3661.0,3313.0,4095.0,4035.0,4095.0,4095.0,-4.92,-7.05,7.09,0.16,0.85,-0.11,1.0,excuse-me
2914.0,1728.0,2604.0,4076.0,3137.0,3275.0,4095.0,3698.0,5.6,0.34,-3.36,-0.65,0.24,-0.4,0.0,2763.0,3104.0,4095.0,3607.0,4095.0,4095.0,4095.0,4095.0,-4.85,-6.18,5.98,0.47,1.13,0.04,1.0,excuse-me
3647.0,2124.0,1152.0,4095.0,3191.0,3381.0,4095.0,4095.0,6.25,1.37,-3.79,-0.13,-0.97,-0.4,0.0,2795.0,3670.0,4095.0,3557.0,4095.0,4095.0,4095.0,4095.0,-6.11,-6.02,6.81,0.18,0.21,0.18,1.0,excuse-me
3566.0,1008.0,3504.0,4090.0,3523.0,3937.0,4095.0,4095.0,4.91,1.46,-5.54,-0.3,-0.38,0.06,0.0,956.0,4095.0,2669.0,3664.0,4095.0,4095.0,4095.0,4095.0,-12.65,-13.06,5.97,4.07,0.5,3.53,1.0,excuse-me
3546.0,1000.0,3526.0,4095.0,3522.0,3979.0,4095.0,4095.0,5.82,0.94,-4.7,-0.41,-0.49,-0.3,0.0,989.0,3901.0,3513.0,2899.0,4095.0,4095.0,4095.0,4095.0,3.93,0.9,-2.87,-1.79,0.88,3.93,1.0,excuse-me
3533.0,985.0,3527.0,4095.0,3509.0,3947.0,4095.0,4095.0,5.52,0.83,-4.61,-0.4,-0.42,-0.5,0.0,977.0,3773.0,3648.0,2995.0,4095.0,4095.0,4095.0,4095.0,13.75,6.04,10.57,-2.62,-0.91,0.38,1.0,excuse-me
3533.0,982.0,3535.0,4095.0,3501.0,3959.0,4095.0,4095.0,4.63,1.91,-3.74,-0.22,-0.03,-0.35,0.0,970.0,3741.0,3546.0,3036.0,4095.0,4095.0,4095.0,4095.0,5.27,4.86,21.01,-0.98,-1.66,-3.56,1.0,excuse-me
3540.0,991.0,3532.0,4080.0,3520.0,3965.0,4095.0,4095.0,3.6,2.94,-3.92,-0.14,0.22,-0.21,0.0,974.0,3754.0,3090.0,3026.0,4095.0,4095.0,4095.0,4095.0,-21.19,-4.69,19.25,3.14,0.91,-1.06,1.0,excuse-me
3554.0,1008.0,3518.0,4082.0,3517.0,3939.0,4095.0,4095.0,3.98,2.88,-4.71,0.1,0.05,-0.14,0.0,981.0,3756.0,3071.0,3127.0,4095.0,4095.0,4095.0,4095.0,-6.75,-1.94,-4.07,1.79,1.52,2.38,1.0,excuse-me
3536.0,993.0,3539.0,4069.0,3504.0,3915.0,4095.0,4095.0,4.69,2.54,-4.68,-0.04,-0.06,-0.15,0.0,982.0,3737.0,3069.0,3125.0,4095.0,4095.0,4095.0,4095.0,6.36,3.33,-0.6,-1.97,1.68,1.79,1.0,excuse-me
3541.0,982.0,3527.0,4090.0,3504.0,3906.0,4095.0,4095.0,4.5,2.9,-4.74,-0.01,-0.06,-0.19,0.0,980.0,3726.0,3087.0,3147.0,4095.0,4095.0,4095.0,4095.0,12.82,7.7,12.53,-2.65,-0.42,-1.02,1.0,excuse-me
3525.0,997.0,3540.0,4080.0,3503.0,3871.0,4095.0,4095.0,4.1,3.32,-4.17,-0.1,0.16,-0.11,0.0,970.0,3757.0,3043.0,3168.0,4095.0,4033.0,4095.0,4095.0,-21.64,-5.34,12.35,3.24,1.03,-0.35,1.0,excuse-me
3552.0,998.0,3536.0,4082.0,3504.0,3854.0,4095.0,4095.0,4.08,3.07,-4.6,0.09,0.02,-0.19,0.0,975.0,3743.0,3088.0,3271.0,4095.0,4080.0,4095.0,4095.0,-3.67,-1.94,-6.33,0.98,1.15,2.5,1.0,excuse-me
3583.0,996.0,3559.0,4095.0,3444.0,3685.0,4095.0,4095.0,4.03,2.87,-4.4,0.05,0.15,-0.15,0.0,978.0,3713.0,3122.0,3237.0,4095.0,3940.0,4095.0,4095.0,15.21,10.17,19.6,-2.1,-1.37,-1.84,1.0,excuse-me
3569.0,996.0,3563.0,4095.0,3466.0,3664.0,4095.0,4095.0,4.64,3.29,-4.85,-0.01,0.14,0.01,0.0,978.0,3727.0,3008.0,3299.0,4095.0,3952.0,4095.0,4095.0,-11.3,-2.78,3.71,3.33,0.98,1.13,1.0,excuse-me
3583.0,1005.0,3566.0,4095.0,3479.0,3671.0,4095.0,4095.0,4.59,2.78,-4.49,-0.07,-0.02,-0.24,0.0,980.0,3718.0,3033.0,3306.0,4095.0,3947.0,4095.0,4095.0,-0.55,0.32,-2.42,0.53,1.45,2.71,1.0,excuse-me
3568.0,1040.0,3562.0,4095.0,3487.0,3649.0,4095.0,4095.0,4.45,2.59,-4.73,-0.05,-0.09,-0.23,0.0,977.0,3665.0,3086.0,3282.0,4095.0,3877.0,4095.0,4095.0,9.63,7.11,1.32,-2.17,1.82,0.84,1.0,excuse-me
3583.0,1005.0,3573.0,4095.0,3481.0,3686.0,4095.0,4095.0,3.9,3.27,-4.45,0.04,-0.01,-0.19,0.0,991.0,3711.0,2870.0,3186.0,4095.0,3940.0,4095.0,4095.0,-8.77,-0.52,19.35,-0.11,-0.56,-2.98,1.0,excuse-me
3565.0,1008.0,3568.0,4095.0,3474.0,3661.0,4095.0,4095.0,3.99,3.49,-3.91,-0.01,0.12,-0.07,0.0,987.0,3719.0,2817.0,3205.0,4095.0,3846.0,4095.0,4095.0,-1.02,3.72,8.15,0.04,0.11,-0.11,1.0,excuse-me
3601.0,1009.0,3568.0,4095.0,3459.0,3671.0,4095.0,4095.0,4.33,3.11,-4.79,0.04,0.09,-0.12,0.0,977.0,3713.0,2809.0,3223.0,4095.0,3910.0,4095.0,4095.0,-1.77,3.99,9.43,-0.08,-0.03,-0.18,1.0,excuse-me
3067.0,974.0,2901.0,3508.0,2853.0,2935.0,3697.0,3195.0,9.69,-0.6,1.55,0.29,-0.1,-0.69,0.0,2381.0,3443.0,2814.0,2951.0,4095.0,3858.0,4095.0,4095.0,-5.15,-4.07,6.48,-0.44,0.21,-0.12,1.0,excuse-me
3047.0,965.0,3237.0,3457.0,2891.0,2923.0,3749.0,3187.0,9.5,-0.32,1.44,0.57,-0.28,-0.66,0.0,2330.0,3474.0,2790.0,3095.0,4095.0,3867.0,4095.0,4095.0,-5.5,-5.2,5.92,-0.44,0.51,-0.53,1.0,excuse-me
3103.0,960.0,4095.0,3662.0,2843.0,2919.0,3773.0,3203.0,5.2,1.2,1.56,0.69,-1.54,-0.27,0.0,2319.0,3379.0,3062.0,3111.0,4095.0,3875.0,4095.0,4095.0,-5.4,-5.1,7.63,-0.09,-0.4,-0.39,1.0,excuse-me
3302.0,1072.0,4045.0,3957.0,3015.0,3169.0,3975.0,3775.0,7.98,1.77,-6.17,0.16,-5.32,-0.7,0.0,2325.0,4095.0,4095.0,3047.0,4095.0,3968.0,4095.0,4095.0,-14.12,-13.22,3.78,2.99,1.89,3.18,1.0,excuse-me
3521.0,970.0,1760.0,4095.0,3361.0,3582.0,4095.0,4095.0,6.05,-0.19,-6.23,-0.88,-0.53,-0.72,0.0,1499.0,4095.0,4095.0,2898.0,4095.0,4019.0,4095.0,4095.0,-0.73,-1.8,-3.34,-0.11,-1.23,5.0,1.0,excuse-me
3504.0,955.0,3632.0,4095.0,3455.0,3977.0,4095.0,4095.0,3.98,1.64,-2.36,-0.4,0.17,-0.38,0.0,1491.0,4095.0,4095.0,3063.0,4095.0,4004.0,4095.0,4095.0,15.51,9.67,12.14,-2.31,-1.38,-0.51,1.0,excuse-me
3510.0,953.0,3630.0,4095.0,3489.0,4023.0,4095.0,4095.0,3.37,2.35,-4.19,-0.11,0.06,-0.23,0.0,1523.0,4095.0,4095.0,3152.0,4095.0,3999.0,4095.0,4095.0,-4.99,1.81,23.99,0.34,-1.15,-3.51,1.0,excuse-me
3536.0,959.0,3643.0,4095.0,3483.0,4015.0,4095.0,4095.0,3.86,3.1,-4.22,0.16,0.15,-0.26,0.0,1535.0,4095.0,4095.0,3214.0,4095.0,3994.0,4095.0,4095.0,-14.9,-2.59,3.48,2.65,0.84,0.8,1.0,excuse-me
3531.0,955.0,3633.0,4095.0,3472.0,4006.0,4095.0,4095.0,4.62,2.36,-5.18,0.07,0.01,-0.28,0.0,1520.0,4095.0,4095.0,3187.0,4095.0,3978.0,4095.0,4095.0,2.32,1.51,-1.03,-0.36,1.56,2.58,1.0,excuse-me
3538.0,955.0,3645.0,4095.0,3472.0,3970.0,4095.0,4095.0,4.31,2.42,-4.73,-0.07,0.08,-0.14,0.0,1527.0,4095.0,4095.0,3248.0,4095.0,3914.0,4095.0,4095.0,7.41,7.63,20.58,-0.8,-1.86,-3.42,1.0,excuse-me
3541.0,971.0,3614.0,4095.0,3458.0,3964.0,4095.0,4095.0,4.7,3.16,-4.97,0.26,-0.01,-0.28,0.0,1570.0,4095.0,4095.0,3237.0,4095.0,3917.0,4095.0,4095.0,-22.7,-5.6,13.58,2.69,0.55,-1.23,1.0,excuse-me
3545.0,973.0,3632.0,4095.0,3483.0,3952.0,4095.0,4095.0,4.18,2.86,-4.86,0.01,-0.04,-0.22,0.0,1535.0,4095.0,4095.0,3291.0,4095.0,3939.0,4095.0,4095.0,10.12,5.92,3.65,-1.77,1.16,1.53,1.0,excuse-me
3520.0,967.0,3622.0,4095.0,3456.0,3915.0,4095.0,4095.0,3.75,2.99,-4.63,-0.17,0.19,-0.18,0.0,1535.0,4095.0,4095.0,3258.0,4095.0,3920.0,4095.0,4095.0,15.57,9.41,15.8,-1.71,-1.48,-1.78,1.0,excuse-me
3526.0,959.0,3631.0,4095.0,3472.0,3903.0,4095.0,4095.0,4.11,3.01,-4.31,-0.05,0.09,-0.04,0.0,1575.0,4095.0,4095.0,3332.0,4095.0,3915.0,4095.0,4095.0,-11.77,-1.11,23.55,1.49,-0.15,-3.73,1.0,excuse-me
3518.0,960.0,3611.0,4095.0,3465.0,3866.0,4095.0,4095.0,4.85,2.61,-4.96,0.06,-0.08,-0.09,0.0,1527.0,4095.0,4095.0,3265.0,4095.0,3910.0,4095.0,4095.0,11.54,7.05,6.02,-2.74,0.7,0.19,1.0,excuse-me
3521.0,966.0,3631.0,4095.0,3473.0,3857.0,4095.0,4095.0,4.64,2.5,-4.7,-0.16,-0.02,-0.18,0.0,1535.0,4095.0,4095.0,3251.0,4095.0,3854.0,4095.0,4095.0,-11.88,0.16,8.75,0.75,-0.14,-1.39,1.0,excuse-me
3529.0,967.0,3627.0,4095.0,3481.0,3878.0,4095.0,4095.0,4.39,3.1,-4.03,-0.2,0.04,-0.16,0.0,1525.0,4095.0,4095.0,3291.0,4095.0,3909.0,4095.0,4095.0,-2.51,3.21,7.05,0.03,0.25,-0.21,1.0,excuse-me
3546.0,958.0,3623.0,4095.0,3485.0,3845.0,4095.0,4095.0,4.41,2.97,-4.4,-0.03,0.04,-0.24,0.0,1533.0,4095.0,4095.0,3312.0,4095.0,3919.0,4095.0,4095.0,-1.28,4.76,8.94,-0.04,0.21,-0.33,1.0,excuse-me
3507.0,965.0,3613.0,4095.0,3479.0,3855.0,4095.0,4095.0,4.24,3.09,-4.29,-0.0,-0.06,-0.1,0.0,1520.0,4095.0,4095.0,3338.0,4095.0,3888.0,4095.0,4095.0,-1.93,4.17,9.15,-0.02,-0.02,-0.1,1.0,excuse-me
3520.0,960.0,3612.0,4095.0,3488.0,3856.0,4095.0,4095.0,4.65,3.14,-4.67,-0.01,-0.03,-0.11,0.0,1527.0,4095.0,4095.0,3328.0,4095.0,3906.0,4095.0,4095.0,-2.55,4.08,9.42,-0.03,0.06,-0.1,1.0,excuse-me
3834.0,4095.0,3157.0,4033.0,3600.0,4095.0,4095.0,4095.0,5.32,1.2,-4.04,0.1,-0.54,-0.4,0.0,2318.0,1571.0,921.0,3175.0,4095.0,4095.0,4095.0,3646.0,-7.94,-6.55,3.21,3.49,1.63,3.71,1.0,excuse-me
3825.0,4095.0,3181.0,4043.0,3625.0,4095.0,4095.0,4095.0,5.33,2.03,-3.36,-0.06,-0.29,-0.57,0.0,1181.0,3824.0,906.0,2907.0,4095.0,4095.0,4095.0,4095.0,0.47,-0.27,-2.3,0.49,1.57,3.47,1.0,excuse-me
3825.0,4095.0,3187.0,4064.0,3632.0,4095.0,4095.0,4095.0,4.94,2.53,-4.73,0.03,-0.34,-0.41,0.0,955.0,4095.0,887.0,3146.0,4095.0,4095.0,4095.0,4095.0,5.28,5.62,3.97,-3.25,0.97,-0.06,1.0,excuse-me
3834.0,4095.0,3185.0,4006.0,3628.0,4095.0,4095.0,4095.0,3.92,4.0,-4.07,-0.12,0.21,-0.09,0.0,966.0,4095.0,897.0,3383.0,4095.0,4095.0,4095.0,4095.0,12.43,11.8,27.69,-1.63,-1.71,-2.81,1.0,excuse-me
3828.0,4095.0,3184.0,4022.0,3622.0,4095.0,4095.0,4095.0,4.11,4.18,-3.25,-0.06,0.26,-0.18,0.0,1059.0,4095.0,885.0,3309.0,4095.0,4095.0,4095.0,4095.0,-24.3,-9.14,16.82,3.27,0.37,-1.88,1.0,excuse-me
3856.0,4095.0,3205.0,4046.0,3603.0,4095.0,4095.0,4095.0,3.83,3.67,-4.21,0.2,0.11,-0.1,0.0,1066.0,4095.0,895.0,3358.0,4095.0,4095.0,4095.0,4095.0,-4.99,-2.63,-2.65,1.48,1.73,2.56,1.0,excuse-me
3834.0,4095.0,3203.0,4069.0,3615.0,4095.0,4095.0,4095.0,4.46,3.66,-4.73,-0.01,0.22,-0.04,0.0,1004.0,4095.0,893.0,3374.0,4095.0,4095.0,4095.0,4095.0,8.44,6.65,-3.06,-1.32,2.07,1.34,1.0,excuse-me
3846.0,4095.0,3185.0,4070.0,3599.0,4095.0,4095.0,4095.0,4.1,3.75,-3.9,-0.15,-0.02,-0.02,0.0,1008.0,4095.0,893.0,3398.0,4095.0,4095.0,4095.0,4095.0,-4.63,0.57,23.67,0.52,-1.6,-3.97,1.0,excuse-me
3824.0,4095.0,3207.0,4084.0,3596.0,4095.0,4095.0,4095.0,4.21,4.02,-2.52,0.07,-0.15,0.03,0.0,1041.0,4095.0,880.0,3395.0,4095.0,4095.0,4095.0,4095.0,-0.97,-0.42,-7.95,0.23,0.6,2.97,1.0,excuse-me
3846.0,4095.0,3190.0,4095.0,3600.0,4095.0,4095.0,4095.0,5.16,3.44,-4.76,0.26,0.08,-0.04,0.0,1022.0,4095.0,880.0,3409.0,4095.0,4095.0,4095.0,4095.0,9.02,5.39,3.46,-3.73,1.16,1.11,1.0,excuse-me
3830.0,4095.0,3199.0,4095.0,3600.0,4095.0,4095.0,4095.0,4.23,3.85,-3.5,-0.03,0.05,-0.03,0.0,1023.0,4095.0,883.0,3344.0,4095.0,4095.0,4095.0,4095.0,16.46,11.54,24.1,-1.51,-2.29,-2.98,1.0,excuse-me
3834.0,4095.0,3211.0,4095.0,3603.0,4095.0,4095.0,4095.0,5.37,3.51,-4.21,0.11,0.06,-0.02,0.0,1060.0,4095.0,880.0,3303.0,4095.0,4095.0,4095.0,4095.0,-12.99,-4.0,-1.23,3.1,1.6,1.91,1.0,excuse-me
3815.0,4095.0,3200.0,4095.0,3599.0,4095.0,4095.0,4095.0,4.35,3.1,-4.53,-0.06,-0.13,-0.23,0.0,1058.0,4095.0,880.0,3333.0,4095.0,4095.0,4095.0,4095.0,3.21,1.99,-4.65,-0.65,1.32,3.33,1.0,excuse-me
3835.0,4095.0,3217.0,4095.0,3626.0,4095.0,4095.0,4095.0,4.22,3.65,-4.58,0.08,-0.05,-0.1,0.0,1113.0,4095.0,880.0,3342.0,4095.0,4051.0,4095.0,4095.0,12.62,7.22,17.39,-2.7,-1.15,-3.98,1.0,excuse-me
3818.0,4095.0,3215.0,4095.0,3615.0,4095.0,4095.0,4095.0,4.58,3.87,-4.51,0.13,-0.13,-0.31,0.0,1136.0,4095.0,877.0,3410.0,4095.0,4095.0,4095.0,4095.0,-4.52,3.11,5.59,0.29,0.33,-0.15,1.0,excuse-me
3824.0,4095.0,3216.0,4095.0,3605.0,4095.0,4095.0,4095.0,4.27,3.4,-4.41,-0.03,0.0,-0.24,0.0,1133.0,4095.0,890.0,3421.0,4095.0,4095.0,4095.0,4095.0,-1.54,4.92,8.44,-0.16,0.09,-0.14,1.0,excuse-me
3821.0,4095.0,3218.0,4067.0,3606.0,4095.0,4095.0,4095.0,4.12,3.59,-4.13,-0.05,0.02,-0.18,0.0,1118.0,4095.0,885.0,3422.0,4095.0,4095.0,4095.0,4095.0,-3.3,4.34,8.14,-0.16,0.01,0.01,1.0,excuse-me
3823.0,4095.0,3222.0,4095.0,3610.0,4063.0,4095.0,4095.0,4.23,3.73,-4.17,0.0,0.03,-0.06,0.0,1126.0,4095.0,893.0,3430.0,4095.0,4095.0,4095.0,4095.0,-2.85,4.35,8.9,-0.08,-0.01,-0.04,1.0,excuse-me
3834.0,4095.0,3234.0,4077.0,3600.0,4058.0,4095.0,4095.0,4.33,3.75,-4.01,-0.04,-0.01,-0.12,0.0,1126.0,4095.0,884.0,3438.0,4095.0,4095.0,4095.0,4095.0,-2.49,4.58,8.45,-0.03,0.08,-0.05,1.0,excuse-me
3830.0,4095.0,3223.0,4095.0,3583.0,4066.0,4095.0,4095.0,4.62,3.65,-4.14,-0.01,-0.04,-0.11,0.0,1111.0,4095.0,885.0,3440.0,4095.0,4095.0,4095.0,4095.0,-2.8,4.4,8.88,-0.02,0.12,-0.08,1.0,excuse-me
3159.0,944.0,3525.0,3698.0,2771.0,2815.0,3558.0,3179.0,8.9,0.68,1.78,-0.08,-0.2,-0.29,0.0,1721.0,3250.0,2012.0,3323.0,4095.0,3887.0,4095.0,4095.0,-4.99,-5.76,7.62,0.2,0.54,-0.3,1.0,excuse-me
3164.0,931.0,3487.0,3554.0,2907.0,2873.0,3623.0,3230.0,10.97,2.4,1.75,0.45,-0.41,-1.39,0.0,1867.0,3282.0,2064.0,3331.0,4095.0,3875.0,4095.0,4095.0,-4.28,-4.6,7.47,-0.04,0.1,0.01,1.0,excuse-me
3184.0,939.0,3536.0,3692.0,2832.0,3034.0,3969.0,3678.0,5.5,2.78,0.39,0.43,-2.01,-2.01,0.0,1847.0,4085.0,3219.0,3444.0,4095.0,4019.0,4095.0,4095.0,-12.09,-11.07,9.89,2.81,0.71,1.58,1.0,excuse-me
3150.0,960.0,3441.0,4095.0,3500.0,4016.0,4095.0,4095.0,4.91,1.51,-6.94,-0.27,-0.57,-0.36,0.0,1077.0,4095.0,3539.0,3223.0,4095.0,4095.0,4095.0,4095.0,-0.41,-3.26,-2.21,0.52,-0.72,5.78,1.0,excuse-me
3165.0,983.0,3565.0,4095.0,3617.0,4095.0,4095.0,4095.0,3.45,2.96,-3.23,-0.24,0.19,-0.3,0.0,1103.0,3952.0,3926.0,3265.0,4095.0,4026.0,4095.0,4095.0,6.22,3.28,1.14,-2.22,0.25,2.8,1.0,excuse-me
3179.0,989.0,3553.0,4095.0,3583.0,4095.0,4095.0,4095.0,3.71,3.68,-3.87,0.02,0.08,-0.39,0.0,1251.0,3856.0,3813.0,3201.0,4095.0,4033.0,4095.0,4095.0,-6.22,0.29,23.97,-0.15,-0.96,-3.97,1.0,excuse-me
3182.0,987.0,3563.0,4095.0,3618.0,4095.0,4095.0,4095.0,3.61,4.03,-3.81,0.28,0.24,-0.28,0.0,1263.0,3842.0,3732.0,3291.0,4095.0,3973.0,4095.0,4095.0,0.45,1.19,-1.58,-0.8,1.43,1.96,1.0,excuse-me
3167.0,979.0,3551.0,4095.0,3617.0,4095.0,4095.0,4095.0,3.85,3.57,-5.05,0.07,0.05,-0.23,0.0,1250.0,3799.0,3730.0,3295.0,4095.0,3930.0,4095.0,4095.0,2.66,6.13,18.29,-0.24,-0.86,-3.37,1.0,excuse-me
3174.0,982.0,3558.0,4095.0,3629.0,4095.0,4095.0,4095.0,3.6,3.69,-4.02,0.18,0.03,-0.14,0.0,1280.0,3839.0,3687.0,3306.0,4095.0,3871.0,4095.0,4095.0,-20.73,-5.97,11.82,2.93,1.13,-0.5,1.0,excuse-me
3178.0,977.0,3552.0,4095.0,3575.0,3998.0,4095.0,4095.0,3.45,3.42,-3.75,-0.18,-0.03,-0.01,0.0,1267.0,3823.0,3680.0,3279.0,4095.0,3935.0,4095.0,4095.0,8.49,11.05,19.53,-1.29,-0.91,-2.44,1.0,excuse-me
3185.0,966.0,3567.0,4095.0,3583.0,4010.0,4095.0,4095.0,4.35,3.11,-4.01,0.01,-0.1,-0.0,0.0,1296.0,3856.0,3562.0,3349.0,4095.0,3932.0,4095.0,4095.0,-8.61,-2.97,2.45,1.55,1.42,2.01,1.0,excuse-me
3184.0,976.0,3564.0,4095.0,3613.0,4039.0,4095.0,4095.0,4.6,2.59,-5.22,-0.02,-0.05,-0.18,0.0,1280.0,3815.0,3579.0,3351.0,4095.0,3978.0,4095.0,4095.0,6.16,4.55,1.24,-0.94,1.27,2.09,1.0,excuse-me
3173.0,976.0,3559.0,4095.0,3575.0,4065.0,4095.0,4095.0,3.86,3.15,-4.28,-0.08,-0.03,-0.21,0.0,1313.0,3833.0,3579.0,3295.0,4095.0,3979.0,4095.0,4095.0,-3.69,1.37,18.41,-0.71,-0.35,-3.46,1.0,excuse-me
3188.0,960.0,3568.0,4095.0,3615.0,4079.0,4095.0,4095.0,3.8,3.4,-4.85,0.08,0.0,-0.13,0.0,1339.0,3863.0,3549.0,3335.0,4095.0,3947.0,4095.0,4095.0,-9.6,-0.43,7.49,0.66,-0.37,0.03,1.0,excuse-me
3191.0,977.0,3543.0,4095.0,3617.0,4095.0,4095.0,4095.0,3.98,3.18,-4.83,-0.03,-0.04,-0.24,0.0,1329.0,3861.0,3543.0,3371.0,4095.0,3963.0,4095.0,4095.0,-0.17,4.84,8.26,0.08,-0.13,0.01,1.0,excuse-me
3182.0,975.0,3549.0,4095.0,3611.0,4089.0,4095.0,4095.0,3.79,3.61,-4.52,-0.07,0.01,-0.15,0.0,1326.0,3865.0,3555.0,3379.0,4095.0,3987.0,4095.0,4095.0,-1.79,4.49,8.92,-0.09,-0.09,-0.05,1.0,excuse-me
3185.0,970.0,3555.0,4095.0,3600.0,4065.0,4095.0,4095.0,3.98,3.51,-4.42,-0.02,0.07,-0.13,0.0,1313.0,3855.0,3547.0,3381.0,4095.0,3973.0,4095.0,4095.0,-2.06,4.35,8.8,-0.14,0.01,0.01,1.0,excuse-me
3170.0,971.0,3566.0,4095.0,3620.0,4060.0,4095.0,4095.0,4.04,3.53,-4.33,0.0,-0.01,-0.17,0.0,1306.0,3862.0,3541.0,3390.0,4095.0,3973.0,4095.0,4095.0,-2.24,4.07,9.02,-0.15,0.01,-0.05,1.0,excuse-me
3168.0,965.0,3568.0,4095.0,3601.0,4067.0,4095.0,4095.0,4.15,3.54,-4.4,0.03,0.03,-0.2,0.0,1312.0,3849.0,3546.0,3391.0,4095.0,3970.0,4095.0,4095.0,-2.47,3.99,9.11,-0.08,0.03,-0.01,1.0,excuse-me
3197.0,966.0,3543.0,4095.0,3629.0,4071.0,4095.0,4095.0,4.0,3.52,-4.41,-0.01,0.03,-0.16,0.0,1311.0,3842.0,3536.0,3393.0,4095.0,3992.0,4095.0,4095.0,-2.38,4.06,8.88,-0.0,0.05,-0.01,1.0,excuse-me
3199.0,975.0,3248.0,3727.0,2755.0,2857.0,3630.0,3165.0,10.09,-0.26,4.34,0.23,-0.46,-0.52,0.0,1665.0,3195.0,3575.0,3107.0,4095.0,3854.0,4095.0,4095.0,-6.72,-5.57,5.73,-0.06,0.11,0.08,1.0,excuse-me
3221.0,981.0,2695.0,3693.0,2681.0,2854.0,3629.0,3201.0,10.62,0.73,3.64,0.07,-0.95,-0.72,0.0,2069.0,3285.0,3699.0,3071.0,4095.0,3875.0,4095.0,4095.0,-5.35,-4.92,6.12,-0.16,-0.23,0.34,1.0,excuse-me
2949.0,1310.0,3056.0,3651.0,3122.0,3229.0,4085.0,3499.0,4.76,2.93,1.14,0.11,-5.17,-1.54,0.0,2377.0,3473.0,3705.0,3062.0,4095.0,3913.0,4095.0,4095.0,-3.47,-3.14,6.92,-0.27,-0.19,-0.14,1.0,excuse-me
3855.0,1007.0,3420.0,4095.0,3447.0,3888.0,4095.0,4095.0,8.15,3.08,-3.62,0.67,-1.66,-0.66,0.0,2170.0,2864.0,3579.0,3373.0,4095.0,4095.0,4095.0,4095.0,-14.23,-12.78,13.7,4.33,0.83,0.08,1.0,excuse-me
3741.0,1341.0,3442.0,4095.0,3569.0,4095.0,4095.0,4095.0,5.26,2.34,-4.55,0.12,-0.59,-0.16,0.0,941.0,3249.0,3218.0,3341.0,4095.0,4095.0,4095.0,4095.0,-11.42,-11.27,2.12,3.65,1.15,3.96,1.0,excuse-me
3730.0,1391.0,3468.0,4095.0,3615.0,4095.0,4095.0,4095.0,4.72,2.26,-4.42,-0.37,0.02,-0.1,0.0,927.0,4095.0,3408.0,3062.0,4095.0,4095.0,4095.0,4095.0,6.32,1.64,1.26,-2.84,-0.34,2.5,1.0,excuse-me
3723.0,1408.0,3489.0,4095.0,3600.0,4095.0,4095.0,4095.0,4.26,2.32,-3.74,-0.41,0.03,-0.08,0.0,927.0,4095.0,3174.0,3119.0,4095.0,4095.0,4095.0,4095.0,14.43,8.42,15.9,-2.49,-0.98,-1.5,1.0,excuse-me
3725.0,1413.0,3491.0,4095.0,3613.0,4095.0,4095.0,4095.0,3.36,3.2,-3.97,-0.11,0.11,-0.12,0.0,962.0,4095.0,2863.0,3146.0,4095.0,4095.0,4095.0,4095.0,-17.87,-4.49,28.13,1.53,-0.16,-1.88,1.0,excuse-me
3726.0,1398.0,3486.0,4095.0,3609.0,4095.0,4095.0,4095.0,4.06,3.78,-4.44,0.15,-0.02,-0.17,0.0,946.0,4095.0,2928.0,3198.0,4095.0,4095.0,4095.0,4095.0,4.53,3.22,1.23,-0.93,1.48,1.86,1.0,excuse-me
3730.0,1394.0,3503.0,4095.0,3575.0,4095.0,4095.0,4095.0,4.46,2.85,-5.28,-0.02,-0.07,-0.22,0.0,925.0,4095.0,2947.0,3216.0,4095.0,4095.0,4095.0,4095.0,12.14,8.93,9.27,-2.56,0.17,-0.74,1.0,excuse-me
3728.0,1363.0,3491.0,4095.0,3600.0,4095.0,4095.0,4095.0,3.73,3.58,-5.04,-0.1,-0.17,-0.14,0.0,933.0,4095.0,2915.0,3213.0,4095.0,4095.0,4095.0,4095.0,-15.25,-3.14,8.4,2.95,0.4,0.21,1.0,excuse-me
3738.0,1379.0,3489.0,4095.0,3601.0,4095.0,4095.0,4095.0,4.54,3.39,-5.15,0.11,-0.05,-0.25,0.0,909.0,4095.0,2837.0,3245.0,4095.0,4095.0,4095.0,4095.0,-2.24,-0.49,-3.42,-0.28,0.7,2.33,1.0,excuse-me
3714.0,1364.0,3493.0,4095.0,3600.0,4095.0,4095.0,4095.0,3.68,3.19,-5.1,-0.05,0.0,-0.31,0.0,912.0,4095.0,2053.0,3280.0,4095.0,4095.0,4095.0,4095.0,9.57,8.12,16.18,-0.92,-0.67,-2.35,1.0,excuse-me
3721.0,1391.0,3511.0,4095.0,3613.0,4095.0,4095.0,4095.0,3.7,3.47,-3.68,0.15,0.01,-0.08,0.0,937.0,4095.0,1420.0,3247.0,4095.0,4095.0,4095.0,4095.0,-20.04,-6.25,23.74,1.85,-0.4,-1.6,1.0,excuse-me
3735.0,1401.0,3507.0,4095.0,3583.0,4095.0,4095.0,4095.0,4.29,2.88,-5.2,0.17,0.05,-0.16,0.0,912.0,4095.0,1040.0,3251.0,4095.0,4095.0,4095.0,4095.0,7.36,5.01,0.94,-0.93,1.11,1.68,1.0,excuse-me
3738.0,1392.0,3500.0,4095.0,3582.0,4095.0,4095.0,4095.0,3.73,3.45,-5.43,-0.06,0.03,-0.08,0.0,921.0,4095.0,1008.0,3261.0,4095.0,4095.0,4095.0,4095.0,10.21,8.47,9.32,-2.63,-0.31,-0.88,1.0,excuse-me
3731.0,1582.0,3498.0,4095.0,3579.0,4083.0,4095.0,4095.0,3.53,3.49,-4.18,0.03,0.07,-0.1,0.0,944.0,4095.0,1657.0,3267.0,4095.0,4095.0,4095.0,4095.0,-8.29,0.38,6.67,0.8,-0.0,-0.33,1.0,excuse-me
3729.0,1583.0,3504.0,4095.0,3583.0,4095.0,4095.0,4095.0,4.15,3.1,-5.04,-0.07,0.03,-0.09,0.0,946.0,4095.0,1713.0,3311.0,4095.0,4095.0,4095.0,4095.0,-1.1,3.75,8.35,-0.11,0.07,-0.15,1.0,excuse-me
3733.0,1581.0,3510.0,4095.0,3597.0,4095.0,4095.0,4095.0,3.71,3.44,-4.57,-0.02,0.0,-0.1,0.0,938.0,4095.0,1690.0,3313.0,4095.0,4095.0,4095.0,4095.0,-2.04,3.72,9.05,0.02,-0.05,-0.01,1.0,excuse-me
3745.0,1557.0,3498.0,4095.0,3583.0,4095.0,4095.0,4095.0,3.9,3.31,-4.29,-0.04,0.11,-0.1,0.0,939.0,4095.0,1693.0,3326.0,4095.0,4095.0,4095.0,4095.0,-1.73,3.63,9.17,-0.05,0.02,-0.02,1.0,excuse-me
3561.0,938.0,3825.0,3646.0,2905.0,2819.0,3475.0,3059.0,9.05,0.15,0.59,0.1,-0.02,-0.26,0.0,940.0,3972.0,1287.0,3211.0,4095.0,3792.0,4095.0,4095.0,-5.62,-3.54,8.0,-0.21,0.05,0.06,1.0,excuse-me
3567.0,944.0,3920.0,3647.0,2907.0,2832.0,3510.0,3070.0,9.5,-0.01,0.51,0.14,-0.11,-0.17,0.0,935.0,4095.0,1201.0,3206.0,4095.0,3814.0,4095.0,4095.0,-5.32,-3.11,7.39,-0.18,-0.0,0.05,1.0,excuse-me
3443.0,1040.0,3970.0,3600.0,2832.0,2767.0,3335.0,2960.0,8.68,1.76,-1.45,0.34,-2.94,-0.66,0.0,919.0,4095.0,2514.0,3150.0,4095.0,3804.0,4095.0,4095.0,-5.75,-1.87,8.45,-0.26,-0.33,0.01,1.0,excuse-me
3310.0,2758.0,937.0,3731.0,2857.0,2833.0,3455.0,3218.0,7.4,1.77,-4.76,0.63,-2.34,-0.74,0.0,926.0,4095.0,3120.0,3223.0,4095.0,3891.0,4095.0,4095.0,-11.13,-3.89,16.16,1.27,-0.66,0.89,1.0,excuse-me
3281.0,1535.0,1056.0,4095.0,3087.0,3179.0,4080.0,4095.0,6.2,0.64,-6.58,-0.97,-0.48,-1.11,0.0,923.0,4095.0,3295.0,2360.0,4095.0,4095.0,4095.0,4095.0,-4.96,-1.25,2.3,0.85,-0.07,3.82,1.0,excuse-me
3349.0,1037.0,3519.0,4029.0,3318.0,3696.0,4095.0,4095.0,4.99,0.96,-3.54,-0.07,-0.32,-0.38,0.0,925.0,4095.0,3216.0,2323.0,4095.0,4095.0,4095.0,4095.0,1.41,4.04,4.94,-0.18,-0.99,2.8,1.0,excuse-me
3376.0,1015.0,3504.0,4080.0,3344.0,3703.0,4095.0,4095.0,4.09,1.99,-3.8,-0.23,-0.13,-0.32,0.0,919.0,4095.0,3204.0,2375.0,4095.0,4095.0,4095.0,4095.0,2.18,4.62,4.23,-1.33,0.39,0.94,1.0,excuse-me
3403.0,1005.0,3495.0,4095.0,3335.0,3650.0,4095.0,4095.0,3.64,3.96,-4.33,-0.03,0.21,-0.24,0.0,955.0,4095.0,3242.0,2379.0,4095.0,4095.0,4095.0,4095.0,-2.58,4.14,19.0,0.19,-1.09,-2.24,1.0,excuse-me
3411.0,1008.0,3487.0,4095.0,3309.0,3625.0,4095.0,4095.0,4.49,3.57,-3.78,0.1,0.23,-0.33,0.0,1042.0,4095.0,3360.0,2277.0,4095.0,4095.0,4095.0,4095.0,1.28,2.3,-1.41,0.38,0.64,1.6,1.0,excuse-me
3440.0,1022.0,3489.0,4095.0,3314.0,3629.0,4095.0,4095.0,4.14,3.13,-4.75,0.03,-0.05,-0.23,0.0,960.0,4095.0,3887.0,2221.0,4095.0,4048.0,4095.0,4095.0,3.84,5.66,5.53,-1.88,1.32,0.56,1.0,excuse-me
3449.0,1018.0,3501.0,4095.0,3307.0,3583.0,4095.0,4095.0,3.55,3.42,-4.26,-0.05,0.17,-0.16,0.0,971.0,4095.0,4095.0,2482.0,4095.0,4095.0,4095.0,4095.0,-8.51,0.05,17.3,0.35,-0.99,-2.99,1.0,excuse-me
3433.0,1023.0,3493.0,4095.0,3315.0,3609.0,4095.0,4095.0,4.09,3.72,-3.9,0.03,-0.03,-0.23,0.0,989.0,4095.0,4070.0,2304.0,4095.0,4080.0,4095.0,4095.0,-13.53,-2.82,5.86,2.07,0.53,0.88,1.0,excuse-me
3422.0,1003.0,3499.0,4095.0,3326.0,3616.0,4095.0,4095.0,4.07,3.03,-4.79,0.03,-0.09,-0.22,0.0,983.0,4095.0,4095.0,2359.0,4095.0,4095.0,4095.0,4095.0,0.29,1.78,1.38,0.0,0.46,2.11,1.0,excuse-me
3441.0,998.0,3487.0,4095.0,3286.0,3655.0,4095.0,4095.0,3.63,3.1,-4.94,0.14,-0.06,-0.25,0.0,971.0,4095.0,4095.0,2303.0,4095.0,4095.0,4095.0,4095.0,8.27,6.96,4.88,-1.74,1.1,0.48,1.0,excuse-me
3429.0,1005.0,3491.0,4095.0,3405.0,3747.0,4095.0,4095.0,2.98,3.56,-4.64,-0.02,0.03,-0.14,0.0,1090.0,4095.0,4084.0,2397.0,4095.0,4095.0,4095.0,4095.0,-17.51,-2.35,20.49,2.01,-0.1,-0.8,1.0,excuse-me
3425.0,985.0,3473.0,4095.0,3407.0,3780.0,4095.0,4095.0,3.82,3.62,-4.32,-0.03,-0.01,-0.07,0.0,1070.0,4095.0,4095.0,2393.0,4095.0,4095.0,4095.0,4095.0,-4.57,-1.53,-0.29,1.74,0.51,2.0,1.0,excuse-me
3432.0,987.0,3493.0,4095.0,3454.0,3799.0,4095.0,4095.0,3.92,3.01,-4.45,0.04,-0.06,-0.18,0.0,1042.0,4095.0,4095.0,2368.0,4095.0,4095.0,4095.0,4095.0,4.25,3.17,2.75,-0.85,1.19,1.94,1.0,excuse-me
3457.0,993.0,3488.0,4095.0,3453.0,3812.0,4095.0,4095.0,4.13,3.51,-4.97,-0.0,0.03,-0.16,0.0,1023.0,4095.0,4078.0,2384.0,4095.0,4095.0,4095.0,4095.0,4.91,4.02,15.43,-1.11,-0.65,-3.25,1.0,excuse-me
3421.0,992.0,3478.0,4095.0,3435.0,3819.0,4095.0,4095.0,4.02,3.54,-4.04,-0.07,0.08,-0.14,0.0,1072.0,4095.0,4095.0,2483.0,4095.0,4095.0,4095.0,4095.0,-1.54,3.28,7.3,0.22,0.18,0.05,1.0,excuse-me
3434.0,1003.0,3473.0,4095.0,3455.0,3817.0,4095.0,4095.0,3.65,3.48,-4.38,-0.03,0.01,-0.15,0.0,1062.0,4095.0,4063.0,2492.0,4095.0,4095.0,4095.0,4095.0,-2.18,3.35,8.88,-0.09,0.17,-0.17,1.0,excuse-me
4095.0,1131.0,4095.0,3829.0,2932.0,2741.0,3463.0,2977.0,8.95,0.11,-3.2,0.0,0.05,-0.25,0.0,935.0,4068.0,4095.0,3509.0,4095.0,3807.0,4095.0,4027.0,-4.83,-3.97,7.51,-0.13,0.08,-0.05,1.0,excuse-me
4075.0,1140.0,4095.0,3853.0,2935.0,2758.0,3495.0,3046.0,7.95,0.37,-1.59,-0.25,0.02,-0.32,0.0,937.0,4095.0,4095.0,2935.0,4095.0,4095.0,4095.0,4095.0,-5.49,-3.08,8.35,0.22,0.23,-0.22,1.0,excuse-me
3518.0,1273.0,4095.0,3952.0,2995.0,2996.0,3703.0,3459.0,6.97,2.38,-6.14,-0.04,-2.76,0.01,0.0,944.0,4095.0,4095.0,2831.0,4095.0,4095.0,4095.0,4095.0,-10.91,-4.48,17.69,1.5,-0.23,0.42,1.0,excuse-me
3413.0,1069.0,3552.0,4095.0,3248.0,3457.0,4095.0,4095.0,6.03,-0.41,-5.1,-0.88,-0.82,-0.73,0.0,941.0,4095.0,4095.0,2395.0,4095.0,4095.0,4095.0,4095.0,-0.67,-2.66,-5.07,1.26,0.45,4.38,1.0,excuse-me
3462.0,1020.0,3492.0,4095.0,3290.0,3582.0,4095.0,4095.0,4.31,2.53,-2.86,-0.45,-0.04,-0.53,0.0,923.0,3944.0,4095.0,2559.0,4095.0,4095.0,4095.0,4095.0,8.99,6.6,17.16,-2.28,-1.59,-0.99,1.0,excuse-me
3460.0,1017.0,3477.0,4095.0,3287.0,3598.0,4095.0,4095.0,3.25,3.49,-3.21,-0.19,0.07,-0.45,0.0,932.0,3949.0,4095.0,2657.0,4095.0,4095.0,4095.0,4095.0,-6.29,-0.02,21.67,0.79,-1.12,-3.3,1.0,excuse-me
3472.0,1031.0,3485.0,4095.0,3319.0,3603.0,4095.0,4095.0,3.7,3.94,-3.55,0.13,0.19,-0.38,0.0,934.0,3920.0,4095.0,2703.0,4095.0,4095.0,4095.0,4095.0,-2.31,0.72,-1.87,0.74,0.31,2.64,1.0,excuse-me
3470.0,1034.0,3479.0,4095.0,3327.0,3597.0,4095.0,4095.0,4.32,3.1,-5.2,0.09,-0.13,-0.27,0.0,925.0,3898.0,4095.0,2708.0,4095.0,4095.0,4095.0,4095.0,7.49,6.54,0.51,-1.79,1.62,1.53,1.0,excuse-me
3446.0,999.0,3474.0,4095.0,3331.0,3618.0,4095.0,4095.0,3.5,3.74,-4.42,-0.13,-0.05,-0.11,0.0,928.0,3897.0,4095.0,2746.0,4095.0,4095.0,4095.0,4095.0,-11.11,-3.55,22.97,0.73,-0.39,-2.95,1.0,excuse-me
3468.0,1002.0,3463.0,4073.0,3344.0,3613.0,4095.0,4095.0,3.35,3.9,-4.15,0.21,-0.0,-0.28,0.0,942.0,3898.0,4095.0,2717.0,4095.0,4095.0,4095.0,4095.0,-11.19,-2.18,-1.09,2.13,0.31,1.55,1.0,excuse-me
3469.0,1006.0,3440.0,4095.0,3388.0,3654.0,4095.0,4095.0,4.53,2.77,-4.85,0.07,-0.04,-0.25,0.0,922.0,3866.0,4095.0,2703.0,4095.0,4095.0,4095.0,4095.0,11.75,8.52,11.95,-1.95,0.3,-0.64,1.0,excuse-me
3458.0,1013.0,3472.0,4095.0,3391.0,3663.0,4095.0,4095.0,3.55,3.64,-5.05,-0.0,0.02,-0.21,0.0,931.0,3869.0,4095.0,2745.0,4095.0,4095.0,4095.0,4095.0,0.35,2.87,23.27,0.03,-1.02,-3.16,1.0,excuse-me
3465.0,1008.0,3450.0,4095.0,3399.0,3664.0,4095.0,4095.0,3.76,3.66,-3.94,0.04,0.05,-0.16,0.0,929.0,3893.0,4095.0,2672.0,4095.0,4095.0,4095.0,4095.0,-18.6,-6.84,9.04,3.17,0.55,-0.03,1.0,excuse-me
3459.0,1011.0,3451.0,4095.0,3392.0,3690.0,4095.0,4095.0,3.97,3.32,-4.71,0.11,-0.18,-0.21,0.0,929.0,3879.0,4095.0,2725.0,4095.0,4095.0,4095.0,4095.0,6.78,5.56,2.37,-2.04,1.48,1.39,1.0,excuse-me
3443.0,1010.0,3463.0,4090.0,3408.0,3654.0,4095.0,4095.0,3.51,3.52,-5.16,-0.0,0.09,-0.21,0.0,926.0,3888.0,4095.0,2783.0,4095.0,4095.0,4095.0,4095.0,-14.08,-5.21,12.45,0.28,0.24,-2.41,1.0,excuse-me
3443.0,999.0,3463.0,4065.0,3414.0,3632.0,4095.0,4095.0,4.0,3.32,-4.24,-0.15,0.1,-0.14,0.0,926.0,3840.0,4095.0,2803.0,4095.0,4095.0,4095.0,4095.0,-3.63,2.2,6.96,0.65,-0.28,0.04,1.0,excuse-me
3450.0,1011.0,3461.0,4071.0,3414.0,3660.0,4095.0,4095.0,3.91,3.32,-4.78,-0.02,0.01,-0.17,0.0,926.0,3845.0,4095.0,2821.0,4095.0,4095.0,4095.0,4095.0,-3.04,2.89,9.2,-0.13,0.15,-0.05,1.0,excuse-me
3456.0,1001.0,3440.0,4062.0,3407.0,3635.0,4095.0,4095.0,3.81,3.6,-4.44,-0.03,-0.0,-0.15,0.0,919.0,3850.0,4095.0,2818.0,4095.0,4095.0,4095.0,4095.0,-2.48,3.05,9.37,-0.05,0.05,-0.01,1.0,excuse-me
3463.0,1001.0,3456.0,4093.0,3408.0,3645.0,4095.0,4095.0,3.92,3.62,-4.72,0.02,0.02,-0.16,0.0,929.0,3841.0,4095.0,2823.0,4095.0,4095.0,4095.0,4095.0,-2.52,2.85,9.49,-0.07,-0.03,-0.06,1.0,excuse-me
3456.0,1011.0,3465.0,4080.0,3409.0,3650.0,4095.0,4095.0,3.85,3.6,-4.41,0.03,-0.01,-0.13,0.0,923.0,3853.0,4095.0,2819.0,4095.0,4095.0,4095.0,4095.0,-2.41,3.01,9.4,-0.04,0.14,0.0,1.0,excuse-me
3042.0,1610.0,2854.0,3495.0,2910.0,2953.0,3803.0,3131.0,9.13,0.47,3.98,-0.12,-0.45,-2.18,0.0,1072.0,3702.0,3049.0,3213.0,4095.0,3929.0,4095.0,4095.0,-3.8,-8.12,7.23,0.55,0.29,0.76,1.0,excuse-me
3303.0,1104.0,1637.0,4042.0,3174.0,3429.0,4095.0,4095.0,5.55,3.35,-2.27,0.34,-6.48,-1.44,0.0,990.0,4095.0,2096.0,3283.0,4095.0,4095.0,4095.0,4095.0,-9.99,-14.98,9.87,3.25,1.01,2.74,1.0,excuse-me
3427.0,1002.0,3546.0,4091.0,3506.0,4051.0,4095.0,4095.0,5.83,2.72,-3.78,-0.07,-0.71,-0.42,0.0,918.0,4095.0,1492.0,2469.0,4095.0,4095.0,4095.0,4095.0,6.25,5.03,-0.21,-1.74,-1.04,2.29,1.0,excuse-me
3423.0,994.0,3556.0,4095.0,3507.0,4033.0,4095.0,4095.0,5.0,2.69,-3.64,-0.19,-0.35,-0.38,0.0,910.0,4095.0,978.0,2517.0,4095.0,4095.0,4095.0,4095.0,10.31,5.82,9.89,-2.9,-0.74,-0.27,1.0,excuse-me
3431.0,993.0,3547.0,4093.0,3508.0,3996.0,4095.0,4095.0,4.22,3.46,-3.79,-0.14,0.11,-0.31,0.0,904.0,4095.0,944.0,2671.0,4095.0,4095.0,4095.0,4095.0,3.08,2.3,25.29,-0.76,-0.21,-3.29,1.0,excuse-me
3442.0,974.0,3514.0,4067.0,3526.0,3967.0,4095.0,4095.0,3.86,4.1,-3.43,0.15,-0.17,-0.27,0.0,914.0,4089.0,930.0,2650.0,4095.0,4095.0,4095.0,4095.0,-18.59,-5.65,9.86,2.2,1.21,0.29,1.0,excuse-me
3431.0,977.0,3499.0,4071.0,3522.0,3926.0,4095.0,4095.0,3.82,3.58,-5.02,0.12,-0.01,-0.21,0.0,914.0,4025.0,938.0,2635.0,4095.0,4095.0,4095.0,4095.0,-1.0,0.68,0.6,0.46,0.64,2.66,1.0,excuse-me
3441.0,979.0,3522.0,4088.0,3534.0,3920.0,4095.0,4095.0,4.17,3.2,-4.66,-0.0,0.0,-0.05,0.0,902.0,3935.0,928.0,2624.0,4095.0,4095.0,4095.0,4095.0,12.98,4.87,16.67,-2.0,-0.71,-2.03,1.0,excuse-me
3425.0,949.0,3505.0,4095.0,3504.0,3887.0,4095.0,4095.0,3.68,3.65,-4.08,-0.0,-0.02,-0.15,0.0,916.0,3978.0,902.0,2725.0,4095.0,4095.0,4095.0,4095.0,-13.38,-3.41,-0.42,2.15,0.57,1.09,1.0,excuse-me
3435.0,965.0,3506.0,4095.0,3504.0,3863.0,4095.0,4095.0,4.47,3.2,-4.84,0.03,-0.02,-0.09,0.0,906.0,3946.0,897.0,2707.0,4095.0,4095.0,4095.0,4095.0,12.65,7.73,9.64,-2.08,0.39,-0.1,1.0,excuse-me
3437.0,960.0,3489.0,4095.0,3503.0,3861.0,4095.0,4095.0,3.96,3.35,-4.79,0.03,0.01,-0.14,0.0,911.0,3963.0,903.0,2704.0,4095.0,4095.0,4095.0,4095.0,3.02,2.65,20.54,-0.66,-1.06,-2.9,1.0,excuse-me
3421.0,958.0,3499.0,4095.0,3514.0,3997.0,4095.0,4095.0,4.08,3.65,-4.01,0.02,-0.01,-0.17,0.0,912.0,3970.0,886.0,2715.0,4095.0,4095.0,4095.0,4095.0,-19.07,-8.06,17.63,2.43,0.61,-0.92,1.0,excuse-me
3436.0,975.0,3497.0,4095.0,3536.0,3998.0,4095.0,4095.0,3.74,3.69,-4.36,-0.02,-0.01,-0.16,0.0,918.0,3938.0,884.0,2739.0,4095.0,4095.0,4095.0,4095.0,-5.02,-1.67,-1.98,1.34,0.8,2.58,1.0,excuse-me
3444.0,974.0,3508.0,4095.0,3556.0,3999.0,4095.0,4095.0,4.25,2.79,-4.81,0.04,-0.06,-0.26,0.0,910.0,3934.0,880.0,2720.0,4095.0,4095.0,4095.0,4095.0,12.28,5.66,12.13,-2.27,-0.29,-1.28,1.0,excuse-me
3415.0,976.0,3484.0,4095.0,3568.0,4007.0,4095.0,4095.0,3.88,3.56,-4.64,0.06,-0.21,-0.12,0.0,912.0,3953.0,880.0,2704.0,4095.0,4095.0,4095.0,4095.0,-8.8,-2.7,16.15,0.29,-0.88,-2.84,1.0,excuse-me
3440.0,977.0,3511.0,4095.0,3553.0,4000.0,4095.0,4095.0,3.78,4.01,-3.89,0.04,-0.04,-0.2,0.0,902.0,3940.0,876.0,2793.0,4095.0,4095.0,4095.0,4095.0,-1.3,2.12,9.3,-0.03,-0.06,-0.13,1.0,excuse-me
3426.0,970.0,3504.0,4095.0,3558.0,4007.0,4095.0,4095.0,3.77,3.32,-4.75,0.03,-0.08,-0.24,0.0,917.0,3968.0,877.0,2799.0,4095.0,4095.0,4095.0,4095.0,-2.24,2.11,9.86,-0.02,-0.1,-0.15,1.0,excuse-me
3427.0,976.0,3490.0,4095.0,3549.0,3995.0,4095.0,4095.0,3.71,3.58,-4.53,0.04,-0.02,-0.18,0.0,914.0,3968.0,875.0,2794.0,4095.0,4095.0,4095.0,4095.0,-2.16,2.03,9.72,-0.02,-0.12,-0.01,1.0,excuse-me
3431.0,970.0,3473.0,4095.0,3555.0,3991.0,4095.0,4095.0,3.68,3.64,-4.59,-0.03,0.01,-0.14,0.0,912.0,3952.0,874.0,2805.0,4095.0,4095.0,4095.0,4095.0,-2.25,1.8,9.63,-0.09,-0.02,-0.06,1.0,excuse-me
3427.0,960.0,3497.0,4095.0,3575.0,3979.0,4095.0,4095.0,3.42,3.58,-4.37,0.06,-0.14,-0.17,0.0,917.0,3980.0,892.0,2801.0,4095.0,4095.0,4095.0,4095.0,-1.98,1.97,9.35,-0.21,0.01,0.07,1.0,excuse-me
3055.0,962.0,3792.0,3673.0,3133.0,2929.0,3680.0,3123.0,13.86,-2.69,0.51,-0.17,-2.52,0.09,0.0,1200.0,3911.0,2883.0,3322.0,4095.0,4095.0,4095.0,4095.0,-8.26,-6.71,10.98,2.11,0.42,0.52,1.0,excuse-me
3024.0,944.0,4095.0,3914.0,3331.0,3229.0,3881.0,3361.0,8.44,-1.94,-6.01,-1.45,-3.29,-1.96,0.0,1463.0,3971.0,3391.0,3339.0,4095.0,4095.0,4095.0,4095.0,-7.94,-6.91,9.33,2.48,0.51,1.56,1.0,excuse-me
3230.0,977.0,3568.0,3952.0,3503.0,4095.0,4095.0,4095.0,3.85,1.79,-0.38,-0.67,0.16,-0.64,0.0,923.0,4095.0,2893.0,2414.0,4095.0,4095.0,4095.0,4095.0,-1.23,-0.6,-2.32,-0.01,0.77,4.07,1.0,excuse-me
3239.0,962.0,3581.0,4069.0,3583.0,4095.0,4095.0,4095.0,3.85,2.95,-2.74,0.29,0.02,-0.54,0.0,923.0,4095.0,2351.0,2390.0,4095.0,4095.0,4095.0,4095.0,2.22,3.79,0.81,-2.27,-0.79,2.22,1.0,excuse-me
3261.0,966.0,3555.0,4095.0,3547.0,4095.0,4095.0,4095.0,3.55,4.2,-4.11,-0.02,0.06,-0.41,0.0,925.0,3982.0,930.0,2518.0,4095.0,4095.0,4095.0,4095.0,2.19,1.22,23.35,-0.8,-1.42,-3.3,1.0,excuse-me
3231.0,955.0,3535.0,4091.0,3557.0,4095.0,4095.0,4095.0,3.81,3.72,-4.17,0.03,0.13,-0.38,0.0,944.0,3986.0,923.0,2559.0,4095.0,4095.0,4095.0,4095.0,-16.97,-4.15,7.66,2.78,1.58,-0.29,1.0,excuse-me
3230.0,959.0,3536.0,4073.0,3568.0,4095.0,4095.0,4095.0,4.41,3.37,-4.75,-0.0,-0.13,-0.22,0.0,909.0,3945.0,887.0,2559.0,4095.0,4095.0,4095.0,4095.0,14.7,7.71,6.48,-1.77,1.2,0.94,1.0,excuse-me
3275.0,971.0,3554.0,4057.0,3600.0,4095.0,4095.0,4095.0,3.7,3.83,-4.01,-0.25,0.24,-0.13,0.0,924.0,3929.0,914.0,2619.0,4095.0,4095.0,4095.0,4095.0,-15.12,-7.73,22.77,2.3,0.43,-2.34,1.0,excuse-me
3238.0,976.0,3536.0,4095.0,3575.0,4095.0,4095.0,4095.0,4.05,4.17,-3.91,0.17,0.03,-0.27,0.0,909.0,3925.0,909.0,2627.0,4095.0,4095.0,4095.0,4095.0,-9.59,-2.36,-1.78,1.77,1.09,1.91,1.0,excuse-me
3230.0,960.0,3542.0,4095.0,3562.0,4095.0,4095.0,4095.0,4.65,3.33,-4.73,0.01,-0.01,-0.26,0.0,903.0,3913.0,912.0,2638.0,4095.0,4095.0,4095.0,4095.0,14.11,7.38,16.92,-2.34,-0.51,-1.19,1.0,excuse-me
3250.0,973.0,3528.0,4095.0,3570.0,4069.0,4095.0,4095.0,3.39,3.99,-4.08,0.05,0.11,-0.1,0.0,928.0,3924.0,901.0,2672.0,4095.0,4095.0,4095.0,4095.0,-6.12,-3.02,25.15,1.28,-1.2,-3.44,1.0,excuse-me
3248.0,971.0,3521.0,4095.0,3553.0,4029.0,4095.0,4095.0,3.56,4.24,-3.97,0.23,-0.1,-0.14,0.0,922.0,3942.0,902.0,2672.0,4095.0,4095.0,4095.0,4095.0,-14.69,-3.43,4.44,3.2,0.44,0.68,1.0,excuse-me
3254.0,974.0,3534.0,4095.0,3542.0,4048.0,4095.0,4095.0,4.33,3.54,-4.61,0.01,-0.17,-0.07,0.0,909.0,3922.0,895.0,2666.0,4095.0,4095.0,4095.0,4095.0,-1.42,0.62,-2.3,0.36,1.23,3.04,1.0,excuse-me
3242.0,979.0,3533.0,4095.0,3555.0,4036.0,4095.0,4095.0,4.11,3.59,-5.24,-0.02,-0.29,-0.28,0.0,912.0,3923.0,903.0,2643.0,4095.0,4095.0,4095.0,4095.0,9.08,5.63,21.16,-1.96,-1.06,-2.43,1.0,excuse-me
3244.0,976.0,3533.0,4095.0,3568.0,3983.0,4095.0,4095.0,3.33,3.89,-4.29,0.02,-0.06,0.0,0.0,927.0,3955.0,898.0,2693.0,4095.0,4095.0,4095.0,4095.0,-2.44,2.31,8.32,0.05,0.32,-0.38,1.0,excuse-me
3247.0,971.0,3513.0,4095.0,3575.0,4002.0,4095.0,4095.0,3.74,3.73,-5.1,-0.02,-0.05,0.01,0.0,923.0,3940.0,894.0,2701.0,4095.0,4095.0,4095.0,4095.0,-1.06,3.05,10.09,0.03,0.26,-0.22,1.0,excuse-me
3250.0,962.0,3514.0,4095.0,3568.0,3952.0,4095.0,4095.0,3.71,3.74,-4.47,-0.06,-0.01,-0.06,0.0,917.0,3955.0,894.0,2707.0,4095.0,4095.0,4095.0,4095.0,-1.33,2.91,9.29,0.1,0.07,-0.05,1.0,excuse-me
3249.0,976.0,3524.0,4095.0,3541.0,3915.0,4095.0,4095.0,4.09,3.75,-4.45,-0.02,0.02,-0.11,0.0,928.0,3952.0,892.0,2719.0,4095.0,4095.0,4095.0,4095.0,-1.44,3.11,9.76,0.02,-0.12,-0.05,1.0,excuse-me
3238.0,959.0,3519.0,4095.0,3555.0,3943.0,4095.0,4095.0,3.85,3.73,-4.35,-0.0,0.07,-0.15,0.0,941.0,3971.0,896.0,2710.0,4095.0,4095.0,4095.0,4095.0,-1.28,3.43,8.81,-0.07,-0.03,-0.06,1.0,excuse-me
3253.0,969.0,3539.0,4095.0,3571.0,4027.0,4095.0,4095.0,3.8,3.87,-4.47,0.06,-0.02,-0.16,0.0,929.0,3968.0,887.0,2730.0,4095.0,4095.0,4095.0,4095.0,-1.51,3.31,9.53,-0.08,0.07,-0.01,1.0,excuse-me
3022.0,2521.0,3125.0,3831.0,3219.0,3216.0,4065.0,3440.0,14.09,-0.26,0.7,-0.93,0.27,-2.23,0.0,1153.0,3333.0,1838.0,3070.0,4095.0,3935.0,4095.0,4095.0,-5.19,-5.46,6.74,0.04,0.33,0.18,1.0,excuse-me
3280.0,1054.0,3499.0,4095.0,3315.0,3682.0,4095.0,4095.0,1.76,0.9,5.1,1.2,-4.48,-0.44,0.0,1109.0,3670.0,1073.0,3163.0,4095.0,4095.0,4095.0,4095.0,-7.32,-5.18,12.54,0.24,0.41,0.12,1.0,excuse-me
3279.0,976.0,3287.0,3905.0,3459.0,4032.0,4095.0,4095.0,6.0,2.3,-9.75,1.12,-2.04,-0.14,0.0,1004.0,4095.0,893.0,3365.0,4095.0,4095.0,4095.0,4095.0,-15.89,-12.42,11.44,3.18,0.68,1.7,1.0,excuse-me
3280.0,981.0,3298.0,4095.0,3499.0,4095.0,4095.0,4095.0,6.01,2.19,-6.8,0.15,-0.67,0.12,0.0,975.0,4095.0,950.0,2861.0,4095.0,4095.0,4095.0,4095.0,-8.36,-9.48,-1.16,3.1,0.33,5.0,1.0,excuse-me
3291.0,976.0,3301.0,4095.0,3551.0,4095.0,4095.0,4095.0,5.1,1.49,-4.7,-0.55,-0.43,-0.11,0.0,954.0,4095.0,945.0,2489.0,4095.0,4095.0,4095.0,4095.0,-0.67,-3.59,-6.27,-0.85,0.37,4.84,1.0,excuse-me
3294.0,991.0,3310.0,4095.0,3559.0,4095.0,4095.0,4095.0,3.94,1.62,-4.47,-0.43,-0.1,-0.13,0.0,953.0,4095.0,892.0,2491.0,4095.0,4095.0,4095.0,4095.0,12.82,5.97,17.78,-1.91,-0.8,-2.68,1.0,excuse-me
3299.0,977.0,3307.0,4095.0,3554.0,4095.0,4095.0,4095.0,3.04,2.76,-4.51,-0.25,0.07,-0.07,0.0,959.0,4095.0,897.0,2525.0,4095.0,4095.0,4095.0,4095.0,-16.96,-5.73,20.93,0.96,-0.59,-2.26,1.0,excuse-me
3290.0,982.0,3318.0,4095.0,3519.0,4051.0,4095.0,4095.0,3.91,3.11,-4.75,0.33,0.13,-0.35,0.0,951.0,4095.0,897.0,2559.0,4095.0,4095.0,4095.0,4095.0,-9.3,-2.15,3.63,2.18,0.94,1.68,1.0,excuse-me
3286.0,993.0,3313.0,4095.0,3536.0,4036.0,4095.0,4095.0,3.94,2.67,-5.54,0.03,-0.11,-0.37,0.0,959.0,4095.0,894.0,2525.0,4095.0,4095.0,4095.0,4095.0,11.44,5.81,17.03,-2.28,-0.33,-0.82,1.0,excuse-me
3287.0,982.0,3312.0,4095.0,3535.0,3999.0,4095.0,4095.0,2.86,3.45,-4.68,0.05,0.11,-0.14,0.0,961.0,4095.0,893.0,2559.0,4095.0,4095.0,4095.0,4095.0,-13.65,-3.82,10.74,2.84,1.89,-0.75,1.0,excuse-me
3290.0,989.0,3328.0,4095.0,3536.0,3998.0,4095.0,4095.0,4.21,3.03,-4.99,0.16,-0.16,-0.2,0.0,948.0,4095.0,885.0,2624.0,4095.0,4095.0,4095.0,4095.0,-7.27,-2.61,-6.34,0.06,1.36,2.39,1.0,excuse-me
3306.0,982.0,3331.0,4095.0,3561.0,3974.0,4095.0,4095.0,3.1,3.09,-5.13,-0.1,0.21,-0.15,0.0,945.0,4095.0,895.0,2559.0,4095.0,4095.0,4095.0,4095.0,16.93,7.47,22.44,-1.66,-2.48,-2.26,1.0,excuse-me
3297.0,983.0,3331.0,4095.0,3542.0,3984.0,4095.0,4095.0,3.52,3.5,-4.14,-0.13,0.22,-0.1,0.0,958.0,4095.0,895.0,2635.0,4095.0,4095.0,4095.0,4095.0,-9.0,-4.17,-1.94,2.34,1.15,2.82,1.0,excuse-me
3291.0,993.0,3350.0,4095.0,3536.0,3911.0,4095.0,4095.0,3.97,3.15,-5.32,-0.25,-0.01,0.06,0.0,933.0,4095.0,896.0,2611.0,4095.0,4095.0,4095.0,4095.0,7.04,3.86,-1.54,-1.39,1.09,2.44,1.0,excuse-me
3294.0,989.0,3341.0,4095.0,3524.0,3875.0,4095.0,4095.0,4.17,3.69,-4.23,-0.06,0.01,-0.22,0.0,944.0,4095.0,901.0,2663.0,4095.0,4095.0,4095.0,4095.0,13.82,5.06,15.41,-2.66,-0.04,-1.45,1.0,excuse-me
3311.0,995.0,3371.0,4095.0,3555.0,3863.0,4095.0,4095.0,3.41,3.44,-4.33,-0.0,0.04,-0.13,0.0,949.0,4095.0,895.0,2765.0,4095.0,4095.0,4095.0,4095.0,-2.34,1.43,8.92,0.0,0.27,-0.0,1.0,excuse-me
3282.0,985.0,3369.0,4095.0,3557.0,3877.0,4095.0,4095.0,3.38,3.68,-4.3,0.11,0.1,-0.06,0.0,943.0,4095.0,903.0,2758.0,4095.0,4095.0,4095.0,4095.0,-2.84,1.85,10.51,-0.34,0.33,0.03,1.0,excuse-me
3285.0,991.0,3351.0,4095.0,3559.0,3843.0,4095.0,4095.0,4.13,3.57,-4.49,0.0,0.07,-0.2,0.0,974.0,4095.0,897.0,2753.0,4095.0,4095.0,4095.0,4095.0,-2.64,1.9,9.45,0.12,0.04,-0.03,1.0,excuse-me
3302.0,987.0,3363.0,4095.0,3557.0,3869.0,4095.0,4095.0,3.85,3.76,-4.58,-0.0,0.1,-0.17,0.0,969.0,4095.0,893.0,2749.0,4095.0,4095.0,4095.0,4095.0,-3.13,1.8,9.47,-0.01,0.0,0.07,1.0,excuse-me
3291.0,979.0,3370.0,4095.0,3551.0,3856.0,4095.0,4095.0,4.12,3.44,-4.19,-0.0,0.18,-0.17,0.0,980.0,4095.0,895.0,2707.0,4095.0,4095.0,4095.0,4095.0,-2.99,1.87,9.79,0.01,0.01,0.03,1.0,excuse-me
3214.0,1061.0,989.0,3565.0,3032.0,3282.0,4095.0,3905.0,8.52,1.96,-6.88,0.19,-2.99,-1.15,0.0,985.0,4095.0,898.0,3232.0,4095.0,4095.0,4095.0,4095.0,-6.52,-9.3,12.46,2.63,1.95,1.08,1.0,excuse-me
3233.0,1039.0,2398.0,4095.0,3268.0,3466.0,4095.0,4095.0,6.88,1.35,-5.22,-0.33,-1.04,-0.41,0.0,961.0,4095.0,891.0,2881.0,4095.0,4095.0,4095.0,4095.0,-3.42,-2.98,-0.46,1.51,1.64,4.16,1.0,excuse-me
3248.0,967.0,3562.0,3920.0,3492.0,3821.0,4095.0,4095.0,6.14,0.99,-5.06,-0.74,-0.53,-0.46,0.0,966.0,4095.0,880.0,2453.0,4095.0,4095.0,4095.0,4095.0,1.35,1.35,-2.43,-2.57,0.97,3.71,1.0,excuse-me
3249.0,981.0,3562.0,3961.0,3572.0,3962.0,4095.0,4095.0,5.58,1.74,-2.9,-0.42,-0.22,-0.52,0.0,971.0,4095.0,883.0,2369.0,4095.0,4095.0,4095.0,4095.0,4.9,3.27,8.42,-3.39,0.01,1.37,1.0,excuse-me
3266.0,976.0,3533.0,3973.0,3568.0,4009.0,4095.0,4095.0,3.78,3.64,-3.89,-0.02,-0.01,-0.44,0.0,959.0,4095.0,879.0,2509.0,4095.0,4095.0,4095.0,4095.0,-9.72,-7.81,24.41,0.51,-1.01,-3.01,1.0,excuse-me
3265.0,987.0,3528.0,3997.0,3550.0,4002.0,4095.0,4095.0,3.75,3.76,-4.17,0.14,-0.01,-0.35,0.0,965.0,4095.0,886.0,2538.0,4095.0,4095.0,4095.0,4095.0,-11.64,-4.34,3.06,2.78,0.87,1.16,1.0,excuse-me
3267.0,986.0,3522.0,3967.0,3530.0,3931.0,4095.0,4095.0,4.14,2.82,-5.11,-0.01,0.02,-0.04,0.0,962.0,4095.0,881.0,2587.0,4095.0,4095.0,4095.0,4095.0,0.1,0.58,-1.51,-0.24,0.66,2.77,1.0,excuse-me
3263.0,991.0,3520.0,3905.0,3483.0,3909.0,4095.0,4095.0,4.11,3.0,-4.89,-0.01,-0.12,-0.08,0.0,962.0,4095.0,896.0,2559.0,4095.0,4095.0,4095.0,4095.0,14.48,7.77,11.47,-2.41,0.23,0.88,1.0,excuse-me
3274.0,995.0,3517.0,4095.0,3523.0,3875.0,4095.0,4095.0,3.82,3.52,-4.53,-0.13,-0.1,-0.07,0.0,950.0,4095.0,887.0,2559.0,4095.0,4095.0,4095.0,4095.0,10.57,3.54,18.92,-1.04,-0.96,-3.58,1.0,excuse-me
3270.0,989.0,3532.0,3951.0,3525.0,3888.0,4095.0,4095.0,4.37,3.48,-3.62,0.04,0.04,-0.13,0.0,959.0,4095.0,874.0,2643.0,4095.0,4095.0,4095.0,4095.0,-6.42,-1.94,-5.97,2.05,1.33,1.69,1.0,excuse-me
3267.0,976.0,3507.0,3719.0,3504.0,3898.0,4095.0,4095.0,3.97,3.36,-4.66,0.11,-0.09,-0.19,0.0,959.0,4095.0,880.0,2639.0,4095.0,4095.0,4095.0,4095.0,4.82,4.32,-1.35,-2.49,0.95,1.91,1.0,excuse-me
3259.0,986.0,3539.0,3865.0,3509.0,3903.0,4095.0,4095.0,3.36,3.29,-4.11,-0.2,-0.23,-0.09,0.0,958.0,4095.0,876.0,2642.0,4095.0,4095.0,4095.0,4095.0,14.9,7.84,18.6,-2.29,-1.37,-0.99,1.0,excuse-me
3280.0,972.0,3532.0,3738.0,3493.0,3905.0,4095.0,4095.0,3.52,3.56,-4.46,0.1,0.11,0.09,0.0,965.0,4095.0,873.0,2699.0,4095.0,4095.0,4095.0,4095.0,-5.19,-6.18,26.29,0.02,-0.03,-3.85,1.0,excuse-me
3276.0,976.0,3515.0,3953.0,3507.0,3925.0,4095.0,4095.0,3.91,3.52,-4.26,0.1,0.08,-0.17,0.0,965.0,4095.0,896.0,2691.0,4095.0,4095.0,4095.0,4095.0,1.2,0.94,-2.89,0.95,0.25,2.94,1.0,excuse-me
3269.0,973.0,3529.0,4095.0,3543.0,3925.0,4095.0,4095.0,3.94,2.9,-5.25,-0.0,0.06,-0.13,0.0,960.0,4095.0,883.0,2668.0,4095.0,4095.0,4095.0,4095.0,13.54,5.46,18.4,-2.43,-0.0,-2.88,1.0,excuse-me
3264.0,981.0,3520.0,4095.0,3547.0,3901.0,4095.0,4095.0,3.5,3.25,-3.91,-0.11,0.12,0.05,0.0,960.0,4095.0,885.0,2735.0,4095.0,4095.0,4095.0,4095.0,-11.13,-6.14,10.7,0.73,-0.31,-2.66,1.0,excuse-me
3280.0,969.0,3504.0,4095.0,3553.0,3886.0,4095.0,4095.0,4.09,3.5,-4.13,-0.08,0.01,-0.11,0.0,973.0,4095.0,881.0,2747.0,4095.0,4095.0,4095.0,4095.0,-4.37,-0.19,10.03,0.36,-0.16,-0.07,1.0,excuse-me
3277.0,985.0,3536.0,4095.0,3535.0,3897.0,4095.0,4095.0,3.8,3.16,-4.67,0.05,0.06,-0.18,0.0,974.0,4095.0,890.0,2775.0,4095.0,4095.0,4095.0,4095.0,-2.48,1.35,9.45,0.02,0.07,-0.07,1.0,excuse-me
3251.0,965.0,3536.0,4095.0,3543.0,3923.0,4095.0,4095.0,3.76,3.35,-4.56,0.03,-0.03,-0.18,0.0,965.0,4095.0,886.0,2773.0,4095.0,4095.0,4095.0,4095.0,-1.87,1.71,9.57,0.03,-0.01,-0.06,1.0,excuse-me
3275.0,981.0,3510.0,4095.0,3519.0,3909.0,4095.0,4095.0,4.0,3.17,-4.59,-0.03,0.06,-0.11,0.0,971.0,4095.0,880.0,2767.0,4095.0,4095.0,4095.0,4095.0,-2.33,1.78,9.44,-0.04,-0.12,-0.07,1.0,excuse-me
3298.0,1138.0,4095.0,3763.0,2923.0,2889.0,3721.0,3312.0,5.01,1.66,3.85,0.24,-0.84,-1.67,0.0,929.0,4095.0,2731.0,3063.0,4095.0,3967.0,4095.0,4095.0,-3.88,-7.84,9.05,1.03,-0.24,0.28,1.0,excuse-me
3313.0,1019.0,2276.0,3933.0,3322.0,3504.0,4095.0,4095.0,4.78,2.03,-5.78,-0.04,0.23,-0.09,0.0,938.0,4095.0,2206.0,3110.0,4095.0,4095.0,4095.0,4095.0,-7.39,-11.58,11.04,1.96,0.27,0.81,1.0,excuse-me
3309.0,985.0,3601.0,4095.0,3517.0,3999.0,4095.0,4095.0,4.67,2.57,-5.2,-0.07,-0.61,-0.39,0.0,926.0,4095.0,2085.0,2689.0,4095.0,4095.0,4095.0,4095.0,-3.33,-6.61,-1.57,2.19,0.91,5.2,1.0,excuse-me
3322.0,1002.0,3623.0,4066.0,3555.0,4095.0,4095.0,4095.0,4.49,2.49,-3.76,-0.05,-0.47,-0.28,0.0,926.0,4095.0,1681.0,2497.0,4095.0,4095.0,4095.0,4095.0,2.71,0.62,-3.43,-1.63,-0.18,4.3,1.0,excuse-me
3335.0,1050.0,3645.0,4095.0,3583.0,4095.0,4095.0,4095.0,4.17,2.75,-4.24,-0.2,-0.25,-0.37,0.0,912.0,4095.0,914.0,2485.0,4095.0,4095.0,4095.0,4095.0,9.53,3.23,8.54,-3.0,-2.37,2.06,1.0,excuse-me
3333.0,1074.0,3617.0,4095.0,3602.0,4095.0,4095.0,4095.0,3.16,3.26,-4.59,0.02,-0.03,-0.32,0.0,909.0,3930.0,882.0,2466.0,4095.0,4095.0,4095.0,4095.0,16.96,6.11,17.52,-2.01,-1.81,-2.7,1.0,excuse-me
3326.0,1088.0,3632.0,4095.0,3600.0,4095.0,4095.0,4095.0,3.62,3.5,-4.16,0.03,-0.04,-0.25,0.0,1501.0,3868.0,875.0,2559.0,4095.0,4095.0,4095.0,4095.0,-7.2,-2.22,-0.71,1.49,0.92,2.24,1.0,excuse-me
3321.0,1091.0,3631.0,4095.0,3601.0,4095.0,4095.0,4095.0,3.94,2.7,-5.35,-0.01,-0.21,-0.19,0.0,1363.0,3856.0,878.0,2529.0,4095.0,4095.0,4095.0,4095.0,6.54,3.03,3.03,-1.58,0.95,2.38,1.0,excuse-me
3363.0,1052.0,3617.0,4095.0,3575.0,4095.0,4095.0,4095.0,3.0,3.48,-4.12,0.13,0.22,-0.27,0.0,1338.0,3856.0,880.0,2543.0,4095.0,4095.0,4095.0,4095.0,16.77,7.43,14.98,-1.87,-1.55,-1.26,1.0,excuse-me
3395.0,1038.0,3628.0,4095.0,3556.0,4027.0,4095.0,4095.0,3.7,3.46,-4.88,-0.12,0.12,0.0,0.0,1472.0,3923.0,879.0,2587.0,4095.0,4095.0,4095.0,4095.0,-2.96,-4.62,21.7,-0.21,-0.36,-3.54,1.0,excuse-me
3367.0,1042.0,3619.0,4095.0,3582.0,4037.0,4095.0,4095.0,3.74,3.86,-4.55,0.12,-0.02,-0.13,0.0,1569.0,3934.0,868.0,2626.0,4095.0,4095.0,4095.0,4095.0,-14.85,-5.44,7.41,2.8,1.4,0.43,1.0,excuse-me
3369.0,1046.0,3626.0,4095.0,3568.0,4049.0,4095.0,4095.0,4.29,3.05,-5.08,-0.05,0.08,-0.07,0.0,1390.0,3882.0,873.0,2605.0,4095.0,4095.0,4095.0,4095.0,15.81,6.85,7.11,-2.44,0.0,1.18,1.0,excuse-me
3375.0,1033.0,3616.0,4095.0,3524.0,4001.0,4095.0,4095.0,3.42,3.4,-4.39,-0.2,0.08,-0.02,0.0,1535.0,3952.0,879.0,2642.0,4095.0,4095.0,4095.0,4095.0,-15.61,-10.23,22.02,2.44,1.18,-1.6,1.0,excuse-me
3363.0,1034.0,3635.0,4095.0,3538.0,3986.0,4095.0,4095.0,4.18,3.34,-4.37,0.1,-0.02,-0.17,0.0,1525.0,3931.0,881.0,2671.0,4095.0,4095.0,4095.0,4095.0,-7.41,-3.67,-0.16,2.77,1.07,2.09,1.0,excuse-me
3357.0,1023.0,3619.0,4095.0,3536.0,3970.0,4095.0,4095.0,4.4,2.91,-5.22,0.02,-0.08,-0.28,0.0,1299.0,3899.0,871.0,2635.0,4095.0,4095.0,4095.0,4095.0,15.49,6.65,8.2,-2.98,-0.3,-0.35,1.0,excuse-me
3381.0,1038.0,3610.0,4095.0,3540.0,3962.0,4095.0,4095.0,2.67,3.52,-4.5,-0.0,0.13,-0.18,0.0,1379.0,3909.0,875.0,2690.0,4095.0,4095.0,4095.0,4095.0,-0.8,-1.82,19.12,-2.49,0.24,-3.32,1.0,excuse-me
3367.0,1022.0,3613.0,4095.0,3554.0,3969.0,4095.0,4095.0,3.72,3.64,-4.44,-0.03,-0.01,-0.14,0.0,1349.0,3917.0,881.0,2737.0,4095.0,4095.0,4095.0,4095.0,-1.18,1.05,9.56,0.14,-0.07,-0.14,1.0,excuse-me
3369.0,1023.0,3630.0,4095.0,3536.0,3974.0,4095.0,4095.0,3.64,3.5,-4.67,-0.01,0.1,-0.13,0.0,1328.0,3903.0,880.0,2738.0,4095.0,4095.0,4095.0,4095.0,-0.39,1.48,10.07,0.0,-0.07,-0.13,1.0,excuse-me
3371.0,1049.0,3647.0,4095.0,3541.0,3927.0,4095.0,4095.0,4.03,3.71,-4.46,-0.02,-0.11,-0.01,0.0,1328.0,3920.0,879.0,2748.0,4095.0,4095.0,4095.0,4095.0,-1.14,1.14,10.23,-0.15,0.19,-0.1,1.0,excuse-me
3378.0,1023.0,3632.0,4095.0,3551.0,3927.0,4095.0,4095.0,3.8,3.48,-3.96,0.01,0.04,-0.1,0.0,1327.0,3900.0,880.0,2735.0,4095.0,4095.0,4095.0,4095.0,-0.68,1.71,9.92,0.05,0.11,0.01,1.0,excuse-me
3438.0,2431.0,3362.0,3724.0,3025.0,3401.0,4095.0,4035.0,10.67,0.63,-1.7,-1.12,0.9,-0.49,0.0,906.0,3792.0,962.0,2909.0,4095.0,3910.0,4095.0,4095.0,-4.36,-8.39,8.79,0.82,-1.54,0.3,1.0,excuse-me
3134.0,2385.0,3152.0,3715.0,2945.0,3558.0,4095.0,4055.0,8.08,1.45,0.18,-0.84,-1.11,-1.51,0.0,921.0,3739.0,998.0,2864.0,4095.0,3919.0,4095.0,4095.0,-1.77,-3.42,5.76,-0.25,0.44,0.1,1.0,excuse-me
3799.0,2752.0,3138.0,3817.0,3609.0,4095.0,4095.0,4095.0,5.41,2.79,-7.92,0.4,-1.33,-0.4,0.0,956.0,4095.0,895.0,2670.0,4095.0,4095.0,4095.0,4095.0,-15.64,-15.72,9.26,4.42,2.48,2.38,1.0,excuse-me
3802.0,2817.0,3152.0,4014.0,3631.0,4095.0,4095.0,4095.0,5.07,1.66,-4.88,-0.05,-0.5,-0.56,0.0,963.0,4095.0,934.0,2447.0,4095.0,4095.0,4095.0,4095.0,-3.57,-7.74,-4.97,2.12,0.13,5.38,1.0,excuse-me
3811.0,2817.0,3139.0,4095.0,3648.0,4095.0,4095.0,4095.0,3.19,2.85,-3.28,-0.19,0.18,-0.18,0.0,909.0,4059.0,879.0,2314.0,4095.0,4095.0,4095.0,4095.0,16.96,8.51,18.16,-2.58,-1.99,-0.79,1.0,excuse-me
3811.0,2818.0,3152.0,4095.0,3683.0,4095.0,4095.0,4095.0,3.43,3.82,-4.4,0.02,0.16,-0.1,0.0,923.0,4016.0,881.0,2407.0,4095.0,4095.0,4095.0,4095.0,-3.43,-3.39,18.24,0.42,-0.36,-3.68,1.0,excuse-me
3775.0,2823.0,3152.0,4039.0,3600.0,4095.0,4095.0,4095.0,3.74,3.17,-6.36,-0.06,-0.0,-0.17,0.0,931.0,3996.0,893.0,2454.0,4095.0,4095.0,4095.0,4095.0,0.93,0.5,1.61,0.5,0.83,3.1,1.0,excuse-me
3761.0,2826.0,3170.0,4025.0,3597.0,4095.0,4095.0,4095.0,3.51,2.86,-4.42,-0.28,0.06,-0.04,0.0,912.0,3937.0,883.0,2427.0,4095.0,4095.0,4095.0,4095.0,9.02,4.28,22.61,-0.95,-1.69,-2.91,1.0,excuse-me
3748.0,2845.0,3167.0,4068.0,3579.0,4095.0,4095.0,4095.0,4.72,4.08,-4.56,0.12,-0.04,-0.2,0.0,914.0,3943.0,880.0,2461.0,4095.0,4095.0,4095.0,4095.0,-17.53,-9.45,18.86,2.82,1.51,-1.1,1.0,excuse-me
3777.0,2828.0,3173.0,4095.0,3572.0,4095.0,4095.0,4095.0,4.61,2.95,-4.79,-0.13,0.0,-0.35,0.0,919.0,3927.0,885.0,2467.0,4095.0,4095.0,4095.0,4095.0,5.97,3.66,1.95,-2.55,1.21,1.9,1.0,excuse-me
3775.0,2834.0,3181.0,4095.0,3571.0,4095.0,4095.0,4095.0,3.4,3.13,-3.81,0.01,0.18,-0.03,0.0,925.0,3898.0,888.0,2459.0,4095.0,4095.0,4095.0,4095.0,15.03,9.03,17.82,-2.02,-1.31,-1.68,1.0,excuse-me
3741.0,2832.0,3179.0,4095.0,3573.0,4095.0,4095.0,4095.0,4.39,4.02,-4.01,0.14,0.01,-0.31,0.0,938.0,3897.0,890.0,2513.0,4095.0,4095.0,4095.0,4095.0,-12.25,-4.6,5.95,2.86,1.28,1.1,1.0,excuse-me
3740.0,2817.0,3184.0,4095.0,3565.0,4091.0,4095.0,4095.0,4.26,3.42,-4.68,0.05,-0.11,-0.28,0.0,2966.0,3901.0,891.0,2485.0,4095.0,4095.0,4095.0,4095.0,9.75,5.59,6.3,-3.07,0.69,1.1,1.0,excuse-me
3767.0,2829.0,3171.0,4095.0,3563.0,4079.0,4095.0,4095.0,3.96,3.61,-4.22,-0.04,-0.04,-0.14,0.0,3242.0,3895.0,896.0,2479.0,4095.0,4095.0,4095.0,4095.0,12.2,5.06,16.65,-1.44,-0.92,-2.92,1.0,excuse-me
3751.0,2832.0,3159.0,4095.0,3566.0,4075.0,4095.0,4095.0,4.43,3.64,-4.42,-0.06,0.03,-0.19,0.0,3150.0,3947.0,890.0,2516.0,4095.0,4095.0,4095.0,4095.0,-13.73,-5.09,14.18,0.36,0.27,-1.7,1.0,excuse-me
3750.0,2821.0,3184.0,4095.0,3550.0,4070.0,4095.0,4095.0,3.66,3.72,-4.15,0.0,0.04,-0.17,0.0,1925.0,3952.0,894.0,2528.0,4095.0,4095.0,4095.0,4095.0,-1.01,2.11,9.83,-0.04,-0.21,-0.15,1.0,excuse-me
3762.0,2826.0,3185.0,4095.0,3537.0,4063.0,4095.0,4095.0,3.96,3.54,-4.4,-0.01,0.02,-0.11,0.0,1762.0,3949.0,896.0,2527.0,4095.0,4095.0,4095.0,4095.0,-1.35,2.08,10.29,-0.02,-0.04,-0.13,1.0,excuse-me
3781.0,2809.0,3164.0,4095.0,3546.0,4049.0,4095.0,4095.0,3.93,3.66,-4.07,0.01,0.02,-0.06,0.0,1697.0,3941.0,889.0,2528.0,4095.0,4095.0,4095.0,4095.0,-1.19,2.26,9.74,-0.09,0.12,-0.09,1.0,excuse-me
3771.0,2807.0,3184.0,4095.0,3563.0,4037.0,4095.0,4095.0,4.19,3.74,-4.6,0.04,-0.08,-0.12,0.0,1700.0,3953.0,887.0,2530.0,4095.0,4095.0,4095.0,4095.0,-1.51,2.2,9.43,-0.12,0.14,-0.09,1.0,excuse-me
3767.0,2802.0,3187.0,4095.0,3554.0,4055.0,4095.0,4095.0,4.26,3.7,-4.21,-0.02,-0.01,-0.12,0.0,1677.0,3943.0,895.0,2533.0,4095.0,4095.0,4095.0,4095.0,-0.87,2.14,9.93,0.31,0.32,-0.13,1.0,excuse-me
3143.0,1882.0,3219.0,3958.0,2714.0,2992.0,3841.0,3219.0,7.53,0.8,1.18,0.49,-2.56,-2.15,0.0,967.0,4095.0,912.0,3394.0,4095.0,4095.0,4095.0,4095.0,-9.62,-8.07,-1.26,0.72,-0.23,1.49,1.0,excuse-me
3044.0,1022.0,2768.0,4005.0,2865.0,3182.0,4062.0,3539.0,3.28,1.2,0.68,-0.19,-3.9,-0.9,0.0,1011.0,4095.0,925.0,3345.0,4095.0,4095.0,4095.0,4095.0,-11.78,-8.91,-3.13,0.75,-2.62,4.12,1.0,excuse-me
3811.0,1062.0,2206.0,4095.0,3245.0,3607.0,4095.0,4095.0,6.59,0.75,-5.99,0.93,-1.65,-0.2,0.0,987.0,4095.0,925.0,2930.0,4095.0,4095.0,4095.0,4095.0,-1.06,-2.66,-3.51,0.58,-3.83,5.26,1.0,excuse-me
3896.0,967.0,3568.0,3807.0,3519.0,4058.0,4095.0,4095.0,5.55,1.34,-9.61,-0.39,-0.61,-0.55,0.0,944.0,4095.0,917.0,2448.0,4095.0,4095.0,4095.0,4095.0,4.87,1.76,-0.55,-2.57,-1.44,2.7,1.0,excuse-me
3884.0,981.0,3531.0,3927.0,3571.0,4095.0,4095.0,4095.0,3.03,2.6,-2.8,-0.4,-0.13,-0.33,0.0,943.0,4095.0,919.0,2319.0,4095.0,4095.0,4095.0,4095.0,6.59,3.81,8.48,-3.63,-0.6,0.87,1.0,excuse-me
3918.0,974.0,3536.0,3921.0,3599.0,4095.0,4095.0,4095.0,3.22,3.45,-3.09,-0.04,0.33,-0.47,0.0,926.0,4095.0,912.0,2419.0,4095.0,4095.0,4095.0,4095.0,-18.44,-13.27,25.12,1.06,0.97,-2.27,1.0,excuse-me
3888.0,993.0,3535.0,3947.0,3583.0,4095.0,4095.0,4095.0,2.59,3.59,-4.66,0.14,0.1,-0.32,0.0,925.0,4087.0,917.0,2402.0,4095.0,4095.0,4095.0,4095.0,-7.56,-2.35,2.75,1.5,0.71,1.89,1.0,excuse-me
3903.0,994.0,3535.0,3965.0,3583.0,4095.0,4095.0,4095.0,3.62,2.69,-5.27,-0.02,0.05,-0.19,0.0,912.0,3990.0,923.0,2421.0,4095.0,4095.0,4095.0,4095.0,5.87,3.37,1.39,-1.29,0.65,2.54,1.0,excuse-me
3899.0,990.0,3531.0,3952.0,3579.0,4095.0,4095.0,4095.0,3.2,3.22,-4.89,-0.11,0.17,-0.08,0.0,925.0,3967.0,914.0,2476.0,4095.0,4095.0,4095.0,4095.0,-9.84,-5.2,24.78,1.5,-0.42,-2.88,1.0,excuse-me
3930.0,1002.0,3541.0,3966.0,3571.0,4095.0,4095.0,4095.0,3.54,3.68,-4.08,-0.06,0.05,-0.16,0.0,917.0,3934.0,922.0,2512.0,4095.0,4095.0,4095.0,4095.0,2.32,1.31,-2.81,-0.98,1.1,2.35,1.0,excuse-me
3886.0,981.0,3513.0,4007.0,3561.0,4055.0,4095.0,4095.0,3.49,3.22,-4.56,0.01,0.04,-0.17,0.0,918.0,3919.0,915.0,2529.0,4095.0,4095.0,4095.0,4095.0,11.93,6.03,12.77,-2.7,-0.13,0.5,1.0,excuse-me
3891.0,989.0,3531.0,3995.0,3538.0,4057.0,4095.0,4095.0,3.91,3.6,-4.2,0.11,0.06,-0.16,0.0,919.0,3926.0,913.0,2526.0,4095.0,4095.0,4095.0,4095.0,-19.8,-11.17,19.81,2.76,1.22,-0.99,1.0,excuse-me
3879.0,986.0,3539.0,4021.0,3507.0,4012.0,4095.0,4095.0,4.24,2.72,-5.17,-0.06,-0.01,-0.2,0.0,912.0,3886.0,914.0,2585.0,4095.0,4095.0,4095.0,4095.0,6.88,4.19,2.5,-1.84,1.07,2.2,1.0,excuse-me
3894.0,988.0,3545.0,4059.0,3509.0,4046.0,4095.0,4095.0,3.36,3.36,-4.11,-0.01,-0.03,-0.19,0.0,915.0,3925.0,915.0,2607.0,4095.0,4095.0,4095.0,4095.0,-5.86,-4.86,16.57,-0.29,-0.81,-3.05,1.0,excuse-me
3883.0,987.0,3536.0,4062.0,3504.0,4054.0,4095.0,4095.0,3.35,3.7,-4.13,0.07,0.09,-0.16,0.0,913.0,3913.0,914.0,2611.0,4095.0,4095.0,4095.0,4095.0,-5.73,-0.78,9.21,0.6,0.19,-0.41,1.0,excuse-me
3879.0,979.0,3519.0,4083.0,3498.0,4023.0,4095.0,4095.0,3.79,3.34,-4.94,-0.0,0.06,-0.1,0.0,919.0,3911.0,919.0,2626.0,4095.0,4095.0,4095.0,4095.0,-1.65,1.34,10.06,-0.02,0.14,-0.1,1.0,excuse-me
3888.0,986.0,3530.0,4043.0,3519.0,4033.0,4095.0,4095.0,3.69,3.42,-4.36,-0.02,0.03,-0.13,0.0,912.0,3935.0,919.0,2629.0,4095.0,4095.0,4095.0,4095.0,-1.34,1.55,9.75,-0.03,0.06,-0.07,1.0,excuse-me
3871.0,981.0,3514.0,4083.0,3515.0,3972.0,4095.0,4095.0,3.6,3.28,-4.52,-0.02,-0.04,-0.13,0.0,911.0,3933.0,912.0,2601.0,4095.0,4095.0,4095.0,4095.0,-1.31,1.61,9.96,-0.08,0.05,-0.18,1.0,excuse-me
3867.0,983.0,3536.0,4085.0,3511.0,3968.0,4095.0,4095.0,3.69,3.48,-4.42,-0.01,-0.03,-0.12,0.0,907.0,3951.0,912.0,2608.0,4095.0,4095.0,4095.0,4095.0,-1.64,1.45,10.01,-0.05,-0.07,-0.04,1.0,excuse-me
3883.0,976.0,3523.0,4080.0,3503.0,3975.0,4095.0,4095.0,3.71,3.5,-4.79,0.01,-0.09,-0.11,0.0,901.0,3923.0,921.0,2607.0,4095.0,4095.0,4095.0,4095.0,-1.18,1.66,9.79,-0.13,-0.32,-0.15,1.0,excuse-me
3409.0,944.0,4062.0,3599.0,2806.0,3018.0,3904.0,3380.0,9.35,-0.16,0.73,0.04,-2.55,-1.76,0.0,966.0,3905.0,919.0,2967.0,4095.0,4095.0,4095.0,4095.0,-4.43,-7.77,7.01,0.37,0.19,0.69,1.0,excuse-me
4095.0,966.0,4095.0,3917.0,3199.0,3278.0,4095.0,4095.0,5.76,1.22,-0.29,-0.36,-4.86,-1.67,0.0,988.0,4095.0,935.0,3413.0,4095.0,4095.0,4095.0,4095.0,-8.37,-11.54,12.74,3.61,0.8,1.75,1.0,excuse-me
3623.0,1518.0,3500.0,3520.0,3348.0,3876.0,4095.0,4095.0,4.43,2.9,-4.2,0.43,-1.86,-0.59,0.0,987.0,4095.0,923.0,3472.0,4095.0,4095.0,4095.0,4095.0,-5.0,-7.41,1.09,3.99,1.58,4.07,1.0,excuse-me
3615.0,1819.0,3454.0,3668.0,3527.0,4095.0,4095.0,4095.0,5.04,2.57,-4.49,-0.09,-0.16,-0.48,0.0,961.0,4081.0,878.0,2601.0,4095.0,4095.0,4095.0,4095.0,0.76,-0.96,-4.61,-0.7,1.38,4.59,1.0,excuse-me
3603.0,1849.0,3499.0,3698.0,3541.0,4095.0,4095.0,4095.0,4.41,3.03,-4.26,-0.11,-0.17,-0.51,0.0,931.0,3910.0,885.0,2430.0,4095.0,4095.0,4095.0,4095.0,16.74,7.1,19.56,-1.98,-1.49,-2.86,1.0,excuse-me
3612.0,1840.0,3488.0,3730.0,3548.0,4095.0,4095.0,4095.0,3.85,3.84,-2.78,-0.13,0.37,-0.16,0.0,931.0,3889.0,900.0,2415.0,4095.0,4095.0,4095.0,4095.0,-18.33,-12.25,24.38,1.71,0.91,-3.18,1.0,excuse-me
3599.0,1840.0,3493.0,3773.0,3574.0,4095.0,4095.0,4095.0,3.75,4.15,-3.88,0.28,0.1,-0.25,0.0,939.0,3839.0,896.0,2480.0,4095.0,4095.0,4095.0,4095.0,3.49,2.09,-1.48,-2.16,0.71,2.52,1.0,excuse-me
3583.0,1842.0,3492.0,3530.0,3583.0,4095.0,4095.0,4095.0,3.09,3.54,-3.35,-0.05,0.1,-0.22,0.0,939.0,3840.0,887.0,2509.0,4095.0,4095.0,4095.0,4095.0,16.47,8.77,19.0,-2.47,-1.37,-0.46,1.0,excuse-me
3575.0,1856.0,3510.0,3687.0,3597.0,4095.0,4095.0,4095.0,3.28,4.21,-3.88,0.09,0.1,-0.22,0.0,931.0,3827.0,903.0,2635.0,4095.0,4095.0,4095.0,4095.0,-15.29,-4.56,2.84,2.72,1.07,1.07,1.0,excuse-me
3569.0,1853.0,3499.0,3722.0,3573.0,4095.0,4095.0,4095.0,3.79,3.56,-4.95,-0.04,-0.04,-0.15,0.0,942.0,3822.0,901.0,2615.0,4095.0,4095.0,4095.0,4095.0,2.06,1.3,-0.43,-0.47,0.61,2.94,1.0,excuse-me
3579.0,1854.0,3488.0,3738.0,3582.0,4095.0,4095.0,4095.0,3.6,3.37,-5.05,-0.13,-0.1,-0.14,0.0,937.0,3794.0,912.0,2590.0,4095.0,4095.0,4095.0,4095.0,10.87,6.12,7.16,-2.73,0.55,0.65,1.0,excuse-me
3561.0,1855.0,3507.0,3747.0,3580.0,4088.0,4095.0,4095.0,3.88,3.85,-3.66,0.08,0.01,-0.12,0.0,940.0,3824.0,907.0,2691.0,4095.0,4095.0,4095.0,4095.0,-18.39,-10.36,21.12,2.44,1.04,-2.24,1.0,excuse-me
3570.0,1855.0,3516.0,3790.0,3581.0,4082.0,4095.0,4095.0,3.28,3.99,-4.57,0.17,0.0,-0.08,0.0,938.0,3794.0,906.0,2627.0,4095.0,4095.0,4095.0,4095.0,4.24,3.24,1.02,-1.31,0.96,2.63,1.0,excuse-me
3568.0,1853.0,3503.0,3792.0,3583.0,4082.0,4095.0,4095.0,3.41,3.55,-4.45,-0.21,-0.01,-0.16,0.0,925.0,3797.0,907.0,2719.0,4095.0,4095.0,4095.0,4095.0,-1.86,-1.99,20.13,-0.93,-0.71,-3.57,1.0,excuse-me
3568.0,1842.0,3488.0,3799.0,3583.0,4080.0,4095.0,4095.0,3.45,4.29,-4.02,-0.06,0.04,-0.16,0.0,929.0,3807.0,912.0,2724.0,4095.0,4095.0,4095.0,4095.0,-0.2,2.13,8.55,0.04,0.17,-0.01,1.0,excuse-me
3575.0,1840.0,3498.0,3797.0,3579.0,4082.0,4095.0,4095.0,3.5,4.05,-3.89,-0.01,0.0,-0.14,0.0,939.0,3819.0,912.0,2743.0,4095.0,4095.0,4095.0,4095.0,-0.97,2.01,10.37,-0.07,0.22,-0.14,1.0,excuse-me
3568.0,1843.0,3511.0,3795.0,3573.0,4033.0,4095.0,4095.0,3.55,3.97,-4.49,-0.0,-0.02,-0.14,0.0,939.0,3807.0,909.0,2738.0,4095.0,4095.0,4095.0,4095.0,-0.51,2.46,9.6,-0.04,0.11,-0.09,1.0,excuse-me
3571.0,1856.0,3493.0,3786.0,3568.0,4048.0,4095.0,4095.0,3.59,3.98,-4.46,0.03,0.04,-0.12,0.0,940.0,3820.0,909.0,2745.0,4095.0,4095.0,4095.0,4095.0,-0.75,2.33,9.8,-0.03,0.04,-0.1,1.0,excuse-me
3539.0,1835.0,3508.0,3793.0,3583.0,4045.0,4095.0,4095.0,3.68,4.02,-4.43,0.0,0.04,-0.14,0.0,937.0,3815.0,910.0,2743.0,4095.0,4095.0,4095.0,4095.0,-0.85,2.2,9.85,-0.09,-0.01,-0.03,1.0,excuse-me
3571.0,1843.0,3504.0,3775.0,3582.0,4011.0,4095.0,4095.0,3.69,4.04,-4.17,0.05,-0.06,-0.19,0.0,939.0,3813.0,903.0,2733.0,4095.0,4095.0,4095.0,4095.0,-0.91,2.32,9.89,-0.07,0.07,-0.02,1.0,excuse-me
3358.0,944.0,4095.0,3750.0,2829.0,2921.0,3648.0,3222.0,6.19,0.99,-3.1,-0.45,-1.02,0.27,0.0,1019.0,4095.0,926.0,3200.0,4095.0,4095.0,4095.0,4095.0,-4.82,-4.27,7.76,0.94,-0.09,0.46,1.0,excuse-me
3226.0,944.0,1074.0,4035.0,3056.0,3090.0,3793.0,3458.0,5.48,1.71,-2.58,-0.32,-1.28,-0.3,0.0,1005.0,4095.0,921.0,3195.0,4095.0,4095.0,4095.0,4095.0,-6.06,-1.94,11.11,0.61,0.28,0.25,1.0,excuse-me
3792.0,2112.0,3456.0,4007.0,3546.0,4095.0,4095.0,4095.0,5.04,1.74,-5.7,-0.2,-0.01,-0.2,0.0,962.0,4095.0,919.0,3099.0,4095.0,4095.0,4095.0,4095.0,-13.58,-6.51,9.0,1.73,1.45,1.94,1.0,excuse-me
3807.0,2156.0,3439.0,4031.0,3621.0,4095.0,4095.0,4095.0,4.66,2.3,-4.63,-0.28,-0.13,-0.41,0.0,930.0,4095.0,910.0,2320.0,4095.0,4095.0,4095.0,4095.0,3.13,1.67,-1.74,-1.97,-0.5,3.03,1.0,excuse-me
3791.0,2174.0,3427.0,4058.0,3616.0,4095.0,4095.0,4095.0,4.15,2.69,-4.3,-0.16,-0.05,-0.36,0.0,906.0,3893.0,906.0,2354.0,4095.0,4095.0,4095.0,4095.0,13.28,5.96,14.78,-2.29,-2.16,0.05,1.0,excuse-me
3771.0,2187.0,3466.0,4058.0,3621.0,4095.0,4095.0,4095.0,3.66,3.62,-3.61,0.13,-0.08,-0.38,0.0,927.0,3903.0,914.0,2509.0,4095.0,4095.0,4095.0,4095.0,-19.34,-8.06,13.92,2.89,1.26,-0.24,1.0,excuse-me
3809.0,2179.0,3472.0,4038.0,3600.0,4095.0,4095.0,4095.0,3.51,3.43,-5.29,0.11,-0.2,-0.28,0.0,912.0,3853.0,912.0,2547.0,4095.0,4095.0,4095.0,4095.0,7.13,3.84,3.81,-2.34,1.28,2.1,1.0,excuse-me
3787.0,2165.0,3488.0,4028.0,3600.0,4095.0,4095.0,4095.0,3.53,3.45,-4.07,-0.11,-0.0,-0.12,0.0,903.0,3878.0,914.0,2525.0,4095.0,4095.0,4095.0,4095.0,14.32,6.58,16.68,-1.78,-1.57,-1.6,1.0,excuse-me
3765.0,2186.0,3494.0,4034.0,3583.0,4095.0,4095.0,4095.0,3.61,3.4,-4.19,0.07,0.11,-0.05,0.0,913.0,3885.0,914.0,2593.0,4095.0,4095.0,4095.0,4095.0,-6.86,-5.14,24.0,1.23,0.63,-3.93,1.0,excuse-me
3745.0,2173.0,3487.0,4031.0,3579.0,4083.0,4095.0,4095.0,4.19,3.05,-5.31,-0.07,0.05,-0.15,0.0,906.0,3901.0,916.0,2638.0,4095.0,4095.0,4095.0,4095.0,0.94,-0.01,2.34,-1.03,0.56,2.94,1.0,excuse-me
3751.0,2161.0,3501.0,4024.0,3583.0,4095.0,4095.0,4095.0,3.99,3.13,-4.62,-0.13,-0.05,-0.15,0.0,898.0,3888.0,918.0,2626.0,4095.0,4095.0,4095.0,4095.0,9.11,4.63,7.85,-2.77,0.93,1.01,1.0,excuse-me
3791.0,2161.0,3476.0,4065.0,3569.0,4095.0,4095.0,4095.0,3.46,3.56,-4.36,-0.1,0.11,-0.11,0.0,898.0,3899.0,925.0,2598.0,4095.0,4095.0,4095.0,4095.0,10.4,3.88,22.7,-1.18,-0.77,-2.83,1.0,excuse-me
3757.0,2155.0,3493.0,4053.0,3582.0,4095.0,4095.0,4095.0,3.85,3.56,-4.14,0.04,0.04,-0.13,0.0,917.0,3925.0,916.0,2535.0,4095.0,4095.0,4095.0,4095.0,-18.77,-10.52,20.42,2.77,0.82,-1.8,1.0,excuse-me
3776.0,2150.0,3473.0,4017.0,3568.0,4080.0,4095.0,4095.0,3.7,3.74,-4.59,0.13,-0.01,-0.15,0.0,906.0,3900.0,915.0,2334.0,4095.0,4095.0,4095.0,4095.0,3.75,3.68,-1.69,-1.07,0.77,2.15,1.0,excuse-me
3742.0,2165.0,3491.0,4033.0,3551.0,4071.0,4095.0,4095.0,3.94,3.26,-5.02,0.04,-0.15,-0.28,0.0,901.0,3895.0,912.0,2390.0,4095.0,4095.0,4095.0,4095.0,12.55,4.36,11.81,-3.35,-0.66,-0.2,1.0,excuse-me
3760.0,2164.0,3504.0,4016.0,3573.0,4039.0,4095.0,4095.0,3.49,3.34,-4.27,-0.18,-0.16,-0.26,0.0,907.0,3921.0,914.0,2463.0,4095.0,4095.0,4095.0,4095.0,0.93,-2.82,19.82,-0.91,-0.12,-3.75,1.0,excuse-me
3736.0,2173.0,3473.0,4048.0,3583.0,4077.0,4095.0,4095.0,3.22,3.71,-4.23,-0.05,-0.14,-0.19,0.0,906.0,3897.0,906.0,2445.0,4095.0,4095.0,4095.0,4095.0,-9.48,-2.42,8.63,0.68,-0.09,-0.67,1.0,excuse-me
3755.0,2167.0,3462.0,4033.0,3568.0,4034.0,4095.0,4095.0,3.37,3.51,-4.95,-0.01,-0.05,-0.1,0.0,914.0,3914.0,906.0,2457.0,4095.0,4095.0,4095.0,4095.0,0.87,2.09,8.31,0.08,0.07,-0.07,1.0,excuse-me
3727.0,2160.0,3491.0,4032.0,3575.0,4037.0,4095.0,4095.0,3.38,3.72,-4.36,-0.03,0.0,-0.1,0.0,905.0,3918.0,907.0,2480.0,4095.0,4095.0,4095.0,4095.0,-0.88,1.67,10.06,-0.07,0.11,-0.06,1.0,excuse-me
3745.0,2161.0,3473.0,4008.0,3598.0,4019.0,4095.0,4095.0,3.47,3.63,-4.67,-0.01,-0.01,-0.11,0.0,902.0,3894.0,915.0,2495.0,4095.0,4095.0,4095.0,4095.0,-1.02,1.64,9.73,-0.07,-0.02,-0.05,1.0,excuse-me
3491.0,949.0,3150.0,3701.0,2893.0,2951.0,3735.0,3263.0,8.79,1.38,1.77,-0.23,-0.23,-1.21,0.0,934.0,3712.0,907.0,3105.0,4095.0,4095.0,4095.0,4095.0,-5.27,-5.53,6.68,0.01,-0.08,-0.11,1.0,excuse-me
3601.0,1047.0,3251.0,3615.0,2861.0,2992.0,3683.0,3381.0,1.22,1.04,3.99,0.52,-1.37,-0.51,0.0,948.0,3728.0,911.0,3088.0,4095.0,4095.0,4095.0,4095.0,-5.31,-5.05,8.7,0.2,0.24,-0.07,1.0,excuse-me
3209.0,981.0,3248.0,4095.0,3238.0,3504.0,4095.0,4095.0,8.94,1.66,-7.03,0.41,-4.79,-0.54,0.0,947.0,3853.0,897.0,2737.0,4095.0,4095.0,4095.0,4095.0,-13.67,-10.79,5.97,2.82,0.98,2.76,1.0,excuse-me
3237.0,1850.0,3238.0,3969.0,3609.0,4095.0,4095.0,4095.0,4.98,2.75,-4.61,-0.54,-0.75,-0.25,0.0,927.0,3836.0,895.0,2293.0,4095.0,4095.0,4095.0,4095.0,-5.36,-4.84,-3.28,0.98,-0.91,5.23,1.0,excuse-me
3263.0,1850.0,3261.0,4095.0,3622.0,4095.0,4095.0,4095.0,4.35,2.6,-3.65,-0.43,-0.11,-0.09,0.0,907.0,3820.0,905.0,2461.0,4095.0,4095.0,4095.0,4095.0,2.43,-1.06,20.84,-0.48,-0.8,-4.05,1.0,excuse-me
3257.0,1867.0,3264.0,4095.0,3579.0,4095.0,4095.0,4095.0,3.22,3.85,-4.44,-0.18,0.16,-0.35,0.0,1101.0,3847.0,890.0,2474.0,4095.0,4095.0,4095.0,4095.0,-20.83,-8.14,11.78,2.77,1.02,-0.15,1.0,excuse-me
3248.0,1868.0,3264.0,4095.0,3573.0,4095.0,4095.0,4095.0,3.62,3.89,-3.7,-0.02,0.19,-0.31,0.0,951.0,3833.0,895.0,2497.0,4095.0,4095.0,4095.0,4095.0,-2.14,-0.07,-0.45,1.16,0.66,2.66,1.0,excuse-me
3267.0,1881.0,3280.0,4095.0,3554.0,4095.0,4095.0,4095.0,3.44,3.78,-4.36,0.0,0.04,-0.3,0.0,918.0,3788.0,900.0,2480.0,4095.0,4095.0,4095.0,4095.0,9.62,4.88,0.49,-2.07,1.52,1.69,1.0,excuse-me
3263.0,1874.0,3293.0,4095.0,3621.0,4095.0,4095.0,4095.0,3.46,4.19,-4.2,-0.08,-0.03,-0.24,0.0,915.0,3778.0,910.0,2512.0,4095.0,4095.0,4095.0,4095.0,13.0,4.4,17.28,-2.4,-0.66,-2.01,1.0,excuse-me
3249.0,1840.0,3291.0,4095.0,3597.0,4095.0,4095.0,4095.0,3.74,4.41,-4.06,-0.06,0.26,-0.11,0.0,951.0,3791.0,915.0,2543.0,4095.0,4095.0,4095.0,3607.0,-9.65,-5.22,23.03,1.06,-0.14,-3.28,1.0,excuse-me
3248.0,1835.0,3277.0,4095.0,3597.0,4095.0,4095.0,4095.0,3.16,4.29,-3.89,0.11,0.09,-0.1,0.0,951.0,3807.0,915.0,2550.0,4095.0,4095.0,4095.0,4095.0,-12.12,-3.82,4.04,2.74,0.89,1.34,1.0,excuse-me
3263.0,1839.0,3295.0,4095.0,3583.0,4095.0,4095.0,4095.0,3.88,3.81,-4.67,0.03,0.05,-0.1,0.0,933.0,3761.0,912.0,2530.0,4095.0,4095.0,4095.0,4095.0,0.41,0.35,-1.65,-0.48,0.92,2.94,1.0,excuse-me
3249.0,1834.0,3282.0,4095.0,3602.0,4095.0,4095.0,4095.0,4.13,3.69,-4.36,0.07,-0.05,-0.11,0.0,911.0,3744.0,915.0,2503.0,4095.0,4095.0,4095.0,4095.0,11.33,3.36,6.97,-3.05,0.87,1.28,1.0,excuse-me
3257.0,1839.0,3326.0,4095.0,3599.0,4095.0,4095.0,4095.0,3.11,4.15,-5.15,-0.02,0.42,-0.09,0.0,925.0,3741.0,917.0,2556.0,4095.0,4095.0,4095.0,4095.0,-18.22,-11.03,22.71,2.7,1.13,-1.67,1.0,excuse-me
3254.0,1835.0,3313.0,4095.0,3597.0,4095.0,4095.0,4095.0,3.31,4.2,-4.0,0.09,0.02,-0.2,0.0,905.0,3729.0,912.0,2559.0,4095.0,4095.0,4095.0,4095.0,-5.62,-1.47,-0.71,2.33,0.51,1.59,1.0,excuse-me
3253.0,1813.0,3318.0,4095.0,3602.0,4095.0,4095.0,4095.0,3.85,3.61,-4.5,0.07,-0.12,-0.28,0.0,897.0,3700.0,912.0,2527.0,4095.0,4095.0,4095.0,4095.0,12.14,3.38,13.98,-2.97,-0.24,-0.61,1.0,excuse-me
3253.0,1732.0,3328.0,4095.0,3574.0,4095.0,4095.0,4095.0,2.48,4.26,-3.75,0.16,-0.14,-0.21,0.0,911.0,3729.0,926.0,2556.0,4095.0,4095.0,4095.0,4095.0,-3.63,-2.98,17.71,-0.23,-0.77,-3.29,1.0,excuse-me
3257.0,1718.0,3337.0,4095.0,3597.0,4095.0,4095.0,4095.0,3.18,4.32,-3.62,0.0,0.02,-0.09,0.0,912.0,3728.0,920.0,2601.0,3856.0,4095.0,4095.0,4095.0,0.39,2.09,8.89,0.07,-0.05,-0.01,1.0,excuse-me
3248.0,1716.0,3326.0,4095.0,3581.0,4095.0,4095.0,4095.0,3.38,3.87,-4.81,0.04,0.05,-0.1,0.0,912.0,3728.0,913.0,2608.0,4095.0,4095.0,4095.0,4095.0,-1.24,1.06,10.38,-0.12,0.08,-0.12,1.0,excuse-me
3253.0,1712.0,3328.0,4095.0,3603.0,4095.0,4095.0,4095.0,3.35,4.17,-4.47,0.02,0.06,-0.13,0.0,899.0,3725.0,912.0,2611.0,4095.0,4095.0,4095.0,4095.0,-0.76,1.71,10.12,0.07,-0.01,-0.11,1.0,excuse-me
3246.0,976.0,4023.0,3827.0,2850.0,2908.0,3699.0,3174.0,10.24,-2.37,3.87,0.66,-0.2,-0.7,0.0,976.0,3968.0,941.0,3239.0,4095.0,4047.0,4095.0,4095.0,-3.51,-7.01,6.16,-0.05,-0.3,0.35,1.0,excuse-me
3200.0,944.0,3289.0,3745.0,2786.0,2926.0,3715.0,3166.0,10.25,0.56,5.41,0.22,0.3,-2.92,0.0,973.0,4010.0,947.0,3234.0,4095.0,4026.0,4095.0,4095.0,-2.83,-6.88,8.36,0.09,0.29,-0.05,1.0,excuse-me
3200.0,1474.0,4095.0,4010.0,3091.0,3195.0,3870.0,4055.0,0.85,4.16,4.95,2.25,-6.17,-3.97,0.0,949.0,4095.0,917.0,3243.0,4095.0,4095.0,4095.0,4095.0,-11.97,-11.74,4.32,3.75,2.35,3.41,1.0,excuse-me
3139.0,965.0,3337.0,3999.0,3568.0,4055.0,4095.0,4095.0,5.41,2.35,-4.64,0.22,-1.29,-0.42,0.0,934.0,4095.0,907.0,2490.0,4095.0,4095.0,4095.0,4095.0,-4.31,-5.5,-3.59,0.97,-0.13,5.56,1.0,excuse-me
3152.0,978.0,3346.0,4095.0,3570.0,4095.0,4095.0,4095.0,4.87,2.96,-4.07,-0.21,-0.29,-0.22,0.0,927.0,4095.0,909.0,2397.0,4095.0,4095.0,4095.0,4095.0,0.92,-0.47,-6.12,-2.64,-1.77,3.75,1.0,excuse-me
3165.0,971.0,3353.0,4095.0,3581.0,4095.0,4095.0,4095.0,4.71,3.53,-3.68,-0.37,0.03,-0.17,0.0,923.0,4095.0,929.0,2447.0,4095.0,4095.0,4095.0,4095.0,6.45,0.26,16.96,-1.15,0.33,-4.22,1.0,excuse-me
3168.0,963.0,3360.0,4095.0,3569.0,4095.0,4095.0,4095.0,3.82,4.43,-3.41,0.2,0.02,-0.41,0.0,926.0,4095.0,918.0,2479.0,4095.0,4095.0,4095.0,4095.0,-1.12,1.38,-2.32,0.38,0.67,2.69,1.0,excuse-me
3168.0,976.0,3369.0,4095.0,3603.0,4095.0,4095.0,4095.0,3.59,3.73,-4.78,0.1,0.03,-0.18,0.0,918.0,4039.0,917.0,2501.0,4095.0,4095.0,4095.0,4095.0,10.67,4.02,6.78,-2.88,0.28,1.61,1.0,excuse-me
3169.0,965.0,3370.0,4095.0,3606.0,4095.0,4095.0,4095.0,3.14,4.23,-4.21,0.15,0.08,-0.17,0.0,922.0,3983.0,922.0,2533.0,4095.0,4095.0,4095.0,4095.0,-20.48,-9.18,13.96,2.39,1.26,-0.72,1.0,excuse-me
3183.0,977.0,3371.0,4095.0,3583.0,4095.0,4095.0,4095.0,3.96,3.85,-4.51,0.08,-0.02,-0.25,0.0,912.0,3946.0,918.0,2555.0,4095.0,4095.0,4095.0,4095.0,-3.12,-0.61,-0.74,0.44,0.7,2.73,1.0,excuse-me
3182.0,967.0,3382.0,4095.0,3583.0,4082.0,4095.0,4095.0,3.81,3.33,-4.7,-0.02,0.03,-0.31,0.0,912.0,3920.0,919.0,2545.0,4095.0,4095.0,4095.0,4095.0,14.71,6.53,21.43,-1.45,-1.25,-2.7,1.0,excuse-me
3178.0,974.0,3375.0,4095.0,3579.0,4050.0,4095.0,4095.0,3.87,3.96,-3.85,0.07,-0.0,-0.15,0.0,915.0,3919.0,916.0,2512.0,4095.0,4095.0,4095.0,4095.0,-18.44,-11.48,23.88,2.69,1.4,-1.48,1.0,excuse-me
3177.0,962.0,3404.0,4095.0,3583.0,4066.0,4095.0,4095.0,3.42,4.03,-4.5,0.09,-0.0,-0.16,0.0,905.0,3933.0,917.0,2547.0,4095.0,4095.0,4095.0,4095.0,-5.24,-1.48,-2.0,1.98,1.09,1.89,1.0,excuse-me
3175.0,960.0,3399.0,4095.0,3581.0,4019.0,4095.0,4095.0,4.06,3.6,-4.58,-0.05,-0.04,-0.21,0.0,909.0,3895.0,913.0,2614.0,4095.0,4095.0,4095.0,4095.0,15.27,6.35,16.86,-2.33,-1.9,-0.85,1.0,excuse-me
3176.0,977.0,3405.0,4095.0,3555.0,3931.0,4095.0,4095.0,3.53,3.9,-4.22,0.04,-0.01,-0.27,0.0,898.0,3897.0,921.0,2626.0,4095.0,4095.0,4095.0,4095.0,-6.69,-5.05,17.6,-0.77,0.58,-3.6,1.0,excuse-me
3183.0,972.0,3428.0,4095.0,3565.0,3957.0,4095.0,4095.0,3.21,4.06,-3.88,0.09,0.02,-0.2,0.0,912.0,3902.0,916.0,2633.0,4095.0,4095.0,4095.0,4095.0,-6.1,0.57,7.07,0.75,0.1,-0.04,1.0,excuse-me
3194.0,956.0,3422.0,4095.0,3563.0,3959.0,4095.0,4095.0,3.7,3.88,-4.88,0.05,-0.01,-0.17,0.0,903.0,3884.0,923.0,2639.0,4095.0,4095.0,4095.0,4095.0,-1.5,2.22,9.76,-0.11,0.12,-0.08,1.0,excuse-me
3180.0,960.0,3416.0,4095.0,3561.0,3970.0,4095.0,4095.0,3.53,4.02,-4.57,-0.03,0.07,-0.14,0.0,903.0,3913.0,914.0,2640.0,4095.0,4095.0,4095.0,4095.0,-1.47,2.42,10.02,-0.1,0.16,-0.06,1.0,excuse-me
3179.0,975.0,3423.0,4095.0,3559.0,3957.0,4095.0,4095.0,3.64,3.95,-4.27,-0.03,0.02,-0.13,0.0,897.0,3914.0,923.0,2640.0,4095.0,4095.0,4095.0,4095.0,-1.69,2.17,9.75,-0.08,0.03,-0.08,1.0,excuse-me
3166.0,976.0,3422.0,4095.0,3567.0,3965.0,4095.0,4095.0,3.76,4.05,-4.27,-0.02,0.05,-0.12,0.0,900.0,3907.0,917.0,2639.0,4095.0,4095.0,4095.0,4095.0,-1.72,2.35,9.63,-0.03,-0.02,-0.06,1.0,excuse-me
3222.0,1688.0,3466.0,4095.0,3548.0,4015.0,4095.0,4095.0,4.98,3.49,-3.95,-0.05,0.09,-0.15,0.0,927.0,4095.0,895.0,2753.0,4095.0,4095.0,4095.0,4095.0,-5.66,1.6,8.95,0.01,-0.2,-0.16,1.0,excuse-me
3239.0,1661.0,3489.0,4095.0,3544.0,3995.0,4095.0,4095.0,4.54,3.34,-3.98,0.02,0.05,-0.25,0.0,925.0,4095.0,896.0,2634.0,4095.0,4095.0,4095.0,4095.0,-5.69,2.24,8.56,-0.04,-0.25,0.1,1.0,excuse-me
3239.0,1618.0,3477.0,4095.0,3561.0,4039.0,4095.0,4095.0,4.29,3.57,-4.07,0.17,-0.23,-0.19,0.0,915.0,4095.0,901.0,2343.0,4095.0,4095.0,4095.0,4095.0,-9.57,-0.57,15.14,1.47,-0.25,0.49,1.0,excuse-me
3226.0,1504.0,3473.0,4095.0,3583.0,4095.0,4095.0,4095.0,4.21,3.31,-4.42,-0.05,-0.22,-0.28,0.0,906.0,4095.0,893.0,2331.0,4095.0,4095.0,4095.0,4095.0,-7.2,-0.98,-1.8,1.13,-0.46,2.74,1.0,excuse-me
3227.0,1520.0,3469.0,4095.0,3582.0,4095.0,4095.0,4095.0,3.78,3.38,-4.1,-0.04,0.03,-0.33,0.0,1014.0,4011.0,895.0,2473.0,4095.0,4095.0,4095.0,4095.0,11.3,5.24,18.28,-1.58,-0.94,-1.45,1.0,excuse-me
3242.0,1520.0,3471.0,4095.0,3583.0,4095.0,4095.0,4095.0,3.99,4.09,-3.94,0.14,0.01,-0.28,0.0,1555.0,3984.0,901.0,2483.0,4095.0,4095.0,4095.0,4095.0,-10.69,-2.69,4.34,2.85,0.71,0.67,1.0,excuse-me
3248.0,1515.0,3467.0,4095.0,3601.0,4095.0,4095.0,4095.0,3.15,3.58,-4.92,-0.21,0.02,-0.1,0.0,1428.0,3945.0,902.0,2507.0,4095.0,4095.0,4095.0,4095.0,7.94,4.89,8.73,-2.77,0.47,0.22,1.0,excuse-me
3254.0,1473.0,3463.0,4095.0,3637.0,4095.0,4095.0,4095.0,3.24,3.88,-3.98,0.0,-0.04,-0.19,0.0,1635.0,3933.0,907.0,2526.0,4095.0,4095.0,4095.0,4095.0,-17.66,-8.25,12.48,2.11,0.78,-0.58,1.0,excuse-me
3246.0,1462.0,3466.0,4095.0,3664.0,4095.0,4095.0,4095.0,3.43,3.91,-4.45,0.02,-0.02,-0.26,0.0,1615.0,3929.0,902.0,2559.0,4095.0,4095.0,4095.0,4095.0,-2.64,-1.2,0.81,0.65,0.86,2.52,1.0,excuse-me
3235.0,1462.0,3469.0,4095.0,3648.0,4095.0,4095.0,4095.0,3.42,3.33,-4.81,-0.0,-0.0,-0.17,0.0,1535.0,3916.0,909.0,2551.0,4095.0,4095.0,4095.0,4095.0,8.08,4.99,4.2,-1.93,1.14,1.44,1.0,excuse-me
3238.0,1479.0,3459.0,4095.0,3641.0,4095.0,4095.0,4095.0,2.77,3.96,-4.53,-0.07,0.0,-0.04,0.0,1553.0,3905.0,918.0,2555.0,4095.0,4095.0,4095.0,4095.0,-11.48,-6.07,20.1,1.72,0.24,-2.21,1.0,excuse-me
3244.0,1474.0,3476.0,4095.0,3637.0,4095.0,4095.0,4095.0,3.62,3.92,-4.22,-0.02,0.0,0.03,0.0,1520.0,3905.0,911.0,2559.0,4095.0,4095.0,4095.0,4095.0,-9.95,-3.81,1.44,1.94,0.76,1.76,1.0,excuse-me
3238.0,1473.0,3472.0,4095.0,3633.0,4095.0,4095.0,4095.0,4.39,3.53,-4.89,0.0,-0.12,-0.26,0.0,1423.0,3872.0,905.0,2559.0,4095.0,4095.0,4095.0,4095.0,5.96,2.81,1.5,-0.72,0.71,2.39,1.0,excuse-me
3248.0,1466.0,3459.0,4095.0,3648.0,4095.0,4095.0,4095.0,3.72,3.79,-4.17,-0.04,0.09,-0.3,0.0,1279.0,3888.0,914.0,2608.0,4095.0,4095.0,4095.0,4095.0,-3.66,-0.73,18.68,-0.71,-1.3,-2.88,1.0,excuse-me
3259.0,1459.0,3475.0,4095.0,3632.0,4095.0,4095.0,4095.0,3.71,4.31,-3.67,-0.07,-0.11,-0.14,0.0,1381.0,3913.0,910.0,2694.0,4095.0,4095.0,4095.0,4095.0,-5.66,-0.33,8.84,0.51,-0.07,-0.21,1.0,excuse-me
3245.0,1445.0,3467.0,4095.0,3641.0,4095.0,4095.0,4095.0,3.93,3.77,-4.73,0.02,0.04,-0.18,0.0,1378.0,3922.0,901.0,2689.0,4095.0,4095.0,4095.0,4095.0,-0.84,1.84,10.52,-0.01,0.15,-0.1,1.0,excuse-me
3246.0,1424.0,3472.0,4095.0,3655.0,4095.0,4095.0,4095.0,3.47,4.15,-4.17,0.0,0.06,-0.11,0.0,1377.0,3901.0,910.0,2695.0,4095.0,4095.0,4095.0,4095.0,-0.7,1.98,9.7,-0.03,-0.01,-0.03,1.0,excuse-me
3238.0,1424.0,3478.0,4095.0,3643.0,4095.0,4095.0,4095.0,3.84,3.92,-4.45,-0.02,0.04,-0.1,0.0,1439.0,3915.0,911.0,2707.0,4095.0,4095.0,4095.0,4095.0,-1.15,1.78,9.73,-0.06,0.06,-0.07,1.0,excuse-me
3248.0,1395.0,3470.0,4095.0,3646.0,4095.0,4095.0,4095.0,3.89,3.95,-4.4,-0.05,0.02,-0.1,0.0,1438.0,3913.0,909.0,2685.0,4095.0,4095.0,4095.0,4095.0,-0.82,1.84,9.94,-0.06,0.01,-0.07,1.0,excuse-me
3248.0,1421.0,3472.0,4095.0,3641.0,4095.0,4095.0,4095.0,3.99,4.07,-4.13,-0.02,0.06,-0.12,0.0,1457.0,3907.0,912.0,2701.0,4095.0,4095.0,4095.0,4095.0,-1.02,1.9,10.04,0.02,-0.08,-0.06,1.0,excuse-me
