hall_1,hall_2,hall_3,flex_t,flex_i,flex_m,flex_r,flex_p,accel_x,accel_y,accel_z,gyro_x,gyro_y,gyro_z,hand,sign
3037.0,3019.0,2927.0,4095.0,3216.0,4095.0,4095.0,4095.0,-2.04,9.42,6.51,0.04,0.34,-0.13,0.0,f
3021.0,3005.0,2917.0,4095.0,3225.0,4095.0,4095.0,4095.0,-1.9,9.43,6.49,0.02,-0.2,-0.16,0.0,f
3028.0,3015.0,2914.0,4095.0,3220.0,4095.0,4095.0,4095.0,-1.9,9.37,6.61,-0.02,0.07,-0.06,0.0,f
3024.0,3019.0,2925.0,4095.0,3223.0,4095.0,4095.0,4095.0,-1.53,9.41,6.73,0.02,0.15,-0.1,0.0,f
3024.0,3024.0,2922.0,4095.0,3230.0,4095.0,4095.0,4095.0,-1.88,9.48,6.14,0.13,0.04,-0.16,0.0,f
3022.0,3014.0,2927.0,4095.0,3218.0,4095.0,4095.0,4095.0,-1.64,9.47,6.28,-0.09,0.06,-0.1,0.0,f
3018.0,3006.0,2928.0,4095.0,3235.0,4095.0,4095.0,4095.0,-1.73,9.41,6.47,-0.02,-0.25,-0.18,0.0,f
3021.0,3010.0,2923.0,4095.0,3216.0,4095.0,4095.0,4095.0,-1.83,9.3,6.91,-0.08,-0.14,-0.12,0.0,f
3023.0,3003.0,2931.0,4095.0,3232.0,4095.0,4095.0,4095.0,-1.73,9.38,6.75,0.0,-0.21,-0.15,0.0,f
3027.0,3018.0,2919.0,4095.0,3223.0,4095.0,4095.0,4095.0,-1.64,9.43,6.73,-0.05,-0.07,-0.07,0.0,f
3026.0,3022.0,2928.0,4095.0,3235.0,4095.0,4095.0,4095.0,-1.23,9.42,6.85,-0.03,-0.26,-0.07,0.0,f
3028.0,2997.0,2930.0,4095.0,3232.0,4095.0,4095.0,4095.0,-1.07,9.41,7.02,-0.02,-0.09,-0.07,0.0,f
3033.0,3023.0,2935.0,4095.0,3231.0,4095.0,4095.0,4095.0,-0.95,9.4,7.07,0.04,-0.04,-0.07,0.0,f
3036.0,3022.0,2929.0,4095.0,3226.0,4095.0,4095.0,4095.0,-0.91,9.48,6.86,0.05,-0.02,-0.13,0.0,f
3035.0,3005.0,2931.0,4095.0,3237.0,4095.0,4095.0,4095.0,-1.06,9.49,6.7,0.0,-0.02,-0.15,0.0,f
3015.0,2999.0,2928.0,4095.0,3226.0,4095.0,4095.0,4095.0,-1.02,9.41,6.95,0.01,-0.06,-0.14,0.0,f
3025.0,3002.0,2925.0,4095.0,3226.0,4095.0,4095.0,4095.0,-1.12,9.43,6.92,-0.02,-0.02,-0.12,0.0,f
3029.0,3009.0,2928.0,4095.0,3228.0,4095.0,4095.0,4095.0,-0.95,9.46,7.01,0.04,-0.03,-0.11,0.0,f
3015.0,3002.0,2925.0,4095.0,3238.0,4095.0,4095.0,4095.0,-0.84,9.45,6.94,0.03,-0.01,-0.09,0.0,f
3031.0,3020.0,2917.0,4095.0,3235.0,4095.0,4095.0,4095.0,-1.09,9.57,6.73,0.07,0.08,-0.05,0.0,f
3035.0,3017.0,2919.0,4095.0,3237.0,4095.0,4095.0,4095.0,-1.05,9.48,6.84,0.01,0.0,-0.16,0.0,f
3025.0,3005.0,2935.0,4095.0,3243.0,4095.0,4095.0,4095.0,-1.07,9.47,6.85,0.02,-0.0,-0.16,0.0,f
3011.0,3023.0,2916.0,4095.0,3239.0,4095.0,4095.0,4095.0,-0.98,9.46,6.9,-0.02,0.01,-0.16,0.0,f
3034.0,3024.0,2932.0,4095.0,3247.0,4095.0,4095.0,4095.0,-1.0,9.44,7.0,0.01,-0.03,-0.17,0.0,f
3027.0,3011.0,2941.0,4095.0,3241.0,4095.0,4095.0,4095.0,-1.04,9.44,6.92,0.03,0.01,-0.15,0.0,f
3020.0,3007.0,2918.0,4095.0,3246.0,4095.0,4095.0,4095.0,-0.98,9.45,6.8,0.0,0.01,-0.14,0.0,f
3024.0,3010.0,2929.0,4095.0,3246.0,4095.0,4095.0,4095.0,-0.97,9.43,6.96,0.03,-0.06,-0.19,0.0,f
3022.0,3008.0,2928.0,4095.0,3239.0,4095.0,4095.0,4095.0,-1.18,9.43,6.91,-0.0,0.0,-0.14,0.0,f
3039.0,3005.0,2930.0,4095.0,3244.0,4095.0,4095.0,4095.0,-1.04,9.45,6.87,0.02,-0.0,-0.13,0.0,f
3024.0,3010.0,2926.0,4095.0,3241.0,4095.0,4095.0,4095.0,-0.95,9.47,6.71,-0.04,-0.02,-0.1,0.0,f
3026.0,3007.0,2933.0,4095.0,3247.0,4095.0,4095.0,4095.0,-0.35,9.34,7.42,-0.01,0.19,-0.18,0.0,f
3031.0,2999.0,2928.0,4095.0,3242.0,4095.0,4095.0,4095.0,-1.26,9.4,7.03,0.09,-0.05,-0.27,0.0,f
3024.0,3015.0,2928.0,4095.0,3247.0,4095.0,4095.0,4095.0,-1.43,9.48,6.68,0.05,0.09,-0.16,0.0,f
3022.0,3007.0,2923.0,4095.0,3243.0,4095.0,4095.0,4095.0,-1.28,9.44,6.85,-0.02,-0.01,-0.1,0.0,f
3039.0,3007.0,2932.0,4095.0,3248.0,4095.0,4095.0,4095.0,-1.03,9.45,6.98,-0.01,0.13,-0.08,0.0,f
3024.0,2997.0,2928.0,4095.0,3242.0,4095.0,4095.0,4095.0,-1.02,9.45,6.88,0.03,-0.02,-0.18,0.0,f
3037.0,3008.0,2934.0,4095.0,3241.0,4095.0,4095.0,4095.0,-1.28,9.48,6.85,0.01,0.04,-0.15,0.0,f
3027.0,3024.0,2928.0,4095.0,3251.0,4095.0,4095.0,4095.0,-1.27,9.39,7.02,-0.01,-0.06,-0.13,0.0,f
3014.0,3008.0,2928.0,4095.0,3242.0,4095.0,4095.0,4095.0,-1.01,9.43,6.94,-0.01,0.01,-0.1,0.0,f
3030.0,3010.0,2928.0,4095.0,3254.0,4095.0,4095.0,4095.0,-0.96,9.45,6.92,0.03,-0.01,-0.15,0.0,f
3030.0,3008.0,2922.0,4095.0,3247.0,4095.0,4095.0,4095.0,-0.96,9.5,6.78,0.05,0.04,-0.17,0.0,f
3029.0,3022.0,2931.0,4095.0,3253.0,4095.0,4095.0,4095.0,-1.0,9.39,6.89,-0.01,0.02,-0.16,0.0,f
3019.0,3007.0,2928.0,4095.0,3248.0,4095.0,4095.0,4095.0,-1.06,9.47,7.07,-0.01,-0.02,-0.13,0.0,f
3038.0,3021.0,2929.0,4095.0,3254.0,4095.0,4095.0,4095.0,-0.91,9.43,6.96,0.06,-0.01,-0.2,0.0,f
3027.0,3013.0,2927.0,4095.0,3250.0,4095.0,4095.0,4095.0,-1.25,9.5,6.73,0.04,0.02,-0.21,0.0,f
3037.0,2998.0,2930.0,4095.0,3243.0,4095.0,4095.0,4095.0,-1.36,9.44,6.76,-0.03,-0.04,-0.17,0.0,f
3025.0,3003.0,2929.0,4095.0,3258.0,4095.0,4095.0,4095.0,-1.07,9.42,7.1,-0.04,-0.02,-0.12,0.0,f
3023.0,3003.0,2931.0,4095.0,3249.0,4095.0,4095.0,4095.0,-0.99,9.41,7.13,0.01,-0.05,-0.11,0.0,f
3025.0,3007.0,2926.0,4095.0,3253.0,4095.0,4095.0,4095.0,-0.88,9.35,7.22,0.05,0.05,-0.12,0.0,f
3028.0,3014.0,2928.0,4095.0,3248.0,4095.0,4095.0,4095.0,-0.94,9.46,6.88,0.05,0.03,-0.1,0.0,f
3030.0,3007.0,2933.0,4095.0,3249.0,4095.0,4095.0,4095.0,-0.85,9.48,6.83,0.03,-0.01,-0.14,0.0,f
3017.0,2988.0,2919.0,4095.0,3248.0,4095.0,4095.0,4095.0,-0.9,9.46,6.83,0.0,0.0,-0.16,0.0,f
3024.0,3019.0,2931.0,4095.0,3248.0,4095.0,4095.0,4095.0,-0.8,9.43,7.04,0.02,-0.02,-0.18,0.0,f
3024.0,3004.0,2931.0,4095.0,3247.0,4095.0,4095.0,4095.0,-1.23,9.43,6.77,-0.03,0.0,-0.21,0.0,f
3025.0,3019.0,2929.0,4095.0,3255.0,4095.0,4095.0,4095.0,-1.28,9.44,6.84,-0.05,-0.04,-0.17,0.0,f
3038.0,3008.0,2933.0,4095.0,3248.0,4095.0,4095.0,4095.0,-0.89,9.33,7.29,-0.07,-0.1,-0.18,0.0,f
3031.0,3003.0,2928.0,4095.0,3251.0,4095.0,4095.0,4095.0,-1.14,9.33,7.16,0.04,0.03,-0.18,0.0,f
3036.0,3002.0,2941.0,4095.0,3255.0,4095.0,4095.0,4095.0,-1.06,9.41,7.01,-0.07,-0.05,-0.13,0.0,f
3024.0,2998.0,2926.0,4095.0,3248.0,4095.0,4095.0,4095.0,-0.86,9.25,7.75,-0.03,0.03,-0.12,0.0,f
3024.0,2997.0,2944.0,4095.0,3257.0,4095.0,4095.0,4095.0,-1.11,9.3,7.46,0.14,0.17,-0.12,0.0,f
3019.0,2993.0,2931.0,4095.0,3261.0,4095.0,4095.0,4095.0,-1.51,9.5,6.61,0.03,-0.0,-0.14,0.0,f
3027.0,2992.0,2941.0,4095.0,3249.0,4095.0,4095.0,4095.0,-1.15,9.3,7.02,-0.02,-0.1,-0.09,0.0,f
3024.0,2999.0,2934.0,4095.0,3241.0,4003.0,4095.0,4095.0,-0.72,9.36,7.05,0.17,0.21,-0.12,0.0,f
3026.0,2989.0,2931.0,4095.0,3216.0,3904.0,4095.0,4095.0,-1.08,9.51,6.77,0.03,0.02,-0.08,0.0,f
3023.0,2992.0,2926.0,4095.0,3217.0,4026.0,4095.0,4095.0,-0.9,9.53,6.69,0.04,0.08,-0.04,0.0,f
3031.0,3002.0,2939.0,4095.0,3220.0,4095.0,4095.0,4095.0,-0.54,9.52,6.8,-0.0,-0.0,-0.04,0.0,f
3024.0,2992.0,2928.0,4095.0,3206.0,4095.0,4095.0,4095.0,-0.62,9.53,6.68,0.01,0.07,-0.11,0.0,f
3039.0,2993.0,2928.0,4095.0,3211.0,4095.0,4095.0,4095.0,-0.79,9.55,6.65,-0.02,0.07,-0.17,0.0,f
3024.0,2979.0,2932.0,4095.0,3206.0,4095.0,4095.0,4095.0,-0.67,9.43,6.91,-0.01,0.03,-0.21,0.0,f
3027.0,2998.0,2928.0,4095.0,3211.0,4095.0,4095.0,4095.0,-1.24,9.45,6.82,0.01,0.01,-0.25,0.0,f
3031.0,2975.0,2928.0,4095.0,3188.0,4095.0,4095.0,4095.0,-1.22,9.48,6.95,-0.01,-0.06,-0.19,0.0,f
3025.0,2976.0,2928.0,4095.0,3184.0,4048.0,4095.0,4095.0,-1.13,9.45,6.89,0.02,-0.05,-0.14,0.0,f
3025.0,2986.0,2927.0,4095.0,3195.0,3710.0,4095.0,4095.0,-1.04,9.46,6.77,0.05,0.03,-0.1,0.0,f
3026.0,2976.0,2928.0,4095.0,3175.0,3695.0,4095.0,4095.0,-0.55,9.5,6.89,0.01,-0.01,-0.09,0.0,f
3031.0,2964.0,2917.0,4095.0,3152.0,4095.0,4095.0,4095.0,-0.96,9.47,6.81,0.17,-0.08,-0.21,0.0,f
3037.0,2978.0,2922.0,4095.0,3162.0,4095.0,4095.0,4095.0,-1.07,9.52,6.48,0.06,-0.1,-0.17,0.0,f
3032.0,2963.0,2925.0,4095.0,3145.0,4095.0,4095.0,4095.0,-1.08,9.61,6.63,0.01,-0.19,-0.13,0.0,f
3023.0,2962.0,2928.0,4095.0,3143.0,4095.0,4095.0,4095.0,-0.53,9.5,6.82,0.03,-0.16,-0.11,0.0,f
3035.0,2971.0,2931.0,4095.0,3151.0,4095.0,4095.0,4095.0,-0.81,9.57,6.47,0.05,0.02,-0.21,0.0,f
3029.0,2950.0,2928.0,4095.0,3147.0,4095.0,4095.0,4095.0,-1.18,9.52,6.42,-0.01,0.07,-0.18,0.0,f
3029.0,2961.0,2927.0,4095.0,3152.0,4095.0,4095.0,4095.0,-0.59,9.48,7.02,0.01,0.04,-0.1,0.0,f
3024.0,2959.0,2928.0,4095.0,3158.0,4095.0,4095.0,4095.0,-0.74,9.56,6.69,0.04,0.01,-0.17,0.0,f
3022.0,2947.0,2927.0,4095.0,3152.0,4095.0,4095.0,4095.0,-0.95,9.59,6.62,0.03,0.06,-0.18,0.0,f
3035.0,2960.0,2933.0,4095.0,3165.0,4095.0,4095.0,4095.0,-0.96,9.5,6.74,0.02,0.02,-0.14,0.0,f
3017.0,2945.0,2922.0,4095.0,3159.0,4095.0,4095.0,4095.0,-0.69,9.48,6.93,0.02,0.04,-0.15,0.0,f
3039.0,2960.0,2925.0,4095.0,3167.0,4095.0,4095.0,4095.0,-1.05,9.55,6.56,0.04,0.01,-0.22,0.0,f
3034.0,2954.0,2928.0,4095.0,3160.0,4095.0,4095.0,4095.0,-1.13,9.61,6.32,-0.02,0.0,-0.15,0.0,f
3031.0,2944.0,2926.0,4095.0,3159.0,4095.0,4095.0,4095.0,-1.01,9.49,6.8,-0.05,-0.03,-0.12,0.0,f
3024.0,2959.0,2928.0,4095.0,3163.0,4095.0,4095.0,4095.0,-0.61,9.45,7.04,0.01,-0.05,-0.16,0.0,f
3024.0,2949.0,2923.0,4095.0,3155.0,4095.0,4095.0,4095.0,-0.81,9.42,7.04,0.02,0.03,-0.09,0.0,f
3029.0,2959.0,2926.0,4095.0,3171.0,4095.0,4095.0,4095.0,-0.79,9.52,6.69,0.01,0.02,-0.13,0.0,f
3024.0,2949.0,2933.0,4095.0,3168.0,4095.0,4095.0,4095.0,-0.87,9.5,6.76,0.01,-0.01,-0.12,0.0,f
3028.0,2959.0,2943.0,4095.0,3166.0,4095.0,4095.0,4095.0,-0.7,9.48,6.77,-0.01,-0.03,-0.14,0.0,f
3024.0,2964.0,2939.0,4095.0,3167.0,4095.0,4095.0,4095.0,-0.74,9.45,6.89,0.01,0.02,-0.11,0.0,f
3031.0,2960.0,2930.0,4095.0,3173.0,4095.0,4095.0,4095.0,-0.73,9.49,6.8,0.05,0.04,-0.14,0.0,f
3039.0,2953.0,2921.0,4095.0,3155.0,4082.0,4095.0,4095.0,-1.11,9.64,6.39,0.02,0.03,-0.2,0.0,f
3027.0,2960.0,2927.0,4095.0,3169.0,4091.0,4095.0,4095.0,-1.03,9.56,6.55,-0.01,-0.09,-0.14,0.0,f
3022.0,2960.0,2913.0,4095.0,3169.0,4095.0,4095.0,4095.0,-0.74,9.52,6.7,-0.04,-0.05,-0.14,0.0,f
3021.0,2962.0,2936.0,4095.0,3163.0,4083.0,4095.0,4095.0,-0.79,9.49,6.85,-0.02,-0.07,-0.15,0.0,f
3037.0,2957.0,2935.0,4095.0,3165.0,4095.0,4095.0,4095.0,-0.68,9.48,7.02,-0.05,0.02,-0.1,0.0,f
3027.0,2962.0,2931.0,4095.0,3175.0,4095.0,4095.0,4095.0,-0.65,9.44,7.04,-0.01,0.0,-0.13,0.0,f
3031.0,2959.0,2930.0,4095.0,3171.0,4095.0,4095.0,4095.0,-0.81,9.45,6.86,0.04,0.03,-0.2,0.0,f
3036.0,2960.0,2934.0,4095.0,3163.0,4095.0,4095.0,4095.0,-1.19,9.52,6.62,0.02,-0.01,-0.17,0.0,f
3018.0,2946.0,2919.0,4095.0,3152.0,4051.0,4095.0,4095.0,-0.92,9.48,6.85,-0.01,-0.03,-0.12,0.0,f
3035.0,2963.0,2928.0,4095.0,3158.0,4079.0,4095.0,4095.0,-0.79,9.46,6.93,0.0,-0.03,-0.13,0.0,f
3037.0,2950.0,2935.0,4095.0,3152.0,4057.0,4095.0,4095.0,-0.72,9.47,6.89,0.0,-0.03,-0.14,0.0,f
3026.0,2959.0,2923.0,4095.0,3157.0,4079.0,4095.0,4095.0,-0.7,9.45,7.08,-0.02,-0.02,-0.15,0.0,f
3024.0,2963.0,2931.0,4095.0,3162.0,4070.0,4095.0,4095.0,-0.75,9.47,6.96,0.01,-0.02,-0.15,0.0,f
3027.0,2953.0,2928.0,4095.0,3159.0,4055.0,4095.0,4095.0,-0.74,9.44,7.03,0.02,-0.01,-0.17,0.0,f
3029.0,2956.0,2931.0,4095.0,3164.0,4080.0,4095.0,4095.0,-0.72,9.48,6.91,-0.0,-0.0,-0.17,0.0,f
3025.0,2951.0,2929.0,4095.0,3152.0,4058.0,4095.0,4095.0,-0.55,9.43,7.34,-0.0,0.02,-0.15,0.0,f
3024.0,2951.0,2928.0,4095.0,3165.0,4076.0,4095.0,4095.0,-1.05,9.45,6.89,0.09,0.02,-0.27,0.0,f
3024.0,2957.0,2928.0,4095.0,3157.0,4071.0,4095.0,4095.0,-1.44,9.49,6.63,0.06,0.04,-0.19,0.0,f
3039.0,2960.0,2931.0,4095.0,3171.0,4087.0,4095.0,4095.0,-1.2,9.48,6.7,-0.01,-0.01,-0.08,0.0,f
3028.0,2960.0,2935.0,4095.0,3155.0,4059.0,4095.0,4095.0,-0.78,9.48,6.91,-0.03,-0.0,-0.04,0.0,f
3029.0,2954.0,2932.0,4095.0,3170.0,4084.0,4095.0,4095.0,-0.43,9.48,7.03,-0.02,-0.04,-0.13,0.0,f
3024.0,2943.0,2919.0,4095.0,3166.0,4075.0,4095.0,4095.0,-0.72,9.45,7.03,-0.0,-0.01,-0.17,0.0,f
3034.0,2971.0,2941.0,4095.0,3166.0,4065.0,4095.0,4095.0,-0.86,9.46,6.95,0.01,-0.01,-0.18,0.0,f
3032.0,2955.0,2923.0,4095.0,3167.0,4081.0,4095.0,4095.0,-0.93,9.49,6.88,-0.0,-0.06,-0.16,0.0,f
3024.0,2945.0,2928.0,4095.0,3163.0,4077.0,4095.0,4095.0,-0.79,9.43,7.18,-0.0,-0.02,-0.12,0.0,f
3034.0,2937.0,2918.0,4095.0,3166.0,4059.0,4095.0,4095.0,-0.51,9.39,7.13,0.06,0.03,-0.17,0.0,f
3031.0,2947.0,2925.0,4095.0,3153.0,4080.0,4095.0,4095.0,-1.03,9.53,6.57,0.04,0.05,-0.17,0.0,f
3023.0,2941.0,2916.0,4095.0,3157.0,4073.0,4095.0,4095.0,-1.02,9.53,6.68,-0.02,-0.02,-0.12,0.0,f
3035.0,2950.0,2928.0,4095.0,3167.0,4081.0,4095.0,4095.0,-0.73,9.47,6.88,-0.02,-0.03,-0.12,0.0,f
3024.0,2947.0,2928.0,4095.0,3157.0,4067.0,4095.0,4095.0,-0.64,9.47,6.96,-0.03,-0.02,-0.14,0.0,f
3038.0,2958.0,2927.0,4095.0,3154.0,4075.0,4095.0,4095.0,-0.57,9.37,7.24,-0.03,-0.05,-0.16,0.0,f
3031.0,2959.0,2923.0,4095.0,3154.0,4063.0,4095.0,4095.0,-0.73,9.4,7.19,0.02,-0.01,-0.2,0.0,f
3025.0,2955.0,2930.0,4095.0,3161.0,4077.0,4095.0,4095.0,-0.86,9.44,7.03,0.03,-0.03,-0.18,0.0,f
3023.0,2947.0,2928.0,4095.0,3156.0,4049.0,4095.0,4095.0,-0.87,9.43,7.01,0.01,-0.04,-0.15,0.0,f
3023.0,2960.0,2931.0,4095.0,3154.0,4080.0,4095.0,4095.0,-0.65,9.4,7.2,-0.01,-0.01,-0.1,0.0,f
3034.0,2960.0,2929.0,4095.0,3136.0,4057.0,4095.0,4095.0,-0.35,9.44,7.4,-0.01,0.09,-0.03,0.0,f
3027.0,2961.0,2925.0,4095.0,3135.0,4080.0,4095.0,4095.0,-0.29,9.49,6.83,0.14,0.24,-0.07,0.0,f
3024.0,2978.0,2928.0,4095.0,3143.0,4095.0,4095.0,4095.0,-1.19,9.93,6.85,0.08,0.02,-0.18,0.0,f
3024.0,2960.0,2933.0,4095.0,3136.0,4095.0,4095.0,4095.0,-0.92,9.5,6.55,-0.01,0.01,-0.12,0.0,f
3031.0,2957.0,2928.0,4095.0,3142.0,4095.0,4095.0,4095.0,-0.45,9.46,7.06,-0.12,-0.1,-0.15,0.0,f
3024.0,2950.0,2929.0,4095.0,3136.0,4087.0,4095.0,4095.0,-0.36,9.31,7.62,-0.06,-0.02,-0.18,0.0,f
3019.0,2960.0,2925.0,4095.0,3152.0,4095.0,4095.0,4095.0,-0.56,9.34,7.35,0.01,0.03,-0.21,0.0,f
3024.0,2970.0,2928.0,4095.0,3146.0,4053.0,4095.0,4095.0,-0.74,9.4,7.19,0.02,-0.02,-0.21,0.0,f
3025.0,2969.0,2935.0,4095.0,3149.0,4047.0,4095.0,4095.0,-0.95,9.39,7.1,-0.0,-0.02,-0.19,0.0,f
3024.0,2951.0,2923.0,4095.0,3143.0,4015.0,4095.0,4095.0,-0.97,9.38,7.15,0.01,-0.0,-0.14,0.0,f
3035.0,2958.0,2935.0,4095.0,3153.0,3969.0,4095.0,4095.0,-0.62,9.4,7.27,0.01,0.01,-0.14,0.0,f
3026.0,2961.0,2918.0,4095.0,3149.0,3938.0,4095.0,4095.0,-0.53,9.36,7.29,0.06,0.01,-0.18,0.0,f
3036.0,2971.0,2933.0,4095.0,3154.0,3921.0,4095.0,4095.0,-1.05,9.53,6.73,0.02,0.0,-0.24,0.0,f
3023.0,2959.0,2918.0,4095.0,3147.0,3919.0,4095.0,4095.0,-1.15,9.43,7.04,-0.08,-0.07,-0.14,0.0,f
3027.0,2960.0,2928.0,4095.0,3152.0,3927.0,4095.0,4095.0,-0.85,9.33,7.32,-0.02,-0.05,-0.14,0.0,f
3015.0,2960.0,2921.0,4095.0,3150.0,3936.0,4095.0,4095.0,-0.82,9.31,7.48,-0.06,-0.01,-0.07,0.0,f
3030.0,2986.0,2931.0,4095.0,3150.0,4054.0,4095.0,4095.0,-0.3,9.2,7.63,-0.02,0.03,-0.03,0.0,f
3027.0,2971.0,2916.0,4095.0,3151.0,4089.0,4095.0,4095.0,-0.39,9.3,7.58,0.08,-0.05,-0.13,0.0,f
3021.0,2979.0,2926.0,4095.0,3152.0,4095.0,4095.0,4095.0,-0.63,9.37,7.32,0.14,0.02,-0.15,0.0,f
3031.0,2970.0,2925.0,4095.0,3143.0,4094.0,4095.0,4095.0,-0.68,9.47,6.93,0.12,0.08,-0.11,0.0,f
3024.0,2976.0,2939.0,4095.0,3153.0,4090.0,4095.0,4095.0,-0.5,9.5,6.89,0.06,0.03,-0.13,0.0,f
3029.0,2982.0,2929.0,4095.0,3155.0,4095.0,4095.0,4095.0,-0.36,9.44,7.13,-0.06,-0.02,-0.06,0.0,f
3017.0,2977.0,2922.0,4095.0,3148.0,4095.0,4095.0,4095.0,-0.28,9.37,7.39,0.02,-0.05,-0.13,0.0,f
3024.0,2985.0,2938.0,4095.0,3154.0,4095.0,4095.0,4095.0,-0.61,9.48,7.11,0.07,0.04,-0.12,0.0,f
3031.0,2982.0,2915.0,4095.0,3151.0,4095.0,4095.0,4095.0,-0.47,9.53,6.89,0.1,-0.01,-0.16,0.0,f
3034.0,2982.0,2928.0,4095.0,3152.0,4095.0,4095.0,4095.0,-0.56,9.6,6.69,0.07,-0.07,-0.18,0.0,f
3025.0,2990.0,2923.0,4095.0,3146.0,4095.0,4095.0,4095.0,-0.25,9.51,6.95,-0.04,-0.01,-0.11,0.0,f
3038.0,2985.0,2931.0,4095.0,3152.0,4095.0,4095.0,4095.0,-0.31,9.49,7.08,0.03,0.0,-0.18,0.0,f
3028.0,2974.0,2924.0,4095.0,3149.0,4095.0,4095.0,4095.0,-0.49,9.47,7.11,0.02,-0.0,-0.17,0.0,f
3023.0,2976.0,2928.0,4095.0,3158.0,4095.0,4095.0,4095.0,-0.55,9.48,6.95,0.06,0.02,-0.14,0.0,f
3043.0,2982.0,2922.0,4095.0,3163.0,4095.0,4095.0,4095.0,-0.29,9.54,6.78,0.01,-0.02,-0.17,0.0,f
3015.0,2975.0,2924.0,4095.0,3151.0,4095.0,4095.0,4095.0,-0.38,9.54,6.84,0.01,0.01,-0.16,0.0,f
3037.0,2992.0,2928.0,4095.0,3159.0,4095.0,4095.0,4095.0,-0.48,9.64,6.62,-0.0,-0.01,-0.16,0.0,f
3022.0,2966.0,2929.0,4095.0,3150.0,4095.0,4095.0,4095.0,-0.32,9.55,6.77,-0.02,-0.08,-0.16,0.0,f
3033.0,2983.0,2927.0,4095.0,3152.0,4095.0,4095.0,4095.0,-0.36,9.49,6.93,0.0,0.01,-0.16,0.0,f
3017.0,2967.0,2917.0,4095.0,3153.0,4095.0,4095.0,4095.0,-0.25,9.5,7.04,0.06,0.04,-0.14,0.0,f
3025.0,2982.0,2934.0,4095.0,3153.0,4095.0,4095.0,4095.0,-0.51,9.62,6.46,0.02,0.01,-0.23,0.0,f
3027.0,2966.0,2933.0,4095.0,3152.0,4095.0,4095.0,4095.0,-0.67,9.58,6.63,-0.01,-0.01,-0.18,0.0,f
3026.0,2975.0,2928.0,4095.0,3152.0,4095.0,4095.0,4095.0,-0.58,9.51,6.82,0.01,-0.03,-0.14,0.0,f
3030.0,2986.0,2931.0,4095.0,3163.0,4095.0,4095.0,4095.0,-0.39,9.53,6.85,-0.03,-0.03,-0.13,0.0,f
3021.0,2974.0,2932.0,4095.0,3152.0,4095.0,4095.0,4095.0,-0.24,9.48,7.09,-0.0,0.02,-0.1,0.0,f
3035.0,2986.0,2930.0,4095.0,3158.0,4095.0,4095.0,4095.0,-0.34,9.54,6.79,0.03,0.01,-0.18,0.0,f
3021.0,2977.0,2928.0,4095.0,3154.0,4095.0,4095.0,4095.0,-0.53,9.54,6.82,-0.01,-0.04,-0.17,0.0,f
3037.0,2976.0,2932.0,4095.0,3169.0,4095.0,4095.0,4095.0,-0.46,9.48,7.0,-0.02,-0.02,-0.16,0.0,f
3025.0,2970.0,2927.0,4095.0,3155.0,4095.0,4095.0,4095.0,-0.26,9.46,7.1,-0.01,0.01,-0.12,0.0,f
3035.0,2987.0,2935.0,4095.0,3163.0,4095.0,4095.0,4095.0,-0.5,9.51,6.87,0.06,0.02,-0.24,0.0,f
3024.0,2965.0,2930.0,4095.0,3153.0,4095.0,4095.0,4095.0,-0.92,9.54,6.67,0.03,-0.01,-0.21,0.0,f
3022.0,2988.0,2925.0,4095.0,3158.0,4095.0,4095.0,4095.0,-0.83,9.49,6.84,0.01,-0.05,-0.14,0.0,f
3024.0,2973.0,2917.0,4095.0,3152.0,4095.0,4095.0,4095.0,-0.53,9.49,6.95,-0.0,-0.02,-0.11,0.0,f
3036.0,2986.0,2935.0,4095.0,3167.0,4095.0,4095.0,4095.0,-0.36,9.5,7.01,-0.01,-0.01,-0.09,0.0,f
3024.0,2985.0,2926.0,4095.0,3171.0,4095.0,4095.0,4095.0,-0.76,9.51,6.79,0.01,-0.01,-0.13,0.0,f
3033.0,2967.0,2921.0,4095.0,3161.0,4095.0,4095.0,4095.0,-0.47,9.49,6.99,0.01,-0.0,-0.12,0.0,f
3029.0,2981.0,2928.0,4095.0,3166.0,4095.0,4095.0,4095.0,-0.31,9.5,6.91,0.01,-0.01,-0.11,0.0,f
3021.0,2983.0,2917.0,4095.0,3153.0,4095.0,4095.0,4095.0,-0.26,9.47,7.1,0.01,0.01,-0.16,0.0,f
3035.0,2992.0,2928.0,4095.0,3159.0,4095.0,4095.0,4095.0,-0.39,9.47,7.0,0.02,0.02,-0.17,0.0,f
3023.0,2981.0,2919.0,4095.0,3154.0,4095.0,4095.0,4095.0,-0.56,9.49,6.89,0.02,-0.01,-0.17,0.0,f
3034.0,2979.0,2927.0,4095.0,3156.0,4095.0,4095.0,4095.0,-0.49,9.51,6.9,-0.02,-0.02,-0.16,0.0,f
3033.0,2977.0,2918.0,4095.0,3166.0,4095.0,4095.0,4095.0,-0.5,9.46,7.06,-0.0,-0.0,-0.14,0.0,f
3025.0,2967.0,2927.0,4095.0,3156.0,4095.0,4095.0,4095.0,-0.46,9.49,6.94,0.01,-0.01,-0.15,0.0,f
3033.0,2979.0,2933.0,4095.0,3163.0,4095.0,4095.0,4095.0,-0.47,9.47,7.03,0.01,-0.04,-0.14,0.0,f
3024.0,2970.0,2928.0,4095.0,3155.0,4095.0,4095.0,4095.0,-0.32,9.46,7.1,0.01,-0.01,-0.13,0.0,f
3024.0,2988.0,2925.0,4095.0,3167.0,4095.0,4095.0,4095.0,-0.53,9.54,6.85,0.02,0.05,-0.16,0.0,f
3031.0,2982.0,2928.0,4095.0,3160.0,4095.0,4095.0,4095.0,-0.67,9.49,6.94,0.03,0.01,-0.18,0.0,f
3028.0,2992.0,2935.0,4095.0,3152.0,4095.0,4095.0,4095.0,0.16,9.43,6.86,-0.05,0.35,-0.12,0.0,f
3024.0,2977.0,2928.0,4095.0,3148.0,4095.0,4095.0,4095.0,-0.78,9.41,7.04,-0.1,1.65,0.11,0.0,f
3042.0,2981.0,2925.0,4095.0,3151.0,4095.0,4095.0,4095.0,-1.07,9.42,7.12,-0.02,0.58,-0.02,0.0,f
3021.0,2978.0,2927.0,4095.0,3153.0,4095.0,4095.0,4095.0,-0.99,9.45,6.95,0.04,-0.13,-0.12,0.0,f
3031.0,2981.0,2925.0,4095.0,3155.0,4095.0,4095.0,4095.0,-0.72,9.47,6.79,0.05,-0.36,-0.17,0.0,f
3027.0,2997.0,2929.0,4095.0,3162.0,4095.0,4095.0,4095.0,-0.88,9.55,6.68,0.05,-0.18,-0.15,0.0,f
3030.0,2985.0,2925.0,4095.0,3154.0,4095.0,4095.0,4095.0,-0.59,9.49,6.74,0.02,-0.43,-0.2,0.0,f
3015.0,2938.0,2917.0,3552.0,3114.0,4095.0,4095.0,4095.0,-0.55,9.34,7.43,-0.02,-0.02,-0.16,0.0,f
3020.0,2928.0,2917.0,3542.0,3104.0,4095.0,4095.0,4095.0,-0.62,9.3,7.56,0.04,0.01,-0.21,0.0,f
3024.0,2931.0,2928.0,3563.0,3122.0,4095.0,4095.0,4095.0,-0.67,9.39,7.28,0.11,-0.07,-0.25,0.0,f
3022.0,2928.0,2911.0,3543.0,3115.0,4095.0,4095.0,4095.0,-0.89,9.33,7.08,0.07,0.02,-0.23,0.0,f
3029.0,2942.0,2903.0,3568.0,3126.0,4095.0,4095.0,4095.0,-1.1,9.41,7.04,-0.0,-0.0,-0.22,0.0,f
3023.0,2925.0,2907.0,3548.0,3129.0,4095.0,4095.0,4095.0,-0.97,9.39,7.33,-0.05,-0.06,-0.24,0.0,f
3022.0,2944.0,2907.0,3567.0,3121.0,4095.0,4095.0,4095.0,-0.88,9.26,7.48,0.0,0.01,-0.19,0.0,f
3024.0,2933.0,2910.0,3568.0,3136.0,4095.0,4095.0,4095.0,-0.75,9.29,7.55,-0.04,0.07,-0.17,0.0,f
3013.0,2940.0,2898.0,3568.0,3124.0,4095.0,4095.0,4095.0,-0.74,9.17,7.7,0.01,0.16,-0.2,0.0,f
3033.0,2934.0,2909.0,3568.0,3111.0,4095.0,4095.0,4095.0,-1.48,9.25,7.56,0.11,-0.27,-0.36,0.0,f
3017.0,2934.0,2896.0,3568.0,3119.0,4095.0,4095.0,4095.0,-1.85,9.21,7.12,0.06,-0.0,-0.11,0.0,f
3027.0,2942.0,2906.0,3583.0,3127.0,4095.0,4095.0,4095.0,-1.32,9.32,7.14,0.03,-0.1,-0.05,0.0,f
3031.0,2931.0,2909.0,3568.0,3121.0,4095.0,4095.0,4095.0,-1.16,9.33,7.44,0.11,0.03,-0.04,0.0,f
3029.0,2927.0,2921.0,3583.0,3141.0,4095.0,4095.0,4095.0,-1.15,9.27,7.37,0.48,0.22,0.16,0.0,f
3019.0,2938.0,2906.0,3563.0,3111.0,4095.0,4095.0,4095.0,-0.09,9.86,5.75,0.06,0.37,-0.06,0.0,f
3030.0,2934.0,2898.0,3571.0,3126.0,4095.0,4095.0,4095.0,-0.83,9.49,6.79,-0.05,0.22,-0.1,0.0,f
3024.0,2928.0,2911.0,3581.0,3121.0,4095.0,4095.0,4095.0,-0.69,9.58,6.59,-0.03,-0.05,-0.23,0.0,f
3038.0,2926.0,2899.0,3597.0,3125.0,4095.0,4095.0,4095.0,-0.91,9.4,6.91,-0.07,-0.01,-0.23,0.0,f
3021.0,2941.0,2903.0,3606.0,3121.0,4095.0,4095.0,4095.0,-1.04,9.45,6.78,0.03,0.07,-0.25,0.0,f
3026.0,2928.0,2906.0,3601.0,3120.0,4095.0,4095.0,4095.0,-1.36,9.43,6.68,-0.01,0.07,-0.19,0.0,f
3024.0,2917.0,2902.0,3616.0,3098.0,4095.0,4095.0,4095.0,-0.89,9.51,6.64,-0.06,0.12,-0.13,0.0,f
3023.0,2928.0,2909.0,3633.0,3100.0,4095.0,4095.0,4095.0,-0.9,9.47,6.77,-0.09,0.16,-0.16,0.0,f
3014.0,2918.0,2893.0,3626.0,3088.0,4095.0,4095.0,4095.0,-1.25,9.46,6.5,-0.09,0.16,-0.29,0.0,f
3042.0,2926.0,2907.0,3619.0,3087.0,4095.0,4095.0,4095.0,-1.36,9.39,7.08,-0.14,0.27,-0.14,0.0,f
3016.0,2931.0,2895.0,3627.0,3092.0,4095.0,4095.0,4095.0,-1.39,9.34,7.11,-0.05,0.08,-0.21,0.0,f
3034.0,2917.0,2899.0,3630.0,3091.0,4095.0,4095.0,4095.0,-1.76,9.28,7.12,0.05,0.11,-0.21,0.0,f
3018.0,2919.0,2897.0,3639.0,3097.0,4095.0,4095.0,4095.0,-1.7,9.19,7.33,0.09,0.06,-0.11,0.0,f
3038.0,2916.0,2890.0,3634.0,3089.0,4095.0,4095.0,4095.0,-1.6,9.33,6.97,0.11,0.1,-0.07,0.0,f
3047.0,2917.0,2897.0,3642.0,3088.0,4095.0,4095.0,4095.0,-1.29,9.49,6.5,0.12,0.08,-0.1,0.0,f
3025.0,2912.0,2893.0,3632.0,3066.0,4095.0,4095.0,4095.0,-1.46,9.53,6.42,-0.04,-0.06,-0.11,0.0,f
3026.0,2919.0,2899.0,3644.0,3088.0,4095.0,4095.0,4095.0,-1.51,9.44,6.71,-0.16,-0.08,-0.13,0.0,f
3013.0,2902.0,2891.0,3635.0,3068.0,4095.0,4095.0,4095.0,-1.64,9.09,7.66,-0.06,-0.03,-0.12,0.0,f
3024.0,2912.0,2897.0,3669.0,3087.0,4095.0,4095.0,4095.0,-1.92,9.1,7.23,0.04,0.01,-0.01,0.0,f
3023.0,2909.0,2886.0,3662.0,3069.0,4095.0,4095.0,4095.0,-1.15,9.44,6.77,0.13,0.11,-0.07,0.0,f
3031.0,2923.0,2893.0,3671.0,3081.0,4095.0,4095.0,4095.0,-1.16,9.5,6.51,0.04,0.08,-0.1,0.0,f
3025.0,2890.0,2896.0,3666.0,3080.0,4095.0,4095.0,4095.0,-1.08,9.47,6.71,-0.04,-0.04,-0.12,0.0,f
3023.0,2910.0,2886.0,3677.0,3070.0,4095.0,4095.0,4095.0,-1.11,9.35,7.02,0.03,0.0,-0.23,0.0,f
3024.0,2910.0,2894.0,3677.0,3088.0,4095.0,4095.0,4095.0,-1.63,9.36,6.9,0.16,-0.04,-0.21,0.0,f
3023.0,2906.0,2903.0,3681.0,3088.0,4095.0,4095.0,4095.0,-1.48,9.46,6.54,0.05,0.09,-0.08,0.0,f
3024.0,2914.0,2889.0,3671.0,3089.0,4095.0,4095.0,4095.0,-1.36,9.56,6.36,0.09,0.04,-0.06,0.0,f
3041.0,2917.0,2896.0,3675.0,3060.0,4095.0,4095.0,4095.0,-1.19,9.59,6.25,0.07,-0.02,0.09,0.0,f
3018.0,2895.0,2881.0,3677.0,3059.0,4095.0,4095.0,4095.0,-0.43,9.68,5.89,0.15,-0.1,0.19,0.0,f
3031.0,2909.0,2891.0,3685.0,3061.0,4095.0,4095.0,4095.0,0.15,9.73,5.71,0.13,-0.03,0.19,0.0,f
3024.0,2898.0,2893.0,3677.0,3054.0,4095.0,4095.0,4095.0,0.63,9.89,5.25,0.1,-0.32,0.11,0.0,f
3033.0,2912.0,2896.0,3696.0,3055.0,4095.0,4095.0,4095.0,0.89,9.83,5.35,0.02,-0.11,0.11,0.0,f
3021.0,2900.0,2894.0,3703.0,3061.0,4095.0,4095.0,4095.0,1.31,9.8,5.64,-0.09,-0.06,0.05,0.0,f
3033.0,2902.0,2893.0,3696.0,3056.0,4095.0,4095.0,4095.0,1.29,9.65,5.94,-0.02,-0.08,-0.01,0.0,f
3024.0,2899.0,2886.0,3707.0,3056.0,4095.0,4095.0,4095.0,1.35,9.68,5.81,0.02,-0.07,-0.06,0.0,f
3028.0,2901.0,2896.0,3693.0,3040.0,4095.0,4095.0,4095.0,1.7,9.72,5.46,-0.01,-0.18,-0.08,0.0,f
3027.0,2911.0,2896.0,3699.0,3056.0,4095.0,4095.0,4095.0,1.6,9.71,5.83,-0.12,-0.01,-0.09,0.0,f
3021.0,2896.0,2885.0,3696.0,3052.0,4095.0,4095.0,4095.0,1.36,9.6,6.11,-0.07,-0.04,-0.08,0.0,f
3030.0,2898.0,2891.0,3721.0,3056.0,4095.0,4095.0,4095.0,1.57,9.65,5.92,-0.06,-0.04,-0.04,0.0,f
3024.0,2895.0,2879.0,3706.0,3055.0,4095.0,4095.0,4095.0,1.83,9.59,5.99,-0.0,-0.06,-0.03,0.0,f
3024.0,2890.0,2896.0,3711.0,3056.0,4095.0,4095.0,4095.0,2.18,9.66,5.85,-0.06,-0.06,-0.04,0.0,f
3023.0,2891.0,2891.0,3698.0,3055.0,4095.0,4095.0,4095.0,2.15,9.59,6.02,-0.14,-0.04,-0.13,0.0,f
3024.0,2902.0,2887.0,3716.0,3066.0,4095.0,4095.0,4095.0,1.98,9.51,6.39,-0.11,-0.05,-0.14,0.0,f
3023.0,2878.0,2895.0,3699.0,3050.0,4095.0,4095.0,4095.0,1.94,9.48,6.45,-0.07,-0.04,-0.11,0.0,f
3018.0,2896.0,2897.0,3710.0,3058.0,4095.0,4095.0,4095.0,2.16,9.5,6.4,-0.07,-0.02,-0.09,0.0,f
3024.0,2894.0,2887.0,3726.0,3061.0,4095.0,4095.0,4095.0,2.04,9.35,6.61,-0.07,-0.01,-0.11,0.0,f
3015.0,2882.0,2884.0,3728.0,3055.0,4095.0,4095.0,4095.0,2.22,9.44,6.53,-0.04,-0.04,-0.14,0.0,f
3025.0,2896.0,2881.0,3721.0,3047.0,4095.0,4095.0,4095.0,2.35,9.31,6.9,-0.06,-0.05,-0.2,0.0,f
3024.0,2889.0,2901.0,3731.0,3056.0,4095.0,4095.0,4095.0,2.19,9.37,6.89,-0.08,-0.0,-0.21,0.0,f
3024.0,2895.0,2889.0,3729.0,3054.0,4095.0,4095.0,4095.0,2.05,9.35,6.99,-0.12,-0.04,-0.22,0.0,f
3036.0,2899.0,2894.0,3738.0,3058.0,4095.0,4095.0,4095.0,2.05,9.28,7.25,-0.17,0.04,-0.23,0.0,f
3031.0,2906.0,2885.0,3731.0,3065.0,4095.0,4095.0,4095.0,2.02,9.12,7.69,-0.15,0.02,-0.24,0.0,f
3025.0,2890.0,2889.0,3738.0,3056.0,4095.0,4095.0,4095.0,1.75,9.16,7.68,-0.1,-0.01,-0.25,0.0,f
3018.0,2896.0,2893.0,3741.0,3066.0,4095.0,4095.0,4095.0,1.64,9.15,7.71,-0.07,0.04,-0.22,0.0,f
3025.0,2894.0,2901.0,3737.0,3052.0,4095.0,4095.0,4095.0,1.59,9.13,7.85,-0.06,0.02,-0.19,0.0,f
3024.0,2886.0,2896.0,3744.0,3056.0,4095.0,4095.0,4095.0,1.67,9.13,7.92,-0.06,-0.02,-0.2,0.0,f
3018.0,2889.0,2895.0,3735.0,3057.0,4095.0,4095.0,4095.0,1.56,9.11,7.85,-0.06,-0.02,-0.2,0.0,f
3029.0,2880.0,2889.0,3746.0,3057.0,4095.0,4095.0,4095.0,1.64,9.16,7.85,-0.08,-0.02,-0.21,0.0,f
3029.0,2880.0,2891.0,3732.0,3054.0,4095.0,4095.0,4095.0,1.6,9.07,7.93,-0.12,-0.04,-0.26,0.0,f
3046.0,2886.0,2896.0,3751.0,3062.0,4095.0,4095.0,4095.0,1.4,9.0,8.22,-0.15,0.03,-0.29,0.0,f
3029.0,2883.0,2887.0,3741.0,3056.0,4095.0,4095.0,4095.0,0.94,8.84,8.67,-0.13,0.03,-0.26,0.0,f
3027.0,2887.0,2899.0,3755.0,3064.0,4095.0,4095.0,4095.0,0.91,8.8,8.77,-0.03,-0.01,-0.18,0.0,f
3024.0,2864.0,2883.0,3739.0,3056.0,4095.0,4095.0,4095.0,1.09,8.91,8.54,-0.01,-0.03,-0.15,0.0,f
3034.0,2885.0,2897.0,3744.0,3056.0,4095.0,4095.0,4095.0,1.24,8.9,8.47,-0.02,-0.02,-0.18,0.0,f
3040.0,2891.0,2894.0,3753.0,3057.0,4095.0,4095.0,4095.0,1.21,8.91,8.55,-0.03,-0.04,-0.2,0.0,f
3031.0,2877.0,2896.0,3744.0,3055.0,4095.0,4095.0,4095.0,1.05,8.86,8.57,-0.07,0.0,-0.21,0.0,f
3024.0,2881.0,2895.0,3760.0,3057.0,4095.0,4095.0,4095.0,0.88,8.77,8.75,-0.05,-0.02,-0.21,0.0,f
3020.0,2871.0,2895.0,3767.0,3061.0,4095.0,4095.0,4095.0,0.63,8.63,9.04,-0.06,-0.0,-0.24,0.0,f
3024.0,2866.0,2885.0,3767.0,3059.0,4095.0,4095.0,4095.0,0.47,8.56,9.29,-0.06,0.01,-0.22,0.0,f
3039.0,2870.0,2894.0,3769.0,3056.0,4095.0,4095.0,4095.0,0.48,8.56,9.16,-0.06,-0.02,-0.21,0.0,f
3025.0,2871.0,2897.0,3779.0,3058.0,4095.0,4095.0,4095.0,0.39,8.49,9.36,-0.04,0.01,-0.19,0.0,f
3032.0,2864.0,2897.0,3775.0,3056.0,4095.0,4095.0,4095.0,0.47,8.49,9.37,-0.02,0.03,-0.19,0.0,f
3039.0,2869.0,2895.0,3787.0,3063.0,4095.0,4095.0,4095.0,0.36,8.47,9.36,-0.02,0.06,-0.22,0.0,f
3024.0,2871.0,2890.0,3775.0,3061.0,4095.0,4095.0,4095.0,0.27,8.54,9.25,-0.02,0.06,-0.22,0.0,f
3028.0,2874.0,2891.0,3786.0,3065.0,4095.0,4095.0,4095.0,0.11,8.46,9.39,-0.04,0.05,-0.24,0.0,f
3024.0,2858.0,2896.0,3771.0,3057.0,4095.0,4095.0,4095.0,0.02,8.39,9.4,-0.06,0.09,-0.24,0.0,f
3027.0,2865.0,2893.0,3791.0,3069.0,4095.0,4095.0,4095.0,-0.23,8.49,9.27,-0.04,0.14,-0.21,0.0,f
3024.0,2870.0,2896.0,3776.0,3061.0,4095.0,4095.0,4095.0,-0.37,8.29,9.72,-0.03,0.08,-0.2,0.0,f
3026.0,2875.0,2896.0,3774.0,3061.0,4095.0,4095.0,4095.0,-0.37,8.29,9.7,0.02,0.01,-0.19,0.0,f
3024.0,2857.0,2898.0,3777.0,3061.0,4095.0,4095.0,4095.0,-0.34,8.32,9.63,0.02,0.05,-0.16,0.0,f
3030.0,2868.0,2896.0,3781.0,3065.0,4095.0,4095.0,4095.0,-0.32,8.32,9.6,-0.0,0.01,-0.18,0.0,f
3019.0,2864.0,2896.0,3775.0,3059.0,4095.0,4095.0,4095.0,-0.28,8.32,9.6,0.0,0.05,-0.23,0.0,f
3031.0,2864.0,2886.0,3770.0,3063.0,4095.0,4095.0,4095.0,-0.38,8.26,9.59,0.0,0.06,-0.26,0.0,f
3022.0,2870.0,2885.0,3771.0,3067.0,4095.0,4095.0,4095.0,-0.69,8.28,9.71,0.04,0.06,-0.3,0.0,f
3024.0,2887.0,2888.0,3731.0,3057.0,4095.0,4095.0,4095.0,-0.91,8.04,9.89,-0.0,-0.2,-0.5,0.0,f
3022.0,2915.0,2891.0,3669.0,3063.0,4095.0,4095.0,4095.0,-0.31,8.58,9.31,0.05,0.0,-0.39,0.0,f
3017.0,2903.0,2898.0,3567.0,3069.0,4095.0,4095.0,4095.0,-1.07,8.3,9.47,0.14,-0.06,-0.36,0.0,f
3021.0,2941.0,2903.0,3634.0,3153.0,4095.0,4095.0,4095.0,-2.13,7.91,9.83,0.02,0.04,-0.18,0.0,f
3024.0,2935.0,2911.0,3633.0,3143.0,4095.0,4095.0,4095.0,-1.99,7.82,9.83,-0.05,0.01,-0.29,0.0,f
3027.0,2948.0,2903.0,3644.0,3145.0,4095.0,4095.0,4095.0,-2.31,7.71,9.95,0.03,0.01,-0.3,0.0,f
3015.0,2943.0,2906.0,3651.0,3146.0,4095.0,4095.0,4095.0,-2.58,7.58,9.93,0.04,0.08,-0.28,0.0,f
3024.0,2939.0,2903.0,3654.0,3146.0,4095.0,4095.0,4095.0,-2.7,7.65,9.86,0.06,0.06,-0.22,0.0,f
3023.0,2926.0,2896.0,3654.0,3147.0,4095.0,4095.0,4095.0,-2.68,7.69,9.78,0.06,0.01,-0.24,0.0,f
3024.0,2937.0,2896.0,3649.0,3145.0,4095.0,4095.0,4095.0,-2.83,7.67,9.69,0.11,0.09,-0.22,0.0,f
3024.0,2923.0,2899.0,3674.0,3157.0,4095.0,4095.0,4095.0,-2.98,7.7,9.58,0.09,0.1,-0.16,0.0,f
3022.0,2919.0,2896.0,3665.0,3150.0,4095.0,4095.0,4095.0,-2.89,7.76,9.53,0.1,0.05,-0.17,0.0,f
3037.0,2928.0,2896.0,3673.0,3154.0,4095.0,4095.0,4095.0,-2.86,7.8,9.5,0.15,0.11,-0.17,0.0,f
3018.0,2929.0,2891.0,3673.0,3147.0,4095.0,4095.0,4095.0,-3.17,7.95,8.88,0.16,0.05,-0.2,0.0,f
3024.0,2928.0,2891.0,3693.0,3152.0,4095.0,4095.0,4095.0,-3.25,7.93,8.98,0.04,0.09,-0.16,0.0,f
3024.0,2930.0,2893.0,3693.0,3147.0,4095.0,4095.0,4095.0,-3.38,7.95,9.06,0.06,0.06,-0.11,0.0,f
3027.0,2929.0,2903.0,3696.0,3146.0,4095.0,4095.0,4095.0,-2.98,7.92,9.16,0.04,0.06,-0.05,0.0,f
3036.0,2924.0,2883.0,3695.0,3142.0,4095.0,4095.0,4095.0,-3.04,8.05,9.0,0.09,0.12,-0.08,0.0,f
3018.0,2918.0,2906.0,3712.0,3141.0,4095.0,4095.0,4095.0,-2.96,8.09,8.92,0.07,0.11,-0.06,0.0,f
3019.0,2931.0,2897.0,3706.0,3139.0,4095.0,4095.0,4095.0,-3.44,8.11,9.04,0.16,0.11,-0.09,0.0,f
3037.0,2914.0,2894.0,3715.0,3152.0,4095.0,4095.0,4095.0,-3.15,8.12,8.61,0.28,-0.31,0.12,0.0,f
3037.0,2924.0,2896.0,3711.0,3147.0,4095.0,4095.0,4095.0,-2.3,8.66,7.95,0.17,-0.24,-0.11,0.0,f
3013.0,2919.0,2884.0,3710.0,3142.0,4095.0,4095.0,4095.0,-2.4,8.67,8.08,0.02,0.2,0.03,0.0,f
3015.0,2898.0,2891.0,3738.0,3122.0,4095.0,4095.0,4095.0,-2.28,9.4,5.93,0.2,0.17,-0.22,0.0,f
3036.0,2909.0,2894.0,3745.0,3121.0,4095.0,4095.0,4095.0,-2.75,9.36,5.91,0.13,0.06,-0.23,0.0,f
3024.0,2907.0,2906.0,3765.0,3131.0,4095.0,4095.0,4095.0,-2.36,9.27,5.86,0.13,0.11,-0.09,0.0,f
3033.0,2906.0,2883.0,3747.0,3123.0,4095.0,4095.0,4095.0,-2.59,9.37,5.78,0.04,0.07,-0.14,0.0,f
3038.0,2901.0,2895.0,3760.0,3137.0,4095.0,4095.0,4095.0,-2.32,9.41,5.42,0.27,0.12,0.06,0.0,f
3022.0,2896.0,2889.0,3745.0,3116.0,4095.0,4095.0,4095.0,-2.07,9.57,4.94,0.27,0.05,-0.03,0.0,f
3026.0,2896.0,2894.0,3719.0,3135.0,4095.0,4095.0,4095.0,-2.1,9.64,4.98,0.3,0.11,0.18,0.0,f
3029.0,2901.0,2887.0,3712.0,3120.0,4095.0,4095.0,4095.0,-1.85,9.41,4.83,0.06,-0.08,0.09,0.0,f
3040.0,2910.0,2895.0,3744.0,3134.0,4095.0,4095.0,4095.0,-1.47,9.86,4.38,-0.11,-0.27,-0.13,0.0,f
3026.0,2928.0,2897.0,3698.0,3105.0,4095.0,4095.0,4095.0,-1.8,9.48,5.16,-0.3,-0.04,-0.13,0.0,f
3021.0,2926.0,2896.0,3733.0,3113.0,4095.0,4095.0,4095.0,-1.9,9.62,5.41,-0.11,-0.19,-0.01,0.0,f
3024.0,2926.0,2889.0,3728.0,3108.0,4095.0,4095.0,4095.0,-1.6,9.66,5.51,-0.18,-0.04,0.11,0.0,f
3024.0,2923.0,2893.0,3742.0,3111.0,4095.0,4095.0,4095.0,-1.23,9.66,5.7,-0.15,-0.02,0.11,0.0,f
3025.0,2913.0,2882.0,3743.0,3107.0,4095.0,4095.0,4095.0,-0.9,9.57,6.17,-0.17,-0.33,0.07,0.0,f
3023.0,2931.0,2884.0,3768.0,3118.0,4095.0,4095.0,4095.0,-0.25,9.53,6.46,-0.06,-0.09,0.11,0.0,f
3029.0,2926.0,2895.0,3755.0,3120.0,4095.0,4095.0,4095.0,-0.18,9.69,6.17,0.02,-0.04,-0.01,0.0,f
3024.0,2928.0,2883.0,3754.0,3107.0,4095.0,4095.0,4095.0,-0.07,9.78,5.96,-0.03,0.0,-0.05,0.0,f
3035.0,2917.0,2895.0,3747.0,3113.0,4095.0,4095.0,4095.0,-0.24,9.63,6.43,-0.06,0.01,-0.08,0.0,f
3022.0,2911.0,2886.0,3747.0,3106.0,4095.0,4095.0,4095.0,-0.16,9.63,6.43,-0.01,-0.05,-0.1,0.0,f
3024.0,2925.0,2907.0,3763.0,3109.0,4095.0,4095.0,4095.0,0.05,9.74,6.16,0.01,0.03,-0.04,0.0,f
3019.0,2921.0,2896.0,3707.0,3113.0,4095.0,4095.0,4095.0,0.0,9.65,6.44,-0.02,-0.02,-0.13,0.0,f
3030.0,2928.0,2902.0,3713.0,3101.0,4095.0,4095.0,4095.0,0.16,9.66,6.44,-0.08,-0.03,-0.14,0.0,f
3017.0,2903.0,2886.0,3696.0,3098.0,4095.0,4095.0,4095.0,-0.02,9.61,6.58,-0.04,-0.03,-0.12,0.0,f
3038.0,2915.0,2889.0,3701.0,3099.0,4095.0,4095.0,4095.0,0.08,9.64,6.52,-0.01,-0.05,-0.09,0.0,f
3018.0,2915.0,2883.0,3696.0,3102.0,4095.0,4095.0,4095.0,0.12,9.67,6.46,-0.06,-0.07,-0.09,0.0,f
3028.0,2921.0,2893.0,3718.0,3107.0,4095.0,4095.0,4095.0,0.32,9.65,6.59,-0.13,-0.09,-0.1,0.0,f
3014.0,2917.0,2896.0,3718.0,3101.0,4095.0,4095.0,4095.0,0.42,9.54,6.9,-0.1,0.01,-0.07,0.0,f
3042.0,2921.0,2901.0,3715.0,3101.0,4095.0,4095.0,4095.0,0.57,9.49,7.07,-0.13,0.08,-0.11,0.0,f
3023.0,2901.0,2892.0,3712.0,3099.0,4095.0,4095.0,4095.0,0.39,9.45,7.18,-0.06,0.06,-0.15,0.0,f
3022.0,2914.0,2907.0,3722.0,3103.0,4095.0,4095.0,4095.0,0.34,9.46,7.07,-0.05,-0.05,-0.19,0.0,f
3023.0,2912.0,2902.0,3715.0,3101.0,4095.0,4095.0,4095.0,0.26,9.47,7.2,-0.08,-0.03,-0.17,0.0,f
3029.0,2911.0,2894.0,3715.0,3101.0,4095.0,4095.0,4095.0,0.32,9.44,7.26,-0.12,-0.03,-0.16,0.0,f
3014.0,2902.0,2892.0,3723.0,3102.0,4095.0,4095.0,4095.0,0.26,9.35,7.47,-0.07,0.1,-0.12,0.0,f
3033.0,2912.0,2896.0,3722.0,3101.0,4095.0,4095.0,4095.0,0.31,9.35,7.5,-0.06,0.04,-0.15,0.0,f
3025.0,2913.0,2899.0,3731.0,3107.0,4095.0,4095.0,4095.0,0.38,9.34,7.46,-0.06,-0.04,-0.18,0.0,f
3021.0,2897.0,2893.0,3725.0,3106.0,4095.0,4095.0,4095.0,0.22,9.32,7.65,-0.07,0.01,-0.2,0.0,f
3026.0,2922.0,2912.0,3728.0,3103.0,4095.0,4095.0,4095.0,0.14,9.27,7.71,-0.06,0.0,-0.2,0.0,f
3020.0,2915.0,2879.0,3728.0,3101.0,4095.0,4095.0,4095.0,0.13,9.26,7.85,-0.08,0.02,-0.2,0.0,f
3029.0,2909.0,2895.0,3733.0,3109.0,4095.0,4095.0,4095.0,0.04,9.19,7.98,-0.05,0.05,-0.18,0.0,f
3029.0,2917.0,2884.0,3723.0,3102.0,4095.0,4095.0,4095.0,0.11,9.21,7.87,-0.06,-0.03,-0.2,0.0,f
3039.0,2921.0,2897.0,3734.0,3106.0,4095.0,4095.0,4095.0,-0.23,9.07,8.16,-0.06,-0.02,-0.21,0.0,f
3019.0,2905.0,2894.0,3730.0,3099.0,4095.0,4095.0,4095.0,-0.38,9.0,8.33,-0.07,0.05,-0.19,0.0,f
3035.0,2905.0,2903.0,3740.0,3117.0,4095.0,4095.0,4095.0,-0.45,8.98,8.4,-0.02,-0.01,-0.19,0.0,f
3027.0,2902.0,2890.0,3719.0,3102.0,4095.0,4095.0,4095.0,-0.4,8.96,8.39,-0.07,-0.0,-0.18,0.0,f
3041.0,2926.0,2893.0,3745.0,3110.0,4095.0,4095.0,4095.0,-0.36,8.95,8.41,-0.03,-0.04,-0.21,0.0,f
3023.0,2901.0,2894.0,3729.0,3106.0,4095.0,4095.0,4095.0,-0.45,8.89,8.52,-0.07,0.01,-0.23,0.0,f
3019.0,2915.0,2889.0,3734.0,3116.0,4095.0,4095.0,4095.0,-0.72,8.82,8.71,-0.04,0.08,-0.19,0.0,f
3027.0,2914.0,2884.0,3728.0,3103.0,4095.0,4095.0,4095.0,-0.77,8.8,8.72,-0.01,0.06,-0.14,0.0,f
3040.0,2918.0,2895.0,3747.0,3114.0,4095.0,4095.0,4095.0,-0.51,8.82,8.67,0.01,0.02,-0.16,0.0,f
3021.0,2911.0,2886.0,3729.0,3108.0,4095.0,4095.0,4095.0,-0.71,8.82,8.66,-0.01,0.04,-0.17,0.0,f
3025.0,2917.0,2896.0,3728.0,3121.0,4095.0,4095.0,4095.0,-0.68,8.78,8.7,-0.01,-0.01,-0.18,0.0,f
3027.0,2903.0,2895.0,3741.0,3115.0,4095.0,4095.0,4095.0,-0.84,8.73,8.85,0.01,0.05,-0.16,0.0,f
3023.0,2903.0,2887.0,3734.0,3117.0,4095.0,4095.0,4095.0,-0.74,8.79,8.7,0.01,-0.02,-0.15,0.0,f
3024.0,2917.0,2896.0,3734.0,3111.0,4095.0,4095.0,4095.0,-0.67,8.81,8.68,0.0,-0.02,-0.17,0.0,f
3024.0,2923.0,2887.0,3731.0,3114.0,4095.0,4095.0,4095.0,-0.74,8.77,8.77,-0.01,-0.01,-0.19,0.0,f
3040.0,2916.0,2896.0,3742.0,3118.0,4095.0,4095.0,4095.0,-0.86,8.72,8.85,-0.02,0.0,-0.2,0.0,f
3024.0,2899.0,2886.0,3726.0,3109.0,4095.0,4095.0,4095.0,-0.85,8.72,8.75,-0.03,-0.03,-0.2,0.0,f
3026.0,2910.0,2891.0,3733.0,3109.0,4095.0,4095.0,4095.0,-0.91,8.65,8.93,-0.03,-0.02,-0.21,0.0,f
3022.0,2898.0,2890.0,3730.0,3110.0,4095.0,4095.0,4095.0,-0.99,8.65,8.96,-0.0,0.06,-0.18,0.0,f
3025.0,2898.0,2896.0,3749.0,3119.0,4095.0,4095.0,4095.0,-0.95,8.64,8.96,0.02,0.08,-0.17,0.0,f
3030.0,2911.0,2891.0,3751.0,3119.0,4095.0,4095.0,4095.0,-1.65,8.65,8.74,0.06,0.01,-0.2,0.0,f
3021.0,2911.0,2887.0,3728.0,3114.0,4095.0,4095.0,4095.0,-1.64,8.66,8.65,0.02,-0.02,-0.18,0.0,f
3043.0,2913.0,2890.0,3741.0,3109.0,4095.0,4095.0,4095.0,-1.59,8.7,8.7,0.03,0.0,-0.16,0.0,f
3021.0,2927.0,2891.0,3730.0,3109.0,4095.0,4095.0,4095.0,-1.52,8.68,8.66,0.01,-0.01,-0.18,0.0,f
3021.0,2928.0,2890.0,3740.0,3120.0,4095.0,4095.0,4095.0,-1.6,8.69,8.64,0.02,-0.01,-0.19,0.0,f
3024.0,2911.0,2893.0,3738.0,3114.0,4095.0,4095.0,4095.0,-1.68,8.67,8.57,0.0,-0.01,-0.17,0.0,f
3026.0,2913.0,2885.0,3735.0,3120.0,4095.0,4095.0,4095.0,-1.65,8.65,8.8,0.02,0.01,-0.17,0.0,f
3018.0,2906.0,2886.0,3728.0,3108.0,4095.0,4095.0,4095.0,-1.6,8.62,8.72,0.06,-0.01,-0.23,0.0,f
3029.0,2900.0,2885.0,3745.0,3125.0,4095.0,4095.0,4095.0,-1.65,8.67,8.58,0.06,0.04,-0.21,0.0,f
3023.0,2915.0,2890.0,3735.0,3108.0,4095.0,4095.0,4095.0,-1.87,8.68,8.48,0.05,-0.03,-0.23,0.0,f
3024.0,2910.0,2896.0,3726.0,3110.0,4095.0,4095.0,4095.0,-1.92,8.62,8.57,0.1,0.0,-0.23,0.0,f
3026.0,2922.0,2896.0,3741.0,3120.0,4095.0,4095.0,4095.0,-2.03,8.71,8.36,0.08,0.01,-0.19,0.0,f
3015.0,2900.0,2881.0,3738.0,3119.0,4095.0,4095.0,4095.0,-2.05,8.71,8.34,0.08,0.05,-0.18,0.0,f
3031.0,2913.0,2885.0,3743.0,3114.0,4095.0,4095.0,4095.0,-2.03,8.8,8.12,0.04,-0.0,-0.17,0.0,f
3024.0,2911.0,2877.0,3728.0,3111.0,4095.0,4095.0,4095.0,-2.19,8.76,8.22,0.02,-0.01,-0.18,0.0,f
3037.0,2907.0,2894.0,3749.0,3120.0,4095.0,4095.0,4095.0,-2.17,8.55,8.61,-0.03,-0.06,-0.13,0.0,f
3031.0,2908.0,2889.0,3739.0,3118.0,4095.0,4095.0,4095.0,-2.03,8.6,8.74,0.11,0.06,-0.09,0.0,f
3024.0,2926.0,2896.0,3740.0,3120.0,4095.0,4095.0,4095.0,-1.76,8.99,8.04,0.28,-0.17,-0.02,0.0,f
3024.0,2915.0,2887.0,3731.0,3114.0,4095.0,4095.0,4095.0,-1.59,8.85,7.98,0.16,-0.29,0.03,0.0,f
3028.0,2929.0,2891.0,3754.0,3120.0,4095.0,4095.0,4095.0,-0.91,8.94,8.08,-0.02,-0.26,0.03,0.0,f
3045.0,2955.0,2922.0,3739.0,3131.0,4095.0,4095.0,4095.0,-2.49,9.35,6.7,-0.03,-0.24,-0.05,0.0,f
3024.0,2961.0,2918.0,3697.0,3125.0,4095.0,4095.0,4095.0,-1.91,9.17,6.81,-0.12,-0.4,-0.06,0.0,f
3028.0,2970.0,2924.0,3680.0,3119.0,4095.0,4095.0,4095.0,-1.71,8.92,7.93,-0.22,-0.22,-0.18,0.0,f
3052.0,2974.0,2918.0,3650.0,3130.0,4095.0,4095.0,4095.0,-1.77,8.83,7.86,-0.11,-0.31,-0.29,0.0,f
3039.0,2962.0,2917.0,3715.0,3142.0,4095.0,4095.0,4095.0,-2.06,8.96,8.02,-0.01,-0.06,-0.23,0.0,f
3031.0,2960.0,2928.0,3735.0,3157.0,4095.0,4095.0,4095.0,-2.02,8.82,8.12,0.04,-0.02,-0.27,0.0,f
3034.0,2969.0,2919.0,3733.0,3158.0,4095.0,4095.0,4095.0,-2.15,8.72,7.96,0.12,-0.02,-0.33,0.0,f
3027.0,2975.0,2933.0,3749.0,3185.0,4095.0,4095.0,4095.0,-2.72,8.87,7.64,0.21,0.24,-0.31,0.0,f
3033.0,2957.0,2914.0,3870.0,3232.0,4095.0,4095.0,4095.0,-2.96,8.93,7.33,0.14,0.06,-0.29,0.0,f
3030.0,2963.0,2917.0,4095.0,3301.0,4095.0,4095.0,4095.0,-2.91,8.9,7.12,0.13,0.01,-0.2,0.0,f
3033.0,2948.0,2906.0,4095.0,3344.0,4095.0,4095.0,4095.0,-2.95,8.84,7.03,0.04,-0.03,-0.22,0.0,f
3035.0,2959.0,2907.0,4095.0,3353.0,4095.0,4095.0,4095.0,-3.16,8.75,7.36,0.01,-0.03,-0.2,0.0,f
3035.0,2978.0,2928.0,4092.0,3358.0,4095.0,4095.0,4095.0,-3.14,8.93,7.33,0.03,-0.01,-0.11,0.0,f
3041.0,2965.0,2914.0,4042.0,3351.0,4095.0,4095.0,4095.0,-2.83,8.88,7.07,-0.04,-0.27,-0.11,0.0,f
3047.0,2980.0,2925.0,3965.0,3350.0,4095.0,4095.0,4095.0,-2.64,8.69,7.22,-0.06,-0.2,-0.22,0.0,f
3024.0,2969.0,2925.0,3953.0,3326.0,4095.0,4095.0,4095.0,-3.03,8.72,7.69,-0.16,-0.03,-0.19,0.0,f
3030.0,2970.0,2914.0,3966.0,3344.0,4095.0,4095.0,4095.0,-3.0,8.73,7.97,0.02,0.09,-0.15,0.0,f
3024.0,2960.0,2913.0,3985.0,3326.0,4095.0,4095.0,4095.0,-3.2,8.82,7.61,0.0,-0.02,-0.06,0.0,f
3043.0,2966.0,2922.0,4015.0,3339.0,4095.0,4095.0,4095.0,-2.93,8.79,8.1,0.06,0.25,0.16,0.0,f
3023.0,2951.0,2913.0,3983.0,3328.0,4095.0,4095.0,4095.0,-2.06,9.16,6.88,0.23,-0.11,-0.02,0.0,f
3030.0,2959.0,2922.0,3989.0,3306.0,4095.0,4095.0,4095.0,-2.39,9.07,7.19,0.08,0.08,-0.13,0.0,f
3022.0,2974.0,2921.0,3905.0,3285.0,4095.0,4095.0,4095.0,-2.23,9.0,7.34,-0.11,-0.1,-0.08,0.0,f
3049.0,2960.0,2915.0,3920.0,3291.0,4095.0,4095.0,4095.0,-2.01,9.13,7.59,0.03,-0.14,-0.07,0.0,f
3042.0,2963.0,2922.0,3920.0,3292.0,4095.0,4095.0,4095.0,-1.76,9.14,7.07,0.06,-0.33,-0.12,0.0,f
3029.0,2960.0,2915.0,3936.0,3290.0,4095.0,4095.0,4095.0,-1.79,8.89,7.77,-0.16,0.01,0.01,0.0,f
3040.0,2957.0,2910.0,3893.0,3277.0,4095.0,4095.0,4095.0,-1.64,9.32,7.69,-0.04,-0.03,0.06,0.0,f
3039.0,2972.0,2919.0,3917.0,3287.0,4095.0,4095.0,4095.0,-1.29,9.05,7.49,-0.06,-0.18,0.03,0.0,f
3039.0,2960.0,2921.0,3920.0,3280.0,4095.0,4095.0,4095.0,-1.21,9.15,7.73,-0.16,-0.13,0.04,0.0,f
3039.0,2949.0,2924.0,3854.0,3274.0,4095.0,4095.0,4095.0,-0.87,8.91,8.07,-0.19,-0.03,0.1,0.0,f
3050.0,2975.0,2922.0,3861.0,3283.0,4095.0,4095.0,4095.0,-0.4,8.95,8.33,-0.12,-0.2,0.05,0.0,f
3029.0,2960.0,2927.0,3869.0,3275.0,4095.0,4095.0,4095.0,-0.1,9.0,8.5,-0.14,-0.16,0.01,0.0,f
3055.0,2963.0,2922.0,3921.0,3284.0,4095.0,4095.0,4095.0,0.01,8.89,8.56,-0.11,-0.12,-0.05,0.0,f
3029.0,2955.0,2926.0,3951.0,3281.0,4095.0,4095.0,4095.0,-0.04,8.84,8.65,-0.16,-0.1,-0.07,0.0,f
3047.0,2954.0,2926.0,3963.0,3280.0,4095.0,4095.0,4095.0,0.15,8.77,8.99,-0.06,-0.03,-0.05,0.0,f
3028.0,2950.0,2913.0,3958.0,3279.0,4055.0,4095.0,4095.0,0.6,8.84,8.64,-0.07,-0.38,-0.16,0.0,f
3042.0,2960.0,2928.0,3971.0,3277.0,4055.0,4095.0,4095.0,0.68,8.84,8.84,-0.08,-0.73,-0.5,0.0,f
3023.0,2951.0,2921.0,3937.0,3271.0,4063.0,4095.0,4095.0,0.25,8.67,8.9,-0.1,0.06,-0.29,0.0,f
3034.0,2960.0,2928.0,3937.0,3280.0,4077.0,4095.0,4095.0,0.06,8.71,8.58,-0.15,-0.17,-0.32,0.0,f
3024.0,2954.0,2918.0,3934.0,3273.0,4061.0,4095.0,4095.0,0.06,8.42,9.64,-0.26,-0.1,-0.27,0.0,f
3034.0,2954.0,2928.0,3990.0,3282.0,4066.0,4095.0,4095.0,-0.07,8.2,9.91,-0.09,-0.05,-0.22,0.0,f
3035.0,2958.0,2927.0,4017.0,3260.0,4095.0,4095.0,4095.0,-1.16,8.03,9.83,0.06,0.39,-0.26,0.0,f
3025.0,2960.0,2915.0,4032.0,3266.0,4095.0,4095.0,4095.0,-1.64,8.12,9.55,0.01,0.33,-0.25,0.0,f
3029.0,2951.0,2913.0,4012.0,3255.0,4095.0,4095.0,4095.0,-1.66,8.15,9.65,-0.0,-0.03,-0.29,0.0,f
3053.0,2954.0,2925.0,4016.0,3251.0,4095.0,4095.0,4095.0,-1.64,8.05,9.66,0.08,0.04,-0.24,0.0,f
3033.0,2944.0,2925.0,3998.0,3243.0,4095.0,4095.0,4095.0,-1.62,8.02,9.7,0.1,-0.01,-0.26,0.0,f
3043.0,2955.0,2919.0,3999.0,3232.0,4095.0,4095.0,4095.0,-1.84,8.13,9.66,0.07,0.01,-0.26,0.0,f
3038.0,2953.0,2931.0,3991.0,3218.0,4095.0,4095.0,4095.0,-2.16,8.04,9.51,0.13,-0.04,-0.26,0.0,f
3041.0,2943.0,2918.0,3891.0,3181.0,4095.0,4095.0,4095.0,-2.15,8.24,9.13,0.19,-0.19,-0.27,0.0,f
3051.0,2960.0,2923.0,3851.0,3171.0,4095.0,4095.0,4095.0,-2.15,8.37,9.13,0.05,-0.13,-0.29,0.0,f
3025.0,2953.0,2928.0,3796.0,3153.0,4095.0,4095.0,4095.0,-1.94,8.05,9.47,-0.1,-0.2,-0.22,0.0,f
3034.0,2944.0,2899.0,3776.0,3173.0,4095.0,4095.0,4095.0,-1.82,8.09,9.22,-0.1,-0.08,0.18,0.0,f
3023.0,2939.0,2895.0,3712.0,3184.0,4095.0,4095.0,4095.0,-1.39,8.06,9.87,-0.03,-0.14,-0.05,0.0,f
3039.0,2941.0,2909.0,3747.0,3182.0,4095.0,4095.0,4095.0,-1.5,8.01,9.62,-0.04,-0.1,-0.01,0.0,f
3024.0,2945.0,2907.0,3745.0,3164.0,4095.0,4095.0,4095.0,-1.44,8.17,9.83,0.05,-0.06,-0.08,0.0,f
3039.0,2961.0,2919.0,3760.0,3173.0,4095.0,4095.0,4095.0,-1.12,8.11,9.9,0.13,-0.07,-0.11,0.0,f
3039.0,2950.0,2898.0,3679.0,3169.0,4095.0,4095.0,4095.0,-0.9,8.24,9.48,0.5,0.18,-0.16,0.0,f
3027.0,2951.0,2921.0,3716.0,3184.0,4095.0,4095.0,4095.0,-1.28,8.61,8.62,0.53,0.19,-0.33,0.0,f
3035.0,2935.0,2896.0,3731.0,3178.0,4095.0,4095.0,4095.0,-1.93,8.72,8.12,0.19,0.22,-0.22,0.0,f
3046.0,2944.0,2907.0,3760.0,3179.0,4095.0,4095.0,4095.0,-1.96,8.94,8.02,0.2,0.06,-0.1,0.0,f
3035.0,2942.0,2913.0,3775.0,3184.0,4095.0,4095.0,4095.0,-1.92,8.99,7.62,0.1,0.07,-0.21,0.0,f
3031.0,2914.0,2898.0,3835.0,3166.0,4095.0,4095.0,4095.0,-2.42,8.69,8.09,-0.01,0.02,-0.15,0.0,f
3039.0,2933.0,2899.0,3863.0,3179.0,4095.0,4095.0,4095.0,-2.51,8.64,8.21,-0.02,0.03,-0.14,0.0,f
3039.0,2930.0,2896.0,3840.0,3168.0,4095.0,4095.0,4095.0,-2.5,8.64,8.17,0.06,0.03,-0.13,0.0,f
3044.0,2934.0,2898.0,3847.0,3169.0,4095.0,4095.0,4095.0,-2.41,8.75,7.94,0.02,0.01,-0.13,0.0,f
3051.0,2947.0,2900.0,3856.0,3167.0,4095.0,4095.0,4095.0,-2.43,8.71,8.02,0.02,-0.02,-0.15,0.0,f
3030.0,2925.0,2895.0,3856.0,3173.0,4095.0,4095.0,4095.0,-2.43,8.76,7.89,0.06,0.01,-0.16,0.0,f
3041.0,2928.0,2894.0,3869.0,3177.0,4095.0,4095.0,4095.0,-2.5,8.76,7.85,-0.02,-0.01,-0.16,0.0,f
3029.0,2912.0,2894.0,3845.0,3162.0,4095.0,4095.0,4095.0,-2.55,8.74,8.0,-0.02,-0.04,-0.15,0.0,f
3034.0,2937.0,2896.0,3856.0,3176.0,4095.0,4095.0,4095.0,-2.42,8.68,8.14,0.0,0.04,-0.13,0.0,f
3024.0,2923.0,2903.0,3850.0,3168.0,4095.0,4095.0,4095.0,-2.44,8.73,7.91,0.06,0.03,-0.15,0.0,f
3046.0,2923.0,2891.0,3862.0,3173.0,4095.0,4095.0,4095.0,-2.5,8.75,8.01,-0.02,0.01,-0.15,0.0,f
3030.0,2928.0,2893.0,3859.0,3166.0,4095.0,4095.0,4095.0,-2.58,8.73,8.02,0.02,-0.03,-0.15,0.0,f
3039.0,2927.0,2898.0,3885.0,3181.0,4095.0,4095.0,4095.0,-2.5,8.68,8.04,-0.02,-0.01,-0.12,0.0,f
3040.0,2931.0,2891.0,3858.0,3164.0,4095.0,4095.0,4095.0,-2.57,8.79,8.3,0.06,-0.01,-0.11,0.0,f
3035.0,2940.0,2896.0,3870.0,3175.0,4095.0,4095.0,4095.0,-2.71,8.63,8.13,0.2,-0.17,-0.07,0.0,f
3037.0,2937.0,2902.0,3870.0,3170.0,4095.0,4095.0,4095.0,-2.14,8.94,7.71,0.1,-0.29,0.02,0.0,f
3038.0,2928.0,2889.0,3865.0,3169.0,4095.0,4095.0,4095.0,-1.53,8.94,7.81,0.01,-0.13,-0.01,0.0,f
3025.0,2935.0,2897.0,3863.0,3181.0,4095.0,4095.0,4095.0,-1.46,9.12,7.82,0.12,0.03,-0.13,0.0,f
3031.0,2927.0,2895.0,3859.0,3168.0,4095.0,4095.0,4095.0,-1.87,9.07,7.75,0.05,0.06,-0.18,0.0,f
3036.0,2927.0,2905.0,3877.0,3178.0,4095.0,4095.0,4095.0,-1.96,8.93,7.84,0.06,0.01,-0.19,0.0,f
3024.0,2935.0,2896.0,3843.0,3171.0,4095.0,4095.0,4095.0,-1.81,9.15,7.81,0.12,-0.3,-0.27,0.0,f
3031.0,2945.0,2896.0,3839.0,3177.0,4095.0,4095.0,4095.0,-1.83,9.0,7.49,-0.0,-0.12,-0.13,0.0,f
3039.0,2954.0,2896.0,3847.0,3171.0,4095.0,4095.0,4095.0,-1.69,9.02,7.77,0.12,-0.18,-0.15,0.0,f
3038.0,2939.0,2893.0,3847.0,3177.0,4095.0,4095.0,4095.0,-1.62,9.22,7.34,0.18,-0.1,-0.15,0.0,f
3031.0,2950.0,2900.0,3856.0,3178.0,4095.0,4095.0,4095.0,-1.68,9.22,7.34,0.16,0.11,-0.12,0.0,f
3025.0,2936.0,2898.0,3849.0,3167.0,4095.0,4095.0,4095.0,-1.78,9.15,7.23,0.26,0.14,-0.1,0.0,f
3030.0,2951.0,2895.0,3862.0,3174.0,4095.0,4095.0,4095.0,-1.61,9.41,6.79,0.21,-0.06,-0.16,0.0,f
3034.0,2921.0,2882.0,3854.0,3181.0,4095.0,4095.0,4095.0,-1.69,9.49,6.25,0.17,0.04,-0.13,0.0,f
3034.0,2940.0,2895.0,3862.0,3178.0,4095.0,4095.0,4095.0,-1.8,9.51,6.11,0.14,-0.01,-0.11,0.0,f
3029.0,2928.0,2894.0,3861.0,3177.0,4095.0,4095.0,4095.0,-1.58,9.64,6.16,0.09,0.02,-0.05,0.0,f
3026.0,2939.0,2901.0,3887.0,3187.0,4095.0,4095.0,4095.0,-1.32,9.69,6.29,0.08,0.02,-0.09,0.0,f
3028.0,2929.0,2884.0,3860.0,3178.0,4095.0,4095.0,4095.0,-1.33,9.76,6.43,0.24,0.05,-0.27,0.0,f
3030.0,2930.0,2908.0,3891.0,3189.0,4095.0,4095.0,4095.0,-1.75,9.38,5.58,0.37,0.04,-0.39,0.0,f
3029.0,2928.0,2886.0,3861.0,3182.0,4095.0,4095.0,4095.0,-1.92,9.05,5.34,0.42,-0.02,-0.26,0.0,f
3037.0,2921.0,2894.0,3873.0,3183.0,4095.0,4095.0,4095.0,-2.06,9.94,4.73,0.31,-0.08,-0.14,0.0,f
3042.0,2928.0,2900.0,3885.0,3188.0,4095.0,4095.0,4095.0,-2.11,9.63,4.94,-0.15,0.03,-0.07,0.0,f
3027.0,2936.0,2895.0,3883.0,3181.0,4095.0,4095.0,4095.0,-1.91,9.62,5.17,-0.18,0.12,0.02,0.0,f
3030.0,2933.0,2893.0,3899.0,3185.0,4095.0,4095.0,4095.0,-1.56,9.55,5.41,-0.05,-0.02,0.02,0.0,f
3037.0,2918.0,2880.0,3887.0,3185.0,4095.0,4095.0,4095.0,-1.34,9.81,5.17,0.07,-0.09,-0.0,0.0,f
3040.0,2915.0,2895.0,3915.0,3199.0,4095.0,4095.0,4095.0,-1.28,9.87,5.2,-0.08,0.09,0.06,0.0,f
3039.0,2927.0,2893.0,3917.0,3199.0,4095.0,4095.0,4095.0,-0.46,9.78,5.23,0.03,-0.02,-0.07,0.0,f
3034.0,2913.0,2895.0,3905.0,3187.0,4067.0,4095.0,4095.0,-0.66,9.79,5.36,-0.03,-0.04,-0.05,0.0,f
3041.0,2925.0,2887.0,3923.0,3195.0,4070.0,4095.0,4095.0,-0.55,9.83,5.29,0.04,-0.07,-0.02,0.0,f
3027.0,2926.0,2896.0,3947.0,3211.0,4083.0,4095.0,4095.0,-0.21,9.83,5.19,0.02,-0.08,0.02,0.0,f
3041.0,2923.0,2889.0,3898.0,3195.0,4058.0,4095.0,4095.0,0.12,9.81,5.39,0.03,-0.15,-0.04,0.0,f
3037.0,2925.0,2898.0,3921.0,3200.0,4061.0,4095.0,4095.0,0.18,9.89,5.19,0.04,-0.14,-0.08,0.0,f
3024.0,2926.0,2894.0,3920.0,3194.0,4042.0,4095.0,4095.0,0.32,10.2,4.94,-0.04,-0.1,-0.04,0.0,f
3045.0,2926.0,2895.0,3910.0,3202.0,4048.0,4095.0,4095.0,0.26,9.89,5.18,-0.01,-0.09,-0.11,0.0,f
3030.0,2919.0,2895.0,3907.0,3187.0,4026.0,4095.0,4095.0,0.24,9.9,5.25,-0.06,-0.09,-0.11,0.0,f
3032.0,2927.0,2895.0,3917.0,3195.0,4045.0,4095.0,4095.0,0.17,9.98,5.18,-0.12,-0.18,-0.12,0.0,f
3026.0,2927.0,2882.0,3915.0,3193.0,4032.0,4095.0,4095.0,0.23,9.72,5.76,-0.1,-0.08,-0.04,0.0,f
3036.0,2926.0,2901.0,3934.0,3203.0,4037.0,4095.0,4095.0,0.32,9.74,5.73,-0.03,-0.17,-0.01,0.0,f
3024.0,2909.0,2897.0,3923.0,3197.0,4017.0,4095.0,4095.0,0.61,9.73,5.71,-0.03,-0.11,0.08,0.0,f
3030.0,2922.0,2890.0,3938.0,3206.0,4016.0,4095.0,4095.0,1.13,9.76,5.67,-0.04,-0.27,0.03,0.0,f
3027.0,2915.0,2895.0,3913.0,3185.0,4016.0,4095.0,4095.0,1.39,9.74,5.72,0.0,-0.12,0.01,0.0,f
3039.0,2914.0,2896.0,3906.0,3191.0,3990.0,4095.0,4095.0,1.55,9.82,5.5,-0.04,-0.12,-0.05,0.0,f
3045.0,2913.0,2889.0,3927.0,3205.0,3995.0,4095.0,4095.0,1.56,9.71,5.76,-0.09,-0.02,-0.09,0.0,f
3026.0,2913.0,2885.0,3917.0,3199.0,3971.0,4095.0,4095.0,1.52,9.68,5.85,-0.08,-0.07,-0.12,0.0,f
3035.0,2909.0,2891.0,3925.0,3195.0,3995.0,4095.0,4095.0,1.49,9.68,6.07,-0.1,0.0,-0.12,0.0,f
3035.0,2914.0,2884.0,3926.0,3202.0,3969.0,4095.0,4095.0,1.54,9.62,6.13,-0.09,-0.04,-0.13,0.0,f
3034.0,2913.0,2896.0,3941.0,3206.0,3963.0,4095.0,4095.0,1.56,9.42,6.9,-0.09,-0.01,-0.17,0.0,f
3041.0,2906.0,2900.0,3937.0,3200.0,3965.0,4095.0,4095.0,1.47,9.4,6.87,-0.08,-0.04,-0.14,0.0,f
3039.0,2905.0,2887.0,3926.0,3189.0,3946.0,4095.0,4095.0,1.72,9.38,6.96,-0.1,-0.06,-0.15,0.0,f
3045.0,2928.0,2901.0,3935.0,3195.0,3961.0,4095.0,4095.0,1.68,9.38,7.27,-0.04,0.02,-0.17,0.0,f
3034.0,2906.0,2897.0,3926.0,3199.0,3954.0,4095.0,4095.0,1.69,9.41,7.18,-0.02,-0.04,-0.19,0.0,f
3041.0,2911.0,2903.0,3939.0,3202.0,3968.0,4095.0,4095.0,1.52,9.41,6.96,-0.02,-0.03,-0.21,0.0,f
3041.0,2903.0,2883.0,3921.0,3197.0,3953.0,4095.0,4095.0,1.42,9.38,7.13,-0.08,-0.01,-0.19,0.0,f
3040.0,2919.0,2897.0,3938.0,3203.0,3973.0,4095.0,4095.0,1.47,9.33,7.37,-0.07,0.01,-0.18,0.0,f
3035.0,2923.0,2889.0,3920.0,3195.0,3959.0,4095.0,4095.0,1.43,9.35,7.25,-0.06,-0.05,-0.18,0.0,f
3039.0,2927.0,2893.0,3939.0,3202.0,3977.0,4095.0,4095.0,1.52,9.23,7.6,-0.06,-0.02,-0.2,0.0,f
3042.0,2911.0,2896.0,3933.0,3200.0,3952.0,4095.0,4095.0,1.39,9.25,7.47,-0.05,-0.02,-0.2,0.0,f
3029.0,2924.0,2912.0,3946.0,3202.0,3953.0,4095.0,4095.0,1.27,9.25,7.62,-0.04,0.02,-0.2,0.0,f
3029.0,2898.0,2886.0,3938.0,3207.0,3979.0,4095.0,4095.0,1.26,9.26,7.58,-0.04,0.02,-0.19,0.0,f
3024.0,2900.0,2890.0,3931.0,3194.0,3963.0,4095.0,4095.0,1.21,9.21,7.75,-0.03,0.04,-0.18,0.0,f
3042.0,2921.0,2894.0,3956.0,3206.0,3965.0,4095.0,4095.0,1.17,9.2,7.77,-0.01,-0.0,-0.18,0.0,f
3037.0,2906.0,2891.0,3937.0,3200.0,3952.0,4095.0,4095.0,1.18,9.22,7.65,-0.03,0.01,-0.19,0.0,f
3043.0,2922.0,2901.0,3937.0,3195.0,3966.0,4095.0,4095.0,1.11,9.2,7.83,-0.06,0.02,-0.21,0.0,f
3021.0,2919.0,2894.0,3952.0,3200.0,3952.0,4095.0,4095.0,1.03,9.14,7.95,-0.04,0.06,-0.2,0.0,f
3039.0,2928.0,2896.0,3955.0,3201.0,3950.0,4095.0,4095.0,1.01,9.12,7.92,-0.03,0.06,-0.18,0.0,f
3020.0,2916.0,2893.0,3943.0,3199.0,3950.0,4095.0,4095.0,0.88,9.12,8.02,-0.03,0.04,-0.18,0.0,f
3042.0,2922.0,2899.0,3953.0,3198.0,3898.0,4095.0,4095.0,0.74,9.2,7.82,-0.06,-0.03,-0.24,0.0,f
3025.0,2915.0,2896.0,3968.0,3205.0,3906.0,4095.0,4095.0,0.5,9.04,8.23,-0.09,0.05,-0.19,0.0,f
3023.0,2909.0,2886.0,3969.0,3199.0,3870.0,4095.0,4095.0,0.48,9.02,8.33,-0.02,-0.01,-0.18,0.0,f
3036.0,2907.0,2902.0,3973.0,3228.0,3885.0,4095.0,4095.0,0.59,9.06,8.14,-0.03,0.0,-0.18,0.0,f
3030.0,2899.0,2882.0,3965.0,3203.0,3859.0,4095.0,4095.0,0.46,9.13,8.17,-0.04,0.02,-0.17,0.0,f
3039.0,2922.0,2897.0,3978.0,3206.0,3872.0,4095.0,4095.0,0.54,9.03,8.36,-0.08,0.02,-0.16,0.0,f
3030.0,2911.0,2893.0,3973.0,3203.0,3856.0,4095.0,4095.0,0.47,8.94,8.56,0.0,0.05,-0.17,0.0,f
3034.0,2928.0,2901.0,3984.0,3200.0,3835.0,4095.0,4095.0,0.47,9.01,8.33,-0.01,-0.0,-0.18,0.0,f
3041.0,2899.0,2888.0,3971.0,3202.0,3842.0,4095.0,4095.0,0.41,9.02,8.38,0.02,0.02,-0.2,0.0,f
3040.0,2901.0,2897.0,3984.0,3201.0,3814.0,4095.0,4095.0,0.33,9.02,8.27,-0.0,-0.0,-0.23,0.0,f
3035.0,2901.0,2895.0,3963.0,3197.0,3797.0,4095.0,4095.0,0.26,9.01,8.41,-0.0,0.03,-0.23,0.0,f
3041.0,2915.0,2896.0,3993.0,3204.0,3805.0,4095.0,4095.0,0.22,9.01,8.27,0.02,0.04,-0.24,0.0,f
3046.0,2907.0,2909.0,4007.0,3205.0,3811.0,4095.0,4095.0,-0.01,8.94,8.39,-0.04,0.04,-0.23,0.0,f
3038.0,2898.0,2887.0,3988.0,3202.0,3823.0,4095.0,4095.0,-0.14,8.85,8.57,-0.07,0.06,-0.22,0.0,f
3031.0,2903.0,2886.0,4002.0,3199.0,3856.0,4095.0,4095.0,-0.22,8.89,8.68,-0.01,0.04,-0.2,0.0,f
3040.0,2896.0,2879.0,3968.0,3189.0,3841.0,4095.0,4095.0,-0.33,8.91,8.68,0.01,0.04,-0.19,0.0,f
3050.0,2913.0,2901.0,3978.0,3194.0,3855.0,4095.0,4095.0,-0.33,8.88,8.56,-0.01,0.01,-0.16,0.0,f
3030.0,2906.0,2897.0,3961.0,3187.0,3839.0,4095.0,4095.0,-0.21,8.9,8.6,-0.0,0.01,-0.17,0.0,f
3037.0,2910.0,2895.0,3987.0,3197.0,3854.0,4095.0,4095.0,-0.22,8.89,8.56,0.0,0.02,-0.19,0.0,f
3033.0,2913.0,2897.0,3985.0,3191.0,3843.0,4095.0,4095.0,-0.32,8.88,8.6,0.0,0.02,-0.21,0.0,f
3038.0,2902.0,2891.0,4000.0,3202.0,3762.0,4095.0,4095.0,-0.67,8.85,8.55,0.06,0.07,-0.17,0.0,f
3043.0,2907.0,2893.0,3997.0,3200.0,3738.0,4095.0,4095.0,-0.78,8.88,8.53,0.03,0.06,-0.16,0.0,f
3039.0,2903.0,2896.0,4003.0,3207.0,3747.0,4095.0,4095.0,-0.84,8.93,8.47,0.04,0.04,-0.2,0.0,f
3024.0,2895.0,2898.0,3999.0,3201.0,3730.0,4095.0,4095.0,-0.82,8.88,8.39,0.02,0.02,-0.2,0.0,f
3054.0,2898.0,2883.0,4000.0,3203.0,3745.0,4095.0,4095.0,-0.9,8.86,8.55,0.01,0.02,-0.22,0.0,f
3044.0,2896.0,2885.0,3994.0,3193.0,3728.0,4095.0,4095.0,-1.05,8.89,8.45,-0.01,0.03,-0.21,0.0,f
3033.0,2902.0,2887.0,4005.0,3200.0,3758.0,4095.0,4095.0,-1.12,8.88,8.59,-0.03,0.02,-0.19,0.0,f
3025.0,2903.0,2880.0,3990.0,3196.0,3727.0,4095.0,4095.0,-1.13,8.8,8.58,0.07,0.01,-0.19,0.0,f
3029.0,2914.0,2901.0,4006.0,3201.0,3741.0,4095.0,4095.0,-1.12,8.88,8.46,0.06,0.04,-0.15,0.0,f
3045.0,2900.0,2891.0,4002.0,3201.0,3740.0,4095.0,4095.0,-1.43,8.78,8.8,0.09,-0.09,-0.16,0.0,f
3047.0,2898.0,2885.0,4002.0,3202.0,3755.0,4095.0,4095.0,-1.09,8.88,8.39,0.05,0.05,-0.17,0.0,f
3038.0,2905.0,2889.0,4016.0,3204.0,3728.0,4095.0,4095.0,-1.25,8.81,8.48,0.1,0.08,-0.19,0.0,f
3029.0,2899.0,2896.0,3999.0,3202.0,3713.0,4095.0,4095.0,-1.39,8.92,8.2,0.02,0.01,-0.18,0.0,f
3039.0,2895.0,2883.0,4011.0,3205.0,3726.0,4095.0,4095.0,-1.38,8.88,8.29,0.02,0.01,-0.18,0.0,f
3034.0,2887.0,2886.0,4005.0,3203.0,3693.0,4095.0,4095.0,-1.45,8.88,8.38,0.04,0.05,-0.13,0.0,f
3026.0,2891.0,2899.0,4014.0,3213.0,3680.0,4095.0,4095.0,-1.35,8.89,8.32,0.1,0.07,-0.11,0.0,f
3024.0,2886.0,2887.0,4007.0,3203.0,3666.0,4095.0,4095.0,-1.35,9.0,7.93,0.08,0.06,-0.1,0.0,f
3043.0,2897.0,2895.0,4014.0,3206.0,3688.0,4095.0,4095.0,-1.35,9.05,8.02,0.04,0.03,-0.12,0.0,f
3024.0,2885.0,2893.0,4016.0,3200.0,3680.0,4095.0,4095.0,-1.3,8.97,8.12,0.05,0.01,-0.15,0.0,f
3027.0,2890.0,2894.0,4015.0,3212.0,3696.0,4095.0,4095.0,-1.38,8.96,8.02,0.03,0.05,-0.13,0.0,f
3049.0,2894.0,2880.0,4007.0,3200.0,3690.0,4095.0,4095.0,-1.29,9.06,7.97,0.05,0.0,-0.14,0.0,f
3043.0,2893.0,2896.0,4026.0,3215.0,3699.0,4095.0,4095.0,-1.31,9.04,7.95,0.05,0.06,-0.12,0.0,f
3037.0,2887.0,2896.0,4003.0,3201.0,3679.0,4095.0,4095.0,-1.35,9.12,7.74,0.03,0.02,-0.12,0.0,f
3029.0,2893.0,2888.0,4016.0,3219.0,3707.0,4095.0,4095.0,-1.46,9.13,7.91,0.02,-0.02,-0.12,0.0,f
3030.0,2893.0,2889.0,4014.0,3209.0,3694.0,4095.0,4095.0,-1.33,9.07,7.87,0.05,-0.03,-0.09,0.0,f
3024.0,2883.0,2897.0,4019.0,3217.0,3703.0,4095.0,4095.0,-1.17,9.1,7.81,0.07,-0.01,-0.04,0.0,f
3025.0,2880.0,2896.0,4016.0,3205.0,3689.0,4095.0,4095.0,-1.11,9.21,7.7,0.09,-0.04,-0.03,0.0,f
3031.0,2899.0,2899.0,4027.0,3209.0,3693.0,4095.0,4095.0,-0.94,9.21,7.62,0.07,-0.05,0.0,0.0,f
3035.0,2891.0,2896.0,4012.0,3205.0,3682.0,4095.0,4095.0,-0.65,9.27,7.51,0.03,-0.1,-0.01,0.0,f
3042.0,2899.0,2896.0,4013.0,3214.0,3703.0,4095.0,4095.0,-0.41,9.27,7.67,0.04,-0.04,-0.02,0.0,f
3030.0,2893.0,2890.0,4002.0,3202.0,3684.0,4095.0,4095.0,-0.25,9.21,7.71,0.05,-0.03,-0.09,0.0,f
3035.0,2894.0,2897.0,4021.0,3209.0,3692.0,4095.0,4095.0,-0.28,9.44,7.36,-0.02,-0.08,-0.1,0.0,f
3026.0,2896.0,2899.0,4027.0,3212.0,3691.0,4095.0,4095.0,-0.34,9.31,7.73,-0.04,-0.01,-0.12,0.0,f
3039.0,2896.0,2895.0,4011.0,3205.0,3682.0,4095.0,4095.0,-0.28,9.29,7.52,0.04,-0.06,-0.1,0.0,f
3043.0,2891.0,2895.0,4030.0,3216.0,3693.0,4095.0,4095.0,0.11,9.5,7.57,-0.05,-0.05,-0.07,0.0,f
3033.0,2896.0,2894.0,4009.0,3207.0,3677.0,4095.0,4095.0,-0.23,9.11,7.68,0.06,-0.12,-0.21,0.0,f
3029.0,2901.0,2891.0,4032.0,3216.0,3697.0,4095.0,4095.0,-0.23,9.22,7.63,-0.1,0.0,-0.17,0.0,f
3039.0,2902.0,2891.0,4010.0,3212.0,3680.0,4095.0,4095.0,-0.34,9.14,7.79,-0.07,-0.06,-0.19,0.0,f
3035.0,2896.0,2894.0,4033.0,3217.0,3691.0,4095.0,4095.0,-0.34,9.09,7.97,-0.05,0.02,-0.15,0.0,f
3031.0,2896.0,2887.0,4022.0,3215.0,3682.0,4095.0,4095.0,-0.45,9.0,8.01,0.03,-0.03,-0.18,0.0,f
3035.0,2954.0,2928.0,3655.0,3143.0,4095.0,4095.0,4095.0,-2.19,9.21,6.92,-0.0,-0.06,-0.18,0.0,f
3024.0,2963.0,2913.0,3651.0,3149.0,4095.0,4095.0,4095.0,-2.37,9.1,6.81,-0.01,-0.09,-0.27,0.0,f
3027.0,2965.0,2928.0,3674.0,3160.0,4095.0,4095.0,4095.0,-2.74,9.13,7.24,0.02,-0.0,-0.19,0.0,f
3031.0,2960.0,2919.0,3659.0,3151.0,4095.0,4095.0,4095.0,-2.63,8.99,6.95,0.14,-0.01,-0.13,0.0,f
3045.0,2971.0,2917.0,3664.0,3157.0,4095.0,4095.0,4095.0,-2.42,9.38,6.24,0.14,-0.08,-0.17,0.0,f
3026.0,2959.0,2919.0,3666.0,3152.0,4081.0,4095.0,4095.0,-2.47,9.28,6.29,0.04,-0.13,-0.19,0.0,f
3037.0,2959.0,2929.0,3680.0,3153.0,4091.0,4095.0,4095.0,-2.65,9.22,6.79,-0.05,-0.08,-0.23,0.0,f
3031.0,2960.0,2925.0,3679.0,3152.0,4069.0,4095.0,4095.0,-2.55,9.19,6.62,-0.03,-0.14,-0.22,0.0,f
3046.0,2959.0,2930.0,3691.0,3159.0,4087.0,4095.0,4095.0,-2.79,9.0,7.04,-0.16,-0.09,-0.21,0.0,f
3034.0,2957.0,2934.0,3721.0,3159.0,4038.0,4095.0,4095.0,-2.77,8.99,7.36,-0.06,-0.04,-0.15,0.0,f
3038.0,2966.0,2928.0,3735.0,3177.0,4041.0,4095.0,4095.0,-2.59,8.99,7.33,0.07,-0.05,-0.08,0.0,f
3022.0,2960.0,2922.0,3731.0,3162.0,4010.0,4095.0,4095.0,-2.31,9.19,6.98,0.11,0.01,-0.13,0.0,f
3041.0,2959.0,2924.0,3751.0,3170.0,3989.0,4095.0,4095.0,-2.48,9.19,6.55,0.01,-0.07,-0.21,0.0,f
3039.0,2963.0,2931.0,3738.0,3174.0,3997.0,4095.0,4095.0,-2.8,9.14,6.94,-0.04,-0.0,-0.16,0.0,f
3024.0,2948.0,2910.0,3732.0,3169.0,3954.0,4095.0,4095.0,-2.53,9.12,7.05,-0.02,-0.04,-0.11,0.0,f
3030.0,2957.0,2927.0,3737.0,3167.0,3967.0,4095.0,4095.0,-2.3,9.07,6.99,0.03,-0.02,-0.15,0.0,f
3031.0,2951.0,2922.0,3743.0,3161.0,3933.0,4095.0,4095.0,-2.58,9.13,7.01,0.01,-0.01,-0.18,0.0,f
3044.0,2960.0,2915.0,3750.0,3171.0,3930.0,4095.0,4095.0,-2.61,9.07,7.07,-0.01,-0.01,-0.16,0.0,f
3030.0,2958.0,2911.0,3743.0,3166.0,3901.0,4095.0,4095.0,-2.54,9.07,7.0,0.0,-0.01,-0.14,0.0,f
3044.0,2960.0,2927.0,3760.0,3170.0,3906.0,4095.0,4095.0,-2.42,9.06,6.97,0.01,-0.01,-0.15,0.0,f
3038.0,2967.0,2919.0,3823.0,3223.0,4095.0,4095.0,4095.0,-2.79,9.01,6.99,0.15,0.14,-0.08,0.0,f
3042.0,2957.0,2928.0,3828.0,3221.0,4095.0,4095.0,4095.0,-2.81,9.13,6.52,0.11,-0.0,-0.14,0.0,f
3037.0,2961.0,2919.0,3825.0,3217.0,4095.0,4095.0,4095.0,-2.77,9.05,6.68,0.06,0.08,-0.09,0.0,f
3041.0,2961.0,2923.0,3834.0,3220.0,4095.0,4095.0,4095.0,-2.88,9.16,6.54,0.07,0.06,-0.04,0.0,f
3024.0,2957.0,2912.0,3827.0,3213.0,4095.0,4095.0,4095.0,-2.69,9.17,6.43,0.08,0.06,-0.08,0.0,f
3055.0,2960.0,2929.0,3838.0,3226.0,4095.0,4095.0,4095.0,-2.49,9.3,6.1,0.05,0.06,-0.08,0.0,f
3035.0,2951.0,2915.0,3810.0,3215.0,4095.0,4095.0,4095.0,-2.39,9.23,6.37,-0.01,0.06,-0.14,0.0,f
3031.0,2960.0,2909.0,3818.0,3216.0,4095.0,4095.0,4095.0,-2.58,9.19,6.51,-0.03,-0.02,-0.23,0.0,f
3037.0,2960.0,2927.0,3830.0,3223.0,4095.0,4095.0,4095.0,-2.4,9.16,6.47,-0.0,0.13,-0.23,0.0,f
3024.0,2958.0,2912.0,3819.0,3216.0,4095.0,4095.0,4095.0,-2.91,9.13,6.38,-0.02,0.04,-0.2,0.0,f
3042.0,2961.0,2930.0,3838.0,3232.0,4095.0,4095.0,4095.0,-3.37,9.1,6.54,0.1,-0.18,-0.18,0.0,f
3031.0,2960.0,2915.0,3810.0,3216.0,4095.0,4095.0,4095.0,-2.89,9.09,6.41,-0.06,0.17,0.01,0.0,f
3043.0,2958.0,2920.0,3841.0,3231.0,4095.0,4095.0,4095.0,-2.62,9.09,6.75,0.07,0.03,0.01,0.0,f
3023.0,2953.0,2918.0,3820.0,3235.0,4095.0,4095.0,4095.0,-2.44,9.26,6.34,0.08,0.07,-0.12,0.0,f
3035.0,2973.0,2927.0,3824.0,3242.0,4095.0,4095.0,4095.0,-2.76,9.37,6.13,0.11,-0.44,-0.21,0.0,f
3031.0,2967.0,2917.0,3760.0,3229.0,4095.0,4095.0,4095.0,-2.85,9.32,6.41,0.05,-0.77,-0.3,0.0,f
3049.0,2982.0,2921.0,3757.0,3239.0,4095.0,4095.0,4095.0,-2.63,9.05,6.64,0.05,-0.37,-0.28,0.0,f
3028.0,2972.0,2917.0,3726.0,3242.0,4095.0,4095.0,4095.0,-2.16,9.17,6.98,0.08,-0.41,-0.17,0.0,f
3029.0,2967.0,2917.0,3735.0,3255.0,4095.0,4095.0,4095.0,-1.9,9.27,6.62,0.09,0.12,-0.16,0.0,f
3046.0,2975.0,2925.0,3726.0,3248.0,4095.0,4095.0,4095.0,-2.4,9.29,6.31,0.01,0.07,-0.26,0.0,f
3042.0,2963.0,2914.0,3747.0,3252.0,4095.0,4095.0,4095.0,-2.39,9.27,6.22,-0.04,-0.0,-0.08,0.0,f
3041.0,2965.0,2914.0,3778.0,3258.0,4095.0,4095.0,4095.0,-2.51,9.17,6.61,-0.12,-0.0,-0.17,0.0,f
3038.0,2974.0,2914.0,3776.0,3254.0,4095.0,4095.0,4095.0,-2.6,9.07,6.99,-0.04,-0.06,-0.15,0.0,f
3041.0,2975.0,2915.0,3783.0,3263.0,4095.0,4095.0,4095.0,-2.41,9.07,6.8,0.05,0.06,-0.1,0.0,f
3037.0,2973.0,2918.0,3789.0,3248.0,4095.0,4095.0,4095.0,-2.66,9.39,6.12,-0.07,0.03,-0.25,0.0,f
3035.0,2963.0,2919.0,3741.0,3243.0,4095.0,4095.0,4095.0,-2.63,8.95,7.29,-0.14,-0.12,-0.15,0.0,f
3047.0,2971.0,2919.0,3772.0,3248.0,4095.0,4095.0,4095.0,-2.55,8.96,7.12,0.08,0.05,-0.19,0.0,f
3039.0,2962.0,2914.0,3760.0,3241.0,4095.0,4095.0,4095.0,-2.96,9.28,6.27,-0.02,0.02,-0.28,0.0,f
3045.0,2963.0,2928.0,3769.0,3249.0,4095.0,4095.0,4095.0,-2.99,8.84,7.33,-0.01,-0.03,-0.11,0.0,f
3031.0,2969.0,2926.0,3760.0,3245.0,4095.0,4095.0,4095.0,-2.59,9.16,6.45,0.09,0.05,-0.1,0.0,f
3026.0,2967.0,2911.0,3778.0,3251.0,4095.0,4095.0,4095.0,-2.72,9.1,6.7,-0.02,0.05,-0.17,0.0,f
3045.0,2960.0,2913.0,3770.0,3248.0,4095.0,4095.0,4095.0,-2.87,8.93,7.11,0.05,0.09,-0.17,0.0,f
3041.0,2961.0,2921.0,3790.0,3247.0,4095.0,4095.0,4095.0,-2.86,9.22,6.23,0.07,0.1,-0.15,0.0,f
3025.0,2976.0,2913.0,3789.0,3246.0,4095.0,4095.0,4095.0,-2.79,9.17,6.43,-0.04,-0.05,-0.17,0.0,f
3041.0,2967.0,2918.0,3803.0,3253.0,4095.0,4095.0,4095.0,-2.75,9.07,6.68,-0.0,0.01,-0.16,0.0,f
3027.0,2965.0,2907.0,3781.0,3245.0,4095.0,4095.0,4095.0,-2.89,9.1,6.59,0.02,0.03,-0.13,0.0,f
3040.0,2975.0,2928.0,3808.0,3251.0,4095.0,4095.0,4095.0,-2.82,9.12,6.53,-0.0,-0.01,-0.15,0.0,f
3031.0,2973.0,2930.0,3811.0,3248.0,4095.0,4095.0,4095.0,-2.86,9.06,6.68,-0.01,-0.02,-0.18,0.0,f
3030.0,2964.0,2918.0,3806.0,3250.0,4095.0,4095.0,4095.0,-2.85,9.0,6.76,0.03,0.0,-0.15,0.0,f
3036.0,2973.0,2928.0,3815.0,3249.0,4095.0,4095.0,4095.0,-2.8,9.16,6.34,0.02,0.01,-0.15,0.0,f
3031.0,2975.0,2929.0,3826.0,3248.0,4095.0,4095.0,4095.0,-2.9,9.09,6.6,0.01,-0.02,-0.16,0.0,f
3025.0,2971.0,2913.0,3822.0,3242.0,4095.0,4095.0,4095.0,-2.96,9.02,6.75,0.01,-0.01,-0.15,0.0,f
3043.0,2979.0,2928.0,3844.0,3253.0,4095.0,4095.0,4095.0,-2.82,9.05,6.71,-0.02,0.11,0.01,0.0,f
3031.0,2960.0,2921.0,3819.0,3247.0,4095.0,4095.0,4095.0,-2.93,9.28,6.19,0.06,0.11,-0.13,0.0,f
3040.0,2956.0,2928.0,3835.0,3259.0,4095.0,4095.0,4095.0,-2.72,9.18,6.42,-0.01,-0.02,-0.09,0.0,f
3035.0,2960.0,2918.0,3829.0,3242.0,4095.0,4095.0,4095.0,-2.53,9.09,6.57,-0.13,-0.05,-0.17,0.0,f
3045.0,2959.0,2919.0,3824.0,3239.0,4095.0,4095.0,4095.0,-2.78,8.99,7.01,-0.09,0.01,-0.19,0.0,f
3025.0,2969.0,2922.0,3847.0,3250.0,4095.0,4095.0,4095.0,-2.95,9.01,6.99,0.03,0.18,-0.15,0.0,f
3031.0,2970.0,2927.0,3834.0,3247.0,4095.0,4095.0,4095.0,-2.78,9.07,6.58,0.18,-0.0,-0.1,0.0,f
3047.0,2962.0,2927.0,3839.0,3255.0,4095.0,4095.0,4095.0,-2.88,9.02,6.83,-0.0,-0.04,-0.18,0.0,f
3024.0,2964.0,2921.0,3838.0,3251.0,4095.0,4095.0,4095.0,-2.88,8.94,6.81,0.09,-0.01,-0.18,0.0,f
3042.0,2960.0,2921.0,3838.0,3249.0,4095.0,4095.0,4095.0,-3.05,9.08,6.54,0.05,0.03,-0.15,0.0,f
3030.0,2956.0,2909.0,3827.0,3248.0,4095.0,4095.0,4095.0,-2.98,9.1,6.49,0.04,0.01,-0.12,0.0,f
3041.0,2969.0,2923.0,3837.0,3247.0,4095.0,4095.0,4095.0,-2.76,9.11,6.56,0.0,-0.01,-0.14,0.0,f
3030.0,2967.0,2910.0,3824.0,3235.0,4095.0,4095.0,4095.0,-2.77,9.03,6.77,0.03,0.02,-0.15,0.0,f
3027.0,2967.0,2916.0,3862.0,3259.0,4095.0,4095.0,4095.0,-2.87,9.08,6.51,0.05,-0.01,-0.17,0.0,f
3026.0,2971.0,2922.0,3839.0,3248.0,4095.0,4095.0,4095.0,-2.95,9.08,6.56,0.06,-0.01,-0.14,0.0,f
3033.0,2966.0,2928.0,3839.0,3254.0,4095.0,4095.0,4095.0,-2.69,9.16,6.41,0.01,0.01,-0.14,0.0,f
3055.0,2960.0,2927.0,3860.0,3250.0,4095.0,4095.0,4095.0,-2.88,9.11,6.46,-0.02,-0.03,-0.19,0.0,f
3034.0,2965.0,2918.0,3835.0,3248.0,4095.0,4095.0,4095.0,-3.08,9.0,6.61,0.01,-0.04,-0.2,0.0,f
3035.0,2955.0,2914.0,3882.0,3253.0,4095.0,4095.0,4095.0,-3.03,9.17,6.48,0.02,-0.1,-0.25,0.0,f
3024.0,2954.0,2906.0,3883.0,3253.0,4095.0,4095.0,4095.0,-2.83,9.16,6.38,0.01,0.04,-0.16,0.0,f
3029.0,2955.0,2925.0,3903.0,3260.0,4095.0,4095.0,4095.0,-3.06,9.12,6.37,-0.04,0.16,-0.14,0.0,f
3024.0,2962.0,2907.0,3888.0,3247.0,4095.0,4095.0,4095.0,-2.74,9.14,6.47,0.13,0.15,-0.08,0.0,f
3041.0,2955.0,2903.0,3879.0,3251.0,4095.0,4095.0,4095.0,-2.72,9.26,5.96,0.17,0.14,-0.16,0.0,f
3047.0,2965.0,2923.0,3893.0,3252.0,4095.0,4095.0,4095.0,-2.74,9.28,6.03,0.09,0.04,-0.2,0.0,f
3024.0,2951.0,2906.0,3881.0,3247.0,4095.0,4095.0,4095.0,-3.02,9.18,5.95,0.09,0.08,-0.2,0.0,f
3035.0,2960.0,2925.0,3899.0,3251.0,4095.0,4095.0,4095.0,-3.14,9.46,5.26,0.07,0.1,-0.15,0.0,f
3034.0,2960.0,2913.0,3899.0,3258.0,4095.0,4095.0,4095.0,-3.07,9.25,5.62,-0.05,0.03,-0.09,0.0,f
3037.0,2959.0,2914.0,3896.0,3254.0,4095.0,4095.0,4095.0,-3.47,9.2,6.0,-0.11,0.02,-0.01,0.0,f
3031.0,2965.0,2923.0,3904.0,3253.0,4095.0,4095.0,4095.0,-3.03,9.08,6.24,-0.08,0.31,0.32,0.0,f
3042.0,2967.0,2919.0,3907.0,3257.0,4095.0,4095.0,4095.0,-2.2,9.38,6.03,-0.05,-0.11,0.14,0.0,f
3029.0,2957.0,2917.0,3891.0,3248.0,4095.0,4095.0,4095.0,-1.69,9.41,6.06,0.02,-0.06,0.05,0.0,f
3035.0,2960.0,2923.0,3910.0,3262.0,4095.0,4095.0,4095.0,-1.8,9.45,6.18,0.06,-0.1,-0.01,0.0,f
3024.0,2961.0,2903.0,3903.0,3259.0,4095.0,4095.0,4095.0,-1.77,9.48,6.01,0.13,-0.09,-0.05,0.0,f
3041.0,2965.0,2916.0,3898.0,3258.0,4095.0,4095.0,4095.0,-1.84,9.6,5.71,0.18,-0.08,-0.0,0.0,f
3039.0,2963.0,2923.0,3919.0,3259.0,4095.0,4095.0,4095.0,-1.54,9.68,5.64,0.04,-0.25,0.03,0.0,f
3025.0,2960.0,2923.0,3883.0,3253.0,4095.0,4095.0,4095.0,-1.35,9.98,5.63,0.13,-0.18,0.09,0.0,f
3040.0,2978.0,2917.0,3897.0,3258.0,4095.0,4095.0,4095.0,-0.23,10.0,5.68,0.3,-0.15,-0.1,0.0,f
3033.0,2965.0,2919.0,3888.0,3258.0,4095.0,4095.0,4095.0,-0.86,8.44,5.14,0.24,-0.07,-0.21,0.0,f
3033.0,2955.0,2903.0,3853.0,3251.0,4095.0,4095.0,4095.0,1.98,9.73,5.6,-0.03,-0.01,-0.16,0.0,f
3031.0,2961.0,2919.0,3859.0,3271.0,4095.0,4095.0,4095.0,1.84,9.72,5.61,-0.07,-0.04,-0.16,0.0,f
3026.0,2946.0,2921.0,3835.0,3255.0,4095.0,4095.0,4095.0,1.77,9.67,5.72,-0.1,-0.03,-0.15,0.0,f
3042.0,2960.0,2932.0,3856.0,3270.0,4095.0,4095.0,4095.0,1.86,9.63,5.89,-0.12,-0.06,-0.14,0.0,f
3037.0,2953.0,2913.0,3835.0,3253.0,4095.0,4095.0,4095.0,1.92,9.58,5.93,-0.2,-0.07,-0.17,0.0,f
3028.0,2961.0,2927.0,3840.0,3263.0,4095.0,4095.0,4095.0,1.79,9.48,6.46,-0.24,0.04,-0.15,0.0,f
3024.0,2947.0,2921.0,3830.0,3262.0,4095.0,4095.0,4095.0,1.81,9.42,6.75,-0.19,0.01,-0.14,0.0,f
3040.0,2949.0,2906.0,3824.0,3264.0,4095.0,4095.0,4095.0,1.87,9.45,6.8,-0.16,-0.07,-0.16,0.0,f
3043.0,2950.0,2918.0,3808.0,3255.0,4095.0,4095.0,4095.0,1.88,9.42,7.02,-0.17,-0.03,-0.19,0.0,f
3045.0,2970.0,2916.0,3837.0,3267.0,4095.0,4095.0,4095.0,1.8,9.33,7.14,-0.14,-0.03,-0.17,0.0,f
3043.0,2963.0,2928.0,3858.0,3268.0,4095.0,4095.0,4095.0,1.87,9.34,7.21,-0.13,-0.05,-0.21,0.0,f
3033.0,2959.0,2914.0,3853.0,3264.0,4095.0,4095.0,4095.0,1.78,9.28,7.35,-0.15,-0.02,-0.25,0.0,f
3042.0,2959.0,2925.0,3856.0,3266.0,4095.0,4095.0,4095.0,1.65,9.16,7.73,-0.16,-0.0,-0.26,0.0,f
3039.0,2945.0,2914.0,3854.0,3269.0,4095.0,4095.0,4095.0,1.47,9.12,7.95,-0.11,0.02,-0.22,0.0,f
3051.0,2959.0,2924.0,3870.0,3266.0,4095.0,4095.0,4095.0,1.34,9.12,8.07,-0.04,0.04,-0.22,0.0,f
3041.0,2954.0,2928.0,3856.0,3263.0,4095.0,4095.0,4095.0,1.28,9.14,7.82,-0.02,0.02,-0.22,0.0,f
3027.0,2951.0,2926.0,3878.0,3279.0,4095.0,4095.0,4095.0,1.36,9.22,7.74,-0.06,-0.0,-0.23,0.0,f
3024.0,2944.0,2911.0,3871.0,3263.0,4095.0,4095.0,4095.0,1.27,9.17,7.87,-0.11,-0.01,-0.26,0.0,f
3036.0,2968.0,2927.0,3862.0,3264.0,4095.0,4095.0,4095.0,1.16,9.04,8.16,-0.08,0.03,-0.27,0.0,f
3034.0,2956.0,2914.0,3861.0,3262.0,4095.0,4095.0,4095.0,0.9,9.01,8.33,-0.04,0.13,-0.24,0.0,f
3035.0,2954.0,2919.0,3881.0,3266.0,4095.0,4095.0,4095.0,0.34,9.04,8.3,0.02,-0.01,-0.15,0.0,f
3056.0,2960.0,2928.0,3888.0,3276.0,4095.0,4095.0,4095.0,0.35,9.0,8.41,0.01,0.02,-0.19,0.0,f
3040.0,2945.0,2910.0,3875.0,3261.0,4095.0,4095.0,4095.0,0.18,8.99,8.4,0.02,-0.0,-0.22,0.0,f
3039.0,2969.0,2915.0,3924.0,3266.0,4095.0,4095.0,4095.0,0.03,9.02,8.37,-0.0,0.02,-0.22,0.0,f
3031.0,2944.0,2908.0,3926.0,3262.0,4095.0,4095.0,4095.0,0.03,8.97,8.4,-0.02,0.01,-0.2,0.0,f
3037.0,2955.0,2918.0,3947.0,3267.0,4095.0,4095.0,4095.0,-0.06,8.92,8.52,0.01,0.01,-0.22,0.0,f
3029.0,2953.0,2911.0,3959.0,3280.0,4095.0,4095.0,4095.0,-0.12,9.0,8.31,0.01,-0.02,-0.25,0.0,f
3041.0,2954.0,2899.0,3932.0,3267.0,4095.0,4095.0,4095.0,-0.18,8.98,8.35,-0.04,0.08,-0.21,0.0,f
3038.0,2954.0,2926.0,3952.0,3270.0,4095.0,4095.0,4095.0,-0.32,8.83,8.74,-0.04,0.03,-0.21,0.0,f
3026.0,2960.0,2922.0,3900.0,3261.0,4095.0,4095.0,4095.0,-0.38,8.92,8.55,0.05,0.05,-0.19,0.0,f
3056.0,2944.0,2919.0,3906.0,3274.0,4095.0,4095.0,4095.0,-0.38,8.96,8.37,0.05,0.06,-0.22,0.0,f
3039.0,2946.0,2901.0,3942.0,3262.0,4095.0,4095.0,4095.0,-0.61,8.96,8.32,0.04,-0.0,-0.23,0.0,f
3045.0,2955.0,2913.0,3951.0,3274.0,4095.0,4095.0,4095.0,-0.74,8.93,8.4,0.02,0.05,-0.21,0.0,f
3053.0,2944.0,2919.0,3952.0,3264.0,4095.0,4095.0,4095.0,-0.72,8.97,8.44,0.04,0.07,-0.14,0.0,f
3040.0,2959.0,2912.0,3957.0,3265.0,4095.0,4095.0,4095.0,-0.77,8.88,8.5,0.11,-0.0,-0.13,0.0,f
3041.0,2950.0,2910.0,3959.0,3264.0,4095.0,4095.0,4095.0,-0.64,9.04,8.19,0.08,0.03,-0.1,0.0,f
3039.0,2951.0,2927.0,3963.0,3277.0,4095.0,4095.0,4095.0,-0.73,9.04,8.2,-0.03,0.05,-0.09,0.0,f
3031.0,2950.0,2924.0,3898.0,3264.0,4095.0,4095.0,4095.0,-0.49,9.08,8.11,0.21,0.08,-0.09,0.0,f
3033.0,2955.0,2915.0,3898.0,3259.0,4095.0,4095.0,4095.0,-0.37,9.26,7.66,0.2,-0.06,-0.19,0.0,f
3033.0,2960.0,2935.0,3918.0,3270.0,4095.0,4095.0,4095.0,-0.21,9.28,7.54,0.27,-0.01,-0.28,0.0,f
3034.0,2963.0,2916.0,3967.0,3260.0,4095.0,4095.0,4095.0,-1.69,9.29,7.13,0.07,0.04,-0.19,0.0,f
3040.0,2962.0,2917.0,3984.0,3266.0,4095.0,4095.0,4095.0,-1.75,9.32,7.02,0.08,0.07,-0.14,0.0,f
3026.0,2963.0,2900.0,3967.0,3262.0,4095.0,4095.0,4095.0,-1.64,9.4,6.73,0.11,0.13,-0.08,0.0,f
3039.0,2962.0,2909.0,3978.0,3267.0,4095.0,4095.0,4095.0,-1.61,9.42,6.72,0.0,0.07,-0.1,0.0,f
3028.0,2967.0,2915.0,3961.0,3238.0,4095.0,4095.0,4095.0,-1.59,9.39,6.84,0.02,0.08,-0.1,0.0,f
3031.0,2975.0,2912.0,3975.0,3248.0,4095.0,4095.0,4095.0,-1.49,9.48,6.68,0.03,0.02,-0.04,0.0,f
3036.0,2960.0,2915.0,3963.0,3205.0,4095.0,4095.0,4095.0,-1.05,9.51,6.5,-0.03,-0.04,-0.06,0.0,f
3044.0,2978.0,2918.0,3975.0,3215.0,4095.0,4095.0,4095.0,-1.46,9.38,6.78,-0.03,0.07,-0.16,0.0,f
3040.0,2969.0,2912.0,3966.0,3215.0,4095.0,4095.0,4095.0,-1.35,9.3,7.18,0.01,0.1,-0.1,0.0,f
3025.0,2959.0,2905.0,3931.0,3213.0,4095.0,4095.0,4095.0,-1.49,9.45,6.69,0.14,0.07,-0.11,0.0,f
3033.0,2969.0,2917.0,3938.0,3229.0,4095.0,4095.0,4095.0,-1.3,9.55,6.42,0.12,0.04,-0.02,0.0,f
3050.0,2977.0,2905.0,3929.0,3216.0,4095.0,4095.0,4095.0,-1.05,9.62,6.31,0.05,0.01,-0.09,0.0,f
3039.0,2958.0,2911.0,3957.0,3227.0,4095.0,4095.0,4095.0,-0.91,9.48,6.6,0.02,-0.01,-0.08,0.0,f
3036.0,2965.0,2915.0,3939.0,3222.0,4095.0,4095.0,4095.0,-1.06,9.58,6.51,0.0,-0.01,-0.14,0.0,f
3039.0,2960.0,2910.0,3963.0,3234.0,4095.0,4095.0,4095.0,-0.84,9.55,6.51,0.05,0.01,-0.13,0.0,f
3029.0,2966.0,2911.0,3941.0,3221.0,4095.0,4095.0,4095.0,-1.32,9.62,6.27,0.05,-0.13,-0.22,0.0,f
3037.0,2958.0,2908.0,3959.0,3231.0,4095.0,4095.0,4095.0,-1.1,9.5,6.54,0.03,-0.02,-0.08,0.0,f
3039.0,2961.0,2907.0,3950.0,3223.0,4095.0,4095.0,4095.0,-1.08,9.58,6.45,0.05,-0.06,-0.06,0.0,f
3051.0,2966.0,2907.0,3963.0,3235.0,4095.0,4095.0,4095.0,-0.9,9.6,6.36,0.03,-0.13,-0.04,0.0,f
3043.0,2967.0,2911.0,3952.0,3235.0,4095.0,4095.0,4095.0,-0.71,9.68,6.18,0.01,-0.16,-0.05,0.0,f
3042.0,2960.0,2917.0,3847.0,3235.0,4095.0,4095.0,4095.0,0.82,9.14,8.0,-0.06,-0.05,-0.19,0.0,f
3039.0,2963.0,2921.0,3863.0,3238.0,4095.0,4095.0,4095.0,0.95,9.04,8.24,-0.08,-0.03,-0.15,0.0,f
3038.0,2964.0,2912.0,3856.0,3227.0,4095.0,4095.0,4095.0,1.11,9.08,8.13,-0.08,-0.03,-0.21,0.0,f
3037.0,2961.0,2921.0,3856.0,3233.0,4095.0,4095.0,4095.0,0.79,9.05,8.22,-0.14,-0.08,-0.26,0.0,f
3039.0,2960.0,2919.0,3856.0,3231.0,4095.0,4095.0,4095.0,0.69,8.87,8.71,-0.1,-0.07,-0.25,0.0,f
3050.0,2961.0,2907.0,3869.0,3234.0,4095.0,4095.0,4095.0,0.59,8.84,8.73,-0.03,-0.1,-0.23,0.0,f
3042.0,2961.0,2915.0,3858.0,3228.0,4095.0,4095.0,4095.0,0.57,8.87,8.64,-0.02,-0.08,-0.2,0.0,f
3043.0,2966.0,2918.0,3871.0,3230.0,4095.0,4095.0,4095.0,0.48,8.92,8.51,0.01,-0.05,-0.18,0.0,f
3034.0,2967.0,2922.0,3881.0,3232.0,4095.0,4095.0,4095.0,0.63,8.84,8.64,-0.05,-0.1,-0.1,0.0,f
3029.0,2974.0,2913.0,3859.0,3226.0,4095.0,4095.0,4095.0,0.92,8.74,8.87,-0.03,-0.08,-0.13,0.0,f
3036.0,2962.0,2925.0,3875.0,3228.0,4095.0,4095.0,4095.0,0.96,8.71,8.99,0.02,-0.03,-0.17,0.0,f
3035.0,2959.0,2906.0,3875.0,3231.0,4095.0,4095.0,4095.0,0.74,8.83,8.73,0.07,0.01,-0.19,0.0,f
3045.0,2966.0,2905.0,3888.0,3235.0,4095.0,4095.0,4095.0,0.5,9.0,8.38,0.01,0.02,-0.18,0.0,f
3037.0,2954.0,2906.0,3863.0,3227.0,4095.0,4095.0,4095.0,0.72,8.85,8.69,0.03,-0.04,-0.11,0.0,f
3035.0,2970.0,2911.0,3888.0,3232.0,4095.0,4095.0,4095.0,0.97,8.94,8.49,0.02,0.0,-0.17,0.0,f
3040.0,2949.0,2907.0,3875.0,3222.0,4095.0,4095.0,4095.0,0.88,9.29,7.85,0.04,0.06,0.08,0.0,f
3039.0,2962.0,2914.0,3871.0,3223.0,4095.0,4095.0,4095.0,0.92,8.64,9.16,-0.07,0.02,-0.21,0.0,f
3025.0,2953.0,2906.0,3867.0,3227.0,4095.0,4095.0,4095.0,0.68,8.79,8.73,-0.03,-0.05,-0.23,0.0,f
3035.0,2962.0,2917.0,3893.0,3233.0,4095.0,4095.0,4095.0,0.56,8.85,8.69,-0.04,-0.05,-0.22,0.0,f
3031.0,2960.0,2918.0,3870.0,3223.0,4095.0,4095.0,4095.0,0.61,8.7,8.94,-0.05,-0.0,-0.25,0.0,f
3045.0,2971.0,2903.0,3884.0,3223.0,4095.0,4095.0,4095.0,0.02,8.8,8.65,-0.18,-0.13,-0.43,0.0,f
3045.0,2966.0,2916.0,3901.0,3232.0,4095.0,4095.0,4095.0,-0.67,8.41,9.47,-0.19,0.15,-0.25,0.0,f
3047.0,2959.0,2921.0,3900.0,3237.0,4095.0,4095.0,4095.0,-0.56,8.21,9.92,-0.07,0.23,-0.11,0.0,f
3038.0,2959.0,2922.0,3904.0,3238.0,4095.0,4095.0,4095.0,-0.4,8.34,9.57,0.13,0.06,-0.13,0.0,f
3037.0,2959.0,2918.0,3887.0,3229.0,4095.0,4095.0,4095.0,-0.27,8.55,9.21,0.04,0.02,-0.16,0.0,f
3042.0,2955.0,2913.0,3907.0,3237.0,4095.0,4095.0,4095.0,-0.21,8.49,9.29,-0.02,0.02,-0.22,0.0,f
3038.0,2970.0,2924.0,3911.0,3235.0,4095.0,4095.0,4095.0,-0.51,8.43,9.41,0.01,-0.06,-0.33,0.0,f
3031.0,2960.0,2917.0,3895.0,3229.0,4095.0,4095.0,4095.0,-0.76,8.46,9.36,-0.05,-0.11,-0.33,0.0,f
3040.0,2960.0,2913.0,3911.0,3244.0,4095.0,4095.0,4095.0,-0.8,8.4,9.34,-0.05,0.13,-0.22,0.0,f
3056.0,2960.0,2901.0,3893.0,3228.0,4095.0,4095.0,4095.0,-1.05,8.27,9.68,-0.12,-0.01,-0.24,0.0,f
3047.0,2962.0,2910.0,3891.0,3238.0,4095.0,4095.0,4095.0,-1.0,8.05,9.95,0.02,0.11,-0.16,0.0,f
3026.0,2955.0,2913.0,3934.0,3238.0,4095.0,4095.0,4095.0,-1.13,8.15,9.79,0.18,0.14,-0.23,0.0,f
3054.0,2959.0,2914.0,3954.0,3238.0,4095.0,4095.0,4095.0,-1.19,8.4,9.25,0.27,0.07,-0.25,0.0,f
3039.0,2966.0,2910.0,3938.0,3237.0,4095.0,4095.0,4095.0,-1.45,8.55,8.92,0.17,0.05,-0.24,0.0,f
3049.0,2962.0,2918.0,3952.0,3242.0,4095.0,4095.0,4095.0,-1.45,8.52,8.92,0.03,-0.04,-0.22,0.0,f
3041.0,2944.0,2907.0,3927.0,3242.0,4095.0,4095.0,4095.0,-1.43,8.46,9.14,0.1,-0.01,-0.2,0.0,f
3037.0,2957.0,2911.0,3935.0,3248.0,4095.0,4095.0,4095.0,-1.7,8.48,9.16,0.13,0.02,-0.2,0.0,f
3041.0,2958.0,2897.0,3911.0,3255.0,4095.0,4095.0,4095.0,-1.75,8.54,8.92,0.24,0.01,-0.2,0.0,f
3039.0,2960.0,2898.0,3778.0,3234.0,4095.0,4095.0,4095.0,-1.79,8.88,8.26,0.47,0.21,-0.26,0.0,f
3039.0,2971.0,2907.0,3744.0,3246.0,4095.0,4095.0,4095.0,-1.71,8.76,7.91,0.01,-0.24,-0.28,0.0,f
3043.0,2996.0,2941.0,3793.0,3334.0,4095.0,4095.0,4095.0,-2.43,9.2,6.22,0.03,-0.09,-0.33,0.0,f
3051.0,2996.0,2931.0,3845.0,3351.0,4095.0,4095.0,4095.0,-2.83,9.36,6.34,0.12,-0.0,-0.17,0.0,f
3033.0,3009.0,2925.0,3831.0,3353.0,4095.0,4095.0,4095.0,-2.32,9.39,5.83,0.1,-0.06,-0.17,0.0,f
3050.0,3001.0,2949.0,3847.0,3379.0,4095.0,4095.0,4095.0,-2.53,9.32,6.08,-0.03,-0.2,-0.24,0.0,f
3030.0,2999.0,2934.0,3834.0,3375.0,4095.0,4095.0,4095.0,-2.84,9.24,6.82,-0.11,-0.08,-0.11,0.0,f
3044.0,3010.0,2933.0,3887.0,3397.0,4095.0,4095.0,4095.0,-2.42,9.22,6.56,0.03,-0.14,-0.02,0.0,f
3026.0,2997.0,2934.0,3881.0,3379.0,4095.0,4095.0,4095.0,-2.29,9.25,6.38,-0.11,-0.33,-0.06,0.0,f
3033.0,2992.0,2924.0,3917.0,3393.0,4095.0,4095.0,4095.0,-2.11,9.24,6.86,-0.11,-0.21,-0.01,0.0,f
3029.0,3007.0,2921.0,3875.0,3379.0,4095.0,4095.0,4095.0,-1.8,9.27,7.0,-0.1,-0.31,0.01,0.0,f
3039.0,3010.0,2929.0,3909.0,3369.0,4095.0,4095.0,4095.0,-1.85,9.27,7.18,-0.06,-0.98,-0.13,0.0,f
3031.0,2999.0,2928.0,3916.0,3365.0,4095.0,4095.0,4095.0,-1.45,9.24,7.35,0.06,-1.77,-0.28,0.0,f
3039.0,3007.0,2929.0,3930.0,3369.0,4095.0,4095.0,4095.0,-1.02,9.35,7.52,0.18,-1.5,-0.29,0.0,f
3034.0,2994.0,2926.0,3941.0,3366.0,4095.0,4095.0,4095.0,-0.45,9.44,7.51,0.24,-1.39,-0.31,0.0,f
3024.0,3005.0,2927.0,3931.0,3357.0,4095.0,4095.0,4095.0,-0.1,9.44,7.14,0.14,-0.61,-0.15,0.0,f
3049.0,3007.0,2922.0,3955.0,3363.0,4095.0,4095.0,4095.0,0.03,9.47,7.23,-0.01,0.1,0.03,0.0,f
3035.0,3002.0,2931.0,3943.0,3356.0,4095.0,4095.0,4095.0,0.25,9.35,7.42,-0.0,-0.43,-0.13,0.0,f
3044.0,3021.0,2939.0,3952.0,3365.0,4095.0,4095.0,4095.0,0.26,9.26,7.75,-0.09,-0.25,-0.09,0.0,f
3025.0,3009.0,2920.0,3952.0,3361.0,4095.0,4095.0,4095.0,0.59,9.27,8.04,0.02,-0.56,-0.32,0.0,f
3045.0,3002.0,2915.0,3979.0,3372.0,4095.0,4095.0,4095.0,0.71,9.23,7.63,0.01,-0.38,-0.35,0.0,f
3033.0,2997.0,2923.0,3984.0,3370.0,4065.0,4095.0,4095.0,-0.05,9.3,7.49,-0.02,0.03,-0.22,0.0,f
3031.0,2939.0,2908.0,3459.0,3111.0,4095.0,4095.0,4095.0,-2.38,9.2,6.96,0.07,0.25,-0.21,0.0,f
3030.0,2946.0,2897.0,3458.0,3120.0,4095.0,4095.0,4095.0,-2.43,9.22,6.73,0.13,-0.04,-0.21,0.0,f
3034.0,2945.0,2911.0,3465.0,3132.0,4095.0,4095.0,4095.0,-2.2,9.4,6.28,0.11,-0.1,-0.15,0.0,f
3024.0,2949.0,2904.0,3479.0,3136.0,4095.0,4095.0,4095.0,-2.35,9.32,6.45,0.1,0.08,-0.17,0.0,f
3037.0,2953.0,2914.0,3489.0,3141.0,4095.0,4095.0,4095.0,-2.44,9.33,6.39,0.1,-0.02,-0.1,0.0,f
3030.0,2946.0,2911.0,3490.0,3141.0,4095.0,4095.0,4095.0,-2.1,9.33,6.17,0.13,-0.01,-0.06,0.0,f
3026.0,2944.0,2912.0,3502.0,3141.0,4095.0,4095.0,4095.0,-1.8,9.53,6.08,0.08,-0.06,-0.06,0.0,f
3026.0,2960.0,2900.0,3510.0,3145.0,4095.0,4095.0,4095.0,-1.89,9.51,6.15,0.07,0.01,-0.07,0.0,f
3038.0,2957.0,2918.0,3541.0,3165.0,4095.0,4095.0,4095.0,-1.94,9.48,6.0,0.12,-0.07,-0.07,0.0,f
3024.0,2935.0,2909.0,3526.0,3158.0,4095.0,4095.0,4095.0,-1.89,9.56,5.8,0.01,-0.04,-0.02,0.0,f
3040.0,2954.0,2901.0,3535.0,3167.0,4095.0,4095.0,4095.0,-1.69,9.52,6.19,0.03,0.01,0.02,0.0,f
3026.0,2944.0,2911.0,3531.0,3161.0,4095.0,4095.0,4095.0,-1.44,9.56,6.03,0.08,-0.11,0.03,0.0,f
3040.0,2949.0,2906.0,3538.0,3166.0,4095.0,4095.0,4095.0,-1.16,9.7,5.82,0.08,-0.15,0.04,0.0,f
3029.0,2949.0,2909.0,3546.0,3172.0,4095.0,4095.0,4095.0,-0.88,9.74,5.74,0.09,-0.12,0.01,0.0,f
3026.0,2940.0,2909.0,3536.0,3162.0,4095.0,4095.0,4095.0,-0.73,9.75,5.73,0.04,-0.15,-0.02,0.0,f
3029.0,2947.0,2924.0,3554.0,3163.0,4095.0,4095.0,4095.0,-0.56,9.7,5.87,0.0,-0.08,-0.02,0.0,f
3036.0,2943.0,2896.0,3539.0,3164.0,4095.0,4095.0,4095.0,-0.46,9.73,5.98,0.01,-0.11,-0.03,0.0,f
3045.0,2958.0,2907.0,3552.0,3163.0,4095.0,4095.0,4095.0,-0.29,9.7,5.94,0.0,-0.12,-0.07,0.0,f
3024.0,2951.0,2903.0,3550.0,3159.0,4095.0,4095.0,4095.0,-0.3,9.77,5.88,0.01,-0.05,-0.08,0.0,f
3033.0,2960.0,2921.0,3550.0,3157.0,4095.0,4095.0,4095.0,-0.08,9.76,5.9,0.03,-0.05,-0.09,0.0,f
3045.0,2950.0,2898.0,3566.0,3151.0,4001.0,4095.0,4095.0,0.17,9.77,6.09,-0.08,-0.06,-0.09,0.0,f
3042.0,2951.0,2913.0,3577.0,3152.0,3991.0,4095.0,4095.0,0.16,9.75,6.11,-0.06,-0.11,-0.11,0.0,f
3040.0,2950.0,2909.0,3572.0,3152.0,3951.0,4095.0,4095.0,0.24,9.71,6.2,-0.05,-0.1,-0.11,0.0,f
3038.0,2957.0,2906.0,3578.0,3151.0,3933.0,4095.0,4095.0,0.26,9.71,6.44,-0.1,-0.04,-0.12,0.0,f
3039.0,2957.0,2900.0,3581.0,3152.0,3924.0,4095.0,4095.0,0.35,9.62,6.49,-0.04,-0.03,-0.14,0.0,f
3053.0,2959.0,2906.0,3583.0,3154.0,3950.0,4095.0,4095.0,0.3,9.67,6.37,-0.05,-0.06,-0.16,0.0,f
3030.0,2944.0,2907.0,3575.0,3143.0,3933.0,4095.0,4095.0,0.33,9.64,6.57,-0.05,-0.05,-0.15,0.0,f
3045.0,2957.0,2915.0,3582.0,3143.0,3924.0,4095.0,4095.0,0.37,9.61,6.55,-0.07,-0.04,-0.14,0.0,f
3027.0,2942.0,2913.0,3581.0,3140.0,3942.0,4095.0,4095.0,0.35,9.56,6.7,-0.1,-0.05,-0.14,0.0,f
3038.0,2946.0,2907.0,3583.0,3142.0,3920.0,4095.0,4095.0,0.37,9.53,6.85,-0.09,-0.05,-0.14,0.0,f
3037.0,2950.0,2899.0,3572.0,3138.0,3905.0,4095.0,4095.0,0.43,9.45,7.16,-0.08,-0.05,-0.13,0.0,f
3047.0,2939.0,2911.0,3570.0,3146.0,3921.0,4095.0,4095.0,0.51,9.53,6.9,-0.06,-0.07,-0.16,0.0,f
3037.0,2943.0,2908.0,3583.0,3157.0,3934.0,4095.0,4095.0,0.5,9.48,7.05,-0.1,-0.04,-0.16,0.0,f
3033.0,2948.0,2901.0,3574.0,3146.0,3895.0,4095.0,4095.0,0.46,9.43,7.24,-0.08,-0.07,-0.17,0.0,f
3041.0,2948.0,2905.0,3597.0,3151.0,3898.0,4095.0,4095.0,0.37,9.4,7.29,-0.07,-0.03,-0.16,0.0,f
3026.0,2935.0,2896.0,3579.0,3150.0,3859.0,4095.0,4095.0,0.43,9.37,7.43,-0.07,-0.07,-0.16,0.0,f
3035.0,2960.0,2916.0,3597.0,3147.0,3865.0,4095.0,4095.0,0.47,9.34,7.48,-0.05,-0.02,-0.16,0.0,f
3038.0,2938.0,2906.0,3583.0,3149.0,3853.0,4095.0,4095.0,0.41,9.32,7.56,-0.03,-0.04,-0.16,0.0,f
3035.0,2957.0,2909.0,3600.0,3159.0,3857.0,4095.0,4095.0,0.45,9.36,7.37,-0.04,-0.05,-0.15,0.0,f
3037.0,2933.0,2906.0,3583.0,3150.0,3838.0,4095.0,4095.0,0.47,9.39,7.47,-0.05,-0.04,-0.16,0.0,f
3029.0,2938.0,2919.0,3605.0,3161.0,3856.0,4095.0,4095.0,0.4,9.2,7.84,-0.1,-0.09,-0.2,0.0,f
3033.0,2941.0,2909.0,3583.0,3152.0,3825.0,4095.0,4095.0,0.27,9.17,8.11,-0.08,-0.01,-0.18,0.0,f
3045.0,2947.0,2897.0,3597.0,3159.0,3845.0,4095.0,4095.0,0.33,9.15,8.06,-0.02,0.01,-0.16,0.0,f
3039.0,2938.0,2909.0,3583.0,3153.0,3834.0,4095.0,4095.0,0.34,9.16,7.91,-0.02,0.0,-0.17,0.0,f
3043.0,2946.0,2914.0,3600.0,3167.0,3949.0,4095.0,4095.0,0.22,9.12,8.03,-0.05,-0.04,-0.16,0.0,f
3039.0,2947.0,2901.0,3598.0,3154.0,3962.0,4095.0,4095.0,0.32,9.14,8.14,-0.02,0.0,-0.17,0.0,f
3033.0,2961.0,2913.0,3603.0,3171.0,3996.0,4095.0,4095.0,0.3,9.11,8.15,-0.04,-0.01,-0.17,0.0,f
3035.0,2944.0,2907.0,3600.0,3161.0,3983.0,4095.0,4095.0,0.26,9.06,8.36,-0.0,0.07,-0.17,0.0,f
3046.0,2944.0,2914.0,3607.0,3164.0,3980.0,4095.0,4095.0,0.11,9.11,8.22,0.03,0.06,-0.17,0.0,f
3035.0,2954.0,2907.0,3600.0,3164.0,3959.0,4095.0,4095.0,0.19,9.12,8.07,-0.03,-0.01,-0.17,0.0,f
3054.0,2960.0,2915.0,3607.0,3169.0,3985.0,4095.0,4095.0,0.22,9.03,8.26,-0.06,-0.02,-0.22,0.0,f
3047.0,2955.0,2912.0,3601.0,3169.0,3985.0,4095.0,4095.0,0.12,8.96,8.49,-0.06,0.05,-0.22,0.0,f
3029.0,2944.0,2911.0,3583.0,3162.0,3977.0,4095.0,4095.0,-0.09,8.96,8.56,-0.01,0.03,-0.23,0.0,f
3034.0,2946.0,2915.0,3615.0,3181.0,3961.0,4095.0,4095.0,-0.11,8.97,8.46,-0.02,0.01,-0.22,0.0,f
3031.0,2943.0,2908.0,3604.0,3168.0,3939.0,4095.0,4095.0,-0.24,8.9,8.61,0.01,0.05,-0.22,0.0,f
3029.0,2960.0,2907.0,3621.0,3175.0,3952.0,4095.0,4095.0,-0.34,8.95,8.45,0.02,0.0,-0.22,0.0,f
3041.0,2957.0,2915.0,3611.0,3171.0,3952.0,4095.0,4095.0,-0.49,9.09,8.07,0.07,0.1,-0.0,0.0,f
3047.0,2960.0,2912.0,3619.0,3182.0,3952.0,4095.0,4095.0,-0.35,8.94,8.54,-0.0,0.02,-0.18,0.0,f
3038.0,2957.0,2913.0,3626.0,3174.0,3950.0,4095.0,4095.0,-0.34,8.94,8.58,0.03,0.0,-0.19,0.0,f
3042.0,2944.0,2903.0,3632.0,3186.0,3962.0,4095.0,4095.0,-0.45,9.0,8.4,0.02,0.01,-0.19,0.0,f
3040.0,2957.0,2912.0,3639.0,3185.0,3924.0,4095.0,4095.0,-0.83,9.03,8.03,0.04,0.02,-0.28,0.0,f
3038.0,2947.0,2909.0,3612.0,3171.0,3901.0,4095.0,4095.0,-1.06,8.96,8.32,0.0,0.03,-0.28,0.0,f
3055.0,2961.0,2926.0,3641.0,3183.0,3915.0,4095.0,4095.0,-1.17,8.95,8.35,0.03,0.04,-0.24,0.0,f
3024.0,2960.0,2915.0,3623.0,3178.0,3875.0,4095.0,4095.0,-1.27,9.01,8.21,0.08,0.08,-0.22,0.0,f
3040.0,2970.0,2921.0,3641.0,3187.0,3888.0,4095.0,4095.0,-1.27,8.9,8.05,0.11,0.04,-0.2,0.0,f
3033.0,2960.0,2911.0,3632.0,3177.0,3875.0,4095.0,4095.0,-1.44,9.06,8.06,0.11,0.1,-0.19,0.0,f
3046.0,2954.0,2919.0,3650.0,3191.0,3888.0,4095.0,4095.0,-1.43,9.07,7.64,0.12,0.01,-0.18,0.0,f
3029.0,2950.0,2911.0,3633.0,3185.0,3967.0,4095.0,4095.0,-1.43,9.0,7.8,0.05,0.07,-0.19,0.0,f
3047.0,2967.0,2923.0,3648.0,3200.0,3971.0,4095.0,4095.0,-1.58,9.14,7.63,0.08,0.04,-0.22,0.0,f
3041.0,2947.0,2894.0,3636.0,3194.0,3940.0,4095.0,4095.0,-1.54,9.17,7.62,0.02,-0.01,-0.21,0.0,f
3045.0,2957.0,2903.0,3657.0,3199.0,3946.0,4095.0,4095.0,-1.61,9.01,7.71,0.01,-0.0,-0.18,0.0,f
3042.0,2958.0,2910.0,3659.0,3200.0,3945.0,4095.0,4095.0,-1.82,9.0,7.6,-0.01,-0.0,-0.19,0.0,f
3039.0,2963.0,2913.0,3654.0,3197.0,3941.0,4095.0,4095.0,-1.75,9.07,7.83,0.05,0.03,-0.13,0.0,f
3045.0,2969.0,2909.0,3664.0,3205.0,3955.0,4095.0,4095.0,-1.54,9.11,7.63,0.08,0.02,-0.12,0.0,f
3026.0,2951.0,2901.0,3659.0,3202.0,3952.0,4095.0,4095.0,-1.64,9.05,7.55,0.06,0.03,-0.16,0.0,f
3045.0,2962.0,2898.0,3661.0,3209.0,3962.0,4095.0,4095.0,-1.84,9.25,7.51,0.05,0.07,-0.13,0.0,f
3042.0,2971.0,2907.0,3668.0,3207.0,3939.0,4095.0,4095.0,-1.59,9.09,7.51,0.08,0.04,-0.12,0.0,f
3043.0,2960.0,2922.0,3669.0,3200.0,3917.0,4095.0,4095.0,-1.71,9.13,7.38,0.09,0.06,-0.14,0.0,f
3037.0,2962.0,2907.0,3659.0,3195.0,3873.0,4095.0,4095.0,-1.71,9.2,7.25,-0.05,0.05,-0.13,0.0,f
3041.0,2977.0,2914.0,3667.0,3203.0,3891.0,4095.0,4095.0,-1.69,9.16,7.64,0.09,0.06,-0.12,0.0,f
3035.0,2971.0,2897.0,3679.0,3207.0,3811.0,4095.0,4095.0,-1.88,9.3,6.76,0.05,0.09,-0.22,0.0,f
3041.0,2979.0,2899.0,3668.0,3198.0,3792.0,4095.0,4095.0,-2.12,9.28,6.79,0.0,0.02,-0.22,0.0,f
3045.0,2975.0,2912.0,3670.0,3205.0,3801.0,4095.0,4095.0,-2.19,9.16,6.91,-0.02,0.06,-0.19,0.0,f
3041.0,2977.0,2912.0,3675.0,3195.0,3767.0,4095.0,4095.0,-2.17,9.23,6.89,0.04,0.01,-0.16,0.0,f
3038.0,2975.0,2911.0,3691.0,3214.0,3775.0,4095.0,4095.0,-2.1,9.11,6.84,0.04,0.03,-0.15,0.0,f
3036.0,2976.0,2911.0,3667.0,3195.0,3759.0,4095.0,4095.0,-2.21,9.17,6.73,0.02,-0.03,-0.16,0.0,f
3037.0,2986.0,2907.0,3683.0,3206.0,3755.0,4095.0,4095.0,-2.09,9.28,6.94,-0.02,-0.05,-0.12,0.0,f
3029.0,2982.0,2907.0,3674.0,3199.0,3730.0,4095.0,4095.0,-2.0,9.28,6.85,0.01,-0.01,-0.1,0.0,f
3052.0,2987.0,2912.0,3694.0,3209.0,3746.0,4095.0,4095.0,-1.8,9.32,6.91,0.01,-0.04,-0.14,0.0,f
3041.0,2975.0,2903.0,3677.0,3211.0,3743.0,4095.0,4095.0,-1.88,9.35,6.85,0.04,0.04,-0.17,0.0,f
3050.0,2971.0,2912.0,3695.0,3210.0,3760.0,4095.0,4095.0,-2.15,9.35,6.73,0.02,0.04,-0.14,0.0,f
3041.0,2967.0,2910.0,3681.0,3197.0,3702.0,4095.0,4095.0,-1.93,9.24,6.86,0.0,-0.0,-0.12,0.0,f
3051.0,2967.0,2906.0,3685.0,3202.0,3692.0,4095.0,4095.0,-2.02,9.21,6.79,0.08,0.04,-0.15,0.0,f
3046.0,2959.0,2911.0,3695.0,3200.0,3693.0,4095.0,4095.0,-2.07,9.41,6.7,0.02,-0.01,-0.13,0.0,f
3037.0,2949.0,2907.0,3691.0,3200.0,3675.0,4095.0,4095.0,-1.93,9.26,6.8,0.05,0.02,-0.13,0.0,f
3043.0,2961.0,2906.0,3702.0,3209.0,3664.0,4095.0,4095.0,-1.92,9.4,6.63,0.05,0.04,-0.12,0.0,f
3031.0,2959.0,2914.0,3699.0,3195.0,3648.0,4095.0,4095.0,-1.92,9.4,6.51,0.03,0.02,-0.13,0.0,f
3056.0,2971.0,2908.0,3703.0,3202.0,3638.0,4095.0,4095.0,-1.84,9.27,6.82,-0.01,0.04,-0.18,0.0,f
3034.0,2963.0,2896.0,3691.0,3200.0,3603.0,4095.0,4095.0,-2.09,9.32,6.72,0.06,0.08,-0.13,0.0,f
3038.0,2975.0,2906.0,3697.0,3202.0,3625.0,4095.0,4095.0,-1.93,9.28,6.6,0.13,0.04,-0.1,0.0,f
3050.0,2955.0,2905.0,3706.0,3185.0,3632.0,4095.0,4095.0,-1.56,9.46,6.6,0.02,0.04,-0.15,0.0,f
3042.0,2966.0,2895.0,3687.0,3180.0,3625.0,4095.0,4095.0,-1.93,9.53,6.22,0.13,0.19,-0.07,0.0,f
3042.0,2969.0,2915.0,3698.0,3179.0,3632.0,4095.0,4095.0,-1.64,9.63,6.01,0.06,-0.02,-0.04,0.0,f
3042.0,2964.0,2901.0,3688.0,3179.0,3621.0,4095.0,4095.0,-1.49,9.53,6.1,0.02,-0.03,-0.04,0.0,f
3041.0,2967.0,2912.0,3698.0,3184.0,3620.0,4095.0,4095.0,-1.35,9.54,6.02,0.07,-0.0,-0.06,0.0,f
3037.0,2955.0,2911.0,3694.0,3186.0,3611.0,4095.0,4095.0,-1.3,9.81,5.94,-0.02,-0.09,-0.1,0.0,f
3047.0,2971.0,2899.0,3697.0,3184.0,3617.0,4095.0,4095.0,-1.1,9.63,6.16,-0.01,-0.01,-0.11,0.0,f
3037.0,2963.0,2903.0,3694.0,3182.0,3603.0,4095.0,4095.0,-1.31,9.54,6.1,0.08,0.02,-0.14,0.0,f
3065.0,2978.0,2922.0,3703.0,3184.0,3632.0,4095.0,4095.0,-1.33,9.7,6.14,-0.01,-0.06,-0.11,0.0,f
3037.0,2971.0,2902.0,3697.0,3182.0,3613.0,4095.0,4095.0,-1.11,9.46,6.28,-0.0,0.03,-0.13,0.0,f
3054.0,2973.0,2917.0,3697.0,3186.0,3611.0,4095.0,4095.0,-1.36,9.73,6.03,0.02,-0.02,-0.12,0.0,f
3049.0,2977.0,2907.0,3712.0,3197.0,3613.0,4095.0,4095.0,-1.15,9.5,6.44,0.01,-0.0,-0.09,0.0,f
3040.0,2977.0,2906.0,3698.0,3184.0,3602.0,4095.0,4095.0,-1.26,9.53,6.06,0.13,-0.02,-0.11,0.0,f
3039.0,2970.0,2903.0,3701.0,3193.0,3610.0,4095.0,4095.0,-1.16,9.82,5.85,0.02,-0.04,-0.07,0.0,f
3026.0,2959.0,2907.0,3695.0,3182.0,3582.0,4095.0,4095.0,-0.98,9.56,6.05,-0.0,-0.0,-0.06,0.0,f
3037.0,2966.0,2903.0,3712.0,3186.0,3600.0,4095.0,4095.0,-0.69,9.7,6.09,0.01,0.01,-0.09,0.0,f
3045.0,2960.0,2911.0,3696.0,3182.0,3583.0,4095.0,4095.0,-0.71,9.77,6.02,0.02,0.03,-0.14,0.0,f
3045.0,2957.0,2905.0,3705.0,3188.0,3599.0,4095.0,4095.0,-1.01,9.74,5.92,-0.01,-0.03,-0.15,0.0,f
3031.0,2957.0,2907.0,3702.0,3184.0,3583.0,4095.0,4095.0,-0.78,9.64,6.32,-0.01,-0.07,-0.12,0.0,f
3050.0,2967.0,2913.0,3712.0,3186.0,3600.0,4095.0,4095.0,-0.97,9.47,6.13,0.07,0.04,-0.16,0.0,f
3050.0,2976.0,2913.0,3702.0,3189.0,3657.0,4095.0,4095.0,-0.7,9.69,6.33,-0.05,0.01,-0.12,0.0,f
3041.0,2962.0,2905.0,3695.0,3186.0,3703.0,4095.0,4095.0,-0.79,9.64,6.05,0.02,-0.04,-0.13,0.0,f
3040.0,2986.0,2911.0,3678.0,3186.0,3746.0,4095.0,4095.0,-0.72,9.75,6.25,-0.07,-0.03,-0.08,0.0,f
3049.0,2957.0,2910.0,3670.0,3189.0,3751.0,4095.0,4095.0,-0.6,9.53,6.28,-0.04,-0.08,-0.13,0.0,f
3037.0,2965.0,2919.0,3675.0,3187.0,3807.0,4095.0,4095.0,-0.65,9.82,6.46,-0.11,-0.04,-0.03,0.0,f
3034.0,2955.0,2897.0,3598.0,3157.0,3949.0,4095.0,4095.0,-0.35,9.78,6.51,-0.11,-0.0,0.03,0.0,f
3044.0,2973.0,2906.0,3572.0,3155.0,4078.0,4095.0,4095.0,-0.01,9.66,6.28,-0.03,-0.14,-0.04,0.0,f
3041.0,2955.0,2899.0,3533.0,3150.0,4095.0,4095.0,4095.0,0.18,9.49,6.68,-0.1,-0.44,-0.16,0.0,f
3035.0,2970.0,2919.0,3491.0,3155.0,4095.0,4095.0,4095.0,0.25,9.55,7.11,-0.07,0.12,-0.05,0.0,f
3038.0,2965.0,2935.0,3437.0,3200.0,4095.0,4095.0,4095.0,-0.01,9.44,7.04,-0.19,0.05,-0.16,0.0,f
3046.0,2986.0,2928.0,3418.0,3237.0,4095.0,4095.0,4095.0,-0.2,9.48,7.25,0.01,0.05,-0.12,0.0,f
3026.0,2978.0,2930.0,3472.0,3248.0,4095.0,4095.0,4095.0,0.08,9.5,6.95,-0.08,-0.02,-0.14,0.0,f
3026.0,2970.0,2925.0,3472.0,3239.0,4095.0,4095.0,4095.0,0.12,9.37,7.16,-0.08,-0.08,-0.2,0.0,f
3041.0,2967.0,2922.0,3495.0,3248.0,4095.0,4095.0,4095.0,-0.03,9.32,7.44,0.0,0.01,-0.17,0.0,f
3038.0,2970.0,2915.0,3408.0,3225.0,4095.0,4095.0,4095.0,-0.01,9.4,7.17,-0.04,-0.09,-0.16,0.0,f
3031.0,2962.0,2924.0,3433.0,3225.0,4095.0,4095.0,4095.0,0.03,9.36,7.54,-0.11,-0.0,-0.11,0.0,f
3029.0,2960.0,2918.0,3443.0,3219.0,4095.0,4095.0,4095.0,-0.02,9.35,7.45,0.01,-0.06,-0.17,0.0,f
3031.0,2959.0,2923.0,3445.0,3216.0,4095.0,4095.0,4095.0,0.01,9.38,7.19,-0.09,-0.03,-0.15,0.0,f
3039.0,2967.0,2913.0,3446.0,3218.0,4095.0,4095.0,4095.0,0.06,9.33,7.72,-0.07,-0.03,-0.11,0.0,f
3029.0,2955.0,2931.0,3454.0,3229.0,4095.0,4095.0,4095.0,0.14,9.26,7.76,-0.03,-0.07,-0.12,0.0,f
3027.0,2947.0,2919.0,3465.0,3220.0,4095.0,4095.0,4095.0,0.23,9.27,7.74,-0.03,-0.03,-0.1,0.0,f
3050.0,2960.0,2917.0,3463.0,3221.0,4095.0,4095.0,4095.0,0.21,9.26,7.66,-0.04,-0.03,-0.12,0.0,f
3034.0,2956.0,2905.0,3471.0,3222.0,4095.0,4095.0,4095.0,0.25,9.2,7.84,-0.04,-0.0,-0.09,0.0,f
3037.0,2954.0,2920.0,3472.0,3227.0,4095.0,4095.0,4095.0,0.4,9.21,7.9,-0.01,-0.06,-0.13,0.0,f
3031.0,2967.0,2919.0,3491.0,3231.0,4095.0,4095.0,4095.0,0.47,9.28,7.76,-0.05,-0.04,-0.15,0.0,f
3023.0,2966.0,2922.0,3486.0,3226.0,4095.0,4095.0,4095.0,0.31,9.24,7.78,-0.07,-0.12,-0.18,0.0,f
3030.0,2958.0,2913.0,3491.0,3223.0,4095.0,4095.0,4095.0,0.36,9.17,7.85,-0.09,-0.06,-0.14,0.0,f
3038.0,2955.0,2913.0,3497.0,3216.0,4095.0,4095.0,4095.0,0.42,9.14,8.1,-0.16,-0.07,-0.16,0.0,f
3034.0,2964.0,2928.0,3511.0,3233.0,4095.0,4095.0,4095.0,0.47,8.96,8.55,-0.09,-0.01,-0.15,0.0,f
3038.0,2963.0,2910.0,3504.0,3212.0,4095.0,4095.0,4095.0,0.45,8.99,8.25,-0.09,-0.06,-0.18,0.0,f
3041.0,2958.0,2912.0,3504.0,3226.0,4095.0,4095.0,4095.0,0.37,8.9,8.63,-0.1,-0.07,-0.17,0.0,f
3035.0,2956.0,2918.0,3501.0,3217.0,4095.0,4095.0,4095.0,0.45,8.86,8.67,-0.06,-0.04,-0.16,0.0,f
3039.0,2971.0,2922.0,3514.0,3221.0,4095.0,4095.0,4095.0,0.45,8.83,8.66,-0.0,0.01,-0.16,0.0,f
3034.0,2958.0,2911.0,3504.0,3218.0,4095.0,4095.0,4095.0,0.36,8.87,8.61,-0.02,0.01,-0.14,0.0,f
3040.0,2958.0,2918.0,3533.0,3220.0,4095.0,4095.0,4095.0,0.44,8.81,8.83,-0.06,-0.03,-0.15,0.0,f
3030.0,2950.0,2923.0,3543.0,3229.0,4095.0,4095.0,4095.0,0.2,8.47,8.74,-0.04,-0.01,-0.01,0.0,f
3027.0,2960.0,2913.0,3534.0,3217.0,4095.0,4095.0,4095.0,0.44,8.87,8.72,-0.09,-0.02,-0.16,0.0,f
3039.0,2969.0,2929.0,3546.0,3229.0,4095.0,4095.0,4095.0,0.42,8.78,8.84,-0.01,0.0,-0.16,0.0,f
3025.0,2959.0,2918.0,3542.0,3216.0,4095.0,4095.0,4095.0,0.46,8.78,8.8,-0.08,-0.01,-0.16,0.0,f
3049.0,2966.0,2919.0,3557.0,3223.0,4095.0,4095.0,4095.0,0.4,8.73,8.85,-0.07,-0.03,-0.18,0.0,f
3030.0,2958.0,2922.0,3571.0,3229.0,4095.0,4095.0,4095.0,-0.12,8.43,9.48,0.02,-0.01,-0.17,0.0,f
3028.0,2950.0,2913.0,3570.0,3229.0,4095.0,4095.0,4095.0,-0.21,8.34,9.49,0.02,-0.0,-0.17,0.0,f
3037.0,2960.0,2927.0,3599.0,3234.0,4095.0,4095.0,4095.0,-0.1,8.29,9.58,-0.03,0.02,-0.16,0.0,f
3024.0,2953.0,2917.0,3583.0,3227.0,4095.0,4095.0,4095.0,-0.24,8.26,9.47,-0.03,-0.01,-0.16,0.0,f
3031.0,2963.0,2916.0,3583.0,3233.0,4095.0,4095.0,4095.0,-0.11,8.26,9.78,0.05,-0.04,-0.13,0.0,f
3031.0,2954.0,2911.0,3583.0,3223.0,4095.0,4095.0,4095.0,0.03,8.32,9.47,-0.01,0.07,-0.13,0.0,f
3027.0,2959.0,2926.0,3583.0,3233.0,4095.0,4095.0,4095.0,-0.16,8.43,9.54,0.08,-0.02,-0.2,0.0,f
3035.0,2956.0,2913.0,3605.0,3237.0,4095.0,4095.0,4095.0,-0.19,8.39,9.37,0.02,0.02,-0.19,0.0,f
3029.0,2954.0,2917.0,3583.0,3231.0,4095.0,4095.0,4095.0,-0.17,8.42,9.46,-0.09,0.03,-0.17,0.0,f
3035.0,2960.0,2915.0,3583.0,3237.0,4095.0,4095.0,4095.0,-0.2,8.32,9.61,0.08,0.02,-0.23,0.0,f
3035.0,2961.0,2909.0,3583.0,3231.0,4095.0,4095.0,4095.0,-0.3,8.42,9.49,0.08,0.03,-0.27,0.0,f
3038.0,2974.0,2921.0,3596.0,3227.0,4095.0,4095.0,4095.0,-0.42,8.41,9.29,0.05,0.06,-0.3,0.0,f
3035.0,2970.0,2919.0,3632.0,3238.0,4095.0,4095.0,4095.0,-0.64,8.43,9.41,0.05,0.08,-0.36,0.0,f
3038.0,2982.0,2911.0,3618.0,3241.0,4095.0,4095.0,4095.0,-1.14,8.45,9.41,0.11,0.11,-0.32,0.0,f
3031.0,2965.0,2903.0,3599.0,3230.0,4095.0,4095.0,4095.0,-1.36,8.47,9.0,0.08,0.07,-0.25,0.0,f
3055.0,2973.0,2925.0,3606.0,3229.0,4095.0,4095.0,4095.0,-1.3,8.44,9.07,0.0,0.04,-0.22,0.0,f
3042.0,2964.0,2915.0,3600.0,3222.0,4095.0,4095.0,4095.0,-1.4,8.54,9.16,0.06,0.02,-0.22,0.0,f
3049.0,2981.0,2914.0,3614.0,3238.0,4095.0,4095.0,4095.0,-1.46,8.48,8.99,0.01,0.05,-0.16,0.0,f
3028.0,2970.0,2925.0,3626.0,3244.0,4095.0,4095.0,4095.0,-1.51,8.49,9.02,-0.04,-0.02,-0.16,0.0,f
3034.0,2962.0,2899.0,3609.0,3235.0,4095.0,4095.0,4095.0,-1.4,8.36,9.38,0.0,-0.05,-0.16,0.0,f
