hall_1,hall_2,hall_3,flex_t,flex_i,flex_m,flex_r,flex_p,accel_x,accel_y,accel_z,gyro_x,gyro_y,gyro_z,sign
3033.0,2955.0,2937.0,4095.0,3331.0,4095.0,4095.0,4095.0,2.69,8.44,8.91,0.09,-0.04,-0.2,f
3034.0,2949.0,2945.0,4095.0,3341.0,4095.0,4095.0,4095.0,2.71,8.51,8.72,0.05,-0.01,-0.17,f
3034.0,2940.0,2941.0,4095.0,3360.0,4095.0,4095.0,4095.0,2.49,8.54,8.85,0.03,0.01,-0.18,f
3041.0,2944.0,2937.0,4095.0,3375.0,4095.0,4095.0,4095.0,2.54,8.46,8.74,0.02,-0.03,-0.16,f
3043.0,2958.0,2928.0,4095.0,3401.0,4039.0,4095.0,4095.0,2.68,8.45,8.78,0.08,-0.04,-0.18,f
3020.0,2947.0,2934.0,4095.0,3442.0,3925.0,4095.0,4095.0,2.69,8.53,8.7,0.05,-0.05,-0.17,f
3036.0,2957.0,2935.0,4095.0,3462.0,3834.0,4095.0,4095.0,2.67,8.49,8.66,0.01,-0.04,-0.18,f
3039.0,2946.0,2930.0,4095.0,3474.0,3801.0,4095.0,4095.0,2.51,8.41,8.84,0.02,-0.02,-0.17,f
3039.0,2956.0,2925.0,4095.0,3473.0,3881.0,4095.0,4095.0,2.72,8.55,8.7,0.0,-0.05,-0.14,f
3039.0,2963.0,2936.0,4095.0,3472.0,4095.0,4095.0,4095.0,2.83,8.54,8.56,0.0,0.1,-0.18,f
3030.0,2959.0,2941.0,4095.0,3469.0,4095.0,4095.0,4095.0,2.43,8.54,8.84,-0.0,0.0,-0.19,f
3038.0,2967.0,2930.0,4095.0,3470.0,4095.0,4095.0,4095.0,2.58,8.61,8.87,0.04,-0.11,-0.19,f
3030.0,2985.0,2933.0,4095.0,3431.0,4095.0,4095.0,4095.0,2.58,8.6,8.73,0.01,0.03,-0.15,f
3024.0,2981.0,2938.0,4095.0,3388.0,4095.0,4095.0,4095.0,2.5,8.66,8.7,0.02,-0.01,-0.15,f
3038.0,2985.0,2938.0,4095.0,3376.0,4095.0,4095.0,4095.0,2.43,8.6,8.84,0.06,-0.02,-0.18,f
3025.0,3003.0,2943.0,4095.0,3369.0,4095.0,4095.0,4095.0,2.49,8.54,8.66,0.01,0.03,-0.15,f
3034.0,3024.0,2931.0,4080.0,3347.0,4095.0,4095.0,4095.0,2.48,8.44,8.72,0.02,0.03,-0.12,f
3042.0,3055.0,2932.0,4019.0,3323.0,4095.0,4095.0,4095.0,2.55,8.45,8.82,0.07,0.03,-0.16,f
3027.0,3084.0,2945.0,4034.0,3312.0,4095.0,4095.0,4095.0,2.74,8.58,8.68,0.05,-0.0,-0.12,f
3035.0,3091.0,2957.0,4064.0,3313.0,4095.0,4095.0,4095.0,2.59,8.52,8.77,-0.0,0.05,-0.12,f
3025.0,3107.0,2971.0,4080.0,3325.0,4095.0,4095.0,4095.0,2.74,8.48,8.65,0.01,0.08,-0.14,f
3030.0,3110.0,2979.0,4078.0,3323.0,4095.0,4095.0,4095.0,2.59,8.46,8.78,-0.01,0.05,-0.13,f
3024.0,3120.0,2992.0,4086.0,3315.0,4095.0,4095.0,4095.0,2.68,8.46,8.84,0.06,-0.02,-0.18,f
3029.0,3127.0,3009.0,4075.0,3297.0,4095.0,4095.0,4095.0,2.56,8.43,8.75,0.03,-0.03,-0.15,f
3024.0,3120.0,3001.0,4050.0,3280.0,4095.0,4095.0,4095.0,2.5,8.55,8.8,0.03,-0.04,-0.16,f
3041.0,3143.0,3014.0,4049.0,3295.0,4095.0,4095.0,4095.0,2.59,8.52,8.82,0.04,-0.01,-0.16,f
3034.0,3138.0,3011.0,4048.0,3297.0,4095.0,4095.0,4095.0,2.65,8.64,8.69,0.02,-0.06,-0.16,f
3039.0,3136.0,3011.0,4044.0,3286.0,4095.0,4095.0,4095.0,2.73,8.46,8.79,0.02,0.04,-0.14,f
3036.0,3142.0,2973.0,4035.0,3289.0,4095.0,4095.0,4095.0,2.54,8.47,8.8,-0.0,0.06,-0.16,f
3033.0,3126.0,2927.0,4011.0,3265.0,4095.0,4095.0,4095.0,2.25,8.6,8.72,0.0,0.02,-0.17,f
3037.0,3111.0,2928.0,3952.0,3223.0,4095.0,4095.0,4095.0,2.43,8.55,8.83,-0.03,-0.04,-0.13,f
3041.0,3071.0,2928.0,3911.0,3211.0,4095.0,4095.0,4095.0,2.49,8.62,8.73,-0.01,-0.02,-0.13,f
3039.0,3088.0,2933.0,3920.0,3207.0,4095.0,4095.0,4095.0,2.66,8.58,8.72,0.04,-0.16,-0.16,f
3024.0,3086.0,2971.0,3920.0,3211.0,4095.0,4095.0,4095.0,2.64,8.55,8.65,0.0,-0.17,-0.11,f
3037.0,3101.0,2978.0,3937.0,3207.0,4095.0,4095.0,4095.0,2.57,8.56,8.73,0.06,0.04,-0.15,f
3026.0,3082.0,2982.0,3951.0,3214.0,4095.0,4095.0,4095.0,2.56,8.54,8.8,0.03,-0.01,-0.12,f
3041.0,3084.0,2982.0,3967.0,3217.0,4095.0,4095.0,4095.0,2.61,8.61,8.88,0.07,-0.15,-0.14,f
3040.0,3110.0,2978.0,3983.0,3216.0,4095.0,4095.0,4095.0,2.69,8.66,8.15,0.05,0.1,-0.08,f
3031.0,3153.0,2989.0,3797.0,3184.0,4095.0,4095.0,4095.0,3.17,8.75,8.09,-0.03,0.02,-0.16,f
3035.0,3297.0,2829.0,3901.0,3152.0,4095.0,4095.0,3822.0,3.55,8.41,8.37,-0.23,-0.14,-0.26,f
3029.0,3382.0,2453.0,3903.0,3159.0,4095.0,4095.0,3714.0,3.25,8.44,9.43,-0.08,-0.17,-0.41,f
3039.0,3339.0,2733.0,3919.0,3157.0,4095.0,4095.0,3922.0,2.79,8.6,9.52,0.35,-2.02,-0.74,f
3051.0,3247.0,2973.0,3927.0,3169.0,4095.0,4095.0,4095.0,2.06,9.11,8.2,0.53,-2.32,-0.99,f
3025.0,3177.0,2981.0,3919.0,3171.0,4095.0,4095.0,4095.0,2.9,8.72,7.65,0.46,-1.99,-0.86,f
3040.0,3152.0,2992.0,3903.0,3171.0,4095.0,4095.0,4095.0,2.33,9.1,7.15,0.42,-2.2,-0.85,f
3033.0,3165.0,2992.0,3891.0,3175.0,4095.0,4095.0,4095.0,3.1,9.19,6.48,0.35,-1.82,-0.78,f
3025.0,3152.0,2991.0,3890.0,3182.0,4095.0,4095.0,4095.0,3.54,9.37,6.11,0.26,-0.35,-0.58,f
3035.0,3170.0,2985.0,3877.0,3183.0,4095.0,4095.0,4095.0,2.53,9.45,5.96,0.01,1.73,-0.29,f
3041.0,3173.0,2987.0,3885.0,3184.0,4095.0,4095.0,4095.0,1.66,9.4,6.32,-0.16,2.38,-0.07,f
3029.0,3187.0,2990.0,3915.0,3182.0,4095.0,4095.0,4095.0,1.9,9.15,6.67,-0.21,1.84,-0.06,f
3025.0,3191.0,2973.0,3904.0,3183.0,4095.0,4095.0,4095.0,1.72,9.17,6.58,-0.21,2.52,0.02,f
3039.0,3186.0,2967.0,3902.0,3182.0,4095.0,4095.0,4095.0,1.09,9.11,7.47,-0.35,2.48,0.19,f
3041.0,3192.0,2960.0,3917.0,3192.0,4095.0,4095.0,4095.0,1.18,9.21,7.68,-0.3,2.22,-0.01,f
3027.0,3188.0,2966.0,3920.0,3193.0,4095.0,4095.0,4095.0,0.06,9.19,8.43,-0.45,1.84,0.09,f
3039.0,3197.0,2976.0,3931.0,3198.0,4095.0,4095.0,4095.0,0.8,8.77,8.71,-0.31,1.36,0.05,f
3029.0,3196.0,2970.0,3937.0,3198.0,4095.0,4095.0,4095.0,0.83,8.82,8.32,-0.26,1.58,0.11,f
3031.0,3190.0,2962.0,3947.0,3207.0,4095.0,4095.0,4095.0,-0.05,8.83,8.42,-0.38,2.06,0.21,f
3033.0,3199.0,2960.0,3968.0,3205.0,4095.0,4095.0,4095.0,-0.72,8.5,9.28,-0.35,1.15,0.15,f
3028.0,3190.0,2960.0,3965.0,3205.0,4095.0,4095.0,4095.0,-1.03,8.31,9.79,-0.06,-0.36,0.07,f
3045.0,3211.0,2967.0,3997.0,3214.0,4095.0,4095.0,4095.0,0.17,8.48,9.52,0.08,-1.87,-0.05,f
3031.0,3197.0,2960.0,3969.0,3213.0,4095.0,4095.0,4095.0,0.73,8.91,8.54,0.22,-1.52,-0.2,f
3043.0,3205.0,2974.0,3975.0,3205.0,4095.0,4095.0,4095.0,1.14,8.83,7.94,-0.03,-0.19,0.01,f
3039.0,3207.0,2967.0,3974.0,3206.0,4095.0,4095.0,4095.0,1.27,8.46,7.91,-0.37,0.09,-0.0,f
3039.0,3219.0,2958.0,3966.0,3202.0,4095.0,4095.0,4095.0,1.23,8.25,8.12,-0.6,-0.45,-0.04,f
3026.0,3220.0,2967.0,3984.0,3207.0,4095.0,4095.0,4095.0,2.74,8.89,7.68,-0.69,-1.16,-0.3,f
3024.0,3216.0,2960.0,3962.0,3203.0,4095.0,4095.0,4095.0,1.93,8.7,9.58,-0.84,-0.47,-0.43,f
3031.0,3216.0,2956.0,3961.0,3201.0,4095.0,4095.0,4095.0,1.77,8.55,10.34,-0.8,-0.34,-0.54,f
3034.0,3215.0,2960.0,3965.0,3203.0,4095.0,4095.0,4095.0,0.91,7.44,11.54,-0.64,-0.37,-0.59,f
3041.0,3207.0,2957.0,3938.0,3201.0,4095.0,4095.0,4095.0,1.16,7.17,11.46,-0.47,-0.57,-0.53,f
3037.0,3223.0,2960.0,3964.0,3200.0,4095.0,4095.0,4095.0,0.8,7.2,12.49,-0.34,-0.19,-0.37,f
3039.0,3218.0,2975.0,3951.0,3199.0,4095.0,4095.0,4095.0,0.46,7.48,12.95,0.02,0.06,-0.18,f
3027.0,3213.0,2955.0,3954.0,3195.0,4095.0,4095.0,4095.0,1.08,7.72,12.25,0.49,0.02,-0.2,f
3039.0,3201.0,2970.0,3871.0,3117.0,4095.0,4095.0,4095.0,1.45,8.08,10.97,0.85,0.12,-0.29,f
3031.0,3202.0,2967.0,3735.0,3055.0,4095.0,4095.0,4095.0,1.49,7.85,10.16,0.92,0.11,-0.4,f
3035.0,3189.0,2966.0,3765.0,3059.0,4095.0,4095.0,4095.0,0.84,8.25,9.74,1.0,0.01,-0.67,f
3034.0,3197.0,2992.0,3798.0,3083.0,4095.0,4095.0,4095.0,0.51,8.34,8.97,0.79,0.08,-0.32,f
3030.0,3227.0,3009.0,3789.0,3083.0,4095.0,4095.0,4095.0,0.37,8.4,8.28,0.6,0.44,-0.2,f
3037.0,3248.0,3024.0,3782.0,3071.0,4095.0,4095.0,4095.0,0.5,8.31,8.1,0.31,0.42,-0.04,f
3044.0,3238.0,3030.0,3790.0,3063.0,4095.0,4095.0,4095.0,0.46,8.13,8.34,0.17,0.26,-0.02,f
3047.0,3243.0,3025.0,3788.0,3071.0,4095.0,4095.0,4095.0,0.48,8.27,8.4,0.18,-0.01,0.03,f
3024.0,3242.0,3022.0,3779.0,3071.0,4095.0,4095.0,4095.0,0.88,8.44,8.37,0.24,-0.12,0.14,f
3045.0,3242.0,3018.0,3795.0,3089.0,4095.0,4095.0,4095.0,1.01,8.75,8.31,0.3,0.0,0.18,f
3035.0,3234.0,3019.0,3795.0,3088.0,4095.0,4095.0,4095.0,1.14,8.99,7.64,0.34,-0.25,0.22,f
3038.0,3231.0,3011.0,3792.0,3093.0,4095.0,4095.0,4095.0,1.69,9.43,6.38,0.29,-0.5,0.09,f
3031.0,3250.0,3014.0,3804.0,3100.0,4095.0,4095.0,4095.0,1.92,9.39,6.01,-0.0,-0.74,0.04,f
3030.0,3233.0,3014.0,3795.0,3090.0,4095.0,4095.0,4095.0,1.4,9.14,6.73,-0.24,-0.57,0.07,f
3041.0,3234.0,3005.0,3802.0,3091.0,4095.0,4095.0,4095.0,2.21,8.89,8.45,-0.4,-0.9,0.16,f
3041.0,3248.0,3008.0,3823.0,3098.0,4095.0,4095.0,4095.0,1.75,9.5,9.25,-0.16,-0.48,0.08,f
3027.0,3244.0,2997.0,3808.0,3088.0,4095.0,4095.0,4095.0,3.23,9.67,8.24,-0.09,-0.93,-0.18,f
3042.0,3216.0,2985.0,3815.0,3098.0,4095.0,4095.0,4095.0,2.86,9.59,8.92,-0.1,-0.35,-0.31,f
3030.0,3143.0,2975.0,3821.0,3106.0,4095.0,4095.0,4095.0,2.47,9.35,9.03,-0.14,0.07,-0.33,f
3039.0,3055.0,2945.0,3833.0,3118.0,4095.0,4095.0,4095.0,2.2,9.13,8.96,-0.15,0.16,-0.38,f
3030.0,3004.0,2954.0,3830.0,3120.0,4095.0,4095.0,4095.0,2.04,8.66,8.69,-0.15,0.32,-0.3,f
3041.0,2992.0,2954.0,3823.0,3137.0,4095.0,4095.0,4095.0,1.84,8.56,8.71,-0.12,0.32,-0.29,f
3031.0,2977.0,2934.0,3821.0,3145.0,4095.0,4095.0,4095.0,1.97,8.57,8.33,-0.19,0.26,-0.21,f
3035.0,2967.0,2945.0,3821.0,3139.0,4095.0,4095.0,4095.0,1.84,8.57,8.57,-0.04,0.12,-0.28,f
3038.0,2993.0,2941.0,3823.0,3152.0,4095.0,4095.0,4095.0,1.86,8.6,8.68,-0.06,-0.1,-0.21,f
3033.0,3013.0,2958.0,3824.0,3150.0,4095.0,4095.0,4095.0,1.94,8.44,8.41,0.1,-0.22,-0.22,f
3022.0,3066.0,2960.0,3821.0,3136.0,4095.0,4095.0,4095.0,1.82,8.73,8.22,0.06,-0.05,-0.1,f
3040.0,3187.0,2981.0,3824.0,3143.0,4095.0,4095.0,4095.0,1.97,8.59,8.23,0.02,0.1,-0.13,f
3041.0,3211.0,2995.0,3824.0,3143.0,4095.0,4095.0,4095.0,1.84,8.73,8.58,0.09,0.1,-0.14,f
3038.0,3217.0,2998.0,3825.0,3149.0,4095.0,4095.0,4095.0,1.77,8.83,8.41,0.06,-0.03,-0.1,f
3028.0,3146.0,2974.0,3834.0,3145.0,4095.0,4095.0,4095.0,1.78,8.87,8.6,0.06,-0.11,-0.1,f
3038.0,3062.0,2938.0,3840.0,3141.0,4095.0,4095.0,4095.0,1.87,8.91,8.54,0.12,-0.19,-0.08,f
3027.0,2989.0,2933.0,3824.0,3137.0,4095.0,4095.0,4095.0,2.03,8.95,8.42,0.03,-0.2,-0.1,f
3037.0,2954.0,2935.0,3837.0,3149.0,4095.0,4095.0,4095.0,2.13,8.9,8.23,0.09,-0.04,-0.15,f
3039.0,2940.0,2926.0,3838.0,3149.0,4095.0,4095.0,4095.0,2.17,8.86,7.94,0.09,0.04,-0.15,f
3037.0,2970.0,2943.0,3837.0,3152.0,4095.0,4095.0,4095.0,2.19,8.94,8.17,0.04,0.07,-0.11,f
3028.0,3001.0,2982.0,3829.0,3148.0,4095.0,4095.0,4095.0,2.05,8.9,8.35,0.03,0.11,-0.14,f
3033.0,3189.0,3022.0,3808.0,3126.0,4095.0,4095.0,4095.0,2.22,8.82,8.02,0.06,0.13,-0.11,f
3024.0,3355.0,3056.0,3776.0,3091.0,4095.0,4095.0,4095.0,1.99,8.86,8.08,0.02,0.2,-0.14,f
3034.0,3441.0,3071.0,3778.0,3090.0,4095.0,4095.0,4095.0,1.78,8.97,8.36,0.0,0.14,-0.14,f
3039.0,3504.0,3083.0,3750.0,2997.0,4095.0,4095.0,4095.0,1.93,8.76,8.2,-0.0,0.01,-0.15,f
3029.0,3651.0,3088.0,3733.0,2980.0,4095.0,4095.0,4095.0,1.79,9.09,8.12,0.08,-0.05,-0.17,f
3049.0,3713.0,3071.0,3696.0,2960.0,4095.0,4095.0,4095.0,1.98,9.01,8.03,0.01,-0.09,-0.12,f
3037.0,3616.0,3083.0,3634.0,2973.0,4095.0,4095.0,4095.0,1.95,8.84,8.26,0.11,-0.08,-0.14,f
3045.0,3280.0,3050.0,3638.0,3013.0,4095.0,4095.0,4095.0,2.21,9.1,8.04,-0.04,-0.06,-0.16,f
3045.0,3067.0,2991.0,3650.0,3053.0,4095.0,4095.0,4095.0,2.1,9.01,8.22,-0.07,0.01,-0.12,f
3039.0,3023.0,2958.0,3671.0,3085.0,4095.0,4095.0,4095.0,1.82,8.97,8.24,-0.08,-0.03,-0.08,f
3027.0,3000.0,2941.0,3681.0,3093.0,4095.0,4095.0,4095.0,2.05,8.86,8.37,-0.04,0.03,-0.14,f
3039.0,2971.0,2947.0,3696.0,3094.0,4095.0,4095.0,4095.0,2.1,8.83,8.46,0.01,0.12,-0.11,f
3029.0,2945.0,2951.0,3703.0,3104.0,4095.0,4095.0,4095.0,1.89,8.82,8.48,0.05,0.04,-0.21,f
3030.0,2890.0,2954.0,3714.0,3111.0,4095.0,4095.0,4095.0,2.05,8.9,8.32,0.05,0.11,-0.14,f
3030.0,2787.0,2970.0,3725.0,3111.0,4095.0,4095.0,4095.0,1.85,8.85,8.42,0.14,0.22,-0.19,f
3033.0,2545.0,3006.0,3732.0,3110.0,4095.0,4095.0,4095.0,1.86,9.17,7.97,0.14,0.15,-0.16,f
3027.0,2094.0,3067.0,3737.0,3103.0,4095.0,4095.0,4095.0,1.88,9.05,7.84,0.07,0.12,-0.12,f
3041.0,1008.0,3063.0,3729.0,3091.0,4095.0,4095.0,4095.0,1.68,8.9,8.14,0.07,-0.01,-0.15,f
3023.0,941.0,3091.0,3707.0,3083.0,4095.0,4095.0,4095.0,1.92,8.97,8.08,0.11,-0.05,-0.15,f
3025.0,945.0,3109.0,3711.0,3071.0,4095.0,4095.0,4095.0,2.11,8.87,8.1,0.11,-0.12,-0.22,f
3036.0,960.0,3082.0,3642.0,3046.0,4095.0,4095.0,4095.0,1.96,9.25,7.89,0.14,-0.08,-0.32,f
3022.0,956.0,3064.0,3376.0,3003.0,4095.0,4095.0,4095.0,1.81,9.13,7.81,0.03,0.26,-0.18,f
3041.0,944.0,3009.0,3392.0,2990.0,4095.0,4095.0,4095.0,1.42,9.18,8.04,0.01,0.15,-0.2,f
3031.0,939.0,2939.0,3388.0,2961.0,4095.0,4095.0,4095.0,1.35,9.04,7.91,0.01,-0.03,-0.15,f
3037.0,944.0,2878.0,3378.0,2932.0,4095.0,4095.0,4095.0,1.69,8.89,8.05,0.01,-0.05,-0.14,f
3035.0,944.0,2822.0,3335.0,2930.0,3970.0,4095.0,4095.0,1.68,9.17,8.08,0.1,-0.21,-0.15,f
3041.0,960.0,2807.0,3409.0,2935.0,3664.0,4095.0,4095.0,1.91,9.1,7.86,0.07,-0.08,-0.17,f
3043.0,951.0,2816.0,3421.0,2912.0,3553.0,4095.0,4095.0,1.86,9.13,7.7,-0.01,-0.03,-0.12,f
3050.0,959.0,2899.0,3438.0,2905.0,3735.0,4095.0,4095.0,1.66,9.14,7.92,-0.03,0.04,-0.12,f
3046.0,912.0,2982.0,3447.0,2931.0,4095.0,4095.0,4095.0,1.51,9.1,8.05,-0.1,-0.2,-0.07,f
3040.0,928.0,3015.0,3451.0,2945.0,4095.0,4095.0,4095.0,1.95,8.96,8.09,-0.04,-0.18,-0.08,f
3031.0,1203.0,3049.0,3450.0,2960.0,4095.0,4095.0,4095.0,2.04,9.09,8.03,-0.01,-0.01,-0.06,f
3035.0,1951.0,3057.0,3430.0,2983.0,4095.0,4095.0,4095.0,2.15,8.96,8.11,-0.08,-0.03,-0.04,f
3033.0,2454.0,3056.0,3446.0,2992.0,4095.0,4095.0,4095.0,2.13,9.02,7.97,-0.01,0.03,-0.08,f
3025.0,2846.0,3045.0,3461.0,2997.0,4095.0,4095.0,4095.0,2.08,8.91,8.06,-0.05,0.08,-0.07,f
3033.0,2923.0,3054.0,3472.0,3018.0,4095.0,4095.0,4095.0,2.09,8.91,8.2,0.04,0.01,-0.13,f
3025.0,2907.0,3047.0,3470.0,3023.0,4095.0,4095.0,4095.0,2.2,8.86,7.94,-0.01,-0.03,-0.18,f
3031.0,2946.0,2972.0,3536.0,3027.0,4095.0,4095.0,4095.0,2.04,8.99,7.97,-0.04,0.13,-0.14,f
3031.0,2927.0,2941.0,3536.0,3054.0,4095.0,4095.0,4095.0,1.88,8.9,7.99,-0.02,0.12,-0.11,f
3040.0,2897.0,2950.0,3609.0,3071.0,4095.0,4095.0,4095.0,1.98,9.09,7.83,-0.01,-0.01,-0.13,f
3027.0,2895.0,2939.0,3625.0,3088.0,4095.0,4095.0,4095.0,2.12,8.89,8.31,0.01,0.21,-0.08,f
3046.0,2898.0,2941.0,3707.0,3101.0,4095.0,4095.0,4095.0,2.02,9.09,8.34,0.09,0.07,-0.15,f
3025.0,2884.0,2928.0,3749.0,3111.0,4095.0,4095.0,4095.0,2.11,8.98,8.09,0.07,0.07,-0.18,f
3047.0,2881.0,2933.0,3818.0,3120.0,4095.0,4095.0,4095.0,2.03,9.03,8.19,0.01,0.03,-0.16,f
3030.0,2869.0,2928.0,3686.0,3102.0,4095.0,4095.0,4095.0,2.39,8.92,7.83,-0.1,-0.08,-0.25,f
3034.0,2885.0,2950.0,3579.0,3061.0,4095.0,4095.0,4095.0,1.97,8.94,8.18,0.01,0.04,-0.29,f
3037.0,2881.0,2942.0,3491.0,3001.0,4095.0,4095.0,4095.0,1.73,8.94,8.01,0.04,-0.01,-0.26,f
3034.0,2896.0,2935.0,3415.0,2956.0,4095.0,4095.0,4095.0,1.66,8.84,8.17,0.04,-0.08,-0.24,f
3028.0,2893.0,2931.0,3357.0,2963.0,4095.0,4095.0,4095.0,1.64,9.05,8.3,0.05,-0.14,-0.22,f
3031.0,2911.0,2942.0,3303.0,2975.0,4095.0,4095.0,4095.0,1.92,9.04,8.11,0.01,-0.09,-0.2,f
3030.0,2912.0,2939.0,3280.0,2965.0,4095.0,4095.0,4095.0,1.93,9.02,7.9,-0.09,0.03,-0.13,f
3029.0,2926.0,2943.0,3248.0,2979.0,4095.0,4095.0,4095.0,1.84,9.01,8.01,-0.08,0.06,-0.19,f
3040.0,2922.0,2935.0,3190.0,2960.0,4095.0,4095.0,4095.0,1.55,8.94,8.42,-0.03,0.2,-0.12,f
3037.0,2942.0,2941.0,3174.0,2928.0,4095.0,4095.0,4095.0,1.64,8.89,8.34,0.07,-0.02,-0.26,f
3041.0,2937.0,2942.0,3125.0,2915.0,4095.0,4095.0,4095.0,1.84,8.98,8.07,0.08,-0.14,-0.18,f
3033.0,2949.0,2943.0,3065.0,2917.0,4095.0,4095.0,4095.0,1.75,9.02,8.06,0.01,0.02,-0.08,f
3044.0,2960.0,2946.0,3103.0,2897.0,4095.0,4095.0,4095.0,1.62,8.91,8.37,0.02,0.06,-0.07,f
3039.0,2960.0,2935.0,3226.0,2946.0,4095.0,4095.0,4095.0,1.67,9.03,8.38,0.06,-0.09,-0.18,f
3037.0,2960.0,2935.0,3317.0,2963.0,4095.0,4095.0,4095.0,1.62,8.97,8.41,0.13,-0.23,-0.03,f
3045.0,2931.0,2931.0,3440.0,3069.0,4095.0,4095.0,4095.0,2.16,8.96,8.17,-0.14,-0.05,-0.1,f
3032.0,2944.0,2941.0,3568.0,3174.0,4095.0,4095.0,4095.0,2.04,8.96,8.24,0.05,0.01,-0.19,f
3037.0,2941.0,2941.0,3694.0,3231.0,4095.0,4095.0,4095.0,1.81,8.98,8.21,-0.02,-0.02,-0.16,f
3026.0,2939.0,2938.0,3770.0,3260.0,4095.0,4095.0,4095.0,1.76,8.9,8.34,0.06,-0.09,-0.13,f
3034.0,2943.0,2939.0,3903.0,3289.0,4095.0,4095.0,4095.0,1.88,9.01,8.15,0.01,-0.09,-0.16,f
3039.0,2935.0,2932.0,3982.0,3324.0,4095.0,4095.0,4095.0,1.96,8.94,8.09,0.02,-0.04,-0.13,f
3028.0,2946.0,2945.0,4059.0,3360.0,4095.0,4095.0,4095.0,1.95,8.98,8.12,-0.02,0.05,-0.12,f
3029.0,2944.0,2939.0,4095.0,3377.0,4095.0,4095.0,4095.0,1.91,8.9,8.19,-0.04,-0.01,-0.12,f
3030.0,2929.0,2939.0,4095.0,3393.0,4095.0,4095.0,4095.0,1.94,8.86,8.29,-0.0,-0.08,-0.13,f
3036.0,2947.0,2944.0,4095.0,3405.0,4095.0,4095.0,4095.0,2.09,8.87,8.15,-0.07,0.01,-0.11,f
3027.0,2942.0,2930.0,4095.0,3393.0,4095.0,4095.0,4095.0,1.89,8.97,8.34,-0.0,0.03,-0.11,f
3034.0,2943.0,2939.0,4095.0,3362.0,4095.0,4095.0,4095.0,2.11,8.94,8.26,-0.01,-0.04,-0.16,f
3037.0,2977.0,2939.0,4095.0,3329.0,4095.0,4095.0,4095.0,2.09,8.88,8.36,0.04,-0.04,-0.2,f
3035.0,3030.0,2946.0,3985.0,3277.0,4095.0,4095.0,4095.0,2.09,8.93,8.29,0.06,-0.07,-0.2,f
3035.0,3135.0,2939.0,3854.0,3250.0,4095.0,4095.0,4095.0,1.93,8.88,8.29,0.09,-0.08,-0.2,f
3031.0,3248.0,2962.0,3747.0,3232.0,4095.0,4095.0,4095.0,2.08,8.97,8.17,0.1,-0.05,-0.23,f
3033.0,3259.0,2983.0,3715.0,3217.0,4095.0,4095.0,4095.0,2.04,8.95,8.15,0.07,0.0,-0.21,f
3035.0,3248.0,2974.0,3708.0,3204.0,4095.0,4095.0,4095.0,1.86,8.99,8.29,0.0,0.05,-0.27,f
3035.0,3219.0,2975.0,3632.0,3169.0,4095.0,4095.0,4095.0,1.82,8.88,8.08,0.08,-0.07,-0.26,f
3024.0,3203.0,2982.0,3547.0,3119.0,4095.0,4095.0,4095.0,1.77,9.09,7.86,0.07,-0.06,-0.21,f
3046.0,3233.0,2992.0,3495.0,3069.0,4095.0,4095.0,4095.0,1.74,9.0,7.96,0.06,0.02,-0.2,f
3031.0,3367.0,3033.0,3497.0,3041.0,4095.0,4095.0,4095.0,1.73,9.08,8.11,0.14,0.17,-0.24,f
3034.0,3776.0,3056.0,3487.0,3031.0,4095.0,4095.0,4095.0,1.71,9.08,7.85,-0.01,0.19,-0.23,f
3039.0,3981.0,3066.0,3505.0,3036.0,4095.0,4095.0,4095.0,1.45,9.03,8.22,-0.0,-0.01,-0.19,f
3035.0,3953.0,3062.0,3504.0,3023.0,4095.0,4095.0,4095.0,1.49,9.07,8.05,0.07,-0.26,-0.18,f
3031.0,3885.0,3049.0,3504.0,3010.0,4095.0,4095.0,4095.0,1.51,9.18,7.96,0.11,-0.41,-0.16,f
3029.0,3799.0,3056.0,3517.0,3024.0,4095.0,4095.0,4095.0,1.85,9.22,7.76,0.09,-0.37,-0.15,f
3035.0,3702.0,3049.0,3555.0,3053.0,4095.0,4095.0,4095.0,1.85,9.22,7.95,0.1,-0.17,-0.21,f
3042.0,3446.0,3046.0,3583.0,3071.0,4095.0,4095.0,4095.0,1.64,9.22,8.04,0.03,-0.13,-0.25,f
3042.0,3319.0,3026.0,3631.0,3119.0,4095.0,4095.0,4095.0,1.95,9.32,7.96,0.09,-0.07,-0.23,f
3025.0,3263.0,3038.0,3650.0,3131.0,4095.0,4095.0,4095.0,1.91,9.18,7.43,0.09,-0.04,-0.26,f
3043.0,3184.0,3021.0,3664.0,3146.0,4095.0,4095.0,4095.0,1.61,9.09,7.38,0.02,0.05,-0.27,f
3031.0,3120.0,2993.0,3668.0,3168.0,4095.0,4095.0,4095.0,1.6,9.09,7.46,-0.16,0.11,-0.22,f
3031.0,3083.0,2978.0,3675.0,3173.0,4095.0,4095.0,4095.0,1.53,9.07,7.7,-0.07,0.02,-0.22,f
3044.0,3041.0,2960.0,3679.0,3189.0,4095.0,4095.0,4095.0,1.49,9.1,7.91,-0.02,-0.18,-0.3,f
3028.0,2919.0,2922.0,3685.0,3200.0,4095.0,4095.0,4095.0,1.04,9.23,7.97,-0.01,-0.01,-0.06,f
3027.0,2843.0,2921.0,3696.0,3211.0,4095.0,4095.0,4095.0,1.47,8.98,8.16,0.04,0.02,-0.16,f
3037.0,2803.0,2910.0,3698.0,3211.0,4095.0,4095.0,4095.0,1.52,9.39,7.78,0.09,-0.14,-0.23,f
3039.0,2787.0,2894.0,3691.0,3190.0,4095.0,4095.0,4095.0,1.53,9.25,7.47,-0.08,0.07,-0.1,f
3041.0,2786.0,2893.0,3703.0,3187.0,4095.0,4095.0,4095.0,1.39,9.1,7.69,-0.1,0.07,-0.12,f
3031.0,2785.0,2883.0,3715.0,3184.0,4095.0,4095.0,4095.0,1.59,8.95,7.98,-0.06,-0.14,-0.12,f
3042.0,2779.0,2896.0,3706.0,3184.0,4095.0,4095.0,4095.0,1.64,9.15,8.18,-0.02,-0.06,-0.08,f
3029.0,2766.0,2895.0,3685.0,3161.0,4095.0,4095.0,4095.0,1.82,9.1,7.83,0.08,-0.1,-0.13,f
3037.0,2935.0,2891.0,3695.0,3175.0,4095.0,4095.0,4095.0,1.6,9.25,7.83,-0.01,-0.18,-0.11,f
3042.0,3165.0,2882.0,3689.0,3181.0,4095.0,4095.0,4095.0,2.22,9.01,7.79,-0.09,0.04,-0.02,f
3027.0,3287.0,2885.0,3687.0,3183.0,4095.0,4095.0,4095.0,1.98,8.83,8.13,-0.04,-0.01,-0.1,f
3026.0,3227.0,2883.0,3696.0,3175.0,4095.0,4095.0,4095.0,1.8,8.87,8.2,0.05,-0.08,-0.1,f
3025.0,3155.0,2899.0,3701.0,3179.0,4095.0,4095.0,4095.0,1.96,9.04,7.86,0.05,-0.1,-0.09,f
3034.0,2950.0,2911.0,3697.0,3181.0,4095.0,4095.0,4095.0,2.2,9.23,7.69,0.05,-0.24,-0.07,f
3026.0,2849.0,2910.0,3699.0,3179.0,4095.0,4095.0,4095.0,2.35,9.15,7.91,0.02,-0.22,-0.05,f
3021.0,2818.0,2908.0,3712.0,3185.0,4095.0,4095.0,4095.0,2.68,9.15,7.8,0.12,-0.41,-0.2,f
3040.0,2827.0,2901.0,3721.0,3184.0,4095.0,4095.0,4095.0,2.77,9.2,7.51,0.1,-0.33,-0.24,f
3024.0,2838.0,2898.0,3715.0,3166.0,4095.0,4095.0,4095.0,2.32,9.39,7.25,0.05,-0.02,-0.25,f
3039.0,2871.0,2911.0,3715.0,3167.0,4095.0,4095.0,4095.0,2.1,9.32,7.17,-0.0,0.08,-0.22,f
3030.0,2941.0,2911.0,3702.0,3149.0,4095.0,4095.0,4095.0,2.06,9.24,7.4,-0.03,0.05,-0.22,f
3034.0,2977.0,2896.0,3699.0,3145.0,4095.0,4095.0,4095.0,2.25,9.19,7.45,-0.03,0.06,-0.21,f
3034.0,3036.0,2906.0,3706.0,3141.0,4095.0,4095.0,4095.0,2.28,9.13,7.37,0.02,0.04,-0.2,f
