hall_1,hall_2,hall_3,flex_t,flex_i,flex_m,flex_r,flex_p,accel_x,accel_y,accel_z,gyro_x,gyro_y,gyro_z,hand,sign
2913.0,2675.0,2923.0,3216.0,3849.0,4095.0,4095.0,4095.0,0.32,9.71,3.06,-0.07,-0.12,-0.06,1.0,f
2919.0,2725.0,2912.0,3225.0,3856.0,4095.0,4095.0,4095.0,0.14,9.86,3.01,-0.06,0.05,-0.18,1.0,f
2928.0,2736.0,2926.0,3221.0,3862.0,4095.0,4095.0,4095.0,0.42,9.64,3.42,-0.03,-0.06,-0.01,1.0,f
2923.0,2752.0,2915.0,3229.0,3885.0,4095.0,4095.0,4095.0,0.23,9.65,3.02,-0.08,-0.06,-0.03,1.0,f
2933.0,2762.0,2926.0,3222.0,3883.0,4095.0,4095.0,4095.0,0.13,9.58,3.32,-0.06,-0.01,-0.05,1.0,f
2921.0,2736.0,2930.0,3232.0,3874.0,4095.0,4095.0,4095.0,-0.02,9.49,3.29,-0.12,0.05,0.0,1.0,f
2920.0,2733.0,2927.0,3233.0,3875.0,4095.0,4095.0,4095.0,0.24,9.52,3.49,-0.02,0.02,-0.07,1.0,f
2921.0,2727.0,2928.0,3225.0,3878.0,4095.0,4095.0,4095.0,0.12,9.57,3.19,-0.01,-0.01,-0.04,1.0,f
2924.0,2722.0,2915.0,3227.0,3902.0,4095.0,4095.0,4095.0,0.17,9.64,3.13,-0.07,-0.0,-0.02,1.0,f
2919.0,2736.0,2926.0,3223.0,3903.0,4095.0,4095.0,4095.0,0.08,9.62,3.25,-0.09,-0.0,-0.02,1.0,f
2928.0,2736.0,2922.0,3239.0,3878.0,4095.0,4095.0,4095.0,0.16,9.54,3.38,-0.08,-0.01,-0.01,1.0,f
2925.0,2731.0,2929.0,3248.0,3909.0,4095.0,4095.0,4095.0,0.27,9.61,3.34,-0.05,-0.0,-0.03,1.0,f
2923.0,2720.0,2927.0,3250.0,3873.0,4095.0,4095.0,4095.0,0.18,9.65,3.22,-0.05,0.01,-0.08,1.0,f
2924.0,2730.0,2926.0,3264.0,3887.0,4095.0,4095.0,4095.0,0.15,9.57,3.31,-0.08,0.07,-0.03,1.0,f
2923.0,2713.0,2912.0,3263.0,3875.0,4095.0,4095.0,4095.0,0.2,9.59,3.42,-0.05,0.01,-0.02,1.0,f
2918.0,2691.0,2913.0,3275.0,3850.0,4095.0,4095.0,4095.0,0.21,9.59,3.26,-0.04,-0.01,-0.06,1.0,f
2928.0,2655.0,2907.0,3408.0,3756.0,4095.0,4095.0,4095.0,0.37,9.46,2.87,-0.24,0.19,-0.14,1.0,f
2877.0,2790.0,2892.0,3635.0,4095.0,4095.0,4095.0,4095.0,0.93,9.71,5.0,0.14,-1.0,-0.69,1.0,f
2890.0,2752.0,2911.0,3696.0,4095.0,4095.0,4095.0,4095.0,0.24,9.14,4.06,-0.05,-0.34,-0.16,1.0,f
2908.0,2751.0,2929.0,3649.0,4053.0,4095.0,4095.0,4095.0,-0.48,9.66,2.5,1.27,0.04,-0.34,1.0,f
2928.0,2879.0,2945.0,3397.0,3904.0,4095.0,4095.0,4095.0,-0.02,9.71,2.51,-0.05,0.04,-0.02,1.0,f
2925.0,2864.0,2928.0,3408.0,3877.0,4095.0,4095.0,4095.0,0.07,9.81,2.52,-0.02,0.01,-0.03,1.0,f
2925.0,2870.0,2926.0,3392.0,3871.0,4095.0,4095.0,4095.0,-0.01,9.85,2.35,-0.08,-0.03,-0.03,1.0,f
2917.0,2865.0,2933.0,3393.0,3847.0,4095.0,4095.0,4095.0,0.03,9.83,2.56,-0.03,-0.01,-0.03,1.0,f
2922.0,2863.0,2930.0,3407.0,3871.0,4095.0,4095.0,4095.0,0.04,9.81,2.5,-0.06,-0.01,-0.03,1.0,f
2927.0,2862.0,2923.0,3405.0,3897.0,4095.0,4095.0,4095.0,0.09,9.84,2.44,-0.05,-0.0,-0.04,1.0,f
2916.0,2863.0,2935.0,3408.0,3914.0,4095.0,4095.0,4095.0,0.04,9.81,2.56,-0.06,-0.01,-0.02,1.0,f
2916.0,2861.0,2918.0,3380.0,3901.0,4095.0,4095.0,4095.0,0.13,9.85,2.44,-0.08,0.0,-0.03,1.0,f
2911.0,2800.0,2927.0,3378.0,3920.0,4095.0,4095.0,4095.0,0.12,9.81,2.52,-0.05,-0.01,-0.04,1.0,f
2911.0,2859.0,2919.0,3378.0,3933.0,4095.0,4095.0,4095.0,0.09,9.82,2.51,-0.05,-0.03,-0.03,1.0,f
2915.0,2862.0,2930.0,3379.0,3926.0,4095.0,4095.0,4095.0,0.08,9.79,2.51,-0.08,-0.02,-0.04,1.0,f
2928.0,2843.0,2928.0,3385.0,3917.0,4095.0,4095.0,4095.0,0.07,9.8,2.58,-0.05,-0.03,-0.05,1.0,f
2911.0,2848.0,2935.0,3393.0,3935.0,4095.0,4095.0,4095.0,0.07,9.79,2.52,-0.06,-0.03,-0.05,1.0,f
2922.0,2832.0,2929.0,3406.0,3923.0,4095.0,4095.0,4095.0,0.1,9.78,2.55,-0.08,0.04,-0.02,1.0,f
2918.0,2833.0,2938.0,3393.0,3915.0,4095.0,4095.0,4095.0,0.04,9.74,2.7,-0.08,0.01,-0.04,1.0,f
2913.0,2832.0,2926.0,3402.0,3938.0,4095.0,4095.0,4095.0,0.11,9.76,2.72,-0.05,-0.01,-0.05,1.0,f
2928.0,2832.0,2935.0,3394.0,3904.0,4095.0,4095.0,4095.0,0.06,9.78,2.55,-0.05,0.03,-0.03,1.0,f
2918.0,2815.0,2942.0,3391.0,3891.0,4095.0,4095.0,4095.0,0.15,9.77,2.55,-0.07,-0.01,-0.04,1.0,f
2926.0,2832.0,2922.0,3394.0,3893.0,4095.0,4095.0,4095.0,0.13,9.76,2.71,-0.05,0.0,-0.05,1.0,f
2931.0,2816.0,2925.0,3408.0,3903.0,4095.0,4095.0,4095.0,0.07,9.83,2.56,-0.05,-0.01,-0.03,1.0,f
2927.0,2730.0,2918.0,2851.0,3479.0,4095.0,4095.0,4095.0,0.24,9.71,2.86,-0.05,0.0,-0.04,1.0,f
2913.0,2723.0,2913.0,2857.0,3490.0,4095.0,4095.0,4095.0,0.4,9.77,2.84,-0.03,0.01,-0.05,1.0,f
2924.0,2735.0,2923.0,2866.0,3483.0,4095.0,4095.0,4095.0,0.41,9.75,2.78,-0.04,0.01,-0.06,1.0,f
2914.0,2711.0,2914.0,2866.0,3527.0,4095.0,4095.0,4095.0,0.34,9.73,2.83,-0.06,-0.04,-0.04,1.0,f
2912.0,2715.0,2924.0,2869.0,3520.0,4095.0,4095.0,4095.0,0.26,9.71,2.89,-0.05,-0.03,-0.04,1.0,f
2923.0,2722.0,2919.0,2878.0,3521.0,4095.0,4095.0,4095.0,0.34,9.73,2.79,-0.02,-0.0,-0.03,1.0,f
2914.0,2716.0,2919.0,2883.0,3515.0,4095.0,4095.0,4095.0,0.41,9.83,2.83,-0.06,-0.02,-0.03,1.0,f
2914.0,2723.0,2917.0,2877.0,3530.0,4095.0,4095.0,4095.0,0.29,9.71,2.79,-0.05,0.01,-0.02,1.0,f
2907.0,2718.0,2925.0,2875.0,3536.0,4095.0,4095.0,4095.0,0.35,9.76,2.83,-0.06,0.01,-0.02,1.0,f
2917.0,2722.0,2911.0,2885.0,3542.0,4095.0,4095.0,4095.0,0.35,9.71,2.76,-0.09,0.01,-0.02,1.0,f
2928.0,2706.0,2911.0,2885.0,3536.0,4095.0,4095.0,4095.0,0.32,9.71,2.76,-0.1,0.08,-0.03,1.0,f
2911.0,2730.0,2913.0,2894.0,3536.0,4095.0,4095.0,4095.0,0.39,9.71,2.93,-0.06,0.04,-0.03,1.0,f
2927.0,2707.0,2917.0,2896.0,3546.0,4095.0,4095.0,4095.0,0.25,9.69,2.81,-0.08,0.04,-0.01,1.0,f
2922.0,2714.0,2909.0,2895.0,3557.0,4095.0,4095.0,4095.0,0.31,9.75,2.76,-0.08,0.04,-0.02,1.0,f
2901.0,2717.0,2922.0,2902.0,3550.0,4095.0,4095.0,4095.0,0.34,9.71,2.83,-0.06,0.03,-0.01,1.0,f
2927.0,2715.0,2914.0,2889.0,3549.0,4095.0,4095.0,4095.0,0.45,9.74,2.77,-0.07,0.0,-0.02,1.0,f
2915.0,2707.0,2911.0,2896.0,3561.0,4095.0,4095.0,4095.0,0.4,9.67,2.86,-0.06,0.0,-0.04,1.0,f
2928.0,2717.0,2941.0,2895.0,3568.0,4095.0,4095.0,4095.0,0.37,9.7,2.82,-0.05,0.01,-0.03,1.0,f
2927.0,2715.0,2903.0,2901.0,3569.0,4095.0,4095.0,4095.0,0.38,9.77,2.74,-0.06,-0.01,-0.05,1.0,f
2903.0,2706.0,2911.0,2901.0,3559.0,4095.0,4095.0,4095.0,0.37,9.76,2.88,-0.07,-0.02,-0.04,1.0,f
2928.0,2703.0,2896.0,2898.0,3551.0,4095.0,4095.0,4095.0,0.4,9.75,2.79,-0.05,0.0,-0.03,1.0,f
2906.0,2715.0,2919.0,2901.0,3549.0,4095.0,4095.0,4095.0,0.34,9.71,2.81,-0.07,0.0,-0.03,1.0,f
2914.0,2718.0,2896.0,2898.0,3563.0,4095.0,4095.0,4095.0,0.35,9.74,2.77,-0.07,0.01,-0.03,1.0,f
2928.0,2706.0,2910.0,2899.0,3555.0,4095.0,4095.0,4095.0,0.44,9.75,2.82,-0.05,0.01,-0.05,1.0,f
2917.0,2699.0,2906.0,2906.0,3536.0,4095.0,4095.0,4095.0,0.37,9.75,2.86,-0.03,-0.01,-0.05,1.0,f
2910.0,2719.0,2913.0,2910.0,3553.0,4095.0,4095.0,4095.0,0.4,9.75,2.8,-0.04,-0.02,-0.04,1.0,f
2917.0,2703.0,2918.0,2910.0,3566.0,4095.0,4095.0,4095.0,0.37,9.72,2.89,-0.06,-0.01,-0.04,1.0,f
2907.0,2718.0,2913.0,2915.0,3559.0,4095.0,4095.0,4095.0,0.36,9.74,2.79,-0.07,-0.03,-0.04,1.0,f
2917.0,2710.0,2906.0,2918.0,3543.0,4095.0,4095.0,4095.0,0.3,9.73,2.78,-0.06,-0.04,-0.04,1.0,f
2933.0,2719.0,2919.0,2914.0,3563.0,4095.0,4095.0,4095.0,0.32,9.73,2.82,-0.08,0.01,-0.03,1.0,f
2926.0,2704.0,2907.0,2915.0,3569.0,4095.0,4095.0,4095.0,0.41,9.74,2.84,-0.04,-0.01,-0.04,1.0,f
2921.0,2710.0,2906.0,2916.0,3575.0,4095.0,4095.0,4095.0,0.31,9.7,2.83,-0.06,-0.03,-0.04,1.0,f
2922.0,2705.0,2911.0,2923.0,3566.0,4095.0,4095.0,4095.0,0.35,9.71,2.81,-0.06,0.0,-0.04,1.0,f
2911.0,2702.0,2907.0,2907.0,3578.0,4095.0,4095.0,4095.0,0.43,9.72,2.95,0.01,0.06,-0.06,1.0,f
2928.0,2731.0,2897.0,2910.0,3570.0,4095.0,4095.0,4095.0,0.18,9.7,2.72,-0.06,-0.01,-0.04,1.0,f
2930.0,2719.0,2919.0,2916.0,3583.0,4095.0,4095.0,4095.0,0.31,9.69,2.77,-0.05,-0.02,-0.04,1.0,f
2917.0,2763.0,2910.0,2928.0,3583.0,4095.0,4095.0,4095.0,0.44,9.74,2.84,-0.07,-0.0,-0.03,1.0,f
2903.0,2714.0,2910.0,2929.0,3580.0,4095.0,4095.0,4095.0,0.34,9.75,2.83,-0.07,-0.0,-0.03,1.0,f
2921.0,2721.0,2909.0,2929.0,3582.0,4095.0,4095.0,4095.0,0.41,9.72,2.86,-0.06,0.01,-0.02,1.0,f
2917.0,2733.0,2907.0,2930.0,3579.0,4095.0,4095.0,4095.0,0.34,9.71,2.8,-0.05,0.06,-0.04,1.0,f
2919.0,2747.0,2895.0,2931.0,3605.0,4095.0,4095.0,4095.0,0.35,9.72,2.93,-0.04,-0.0,-0.05,1.0,f
2905.0,2741.0,2909.0,2933.0,3598.0,4095.0,4095.0,4095.0,0.3,9.71,2.85,-0.08,0.0,-0.03,1.0,f
2917.0,2738.0,2903.0,2923.0,3605.0,4095.0,4095.0,4095.0,0.32,9.71,2.83,-0.07,0.0,-0.03,1.0,f
2928.0,2738.0,2894.0,2937.0,3583.0,4095.0,4095.0,4095.0,0.33,9.69,2.83,-0.1,0.03,-0.01,1.0,f
2918.0,2722.0,2899.0,2935.0,3615.0,4095.0,4095.0,4095.0,0.32,9.7,2.87,-0.08,0.03,-0.02,1.0,f
2911.0,2729.0,2903.0,2929.0,3600.0,4095.0,4095.0,4095.0,0.36,9.74,2.77,-0.06,0.0,-0.04,1.0,f
2905.0,2736.0,2898.0,2935.0,3606.0,4095.0,4095.0,4095.0,0.31,9.71,2.91,-0.05,-0.01,-0.04,1.0,f
2915.0,2736.0,2914.0,2930.0,3629.0,4095.0,4095.0,4095.0,0.42,9.68,2.83,-0.04,-0.02,-0.04,1.0,f
2914.0,2736.0,2914.0,2933.0,3600.0,4095.0,4095.0,4095.0,0.22,9.66,2.97,-0.05,-0.01,-0.06,1.0,f
2918.0,2735.0,2895.0,2940.0,3619.0,4095.0,4095.0,4095.0,0.25,9.7,2.91,-0.04,-0.01,-0.03,1.0,f
2928.0,2736.0,2907.0,2944.0,3619.0,4095.0,4095.0,4095.0,0.37,9.78,2.68,-0.03,0.01,-0.03,1.0,f
2926.0,2747.0,2896.0,2943.0,3611.0,4095.0,4095.0,4095.0,0.39,9.71,2.88,-0.09,0.0,-0.03,1.0,f
2915.0,2739.0,2906.0,2951.0,3611.0,4095.0,4095.0,4095.0,0.31,9.69,2.94,-0.06,-0.02,-0.05,1.0,f
2920.0,2725.0,2915.0,2929.0,3607.0,4095.0,4095.0,4095.0,0.29,9.66,2.94,-0.04,0.02,-0.01,1.0,f
2909.0,2723.0,2896.0,2944.0,3630.0,4095.0,4095.0,4095.0,0.61,9.78,2.65,-0.04,0.01,-0.03,1.0,f
2920.0,2734.0,2905.0,2942.0,3631.0,4095.0,4095.0,4095.0,0.25,9.7,2.88,-0.11,0.02,-0.06,1.0,f
2922.0,2723.0,2896.0,2958.0,3661.0,4095.0,4095.0,4095.0,0.24,9.68,3.0,-0.04,0.04,0.0,1.0,f
2918.0,2719.0,2911.0,2960.0,3654.0,4095.0,4095.0,4095.0,0.59,9.74,2.81,-0.06,0.02,-0.01,1.0,f
2918.0,2721.0,2899.0,2971.0,3657.0,4095.0,4095.0,4095.0,0.39,9.67,2.93,-0.07,0.01,-0.03,1.0,f
2912.0,2716.0,2899.0,2970.0,3666.0,4095.0,4095.0,4095.0,0.35,9.7,2.87,-0.08,0.0,-0.03,1.0,f
2925.0,2690.0,2917.0,2989.0,3552.0,4095.0,4095.0,4095.0,0.16,9.56,3.56,-0.06,0.02,-0.02,1.0,f
2919.0,2700.0,2917.0,2979.0,3497.0,4095.0,4095.0,4095.0,0.09,9.52,3.46,-0.01,-0.01,-0.05,1.0,f
2918.0,2713.0,2921.0,2996.0,3518.0,4095.0,4095.0,4095.0,0.01,9.52,3.4,-0.08,0.01,-0.02,1.0,f
2917.0,2699.0,2903.0,3011.0,3520.0,4095.0,4095.0,4095.0,0.24,9.49,3.63,-0.04,-0.07,-0.03,1.0,f
2933.0,2706.0,2914.0,3010.0,3539.0,4095.0,4095.0,4095.0,0.18,9.56,3.38,-0.07,0.01,-0.02,1.0,f
2909.0,2709.0,2920.0,3021.0,3562.0,4095.0,4095.0,4095.0,0.01,9.49,3.52,-0.08,0.0,-0.03,1.0,f
2918.0,2699.0,2913.0,3024.0,3566.0,4095.0,4095.0,4095.0,0.24,9.49,3.51,-0.04,-0.01,-0.03,1.0,f
2918.0,2694.0,2913.0,3034.0,3567.0,4095.0,4095.0,4095.0,0.24,9.58,3.5,-0.05,-0.03,-0.02,1.0,f
2923.0,2704.0,2913.0,3043.0,3567.0,4095.0,4095.0,4095.0,0.19,9.54,3.5,-0.07,-0.07,-0.04,1.0,f
2927.0,2707.0,2907.0,3037.0,3583.0,4095.0,4095.0,4095.0,0.14,9.51,3.48,-0.02,-0.02,-0.02,1.0,f
2928.0,2721.0,2897.0,3056.0,3566.0,4095.0,4095.0,4095.0,0.12,9.6,3.35,-0.06,-0.08,-0.01,1.0,f
2919.0,2731.0,2918.0,3066.0,3536.0,4095.0,4095.0,4095.0,0.33,9.6,3.3,-0.08,0.02,-0.03,1.0,f
2928.0,2722.0,2915.0,3068.0,3549.0,4095.0,4095.0,4095.0,0.25,9.54,3.5,-0.04,-0.05,-0.03,1.0,f
2921.0,2740.0,2914.0,3071.0,3531.0,4095.0,4095.0,4095.0,0.17,9.53,3.48,-0.07,-0.06,-0.05,1.0,f
2903.0,2724.0,2905.0,3088.0,3538.0,4095.0,4095.0,4095.0,0.18,9.55,3.44,-0.08,-0.03,-0.04,1.0,f
2917.0,2706.0,2897.0,3086.0,3536.0,4095.0,4095.0,4095.0,0.24,9.49,3.46,-0.03,-0.02,-0.06,1.0,f
2928.0,2726.0,2909.0,3067.0,3559.0,4095.0,4095.0,4095.0,0.31,9.55,3.47,-0.06,-0.05,-0.02,1.0,f
2917.0,2724.0,2908.0,3071.0,3525.0,4095.0,4095.0,4095.0,0.24,9.6,3.32,-0.02,0.01,-0.05,1.0,f
2909.0,2726.0,2896.0,3088.0,3543.0,4095.0,4095.0,4095.0,0.23,9.49,3.44,-0.1,-0.03,-0.05,1.0,f
2918.0,2736.0,2901.0,3082.0,3583.0,4095.0,4095.0,4095.0,0.21,9.51,3.45,-0.04,-0.03,-0.04,1.0,f
2918.0,2732.0,2896.0,3094.0,3600.0,4095.0,4095.0,4095.0,0.2,9.52,3.24,-0.04,-0.05,-0.08,1.0,f
2923.0,2722.0,2900.0,3089.0,3606.0,4095.0,4095.0,4095.0,0.1,9.5,3.44,-0.15,0.13,-0.03,1.0,f
2919.0,2736.0,2910.0,3098.0,3639.0,4095.0,4095.0,4095.0,0.11,9.59,3.18,-0.06,-0.12,-0.04,1.0,f
2915.0,2736.0,2914.0,3095.0,3632.0,4095.0,4095.0,4095.0,0.18,9.56,3.5,-0.09,-0.07,-0.05,1.0,f
2919.0,2725.0,2905.0,3094.0,3635.0,4095.0,4095.0,4095.0,0.23,9.57,3.29,-0.05,-0.01,0.0,1.0,f
2911.0,2736.0,2901.0,3093.0,3643.0,4095.0,4095.0,4095.0,0.52,9.59,3.46,-0.02,-0.2,-0.05,1.0,f
2912.0,2720.0,2897.0,3095.0,3639.0,4095.0,4095.0,4095.0,0.34,9.59,3.26,0.01,-0.09,-0.04,1.0,f
2925.0,2715.0,2896.0,3102.0,3610.0,4095.0,4095.0,4095.0,0.37,9.63,3.16,-0.05,-0.02,-0.05,1.0,f
2925.0,2719.0,2909.0,3111.0,3617.0,4095.0,4095.0,4095.0,0.2,9.59,3.22,-0.08,0.0,-0.01,1.0,f
2929.0,2733.0,2907.0,3088.0,3630.0,4095.0,4095.0,4095.0,0.26,9.62,3.24,-0.09,0.02,-0.03,1.0,f
2915.0,2729.0,2894.0,3092.0,3631.0,4095.0,4095.0,4095.0,0.39,9.58,3.41,-0.06,-0.04,-0.02,1.0,f
2915.0,2757.0,2896.0,3094.0,3632.0,4095.0,4095.0,4095.0,0.41,9.58,3.28,-0.02,-0.05,-0.07,1.0,f
2918.0,2722.0,2906.0,3104.0,3632.0,4095.0,4095.0,4095.0,0.33,9.57,3.29,-0.07,-0.01,-0.05,1.0,f
2917.0,2710.0,2903.0,3104.0,3630.0,4095.0,4095.0,4095.0,0.14,9.58,3.29,-0.06,0.01,-0.04,1.0,f
2928.0,2722.0,2896.0,3106.0,3615.0,4095.0,4095.0,4095.0,0.48,9.66,3.2,-0.06,-0.02,-0.03,1.0,f
2928.0,2717.0,2887.0,3110.0,3623.0,4095.0,4095.0,4095.0,0.4,9.51,3.55,-0.1,-0.03,-0.03,1.0,f
2925.0,2714.0,2894.0,3089.0,3620.0,4095.0,4095.0,4095.0,0.39,9.56,3.44,-0.02,0.04,-0.04,1.0,f
2917.0,2720.0,2895.0,3094.0,3527.0,4095.0,4095.0,4095.0,0.26,9.58,3.24,-0.03,-0.03,-0.04,1.0,f
2923.0,2704.0,2883.0,3091.0,3517.0,4095.0,4095.0,4095.0,0.48,9.62,3.39,-0.04,-0.01,-0.04,1.0,f
2928.0,2713.0,2901.0,3095.0,3510.0,4095.0,4095.0,4095.0,0.32,9.59,3.31,-0.05,-0.03,-0.05,1.0,f
2919.0,2837.0,2902.0,3462.0,3950.0,4095.0,4095.0,4095.0,0.09,9.7,2.97,-0.08,0.02,-0.0,1.0,f
2918.0,2819.0,2896.0,3456.0,3978.0,4095.0,4095.0,4095.0,0.41,9.84,2.56,-0.05,0.04,-0.01,1.0,f
2910.0,2834.0,2896.0,3443.0,3978.0,4095.0,4095.0,4095.0,0.1,9.55,3.28,-0.11,-0.01,-0.06,1.0,f
2926.0,2821.0,2907.0,3447.0,3991.0,4095.0,4095.0,4095.0,0.21,9.74,2.72,-0.05,-0.06,-0.03,1.0,f
2927.0,2826.0,2899.0,3449.0,3954.0,4095.0,4095.0,4095.0,0.05,9.66,3.08,-0.06,-0.03,-0.05,1.0,f
2907.0,2832.0,2899.0,3423.0,3939.0,4095.0,4095.0,4095.0,0.33,9.71,2.92,-0.02,-0.03,-0.01,1.0,f
2926.0,2817.0,2912.0,3410.0,3983.0,4095.0,4095.0,4095.0,0.28,9.7,2.96,-0.05,-0.04,-0.07,1.0,f
2920.0,2825.0,2899.0,3417.0,3974.0,4095.0,4095.0,4095.0,0.06,9.69,2.85,-0.06,-0.03,-0.04,1.0,f
2919.0,2832.0,2907.0,3425.0,3977.0,4095.0,4095.0,4095.0,0.23,9.72,2.92,-0.06,0.0,-0.04,1.0,f
2931.0,2816.0,2897.0,3374.0,3940.0,4095.0,4095.0,4095.0,0.07,9.7,2.9,-0.09,-0.02,-0.03,1.0,f
2926.0,2831.0,2897.0,3379.0,3937.0,4095.0,4095.0,4095.0,0.22,9.71,2.88,-0.05,0.05,-0.02,1.0,f
2928.0,2813.0,2900.0,3388.0,3936.0,4095.0,4095.0,4095.0,0.19,9.71,2.88,-0.07,0.02,-0.04,1.0,f
2926.0,2826.0,2896.0,3383.0,3941.0,4095.0,4095.0,4095.0,0.13,9.7,2.92,-0.06,-0.0,-0.05,1.0,f
2921.0,2809.0,2891.0,3391.0,3966.0,4095.0,4095.0,4095.0,0.2,9.72,2.95,-0.08,0.0,-0.03,1.0,f
2922.0,2813.0,2905.0,3404.0,3967.0,4095.0,4095.0,4095.0,0.22,9.72,2.92,-0.07,-0.01,-0.03,1.0,f
2925.0,2803.0,2896.0,3396.0,3955.0,4095.0,4095.0,4095.0,0.12,9.67,3.05,-0.05,0.02,-0.03,1.0,f
2922.0,2817.0,2893.0,3395.0,3962.0,4095.0,4095.0,4095.0,0.44,9.82,2.77,-0.06,-0.03,-0.03,1.0,f
2928.0,2801.0,2901.0,3392.0,3936.0,4095.0,4095.0,4095.0,0.11,9.68,3.02,-0.08,0.0,-0.04,1.0,f
2925.0,2809.0,2901.0,3387.0,3947.0,4095.0,4095.0,4095.0,0.23,9.68,3.03,-0.04,0.01,-0.03,1.0,f
2913.0,2826.0,2896.0,3390.0,3967.0,4095.0,4095.0,4095.0,0.2,9.72,2.85,-0.08,0.03,-0.02,1.0,f
2912.0,2809.0,2890.0,3397.0,3946.0,4095.0,4095.0,4095.0,0.23,9.67,3.01,-0.07,-0.01,-0.03,1.0,f
2916.0,2803.0,2886.0,3397.0,3959.0,4095.0,4095.0,4095.0,0.22,9.69,2.99,-0.12,0.0,-0.01,1.0,f
2935.0,2820.0,2898.0,3392.0,3952.0,4095.0,4095.0,4095.0,0.29,9.67,3.15,-0.09,0.02,-0.01,1.0,f
2925.0,2806.0,2885.0,3392.0,3954.0,4095.0,4095.0,4095.0,0.34,9.73,3.01,-0.09,0.01,-0.02,1.0,f
2922.0,2806.0,2895.0,3392.0,3962.0,4095.0,4095.0,4095.0,0.35,9.66,3.16,-0.06,-0.01,-0.04,1.0,f
2928.0,2817.0,2899.0,3397.0,3945.0,4095.0,4095.0,4095.0,0.36,9.65,3.14,-0.03,-0.0,-0.07,1.0,f
2921.0,2815.0,2903.0,3415.0,3919.0,4095.0,4095.0,4095.0,0.26,9.67,3.02,-0.02,-0.03,-0.1,1.0,f
2930.0,2807.0,2898.0,3408.0,3932.0,4095.0,4095.0,4095.0,-0.25,9.64,2.89,-0.02,-0.02,-0.11,1.0,f
2917.0,2815.0,2896.0,3411.0,3923.0,4095.0,4095.0,4095.0,0.02,9.73,2.65,-0.03,0.0,-0.01,1.0,f
2921.0,2805.0,2902.0,3408.0,3913.0,4095.0,4095.0,4095.0,0.33,9.68,2.99,-0.07,0.0,-0.0,1.0,f
2930.0,2818.0,2887.0,3407.0,3910.0,4095.0,4095.0,4095.0,0.2,9.67,2.99,-0.11,0.03,-0.0,1.0,f
2913.0,2811.0,2899.0,3391.0,3898.0,4095.0,4095.0,4095.0,0.47,9.74,3.08,-0.05,-0.0,-0.02,1.0,f
2927.0,2819.0,2901.0,3399.0,3920.0,4095.0,4095.0,4095.0,0.15,9.7,2.81,-0.07,0.02,-0.05,1.0,f
2929.0,2802.0,2893.0,3398.0,3927.0,4095.0,4095.0,4095.0,0.07,9.64,3.05,-0.07,0.04,-0.06,1.0,f
2916.0,2805.0,2894.0,3391.0,3904.0,4095.0,4095.0,4095.0,0.36,9.7,2.95,-0.06,-0.01,-0.04,1.0,f
2926.0,2806.0,2886.0,3391.0,3921.0,4095.0,4095.0,4095.0,0.07,9.67,2.94,-0.09,-0.01,-0.05,1.0,f
2908.0,2811.0,2901.0,3397.0,3905.0,4095.0,4095.0,4095.0,0.15,9.67,3.03,-0.04,0.01,-0.04,1.0,f
2915.0,2801.0,2878.0,3386.0,3903.0,4095.0,4095.0,4095.0,0.2,9.68,2.8,-0.08,0.0,-0.02,1.0,f
2914.0,2806.0,2879.0,3392.0,3907.0,4095.0,4095.0,4095.0,0.12,9.69,2.91,-0.08,0.02,-0.03,1.0,f
2917.0,2803.0,2896.0,3382.0,3933.0,4095.0,4095.0,4095.0,0.26,9.71,3.0,-0.08,0.0,-0.02,1.0,f
2909.0,2823.0,2912.0,3348.0,3958.0,4095.0,4095.0,4095.0,-0.02,9.61,3.03,-0.03,-0.02,-0.05,1.0,f
2929.0,2806.0,2898.0,3344.0,3915.0,4095.0,4095.0,4095.0,0.1,9.74,2.92,-0.04,0.02,-0.04,1.0,f
2923.0,2806.0,2896.0,3344.0,3869.0,4095.0,4095.0,4095.0,0.24,9.7,3.06,-0.05,-0.0,-0.05,1.0,f
2926.0,2809.0,2907.0,3333.0,3888.0,4095.0,4095.0,4095.0,0.07,9.67,2.98,-0.07,-0.04,-0.03,1.0,f
2925.0,2806.0,2911.0,3344.0,3907.0,4095.0,4095.0,4095.0,0.15,9.71,2.92,-0.06,0.01,-0.03,1.0,f
2931.0,2800.0,2922.0,3341.0,3878.0,4095.0,4095.0,4095.0,0.11,9.67,3.04,-0.09,0.03,-0.02,1.0,f
2927.0,2802.0,2911.0,3350.0,3878.0,4095.0,4095.0,4095.0,0.07,9.7,2.97,-0.07,0.03,-0.03,1.0,f
2929.0,2801.0,2913.0,3358.0,3879.0,4095.0,4095.0,4095.0,0.12,9.7,2.97,-0.07,0.01,-0.03,1.0,f
2918.0,2800.0,2915.0,3350.0,3901.0,4095.0,4095.0,4095.0,0.03,9.67,3.01,-0.07,-0.01,-0.02,1.0,f
2927.0,2810.0,2923.0,3354.0,3913.0,4095.0,4095.0,4095.0,0.07,9.68,2.91,-0.08,0.05,-0.04,1.0,f
2918.0,2736.0,2909.0,3341.0,3931.0,4095.0,4095.0,4095.0,0.01,9.69,3.06,-0.08,-0.06,-0.1,1.0,f
2934.0,2800.0,2910.0,3339.0,3943.0,4095.0,4095.0,4095.0,0.02,9.64,3.12,-0.04,0.01,-0.02,1.0,f
2931.0,2804.0,2912.0,3330.0,3957.0,4095.0,4095.0,4095.0,0.1,9.67,2.98,-0.09,0.02,-0.03,1.0,f
2928.0,2795.0,2908.0,3349.0,3943.0,4095.0,4095.0,4095.0,0.0,9.67,3.04,-0.05,-0.02,-0.05,1.0,f
2914.0,2809.0,2902.0,3338.0,3986.0,4095.0,4095.0,4095.0,0.05,9.75,3.08,-0.08,0.02,0.01,1.0,f
2928.0,2800.0,2902.0,3342.0,3979.0,4095.0,4095.0,4095.0,0.17,9.61,3.2,-0.06,0.0,-0.02,1.0,f
2938.0,2794.0,2911.0,3344.0,3983.0,4095.0,4095.0,4095.0,0.11,9.65,3.1,-0.06,-0.01,-0.04,1.0,f
2923.0,2800.0,2896.0,3353.0,3978.0,4095.0,4095.0,4095.0,0.06,9.67,3.02,-0.03,-0.01,-0.04,1.0,f
2906.0,2786.0,2899.0,3362.0,3968.0,4095.0,4095.0,4095.0,0.14,9.61,3.18,-0.04,-0.02,-0.04,1.0,f
2918.0,2779.0,2877.0,3350.0,3963.0,4095.0,4095.0,4095.0,0.14,9.68,3.05,-0.04,-0.02,-0.04,1.0,f
2917.0,2790.0,2876.0,3351.0,3963.0,4095.0,4095.0,4095.0,-0.03,9.64,3.0,-0.05,0.01,-0.04,1.0,f
2913.0,2781.0,2879.0,3363.0,3989.0,4095.0,4095.0,4095.0,-0.01,9.61,3.07,-0.07,0.03,-0.01,1.0,f
2911.0,2784.0,2880.0,3347.0,3987.0,4095.0,4095.0,4095.0,0.07,9.65,3.04,-0.09,0.03,0.01,1.0,f
2928.0,2785.0,2843.0,3355.0,3991.0,4095.0,4095.0,4095.0,0.28,9.65,3.15,-0.05,-0.01,-0.02,1.0,f
2923.0,2785.0,2785.0,3358.0,3995.0,4095.0,4095.0,4095.0,0.2,9.67,3.07,-0.07,-0.03,-0.03,1.0,f
2928.0,2773.0,2717.0,3357.0,3975.0,4095.0,4095.0,4095.0,0.14,9.71,3.04,-0.02,0.0,-0.04,1.0,f
2922.0,2751.0,2737.0,3365.0,3991.0,4095.0,4095.0,4095.0,0.08,9.62,3.2,-0.08,-0.02,-0.02,1.0,f
2925.0,2767.0,2796.0,3347.0,4003.0,4095.0,4095.0,4095.0,0.25,9.64,3.07,-0.06,-0.0,-0.02,1.0,f
2921.0,2766.0,2791.0,3373.0,3984.0,4095.0,4095.0,4095.0,0.3,9.65,3.09,-0.05,-0.03,-0.04,1.0,f
2921.0,2749.0,2804.0,3369.0,4004.0,4095.0,4095.0,4095.0,0.25,9.62,3.14,-0.04,-0.05,-0.04,1.0,f
2919.0,2759.0,2793.0,3369.0,3983.0,4095.0,4095.0,4095.0,0.21,9.68,3.05,-0.05,0.02,-0.04,1.0,f
2929.0,2755.0,2780.0,3361.0,3983.0,4095.0,4095.0,4095.0,0.18,9.63,3.11,-0.06,0.08,0.01,1.0,f
2914.0,2749.0,2783.0,3361.0,3984.0,4095.0,4095.0,4095.0,0.25,9.68,2.95,-0.07,-0.03,-0.02,1.0,f
2913.0,2739.0,2802.0,3360.0,3969.0,4095.0,4095.0,4095.0,0.23,9.67,3.0,-0.07,-0.02,-0.04,1.0,f
2914.0,2729.0,2803.0,3349.0,3999.0,4095.0,4095.0,4095.0,0.13,9.63,3.09,-0.06,0.01,-0.02,1.0,f
2923.0,2715.0,2805.0,3356.0,4022.0,4095.0,4095.0,4095.0,0.32,9.66,3.1,-0.08,0.01,-0.01,1.0,f
2930.0,2736.0,2819.0,3366.0,4006.0,4095.0,4095.0,4095.0,0.29,9.62,3.11,-0.06,-0.01,-0.04,1.0,f
2923.0,2736.0,2804.0,3355.0,3985.0,4095.0,4095.0,4095.0,0.22,9.6,3.16,-0.07,-0.01,-0.02,1.0,f
2932.0,2714.0,2832.0,3361.0,4027.0,4095.0,4095.0,4095.0,0.41,9.67,3.11,-0.04,0.02,-0.04,1.0,f
2926.0,2704.0,2842.0,3370.0,3989.0,4095.0,4095.0,4095.0,0.22,9.62,3.12,-0.05,-0.01,-0.06,1.0,f
2917.0,2774.0,2934.0,3856.0,4035.0,4095.0,4095.0,4095.0,0.86,9.61,3.04,-0.08,1.23,0.09,1.0,f
2915.0,2783.0,2933.0,3811.0,4095.0,4095.0,4095.0,4095.0,1.55,10.09,2.38,0.04,0.56,0.0,1.0,f
2928.0,2813.0,2951.0,3783.0,4069.0,4095.0,4095.0,4095.0,0.6,9.77,2.65,0.11,0.24,0.12,1.0,f
2919.0,2829.0,2940.0,3730.0,4095.0,4095.0,4095.0,4095.0,0.72,9.65,2.95,-0.11,0.34,0.04,1.0,f
2921.0,2822.0,2941.0,3736.0,4067.0,4095.0,4095.0,4095.0,1.19,9.67,3.11,-0.02,0.01,-0.03,1.0,f
2928.0,2809.0,2939.0,3760.0,4080.0,4095.0,4095.0,4095.0,1.0,9.67,3.02,-0.0,0.05,-0.02,1.0,f
2928.0,2807.0,2930.0,3712.0,4080.0,4095.0,4095.0,4095.0,0.82,9.68,2.97,-0.07,0.07,0.01,1.0,f
2923.0,2803.0,2935.0,3717.0,4095.0,4095.0,4095.0,4095.0,1.03,9.68,3.09,-0.06,0.04,-0.01,1.0,f
2927.0,2811.0,2928.0,3692.0,4095.0,4095.0,4095.0,4095.0,1.04,9.64,3.1,-0.06,0.04,-0.04,1.0,f
2907.0,2805.0,2941.0,3690.0,4095.0,4095.0,4095.0,4095.0,1.02,9.54,3.17,-0.04,0.0,-0.07,1.0,f
2929.0,2816.0,2924.0,3705.0,4095.0,4095.0,4095.0,4095.0,0.93,9.67,2.89,-0.05,0.08,-0.05,1.0,f
2922.0,2795.0,2922.0,3682.0,4095.0,4095.0,4095.0,4095.0,0.81,9.67,3.03,-0.04,-0.01,-0.05,1.0,f
2927.0,2803.0,2937.0,3712.0,4095.0,4095.0,4095.0,4095.0,0.95,9.65,3.03,-0.09,-0.03,-0.07,1.0,f
2907.0,2800.0,2930.0,3687.0,4095.0,4095.0,4095.0,4095.0,0.84,9.65,3.14,-0.11,-0.03,-0.08,1.0,f
2911.0,2800.0,2939.0,3682.0,4095.0,4095.0,4095.0,4095.0,0.83,9.63,3.15,-0.06,0.0,-0.06,1.0,f
2912.0,2799.0,2925.0,3711.0,4095.0,4095.0,4095.0,4095.0,0.82,9.63,3.21,-0.05,0.01,-0.04,1.0,f
2928.0,2789.0,2923.0,3697.0,4095.0,4095.0,4095.0,4095.0,0.78,9.66,3.08,-0.05,0.0,-0.06,1.0,f
2917.0,2795.0,2928.0,3682.0,4095.0,4095.0,4095.0,4095.0,0.79,9.66,3.12,-0.07,0.01,-0.04,1.0,f
2925.0,2800.0,2928.0,3712.0,4095.0,4095.0,4095.0,4095.0,0.83,9.63,3.13,-0.06,0.01,-0.04,1.0,f
2918.0,2807.0,2928.0,3695.0,4095.0,4095.0,4095.0,4095.0,0.74,9.64,3.08,-0.07,0.04,-0.03,1.0,f
2928.0,2800.0,2930.0,3697.0,4095.0,4095.0,4095.0,4095.0,0.74,9.67,3.12,-0.07,0.0,-0.04,1.0,f
2925.0,2798.0,2919.0,3694.0,4095.0,4095.0,4095.0,4095.0,0.71,9.64,3.13,-0.07,-0.0,-0.04,1.0,f
2914.0,2790.0,2935.0,3693.0,4095.0,4095.0,4095.0,4095.0,0.77,9.67,3.15,-0.04,0.01,-0.05,1.0,f
2913.0,2782.0,2928.0,3696.0,4095.0,4095.0,4095.0,4095.0,0.8,9.57,3.17,-0.05,-0.02,-0.05,1.0,f
2913.0,2784.0,2928.0,3703.0,4095.0,4095.0,4095.0,4095.0,0.76,9.61,3.11,-0.06,-0.03,-0.09,1.0,f
2923.0,2785.0,2928.0,3697.0,4080.0,4095.0,4095.0,4095.0,0.72,9.6,3.19,-0.05,0.01,-0.08,1.0,f
2922.0,2775.0,2926.0,3673.0,4095.0,4095.0,4095.0,4095.0,0.65,9.68,3.17,-0.06,0.0,-0.05,1.0,f
2921.0,2767.0,2921.0,3687.0,4095.0,4095.0,4095.0,4095.0,0.63,9.66,3.17,-0.07,0.03,-0.03,1.0,f
2913.0,2786.0,2929.0,3662.0,4095.0,4095.0,4095.0,4095.0,0.65,9.66,3.17,-0.07,0.03,-0.02,1.0,f
2916.0,2781.0,2931.0,3664.0,4095.0,4095.0,4095.0,4095.0,0.66,9.61,3.2,-0.07,0.01,-0.05,1.0,f
2908.0,2784.0,2927.0,3690.0,4077.0,4095.0,4095.0,4095.0,0.62,9.61,3.21,-0.08,-0.01,-0.05,1.0,f
2918.0,2768.0,2913.0,3697.0,4095.0,4095.0,4095.0,4095.0,0.64,9.62,3.21,-0.08,0.02,-0.03,1.0,f
2939.0,2768.0,2922.0,3711.0,4086.0,4095.0,4095.0,4095.0,0.64,9.62,3.17,-0.06,0.01,-0.04,1.0,f
2925.0,2768.0,2903.0,3690.0,4048.0,4095.0,4095.0,4095.0,0.73,9.68,3.11,-0.06,0.02,-0.05,1.0,f
2911.0,2768.0,2905.0,3693.0,4063.0,4095.0,4095.0,4095.0,0.62,9.62,3.32,-0.1,-0.02,-0.07,1.0,f
2938.0,2768.0,2903.0,3705.0,3984.0,4095.0,4095.0,4095.0,0.52,9.62,3.26,-0.05,0.02,-0.05,1.0,f
2921.0,2773.0,2914.0,3703.0,3968.0,4095.0,4095.0,4095.0,0.59,9.59,3.31,-0.03,-0.01,-0.03,1.0,f
2928.0,2769.0,2911.0,3691.0,4011.0,4095.0,4095.0,4095.0,0.62,9.62,3.16,-0.07,0.02,-0.03,1.0,f
2934.0,2777.0,2923.0,3679.0,3991.0,4095.0,4095.0,4095.0,0.58,9.58,3.26,-0.09,0.01,-0.04,1.0,f
2914.0,2779.0,2909.0,3693.0,3990.0,4095.0,4095.0,4095.0,0.5,9.58,3.24,-0.08,-0.01,-0.04,1.0,f
2912.0,2814.0,2931.0,3945.0,4095.0,4095.0,4095.0,4095.0,0.39,9.73,2.83,-0.16,0.35,0.0,1.0,f
2921.0,2816.0,2928.0,3955.0,4095.0,4095.0,4095.0,4095.0,0.28,9.9,2.37,-0.05,0.0,-0.04,1.0,f
2918.0,2807.0,2935.0,3947.0,4095.0,4095.0,4095.0,4095.0,-0.05,9.66,2.8,-0.09,0.01,-0.06,1.0,f
2925.0,2797.0,2929.0,3942.0,4094.0,4095.0,4095.0,4095.0,-0.05,9.65,2.72,-0.06,0.05,-0.03,1.0,f
2915.0,2797.0,2935.0,3968.0,4071.0,4095.0,4095.0,4095.0,0.13,9.71,2.75,-0.07,0.02,-0.03,1.0,f
2918.0,2782.0,2931.0,3952.0,4048.0,4095.0,4095.0,4095.0,0.16,9.66,2.81,-0.07,0.0,-0.04,1.0,f
2919.0,2796.0,2939.0,3967.0,4055.0,4095.0,4095.0,4095.0,0.15,9.74,2.79,-0.06,0.04,-0.01,1.0,f
2925.0,2786.0,2923.0,3959.0,4089.0,4095.0,4095.0,4095.0,0.11,9.72,2.72,-0.09,0.06,-0.01,1.0,f
2907.0,2790.0,2925.0,3949.0,4095.0,4095.0,4095.0,4095.0,0.12,9.71,2.82,-0.03,-0.01,-0.01,1.0,f
2924.0,2789.0,2931.0,3934.0,4095.0,4095.0,4095.0,4095.0,0.17,9.73,2.74,-0.08,0.04,0.0,1.0,f
2918.0,2779.0,2934.0,3969.0,4087.0,4095.0,4095.0,4095.0,0.28,9.75,2.77,-0.08,0.02,-0.01,1.0,f
2907.0,2783.0,2925.0,3952.0,4091.0,4095.0,4095.0,4095.0,0.23,9.73,2.7,-0.09,0.02,-0.02,1.0,f
2927.0,2785.0,2930.0,3962.0,4095.0,4095.0,4095.0,4095.0,0.25,9.74,2.88,-0.07,0.01,-0.03,1.0,f
2926.0,2780.0,2927.0,3935.0,4095.0,4095.0,4095.0,4095.0,0.3,9.8,2.66,-0.07,0.01,-0.02,1.0,f
2916.0,2784.0,2926.0,3947.0,4095.0,4095.0,4095.0,4095.0,0.23,9.7,2.88,-0.08,0.01,-0.03,1.0,f
2925.0,2791.0,2925.0,3930.0,4095.0,4095.0,4095.0,4095.0,0.31,9.7,2.89,-0.07,0.02,-0.04,1.0,f
2917.0,2781.0,2922.0,3965.0,4095.0,4095.0,4095.0,4095.0,0.26,9.76,2.78,-0.07,0.0,-0.04,1.0,f
2922.0,2782.0,2907.0,3942.0,4095.0,4095.0,4095.0,4095.0,0.27,9.73,2.86,-0.05,-0.01,-0.04,1.0,f
2923.0,2768.0,2931.0,3963.0,4095.0,4095.0,4095.0,4095.0,0.31,9.75,2.8,-0.04,-0.03,-0.04,1.0,f
2927.0,2768.0,2928.0,3943.0,4095.0,4095.0,4095.0,4095.0,0.19,9.68,2.85,-0.07,0.0,-0.03,1.0,f
2918.0,2758.0,2913.0,3967.0,4095.0,4095.0,4095.0,4095.0,0.27,9.74,2.83,-0.04,-0.03,-0.05,1.0,f
2922.0,2773.0,2922.0,3961.0,4095.0,4095.0,4095.0,4095.0,0.32,9.76,2.77,-0.04,0.03,-0.05,1.0,f
2940.0,2767.0,2928.0,3969.0,4095.0,4095.0,4095.0,4095.0,0.2,9.71,2.81,-0.09,0.02,-0.01,1.0,f
2922.0,2761.0,2919.0,3963.0,4095.0,4095.0,4095.0,4095.0,0.15,9.7,2.78,-0.07,0.04,-0.02,1.0,f
2913.0,2780.0,2921.0,3952.0,4095.0,4095.0,4095.0,4095.0,0.32,9.72,2.9,-0.06,-0.02,-0.05,1.0,f
2918.0,2768.0,2915.0,3961.0,4095.0,4095.0,4095.0,4095.0,0.28,9.69,2.89,-0.05,0.0,-0.03,1.0,f
2911.0,2768.0,2927.0,3965.0,4095.0,4095.0,4095.0,4095.0,0.32,9.77,2.79,-0.07,-0.01,-0.05,1.0,f
2925.0,2774.0,2912.0,3952.0,4095.0,4095.0,4095.0,4095.0,0.23,9.71,2.88,-0.05,0.0,-0.03,1.0,f
2919.0,2783.0,2925.0,3977.0,4095.0,4095.0,4095.0,4095.0,0.33,9.74,2.82,-0.07,0.02,-0.03,1.0,f
2935.0,2786.0,2909.0,3943.0,4095.0,4095.0,4095.0,4095.0,0.32,9.73,2.88,-0.05,0.03,-0.04,1.0,f
2921.0,2774.0,2910.0,3957.0,4091.0,4095.0,4095.0,4095.0,0.39,9.73,2.97,-0.05,-0.01,-0.03,1.0,f
2911.0,2778.0,2911.0,3977.0,4095.0,4095.0,4095.0,4095.0,0.34,9.77,2.76,-0.06,0.01,-0.02,1.0,f
2919.0,2794.0,2916.0,3958.0,4095.0,4095.0,4095.0,4095.0,0.46,9.75,2.83,-0.1,-0.05,-0.05,1.0,f
2929.0,2771.0,2914.0,3955.0,4095.0,4095.0,4095.0,4095.0,0.19,9.72,2.97,-0.05,0.02,-0.05,1.0,f
2921.0,2782.0,2919.0,3963.0,4095.0,4095.0,4095.0,4095.0,0.27,9.7,2.88,-0.05,0.02,-0.02,1.0,f
2926.0,2778.0,2923.0,3988.0,4095.0,4095.0,4095.0,4095.0,0.33,9.73,2.83,-0.05,-0.02,-0.03,1.0,f
2910.0,2775.0,2913.0,3974.0,4095.0,4095.0,4095.0,4095.0,0.33,9.7,2.83,-0.09,0.02,-0.03,1.0,f
2918.0,2778.0,2917.0,3971.0,4095.0,4095.0,4095.0,4095.0,0.23,9.67,2.9,-0.05,0.05,0.01,1.0,f
2926.0,2780.0,2903.0,3956.0,4095.0,4095.0,4095.0,4095.0,0.37,9.67,2.99,-0.09,-0.01,-0.05,1.0,f
2910.0,2783.0,2903.0,3987.0,4095.0,4095.0,4095.0,4095.0,0.31,9.78,2.76,-0.03,0.01,-0.07,1.0,f
2928.0,2559.0,2881.0,3139.0,4095.0,4095.0,4095.0,4095.0,0.36,9.47,3.67,-0.06,0.0,-0.02,1.0,f
2922.0,2581.0,2875.0,3159.0,4095.0,4095.0,4095.0,4095.0,0.25,9.6,3.43,-0.02,0.06,-0.01,1.0,f
2923.0,2559.0,2891.0,3162.0,4095.0,4095.0,4095.0,4095.0,0.41,9.5,3.62,-0.09,0.0,0.0,1.0,f
2915.0,2593.0,2887.0,3163.0,4095.0,4095.0,4095.0,4095.0,0.48,9.52,3.62,-0.04,0.0,-0.03,1.0,f
2919.0,2587.0,2881.0,3171.0,4095.0,4095.0,4095.0,4095.0,0.4,9.46,3.65,-0.09,0.01,-0.02,1.0,f
2930.0,2559.0,2881.0,3167.0,4095.0,4095.0,4095.0,4095.0,0.4,9.45,3.61,-0.07,0.02,-0.02,1.0,f
2927.0,2581.0,2894.0,3183.0,4095.0,4095.0,4095.0,4095.0,0.37,9.5,3.59,-0.06,-0.0,-0.03,1.0,f
2915.0,2559.0,2880.0,3184.0,4095.0,4095.0,4095.0,4095.0,0.36,9.46,3.66,-0.05,0.02,-0.03,1.0,f
2917.0,2559.0,2890.0,3181.0,4095.0,4095.0,4095.0,4095.0,0.43,9.47,3.65,-0.04,0.02,-0.03,1.0,f
2923.0,2589.0,2902.0,3191.0,4095.0,4095.0,4095.0,4095.0,0.38,9.46,3.61,-0.07,0.01,-0.04,1.0,f
2919.0,2580.0,2879.0,3183.0,4095.0,4095.0,4095.0,4095.0,0.47,9.53,3.52,-0.07,0.02,-0.03,1.0,f
2911.0,2591.0,2886.0,3199.0,4095.0,4095.0,4095.0,4095.0,0.44,9.48,3.68,-0.06,0.02,-0.04,1.0,f
2932.0,2598.0,2885.0,3210.0,4095.0,4095.0,4095.0,4095.0,0.4,9.45,3.68,-0.04,-0.0,-0.04,1.0,f
2928.0,2598.0,2889.0,3215.0,4095.0,4095.0,4095.0,4095.0,0.43,9.5,3.6,-0.03,-0.04,-0.04,1.0,f
2922.0,2605.0,2891.0,3211.0,4095.0,4095.0,4095.0,4095.0,0.44,9.52,3.49,-0.06,0.0,-0.04,1.0,f
2909.0,2593.0,2895.0,3216.0,4095.0,4095.0,4095.0,4095.0,0.38,9.47,3.61,-0.06,-0.03,-0.05,1.0,f
2922.0,2608.0,2887.0,3214.0,4095.0,4095.0,4095.0,4095.0,0.43,9.52,3.52,-0.02,-0.01,-0.04,1.0,f
2916.0,2598.0,2889.0,3205.0,4095.0,4095.0,4095.0,4095.0,0.54,9.55,3.59,-0.05,-0.0,-0.06,1.0,f
2926.0,2614.0,2883.0,3226.0,4095.0,4095.0,4095.0,4095.0,0.39,9.5,3.68,-0.02,-0.02,-0.06,1.0,f
2914.0,2608.0,2879.0,3225.0,4095.0,4095.0,4095.0,4095.0,0.35,9.49,3.56,-0.03,0.01,-0.02,1.0,f
2934.0,2603.0,2890.0,3217.0,4095.0,4095.0,4095.0,4095.0,0.44,9.53,3.57,-0.07,0.01,-0.02,1.0,f
2934.0,2608.0,2894.0,3219.0,4095.0,4095.0,4095.0,4095.0,0.39,9.48,3.62,-0.05,-0.01,-0.06,1.0,f
2923.0,2596.0,2887.0,3211.0,4095.0,4095.0,4095.0,4095.0,0.41,9.55,3.48,-0.05,0.01,-0.06,1.0,f
2917.0,2601.0,2893.0,3226.0,4095.0,4095.0,4095.0,4095.0,0.32,9.53,3.5,-0.06,0.01,-0.04,1.0,f
2923.0,2596.0,2889.0,3225.0,4095.0,4095.0,4095.0,4095.0,0.41,9.51,3.61,-0.04,-0.01,-0.05,1.0,f
2928.0,2599.0,2894.0,3215.0,4095.0,4095.0,4095.0,4095.0,0.3,9.57,3.47,-0.05,-0.01,-0.04,1.0,f
2911.0,2595.0,2882.0,3228.0,4095.0,4095.0,4095.0,4095.0,0.24,9.52,3.46,-0.07,0.01,-0.02,1.0,f
2911.0,2610.0,2883.0,3202.0,4095.0,4095.0,4095.0,4095.0,0.36,9.53,3.5,-0.06,0.04,-0.01,1.0,f
2919.0,2605.0,2880.0,3227.0,4095.0,4095.0,4095.0,4095.0,0.49,9.51,3.61,-0.04,0.01,-0.07,1.0,f
2914.0,2581.0,2886.0,3216.0,4095.0,4095.0,4095.0,4095.0,0.33,9.53,3.5,-0.08,-0.01,-0.02,1.0,f
2910.0,2602.0,2895.0,3223.0,4095.0,4095.0,4095.0,4095.0,0.37,9.52,3.54,-0.05,0.01,-0.03,1.0,f
2913.0,2593.0,2896.0,3231.0,4095.0,4095.0,4095.0,4095.0,0.38,9.48,3.6,-0.06,0.02,-0.02,1.0,f
2923.0,2591.0,2894.0,3220.0,4095.0,4095.0,4095.0,4095.0,0.28,9.51,3.55,-0.06,0.03,-0.01,1.0,f
2925.0,2599.0,2893.0,3223.0,4095.0,4095.0,4095.0,4095.0,0.29,9.52,3.47,-0.08,0.02,-0.02,1.0,f
2924.0,2598.0,2896.0,3217.0,4095.0,4095.0,4095.0,4095.0,0.42,9.51,3.53,-0.06,-0.0,-0.03,1.0,f
2906.0,2591.0,2886.0,3227.0,4095.0,4095.0,4095.0,4095.0,0.36,9.48,3.55,-0.08,0.0,-0.02,1.0,f
2915.0,2601.0,2886.0,3233.0,4095.0,4095.0,4095.0,4095.0,0.35,9.51,3.48,-0.09,0.03,-0.02,1.0,f
2917.0,2599.0,2893.0,3221.0,4095.0,4095.0,4095.0,4095.0,0.31,9.51,3.53,-0.08,0.03,-0.03,1.0,f
2917.0,2603.0,2891.0,3235.0,4095.0,4095.0,4095.0,4095.0,0.52,9.48,3.64,-0.05,0.02,-0.02,1.0,f
2918.0,2590.0,2881.0,3221.0,4095.0,4095.0,4095.0,4095.0,0.34,9.42,3.74,-0.06,0.01,-0.06,1.0,f
2946.0,2831.0,2912.0,3382.0,4095.0,4095.0,4095.0,4095.0,0.03,9.58,3.32,-0.03,0.04,-0.03,1.0,f
2945.0,2832.0,2934.0,3366.0,4095.0,4095.0,4095.0,4095.0,-0.06,9.53,3.32,-0.06,0.03,-0.02,1.0,f
2923.0,2806.0,2914.0,3391.0,4095.0,4095.0,4095.0,4095.0,0.0,9.55,3.35,-0.09,0.04,-0.01,1.0,f
2928.0,2799.0,2927.0,3396.0,4095.0,4095.0,4095.0,4095.0,0.1,9.61,3.31,-0.03,0.02,-0.03,1.0,f
2926.0,2821.0,2921.0,3393.0,4095.0,4095.0,4095.0,4095.0,0.04,9.66,3.25,-0.05,0.0,-0.02,1.0,f
2913.0,2803.0,2922.0,3379.0,4095.0,4095.0,4095.0,4095.0,0.16,9.56,3.45,-0.04,-0.03,-0.02,1.0,f
2923.0,2801.0,2915.0,3377.0,4095.0,4095.0,4095.0,4095.0,0.01,9.56,3.34,-0.05,0.0,-0.02,1.0,f
2914.0,2800.0,2926.0,3371.0,4095.0,4095.0,4095.0,4095.0,0.05,9.58,3.31,-0.03,0.02,-0.02,1.0,f
2913.0,2801.0,2923.0,3394.0,4095.0,4095.0,4095.0,4095.0,0.17,9.64,3.28,-0.03,0.03,-0.03,1.0,f
2911.0,2800.0,2917.0,3379.0,4095.0,4095.0,4095.0,4095.0,0.13,9.58,3.34,-0.05,0.02,-0.06,1.0,f
2925.0,2800.0,2921.0,3387.0,4095.0,4095.0,4095.0,4095.0,-0.02,9.51,3.34,-0.04,-0.0,-0.07,1.0,f
2933.0,2795.0,2917.0,3376.0,4095.0,4095.0,4095.0,4095.0,-0.05,9.62,3.13,-0.06,0.03,-0.03,1.0,f
2927.0,2784.0,2914.0,3377.0,4095.0,4095.0,4095.0,4095.0,-0.06,9.61,3.17,-0.06,0.02,-0.01,1.0,f
2917.0,2788.0,2928.0,3392.0,4095.0,4095.0,4095.0,4095.0,0.12,9.67,3.14,-0.03,0.01,-0.04,1.0,f
2919.0,2790.0,2922.0,3390.0,4095.0,4095.0,4095.0,4095.0,0.03,9.61,3.27,-0.08,-0.0,-0.03,1.0,f
2924.0,2800.0,2911.0,3391.0,4095.0,4095.0,4095.0,4095.0,-0.02,9.68,3.16,-0.05,-0.02,-0.03,1.0,f
2917.0,2800.0,2922.0,3398.0,4095.0,4095.0,4095.0,4095.0,0.21,9.59,3.32,-0.03,-0.03,-0.04,1.0,f
2907.0,2797.0,2927.0,3382.0,4095.0,4095.0,4095.0,4095.0,0.15,9.59,3.36,-0.04,-0.04,-0.06,1.0,f
2926.0,2800.0,2929.0,3399.0,4095.0,4095.0,4095.0,4095.0,0.09,9.6,3.31,-0.03,0.0,-0.03,1.0,f
2926.0,2779.0,2917.0,3394.0,4095.0,4095.0,4095.0,4095.0,0.1,9.66,3.14,-0.08,0.08,-0.03,1.0,f
2925.0,2785.0,2917.0,3391.0,4095.0,4095.0,4095.0,4095.0,0.05,9.64,3.14,-0.04,-0.07,-0.06,1.0,f
2911.0,2778.0,2928.0,3408.0,4095.0,4095.0,4095.0,4095.0,-0.02,9.58,3.2,-0.1,-0.03,-0.03,1.0,f
2924.0,2783.0,2926.0,3401.0,4095.0,4095.0,4095.0,4095.0,0.15,9.61,3.36,-0.12,0.03,-0.01,1.0,f
2928.0,2793.0,2907.0,3408.0,4095.0,4095.0,4095.0,4095.0,0.07,9.52,3.47,-0.08,0.0,-0.03,1.0,f
2914.0,2782.0,2917.0,3409.0,4095.0,4095.0,4095.0,4095.0,0.08,9.56,3.28,-0.09,0.01,-0.03,1.0,f
2916.0,2790.0,2917.0,3404.0,4095.0,4095.0,4095.0,4095.0,0.05,9.55,3.35,-0.07,-0.01,-0.03,1.0,f
2917.0,2777.0,2918.0,3402.0,4095.0,4095.0,4095.0,4095.0,0.05,9.54,3.41,-0.06,0.01,-0.02,1.0,f
2917.0,2777.0,2913.0,3399.0,4095.0,4095.0,4095.0,4095.0,0.05,9.55,3.31,-0.07,-0.01,-0.04,1.0,f
2922.0,2778.0,2925.0,3392.0,4095.0,4095.0,4095.0,4095.0,0.15,9.51,3.6,-0.05,-0.01,-0.04,1.0,f
2937.0,2771.0,2922.0,3408.0,4095.0,4095.0,4095.0,4095.0,0.1,9.58,3.39,-0.05,0.01,-0.04,1.0,f
2925.0,2767.0,2917.0,3408.0,4095.0,4095.0,4095.0,4095.0,0.11,9.58,3.32,-0.04,0.01,-0.04,1.0,f
2912.0,2769.0,2914.0,3410.0,4095.0,4095.0,4095.0,4095.0,0.11,9.59,3.34,-0.03,-0.01,-0.05,1.0,f
2928.0,2769.0,2915.0,3393.0,4095.0,4095.0,4095.0,4095.0,0.16,9.56,3.4,-0.04,-0.04,-0.04,1.0,f
2915.0,2768.0,2911.0,3408.0,4095.0,4095.0,4095.0,4095.0,0.04,9.54,3.37,-0.05,-0.0,-0.04,1.0,f
2913.0,2767.0,2907.0,3401.0,4095.0,4095.0,4095.0,4095.0,0.12,9.49,3.49,-0.06,0.0,-0.01,1.0,f
2934.0,2770.0,2908.0,3409.0,4095.0,4095.0,4095.0,4095.0,0.14,9.57,3.3,-0.02,0.04,-0.02,1.0,f
2925.0,2770.0,2902.0,3383.0,4095.0,4095.0,4095.0,4095.0,0.22,9.59,3.27,-0.06,0.02,-0.02,1.0,f
2919.0,2768.0,2907.0,3376.0,4095.0,4095.0,4095.0,4095.0,0.15,9.56,3.34,-0.08,0.01,-0.02,1.0,f
2926.0,2765.0,2921.0,3377.0,4095.0,4095.0,4095.0,4095.0,0.15,9.62,3.29,-0.06,0.01,-0.04,1.0,f
2926.0,2755.0,2903.0,3394.0,4095.0,4095.0,4095.0,4095.0,0.19,9.56,3.39,-0.06,-0.0,-0.04,1.0,f
2917.0,2706.0,2896.0,3599.0,4095.0,4095.0,4095.0,4095.0,0.19,9.6,3.05,-0.06,-0.02,-0.04,1.0,f
2917.0,2700.0,2898.0,3553.0,4095.0,4095.0,4095.0,4095.0,0.25,9.63,3.05,-0.03,0.02,-0.05,1.0,f
2911.0,2699.0,2898.0,3549.0,4095.0,4095.0,4095.0,4095.0,0.19,9.7,3.1,-0.06,-0.01,-0.04,1.0,f
2917.0,2701.0,2903.0,3574.0,4095.0,4095.0,4095.0,4095.0,0.24,9.67,3.1,-0.05,0.01,-0.04,1.0,f
2928.0,2722.0,2897.0,3568.0,4095.0,4095.0,4095.0,4095.0,0.19,9.66,3.09,-0.02,-0.01,-0.08,1.0,f
2911.0,2685.0,2897.0,3558.0,4095.0,4095.0,4095.0,4095.0,0.08,9.66,3.02,-0.05,0.02,-0.0,1.0,f
2912.0,2702.0,2889.0,3567.0,4095.0,4095.0,4095.0,4095.0,0.31,9.74,2.93,-0.08,-0.01,-0.05,1.0,f
2923.0,2691.0,2899.0,3554.0,4095.0,4095.0,4095.0,4095.0,0.29,9.64,3.15,-0.03,0.0,-0.08,1.0,f
2928.0,2688.0,2895.0,3555.0,4095.0,4095.0,4095.0,4095.0,0.07,9.67,3.16,-0.05,-0.0,-0.06,1.0,f
2909.0,2689.0,2902.0,3569.0,4095.0,4095.0,4095.0,4095.0,-0.01,9.67,2.96,-0.02,-0.02,-0.06,1.0,f
2910.0,2704.0,2896.0,3568.0,4095.0,4095.0,4095.0,4095.0,0.23,9.68,3.14,-0.06,-0.03,-0.06,1.0,f
2914.0,2685.0,2895.0,3551.0,4095.0,4095.0,4095.0,4095.0,0.07,9.63,3.1,-0.02,-0.01,-0.04,1.0,f
2917.0,2687.0,2890.0,3551.0,4095.0,4095.0,4095.0,4095.0,0.07,9.71,2.89,-0.02,0.01,-0.02,1.0,f
2913.0,2677.0,2896.0,3557.0,4095.0,4095.0,4095.0,4095.0,0.14,9.72,2.91,-0.07,-0.03,-0.03,1.0,f
2917.0,2677.0,2905.0,3536.0,4095.0,4095.0,4095.0,4095.0,0.24,9.66,3.09,-0.06,0.01,-0.04,1.0,f
2922.0,2685.0,2897.0,3549.0,4095.0,4095.0,4095.0,4095.0,0.22,9.66,3.1,-0.04,-0.01,-0.06,1.0,f
2928.0,2663.0,2899.0,3564.0,4095.0,4095.0,4095.0,4095.0,0.0,9.68,2.83,-0.07,0.01,-0.04,1.0,f
2922.0,2672.0,2896.0,3557.0,4095.0,4095.0,4095.0,4095.0,0.13,9.72,2.95,-0.08,0.01,-0.02,1.0,f
2927.0,2669.0,2902.0,3536.0,4095.0,4095.0,4095.0,4095.0,0.16,9.67,3.01,-0.06,-0.0,-0.01,1.0,f
2923.0,2675.0,2887.0,3566.0,4095.0,4095.0,4095.0,4095.0,0.13,9.73,2.86,-0.07,-0.02,-0.03,1.0,f
2907.0,2667.0,2896.0,3555.0,4095.0,4095.0,4095.0,4095.0,0.19,9.67,3.07,-0.09,0.01,-0.02,1.0,f
2918.0,2675.0,2880.0,3559.0,4095.0,4095.0,4095.0,4095.0,0.25,9.67,3.07,-0.07,-0.01,-0.02,1.0,f
2919.0,2677.0,2889.0,3580.0,4095.0,4095.0,4095.0,4095.0,0.07,9.62,3.06,-0.07,-0.01,-0.03,1.0,f
2928.0,2673.0,2895.0,3553.0,4095.0,4095.0,4095.0,4095.0,0.19,9.7,3.01,-0.06,-0.02,-0.04,1.0,f
2923.0,2674.0,2896.0,3574.0,4095.0,4095.0,4095.0,4095.0,0.23,9.68,3.02,-0.05,-0.04,-0.04,1.0,f
2906.0,2686.0,2896.0,3570.0,4095.0,4095.0,4095.0,4095.0,0.1,9.63,3.05,-0.05,0.01,-0.04,1.0,f
2929.0,2677.0,2895.0,3561.0,4095.0,4095.0,4095.0,4095.0,0.18,9.68,2.92,-0.06,-0.01,-0.03,1.0,f
2922.0,2671.0,2897.0,3557.0,4095.0,4095.0,4095.0,4095.0,0.22,9.63,3.07,-0.07,0.01,-0.02,1.0,f
2927.0,2666.0,2879.0,3569.0,4095.0,4095.0,4095.0,4095.0,0.15,9.68,3.0,-0.07,0.02,-0.02,1.0,f
2928.0,2661.0,2896.0,3573.0,4095.0,4095.0,4095.0,4095.0,0.27,9.67,3.01,-0.07,-0.01,-0.02,1.0,f
2927.0,2670.0,2881.0,3568.0,4095.0,4095.0,4095.0,4095.0,0.28,9.66,3.14,-0.06,-0.01,-0.03,1.0,f
2923.0,2671.0,2888.0,3556.0,4095.0,4095.0,4095.0,4095.0,0.23,9.7,2.95,-0.06,-0.02,-0.04,1.0,f
2917.0,2677.0,2896.0,3568.0,4095.0,4095.0,4095.0,4095.0,0.25,9.65,3.09,-0.07,-0.0,-0.03,1.0,f
2928.0,2672.0,2883.0,3573.0,4095.0,4095.0,4095.0,4095.0,0.27,9.67,3.11,-0.04,-0.0,-0.03,1.0,f
2932.0,2671.0,2891.0,3561.0,4095.0,4095.0,4095.0,4095.0,0.26,9.7,2.99,-0.07,-0.01,-0.05,1.0,f
2932.0,2698.0,2879.0,3553.0,4095.0,4095.0,4095.0,4095.0,0.17,9.6,3.18,-0.03,0.03,-0.06,1.0,f
2926.0,2681.0,2886.0,3579.0,4095.0,4095.0,4095.0,4095.0,0.3,9.69,3.05,-0.06,-0.03,-0.03,1.0,f
2922.0,2687.0,2885.0,3568.0,4095.0,4095.0,4095.0,4095.0,0.19,9.65,3.03,-0.04,-0.0,-0.05,1.0,f
2928.0,2663.0,2883.0,3553.0,4095.0,4095.0,4095.0,4095.0,0.2,9.66,3.05,-0.06,0.0,-0.03,1.0,f
2928.0,2670.0,2871.0,3538.0,4095.0,4095.0,4095.0,4095.0,0.22,9.7,2.98,-0.07,0.0,-0.04,1.0,f
2913.0,2655.0,2894.0,3541.0,4095.0,4095.0,4095.0,4095.0,0.19,9.6,3.08,-0.07,-0.0,-0.03,1.0,f
2919.0,2654.0,2880.0,3554.0,4095.0,4095.0,4095.0,4095.0,0.28,9.68,3.02,-0.05,0.0,-0.03,1.0,f
2916.0,2654.0,2891.0,3541.0,4095.0,4095.0,4095.0,4095.0,0.25,9.63,3.09,-0.05,0.01,-0.04,1.0,f
2928.0,2657.0,2881.0,3557.0,4095.0,4095.0,4095.0,4095.0,0.21,9.66,2.96,-0.04,-0.0,-0.04,1.0,f
2923.0,2654.0,2881.0,3556.0,4095.0,4095.0,4095.0,4095.0,0.23,9.65,3.08,-0.06,-0.0,-0.03,1.0,f
2922.0,2647.0,2886.0,3553.0,4095.0,4095.0,4095.0,4095.0,0.24,9.71,2.98,-0.06,-0.01,-0.04,1.0,f
2913.0,2645.0,2878.0,3566.0,4095.0,4095.0,4095.0,4095.0,0.22,9.66,3.05,-0.06,-0.01,-0.05,1.0,f
2927.0,2658.0,2887.0,3538.0,4095.0,4095.0,4095.0,4095.0,0.25,9.74,2.84,-0.07,-0.02,-0.03,1.0,f
2914.0,2646.0,2897.0,3539.0,4095.0,4095.0,4095.0,4095.0,0.36,9.68,2.95,-0.05,0.0,-0.03,1.0,f
2910.0,2667.0,2896.0,3557.0,4095.0,4095.0,4095.0,4095.0,0.26,9.65,3.07,-0.08,0.07,0.01,1.0,f
2925.0,2659.0,2896.0,3545.0,4095.0,4095.0,4095.0,4095.0,0.22,9.67,2.95,-0.05,0.01,-0.06,1.0,f
2923.0,2661.0,2894.0,3562.0,4095.0,4095.0,4095.0,4095.0,0.22,9.67,2.92,-0.06,0.01,-0.02,1.0,f
2918.0,2661.0,2896.0,3567.0,4095.0,4095.0,4095.0,4095.0,0.23,9.68,2.91,-0.07,0.0,-0.02,1.0,f
2915.0,2667.0,2896.0,3543.0,4095.0,4095.0,4095.0,4095.0,0.32,9.67,3.06,-0.07,-0.01,-0.05,1.0,f
2923.0,2672.0,2896.0,3554.0,4095.0,4095.0,4095.0,4095.0,0.2,9.65,3.07,-0.05,-0.07,-0.05,1.0,f
2916.0,2669.0,2905.0,3563.0,4095.0,4095.0,4095.0,4095.0,0.34,9.71,3.01,-0.07,0.03,-0.02,1.0,f
2923.0,2659.0,2896.0,3547.0,4095.0,4095.0,4095.0,4095.0,0.39,9.72,2.98,-0.04,-0.05,-0.06,1.0,f
2928.0,2666.0,2896.0,3547.0,4095.0,4095.0,4095.0,4095.0,0.27,9.67,2.97,-0.03,-0.0,-0.05,1.0,f
2917.0,2661.0,2892.0,3567.0,4095.0,4095.0,4095.0,4095.0,0.2,9.67,3.0,-0.06,0.03,-0.04,1.0,f
2921.0,2662.0,2886.0,3552.0,4095.0,4095.0,4095.0,4095.0,0.26,9.69,3.06,-0.02,-0.03,-0.07,1.0,f
2929.0,2797.0,2945.0,3728.0,4019.0,4095.0,4095.0,4095.0,0.13,9.66,3.01,-0.06,-0.01,-0.03,1.0,f
2919.0,2797.0,2960.0,3722.0,4053.0,4095.0,4095.0,4095.0,0.16,9.73,2.68,-0.05,0.01,-0.02,1.0,f
2927.0,2800.0,2951.0,3718.0,4064.0,4095.0,4095.0,4095.0,0.23,9.68,2.88,-0.07,-0.01,0.0,1.0,f
2905.0,2774.0,2944.0,3731.0,4066.0,4095.0,4095.0,4095.0,0.18,9.65,2.92,-0.06,-0.03,-0.02,1.0,f
2926.0,2771.0,2967.0,3716.0,4095.0,4095.0,4095.0,4095.0,0.09,9.73,2.74,-0.05,0.02,-0.03,1.0,f
2923.0,2768.0,2943.0,3723.0,4050.0,4095.0,4095.0,4095.0,0.19,9.74,2.76,-0.06,0.02,-0.03,1.0,f
2921.0,2782.0,2928.0,3713.0,4076.0,4095.0,4095.0,4095.0,0.23,9.7,2.9,-0.06,0.02,-0.02,1.0,f
2913.0,2768.0,2945.0,3717.0,4053.0,4095.0,4095.0,4095.0,0.27,9.76,2.88,-0.05,-0.01,-0.04,1.0,f
2911.0,2768.0,2946.0,3709.0,4059.0,4095.0,4095.0,4095.0,0.27,9.73,2.84,-0.05,-0.01,-0.05,1.0,f
2928.0,2761.0,2943.0,3685.0,4082.0,4095.0,4095.0,4095.0,0.18,9.73,2.8,-0.06,-0.01,-0.03,1.0,f
2919.0,2766.0,2949.0,3694.0,4081.0,4095.0,4095.0,4095.0,0.18,9.68,2.86,-0.09,0.01,-0.02,1.0,f
2918.0,2753.0,2950.0,3687.0,4080.0,4095.0,4095.0,4095.0,0.3,9.7,2.93,-0.08,0.02,-0.01,1.0,f
2928.0,2758.0,2941.0,3707.0,4080.0,4095.0,4095.0,4095.0,0.22,9.75,2.82,-0.06,0.0,-0.03,1.0,f
2926.0,2752.0,2960.0,3713.0,4043.0,4095.0,4095.0,4095.0,0.2,9.68,2.86,-0.08,0.01,-0.03,1.0,f
2919.0,2749.0,2955.0,3679.0,4053.0,4095.0,4095.0,4095.0,0.2,9.72,2.85,-0.05,0.03,-0.03,1.0,f
2923.0,2752.0,2928.0,3696.0,4032.0,4095.0,4095.0,4095.0,0.2,9.78,2.84,-0.05,-0.04,-0.06,1.0,f
2927.0,2753.0,2933.0,3679.0,4022.0,4095.0,4095.0,4095.0,0.26,9.71,2.92,-0.05,-0.0,-0.02,1.0,f
2927.0,2768.0,2933.0,3701.0,4030.0,4095.0,4095.0,4095.0,0.34,9.71,2.88,-0.07,-0.01,-0.02,1.0,f
2930.0,2765.0,2945.0,3691.0,4053.0,4095.0,4095.0,4095.0,0.25,9.69,2.87,-0.03,-0.01,-0.05,1.0,f
2921.0,2768.0,2939.0,3697.0,4033.0,4095.0,4095.0,4095.0,0.23,9.71,2.83,-0.05,-0.01,-0.05,1.0,f
2927.0,2763.0,2941.0,3698.0,4048.0,4095.0,4095.0,4095.0,0.23,9.75,2.92,-0.06,-0.01,-0.05,1.0,f
2921.0,2757.0,2930.0,3661.0,4037.0,4095.0,4095.0,4095.0,0.21,9.76,2.85,-0.07,-0.0,-0.03,1.0,f
2931.0,2761.0,2938.0,3703.0,4048.0,4095.0,4095.0,4095.0,0.26,9.73,2.89,-0.07,-0.01,-0.03,1.0,f
2928.0,2750.0,2928.0,3685.0,4031.0,4095.0,4095.0,4095.0,0.23,9.66,2.97,-0.06,-0.02,-0.03,1.0,f
2917.0,2763.0,2933.0,3696.0,4038.0,4095.0,4095.0,4095.0,0.22,9.67,2.85,-0.07,0.01,-0.03,1.0,f
2925.0,2746.0,2931.0,3694.0,4034.0,4095.0,4095.0,4095.0,0.22,9.73,2.94,-0.06,0.02,-0.04,1.0,f
2923.0,2753.0,2940.0,3696.0,4033.0,4095.0,4095.0,4095.0,0.28,9.67,2.98,-0.05,-0.0,-0.04,1.0,f
2912.0,2761.0,2923.0,3679.0,4037.0,4095.0,4095.0,4095.0,0.22,9.72,2.86,-0.06,-0.01,-0.05,1.0,f
2922.0,2752.0,2927.0,3698.0,4016.0,4095.0,4095.0,4095.0,0.19,9.68,2.96,-0.07,0.01,-0.03,1.0,f
2915.0,2759.0,2928.0,3679.0,4026.0,4095.0,4095.0,4095.0,0.24,9.67,2.96,-0.07,-0.02,-0.03,1.0,f
2927.0,2755.0,2927.0,3698.0,4001.0,4095.0,4095.0,4095.0,0.16,9.65,2.97,-0.07,0.0,-0.03,1.0,f
2925.0,2758.0,2926.0,3690.0,4023.0,4095.0,4095.0,4095.0,0.22,9.69,2.96,-0.05,-0.01,-0.03,1.0,f
2914.0,2749.0,2934.0,3697.0,4014.0,4095.0,4095.0,4095.0,0.27,9.65,2.96,-0.08,-0.02,-0.02,1.0,f
2928.0,2757.0,2928.0,3678.0,4029.0,4095.0,4095.0,4095.0,0.21,9.62,3.04,-0.08,0.04,-0.02,1.0,f
2928.0,2757.0,2910.0,3670.0,4043.0,4095.0,4095.0,4095.0,0.33,9.71,2.95,-0.07,0.01,-0.03,1.0,f
2915.0,2766.0,2919.0,3686.0,4031.0,4095.0,4095.0,4095.0,0.23,9.65,2.95,-0.08,0.01,-0.03,1.0,f
2914.0,2767.0,2917.0,3700.0,4016.0,4095.0,4095.0,4095.0,0.29,9.71,2.98,-0.06,-0.02,-0.03,1.0,f
2925.0,2738.0,2922.0,3702.0,4031.0,4095.0,4095.0,4095.0,0.34,9.71,3.0,-0.07,0.0,-0.03,1.0,f
2917.0,2752.0,2921.0,3706.0,4043.0,4095.0,4095.0,4095.0,0.23,9.67,3.01,-0.07,-0.01,-0.03,1.0,f
2922.0,2757.0,2923.0,3687.0,4037.0,4095.0,4095.0,4095.0,0.34,9.67,2.97,-0.05,-0.01,-0.04,1.0,f
2921.0,2734.0,2943.0,3515.0,4095.0,4095.0,4095.0,4095.0,0.18,9.73,2.91,-0.09,0.04,0.01,1.0,f
2932.0,2731.0,2944.0,3504.0,4095.0,4095.0,4095.0,4095.0,0.16,9.74,2.87,-0.05,0.04,-0.04,1.0,f
2919.0,2729.0,2957.0,3492.0,4095.0,4095.0,4095.0,4095.0,0.16,9.68,3.0,-0.08,0.01,-0.01,1.0,f
2919.0,2715.0,2939.0,3455.0,4095.0,4095.0,4095.0,4095.0,0.2,9.73,2.85,-0.06,0.01,-0.04,1.0,f
2911.0,2717.0,2945.0,3441.0,4095.0,4095.0,4095.0,4095.0,0.28,9.65,3.08,-0.11,-0.03,-0.04,1.0,f
2928.0,2704.0,2949.0,3425.0,4095.0,4095.0,4095.0,4095.0,0.25,9.73,2.91,-0.07,-0.02,-0.05,1.0,f
2913.0,2704.0,2959.0,3387.0,4095.0,4095.0,4095.0,4095.0,0.07,9.68,3.11,-0.04,0.02,-0.04,1.0,f
2922.0,2693.0,2941.0,3392.0,4095.0,4095.0,4095.0,4095.0,0.24,9.7,2.96,-0.05,-0.01,-0.04,1.0,f
2928.0,2704.0,2943.0,3400.0,4095.0,4095.0,4095.0,4095.0,0.16,9.63,3.1,-0.05,0.03,0.0,1.0,f
2929.0,2704.0,2940.0,3403.0,4095.0,4095.0,4095.0,4095.0,0.31,9.68,2.96,-0.08,0.03,-0.01,1.0,f
2918.0,2693.0,2934.0,3392.0,4095.0,4095.0,4095.0,4095.0,0.31,9.69,3.12,-0.08,0.05,-0.01,1.0,f
2926.0,2692.0,2942.0,3430.0,4095.0,4095.0,4095.0,4095.0,0.27,9.67,3.04,-0.06,0.02,-0.03,1.0,f
2927.0,2694.0,2937.0,3422.0,4095.0,4095.0,4095.0,4095.0,0.23,9.63,3.0,-0.08,0.02,-0.01,1.0,f
2919.0,2707.0,2941.0,3435.0,4095.0,4095.0,4095.0,4095.0,0.15,9.64,3.06,-0.08,0.03,-0.02,1.0,f
2925.0,2690.0,2927.0,3424.0,4095.0,4095.0,4095.0,4095.0,0.37,9.69,3.06,-0.07,-0.01,-0.04,1.0,f
2925.0,2691.0,2933.0,3455.0,4095.0,4095.0,4095.0,4095.0,0.23,9.65,3.12,-0.06,-0.01,-0.03,1.0,f
2925.0,2705.0,2935.0,3466.0,4095.0,4095.0,4095.0,4095.0,0.24,9.67,3.03,-0.04,0.01,-0.03,1.0,f
2924.0,2698.0,2929.0,3454.0,4095.0,4095.0,4095.0,4095.0,0.36,9.7,3.05,-0.03,0.01,-0.04,1.0,f
2910.0,2696.0,2945.0,3455.0,4095.0,4095.0,4095.0,4095.0,0.34,9.73,2.94,-0.04,0.01,-0.05,1.0,f
2913.0,2671.0,2925.0,3456.0,4095.0,4095.0,4095.0,4095.0,0.34,9.6,3.3,-0.06,0.02,-0.05,1.0,f
2928.0,2673.0,2928.0,3466.0,4095.0,4095.0,4095.0,4095.0,0.14,9.58,3.09,-0.01,0.02,-0.04,1.0,f
2919.0,2688.0,2929.0,3471.0,4095.0,4095.0,4095.0,4095.0,0.28,9.67,2.93,-0.05,-0.01,-0.05,1.0,f
2913.0,2677.0,2935.0,3483.0,4095.0,4095.0,4095.0,4095.0,0.19,9.68,2.94,-0.07,-0.01,-0.04,1.0,f
2914.0,2673.0,2926.0,3468.0,4095.0,4095.0,4095.0,4095.0,0.22,9.62,3.15,-0.05,0.01,-0.03,1.0,f
2924.0,2674.0,2926.0,3493.0,4095.0,4095.0,4095.0,4095.0,0.35,9.73,2.87,-0.07,0.01,0.01,1.0,f
2927.0,2667.0,2913.0,3495.0,4095.0,4095.0,4095.0,4095.0,0.29,9.69,3.05,-0.08,-0.01,-0.03,1.0,f
2917.0,2669.0,2928.0,3484.0,4095.0,4095.0,4095.0,4095.0,0.21,9.62,3.12,-0.04,-0.0,-0.04,1.0,f
2919.0,2679.0,2939.0,3504.0,4095.0,4095.0,4095.0,4095.0,0.31,9.68,3.05,-0.06,-0.0,-0.03,1.0,f
2928.0,2663.0,2927.0,3504.0,4095.0,4095.0,4095.0,4095.0,0.28,9.58,3.21,-0.07,-0.02,-0.04,1.0,f
2925.0,2670.0,2919.0,3486.0,4095.0,4095.0,4095.0,4095.0,0.36,9.72,2.9,-0.05,0.02,-0.01,1.0,f
2914.0,2667.0,2917.0,3504.0,4095.0,4095.0,4095.0,4095.0,0.37,9.63,3.2,-0.07,-0.01,-0.03,1.0,f
2922.0,2684.0,2928.0,3501.0,4095.0,4095.0,4095.0,4095.0,0.43,9.64,3.15,-0.04,-0.0,-0.04,1.0,f
2928.0,2667.0,2928.0,3502.0,4095.0,4095.0,4095.0,4095.0,0.3,9.63,3.13,-0.05,-0.01,-0.05,1.0,f
2930.0,2667.0,2923.0,3515.0,4095.0,4095.0,4095.0,4095.0,0.3,9.63,3.09,-0.06,-0.0,-0.04,1.0,f
2927.0,2670.0,2915.0,3495.0,4095.0,4095.0,4095.0,4095.0,0.33,9.64,3.09,-0.06,-0.01,-0.02,1.0,f
2923.0,2663.0,2918.0,3502.0,4095.0,4095.0,4095.0,4095.0,0.35,9.64,3.03,-0.07,0.03,-0.02,1.0,f
2927.0,2670.0,2918.0,3517.0,4095.0,4095.0,4095.0,4095.0,0.41,9.6,3.23,-0.06,0.0,-0.03,1.0,f
2917.0,2640.0,2923.0,3497.0,4095.0,4095.0,4095.0,4095.0,0.27,9.57,3.17,-0.08,0.02,-0.05,1.0,f
2920.0,2640.0,2918.0,3474.0,4095.0,4095.0,4095.0,4095.0,0.34,9.65,3.16,-0.06,0.02,-0.03,1.0,f
2924.0,2624.0,2918.0,3479.0,4090.0,4095.0,4095.0,4095.0,0.42,9.67,2.98,-0.04,-0.0,-0.04,1.0,f
2918.0,2613.0,2912.0,3472.0,4074.0,4095.0,4095.0,4095.0,0.28,9.65,3.13,-0.06,-0.02,-0.04,1.0,f
2928.0,2634.0,2924.0,3477.0,4090.0,4095.0,4095.0,4095.0,0.28,9.62,3.13,-0.09,-0.01,-0.02,1.0,f
2912.0,2622.0,2913.0,3477.0,4095.0,4095.0,4095.0,4095.0,0.44,9.59,3.22,-0.05,0.01,-0.04,1.0,f
2913.0,2613.0,2912.0,3474.0,4080.0,4095.0,4095.0,4095.0,0.34,9.68,3.06,-0.03,0.0,-0.04,1.0,f
2914.0,2630.0,2927.0,3481.0,4095.0,4095.0,4095.0,4095.0,0.28,9.61,3.11,-0.07,0.0,-0.04,1.0,f
2918.0,2626.0,2921.0,3481.0,4095.0,4095.0,4095.0,4095.0,0.3,9.6,3.25,-0.06,-0.0,-0.02,1.0,f
2928.0,2624.0,2925.0,3488.0,4081.0,4095.0,4095.0,4095.0,0.44,9.61,3.13,-0.06,0.03,-0.03,1.0,f
2922.0,2634.0,2919.0,3485.0,4095.0,4095.0,4095.0,4095.0,0.26,9.6,3.12,-0.07,0.0,-0.03,1.0,f
2919.0,2630.0,2928.0,3471.0,4095.0,4095.0,4095.0,4095.0,0.35,9.64,3.11,-0.06,0.01,-0.03,1.0,f
2928.0,2634.0,2917.0,3488.0,4095.0,4095.0,4095.0,4095.0,0.4,9.6,3.19,-0.07,0.03,-0.01,1.0,f
2913.0,2643.0,2928.0,3477.0,4095.0,4095.0,4095.0,4095.0,0.37,9.63,3.07,-0.05,-0.03,-0.04,1.0,f
2911.0,2642.0,2932.0,3489.0,4095.0,4095.0,4095.0,4095.0,0.33,9.62,3.18,-0.05,-0.02,-0.04,1.0,f
2933.0,2647.0,2927.0,3472.0,4095.0,4095.0,4095.0,4095.0,0.36,9.64,3.16,-0.04,-0.0,-0.04,1.0,f
2910.0,2641.0,2925.0,3477.0,4095.0,4095.0,4095.0,4095.0,0.26,9.62,3.13,-0.05,-0.04,-0.03,1.0,f
2937.0,2646.0,2913.0,3485.0,4095.0,4095.0,4095.0,4095.0,0.37,9.59,3.27,-0.06,-0.02,-0.04,1.0,f
2928.0,2665.0,2928.0,3476.0,4095.0,4095.0,4095.0,4095.0,0.46,9.69,3.09,-0.04,0.01,-0.04,1.0,f
2919.0,2651.0,2921.0,3485.0,4095.0,4095.0,4095.0,4095.0,0.4,9.64,3.16,-0.05,0.01,-0.04,1.0,f
2907.0,2662.0,2917.0,3489.0,4095.0,4095.0,4095.0,4095.0,0.39,9.66,3.17,-0.03,-0.03,-0.05,1.0,f
2918.0,2643.0,2926.0,3478.0,4095.0,4095.0,4095.0,4095.0,0.28,9.63,3.17,-0.05,-0.02,-0.05,1.0,f
2915.0,2650.0,2922.0,3493.0,4095.0,4095.0,4095.0,4095.0,0.39,9.61,3.16,-0.06,0.0,-0.03,1.0,f
2921.0,2687.0,2908.0,3658.0,4095.0,4095.0,4095.0,4095.0,0.45,9.64,3.2,-0.07,-0.04,-0.05,1.0,f
2906.0,2682.0,2901.0,3664.0,4095.0,4095.0,4095.0,4095.0,0.51,9.57,3.29,-0.04,0.01,-0.03,1.0,f
2910.0,2672.0,2897.0,3654.0,4095.0,4095.0,4095.0,4095.0,0.55,9.63,3.29,-0.07,-0.0,-0.04,1.0,f
2923.0,2671.0,2899.0,3639.0,4095.0,4095.0,4095.0,4095.0,0.58,9.57,3.25,-0.05,-0.01,-0.06,1.0,f
2928.0,2662.0,2905.0,3647.0,4095.0,4095.0,4095.0,4095.0,0.44,9.57,3.19,-0.07,0.01,-0.03,1.0,f
2927.0,2663.0,2901.0,3631.0,4095.0,4095.0,4095.0,4095.0,0.58,9.58,3.32,-0.05,0.02,-0.01,1.0,f
2923.0,2662.0,2902.0,3642.0,4095.0,4095.0,4095.0,4095.0,0.5,9.6,3.23,-0.06,-0.0,-0.05,1.0,f
2913.0,2657.0,2911.0,3651.0,4095.0,4095.0,4095.0,4095.0,0.47,9.61,3.25,-0.07,0.01,-0.04,1.0,f
2931.0,2663.0,2894.0,3634.0,4095.0,4095.0,4095.0,4095.0,0.53,9.61,3.25,-0.07,0.04,-0.03,1.0,f
2929.0,2645.0,2913.0,3650.0,4095.0,4095.0,4095.0,4095.0,0.51,9.59,3.17,-0.07,0.0,-0.02,1.0,f
2927.0,2640.0,2903.0,3639.0,4095.0,4095.0,4095.0,4095.0,0.48,9.53,3.25,-0.08,0.03,-0.04,1.0,f
2917.0,2640.0,2892.0,3642.0,4095.0,4095.0,4095.0,4095.0,0.47,9.64,3.18,-0.08,0.01,-0.03,1.0,f
2924.0,2640.0,2896.0,3633.0,4095.0,4095.0,4095.0,4095.0,0.52,9.58,3.32,-0.06,0.02,-0.03,1.0,f
2927.0,2644.0,2903.0,3634.0,4095.0,4095.0,4095.0,4095.0,0.51,9.56,3.24,-0.06,0.0,-0.04,1.0,f
2923.0,2647.0,2911.0,3646.0,4095.0,4095.0,4095.0,4095.0,0.52,9.58,3.19,-0.08,0.04,-0.02,1.0,f
2917.0,2638.0,2901.0,3635.0,4095.0,4095.0,4095.0,4095.0,0.56,9.58,3.31,-0.07,0.0,-0.03,1.0,f
2924.0,2639.0,2883.0,3623.0,4095.0,4095.0,4095.0,4095.0,0.55,9.58,3.21,-0.07,-0.0,-0.03,1.0,f
2917.0,2639.0,2897.0,3635.0,4095.0,4095.0,4095.0,4095.0,0.43,9.58,3.18,-0.07,-0.0,-0.03,1.0,f
2917.0,2631.0,2890.0,3627.0,4095.0,4095.0,4095.0,4095.0,0.53,9.61,3.27,-0.05,0.0,-0.03,1.0,f
2915.0,2621.0,2897.0,3631.0,4095.0,4095.0,4095.0,4095.0,0.52,9.58,3.32,-0.07,0.01,-0.04,1.0,f
2919.0,2634.0,2905.0,3633.0,4095.0,4095.0,4095.0,4095.0,0.45,9.59,3.26,-0.06,-0.0,-0.03,1.0,f
2923.0,2633.0,2896.0,3633.0,4095.0,4095.0,4095.0,4095.0,0.49,9.55,3.32,-0.09,0.0,-0.02,1.0,f
2914.0,2629.0,2887.0,3646.0,4095.0,4095.0,4095.0,4095.0,0.54,9.57,3.32,-0.06,0.02,-0.03,1.0,f
2917.0,2631.0,2906.0,3647.0,4095.0,4095.0,4095.0,4095.0,0.55,9.59,3.26,-0.06,-0.01,-0.04,1.0,f
2928.0,2635.0,2885.0,3653.0,4095.0,4095.0,4095.0,4095.0,0.56,9.6,3.29,-0.04,-0.03,-0.04,1.0,f
2921.0,2631.0,2912.0,3648.0,4095.0,4095.0,4095.0,4095.0,0.6,9.62,3.26,-0.05,-0.03,-0.04,1.0,f
2928.0,2639.0,2896.0,3643.0,4095.0,4095.0,4095.0,4095.0,0.56,9.59,3.33,-0.04,-0.01,-0.05,1.0,f
2920.0,2640.0,2898.0,3648.0,4095.0,4095.0,4095.0,4095.0,0.53,9.6,3.24,-0.04,-0.01,-0.03,1.0,f
2930.0,2624.0,2896.0,3634.0,4095.0,4095.0,4095.0,4095.0,0.5,9.57,3.37,-0.06,0.0,-0.03,1.0,f
2915.0,2631.0,2898.0,3653.0,4095.0,4095.0,4095.0,4095.0,0.58,9.58,3.36,-0.06,0.02,-0.04,1.0,f
2917.0,2640.0,2893.0,3649.0,4095.0,4095.0,4095.0,4095.0,0.57,9.62,3.28,-0.06,0.01,-0.04,1.0,f
2915.0,2627.0,2895.0,3657.0,4095.0,4095.0,4095.0,4095.0,0.49,9.62,3.3,-0.05,-0.0,-0.04,1.0,f
2921.0,2638.0,2899.0,3654.0,4095.0,4095.0,4095.0,4095.0,0.52,9.56,3.31,-0.07,0.02,-0.02,1.0,f
2922.0,2624.0,2899.0,3632.0,4095.0,4095.0,4095.0,4095.0,0.56,9.57,3.39,-0.05,0.0,-0.04,1.0,f
2925.0,2631.0,2886.0,3645.0,4095.0,4095.0,4095.0,4095.0,0.58,9.62,3.25,-0.06,-0.0,-0.04,1.0,f
2929.0,2627.0,2896.0,3646.0,4095.0,4095.0,4095.0,4095.0,0.49,9.58,3.34,-0.06,-0.02,-0.04,1.0,f
2918.0,2626.0,2895.0,3648.0,4095.0,4095.0,4095.0,4095.0,0.58,9.56,3.36,-0.04,-0.03,-0.04,1.0,f
2915.0,2640.0,2887.0,3633.0,4095.0,4095.0,4095.0,4095.0,0.53,9.57,3.39,-0.06,0.01,-0.04,1.0,f
2935.0,2627.0,2909.0,3633.0,4095.0,4095.0,4095.0,4095.0,0.54,9.64,3.25,-0.05,0.0,-0.05,1.0,f
2923.0,2633.0,2887.0,3648.0,4095.0,4095.0,4095.0,4095.0,0.55,9.6,3.38,-0.05,0.01,-0.04,1.0,f
2931.0,2629.0,2903.0,3653.0,4095.0,4095.0,4095.0,4095.0,0.58,9.59,3.29,-0.05,-0.0,-0.03,1.0,f
2914.0,2629.0,2886.0,3655.0,4095.0,4095.0,4095.0,4095.0,0.48,9.53,3.34,-0.06,-0.0,-0.04,1.0,f
2927.0,2624.0,2908.0,3634.0,4095.0,4095.0,4095.0,4095.0,0.52,9.56,3.3,-0.06,-0.01,-0.03,1.0,f
2917.0,2621.0,2894.0,3641.0,4095.0,4095.0,4095.0,4095.0,0.54,9.57,3.3,-0.05,-0.02,-0.04,1.0,f
2923.0,2624.0,2891.0,3653.0,4095.0,4095.0,4095.0,4095.0,0.52,9.57,3.26,-0.06,-0.01,-0.04,1.0,f
2920.0,2618.0,2901.0,3649.0,4095.0,4095.0,4095.0,4095.0,0.4,9.56,3.33,-0.06,-0.01,-0.02,1.0,f
2919.0,2619.0,2896.0,3629.0,4095.0,4095.0,4095.0,4095.0,0.57,9.61,3.28,-0.06,-0.01,-0.04,1.0,f
2918.0,2611.0,2901.0,3657.0,4095.0,4095.0,4095.0,4095.0,0.54,9.6,3.25,-0.07,-0.02,-0.04,1.0,f
2918.0,2615.0,2896.0,3638.0,4095.0,4095.0,4095.0,4095.0,0.54,9.61,3.34,-0.06,-0.02,-0.04,1.0,f
2910.0,2614.0,2894.0,3630.0,4095.0,4095.0,4095.0,4095.0,0.61,9.6,3.28,-0.06,-0.01,-0.04,1.0,f
2919.0,2619.0,2892.0,3664.0,4095.0,4095.0,4095.0,4095.0,0.53,9.59,3.33,-0.07,0.0,-0.04,1.0,f
2922.0,2615.0,2894.0,3647.0,4095.0,4095.0,4095.0,4095.0,0.52,9.64,3.3,-0.07,0.02,-0.03,1.0,f
2923.0,2608.0,2891.0,3632.0,4095.0,4095.0,4095.0,4095.0,0.45,9.56,3.42,-0.05,0.04,-0.02,1.0,f
2931.0,2608.0,2894.0,3648.0,4095.0,4095.0,4095.0,4095.0,0.65,9.67,3.16,-0.06,-0.01,-0.04,1.0,f
2925.0,2621.0,2896.0,3654.0,4095.0,4095.0,4095.0,4095.0,0.5,9.56,3.4,-0.06,-0.01,-0.03,1.0,f
2928.0,2610.0,2896.0,3643.0,4095.0,4095.0,4095.0,4095.0,0.68,9.63,3.27,-0.04,-0.02,-0.04,1.0,f
2923.0,2611.0,2889.0,3663.0,4095.0,4095.0,4095.0,4095.0,0.59,9.62,3.21,-0.07,-0.02,-0.06,1.0,f
2918.0,2611.0,2891.0,3660.0,4095.0,4095.0,4095.0,4095.0,0.37,9.5,3.42,-0.02,-0.04,-0.03,1.0,f
2918.0,2608.0,2896.0,3645.0,4095.0,4095.0,4095.0,4095.0,0.64,9.57,3.32,-0.06,-0.03,-0.03,1.0,f
2928.0,2608.0,2896.0,3651.0,4095.0,4095.0,4095.0,4095.0,0.52,9.54,3.37,-0.04,-0.02,-0.05,1.0,f
