hall_1,hall_2,hall_3,flex_t,flex_i,flex_m,flex_r,flex_p,accel_x,accel_y,accel_z,gyro_x,gyro_y,gyro_z,hand,sign
3024.0,3002.0,2939.0,3675.0,3873.0,3947.0,4095.0,4095.0,-2.86,8.89,6.96,0.27,-0.09,-0.34,0.0,f
3024.0,3002.0,2942.0,3654.0,3874.0,3636.0,4095.0,4095.0,-2.85,8.53,7.46,0.04,-0.29,-0.22,0.0,f
3024.0,3009.0,2930.0,3631.0,3866.0,3667.0,4095.0,4095.0,-3.21,9.17,7.36,-0.01,0.08,-0.26,0.0,f
3025.0,2999.0,2938.0,3638.0,3867.0,3691.0,4095.0,4095.0,-3.03,8.7,7.07,0.01,0.02,-0.03,0.0,f
3025.0,3007.0,2948.0,3650.0,3883.0,3748.0,4095.0,4095.0,-2.63,9.38,6.79,0.01,-0.15,-0.33,0.0,f
3024.0,3018.0,2947.0,3658.0,3874.0,3758.0,4095.0,4095.0,-1.97,9.0,6.94,-0.09,-0.19,-0.32,0.0,f
3027.0,3001.0,2947.0,3664.0,3876.0,3760.0,4095.0,4095.0,-1.63,9.02,7.46,-0.07,-0.27,-0.62,0.0,f
3024.0,3013.0,2935.0,3653.0,3890.0,3682.0,4095.0,4095.0,0.52,9.1,6.6,-0.1,-0.92,-0.98,0.0,f
3031.0,3008.0,2947.0,3678.0,3888.0,3720.0,4095.0,4095.0,-3.57,7.87,8.49,-0.05,-0.37,-1.32,0.0,f
3024.0,3020.0,2935.0,3692.0,3876.0,3719.0,4095.0,4095.0,-6.83,7.81,8.94,0.26,-0.43,-0.97,0.0,f
3024.0,3011.0,2933.0,3700.0,3871.0,3865.0,4095.0,4095.0,-6.37,8.62,8.33,0.4,-0.72,-0.45,0.0,f
3039.0,3023.0,2939.0,3713.0,3866.0,3933.0,4095.0,4095.0,-5.58,8.43,7.79,0.46,-0.31,-0.06,0.0,f
3026.0,3013.0,2941.0,3738.0,3856.0,3939.0,4095.0,4095.0,-5.11,8.45,7.3,0.46,-0.04,-0.09,0.0,f
3031.0,3024.0,2937.0,3773.0,3853.0,3949.0,4095.0,4095.0,-4.98,8.4,7.14,0.29,0.1,-0.14,0.0,f
3027.0,3024.0,2942.0,3793.0,3859.0,4085.0,4095.0,4095.0,-4.57,8.05,6.99,0.13,0.01,-0.14,0.0,f
3024.0,3021.0,2939.0,3772.0,3854.0,4095.0,4095.0,4095.0,-4.97,7.89,7.15,0.06,0.37,0.03,0.0,f
3027.0,3025.0,2944.0,3621.0,3698.0,4095.0,4095.0,4095.0,-4.2,7.8,7.04,-0.22,0.23,0.24,0.0,f
3022.0,3021.0,2945.0,3520.0,3500.0,4095.0,4095.0,4095.0,-3.68,7.85,6.9,-0.1,0.3,0.1,0.0,f
3028.0,3033.0,2946.0,3397.0,3387.0,4095.0,4095.0,4095.0,-3.9,7.81,6.7,-0.26,0.26,0.25,0.0,f
3031.0,3029.0,2944.0,3472.0,3377.0,4095.0,4095.0,4095.0,-3.65,7.6,7.11,-0.23,0.24,0.19,0.0,f
3026.0,3030.0,2937.0,3555.0,3447.0,4095.0,4095.0,4095.0,-3.55,7.8,7.44,-0.25,0.32,0.22,0.0,f
3033.0,3013.0,2940.0,3671.0,3488.0,4095.0,4095.0,4095.0,-3.48,8.03,7.69,-0.25,0.28,0.2,0.0,f
3039.0,3020.0,2943.0,3669.0,3484.0,4095.0,4095.0,4095.0,-3.18,8.18,7.69,-0.21,0.35,0.22,0.0,f
3027.0,3027.0,2941.0,3583.0,3444.0,4095.0,4095.0,4095.0,-3.21,8.66,7.47,-0.27,0.35,0.22,0.0,f
3026.0,3034.0,2947.0,3483.0,3352.0,4095.0,4095.0,4095.0,-3.16,8.46,7.49,-0.4,0.36,0.33,0.0,f
3024.0,3039.0,2943.0,3348.0,3257.0,3991.0,4095.0,4095.0,-3.08,9.01,7.5,-0.27,0.26,0.21,0.0,f
3038.0,3055.0,2934.0,3284.0,3183.0,3942.0,4095.0,4095.0,-2.35,9.08,7.43,-0.2,0.31,0.19,0.0,f
3034.0,3045.0,2931.0,3230.0,3150.0,3895.0,4095.0,4095.0,-2.33,8.7,7.97,-0.18,0.34,0.2,0.0,f
3024.0,3059.0,2929.0,3159.0,3109.0,3809.0,4095.0,4095.0,-2.38,8.94,7.37,-0.0,0.09,-0.01,0.0,f
3039.0,3053.0,2937.0,3200.0,3167.0,3893.0,4095.0,4095.0,-2.21,9.5,7.04,-0.26,0.3,0.13,0.0,f
3026.0,3039.0,2929.0,3271.0,3193.0,3907.0,4095.0,4095.0,-1.82,8.81,7.92,-0.16,0.02,0.06,0.0,f
3027.0,3047.0,2933.0,3313.0,3235.0,3919.0,4095.0,4095.0,-1.77,9.14,8.09,-0.2,-0.32,-0.19,0.0,f
3039.0,3041.0,2930.0,3387.0,3342.0,4018.0,4095.0,4095.0,-1.73,9.14,8.37,-0.09,-0.11,-0.28,0.0,f
3034.0,3020.0,2949.0,3493.0,3504.0,4095.0,4095.0,4095.0,-2.02,9.43,8.18,0.03,-0.27,-0.39,0.0,f
3037.0,3008.0,2938.0,3600.0,3648.0,4095.0,4095.0,4095.0,-3.06,9.05,8.59,-0.06,-0.42,-0.46,0.0,f
3034.0,3008.0,2951.0,3685.0,3699.0,4095.0,4095.0,4095.0,-2.36,9.1,8.39,0.2,-0.33,-0.52,0.0,f
3031.0,3007.0,2941.0,3711.0,3792.0,4095.0,4095.0,4095.0,-2.78,9.28,8.31,0.35,-0.21,-0.51,0.0,f
3026.0,3011.0,2933.0,3728.0,3871.0,4095.0,4095.0,4095.0,-3.05,9.19,7.75,0.21,-0.35,-0.34,0.0,f
3038.0,3001.0,2935.0,3711.0,3894.0,4095.0,4095.0,4095.0,-3.31,9.02,8.92,0.53,-0.25,-0.49,0.0,f
3039.0,2996.0,2949.0,3738.0,3903.0,4095.0,4095.0,4095.0,-2.79,8.72,7.35,0.15,-0.49,-0.42,0.0,f
3024.0,3003.0,2938.0,3744.0,3915.0,4095.0,4095.0,4095.0,-3.1,8.75,8.66,0.33,-0.26,-0.71,0.0,f
3038.0,3003.0,2943.0,3706.0,3913.0,4095.0,4095.0,4095.0,-2.45,8.41,7.78,0.24,-0.41,-0.56,0.0,f
3027.0,3004.0,2939.0,3731.0,3903.0,4095.0,4095.0,4095.0,-3.49,8.6,7.75,0.4,-0.25,-0.65,0.0,f
3038.0,2993.0,2935.0,3728.0,3887.0,4056.0,4095.0,4095.0,-3.18,8.65,8.03,0.44,-0.33,-0.54,0.0,f
3025.0,2996.0,2939.0,3717.0,3905.0,4095.0,4095.0,4095.0,-3.75,8.8,7.56,0.48,-0.5,-0.67,0.0,f
3024.0,3009.0,2940.0,3713.0,3899.0,4018.0,4095.0,4095.0,-3.53,8.05,6.4,0.24,-0.58,-0.55,0.0,f
3035.0,3005.0,2948.0,3708.0,3902.0,3757.0,4095.0,4095.0,-3.94,8.32,6.51,0.38,-0.4,-0.67,0.0,f
3035.0,3001.0,2947.0,3708.0,3915.0,3730.0,4095.0,4095.0,-4.31,7.27,6.94,0.09,-0.47,-0.52,0.0,f
3022.0,3014.0,2941.0,3697.0,3910.0,3907.0,4095.0,4095.0,-3.7,7.62,7.37,-0.07,-0.41,-0.38,0.0,f
3019.0,3008.0,2935.0,3694.0,3906.0,3793.0,4095.0,4095.0,-3.86,7.05,7.33,-0.1,-0.63,-0.37,0.0,f
3022.0,3001.0,2948.0,3705.0,3904.0,3907.0,4095.0,4095.0,-4.14,7.63,7.85,-0.05,-0.42,-0.24,0.0,f
3024.0,3003.0,2935.0,3715.0,3915.0,3909.0,4095.0,4095.0,-3.92,7.73,7.8,-0.11,-0.36,-0.33,0.0,f
3034.0,3019.0,2935.0,3714.0,3905.0,3920.0,4095.0,4095.0,-4.2,8.33,7.7,-0.3,-0.41,-0.36,0.0,f
3024.0,3017.0,2943.0,3727.0,3884.0,4095.0,4095.0,4095.0,-5.05,8.29,8.34,-0.19,-0.08,-0.16,0.0,f
3034.0,3008.0,2939.0,3754.0,3789.0,4095.0,4095.0,4095.0,-5.46,8.0,9.07,-0.06,-0.08,-0.24,0.0,f
3037.0,3024.0,2939.0,3741.0,3802.0,4091.0,4095.0,4095.0,-5.24,8.46,8.57,-0.03,0.02,-0.08,0.0,f
3022.0,3021.0,2934.0,3724.0,3810.0,4015.0,4095.0,4095.0,-4.43,7.79,9.31,0.23,0.19,-0.02,0.0,f
3034.0,3024.0,2931.0,3722.0,3823.0,3595.0,4095.0,4095.0,-4.17,7.92,8.0,0.28,0.03,-0.18,0.0,f
3029.0,3012.0,2941.0,3706.0,3822.0,3646.0,4095.0,4095.0,-4.88,8.14,7.69,0.33,0.32,0.03,0.0,f
3024.0,3005.0,2935.0,3701.0,3809.0,3551.0,4095.0,4095.0,-3.99,7.37,7.14,0.05,0.19,-0.02,0.0,f
3036.0,3019.0,2945.0,3713.0,3824.0,3431.0,4095.0,4095.0,-4.06,7.35,6.72,-0.03,0.42,0.15,0.0,f
3024.0,3021.0,2943.0,3714.0,3826.0,3470.0,4095.0,4095.0,-4.26,7.73,7.31,-0.08,0.25,0.09,0.0,f
3029.0,3019.0,2943.0,3728.0,3838.0,3500.0,4095.0,4095.0,-4.17,7.66,7.6,-0.37,0.36,0.21,0.0,f
3022.0,3007.0,2941.0,3721.0,3837.0,3504.0,4095.0,4095.0,-3.84,7.62,7.89,-0.4,0.42,0.3,0.0,f
3031.0,3022.0,2939.0,3729.0,3839.0,3559.0,4095.0,4095.0,-4.26,7.8,7.9,-0.37,0.48,0.39,0.0,f
3029.0,3007.0,2935.0,3731.0,3850.0,3619.0,4095.0,4095.0,-4.28,7.95,8.04,-0.45,0.57,0.48,0.0,f
3043.0,3015.0,2946.0,3779.0,3867.0,3695.0,4095.0,4095.0,-3.97,8.74,8.31,-0.44,0.57,0.68,0.0,f
3024.0,3011.0,2943.0,3937.0,3895.0,3696.0,4095.0,4095.0,-2.63,8.68,8.19,-0.43,0.36,0.61,0.0,f
3037.0,3027.0,2942.0,4019.0,3889.0,3728.0,4095.0,4095.0,-2.04,9.36,8.79,-0.37,0.62,0.61,0.0,f
3027.0,3021.0,2940.0,4010.0,3887.0,3821.0,4095.0,4095.0,-1.89,9.5,8.77,-0.18,0.43,0.41,0.0,f
3031.0,3020.0,2945.0,3856.0,3875.0,3827.0,4095.0,4095.0,-1.68,9.36,8.06,-0.09,0.66,0.24,0.0,f
3026.0,3024.0,2943.0,3674.0,3760.0,3830.0,4095.0,4095.0,-2.17,9.19,8.29,-0.02,0.57,0.11,0.0,f
3026.0,3031.0,2946.0,3505.0,3605.0,3808.0,4095.0,4095.0,-2.38,8.78,7.73,-0.06,0.45,0.09,0.0,f
3024.0,3041.0,2943.0,3342.0,3489.0,3761.0,4095.0,4095.0,-1.95,8.44,7.3,-0.11,0.56,0.03,0.0,f
3025.0,3039.0,2943.0,3334.0,3370.0,3764.0,4095.0,4095.0,-2.36,8.37,7.42,-0.22,0.52,0.0,0.0,f
3031.0,3043.0,2943.0,3355.0,3387.0,3744.0,4095.0,4095.0,-2.43,8.28,6.98,-0.32,0.28,-0.04,0.0,f
3024.0,3050.0,2943.0,3363.0,3395.0,3728.0,4095.0,4095.0,-1.98,8.0,7.79,-0.54,0.15,0.07,0.0,f
3037.0,3051.0,2946.0,3439.0,3473.0,3778.0,4095.0,4095.0,-0.77,7.65,8.37,-0.54,-0.12,-0.01,0.0,f
3035.0,3023.0,2931.0,3514.0,3555.0,3806.0,4095.0,4095.0,-0.65,7.75,8.91,-0.53,-0.07,-0.23,0.0,f
3021.0,3024.0,2931.0,3664.0,3632.0,3857.0,4095.0,4095.0,-1.84,8.61,8.83,-0.51,-0.22,-0.54,0.0,f
3024.0,3020.0,2941.0,3811.0,3751.0,3906.0,4095.0,4095.0,-1.21,8.71,9.28,-0.43,-0.44,-0.69,0.0,f
3034.0,3021.0,2941.0,3846.0,3776.0,3903.0,4095.0,4095.0,-2.01,8.86,9.79,-0.43,-0.4,-0.76,0.0,f
3032.0,3019.0,2944.0,3842.0,3782.0,3920.0,4095.0,4095.0,-1.13,8.74,9.35,-0.25,-0.63,-1.0,0.0,f
3027.0,3035.0,2934.0,3839.0,3791.0,3930.0,4095.0,4095.0,-4.4,7.82,11.15,-0.32,-0.43,-0.71,0.0,f
3039.0,3025.0,2945.0,3795.0,3797.0,3993.0,4095.0,4095.0,-3.92,8.2,11.52,0.07,-0.77,-0.53,0.0,f
3035.0,3025.0,2942.0,3787.0,3807.0,4038.0,4095.0,4095.0,-2.09,8.49,10.84,0.36,-0.61,-0.53,0.0,f
3039.0,3008.0,2942.0,3792.0,3804.0,4075.0,4095.0,4095.0,-2.32,8.05,11.0,0.42,-0.34,-0.65,0.0,f
3027.0,3022.0,2938.0,3818.0,3815.0,4080.0,4095.0,4095.0,-3.88,7.87,10.82,0.52,-0.26,-0.72,0.0,f
3024.0,3013.0,2938.0,3855.0,3819.0,4095.0,4095.0,4095.0,-3.36,7.68,10.49,0.7,-0.36,-0.7,0.0,f
3033.0,3017.0,2934.0,3867.0,3811.0,4095.0,4095.0,4095.0,-3.0,7.81,9.64,0.88,-0.29,-0.65,0.0,f
3029.0,3029.0,2947.0,3867.0,3825.0,4095.0,4095.0,4095.0,-3.08,7.82,9.21,0.74,-0.37,-0.66,0.0,f
3024.0,3024.0,2940.0,3867.0,3823.0,4095.0,4095.0,4095.0,-3.62,7.8,9.12,0.72,-0.27,-0.58,0.0,f
3033.0,3027.0,2938.0,3731.0,3769.0,4095.0,4095.0,4095.0,-4.06,7.47,9.07,0.48,-0.39,-0.35,0.0,f
3037.0,3037.0,2942.0,3609.0,3664.0,4031.0,4095.0,4095.0,-3.92,7.59,9.2,0.68,-0.43,-0.32,0.0,f
3024.0,3027.0,2944.0,3462.0,3535.0,3967.0,4095.0,4095.0,-3.78,7.18,9.12,0.67,-0.48,-0.27,0.0,f
3033.0,3037.0,2949.0,3456.0,3491.0,3953.0,4095.0,4095.0,-3.32,7.82,8.57,0.75,-0.1,-0.27,0.0,f
3024.0,3046.0,2935.0,3543.0,3502.0,3947.0,4095.0,4095.0,-3.69,7.88,7.74,0.67,-0.09,-0.43,0.0,f
3035.0,3036.0,2934.0,3568.0,3518.0,3957.0,4095.0,4095.0,-4.0,7.77,7.42,0.4,-0.03,-0.48,0.0,f
3037.0,3029.0,2941.0,3693.0,3647.0,3991.0,4095.0,4095.0,-3.9,7.69,7.51,0.37,-0.04,-0.47,0.0,f
3031.0,3015.0,2930.0,3914.0,3855.0,4095.0,4095.0,4095.0,-3.83,7.88,7.24,0.31,-0.08,-0.51,0.0,f
3038.0,3037.0,2934.0,3976.0,3920.0,4095.0,4095.0,4095.0,-3.54,8.03,6.92,0.24,-0.18,-0.38,0.0,f
3025.0,3030.0,2933.0,3984.0,3921.0,4095.0,4095.0,4095.0,-3.84,8.06,6.91,0.24,-0.22,-0.24,0.0,f
3040.0,3028.0,2936.0,3958.0,3915.0,4095.0,4095.0,4095.0,-3.2,7.97,6.64,0.14,-0.82,-0.4,0.0,f
3026.0,3024.0,2939.0,3913.0,3924.0,4095.0,4095.0,4095.0,-3.45,7.65,7.38,0.0,-0.55,-0.54,0.0,f
3040.0,3035.0,2943.0,3737.0,3779.0,4095.0,4095.0,4095.0,-4.76,7.63,7.37,-0.17,-0.08,-0.29,0.0,f
3026.0,3042.0,2950.0,3632.0,3701.0,4043.0,4095.0,4095.0,-5.66,7.27,7.9,-0.18,-0.05,-0.16,0.0,f
3031.0,3047.0,2937.0,3536.0,3600.0,3837.0,4095.0,4095.0,-5.57,8.16,7.73,-0.29,-0.02,0.01,0.0,f
3038.0,3047.0,2947.0,3440.0,3430.0,3659.0,4095.0,4095.0,-4.74,8.03,8.11,-0.3,0.03,0.16,0.0,f
3026.0,3058.0,2933.0,3332.0,3361.0,3655.0,4095.0,4095.0,-4.76,7.38,8.26,-0.38,0.25,0.19,0.0,f
3030.0,3059.0,2939.0,3311.0,3331.0,3637.0,4095.0,4095.0,-4.43,8.19,8.15,-0.34,0.56,0.37,0.0,f
3039.0,3056.0,2943.0,3310.0,3324.0,3632.0,4095.0,4095.0,-3.88,7.8,8.46,-0.39,0.7,0.42,0.0,f
3026.0,3056.0,2941.0,3427.0,3433.0,3654.0,4095.0,4095.0,-3.79,8.14,8.45,-0.33,0.71,0.23,0.0,f
3029.0,3056.0,2935.0,3504.0,3497.0,3683.0,4095.0,4095.0,-3.92,8.5,8.5,-0.57,0.75,0.42,0.0,f
3037.0,3067.0,2939.0,3570.0,3549.0,3713.0,4095.0,4095.0,-3.15,8.33,8.98,-0.39,0.64,0.38,0.0,f
3041.0,3058.0,2946.0,3579.0,3555.0,3714.0,4095.0,4095.0,-2.63,8.27,8.93,-0.26,0.54,0.24,0.0,f
3035.0,3061.0,2930.0,3514.0,3529.0,3701.0,4095.0,4095.0,-2.78,8.46,8.72,-0.21,0.53,0.2,0.0,f
3035.0,3069.0,2949.0,3408.0,3412.0,3664.0,4095.0,4095.0,-2.37,8.59,8.47,-0.14,0.35,0.13,0.0,f
3038.0,3085.0,2945.0,3367.0,3348.0,3583.0,4095.0,4095.0,-2.59,8.63,8.09,-0.1,0.39,0.03,0.0,f
3027.0,3063.0,2934.0,3357.0,3335.0,3561.0,4095.0,4095.0,-2.94,8.43,8.23,0.0,0.31,-0.1,0.0,f
3039.0,3081.0,2943.0,3481.0,3383.0,3558.0,4095.0,4095.0,-3.03,8.43,8.17,0.05,0.21,-0.12,0.0,f
3031.0,3061.0,2932.0,3536.0,3424.0,3551.0,4095.0,4095.0,-3.28,8.63,7.8,0.09,0.26,-0.12,0.0,f
3041.0,3084.0,2949.0,3603.0,3485.0,3563.0,4095.0,4095.0,-3.26,8.51,7.97,0.04,0.07,-0.06,0.0,f
3024.0,3081.0,2944.0,3550.0,3490.0,3568.0,4095.0,4095.0,-3.15,8.46,7.96,-0.06,0.07,-0.08,0.0,f
3022.0,3079.0,2932.0,3499.0,3472.0,3571.0,4095.0,4095.0,-3.47,8.55,7.88,-0.08,0.27,0.0,0.0,f
3038.0,3071.0,2944.0,3429.0,3401.0,3579.0,4095.0,4095.0,-3.28,8.3,7.98,-0.1,0.09,-0.03,0.0,f
3028.0,3088.0,2941.0,3403.0,3382.0,3582.0,4095.0,4095.0,-3.34,8.38,7.96,-0.11,0.09,-0.08,0.0,f
3036.0,3087.0,2935.0,3342.0,3365.0,3581.0,4095.0,4095.0,-3.61,8.26,8.42,-0.08,0.14,0.01,0.0,f
3031.0,3089.0,2945.0,3277.0,3342.0,3538.0,4095.0,4095.0,-3.22,8.09,8.57,0.05,0.03,-0.04,0.0,f
3021.0,3071.0,2944.0,3338.0,3376.0,3539.0,4095.0,4095.0,-3.23,8.51,8.14,0.08,0.2,-0.06,0.0,f
3041.0,3085.0,2941.0,3395.0,3404.0,3555.0,4095.0,4095.0,-3.11,8.67,7.89,-0.02,0.13,-0.03,0.0,f
3042.0,3088.0,2940.0,3359.0,3366.0,3563.0,4095.0,4095.0,-3.12,8.49,7.93,-0.14,0.21,0.04,0.0,f
3024.0,3082.0,2933.0,3285.0,3289.0,3563.0,4095.0,4095.0,-2.96,8.38,8.19,-0.12,0.19,-0.04,0.0,f
3034.0,3093.0,2944.0,3195.0,3221.0,3563.0,4095.0,4095.0,-3.02,8.32,8.39,-0.1,0.11,-0.03,0.0,f
3037.0,3095.0,2945.0,3114.0,3162.0,3557.0,4095.0,4095.0,-3.03,8.41,8.22,0.01,0.19,-0.01,0.0,f
3035.0,3093.0,2945.0,3164.0,3161.0,3537.0,4095.0,4095.0,-3.14,8.4,7.94,-0.03,0.12,-0.01,0.0,f
3040.0,3088.0,2947.0,3236.0,3205.0,3536.0,4095.0,4095.0,-3.4,8.22,7.78,-0.08,0.2,0.02,0.0,f
3039.0,3098.0,2939.0,3299.0,3248.0,3536.0,4095.0,4095.0,-2.86,7.47,7.62,-0.15,0.04,0.16,0.0,f
3030.0,3091.0,2942.0,3286.0,3280.0,3536.0,4095.0,4095.0,-2.55,7.89,7.78,-0.29,0.24,0.48,0.0,f
3039.0,3101.0,2937.0,3274.0,3281.0,3539.0,4095.0,4095.0,-1.84,8.25,7.93,-0.38,0.19,0.36,0.0,f
3036.0,3089.0,2940.0,3253.0,3217.0,3539.0,4095.0,4095.0,-1.64,8.8,8.24,-0.47,-0.12,-0.02,0.0,f
3027.0,3098.0,2941.0,3249.0,3210.0,3550.0,4095.0,4095.0,-1.81,8.69,9.09,-0.47,0.02,-0.08,0.0,f
3038.0,3088.0,2939.0,3294.0,3223.0,3542.0,4095.0,4095.0,-1.06,8.77,9.48,-0.33,-0.09,-0.23,0.0,f
3046.0,3107.0,2943.0,3327.0,3283.0,3553.0,4095.0,4095.0,-1.64,8.67,9.98,-0.15,-0.08,-0.35,0.0,f
3041.0,3090.0,2944.0,3365.0,3344.0,3565.0,4095.0,4095.0,-2.17,8.87,9.7,0.05,-0.11,-0.32,0.0,f
3029.0,3105.0,2948.0,3376.0,3374.0,3557.0,4095.0,4095.0,-1.83,9.29,9.03,0.16,-0.15,-0.33,0.0,f
3026.0,3103.0,2933.0,3373.0,3365.0,3561.0,4095.0,4095.0,-2.21,9.69,8.97,0.24,-0.34,-0.58,0.0,f
3028.0,3101.0,2933.0,3315.0,3331.0,3559.0,4095.0,4095.0,-2.29,9.36,8.54,0.17,-0.4,-0.69,0.0,f
3034.0,3101.0,2943.0,3265.0,3263.0,3563.0,4095.0,4095.0,-2.66,8.53,8.79,0.13,-0.44,-0.69,0.0,f
3037.0,3088.0,2943.0,3238.0,3219.0,3561.0,4095.0,4095.0,-2.82,8.03,9.41,0.18,-0.47,-0.55,0.0,f
3031.0,3101.0,2946.0,3263.0,3247.0,3568.0,4095.0,4095.0,-2.86,7.57,9.41,0.37,-0.52,-0.39,0.0,f
3026.0,3102.0,2938.0,3299.0,3263.0,3563.0,4095.0,4095.0,-2.34,7.91,9.17,0.34,-0.55,-0.46,0.0,f
3042.0,3099.0,2933.0,3290.0,3271.0,3558.0,4095.0,4095.0,-2.66,7.9,9.34,0.41,-0.49,-0.49,0.0,f
3034.0,3095.0,2946.0,3314.0,3282.0,3569.0,4095.0,4095.0,-2.58,7.86,9.4,0.34,-0.45,-0.55,0.0,f
3039.0,3069.0,2942.0,3297.0,3241.0,3623.0,4095.0,4095.0,-2.57,7.85,8.59,0.33,-0.45,-0.62,0.0,f
3027.0,3083.0,2937.0,3177.0,3120.0,3629.0,4095.0,4095.0,-3.25,7.75,8.97,0.3,-0.28,-0.6,0.0,f
3041.0,3068.0,2929.0,3153.0,3127.0,3617.0,4095.0,4095.0,-4.23,7.69,8.75,0.39,-0.3,-0.52,0.0,f
3039.0,3079.0,2943.0,3115.0,3091.0,3618.0,4095.0,4095.0,-3.53,8.12,8.35,0.27,-0.43,-0.49,0.0,f
3035.0,3071.0,2950.0,3125.0,3089.0,3630.0,4095.0,4095.0,-3.52,7.95,8.16,0.27,-0.25,-0.41,0.0,f
3035.0,3079.0,2946.0,3091.0,3054.0,3684.0,4095.0,4095.0,-3.84,7.67,8.56,0.04,-0.12,-0.43,0.0,f
3031.0,3031.0,2933.0,3119.0,3088.0,3699.0,4095.0,4095.0,-3.67,8.15,7.69,0.27,0.03,-0.35,0.0,f
3053.0,3012.0,2942.0,3122.0,3104.0,3648.0,4095.0,4095.0,-4.21,7.95,9.04,0.03,-0.19,-0.34,0.0,f
3056.0,3008.0,2931.0,3127.0,3139.0,3409.0,4095.0,4095.0,-3.5,8.14,8.11,0.11,-0.29,-0.39,0.0,f
3035.0,3021.0,2939.0,3136.0,3152.0,3548.0,4095.0,4095.0,-4.12,7.93,8.8,0.15,0.09,-0.28,0.0,f
3031.0,3010.0,2947.0,3147.0,3171.0,3347.0,4095.0,4095.0,-3.63,8.04,7.91,0.01,-0.21,-0.2,0.0,f
3026.0,3010.0,2931.0,3085.0,3178.0,3419.0,4095.0,4095.0,-4.09,8.22,8.79,0.21,0.01,-0.41,0.0,f
3017.0,3015.0,2943.0,3101.0,3184.0,3248.0,4095.0,4095.0,-3.84,8.17,7.93,-0.04,-0.1,-0.18,0.0,f
3008.0,3007.0,2935.0,3109.0,3189.0,3295.0,4095.0,4095.0,-4.21,8.1,8.38,0.23,0.07,-0.28,0.0,f
3001.0,3003.0,2935.0,3120.0,3202.0,3291.0,4095.0,4095.0,-3.54,8.22,7.97,-0.01,-0.05,-0.17,0.0,f
3008.0,3008.0,2943.0,3120.0,3211.0,3296.0,4095.0,4095.0,-3.88,8.09,8.14,-0.04,0.06,-0.24,0.0,f
3012.0,3013.0,2944.0,3136.0,3214.0,3298.0,4095.0,4095.0,-4.43,7.64,8.56,-0.13,0.07,-0.14,0.0,f
3021.0,3004.0,2931.0,3150.0,3248.0,3285.0,4095.0,4095.0,-4.64,7.74,8.9,-0.1,0.24,0.02,0.0,f
3021.0,3008.0,2941.0,3153.0,3250.0,3299.0,4095.0,4095.0,-4.24,7.83,8.92,-0.03,0.11,0.1,0.0,f
3027.0,3007.0,2946.0,3165.0,3253.0,3382.0,4095.0,4095.0,-3.74,8.22,8.08,-0.15,0.09,0.01,0.0,f
3027.0,3010.0,2946.0,3175.0,3259.0,3422.0,4095.0,4095.0,-4.08,7.7,8.83,-0.03,0.44,0.13,0.0,f
3006.0,3005.0,2939.0,3185.0,3260.0,3379.0,4095.0,4095.0,-4.79,7.76,9.02,0.09,0.61,0.25,0.0,f
2992.0,3009.0,2944.0,3179.0,3262.0,3365.0,4095.0,4095.0,-4.36,8.18,8.94,0.02,0.53,0.38,0.0,f
2980.0,3008.0,2942.0,3181.0,3265.0,3418.0,4095.0,4095.0,-3.59,8.47,8.78,0.23,0.65,0.52,0.0,f
2865.0,3003.0,2935.0,3182.0,3269.0,3441.0,4095.0,4095.0,-2.7,8.09,8.0,0.23,0.54,0.43,0.0,f
2938.0,2999.0,2935.0,3163.0,3265.0,3472.0,4095.0,4095.0,-2.66,8.86,7.38,0.19,0.61,0.24,0.0,f
2955.0,2999.0,2939.0,3178.0,3279.0,3505.0,4095.0,4095.0,-2.34,8.77,7.36,0.22,0.44,0.26,0.0,f
2979.0,3002.0,2951.0,3198.0,3278.0,3526.0,4095.0,4095.0,-2.18,8.98,6.73,0.2,0.29,0.07,0.0,f
3005.0,3014.0,2943.0,3190.0,3299.0,3831.0,4095.0,4095.0,-1.53,9.0,6.41,0.17,0.29,-0.16,0.0,f
3024.0,3019.0,2944.0,3183.0,3297.0,4095.0,4095.0,4095.0,-2.09,9.7,6.02,0.23,0.39,0.14,0.0,f
3015.0,2996.0,2937.0,3153.0,3299.0,4095.0,4095.0,4095.0,-2.58,8.95,6.73,0.13,-0.17,-0.28,0.0,f
3007.0,3006.0,2937.0,3117.0,3302.0,4095.0,4095.0,4095.0,-2.57,9.8,6.01,0.27,-0.01,-0.06,0.0,f
2992.0,3009.0,2943.0,3119.0,3308.0,4095.0,4095.0,4095.0,-2.52,9.11,6.29,-0.14,0.01,-0.09,0.0,f
3024.0,2999.0,2945.0,3113.0,3301.0,4095.0,4095.0,4095.0,-3.15,9.4,6.85,-0.16,0.16,-0.04,0.0,f
3027.0,3010.0,2941.0,3148.0,3314.0,4095.0,4095.0,4095.0,-2.8,9.23,7.02,-0.04,0.06,-0.08,0.0,f
3025.0,3006.0,2940.0,3152.0,3310.0,4095.0,4095.0,4095.0,-2.19,8.99,6.92,-0.08,-0.0,-0.03,0.0,f
3033.0,3008.0,2939.0,3166.0,3321.0,4095.0,4095.0,4095.0,-2.16,9.34,6.69,-0.03,-0.02,-0.12,0.0,f
3030.0,3011.0,2928.0,3163.0,3319.0,4095.0,4095.0,4095.0,-2.68,9.01,6.95,0.05,0.03,-0.21,0.0,f
3022.0,3008.0,2937.0,3166.0,3326.0,4095.0,4095.0,4095.0,-2.6,9.0,6.74,0.09,0.1,0.07,0.0,f
3024.0,3011.0,2932.0,3163.0,3323.0,4095.0,4095.0,4095.0,-2.39,9.21,6.75,0.02,-0.15,-0.27,0.0,f
3019.0,2993.0,2941.0,3148.0,3326.0,4095.0,4095.0,4095.0,-2.75,8.93,7.07,0.0,-0.04,-0.18,0.0,f
3030.0,3008.0,2951.0,3154.0,3335.0,4095.0,4095.0,4095.0,-2.64,9.03,6.84,0.03,0.02,-0.18,0.0,f
3021.0,3007.0,2933.0,3152.0,3327.0,4095.0,4095.0,4095.0,-2.87,9.02,6.92,0.01,-0.02,-0.2,0.0,f
3039.0,3018.0,2938.0,3166.0,3339.0,4095.0,4095.0,4095.0,-2.67,9.18,6.99,-0.0,-0.06,-0.18,0.0,f
3024.0,2995.0,2943.0,3169.0,3329.0,4095.0,4095.0,4095.0,-2.67,9.31,7.05,0.01,0.15,-0.14,0.0,f
3034.0,3009.0,2944.0,3171.0,3330.0,4095.0,4095.0,4095.0,-3.35,9.43,6.87,-0.03,0.2,-0.23,0.0,f
3038.0,3008.0,2945.0,3183.0,3334.0,4095.0,4095.0,4095.0,-3.14,9.22,6.48,-0.02,0.13,-0.18,0.0,f
3046.0,3013.0,2943.0,3206.0,3294.0,4095.0,4095.0,4095.0,-2.8,8.61,7.16,-0.1,0.14,-0.06,0.0,f
3025.0,3023.0,2945.0,3209.0,3297.0,4095.0,4095.0,4095.0,-3.06,8.23,7.03,0.01,0.25,0.01,0.0,f
3024.0,3010.0,2930.0,3141.0,3248.0,4095.0,4095.0,4095.0,-2.83,8.64,6.59,-0.06,0.18,0.05,0.0,f
3033.0,3020.0,2950.0,3136.0,3238.0,4095.0,4095.0,4095.0,-2.73,8.62,6.56,-0.06,0.27,0.08,0.0,f
3024.0,3019.0,2949.0,3151.0,3244.0,4095.0,4095.0,4095.0,-2.03,8.73,6.26,-0.14,0.11,-0.03,0.0,f
3026.0,3024.0,2945.0,3194.0,3278.0,4095.0,4095.0,4095.0,-1.93,8.75,6.43,-0.35,0.09,-0.08,0.0,f
3035.0,3027.0,2942.0,3263.0,3351.0,4095.0,4095.0,4095.0,-1.48,9.56,6.94,-0.27,-0.07,-0.21,0.0,f
3030.0,3030.0,2932.0,3275.0,3359.0,4095.0,4095.0,4095.0,-2.48,9.17,7.78,-0.3,0.04,0.04,0.0,f
3029.0,3031.0,2945.0,3318.0,3453.0,4095.0,4095.0,4095.0,-1.99,9.54,7.03,-0.05,-0.34,-0.13,0.0,f
3031.0,3024.0,2931.0,3335.0,3453.0,4095.0,4095.0,4095.0,-1.62,9.57,7.3,-0.16,-0.35,-0.21,0.0,f
3043.0,3047.0,2941.0,3303.0,3429.0,4095.0,4095.0,4095.0,-2.35,9.47,7.35,-0.1,-0.28,-0.19,0.0,f
3043.0,3038.0,2933.0,3262.0,3375.0,3950.0,4095.0,4095.0,-1.9,9.63,7.34,-0.06,-0.55,-0.3,0.0,f
3045.0,3039.0,2945.0,3216.0,3297.0,3810.0,4095.0,4095.0,-2.0,9.38,7.77,-0.09,-0.44,-0.25,0.0,f
3037.0,3054.0,2938.0,3209.0,3271.0,3755.0,4095.0,4095.0,-1.52,9.04,8.08,-0.01,-0.79,-0.55,0.0,f
3027.0,3047.0,2941.0,3221.0,3273.0,3754.0,4095.0,4095.0,-2.28,8.71,8.56,0.03,-0.52,-0.54,0.0,f
3042.0,3053.0,2943.0,3267.0,3299.0,3781.0,4095.0,4095.0,-1.18,8.63,8.49,0.04,-0.76,-0.9,0.0,f
3033.0,3037.0,2942.0,3349.0,3376.0,3824.0,4095.0,4095.0,-2.72,8.86,8.14,0.19,-0.64,-1.22,0.0,f
3041.0,3049.0,2935.0,3361.0,3387.0,3821.0,4095.0,4095.0,-3.2,8.71,8.09,-0.01,-0.56,-0.78,0.0,f
3038.0,3057.0,2944.0,3376.0,3405.0,3840.0,4095.0,4095.0,-4.59,8.03,8.88,-0.02,-0.13,-0.63,0.0,f
3029.0,3053.0,2939.0,3371.0,3402.0,3867.0,4095.0,4095.0,-3.91,8.25,8.71,0.11,-0.33,-0.46,0.0,f
3031.0,3047.0,2931.0,3319.0,3354.0,3836.0,4095.0,4095.0,-4.6,7.99,8.73,0.14,-0.04,-0.19,0.0,f
3040.0,3057.0,2943.0,3305.0,3334.0,3766.0,4095.0,4095.0,-4.49,8.23,8.4,0.19,0.04,-0.01,0.0,f
3037.0,3060.0,2944.0,3312.0,3341.0,3753.0,4095.0,4095.0,-3.81,8.24,8.42,0.16,-0.02,0.01,0.0,f
3041.0,3058.0,2935.0,3286.0,3301.0,3728.0,4095.0,4095.0,-3.02,8.2,8.16,0.04,0.02,0.02,0.0,f
3027.0,3051.0,2938.0,3273.0,3280.0,3712.0,4095.0,4095.0,-2.14,8.03,8.16,0.03,-0.11,-0.18,0.0,f
3024.0,3056.0,2939.0,3289.0,3283.0,3709.0,4095.0,4095.0,-2.51,8.01,8.09,0.02,0.02,-0.26,0.0,f
