hall_1,hall_2,hall_3,flex_t,flex_i,flex_m,flex_r,flex_p,accel_x,accel_y,accel_z,gyro_x,gyro_y,gyro_z,hand,sign
3120.0,937.0,2355.0,4095.0,4095.0,4095.0,4095.0,3005.0,-1.46,6.88,5.72,-0.44,-0.08,-1.31,1.0,fine
3274.0,976.0,2402.0,4095.0,4095.0,4095.0,4095.0,2987.0,0.75,6.85,7.84,0.11,0.58,1.3,1.0,fine
3152.0,1005.0,2537.0,4095.0,4095.0,4095.0,4095.0,3221.0,12.52,7.15,4.17,-0.01,0.03,-0.88,1.0,fine
3357.0,1004.0,2494.0,4095.0,4095.0,4095.0,4095.0,3349.0,-7.99,6.37,9.82,-0.04,0.16,-0.2,1.0,fine
3293.0,1013.0,2547.0,4095.0,4095.0,4095.0,4095.0,3443.0,9.96,7.21,6.74,-0.06,-0.06,1.06,1.0,fine
3345.0,1008.0,2510.0,4095.0,4095.0,4095.0,4095.0,3408.0,-1.66,6.39,8.14,-0.47,0.02,-1.32,1.0,fine
3409.0,1015.0,2539.0,4095.0,4095.0,4095.0,4095.0,3498.0,2.63,6.95,5.11,-0.02,0.91,1.66,1.0,fine
3150.0,997.0,2595.0,4095.0,4095.0,4095.0,4095.0,3458.0,6.85,6.3,5.55,-0.65,0.57,-1.54,1.0,fine
3323.0,957.0,2605.0,4095.0,4095.0,4095.0,4095.0,3418.0,-1.91,7.39,7.29,-0.36,0.06,-0.63,1.0,fine
3329.0,966.0,2609.0,4095.0,4095.0,4095.0,4095.0,3355.0,2.31,7.63,7.38,-0.11,-0.13,-0.21,1.0,fine
3357.0,967.0,2610.0,4095.0,4095.0,4095.0,4095.0,3437.0,1.64,6.7,8.2,-0.1,0.01,-0.38,1.0,fine
3379.0,973.0,2603.0,4095.0,4095.0,4095.0,4095.0,3504.0,1.63,6.78,7.58,-0.12,-0.14,0.0,1.0,fine
3387.0,974.0,2608.0,4095.0,4095.0,4095.0,4095.0,3511.0,1.39,6.54,7.33,0.04,-0.11,-0.06,1.0,fine
3411.0,973.0,2607.0,4095.0,4095.0,4095.0,4095.0,3527.0,2.03,6.42,7.95,-0.1,-0.07,-0.2,1.0,fine
3411.0,961.0,2606.0,4095.0,4095.0,4095.0,4095.0,3527.0,2.16,7.19,7.65,-0.2,0.04,-0.07,1.0,fine
3415.0,969.0,2602.0,4095.0,4095.0,4095.0,4095.0,3563.0,1.43,6.33,7.25,-0.06,0.13,0.02,1.0,fine
3440.0,975.0,2605.0,4095.0,4095.0,4095.0,4095.0,3506.0,1.34,7.23,7.3,-0.13,0.22,0.0,1.0,fine
3403.0,962.0,2591.0,4095.0,4095.0,4095.0,4095.0,3529.0,1.19,6.99,7.28,0.05,0.18,-0.0,1.0,fine
3408.0,976.0,2598.0,4095.0,4095.0,4095.0,4095.0,3519.0,1.26,6.25,7.94,0.11,-0.19,-0.05,1.0,fine
3406.0,970.0,2593.0,4095.0,4095.0,4095.0,4095.0,3511.0,1.39,7.3,7.16,-0.12,-0.17,-0.25,1.0,fine
3187.0,931.0,2554.0,4095.0,4095.0,4095.0,4095.0,3511.0,1.68,7.13,7.25,-0.02,-0.08,-0.01,1.0,fine
3215.0,921.0,2554.0,4095.0,4095.0,4095.0,4095.0,3531.0,2.08,7.18,7.13,-0.05,-0.06,-0.1,1.0,fine
3269.0,925.0,2553.0,4095.0,4095.0,4095.0,4095.0,3491.0,1.91,7.06,6.7,-0.08,-0.18,-0.22,1.0,fine
3273.0,934.0,2535.0,4095.0,4095.0,4095.0,4095.0,3465.0,-2.65,7.48,8.49,-0.13,0.01,0.04,1.0,fine
3263.0,958.0,2683.0,4095.0,4095.0,4095.0,4095.0,3415.0,2.49,6.72,7.72,0.78,0.45,1.35,1.0,fine
3157.0,991.0,2704.0,3823.0,4095.0,4095.0,4095.0,3426.0,10.92,7.35,3.67,0.12,-0.58,-0.27,1.0,fine
3040.0,976.0,2678.0,4095.0,4095.0,4095.0,4095.0,3519.0,-6.65,5.95,9.16,-0.66,-0.44,-0.87,1.0,fine
3149.0,986.0,2701.0,4095.0,4095.0,4095.0,4095.0,3483.0,3.26,6.95,6.72,0.07,0.7,1.32,1.0,fine
3065.0,986.0,2706.0,4095.0,4095.0,4095.0,4095.0,3575.0,7.84,6.69,5.17,-0.46,-0.07,-1.41,1.0,fine
3162.0,1015.0,2705.0,4095.0,4095.0,4095.0,4095.0,4095.0,-6.66,7.3,7.9,0.36,0.54,0.68,1.0,fine
3152.0,1018.0,2746.0,4095.0,4095.0,4095.0,4095.0,4095.0,12.23,7.03,6.32,-0.08,-0.07,0.32,1.0,fine
3173.0,1053.0,2733.0,4095.0,4095.0,4095.0,4095.0,4095.0,-4.77,5.87,9.08,-0.5,-0.11,-1.46,1.0,fine
3248.0,1034.0,2736.0,4095.0,4095.0,4095.0,4095.0,4095.0,0.21,6.63,7.74,0.04,0.23,1.47,1.0,fine
3184.0,1040.0,2763.0,3975.0,4095.0,4095.0,4095.0,4095.0,9.11,7.04,4.88,0.25,-0.02,-0.5,1.0,fine
3246.0,1040.0,2743.0,4095.0,4095.0,4095.0,4095.0,4095.0,-2.88,6.53,7.77,-0.09,-0.22,-0.77,1.0,fine
3277.0,987.0,2754.0,4095.0,4095.0,4095.0,4095.0,4095.0,1.24,7.16,7.87,-0.07,0.14,0.14,1.0,fine
3280.0,998.0,2753.0,4095.0,4095.0,4095.0,4095.0,4095.0,1.39,7.15,7.44,-0.02,0.05,-0.06,1.0,fine
3255.0,1008.0,2746.0,4095.0,4095.0,4095.0,4095.0,4095.0,1.23,7.12,7.06,-0.08,0.02,0.02,1.0,fine
3267.0,1013.0,2758.0,4095.0,4095.0,4095.0,4095.0,4095.0,1.28,7.14,7.32,-0.06,0.0,-0.05,1.0,fine
3257.0,1019.0,2749.0,4095.0,4095.0,4095.0,4095.0,4095.0,1.2,7.06,7.1,-0.06,-0.02,-0.04,1.0,fine
3346.0,1077.0,2751.0,4095.0,4095.0,4095.0,4095.0,4095.0,1.23,7.07,7.4,-0.07,-0.05,0.01,1.0,fine
3344.0,1085.0,2749.0,4095.0,4095.0,4095.0,4095.0,4095.0,2.33,7.07,7.01,-0.06,-0.19,-0.07,1.0,fine
3409.0,1087.0,2741.0,4095.0,4095.0,4095.0,4095.0,4095.0,-1.25,6.9,8.36,-0.17,-0.21,-0.01,1.0,fine
3370.0,1118.0,2741.0,4095.0,4095.0,4095.0,4095.0,4095.0,0.83,6.56,7.5,0.42,-0.1,1.28,1.0,fine
3284.0,1113.0,2746.0,4095.0,4095.0,4095.0,4095.0,4095.0,9.56,6.9,4.61,0.06,-0.48,-0.34,1.0,fine
3367.0,1138.0,2745.0,4095.0,4095.0,4095.0,4095.0,4095.0,-3.7,6.52,7.8,-0.42,-0.28,-1.15,1.0,fine
3423.0,1170.0,2750.0,4095.0,4095.0,4095.0,4095.0,4095.0,-0.9,6.75,7.98,0.11,0.64,1.59,1.0,fine
3269.0,1200.0,2763.0,4095.0,4095.0,4095.0,4095.0,4095.0,11.97,6.95,4.1,-0.08,-0.1,-0.27,1.0,fine
3417.0,1179.0,2753.0,4095.0,4095.0,4095.0,4095.0,4095.0,-5.54,5.84,9.91,-0.31,0.16,-1.03,1.0,fine
3491.0,1262.0,2762.0,4095.0,4095.0,4095.0,4095.0,4095.0,2.25,6.53,8.25,0.06,0.24,1.46,1.0,fine
3329.0,1255.0,2768.0,4095.0,4095.0,4095.0,4095.0,4095.0,10.75,6.94,4.19,0.11,-0.2,-0.93,1.0,fine
3530.0,1251.0,2756.0,4095.0,4095.0,4095.0,4095.0,4095.0,-7.52,6.09,9.82,-0.26,0.05,-0.57,1.0,fine
3364.0,1236.0,2763.0,4095.0,4095.0,4095.0,4095.0,4095.0,4.17,6.68,8.53,0.12,0.09,1.31,1.0,fine
3234.0,1228.0,2779.0,4095.0,4095.0,4095.0,4095.0,4095.0,8.92,6.79,3.9,-0.15,-0.37,-0.9,1.0,fine
3364.0,1230.0,2761.0,4095.0,4095.0,4095.0,4095.0,4095.0,-4.59,6.65,9.24,-0.06,-0.21,-0.52,1.0,fine
3328.0,1161.0,2768.0,4095.0,4095.0,4095.0,4095.0,4095.0,3.06,6.94,6.9,-0.08,-0.0,0.19,1.0,fine
3327.0,1175.0,2763.0,4095.0,4095.0,4095.0,4095.0,4095.0,1.61,6.95,7.68,-0.07,-0.02,-0.19,1.0,fine
3329.0,1187.0,2761.0,4095.0,4095.0,4095.0,4095.0,4095.0,1.47,6.97,7.19,-0.07,-0.04,0.0,1.0,fine
3344.0,1197.0,2768.0,4095.0,4095.0,4095.0,4095.0,4095.0,1.64,6.9,7.49,-0.09,-0.03,-0.04,1.0,fine
3328.0,1196.0,2763.0,4095.0,4095.0,4095.0,4095.0,4095.0,1.58,6.88,7.3,-0.07,-0.02,-0.04,1.0,fine
3306.0,1453.0,2801.0,4095.0,4095.0,4095.0,4095.0,4095.0,1.61,6.89,7.58,-0.08,-0.02,-0.03,1.0,fine
3280.0,1399.0,2799.0,4095.0,4095.0,4095.0,4095.0,4095.0,2.03,6.97,7.13,-0.09,-0.01,-0.05,1.0,fine
3280.0,1371.0,2790.0,4095.0,4095.0,4095.0,4095.0,4095.0,1.93,7.0,7.39,-0.04,-0.08,-0.08,1.0,fine
3298.0,1406.0,2803.0,4095.0,4095.0,4095.0,4095.0,4095.0,-4.09,6.61,9.78,0.04,0.2,0.41,1.0,fine
3280.0,1374.0,2812.0,4095.0,4095.0,4095.0,4095.0,4095.0,6.92,6.68,5.4,0.21,0.08,1.35,1.0,fine
3227.0,1328.0,2798.0,4095.0,4095.0,4095.0,4095.0,4095.0,7.5,6.15,5.39,-0.44,-0.4,-1.23,1.0,fine
3373.0,1449.0,2789.0,4095.0,4095.0,4095.0,4095.0,4095.0,-7.64,6.16,10.05,-0.32,0.03,-0.52,1.0,fine
3342.0,1452.0,2804.0,4095.0,4095.0,4095.0,4095.0,4095.0,4.63,6.48,7.76,0.14,0.17,1.66,1.0,fine
3285.0,1399.0,2803.0,4095.0,4095.0,4095.0,4095.0,4095.0,10.07,6.18,4.32,-0.27,-0.28,-1.03,1.0,fine
3539.0,1494.0,2811.0,4095.0,4095.0,4095.0,4095.0,4095.0,-8.86,6.09,11.24,-0.14,-0.0,-0.26,1.0,fine
3366.0,1442.0,2800.0,4095.0,4095.0,4095.0,4095.0,4095.0,7.2,6.44,7.18,0.12,-0.03,1.49,1.0,fine
3317.0,1415.0,2803.0,4095.0,4095.0,4095.0,4095.0,4095.0,8.03,6.08,6.09,-0.16,-0.51,-1.32,1.0,fine
3579.0,1462.0,2803.0,4095.0,4095.0,4095.0,4095.0,4095.0,-7.55,6.28,9.57,0.08,0.02,0.07,1.0,fine
3429.0,1457.0,2807.0,4034.0,4095.0,4095.0,4095.0,4095.0,7.77,6.59,7.78,0.27,0.11,1.26,1.0,fine
3407.0,1444.0,2806.0,4095.0,4095.0,4095.0,4095.0,4095.0,6.07,6.26,5.68,-0.31,-0.34,-0.88,1.0,fine
3501.0,1456.0,2795.0,4095.0,4095.0,4095.0,4095.0,4095.0,0.08,6.76,7.36,-0.18,-0.28,-0.64,1.0,fine
3530.0,1446.0,2789.0,4095.0,4095.0,4095.0,4095.0,4095.0,1.57,6.92,7.47,-0.03,0.1,0.03,1.0,fine
3493.0,1455.0,2795.0,4095.0,4095.0,4095.0,4095.0,4095.0,2.6,6.83,7.34,-0.08,0.04,-0.1,1.0,fine
3491.0,1461.0,2791.0,4095.0,4095.0,4095.0,4095.0,4095.0,2.0,6.84,7.43,-0.05,-0.0,-0.08,1.0,fine
3503.0,1453.0,2794.0,4095.0,4095.0,4095.0,4095.0,4095.0,2.28,6.8,7.21,-0.08,0.02,-0.03,1.0,fine
3467.0,1456.0,2787.0,4095.0,4095.0,4095.0,4095.0,4095.0,2.07,6.78,7.37,-0.07,0.0,-0.03,1.0,fine
3477.0,1453.0,2800.0,4095.0,4095.0,4095.0,4095.0,4095.0,2.45,6.75,7.21,-0.11,-0.04,-0.07,1.0,fine
3483.0,1443.0,2784.0,4095.0,4095.0,4095.0,4095.0,4095.0,2.87,6.93,6.95,-0.16,-0.1,-0.16,1.0,fine
3502.0,1437.0,2777.0,4095.0,4095.0,4095.0,4095.0,4095.0,0.97,6.62,8.45,-0.34,-0.1,-0.27,1.0,fine
3611.0,1439.0,2791.0,4095.0,4095.0,4095.0,4095.0,4095.0,-4.25,6.16,10.05,0.32,0.34,1.09,1.0,fine
3377.0,1449.0,2787.0,4047.0,4095.0,4095.0,4095.0,4095.0,12.39,6.76,3.83,0.37,-0.05,0.71,1.0,fine
3504.0,1426.0,2784.0,4095.0,4095.0,4095.0,4095.0,4095.0,0.76,5.49,6.73,-0.78,-0.13,-1.65,1.0,fine
3578.0,1463.0,2793.0,4095.0,4095.0,4095.0,4095.0,4095.0,-2.52,6.94,8.36,0.17,0.4,1.03,1.0,fine
3369.0,1425.0,2795.0,4095.0,4095.0,4095.0,4095.0,4095.0,11.84,6.69,4.92,0.09,0.05,-0.16,1.0,fine
3567.0,1428.0,2791.0,4095.0,4095.0,4095.0,4095.0,4095.0,-2.45,6.11,8.05,-0.44,-0.2,-1.3,1.0,fine
3633.0,1456.0,2791.0,4095.0,4095.0,4095.0,4095.0,4095.0,-1.94,6.37,9.24,-0.04,0.37,1.09,1.0,fine
3399.0,1440.0,2789.0,4095.0,4095.0,4095.0,4095.0,4095.0,11.3,6.53,4.79,0.17,0.04,0.04,1.0,fine
3569.0,1435.0,2789.0,4095.0,4095.0,4095.0,4095.0,4095.0,-0.65,5.71,7.3,-0.63,0.18,-1.47,1.0,fine
3691.0,1469.0,2797.0,4095.0,4095.0,4095.0,4095.0,4095.0,-3.97,6.59,9.9,0.12,0.54,1.0,1.0,fine
3425.0,1429.0,2799.0,4095.0,4095.0,4095.0,4095.0,4095.0,11.52,6.65,5.18,0.4,0.03,0.52,1.0,fine
3516.0,1424.0,2793.0,4095.0,4095.0,4095.0,4095.0,4095.0,3.43,5.31,6.19,-0.6,-0.18,-1.73,1.0,fine
3769.0,1437.0,2793.0,4095.0,4095.0,4095.0,4095.0,4095.0,-2.88,6.15,10.45,-0.29,0.33,-0.36,1.0,fine
3661.0,1446.0,2797.0,4095.0,4095.0,4095.0,4095.0,4095.0,3.06,6.83,7.25,-0.03,0.21,0.03,1.0,fine
3634.0,1440.0,2788.0,4095.0,4095.0,4095.0,4095.0,4095.0,1.63,6.6,7.77,-0.04,0.06,-0.12,1.0,fine
3632.0,1433.0,2789.0,4095.0,4095.0,4095.0,4095.0,4095.0,1.83,6.66,7.35,-0.06,0.04,0.02,1.0,fine
3549.0,2019.0,2782.0,4085.0,4095.0,4095.0,4095.0,3486.0,2.67,7.59,6.74,-0.17,-0.05,-0.06,1.0,fine
3499.0,2030.0,2771.0,4050.0,4095.0,4095.0,4095.0,3541.0,2.47,7.51,6.18,-0.08,-0.04,-0.0,1.0,fine
3440.0,1763.0,2770.0,4047.0,4095.0,4095.0,4095.0,3647.0,3.6,7.38,5.37,-0.17,-0.3,-0.14,1.0,fine
3687.0,1914.0,2764.0,4090.0,4095.0,4095.0,4095.0,3709.0,-3.24,6.82,10.46,0.03,0.37,0.2,1.0,fine
3422.0,1836.0,2768.0,4095.0,4095.0,4095.0,4095.0,3661.0,7.65,7.17,7.39,0.19,0.31,0.76,1.0,fine
3351.0,1691.0,2753.0,4095.0,4095.0,4095.0,4095.0,3450.0,8.29,6.52,2.34,-0.36,-0.47,-1.07,1.0,fine
3792.0,1923.0,2768.0,4095.0,4095.0,4095.0,4095.0,3680.0,-8.32,7.25,10.79,0.02,0.26,0.54,1.0,fine
3359.0,1787.0,2768.0,4095.0,4095.0,4095.0,4095.0,3359.0,12.71,5.9,5.32,0.2,-0.04,0.94,1.0,fine
3344.0,1744.0,2737.0,4095.0,4095.0,4095.0,4095.0,3635.0,3.19,6.39,5.82,-0.53,-0.18,-2.01,1.0,fine
3531.0,2021.0,2754.0,4095.0,4095.0,4095.0,4095.0,3738.0,-6.08,7.31,7.16,0.18,0.76,0.97,1.0,fine
3353.0,1967.0,2752.0,4095.0,4095.0,4095.0,4095.0,3536.0,13.98,6.96,5.76,0.04,0.08,0.21,1.0,fine
3686.0,1995.0,2752.0,4095.0,4095.0,4095.0,4095.0,3662.0,-5.04,6.5,9.2,-0.4,0.04,-1.47,1.0,fine
3696.0,2077.0,2742.0,4095.0,4095.0,4095.0,4095.0,3792.0,0.58,6.68,6.71,-0.11,0.35,1.66,1.0,fine
3451.0,1936.0,2759.0,4095.0,4095.0,4095.0,4095.0,3679.0,11.25,6.71,4.15,0.01,0.01,-0.49,1.0,fine
3753.0,1953.0,2761.0,4095.0,4095.0,4095.0,4095.0,3861.0,-3.18,7.06,8.5,-0.05,-0.1,-0.65,1.0,fine
3661.0,1904.0,2762.0,4095.0,4095.0,4095.0,4095.0,3818.0,2.96,7.13,6.65,-0.05,-0.02,-0.05,1.0,fine
3664.0,1946.0,2763.0,4095.0,4095.0,4095.0,4095.0,3835.0,1.94,7.27,7.18,-0.07,0.03,-0.14,1.0,fine
3648.0,1899.0,2765.0,4095.0,4095.0,4095.0,4095.0,3846.0,2.28,7.07,6.85,-0.03,0.04,-0.04,1.0,fine
3663.0,1904.0,2755.0,4095.0,4095.0,4095.0,4095.0,3837.0,2.43,7.08,7.12,-0.08,0.01,-0.08,1.0,fine
3685.0,1887.0,2759.0,4095.0,4095.0,4095.0,4095.0,3854.0,2.24,7.24,6.94,-0.11,0.08,-0.09,1.0,fine
3137.0,1901.0,2804.0,4095.0,4095.0,4095.0,4095.0,3775.0,2.42,7.09,7.11,-0.09,-0.05,-0.01,1.0,fine
3134.0,1872.0,2805.0,4095.0,4095.0,4095.0,4095.0,3796.0,2.87,7.2,7.36,-0.04,-0.13,-0.09,1.0,fine
3166.0,1882.0,2794.0,4095.0,4095.0,4095.0,4095.0,3746.0,-0.24,7.44,7.47,0.06,0.03,0.1,1.0,fine
3217.0,1857.0,2814.0,4095.0,4095.0,4095.0,4095.0,3737.0,4.62,6.8,5.77,0.11,-0.01,1.03,1.0,fine
3217.0,1777.0,2813.0,4095.0,4095.0,4095.0,4095.0,3791.0,8.02,6.79,5.16,-0.24,-0.51,-0.65,1.0,fine
3301.0,1840.0,2805.0,4095.0,4095.0,4095.0,4095.0,3877.0,-5.23,6.9,8.87,-0.51,0.06,-0.83,1.0,fine
3346.0,1875.0,2806.0,4095.0,4095.0,4095.0,4095.0,3830.0,1.18,6.53,9.05,0.1,0.54,1.88,1.0,fine
3270.0,1788.0,2803.0,4095.0,4095.0,4095.0,4095.0,3856.0,13.43,6.07,3.39,0.08,-0.24,-0.49,1.0,fine
3500.0,2031.0,2815.0,4095.0,4095.0,4095.0,4095.0,3872.0,-9.2,6.62,11.4,0.08,0.03,-0.5,1.0,fine
3364.0,1910.0,2805.0,4095.0,4095.0,4095.0,4095.0,3887.0,6.47,6.08,7.54,-0.01,-0.01,1.46,1.0,fine
3301.0,1822.0,2813.0,4095.0,4095.0,4095.0,4095.0,3881.0,9.82,6.23,3.57,-0.13,-0.51,-1.31,1.0,fine
3759.0,2015.0,2815.0,4095.0,4095.0,4095.0,4095.0,3855.0,-8.82,7.19,11.15,-0.04,0.04,-0.07,1.0,fine
3391.0,2018.0,2818.0,4095.0,4095.0,4095.0,4095.0,3903.0,8.42,6.53,7.02,0.28,0.11,1.3,1.0,fine
3384.0,2000.0,2807.0,4095.0,4095.0,4095.0,4095.0,3911.0,7.21,6.2,3.83,-0.28,-0.45,-1.05,1.0,fine
3650.0,2026.0,2815.0,4095.0,4095.0,4095.0,4095.0,3902.0,-1.66,7.51,8.27,-0.27,-0.1,-0.25,1.0,fine
3598.0,2014.0,2815.0,4095.0,4095.0,4095.0,4095.0,3924.0,3.49,7.14,7.04,-0.08,0.05,-0.01,1.0,fine
3609.0,2016.0,2813.0,4095.0,4095.0,4095.0,4095.0,3901.0,1.87,7.05,7.27,-0.07,0.03,-0.09,1.0,fine
3605.0,2011.0,2813.0,4095.0,4095.0,4095.0,4095.0,3900.0,2.37,6.92,7.04,-0.05,0.04,0.01,1.0,fine
3583.0,2017.0,2813.0,4095.0,4095.0,4095.0,4095.0,3882.0,2.47,7.05,7.12,-0.04,0.02,-0.05,1.0,fine
3617.0,2010.0,2813.0,4095.0,4095.0,4095.0,4095.0,3881.0,2.53,7.14,6.8,-0.08,0.03,-0.04,1.0,fine
3714.0,1981.0,2817.0,4095.0,4095.0,4095.0,4095.0,3909.0,2.26,7.01,7.04,-0.06,-0.03,-0.01,1.0,fine
3721.0,1984.0,2815.0,4095.0,4095.0,4095.0,4095.0,3897.0,2.6,6.94,7.07,-0.05,-0.01,-0.01,1.0,fine
3707.0,1980.0,2816.0,4095.0,4095.0,4095.0,4095.0,3903.0,2.9,7.01,7.12,-0.07,-0.07,-0.12,1.0,fine
3799.0,1982.0,2819.0,4095.0,4095.0,4095.0,4095.0,3887.0,-2.57,7.04,8.78,0.11,0.14,0.32,1.0,fine
3601.0,1965.0,2817.0,4095.0,4095.0,4095.0,4095.0,3888.0,8.38,6.65,5.83,-0.04,-0.15,0.81,1.0,fine
3632.0,1911.0,2807.0,4095.0,4095.0,4095.0,4095.0,3905.0,4.65,6.4,6.18,-0.29,-0.28,-1.15,1.0,fine
3921.0,1968.0,2815.0,4095.0,4095.0,4095.0,4095.0,3888.0,-6.13,7.43,8.92,-0.06,0.19,0.18,1.0,fine
3527.0,1967.0,2819.0,4095.0,4095.0,4095.0,4095.0,3889.0,8.85,7.04,6.0,0.3,0.21,0.95,1.0,fine
3463.0,2125.0,2822.0,4095.0,4095.0,4095.0,4095.0,3888.0,6.03,6.18,3.85,-0.26,-0.24,-1.44,1.0,fine
3717.0,2305.0,2831.0,4095.0,4095.0,4095.0,4095.0,3979.0,-5.89,7.15,10.28,-0.28,0.39,0.25,1.0,fine
3440.0,2271.0,2832.0,4095.0,4095.0,4095.0,4095.0,4095.0,8.53,6.88,6.74,0.25,0.31,0.9,1.0,fine
3309.0,2224.0,2833.0,4095.0,4095.0,4095.0,4095.0,4095.0,7.23,6.62,3.61,-0.45,-0.52,-1.2,1.0,fine
3381.0,2383.0,2847.0,4095.0,4095.0,4095.0,4095.0,3974.0,-7.42,7.32,10.68,0.06,0.15,0.21,1.0,fine
3152.0,2353.0,2845.0,4095.0,4095.0,4095.0,4095.0,4095.0,6.28,6.74,7.81,0.35,0.38,1.29,1.0,fine
2930.0,2343.0,2854.0,3835.0,4095.0,4095.0,4095.0,4095.0,6.91,6.74,4.06,-0.18,-0.18,-0.68,1.0,fine
2915.0,2377.0,2859.0,4043.0,4095.0,4095.0,4095.0,4095.0,0.18,7.16,7.75,-0.16,-0.11,-0.34,1.0,fine
2997.0,2354.0,2861.0,4045.0,4095.0,4095.0,4095.0,4095.0,2.2,7.15,7.17,-0.13,-0.01,-0.05,1.0,fine
3023.0,2327.0,2861.0,4081.0,4095.0,4095.0,4095.0,4095.0,2.22,7.04,7.16,-0.05,-0.01,-0.06,1.0,fine
3037.0,2334.0,2855.0,4084.0,4095.0,4095.0,4095.0,4095.0,2.14,6.96,6.89,-0.04,-0.01,-0.08,1.0,fine
3056.0,2347.0,2847.0,4079.0,4095.0,4095.0,4095.0,4095.0,2.15,7.05,7.1,-0.06,-0.01,-0.08,1.0,fine
2877.0,2314.0,2845.0,4095.0,4095.0,4095.0,4095.0,4095.0,2.17,7.4,7.04,-0.09,-0.04,0.02,1.0,fine
2884.0,2301.0,2830.0,4095.0,4095.0,4095.0,4095.0,4095.0,2.66,7.33,6.2,-0.03,-0.05,-0.02,1.0,fine
2919.0,2302.0,2844.0,4095.0,4095.0,4095.0,4095.0,4095.0,1.65,7.69,7.34,-0.04,-0.04,-0.11,1.0,fine
2960.0,2305.0,2835.0,4095.0,4095.0,4095.0,4095.0,4095.0,-1.03,7.5,7.44,0.38,0.2,0.59,1.0,fine
2977.0,2229.0,2834.0,4093.0,4095.0,4095.0,4095.0,4095.0,8.68,7.22,4.53,0.13,-0.11,0.14,1.0,fine
2997.0,2235.0,2847.0,4095.0,4095.0,4095.0,4095.0,4095.0,1.46,7.09,5.46,-0.46,-0.18,-1.12,1.0,fine
3031.0,2271.0,2839.0,4095.0,4095.0,4095.0,4095.0,4095.0,-4.59,8.18,9.2,0.14,0.4,0.71,1.0,fine
3063.0,2247.0,2833.0,4085.0,4095.0,4095.0,4095.0,4095.0,9.44,7.34,4.71,0.28,0.25,0.79,1.0,fine
3082.0,2236.0,2829.0,4095.0,4095.0,4095.0,4095.0,4095.0,4.09,6.61,4.7,-0.71,-0.21,-1.3,1.0,fine
3107.0,2304.0,2832.0,4095.0,4095.0,4095.0,4095.0,4095.0,-4.76,7.97,8.86,0.02,0.32,0.46,1.0,fine
3107.0,2256.0,2840.0,4095.0,4095.0,4095.0,4095.0,4095.0,8.29,7.43,5.41,0.21,0.21,0.77,1.0,fine
3120.0,2273.0,2839.0,4095.0,4095.0,4095.0,4095.0,4095.0,5.52,6.63,5.47,-0.49,-0.49,-1.21,1.0,fine
3190.0,2288.0,2837.0,4095.0,4095.0,4095.0,4095.0,4095.0,-5.94,7.98,9.11,0.03,0.07,-0.24,1.0,fine
3186.0,2303.0,2841.0,4095.0,4095.0,4095.0,4095.0,4095.0,4.61,7.02,6.82,0.25,0.29,1.47,1.0,fine
3149.0,2295.0,2832.0,3902.0,4095.0,4095.0,4095.0,4095.0,8.51,7.02,3.75,-0.12,-0.35,-0.52,1.0,fine
3163.0,2314.0,2832.0,4095.0,4095.0,4095.0,4095.0,4095.0,-1.39,7.61,7.32,-0.18,-0.26,-0.56,1.0,fine
3174.0,2320.0,2830.0,4095.0,4095.0,4095.0,4095.0,4095.0,2.3,7.73,6.27,-0.1,-0.05,0.03,1.0,fine
3191.0,2323.0,2836.0,4095.0,4095.0,4095.0,4095.0,4095.0,2.44,7.66,6.51,-0.1,0.04,-0.1,1.0,fine
3178.0,2324.0,2834.0,4095.0,4095.0,4095.0,4095.0,4095.0,2.2,7.62,6.23,-0.11,-0.03,-0.08,1.0,fine
3175.0,2319.0,2832.0,4095.0,4095.0,4095.0,4095.0,4095.0,2.22,7.65,6.39,-0.07,0.01,-0.07,1.0,fine
2876.0,2531.0,2866.0,4095.0,4095.0,4095.0,4095.0,4095.0,2.57,8.07,5.88,-0.11,0.01,-0.06,1.0,fine
2886.0,2481.0,2845.0,4095.0,4095.0,4095.0,4095.0,4095.0,3.33,8.07,5.77,0.01,-0.12,-0.09,1.0,fine
2911.0,2468.0,2843.0,4095.0,4095.0,4095.0,4095.0,4095.0,-0.14,8.23,7.13,0.09,0.12,-0.2,1.0,fine
2963.0,2465.0,2849.0,4095.0,4095.0,4095.0,4095.0,4067.0,2.72,7.58,5.59,0.29,0.29,1.0,1.0,fine
3015.0,2437.0,2863.0,4095.0,4095.0,4095.0,4095.0,3657.0,10.55,8.13,2.67,0.0,-0.5,-0.68,1.0,fine
3024.0,2481.0,2854.0,4095.0,4095.0,4095.0,4095.0,4095.0,-5.45,7.42,8.72,-0.52,-0.21,-0.48,1.0,fine
3147.0,2494.0,2854.0,4095.0,4095.0,4095.0,4095.0,4095.0,4.45,8.31,5.76,0.12,0.22,1.21,1.0,fine
3118.0,2451.0,2843.0,4095.0,4095.0,4095.0,4095.0,3694.0,8.05,7.86,1.91,-0.38,-0.37,-0.87,1.0,fine
3273.0,2512.0,2849.0,4095.0,4095.0,4095.0,4095.0,4095.0,-5.59,7.7,9.4,-0.24,0.05,0.09,1.0,fine
3204.0,2511.0,2864.0,4095.0,4095.0,4095.0,4095.0,4095.0,8.48,7.95,5.14,0.37,0.06,0.91,1.0,fine
3184.0,2514.0,2852.0,4095.0,4095.0,4095.0,4095.0,3825.0,5.0,7.07,3.95,-0.67,-0.39,-1.4,1.0,fine
3327.0,2559.0,2853.0,4095.0,4095.0,4095.0,4095.0,4095.0,-5.33,7.79,8.41,0.22,0.51,0.6,1.0,fine
3217.0,2539.0,2861.0,4095.0,4095.0,4095.0,4095.0,3850.0,9.81,7.84,4.06,0.37,0.35,0.76,1.0,fine
3184.0,2466.0,2857.0,4095.0,4095.0,4095.0,4095.0,3793.0,2.86,7.28,6.26,-0.46,-0.13,-1.1,1.0,fine
3195.0,2451.0,2853.0,4095.0,4095.0,4095.0,4095.0,3921.0,1.02,8.08,5.7,-0.01,0.07,-0.13,1.0,fine
3203.0,2449.0,2857.0,4095.0,4095.0,4095.0,4095.0,3940.0,3.02,8.04,6.0,-0.05,0.06,-0.11,1.0,fine
3171.0,2448.0,2854.0,4095.0,4095.0,4095.0,4095.0,3953.0,2.12,8.01,5.88,-0.03,0.05,-0.07,1.0,fine
3165.0,2441.0,2855.0,4095.0,4095.0,4095.0,4095.0,4012.0,2.18,7.86,5.97,-0.11,0.13,-0.12,1.0,fine
3167.0,2430.0,2848.0,4095.0,4095.0,4095.0,4095.0,3993.0,2.14,8.11,5.84,-0.13,0.04,-0.24,1.0,fine
3159.0,2441.0,2845.0,4095.0,4095.0,4095.0,4095.0,3958.0,1.93,8.33,5.89,-0.07,-0.04,-0.15,1.0,fine
3195.0,2422.0,2849.0,4095.0,4095.0,4095.0,4095.0,3968.0,2.31,7.97,5.89,-0.1,-0.12,-0.04,1.0,fine
3193.0,2415.0,2845.0,4095.0,4095.0,4095.0,4095.0,3937.0,2.69,7.99,6.26,-0.18,-0.34,-0.35,1.0,fine
3172.0,2406.0,2835.0,4095.0,4095.0,4095.0,4095.0,3987.0,-5.28,8.0,8.37,0.12,0.55,0.38,1.0,fine
3166.0,2398.0,2843.0,4095.0,4095.0,4095.0,4095.0,3690.0,9.66,7.87,4.39,0.01,0.2,0.89,1.0,fine
3162.0,2367.0,2833.0,4095.0,4095.0,4095.0,4095.0,3600.0,2.81,6.74,4.39,-0.67,-0.21,-1.66,1.0,fine
3255.0,2436.0,2842.0,4095.0,4095.0,4095.0,4095.0,3893.0,-6.47,7.65,8.32,0.02,0.59,0.88,1.0,fine
3200.0,2407.0,2855.0,4095.0,4095.0,4095.0,4095.0,3615.0,10.39,8.14,5.37,-0.01,0.44,0.47,1.0,fine
3190.0,2387.0,2838.0,4095.0,4095.0,4095.0,4095.0,3724.0,2.21,6.93,4.87,-0.64,0.16,-1.65,1.0,fine
3248.0,2453.0,2847.0,4095.0,4095.0,4095.0,4095.0,3987.0,-5.37,7.49,8.09,0.06,0.57,0.83,1.0,fine
3158.0,2411.0,2853.0,4095.0,4095.0,4095.0,4095.0,3874.0,10.08,7.93,5.16,0.21,0.21,0.47,1.0,fine
3196.0,2422.0,2855.0,4095.0,4095.0,4095.0,4095.0,3878.0,2.53,6.65,5.19,-0.74,0.07,-1.64,1.0,fine
3302.0,2498.0,2837.0,4095.0,4095.0,4095.0,4095.0,3937.0,-5.72,7.19,8.71,0.26,0.52,0.97,1.0,fine
3198.0,2459.0,2855.0,4095.0,4095.0,4095.0,4095.0,3922.0,11.05,7.69,4.87,0.17,0.18,0.47,1.0,fine
3265.0,2463.0,2854.0,4095.0,4095.0,4095.0,4095.0,4018.0,-0.4,6.9,7.69,-0.34,-0.02,-1.2,1.0,fine
3258.0,2466.0,2857.0,4095.0,4095.0,4095.0,4095.0,4026.0,0.51,7.67,6.51,0.14,0.08,-0.06,1.0,fine
3271.0,2463.0,2854.0,4095.0,4095.0,4095.0,4095.0,4034.0,2.14,7.73,6.72,-0.11,0.17,-0.1,1.0,fine
3262.0,2438.0,2853.0,4095.0,4095.0,4095.0,4095.0,4045.0,1.46,7.76,6.34,-0.05,0.11,-0.1,1.0,fine
3277.0,2444.0,2858.0,4095.0,4095.0,4095.0,4095.0,4070.0,1.14,7.8,6.49,-0.06,0.09,-0.11,1.0,fine
3287.0,2439.0,2845.0,4095.0,4095.0,4095.0,4095.0,4059.0,1.36,7.83,6.67,-0.08,0.05,-0.04,1.0,fine
3282.0,2438.0,2854.0,4095.0,4095.0,4095.0,4095.0,4095.0,1.28,7.75,6.49,-0.13,0.05,-0.02,1.0,fine
3278.0,2453.0,2858.0,4095.0,4095.0,4095.0,4095.0,4051.0,1.48,7.63,6.73,-0.08,-0.08,-0.0,1.0,fine
3269.0,2438.0,2864.0,4095.0,4095.0,4095.0,4095.0,4046.0,1.66,7.6,6.5,-0.11,-0.13,-0.04,1.0,fine
3268.0,2447.0,2858.0,4095.0,4095.0,4095.0,4095.0,4002.0,1.78,7.8,6.26,-0.1,-0.17,-0.09,1.0,fine
3333.0,2467.0,2862.0,4095.0,4095.0,4095.0,4095.0,4052.0,-2.76,7.63,8.14,-0.02,0.38,0.27,1.0,fine
3289.0,2463.0,2847.0,4095.0,4095.0,4095.0,4095.0,4025.0,3.35,7.41,6.99,0.23,0.05,1.23,1.0,fine
3250.0,2458.0,2850.0,4095.0,4095.0,4095.0,4095.0,3835.0,8.37,7.22,3.88,-0.16,-0.43,-0.06,1.0,fine
3312.0,2492.0,2848.0,4095.0,4095.0,4095.0,4095.0,4069.0,-3.59,7.2,8.88,-0.2,-0.14,-0.99,1.0,fine
3264.0,2489.0,2855.0,4095.0,4095.0,4095.0,4095.0,4053.0,0.6,7.1,6.66,0.14,0.27,1.21,1.0,fine
3195.0,2439.0,2849.0,4095.0,4095.0,4095.0,4095.0,3770.0,9.9,7.32,4.34,-0.09,0.1,-0.72,1.0,fine
3285.0,2481.0,2861.0,4095.0,4095.0,4095.0,4095.0,3942.0,-5.89,7.71,8.03,-0.13,0.06,-0.31,1.0,fine
3246.0,2490.0,2850.0,4095.0,4095.0,4095.0,4095.0,3905.0,4.81,7.19,7.0,0.08,0.08,1.03,1.0,fine
3217.0,2485.0,2847.0,4095.0,4095.0,4095.0,4095.0,3763.0,8.02,6.99,3.61,-0.34,-0.4,-0.86,1.0,fine
3294.0,2544.0,2847.0,4095.0,4095.0,4095.0,4095.0,3950.0,-6.12,7.66,10.21,-0.28,-0.18,-0.43,1.0,fine
3251.0,2542.0,2858.0,4095.0,4095.0,4095.0,4095.0,3909.0,4.06,7.06,6.1,0.2,0.05,1.27,1.0,fine
3214.0,2559.0,2851.0,4095.0,4095.0,4095.0,4095.0,3769.0,6.92,7.07,4.82,-0.24,-0.14,-0.67,1.0,fine
3250.0,2552.0,2845.0,4095.0,4095.0,4095.0,4095.0,3908.0,-0.5,7.42,6.83,-0.12,-0.07,-0.49,1.0,fine
3245.0,2515.0,2849.0,4095.0,4095.0,4095.0,4095.0,3887.0,1.53,7.63,7.36,-0.09,0.05,-0.06,1.0,fine
3245.0,2522.0,2858.0,4095.0,4095.0,4095.0,4095.0,3899.0,2.15,7.4,6.73,-0.06,0.01,-0.07,1.0,fine
3253.0,2512.0,2851.0,4095.0,4095.0,4095.0,4095.0,3920.0,1.56,7.37,7.02,-0.08,0.02,-0.03,1.0,fine
3265.0,2486.0,2858.0,4095.0,4095.0,4095.0,4095.0,3934.0,2.08,7.45,6.58,-0.04,0.05,-0.06,1.0,fine
3298.0,2475.0,2861.0,4095.0,4095.0,4095.0,4095.0,3897.0,1.96,7.5,6.74,-0.04,-0.09,-0.03,1.0,fine
3346.0,2474.0,2861.0,4095.0,4095.0,4095.0,4095.0,3888.0,2.57,7.42,6.88,0.04,-0.12,-0.16,1.0,fine
3347.0,2484.0,2857.0,4095.0,4095.0,4095.0,4095.0,3889.0,0.67,7.49,6.94,-0.01,-0.1,-0.25,1.0,fine
3370.0,2513.0,2865.0,4095.0,4095.0,4095.0,4095.0,3904.0,-2.86,7.16,7.07,0.02,0.15,0.87,1.0,fine
3303.0,2517.0,2864.0,4095.0,4095.0,4095.0,4095.0,3762.0,9.29,7.61,6.0,0.06,-0.06,0.68,1.0,fine
3312.0,2529.0,2862.0,4095.0,4095.0,4095.0,4095.0,3881.0,2.55,6.76,6.66,-0.25,-0.26,-1.3,1.0,fine
3378.0,2518.0,2860.0,4095.0,4095.0,4095.0,4095.0,3899.0,-5.39,7.05,6.55,-0.21,0.36,0.58,1.0,fine
3290.0,2453.0,2862.0,4095.0,4095.0,4095.0,4095.0,3794.0,9.78,7.72,6.46,0.14,0.3,0.52,1.0,fine
3295.0,2429.0,2859.0,4095.0,4095.0,4095.0,4095.0,3888.0,2.2,6.71,6.46,-0.32,0.05,-1.54,1.0,fine
3362.0,2460.0,2850.0,4095.0,4095.0,4095.0,4095.0,3888.0,-4.8,6.82,8.11,-0.08,0.37,0.76,1.0,fine
3269.0,2434.0,2859.0,4095.0,4095.0,4095.0,4095.0,3767.0,10.07,7.75,5.82,0.13,-0.01,0.38,1.0,fine
3329.0,2461.0,2850.0,4095.0,4095.0,4095.0,4095.0,3909.0,0.03,6.62,7.17,-0.46,-0.07,-1.43,1.0,fine
3386.0,2496.0,2864.0,4095.0,4095.0,4095.0,4095.0,3915.0,-3.0,7.05,7.73,0.09,0.43,1.02,1.0,fine
3277.0,2480.0,2853.0,4095.0,4095.0,4095.0,4095.0,3860.0,9.75,7.51,5.08,0.09,0.14,0.13,1.0,fine
3337.0,2477.0,2850.0,4095.0,4095.0,4095.0,4095.0,3871.0,0.09,6.81,7.32,-0.42,0.06,-0.85,1.0,fine
3344.0,2448.0,2846.0,4095.0,4095.0,4095.0,4095.0,3953.0,1.2,7.46,7.41,-0.06,0.04,0.05,1.0,fine
3345.0,2448.0,2837.0,4095.0,4095.0,4095.0,4095.0,3983.0,2.59,7.23,6.94,-0.01,-0.0,-0.09,1.0,fine
3335.0,2435.0,2847.0,4095.0,4095.0,4095.0,4095.0,3986.0,1.92,7.3,6.86,-0.04,0.02,-0.03,1.0,fine
3337.0,2438.0,2855.0,4095.0,4095.0,4095.0,4095.0,4011.0,2.23,7.3,6.72,-0.04,-0.02,-0.03,1.0,fine
3314.0,2443.0,2845.0,4095.0,4095.0,4095.0,4095.0,3998.0,2.18,7.36,6.83,-0.05,0.01,-0.06,1.0,fine
3302.0,2398.0,2859.0,4095.0,4095.0,4095.0,4095.0,4095.0,2.09,7.33,6.9,-0.04,0.01,-0.01,1.0,fine
3312.0,2405.0,2865.0,4095.0,4095.0,4095.0,4095.0,4075.0,2.59,7.35,6.66,-0.1,-0.05,-0.1,1.0,fine
3341.0,2409.0,2858.0,4095.0,4095.0,4095.0,4095.0,4095.0,-1.86,7.19,7.96,0.06,0.15,0.28,1.0,fine
3291.0,2423.0,2859.0,4095.0,4095.0,4095.0,4095.0,4092.0,6.16,7.45,6.3,0.06,-0.09,0.77,1.0,fine
3295.0,2402.0,2861.0,4095.0,4095.0,4095.0,4095.0,4081.0,6.94,6.76,4.06,-0.19,-0.46,-0.99,1.0,fine
3414.0,2441.0,2864.0,4095.0,4095.0,4095.0,4095.0,4066.0,-6.85,7.14,9.89,-0.34,-0.07,-0.31,1.0,fine
3309.0,2427.0,2855.0,4095.0,4095.0,4095.0,4095.0,4047.0,5.84,6.8,7.01,0.23,0.02,1.52,1.0,fine
3281.0,2401.0,2855.0,4095.0,4095.0,4095.0,4095.0,3974.0,9.18,6.59,4.27,-0.29,-0.35,-1.09,1.0,fine
3419.0,2449.0,2863.0,4095.0,4095.0,4095.0,4095.0,4052.0,-7.78,7.27,9.12,-0.02,0.01,-0.15,1.0,fine
3312.0,2447.0,2860.0,4095.0,4095.0,4095.0,4095.0,3999.0,7.86,7.06,6.81,0.25,-0.11,1.13,1.0,fine
3281.0,2407.0,2859.0,4095.0,4095.0,4095.0,4095.0,4001.0,7.18,6.32,4.19,-0.55,-0.36,-1.28,1.0,fine
3479.0,2463.0,2864.0,4095.0,4095.0,4095.0,4095.0,4064.0,-7.23,7.02,9.94,-0.16,-0.14,-0.29,1.0,fine
3381.0,2475.0,2869.0,4095.0,4095.0,4095.0,4095.0,4090.0,3.68,6.71,7.84,0.29,-0.03,1.44,1.0,fine
3309.0,2494.0,2863.0,4095.0,4095.0,4095.0,4095.0,4018.0,8.25,6.98,4.43,0.08,-0.21,-0.33,1.0,fine
3397.0,2484.0,2866.0,4095.0,4095.0,4095.0,4095.0,4095.0,-0.69,6.65,7.94,-0.25,-0.09,-0.74,1.0,fine
3408.0,2480.0,2847.0,4095.0,4095.0,4095.0,4095.0,4095.0,1.28,7.27,7.26,-0.11,0.01,-0.03,1.0,fine
3397.0,2476.0,2867.0,4095.0,4095.0,4095.0,4095.0,4095.0,2.55,7.33,7.15,-0.06,-0.01,-0.07,1.0,fine
3393.0,2449.0,2855.0,4095.0,4095.0,4095.0,4095.0,4095.0,1.93,7.19,6.96,-0.04,-0.05,-0.08,1.0,fine
3367.0,2468.0,2853.0,4095.0,4095.0,4095.0,4095.0,4095.0,2.15,7.26,6.88,-0.07,-0.0,-0.06,1.0,fine
3370.0,2509.0,2848.0,4095.0,4095.0,4095.0,4095.0,4095.0,1.88,7.24,6.97,-0.07,0.01,-0.05,1.0,fine
2898.0,2429.0,2862.0,4095.0,4095.0,4095.0,4095.0,4051.0,1.87,7.22,7.05,-0.04,-0.02,-0.03,1.0,fine
2859.0,2416.0,2862.0,4095.0,4095.0,4095.0,4095.0,4095.0,2.82,7.39,6.74,-0.04,-0.13,-0.01,1.0,fine
2778.0,2380.0,2866.0,4095.0,4095.0,4095.0,4095.0,4076.0,-0.75,7.15,7.82,-0.09,0.1,-0.1,1.0,fine
2743.0,2338.0,2874.0,4095.0,4095.0,4095.0,4095.0,4095.0,1.75,7.14,7.03,0.32,0.5,1.1,1.0,fine
2756.0,2319.0,2869.0,4095.0,4095.0,4095.0,4095.0,4095.0,8.83,6.96,4.85,0.16,-0.35,-0.24,1.0,fine
2755.0,2315.0,2867.0,4095.0,4095.0,4095.0,4095.0,4095.0,-3.04,6.61,7.09,-0.6,0.01,-1.32,1.0,fine
2752.0,2337.0,2875.0,4095.0,4095.0,4095.0,4095.0,4075.0,-0.82,7.39,8.14,0.18,0.56,1.34,1.0,fine
2774.0,2343.0,2879.0,4095.0,4095.0,4095.0,4095.0,4055.0,10.93,6.87,3.9,-0.07,-0.15,-0.28,1.0,fine
2747.0,2418.0,2877.0,4095.0,4095.0,4095.0,4095.0,4095.0,-4.64,6.44,9.2,-0.48,-0.05,-1.14,1.0,fine
2759.0,2450.0,2869.0,4095.0,4095.0,4095.0,4095.0,4095.0,-0.51,6.86,8.11,0.04,0.33,1.11,1.0,fine
2787.0,2482.0,2883.0,4095.0,4095.0,4095.0,4095.0,4095.0,9.81,6.98,4.5,0.16,-0.11,-0.15,1.0,fine
2749.0,2486.0,2875.0,4095.0,4095.0,4095.0,4095.0,4095.0,-3.85,6.59,8.4,-0.67,0.29,-1.3,1.0,fine
2759.0,2511.0,2870.0,4095.0,4095.0,4095.0,4095.0,4095.0,-1.78,6.79,7.6,0.22,0.35,1.2,1.0,fine
2787.0,2514.0,2869.0,3927.0,4095.0,4095.0,4095.0,4095.0,8.77,7.11,5.35,0.16,0.26,0.26,1.0,fine
2786.0,2529.0,2874.0,4095.0,4095.0,4095.0,4095.0,4095.0,0.46,6.75,6.62,-0.15,-0.07,-0.65,1.0,fine
2781.0,2528.0,2864.0,4095.0,4095.0,4095.0,4095.0,4095.0,1.64,7.16,7.51,-0.14,0.0,-0.1,1.0,fine
2791.0,2527.0,2875.0,4095.0,4095.0,4095.0,4095.0,4095.0,2.09,7.19,7.07,-0.07,-0.02,-0.08,1.0,fine
2793.0,2542.0,2882.0,4095.0,4095.0,4095.0,4095.0,4095.0,2.08,7.17,7.17,-0.05,0.0,-0.04,1.0,fine
2774.0,2529.0,2874.0,4095.0,4095.0,4095.0,4095.0,4095.0,1.97,7.28,7.02,-0.06,0.01,-0.06,1.0,fine
2786.0,2531.0,2884.0,4095.0,4095.0,4095.0,4095.0,4095.0,2.12,7.2,6.94,-0.01,-0.01,-0.08,1.0,fine
2780.0,2546.0,2864.0,4095.0,4095.0,4095.0,4095.0,4095.0,1.72,7.23,7.14,-0.11,-0.02,-0.04,1.0,fine
2785.0,2555.0,2855.0,4095.0,4095.0,4095.0,4095.0,4095.0,2.43,7.27,7.07,0.01,-0.1,-0.07,1.0,fine
2789.0,2559.0,2859.0,4095.0,4095.0,4095.0,4095.0,4095.0,2.17,7.36,6.86,-0.09,-0.06,-0.24,1.0,fine
2762.0,2583.0,2864.0,4095.0,4095.0,4095.0,4095.0,4095.0,-3.4,6.99,9.22,0.15,0.3,0.37,1.0,fine
2818.0,2559.0,2862.0,4095.0,4095.0,4095.0,4095.0,4095.0,6.99,7.02,5.54,0.2,-0.08,1.05,1.0,fine
2815.0,2554.0,2874.0,4095.0,4095.0,4095.0,4095.0,4063.0,5.99,6.38,4.99,-0.55,-0.16,-1.38,1.0,fine
2742.0,2559.0,2859.0,4095.0,4095.0,4095.0,4095.0,4095.0,-7.41,7.2,9.96,0.03,0.11,0.14,1.0,fine
2826.0,2559.0,2871.0,4095.0,4095.0,4095.0,4095.0,4095.0,9.28,7.03,5.92,0.24,-0.07,0.97,1.0,fine
2829.0,2555.0,2857.0,4095.0,4095.0,4095.0,4095.0,4095.0,4.47,6.28,5.63,-0.44,-0.29,-1.41,1.0,fine
2769.0,2558.0,2864.0,4095.0,4095.0,4095.0,4095.0,4095.0,-5.43,7.24,9.07,-0.16,0.14,0.2,1.0,fine
2834.0,2559.0,2862.0,4095.0,4095.0,4095.0,4095.0,4095.0,7.47,6.88,6.93,0.34,0.02,0.98,1.0,fine
2849.0,2549.0,2862.0,4095.0,4095.0,4095.0,4095.0,4095.0,6.78,6.29,4.64,-0.4,-0.32,-1.28,1.0,fine
2759.0,2582.0,2863.0,4095.0,4095.0,4095.0,4095.0,4095.0,-6.94,7.11,9.96,-0.04,0.16,-0.07,1.0,fine
2832.0,2553.0,2871.0,4095.0,4095.0,4095.0,4095.0,4095.0,6.25,6.68,7.29,0.19,0.08,1.31,1.0,fine
2839.0,2543.0,2863.0,4095.0,4095.0,4095.0,4095.0,4095.0,7.27,6.78,4.31,-0.16,-0.38,-0.72,1.0,fine
2790.0,2541.0,2851.0,4095.0,4095.0,4095.0,4095.0,4095.0,-2.32,6.95,7.87,-0.13,-0.16,-0.49,1.0,fine
2813.0,2537.0,2854.0,4095.0,4095.0,4095.0,4095.0,4095.0,2.93,7.22,7.39,-0.13,-0.01,0.1,1.0,fine
2807.0,2544.0,2862.0,4095.0,4095.0,4095.0,4095.0,4095.0,1.92,7.17,7.37,-0.04,0.01,-0.13,1.0,fine
2826.0,2541.0,2854.0,4095.0,4095.0,4095.0,4095.0,4095.0,1.91,7.02,7.06,-0.06,-0.07,-0.0,1.0,fine
2823.0,2544.0,2866.0,4095.0,4095.0,4095.0,4095.0,4095.0,1.98,7.15,7.29,-0.05,0.03,-0.05,1.0,fine
2815.0,2544.0,2867.0,4095.0,4095.0,4095.0,4095.0,4095.0,1.72,7.07,7.29,-0.07,-0.01,-0.02,1.0,fine
2815.0,2540.0,2864.0,4095.0,4095.0,4095.0,4095.0,4095.0,2.04,7.15,7.07,-0.04,-0.06,-0.03,1.0,fine
2805.0,2537.0,2859.0,4095.0,4095.0,4095.0,4095.0,4095.0,2.09,7.2,7.05,-0.09,-0.06,-0.05,1.0,fine
2800.0,2549.0,2859.0,4095.0,4095.0,4095.0,4095.0,4095.0,-2.87,6.53,8.74,0.09,0.25,0.51,1.0,fine
2841.0,2533.0,2864.0,4095.0,4095.0,4095.0,4095.0,4095.0,7.43,7.13,6.81,0.07,-0.19,0.62,1.0,fine
2850.0,2541.0,2859.0,4095.0,4095.0,4095.0,4095.0,4095.0,5.69,6.43,4.75,-0.16,-0.35,-1.11,1.0,fine
2759.0,2559.0,2855.0,4095.0,4095.0,4095.0,4095.0,4095.0,-8.18,6.57,10.07,-0.39,0.11,0.0,1.0,fine
2854.0,2558.0,2858.0,4095.0,4095.0,4095.0,4095.0,4095.0,7.06,7.01,7.36,0.34,0.03,1.21,1.0,fine
2869.0,2535.0,2861.0,4095.0,4095.0,4095.0,4095.0,4080.0,7.43,6.14,4.24,-0.39,-0.15,-1.29,1.0,fine
2789.0,2559.0,2866.0,4095.0,4095.0,4095.0,4095.0,4095.0,-6.79,7.04,10.1,-0.08,0.05,-0.07,1.0,fine
2847.0,2539.0,2864.0,4095.0,4095.0,4095.0,4095.0,4095.0,6.23,6.96,7.44,0.46,0.0,1.06,1.0,fine
2883.0,2519.0,2864.0,4095.0,4095.0,4095.0,4095.0,4095.0,7.7,6.41,3.26,-0.42,-0.42,-1.04,1.0,fine
2804.0,2544.0,2867.0,4095.0,4095.0,4095.0,4095.0,4095.0,-5.41,6.62,10.46,-0.34,-0.14,-0.52,1.0,fine
2832.0,2541.0,2869.0,4095.0,4095.0,4095.0,4095.0,4095.0,1.0,6.96,8.57,0.09,0.27,1.18,1.0,fine
2878.0,2547.0,2863.0,4095.0,4095.0,4095.0,4095.0,4095.0,6.74,6.91,5.6,0.15,0.26,0.13,1.0,fine
2855.0,2547.0,2865.0,4095.0,4095.0,4095.0,4095.0,4095.0,1.51,6.67,7.13,-0.35,0.01,-0.82,1.0,fine
2850.0,2526.0,2853.0,4095.0,4095.0,4095.0,4095.0,4095.0,0.3,7.28,7.45,-0.03,0.06,-0.06,1.0,fine
2857.0,2539.0,2862.0,4095.0,4095.0,4095.0,4095.0,4095.0,2.01,7.05,7.27,-0.04,0.05,-0.05,1.0,fine
2847.0,2535.0,2853.0,4095.0,4095.0,4095.0,4095.0,4095.0,1.57,7.02,7.11,-0.04,-0.01,-0.03,1.0,fine
2839.0,2534.0,2864.0,4095.0,4095.0,4095.0,4095.0,4095.0,1.57,6.96,7.25,-0.03,-0.02,-0.05,1.0,fine
2822.0,2505.0,2861.0,4095.0,4095.0,4095.0,4095.0,4095.0,1.69,7.22,7.06,-0.0,-0.07,-0.03,1.0,fine
2832.0,2506.0,2860.0,4095.0,4095.0,4095.0,4095.0,4095.0,1.8,7.18,6.81,-0.16,-0.05,-0.14,1.0,fine
2816.0,2499.0,2864.0,4095.0,4095.0,4095.0,4095.0,4095.0,-3.15,6.97,8.42,-0.1,0.16,0.4,1.0,fine
2854.0,2496.0,2866.0,4095.0,4095.0,4095.0,4095.0,4095.0,6.82,6.93,6.9,-0.07,-0.13,0.85,1.0,fine
2860.0,2483.0,2851.0,4095.0,4095.0,4095.0,4095.0,4095.0,4.73,6.36,6.63,-0.25,-0.02,-1.32,1.0,fine
2784.0,2507.0,2864.0,4095.0,4095.0,4095.0,4095.0,4095.0,-6.53,6.81,8.48,-0.12,0.14,0.18,1.0,fine
2879.0,2512.0,2864.0,4095.0,4095.0,4095.0,4095.0,4095.0,7.51,7.21,7.52,0.13,-0.12,0.87,1.0,fine
2864.0,2512.0,2864.0,4095.0,4095.0,4095.0,4095.0,4095.0,5.94,6.62,4.6,-0.07,-0.37,-1.32,1.0,fine
2800.0,2506.0,2864.0,4095.0,4095.0,4095.0,4095.0,4095.0,-6.52,6.78,9.23,-0.31,-0.1,-0.22,1.0,fine
2847.0,2518.0,2860.0,4095.0,4095.0,4095.0,4095.0,4095.0,2.64,6.9,8.59,0.02,0.3,1.37,1.0,fine
2899.0,2502.0,2859.0,4095.0,4095.0,4095.0,4095.0,4043.0,10.08,7.09,4.03,-0.07,-0.47,-0.51,1.0,fine
2794.0,2526.0,2853.0,4095.0,4095.0,4095.0,4095.0,4095.0,-7.44,6.57,9.73,-0.2,-0.04,-0.94,1.0,fine
2863.0,2529.0,2877.0,4095.0,4095.0,4095.0,4095.0,4095.0,0.88,6.36,7.13,0.01,0.18,1.7,1.0,fine
2909.0,2514.0,2858.0,4013.0,4095.0,4095.0,4095.0,3981.0,10.21,7.3,5.14,0.02,-0.26,-0.52,1.0,fine
2832.0,2532.0,2848.0,4095.0,4095.0,4095.0,4095.0,4095.0,-3.9,6.76,8.06,-0.13,-0.28,-0.6,1.0,fine
2866.0,2525.0,2859.0,4095.0,4095.0,4095.0,4095.0,4095.0,2.1,7.13,6.88,-0.12,-0.08,0.27,1.0,fine
2870.0,2521.0,2850.0,4095.0,4095.0,4095.0,4095.0,4095.0,2.3,7.18,7.05,-0.08,0.04,-0.16,1.0,fine
2861.0,2530.0,2852.0,4095.0,4095.0,4095.0,4095.0,4095.0,1.25,7.19,7.06,-0.14,0.01,-0.06,1.0,fine
2862.0,2522.0,2865.0,4095.0,4095.0,4095.0,4095.0,4095.0,1.62,7.15,7.29,-0.07,0.02,-0.06,1.0,fine
2862.0,2521.0,2853.0,4095.0,4095.0,4095.0,4095.0,4095.0,1.46,7.05,7.35,-0.06,0.05,-0.01,1.0,fine
2867.0,2556.0,2849.0,4095.0,4095.0,4095.0,4095.0,4095.0,1.75,7.12,7.2,-0.07,0.02,0.03,1.0,fine
2877.0,2547.0,2861.0,4095.0,4095.0,4095.0,4095.0,4095.0,3.66,6.9,7.0,-0.12,-0.18,-0.04,1.0,fine
2842.0,2542.0,2864.0,4095.0,4095.0,4095.0,4095.0,4095.0,-1.58,7.16,7.63,-0.15,0.07,-0.23,1.0,fine
2852.0,2550.0,2864.0,4095.0,4095.0,4095.0,4095.0,4095.0,1.8,6.37,7.71,0.08,0.49,1.33,1.0,fine
2888.0,2532.0,2864.0,4095.0,4095.0,4095.0,4095.0,3993.0,12.06,6.93,5.1,-0.01,-0.52,-0.86,1.0,fine
2757.0,2581.0,2847.0,4095.0,4095.0,4095.0,4095.0,4095.0,-9.38,6.18,9.89,0.0,-0.18,-0.21,1.0,fine
2873.0,2550.0,2850.0,4095.0,4095.0,4095.0,4095.0,4095.0,8.43,6.91,7.21,0.16,-0.28,1.19,1.0,fine
2857.0,2539.0,2865.0,4095.0,4095.0,4095.0,4095.0,4095.0,5.88,6.09,5.11,-0.13,-0.39,-1.57,1.0,fine
2795.0,2559.0,2848.0,4095.0,4095.0,4095.0,4095.0,4095.0,-6.69,6.73,8.75,-0.24,0.07,0.17,1.0,fine
2864.0,2546.0,2871.0,4095.0,4095.0,4095.0,4095.0,4095.0,6.83,7.12,8.33,0.22,0.13,1.03,1.0,fine
2839.0,2501.0,2862.0,4095.0,4095.0,4095.0,4095.0,4095.0,7.57,6.45,4.24,-0.25,-0.32,-1.14,1.0,fine
2707.0,2559.0,2862.0,4095.0,4095.0,4095.0,4095.0,4095.0,-9.2,6.51,10.95,-0.21,0.09,0.22,1.0,fine
2832.0,2543.0,2858.0,4095.0,4095.0,4095.0,4095.0,4095.0,9.27,6.5,6.11,0.19,-0.21,1.26,1.0,fine
2846.0,2553.0,2848.0,4095.0,4095.0,4095.0,4095.0,4095.0,3.9,6.15,6.8,-0.4,-0.25,-1.56,1.0,fine
2815.0,2559.0,2843.0,4095.0,4095.0,4095.0,4095.0,4095.0,-1.72,7.27,7.69,0.11,-0.08,-0.17,1.0,fine
2849.0,2559.0,2847.0,4095.0,4095.0,4095.0,4095.0,4095.0,3.11,6.92,6.82,-0.12,0.03,-0.08,1.0,fine
2842.0,2559.0,2853.0,4095.0,4095.0,4095.0,4095.0,4095.0,1.36,7.29,7.31,-0.11,0.09,-0.11,1.0,fine
2845.0,2559.0,2861.0,4095.0,4095.0,4095.0,4095.0,4095.0,1.89,7.21,7.18,-0.03,0.05,-0.01,1.0,fine
2862.0,2559.0,2854.0,4095.0,4095.0,4095.0,4095.0,4095.0,1.79,7.05,7.08,-0.1,0.05,-0.05,1.0,fine
2864.0,2584.0,2859.0,4095.0,4095.0,4095.0,4095.0,4095.0,1.72,7.24,7.09,-0.07,0.05,-0.05,1.0,fine
2878.0,2542.0,2864.0,4095.0,4095.0,4095.0,4095.0,4095.0,1.47,7.24,7.08,-0.08,-0.0,-0.02,1.0,fine
2875.0,2533.0,2853.0,4095.0,4095.0,4095.0,4095.0,4095.0,1.68,7.22,7.04,-0.03,-0.04,-0.06,1.0,fine
2865.0,2534.0,2849.0,4095.0,4095.0,4095.0,4095.0,4095.0,-0.08,6.69,7.61,0.08,0.31,-0.06,1.0,fine
2886.0,2535.0,2862.0,4095.0,4095.0,4095.0,4095.0,4095.0,-0.31,6.85,8.42,-0.14,0.24,0.99,1.0,fine
2939.0,2529.0,2863.0,4095.0,4095.0,4095.0,4095.0,4095.0,10.65,7.38,5.03,0.04,-0.49,-0.04,1.0,fine
2867.0,2528.0,2845.0,4095.0,4095.0,4095.0,4095.0,4095.0,-2.98,6.37,8.42,-0.45,-0.15,-1.33,1.0,fine
2880.0,2531.0,2853.0,4095.0,4095.0,4095.0,4095.0,4095.0,-2.26,6.87,7.41,-0.04,0.38,1.2,1.0,fine
2947.0,2513.0,2864.0,4095.0,4095.0,4095.0,4095.0,4095.0,10.47,6.99,5.43,0.06,0.02,-0.04,1.0,fine
2887.0,2518.0,2863.0,4095.0,4095.0,4095.0,4095.0,4095.0,-2.06,6.15,8.58,-0.34,0.08,-1.45,1.0,fine
2887.0,2547.0,2849.0,4095.0,4095.0,4095.0,4095.0,4095.0,-3.45,6.73,7.45,-0.05,0.42,1.06,1.0,fine
2965.0,2541.0,2853.0,4095.0,4095.0,4095.0,4095.0,4095.0,10.82,7.14,6.3,0.12,0.03,0.38,1.0,fine
2927.0,2543.0,2861.0,4095.0,4095.0,4095.0,4095.0,4095.0,0.34,6.04,6.99,-0.46,0.12,-1.74,1.0,fine
2866.0,2559.0,2847.0,4095.0,4095.0,4095.0,4095.0,4095.0,-6.38,6.84,7.88,0.09,0.5,1.05,1.0,fine
2965.0,2559.0,2863.0,4095.0,4095.0,4095.0,4095.0,4095.0,10.5,6.83,6.44,0.21,0.29,0.63,1.0,fine
2946.0,2559.0,2854.0,4095.0,4095.0,4095.0,4095.0,4095.0,2.5,6.38,6.84,-0.35,-0.08,-1.37,1.0,fine
2927.0,2559.0,2863.0,4095.0,4095.0,4095.0,4095.0,4095.0,-0.61,7.24,7.3,-0.07,0.11,-0.09,1.0,fine
2928.0,2554.0,2843.0,4095.0,4095.0,4095.0,4095.0,4095.0,2.17,7.06,7.39,-0.08,0.13,-0.1,1.0,fine
2930.0,2559.0,2851.0,4095.0,4095.0,4095.0,4095.0,4095.0,1.15,7.04,7.37,-0.08,0.1,-0.01,1.0,fine
2921.0,2545.0,2851.0,4095.0,4095.0,4095.0,4095.0,4095.0,1.64,6.9,7.31,-0.03,0.02,-0.02,1.0,fine
2919.0,2544.0,2858.0,4095.0,4095.0,4095.0,4095.0,4095.0,1.58,7.05,7.27,-0.08,0.08,-0.07,1.0,fine
2923.0,2554.0,2854.0,4095.0,4095.0,4095.0,4095.0,4095.0,1.33,7.04,7.42,-0.04,-0.04,0.01,1.0,fine
2934.0,2547.0,2846.0,4095.0,4095.0,4095.0,4095.0,4095.0,1.53,6.9,7.26,-0.04,-0.07,-0.03,1.0,fine
2909.0,2559.0,2844.0,4095.0,4095.0,4095.0,4095.0,4095.0,-0.78,7.04,8.12,-0.0,0.07,0.09,1.0,fine
2926.0,2588.0,2850.0,4095.0,4095.0,4095.0,4095.0,4095.0,1.75,6.91,7.35,0.24,0.13,1.24,1.0,fine
2965.0,2559.0,2848.0,4095.0,4095.0,4095.0,4095.0,4095.0,9.86,6.95,4.47,0.03,-0.38,0.11,1.0,fine
2912.0,2559.0,2849.0,4095.0,4095.0,4095.0,4095.0,4095.0,-2.08,6.1,9.06,-0.51,0.05,-1.33,1.0,fine
2911.0,2559.0,2860.0,4095.0,4095.0,4095.0,4095.0,4095.0,-1.86,6.79,6.51,0.21,0.33,1.02,1.0,fine
2961.0,2555.0,2849.0,4095.0,4095.0,4095.0,4095.0,4095.0,11.09,7.33,5.62,-0.05,0.1,-0.1,1.0,fine
2887.0,2559.0,2837.0,4095.0,4095.0,4095.0,4095.0,4095.0,-3.24,6.32,8.86,-0.32,0.1,-1.18,1.0,fine
2896.0,2557.0,2847.0,4095.0,4095.0,4095.0,4095.0,4095.0,-0.7,6.64,6.62,-0.06,0.31,1.18,1.0,fine
2942.0,2526.0,2858.0,4095.0,4095.0,4095.0,4095.0,4095.0,11.1,7.38,5.94,-0.01,0.12,-0.17,1.0,fine
2878.0,2547.0,2853.0,4095.0,4095.0,4095.0,4095.0,4095.0,-3.0,6.01,8.16,-0.48,0.27,-1.29,1.0,fine
2879.0,2557.0,2861.0,4095.0,4095.0,4095.0,4095.0,4095.0,-1.75,6.64,8.11,0.11,0.33,1.17,1.0,fine
2951.0,2559.0,2860.0,4095.0,4095.0,4095.0,4095.0,4095.0,9.53,6.96,5.74,0.15,0.14,-0.06,1.0,fine
2922.0,2557.0,2858.0,4095.0,4095.0,4095.0,4095.0,4095.0,0.29,6.33,7.71,-0.47,0.01,-1.22,1.0,fine
2917.0,2559.0,2857.0,4095.0,4095.0,4095.0,4095.0,4095.0,-1.87,7.01,7.26,0.33,0.26,1.12,1.0,fine
2971.0,2559.0,2864.0,4095.0,4095.0,4095.0,4095.0,4095.0,10.0,7.04,5.48,-0.03,-0.06,-0.15,1.0,fine
2917.0,2559.0,2871.0,4095.0,4095.0,4095.0,4095.0,4095.0,-0.74,6.39,8.26,-0.2,0.09,-1.03,1.0,fine
2921.0,2559.0,2863.0,4095.0,4095.0,4095.0,4095.0,4095.0,0.92,7.1,7.19,-0.09,-0.01,0.06,1.0,fine
2910.0,2559.0,2862.0,4095.0,4095.0,4095.0,4095.0,4095.0,2.49,7.1,7.37,-0.07,0.07,-0.07,1.0,fine
2927.0,2547.0,2854.0,4095.0,4095.0,4095.0,4095.0,4095.0,1.71,7.02,7.07,-0.09,-0.01,-0.04,1.0,fine
2911.0,2553.0,2864.0,4095.0,4095.0,4095.0,4095.0,4095.0,2.43,7.21,7.59,-0.03,-0.06,-0.12,1.0,fine
2882.0,2544.0,2858.0,4095.0,4095.0,4095.0,4095.0,4095.0,-2.28,6.78,7.72,0.06,0.27,0.08,1.0,fine
2929.0,2551.0,2864.0,4095.0,4095.0,4095.0,4095.0,4095.0,5.04,6.78,6.85,-0.21,-0.07,1.12,1.0,fine
2938.0,2559.0,2861.0,4095.0,4095.0,4095.0,4095.0,4095.0,8.63,6.87,5.07,-0.1,-0.5,-0.94,1.0,fine
2820.0,2559.0,2864.0,4095.0,4095.0,4095.0,4095.0,4095.0,-8.34,6.14,9.47,-0.28,-0.05,-0.28,1.0,fine
2925.0,2559.0,2859.0,4095.0,4095.0,4095.0,4095.0,4095.0,5.22,6.64,7.47,0.1,-0.09,1.42,1.0,fine
2960.0,2559.0,2851.0,4095.0,4095.0,4095.0,4095.0,4095.0,9.21,6.62,5.19,-0.06,-0.44,-1.05,1.0,fine
2842.0,2559.0,2863.0,4095.0,4095.0,4095.0,4095.0,4095.0,-7.52,6.6,8.62,-0.14,-0.12,-0.47,1.0,fine
2926.0,2559.0,2855.0,4095.0,4095.0,4095.0,4095.0,4095.0,3.51,6.43,8.16,-0.08,-0.03,1.47,1.0,fine
2954.0,2559.0,2862.0,4095.0,4095.0,4095.0,4095.0,4095.0,10.04,6.77,5.85,-0.05,-0.24,-0.79,1.0,fine
2830.0,2551.0,2858.0,4095.0,4095.0,4095.0,4095.0,4095.0,-6.14,6.35,9.1,-0.26,0.04,-0.94,1.0,fine
2882.0,2547.0,2850.0,4095.0,4095.0,4095.0,4095.0,4095.0,0.67,6.2,7.44,0.01,0.41,1.65,1.0,fine
2965.0,2559.0,2864.0,4095.0,4095.0,4095.0,4095.0,4095.0,12.76,6.83,4.79,0.01,-0.48,-0.61,1.0,fine
2803.0,2599.0,2843.0,4095.0,4095.0,4095.0,4095.0,4095.0,-8.83,5.77,10.3,-0.26,0.21,-1.27,1.0,fine
2896.0,2619.0,2847.0,4095.0,4095.0,4095.0,4095.0,4095.0,-0.25,5.86,8.65,-0.07,0.25,1.84,1.0,fine
3006.0,2645.0,2864.0,4095.0,4095.0,4095.0,4095.0,4095.0,13.41,7.16,4.0,0.14,-0.35,-0.44,1.0,fine
2896.0,2640.0,2850.0,4095.0,4095.0,4095.0,4095.0,4095.0,-5.81,5.71,9.81,-0.25,-0.07,-1.16,1.0,fine
2928.0,2624.0,2847.0,4095.0,4095.0,4095.0,4095.0,4095.0,0.62,7.07,6.17,0.12,-0.01,0.26,1.0,fine
2928.0,2631.0,2857.0,4095.0,4095.0,4095.0,4095.0,4095.0,2.58,7.11,7.39,-0.11,0.12,-0.1,1.0,fine
3008.0,2332.0,2833.0,4095.0,4095.0,4095.0,4095.0,4095.0,2.47,7.14,7.16,0.05,-0.06,-0.05,1.0,fine
3019.0,2256.0,2831.0,4095.0,4095.0,4095.0,4095.0,3985.0,3.35,7.44,6.16,0.18,0.0,0.04,1.0,fine
3001.0,2131.0,2831.0,4095.0,4095.0,4095.0,4095.0,3611.0,-1.02,7.53,7.73,0.05,0.15,-0.4,1.0,fine
3053.0,2119.0,2816.0,4095.0,4095.0,4095.0,4095.0,3349.0,5.98,6.8,5.75,0.21,0.31,1.66,1.0,fine
3043.0,2222.0,2818.0,4095.0,4095.0,4095.0,4095.0,3280.0,11.55,7.34,2.71,-0.15,-0.57,-1.52,1.0,fine
3007.0,2309.0,2827.0,4095.0,4095.0,4095.0,4095.0,3724.0,-12.39,5.46,12.16,-1.05,-0.47,-0.32,1.0,fine
3069.0,2289.0,2841.0,4095.0,4095.0,4095.0,4095.0,3644.0,9.4,6.88,7.2,0.26,-0.09,2.09,1.0,fine
3056.0,2271.0,2832.0,4095.0,4095.0,4095.0,4095.0,3434.0,8.68,6.7,2.29,-0.51,-0.49,-1.94,1.0,fine
3040.0,2409.0,2818.0,4095.0,4095.0,4095.0,4095.0,3856.0,-9.17,5.82,9.99,0.45,0.59,0.92,1.0,fine
3021.0,2470.0,2843.0,4095.0,4095.0,4095.0,4095.0,3862.0,15.65,7.36,4.41,0.27,-0.15,0.84,1.0,fine
2961.0,2502.0,2847.0,4095.0,4095.0,4095.0,4095.0,3846.0,-0.99,5.96,6.78,-0.9,-0.31,-2.27,1.0,fine
2986.0,2519.0,2857.0,4095.0,4095.0,4095.0,4095.0,4095.0,-3.24,6.47,7.74,0.57,0.87,1.75,1.0,fine
3007.0,2483.0,2864.0,4095.0,4095.0,4095.0,4095.0,3786.0,17.53,7.79,2.12,0.25,-0.22,-0.18,1.0,fine
2969.0,2486.0,2848.0,4095.0,4095.0,4095.0,4095.0,3971.0,-6.77,5.61,10.64,-0.22,-0.43,-1.02,1.0,fine
3002.0,2475.0,2842.0,4095.0,4095.0,4095.0,4095.0,3971.0,4.45,7.36,5.31,-0.01,0.03,0.24,1.0,fine
3023.0,2473.0,2855.0,4095.0,4095.0,4095.0,4095.0,4010.0,2.38,7.41,6.91,-0.13,0.1,-0.35,1.0,fine
3014.0,2477.0,2850.0,4095.0,4095.0,4095.0,4095.0,3971.0,2.46,7.44,6.66,-0.09,-0.09,0.03,1.0,fine
3003.0,2461.0,2847.0,4095.0,4095.0,4095.0,4095.0,4001.0,2.8,7.48,6.81,-0.12,0.01,-0.07,1.0,fine
3015.0,2452.0,2842.0,4095.0,4095.0,4095.0,4095.0,4015.0,2.44,7.35,6.73,-0.04,-0.04,-0.01,1.0,fine
3015.0,2461.0,2843.0,4095.0,4095.0,4095.0,4095.0,3968.0,2.64,7.35,6.66,0.0,-0.07,-0.0,1.0,fine
3098.0,2408.0,2822.0,4095.0,4095.0,4095.0,4095.0,3941.0,0.22,7.64,7.72,0.12,0.2,-0.2,1.0,fine
3104.0,2432.0,2826.0,4095.0,4095.0,4095.0,4095.0,3979.0,0.58,6.2,6.82,0.44,0.34,1.66,1.0,fine
3087.0,2396.0,2832.0,4095.0,4095.0,4095.0,4095.0,3492.0,15.05,8.03,3.51,-0.07,-0.6,-0.34,1.0,fine
3088.0,2465.0,2826.0,4095.0,4095.0,4095.0,4095.0,3824.0,-6.09,6.01,8.88,-0.62,-0.48,-1.2,1.0,fine
3120.0,2461.0,2829.0,4095.0,4095.0,4095.0,4095.0,3930.0,0.16,6.65,7.54,0.34,0.62,1.64,1.0,fine
3110.0,2415.0,2835.0,4095.0,4095.0,4095.0,4095.0,3630.0,14.85,7.8,2.65,-0.1,-0.36,-0.71,1.0,fine
3119.0,2480.0,2818.0,4095.0,4095.0,4095.0,4095.0,3937.0,-8.14,6.0,10.28,-0.47,-0.24,-1.02,1.0,fine
3136.0,2429.0,2832.0,4095.0,4095.0,4095.0,4095.0,3855.0,3.49,6.35,7.63,0.23,0.24,1.85,1.0,fine
3103.0,2303.0,2833.0,4095.0,4095.0,4095.0,4095.0,3629.0,13.46,7.45,1.75,0.09,-0.56,-1.28,1.0,fine
3157.0,2416.0,2819.0,4095.0,4095.0,4095.0,4095.0,3902.0,-8.43,5.9,11.58,-0.74,-0.1,-1.04,1.0,fine
3210.0,2390.0,2821.0,4095.0,4095.0,4095.0,4095.0,3978.0,2.12,6.0,8.49,0.11,0.35,1.88,1.0,fine
3038.0,2352.0,2829.0,4095.0,4095.0,4095.0,4095.0,4051.0,14.62,8.06,2.98,0.1,-0.5,-0.49,1.0,fine
2880.0,2355.0,2815.0,4095.0,4095.0,4095.0,4095.0,4095.0,-6.61,5.95,10.27,-0.48,-0.31,-1.25,1.0,fine
3023.0,2379.0,2815.0,4095.0,4095.0,4095.0,4095.0,4095.0,0.96,6.42,6.17,-0.02,0.51,1.44,1.0,fine
3071.0,2384.0,2816.0,4095.0,4095.0,4095.0,4095.0,4095.0,8.73,7.91,5.8,-0.1,0.31,-0.15,1.0,fine
3081.0,2385.0,2823.0,4095.0,4095.0,4095.0,4095.0,4095.0,0.92,7.07,6.63,-0.15,-0.11,-0.24,1.0,fine
3087.0,2373.0,2817.0,4095.0,4095.0,4095.0,4095.0,4095.0,3.35,7.2,6.76,-0.14,0.03,-0.11,1.0,fine
3095.0,2369.0,2810.0,4095.0,4095.0,4095.0,4095.0,4095.0,2.45,7.33,7.0,0.02,-0.0,-0.03,1.0,fine
3109.0,2377.0,2810.0,4095.0,4095.0,4095.0,4095.0,4095.0,2.88,7.25,6.57,-0.06,-0.01,-0.01,1.0,fine
3095.0,2363.0,2818.0,4095.0,4095.0,4095.0,4095.0,4095.0,2.91,7.32,6.5,-0.06,-0.04,-0.07,1.0,fine
3152.0,2352.0,2805.0,4095.0,4095.0,4095.0,4095.0,4095.0,2.85,7.37,6.54,-0.08,-0.09,0.02,1.0,fine
3171.0,2320.0,2810.0,4095.0,4095.0,4095.0,4095.0,4095.0,5.22,7.52,6.33,-0.01,-0.33,-0.12,1.0,fine
3166.0,2368.0,2810.0,4095.0,4095.0,4095.0,4095.0,4095.0,-4.0,6.86,8.65,-0.42,-0.12,-0.5,1.0,fine
3174.0,2384.0,2800.0,4095.0,4095.0,4095.0,4095.0,4095.0,2.86,5.88,6.86,0.08,0.17,1.98,1.0,fine
3147.0,2307.0,2811.0,4095.0,4095.0,4095.0,4095.0,3917.0,11.38,7.12,4.62,-0.02,-0.57,-0.91,1.0,fine
3174.0,2398.0,2804.0,4095.0,4095.0,4095.0,4095.0,4095.0,-6.45,5.98,7.94,-0.69,-0.21,-1.04,1.0,fine
3175.0,2301.0,2802.0,4095.0,4095.0,4095.0,4095.0,4050.0,1.98,6.27,8.63,0.14,0.67,1.51,1.0,fine
3199.0,2192.0,2809.0,4095.0,4095.0,4095.0,4095.0,3791.0,14.61,7.62,4.36,-0.12,-0.47,-0.33,1.0,fine
3136.0,2305.0,2790.0,4095.0,4095.0,4095.0,4095.0,3924.0,-7.57,5.53,10.58,-0.37,-0.02,-1.19,1.0,fine
3059.0,2326.0,2800.0,4095.0,4095.0,4095.0,4095.0,3901.0,-0.08,5.46,8.74,0.28,0.09,1.72,1.0,fine
3114.0,2260.0,2821.0,4095.0,4095.0,4095.0,4095.0,3879.0,14.32,7.64,3.18,0.09,-0.27,-0.27,1.0,fine
3056.0,2395.0,2812.0,4095.0,4095.0,4095.0,4095.0,4022.0,-3.76,5.88,8.49,-0.63,0.18,-1.71,1.0,fine
3233.0,2313.0,2817.0,4095.0,4095.0,4095.0,4095.0,4023.0,-4.56,5.11,7.1,-0.16,0.98,1.09,1.0,fine
3117.0,2192.0,2821.0,4095.0,4095.0,4095.0,4095.0,3803.0,12.6,7.89,6.68,0.41,0.45,0.63,1.0,fine
3007.0,2301.0,2830.0,4095.0,4095.0,4095.0,4095.0,4044.0,2.81,6.63,5.89,-0.34,-0.38,-1.48,1.0,fine
2987.0,2360.0,2829.0,4095.0,4095.0,4095.0,4095.0,4095.0,-3.95,5.69,8.59,0.01,0.1,0.17,1.0,fine
2953.0,2417.0,2837.0,4095.0,4095.0,4095.0,4095.0,4095.0,6.35,7.6,6.62,-0.04,0.03,0.15,1.0,fine
2907.0,2490.0,2841.0,4095.0,4095.0,4095.0,4095.0,4095.0,1.66,6.91,7.61,-0.03,0.09,-0.16,1.0,fine
2879.0,2491.0,2835.0,4095.0,4095.0,4095.0,4095.0,4095.0,2.47,6.79,6.99,-0.07,0.0,0.05,1.0,fine
2889.0,2462.0,2832.0,4095.0,4095.0,4095.0,4095.0,4095.0,2.85,6.87,7.22,-0.08,0.05,-0.01,1.0,fine
2896.0,2386.0,2822.0,4095.0,4095.0,4095.0,4095.0,4095.0,2.9,7.02,7.28,-0.01,-0.2,-0.05,1.0,fine
2896.0,2368.0,2832.0,4095.0,4095.0,4095.0,4095.0,4095.0,3.6,7.54,7.71,0.23,-0.35,-0.36,1.0,fine
2871.0,2366.0,2819.0,4095.0,4095.0,4095.0,4095.0,4095.0,-2.78,5.94,6.67,0.42,0.01,1.12,1.0,fine
2947.0,2393.0,2832.0,4095.0,4095.0,4095.0,4095.0,4095.0,12.26,7.66,4.48,-0.01,-0.31,0.43,1.0,fine
2934.0,2379.0,2815.0,4095.0,4095.0,4095.0,4095.0,4095.0,1.83,5.99,5.8,-0.42,-0.3,-1.57,1.0,fine
2960.0,2404.0,2830.0,4095.0,4095.0,4095.0,4095.0,4095.0,-6.42,5.44,11.1,-0.18,0.54,0.91,1.0,fine
3012.0,2409.0,2829.0,4095.0,4095.0,4095.0,4095.0,3951.0,14.42,7.34,5.22,0.49,0.24,1.13,1.0,fine
3027.0,2441.0,2817.0,4095.0,4095.0,4095.0,4095.0,4095.0,4.12,5.31,4.33,-0.94,-0.44,-2.14,1.0,fine
3083.0,2502.0,2835.0,4095.0,4095.0,4095.0,4095.0,4095.0,-7.47,5.95,9.18,0.34,0.85,1.16,1.0,fine
3071.0,2504.0,2832.0,4095.0,4095.0,4095.0,4095.0,4031.0,15.93,6.99,5.45,0.23,-0.04,0.79,1.0,fine
3055.0,2480.0,2831.0,4095.0,4095.0,4095.0,4095.0,4095.0,4.48,5.38,5.77,-0.98,-0.82,-2.35,1.0,fine
3057.0,2496.0,2834.0,4095.0,4095.0,4095.0,4095.0,4095.0,-9.11,5.62,10.57,0.54,0.54,0.78,1.0,fine
3067.0,2509.0,2846.0,4095.0,4095.0,4095.0,4095.0,4095.0,13.78,6.77,5.41,0.62,0.34,1.38,1.0,fine
3071.0,2475.0,2842.0,4095.0,4095.0,4095.0,4095.0,4095.0,6.16,5.76,3.94,-0.61,-0.6,-1.83,1.0,fine
3090.0,2467.0,2828.0,4095.0,4095.0,4095.0,4095.0,4095.0,-2.03,6.78,8.16,-0.11,-0.04,-0.41,1.0,fine
3084.0,2455.0,2834.0,4095.0,4095.0,4095.0,4095.0,4095.0,4.07,7.33,6.73,-0.15,0.16,0.09,1.0,fine
3071.0,2459.0,2827.0,4095.0,4095.0,4095.0,4095.0,4095.0,2.86,7.12,7.16,-0.06,0.02,-0.15,1.0,fine
3057.0,2441.0,2830.0,4095.0,4095.0,4095.0,4095.0,4095.0,2.72,7.06,6.79,-0.06,0.02,0.03,1.0,fine
3055.0,2448.0,2832.0,4095.0,4095.0,4095.0,4095.0,4095.0,3.29,7.0,6.87,-0.08,-0.0,-0.04,1.0,fine
3055.0,2443.0,2842.0,4095.0,4095.0,4095.0,4095.0,4095.0,2.57,7.07,7.16,-0.09,-0.02,-0.05,1.0,fine
3067.0,2448.0,2832.0,4095.0,4095.0,4095.0,4095.0,4095.0,2.93,6.92,7.08,-0.08,-0.01,-0.07,1.0,fine
3057.0,2453.0,2833.0,4095.0,4095.0,4095.0,4095.0,4095.0,3.04,7.01,6.66,-0.1,-0.04,-0.16,1.0,fine
3047.0,2467.0,2821.0,4095.0,4095.0,4095.0,4095.0,4095.0,-1.21,6.74,8.32,-0.07,0.39,0.08,1.0,fine
3058.0,2483.0,2838.0,4095.0,4095.0,4095.0,4095.0,4095.0,2.57,6.38,7.55,0.39,0.65,1.42,1.0,fine
3057.0,2462.0,2836.0,4095.0,4095.0,4095.0,4095.0,4095.0,10.69,7.17,4.5,0.19,-0.14,-0.01,1.0,fine
3057.0,2437.0,2832.0,4095.0,4095.0,4095.0,4095.0,4095.0,2.52,5.67,5.63,-0.89,-0.22,-1.77,1.0,fine
3083.0,2457.0,2834.0,4095.0,4095.0,4095.0,4095.0,4095.0,-6.29,5.99,9.67,0.24,0.85,1.1,1.0,fine
3055.0,2465.0,2837.0,4095.0,4095.0,4095.0,4095.0,4095.0,12.16,6.77,7.16,0.14,0.57,1.32,1.0,fine
3055.0,2469.0,2825.0,4095.0,4095.0,4095.0,4095.0,4095.0,7.49,6.0,4.86,-0.24,-0.66,-1.76,1.0,fine
3061.0,2449.0,2835.0,4095.0,4095.0,4095.0,4095.0,4095.0,-8.73,5.64,10.41,0.07,0.26,0.15,1.0,fine
3088.0,2463.0,2825.0,4095.0,4095.0,4095.0,4095.0,4095.0,9.53,6.61,6.46,0.25,0.12,1.48,1.0,fine
3058.0,2466.0,2832.0,4095.0,4095.0,4095.0,4095.0,4095.0,8.48,6.61,4.92,-0.2,-0.72,-1.54,1.0,fine
3017.0,2539.0,2832.0,4095.0,4095.0,4095.0,4095.0,4087.0,-7.99,5.8,12.14,-0.05,-0.04,0.07,1.0,fine
3088.0,2587.0,2830.0,4095.0,4095.0,4095.0,4095.0,4095.0,8.18,5.88,7.07,0.33,0.13,1.46,1.0,fine
3099.0,2584.0,2837.0,4095.0,4095.0,4095.0,4095.0,4095.0,8.79,6.45,3.08,-0.38,-0.43,-1.09,1.0,fine
3085.0,2559.0,2829.0,4095.0,4095.0,4095.0,4095.0,4095.0,-1.42,6.06,9.55,-0.63,-0.45,-0.89,1.0,fine
3088.0,2559.0,2830.0,4095.0,4095.0,4095.0,4095.0,4095.0,2.04,6.95,7.14,-0.02,0.09,0.09,1.0,fine
3087.0,2555.0,2831.0,4095.0,4095.0,4095.0,4095.0,4095.0,3.39,6.78,7.45,-0.05,0.11,-0.11,1.0,fine
3087.0,2539.0,2827.0,4095.0,4095.0,4095.0,4095.0,4095.0,2.59,6.74,7.49,-0.05,0.02,-0.09,1.0,fine
3082.0,2559.0,2827.0,4095.0,4095.0,4095.0,4095.0,4095.0,2.76,6.9,7.3,-0.03,0.05,-0.07,1.0,fine
3061.0,2550.0,2823.0,4095.0,4095.0,4095.0,4095.0,4095.0,2.75,6.83,7.07,-0.05,0.05,-0.03,1.0,fine
3065.0,2535.0,2830.0,4095.0,4095.0,4095.0,4095.0,4095.0,2.62,6.88,7.48,-0.08,0.09,-0.1,1.0,fine
3054.0,2559.0,2832.0,4095.0,4095.0,4095.0,4095.0,4095.0,-3.84,6.34,11.17,0.4,0.96,0.56,1.0,fine
3065.0,2546.0,2832.0,4095.0,4095.0,4095.0,4095.0,4095.0,9.69,6.57,4.44,0.54,0.06,1.32,1.0,fine
3087.0,2529.0,2832.0,4095.0,4095.0,4095.0,4095.0,4095.0,8.27,6.15,3.17,-0.57,-0.67,-0.99,1.0,fine
3087.0,2530.0,2835.0,4095.0,4095.0,4095.0,4095.0,4095.0,-5.76,6.77,12.02,-0.48,0.03,-0.9,1.0,fine
3103.0,2525.0,2833.0,4095.0,4095.0,4095.0,4095.0,4095.0,4.09,5.94,6.74,0.02,-0.13,1.91,1.0,fine
3091.0,2496.0,2849.0,4095.0,4095.0,4095.0,4095.0,4094.0,11.77,6.68,4.55,-0.16,-0.56,-0.63,1.0,fine
3067.0,2531.0,2828.0,4095.0,4095.0,4095.0,4095.0,4095.0,-4.56,5.89,9.22,-0.24,-0.35,-1.16,1.0,fine
3092.0,2535.0,2837.0,4095.0,4095.0,4095.0,4095.0,4095.0,0.81,6.09,7.41,-0.0,0.35,1.6,1.0,fine
3090.0,2533.0,2859.0,4095.0,4095.0,4095.0,4095.0,4095.0,12.76,6.56,5.48,-0.04,0.02,-0.5,1.0,fine
3088.0,2534.0,2849.0,4095.0,4095.0,4095.0,4095.0,4095.0,-2.95,5.77,8.52,-0.42,-0.21,-1.42,1.0,fine
3088.0,2525.0,2842.0,4095.0,4095.0,4095.0,4095.0,4095.0,-2.7,5.88,7.68,0.18,0.23,1.3,1.0,fine
3095.0,2544.0,2848.0,4095.0,4095.0,4095.0,4095.0,4095.0,10.74,6.85,6.01,0.05,0.16,0.5,1.0,fine
3094.0,2503.0,2850.0,4095.0,4095.0,4095.0,4095.0,4095.0,3.31,5.82,6.02,-0.41,0.23,-1.37,1.0,fine
3071.0,2485.0,2862.0,4095.0,4095.0,4095.0,4095.0,4095.0,0.84,6.67,7.74,-0.2,0.09,-0.0,1.0,fine
3088.0,2512.0,2848.0,4095.0,4095.0,4095.0,4095.0,4095.0,3.3,6.55,7.92,-0.1,0.13,-0.1,1.0,fine
3066.0,2532.0,2846.0,4095.0,4095.0,4095.0,4095.0,4095.0,2.53,6.36,7.56,-0.09,0.09,-0.01,1.0,fine
3069.0,2519.0,2864.0,4095.0,4095.0,4095.0,4095.0,4095.0,2.71,6.41,7.48,-0.1,0.04,-0.04,1.0,fine
3087.0,2529.0,2866.0,4095.0,4095.0,4095.0,4095.0,4095.0,3.07,6.55,7.54,-0.06,0.03,-0.06,1.0,fine
2977.0,2482.0,2857.0,4095.0,4095.0,4095.0,4095.0,4095.0,3.46,6.74,7.23,-0.08,-0.03,-0.16,1.0,fine
2985.0,2483.0,2859.0,4095.0,4095.0,4095.0,4095.0,4095.0,2.46,6.55,7.07,-0.03,0.05,-0.28,1.0,fine
2973.0,2497.0,2864.0,4095.0,4095.0,4095.0,4095.0,4095.0,-2.15,6.08,10.51,0.05,0.32,0.22,1.0,fine
2992.0,2497.0,2855.0,4095.0,4095.0,4095.0,4095.0,4095.0,6.58,6.71,6.27,0.2,-0.01,1.14,1.0,fine
3003.0,2481.0,2847.0,4095.0,4095.0,4095.0,4095.0,4095.0,9.56,6.69,4.14,-0.15,-0.59,-0.76,1.0,fine
2950.0,2510.0,2844.0,4095.0,4095.0,4095.0,4095.0,4095.0,-7.43,5.67,10.57,-0.35,-0.13,-0.63,1.0,fine
3037.0,2508.0,2858.0,4095.0,4095.0,4095.0,4095.0,4095.0,4.16,5.84,7.67,0.03,0.17,1.64,1.0,fine
3043.0,2506.0,2844.0,4095.0,4095.0,4095.0,4095.0,4095.0,12.19,6.37,4.26,0.01,-0.56,-0.89,1.0,fine
3029.0,2480.0,2843.0,4095.0,4095.0,4095.0,4095.0,4095.0,-6.28,5.15,10.15,-0.55,-0.24,-1.3,1.0,fine
3083.0,2474.0,2842.0,4095.0,4095.0,4095.0,4095.0,4095.0,-0.06,6.36,8.13,0.14,0.24,1.61,1.0,fine
3066.0,2452.0,2853.0,4095.0,4095.0,4095.0,4095.0,4095.0,12.14,7.38,5.56,0.08,-0.13,0.03,1.0,fine
3045.0,2455.0,2847.0,4095.0,4095.0,4095.0,4095.0,4095.0,-0.9,5.71,7.34,-0.38,-0.03,-1.64,1.0,fine
3100.0,2479.0,2838.0,4095.0,4095.0,4095.0,4095.0,4095.0,-4.82,6.1,8.17,0.13,0.57,0.94,1.0,fine
3114.0,2476.0,2848.0,4095.0,4095.0,4095.0,4095.0,4095.0,10.57,6.81,7.66,0.43,0.24,0.99,1.0,fine
3120.0,2469.0,2843.0,4095.0,4095.0,4095.0,4095.0,4095.0,5.15,5.84,4.64,-0.37,-0.31,-1.6,1.0,fine
3125.0,2425.0,2845.0,4095.0,4095.0,4095.0,4095.0,4095.0,-1.36,6.81,8.15,-0.2,-0.04,-0.24,1.0,fine
3086.0,2425.0,2846.0,4095.0,4095.0,4095.0,4095.0,4095.0,4.32,7.03,6.85,-0.09,0.1,-0.1,1.0,fine
3086.0,2425.0,2838.0,4095.0,4095.0,4095.0,4095.0,4095.0,1.98,6.92,7.36,-0.1,0.12,-0.17,1.0,fine
3088.0,2435.0,2851.0,4095.0,4095.0,4095.0,4095.0,4095.0,2.54,6.91,7.54,-0.09,0.1,-0.08,1.0,fine
3104.0,2432.0,2849.0,4095.0,4095.0,4095.0,4095.0,4095.0,2.38,6.98,7.25,-0.11,0.01,-0.05,1.0,fine
3114.0,2403.0,2855.0,4095.0,4095.0,4095.0,4095.0,4095.0,2.68,6.85,7.29,-0.03,-0.03,-0.06,1.0,fine
3071.0,2391.0,2847.0,4095.0,4095.0,4095.0,4095.0,4095.0,1.4,6.9,7.71,-0.06,-0.0,-0.12,1.0,fine
3058.0,2423.0,2855.0,4095.0,4095.0,4095.0,4095.0,4095.0,-3.11,6.51,8.8,0.07,0.49,0.79,1.0,fine
3101.0,2394.0,2848.0,4095.0,4095.0,4095.0,4095.0,4095.0,9.08,6.84,5.61,0.13,-0.03,0.92,1.0,fine
3099.0,2331.0,2842.0,4095.0,4095.0,4095.0,4095.0,4095.0,6.87,6.37,4.44,-0.33,-0.74,-1.04,1.0,fine
3082.0,2373.0,2843.0,4095.0,4095.0,4095.0,4095.0,4095.0,-6.43,6.68,11.0,-0.38,-0.01,-0.47,1.0,fine
3088.0,2391.0,2843.0,4095.0,4095.0,4095.0,4095.0,4095.0,5.45,6.54,6.99,0.45,0.05,1.51,1.0,fine
3048.0,2370.0,2847.0,4095.0,4095.0,4095.0,4095.0,4095.0,10.08,6.57,3.02,-0.24,-0.3,-0.72,1.0,fine
3058.0,2334.0,2843.0,4095.0,4095.0,4095.0,4095.0,4095.0,-4.85,6.29,10.7,-0.48,0.19,-0.87,1.0,fine
3083.0,2348.0,2849.0,4095.0,4095.0,4095.0,4095.0,4095.0,1.3,6.26,7.95,0.19,0.31,1.52,1.0,fine
3056.0,2343.0,2850.0,4043.0,4095.0,4095.0,4095.0,4095.0,11.19,6.62,3.63,0.22,-0.41,-0.03,1.0,fine
3059.0,2341.0,2855.0,4095.0,4095.0,4095.0,4095.0,4095.0,-0.42,6.04,7.83,-0.8,0.03,-1.41,1.0,fine
3087.0,2379.0,2854.0,4095.0,4095.0,4095.0,4095.0,4095.0,-3.29,6.77,8.93,0.42,0.45,0.8,1.0,fine
3095.0,2382.0,2859.0,4095.0,4095.0,4095.0,4095.0,4095.0,10.45,6.88,5.01,0.21,0.03,0.55,1.0,fine
3083.0,2375.0,2858.0,4095.0,4095.0,4095.0,4095.0,4095.0,4.18,6.16,5.96,-0.5,-0.16,-1.22,1.0,fine
3091.0,2374.0,2850.0,4095.0,4095.0,4095.0,4095.0,4095.0,0.04,6.73,8.31,-0.41,-0.02,-0.54,1.0,fine
3093.0,2370.0,2849.0,4095.0,4095.0,4095.0,4095.0,4095.0,1.96,6.84,7.87,-0.14,0.06,-0.04,1.0,fine
3088.0,2383.0,2847.0,4095.0,4095.0,4095.0,4095.0,4095.0,2.61,6.68,7.41,-0.07,0.02,-0.04,1.0,fine
3095.0,2381.0,2855.0,4095.0,4095.0,4095.0,4095.0,4095.0,2.52,6.63,7.22,-0.07,0.07,-0.04,1.0,fine
3090.0,2370.0,2848.0,4095.0,4095.0,4095.0,4095.0,4095.0,2.55,6.65,7.56,-0.1,0.04,-0.07,1.0,fine
