hall_1,hall_2,hall_3,flex_t,flex_i,flex_m,flex_r,flex_p,accel_x,accel_y,accel_z,gyro_x,gyro_y,gyro_z,hand,sign
3082.0,3062.0,3063.0,4095.0,4095.0,1723.0,2691.0,2231.0,-1.81,6.22,11.47,0.09,0.26,0.09,0.0,g
3056.0,3052.0,3059.0,4095.0,4095.0,1699.0,2682.0,2227.0,-1.83,5.97,11.93,-0.06,-0.02,-0.09,0.0,g
3063.0,3058.0,3067.0,4095.0,4095.0,1711.0,2675.0,2227.0,-1.59,5.8,12.1,0.02,-0.01,-0.17,0.0,g
3055.0,3061.0,3057.0,4095.0,4095.0,1718.0,2687.0,2227.0,-1.8,6.49,11.95,-0.24,-0.04,-0.18,0.0,g
3058.0,3049.0,3056.0,4095.0,4095.0,1715.0,2679.0,2224.0,-1.64,5.79,12.03,0.02,-0.01,-0.18,0.0,g
3055.0,3065.0,3062.0,4095.0,4095.0,1718.0,2685.0,2226.0,-1.76,5.74,12.14,0.03,-0.01,-0.2,0.0,g
3050.0,3050.0,3057.0,4095.0,4095.0,1714.0,2679.0,2223.0,-1.83,5.71,12.14,0.01,-0.0,-0.17,0.0,g
3082.0,3059.0,3061.0,4095.0,4095.0,1723.0,2694.0,2228.0,-1.75,5.75,12.04,0.01,-0.03,-0.15,0.0,g
3056.0,3056.0,3056.0,4095.0,4095.0,1714.0,2685.0,2228.0,-1.76,5.78,12.02,-0.03,-0.01,-0.14,0.0,g
3056.0,3062.0,3057.0,4095.0,4095.0,1727.0,2688.0,2227.0,-1.77,5.68,12.16,0.03,0.03,-0.14,0.0,g
3062.0,3057.0,3056.0,4095.0,4095.0,1726.0,2688.0,2225.0,-1.71,5.75,12.02,0.02,-0.0,-0.15,0.0,g
3069.0,3055.0,3051.0,4095.0,4095.0,1731.0,2693.0,2230.0,-1.69,5.74,12.0,0.02,-0.04,-0.18,0.0,g
3059.0,3050.0,3063.0,4095.0,4095.0,1722.0,2687.0,2226.0,-1.82,5.75,12.05,0.02,-0.02,-0.17,0.0,g
3056.0,3049.0,3070.0,4095.0,4095.0,1723.0,2701.0,2231.0,-1.77,5.67,12.18,-0.02,0.01,-0.11,0.0,g
3065.0,3055.0,3071.0,4095.0,4095.0,1729.0,2695.0,2231.0,-1.7,5.69,12.1,0.04,0.02,-0.12,0.0,g
3066.0,3060.0,3059.0,4095.0,4095.0,1713.0,2694.0,2225.0,-1.67,5.83,11.98,0.06,-0.0,-0.13,0.0,g
3057.0,3063.0,3067.0,4095.0,4095.0,1727.0,2697.0,2224.0,-1.67,5.82,12.05,0.03,-0.02,-0.15,0.0,g
3067.0,3058.0,3056.0,4095.0,4095.0,1715.0,2688.0,2225.0,-1.76,5.78,12.1,0.01,-0.04,-0.17,0.0,g
3066.0,3067.0,3060.0,4095.0,4095.0,1713.0,2693.0,2231.0,-1.74,5.81,12.05,0.05,-0.01,-0.15,0.0,g
3057.0,3060.0,3056.0,4095.0,4095.0,1729.0,2697.0,2233.0,-1.64,5.89,11.97,0.02,-0.01,-0.13,0.0,g
3062.0,3046.0,3053.0,4095.0,4095.0,1719.0,2695.0,2240.0,-1.46,5.82,11.96,0.01,0.02,-0.14,0.0,g
3060.0,3051.0,3059.0,4095.0,4095.0,1734.0,2703.0,2247.0,-1.73,5.65,12.21,-0.02,-0.04,-0.24,0.0,g
3056.0,3045.0,3055.0,4095.0,4095.0,1712.0,2695.0,2239.0,-1.94,5.77,12.0,0.06,0.02,-0.14,0.0,g
3056.0,3052.0,3062.0,4095.0,4095.0,1730.0,2704.0,2248.0,-1.71,5.77,12.02,0.0,0.01,-0.14,0.0,g
3055.0,3053.0,3051.0,4095.0,4095.0,1719.0,2704.0,2253.0,-1.79,5.6,12.29,0.04,0.01,-0.18,0.0,g
3065.0,3062.0,3065.0,4095.0,4095.0,1727.0,2707.0,2259.0,-1.98,5.78,11.98,0.0,-0.02,-0.17,0.0,g
3056.0,3040.0,3061.0,4095.0,4095.0,1714.0,2704.0,2251.0,-1.87,5.69,12.14,-0.01,-0.02,-0.09,0.0,g
3062.0,3067.0,3071.0,4095.0,4095.0,1716.0,2709.0,2256.0,-1.67,5.71,12.15,0.04,-0.01,-0.1,0.0,g
3061.0,3056.0,3069.0,4095.0,4095.0,1721.0,2704.0,2254.0,-1.69,5.86,11.96,0.04,-0.0,-0.12,0.0,g
3051.0,3067.0,3062.0,4095.0,4095.0,1726.0,2707.0,2256.0,-1.72,5.76,12.11,0.05,-0.02,-0.13,0.0,g
3055.0,3056.0,3061.0,4095.0,4095.0,1727.0,2705.0,2247.0,-1.37,5.97,11.73,-0.11,0.02,-0.07,0.0,g
3067.0,3059.0,3071.0,4095.0,4095.0,1663.0,2704.0,2253.0,-1.69,5.71,12.3,-0.0,-0.01,-0.18,0.0,g
3069.0,3055.0,3065.0,4095.0,4095.0,1719.0,2711.0,2253.0,-1.71,5.64,12.23,0.04,-0.02,-0.2,0.0,g
3061.0,3050.0,3066.0,4095.0,4095.0,1717.0,2709.0,2247.0,-1.82,5.64,12.22,0.03,-0.01,-0.12,0.0,g
3056.0,3067.0,3069.0,4095.0,4095.0,1728.0,2717.0,2256.0,-1.51,5.56,12.47,0.12,0.12,-0.04,0.0,g
3056.0,3053.0,3065.0,4095.0,4095.0,1710.0,2704.0,2251.0,-1.6,5.82,12.0,0.18,0.02,-0.14,0.0,g
3056.0,3056.0,3071.0,4095.0,4095.0,1675.0,2716.0,2256.0,-1.67,6.09,11.79,0.19,-0.0,-0.16,0.0,g
3069.0,3060.0,3058.0,4095.0,4095.0,1715.0,2709.0,2255.0,-1.69,6.33,11.46,0.14,-0.02,-0.18,0.0,g
3068.0,3056.0,3057.0,4095.0,4095.0,1714.0,2718.0,2259.0,-1.66,6.29,11.61,0.04,-0.01,-0.19,0.0,g
3056.0,3052.0,3061.0,4095.0,4095.0,1712.0,2711.0,2256.0,-1.9,6.21,11.72,-0.01,0.01,-0.15,0.0,g
3061.0,3051.0,3061.0,4095.0,4095.0,1719.0,2718.0,2273.0,-1.35,6.66,11.41,0.11,0.0,-0.02,0.0,g
3060.0,3069.0,3056.0,4095.0,4095.0,1691.0,2722.0,2278.0,-1.24,6.8,11.37,0.17,-0.02,-0.05,0.0,g
3059.0,3056.0,3057.0,4095.0,4095.0,1719.0,2719.0,2273.0,-1.35,6.98,11.13,0.19,-0.03,-0.01,0.0,g
3067.0,3071.0,3065.0,4095.0,4095.0,1721.0,2723.0,2273.0,-0.75,7.21,10.77,0.18,-0.04,-0.01,0.0,g
3066.0,3059.0,3056.0,4095.0,4095.0,1691.0,2716.0,2270.0,-0.83,7.36,10.73,0.14,-0.02,-0.06,0.0,g
3062.0,3065.0,3062.0,4095.0,4095.0,1717.0,2723.0,2278.0,-0.8,7.22,10.98,0.18,-0.08,-0.17,0.0,g
3055.0,3056.0,3062.0,4095.0,4095.0,1712.0,2722.0,2275.0,-0.91,7.45,10.65,0.22,0.0,-0.08,0.0,g
3060.0,3057.0,3060.0,4095.0,4095.0,1700.0,2720.0,2276.0,-0.66,7.74,10.25,0.17,0.02,-0.07,0.0,g
3057.0,3049.0,3059.0,4095.0,4095.0,1718.0,2719.0,2281.0,-0.55,7.77,10.34,0.15,0.03,-0.1,0.0,g
3055.0,3056.0,3056.0,4095.0,4095.0,1710.0,2715.0,2275.0,-0.64,7.78,10.29,0.17,0.03,-0.14,0.0,g
3070.0,3058.0,3066.0,4095.0,4095.0,1712.0,2722.0,2282.0,-0.69,8.02,9.9,0.14,-0.0,-0.15,0.0,g
3056.0,3057.0,3056.0,4095.0,4095.0,1707.0,2724.0,2277.0,-0.8,8.18,9.69,0.01,-0.02,-0.14,0.0,g
3059.0,3065.0,3070.0,4095.0,4095.0,1714.0,2721.0,2287.0,-0.68,7.9,10.11,0.05,-0.03,-0.18,0.0,g
3058.0,3056.0,3054.0,4095.0,4095.0,1664.0,2725.0,2279.0,-0.63,7.85,10.29,0.03,-0.0,-0.17,0.0,g
3061.0,3071.0,3071.0,4095.0,4095.0,1659.0,2725.0,2286.0,-0.78,8.01,9.98,0.06,0.0,-0.18,0.0,g
3056.0,3060.0,3060.0,4095.0,4095.0,1706.0,2723.0,2279.0,-0.72,8.0,9.94,-0.01,-0.03,-0.19,0.0,g
3066.0,3056.0,3071.0,4095.0,4095.0,1712.0,2726.0,2284.0,-0.86,7.89,10.16,0.02,-0.02,-0.14,0.0,g
3056.0,3056.0,3054.0,4095.0,4095.0,1712.0,2729.0,2281.0,-0.56,8.09,9.79,-0.01,0.01,-0.11,0.0,g
3057.0,3056.0,3079.0,4095.0,4095.0,1713.0,2725.0,2281.0,-0.71,7.95,10.08,-0.01,-0.06,-0.2,0.0,g
3080.0,3071.0,3067.0,4095.0,4095.0,1706.0,2735.0,2289.0,-0.82,7.98,9.98,-0.01,-0.09,-0.23,0.0,g
3051.0,3058.0,3063.0,4095.0,4095.0,1687.0,2733.0,2299.0,-0.46,7.46,10.7,-0.12,-0.03,-0.18,0.0,g
3056.0,3056.0,3060.0,4095.0,4095.0,1694.0,2737.0,2304.0,-0.48,7.28,10.87,-0.26,0.04,-0.05,0.0,g
3047.0,3039.0,3056.0,4095.0,4095.0,1670.0,2736.0,2306.0,0.01,6.75,11.53,-0.25,-0.03,-0.07,0.0,g
3051.0,3056.0,3070.0,4095.0,4095.0,1680.0,2731.0,2298.0,0.18,6.78,11.49,-0.14,-0.02,-0.13,0.0,g
3056.0,3056.0,3065.0,4095.0,4095.0,1691.0,2736.0,2298.0,0.01,6.8,11.37,-0.13,-0.09,-0.24,0.0,g
3058.0,3056.0,3057.0,4095.0,4095.0,1680.0,2731.0,2299.0,-0.24,6.61,11.63,-0.13,-0.04,-0.23,0.0,g
3071.0,3056.0,3063.0,4095.0,4095.0,1690.0,2746.0,2306.0,-0.25,6.43,11.88,-0.06,0.03,-0.17,0.0,g
3054.0,3059.0,3062.0,4095.0,4095.0,1680.0,2734.0,2304.0,-0.11,6.36,11.96,0.02,-0.02,-0.2,0.0,g
3067.0,3061.0,3059.0,4095.0,4095.0,1692.0,2742.0,2305.0,-0.19,6.43,11.88,0.12,-0.01,-0.2,0.0,g
3056.0,3058.0,3056.0,4095.0,4095.0,1690.0,2741.0,2304.0,-0.18,6.54,11.77,0.22,0.03,-0.2,0.0,g
3082.0,3056.0,3066.0,4095.0,4095.0,1706.0,2743.0,2307.0,-0.26,6.87,11.27,0.23,-0.06,-0.24,0.0,g
3062.0,3058.0,3063.0,4095.0,4095.0,1689.0,2737.0,2305.0,-0.2,7.08,11.1,0.14,0.12,-0.21,0.0,g
3055.0,3062.0,3071.0,4095.0,4095.0,1689.0,2739.0,2308.0,-1.01,7.01,11.27,0.13,0.0,-0.25,0.0,g
3053.0,3047.0,3057.0,4095.0,4095.0,1683.0,2739.0,2303.0,-0.79,7.17,11.08,0.16,0.05,0.0,0.0,g
3065.0,3057.0,3059.0,4095.0,4095.0,1701.0,2742.0,2306.0,-0.1,7.35,10.76,0.16,0.05,0.02,0.0,g
3063.0,3070.0,3065.0,4095.0,4095.0,1699.0,2746.0,2318.0,-0.4,7.32,10.89,0.11,0.04,-0.12,0.0,g
3054.0,3053.0,3056.0,4095.0,4095.0,1691.0,2736.0,2304.0,-0.35,7.38,10.82,0.16,0.07,-0.05,0.0,g
3062.0,3067.0,3059.0,4095.0,4095.0,1699.0,2747.0,2304.0,0.34,7.6,10.47,0.08,0.08,-0.14,0.0,g
3059.0,3059.0,3056.0,4095.0,4095.0,1700.0,2742.0,2306.0,-0.05,7.47,10.65,0.0,-0.0,-0.36,0.0,g
3053.0,3050.0,3066.0,4095.0,4095.0,1703.0,2748.0,2315.0,-0.57,7.78,10.2,0.0,0.07,-0.37,0.0,g
3058.0,3062.0,3071.0,4095.0,4095.0,1665.0,2751.0,2319.0,-0.57,8.46,9.25,0.06,0.02,0.04,0.0,g
3059.0,3061.0,3061.0,4095.0,4095.0,1661.0,2747.0,2304.0,-0.65,8.43,9.34,-0.05,-0.12,-0.17,0.0,g
3068.0,3051.0,3055.0,4095.0,4095.0,1657.0,2749.0,2308.0,-0.88,8.09,9.78,-0.08,0.07,-0.04,0.0,g
3053.0,3057.0,3065.0,4095.0,4095.0,1667.0,2761.0,2317.0,-0.3,8.13,9.72,-0.13,0.17,-0.05,0.0,g
3055.0,3071.0,3056.0,4095.0,4095.0,1662.0,2747.0,2305.0,-0.82,8.04,9.89,-0.1,0.13,-0.15,0.0,g
3059.0,3071.0,3068.0,4095.0,4095.0,1662.0,2748.0,2306.0,-1.17,8.01,9.98,-0.1,0.03,-0.18,0.0,g
3054.0,3053.0,3061.0,4095.0,4095.0,1661.0,2753.0,2307.0,-0.86,7.99,9.95,-0.06,0.11,-0.07,0.0,g
3067.0,3058.0,3065.0,4095.0,4095.0,1666.0,2761.0,2314.0,-0.55,8.06,10.22,0.05,0.05,-0.07,0.0,g
3055.0,3043.0,3070.0,4095.0,4095.0,1666.0,2755.0,2309.0,-0.92,7.73,9.98,-0.1,0.03,-0.28,0.0,g
3066.0,3056.0,3067.0,4095.0,4095.0,1665.0,2757.0,2318.0,-1.66,8.0,9.88,-0.09,0.01,-0.18,0.0,g
3056.0,3049.0,3062.0,4095.0,4095.0,1650.0,2752.0,2304.0,-1.89,7.78,10.34,-0.09,-0.02,0.04,0.0,g
3059.0,3058.0,3066.0,4095.0,4095.0,1667.0,2756.0,2314.0,0.13,7.59,10.55,-0.15,0.09,0.07,0.0,g
3056.0,3056.0,3061.0,4095.0,4095.0,1668.0,2758.0,2307.0,-0.69,7.35,11.04,0.09,-0.04,-0.19,0.0,g
3056.0,3058.0,3061.0,4095.0,4095.0,1663.0,2753.0,2308.0,-0.58,7.92,10.05,0.17,-0.18,-0.24,0.0,g
3071.0,3057.0,3056.0,4095.0,4095.0,1661.0,2766.0,2322.0,-0.61,8.0,9.9,0.14,-0.15,-0.32,0.0,g
3049.0,3054.0,3067.0,4095.0,4095.0,1663.0,2754.0,2319.0,-0.86,8.06,9.67,0.02,-0.06,-0.26,0.0,g
3071.0,3057.0,3068.0,4095.0,4095.0,1650.0,2766.0,2317.0,-1.26,8.02,9.93,-0.27,-0.07,-0.2,0.0,g
3063.0,3062.0,3056.0,4095.0,4095.0,1653.0,2759.0,2320.0,-0.16,7.89,9.81,-0.3,0.23,-0.09,0.0,g
3053.0,3071.0,3083.0,4095.0,4095.0,1666.0,2753.0,2320.0,-1.48,6.52,12.17,-0.07,0.04,-0.18,0.0,g
3056.0,3051.0,3055.0,4095.0,4095.0,1650.0,2761.0,2320.0,-0.8,7.72,10.09,0.11,0.14,-0.12,0.0,g
3055.0,3060.0,3062.0,4095.0,4095.0,1664.0,2763.0,2330.0,-0.19,8.24,9.67,0.17,-0.28,-0.54,0.0,g
3071.0,3063.0,3071.0,4095.0,4095.0,1675.0,2765.0,2333.0,-0.73,8.51,9.1,-0.1,0.0,-0.2,0.0,g
3056.0,3056.0,3058.0,4095.0,4095.0,1671.0,2765.0,2335.0,-0.42,8.26,9.62,-0.3,0.14,0.03,0.0,g
3058.0,3062.0,3071.0,4095.0,4095.0,1679.0,2774.0,2337.0,-0.26,7.81,10.41,-0.09,0.08,-0.2,0.0,g
3051.0,3057.0,3055.0,4095.0,4095.0,1666.0,2768.0,2333.0,-0.51,7.87,10.24,-0.05,-0.09,-0.3,0.0,g
3058.0,3058.0,3061.0,4095.0,4095.0,1671.0,2768.0,2335.0,-0.76,7.95,10.02,-0.23,-0.19,-0.16,0.0,g
3056.0,3056.0,3057.0,4095.0,4095.0,1671.0,2762.0,2325.0,-0.4,7.72,10.38,-0.41,-0.43,-0.17,0.0,g
3057.0,3067.0,3062.0,4095.0,4095.0,1669.0,2766.0,2325.0,-0.1,7.66,10.5,0.05,0.07,-0.13,0.0,g
3063.0,3062.0,3070.0,4095.0,4095.0,1698.0,2770.0,2331.0,-0.44,7.59,10.54,-0.03,-0.04,-0.21,0.0,g
3055.0,3056.0,3054.0,4095.0,4095.0,1699.0,2766.0,2326.0,-0.44,7.58,10.36,-0.31,-0.14,-0.05,0.0,g
3065.0,3059.0,3069.0,4095.0,4095.0,1674.0,2763.0,2340.0,0.0,7.35,11.17,0.04,-0.05,-0.21,0.0,g
3053.0,3058.0,3054.0,4095.0,4095.0,1715.0,2769.0,2331.0,-0.14,7.33,11.0,0.07,-0.12,-0.26,0.0,g
3071.0,3071.0,3063.0,4095.0,4095.0,1710.0,2773.0,2338.0,-0.15,7.71,10.31,0.02,-0.01,-0.15,0.0,g
3061.0,3055.0,3063.0,4095.0,4095.0,1717.0,2768.0,2331.0,0.0,7.53,10.63,-0.01,0.02,-0.16,0.0,g
3062.0,3056.0,3061.0,4095.0,4095.0,1725.0,2769.0,2336.0,-0.24,7.45,10.8,0.07,-0.05,-0.24,0.0,g
3071.0,3053.0,3060.0,4095.0,4095.0,1697.0,2767.0,2336.0,-0.17,7.71,10.32,0.05,-0.04,-0.23,0.0,g
3068.0,3066.0,3063.0,4095.0,4095.0,1709.0,2774.0,2341.0,-0.46,7.61,10.57,0.02,-0.05,-0.22,0.0,g
3056.0,3056.0,3061.0,4095.0,4095.0,1697.0,2767.0,2330.0,-0.3,7.55,10.63,0.04,-0.02,-0.16,0.0,g
3067.0,3051.0,3070.0,4095.0,4095.0,1702.0,2768.0,2337.0,-0.23,7.66,10.52,0.05,0.01,-0.15,0.0,g
3067.0,3066.0,3065.0,4095.0,4095.0,1690.0,2769.0,2341.0,-0.2,7.56,10.6,0.02,-0.01,-0.18,0.0,g
3059.0,3056.0,3068.0,4095.0,4095.0,1693.0,2767.0,2340.0,-0.61,8.14,9.8,0.0,0.02,-0.1,0.0,g
3071.0,3054.0,3057.0,4095.0,4095.0,1687.0,2768.0,2342.0,-0.83,8.27,9.65,-0.04,-0.03,-0.05,0.0,g
3070.0,3058.0,3063.0,4095.0,4095.0,1697.0,2770.0,2352.0,-0.42,8.16,9.8,-0.28,0.2,0.3,0.0,g
3056.0,3057.0,3055.0,4095.0,4095.0,1694.0,2780.0,2347.0,0.41,7.74,10.19,-0.32,-0.05,-0.16,0.0,g
3069.0,3046.0,3056.0,4095.0,4095.0,1686.0,2768.0,2345.0,-0.12,7.52,10.5,-0.14,-0.12,-0.21,0.0,g
3071.0,3071.0,3059.0,4095.0,4095.0,1697.0,2781.0,2353.0,0.05,7.19,11.15,-0.14,0.02,-0.1,0.0,g
3065.0,3056.0,3057.0,4095.0,4095.0,1696.0,2770.0,2352.0,0.06,7.21,11.12,-0.03,0.02,-0.13,0.0,g
3079.0,3071.0,3061.0,4095.0,4095.0,1697.0,2777.0,2361.0,0.01,7.23,11.09,0.09,-0.05,-0.22,0.0,g
3062.0,3042.0,3059.0,4095.0,4095.0,1695.0,2773.0,2350.0,-0.14,7.43,10.78,0.19,0.02,-0.17,0.0,g
3063.0,3061.0,3065.0,4095.0,4095.0,1697.0,2770.0,2351.0,0.0,7.61,10.61,0.18,0.05,-0.15,0.0,g
3059.0,3055.0,3058.0,4095.0,4095.0,1683.0,2770.0,2352.0,-0.09,7.83,10.21,0.15,-0.07,-0.21,0.0,g
3063.0,3070.0,3081.0,4095.0,4095.0,1634.0,2772.0,2353.0,-0.14,7.97,10.03,0.06,-0.11,-0.29,0.0,g
3066.0,3046.0,3058.0,4095.0,4095.0,1687.0,2775.0,2352.0,-0.25,7.74,10.46,0.06,-0.05,-0.23,0.0,g
3067.0,3084.0,3063.0,4095.0,4095.0,1639.0,2773.0,2353.0,-0.27,7.9,10.22,0.06,0.01,-0.11,0.0,g
3056.0,3052.0,3056.0,4095.0,4095.0,1629.0,2774.0,2352.0,-0.2,7.94,10.1,0.1,-0.03,-0.16,0.0,g
3059.0,3056.0,3086.0,4095.0,4095.0,1658.0,2777.0,2349.0,-0.11,7.98,10.07,0.06,-0.01,-0.17,0.0,g
3071.0,3061.0,3057.0,4095.0,4095.0,1685.0,2778.0,2352.0,-0.2,7.92,10.2,0.05,-0.03,-0.2,0.0,g
3056.0,3056.0,3056.0,4095.0,4095.0,1683.0,2780.0,2353.0,-0.12,7.74,10.44,0.16,0.08,-0.12,0.0,g
3064.0,3060.0,3083.0,4095.0,4095.0,1684.0,2780.0,2352.0,-0.52,8.15,9.91,0.28,0.22,0.07,0.0,g
3056.0,3059.0,3056.0,4095.0,4095.0,1679.0,2773.0,2350.0,-0.1,8.48,9.21,0.17,0.01,-0.08,0.0,g
3057.0,3056.0,3062.0,4095.0,4095.0,1680.0,2779.0,2350.0,0.46,7.97,10.19,-0.01,-0.03,-0.28,0.0,g
3070.0,3056.0,3067.0,4095.0,4095.0,1678.0,2786.0,2352.0,0.25,8.16,9.83,-0.01,-0.04,-0.2,0.0,g
3058.0,3068.0,3067.0,4095.0,4095.0,1677.0,2769.0,2343.0,0.4,7.94,10.23,-0.03,-0.0,-0.14,0.0,g
3061.0,3048.0,3061.0,4095.0,4095.0,1677.0,2779.0,2352.0,0.4,7.73,10.42,0.02,-0.12,-0.24,0.0,g
3055.0,3053.0,3051.0,4095.0,4095.0,1659.0,2780.0,2348.0,0.51,8.0,10.01,0.1,-0.12,-0.25,0.0,g
3059.0,3053.0,3059.0,4095.0,4095.0,1643.0,2783.0,2346.0,0.33,8.36,9.52,-0.01,-0.11,-0.28,0.0,g
3066.0,3063.0,3071.0,4095.0,4095.0,1616.0,2773.0,2345.0,0.27,8.51,9.16,-0.25,-0.14,-0.34,0.0,g
3056.0,3059.0,3067.0,4095.0,4095.0,1654.0,2783.0,2350.0,0.32,7.76,10.24,-0.47,-0.29,-0.34,0.0,g
3056.0,3056.0,3056.0,4095.0,4095.0,1670.0,2777.0,2344.0,0.22,6.77,11.81,-0.26,0.1,-0.06,0.0,g
3063.0,3055.0,3062.0,4095.0,4095.0,1669.0,2782.0,2351.0,0.35,6.97,11.46,0.08,0.04,-0.15,0.0,g
3060.0,3056.0,3063.0,4095.0,4095.0,1675.0,2775.0,2347.0,0.31,7.41,10.81,0.14,0.0,-0.23,0.0,g
3071.0,3057.0,3060.0,4095.0,4095.0,1677.0,2789.0,2352.0,0.15,7.63,10.55,0.02,-0.05,-0.25,0.0,g
3058.0,3051.0,3057.0,4095.0,4095.0,1647.0,2784.0,2352.0,0.06,7.3,11.09,0.15,0.02,-0.16,0.0,g
3063.0,3063.0,3068.0,4095.0,4095.0,1673.0,2775.0,2347.0,0.18,7.69,10.43,0.23,0.01,-0.2,0.0,g
3070.0,3066.0,3063.0,4095.0,4095.0,1677.0,2786.0,2349.0,0.09,7.88,10.22,0.19,-0.03,-0.26,0.0,g
3059.0,3047.0,3056.0,4095.0,4095.0,1663.0,2781.0,2346.0,-0.35,8.28,9.68,0.05,-0.04,-0.21,0.0,g
3060.0,3057.0,3083.0,4095.0,4095.0,1660.0,2785.0,2343.0,0.08,7.66,10.52,-0.11,0.15,-0.07,0.0,g
3058.0,3043.0,3062.0,4095.0,4095.0,1657.0,2779.0,2345.0,0.1,7.53,10.65,-0.01,-0.07,-0.27,0.0,g
3059.0,3063.0,3068.0,4095.0,4095.0,1670.0,2784.0,2351.0,-0.21,7.81,10.34,0.08,0.0,-0.2,0.0,g
3059.0,3049.0,3060.0,4095.0,4095.0,1667.0,2775.0,2345.0,-0.3,7.84,10.34,0.02,-0.04,-0.2,0.0,g
3071.0,3057.0,3071.0,4095.0,4095.0,1623.0,2788.0,2352.0,0.01,7.72,10.53,0.15,-0.08,-0.12,0.0,g
3069.0,3054.0,3056.0,4095.0,4095.0,1667.0,2791.0,2357.0,0.19,7.78,10.39,0.03,-0.02,-0.02,0.0,g
3056.0,3054.0,3071.0,4095.0,4095.0,1614.0,2784.0,2353.0,0.62,7.78,10.34,0.07,0.02,-0.06,0.0,g
3049.0,3054.0,3056.0,4095.0,4095.0,1663.0,2783.0,2352.0,0.43,7.86,10.25,0.04,-0.02,-0.14,0.0,g
3061.0,3061.0,3071.0,4095.0,4095.0,1648.0,2787.0,2357.0,0.42,7.73,10.45,0.08,-0.05,-0.19,0.0,g
3056.0,3045.0,3069.0,4095.0,4095.0,1670.0,2787.0,2359.0,0.32,7.84,10.34,0.08,-0.08,-0.21,0.0,g
3062.0,3063.0,3071.0,4095.0,4095.0,1679.0,2793.0,2363.0,0.29,8.04,9.9,0.09,-0.0,-0.14,0.0,g
3071.0,3062.0,3061.0,4095.0,4095.0,1675.0,2795.0,2365.0,0.73,7.91,10.1,0.09,0.05,-0.16,0.0,g
3056.0,3047.0,3070.0,4095.0,4095.0,1669.0,2787.0,2358.0,0.32,7.99,10.1,0.2,-0.04,-0.3,0.0,g
3053.0,3056.0,3062.0,4095.0,4095.0,1664.0,2790.0,2363.0,0.04,8.3,9.59,0.11,0.01,-0.24,0.0,g
3058.0,3055.0,3060.0,4095.0,4095.0,1670.0,2782.0,2359.0,0.44,8.21,9.69,0.22,0.06,-0.17,0.0,g
3065.0,3051.0,3071.0,4095.0,4095.0,1671.0,2794.0,2363.0,-0.08,8.57,9.2,0.07,-0.09,-0.37,0.0,g
3056.0,3056.0,3071.0,4095.0,4095.0,1648.0,2785.0,2362.0,-0.63,8.67,9.06,-0.14,-0.03,-0.18,0.0,g
3063.0,3066.0,3067.0,4095.0,4095.0,1679.0,2791.0,2368.0,0.11,7.61,10.8,-0.07,0.16,0.01,0.0,g
3054.0,3058.0,3058.0,4095.0,4095.0,1668.0,2783.0,2359.0,-0.12,8.57,9.05,-0.02,-0.06,-0.23,0.0,g
3055.0,3067.0,3067.0,4095.0,4095.0,1673.0,2794.0,2366.0,-0.3,8.72,8.99,-0.21,-0.03,-0.09,0.0,g
3059.0,3060.0,3056.0,4095.0,4095.0,1670.0,2787.0,2363.0,0.57,7.79,10.02,-0.65,0.31,0.03,0.0,g
3084.0,3056.0,3061.0,4095.0,4095.0,1678.0,2797.0,2367.0,0.0,7.13,11.02,-0.38,-0.03,-0.29,0.0,g
3057.0,3055.0,3057.0,4095.0,4095.0,1667.0,2785.0,2365.0,-0.43,6.87,11.61,-0.17,-0.12,-0.39,0.0,g
3066.0,3054.0,3060.0,4095.0,4095.0,1673.0,2787.0,2361.0,-0.18,6.78,11.69,0.15,0.01,-0.33,0.0,g
3056.0,3152.0,3204.0,4095.0,4095.0,1716.0,2594.0,2342.0,-2.04,7.1,10.76,-0.03,-0.18,-0.28,0.0,g
3057.0,3152.0,3219.0,4095.0,4095.0,1733.0,2602.0,2341.0,-2.21,7.14,10.6,-0.02,0.03,-0.19,0.0,g
3056.0,3162.0,3216.0,4095.0,4095.0,1723.0,2598.0,2345.0,-2.47,7.03,10.78,0.0,-0.01,-0.18,0.0,g
3065.0,3146.0,3213.0,4095.0,4095.0,1733.0,2601.0,2338.0,-2.12,7.04,10.73,0.04,-0.02,-0.13,0.0,g
3061.0,3145.0,3216.0,4095.0,4095.0,1725.0,2599.0,2335.0,-2.18,7.08,10.74,0.05,0.01,-0.19,0.0,g
3060.0,3136.0,3201.0,4095.0,4095.0,1711.0,2606.0,2334.0,-2.37,7.09,10.64,0.02,-0.04,-0.2,0.0,g
3083.0,3152.0,3213.0,4095.0,4095.0,1710.0,2609.0,2350.0,-2.37,7.04,10.79,0.04,-0.07,-0.21,0.0,g
3057.0,3139.0,3209.0,4095.0,4095.0,1737.0,2608.0,2342.0,-2.31,7.11,10.56,0.03,0.1,-0.09,0.0,g
3056.0,3160.0,3214.0,4095.0,4095.0,1731.0,2613.0,2347.0,-2.22,7.1,10.67,0.0,0.02,-0.13,0.0,g
3058.0,3143.0,3206.0,4095.0,4095.0,1728.0,2608.0,2342.0,-2.4,6.99,10.86,0.03,-0.03,-0.18,0.0,g
3082.0,3163.0,3218.0,4095.0,4095.0,1679.0,2618.0,2352.0,-2.22,7.02,10.74,0.07,0.0,-0.15,0.0,g
3061.0,3149.0,3213.0,4095.0,4095.0,1727.0,2615.0,2341.0,-2.31,7.07,10.72,0.02,-0.08,-0.19,0.0,g
3057.0,3151.0,3215.0,4095.0,4095.0,1731.0,2620.0,2351.0,-2.25,7.06,10.75,0.01,-0.08,-0.18,0.0,g
3055.0,3149.0,3201.0,4095.0,4095.0,1735.0,2612.0,2342.0,-2.21,7.11,10.63,0.03,0.02,-0.12,0.0,g
3066.0,3150.0,3213.0,4095.0,4095.0,1729.0,2608.0,2341.0,-2.03,7.04,10.8,-0.01,0.03,-0.14,0.0,g
3071.0,3148.0,3215.0,4095.0,4095.0,1734.0,2621.0,2350.0,-2.11,7.03,10.8,0.08,0.0,-0.21,0.0,g
3059.0,3152.0,3216.0,4095.0,4095.0,1721.0,2615.0,2347.0,-2.4,7.24,10.46,0.05,-0.04,-0.2,0.0,g
3059.0,3155.0,3215.0,4095.0,4095.0,1738.0,2623.0,2351.0,-2.34,7.17,10.57,-0.03,0.03,-0.13,0.0,g
3056.0,3151.0,3211.0,4095.0,4095.0,1730.0,2618.0,2345.0,-2.19,7.07,10.78,0.02,0.02,-0.15,0.0,g
3069.0,3152.0,3219.0,4095.0,4095.0,1723.0,2626.0,2353.0,-2.28,7.13,10.57,0.05,-0.03,-0.21,0.0,g
3050.0,3152.0,3218.0,4095.0,4095.0,1728.0,2624.0,2352.0,-2.44,7.05,10.68,-0.01,-0.01,-0.16,0.0,g
3056.0,3159.0,3223.0,4095.0,4095.0,1727.0,2625.0,2358.0,-2.2,7.02,10.73,0.0,0.04,-0.12,0.0,g
3056.0,3152.0,3207.0,4095.0,4095.0,1725.0,2634.0,2363.0,-2.02,7.01,10.68,-0.11,-0.03,-0.26,0.0,g
3067.0,3150.0,3205.0,4095.0,4095.0,1722.0,2628.0,2361.0,-2.62,6.85,10.94,0.07,-0.03,-0.23,0.0,g
3060.0,3155.0,3216.0,4095.0,4095.0,1731.0,2636.0,2367.0,-2.46,6.95,10.63,0.01,0.01,-0.13,0.0,g
3058.0,3154.0,3206.0,4095.0,4095.0,1729.0,2633.0,2369.0,-2.32,6.88,10.8,0.02,-0.01,-0.15,0.0,g
3052.0,3149.0,3211.0,4095.0,4095.0,1730.0,2639.0,2370.0,-2.64,6.85,10.92,0.01,-0.01,-0.15,0.0,g
3057.0,3145.0,3203.0,4095.0,4095.0,1719.0,2638.0,2372.0,-2.36,6.9,10.83,0.0,0.01,-0.1,0.0,g
3069.0,3158.0,3219.0,4095.0,4095.0,1735.0,2638.0,2376.0,-2.18,6.9,10.84,0.03,-0.03,-0.16,0.0,g
3056.0,3149.0,3216.0,4095.0,4095.0,1701.0,2635.0,2371.0,-2.49,6.9,10.83,0.04,-0.03,-0.18,0.0,g
3071.0,3152.0,3207.0,4095.0,4095.0,1729.0,2640.0,2377.0,-2.43,6.91,10.83,0.03,-0.03,-0.17,0.0,g
3060.0,3142.0,3204.0,4095.0,4095.0,1722.0,2638.0,2372.0,-2.37,6.95,10.73,0.01,-0.01,-0.15,0.0,g
3063.0,3150.0,3203.0,4095.0,4095.0,1732.0,2640.0,2382.0,-2.38,6.93,10.82,0.04,0.04,-0.11,0.0,g
3056.0,3145.0,3202.0,4095.0,4095.0,1728.0,2640.0,2382.0,-2.54,6.9,10.76,0.01,-0.0,-0.09,0.0,g
3058.0,3150.0,3206.0,4095.0,4095.0,1732.0,2640.0,2380.0,-2.17,7.0,10.7,0.05,0.05,-0.06,0.0,g
3053.0,3145.0,3213.0,4095.0,4095.0,1743.0,2640.0,2378.0,-2.3,7.12,10.61,0.04,0.01,-0.1,0.0,g
3056.0,3138.0,3220.0,4095.0,4095.0,1695.0,2640.0,2378.0,-2.36,6.95,10.88,0.01,0.0,-0.1,0.0,g
3059.0,3152.0,3212.0,4095.0,4095.0,1731.0,2642.0,2384.0,-2.07,7.12,10.67,0.03,0.01,-0.1,0.0,g
3056.0,3152.0,3213.0,4095.0,4095.0,1729.0,2649.0,2384.0,-2.07,7.08,10.71,0.02,-0.03,-0.19,0.0,g
3059.0,3165.0,3221.0,4095.0,4095.0,1725.0,2651.0,2387.0,-2.38,7.04,10.69,0.01,-0.01,-0.17,0.0,g
3071.0,3152.0,3211.0,4095.0,4095.0,1695.0,2655.0,2395.0,-2.11,7.11,10.64,0.02,-0.04,-0.19,0.0,g
3049.0,3149.0,3200.0,4095.0,4095.0,1720.0,2651.0,2387.0,-2.38,6.89,10.94,0.0,0.0,-0.17,0.0,g
3064.0,3145.0,3221.0,4095.0,4095.0,1728.0,2657.0,2398.0,-2.38,7.03,10.74,0.05,0.0,-0.13,0.0,g
3057.0,3154.0,3203.0,4095.0,4095.0,1723.0,2657.0,2392.0,-2.15,7.07,10.65,0.0,-0.02,-0.14,0.0,g
3060.0,3157.0,3216.0,4095.0,4095.0,1727.0,2661.0,2391.0,-2.19,6.97,10.89,0.04,0.02,-0.16,0.0,g
3062.0,3147.0,3210.0,4095.0,4095.0,1729.0,2661.0,2390.0,-2.44,7.05,10.73,-0.01,0.01,-0.17,0.0,g
3062.0,3147.0,3212.0,4095.0,4095.0,1715.0,2653.0,2395.0,-2.37,7.07,10.65,0.01,-0.01,-0.12,0.0,g
3058.0,3139.0,3205.0,4095.0,4095.0,1721.0,2668.0,2401.0,-2.05,7.09,10.68,-0.0,0.02,-0.11,0.0,g
3061.0,3150.0,3214.0,4095.0,4095.0,1721.0,2672.0,2398.0,-2.26,7.03,10.67,-0.03,-0.02,-0.19,0.0,g
3059.0,3152.0,3217.0,4095.0,4095.0,1717.0,2667.0,2397.0,-2.28,6.82,11.05,0.03,0.02,-0.11,0.0,g
3066.0,3151.0,3204.0,4095.0,4095.0,1719.0,2656.0,2401.0,-2.19,7.26,10.32,0.05,-0.01,-0.18,0.0,g
3061.0,3151.0,3210.0,4095.0,4095.0,1712.0,2668.0,2399.0,-2.57,6.96,10.83,-0.0,0.05,0.03,0.0,g
3056.0,3151.0,3204.0,4095.0,4095.0,1709.0,2658.0,2385.0,-1.63,7.09,10.85,0.06,0.05,-0.07,0.0,g
3066.0,3158.0,3215.0,4095.0,4095.0,1713.0,2664.0,2398.0,-2.05,7.29,10.35,-0.01,-0.06,-0.25,0.0,g
3051.0,3143.0,3215.0,4095.0,4095.0,1706.0,2661.0,2397.0,-1.97,6.96,10.99,0.02,0.03,-0.23,0.0,g
3071.0,3154.0,3217.0,4095.0,4095.0,1714.0,2670.0,2405.0,-2.88,6.98,10.64,-0.07,-0.06,-0.19,0.0,g
3054.0,3147.0,3215.0,4095.0,4095.0,1705.0,2658.0,2399.0,-1.81,6.82,11.11,0.07,0.15,0.06,0.0,g
3084.0,3157.0,3200.0,4095.0,4095.0,1710.0,2664.0,2396.0,-2.06,7.26,10.42,-0.02,-0.01,-0.15,0.0,g
3062.0,3150.0,3224.0,4095.0,4095.0,1661.0,2671.0,2403.0,-1.85,7.11,10.7,-0.04,0.01,-0.17,0.0,g
3052.0,3152.0,3214.0,4095.0,4095.0,1701.0,2669.0,2400.0,-2.23,7.05,10.69,-0.01,-0.02,-0.26,0.0,g
3065.0,3152.0,3216.0,4095.0,4095.0,1690.0,2673.0,2415.0,-1.84,7.22,10.67,-0.02,0.02,-0.05,0.0,g
3063.0,3141.0,3198.0,4095.0,4095.0,1696.0,2669.0,2410.0,-1.47,7.27,10.69,0.09,-0.06,-0.14,0.0,g
3058.0,3150.0,3207.0,4095.0,4095.0,1707.0,2672.0,2418.0,-1.46,7.36,10.53,0.0,-0.02,-0.19,0.0,g
3047.0,3130.0,3203.0,4095.0,4095.0,1708.0,2672.0,2416.0,-1.94,7.16,10.84,0.0,-0.02,-0.22,0.0,g
3069.0,3148.0,3207.0,4095.0,4095.0,1711.0,2675.0,2420.0,-1.81,7.18,10.82,0.04,-0.01,-0.14,0.0,g
3083.0,3150.0,3217.0,4095.0,4095.0,1707.0,2673.0,2418.0,-1.57,7.23,10.64,0.04,0.01,-0.17,0.0,g
3061.0,3151.0,3207.0,4095.0,4095.0,1695.0,2668.0,2411.0,-1.95,7.26,10.57,0.02,-0.01,-0.19,0.0,g
3051.0,3153.0,3218.0,4095.0,4095.0,1702.0,2675.0,2416.0,-1.95,7.35,10.4,-0.06,-0.01,-0.08,0.0,g
3055.0,3152.0,3216.0,4095.0,4095.0,1697.0,2672.0,2414.0,-1.71,7.17,10.75,-0.16,-0.02,-0.04,0.0,g
3061.0,3157.0,3223.0,4095.0,4095.0,1712.0,2677.0,2417.0,-1.42,6.89,11.13,-0.08,-0.07,-0.16,0.0,g
3049.0,3152.0,3201.0,4095.0,4095.0,1713.0,2672.0,2415.0,-1.51,6.73,11.28,-0.07,0.04,-0.18,0.0,g
3071.0,3158.0,3209.0,4095.0,4095.0,1721.0,2675.0,2423.0,-2.0,6.84,11.1,-0.12,-0.06,-0.22,0.0,g
3061.0,3163.0,3201.0,4095.0,4095.0,1716.0,2669.0,2416.0,-1.72,6.59,11.46,-0.08,-0.0,-0.11,0.0,g
3059.0,3168.0,3206.0,4095.0,4095.0,1718.0,2680.0,2428.0,-1.33,6.85,11.09,0.07,0.0,-0.2,0.0,g
3056.0,3157.0,3200.0,4095.0,4095.0,1712.0,2672.0,2422.0,-1.65,6.77,11.13,-0.03,0.04,-0.25,0.0,g
3059.0,3162.0,3218.0,4095.0,4095.0,1714.0,2682.0,2426.0,-2.01,6.54,11.47,0.01,0.0,-0.24,0.0,g
3059.0,3158.0,3202.0,4095.0,4095.0,1711.0,2679.0,2427.0,-1.81,6.76,11.21,0.05,0.02,-0.13,0.0,g
3054.0,3155.0,3205.0,4095.0,4095.0,1701.0,2678.0,2427.0,-1.8,6.81,11.07,0.01,0.01,-0.15,0.0,g
3056.0,3152.0,3210.0,4095.0,4095.0,1708.0,2682.0,2431.0,-1.82,6.72,11.2,0.0,-0.0,-0.19,0.0,g
3053.0,3150.0,3211.0,4095.0,4095.0,1695.0,2678.0,2427.0,-2.01,6.65,11.23,0.02,-0.02,-0.19,0.0,g
3060.0,3143.0,3204.0,4095.0,4095.0,1687.0,2685.0,2433.0,-2.12,6.54,11.52,0.05,-0.03,-0.17,0.0,g
3062.0,3153.0,3205.0,4095.0,4095.0,1684.0,2685.0,2431.0,-2.1,6.89,10.98,0.11,0.02,-0.01,0.0,g
3057.0,3171.0,3211.0,4095.0,4095.0,1693.0,2682.0,2429.0,-1.33,7.13,10.77,0.02,-0.03,-0.13,0.0,g
3055.0,3147.0,3209.0,4095.0,4095.0,1685.0,2685.0,2430.0,-1.79,6.8,11.18,0.0,-0.02,-0.2,0.0,g
3057.0,3166.0,3210.0,4095.0,4095.0,1679.0,2693.0,2433.0,-2.07,6.83,11.12,0.04,0.02,-0.08,0.0,g
3057.0,3142.0,3201.0,4095.0,4095.0,1681.0,2687.0,2417.0,-1.58,6.99,11.0,0.01,-0.01,-0.09,0.0,g
3061.0,3166.0,3216.0,4095.0,4095.0,1652.0,2691.0,2437.0,-1.39,7.04,10.85,0.01,-0.03,-0.15,0.0,g
3062.0,3154.0,3209.0,4095.0,4095.0,1681.0,2685.0,2430.0,-1.61,6.79,11.24,0.05,-0.0,-0.21,0.0,g
3069.0,3154.0,3216.0,4095.0,4095.0,1678.0,2688.0,2432.0,-1.76,7.07,10.73,-0.0,-0.03,-0.22,0.0,g
3051.0,3150.0,3219.0,4095.0,4095.0,1677.0,2685.0,2427.0,-1.82,6.88,11.07,0.02,-0.01,-0.13,0.0,g
3061.0,3169.0,3206.0,4095.0,4095.0,1684.0,2693.0,2431.0,-1.87,6.92,10.94,0.0,0.02,-0.1,0.0,g
3050.0,3162.0,3201.0,4095.0,4095.0,1683.0,2688.0,2433.0,-1.6,6.96,11.05,0.08,0.02,-0.1,0.0,g
3051.0,3158.0,3217.0,4095.0,4095.0,1685.0,2691.0,2429.0,-1.72,6.93,10.95,-0.05,-0.03,-0.15,0.0,g
3051.0,3155.0,3216.0,4095.0,4095.0,1689.0,2694.0,2429.0,-1.37,6.94,11.09,0.03,-0.0,-0.18,0.0,g
3049.0,3157.0,3201.0,4095.0,4095.0,1663.0,2685.0,2430.0,-1.89,6.78,11.23,0.03,0.02,-0.2,0.0,g
3051.0,3150.0,3221.0,4095.0,4095.0,1687.0,2693.0,2438.0,-1.79,7.14,10.68,0.03,0.01,-0.16,0.0,g
3058.0,3149.0,3200.0,4095.0,4095.0,1690.0,2697.0,2434.0,-2.04,6.71,11.37,0.03,-0.04,-0.1,0.0,g
3070.0,3152.0,3216.0,4095.0,4095.0,1710.0,2703.0,2439.0,-1.47,7.08,10.84,-0.0,0.05,-0.07,0.0,g
3059.0,3152.0,3206.0,4095.0,4095.0,1711.0,2701.0,2435.0,-1.73,6.81,11.11,0.03,-0.06,-0.28,0.0,g
3056.0,3159.0,3219.0,4095.0,4095.0,1718.0,2704.0,2445.0,-2.01,6.9,11.15,0.03,-0.03,-0.15,0.0,g
3063.0,3158.0,3227.0,4095.0,4095.0,1717.0,2716.0,2423.0,-1.72,6.81,11.31,-0.03,0.14,-0.09,0.0,g
3059.0,3168.0,3230.0,4095.0,4095.0,1680.0,2713.0,2422.0,-1.54,6.71,11.29,-0.05,0.02,-0.18,0.0,g
3056.0,3159.0,3217.0,4095.0,4095.0,1717.0,2718.0,2431.0,-1.74,6.75,11.26,0.14,-0.06,-0.15,0.0,g
3056.0,3153.0,3231.0,4095.0,4095.0,1724.0,2719.0,2433.0,-1.78,6.93,10.98,-0.06,-0.03,-0.13,0.0,g
3069.0,3167.0,3219.0,4095.0,4095.0,1728.0,2725.0,2437.0,-1.24,6.74,11.35,0.02,0.08,-0.06,0.0,g
3057.0,3155.0,3226.0,4095.0,4095.0,1718.0,2714.0,2434.0,-1.46,6.78,11.19,0.02,-0.02,-0.22,0.0,g
3056.0,3167.0,3235.0,4095.0,4095.0,1719.0,2718.0,2439.0,-1.62,6.87,11.05,0.04,-0.04,-0.2,0.0,g
3055.0,3151.0,3216.0,4095.0,4095.0,1715.0,2724.0,2441.0,-1.71,6.86,11.09,-0.08,-0.02,-0.1,0.0,g
3067.0,3158.0,3219.0,4095.0,4095.0,1726.0,2730.0,2443.0,-1.46,6.74,11.26,-0.01,-0.03,-0.21,0.0,g
3055.0,3158.0,3228.0,4095.0,4095.0,1712.0,2710.0,2436.0,-1.48,6.71,11.31,0.02,0.01,-0.16,0.0,g
3071.0,3167.0,3222.0,4095.0,4095.0,1729.0,2720.0,2432.0,-1.78,6.83,11.11,-0.05,0.01,-0.13,0.0,g
3056.0,3159.0,3226.0,4095.0,4095.0,1719.0,2725.0,2437.0,-1.39,6.78,11.35,-0.12,0.02,-0.2,0.0,g
3056.0,3167.0,3218.0,4095.0,4095.0,1719.0,2726.0,2435.0,-1.51,6.31,11.77,-0.2,0.09,-0.12,0.0,g
3062.0,3163.0,3225.0,4095.0,4095.0,1723.0,2731.0,2444.0,-1.74,6.39,11.63,-0.03,-0.05,-0.19,0.0,g
3059.0,3155.0,3221.0,4095.0,4095.0,1729.0,2730.0,2443.0,-1.75,6.45,11.49,0.06,-0.08,-0.28,0.0,g
3058.0,3159.0,3229.0,4095.0,4095.0,1728.0,2721.0,2446.0,-1.76,6.25,11.77,0.02,0.02,-0.12,0.0,g
3047.0,3155.0,3223.0,4095.0,4095.0,1725.0,2727.0,2445.0,-1.71,6.45,11.49,-0.01,0.04,-0.05,0.0,g
3065.0,3170.0,3221.0,4095.0,4095.0,1730.0,2736.0,2451.0,-1.52,6.47,11.62,0.01,0.01,-0.11,0.0,g
3053.0,3166.0,3223.0,4095.0,4095.0,1714.0,2727.0,2445.0,-1.41,6.39,11.65,0.12,-0.0,-0.18,0.0,g
3057.0,3157.0,3232.0,4095.0,4095.0,1725.0,2728.0,2446.0,-1.65,6.58,11.31,0.08,0.01,-0.13,0.0,g
3069.0,3169.0,3221.0,4095.0,4095.0,1727.0,2731.0,2462.0,-1.53,6.88,11.33,0.11,-0.03,0.03,0.0,g
3057.0,3165.0,3225.0,4095.0,4095.0,1727.0,2723.0,2458.0,-0.88,7.28,10.79,0.13,0.0,-0.0,0.0,g
3061.0,3183.0,3225.0,4095.0,4095.0,1730.0,2736.0,2466.0,-1.1,7.12,11.04,0.14,-0.05,-0.12,0.0,g
3050.0,3155.0,3216.0,4095.0,4095.0,1696.0,2732.0,2458.0,-0.91,7.34,10.81,0.27,-0.01,-0.01,0.0,g
3063.0,3161.0,3216.0,4095.0,4095.0,1715.0,2733.0,2455.0,-0.47,7.81,10.17,0.16,-0.02,-0.19,0.0,g
3056.0,3160.0,3235.0,4095.0,4095.0,1728.0,2736.0,2465.0,-1.22,7.65,10.41,0.1,-0.03,-0.17,0.0,g
3061.0,3160.0,3221.0,4095.0,4095.0,1706.0,2731.0,2461.0,-0.83,7.67,10.41,0.09,0.07,-0.04,0.0,g
3053.0,3164.0,3219.0,4095.0,4095.0,1724.0,2735.0,2464.0,-0.85,7.74,10.44,0.14,-0.02,-0.12,0.0,g
3059.0,3165.0,3216.0,4095.0,4095.0,1722.0,2731.0,2463.0,-0.69,7.87,10.13,0.14,0.01,-0.09,0.0,g
3055.0,3159.0,3228.0,4095.0,4095.0,1731.0,2741.0,2457.0,-0.61,7.91,10.13,0.15,0.06,-0.11,0.0,g
3056.0,3165.0,3223.0,4095.0,4095.0,1717.0,2731.0,2465.0,-0.47,8.2,9.64,0.11,-0.01,-0.19,0.0,g
3063.0,3169.0,3231.0,4095.0,4095.0,1728.0,2739.0,2471.0,-1.18,8.07,9.81,0.07,-0.02,-0.2,0.0,g
3057.0,3152.0,3216.0,4095.0,4095.0,1725.0,2729.0,2463.0,-0.55,8.23,9.66,0.05,0.05,-0.09,0.0,g
3056.0,3163.0,3231.0,4095.0,4095.0,1728.0,2736.0,2474.0,-0.85,7.98,10.02,0.01,0.09,-0.19,0.0,g
3056.0,3163.0,3216.0,4095.0,4095.0,1715.0,2733.0,2465.0,-0.99,8.02,9.84,0.05,-0.02,-0.23,0.0,g
3062.0,3164.0,3225.0,4095.0,4095.0,1708.0,2736.0,2465.0,-0.97,8.12,9.76,0.03,0.02,-0.15,0.0,g
3058.0,3158.0,3226.0,4095.0,4095.0,1727.0,2737.0,2468.0,-0.93,8.16,9.62,0.02,-0.05,-0.24,0.0,g
3053.0,3165.0,3218.0,4095.0,4095.0,1723.0,2736.0,2461.0,-1.24,8.19,9.68,0.01,-0.01,-0.21,0.0,g
3056.0,3173.0,3226.0,4095.0,4095.0,1727.0,2738.0,2465.0,-0.99,8.11,9.79,-0.03,0.02,-0.16,0.0,g
3056.0,3155.0,3225.0,4095.0,4095.0,1715.0,2735.0,2463.0,-1.13,7.97,9.88,0.03,-0.03,-0.2,0.0,g
3060.0,3158.0,3226.0,4095.0,4095.0,1726.0,2738.0,2466.0,-1.04,8.05,9.83,-0.01,0.01,-0.17,0.0,g
3051.0,3152.0,3218.0,4095.0,4095.0,1725.0,2736.0,2465.0,-1.2,7.98,9.99,0.03,0.0,-0.16,0.0,g
3066.0,3164.0,3218.0,4095.0,4095.0,1729.0,2742.0,2475.0,-0.96,8.15,9.65,-0.03,0.02,-0.15,0.0,g
3055.0,3155.0,3213.0,4095.0,4095.0,1700.0,2736.0,2466.0,-1.37,7.81,10.24,-0.0,-0.04,-0.25,0.0,g
3071.0,3157.0,3233.0,4095.0,4095.0,1710.0,2736.0,2470.0,-1.29,7.92,9.99,0.0,0.08,-0.08,0.0,g
3057.0,3159.0,3216.0,4095.0,4095.0,1719.0,2736.0,2464.0,-0.89,8.1,9.73,-0.04,-0.01,-0.21,0.0,g
3068.0,3167.0,3221.0,4095.0,4095.0,1729.0,2738.0,2465.0,-1.6,7.88,10.02,0.04,-0.05,-0.21,0.0,g
3056.0,3162.0,3216.0,4095.0,4095.0,1717.0,2737.0,2469.0,-1.05,8.09,9.65,-0.04,-0.0,-0.17,0.0,g
3056.0,3158.0,3219.0,4095.0,4095.0,1713.0,2736.0,2466.0,-1.36,7.75,10.28,-0.02,0.0,-0.13,0.0,g
3059.0,3173.0,3227.0,4095.0,4095.0,1715.0,2736.0,2471.0,-0.76,8.14,9.61,0.0,0.04,-0.23,0.0,g
3062.0,3152.0,3219.0,4095.0,4095.0,1697.0,2741.0,2465.0,-2.13,7.74,10.24,-0.07,-0.11,-0.22,0.0,g
3071.0,3167.0,3237.0,4095.0,4095.0,1665.0,2736.0,2467.0,-1.07,7.76,10.08,-0.02,0.19,-0.01,0.0,g
3055.0,3154.0,3214.0,4095.0,4095.0,1710.0,2738.0,2470.0,-1.27,7.93,9.84,-0.02,-0.1,-0.29,0.0,g
3063.0,3163.0,3216.0,4095.0,4095.0,1715.0,2744.0,2474.0,-2.0,7.37,10.74,0.03,0.01,-0.06,0.0,g
3059.0,3172.0,3215.0,4095.0,4095.0,1705.0,2738.0,2473.0,-0.91,8.32,9.37,0.12,-0.06,-0.15,0.0,g
3071.0,3170.0,3224.0,4095.0,4095.0,1702.0,2737.0,2471.0,-1.44,7.55,10.47,-0.08,0.03,-0.15,0.0,g
3054.0,3154.0,3222.0,4095.0,4095.0,1695.0,2736.0,2470.0,-1.43,7.72,10.3,0.14,-0.06,-0.21,0.0,g
3063.0,3168.0,3229.0,4095.0,4095.0,1712.0,2747.0,2478.0,-1.48,7.86,10.01,-0.06,0.0,-0.1,0.0,g
3059.0,3157.0,3216.0,4095.0,4095.0,1712.0,2741.0,2476.0,-0.93,7.75,10.17,0.03,0.01,-0.15,0.0,g
3056.0,3157.0,3226.0,4095.0,4095.0,1701.0,2735.0,2471.0,-1.3,7.84,9.92,-0.13,-0.03,-0.26,0.0,g
3061.0,3161.0,3216.0,4095.0,4095.0,1680.0,2741.0,2481.0,-1.08,7.89,9.92,-0.03,0.04,-0.12,0.0,g
3067.0,3166.0,3241.0,4095.0,4095.0,1702.0,2740.0,2480.0,-1.38,7.59,10.47,-0.11,-0.01,-0.2,0.0,g
3063.0,3165.0,3217.0,4095.0,4095.0,1707.0,2745.0,2480.0,-1.56,7.69,10.22,-0.02,-0.01,-0.14,0.0,g
3071.0,3159.0,3216.0,4095.0,4095.0,1697.0,2742.0,2479.0,-1.2,7.75,10.12,-0.2,-0.11,-0.22,0.0,g
3056.0,3169.0,3219.0,4095.0,4095.0,1712.0,2746.0,2480.0,-1.24,7.25,10.71,-0.18,-0.01,-0.09,0.0,g
3055.0,3152.0,3211.0,4095.0,4095.0,1712.0,2739.0,2480.0,-1.39,7.06,11.13,0.01,-0.08,-0.2,0.0,g
3056.0,3168.0,3219.0,4095.0,4095.0,1698.0,2746.0,2481.0,-1.19,7.47,10.47,0.03,0.04,-0.12,0.0,g
3067.0,3168.0,3215.0,4095.0,4095.0,1679.0,2737.0,2481.0,-1.28,7.48,10.48,0.01,0.03,-0.09,0.0,g
3056.0,3174.0,3231.0,4095.0,4095.0,1699.0,2749.0,2485.0,-1.19,7.28,10.84,0.01,-0.02,-0.15,0.0,g
3055.0,3158.0,3213.0,4095.0,4095.0,1697.0,2743.0,2480.0,-1.31,7.36,10.65,0.06,0.02,-0.11,0.0,g
3062.0,3161.0,3216.0,4095.0,4095.0,1710.0,2752.0,2485.0,-1.28,7.48,10.57,0.01,-0.02,-0.06,0.0,g
3056.0,3159.0,3216.0,4095.0,4095.0,1702.0,2739.0,2482.0,-0.96,7.48,10.52,-0.01,-0.02,-0.08,0.0,g
3056.0,3167.0,3214.0,4095.0,4095.0,1696.0,2745.0,2489.0,-1.02,7.41,10.67,0.01,-0.04,-0.17,0.0,g
3056.0,3175.0,3217.0,4095.0,4095.0,1700.0,2747.0,2484.0,-0.98,7.49,10.56,0.01,0.01,-0.16,0.0,g
3065.0,3166.0,3218.0,4095.0,4095.0,1693.0,2742.0,2481.0,-1.15,7.47,10.57,0.02,0.0,-0.17,0.0,g
3066.0,3159.0,3228.0,4095.0,4095.0,1700.0,2752.0,2481.0,-0.85,7.53,10.51,-0.04,0.04,-0.14,0.0,g
3056.0,3155.0,3203.0,4095.0,4095.0,1709.0,2751.0,2489.0,-1.36,7.32,10.76,0.04,-0.03,-0.2,0.0,g
3056.0,3167.0,3218.0,4095.0,4095.0,1701.0,2748.0,2490.0,-1.02,7.53,10.52,0.04,0.01,-0.15,0.0,g
3058.0,3167.0,3216.0,4095.0,4095.0,1701.0,2748.0,2485.0,-1.2,7.48,10.58,0.02,0.01,-0.17,0.0,g
3071.0,3158.0,3206.0,4095.0,4095.0,1711.0,2753.0,2482.0,-1.04,7.54,10.51,-0.01,0.04,-0.15,0.0,g
3059.0,3175.0,3235.0,4095.0,4095.0,1691.0,2751.0,2486.0,-1.4,7.54,10.43,0.04,-0.04,-0.16,0.0,g
3050.0,3161.0,3217.0,4095.0,4095.0,1694.0,2752.0,2481.0,-1.18,7.36,10.73,-0.01,0.01,-0.16,0.0,g
3055.0,3168.0,3218.0,4095.0,4095.0,1679.0,2741.0,2481.0,-1.41,7.44,10.61,0.07,-0.02,-0.18,0.0,g
3059.0,3165.0,3223.0,4095.0,4095.0,1671.0,2752.0,2490.0,-1.07,7.56,10.41,-0.04,0.03,-0.12,0.0,g
3059.0,3152.0,3216.0,4095.0,4095.0,1682.0,2749.0,2484.0,-1.29,7.35,10.73,0.01,-0.03,-0.18,0.0,g
3081.0,3169.0,3215.0,4095.0,4095.0,1685.0,2756.0,2491.0,-1.2,7.48,10.58,0.0,0.0,-0.18,0.0,g
3056.0,3158.0,3221.0,4095.0,4095.0,1680.0,2746.0,2481.0,-1.36,7.3,10.84,0.02,-0.0,-0.19,0.0,g
3061.0,3167.0,3218.0,4095.0,4095.0,1683.0,2755.0,2489.0,-1.29,7.45,10.54,-0.02,0.05,-0.14,0.0,g
3059.0,3157.0,3215.0,4095.0,4095.0,1683.0,2747.0,2489.0,-1.47,7.28,10.77,0.05,-0.05,-0.21,0.0,g
3067.0,3166.0,3216.0,4095.0,4095.0,1680.0,2752.0,2491.0,-1.44,7.5,10.44,-0.03,-0.0,-0.15,0.0,g
3049.0,3158.0,3223.0,4095.0,4095.0,1689.0,2747.0,2485.0,-1.24,7.27,10.77,0.03,-0.01,-0.13,0.0,g
3063.0,3167.0,3216.0,4095.0,4095.0,1687.0,2751.0,2490.0,-1.2,7.49,10.48,0.02,0.0,-0.15,0.0,g
3055.0,3163.0,3228.0,4095.0,4095.0,1631.0,2742.0,2486.0,-1.44,7.35,10.68,0.05,-0.04,-0.2,0.0,g
3058.0,3154.0,3222.0,4095.0,4095.0,1685.0,2748.0,2494.0,-1.45,7.62,10.37,0.03,-0.01,-0.11,0.0,g
3051.0,3169.0,3221.0,4095.0,4095.0,1680.0,2753.0,2494.0,-1.15,7.25,10.92,-0.04,0.03,-0.15,0.0,g
3049.0,3168.0,3213.0,4095.0,4095.0,1683.0,2746.0,2487.0,-1.36,7.51,10.45,0.05,-0.03,-0.19,0.0,g
3058.0,3158.0,3226.0,4095.0,4095.0,1677.0,2749.0,2490.0,-1.47,7.44,10.59,0.01,-0.01,-0.16,0.0,g
3053.0,3152.0,3209.0,4095.0,4095.0,1675.0,2758.0,2486.0,-1.38,7.45,10.53,0.02,-0.02,-0.14,0.0,g
3056.0,3178.0,3219.0,4095.0,4095.0,1685.0,2752.0,2496.0,-1.34,7.32,10.77,0.01,-0.02,-0.19,0.0,g
3056.0,3162.0,3216.0,4095.0,4095.0,1671.0,2748.0,2494.0,-1.47,7.58,10.32,0.05,-0.04,-0.16,0.0,g
3060.0,3165.0,3231.0,4095.0,4095.0,1683.0,2736.0,2494.0,-1.27,7.51,10.47,-0.01,0.01,-0.13,0.0,g
3063.0,3163.0,3226.0,4095.0,4095.0,1687.0,2752.0,2487.0,-1.43,7.32,10.75,0.05,-0.03,-0.19,0.0,g
3067.0,3166.0,3226.0,4095.0,4095.0,1662.0,2752.0,2497.0,-1.74,7.63,10.26,0.03,-0.01,-0.1,0.0,g
3068.0,3154.0,3229.0,4095.0,4095.0,1676.0,2747.0,2496.0,-0.96,7.44,10.63,-0.11,0.11,0.06,0.0,g
3056.0,3152.0,3215.0,4095.0,4095.0,1680.0,2741.0,2480.0,-1.01,7.48,10.53,0.05,0.03,-0.13,0.0,g
3071.0,3169.0,3219.0,4095.0,4095.0,1694.0,2757.0,2493.0,-1.07,7.56,10.4,0.07,-0.04,-0.3,0.0,g
3060.0,3157.0,3227.0,4095.0,4095.0,1685.0,2756.0,2490.0,-1.85,7.47,10.51,0.0,-0.05,-0.28,0.0,g
3063.0,3152.0,3227.0,4095.0,4095.0,1693.0,2751.0,2489.0,-1.99,7.2,10.87,-0.0,-0.01,-0.04,0.0,g
3056.0,3149.0,3217.0,4095.0,4095.0,1689.0,2751.0,2496.0,-1.58,7.27,10.87,0.27,-0.19,0.0,0.0,g
3057.0,3154.0,3221.0,4095.0,4095.0,1692.0,2761.0,2492.0,-0.53,7.98,9.83,0.17,-0.04,0.04,0.0,g
3058.0,3159.0,3224.0,4095.0,4095.0,1683.0,2751.0,2489.0,-0.57,8.01,9.91,0.03,-0.04,-0.16,0.0,g
3058.0,3159.0,3231.0,4095.0,4095.0,1680.0,2759.0,2495.0,-0.98,7.66,10.39,-0.05,-0.0,-0.2,0.0,g
3065.0,3174.0,3213.0,4095.0,4095.0,1687.0,2747.0,2492.0,-1.03,7.72,10.3,0.02,0.02,-0.19,0.0,g
3067.0,3154.0,3226.0,4095.0,4095.0,1689.0,2752.0,2491.0,-0.89,7.86,10.16,-0.06,-0.09,-0.24,0.0,g
3063.0,3171.0,3216.0,4095.0,4095.0,1685.0,2759.0,2492.0,-1.06,7.53,10.56,-0.01,-0.0,-0.25,0.0,g
3057.0,3150.0,3205.0,4095.0,4095.0,1676.0,2757.0,2487.0,-1.3,7.7,10.25,-0.01,0.02,-0.19,0.0,g
3066.0,3153.0,3227.0,4095.0,4095.0,1661.0,2750.0,2494.0,-1.22,7.6,10.44,0.0,0.01,-0.14,0.0,g
3056.0,3152.0,3216.0,4095.0,4095.0,1679.0,2751.0,2492.0,-1.17,7.49,10.61,-0.01,0.04,-0.14,0.0,g
3071.0,3166.0,3227.0,4095.0,4095.0,1689.0,2756.0,2497.0,-1.31,7.69,10.32,0.03,0.02,-0.11,0.0,g
3046.0,3153.0,3215.0,4095.0,4095.0,1659.0,2752.0,2487.0,-0.87,7.52,10.5,-0.08,-0.03,-0.2,0.0,g
3071.0,3354.0,3398.0,4095.0,4095.0,1710.0,2535.0,2378.0,-2.55,6.25,11.39,-0.05,-0.01,-0.08,0.0,g
3057.0,3354.0,3379.0,4095.0,4095.0,1675.0,2531.0,2378.0,-2.24,6.16,11.51,0.05,0.02,-0.05,0.0,g
3056.0,3363.0,3394.0,4095.0,4095.0,1712.0,2538.0,2385.0,-2.1,6.36,11.43,0.08,-0.05,-0.15,0.0,g
3056.0,3347.0,3385.0,4095.0,4095.0,1714.0,2534.0,2384.0,-2.32,6.44,11.26,0.0,0.01,-0.2,0.0,g
3058.0,3347.0,3377.0,4095.0,4095.0,1725.0,2544.0,2391.0,-2.53,6.22,11.54,0.04,0.01,-0.16,0.0,g
3069.0,3360.0,3383.0,4095.0,4095.0,1711.0,2542.0,2391.0,-2.35,6.45,11.27,0.04,-0.03,-0.18,0.0,g
3059.0,3350.0,3385.0,4095.0,4095.0,1721.0,2550.0,2387.0,-2.57,6.26,11.5,-0.03,-0.01,-0.2,0.0,g
3051.0,3344.0,3385.0,4095.0,4095.0,1711.0,2544.0,2388.0,-2.55,6.24,11.42,0.02,-0.04,-0.12,0.0,g
3057.0,3349.0,3379.0,4095.0,4095.0,1724.0,2549.0,2400.0,-2.3,6.33,11.48,0.04,-0.01,-0.07,0.0,g
3062.0,3354.0,3391.0,4095.0,4095.0,1672.0,2543.0,2387.0,-2.22,6.31,11.44,-0.0,-0.02,-0.15,0.0,g
3070.0,3370.0,3387.0,4095.0,4095.0,1707.0,2555.0,2390.0,-2.33,6.43,11.39,0.06,-0.01,-0.12,0.0,g
3060.0,3365.0,3385.0,4095.0,4095.0,1712.0,2554.0,2404.0,-2.31,6.39,11.48,-0.02,0.01,-0.16,0.0,g
3060.0,3347.0,3376.0,4095.0,4095.0,1702.0,2558.0,2397.0,-2.24,6.34,11.39,0.01,-0.01,-0.15,0.0,g
3053.0,3345.0,3391.0,4095.0,4095.0,1698.0,2555.0,2401.0,-2.23,6.37,11.4,0.04,0.02,-0.13,0.0,g
3059.0,3358.0,3382.0,4095.0,4095.0,1710.0,2551.0,2400.0,-2.41,6.37,11.35,-0.05,-0.01,-0.17,0.0,g
3060.0,3351.0,3386.0,4095.0,4095.0,1714.0,2579.0,2402.0,-2.11,6.44,11.33,0.08,0.03,-0.06,0.0,g
3055.0,3348.0,3381.0,4095.0,4095.0,1686.0,2559.0,2403.0,-2.15,6.43,11.37,-0.02,-0.09,-0.18,0.0,g
3059.0,3358.0,3398.0,4095.0,4095.0,1712.0,2581.0,2413.0,-2.08,6.33,11.52,0.01,-0.04,-0.19,0.0,g
3056.0,3362.0,3379.0,4095.0,4095.0,1724.0,2559.0,2416.0,-2.28,6.37,11.37,0.12,-0.03,-0.15,0.0,g
3071.0,3366.0,3391.0,4095.0,4095.0,1735.0,2588.0,2426.0,-2.5,6.41,11.44,0.05,-0.08,-0.13,0.0,g
3065.0,3353.0,3376.0,4095.0,4095.0,1725.0,2606.0,2439.0,-1.62,6.46,11.77,0.1,0.28,-0.03,0.0,g
3059.0,3370.0,3387.0,4095.0,4095.0,1712.0,2608.0,2446.0,-2.1,6.54,11.36,0.1,-0.17,-0.26,0.0,g
3061.0,3350.0,3386.0,4095.0,4095.0,1725.0,2608.0,2445.0,-1.91,7.02,10.67,-0.01,0.01,-0.1,0.0,g
3056.0,3357.0,3378.0,4095.0,4095.0,1718.0,2608.0,2448.0,-1.87,6.66,11.2,-0.13,-0.01,-0.13,0.0,g
3061.0,3344.0,3385.0,4095.0,4095.0,1737.0,2617.0,2462.0,-2.0,6.24,11.82,-0.1,0.04,-0.1,0.0,g
3061.0,3357.0,3381.0,4095.0,4095.0,1725.0,2611.0,2446.0,-1.58,6.87,10.15,-0.17,-0.16,-0.19,0.0,g
3062.0,3377.0,3408.0,4095.0,4095.0,1712.0,2599.0,2447.0,-1.61,5.89,12.27,-0.08,-0.2,-0.43,0.0,g
3055.0,3376.0,3403.0,4095.0,4095.0,1725.0,2608.0,2453.0,-2.11,5.84,12.02,0.0,-0.06,-0.3,0.0,g
3071.0,3379.0,3403.0,4095.0,4095.0,1741.0,2624.0,2451.0,-2.12,5.89,12.13,0.03,-0.06,-0.2,0.0,g
3056.0,3371.0,3390.0,4095.0,4095.0,1727.0,2626.0,2438.0,-1.68,6.08,11.71,0.0,0.0,-0.16,0.0,g
3056.0,3382.0,3386.0,4095.0,4095.0,1735.0,2628.0,2446.0,-1.84,6.17,11.56,-0.1,0.02,-0.11,0.0,g
3054.0,3374.0,3381.0,4095.0,4095.0,1734.0,2630.0,2447.0,-1.88,5.99,11.8,0.01,-0.07,-0.27,0.0,g
3070.0,3383.0,3390.0,4095.0,4095.0,1730.0,2635.0,2455.0,-1.95,6.01,11.77,0.01,0.01,-0.17,0.0,g
3061.0,3369.0,3378.0,4095.0,4095.0,1720.0,2633.0,2456.0,-1.92,6.09,11.73,-0.01,0.01,-0.11,0.0,g
3064.0,3375.0,3383.0,4095.0,4095.0,1744.0,2640.0,2463.0,-1.91,5.77,12.16,0.01,-0.0,-0.17,0.0,g
3054.0,3381.0,3401.0,4095.0,4095.0,1737.0,2634.0,2464.0,-1.78,6.04,11.81,0.01,0.05,-0.09,0.0,g
3055.0,3366.0,3386.0,4095.0,4095.0,1726.0,2635.0,2461.0,-1.77,6.04,11.76,0.04,-0.02,-0.2,0.0,g
3071.0,3375.0,3393.0,4095.0,4095.0,1744.0,2641.0,2464.0,-2.01,5.98,11.93,0.02,0.02,-0.18,0.0,g
3055.0,3375.0,3390.0,4095.0,4095.0,1734.0,2637.0,2463.0,-1.96,5.96,11.83,-0.04,0.01,-0.16,0.0,g
3070.0,3376.0,3398.0,4095.0,4095.0,1723.0,2640.0,2470.0,-2.22,5.91,12.02,0.01,-0.03,-0.05,0.0,g
3056.0,3361.0,3393.0,4095.0,4095.0,1731.0,2642.0,2476.0,-2.15,5.62,11.91,-0.13,-0.01,-0.27,0.0,g
3055.0,3361.0,3380.0,4095.0,4095.0,1731.0,2652.0,2479.0,-2.35,5.4,12.35,-0.09,0.09,-0.12,0.0,g
3061.0,3376.0,3401.0,4095.0,4095.0,1733.0,2662.0,2477.0,-2.25,5.1,12.37,-0.01,-0.02,-0.2,0.0,g
3051.0,3358.0,3380.0,4095.0,4095.0,1727.0,2655.0,2475.0,-2.37,5.52,12.05,0.08,0.02,-0.13,0.0,g
3059.0,3376.0,3397.0,4095.0,4095.0,1728.0,2661.0,2477.0,-2.21,5.55,11.86,-0.03,-0.04,-0.15,0.0,g
3056.0,3366.0,3389.0,4095.0,4095.0,1715.0,2653.0,2478.0,-2.21,5.22,12.41,-0.01,-0.06,-0.15,0.0,g
3062.0,3374.0,3399.0,4095.0,4095.0,1725.0,2660.0,2479.0,-1.88,5.5,12.02,0.05,0.06,-0.1,0.0,g
3058.0,3362.0,3390.0,4095.0,4095.0,1721.0,2653.0,2479.0,-2.06,5.46,12.11,0.02,-0.04,-0.26,0.0,g
3055.0,3373.0,3399.0,4095.0,4095.0,1728.0,2660.0,2477.0,-2.5,5.43,12.17,0.04,-0.04,-0.18,0.0,g
3063.0,3374.0,3391.0,4095.0,4095.0,1712.0,2661.0,2478.0,-2.28,5.43,12.27,0.12,-0.1,-0.21,0.0,g
3063.0,3362.0,3405.0,4095.0,4095.0,1712.0,2666.0,2480.0,-2.33,5.57,12.17,0.07,-0.04,-0.14,0.0,g
3056.0,3367.0,3395.0,4095.0,4095.0,1713.0,2657.0,2480.0,-1.92,5.62,12.03,-0.01,-0.03,-0.16,0.0,g
3055.0,3372.0,3392.0,4095.0,4095.0,1727.0,2659.0,2479.0,-2.36,5.4,12.42,0.02,-0.04,-0.19,0.0,g
3055.0,3371.0,3399.0,4095.0,4095.0,1723.0,2663.0,2477.0,-2.2,5.51,12.09,-0.01,0.02,-0.11,0.0,g
3053.0,3357.0,3397.0,4095.0,4095.0,1722.0,2663.0,2475.0,-2.17,5.63,11.99,0.08,-0.01,0.01,0.0,g
3057.0,3366.0,3403.0,4095.0,4095.0,1723.0,2661.0,2481.0,-1.77,5.56,12.21,0.02,0.02,-0.11,0.0,g
3057.0,3354.0,3389.0,4095.0,4095.0,1713.0,2665.0,2474.0,-2.1,5.58,12.21,0.07,-0.08,-0.21,0.0,g
3066.0,3365.0,3406.0,4095.0,4095.0,1728.0,2668.0,2480.0,-1.82,5.95,11.77,-0.02,0.02,-0.16,0.0,g
3058.0,3355.0,3401.0,4095.0,4095.0,1723.0,2663.0,2480.0,-2.34,5.34,12.51,-0.08,-0.07,-0.26,0.0,g
3061.0,3360.0,3397.0,4095.0,4095.0,1718.0,2667.0,2477.0,-1.85,5.69,11.99,0.06,0.06,-0.09,0.0,g
3058.0,3344.0,3382.0,4095.0,4095.0,1718.0,2667.0,2501.0,-1.8,5.55,12.11,0.05,-0.01,-0.16,0.0,g
3062.0,3363.0,3398.0,4095.0,4095.0,1718.0,2672.0,2502.0,-2.17,5.73,12.0,0.04,-0.01,-0.13,0.0,g
3054.0,3354.0,3386.0,4095.0,4095.0,1709.0,2670.0,2497.0,-1.72,5.56,12.24,-0.04,0.05,-0.13,0.0,g
3055.0,3361.0,3408.0,4095.0,4095.0,1712.0,2671.0,2499.0,-2.33,5.55,12.21,0.06,-0.06,-0.21,0.0,g
3063.0,3357.0,3391.0,4095.0,4095.0,1706.0,2675.0,2506.0,-1.95,5.76,11.91,-0.07,0.01,-0.06,0.0,g
3057.0,3349.0,3392.0,4095.0,4095.0,1706.0,2673.0,2503.0,-1.92,5.21,12.76,0.0,-0.0,-0.09,0.0,g
3056.0,3366.0,3390.0,4095.0,4095.0,1712.0,2682.0,2501.0,-1.73,5.6,12.47,0.17,-0.12,-0.26,0.0,g
3047.0,3357.0,3392.0,4095.0,4095.0,1715.0,2676.0,2496.0,-1.63,5.75,11.99,0.07,0.01,-0.14,0.0,g
3060.0,3355.0,3403.0,4095.0,4095.0,1713.0,2686.0,2501.0,-1.96,5.77,11.9,0.05,-0.09,-0.21,0.0,g
3056.0,3359.0,3376.0,4095.0,4095.0,1719.0,2688.0,2495.0,-1.73,5.79,11.99,-0.03,-0.05,-0.15,0.0,g
3055.0,3362.0,3397.0,4095.0,4095.0,1720.0,2691.0,2497.0,-1.79,5.61,12.16,0.0,0.01,-0.15,0.0,g
3057.0,3347.0,3392.0,4095.0,4095.0,1709.0,2687.0,2496.0,-1.71,5.7,12.03,-0.03,0.0,-0.12,0.0,g
3066.0,3367.0,3402.0,4095.0,4095.0,1722.0,2689.0,2503.0,-1.94,5.54,12.3,0.04,-0.04,-0.17,0.0,g
3063.0,3359.0,3392.0,4095.0,4095.0,1712.0,2689.0,2499.0,-1.56,5.9,11.75,-0.02,0.07,-0.02,0.0,g
3057.0,3358.0,3401.0,4095.0,4095.0,1693.0,2697.0,2501.0,-1.64,5.58,12.32,-0.02,-0.01,-0.17,0.0,g
3054.0,3363.0,3375.0,4095.0,4095.0,1664.0,2694.0,2483.0,-1.89,5.66,12.11,0.1,0.03,-0.21,0.0,g
3058.0,3339.0,3335.0,4095.0,4095.0,1680.0,2682.0,2373.0,-1.71,5.69,12.27,0.16,0.02,-0.24,0.0,g
3065.0,3332.0,3280.0,4095.0,4095.0,1669.0,2695.0,2302.0,-1.95,6.05,11.69,0.06,-0.0,-0.17,0.0,g
3059.0,3309.0,3227.0,4095.0,4095.0,1670.0,2685.0,2244.0,-1.91,5.82,11.94,0.08,0.0,-0.21,0.0,g
3070.0,3312.0,3202.0,4095.0,4095.0,1673.0,2691.0,2207.0,-2.01,5.86,11.92,0.09,0.01,-0.16,0.0,g
3062.0,3166.0,3036.0,4095.0,4095.0,1665.0,2675.0,2077.0,-2.09,6.13,11.61,0.01,0.0,-0.14,0.0,g
3060.0,3168.0,3037.0,4095.0,4095.0,1666.0,2685.0,2083.0,-2.25,6.0,11.77,-0.01,-0.04,-0.15,0.0,g
3056.0,3171.0,3046.0,4095.0,4095.0,1667.0,2682.0,2079.0,-1.83,6.14,11.73,-0.04,0.01,-0.1,0.0,g
3066.0,3172.0,3047.0,4095.0,4095.0,1674.0,2675.0,2082.0,-2.09,5.86,11.99,0.05,-0.02,-0.22,0.0,g
3067.0,3166.0,3049.0,4095.0,4095.0,1674.0,2680.0,2094.0,-2.16,6.16,11.65,0.02,0.01,-0.16,0.0,g
3062.0,3151.0,3039.0,4095.0,4095.0,1672.0,2673.0,2096.0,-2.14,5.94,11.88,0.0,-0.02,-0.13,0.0,g
3055.0,3158.0,3037.0,4095.0,4095.0,1674.0,2673.0,2096.0,-2.04,6.04,11.72,0.03,-0.03,-0.16,0.0,g
3067.0,3164.0,3043.0,4095.0,4095.0,1669.0,2674.0,2099.0,-2.19,6.08,11.68,0.01,-0.03,-0.14,0.0,g
3061.0,3155.0,3034.0,4095.0,4095.0,1678.0,2679.0,2102.0,-1.93,5.89,12.04,-0.01,0.0,-0.16,0.0,g
3050.0,3151.0,3046.0,4095.0,4095.0,1679.0,2675.0,2101.0,-2.16,6.1,11.67,0.04,-0.01,-0.14,0.0,g
3065.0,3158.0,3039.0,4095.0,4095.0,1680.0,2680.0,2107.0,-2.01,6.0,11.8,-0.02,-0.01,-0.18,0.0,g
3059.0,3157.0,3038.0,4095.0,4095.0,1680.0,2677.0,2108.0,-2.19,5.98,11.81,0.02,0.03,-0.12,0.0,g
3070.0,3166.0,3056.0,4095.0,4095.0,1683.0,2675.0,2115.0,-2.08,5.95,11.87,0.04,0.02,-0.14,0.0,g
3057.0,3154.0,3041.0,4095.0,4095.0,1679.0,2673.0,2112.0,-2.1,6.1,11.65,0.03,-0.01,-0.14,0.0,g
3067.0,3166.0,3040.0,4095.0,4095.0,1679.0,2688.0,2119.0,-1.94,5.88,12.02,0.01,-0.01,-0.18,0.0,g
3063.0,3163.0,3043.0,4095.0,4095.0,1680.0,2689.0,2122.0,-2.3,6.06,11.65,0.03,-0.02,-0.12,0.0,g
3057.0,3152.0,3037.0,4095.0,4095.0,1680.0,2680.0,2117.0,-1.94,6.0,11.85,-0.02,0.0,-0.13,0.0,g
3059.0,3159.0,3047.0,4095.0,4095.0,1681.0,2685.0,2123.0,-1.98,5.91,11.86,0.05,-0.0,-0.19,0.0,g
3059.0,3136.0,3031.0,4095.0,4095.0,1680.0,2671.0,2108.0,-2.13,6.12,11.53,0.0,-0.02,-0.16,0.0,g
3057.0,3150.0,3033.0,4095.0,4095.0,1639.0,2677.0,2112.0,-2.04,5.8,12.03,0.03,-0.01,-0.18,0.0,g
3063.0,3127.0,3030.0,4095.0,4095.0,1680.0,2678.0,2131.0,-2.12,5.9,11.92,0.04,-0.03,-0.18,0.0,g
3063.0,3143.0,3053.0,4095.0,4095.0,1696.0,2681.0,2139.0,-2.24,6.07,11.74,0.01,-0.01,-0.16,0.0,g
3058.0,3131.0,3033.0,4095.0,4095.0,1693.0,2679.0,2137.0,-1.98,5.94,11.82,-0.02,0.0,-0.11,0.0,g
3070.0,3135.0,3051.0,4095.0,4095.0,1691.0,2679.0,2141.0,-2.05,5.92,11.82,-0.0,-0.0,-0.15,0.0,g
3071.0,3135.0,3045.0,4095.0,4095.0,1687.0,2677.0,2141.0,-2.04,5.96,11.81,0.03,-0.0,-0.15,0.0,g
3066.0,3150.0,3040.0,4095.0,4095.0,1681.0,2689.0,2149.0,-2.03,6.0,11.77,0.02,-0.02,-0.17,0.0,g
3059.0,3136.0,3026.0,4095.0,4095.0,1678.0,2684.0,2145.0,-2.05,5.97,11.82,0.01,-0.01,-0.16,0.0,g
3056.0,3143.0,3039.0,4095.0,4095.0,1692.0,2683.0,2145.0,-2.03,5.98,11.79,0.0,-0.0,-0.16,0.0,g
3059.0,3135.0,3035.0,4095.0,4095.0,1687.0,2683.0,2147.0,-2.04,5.95,11.79,-0.01,-0.03,-0.18,0.0,g
3056.0,3151.0,3056.0,4095.0,4095.0,1692.0,2686.0,2151.0,-2.09,5.88,11.91,0.03,-0.01,-0.15,0.0,g
3069.0,3134.0,3037.0,4095.0,4095.0,1685.0,2690.0,2151.0,-1.92,5.89,11.82,0.04,0.06,-0.06,0.0,g
3059.0,3130.0,3031.0,4095.0,4095.0,1683.0,2685.0,2147.0,-2.6,5.9,11.56,-0.07,-0.12,-0.23,0.0,g
3063.0,3143.0,3050.0,4095.0,4095.0,1693.0,2689.0,2150.0,-1.28,5.98,12.04,0.14,0.1,0.06,0.0,g
3058.0,3131.0,3031.0,4095.0,4095.0,1694.0,2688.0,2154.0,-1.72,5.94,11.95,-0.04,-0.0,-0.28,0.0,g
3056.0,3136.0,3043.0,4095.0,4095.0,1697.0,2693.0,2158.0,-2.3,6.05,11.61,0.05,-0.04,-0.27,0.0,g
3055.0,3123.0,3031.0,4095.0,4095.0,1689.0,2688.0,2153.0,-2.37,5.94,11.92,0.0,-0.01,-0.1,0.0,g
3059.0,3146.0,3041.0,4095.0,4095.0,1690.0,2688.0,2161.0,-1.7,5.96,11.84,-0.0,0.01,-0.11,0.0,g
3071.0,3136.0,3041.0,4095.0,4095.0,1686.0,2688.0,2160.0,-1.87,5.93,11.87,0.02,-0.02,-0.21,0.0,g
3059.0,3149.0,3034.0,4095.0,4095.0,1697.0,2697.0,2165.0,-2.3,5.94,11.85,0.02,-0.01,-0.18,0.0,g
3049.0,3143.0,3041.0,4095.0,4095.0,1680.0,2687.0,2159.0,-2.28,5.93,11.83,0.04,-0.0,-0.08,0.0,g
3057.0,3137.0,3041.0,4095.0,4095.0,1680.0,2712.0,2193.0,-2.38,6.13,11.61,0.09,-0.03,-0.18,0.0,g
3063.0,3141.0,3045.0,4095.0,4095.0,1685.0,2717.0,2201.0,-2.14,6.32,11.39,0.06,-0.02,-0.12,0.0,g
3061.0,3127.0,3042.0,4095.0,4095.0,1682.0,2709.0,2197.0,-2.16,5.75,12.23,0.07,0.01,-0.08,0.0,g
3069.0,3136.0,3041.0,4095.0,4095.0,1691.0,2725.0,2205.0,-2.04,6.51,11.08,0.19,-0.02,-0.14,0.0,g
3069.0,3139.0,3033.0,4095.0,4095.0,1682.0,2718.0,2203.0,-2.1,6.82,10.91,0.04,-0.0,-0.11,0.0,g
3063.0,3136.0,3040.0,4095.0,4095.0,1682.0,2724.0,2207.0,-2.19,6.2,11.77,-0.03,-0.02,-0.16,0.0,g
3058.0,3139.0,3039.0,4095.0,4095.0,1648.0,2725.0,2199.0,-2.21,6.28,11.48,0.08,0.01,-0.11,0.0,g
3056.0,3137.0,3031.0,4095.0,4095.0,1685.0,2722.0,2206.0,-2.07,6.59,11.22,0.04,-0.04,-0.17,0.0,g
3071.0,3149.0,3041.0,4095.0,4095.0,1691.0,2730.0,2207.0,-1.98,6.36,11.45,0.02,0.01,-0.18,0.0,g
3053.0,3141.0,3037.0,4095.0,4095.0,1693.0,2721.0,2204.0,-2.23,6.5,11.36,0.04,0.01,-0.14,0.0,g
3062.0,3145.0,3035.0,4095.0,4095.0,1692.0,2731.0,2208.0,-1.96,6.41,11.44,0.03,-0.0,-0.15,0.0,g
3059.0,3134.0,3038.0,4095.0,4095.0,1680.0,2725.0,2205.0,-2.03,6.54,11.23,0.04,-0.03,-0.18,0.0,g
3063.0,3152.0,3046.0,4095.0,4095.0,1691.0,2726.0,2208.0,-2.25,6.44,11.47,0.0,-0.03,-0.2,0.0,g
3047.0,3136.0,3028.0,4095.0,4095.0,1683.0,2721.0,2208.0,-2.27,6.44,11.41,0.04,-0.0,-0.1,0.0,g
3059.0,3125.0,3040.0,4095.0,4095.0,1694.0,2730.0,2207.0,-1.89,6.56,11.27,0.04,-0.01,-0.1,0.0,g
3069.0,3139.0,3044.0,4095.0,4095.0,1658.0,2719.0,2208.0,-1.95,6.56,11.36,-0.02,0.03,-0.13,0.0,g
3066.0,3143.0,3043.0,4095.0,4095.0,1692.0,2723.0,2211.0,-2.09,6.47,11.4,0.04,-0.01,-0.18,0.0,g
3055.0,3139.0,3040.0,4095.0,4095.0,1685.0,2723.0,2211.0,-2.0,6.54,11.27,-0.03,-0.01,-0.21,0.0,g
3071.0,3145.0,3039.0,4095.0,4095.0,1680.0,2725.0,2209.0,-2.34,6.37,11.5,0.02,0.02,-0.18,0.0,g
3071.0,3149.0,3040.0,4095.0,4095.0,1679.0,2736.0,2219.0,-2.14,6.56,11.19,-0.03,0.03,-0.11,0.0,g
3071.0,3141.0,3037.0,4095.0,4095.0,1679.0,2736.0,2219.0,-2.07,6.44,11.4,0.04,-0.07,-0.21,0.0,g
3046.0,3125.0,3038.0,4095.0,4095.0,1641.0,2734.0,2214.0,-1.98,6.39,11.48,-0.02,0.01,-0.16,0.0,g
3071.0,3136.0,3041.0,4095.0,4095.0,1657.0,2734.0,2218.0,-2.1,6.39,11.45,0.04,-0.04,-0.16,0.0,g
3066.0,3151.0,3041.0,4095.0,4095.0,1674.0,2736.0,2223.0,-2.11,6.63,11.15,-0.01,-0.02,-0.11,0.0,g
3058.0,3134.0,3038.0,4095.0,4095.0,1680.0,2727.0,2213.0,-2.4,6.37,11.52,-0.05,0.0,-0.03,0.0,g
3081.0,3152.0,3050.0,4095.0,4095.0,1688.0,2735.0,2223.0,-0.92,6.39,11.58,-0.09,0.29,0.12,0.0,g
3060.0,3141.0,3033.0,4095.0,4095.0,1680.0,2735.0,2220.0,-1.82,6.23,11.67,-0.07,-0.08,-0.37,0.0,g
3071.0,3141.0,3045.0,4095.0,4095.0,1681.0,2731.0,2221.0,-2.43,6.52,11.19,-0.07,-0.09,-0.29,0.0,g
3053.0,3134.0,3035.0,4095.0,4095.0,1681.0,2731.0,2219.0,-2.67,5.92,12.13,-0.07,-0.01,-0.01,0.0,g
3086.0,3139.0,3045.0,4095.0,4095.0,1682.0,2730.0,2220.0,-1.5,6.28,11.56,0.05,0.13,0.16,0.0,g
3061.0,3133.0,3029.0,4095.0,4095.0,1679.0,2736.0,2218.0,-1.67,6.22,11.72,0.05,-0.02,-0.1,0.0,g
3060.0,3134.0,3037.0,4095.0,4095.0,1686.0,2752.0,2220.0,-1.45,6.05,11.8,0.01,-0.02,-0.17,0.0,g
3058.0,3140.0,3039.0,4095.0,4095.0,1675.0,2732.0,2218.0,-1.24,6.73,10.58,0.22,0.28,0.12,0.0,g
3058.0,3142.0,3050.0,4095.0,4095.0,1680.0,2736.0,2224.0,-1.87,6.83,10.98,-0.08,-0.05,-0.22,0.0,g
3050.0,3125.0,3047.0,4095.0,4095.0,1681.0,2735.0,2217.0,-2.28,5.8,12.39,-0.17,0.16,-0.03,0.0,g
3056.0,3139.0,3046.0,4095.0,4095.0,1679.0,2735.0,2213.0,-1.85,6.54,11.17,0.04,0.1,0.08,0.0,g
3082.0,3138.0,3040.0,4095.0,4095.0,1664.0,2738.0,2208.0,-1.42,6.33,11.46,-0.24,0.12,0.02,0.0,g
3059.0,3141.0,3047.0,4095.0,4095.0,1659.0,2731.0,2215.0,-2.21,5.99,11.78,-0.11,0.02,-0.08,0.0,g
3055.0,3142.0,3047.0,4095.0,4095.0,1659.0,2732.0,2218.0,-1.4,5.6,12.54,0.04,0.1,-0.01,0.0,g
3059.0,3126.0,3033.0,4095.0,4095.0,1663.0,2734.0,2213.0,-1.74,6.28,11.64,0.17,-0.06,-0.27,0.0,g
3059.0,3141.0,3047.0,4095.0,4095.0,1657.0,2735.0,2226.0,-1.31,6.5,11.46,0.07,0.0,-0.09,0.0,g
3062.0,3141.0,3046.0,4095.0,4095.0,1651.0,2739.0,2224.0,-1.43,6.68,11.3,0.08,-0.04,-0.14,0.0,g
3056.0,3121.0,3035.0,4095.0,4095.0,1655.0,2741.0,2226.0,-1.1,6.7,11.34,-0.01,0.01,-0.18,0.0,g
3060.0,3134.0,3039.0,4095.0,4095.0,1653.0,2735.0,2223.0,-1.5,6.53,11.5,0.03,-0.03,-0.22,0.0,g
3063.0,3138.0,3041.0,4095.0,4095.0,1653.0,2736.0,2231.0,-1.63,6.54,11.55,0.0,-0.01,-0.13,0.0,g
3054.0,3143.0,3040.0,4095.0,4095.0,1649.0,2734.0,2226.0,-1.23,6.62,11.38,0.03,0.02,-0.14,0.0,g
3067.0,3127.0,3035.0,4095.0,4095.0,1601.0,2739.0,2228.0,-1.4,6.55,11.5,-0.02,-0.03,-0.26,0.0,g
3059.0,3146.0,3055.0,4095.0,4095.0,1649.0,2740.0,2224.0,-1.7,6.46,11.62,0.02,-0.02,-0.2,0.0,g
3056.0,3141.0,3040.0,4095.0,4095.0,1648.0,2737.0,2227.0,-1.52,6.63,11.33,0.03,0.02,-0.12,0.0,g
3056.0,3147.0,3053.0,4095.0,4095.0,1655.0,2737.0,2227.0,-1.29,6.44,11.59,0.0,-0.05,-0.17,0.0,g
3056.0,3133.0,3045.0,4095.0,4095.0,1645.0,2736.0,2224.0,-1.55,6.59,11.36,0.06,-0.01,-0.24,0.0,g
3055.0,3134.0,3057.0,4095.0,4095.0,1655.0,2751.0,2234.0,-1.75,6.64,11.31,0.0,-0.01,-0.18,0.0,g
3051.0,3133.0,3051.0,4095.0,4095.0,1648.0,2731.0,2224.0,-1.5,6.4,11.65,-0.03,-0.04,-0.17,0.0,g
3056.0,3146.0,3054.0,4095.0,4095.0,1648.0,2737.0,2234.0,-1.55,6.46,11.6,0.07,0.01,-0.14,0.0,g
3053.0,3136.0,3038.0,4095.0,4095.0,1649.0,2736.0,2227.0,-1.56,6.62,11.35,0.05,-0.02,-0.16,0.0,g
3060.0,3149.0,3042.0,4095.0,4095.0,1649.0,2740.0,2227.0,-1.63,6.51,11.44,0.01,-0.08,-0.14,0.0,g
3054.0,3139.0,3037.0,4095.0,4095.0,1648.0,2738.0,2230.0,-1.43,6.64,11.42,0.03,0.02,-0.05,0.0,g
3063.0,3135.0,3045.0,4095.0,4095.0,1651.0,2742.0,2233.0,-1.5,6.58,11.44,0.02,0.05,-0.04,0.0,g
3056.0,3122.0,3044.0,4095.0,4095.0,1655.0,2745.0,2228.0,-1.53,6.55,11.57,0.04,-0.02,-0.02,0.0,g
3056.0,3152.0,3024.0,4095.0,4095.0,1653.0,2742.0,2226.0,-0.98,6.74,11.21,0.17,0.01,-0.05,0.0,g
65.0,2751.0,2234.0,-1.15,6.94,11.11,0.01,0.01,-0.14,0.0,g
3056.0,3136.0,3031.0,4095.0,4095.0,1646.0,2738.0,2230.0,-1.14,6.62,11.63,-0.01,-0.02,-0.2,0.0,g
3083.0,3150.0,3050.0,4095.0,4095.0,1658.0,2749.0,2237.0,-1.25,6.67,11.49,-0.02,0.0,-0.15,0.0,g
3056.0,3127.0,3037.0,4095.0,4095.0,1661.0,2743.0,2225.0,-1.05,6.83,11.26,-0.03,-0.01,-0.09,0.0,g
3056.0,3130.0,3039.0,4095.0,4095.0,1680.0,2742.0,2225.0,-1.35,6.45,11.89,0.06,-0.09,-0.16,0.0,g
3063.0,3151.0,3046.0,4095.0,4095.0,1701.0,2745.0,2234.0,-0.68,6.9,11.1,0.03,-0.08,-0.08,0.0,g
3063.0,3136.0,3034.0,4095.0,4095.0,1702.0,2741.0,2229.0,-0.72,6.55,11.66,-0.05,-0.02,-0.18,0.0,g
3060.0,3143.0,3041.0,4095.0,4095.0,1685.0,2745.0,2237.0,-1.03,6.52,11.68,0.01,-0.03,-0.23,0.0,g
3062.0,3123.0,3042.0,4095.0,4095.0,1705.0,2736.0,2223.0,-1.19,6.75,11.28,-0.01,-0.0,-0.12,0.0,g
3059.0,3152.0,3045.0,4095.0,4095.0,1709.0,2740.0,2224.0,-0.88,6.59,11.56,0.05,0.02,-0.07,0.0,g
3067.0,3131.0,3042.0,4095.0,4095.0,1705.0,2731.0,2224.0,-0.72,6.59,11.6,0.01,-0.01,-0.17,0.0,g
3067.0,3136.0,3035.0,4095.0,4095.0,1712.0,2747.0,2237.0,-0.97,6.63,11.52,0.01,0.01,-0.17,0.0,g
3056.0,3143.0,3042.0,4095.0,4095.0,1703.0,2736.0,2229.0,-1.01,6.61,11.56,0.02,-0.01,-0.17,0.0,g
3070.0,3139.0,3053.0,4095.0,4095.0,1698.0,2738.0,2235.0,-0.9,6.66,11.41,-0.06,0.01,-0.12,0.0,g
3055.0,3130.0,3039.0,4095.0,4095.0,1701.0,2736.0,2233.0,-0.93,6.34,11.86,0.03,-0.05,-0.22,0.0,g
3063.0,3129.0,3033.0,4095.0,4095.0,1707.0,2745.0,2238.0,-0.99,6.79,11.29,0.06,0.02,-0.12,0.0,g
3063.0,3136.0,3039.0,4095.0,4095.0,1701.0,2749.0,2237.0,-0.96,6.67,11.36,-0.03,0.07,-0.07,0.0,g
3056.0,3136.0,3040.0,4095.0,4095.0,1703.0,2743.0,2238.0,-0.92,6.25,12.14,-0.04,0.04,-0.1,0.0,g
3071.0,3140.0,3042.0,4095.0,4095.0,1708.0,2751.0,2240.0,-0.84,6.55,11.56,0.08,0.0,-0.16,0.0,g
3058.0,3123.0,3036.0,4095.0,4095.0,1694.0,2747.0,2237.0,-1.28,6.63,11.54,0.11,0.09,-0.1,0.0,g
3087.0,3143.0,3052.0,4095.0,4095.0,1703.0,2640.0,2076.0,-1.87,6.22,11.63,-0.05,0.01,-0.14,0.0,g
3081.0,3139.0,3059.0,4095.0,4095.0,1710.0,2638.0,2082.0,-1.92,6.29,11.59,0.0,0.01,-0.16,0.0,g
3061.0,3149.0,3047.0,4095.0,4095.0,1731.0,2641.0,2079.0,-2.08,6.28,11.7,0.02,0.02,-0.13,0.0,g
3087.0,3138.0,3057.0,4095.0,4095.0,1733.0,2646.0,2089.0,-2.0,6.26,11.62,-0.03,-0.05,-0.12,0.0,g
3061.0,3135.0,3046.0,4095.0,4095.0,1730.0,2651.0,2082.0,-1.64,6.18,11.76,0.0,0.06,-0.05,0.0,g
3088.0,3137.0,3056.0,4095.0,4095.0,1735.0,2655.0,2096.0,-1.74,6.22,11.79,0.07,0.05,-0.15,0.0,g
3060.0,3138.0,3054.0,4095.0,4095.0,1719.0,2656.0,2095.0,-1.69,6.28,11.66,0.02,-0.02,-0.18,0.0,g
3067.0,3142.0,3045.0,4095.0,4095.0,1729.0,2661.0,2099.0,-1.97,6.35,11.59,0.11,0.01,-0.15,0.0,g
3071.0,3132.0,3042.0,4095.0,4095.0,1718.0,2659.0,2096.0,-1.72,6.42,11.56,0.0,-0.01,-0.1,0.0,g
3088.0,3134.0,3057.0,4095.0,4095.0,1720.0,2671.0,2107.0,-1.66,6.39,11.62,-0.01,0.03,-0.1,0.0,g
3065.0,3136.0,3052.0,4095.0,4095.0,1706.0,2659.0,2103.0,-1.69,6.31,11.66,-0.0,0.01,-0.12,0.0,g
3069.0,3143.0,3060.0,4095.0,4095.0,1673.0,2667.0,2111.0,-1.51,6.4,11.5,0.03,0.0,-0.12,0.0,g
3067.0,3136.0,3051.0,4095.0,4095.0,1714.0,2662.0,2103.0,-1.58,6.45,11.52,0.01,-0.07,-0.23,0.0,g
3071.0,3136.0,3054.0,4095.0,4095.0,1712.0,2672.0,2112.0,-1.77,6.31,11.59,-0.05,0.0,-0.2,0.0,g
3071.0,3126.0,3044.0,4095.0,4095.0,1719.0,2666.0,2112.0,-1.93,6.17,11.84,-0.01,0.01,-0.16,0.0,g
3066.0,3137.0,3057.0,4095.0,4095.0,1723.0,2668.0,2110.0,-1.7,6.37,11.47,0.0,-0.04,-0.14,0.0,g
3088.0,3127.0,3050.0,4095.0,4095.0,1732.0,2679.0,2119.0,-1.63,6.28,11.67,0.01,0.01,-0.15,0.0,g
3068.0,3139.0,3052.0,4095.0,4095.0,1729.0,2671.0,2118.0,-1.67,6.28,11.65,0.01,-0.03,-0.19,0.0,g
3081.0,3139.0,3056.0,4095.0,4095.0,1734.0,2677.0,2126.0,-1.64,6.31,11.55,0.02,-0.03,-0.18,0.0,g
3061.0,3126.0,3040.0,4095.0,4095.0,1732.0,2675.0,2122.0,-1.77,6.23,11.75,0.02,-0.03,-0.16,0.0,g
3056.0,3125.0,3056.0,4095.0,4095.0,1716.0,2687.0,2131.0,-1.51,6.67,11.35,0.08,0.02,0.08,0.0,g
3065.0,3150.0,3050.0,4095.0,4095.0,1731.0,2690.0,2143.0,-1.13,6.65,11.5,0.13,-0.02,0.04,0.0,g
3061.0,3147.0,3053.0,4095.0,4095.0,1725.0,2688.0,2142.0,-0.97,6.89,11.3,0.22,-0.06,-0.05,0.0,g
3059.0,3139.0,3056.0,4095.0,4095.0,1685.0,2687.0,2140.0,-1.04,6.94,11.23,0.21,-0.07,-0.07,0.0,g
3067.0,3136.0,3050.0,4095.0,4095.0,1725.0,2697.0,2144.0,-0.81,7.21,10.89,0.22,-0.06,-0.08,0.0,g
3070.0,3135.0,3050.0,4095.0,4095.0,1717.0,2689.0,2142.0,-0.14,7.25,10.89,0.28,0.01,-0.14,0.0,g
3085.0,3140.0,3055.0,4095.0,4095.0,1723.0,2703.0,2150.0,-0.71,7.5,10.56,0.3,-0.01,-0.23,0.0,g
3069.0,3125.0,3054.0,4095.0,4095.0,1707.0,2691.0,2149.0,-1.0,7.7,10.41,0.3,0.05,-0.14,0.0,g
3058.0,3133.0,3053.0,4095.0,4095.0,1715.0,2692.0,2154.0,-1.14,7.96,10.09,0.26,0.06,-0.06,0.0,g
3071.0,3141.0,3049.0,4095.0,4095.0,1718.0,2691.0,2155.0,-0.73,8.29,9.5,0.17,0.03,-0.01,0.0,g
3067.0,3131.0,3054.0,4095.0,4095.0,1722.0,2699.0,2163.0,-0.62,8.26,9.59,0.09,-0.04,-0.14,0.0,g
3065.0,3136.0,3051.0,4095.0,4095.0,1723.0,2697.0,2159.0,-0.9,8.2,9.72,0.04,0.01,-0.09,0.0,g
3071.0,3139.0,3055.0,4095.0,4095.0,1726.0,2705.0,2160.0,-0.66,8.09,9.89,0.06,0.04,-0.02,0.0,g
3069.0,3136.0,3053.0,4095.0,4095.0,1715.0,2695.0,2161.0,-0.41,8.14,9.78,0.03,0.01,-0.09,0.0,g
3070.0,3123.0,3045.0,4095.0,4095.0,1711.0,2698.0,2158.0,-1.0,8.1,9.93,0.12,0.01,0.02,0.0,g
3062.0,3136.0,3056.0,4095.0,4095.0,1694.0,2704.0,2165.0,-0.02,8.48,9.26,0.09,0.09,0.13,0.0,g
3055.0,3126.0,3056.0,4095.0,4095.0,1712.0,2700.0,2160.0,0.55,8.48,9.28,-0.02,-0.03,-0.13,0.0,g
3066.0,3125.0,3054.0,4095.0,4095.0,1713.0,2704.0,2163.0,0.04,8.09,9.92,0.01,-0.08,-0.29,0.0,g
3059.0,3127.0,3041.0,4095.0,4095.0,1717.0,2704.0,2170.0,-0.88,8.37,9.56,0.04,-0.01,-0.16,0.0,g
3071.0,3139.0,3058.0,4095.0,4095.0,1715.0,2711.0,2176.0,-0.49,8.45,9.43,-0.05,0.12,0.15,0.0,g
3068.0,3136.0,3046.0,4095.0,4095.0,1701.0,2707.0,2178.0,0.51,7.64,10.39,-0.06,-0.02,-0.37,0.0,g
3061.0,3137.0,3056.0,4095.0,4095.0,1714.0,2715.0,2187.0,-0.31,7.3,10.96,-0.01,-0.05,-0.32,0.0,g
3060.0,3122.0,3051.0,4095.0,4095.0,1711.0,2710.0,2180.0,-0.27,7.41,10.88,-0.03,0.02,-0.22,0.0,g
3070.0,3123.0,3047.0,4095.0,4095.0,1712.0,2719.0,2179.0,-0.12,7.46,10.83,-0.0,0.04,-0.15,0.0,g
3056.0,3131.0,3052.0,4095.0,4095.0,1707.0,2710.0,2175.0,-0.1,7.41,10.83,0.04,0.04,-0.19,0.0,g
3063.0,3131.0,3056.0,4095.0,4095.0,1712.0,2727.0,2179.0,-0.15,7.49,10.63,0.11,0.06,-0.21,0.0,g
3071.0,3127.0,3043.0,4095.0,4095.0,1702.0,2708.0,2180.0,-0.46,7.68,10.38,0.13,0.01,-0.24,0.0,g
3067.0,3135.0,3055.0,4095.0,4095.0,1710.0,2723.0,2181.0,-0.41,7.72,10.41,0.15,-0.02,-0.2,0.0,g
3078.0,3127.0,3045.0,4095.0,4095.0,1715.0,2718.0,2179.0,-0.52,7.81,10.24,0.06,-0.01,-0.22,0.0,g
3071.0,3134.0,3060.0,4095.0,4095.0,1716.0,2720.0,2186.0,-0.49,7.81,10.27,0.05,0.02,-0.18,0.0,g
3058.0,3135.0,3056.0,4095.0,4095.0,1712.0,2722.0,2186.0,-0.39,7.8,10.32,0.04,-0.01,-0.18,0.0,g
3061.0,3127.0,3058.0,4095.0,4095.0,1715.0,2719.0,2165.0,-0.29,7.92,10.05,-0.05,0.07,-0.19,0.0,g
3066.0,3138.0,3056.0,4095.0,4095.0,1722.0,2720.0,2175.0,-0.61,7.86,10.21,-0.03,-0.0,-0.26,0.0,g
3079.0,3134.0,3047.0,4095.0,4095.0,1712.0,2719.0,2176.0,-0.72,7.71,10.45,-0.06,-0.01,-0.24,0.0,g
3066.0,3135.0,3057.0,4095.0,4095.0,1714.0,2724.0,2178.0,-0.78,7.71,10.37,-0.06,-0.06,-0.25,0.0,g
3067.0,3122.0,3042.0,4095.0,4095.0,1712.0,2722.0,2179.0,-0.86,7.63,10.51,-0.07,0.01,-0.14,0.0,g
3069.0,3122.0,3056.0,4095.0,4095.0,1698.0,2730.0,2187.0,-0.79,7.45,10.7,-0.06,0.01,-0.13,0.0,g
3061.0,3130.0,3051.0,4095.0,4095.0,1701.0,2715.0,2185.0,-0.67,7.65,10.42,-0.05,0.0,-0.12,0.0,g
3062.0,3135.0,3058.0,4095.0,4095.0,1712.0,2726.0,2191.0,-0.73,7.43,10.73,-0.11,-0.01,-0.17,0.0,g
3056.0,3132.0,3053.0,4095.0,4095.0,1712.0,2724.0,2186.0,-0.86,7.27,10.98,-0.1,-0.01,-0.12,0.0,g
3062.0,3136.0,3045.0,4095.0,4095.0,1713.0,2723.0,2186.0,-0.52,7.27,10.94,0.03,0.0,-0.11,0.0,g
3059.0,3139.0,3079.0,4095.0,4095.0,1718.0,2731.0,2192.0,-0.61,7.39,10.83,-0.01,-0.01,-0.16,0.0,g
3062.0,3129.0,3047.0,4095.0,4095.0,1707.0,2733.0,2194.0,-0.68,7.3,10.9,-0.06,0.02,-0.12,0.0,g
3063.0,3133.0,3057.0,4095.0,4095.0,1715.0,2736.0,2194.0,-0.49,7.09,11.18,-0.02,-0.0,-0.18,0.0,g
3057.0,3127.0,3052.0,4095.0,4095.0,1712.0,2733.0,2192.0,-0.79,7.19,11.03,0.05,0.02,-0.16,0.0,g
3058.0,3138.0,3047.0,4095.0,4095.0,1712.0,2735.0,2193.0,-0.62,7.18,11.06,0.05,-0.05,-0.15,0.0,g
3064.0,3137.0,3058.0,4095.0,4095.0,1706.0,2729.0,2192.0,-0.33,7.14,11.13,0.13,-0.0,-0.18,0.0,g
3071.0,3131.0,3065.0,4095.0,4095.0,1703.0,2736.0,2195.0,-0.84,7.45,10.72,0.14,0.03,-0.17,0.0,g
3061.0,3131.0,3053.0,4095.0,4095.0,1711.0,2733.0,2194.0,-0.61,7.45,10.72,0.1,0.03,-0.14,0.0,g
3083.0,3125.0,3046.0,4095.0,4095.0,1710.0,2743.0,2196.0,-0.57,7.43,10.7,0.1,-0.08,-0.23,0.0,g
3062.0,3137.0,3056.0,4095.0,4095.0,1712.0,2736.0,2201.0,-0.79,7.8,10.24,0.06,0.01,-0.11,0.0,g
3062.0,3138.0,3056.0,4095.0,4095.0,1706.0,2732.0,2192.0,-0.63,7.71,10.41,-0.1,0.0,-0.15,0.0,g
3059.0,3130.0,3057.0,4095.0,4095.0,1702.0,2736.0,2206.0,-0.76,7.23,11.0,-0.07,0.01,-0.11,0.0,g
3063.0,3136.0,3051.0,4095.0,4095.0,1698.0,2735.0,2195.0,-0.62,7.35,10.83,-0.01,0.02,-0.08,0.0,g
3067.0,3152.0,3065.0,4095.0,4095.0,1677.0,2738.0,2208.0,-0.31,7.35,10.83,-0.05,-0.0,-0.14,0.0,g
3071.0,3125.0,3051.0,4095.0,4095.0,1696.0,2736.0,2203.0,-0.4,7.18,11.02,-0.04,-0.06,-0.22,0.0,g
3071.0,3131.0,3052.0,4095.0,4095.0,1710.0,2741.0,2208.0,-0.65,7.28,10.82,0.04,0.04,-0.14,0.0,g
3070.0,3129.0,3044.0,4095.0,4095.0,1691.0,2736.0,2205.0,-0.47,7.38,10.8,-0.01,-0.06,-0.19,0.0,g
3085.0,3135.0,3051.0,4095.0,4095.0,1647.0,2746.0,2207.0,-0.5,7.33,10.79,0.01,-0.03,-0.19,0.0,g
3068.0,3136.0,3053.0,4095.0,4095.0,1702.0,2743.0,2210.0,-0.64,7.33,10.86,0.02,-0.0,-0.16,0.0,g
84.0,2743.0,2218.0,-0.27,7.61,10.6,0.04,-0.0,-0.17,0.0,g
3071.0,3133.0,3056.0,4095.0,4095.0,1703.0,2752.0,2224.0,-0.18,7.53,10.67,-0.03,-0.01,-0.17,0.0,g
3056.0,3129.0,3053.0,4095.0,4095.0,1683.0,2744.0,2222.0,-0.3,7.41,10.87,-0.0,0.05,-0.16,0.0,g
3067.0,3127.0,3056.0,4095.0,4095.0,1696.0,2752.0,2219.0,-0.49,7.43,10.83,0.05,0.0,-0.16,0.0,g
3071.0,3135.0,3057.0,4095.0,4095.0,1691.0,2748.0,2220.0,-0.31,7.56,10.62,0.01,0.0,-0.13,0.0,g
3059.0,3137.0,3046.0,4095.0,4095.0,1643.0,2741.0,2223.0,-0.17,7.44,10.73,-0.0,0.01,-0.16,0.0,g
3058.0,3137.0,3047.0,4095.0,4095.0,1701.0,2753.0,2224.0,-0.45,7.45,10.76,0.02,-0.04,-0.22,0.0,g
3061.0,3121.0,3042.0,4095.0,4095.0,1697.0,2747.0,2222.0,-0.3,7.56,10.63,0.01,-0.01,-0.13,0.0,g
3069.0,3127.0,3069.0,4095.0,4095.0,1700.0,2750.0,2226.0,-0.51,7.32,10.98,-0.0,-0.0,-0.08,0.0,g
3055.0,3123.0,3051.0,4095.0,4095.0,1697.0,2747.0,2217.0,-0.21,7.45,10.73,0.01,-0.02,-0.13,0.0,g
3066.0,3143.0,3053.0,4095.0,4095.0,1691.0,2752.0,2222.0,-0.12,7.49,10.66,0.02,-0.01,-0.17,0.0,g
3065.0,3120.0,3057.0,4095.0,4095.0,1699.0,2748.0,2220.0,-0.35,7.49,10.71,0.11,0.16,-0.08,0.0,g
3058.0,3133.0,3057.0,4095.0,4095.0,1703.0,2749.0,2225.0,-0.26,7.46,10.69,0.01,-0.06,-0.17,0.0,g
3067.0,3136.0,3051.0,4095.0,4095.0,1690.0,2747.0,2218.0,-0.12,7.47,10.72,-0.02,-0.04,-0.21,0.0,g
3062.0,3123.0,3050.0,4095.0,4095.0,1695.0,2752.0,2221.0,-0.38,7.44,10.71,0.01,0.01,-0.18,0.0,g
3066.0,3136.0,3051.0,4095.0,4095.0,1696.0,2755.0,2226.0,-0.44,7.51,10.55,-0.07,0.11,-0.02,0.0,g
3071.0,3133.0,3057.0,4095.0,4095.0,1686.0,2746.0,2222.0,-0.3,7.38,10.81,-0.01,-0.09,-0.21,0.0,g
3067.0,3137.0,3070.0,4095.0,4095.0,1701.0,2752.0,2225.0,-0.31,7.34,10.85,-0.02,-0.03,-0.16,0.0,g
3067.0,3134.0,3061.0,4095.0,4095.0,1697.0,2746.0,2217.0,-0.68,7.57,10.6,0.01,0.33,0.23,0.0,g
3063.0,3129.0,3067.0,4095.0,4095.0,1680.0,2753.0,2228.0,-0.26,7.39,10.81,-0.06,-0.06,-0.05,0.0,g
3059.0,3134.0,3066.0,4095.0,4095.0,1685.0,2757.0,2224.0,-0.5,7.21,11.09,-0.03,0.01,-0.17,0.0,g
3060.0,3133.0,3056.0,4095.0,4095.0,1687.0,2754.0,2218.0,-0.26,7.32,10.8,0.03,-0.04,-0.18,0.0,g
3063.0,3131.0,3067.0,4095.0,4095.0,1691.0,2759.0,2224.0,-0.16,7.51,10.54,-0.02,-0.01,-0.17,0.0,g
3065.0,3122.0,3045.0,4095.0,4095.0,1683.0,2759.0,2224.0,-0.28,7.13,11.16,-0.13,0.07,-0.12,0.0,g
3057.0,3139.0,3056.0,4095.0,4095.0,1680.0,2758.0,2219.0,-0.28,6.92,11.39,0.02,-0.07,-0.25,0.0,g
3067.0,3136.0,3056.0,4095.0,4095.0,1692.0,2766.0,2223.0,-0.48,7.35,10.84,0.06,-0.02,-0.19,0.0,g
3061.0,3121.0,3049.0,4095.0,4095.0,1680.0,2755.0,2224.0,-0.61,7.3,10.92,-0.02,0.0,-0.09,0.0,g
3067.0,3137.0,3056.0,4095.0,4095.0,1681.0,2759.0,2225.0,-0.22,6.98,11.38,0.06,0.0,-0.03,0.0,g
3057.0,3123.0,3057.0,4095.0,4095.0,1661.0,2759.0,2224.0,-0.01,7.42,10.74,0.05,-0.04,-0.18,0.0,g
3071.0,3137.0,3059.0,4095.0,4095.0,1686.0,2763.0,2229.0,-0.22,7.23,10.94,-0.05,-0.07,-0.22,0.0,g
3055.0,3131.0,3041.0,4095.0,4095.0,1664.0,2764.0,2224.0,-0.32,7.15,11.09,0.02,-0.02,-0.19,0.0,g
3086.0,3138.0,3063.0,4095.0,4095.0,1679.0,2765.0,2226.0,-0.34,7.23,10.99,0.05,0.02,-0.13,0.0,g
3068.0,3128.0,3056.0,4095.0,4095.0,1683.0,2764.0,2225.0,0.1,7.31,10.89,0.01,-0.02,-0.17,0.0,g
3062.0,3142.0,3056.0,4095.0,4095.0,1675.0,2765.0,2228.0,-0.52,7.25,11.03,-0.04,-0.03,-0.21,0.0,g
3054.0,3129.0,3054.0,4095.0,4095.0,1684.0,2755.0,2224.0,-0.76,7.33,10.97,0.01,0.01,0.03,0.0,g
3071.0,3133.0,3056.0,4095.0,4095.0,1678.0,2765.0,2227.0,0.33,7.24,10.86,-0.08,0.08,0.03,0.0,g
3063.0,3146.0,3057.0,4095.0,4095.0,1658.0,2762.0,2237.0,-0.15,7.12,11.16,-0.04,-0.04,-0.11,0.0,g
3068.0,3118.0,3055.0,4095.0,4095.0,1685.0,2763.0,2227.0,-0.37,7.13,11.19,-0.05,0.05,0.12,0.0,g
3070.0,3136.0,3067.0,4095.0,4095.0,1687.0,2764.0,2231.0,0.75,6.92,11.43,-0.05,0.07,0.06,0.0,g
3065.0,3129.0,3055.0,4095.0,4095.0,1680.0,2759.0,2230.0,0.5,7.0,11.3,0.04,-0.03,-0.25,0.0,g
3071.0,3142.0,3067.0,4095.0,4095.0,1685.0,2769.0,2241.0,1.01,7.4,10.75,-0.01,-0.01,-0.11,0.0,g
3069.0,3133.0,3056.0,4095.0,4095.0,1681.0,2765.0,2239.0,0.23,7.22,11.04,-0.01,-0.06,-0.27,0.0,g
3071.0,3134.0,3053.0,4095.0,4095.0,1680.0,2769.0,2241.0,0.01,7.24,11.07,0.02,-0.02,-0.2,0.0,g
3063.0,3142.0,3063.0,4095.0,4095.0,1659.0,2771.0,2246.0,0.19,7.51,10.67,0.05,0.01,-0.09,0.0,g
3060.0,3125.0,3049.0,4095.0,4095.0,1665.0,2769.0,2240.0,0.17,7.19,11.18,-0.04,-0.03,-0.19,0.0,g
3085.0,3134.0,3071.0,4095.0,4095.0,1672.0,2774.0,2246.0,0.08,7.24,10.96,-0.09,0.03,-0.02,0.0,g
3061.0,3120.0,3049.0,4095.0,4095.0,1675.0,2769.0,2237.0,0.83,7.18,11.15,0.05,0.03,-0.1,0.0,g
3067.0,3131.0,3063.0,4095.0,4095.0,1687.0,2778.0,2238.0,0.13,7.83,10.68,-0.22,0.04,-0.21,0.0,g
3062.0,3136.0,3046.0,4095.0,4095.0,1674.0,2774.0,2235.0,0.42,6.57,11.89,-0.2,0.08,-0.02,0.0,g
3062.0,3136.0,3059.0,4095.0,4095.0,1703.0,2775.0,2231.0,0.35,6.56,11.77,0.08,-0.18,-0.26,0.0,g
3061.0,3136.0,3051.0,4095.0,4095.0,1700.0,2770.0,2224.0,0.6,7.24,10.95,-0.04,0.09,-0.03,0.0,g
3081.0,3139.0,3056.0,4095.0,4095.0,1703.0,2783.0,2230.0,0.22,6.81,11.59,-0.01,-0.04,-0.22,0.0,g
3056.0,3126.0,3052.0,4095.0,4095.0,1706.0,2779.0,2230.0,0.42,7.32,10.94,0.06,-0.02,-0.23,0.0,g
3056.0,3137.0,3062.0,4095.0,4095.0,1698.0,2785.0,2227.0,0.4,7.29,10.72,-0.04,0.11,-0.09,0.0,g
3056.0,3141.0,3056.0,4095.0,4095.0,1712.0,2789.0,2238.0,-0.05,6.68,11.82,0.01,0.01,-0.23,0.0,g
3066.0,3133.0,3054.0,4095.0,4095.0,1699.0,2784.0,2240.0,0.8,7.26,10.9,0.06,0.2,-0.1,0.0,g
3059.0,3145.0,3056.0,4095.0,4095.0,1706.0,2796.0,2243.0,0.17,7.31,10.83,0.01,-0.0,-0.43,0.0,g
3056.0,3125.0,3057.0,4095.0,4095.0,1709.0,2791.0,2239.0,-0.85,6.97,11.43,-0.1,0.04,-0.38,0.0,g
3061.0,3135.0,3060.0,4095.0,4095.0,1711.0,2793.0,2246.0,-0.93,6.82,11.56,0.01,-0.04,-0.18,0.0,g
3058.0,3131.0,3059.0,4095.0,4095.0,1707.0,2787.0,2239.0,-0.17,6.88,11.35,-0.02,-0.07,-0.2,0.0,g
3059.0,3129.0,3059.0,4095.0,4095.0,1699.0,2798.0,2243.0,-0.18,7.1,11.09,-0.03,0.0,-0.11,0.0,g
3057.0,3125.0,3055.0,4095.0,4095.0,1689.0,2803.0,2253.0,-0.04,6.67,11.67,-0.03,0.05,-0.08,0.0,g
3066.0,3127.0,3045.0,4095.0,4095.0,1695.0,2797.0,2246.0,-0.52,6.7,11.79,0.07,-0.08,-0.13,0.0,g
3062.0,3135.0,3059.0,4095.0,4095.0,1705.0,2803.0,2243.0,0.11,6.96,11.27,0.27,-0.0,0.11,0.0,g
3059.0,3123.0,3056.0,4095.0,4095.0,1696.0,2790.0,2241.0,0.96,7.6,10.42,0.05,-0.04,-0.05,0.0,g
3057.0,3133.0,3055.0,4095.0,4095.0,1695.0,2798.0,2244.0,0.51,7.02,11.25,-0.11,-0.05,-0.28,0.0,g
3059.0,3136.0,3045.0,4095.0,4095.0,1693.0,2795.0,2242.0,-0.02,6.79,11.62,0.08,-0.06,-0.27,0.0,g
3058.0,3127.0,3058.0,4095.0,4095.0,1694.0,2801.0,2254.0,0.16,7.41,10.7,0.1,-0.06,-0.25,0.0,g
3056.0,3133.0,3055.0,4095.0,4095.0,1684.0,2793.0,2245.0,0.15,7.3,10.97,-0.03,0.03,-0.14,0.0,g
3066.0,3143.0,3056.0,4095.0,4095.0,1693.0,2800.0,2256.0,0.17,7.14,11.19,0.04,0.06,-0.12,0.0,g
3062.0,3126.0,3053.0,4095.0,4095.0,1669.0,2799.0,2251.0,0.15,7.12,11.15,-0.01,-0.01,-0.24,0.0,g
3066.0,3133.0,3059.0,4095.0,4095.0,1696.0,2797.0,2247.0,0.1,7.26,10.95,0.06,0.02,-0.15,0.0,g
3063.0,3133.0,3061.0,4095.0,4095.0,1696.0,2797.0,2243.0,-0.02,7.22,11.04,0.04,-0.07,-0.21,0.0,g
3069.0,3143.0,3061.0,4095.0,4095.0,1699.0,2792.0,2247.0,0.22,7.27,11.0,0.01,0.0,-0.15,0.0,g
3071.0,3143.0,3056.0,4095.0,4095.0,1664.0,2803.0,2256.0,0.03,7.3,10.98,0.07,0.03,-0.15,0.0,g
3062.0,3134.0,3056.0,4095.0,4095.0,1699.0,2801.0,2251.0,0.36,6.98,11.35,0.1,-0.07,-0.3,0.0,g
3065.0,3137.0,3056.0,4095.0,4095.0,1708.0,2804.0,2256.0,-0.32,7.56,10.62,0.13,-0.0,-0.27,0.0,g
3066.0,3130.0,3057.0,4095.0,4095.0,1701.0,2802.0,2255.0,-0.36,7.48,10.77,0.05,0.01,-0.15,0.0,g
3063.0,3145.0,3069.0,4095.0,4095.0,1698.0,2803.0,2254.0,-0.06,7.54,10.63,0.09,-0.01,-0.17,0.0,g
3066.0,3126.0,3047.0,4095.0,4095.0,1690.0,2800.0,2254.0,-0.24,7.75,10.5,-0.01,-0.06,-0.17,0.0,g
3059.0,3133.0,3057.0,4095.0,4095.0,1707.0,2804.0,2255.0,-0.06,7.46,10.78,-0.02,-0.01,-0.17,0.0,g
3056.0,3137.0,3063.0,4095.0,4095.0,1692.0,2801.0,2256.0,-0.14,7.54,10.61,0.01,-0.0,-0.16,0.0,g
3071.0,3126.0,3056.0,4095.0,4095.0,1677.0,2802.0,2255.0,0.27,7.3,10.86,-0.03,0.09,-0.16,0.0,g
3065.0,3124.0,3056.0,4095.0,4095.0,1706.0,2814.0,2256.0,-0.62,7.77,10.44,-0.01,-0.07,-0.25,0.0,g
3059.0,3136.0,3052.0,4095.0,4095.0,1681.0,2798.0,2253.0,-0.46,7.47,10.86,-0.24,0.03,0.02,0.0,g
3071.0,3139.0,3058.0,4095.0,4095.0,1700.0,2803.0,2251.0,0.36,7.21,11.05,-0.24,-0.11,-0.36,0.0,g
3065.0,3127.0,3041.0,4095.0,4095.0,1690.0,2802.0,2254.0,-0.46,6.61,11.76,-0.13,-0.12,-0.31,0.0,g
3071.0,3136.0,3050.0,4095.0,4095.0,1685.0,2810.0,2257.0,-0.37,6.82,11.59,0.02,-0.02,-0.18,0.0,g
3067.0,3132.0,3057.0,4095.0,4095.0,1695.0,2801.0,2249.0,-0.09,7.14,10.94,0.05,-0.0,-0.17,0.0,g
3071.0,3129.0,3057.0,4095.0,4095.0,1698.0,2801.0,2255.0,-0.15,7.12,11.14,-0.06,-0.06,-0.26,0.0,g
3067.0,3126.0,3054.0,4095.0,4095.0,1697.0,2806.0,2256.0,-0.45,6.37,12.09,-0.12,-0.05,-0.31,0.0,g
3085.0,3127.0,3054.0,4095.0,4095.0,1695.0,2811.0,2265.0,-0.35,6.68,11.56,0.04,-0.34,-0.49,0.0,g
3061.0,3127.0,3045.0,4095.0,4095.0,1698.0,2801.0,2257.0,-0.52,7.21,11.06,0.05,0.03,-0.12,0.0,g
3067.0,3135.0,3041.0,4095.0,4095.0,1695.0,2803.0,2256.0,-0.33,6.81,11.44,-0.0,0.06,-0.11,0.0,g
3071.0,3131.0,3053.0,4095.0,4095.0,1695.0,2801.0,2256.0,-0.43,6.71,11.64,0.01,-0.09,-0.23,0.0,g
3061.0,3121.0,3040.0,4095.0,4095.0,1691.0,2800.0,2255.0,-0.55,7.0,11.21,0.02,-0.08,-0.13,0.0,g
3084.0,3146.0,3056.0,4095.0,4095.0,1694.0,2809.0,2259.0,-0.25,6.82,11.41,0.01,0.0,-0.06,0.0,g
3071.0,3135.0,3047.0,4095.0,4095.0,1696.0,2807.0,2256.0,-0.28,6.63,11.75,0.07,-0.05,-0.12,0.0,g
3067.0,3129.0,3056.0,4095.0,4095.0,1697.0,2810.0,2256.0,-0.41,7.1,11.14,0.14,-0.07,-0.04,0.0,g
3059.0,3129.0,3059.0,4095.0,4095.0,1697.0,2801.0,2254.0,0.27,7.19,10.98,0.04,0.07,0.08,0.0,g
87.0,2809.0,2258.0,-0.16,6.89,11.39,0.02,-0.02,-0.13,0.0,g
3057.0,3123.0,3046.0,4095.0,4095.0,1688.0,2815.0,2249.0,0.16,6.88,11.31,0.03,-0.01,-0.15,0.0,g
3057.0,3131.0,3056.0,4095.0,4095.0,1693.0,2814.0,2251.0,-0.04,6.84,11.35,-0.01,-0.06,-0.26,0.0,g
3062.0,3126.0,3056.0,4095.0,4095.0,1688.0,2805.0,2255.0,-0.37,6.85,11.4,0.0,-0.02,-0.16,0.0,g
3063.0,3138.0,3054.0,4095.0,4095.0,1690.0,2821.0,2259.0,0.05,6.92,11.3,0.03,0.0,-0.13,0.0,g
3058.0,3122.0,3049.0,4095.0,4095.0,1691.0,2813.0,2256.0,-0.04,6.86,11.38,0.0,-0.04,-0.21,0.0,g
3071.0,3139.0,3059.0,4095.0,4095.0,1686.0,2817.0,2263.0,-0.18,6.81,11.43,0.01,-0.06,-0.23,0.0,g
3057.0,3136.0,3057.0,4095.0,4095.0,1691.0,2814.0,2256.0,-0.22,6.88,11.41,0.02,0.03,-0.14,0.0,g
3086.0,3130.0,3057.0,4095.0,4095.0,1687.0,2817.0,2258.0,-0.14,6.72,11.63,-0.01,-0.07,-0.19,0.0,g
3066.0,3136.0,3061.0,4095.0,4095.0,1698.0,2816.0,2258.0,-0.34,6.83,11.5,0.05,-0.04,-0.17,0.0,g
3063.0,3127.0,3057.0,4095.0,4095.0,1700.0,2811.0,2258.0,-0.37,6.93,11.34,0.01,0.07,0.01,0.0,g
3086.0,3135.0,3051.0,4095.0,4095.0,1681.0,2814.0,2263.0,0.07,6.63,11.66,0.06,0.06,0.04,0.0,g
3055.0,3121.0,3056.0,4095.0,4095.0,1701.0,2806.0,2259.0,0.44,7.0,11.12,0.06,-0.01,-0.13,0.0,g
3065.0,3130.0,3050.0,4095.0,4095.0,1694.0,2816.0,2267.0,-0.21,6.88,11.4,0.02,-0.01,-0.16,0.0,g
3067.0,3125.0,3042.0,4095.0,4095.0,1687.0,2810.0,2261.0,0.16,6.68,11.75,-0.08,-0.16,-0.24,0.0,g
3071.0,3136.0,3059.0,4095.0,4095.0,1694.0,2815.0,2259.0,0.17,7.05,11.1,0.08,0.08,-0.11,0.0,g
3058.0,3136.0,3047.0,4095.0,4095.0,1678.0,2814.0,2260.0,-0.13,6.79,11.5,-0.03,0.02,-0.16,0.0,g
3065.0,3135.0,3067.0,4095.0,4095.0,1700.0,2819.0,2266.0,0.06,6.81,11.34,0.03,0.02,-0.14,0.0,g
3055.0,3136.0,3058.0,4095.0,4095.0,1692.0,2809.0,2259.0,0.12,6.97,11.2,0.02,0.1,-0.16,0.0,g
3071.0,3126.0,3056.0,4095.0,4095.0,1698.0,2819.0,2273.0,-0.51,6.66,11.74,-0.04,-0.05,-0.2,0.0,g
3057.0,3120.0,3041.0,4095.0,4095.0,1697.0,2817.0,2267.0,-0.26,6.93,11.38,0.08,-0.0,-0.14,0.0,g
3061.0,3126.0,3059.0,4095.0,4095.0,1703.0,2818.0,2265.0,-0.34,6.92,11.48,0.12,0.2,0.07,0.0,g
3056.0,3130.0,3054.0,4095.0,4095.0,1688.0,2816.0,2258.0,-0.38,7.27,11.03,0.07,0.35,0.39,0.0,g
3081.0,3127.0,3056.0,4095.0,4095.0,1690.0,2819.0,2263.0,0.63,6.84,11.37,-0.05,0.07,-0.02,0.0,g
3062.0,3121.0,3045.0,4095.0,4095.0,1695.0,2815.0,2267.0,-0.46,7.26,11.08,0.13,0.24,0.09,0.0,g
3059.0,3129.0,3057.0,4095.0,4095.0,1692.0,2823.0,2269.0,0.01,7.34,10.76,-0.09,0.53,0.52,0.0,g
3062.0,3122.0,3051.0,4095.0,4095.0,1693.0,2814.0,2265.0,0.75,6.83,11.36,-0.17,0.09,0.11,0.0,g
3057.0,3135.0,3062.0,4095.0,4095.0,1691.0,2813.0,2270.0,0.85,6.47,11.79,-0.11,-0.15,-0.29,0.0,g
3067.0,3139.0,3062.0,4095.0,4095.0,1685.0,2818.0,2263.0,0.07,6.58,11.73,0.13,-0.09,-0.29,0.0,g
3057.0,3123.0,3062.0,4095.0,4095.0,1682.0,2814.0,2259.0,0.4,7.12,10.95,0.11,-0.02,-0.11,0.0,g
3057.0,3136.0,3056.0,4095.0,4095.0,1680.0,2817.0,2267.0,0.19,7.18,10.99,-0.02,-0.14,-0.19,0.0,g
3054.0,3121.0,3053.0,4095.0,4095.0,1680.0,2818.0,2262.0,0.96,6.81,11.57,-0.14,-0.46,-0.52,0.0,g
3066.0,3127.0,3062.0,4095.0,4095.0,1687.0,2821.0,2269.0,0.42,7.02,11.29,0.03,-0.11,-0.37,0.0,g
3060.0,3119.0,3055.0,4095.0,4095.0,1680.0,2819.0,2263.0,0.21,6.85,11.45,0.03,-0.02,-0.32,0.0,g
3066.0,3133.0,3066.0,4095.0,4095.0,1691.0,2821.0,2270.0,-0.01,7.03,11.26,0.01,0.05,-0.16,0.0,g
3067.0,3125.0,3056.0,4095.0,4095.0,1680.0,2818.0,2263.0,0.42,6.74,11.5,-0.2,-0.55,-0.64,0.0,g
3066.0,3130.0,3066.0,4095.0,4095.0,1686.0,2830.0,2270.0,0.12,6.51,11.88,-0.01,-0.37,-0.51,0.0,g
3056.0,3123.0,3059.0,4095.0,4095.0,1670.0,2813.0,2265.0,0.07,6.73,11.55,-0.0,-0.23,-0.31,0.0,g
3068.0,3136.0,3056.0,4095.0,4095.0,1693.0,2822.0,2277.0,0.4,6.82,11.39,0.04,-0.04,-0.08,0.0,g
3062.0,3120.0,3055.0,4095.0,4095.0,1682.0,2815.0,2269.0,0.79,6.66,11.53,0.01,0.04,-0.1,0.0,g
3065.0,3127.0,3056.0,4095.0,4095.0,1680.0,2816.0,2269.0,0.36,6.67,11.66,-0.01,-0.07,-0.24,0.0,g
3057.0,3136.0,3058.0,4095.0,4095.0,1683.0,2816.0,2271.0,0.36,6.77,11.49,0.03,0.09,-0.06,0.0,g
3064.0,3130.0,3055.0,4095.0,4095.0,1646.0,2817.0,2269.0,0.41,6.62,11.68,0.01,-0.05,-0.17,0.0,g
3058.0,3120.0,3061.0,4095.0,4095.0,1684.0,2815.0,2272.0,0.61,6.83,11.35,0.02,0.0,-0.13,0.0,g
3068.0,3123.0,3056.0,4095.0,4095.0,1687.0,2816.0,2262.0,0.38,6.65,11.69,0.02,-0.05,-0.2,0.0,g
3071.0,3131.0,3064.0,4095.0,4095.0,1690.0,2816.0,2277.0,0.36,6.73,11.56,-0.03,-0.02,-0.11,0.0,g
3070.0,3130.0,3057.0,4095.0,4095.0,1687.0,2818.0,2268.0,0.52,6.68,11.6,0.06,-0.01,-0.12,0.0,g
3065.0,3133.0,3056.0,4095.0,4095.0,1679.0,2826.0,2275.0,0.69,6.94,11.23,0.02,-0.01,-0.13,0.0,g
3054.0,3125.0,3043.0,4095.0,4095.0,1680.0,2816.0,2271.0,0.45,6.56,11.77,-0.06,-0.02,-0.25,0.0,g
3061.0,3134.0,3069.0,4095.0,4095.0,1675.0,2823.0,2270.0,0.46,6.73,11.5,0.03,0.07,-0.1,0.0,g
3055.0,3123.0,3047.0,4095.0,4095.0,1679.0,2818.0,2271.0,0.69,6.79,11.39,-0.01,-0.02,-0.18,0.0,g
3071.0,3142.0,3058.0,4095.0,4095.0,1680.0,2817.0,2272.0,0.36,6.85,11.41,0.01,-0.01,-0.21,0.0,g
3063.0,3118.0,3046.0,4095.0,4095.0,1686.0,2827.0,2271.0,0.54,6.61,11.7,-0.04,0.04,-0.18,0.0,g
3067.0,3120.0,3046.0,4095.0,4095.0,1680.0,2819.0,2271.0,0.21,6.57,11.67,0.01,-0.03,-0.21,0.0,g
3067.0,3133.0,3059.0,4095.0,4095.0,1690.0,2823.0,2275.0,0.3,6.8,11.39,0.03,0.01,-0.15,0.0,g
3057.0,3129.0,3055.0,4095.0,4095.0,1682.0,2817.0,2266.0,0.48,6.75,11.46,-0.01,0.04,-0.11,0.0,g
3071.0,3137.0,3057.0,4095.0,4095.0,1680.0,2818.0,2266.0,0.29,6.51,11.84,0.01,-0.05,-0.24,0.0,g
3057.0,3120.0,3055.0,4095.0,4095.0,1679.0,2819.0,2262.0,0.24,6.78,11.43,0.02,-0.03,-0.19,0.0,g
3071.0,3142.0,3062.0,4095.0,4095.0,1686.0,2822.0,2273.0,0.26,6.69,11.59,-0.0,-0.02,-0.15,0.0,g
3055.0,3121.0,3047.0,4095.0,4095.0,1686.0,2816.0,2267.0,0.29,6.74,11.43,0.03,0.01,-0.11,0.0,g
3070.0,3126.0,3058.0,4095.0,4095.0,1694.0,2828.0,2283.0,0.3,6.65,11.59,0.04,-0.05,-0.21,0.0,g
3060.0,3120.0,3047.0,4095.0,4095.0,1669.0,2816.0,2286.0,0.17,6.85,11.4,0.04,0.02,-0.13,0.0,g
3071.0,3123.0,3059.0,4095.0,4095.0,1680.0,2821.0,2282.0,0.41,6.56,11.77,-0.0,0.01,-0.16,0.0,g
3051.0,3123.0,3051.0,4095.0,4095.0,1678.0,2815.0,2278.0,0.1,6.85,11.4,0.04,-0.05,-0.17,0.0,g
3061.0,3137.0,3065.0,4095.0,4095.0,1691.0,2827.0,2288.0,0.38,6.62,11.64,0.0,0.03,-0.1,0.0,g
3067.0,3130.0,3053.0,4095.0,4095.0,1689.0,2822.0,2287.0,-0.0,6.74,11.67,0.12,0.07,-0.05,0.0,g
3058.0,3136.0,3055.0,4095.0,4095.0,1690.0,2817.0,2281.0,0.27,7.03,11.11,0.16,0.38,0.31,0.0,g
3067.0,3127.0,3057.0,4095.0,4095.0,1693.0,2829.0,2275.0,0.75,6.66,11.76,0.24,0.07,-0.09,0.0,g
3052.0,3120.0,3050.0,4095.0,4095.0,1669.0,2819.0,2257.0,0.43,7.02,11.32,0.13,-0.06,-0.28,0.0,g
3065.0,3131.0,3071.0,4095.0,4095.0,1691.0,2825.0,2260.0,-0.06,7.27,11.08,0.07,-0.02,-0.14,0.0,g
3069.0,3121.0,3055.0,4095.0,4095.0,1690.0,2828.0,2263.0,0.44,7.18,11.08,0.04,0.0,-0.1,0.0,g
3061.0,3122.0,3056.0,4095.0,4095.0,1690.0,2833.0,2275.0,0.31,7.18,11.05,0.03,-0.03,-0.13,0.0,g
3070.0,3118.0,3056.0,4095.0,4095.0,1682.0,2825.0,2281.0,0.56,7.15,11.08,0.02,0.02,-0.1,0.0,g
3083.0,3130.0,3058.0,4095.0,4095.0,1683.0,2832.0,2287.0,0.26,7.24,11.04,0.07,-0.12,-0.23,0.0,g
3053.0,3119.0,3051.0,4095.0,4095.0,1675.0,2828.0,2284.0,0.5,7.22,11.02,0.01,-0.02,-0.17,0.0,g
3060.0,3134.0,3052.0,4095.0,4095.0,1680.0,2832.0,2288.0,0.46,7.0,11.36,0.05,0.0,-0.16,0.0,g
3054.0,3121.0,3049.0,4095.0,4095.0,1680.0,2827.0,2287.0,0.46,7.28,10.94,0.12,0.04,-0.17,0.0,g
3058.0,3129.0,3056.0,4095.0,4095.0,1671.0,2830.0,2284.0,0.19,7.46,10.79,0.07,-0.01,-0.16,0.0,g
3066.0,3122.0,3053.0,4095.0,4095.0,1680.0,2832.0,2289.0,0.62,7.36,10.83,0.01,0.03,-0.13,0.0,g
3056.0,3124.0,3051.0,4095.0,4095.0,1654.0,2832.0,2290.0,0.31,7.1,11.23,0.06,-0.06,-0.26,0.0,g
3071.0,3127.0,3057.0,4095.0,4095.0,1671.0,2838.0,2300.0,0.21,6.89,11.4,-0.24,-0.0,-0.13,0.0,g
3063.0,3121.0,3054.0,4095.0,4095.0,1665.0,2832.0,2290.0,0.39,6.38,11.87,-0.08,0.02,-0.07,0.0,g
3057.0,3136.0,3055.0,4095.0,4095.0,1680.0,2834.0,2299.0,0.34,6.49,11.83,0.02,-0.02,-0.2,0.0,g
3063.0,3125.0,3054.0,4095.0,4095.0,1675.0,2827.0,2293.0,0.26,6.92,11.26,0.04,0.01,-0.14,0.0,g
3068.0,3120.0,3044.0,4095.0,4095.0,1684.0,2835.0,2299.0,0.26,6.75,11.5,-0.02,0.02,-0.17,0.0,g
3061.0,3111.0,3056.0,4095.0,4095.0,1680.0,2831.0,2293.0,-0.25,6.92,11.4,0.01,-0.0,-0.09,0.0,g
3062.0,3122.0,3056.0,4095.0,4095.0,1686.0,2837.0,2302.0,0.57,6.79,11.38,-0.12,0.02,-0.02,0.0,g
3056.0,3123.0,3059.0,4095.0,4095.0,1677.0,2828.0,2294.0,0.54,6.36,11.94,-0.03,-0.03,-0.17,0.0,g
3056.0,3139.0,3063.0,4095.0,4095.0,1680.0,2835.0,2305.0,0.47,6.55,11.71,0.05,0.03,-0.16,0.0,g
3061.0,3122.0,3050.0,4095.0,4095.0,1678.0,2823.0,2304.0,0.18,6.65,11.62,0.05,-0.05,-0.22,0.0,g
3063.0,3120.0,3055.0,4095.0,4095.0,1683.0,2831.0,2303.0,0.35,6.86,11.36,0.03,-0.01,-0.15,0.0,g
3071.0,3125.0,3053.0,4095.0,4095.0,1679.0,2833.0,2304.0,0.41,6.58,11.7,-0.03,-0.0,-0.21,0.0,g
3065.0,3120.0,3043.0,4095.0,4095.0,1681.0,2832.0,2304.0,0.13,6.69,11.6,0.01,-0.02,-0.19,0.0,g
3069.0,3123.0,3047.0,4095.0,4095.0,1685.0,2834.0,2307.0,0.08,6.71,11.69,0.02,-0.04,-0.15,0.0,g
3053.0,3120.0,3046.0,4095.0,4095.0,1684.0,2830.0,2304.0,0.41,6.75,11.51,0.01,0.02,-0.13,0.0,g
3067.0,3136.0,3058.0,4095.0,4095.0,1677.0,2833.0,2307.0,0.17,6.6,11.73,0.02,-0.01,-0.18,0.0,g
3071.0,3130.0,3055.0,4095.0,4095.0,1680.0,2832.0,2305.0,0.4,7.02,10.84,0.04,0.07,0.14,0.0,g
3060.0,3122.0,3056.0,4095.0,4095.0,1681.0,2835.0,2311.0,1.24,6.5,11.62,-0.05,0.1,-0.14,0.0,g
3056.0,3130.0,3056.0,4095.0,4095.0,1681.0,2830.0,2304.0,0.35,6.58,11.66,-0.01,0.12,-0.32,0.0,g
3058.0,3123.0,3057.0,4095.0,4095.0,1683.0,2832.0,2313.0,-0.38,6.42,12.03,-0.04,-0.04,-0.44,0.0,g
3069.0,3126.0,3053.0,4095.0,4095.0,1701.0,2858.0,2302.0,0.31,7.21,11.06,-0.13,-0.08,-0.2,0.0,g
3065.0,3118.0,3062.0,4095.0,4095.0,1687.0,2847.0,2301.0,0.64,6.68,11.72,-0.01,-0.08,-0.11,0.0,g
3071.0,3135.0,3066.0,4095.0,4095.0,1692.0,2858.0,2304.0,0.96,7.1,11.1,0.04,-0.09,-0.25,0.0,g
3058.0,3119.0,3062.0,4095.0,4095.0,1696.0,2849.0,2302.0,0.53,7.26,10.84,0.06,0.01,-0.05,0.0,g
3063.0,3120.0,3054.0,4095.0,4095.0,1682.0,2859.0,2305.0,1.01,6.9,11.39,-0.05,-0.04,-0.15,0.0,g
3056.0,3111.0,3057.0,4095.0,4095.0,1691.0,2849.0,2298.0,0.79,7.01,11.23,0.0,0.06,-0.09,0.0,g
3065.0,3127.0,3069.0,4095.0,4095.0,1702.0,2855.0,2298.0,1.22,7.24,10.75,0.02,-0.02,-0.2,0.0,g
3084.0,3132.0,3056.0,4095.0,4095.0,1707.0,2864.0,2311.0,0.68,6.89,11.47,-0.06,-0.08,-0.33,0.0,g
3059.0,3120.0,3056.0,4095.0,4095.0,1692.0,2852.0,2305.0,0.64,7.15,11.06,-0.01,-0.06,-0.24,0.0,g
3065.0,3117.0,3058.0,4095.0,4095.0,1690.0,2857.0,2310.0,0.65,7.0,11.25,-0.04,-0.0,-0.15,0.0,g
3058.0,3120.0,3054.0,4095.0,4095.0,1695.0,2851.0,2303.0,0.5,6.81,11.53,0.08,0.05,-0.04,0.0,g
3083.0,3121.0,3062.0,4095.0,4095.0,1698.0,2859.0,2304.0,1.02,7.07,11.07,0.0,0.03,-0.13,0.0,g
3067.0,3110.0,3057.0,4095.0,4095.0,1699.0,2859.0,2306.0,0.81,7.04,11.09,-0.09,0.02,-0.16,0.0,g
3069.0,3118.0,3063.0,4095.0,4095.0,1702.0,2854.0,2304.0,0.27,6.97,11.41,-0.21,-0.1,-0.1,0.0,g
3063.0,3119.0,3056.0,4095.0,4095.0,1685.0,2851.0,2298.0,0.94,6.7,11.54,-0.11,0.06,-0.01,0.0,g
3068.0,3111.0,3057.0,4095.0,4095.0,1702.0,2859.0,2299.0,1.06,6.54,11.71,-0.01,-0.08,-0.19,0.0,g
3056.0,3124.0,3047.0,4095.0,4095.0,1685.0,2851.0,2293.0,0.74,6.8,11.45,-0.04,-0.15,-0.24,0.0,g
3061.0,3122.0,3056.0,4095.0,4095.0,1641.0,2864.0,2299.0,0.87,6.56,11.69,0.01,-0.01,-0.14,0.0,g
3055.0,3123.0,3046.0,4095.0,4095.0,1690.0,2859.0,2295.0,0.91,6.59,11.65,0.04,-0.03,-0.16,0.0,g
3056.0,3109.0,3054.0,4095.0,4095.0,1678.0,2858.0,2293.0,1.05,6.75,11.4,0.0,-0.01,-0.16,0.0,g
3058.0,3117.0,3056.0,4095.0,4095.0,1712.0,2870.0,2301.0,0.9,6.7,11.59,0.03,-0.02,-0.17,0.0,g
3081.0,3129.0,3056.0,4095.0,4095.0,1699.0,2855.0,2302.0,0.73,6.72,11.54,0.01,-0.0,-0.17,0.0,g
3062.0,3127.0,3061.0,4095.0,4095.0,1719.0,2864.0,2315.0,0.81,6.72,11.53,0.03,-0.01,-0.15,0.0,g
3062.0,3113.0,3043.0,4095.0,4095.0,1701.0,2860.0,2304.0,0.84,6.65,11.57,0.01,-0.01,-0.16,0.0,g
3063.0,3127.0,3054.0,4095.0,4095.0,1713.0,2866.0,2309.0,0.82,6.67,11.54,0.02,0.01,-0.17,0.0,g
3059.0,3120.0,3051.0,4095.0,4095.0,1707.0,2853.0,2301.0,0.67,6.73,11.52,0.01,-0.0,-0.16,0.0,g
3063.0,3130.0,3056.0,4095.0,4095.0,1713.0,2868.0,2308.0,0.75,6.73,11.53,0.01,0.0,-0.13,0.0,g
3068.0,3119.0,3045.0,4095.0,4095.0,1707.0,2861.0,2303.0,0.95,6.57,11.59,-0.03,-0.02,-0.19,0.0,g
3066.0,3132.0,3054.0,4095.0,4095.0,1702.0,2864.0,2309.0,0.59,6.73,11.51,0.02,-0.01,-0.21,0.0,g
3057.0,3115.0,3059.0,4095.0,4095.0,1703.0,2855.0,2300.0,0.57,6.6,11.68,0.01,0.0,-0.16,0.0,g
3057.0,3117.0,3045.0,4095.0,4095.0,1701.0,2862.0,2306.0,0.72,6.7,11.52,0.06,-0.02,-0.17,0.0,g
3060.0,3119.0,3049.0,4095.0,4095.0,1703.0,2858.0,2307.0,0.66,6.71,11.54,0.02,0.0,-0.15,0.0,g
3071.0,3125.0,3055.0,4095.0,4095.0,1713.0,2859.0,2309.0,0.68,6.68,11.61,0.05,-0.02,-0.15,0.0,g
3071.0,3115.0,3055.0,4095.0,4095.0,1691.0,2864.0,2308.0,0.76,6.72,11.51,0.03,-0.02,-0.15,0.0,g
3069.0,3122.0,3046.0,4095.0,4095.0,1710.0,2858.0,2304.0,0.8,6.71,11.49,0.02,-0.02,-0.2,0.0,g
3081.0,3120.0,3042.0,4095.0,4095.0,1712.0,2863.0,2308.0,0.51,6.73,11.52,0.02,-0.01,-0.17,0.0,g
3057.0,3117.0,3043.0,4095.0,4095.0,1710.0,2858.0,2305.0,0.68,6.67,11.63,0.02,0.01,-0.1,0.0,g
3063.0,3125.0,3056.0,4095.0,4095.0,1712.0,2865.0,2318.0,0.92,6.68,11.55,0.01,-0.01,-0.2,0.0,g
3079.0,3116.0,3056.0,4095.0,4095.0,1707.0,2859.0,2309.0,0.4,6.81,11.51,0.02,-0.03,-0.2,0.0,g
3066.0,3120.0,3053.0,4095.0,4095.0,1712.0,2863.0,2315.0,0.72,6.72,11.54,-0.01,0.01,-0.1,0.0,g
3067.0,3118.0,3054.0,4095.0,4095.0,1713.0,2878.0,2306.0,0.88,7.0,11.21,-0.07,-0.02,-0.2,0.0,g
3061.0,3117.0,3049.0,4095.0,4095.0,1713.0,2869.0,2304.0,0.79,6.91,11.34,-0.04,-0.01,-0.2,0.0,g
3065.0,3120.0,3062.0,4095.0,4095.0,1717.0,2871.0,2315.0,0.79,6.91,11.34,-0.03,-0.01,-0.21,0.0,g
3056.0,3122.0,3041.0,4095.0,4095.0,1709.0,2866.0,2313.0,0.52,7.13,11.17,0.01,-0.0,-0.16,0.0,g
3067.0,3127.0,3052.0,4095.0,4095.0,1680.0,2874.0,2315.0,0.61,6.8,11.57,0.04,-0.01,-0.01,0.0,g
3068.0,3115.0,3055.0,4095.0,4095.0,1709.0,2866.0,2309.0,1.47,6.98,11.07,0.03,0.02,-0.09,0.0,g
3060.0,3127.0,3056.0,4095.0,4095.0,1710.0,2867.0,2313.0,0.76,6.91,11.4,-0.01,-0.09,-0.28,0.0,g
3068.0,3121.0,3059.0,4095.0,4095.0,1673.0,2866.0,2318.0,0.76,6.9,11.43,0.0,0.01,-0.14,0.0,g
3059.0,3107.0,3056.0,4095.0,4095.0,1711.0,2874.0,2314.0,0.89,7.01,11.23,0.04,-0.04,-0.15,0.0,g
3071.0,3130.0,3062.0,4095.0,4095.0,1713.0,2870.0,2313.0,0.98,6.87,11.35,0.03,-0.02,-0.17,0.0,g
3069.0,3120.0,3049.0,4095.0,4095.0,1711.0,2865.0,2319.0,0.77,7.03,11.21,0.01,-0.0,-0.13,0.0,g
3069.0,3130.0,3062.0,4095.0,4095.0,1712.0,2875.0,2330.0,0.74,6.84,11.45,0.01,0.03,-0.06,0.0,g
3070.0,3114.0,3065.0,4095.0,4095.0,1707.0,2864.0,2317.0,0.92,6.85,11.44,0.11,0.01,-0.02,0.0,g
3071.0,3123.0,3060.0,4095.0,4095.0,1703.0,2876.0,2318.0,1.24,7.16,10.95,0.04,0.05,-0.01,0.0,g
3071.0,3120.0,3058.0,4095.0,4095.0,1706.0,2866.0,2311.0,1.2,6.85,11.37,0.04,-0.02,-0.12,0.0,g
3067.0,3131.0,3059.0,4095.0,4095.0,1707.0,2873.0,2320.0,1.11,7.04,11.15,0.03,-0.03,-0.13,0.0,g
3057.0,3129.0,3053.0,4095.0,4095.0,1698.0,2867.0,2311.0,1.17,6.97,11.38,0.05,-0.03,-0.14,0.0,g
3069.0,3125.0,3059.0,4095.0,4095.0,1677.0,2873.0,2318.0,0.85,7.06,11.22,0.11,-0.02,-0.07,0.0,g
3056.0,3123.0,3053.0,4095.0,4095.0,1715.0,2874.0,2313.0,1.52,7.08,11.03,0.08,0.04,0.03,0.0,g
3063.0,3118.0,3054.0,4095.0,4095.0,1706.0,2867.0,2313.0,1.75,7.04,11.05,0.04,-0.08,-0.23,0.0,g
3056.0,3113.0,3042.0,4095.0,4095.0,1712.0,2871.0,2313.0,0.96,7.04,11.29,-0.01,0.02,-0.13,0.0,g
3059.0,3116.0,3062.0,4095.0,4095.0,1711.0,2880.0,2320.0,1.36,6.92,11.47,-0.11,-0.08,-0.26,0.0,g
3058.0,3122.0,3043.0,4095.0,4095.0,1705.0,2874.0,2317.0,1.16,7.01,11.25,0.04,-0.05,-0.25,0.0,g
3071.0,3118.0,3049.0,4095.0,4095.0,1712.0,2877.0,2317.0,1.07,7.12,11.05,-0.12,-0.18,-0.29,0.0,g
3067.0,3120.0,3051.0,4095.0,4095.0,1702.0,2875.0,2318.0,1.03,6.85,11.46,0.03,0.07,-0.09,0.0,g
3061.0,3124.0,3047.0,4095.0,4095.0,1711.0,2879.0,2319.0,1.21,6.96,11.26,0.04,0.0,-0.14,0.0,g
3064.0,3130.0,3055.0,4095.0,4095.0,1712.0,2873.0,2319.0,1.17,7.08,11.09,-0.01,-0.02,-0.18,0.0,g
3061.0,3120.0,3056.0,4095.0,4095.0,1700.0,2865.0,2309.0,1.12,6.82,11.39,0.04,-0.02,-0.21,0.0,g
3071.0,3125.0,3063.0,4095.0,4095.0,1712.0,2881.0,2316.0,1.02,7.06,11.19,0.04,-0.03,-0.17,0.0,g
3069.0,3109.0,3053.0,4095.0,4095.0,1708.0,2866.0,2313.0,1.12,7.01,11.19,-0.01,-0.02,-0.16,0.0,g
3071.0,3122.0,3056.0,4095.0,4095.0,1699.0,2874.0,2320.0,1.3,6.9,11.24,0.01,0.03,-0.15,0.0,g
3056.0,3118.0,3044.0,4095.0,4095.0,1698.0,2869.0,2319.0,0.8,6.96,11.35,0.02,-0.05,-0.2,0.0,g
3071.0,3124.0,3066.0,4095.0,4095.0,1711.0,2877.0,2322.0,1.25,7.02,11.15,0.03,0.02,-0.11,0.0,g
3070.0,3122.0,3057.0,4095.0,4095.0,1699.0,2873.0,2319.0,1.18,7.06,11.14,-0.02,-0.0,-0.2,0.0,g
3071.0,3107.0,3061.0,4095.0,4095.0,1707.0,2871.0,2319.0,0.83,6.82,11.54,-0.0,-0.01,-0.19,0.0,g
3079.0,3120.0,3045.0,4095.0,4095.0,1665.0,2866.0,2320.0,1.09,7.04,11.16,0.01,0.02,-0.14,0.0,g
3062.0,3124.0,3057.0,4095.0,4095.0,1710.0,2881.0,2324.0,1.1,6.85,11.37,0.01,-0.02,-0.22,0.0,g
3060.0,3127.0,3055.0,4095.0,4095.0,1712.0,2870.0,2320.0,0.73,7.11,11.13,0.02,-0.03,-0.16,0.0,g
3059.0,3122.0,3053.0,4095.0,4095.0,1699.0,2869.0,2320.0,1.17,6.77,11.43,-0.01,0.06,-0.12,0.0,g
3067.0,3121.0,3057.0,4095.0,4095.0,1694.0,2868.0,2326.0,0.83,7.06,11.11,0.02,-0.03,-0.2,0.0,g
3069.0,3133.0,3056.0,4095.0,4095.0,1693.0,2868.0,2334.0,0.89,6.9,11.35,0.02,-0.02,-0.2,0.0,g
3066.0,3119.0,3041.0,4095.0,4095.0,1702.0,2867.0,2323.0,0.94,6.94,11.31,0.02,0.02,-0.16,0.0,g
3071.0,3121.0,3059.0,4095.0,4095.0,1699.0,2871.0,2325.0,0.79,7.0,11.28,0.03,-0.01,-0.14,0.0,g
3058.0,3120.0,3047.0,4095.0,4095.0,1698.0,2870.0,2323.0,1.16,6.85,11.35,-0.02,0.03,-0.12,0.0,g
3082.0,3118.0,3053.0,4095.0,4095.0,1694.0,2864.0,2323.0,0.92,6.96,11.3,0.03,-0.01,-0.2,0.0,g
3063.0,3120.0,3056.0,4095.0,4095.0,1703.0,2874.0,2327.0,0.89,7.02,11.21,-0.02,0.02,-0.12,0.0,g
3062.0,3119.0,3057.0,4095.0,4095.0,1670.0,2869.0,2325.0,0.97,6.8,11.55,0.15,-0.05,-0.16,0.0,g
3063.0,3121.0,3062.0,4095.0,4095.0,1705.0,2871.0,2327.0,1.0,7.12,11.07,0.01,-0.02,-0.14,0.0,g
3054.0,3118.0,3047.0,4095.0,4095.0,1708.0,2869.0,2331.0,0.99,7.02,11.19,0.04,-0.04,-0.15,0.0,g
3082.0,3127.0,3056.0,4095.0,4095.0,1682.0,2871.0,2331.0,0.9,7.2,10.98,0.05,-0.04,-0.11,0.0,g
3058.0,3116.0,3057.0,4095.0,4095.0,1701.0,2866.0,2322.0,1.23,6.88,11.41,0.03,-0.01,-0.14,0.0,g
3068.0,3120.0,3058.0,4095.0,4095.0,1712.0,2874.0,2326.0,1.08,7.18,10.8,0.1,-0.01,-0.16,0.0,g
3059.0,3121.0,3053.0,4095.0,4095.0,1667.0,2867.0,2333.0,0.97,7.15,11.12,-0.03,0.02,-0.14,0.0,g
3066.0,3120.0,3051.0,4095.0,4095.0,1700.0,2869.0,2324.0,1.08,7.03,11.14,0.01,-0.01,-0.13,0.0,g
3063.0,3120.0,3054.0,4095.0,4095.0,1703.0,2866.0,2324.0,1.19,7.15,11.08,-0.04,0.02,-0.17,0.0,g
3063.0,3125.0,3071.0,4095.0,4095.0,1680.0,2864.0,2321.0,0.87,7.03,11.31,-0.19,-0.01,-0.15,0.0,g
3082.0,3126.0,3063.0,4095.0,4095.0,1680.0,2874.0,2327.0,1.19,6.77,11.4,-0.03,0.03,-0.13,0.0,g
3065.0,3125.0,3056.0,4095.0,4095.0,1685.0,2875.0,2327.0,0.89,6.96,11.32,0.04,-0.03,-0.19,0.0,g
3066.0,3110.0,3062.0,4095.0,4095.0,1683.0,2869.0,2334.0,1.01,6.95,11.25,-0.04,0.03,-0.11,0.0,g
3063.0,3113.0,3051.0,4095.0,4095.0,1687.0,2869.0,2329.0,0.98,6.75,11.49,0.01,-0.04,-0.19,0.0,g
3065.0,3120.0,3063.0,4095.0,4095.0,1682.0,2865.0,2330.0,0.87,6.68,11.62,-0.02,-0.02,-0.21,0.0,g
3067.0,3121.0,3053.0,4095.0,4095.0,1654.0,2866.0,2326.0,0.85,6.97,11.21,0.07,-0.05,-0.18,0.0,g
3081.0,3119.0,3067.0,4095.0,4095.0,1680.0,2879.0,2335.0,1.13,6.69,11.47,-0.0,0.0,-0.16,0.0,g
3057.0,3111.0,3047.0,4095.0,4095.0,1670.0,2874.0,2336.0,0.7,6.94,11.33,0.03,-0.06,-0.23,0.0,g
3059.0,3118.0,3058.0,4095.0,4095.0,1680.0,2870.0,2331.0,0.97,6.82,11.44,-0.03,0.02,-0.14,0.0,g
3060.0,3118.0,3059.0,4095.0,4095.0,1681.0,2880.0,2330.0,0.92,6.74,11.47,0.04,-0.02,-0.18,0.0,g
3052.0,3111.0,3047.0,4095.0,4095.0,1675.0,2869.0,2332.0,0.93,6.9,11.31,0.01,-0.02,-0.2,0.0,g
3071.0,3120.0,3061.0,4095.0,4095.0,1670.0,2883.0,2331.0,0.94,6.88,11.28,-0.0,0.0,-0.2,0.0,g
3067.0,3120.0,3056.0,4095.0,4095.0,1669.0,2876.0,2334.0,0.65,6.78,11.54,0.01,-0.02,-0.24,0.0,g
3065.0,3113.0,3056.0,4095.0,4095.0,1671.0,2880.0,2336.0,0.65,6.96,11.29,0.0,0.0,-0.15,0.0,g
3057.0,3115.0,3057.0,4095.0,4095.0,1657.0,2873.0,2330.0,0.76,6.66,11.7,-0.02,-0.0,-0.17,0.0,g
3071.0,3120.0,3067.0,4095.0,4095.0,1668.0,2876.0,2334.0,0.76,6.96,11.18,0.02,0.01,-0.16,0.0,g
3063.0,3117.0,3053.0,4095.0,4095.0,1659.0,2879.0,2334.0,0.86,6.66,11.63,-0.03,-0.0,-0.2,0.0,g
3083.0,3121.0,3055.0,4095.0,4095.0,1680.0,2882.0,2345.0,0.57,6.83,11.42,0.04,-0.03,-0.22,0.0,g
3053.0,3120.0,3056.0,4095.0,4095.0,1669.0,2875.0,2339.0,0.7,6.81,11.42,-0.02,-0.01,-0.19,0.0,g
3062.0,3127.0,3053.0,4095.0,4095.0,1647.0,2881.0,2331.0,0.44,6.88,11.46,-0.0,0.01,-0.16,0.0,g
3061.0,3120.0,3058.0,4095.0,4095.0,1671.0,2881.0,2343.0,0.82,6.93,11.22,-0.03,0.16,-0.05,0.0,g
3066.0,3119.0,3047.0,4095.0,4095.0,1657.0,2877.0,2342.0,0.97,6.63,11.48,-0.16,0.21,-0.2,0.0,g
3068.0,3122.0,3062.0,4095.0,4095.0,1665.0,2880.0,2347.0,-0.26,6.39,12.2,-0.13,0.04,-0.37,0.0,g
3056.0,3116.0,3051.0,4095.0,4095.0,1665.0,2880.0,2338.0,-0.32,6.41,11.99,-0.07,0.02,-0.17,0.0,g
