hall_1,hall_2,hall_3,flex_t,flex_i,flex_m,flex_r,flex_p,accel_x,accel_y,accel_z,gyro_x,gyro_y,gyro_z,hand,sign
2959.0,4095.0,2480.0,4095.0,4095.0,2671.0,2773.0,2594.0,1.54,5.59,12.29,-0.02,-0.02,-0.18,0.0,g
2961.0,4095.0,2487.0,4095.0,4095.0,2661.0,2781.0,2594.0,1.54,5.49,12.44,-0.0,0.0,-0.16,0.0,g
2960.0,4095.0,2491.0,4095.0,4095.0,2672.0,2781.0,2590.0,1.49,5.49,12.45,-0.0,-0.02,-0.16,0.0,g
2954.0,4095.0,2494.0,4095.0,4095.0,2670.0,2775.0,2586.0,1.48,5.53,12.43,0.04,0.01,-0.16,0.0,g
2958.0,4095.0,2491.0,4095.0,4095.0,2674.0,2783.0,2593.0,1.48,5.57,12.3,0.0,-0.0,-0.15,0.0,g
2965.0,4095.0,2496.0,4095.0,4095.0,2670.0,2768.0,2590.0,1.41,5.6,12.32,0.04,0.0,-0.16,0.0,g
2959.0,4095.0,2484.0,4095.0,4095.0,2673.0,2773.0,2596.0,1.47,5.63,12.27,0.02,-0.01,-0.14,0.0,g
2958.0,4095.0,2487.0,4095.0,4095.0,2674.0,2783.0,2596.0,1.62,5.56,12.28,0.01,0.02,-0.14,0.0,g
2960.0,4095.0,2482.0,4095.0,4095.0,2669.0,2773.0,2593.0,1.47,5.58,12.43,0.01,-0.01,-0.17,0.0,g
2959.0,4095.0,2486.0,4095.0,4095.0,2675.0,2783.0,2594.0,1.35,5.68,12.29,0.02,-0.0,-0.15,0.0,g
2947.0,4095.0,2486.0,4095.0,4095.0,2659.0,2773.0,2599.0,1.65,5.57,12.1,0.0,-0.04,-0.17,0.0,g
2960.0,4095.0,2487.0,4095.0,4095.0,2666.0,2779.0,2595.0,1.39,5.6,12.51,-0.02,-0.0,-0.15,0.0,g
2958.0,4095.0,2489.0,4095.0,4095.0,2672.0,2784.0,2598.0,1.58,5.54,12.23,0.03,0.01,-0.16,0.0,g
2954.0,4095.0,2487.0,4095.0,4095.0,2667.0,2775.0,2598.0,1.45,5.6,12.28,-0.04,-0.03,-0.16,0.0,g
2959.0,4095.0,2491.0,4095.0,4095.0,2672.0,2784.0,2598.0,1.57,5.46,12.44,0.0,0.03,-0.15,0.0,g
2959.0,4095.0,2483.0,4095.0,4095.0,2672.0,2779.0,2593.0,1.57,5.43,12.6,-0.0,-0.01,-0.17,0.0,g
2957.0,4095.0,2491.0,4095.0,4095.0,2671.0,2781.0,2594.0,1.47,5.51,12.42,0.05,0.03,-0.15,0.0,g
2949.0,4095.0,2491.0,4095.0,4095.0,2666.0,2783.0,2597.0,1.47,5.54,12.34,0.08,0.02,-0.16,0.0,g
2950.0,4095.0,2487.0,4095.0,4095.0,2669.0,2779.0,2583.0,1.19,5.54,12.61,0.15,-0.0,-0.15,0.0,g
2959.0,3856.0,2928.0,4095.0,4095.0,2539.0,2537.0,2415.0,1.57,5.58,12.25,-0.03,0.07,-0.14,0.0,g
2955.0,3857.0,2928.0,4095.0,4095.0,2538.0,2528.0,2417.0,1.67,5.54,12.37,-0.0,-0.0,-0.15,0.0,g
2954.0,3866.0,2921.0,4095.0,4095.0,2542.0,2535.0,2422.0,1.61,5.61,12.23,0.03,0.02,-0.15,0.0,g
2960.0,3863.0,2917.0,4095.0,4095.0,2531.0,2526.0,2413.0,1.71,5.51,12.35,0.01,-0.05,-0.19,0.0,g
2955.0,3865.0,2927.0,4095.0,4095.0,2542.0,2535.0,2416.0,1.64,5.54,12.36,0.0,0.01,-0.16,0.0,g
2960.0,3889.0,2923.0,4095.0,4095.0,2534.0,2524.0,2418.0,1.6,5.53,12.35,0.06,-0.04,-0.19,0.0,g
2958.0,3885.0,2927.0,4095.0,4095.0,2530.0,2526.0,2416.0,1.68,5.56,12.33,0.06,0.03,-0.14,0.0,g
2956.0,3923.0,2921.0,4095.0,4095.0,2526.0,2525.0,2416.0,1.64,5.58,12.26,0.1,-0.07,-0.19,0.0,g
2959.0,3939.0,2928.0,4095.0,4095.0,2512.0,2537.0,2402.0,1.59,5.41,12.18,0.28,0.01,-0.09,0.0,g
2962.0,3835.0,2923.0,4095.0,4095.0,2523.0,2559.0,2416.0,1.45,5.71,11.49,-0.5,-0.42,0.13,0.0,g
2962.0,3164.0,2867.0,4095.0,4095.0,2496.0,2624.0,2465.0,3.12,4.79,12.52,-0.54,-0.34,0.64,0.0,g
2977.0,2762.0,2822.0,4095.0,4095.0,2501.0,2669.0,2559.0,2.52,5.53,13.14,-0.38,-0.31,-0.1,0.0,g
2967.0,2773.0,2835.0,4095.0,4095.0,2469.0,2678.0,2559.0,2.32,4.82,12.4,0.19,0.18,-0.05,0.0,g
2957.0,2763.0,2842.0,4095.0,4095.0,2427.0,2640.0,2535.0,2.39,4.89,12.51,-0.25,0.03,-0.3,0.0,g
2970.0,2821.0,2815.0,4095.0,4095.0,2384.0,2555.0,2381.0,2.36,5.13,13.24,0.01,-0.13,-0.41,0.0,g
2963.0,3912.0,2763.0,4095.0,4095.0,2349.0,2461.0,2282.0,2.03,5.03,12.54,0.48,0.08,-0.42,0.0,g
2970.0,4095.0,2739.0,4095.0,4095.0,2359.0,2461.0,2259.0,2.22,5.12,12.0,-0.08,-0.13,-0.25,0.0,g
2969.0,4095.0,2736.0,4095.0,4095.0,2347.0,2432.0,2244.0,2.01,5.35,12.99,0.26,0.09,-0.26,0.0,g
2964.0,4095.0,2781.0,4095.0,4095.0,2365.0,2433.0,2261.0,2.07,5.14,12.16,0.37,-0.25,-0.42,0.0,g
2960.0,4095.0,2819.0,4095.0,4095.0,2381.0,2439.0,2256.0,2.14,5.52,11.8,0.17,0.03,-0.25,0.0,g
2954.0,1207.0,2922.0,4095.0,4095.0,2496.0,2500.0,2337.0,1.67,6.07,11.98,-0.01,0.01,-0.13,0.0,g
2954.0,1207.0,2922.0,4095.0,4095.0,2496.0,2500.0,2337.0,1.67,6.07,11.98,-0.01,0.01,-0.13,0.0,g
2959.0,1205.0,2916.0,4095.0,4095.0,2496.0,2502.0,2337.0,1.9,6.02,11.81,0.03,0.03,-0.16,0.0,g
2946.0,1193.0,2915.0,4095.0,4095.0,2496.0,2509.0,2347.0,1.78,6.02,11.9,-0.04,0.09,-0.12,0.0,g
2959.0,1247.0,2908.0,4095.0,4095.0,2492.0,2503.0,2340.0,1.68,5.97,12.11,0.05,0.04,-0.15,0.0,g
2960.0,1270.0,2909.0,4095.0,4095.0,2502.0,2512.0,2353.0,1.68,5.88,11.96,0.08,0.1,-0.09,0.0,g
2958.0,1334.0,2896.0,4095.0,4095.0,2497.0,2543.0,2374.0,1.32,5.66,11.57,0.06,-0.05,0.09,0.0,g
2970.0,2431.0,2815.0,4095.0,4095.0,2532.0,2627.0,2426.0,2.49,5.82,11.07,-0.66,-0.63,0.51,0.0,g
2967.0,2207.0,2772.0,4095.0,4095.0,2635.0,2769.0,2608.0,2.73,5.82,11.63,-0.6,-0.32,-0.01,0.0,g
2967.0,2518.0,2839.0,4095.0,4095.0,2549.0,2743.0,2603.0,2.9,5.54,12.85,-0.48,-0.08,0.0,0.0,g
2953.0,2705.0,2849.0,4095.0,4095.0,2480.0,2607.0,2514.0,2.49,5.18,12.95,0.2,0.34,-0.15,0.0,g
2960.0,2821.0,2859.0,4095.0,4095.0,2459.0,2491.0,2463.0,1.96,5.3,12.61,-0.01,0.12,-0.18,0.0,g
2959.0,2922.0,2862.0,4095.0,4095.0,2486.0,2462.0,2413.0,2.67,5.1,12.37,0.33,0.1,-0.26,0.0,g
2960.0,3024.0,2873.0,4095.0,4095.0,2508.0,2423.0,2379.0,2.04,5.78,11.9,0.34,0.19,-0.26,0.0,g
2960.0,3634.0,2871.0,4095.0,4095.0,2493.0,2402.0,2350.0,2.43,5.4,12.45,0.5,0.03,-0.35,0.0,g
2959.0,3899.0,2874.0,4095.0,4095.0,2483.0,2406.0,2346.0,1.87,5.95,11.6,0.21,0.21,-0.19,0.0,g
2962.0,3620.0,2892.0,4095.0,4095.0,2483.0,2431.0,2359.0,2.1,5.86,11.86,0.02,0.11,-0.26,0.0,g
2967.0,3631.0,2896.0,4095.0,4095.0,2480.0,2441.0,2371.0,1.69,6.05,12.51,0.08,0.04,-0.29,0.0,g
2963.0,3459.0,2901.0,4095.0,4095.0,2480.0,2467.0,2384.0,1.89,5.77,12.11,0.15,-0.21,-0.29,0.0,g
2969.0,2726.0,2893.0,4095.0,4095.0,2466.0,2470.0,2387.0,1.88,6.0,11.6,0.08,-0.03,-0.17,0.0,g
2967.0,886.0,2928.0,4095.0,4095.0,2559.0,2585.0,2429.0,2.26,6.0,11.78,-0.05,-0.04,-0.12,0.0,g
2950.0,892.0,2917.0,4095.0,4095.0,2559.0,2586.0,2431.0,2.54,5.99,11.84,-0.06,-0.1,-0.15,0.0,g
2960.0,885.0,2927.0,4095.0,4095.0,2559.0,2582.0,2431.0,2.86,5.78,12.01,-0.01,0.04,-0.11,0.0,g
2947.0,881.0,2926.0,4095.0,4095.0,2549.0,2559.0,2422.0,2.69,5.8,12.09,0.02,0.05,-0.12,0.0,g
2955.0,880.0,2922.0,4095.0,4095.0,2544.0,2559.0,2417.0,2.43,5.98,11.97,0.02,0.01,-0.27,0.0,g
2959.0,893.0,2923.0,4095.0,4095.0,2551.0,2559.0,2426.0,1.79,6.05,11.94,0.01,-0.04,-0.24,0.0,g
2965.0,894.0,2925.0,4095.0,4095.0,2553.0,2559.0,2416.0,1.87,6.03,11.73,0.01,-0.07,-0.19,0.0,g
2951.0,896.0,2923.0,4095.0,4095.0,2543.0,2559.0,2410.0,2.28,5.89,11.72,-0.02,-0.04,-0.12,0.0,g
2953.0,893.0,2926.0,4095.0,4095.0,2544.0,2559.0,2415.0,2.55,6.2,11.86,0.01,-0.02,-0.14,0.0,g
2954.0,893.0,2927.0,4095.0,4095.0,2547.0,2556.0,2419.0,2.52,5.84,11.98,0.04,0.04,-0.15,0.0,g
2955.0,907.0,2922.0,4095.0,4095.0,2559.0,2583.0,2426.0,2.16,5.88,11.72,0.11,-0.05,-0.11,0.0,g
2960.0,913.0,2885.0,4095.0,4095.0,2559.0,2609.0,2451.0,1.53,5.74,10.4,-0.77,-0.44,0.27,0.0,g
2960.0,944.0,2833.0,4095.0,4095.0,2494.0,2672.0,2769.0,3.76,4.64,12.16,-1.51,-0.57,0.42,0.0,g
2960.0,1659.0,2796.0,4095.0,4095.0,2511.0,2711.0,2902.0,2.87,4.98,13.21,-0.58,0.2,0.22,0.0,g
2960.0,1682.0,2735.0,4095.0,4095.0,2530.0,2675.0,2707.0,3.73,4.58,14.42,0.03,-0.02,-0.36,0.0,g
2954.0,899.0,2642.0,4095.0,4095.0,2470.0,2559.0,2512.0,2.74,4.56,12.65,1.52,0.03,-0.88,0.0,g
2956.0,912.0,2387.0,4095.0,4095.0,2482.0,2559.0,2448.0,2.82,5.34,10.69,0.26,-0.55,-0.61,0.0,g
2958.0,911.0,1968.0,4095.0,4095.0,2496.0,2531.0,2423.0,3.01,5.44,12.07,-0.01,-0.35,-0.38,0.0,g
2949.0,918.0,1917.0,4095.0,4095.0,2497.0,2529.0,2434.0,3.05,5.59,12.26,0.16,0.22,-0.08,0.0,g
2959.0,934.0,1863.0,4095.0,4095.0,2512.0,2541.0,2467.0,3.06,5.51,11.79,0.34,0.04,-0.24,0.0,g
2954.0,932.0,1847.0,4095.0,4095.0,2551.0,2559.0,2512.0,2.85,6.11,11.55,0.0,0.03,-0.17,0.0,g
2971.0,913.0,1845.0,4095.0,4095.0,2559.0,2559.0,2512.0,2.77,6.11,11.43,0.05,-0.0,-0.2,0.0,g
2964.0,922.0,1850.0,4095.0,4095.0,2550.0,2559.0,2512.0,2.8,6.1,11.68,-0.02,-0.05,-0.18,0.0,g
2954.0,924.0,1847.0,4095.0,4095.0,2551.0,2559.0,2512.0,2.69,6.3,11.49,0.04,0.03,-0.14,0.0,g
2953.0,931.0,1854.0,4095.0,4095.0,2557.0,2559.0,2527.0,2.89,6.11,11.47,0.01,-0.02,-0.15,0.0,g
2960.0,923.0,1859.0,4095.0,4095.0,2550.0,2559.0,2518.0,2.9,6.09,11.52,-0.03,-0.03,-0.18,0.0,g
2962.0,925.0,1890.0,4095.0,4095.0,2558.0,2592.0,2533.0,2.83,5.96,11.52,-0.13,0.01,-0.07,0.0,g
2957.0,944.0,2215.0,4095.0,4095.0,2549.0,2657.0,2590.0,2.83,5.78,11.5,-0.27,0.13,0.16,0.0,g
2957.0,971.0,2527.0,4095.0,4095.0,2599.0,2747.0,2672.0,3.4,6.17,12.27,-0.24,0.15,-0.12,0.0,g
2963.0,939.0,2544.0,4095.0,4095.0,2591.0,2721.0,2645.0,3.11,5.98,12.3,0.1,-0.33,-0.48,0.0,g
2958.0,955.0,2403.0,4095.0,4095.0,2605.0,2670.0,2559.0,2.89,6.12,11.4,0.45,-0.32,-0.46,0.0,g
2960.0,955.0,2256.0,4095.0,4095.0,2608.0,2641.0,2531.0,2.46,5.93,11.19,-0.09,-0.06,-0.04,0.0,g
2955.0,941.0,2175.0,4095.0,4095.0,2643.0,2646.0,2535.0,3.03,5.69,12.24,0.39,0.08,0.15,0.0,g
2954.0,927.0,2148.0,4095.0,4095.0,2653.0,2643.0,2533.0,2.77,5.88,11.4,-0.06,0.15,0.03,0.0,g
2958.0,924.0,2145.0,4095.0,4095.0,2661.0,2641.0,2527.0,3.61,6.01,11.46,-0.03,-0.16,-0.2,0.0,g
2957.0,911.0,2133.0,4095.0,4095.0,2659.0,2646.0,2540.0,3.33,6.09,11.45,-0.11,-0.01,-0.15,0.0,g
2960.0,914.0,2129.0,4095.0,4095.0,2669.0,2642.0,2537.0,3.35,5.9,11.61,-0.0,-0.08,-0.19,0.0,g
2962.0,906.0,2128.0,4095.0,4095.0,2669.0,2642.0,2542.0,3.18,6.04,11.6,0.07,0.01,-0.18,0.0,g
2960.0,910.0,2130.0,4095.0,4095.0,2674.0,2637.0,2543.0,3.39,5.92,11.87,0.04,0.09,-0.17,0.0,g
2955.0,905.0,2128.0,4095.0,4095.0,2672.0,2647.0,2544.0,3.2,6.17,11.86,0.05,-0.06,-0.26,0.0,g
2957.0,919.0,2250.0,4095.0,4095.0,2671.0,2682.0,2623.0,3.42,6.14,11.51,0.08,0.02,-0.09,0.0,g
2961.0,919.0,2255.0,4095.0,4095.0,2669.0,2683.0,2623.0,3.44,6.32,11.38,0.11,0.01,-0.16,0.0,g
2950.0,918.0,2242.0,4095.0,4095.0,2667.0,2675.0,2624.0,3.17,6.4,11.25,0.1,0.05,-0.18,0.0,g
2960.0,921.0,2241.0,4095.0,4095.0,2659.0,2684.0,2624.0,3.16,6.46,11.2,0.06,0.1,-0.18,0.0,g
2963.0,918.0,2243.0,4095.0,4095.0,2671.0,2680.0,2622.0,2.89,6.44,11.3,0.06,0.04,-0.26,0.0,g
2960.0,922.0,2253.0,4095.0,4095.0,2663.0,2680.0,2622.0,2.72,6.37,11.35,0.06,0.05,-0.26,0.0,g
2964.0,922.0,2253.0,4095.0,4095.0,2662.0,2687.0,2623.0,2.29,6.49,11.32,0.04,0.01,-0.3,0.0,g
2954.0,922.0,2246.0,4095.0,4095.0,2662.0,2688.0,2624.0,2.32,6.37,11.47,0.09,0.0,-0.28,0.0,g
2957.0,919.0,2244.0,4095.0,4095.0,2661.0,2679.0,2624.0,2.21,6.52,11.23,0.05,-0.07,-0.3,0.0,g
2961.0,924.0,2253.0,4095.0,4095.0,2666.0,2686.0,2620.0,2.32,6.43,11.41,0.05,0.0,-0.2,0.0,g
2957.0,917.0,2246.0,4095.0,4095.0,2661.0,2683.0,2623.0,2.52,6.7,11.0,0.01,-0.07,-0.16,0.0,g
2954.0,923.0,2251.0,4095.0,4095.0,2656.0,2678.0,2619.0,2.99,6.55,11.52,0.08,0.02,-0.13,0.0,g
2960.0,917.0,2249.0,4095.0,4095.0,2666.0,2686.0,2624.0,2.95,6.79,11.09,0.08,0.0,-0.19,0.0,g
2960.0,911.0,2256.0,4095.0,4095.0,2669.0,2684.0,2617.0,2.68,6.73,11.03,0.14,0.04,-0.25,0.0,g
2949.0,927.0,2256.0,4095.0,4095.0,2669.0,2682.0,2620.0,2.4,6.84,10.87,-0.02,-0.04,-0.22,0.0,g
2958.0,921.0,2250.0,4095.0,4095.0,2669.0,2681.0,2621.0,2.49,6.79,11.11,0.02,-0.04,-0.29,0.0,g
2960.0,930.0,2256.0,4095.0,4095.0,2665.0,2683.0,2624.0,2.29,6.95,10.94,-0.04,-0.08,-0.23,0.0,g
2947.0,917.0,2246.0,4095.0,4095.0,2661.0,2684.0,2623.0,2.72,6.76,11.12,0.06,0.01,-0.22,0.0,g
2960.0,923.0,2252.0,4095.0,4095.0,2657.0,2678.0,2624.0,2.49,6.57,10.92,-0.06,-0.06,-0.26,0.0,g
2959.0,921.0,2254.0,4095.0,4095.0,2662.0,2686.0,2624.0,2.44,6.5,11.39,-0.0,-0.03,-0.22,0.0,g
2951.0,861.0,2911.0,4095.0,4095.0,2559.0,2559.0,2485.0,2.09,6.67,11.13,0.01,0.02,-0.16,0.0,g
2957.0,866.0,2908.0,4095.0,4095.0,2559.0,2582.0,2483.0,2.21,6.64,11.26,-0.02,-0.04,-0.2,0.0,g
2955.0,877.0,2906.0,4095.0,4095.0,2559.0,2582.0,2486.0,2.17,6.57,11.36,-0.02,-0.02,-0.16,0.0,g
2948.0,868.0,2910.0,4095.0,4095.0,2559.0,2583.0,2487.0,2.23,6.5,11.26,-0.08,-0.03,-0.13,0.0,g
2963.0,859.0,2922.0,4095.0,4095.0,2559.0,2591.0,2486.0,2.46,6.42,11.61,0.02,-0.01,-0.14,0.0,g
2958.0,867.0,2914.0,4095.0,4095.0,2583.0,2583.0,2487.0,2.41,6.48,11.48,-0.02,0.0,-0.15,0.0,g
2959.0,854.0,2912.0,4095.0,4095.0,2559.0,2589.0,2489.0,2.24,6.58,11.36,0.04,0.0,-0.16,0.0,g
2959.0,871.0,2912.0,4095.0,4095.0,2582.0,2592.0,2483.0,2.28,6.49,11.42,0.04,0.02,-0.16,0.0,g
2963.0,868.0,2910.0,4095.0,4095.0,2586.0,2592.0,2496.0,2.19,6.6,11.38,0.03,0.01,-0.15,0.0,g
2958.0,869.0,2911.0,4095.0,4095.0,2583.0,2590.0,2492.0,2.16,6.55,11.46,0.04,-0.01,-0.16,0.0,g
2957.0,866.0,2909.0,4095.0,4095.0,2587.0,2594.0,2491.0,2.26,6.53,11.25,-0.02,-0.01,-0.14,0.0,g
2959.0,854.0,2911.0,4095.0,4095.0,2559.0,2589.0,2492.0,2.28,6.59,11.49,0.02,-0.01,-0.14,0.0,g
2948.0,864.0,2907.0,4095.0,4095.0,2585.0,2608.0,2494.0,2.39,6.54,11.32,0.05,0.02,-0.15,0.0,g
2954.0,851.0,2912.0,4095.0,4095.0,2585.0,2591.0,2494.0,2.21,6.51,11.5,0.05,-0.01,-0.16,0.0,g
2953.0,859.0,2919.0,4095.0,4095.0,2587.0,2597.0,2495.0,2.23,6.54,11.41,0.03,0.02,-0.13,0.0,g
2956.0,865.0,2911.0,4095.0,4095.0,2591.0,2597.0,2495.0,2.34,6.54,11.45,0.04,-0.02,-0.18,0.0,g
2960.0,859.0,2917.0,4095.0,4095.0,2586.0,2594.0,2512.0,2.37,6.51,11.46,0.06,0.02,-0.15,0.0,g
2960.0,865.0,2902.0,4095.0,4095.0,2585.0,2597.0,2493.0,2.33,6.57,11.26,0.05,-0.01,-0.17,0.0,g
2967.0,863.0,2912.0,4095.0,4095.0,2590.0,2599.0,2493.0,2.1,6.69,11.29,0.01,-0.03,-0.16,0.0,g
2951.0,857.0,2913.0,4095.0,4095.0,2590.0,2607.0,2496.0,2.13,6.67,11.18,0.02,-0.01,-0.13,0.0,g
2954.0,868.0,3018.0,4095.0,4095.0,2682.0,2674.0,2480.0,2.8,6.32,11.47,0.02,-0.06,-0.13,0.0,g
2954.0,868.0,3018.0,4095.0,4095.0,2682.0,2674.0,2480.0,2.8,6.32,11.47,0.02,-0.06,-0.13,0.0,g
2958.0,862.0,2999.0,4095.0,4095.0,2679.0,2676.0,2480.0,3.05,6.34,11.34,-0.02,-0.04,-0.09,0.0,g
2959.0,864.0,3006.0,4095.0,4095.0,2679.0,2673.0,2481.0,3.04,6.43,11.42,0.01,-0.02,-0.16,0.0,g
2953.0,862.0,3011.0,4095.0,4095.0,2676.0,2668.0,2480.0,2.99,6.48,11.09,0.0,-0.03,-0.19,0.0,g
2958.0,863.0,3004.0,4095.0,4095.0,2680.0,2674.0,2481.0,2.85,6.48,11.3,0.01,0.04,-0.16,0.0,g
2954.0,857.0,2996.0,4095.0,4095.0,2685.0,2672.0,2480.0,2.72,6.45,11.19,0.02,-0.04,-0.22,0.0,g
2957.0,862.0,3007.0,4095.0,4095.0,2683.0,2669.0,2480.0,2.83,6.44,11.36,0.04,-0.02,-0.23,0.0,g
2955.0,851.0,3002.0,4095.0,4095.0,2687.0,2671.0,2489.0,2.74,6.46,11.37,-0.06,-0.07,-0.18,0.0,g
2960.0,852.0,3007.0,4095.0,4095.0,2687.0,2675.0,2489.0,2.72,6.38,11.37,0.08,-0.04,-0.17,0.0,g
2950.0,862.0,3007.0,4095.0,4095.0,2677.0,2671.0,2481.0,2.92,6.29,11.3,-0.01,-0.03,-0.12,0.0,g
2961.0,862.0,3005.0,4095.0,4095.0,2685.0,2676.0,2492.0,2.79,6.25,11.67,0.21,-0.03,-0.16,0.0,g
2954.0,861.0,3002.0,4095.0,4095.0,2674.0,2672.0,2487.0,3.02,6.29,11.27,0.07,0.03,-0.06,0.0,g
2960.0,851.0,2994.0,4095.0,4095.0,2687.0,2675.0,2490.0,2.98,6.55,11.32,0.06,0.04,-0.06,0.0,g
2960.0,867.0,3006.0,4095.0,4095.0,2689.0,2682.0,2489.0,2.96,6.48,11.2,0.09,0.06,-0.08,0.0,g
2960.0,861.0,3007.0,4095.0,4095.0,2687.0,2674.0,2495.0,2.79,6.76,10.89,0.03,0.04,-0.05,0.0,g
2955.0,864.0,2995.0,4095.0,4095.0,2687.0,2675.0,2490.0,3.04,6.63,11.2,0.1,0.06,-0.14,0.0,g
2955.0,848.0,2992.0,4095.0,4095.0,2682.0,2672.0,2495.0,3.0,6.66,10.98,0.04,0.04,-0.15,0.0,g
2960.0,862.0,2996.0,4095.0,4095.0,2688.0,2674.0,2493.0,2.66,6.66,11.04,0.05,0.01,-0.19,0.0,g
2952.0,849.0,3003.0,4095.0,4095.0,2684.0,2672.0,2491.0,2.87,6.52,11.27,-0.01,0.04,-0.14,0.0,g
2958.0,921.0,2944.0,4095.0,4095.0,2795.0,2784.0,2629.0,3.43,6.42,11.12,-0.02,0.04,-0.12,0.0,g
2960.0,923.0,2960.0,4095.0,4095.0,2800.0,2793.0,2631.0,3.57,6.41,10.98,0.04,0.03,-0.15,0.0,g
2967.0,933.0,2953.0,4095.0,4095.0,2800.0,2798.0,2628.0,3.46,6.37,11.25,-0.01,-0.03,-0.2,0.0,g
2954.0,918.0,2950.0,4095.0,4095.0,2800.0,2802.0,2630.0,3.27,6.49,10.9,-0.03,-0.0,-0.12,0.0,g
2953.0,944.0,2951.0,4095.0,4095.0,2801.0,2799.0,2626.0,3.57,6.35,11.07,0.02,-0.08,-0.17,0.0,g
2969.0,945.0,2963.0,4095.0,4095.0,2810.0,2800.0,2617.0,3.51,6.36,11.01,-0.09,-0.0,-0.09,0.0,g
2951.0,973.0,2943.0,4095.0,4095.0,2812.0,2807.0,2628.0,3.49,6.34,11.08,-0.02,-0.06,-0.16,0.0,g
2957.0,960.0,2959.0,4095.0,4095.0,2813.0,2801.0,2653.0,3.65,6.23,11.25,-0.08,-0.02,-0.14,0.0,g
2960.0,970.0,2956.0,4095.0,4095.0,2811.0,2800.0,2630.0,3.49,6.33,11.18,0.03,-0.0,-0.13,0.0,g
2957.0,967.0,2957.0,4095.0,4095.0,2814.0,2802.0,2637.0,3.63,6.3,11.03,0.01,0.06,-0.11,0.0,g
2953.0,967.0,2942.0,4095.0,4095.0,2818.0,2800.0,2640.0,3.59,6.39,10.99,0.04,0.03,-0.12,0.0,g
2955.0,972.0,2945.0,4095.0,4095.0,2822.0,2796.0,2626.0,3.78,6.3,11.14,0.05,0.05,-0.14,0.0,g
2960.0,983.0,2954.0,4095.0,4095.0,2819.0,2801.0,2641.0,3.56,6.34,11.24,0.06,0.08,-0.17,0.0,g
2960.0,971.0,2952.0,4095.0,4095.0,2815.0,2801.0,2641.0,3.21,6.42,10.94,0.01,0.02,-0.2,0.0,g
2951.0,990.0,2944.0,4095.0,4095.0,2823.0,2813.0,2643.0,3.31,6.11,10.86,0.01,-0.0,-0.11,0.0,g
2957.0,977.0,2949.0,4095.0,4095.0,2825.0,2805.0,2647.0,3.56,6.04,11.3,-0.01,-0.07,-0.1,0.0,g
2948.0,987.0,2953.0,4095.0,4095.0,2815.0,2806.0,2646.0,4.05,6.17,11.46,-0.02,0.07,-0.05,0.0,g
2951.0,976.0,2947.0,4095.0,4095.0,2818.0,2803.0,2647.0,3.68,6.51,11.1,0.14,0.0,-0.22,0.0,g
2945.0,992.0,2951.0,4095.0,4095.0,2819.0,2803.0,2640.0,3.37,6.44,10.91,0.01,0.02,-0.2,0.0,g
2958.0,1007.0,2958.0,4095.0,4095.0,2812.0,2805.0,2642.0,3.16,6.41,11.09,0.09,-0.07,-0.22,0.0,g
2951.0,3725.0,2931.0,4095.0,4095.0,2804.0,2865.0,2672.0,3.34,6.12,11.54,-0.05,-0.02,-0.21,0.0,g
2955.0,3743.0,2944.0,4095.0,4095.0,2806.0,2864.0,2673.0,3.22,5.99,11.51,0.1,0.01,-0.17,0.0,g
2960.0,3743.0,2943.0,4095.0,4095.0,2801.0,2861.0,2674.0,3.21,6.2,11.16,0.01,-0.01,-0.15,0.0,g
2959.0,3755.0,2948.0,4095.0,4095.0,2809.0,2864.0,2679.0,3.35,6.15,11.3,0.03,0.0,-0.13,0.0,g
2955.0,3737.0,2935.0,4095.0,4095.0,2801.0,2870.0,2677.0,3.55,6.02,11.55,-0.05,0.02,-0.11,0.0,g
2958.0,3741.0,2957.0,4095.0,4095.0,2795.0,2855.0,2672.0,3.45,6.02,11.56,0.06,-0.04,-0.22,0.0,g
2960.0,3769.0,2945.0,4095.0,4095.0,2789.0,2861.0,2676.0,3.11,6.11,11.38,0.02,-0.02,-0.18,0.0,g
2960.0,3757.0,2935.0,4095.0,4095.0,2789.0,2854.0,2673.0,3.27,6.16,11.19,0.03,-0.04,-0.15,0.0,g
2958.0,3746.0,2946.0,4095.0,4095.0,2805.0,2867.0,2673.0,3.41,6.07,11.32,-0.01,-0.02,-0.12,0.0,g
2955.0,3758.0,2946.0,4095.0,4095.0,2797.0,2882.0,2674.0,3.6,6.04,11.39,0.01,-0.03,-0.17,0.0,g
2959.0,3754.0,2943.0,4095.0,4095.0,2794.0,2864.0,2669.0,3.44,5.9,11.6,-0.01,-0.03,-0.18,0.0,g
2959.0,3744.0,2935.0,4095.0,4095.0,2796.0,2864.0,2672.0,3.54,5.96,11.43,0.03,0.01,-0.15,0.0,g
2956.0,3763.0,2943.0,4095.0,4095.0,2800.0,2865.0,2673.0,3.51,6.0,11.45,0.02,-0.01,-0.19,0.0,g
2959.0,3743.0,2948.0,4095.0,4095.0,2800.0,2864.0,2672.0,3.38,5.99,11.59,0.03,-0.01,-0.16,0.0,g
2959.0,3760.0,2950.0,4095.0,4095.0,2789.0,2851.0,2666.0,3.35,6.11,11.33,0.05,0.0,-0.17,0.0,g
2960.0,3766.0,2943.0,4095.0,4095.0,2780.0,2841.0,2658.0,3.42,6.1,11.39,0.05,-0.01,-0.18,0.0,g
2967.0,3773.0,2943.0,4095.0,4095.0,2777.0,2834.0,2655.0,3.39,6.2,11.23,0.09,-0.0,-0.18,0.0,g
2948.0,3761.0,2940.0,4095.0,4095.0,2775.0,2831.0,2653.0,3.13,6.09,11.59,0.19,0.04,-0.08,0.0,g
2960.0,3794.0,2950.0,4095.0,4095.0,2768.0,2829.0,2649.0,3.15,6.02,12.09,0.85,0.24,0.17,0.0,g
2957.0,3802.0,2930.0,4095.0,4095.0,2768.0,2832.0,2646.0,2.93,6.9,10.04,0.89,0.36,0.02,0.0,g
2957.0,3194.0,2932.0,4095.0,4095.0,2672.0,2685.0,2551.0,3.22,6.23,11.34,-0.02,-0.04,-0.17,0.0,g
2955.0,3187.0,2940.0,4095.0,4095.0,2674.0,2690.0,2555.0,3.1,6.28,11.3,0.03,-0.0,-0.16,0.0,g
2959.0,3200.0,2947.0,4095.0,4095.0,2675.0,2694.0,2559.0,3.14,6.21,11.36,-0.01,-0.01,-0.16,0.0,g
2960.0,3185.0,2935.0,4095.0,4095.0,2676.0,2687.0,2557.0,3.17,6.13,11.38,-0.05,-0.02,-0.15,0.0,g
2947.0,3200.0,2937.0,4095.0,4095.0,2683.0,2694.0,2559.0,3.13,6.14,11.5,-0.01,0.0,-0.18,0.0,g
2958.0,3205.0,2946.0,4095.0,4095.0,2676.0,2690.0,2559.0,3.09,6.15,11.43,-0.02,-0.02,-0.2,0.0,g
2957.0,3205.0,2936.0,4095.0,4095.0,2681.0,2695.0,2559.0,2.85,6.25,11.39,-0.0,-0.03,-0.16,0.0,g
2946.0,3189.0,2935.0,4095.0,4095.0,2673.0,2683.0,2559.0,3.14,6.1,11.4,0.01,0.01,-0.13,0.0,g
2959.0,3211.0,2945.0,4095.0,4095.0,2675.0,2699.0,2559.0,3.28,6.13,11.53,-0.06,-0.03,-0.12,0.0,g
2951.0,3223.0,2943.0,4095.0,4095.0,2682.0,2699.0,2559.0,3.28,6.05,11.63,0.05,-0.02,-0.17,0.0,g
2964.0,3222.0,2949.0,4095.0,4095.0,2670.0,2695.0,2559.0,3.14,6.11,11.42,0.03,0.02,-0.13,0.0,g
2960.0,3223.0,2941.0,4095.0,4095.0,2683.0,2696.0,2559.0,3.2,6.18,11.4,0.02,-0.03,-0.17,0.0,g
2960.0,3227.0,2943.0,4095.0,4095.0,2687.0,2709.0,2559.0,3.31,6.1,11.53,-0.01,-0.0,-0.16,0.0,g
2961.0,3247.0,2932.0,4095.0,4095.0,2679.0,2698.0,2559.0,3.09,6.24,11.35,0.06,-0.06,-0.19,0.0,g
2966.0,3270.0,2943.0,4095.0,4095.0,2685.0,2695.0,2559.0,3.07,6.07,11.28,0.03,-0.04,-0.12,0.0,g
2953.0,3285.0,2937.0,4095.0,4095.0,2672.0,2704.0,2559.0,2.94,6.21,11.64,0.1,-0.04,-0.01,0.0,g
2949.0,3280.0,2934.0,4095.0,4095.0,2681.0,2704.0,2559.0,3.46,6.01,11.69,0.19,0.14,0.04,0.0,g
2960.0,3279.0,2937.0,4095.0,4095.0,2674.0,2709.0,2587.0,3.31,6.18,11.41,0.25,0.21,-0.07,0.0,g
2951.0,3278.0,2941.0,4095.0,4095.0,2683.0,2717.0,2595.0,3.11,6.52,11.08,0.15,-0.04,-0.15,0.0,g
2952.0,3287.0,2938.0,4095.0,4095.0,2678.0,2716.0,2601.0,3.27,6.37,11.17,0.01,-0.01,-0.15,0.0,g
2958.0,3445.0,2027.0,4095.0,4095.0,2737.0,2858.0,2587.0,4.19,6.03,11.09,0.27,0.12,-0.59,0.0,g
2960.0,3456.0,2091.0,4095.0,4095.0,2649.0,2751.0,2462.0,4.15,6.34,11.21,0.37,0.3,-0.7,0.0,g
2959.0,3465.0,2101.0,4095.0,4095.0,2645.0,2736.0,2444.0,3.54,6.6,10.59,0.3,0.19,-0.67,0.0,g
2953.0,3451.0,2097.0,4095.0,4095.0,2650.0,2734.0,2437.0,3.1,6.6,10.31,0.05,-0.13,-0.25,0.0,g
2949.0,3453.0,2087.0,4095.0,4095.0,2651.0,2757.0,2453.0,3.72,6.7,10.52,-0.24,0.06,-0.05,0.0,g
2958.0,3456.0,2091.0,4095.0,4095.0,2672.0,2771.0,2477.0,3.58,6.48,11.11,-0.29,0.25,-0.05,0.0,g
2957.0,3456.0,2081.0,4095.0,4095.0,2678.0,2786.0,2485.0,3.61,6.28,10.62,-0.55,0.43,0.07,0.0,g
2958.0,3454.0,2090.0,4095.0,4095.0,2687.0,2799.0,2496.0,2.82,6.18,11.08,-0.73,0.3,0.05,0.0,g
2957.0,3458.0,2095.0,4095.0,4095.0,2687.0,2804.0,2495.0,3.08,5.53,11.2,-0.98,0.02,0.15,0.0,g
2958.0,3450.0,2106.0,4095.0,4095.0,2687.0,2800.0,2512.0,3.16,5.47,11.78,-0.61,0.19,0.1,0.0,g
2960.0,3446.0,2107.0,4095.0,4095.0,2698.0,2821.0,2529.0,3.64,4.82,12.32,-0.61,-0.06,0.16,0.0,g
2954.0,3450.0,2105.0,4095.0,4095.0,2702.0,2829.0,2533.0,3.59,4.7,12.77,-0.12,0.09,-0.12,0.0,g
2961.0,3451.0,2116.0,4095.0,4095.0,2710.0,2832.0,2542.0,3.51,4.6,12.58,-0.03,0.03,-0.21,0.0,g
2955.0,3454.0,2108.0,4095.0,4095.0,2710.0,2832.0,2544.0,3.35,4.74,12.44,-0.01,-0.0,-0.24,0.0,g
2960.0,3447.0,2112.0,4095.0,4095.0,2710.0,2833.0,2548.0,3.21,4.76,12.54,-0.02,0.03,-0.11,0.0,g
2948.0,3450.0,2108.0,4095.0,4095.0,2711.0,2834.0,2557.0,3.25,4.87,12.29,0.02,0.01,-0.16,0.0,g
2960.0,3444.0,2113.0,4095.0,4095.0,2719.0,2842.0,2559.0,3.26,4.84,12.39,0.01,0.04,-0.12,0.0,g
2957.0,3443.0,2103.0,4095.0,4095.0,2727.0,2851.0,2559.0,3.14,4.95,12.18,0.0,-0.06,-0.18,0.0,g
2957.0,3442.0,2101.0,4095.0,4095.0,2723.0,2843.0,2555.0,3.28,4.91,12.25,0.03,-0.01,-0.15,0.0,g
2949.0,3440.0,2106.0,4095.0,4095.0,2725.0,2851.0,2559.0,3.23,4.84,12.31,0.0,0.0,-0.17,0.0,g
2958.0,3328.0,2666.0,4095.0,4095.0,2527.0,2599.0,2365.0,2.89,5.26,12.15,0.03,-0.04,-0.2,0.0,g
2953.0,3311.0,2663.0,4095.0,4095.0,2513.0,2601.0,2366.0,2.96,5.21,12.21,-0.03,-0.03,-0.2,0.0,g
2955.0,3313.0,2667.0,4095.0,4095.0,2527.0,2607.0,2374.0,2.92,5.19,12.19,0.01,-0.03,-0.23,0.0,g
2965.0,3313.0,2663.0,4095.0,4095.0,2545.0,2614.0,2379.0,2.97,5.14,12.19,-0.05,-0.02,-0.14,0.0,g
2960.0,3309.0,2669.0,4095.0,4095.0,2542.0,2612.0,2381.0,2.98,5.17,12.28,0.02,-0.02,-0.18,0.0,g
2955.0,3314.0,2659.0,4095.0,4095.0,2545.0,2621.0,2385.0,3.1,5.18,12.2,0.03,0.01,-0.15,0.0,g
2947.0,3312.0,2658.0,4095.0,4095.0,2551.0,2617.0,2384.0,2.96,5.22,12.2,0.01,-0.01,-0.18,0.0,g
2951.0,3318.0,2658.0,4095.0,4095.0,2550.0,2623.0,2397.0,3.04,5.15,12.26,-0.0,-0.02,-0.16,0.0,g
2965.0,3323.0,2661.0,4095.0,4095.0,2555.0,2623.0,2388.0,3.02,5.17,12.2,-0.01,-0.0,-0.16,0.0,g
2955.0,3312.0,2655.0,4095.0,4095.0,2551.0,2623.0,2385.0,2.95,5.11,12.32,-0.02,-0.02,-0.18,0.0,g
2960.0,3318.0,2657.0,4095.0,4095.0,2559.0,2624.0,2391.0,3.02,5.13,12.26,-0.0,0.0,-0.15,0.0,g
2960.0,3317.0,2658.0,4095.0,4095.0,2559.0,2624.0,2394.0,2.94,5.29,12.06,-0.02,-0.03,-0.19,0.0,g
2960.0,3323.0,2651.0,4095.0,4095.0,2559.0,2628.0,2399.0,2.99,5.18,12.34,-0.02,0.01,-0.16,0.0,g
2958.0,3323.0,2654.0,4095.0,4095.0,2559.0,2626.0,2401.0,3.11,5.04,12.28,-0.07,-0.02,-0.21,0.0,g
2942.0,3321.0,2657.0,4095.0,4095.0,2559.0,2623.0,2394.0,2.93,5.01,12.33,0.01,0.02,-0.15,0.0,g
2951.0,3318.0,2646.0,4095.0,4095.0,2559.0,2631.0,2394.0,2.95,5.02,12.46,-0.0,-0.02,-0.2,0.0,g
2954.0,3325.0,2656.0,4095.0,4095.0,2559.0,2628.0,2399.0,2.82,5.14,12.12,0.03,-0.04,-0.19,0.0,g
2960.0,3329.0,2658.0,4095.0,4095.0,2559.0,2639.0,2407.0,3.11,5.07,12.19,-0.02,0.0,-0.14,0.0,g
2955.0,3341.0,2657.0,4095.0,4095.0,2559.0,2631.0,2400.0,3.12,5.05,12.43,0.05,0.01,-0.2,0.0,g
2949.0,3329.0,2655.0,4095.0,4095.0,2559.0,2635.0,2397.0,2.83,5.07,12.44,0.05,0.02,-0.17,0.0,g
2951.0,923.0,2942.0,4095.0,4095.0,2658.0,2671.0,2512.0,3.38,5.15,12.11,0.04,-0.0,-0.18,0.0,g
2954.0,906.0,2930.0,4095.0,4095.0,2651.0,2673.0,2511.0,3.39,5.13,12.16,0.06,0.05,-0.15,0.0,g
2948.0,917.0,2937.0,4095.0,4095.0,2658.0,2672.0,2512.0,3.31,5.07,12.17,-0.0,-0.03,-0.17,0.0,g
2955.0,912.0,2939.0,4095.0,4095.0,2660.0,2678.0,2515.0,3.25,5.15,12.03,0.05,0.01,-0.18,0.0,g
2946.0,908.0,2950.0,4095.0,4095.0,2663.0,2679.0,2518.0,3.13,5.14,12.04,-0.01,-0.03,-0.15,0.0,g
2949.0,907.0,2936.0,4095.0,4095.0,2661.0,2679.0,2515.0,3.36,5.03,12.25,0.04,0.0,-0.17,0.0,g
2960.0,900.0,2942.0,4095.0,4095.0,2666.0,2684.0,2517.0,3.44,4.99,12.17,0.0,-0.0,-0.17,0.0,g
2960.0,910.0,2929.0,4095.0,4095.0,2667.0,2685.0,2512.0,3.25,5.07,12.36,0.15,0.05,-0.2,0.0,g
2951.0,909.0,2928.0,4095.0,4095.0,2660.0,2688.0,2514.0,3.29,5.24,12.03,0.04,0.01,-0.13,0.0,g
2953.0,911.0,2939.0,4095.0,4095.0,2675.0,2686.0,2524.0,3.28,5.23,12.1,0.07,0.0,-0.17,0.0,g
2959.0,907.0,2941.0,4095.0,4095.0,2669.0,2681.0,2529.0,3.25,5.35,11.97,-0.0,-0.03,-0.17,0.0,g
2962.0,903.0,2937.0,4095.0,4095.0,2669.0,2684.0,2529.0,3.11,5.28,11.99,0.02,0.02,-0.16,0.0,g
2962.0,899.0,2943.0,4095.0,4095.0,2666.0,2690.0,2534.0,3.19,5.26,12.03,-0.02,-0.0,-0.15,0.0,g
2960.0,912.0,2937.0,4095.0,4095.0,2673.0,2686.0,2530.0,3.37,5.1,12.29,-0.0,-0.0,-0.15,0.0,g
2958.0,898.0,2930.0,4095.0,4095.0,2671.0,2683.0,2527.0,3.35,5.13,12.18,0.06,0.01,-0.23,0.0,g
2963.0,911.0,2939.0,4095.0,4095.0,2670.0,2681.0,2533.0,3.27,5.16,12.22,0.06,-0.01,-0.23,0.0,g
2949.0,893.0,2941.0,4095.0,4095.0,2671.0,2686.0,2535.0,3.02,5.31,11.97,0.05,-0.01,-0.21,0.0,g
2958.0,895.0,2928.0,4095.0,4095.0,2678.0,2686.0,2539.0,3.2,5.3,12.07,0.07,0.01,-0.21,0.0,g
2957.0,907.0,2934.0,4095.0,4095.0,2660.0,2688.0,2540.0,3.08,5.38,11.93,0.06,0.02,-0.19,0.0,g
2951.0,902.0,2928.0,4095.0,4095.0,2665.0,2683.0,2528.0,3.18,5.26,12.15,0.03,0.04,-0.18,0.0,g
2951.0,3739.0,1565.0,4095.0,4095.0,2787.0,2880.0,2693.0,3.13,6.11,11.53,0.06,-0.01,-0.2,0.0,g
2951.0,3739.0,1565.0,4095.0,4095.0,2787.0,2880.0,2693.0,3.13,6.11,11.53,0.06,-0.01,-0.2,0.0,g
2953.0,3729.0,1563.0,4095.0,4095.0,2786.0,2884.0,2685.0,3.03,6.16,11.34,0.06,0.01,-0.2,0.0,g
2959.0,3728.0,1562.0,4095.0,4095.0,2785.0,2882.0,2685.0,3.04,6.15,11.33,0.02,-0.01,-0.18,0.0,g
2962.0,3746.0,1563.0,4095.0,4095.0,2785.0,2882.0,2688.0,3.07,6.12,11.47,-0.02,-0.02,-0.16,0.0,g
2962.0,3753.0,1555.0,4095.0,4095.0,2792.0,2885.0,2690.0,3.25,6.01,11.61,0.03,-0.01,-0.16,0.0,g
2959.0,3728.0,1566.0,4095.0,4095.0,2786.0,2886.0,2694.0,3.2,6.13,11.4,0.03,-0.03,-0.2,0.0,g
2959.0,3754.0,1562.0,4095.0,4095.0,2790.0,2890.0,2691.0,3.19,6.17,11.46,0.04,-0.02,-0.18,0.0,g
2960.0,3728.0,1562.0,4095.0,4095.0,2783.0,2882.0,2689.0,3.2,6.13,11.44,0.09,0.01,-0.17,0.0,g
2960.0,3734.0,1563.0,4095.0,4095.0,2787.0,2887.0,2689.0,3.21,6.2,11.27,0.04,-0.0,-0.16,0.0,g
2960.0,3729.0,1556.0,4095.0,4095.0,2791.0,2883.0,2693.0,3.21,6.11,11.55,-0.01,-0.01,-0.15,0.0,g
2957.0,3751.0,1563.0,4095.0,4095.0,2791.0,2896.0,2692.0,3.03,6.22,11.31,0.02,-0.06,-0.19,0.0,g
2960.0,3746.0,1558.0,4095.0,4095.0,2793.0,2895.0,2695.0,3.07,6.11,11.52,-0.04,-0.0,-0.17,0.0,g
2949.0,3737.0,1555.0,4095.0,4095.0,2786.0,2885.0,2692.0,3.24,6.09,11.52,-0.01,-0.02,-0.16,0.0,g
2950.0,3728.0,1535.0,4095.0,4095.0,2791.0,2892.0,2689.0,3.24,6.09,11.45,0.02,0.03,-0.18,0.0,g
2951.0,3746.0,1556.0,4095.0,4095.0,2799.0,2896.0,2698.0,3.06,6.43,10.79,-0.07,-0.01,-0.25,0.0,g
2954.0,3739.0,1535.0,4095.0,4095.0,2794.0,2890.0,2696.0,2.85,6.14,11.87,-0.24,-0.0,-0.13,0.0,g
2947.0,3735.0,1559.0,4095.0,4095.0,2794.0,2885.0,2693.0,2.96,6.05,11.84,0.13,-0.02,-0.18,0.0,g
2950.0,3744.0,1535.0,4095.0,4095.0,2795.0,2893.0,2701.0,3.26,5.96,11.31,0.07,-0.05,-0.22,0.0,g
2957.0,3759.0,1535.0,4095.0,4095.0,2798.0,2893.0,2711.0,3.24,6.01,11.49,0.0,-0.05,-0.15,0.0,g
2960.0,3718.0,2425.0,4095.0,4095.0,2672.0,2717.0,2521.0,3.22,5.52,11.64,0.08,-0.03,-0.07,0.0,g
2958.0,3723.0,2422.0,4095.0,4095.0,2676.0,2689.0,2520.0,3.34,5.39,12.24,0.11,0.1,-0.18,0.0,g
2946.0,3728.0,2426.0,4095.0,4095.0,2678.0,2704.0,2529.0,2.97,5.23,12.24,0.02,-0.11,-0.26,0.0,g
2956.0,3729.0,2427.0,4095.0,4095.0,2681.0,2705.0,2526.0,3.31,5.12,12.22,0.13,-0.07,-0.29,0.0,g
2950.0,3719.0,2427.0,4095.0,4095.0,2683.0,2706.0,2526.0,3.19,5.34,12.01,0.16,0.06,-0.15,0.0,g
2957.0,3729.0,2423.0,4095.0,4095.0,2686.0,2705.0,2538.0,3.22,5.49,11.88,0.06,-0.04,-0.16,0.0,g
2946.0,3727.0,2418.0,4095.0,4095.0,2683.0,2730.0,2529.0,3.04,5.61,11.9,0.08,-0.01,-0.22,0.0,g
2948.0,3730.0,2424.0,4095.0,4095.0,2689.0,2710.0,2533.0,3.17,5.57,11.82,-0.0,-0.06,-0.23,0.0,g
2958.0,3729.0,2435.0,4095.0,4095.0,2689.0,2706.0,2535.0,3.24,5.54,11.81,0.02,-0.04,-0.23,0.0,g
2951.0,3727.0,2418.0,4095.0,4095.0,2694.0,2707.0,2530.0,3.27,5.28,12.03,-0.02,-0.01,-0.12,0.0,g
2949.0,3743.0,2431.0,4095.0,4095.0,2692.0,2713.0,2533.0,3.38,5.41,12.22,0.1,0.02,-0.16,0.0,g
2945.0,3715.0,2431.0,4095.0,4095.0,2689.0,2710.0,2534.0,3.22,5.49,11.97,0.12,-0.03,-0.25,0.0,g
2957.0,3727.0,2429.0,4095.0,4095.0,2694.0,2711.0,2543.0,2.94,5.66,11.86,0.08,-0.06,-0.19,0.0,g
2950.0,3719.0,2423.0,4095.0,4095.0,2687.0,2705.0,2537.0,3.12,5.73,11.69,0.04,-0.09,-0.19,0.0,g
2955.0,3730.0,2425.0,4095.0,4095.0,2691.0,2705.0,2539.0,3.36,5.7,11.72,0.1,0.03,-0.13,0.0,g
2952.0,3728.0,2421.0,4095.0,4095.0,2687.0,2710.0,2539.0,3.4,5.6,11.82,-0.05,-0.03,-0.14,0.0,g
2955.0,3728.0,2429.0,4095.0,4095.0,2697.0,2718.0,2542.0,3.28,5.63,12.05,0.11,0.06,-0.16,0.0,g
2959.0,3729.0,2432.0,4095.0,4095.0,2698.0,2715.0,2544.0,3.2,5.76,11.77,-0.01,-0.04,-0.2,0.0,g
2955.0,3728.0,2432.0,4095.0,4095.0,2692.0,2711.0,2543.0,2.98,5.74,11.58,0.04,-0.04,-0.15,0.0,g
2963.0,3733.0,2431.0,4095.0,4095.0,2694.0,2710.0,2545.0,3.24,5.6,11.78,-0.04,-0.03,-0.15,0.0,g
2958.0,3671.0,2477.0,4095.0,4095.0,2557.0,2593.0,2390.0,3.21,5.21,12.17,-0.06,-0.0,-0.11,0.0,g
2959.0,3692.0,2477.0,4095.0,4095.0,2559.0,2601.0,2395.0,3.1,5.28,12.16,-0.02,-0.02,-0.17,0.0,g
2959.0,3705.0,2473.0,4095.0,4095.0,2559.0,2604.0,2401.0,3.17,5.28,12.13,-0.01,0.01,-0.15,0.0,g
2960.0,3687.0,2473.0,4095.0,4095.0,2559.0,2607.0,2405.0,3.13,5.28,12.3,0.01,-0.07,-0.26,0.0,g
2960.0,3684.0,2476.0,4095.0,4095.0,2559.0,2608.0,2411.0,3.0,5.33,12.05,0.0,-0.1,-0.23,0.0,g
2951.0,3696.0,2475.0,4095.0,4095.0,2559.0,2609.0,2415.0,3.0,5.33,12.07,0.01,-0.02,-0.18,0.0,g
2960.0,3681.0,2480.0,4095.0,4095.0,2559.0,2608.0,2420.0,3.06,5.37,12.13,-0.0,0.04,-0.13,0.0,g
2950.0,3687.0,2471.0,4095.0,4095.0,2559.0,2613.0,2414.0,3.07,5.33,12.09,0.05,-0.05,-0.18,0.0,g
2948.0,3677.0,2468.0,4095.0,4095.0,2559.0,2608.0,2417.0,3.04,5.34,12.08,0.01,-0.01,-0.16,0.0,g
2955.0,3686.0,2473.0,4095.0,4095.0,2559.0,2611.0,2419.0,3.09,5.39,12.11,0.03,-0.06,-0.17,0.0,g
2960.0,3694.0,2473.0,4095.0,4095.0,2582.0,2613.0,2423.0,3.26,5.32,12.08,0.01,0.05,-0.12,0.0,g
2949.0,3682.0,2470.0,4095.0,4095.0,2559.0,2612.0,2426.0,3.19,5.3,12.09,0.07,-0.03,-0.2,0.0,g
2951.0,3687.0,2475.0,4095.0,4095.0,2559.0,2614.0,2425.0,2.91,5.39,11.96,0.02,-0.01,-0.16,0.0,g
2951.0,3690.0,2471.0,4095.0,4095.0,2559.0,2623.0,2432.0,3.06,5.38,11.87,-0.08,-0.07,-0.14,0.0,g
2960.0,3695.0,2470.0,4095.0,4095.0,2559.0,2624.0,2438.0,3.06,5.27,12.32,-0.12,-0.02,-0.21,0.0,g
2951.0,3696.0,2466.0,4095.0,4095.0,2559.0,2624.0,2438.0,2.75,5.53,12.22,-0.02,-0.19,-0.28,0.0,g
2947.0,3710.0,2467.0,4095.0,4095.0,2593.0,2635.0,2437.0,3.08,5.17,11.95,0.06,0.02,-0.22,0.0,g
2957.0,3695.0,2480.0,4095.0,4095.0,2591.0,2634.0,2442.0,2.9,5.29,12.11,-0.08,-0.11,-0.21,0.0,g
2950.0,3698.0,2466.0,4095.0,4095.0,2591.0,2634.0,2437.0,2.88,5.22,12.33,0.09,-0.02,-0.14,0.0,g
2960.0,3670.0,2474.0,4095.0,4095.0,2593.0,2635.0,2437.0,3.43,5.36,11.88,0.0,-0.03,-0.06,0.0,g
2959.0,3536.0,2502.0,4095.0,4095.0,2496.0,2523.0,2338.0,3.62,5.3,11.9,0.03,-0.04,-0.17,0.0,g
2960.0,3525.0,2494.0,4095.0,4095.0,2497.0,2517.0,2335.0,3.51,5.48,11.73,0.01,-0.03,-0.18,0.0,g
2958.0,3543.0,2495.0,4095.0,4095.0,2494.0,2525.0,2339.0,3.58,5.37,11.96,0.0,0.06,-0.13,0.0,g
2967.0,3537.0,2495.0,4095.0,4095.0,2495.0,2526.0,2343.0,3.49,5.44,11.98,0.03,-0.02,-0.19,0.0,g
2957.0,3525.0,2490.0,4095.0,4095.0,2487.0,2518.0,2339.0,3.53,5.42,11.84,0.04,0.02,-0.18,0.0,g
2955.0,3532.0,2496.0,4095.0,4095.0,2496.0,2525.0,2345.0,3.44,5.44,11.85,0.06,0.03,-0.18,0.0,g
2962.0,3536.0,2485.0,4095.0,4095.0,2495.0,2530.0,2344.0,3.4,5.46,11.88,0.1,0.04,-0.17,0.0,g
2955.0,3534.0,2493.0,4095.0,4095.0,2496.0,2528.0,2349.0,3.5,5.53,11.68,-0.01,0.01,-0.16,0.0,g
2953.0,3527.0,2489.0,4095.0,4095.0,2501.0,2528.0,2347.0,3.53,5.53,11.83,-0.0,-0.02,-0.19,0.0,g
2957.0,3523.0,2489.0,4095.0,4095.0,2499.0,2532.0,2349.0,3.41,5.45,11.87,-0.03,0.02,-0.18,0.0,g
2948.0,3529.0,2490.0,4095.0,4095.0,2502.0,2535.0,2346.0,3.39,5.5,11.83,0.04,0.01,-0.17,0.0,g
2959.0,3547.0,2496.0,4095.0,4095.0,2509.0,2545.0,2349.0,3.43,5.43,11.88,-0.01,0.03,-0.14,0.0,g
2955.0,3533.0,2484.0,4095.0,4095.0,2501.0,2542.0,2347.0,3.43,5.47,11.9,0.05,-0.01,-0.19,0.0,g
2957.0,3537.0,2487.0,4095.0,4095.0,2499.0,2536.0,2351.0,3.27,5.45,11.94,0.0,-0.02,-0.17,0.0,g
2955.0,3559.0,2491.0,4095.0,4095.0,2503.0,2543.0,2349.0,3.25,5.55,11.78,0.09,-0.06,-0.18,0.0,g
2963.0,3527.0,2491.0,4095.0,4095.0,2501.0,2544.0,2352.0,3.49,5.52,11.73,-0.0,-0.01,-0.16,0.0,g
2959.0,3547.0,2492.0,4095.0,4095.0,2501.0,2543.0,2357.0,3.55,5.57,11.66,-0.01,-0.04,-0.17,0.0,g
2957.0,3538.0,2490.0,4095.0,4095.0,2503.0,2544.0,2359.0,3.54,5.49,11.78,-0.06,0.02,-0.16,0.0,g
2960.0,3540.0,2499.0,4095.0,4095.0,2499.0,2544.0,2356.0,3.37,5.35,12.14,0.01,-0.01,-0.21,0.0,g
2957.0,3536.0,2487.0,4095.0,4095.0,2502.0,2543.0,2355.0,3.28,5.41,11.98,0.0,-0.01,-0.17,0.0,g
2958.0,3610.0,2443.0,4095.0,4095.0,2608.0,2640.0,2415.0,3.36,4.59,12.6,0.03,0.09,-0.19,0.0,g
2956.0,3583.0,2438.0,4095.0,4095.0,2607.0,2633.0,2410.0,3.22,4.77,12.53,0.03,0.03,-0.19,0.0,g
2951.0,3602.0,2443.0,4095.0,4095.0,2598.0,2633.0,2412.0,3.03,4.82,12.28,0.14,0.02,-0.22,0.0,g
2955.0,3603.0,2439.0,4095.0,4095.0,2605.0,2639.0,2415.0,2.93,4.8,12.17,-0.02,-0.02,-0.13,0.0,g
2959.0,3615.0,2441.0,4095.0,4095.0,2605.0,2640.0,2419.0,3.03,4.73,12.35,0.05,-0.04,-0.11,0.0,g
2955.0,3600.0,2437.0,4095.0,4095.0,2608.0,2638.0,2416.0,3.34,4.58,12.38,0.01,-0.02,-0.04,0.0,g
2951.0,3607.0,2437.0,4095.0,4095.0,2605.0,2637.0,2417.0,3.63,4.56,12.57,0.04,-0.08,-0.05,0.0,g
2949.0,3600.0,2437.0,4095.0,4095.0,2595.0,2637.0,2416.0,3.96,4.6,12.43,0.1,0.01,-0.08,0.0,g
2955.0,3603.0,2445.0,4095.0,4095.0,2604.0,2630.0,2411.0,3.73,4.69,12.39,0.04,0.02,-0.12,0.0,g
2955.0,3615.0,2448.0,4095.0,4095.0,2607.0,2640.0,2416.0,3.52,4.76,12.37,0.06,0.07,-0.13,0.0,g
2954.0,3609.0,2442.0,4095.0,4095.0,2599.0,2635.0,2416.0,3.34,4.83,12.25,0.07,-0.01,-0.16,0.0,g
2955.0,3610.0,2433.0,4095.0,4095.0,2608.0,2642.0,2431.0,3.44,4.85,12.21,0.05,0.04,-0.14,0.0,g
2954.0,3615.0,2436.0,4095.0,4095.0,2608.0,2638.0,2418.0,3.42,4.88,12.26,0.07,0.03,-0.17,0.0,g
2953.0,3603.0,2443.0,4095.0,4095.0,2591.0,2627.0,2416.0,3.37,4.89,12.22,0.05,0.05,-0.17,0.0,g
2961.0,3601.0,2438.0,4095.0,4095.0,2609.0,2640.0,2421.0,3.24,4.94,12.25,0.04,0.03,-0.14,0.0,g
2951.0,3609.0,2446.0,4095.0,4095.0,2608.0,2644.0,2416.0,3.43,4.88,12.17,0.06,0.03,-0.1,0.0,g
2947.0,3609.0,2433.0,4095.0,4095.0,2610.0,2639.0,2416.0,3.59,4.87,12.19,0.01,0.03,-0.1,0.0,g
2957.0,3611.0,2439.0,4095.0,4095.0,2608.0,2643.0,2421.0,3.45,4.99,11.91,-0.07,-0.05,-0.16,0.0,g
2951.0,3600.0,2442.0,4095.0,4095.0,2587.0,2630.0,2416.0,3.56,4.94,12.12,-0.16,-0.05,-0.17,0.0,g
2948.0,3582.0,2439.0,4095.0,4095.0,2582.0,2629.0,2415.0,3.51,4.7,12.6,-0.1,-0.03,-0.26,0.0,g
2951.0,4020.0,2631.0,4095.0,4095.0,2448.0,2487.0,2353.0,4.08,4.26,12.3,-0.08,-0.04,-0.19,0.0,g
2960.0,4019.0,2637.0,4095.0,4095.0,2450.0,2481.0,2363.0,3.85,4.23,12.43,-0.02,-0.06,-0.19,0.0,g
2962.0,4014.0,2629.0,4095.0,4095.0,2451.0,2496.0,2365.0,3.8,4.35,12.29,-0.03,-0.16,-0.24,0.0,g
2960.0,4027.0,2637.0,4095.0,4095.0,2455.0,2503.0,2365.0,4.01,4.35,12.36,0.09,0.07,-0.14,0.0,g
2960.0,4021.0,2642.0,4095.0,4095.0,2457.0,2502.0,2363.0,4.06,4.49,12.15,0.04,-0.05,-0.15,0.0,g
2958.0,4043.0,2643.0,4095.0,4095.0,2458.0,2502.0,2369.0,4.11,4.4,12.16,-0.0,0.05,-0.11,0.0,g
2950.0,4015.0,2640.0,4095.0,4095.0,2454.0,2512.0,2373.0,3.98,4.37,12.26,0.01,-0.02,-0.18,0.0,g
2947.0,4016.0,2640.0,4095.0,4095.0,2461.0,2507.0,2374.0,3.96,4.29,12.65,0.13,0.02,-0.24,0.0,g
2960.0,4019.0,2652.0,4095.0,4095.0,2468.0,2517.0,2384.0,3.62,4.56,12.03,0.11,-0.04,-0.26,0.0,g
2960.0,4021.0,2659.0,4095.0,4095.0,2465.0,2519.0,2385.0,3.97,4.25,12.31,-0.1,-0.06,-0.05,0.0,g
2959.0,4006.0,2656.0,4095.0,4095.0,2467.0,2524.0,2381.0,4.29,4.16,12.33,-0.01,-0.01,-0.03,0.0,g
2960.0,4014.0,2655.0,4095.0,4095.0,2474.0,2530.0,2394.0,4.3,4.29,12.37,-0.03,-0.04,-0.12,0.0,g
2953.0,4018.0,2659.0,4095.0,4095.0,2489.0,2531.0,2400.0,4.21,4.52,12.12,0.04,-0.03,-0.18,0.0,g
2945.0,4003.0,2659.0,4095.0,4095.0,2466.0,2535.0,2398.0,4.39,4.36,12.21,0.1,0.03,-0.2,0.0,g
2957.0,3995.0,2660.0,4095.0,4095.0,2474.0,2537.0,2393.0,3.97,4.37,12.24,0.01,0.01,-0.19,0.0,g
2960.0,4013.0,2663.0,4095.0,4095.0,2480.0,2544.0,2405.0,3.93,4.4,12.64,0.19,0.11,-0.16,0.0,g
2961.0,4007.0,2666.0,4095.0,4095.0,2480.0,2551.0,2397.0,3.27,4.59,12.34,0.31,0.19,-0.02,0.0,g
2951.0,3986.0,2670.0,4095.0,4095.0,2489.0,2555.0,2407.0,3.36,4.68,12.13,0.31,0.1,0.13,0.0,g
2963.0,3989.0,2672.0,4095.0,4095.0,2495.0,2559.0,2416.0,3.88,4.64,12.02,0.07,-0.06,0.08,0.0,g
2949.0,3983.0,2672.0,4095.0,4095.0,2493.0,2559.0,2406.0,4.39,4.73,11.96,0.1,-0.05,-0.02,0.0,g
2961.0,3969.0,2679.0,4095.0,4095.0,2497.0,2559.0,2443.0,3.93,5.19,11.59,-0.06,-0.03,-0.15,0.0,g
2957.0,3954.0,2688.0,4095.0,4095.0,2499.0,2559.0,2431.0,4.13,5.1,11.81,-0.03,-0.01,-0.13,0.0,g
2956.0,3952.0,2684.0,4095.0,4095.0,2493.0,2559.0,2425.0,4.18,5.11,11.86,0.03,-0.03,-0.13,0.0,g
2955.0,3939.0,2688.0,4095.0,4095.0,2498.0,2559.0,2431.0,4.08,5.07,11.7,-0.1,-0.03,-0.14,0.0,g
2957.0,3959.0,2687.0,4095.0,4095.0,2499.0,2585.0,2427.0,4.23,4.98,11.87,-0.0,-0.01,-0.14,0.0,g
2959.0,3939.0,2690.0,4095.0,4095.0,2503.0,2559.0,2438.0,4.21,4.98,11.75,-0.08,-0.03,-0.14,0.0,g
2957.0,3920.0,2681.0,4095.0,4095.0,2493.0,2559.0,2427.0,4.22,4.94,12.0,-0.04,-0.0,-0.15,0.0,g
2960.0,3945.0,2687.0,4095.0,4095.0,2503.0,2559.0,2434.0,4.09,4.95,11.96,0.02,0.0,-0.12,0.0,g
2955.0,3935.0,2695.0,4095.0,4095.0,2503.0,2559.0,2427.0,4.05,4.99,11.98,0.12,-0.01,-0.13,0.0,g
2951.0,3940.0,2703.0,4095.0,4095.0,2509.0,2585.0,2431.0,4.06,5.17,11.68,0.1,0.04,-0.09,0.0,g
2959.0,3937.0,2704.0,4095.0,4095.0,2506.0,2585.0,2426.0,4.19,5.14,11.58,0.03,0.01,-0.1,0.0,g
2950.0,3933.0,2704.0,4095.0,4095.0,2499.0,2559.0,2430.0,4.47,5.0,11.77,-0.04,0.05,-0.11,0.0,g
2960.0,3947.0,2706.0,4095.0,4095.0,2511.0,2587.0,2431.0,4.19,4.92,12.1,0.03,-0.02,-0.22,0.0,g
2954.0,3942.0,2702.0,4095.0,4095.0,2501.0,2582.0,2437.0,4.03,5.04,11.7,0.02,0.03,-0.18,0.0,g
2966.0,3951.0,2704.0,4095.0,4095.0,2503.0,2583.0,2438.0,3.97,5.01,11.96,0.03,0.03,-0.18,0.0,g
2955.0,3933.0,2705.0,4095.0,4095.0,2503.0,2586.0,2435.0,3.81,5.02,12.14,0.06,0.02,-0.2,0.0,g
2961.0,3938.0,2704.0,4095.0,4095.0,2503.0,2584.0,2430.0,3.56,5.1,12.09,0.15,-0.02,-0.19,0.0,g
2950.0,3952.0,2703.0,4095.0,4095.0,2503.0,2589.0,2423.0,3.58,5.57,11.48,0.3,0.05,-0.14,0.0,g
2960.0,3943.0,2710.0,4095.0,4095.0,2516.0,2608.0,2432.0,4.2,5.54,11.67,0.2,0.37,0.05,0.0,g
2959.0,3927.0,2700.0,4095.0,4095.0,2512.0,2583.0,2429.0,3.97,5.45,11.61,-0.01,0.16,-0.16,0.0,g
2956.0,3937.0,2928.0,4095.0,4095.0,2559.0,2559.0,2419.0,3.38,4.71,12.08,0.06,-0.06,-0.24,0.0,g
2960.0,3910.0,2920.0,4095.0,4095.0,2559.0,2559.0,2416.0,3.38,4.64,12.34,0.03,-0.01,-0.15,0.0,g
2960.0,3906.0,2925.0,4095.0,4095.0,2583.0,2559.0,2420.0,3.57,4.64,12.25,0.01,-0.05,-0.12,0.0,g
2945.0,3914.0,2919.0,4095.0,4095.0,2559.0,2559.0,2417.0,3.82,4.67,12.17,0.03,-0.03,-0.14,0.0,g
2949.0,3920.0,2926.0,4095.0,4095.0,2587.0,2559.0,2423.0,3.85,4.56,12.43,0.0,-0.02,-0.15,0.0,g
2960.0,3928.0,2926.0,4095.0,4095.0,2584.0,2559.0,2427.0,3.73,4.59,12.28,0.01,-0.02,-0.16,0.0,g
2958.0,3919.0,2923.0,4095.0,4095.0,2585.0,2559.0,2422.0,3.62,4.65,12.26,0.01,-0.03,-0.16,0.0,g
2959.0,3904.0,2927.0,4095.0,4095.0,2587.0,2559.0,2426.0,3.73,4.61,12.23,-0.03,0.02,-0.11,0.0,g
2959.0,3908.0,2925.0,4095.0,4095.0,2591.0,2559.0,2431.0,3.75,4.65,12.25,0.04,-0.05,-0.16,0.0,g
2961.0,3919.0,2927.0,4095.0,4095.0,2590.0,2559.0,2432.0,3.78,4.55,12.2,-0.04,-0.01,-0.1,0.0,g
2963.0,3920.0,2921.0,4095.0,4095.0,2590.0,2559.0,2429.0,3.83,4.55,12.29,-0.03,-0.04,-0.11,0.0,g
2960.0,3905.0,2926.0,4095.0,4095.0,2591.0,2559.0,2431.0,3.86,4.53,12.43,0.02,-0.0,-0.12,0.0,g
2957.0,3914.0,2921.0,4095.0,4095.0,2593.0,2559.0,2426.0,3.94,4.59,12.23,0.03,-0.01,-0.14,0.0,g
2957.0,3920.0,2922.0,4095.0,4095.0,2593.0,2559.0,2428.0,3.7,4.56,12.2,0.01,-0.02,-0.17,0.0,g
2960.0,3918.0,2923.0,4095.0,4095.0,2605.0,2591.0,2433.0,3.72,4.57,12.22,-0.0,-0.02,-0.13,0.0,g
2960.0,3899.0,2924.0,4095.0,4095.0,2587.0,2559.0,2427.0,3.93,4.49,12.55,0.02,-0.01,-0.15,0.0,g
2947.0,3906.0,2919.0,4095.0,4095.0,2589.0,2559.0,2429.0,3.75,4.62,12.26,0.02,-0.03,-0.18,0.0,g
2955.0,3919.0,2923.0,4095.0,4095.0,2583.0,2581.0,2431.0,3.58,4.55,12.24,0.01,-0.01,-0.16,0.0,g
2960.0,3911.0,2927.0,4095.0,4095.0,2593.0,2559.0,2432.0,3.87,4.48,12.5,0.04,0.0,-0.11,0.0,g
2948.0,3929.0,2924.0,4095.0,4095.0,2559.0,2559.0,2433.0,3.94,4.63,12.05,0.02,-0.03,-0.17,0.0,g
2954.0,3770.0,2941.0,4095.0,4095.0,2640.0,2640.0,2448.0,3.13,5.81,11.67,0.09,0.04,-0.11,0.0,g
2962.0,3768.0,2939.0,4095.0,4095.0,2640.0,2642.0,2459.0,3.22,5.88,11.55,0.16,0.03,-0.12,0.0,g
2955.0,3767.0,2934.0,4095.0,4095.0,2640.0,2639.0,2449.0,3.41,6.04,11.3,0.01,0.01,-0.08,0.0,g
2958.0,3769.0,2939.0,4095.0,4095.0,2645.0,2634.0,2451.0,3.6,5.96,11.54,0.11,0.01,-0.13,0.0,g
2948.0,3770.0,2929.0,4095.0,4095.0,2641.0,2639.0,2458.0,3.52,5.94,11.44,0.03,0.01,-0.17,0.0,g
2960.0,3775.0,2933.0,4095.0,4095.0,2642.0,2640.0,2460.0,3.35,5.89,11.7,0.11,-0.0,-0.18,0.0,g
2961.0,3775.0,2944.0,4095.0,4095.0,2640.0,2640.0,2453.0,3.16,5.97,11.48,0.09,-0.02,-0.18,0.0,g
2954.0,3760.0,2935.0,4095.0,4095.0,2635.0,2636.0,2455.0,3.29,5.97,11.54,0.07,0.03,-0.16,0.0,g
2957.0,3773.0,2934.0,4095.0,4095.0,2637.0,2640.0,2454.0,3.34,6.04,11.53,0.03,0.05,-0.13,0.0,g
2960.0,3765.0,2933.0,4095.0,4095.0,2634.0,2641.0,2454.0,3.24,6.17,11.37,0.05,0.0,-0.18,0.0,g
2953.0,3759.0,2942.0,4095.0,4095.0,2654.0,2641.0,2453.0,3.11,6.03,11.52,0.04,0.04,-0.17,0.0,g
2955.0,3758.0,2934.0,4095.0,4095.0,2640.0,2640.0,2460.0,3.19,5.96,11.47,0.08,0.0,-0.17,0.0,g
2947.0,3760.0,2941.0,4095.0,4095.0,2638.0,2641.0,2455.0,3.21,6.05,11.32,0.04,0.0,-0.12,0.0,g
2959.0,3766.0,2939.0,4095.0,4095.0,2640.0,2639.0,2462.0,3.37,6.06,11.44,0.06,-0.02,-0.17,0.0,g
2959.0,3777.0,2935.0,4095.0,4095.0,2640.0,2640.0,2461.0,3.39,6.01,11.6,0.01,0.03,-0.12,0.0,g
2960.0,3749.0,2934.0,4095.0,4095.0,2635.0,2641.0,2457.0,3.33,6.17,11.27,0.02,-0.01,-0.2,0.0,g
2955.0,3738.0,2944.0,4095.0,4095.0,2623.0,2637.0,2448.0,3.06,6.18,11.21,-0.09,0.14,-0.15,0.0,g
2947.0,3755.0,2942.0,4095.0,4095.0,2617.0,2632.0,2448.0,2.99,6.17,11.53,-0.04,-0.0,-0.12,0.0,g
2957.0,3747.0,2945.0,4095.0,4095.0,2622.0,2638.0,2451.0,3.38,6.0,11.49,-0.0,-0.04,-0.16,0.0,g
2961.0,3734.0,2930.0,4095.0,4095.0,2618.0,2631.0,2448.0,3.28,5.95,11.56,-0.04,-0.02,-0.16,0.0,g
2955.0,3666.0,2978.0,4095.0,4095.0,2640.0,2658.0,2448.0,2.96,6.91,10.86,0.07,-0.23,-0.26,0.0,g
2954.0,3665.0,2989.0,4095.0,4095.0,2639.0,2659.0,2447.0,3.02,6.96,10.63,-0.0,-0.02,-0.22,0.0,g
2950.0,3665.0,2981.0,4095.0,4095.0,2640.0,2657.0,2450.0,2.65,6.92,10.86,0.04,0.02,-0.18,0.0,g
2954.0,3685.0,2991.0,4095.0,4095.0,2646.0,2665.0,2448.0,3.01,6.86,10.97,0.02,0.08,-0.16,0.0,g
2950.0,3661.0,2988.0,4095.0,4095.0,2645.0,2667.0,2449.0,2.74,6.96,10.83,0.06,0.05,-0.18,0.0,g
2951.0,3671.0,2991.0,4095.0,4095.0,2646.0,2661.0,2448.0,2.7,6.97,10.71,0.04,0.02,-0.17,0.0,g
2959.0,3671.0,2981.0,4095.0,4095.0,2635.0,2662.0,2449.0,2.61,7.02,10.73,0.05,-0.0,-0.18,0.0,g
2953.0,3674.0,2974.0,4095.0,4095.0,2640.0,2657.0,2448.0,2.73,7.02,10.75,0.0,0.04,-0.14,0.0,g
2957.0,3680.0,2987.0,4095.0,4095.0,2651.0,2663.0,2448.0,2.65,7.05,10.73,0.07,0.05,-0.19,0.0,g
2959.0,3677.0,2983.0,4095.0,4095.0,2640.0,2657.0,2449.0,2.78,6.97,10.79,-0.01,0.05,-0.17,0.0,g
2961.0,3674.0,2985.0,4095.0,4095.0,2640.0,2661.0,2455.0,2.49,7.06,10.77,0.05,0.01,-0.2,0.0,g
2960.0,3673.0,2987.0,4095.0,4095.0,2641.0,2667.0,2452.0,2.56,6.94,10.86,-0.01,0.03,-0.17,0.0,g
2950.0,3686.0,2981.0,4095.0,4095.0,2643.0,2663.0,2453.0,2.54,7.07,10.66,-0.01,0.02,-0.15,0.0,g
2959.0,3679.0,2979.0,4095.0,4095.0,2649.0,2668.0,2459.0,2.71,6.87,11.05,0.02,0.09,-0.18,0.0,g
2953.0,3669.0,2981.0,4095.0,4095.0,2649.0,2662.0,2453.0,2.38,7.13,10.64,0.04,0.08,-0.2,0.0,g
2960.0,3670.0,2986.0,4095.0,4095.0,2647.0,2663.0,2455.0,2.62,6.95,10.79,-0.01,0.04,-0.16,0.0,g
2956.0,3674.0,2987.0,4095.0,4095.0,2651.0,2670.0,2455.0,2.55,7.04,10.96,0.09,0.03,-0.22,0.0,g
2960.0,3667.0,2977.0,4095.0,4095.0,2650.0,2662.0,2455.0,2.71,7.02,10.81,0.1,-0.04,-0.22,0.0,g
2961.0,3674.0,2978.0,4095.0,4095.0,2653.0,2658.0,2455.0,2.51,7.3,10.41,0.12,0.02,-0.25,0.0,g
2957.0,3675.0,2976.0,4095.0,4095.0,2647.0,2659.0,2455.0,2.33,7.2,10.76,0.35,0.2,-0.31,0.0,g
2959.0,3623.0,3007.0,4095.0,4095.0,2662.0,2705.0,2496.0,2.04,7.52,10.47,-0.01,0.01,-0.16,0.0,g
2961.0,3611.0,3007.0,4095.0,4095.0,2663.0,2704.0,2496.0,1.81,7.56,10.56,0.07,0.0,-0.17,0.0,g
2958.0,3620.0,3012.0,4095.0,4095.0,2662.0,2711.0,2500.0,1.76,7.43,10.43,0.04,0.04,-0.16,0.0,g
2966.0,3607.0,3011.0,4095.0,4095.0,2667.0,2711.0,2497.0,1.69,7.48,10.54,-0.0,0.03,-0.15,0.0,g
2959.0,3622.0,3011.0,4095.0,4095.0,2669.0,2714.0,2503.0,1.86,7.44,10.61,-0.02,0.02,-0.15,0.0,g
2960.0,3609.0,3009.0,4095.0,4095.0,2668.0,2710.0,2498.0,1.7,7.48,10.51,0.02,-0.03,-0.18,0.0,g
2960.0,3619.0,3006.0,4095.0,4095.0,2671.0,2713.0,2497.0,1.71,7.41,10.53,-0.0,0.02,-0.16,0.0,g
2958.0,3618.0,3015.0,4095.0,4095.0,2664.0,2704.0,2503.0,1.68,7.43,10.63,0.04,0.01,-0.14,0.0,g
2944.0,3619.0,3010.0,4095.0,4095.0,2669.0,2711.0,2499.0,1.83,7.45,10.52,0.01,0.01,-0.15,0.0,g
2950.0,3611.0,3008.0,4095.0,4095.0,2667.0,2707.0,2498.0,1.77,7.47,10.63,0.05,-0.01,-0.16,0.0,g
2960.0,3623.0,3004.0,4095.0,4095.0,2667.0,2706.0,2495.0,1.88,7.53,10.55,0.04,0.01,-0.19,0.0,g
2960.0,3610.0,3013.0,4095.0,4095.0,2666.0,2707.0,2496.0,1.69,7.54,10.43,0.03,-0.0,-0.17,0.0,g
2957.0,3613.0,3008.0,4095.0,4095.0,2671.0,2711.0,2498.0,1.67,7.53,10.46,0.01,0.03,-0.14,0.0,g
2960.0,3622.0,3013.0,4095.0,4095.0,2668.0,2719.0,2502.0,1.67,7.54,10.45,0.02,0.01,-0.17,0.0,g
2961.0,3606.0,3011.0,4095.0,4095.0,2668.0,2707.0,2495.0,1.66,7.53,10.42,0.01,-0.01,-0.17,0.0,g
2957.0,3613.0,3007.0,4095.0,4095.0,2667.0,2707.0,2490.0,1.59,7.51,10.51,0.03,-0.01,-0.14,0.0,g
2961.0,3627.0,3010.0,4095.0,4095.0,2667.0,2711.0,2498.0,1.88,7.58,10.42,0.01,-0.03,-0.15,0.0,g
2949.0,3621.0,3007.0,4095.0,4095.0,2658.0,2710.0,2487.0,1.83,7.47,10.52,-0.0,0.0,-0.17,0.0,g
2946.0,3611.0,3007.0,4095.0,4095.0,2663.0,2709.0,2496.0,1.73,7.52,10.5,-0.0,-0.03,-0.17,0.0,g
2951.0,3623.0,3005.0,4095.0,4095.0,2672.0,2706.0,2497.0,1.71,7.43,10.6,0.01,0.0,-0.15,0.0,g
2947.0,3884.0,2901.0,4095.0,4095.0,2598.0,2656.0,2506.0,3.08,6.76,10.76,0.18,0.03,-0.13,0.0,g
2949.0,3881.0,2887.0,4095.0,4095.0,2608.0,2662.0,2503.0,2.94,7.07,10.52,0.1,0.0,-0.21,0.0,g
2960.0,3888.0,2893.0,4095.0,4095.0,2605.0,2669.0,2502.0,2.74,6.94,10.73,0.09,0.04,-0.19,0.0,g
2958.0,3886.0,2896.0,4095.0,4095.0,2608.0,2658.0,2506.0,2.64,6.98,10.72,0.04,0.03,-0.18,0.0,g
2953.0,3863.0,2891.0,4095.0,4095.0,2608.0,2649.0,2503.0,2.85,6.87,10.89,0.04,0.01,-0.18,0.0,g
2944.0,3869.0,2887.0,4095.0,4095.0,2609.0,2657.0,2501.0,2.56,7.02,10.9,0.05,0.02,-0.17,0.0,g
2955.0,3885.0,2891.0,4095.0,4095.0,2614.0,2653.0,2511.0,2.61,6.9,10.92,0.06,0.05,-0.17,0.0,g
2959.0,3891.0,2887.0,4095.0,4095.0,2611.0,2658.0,2503.0,2.61,7.1,10.49,0.06,-0.0,-0.16,0.0,g
2951.0,3875.0,2886.0,4095.0,4095.0,2608.0,2659.0,2503.0,2.45,7.13,10.6,-0.02,-0.01,-0.17,0.0,g
2960.0,3883.0,2890.0,4095.0,4095.0,2608.0,2664.0,2503.0,2.68,7.0,10.8,0.04,-0.01,-0.18,0.0,g
2956.0,3889.0,2896.0,4095.0,4095.0,2608.0,2666.0,2507.0,2.63,6.95,10.75,-0.05,0.01,-0.15,0.0,g
2954.0,3873.0,2887.0,4095.0,4095.0,2603.0,2659.0,2501.0,2.62,6.97,10.96,-0.02,-0.02,-0.16,0.0,g
2954.0,3873.0,2884.0,4095.0,4095.0,2610.0,2662.0,2507.0,2.52,6.95,10.82,0.01,0.0,-0.14,0.0,g
2949.0,3886.0,2895.0,4095.0,4095.0,2614.0,2666.0,2511.0,2.54,6.94,10.9,0.03,-0.04,-0.16,0.0,g
2950.0,3885.0,2890.0,4095.0,4095.0,2609.0,2660.0,2501.0,2.71,6.95,10.77,0.01,0.02,-0.15,0.0,g
2960.0,3897.0,2893.0,4095.0,4095.0,2621.0,2671.0,2511.0,2.67,6.96,10.84,0.02,-0.04,-0.19,0.0,g
2955.0,3871.0,2890.0,4095.0,4095.0,2613.0,2659.0,2503.0,2.61,6.98,10.83,0.0,0.01,-0.14,0.0,g
2947.0,3879.0,2886.0,4095.0,4095.0,2603.0,2665.0,2506.0,2.67,6.9,10.9,0.05,-0.01,-0.18,0.0,g
2958.0,3889.0,2894.0,4095.0,4095.0,2622.0,2662.0,2505.0,2.62,6.99,10.81,0.0,-0.02,-0.18,0.0,g
2960.0,3885.0,2896.0,4095.0,4095.0,2621.0,2661.0,2507.0,2.54,6.94,10.97,0.08,0.01,-0.17,0.0,g
2960.0,3641.0,2960.0,4095.0,4095.0,2770.0,2917.0,2624.0,3.78,6.32,10.68,0.03,-0.29,-0.58,0.0,g
2960.0,3632.0,2989.0,4095.0,4095.0,2765.0,2919.0,2611.0,3.73,6.33,11.02,-0.0,-0.1,-0.4,0.0,g
2955.0,3632.0,2992.0,4095.0,4095.0,2754.0,2925.0,2608.0,3.18,6.31,11.11,-0.07,0.22,-0.35,0.0,g
2959.0,3628.0,2994.0,4095.0,4095.0,2751.0,2906.0,2619.0,2.97,6.34,11.43,0.03,0.23,-0.13,0.0,g
2959.0,3630.0,2990.0,4095.0,4095.0,2761.0,2914.0,2623.0,3.05,6.39,11.36,0.09,0.09,-0.21,0.0,g
2957.0,3628.0,2974.0,4095.0,4095.0,2767.0,2924.0,2624.0,2.85,6.56,11.09,0.02,0.08,-0.15,0.0,g
2961.0,3619.0,2977.0,4095.0,4095.0,2755.0,2913.0,2625.0,2.86,6.41,11.31,-0.03,-0.03,-0.18,0.0,g
2960.0,3628.0,2987.0,4095.0,4095.0,2762.0,2914.0,2623.0,3.02,6.51,11.22,0.06,0.03,-0.11,0.0,g
2963.0,3631.0,2977.0,4095.0,4095.0,2758.0,2910.0,2624.0,3.08,6.41,11.13,0.0,0.06,-0.15,0.0,g
2966.0,3630.0,2987.0,4095.0,4095.0,2766.0,2911.0,2631.0,2.98,6.49,11.2,0.01,-0.0,-0.14,0.0,g
2961.0,3626.0,2971.0,4095.0,4095.0,2763.0,2909.0,2638.0,2.85,6.44,11.29,0.03,-0.03,-0.2,0.0,g
2951.0,3621.0,2972.0,4095.0,4095.0,2755.0,2917.0,2641.0,2.79,6.49,11.12,-0.0,0.01,-0.15,0.0,g
2960.0,3624.0,2960.0,4095.0,4095.0,2762.0,2909.0,2640.0,2.9,6.5,11.21,-0.01,0.05,-0.14,0.0,g
2958.0,3625.0,2982.0,4095.0,4095.0,2767.0,2914.0,2646.0,2.99,6.42,11.29,0.02,-0.01,-0.17,0.0,g
2960.0,3631.0,2969.0,4095.0,4095.0,2768.0,2909.0,2645.0,2.87,6.43,11.31,0.0,-0.02,-0.18,0.0,g
2959.0,3623.0,2974.0,4095.0,4095.0,2768.0,2914.0,2647.0,2.9,6.46,11.19,0.0,0.04,-0.14,0.0,g
2950.0,3616.0,2966.0,4095.0,4095.0,2758.0,2906.0,2645.0,2.85,6.42,11.26,0.03,-0.0,-0.15,0.0,g
2955.0,3623.0,2965.0,4095.0,4095.0,2767.0,2909.0,2647.0,3.02,6.4,11.21,-0.02,0.02,-0.14,0.0,g
2955.0,3621.0,2963.0,4095.0,4095.0,2763.0,2899.0,2651.0,2.87,6.43,11.39,0.04,-0.01,-0.17,0.0,g
2955.0,3627.0,2971.0,4095.0,4095.0,2772.0,2911.0,2655.0,2.94,6.43,11.19,0.03,0.02,-0.15,0.0,g
2963.0,3660.0,2907.0,4095.0,4095.0,2559.0,2661.0,2512.0,2.37,6.88,11.03,-0.0,-0.06,-0.16,0.0,g
2960.0,3638.0,2902.0,4095.0,4095.0,2581.0,2689.0,2507.0,2.52,6.88,11.03,0.02,-0.08,-0.19,0.0,g
2944.0,3641.0,2904.0,4095.0,4095.0,2559.0,2667.0,2512.0,2.42,6.73,11.2,-0.0,0.03,-0.19,0.0,g
2951.0,3639.0,2909.0,4095.0,4095.0,2559.0,2655.0,2508.0,2.14,6.83,11.23,-0.01,-0.04,-0.2,0.0,g
2960.0,3647.0,2898.0,4095.0,4095.0,2559.0,2661.0,2510.0,2.06,6.81,11.08,0.03,0.0,-0.17,0.0,g
2960.0,3648.0,2911.0,4095.0,4095.0,2586.0,2669.0,2512.0,2.17,6.8,11.09,-0.0,-0.01,-0.17,0.0,g
2963.0,3648.0,2911.0,4095.0,4095.0,2581.0,2672.0,2512.0,2.19,6.85,11.21,0.07,-0.01,-0.18,0.0,g
2958.0,3650.0,2909.0,4095.0,4095.0,2559.0,2667.0,2506.0,2.13,6.91,11.02,0.06,-0.01,-0.17,0.0,g
2947.0,3638.0,2899.0,4095.0,4095.0,2582.0,2663.0,2506.0,2.21,7.09,10.89,0.1,-0.08,-0.2,0.0,g
2954.0,3648.0,2899.0,4095.0,4095.0,2582.0,2670.0,2506.0,2.48,7.07,10.69,-0.0,-0.05,-0.18,0.0,g
2960.0,3646.0,2907.0,4095.0,4095.0,2583.0,2674.0,2511.0,2.4,6.83,11.12,-0.03,-0.07,-0.25,0.0,g
2942.0,3645.0,2898.0,4095.0,4095.0,2559.0,2666.0,2510.0,2.06,6.69,11.26,0.01,-0.03,-0.21,0.0,g
2962.0,3639.0,2899.0,4095.0,4095.0,2585.0,2667.0,2505.0,2.02,6.85,11.19,0.01,-0.03,-0.18,0.0,g
2951.0,3651.0,2907.0,4095.0,4095.0,2589.0,2673.0,2512.0,2.18,6.94,11.08,0.06,0.0,-0.14,0.0,g
2966.0,3648.0,2910.0,4095.0,4095.0,2589.0,2666.0,2511.0,2.22,7.02,10.88,0.09,-0.0,-0.16,0.0,g
2958.0,3648.0,2906.0,4095.0,4095.0,2589.0,2657.0,2512.0,2.39,7.05,10.81,0.03,0.01,-0.17,0.0,g
2958.0,3631.0,2899.0,4095.0,4095.0,2585.0,2670.0,2497.0,2.16,6.92,11.03,0.04,-0.01,-0.23,0.0,g
2951.0,3648.0,2905.0,4095.0,4095.0,2586.0,2672.0,2511.0,1.88,7.02,11.03,0.01,-0.05,-0.21,0.0,g
2956.0,3655.0,2911.0,4095.0,4095.0,2591.0,2672.0,2513.0,2.04,6.95,10.86,0.05,-0.02,-0.18,0.0,g
2961.0,3661.0,2911.0,4095.0,4095.0,2592.0,2663.0,2513.0,2.19,7.03,10.87,-0.0,-0.03,-0.14,0.0,g
2957.0,3641.0,2933.0,4095.0,4095.0,2544.0,2639.0,2509.0,1.9,8.36,9.19,0.01,0.01,-0.12,0.0,g
2958.0,3626.0,2927.0,4095.0,4095.0,2548.0,2635.0,2504.0,1.9,8.2,9.42,-0.01,0.01,-0.14,0.0,g
2967.0,3647.0,2927.0,4095.0,4095.0,2555.0,2640.0,2501.0,2.14,8.3,9.37,-0.03,-0.03,-0.16,0.0,g
2960.0,3643.0,2928.0,4095.0,4095.0,2554.0,2640.0,2513.0,1.79,8.25,9.57,0.0,-0.01,-0.25,0.0,g
2959.0,3637.0,2921.0,4095.0,4095.0,2553.0,2638.0,2507.0,1.55,8.15,9.6,-0.02,-0.0,-0.22,0.0,g
2957.0,3644.0,2929.0,4095.0,4095.0,2558.0,2641.0,2511.0,1.52,8.1,9.68,-0.01,0.03,-0.2,0.0,g
2960.0,3649.0,2928.0,4095.0,4095.0,2557.0,2641.0,2510.0,1.6,8.09,9.8,0.02,-0.0,-0.19,0.0,g
2951.0,3648.0,2922.0,4095.0,4095.0,2554.0,2634.0,2518.0,1.47,8.2,9.6,0.05,-0.02,-0.17,0.0,g
2947.0,3631.0,2927.0,4095.0,4095.0,2558.0,2638.0,2503.0,1.58,8.25,9.23,0.06,-0.01,-0.16,0.0,g
2958.0,3645.0,2928.0,4095.0,4095.0,2559.0,2639.0,2510.0,1.58,8.3,9.25,-0.02,-0.01,-0.13,0.0,g
2946.0,3635.0,2927.0,4095.0,4095.0,2554.0,2639.0,2507.0,1.61,8.23,9.68,0.05,0.01,-0.17,0.0,g
2960.0,3635.0,2925.0,4095.0,4095.0,2555.0,2640.0,2500.0,1.7,8.31,9.48,0.03,-0.03,-0.14,0.0,g
2960.0,3653.0,2928.0,4095.0,4095.0,2559.0,2640.0,2512.0,1.65,8.26,9.37,0.05,-0.0,-0.17,0.0,g
2960.0,3647.0,2928.0,4095.0,4095.0,2559.0,2640.0,2503.0,1.75,8.28,9.42,-0.0,0.02,-0.14,0.0,g
2951.0,3631.0,2924.0,4095.0,4095.0,2556.0,2640.0,2505.0,1.64,8.23,9.52,0.06,-0.03,-0.18,0.0,g
2960.0,3651.0,2934.0,4095.0,4095.0,2559.0,2638.0,2510.0,1.55,8.23,9.43,0.03,0.04,-0.13,0.0,g
2958.0,3633.0,2922.0,4095.0,4095.0,2558.0,2640.0,2497.0,1.73,8.33,9.39,0.06,-0.05,-0.16,0.0,g
2960.0,3653.0,2928.0,4095.0,4095.0,2559.0,2643.0,2510.0,1.75,8.22,9.48,-0.01,-0.0,-0.17,0.0,g
2963.0,3639.0,2929.0,4095.0,4095.0,2559.0,2646.0,2512.0,1.71,8.22,9.58,0.04,-0.01,-0.16,0.0,g
2953.0,3639.0,2928.0,4095.0,4095.0,2557.0,2640.0,2503.0,1.7,8.25,9.42,0.04,0.0,-0.17,0.0,g
2957.0,3553.0,2926.0,4095.0,4095.0,2889.0,2961.0,2727.0,2.75,6.76,11.05,0.07,0.0,-0.18,0.0,g
2960.0,3539.0,2933.0,4095.0,4095.0,2895.0,2960.0,2721.0,2.7,6.81,10.91,0.04,0.02,-0.17,0.0,g
2962.0,3535.0,2923.0,4095.0,4095.0,2894.0,2961.0,2723.0,2.8,6.82,10.89,0.01,-0.03,-0.17,0.0,g
2960.0,3532.0,2928.0,4095.0,4095.0,2896.0,2986.0,2726.0,2.63,6.85,11.12,-0.02,-0.0,-0.18,0.0,g
2965.0,3536.0,2928.0,4095.0,4095.0,2896.0,2960.0,2722.0,2.6,6.79,10.97,0.0,-0.04,-0.19,0.0,g
2960.0,3546.0,2929.0,4095.0,4095.0,2893.0,2960.0,2722.0,2.59,6.71,11.0,0.0,0.0,-0.15,0.0,g
2958.0,3538.0,2915.0,4095.0,4095.0,2891.0,2955.0,2707.0,2.73,6.73,11.11,0.06,-0.03,-0.13,0.0,g
2951.0,3547.0,2928.0,4095.0,4095.0,2896.0,2958.0,2721.0,2.91,6.8,11.03,0.04,0.01,-0.16,0.0,g
2959.0,3535.0,2923.0,4095.0,4095.0,2901.0,2960.0,2721.0,2.52,6.85,11.06,0.12,0.01,-0.19,0.0,g
2960.0,3536.0,2925.0,4095.0,4095.0,2896.0,2958.0,2729.0,2.63,6.84,10.82,0.03,-0.02,-0.15,0.0,g
2954.0,3530.0,2928.0,4095.0,4095.0,2901.0,2967.0,2733.0,2.72,6.85,10.95,0.07,-0.01,-0.15,0.0,g
2951.0,3534.0,2927.0,4095.0,4095.0,2901.0,2967.0,2733.0,2.8,6.93,10.94,0.04,0.02,-0.14,0.0,g
2966.0,3536.0,2928.0,4095.0,4095.0,2896.0,2955.0,2731.0,2.72,6.95,10.74,0.09,-0.04,-0.2,0.0,g
2960.0,3536.0,2925.0,4095.0,4095.0,2897.0,2964.0,2734.0,2.59,6.9,10.84,0.05,0.02,-0.18,0.0,g
2954.0,3537.0,2914.0,4095.0,4095.0,2896.0,2960.0,2736.0,2.52,7.03,10.87,0.12,-0.03,-0.16,0.0,g
2951.0,3536.0,2918.0,4095.0,4095.0,2891.0,2956.0,2739.0,2.53,6.92,10.83,0.12,0.0,-0.14,0.0,g
2956.0,3549.0,2921.0,4095.0,4095.0,2891.0,2970.0,2752.0,2.57,7.07,10.64,0.06,-0.04,-0.13,0.0,g
2960.0,3545.0,2922.0,4095.0,4095.0,2885.0,2973.0,2746.0,2.64,7.02,10.74,0.02,0.01,-0.1,0.0,g
2961.0,3552.0,2913.0,4095.0,4095.0,2877.0,2991.0,2771.0,2.66,6.83,10.42,-0.0,0.0,-0.13,0.0,g
2954.0,3743.0,2895.0,4095.0,4095.0,2867.0,3067.0,2879.0,2.29,6.79,9.77,-1.06,-0.03,1.07,0.0,g
2944.0,3379.0,2918.0,4095.0,4095.0,2875.0,2990.0,2821.0,2.16,6.41,11.54,0.01,-0.04,-0.16,0.0,g
2954.0,3385.0,2916.0,4095.0,4095.0,2864.0,2983.0,2817.0,2.14,6.38,11.57,0.01,-0.04,-0.17,0.0,g
2948.0,3378.0,2925.0,4095.0,4095.0,2863.0,2983.0,2816.0,2.1,6.41,11.56,0.03,-0.06,-0.17,0.0,g
2962.0,3402.0,2923.0,4095.0,4095.0,2865.0,2989.0,2823.0,2.17,6.37,11.55,0.03,0.01,-0.15,0.0,g
2957.0,3381.0,2918.0,4095.0,4095.0,2864.0,2980.0,2815.0,2.19,6.42,11.61,0.06,-0.03,-0.17,0.0,g
2953.0,3397.0,2914.0,4095.0,4095.0,2859.0,2981.0,2817.0,2.11,6.45,11.47,0.05,0.0,-0.16,0.0,g
2960.0,3392.0,2915.0,4095.0,4095.0,2864.0,2992.0,2820.0,1.93,6.48,11.54,0.06,-0.06,-0.13,0.0,g
2951.0,3387.0,2926.0,4095.0,4095.0,2862.0,2982.0,2821.0,2.19,6.47,11.32,-0.02,0.11,-0.02,0.0,g
2955.0,3389.0,2924.0,4095.0,4095.0,2874.0,3005.0,2832.0,2.32,6.39,11.61,0.04,0.1,-0.13,0.0,g
2951.0,3376.0,2915.0,4095.0,4095.0,2878.0,3002.0,2834.0,2.27,6.44,11.52,0.01,-0.11,-0.22,0.0,g
2960.0,3378.0,2919.0,4095.0,4095.0,2879.0,3003.0,2842.0,1.92,6.38,11.54,0.11,-0.05,-0.18,0.0,g
2961.0,3376.0,2913.0,4095.0,4095.0,2890.0,2992.0,2839.0,2.2,6.5,11.4,0.1,-0.11,-0.13,0.0,g
2957.0,3451.0,2909.0,4095.0,4095.0,2918.0,3010.0,2855.0,2.64,6.41,11.09,0.0,0.06,-0.09,0.0,g
2960.0,3553.0,2909.0,4095.0,4095.0,2954.0,3050.0,2897.0,2.17,6.84,11.3,-0.12,-0.08,-0.07,0.0,g
2955.0,3532.0,2895.0,4095.0,4095.0,2953.0,3056.0,2922.0,2.51,6.38,11.62,-0.15,0.07,-0.06,0.0,g
2960.0,3491.0,2910.0,4095.0,4095.0,2922.0,3041.0,2918.0,2.42,6.27,11.51,-0.06,-0.11,-0.16,0.0,g
2961.0,3489.0,2913.0,4095.0,4095.0,2949.0,3042.0,2913.0,2.28,6.32,11.69,0.13,0.01,-0.17,0.0,g
2960.0,3485.0,2905.0,4095.0,4095.0,2925.0,3045.0,2915.0,2.51,6.33,11.36,-0.05,-0.06,-0.18,0.0,g
2960.0,3474.0,2899.0,4095.0,4095.0,2925.0,3049.0,2915.0,2.29,6.35,11.6,0.06,0.05,-0.15,0.0,g
2955.0,3492.0,2899.0,4095.0,4095.0,2930.0,3056.0,2917.0,2.43,6.32,11.51,0.01,-0.03,-0.15,0.0,g
2960.0,3344.0,2918.0,4095.0,4095.0,2731.0,2839.0,2721.0,2.64,6.0,11.9,0.09,-0.05,-0.18,0.0,g
2960.0,3343.0,2915.0,4095.0,4095.0,2738.0,2842.0,2729.0,2.56,6.17,11.49,0.08,-0.12,-0.15,0.0,g
2955.0,3342.0,2914.0,4095.0,4095.0,2736.0,2842.0,2735.0,2.76,6.05,11.5,-0.06,-0.02,-0.16,0.0,g
2955.0,3330.0,2907.0,4095.0,4095.0,2736.0,2846.0,2736.0,2.76,6.1,11.64,-0.07,0.03,-0.16,0.0,g
2958.0,3344.0,2916.0,4095.0,4095.0,2738.0,2854.0,2748.0,2.76,6.01,11.72,-0.06,0.1,-0.16,0.0,g
2947.0,3331.0,2914.0,4095.0,4095.0,2738.0,2850.0,2758.0,2.68,6.02,11.77,0.03,0.02,-0.17,0.0,g
2960.0,3342.0,2923.0,4095.0,4095.0,2742.0,2851.0,2759.0,2.6,5.95,11.82,0.04,0.03,-0.18,0.0,g
2950.0,3335.0,2912.0,4095.0,4095.0,2741.0,2850.0,2756.0,2.84,6.04,11.67,-0.02,0.01,-0.17,0.0,g
2958.0,3332.0,2913.0,4095.0,4095.0,2739.0,2857.0,2761.0,2.63,6.01,11.81,0.11,0.02,-0.23,0.0,g
2944.0,3331.0,2912.0,4095.0,4095.0,2745.0,2851.0,2762.0,2.45,6.14,11.53,-0.02,0.03,-0.2,0.0,g
2960.0,3350.0,2918.0,4095.0,4095.0,2751.0,2863.0,2765.0,2.44,6.11,11.65,0.03,0.02,-0.16,0.0,g
2959.0,3344.0,2912.0,4095.0,4095.0,2751.0,2861.0,2767.0,2.46,6.1,11.65,-0.06,0.0,-0.12,0.0,g
2955.0,3344.0,2907.0,4095.0,4095.0,2746.0,2863.0,2766.0,2.53,6.01,11.79,0.02,-0.0,-0.16,0.0,g
2959.0,3344.0,2921.0,4095.0,4095.0,2752.0,2863.0,2768.0,2.56,6.02,11.74,-0.04,-0.02,-0.13,0.0,g
2960.0,3344.0,2913.0,4095.0,4095.0,2757.0,2865.0,2773.0,2.57,6.01,11.78,0.0,-0.02,-0.15,0.0,g
2960.0,3366.0,2922.0,4095.0,4095.0,2757.0,2867.0,2769.0,2.61,5.97,11.79,0.01,-0.02,-0.14,0.0,g
2966.0,3347.0,2922.0,4095.0,4095.0,2758.0,2869.0,2770.0,2.53,5.99,11.75,0.02,-0.02,-0.16,0.0,g
2958.0,3345.0,2920.0,4095.0,4095.0,2756.0,2866.0,2761.0,2.57,6.0,11.76,0.01,0.01,-0.13,0.0,g
2957.0,3341.0,2907.0,4095.0,4095.0,2758.0,2865.0,2762.0,2.63,6.0,11.78,0.02,-0.03,-0.13,0.0,g
2960.0,3343.0,2913.0,4095.0,4095.0,2767.0,2877.0,2768.0,2.67,6.04,11.69,-0.01,-0.03,-0.15,0.0,g
2958.0,3610.0,2881.0,4095.0,4095.0,2730.0,2829.0,2697.0,2.83,5.93,11.83,0.03,-0.0,-0.16,0.0,g
2960.0,3613.0,2893.0,4095.0,4095.0,2737.0,2832.0,2702.0,2.87,6.01,11.75,0.14,-0.04,-0.2,0.0,g
2957.0,3608.0,2887.0,4095.0,4095.0,2736.0,2830.0,2698.0,2.72,6.15,11.54,0.05,-0.01,-0.19,0.0,g
2962.0,3619.0,2889.0,4095.0,4095.0,2733.0,2832.0,2701.0,2.65,6.24,11.44,0.03,0.0,-0.15,0.0,g
2960.0,3617.0,2890.0,4095.0,4095.0,2741.0,2830.0,2703.0,2.77,6.17,11.45,-0.0,0.01,-0.14,0.0,g
2954.0,3619.0,2880.0,4095.0,4095.0,2733.0,2832.0,2702.0,2.8,6.11,11.64,-0.01,0.01,-0.15,0.0,g
2959.0,3610.0,2886.0,4095.0,4095.0,2736.0,2827.0,2703.0,2.74,6.07,11.6,-0.0,-0.02,-0.16,0.0,g
2946.0,3600.0,2881.0,4095.0,4095.0,2736.0,2829.0,2699.0,2.8,5.99,11.75,0.01,-0.0,-0.14,0.0,g
2961.0,3615.0,2896.0,4095.0,4095.0,2736.0,2832.0,2704.0,2.8,6.04,11.61,0.0,0.01,-0.14,0.0,g
2960.0,3622.0,2885.0,4095.0,4095.0,2733.0,2832.0,2698.0,2.77,6.06,11.76,0.08,-0.01,-0.19,0.0,g
2954.0,3602.0,2883.0,4095.0,4095.0,2736.0,2835.0,2705.0,2.7,6.12,11.43,0.03,-0.05,-0.16,0.0,g
2958.0,3607.0,2890.0,4095.0,4095.0,2737.0,2836.0,2704.0,2.62,6.11,11.59,-0.03,0.01,-0.13,0.0,g
2951.0,3600.0,2890.0,4095.0,4095.0,2725.0,2829.0,2701.0,2.76,6.12,11.65,-0.03,-0.0,-0.12,0.0,g
2955.0,3607.0,2893.0,4095.0,4095.0,2736.0,2825.0,2691.0,2.86,6.02,11.71,0.03,0.01,-0.16,0.0,g
2950.0,3614.0,2885.0,4095.0,4095.0,2736.0,2832.0,2698.0,2.83,6.03,11.7,0.01,-0.01,-0.16,0.0,g
2962.0,3610.0,2880.0,4095.0,4095.0,2741.0,2832.0,2704.0,2.74,6.09,11.66,0.1,0.01,-0.18,0.0,g
2953.0,3604.0,2881.0,4095.0,4095.0,2736.0,2816.0,2709.0,2.84,6.07,11.58,0.03,0.02,-0.16,0.0,g
2959.0,3617.0,2886.0,4095.0,4095.0,2739.0,2832.0,2705.0,2.69,6.18,11.54,0.03,-0.0,-0.15,0.0,g
2950.0,3603.0,2883.0,4095.0,4095.0,2734.0,2827.0,2704.0,2.75,6.13,11.6,0.03,0.02,-0.16,0.0,g
2955.0,3622.0,2895.0,4095.0,4095.0,2736.0,2832.0,2705.0,2.74,6.14,11.6,0.04,-0.0,-0.18,0.0,g
2951.0,3734.0,2368.0,4095.0,4095.0,2629.0,2741.0,2559.0,2.23,6.8,11.17,0.02,-0.04,-0.12,0.0,g
2954.0,3743.0,2375.0,4095.0,4095.0,2633.0,2741.0,2559.0,2.27,6.89,11.05,-0.05,-0.03,-0.07,0.0,g
2960.0,3758.0,2378.0,4095.0,4095.0,2629.0,2746.0,2586.0,2.42,6.79,11.04,-0.11,-0.14,-0.14,0.0,g
2958.0,3757.0,2375.0,4095.0,4095.0,2619.0,2751.0,2583.0,2.38,6.79,11.17,-0.08,-0.05,-0.16,0.0,g
2959.0,3742.0,2378.0,4095.0,4095.0,2620.0,2745.0,2559.0,2.31,6.7,11.26,0.01,0.06,-0.19,0.0,g
2957.0,3754.0,2379.0,4095.0,4095.0,2619.0,2750.0,2559.0,2.25,6.73,11.21,0.03,0.03,-0.13,0.0,g
2959.0,3731.0,2378.0,4095.0,4095.0,2619.0,2750.0,2590.0,2.29,6.69,11.26,0.09,0.03,-0.16,0.0,g
2954.0,3739.0,2369.0,4095.0,4095.0,2621.0,2749.0,2559.0,2.26,6.73,11.14,0.02,-0.02,-0.18,0.0,g
2955.0,3751.0,2375.0,4095.0,4095.0,2626.0,2750.0,2586.0,2.18,6.75,11.3,0.06,0.0,-0.17,0.0,g
2949.0,3749.0,2375.0,4095.0,4095.0,2618.0,2749.0,2559.0,2.25,6.86,11.0,0.07,-0.02,-0.17,0.0,g
2963.0,3746.0,2384.0,4095.0,4095.0,2625.0,2752.0,2592.0,2.19,6.86,11.01,0.02,-0.01,-0.17,0.0,g
2954.0,3749.0,2373.0,4095.0,4095.0,2623.0,2746.0,2559.0,2.25,6.81,11.15,0.02,-0.02,-0.16,0.0,g
2959.0,3755.0,2374.0,4095.0,4095.0,2629.0,2751.0,2585.0,2.25,6.84,10.98,-0.04,-0.05,-0.17,0.0,g
2953.0,3753.0,2378.0,4095.0,4095.0,2624.0,2751.0,2559.0,2.27,6.72,11.25,-0.04,-0.01,-0.15,0.0,g
2960.0,3743.0,2369.0,4095.0,4095.0,2627.0,2752.0,2587.0,2.36,6.76,11.18,-0.05,-0.04,-0.18,0.0,g
2960.0,3747.0,2383.0,4095.0,4095.0,2627.0,2752.0,2586.0,2.27,6.7,11.27,0.03,0.0,-0.18,0.0,g
2948.0,3739.0,2378.0,4095.0,4095.0,2638.0,2741.0,2587.0,2.25,6.72,11.3,0.05,-0.01,-0.17,0.0,g
2960.0,3731.0,2373.0,4095.0,4095.0,2633.0,2753.0,2583.0,2.25,6.8,11.06,0.03,0.0,-0.16,0.0,g
2960.0,3747.0,2383.0,4095.0,4095.0,2628.0,2755.0,2594.0,2.2,6.82,11.09,0.01,-0.01,-0.15,0.0,g
2965.0,3748.0,2374.0,4095.0,4095.0,2625.0,2748.0,2587.0,2.22,6.81,11.14,-0.01,-0.03,-0.18,0.0,g
2950.0,3070.0,2891.0,4095.0,4095.0,2831.0,3015.0,2688.0,2.49,6.63,11.19,0.03,-0.01,-0.18,0.0,g
2960.0,3079.0,2895.0,4095.0,4095.0,2823.0,3007.0,2689.0,2.33,6.6,11.25,0.02,-0.03,-0.18,0.0,g
2959.0,3071.0,2885.0,4095.0,4095.0,2819.0,3006.0,2685.0,2.3,6.64,11.22,0.03,-0.05,-0.18,0.0,g
2957.0,3071.0,2886.0,4095.0,4095.0,2817.0,2989.0,2671.0,2.43,6.62,11.2,0.03,-0.04,-0.14,0.0,g
2955.0,3085.0,2887.0,4095.0,4095.0,2820.0,2982.0,2672.0,2.67,6.66,11.09,0.02,-0.02,-0.15,0.0,g
2960.0,3088.0,2890.0,4095.0,4095.0,2819.0,2987.0,2670.0,2.6,6.61,11.26,0.01,0.0,-0.18,0.0,g
2960.0,3085.0,2893.0,4095.0,4095.0,2826.0,2987.0,2685.0,2.53,6.61,11.26,0.01,-0.01,-0.2,0.0,g
2960.0,3082.0,2887.0,4095.0,4095.0,2827.0,2989.0,2670.0,2.26,6.68,11.16,0.09,-0.01,-0.22,0.0,g
2950.0,3081.0,2885.0,4095.0,4095.0,2831.0,2992.0,2673.0,2.39,6.66,11.18,-0.01,-0.0,-0.17,0.0,g
2954.0,3090.0,2890.0,4095.0,4095.0,2837.0,3002.0,2675.0,2.35,6.72,11.16,0.06,-0.04,-0.18,0.0,g
2955.0,3069.0,2887.0,4095.0,4095.0,2828.0,2993.0,2672.0,2.73,6.59,11.17,-0.09,-0.06,-0.11,0.0,g
2960.0,3083.0,2893.0,4095.0,4095.0,2839.0,2995.0,2669.0,2.68,6.61,11.39,0.02,-0.05,-0.2,0.0,g
2960.0,3087.0,2895.0,4095.0,4095.0,2850.0,3006.0,2671.0,2.61,6.59,11.25,0.02,0.01,-0.2,0.0,g
2954.0,3069.0,2891.0,4095.0,4095.0,2830.0,2999.0,2672.0,2.35,6.68,11.08,-0.01,0.0,-0.18,0.0,g
2959.0,3071.0,2889.0,4095.0,4095.0,2847.0,2995.0,2673.0,2.41,6.63,11.29,0.01,0.02,-0.18,0.0,g
2947.0,3071.0,2887.0,4095.0,4095.0,2835.0,3003.0,2673.0,2.34,6.68,11.09,0.02,-0.02,-0.18,0.0,g
2957.0,3087.0,2893.0,4095.0,4095.0,2845.0,3013.0,2672.0,2.53,6.51,11.31,-0.01,0.04,-0.14,0.0,g
2958.0,3070.0,2896.0,4095.0,4095.0,2843.0,2995.0,2672.0,2.49,6.64,11.31,-0.03,-0.0,-0.14,0.0,g
2949.0,3070.0,2891.0,4095.0,4095.0,2837.0,2992.0,2692.0,2.46,6.56,11.32,0.02,0.01,-0.16,0.0,g
2948.0,3071.0,2896.0,4095.0,4095.0,2839.0,2990.0,2672.0,2.33,6.62,11.27,0.01,-0.03,-0.17,0.0,g
2962.0,3088.0,2891.0,4095.0,4095.0,2864.0,2983.0,2684.0,2.5,6.84,11.02,0.01,-0.01,-0.16,0.0,g
2960.0,3088.0,2890.0,4095.0,4095.0,2855.0,2979.0,2694.0,2.66,6.77,11.01,-0.01,-0.0,-0.13,0.0,g
2960.0,3086.0,2895.0,4095.0,4095.0,2851.0,2982.0,2699.0,2.62,6.76,11.07,0.02,-0.01,-0.16,0.0,g
2960.0,3071.0,2891.0,4095.0,4095.0,2850.0,2977.0,2693.0,2.61,6.8,11.03,-0.02,0.02,-0.13,0.0,g
2960.0,3086.0,2891.0,4095.0,4095.0,2863.0,2976.0,2695.0,2.58,6.78,11.1,0.03,-0.01,-0.16,0.0,g
2959.0,3083.0,2891.0,4095.0,4095.0,2857.0,2986.0,2701.0,2.66,6.81,10.93,0.0,-0.0,-0.14,0.0,g
2953.0,3071.0,2889.0,4095.0,4095.0,2851.0,2976.0,2692.0,2.69,6.78,11.1,0.01,0.01,-0.14,0.0,g
2960.0,3071.0,2896.0,4095.0,4095.0,2854.0,2989.0,2693.0,2.66,6.74,11.1,0.04,0.02,-0.16,0.0,g
2957.0,3085.0,2886.0,4095.0,4095.0,2849.0,2981.0,2693.0,2.56,6.81,10.96,0.03,-0.0,-0.15,0.0,g
2961.0,3084.0,2891.0,4095.0,4095.0,2860.0,2981.0,2702.0,2.59,6.83,10.93,0.04,0.02,-0.14,0.0,g
2960.0,3094.0,2907.0,4095.0,4095.0,2864.0,2979.0,2701.0,2.59,6.87,10.94,-0.0,-0.01,-0.17,0.0,g
2959.0,3091.0,2892.0,4095.0,4095.0,2854.0,2984.0,2695.0,2.49,6.79,11.07,0.01,0.01,-0.17,0.0,g
2962.0,3088.0,2896.0,4095.0,4095.0,2852.0,2983.0,2694.0,2.46,6.82,10.92,-0.03,-0.02,-0.16,0.0,g
2957.0,3067.0,2887.0,4095.0,4095.0,2849.0,2978.0,2702.0,2.44,6.83,11.01,-0.03,-0.03,-0.14,0.0,g
2963.0,3088.0,2896.0,4095.0,4095.0,2853.0,2975.0,2701.0,2.66,6.81,10.81,-0.11,-0.06,-0.07,0.0,g
2953.0,3090.0,2883.0,4095.0,4095.0,2823.0,2945.0,2679.0,2.97,6.67,11.12,-0.07,0.1,-0.08,0.0,g
2960.0,3085.0,2902.0,4095.0,4095.0,2836.0,2955.0,2683.0,2.73,6.58,11.37,-0.02,0.1,-0.13,0.0,g
2965.0,3097.0,2905.0,4095.0,4095.0,2834.0,2945.0,2683.0,2.41,6.68,11.14,0.04,0.06,-0.18,0.0,g
2961.0,3084.0,2885.0,4095.0,4095.0,2835.0,2957.0,2677.0,2.44,6.65,11.21,0.02,0.05,-0.16,0.0,g
2957.0,3087.0,2891.0,4095.0,4095.0,2839.0,2951.0,2687.0,2.45,6.7,11.25,0.09,0.13,-0.13,0.0,g
2952.0,3095.0,2932.0,4095.0,4095.0,2627.0,2753.0,2623.0,2.46,5.83,11.98,0.01,-0.01,-0.14,0.0,g
2960.0,3104.0,2938.0,4095.0,4095.0,2625.0,2751.0,2630.0,2.52,5.82,12.0,0.05,0.01,-0.17,0.0,g
2960.0,3102.0,2928.0,4095.0,4095.0,2623.0,2749.0,2633.0,2.35,5.88,11.91,0.03,-0.02,-0.17,0.0,g
2958.0,3105.0,2928.0,4095.0,4095.0,2626.0,2753.0,2634.0,2.26,5.93,11.78,0.01,0.01,-0.15,0.0,g
2963.0,3108.0,2928.0,4095.0,4095.0,2622.0,2751.0,2626.0,2.26,5.88,11.91,-0.06,-0.06,-0.12,0.0,g
2960.0,3110.0,2927.0,4095.0,4095.0,2627.0,2755.0,2633.0,2.39,5.85,11.93,-0.04,-0.02,-0.12,0.0,g
2954.0,3111.0,2935.0,4095.0,4095.0,2633.0,2758.0,2631.0,2.41,5.78,11.93,-0.08,-0.03,-0.13,0.0,g
2946.0,3097.0,2927.0,4095.0,4095.0,2624.0,2757.0,2633.0,2.47,5.76,12.1,-0.0,-0.04,-0.18,0.0,g
2960.0,3099.0,2929.0,4095.0,4095.0,2634.0,2759.0,2640.0,2.51,5.7,11.94,0.03,0.02,-0.15,0.0,g
2962.0,3103.0,2929.0,4095.0,4095.0,2631.0,2749.0,2638.0,2.39,5.79,12.05,0.08,-0.0,-0.16,0.0,g
2954.0,3108.0,2928.0,4095.0,4095.0,2630.0,2763.0,2643.0,2.32,5.84,11.99,0.09,0.0,-0.1,0.0,g
2960.0,3109.0,2933.0,4095.0,4095.0,2635.0,2763.0,2650.0,2.52,5.81,12.15,0.24,0.0,-0.14,0.0,g
2955.0,3098.0,2923.0,4095.0,4095.0,2634.0,2748.0,2640.0,2.61,5.91,11.69,0.16,-0.02,-0.17,0.0,g
2955.0,3103.0,2931.0,4095.0,4095.0,2638.0,2766.0,2642.0,2.48,6.14,11.52,0.07,0.01,-0.16,0.0,g
2960.0,3095.0,2940.0,4095.0,4095.0,2638.0,2765.0,2640.0,2.44,6.05,11.72,0.03,0.01,-0.18,0.0,g
2963.0,3104.0,2937.0,4095.0,4095.0,2637.0,2759.0,2639.0,2.32,6.07,11.66,0.02,-0.0,-0.17,0.0,g
2960.0,3106.0,2934.0,4095.0,4095.0,2640.0,2767.0,2644.0,2.43,6.0,11.76,-0.03,-0.01,-0.16,0.0,g
2958.0,3099.0,2928.0,4095.0,4095.0,2640.0,2758.0,2641.0,2.42,5.95,12.01,0.01,-0.01,-0.15,0.0,g
2965.0,3105.0,2937.0,4095.0,4095.0,2646.0,2766.0,2642.0,2.39,6.02,11.76,0.03,0.01,-0.16,0.0,g
2959.0,3104.0,2930.0,4095.0,4095.0,2640.0,2762.0,2643.0,2.37,6.05,11.73,0.02,-0.02,-0.16,0.0,g
2955.0,3104.0,2925.0,4095.0,4095.0,2649.0,2774.0,2639.0,2.59,5.99,11.81,0.11,0.05,-0.23,0.0,g
2958.0,3095.0,2930.0,4095.0,4095.0,2645.0,2778.0,2639.0,2.33,6.11,11.62,0.07,0.03,-0.22,0.0,g
2960.0,3087.0,2928.0,4095.0,4095.0,2643.0,2775.0,2640.0,2.23,6.04,11.79,0.04,0.03,-0.21,0.0,g
2954.0,3098.0,2933.0,4095.0,4095.0,2642.0,2773.0,2640.0,2.06,6.15,11.78,0.05,-0.04,-0.21,0.0,g
2953.0,3088.0,2921.0,4095.0,4095.0,2640.0,2770.0,2639.0,2.21,6.08,11.7,0.02,-0.01,-0.18,0.0,g
2950.0,3091.0,2928.0,4095.0,4095.0,2646.0,2772.0,2639.0,2.22,6.14,11.72,0.03,-0.01,-0.16,0.0,g
2959.0,3081.0,2928.0,4095.0,4095.0,2647.0,2779.0,2638.0,2.4,6.01,11.77,0.0,0.01,-0.14,0.0,g
2962.0,3103.0,2934.0,4095.0,4095.0,2649.0,2778.0,2640.0,2.41,6.07,11.8,0.01,-0.02,-0.15,0.0,g
2961.0,3098.0,2928.0,4095.0,4095.0,2644.0,2781.0,2643.0,2.42,6.02,11.77,0.02,0.03,-0.16,0.0,g
2955.0,3093.0,2924.0,4095.0,4095.0,2640.0,2774.0,2640.0,2.47,6.1,11.77,0.0,-0.0,-0.16,0.0,g
2947.0,3083.0,2928.0,4095.0,4095.0,2641.0,2774.0,2640.0,2.38,6.07,11.81,0.02,0.02,-0.17,0.0,g
2957.0,3100.0,2933.0,4095.0,4095.0,2649.0,2780.0,2647.0,2.23,6.15,11.7,0.03,0.0,-0.18,0.0,g
2960.0,3099.0,2927.0,4095.0,4095.0,2644.0,2777.0,2647.0,2.19,6.12,11.74,0.04,0.01,-0.18,0.0,g
2953.0,3090.0,2927.0,4095.0,4095.0,2647.0,2771.0,2645.0,2.22,6.11,11.73,-0.02,-0.02,-0.16,0.0,g
2960.0,3099.0,2928.0,4095.0,4095.0,2640.0,2774.0,2645.0,2.24,6.08,11.86,0.06,-0.01,-0.17,0.0,g
2954.0,3099.0,2930.0,4095.0,4095.0,2661.0,2768.0,2647.0,2.32,6.17,11.62,0.01,-0.0,-0.15,0.0,g
2960.0,3093.0,2925.0,4095.0,4095.0,2640.0,2773.0,2640.0,2.36,6.1,11.87,0.09,-0.06,-0.18,0.0,g
2960.0,3093.0,2929.0,4095.0,4095.0,2639.0,2777.0,2640.0,2.37,6.14,11.77,0.21,-0.08,-0.22,0.0,g
2962.0,3095.0,2933.0,4095.0,4095.0,2636.0,2765.0,2625.0,2.56,6.32,11.49,0.16,-0.13,-0.27,0.0,g
2963.0,3095.0,2928.0,4095.0,4095.0,2629.0,2763.0,2635.0,2.26,6.41,11.39,0.05,-0.02,-0.21,0.0,g
2960.0,3145.0,2880.0,4095.0,4095.0,2601.0,2669.0,2582.0,2.46,6.28,11.45,-0.16,-0.06,-0.08,0.0,g
2960.0,3149.0,2889.0,4095.0,4095.0,2607.0,2667.0,2588.0,2.43,6.24,11.85,-0.0,-0.01,-0.16,0.0,g
2967.0,3150.0,2891.0,4095.0,4095.0,2608.0,2666.0,2595.0,2.45,6.24,11.55,-0.03,-0.09,-0.17,0.0,g
2959.0,3150.0,2891.0,4095.0,4095.0,2607.0,2657.0,2591.0,2.44,6.17,11.69,0.03,0.0,-0.16,0.0,g
2961.0,3138.0,2885.0,4095.0,4095.0,2622.0,2670.0,2603.0,2.25,6.3,11.49,-0.06,-0.06,-0.19,0.0,g
2960.0,3143.0,2886.0,4095.0,4095.0,2615.0,2669.0,2598.0,2.36,6.23,11.72,0.03,-0.06,-0.2,0.0,g
2960.0,3139.0,2887.0,4095.0,4095.0,2619.0,2671.0,2601.0,2.17,6.34,11.46,-0.02,-0.04,-0.18,0.0,g
2961.0,3139.0,2895.0,4095.0,4095.0,2621.0,2672.0,2599.0,2.32,6.33,11.42,-0.04,0.01,-0.14,0.0,g
2959.0,3138.0,2891.0,4095.0,4095.0,2622.0,2670.0,2596.0,2.43,6.15,11.76,-0.02,0.01,-0.17,0.0,g
2958.0,3137.0,2889.0,4095.0,4095.0,2625.0,2670.0,2608.0,2.29,6.17,11.74,0.01,-0.03,-0.18,0.0,g
2960.0,3136.0,2894.0,4095.0,4095.0,2624.0,2675.0,2603.0,2.29,6.27,11.52,0.0,0.0,-0.15,0.0,g
2959.0,3133.0,2883.0,4095.0,4095.0,2626.0,2677.0,2602.0,2.28,6.26,11.62,0.05,0.0,-0.17,0.0,g
2960.0,3142.0,2892.0,4095.0,4095.0,2635.0,2679.0,2609.0,2.26,6.22,11.59,-0.01,0.01,-0.13,0.0,g
2961.0,3151.0,2896.0,4095.0,4095.0,2640.0,2691.0,2608.0,2.38,6.19,11.56,-0.05,-0.01,-0.14,0.0,g
2960.0,3133.0,2885.0,4095.0,4095.0,2639.0,2683.0,2615.0,2.43,6.19,11.67,-0.06,-0.02,-0.14,0.0,g
2963.0,3138.0,2889.0,4095.0,4095.0,2641.0,2679.0,2615.0,2.32,6.18,11.79,0.02,0.0,-0.15,0.0,g
2957.0,3136.0,2883.0,4095.0,4095.0,2641.0,2685.0,2618.0,2.48,6.15,11.64,0.0,-0.02,-0.18,0.0,g
2955.0,3130.0,2875.0,4095.0,4095.0,2636.0,2679.0,2613.0,2.33,6.2,11.71,0.05,-0.01,-0.19,0.0,g
2960.0,3151.0,2890.0,4095.0,4095.0,2640.0,2693.0,2615.0,2.22,6.18,11.63,0.02,0.01,-0.17,0.0,g
2955.0,3143.0,2887.0,4095.0,4095.0,2645.0,2687.0,2615.0,2.3,6.23,11.63,0.04,-0.01,-0.15,0.0,g
2960.0,3146.0,2882.0,4095.0,4095.0,2650.0,2704.0,2645.0,2.28,6.35,11.59,0.07,0.0,-0.15,0.0,g
2960.0,3142.0,2892.0,4095.0,4095.0,2663.0,2719.0,2643.0,2.38,6.46,11.31,0.02,-0.02,-0.15,0.0,g
2957.0,3137.0,2878.0,4095.0,4095.0,2669.0,2706.0,2646.0,2.37,6.43,11.38,-0.0,-0.01,-0.13,0.0,g
2957.0,3138.0,2889.0,4095.0,4095.0,2662.0,2709.0,2643.0,2.43,6.36,11.42,-0.05,-0.01,-0.12,0.0,g
2962.0,3137.0,2890.0,4095.0,4095.0,2668.0,2709.0,2649.0,2.35,6.23,11.36,-0.08,-0.02,-0.1,0.0,g
2957.0,3136.0,2885.0,4095.0,4095.0,2666.0,2712.0,2649.0,2.42,6.24,11.51,-0.12,-0.03,0.02,0.0,g
2966.0,3149.0,2889.0,4095.0,4095.0,2672.0,2713.0,2650.0,2.95,6.15,11.86,-0.05,0.01,-0.0,0.0,g
2960.0,3142.0,2896.0,4095.0,4095.0,2667.0,2710.0,2650.0,2.69,6.12,11.42,0.06,-0.06,-0.12,0.0,g
2960.0,3145.0,2890.0,4095.0,4095.0,2670.0,2711.0,2650.0,2.6,6.09,11.67,-0.0,0.01,-0.06,0.0,g
2955.0,3129.0,2884.0,4095.0,4095.0,2666.0,2710.0,2645.0,2.69,6.36,11.93,0.08,0.0,-0.13,0.0,g
2961.0,3150.0,2891.0,4095.0,4095.0,2671.0,2717.0,2655.0,2.61,6.35,11.33,0.11,-0.0,-0.18,0.0,g
2955.0,3138.0,2887.0,4095.0,4095.0,2666.0,2711.0,2667.0,2.26,6.3,11.21,0.01,-0.01,-0.18,0.0,g
2959.0,3141.0,2885.0,4095.0,4095.0,2670.0,2711.0,2647.0,2.5,6.2,11.94,0.02,0.07,-0.14,0.0,g
2959.0,3135.0,2882.0,4095.0,4095.0,2671.0,2716.0,2652.0,2.47,6.25,11.51,0.04,0.02,-0.2,0.0,g
2959.0,3135.0,2887.0,4095.0,4095.0,2669.0,2704.0,2651.0,2.39,6.3,11.57,0.01,0.06,-0.18,0.0,g
2960.0,3137.0,2881.0,4095.0,4095.0,2669.0,2719.0,2655.0,2.25,6.31,11.66,0.02,0.02,-0.21,0.0,g
2958.0,3141.0,2885.0,4095.0,4095.0,2667.0,2710.0,2655.0,2.12,6.43,11.41,0.01,0.03,-0.18,0.0,g
2969.0,3136.0,2891.0,4095.0,4095.0,2670.0,2713.0,2651.0,2.27,6.32,11.59,-0.01,0.04,-0.16,0.0,g
2964.0,3140.0,2891.0,4095.0,4095.0,2665.0,2717.0,2654.0,2.23,6.28,11.61,0.04,-0.0,-0.2,0.0,g
2960.0,3136.0,2885.0,4095.0,4095.0,2663.0,2714.0,2647.0,2.17,6.31,11.43,0.01,-0.02,-0.18,0.0,g
2955.0,2944.0,2880.0,4095.0,4095.0,2718.0,2911.0,2643.0,2.54,5.84,11.76,-0.08,-0.03,-0.16,0.0,g
2973.0,2942.0,2882.0,4095.0,4095.0,2722.0,2919.0,2651.0,2.78,6.01,11.98,0.03,-0.04,-0.16,0.0,g
2959.0,2948.0,2886.0,4095.0,4095.0,2721.0,2922.0,2640.0,2.89,5.98,11.88,0.02,0.02,-0.16,0.0,g
2957.0,2943.0,2896.0,4095.0,4095.0,2714.0,2910.0,2642.0,2.73,6.01,11.62,0.0,-0.05,-0.22,0.0,g
2960.0,2949.0,2885.0,4095.0,4095.0,2723.0,2918.0,2647.0,2.63,6.12,11.6,0.01,-0.04,-0.21,0.0,g
2960.0,2946.0,2891.0,4095.0,4095.0,2726.0,2926.0,2649.0,2.61,6.12,11.5,0.01,-0.08,-0.23,0.0,g
2967.0,2946.0,2885.0,4095.0,4095.0,2731.0,2926.0,2656.0,2.84,5.95,11.62,-0.04,-0.06,-0.17,0.0,g
2967.0,2943.0,2885.0,4095.0,4095.0,2732.0,2927.0,2651.0,2.94,5.85,11.71,0.02,-0.07,-0.18,0.0,g
2954.0,2951.0,2882.0,4095.0,4095.0,2735.0,2922.0,2658.0,3.06,5.81,11.7,-0.05,-0.07,-0.14,0.0,g
2960.0,2942.0,2881.0,4095.0,4095.0,2733.0,2932.0,2653.0,3.11,5.91,11.79,0.0,-0.02,-0.1,0.0,g
2963.0,2941.0,2885.0,4095.0,4095.0,2735.0,2928.0,2646.0,3.35,5.95,11.81,0.08,0.07,-0.13,0.0,g
2962.0,2950.0,2890.0,4095.0,4095.0,2749.0,2928.0,2650.0,2.93,6.16,11.49,-0.02,-0.0,-0.23,0.0,g
2973.0,2945.0,2885.0,4095.0,4095.0,2752.0,2930.0,2657.0,2.42,6.02,11.76,0.04,-0.0,-0.31,0.0,g
2959.0,2940.0,2886.0,4095.0,4095.0,2742.0,2928.0,2650.0,2.23,6.06,11.58,-0.0,-0.08,-0.28,0.0,g
2967.0,2949.0,2880.0,4095.0,4095.0,2759.0,2932.0,2655.0,2.38,6.01,11.77,0.03,-0.09,-0.23,0.0,g
2972.0,2943.0,2882.0,4095.0,4095.0,2768.0,2931.0,2659.0,2.84,5.97,11.66,-0.1,-0.09,-0.17,0.0,g
2961.0,2938.0,2879.0,4095.0,4095.0,2767.0,2931.0,2659.0,2.86,5.92,11.87,-0.02,-0.06,-0.21,0.0,g
2954.0,2936.0,2887.0,4095.0,4095.0,2769.0,2928.0,2659.0,3.04,5.89,11.72,-0.09,-0.06,-0.18,0.0,g
2969.0,2951.0,2890.0,4095.0,4095.0,2774.0,2939.0,2662.0,2.91,5.99,11.79,0.02,-0.05,-0.24,0.0,g
2960.0,2945.0,2883.0,4095.0,4095.0,2773.0,2933.0,2657.0,2.79,5.96,11.73,-0.02,-0.06,-0.26,0.0,g
2960.0,3249.0,2542.0,4095.0,4095.0,2589.0,2783.0,2653.0,2.98,5.94,11.88,0.05,-0.09,-0.17,0.0,g
2961.0,3253.0,2535.0,4095.0,4095.0,2589.0,2787.0,2654.0,3.05,5.95,11.53,0.1,0.07,-0.16,0.0,g
2957.0,3265.0,2521.0,4095.0,4095.0,2587.0,2779.0,2641.0,2.75,5.77,11.85,0.04,0.02,-0.14,0.0,g
2949.0,3267.0,2529.0,4095.0,4095.0,2585.0,2785.0,2654.0,2.76,6.2,12.03,0.17,0.01,-0.14,0.0,g
2961.0,3279.0,2541.0,4095.0,4095.0,2559.0,2785.0,2654.0,2.51,6.49,11.13,0.2,0.01,-0.16,0.0,g
2954.0,3295.0,2534.0,4095.0,4095.0,2591.0,2783.0,2659.0,2.75,6.53,10.65,0.07,0.01,-0.05,0.0,g
2961.0,3291.0,2539.0,4095.0,4095.0,2585.0,2782.0,2645.0,3.44,6.39,11.26,-0.08,0.07,-0.08,0.0,g
2962.0,3311.0,2535.0,4095.0,4095.0,2591.0,2790.0,2661.0,2.77,6.1,11.74,-0.04,-0.08,-0.21,0.0,g
2959.0,3306.0,2534.0,4095.0,4095.0,2593.0,2793.0,2659.0,2.53,6.22,11.48,0.02,0.05,-0.16,0.0,g
2960.0,3301.0,2529.0,4095.0,4095.0,2591.0,2789.0,2658.0,2.74,6.38,11.3,-0.01,-0.06,-0.18,0.0,g
2959.0,3312.0,2542.0,4095.0,4095.0,2593.0,2785.0,2657.0,2.71,6.36,11.14,-0.08,-0.07,-0.18,0.0,g
2958.0,3312.0,2531.0,4095.0,4095.0,2592.0,2789.0,2657.0,2.6,6.17,11.24,-0.12,-0.11,-0.1,0.0,g
2962.0,3314.0,2532.0,4095.0,4095.0,2597.0,2790.0,2663.0,2.86,6.1,11.74,-0.16,-0.17,-0.07,0.0,g
2959.0,3313.0,2531.0,4095.0,4095.0,2594.0,2794.0,2666.0,3.5,6.02,11.77,-0.05,-0.12,-0.1,0.0,g
2961.0,3315.0,2527.0,4095.0,4095.0,2594.0,2798.0,2663.0,3.62,5.79,11.54,-0.03,-0.07,-0.17,0.0,g
2960.0,3319.0,2530.0,4095.0,4095.0,2610.0,2797.0,2667.0,3.46,5.84,11.9,-0.03,-0.0,-0.21,0.0,g
2959.0,3324.0,2530.0,4095.0,4095.0,2602.0,2800.0,2669.0,3.25,5.71,11.99,0.03,0.07,-0.22,0.0,g
2960.0,3333.0,2531.0,4095.0,4095.0,2608.0,2800.0,2669.0,2.94,5.88,11.76,0.08,0.04,-0.24,0.0,g
2960.0,3339.0,2532.0,4095.0,4095.0,2603.0,2800.0,2663.0,2.86,6.08,11.58,0.08,0.04,-0.22,0.0,g
2957.0,3353.0,2537.0,4095.0,4095.0,2605.0,2807.0,2671.0,2.78,6.02,11.6,0.08,0.09,-0.21,0.0,g
2969.0,3487.0,2593.0,4095.0,4095.0,2613.0,2850.0,2695.0,2.61,5.97,10.22,-0.38,-0.13,0.37,0.0,g
2979.0,4079.0,2864.0,4095.0,4095.0,2559.0,2819.0,2727.0,3.76,6.68,10.88,-0.89,-0.06,0.36,0.0,g
2962.0,3019.0,2864.0,4095.0,4095.0,2485.0,2731.0,2767.0,3.28,5.66,12.3,-0.58,0.06,0.05,0.0,g
2929.0,2978.0,2863.0,4095.0,4095.0,2437.0,2608.0,2659.0,3.32,5.48,12.45,-0.38,0.05,-0.15,0.0,g
2965.0,3662.0,2865.0,4095.0,4095.0,2349.0,2438.0,2506.0,3.2,5.63,13.28,0.45,-0.14,-0.49,0.0,g
2963.0,3746.0,2891.0,4095.0,4095.0,2404.0,2459.0,2434.0,2.54,6.01,11.23,0.8,0.16,-0.46,0.0,g
2967.0,3628.0,2914.0,4095.0,4095.0,2448.0,2533.0,2433.0,2.66,5.77,10.72,0.31,-0.04,-0.41,0.0,g
2963.0,3622.0,2930.0,4095.0,4095.0,2490.0,2545.0,2448.0,2.68,6.32,11.11,0.14,-0.08,-0.26,0.0,g
2960.0,3655.0,2944.0,4095.0,4095.0,2496.0,2559.0,2470.0,2.89,6.31,11.26,0.18,0.07,-0.2,0.0,g
2957.0,3759.0,2935.0,4095.0,4095.0,2506.0,2559.0,2449.0,3.08,6.34,11.1,-0.07,-0.03,-0.05,0.0,g
2955.0,3753.0,2930.0,4095.0,4095.0,2513.0,2559.0,2448.0,2.91,6.33,11.42,-0.09,-0.02,-0.11,0.0,g
2960.0,3759.0,2935.0,4095.0,4095.0,2510.0,2559.0,2450.0,3.16,6.24,11.44,-0.16,-0.05,-0.05,0.0,g
2959.0,3754.0,2946.0,4095.0,4095.0,2526.0,2591.0,2458.0,2.9,6.26,11.47,-0.07,-0.07,-0.15,0.0,g
2959.0,3756.0,2932.0,4095.0,4095.0,2515.0,2559.0,2455.0,2.91,6.19,11.49,-0.01,0.06,-0.15,0.0,g
2960.0,3757.0,2933.0,4095.0,4095.0,2526.0,2595.0,2453.0,3.01,6.11,11.66,0.04,0.01,-0.19,0.0,g
2960.0,3760.0,2947.0,4095.0,4095.0,2528.0,2603.0,2461.0,2.77,6.2,11.48,0.02,0.02,-0.17,0.0,g
2960.0,3749.0,2934.0,4095.0,4095.0,2526.0,2601.0,2467.0,2.69,6.26,11.46,0.05,-0.02,-0.2,0.0,g
2962.0,3754.0,2928.0,4095.0,4095.0,2528.0,2601.0,2461.0,2.79,6.21,11.36,-0.02,0.01,-0.14,0.0,g
2967.0,3771.0,2933.0,4095.0,4095.0,2533.0,2607.0,2463.0,2.98,6.22,11.42,0.01,-0.04,-0.16,0.0,g
2958.0,3739.0,2934.0,4095.0,4095.0,2528.0,2603.0,2462.0,3.11,6.17,11.41,0.01,0.02,-0.17,0.0,g
2963.0,3550.0,2882.0,4095.0,4095.0,2531.0,2547.0,2483.0,2.94,6.29,11.61,0.01,0.01,-0.17,0.0,g
2960.0,3545.0,2890.0,4095.0,4095.0,2535.0,2553.0,2494.0,2.81,6.23,11.33,-0.04,-0.02,-0.15,0.0,g
2961.0,3549.0,2887.0,4095.0,4095.0,2532.0,2551.0,2493.0,2.72,6.29,11.48,0.04,-0.02,-0.17,0.0,g
2956.0,3558.0,2877.0,4095.0,4095.0,2533.0,2556.0,2496.0,2.8,6.27,11.47,-0.03,-0.02,-0.14,0.0,g
2960.0,3568.0,2884.0,4095.0,4095.0,2535.0,2559.0,2490.0,2.84,6.29,11.47,-0.01,-0.01,-0.13,0.0,g
2958.0,3568.0,2881.0,4095.0,4095.0,2542.0,2559.0,2495.0,2.96,6.26,11.37,0.01,0.02,-0.14,0.0,g
2955.0,3568.0,2880.0,4095.0,4095.0,2539.0,2559.0,2494.0,2.87,6.22,11.47,-0.0,-0.01,-0.18,0.0,g
2960.0,3583.0,2890.0,4095.0,4095.0,2544.0,2559.0,2501.0,2.71,6.26,11.54,0.05,-0.0,-0.17,0.0,g
2958.0,3570.0,2883.0,4095.0,4095.0,2546.0,2559.0,2497.0,2.9,6.29,11.3,-0.03,-0.01,-0.14,0.0,g
2960.0,3583.0,2886.0,4095.0,4095.0,2546.0,2559.0,2502.0,2.83,6.33,11.39,-0.01,-0.01,-0.16,0.0,g
2958.0,3583.0,2880.0,4095.0,4095.0,2544.0,2559.0,2505.0,2.91,6.16,11.54,-0.02,0.02,-0.15,0.0,g
2955.0,3600.0,2880.0,4095.0,4095.0,2544.0,2559.0,2507.0,2.74,6.23,11.47,-0.01,-0.01,-0.16,0.0,g
2960.0,3600.0,2887.0,4095.0,4095.0,2546.0,2585.0,2503.0,2.72,6.17,11.56,0.01,0.0,-0.16,0.0,g
2960.0,3609.0,2886.0,4095.0,4095.0,2551.0,2559.0,2512.0,2.81,6.27,11.41,-0.0,-0.03,-0.15,0.0,g
2961.0,3610.0,2887.0,4095.0,4095.0,2547.0,2559.0,2505.0,2.79,6.19,11.57,0.03,0.0,-0.16,0.0,g
2957.0,3604.0,2905.0,4095.0,4095.0,2546.0,2586.0,2501.0,2.77,6.27,11.42,0.02,0.01,-0.15,0.0,g
2960.0,3599.0,2879.0,4095.0,4095.0,2547.0,2583.0,2503.0,2.71,6.23,11.5,0.05,0.01,-0.15,0.0,g
2961.0,3614.0,2886.0,4095.0,4095.0,2557.0,2588.0,2503.0,2.74,6.27,11.43,-0.01,-0.03,-0.17,0.0,g
2960.0,3600.0,2885.0,4095.0,4095.0,2554.0,2585.0,2502.0,2.9,6.21,11.47,0.02,0.0,-0.17,0.0,g
2965.0,3611.0,2886.0,4095.0,4095.0,2540.0,2582.0,2504.0,2.87,6.22,11.4,-0.02,-0.03,-0.18,0.0,g
2960.0,3280.0,2896.0,4095.0,4095.0,2591.0,2682.0,2544.0,1.59,6.54,11.49,0.02,0.02,-0.09,0.0,g
2955.0,3270.0,2890.0,4095.0,4095.0,2591.0,2681.0,2547.0,1.76,6.64,11.49,0.03,-0.08,-0.15,0.0,g
2957.0,3275.0,2904.0,4095.0,4095.0,2602.0,2687.0,2552.0,1.72,6.49,11.63,0.06,0.01,-0.17,0.0,g
2966.0,3270.0,2902.0,4095.0,4095.0,2601.0,2697.0,2554.0,1.56,6.7,11.39,0.07,-0.02,-0.17,0.0,g
2954.0,3262.0,2895.0,4095.0,4095.0,2598.0,2686.0,2551.0,1.53,6.62,11.46,0.04,0.02,-0.14,0.0,g
2959.0,3268.0,2896.0,4095.0,4095.0,2593.0,2682.0,2557.0,1.55,6.72,11.39,0.01,-0.06,-0.17,0.0,g
2947.0,3277.0,2900.0,4095.0,4095.0,2595.0,2686.0,2554.0,1.63,6.64,11.49,0.03,-0.01,-0.16,0.0,g
2960.0,3283.0,2900.0,4095.0,4095.0,2602.0,2693.0,2554.0,1.43,6.78,11.4,0.08,-0.03,-0.19,0.0,g
2960.0,3280.0,2900.0,4095.0,4095.0,2595.0,2695.0,2557.0,1.48,6.66,11.3,-0.02,-0.03,-0.15,0.0,g
2957.0,3280.0,2897.0,4095.0,4095.0,2606.0,2693.0,2558.0,1.5,6.79,11.52,0.07,0.01,-0.16,0.0,g
2954.0,3276.0,2896.0,4095.0,4095.0,2619.0,2690.0,2559.0,1.64,6.69,11.37,0.02,0.0,-0.17,0.0,g
2959.0,3273.0,2897.0,4095.0,4095.0,2605.0,2692.0,2555.0,1.61,6.67,11.39,0.01,-0.04,-0.17,0.0,g
2959.0,3294.0,2899.0,4095.0,4095.0,2608.0,2695.0,2551.0,1.54,6.73,11.35,0.02,0.0,-0.16,0.0,g
2966.0,3343.0,2899.0,4095.0,4095.0,2609.0,2703.0,2558.0,1.68,6.67,11.34,-0.04,-0.03,-0.17,0.0,g
2947.0,3423.0,2896.0,4095.0,4095.0,2599.0,2694.0,2550.0,1.43,6.72,11.45,0.03,0.01,-0.17,0.0,g
2959.0,3442.0,2898.0,4095.0,4095.0,2607.0,2702.0,2557.0,1.57,6.68,11.33,-0.03,-0.02,-0.14,0.0,g
2959.0,3440.0,2896.0,4095.0,4095.0,2605.0,2697.0,2550.0,1.5,6.64,11.43,-0.03,-0.01,-0.12,0.0,g
2960.0,3440.0,2899.0,4095.0,4095.0,2611.0,2704.0,2551.0,1.63,6.55,11.6,0.03,-0.02,-0.16,0.0,g
2958.0,3455.0,2896.0,4095.0,4095.0,2613.0,2704.0,2555.0,1.61,6.59,11.47,-0.01,-0.01,-0.14,0.0,g
2955.0,3435.0,2899.0,4095.0,4095.0,2608.0,2697.0,2559.0,1.58,6.59,11.56,0.06,0.01,-0.16,0.0,g
2960.0,3441.0,2897.0,4095.0,4095.0,2621.0,2715.0,2559.0,1.56,6.71,11.41,0.04,-0.01,-0.16,0.0,g
2950.0,3430.0,2896.0,4095.0,4095.0,2624.0,2710.0,2582.0,1.64,6.64,11.42,0.0,0.03,-0.14,0.0,g
2970.0,3440.0,2901.0,4095.0,4095.0,2624.0,2704.0,2559.0,1.59,6.8,11.39,0.05,-0.04,-0.17,0.0,g
2959.0,3440.0,2896.0,4095.0,4095.0,2623.0,2704.0,2559.0,1.54,6.69,11.32,0.02,0.03,-0.12,0.0,g
2959.0,3440.0,2896.0,4095.0,4095.0,2624.0,2711.0,2559.0,1.67,6.8,11.32,0.03,-0.01,-0.15,0.0,g
2960.0,3434.0,2897.0,4095.0,4095.0,2624.0,2714.0,2583.0,1.56,6.78,11.34,0.03,0.02,-0.15,0.0,g
2959.0,3440.0,2896.0,4095.0,4095.0,2629.0,2713.0,2559.0,1.61,6.74,11.35,0.02,0.01,-0.16,0.0,g
2957.0,3436.0,2896.0,4095.0,4095.0,2628.0,2728.0,2559.0,1.55,6.78,11.29,0.05,-0.01,-0.16,0.0,g
2960.0,3440.0,2896.0,4095.0,4095.0,2624.0,2704.0,2559.0,1.59,6.79,11.3,0.03,0.03,-0.15,0.0,g
2951.0,3440.0,2898.0,4095.0,4095.0,2627.0,2707.0,2559.0,1.56,6.85,11.25,0.03,-0.02,-0.16,0.0,g
2963.0,3438.0,2899.0,4095.0,4095.0,2625.0,2714.0,2585.0,1.51,6.8,11.23,0.01,0.01,-0.16,0.0,g
2945.0,3419.0,2889.0,4095.0,4095.0,2624.0,2711.0,2559.0,1.56,6.77,11.31,0.01,-0.0,-0.17,0.0,g
2955.0,3446.0,2894.0,4095.0,4095.0,2626.0,2718.0,2559.0,1.53,6.74,11.36,0.04,-0.01,-0.16,0.0,g
2956.0,3431.0,2894.0,4095.0,4095.0,2624.0,2707.0,2559.0,1.49,6.83,11.09,0.04,-0.02,-0.16,0.0,g
2957.0,3423.0,2897.0,4095.0,4095.0,2624.0,2708.0,2559.0,1.58,6.75,11.39,-0.0,-0.01,-0.14,0.0,g
2959.0,3440.0,2903.0,4095.0,4095.0,2631.0,2712.0,2559.0,1.68,6.85,11.23,0.03,0.0,-0.15,0.0,g
2953.0,3437.0,2906.0,4095.0,4095.0,2625.0,2710.0,2582.0,1.63,6.76,11.23,0.02,0.01,-0.16,0.0,g
2954.0,3440.0,2894.0,4095.0,4095.0,2624.0,2708.0,2559.0,1.59,6.79,11.32,-0.01,0.0,-0.14,0.0,g
2963.0,3440.0,2899.0,4095.0,4095.0,2624.0,2710.0,2559.0,1.57,6.73,11.38,0.03,0.01,-0.17,0.0,g
2963.0,3432.0,2905.0,4095.0,4095.0,2624.0,2714.0,2583.0,1.63,6.8,11.25,-0.02,-0.01,-0.15,0.0,g
3022.0,2623.0,2854.0,4095.0,4095.0,2903.0,3177.0,3467.0,2.7,6.08,11.64,-0.81,-0.25,0.14,0.0,g
2736.0,2752.0,2852.0,4095.0,4095.0,3061.0,3374.0,3760.0,2.8,5.95,13.07,-0.29,-0.12,0.03,0.0,g
2906.0,2928.0,2855.0,4095.0,4095.0,3134.0,3299.0,3651.0,2.66,5.88,12.37,0.32,0.19,-0.1,0.0,g
2971.0,3131.0,2870.0,4095.0,4095.0,3182.0,3153.0,3337.0,2.21,5.66,11.67,0.24,-0.32,-0.4,0.0,g
2965.0,3233.0,2876.0,4095.0,4095.0,3038.0,3066.0,3090.0,2.49,6.02,11.79,0.3,0.13,-0.15,0.0,g
2964.0,3110.0,2889.0,4095.0,4095.0,2913.0,2957.0,2829.0,2.27,6.22,11.62,0.1,0.19,-0.18,0.0,g
2965.0,3071.0,2889.0,4095.0,4095.0,2873.0,2865.0,2704.0,2.42,6.28,11.65,0.23,0.13,-0.22,0.0,g
2963.0,3091.0,2896.0,4095.0,4095.0,2841.0,2835.0,2666.0,2.05,6.26,11.28,0.01,0.05,-0.28,0.0,g
2962.0,3097.0,2893.0,4095.0,4095.0,2803.0,2817.0,2654.0,2.38,6.07,11.62,0.04,-0.03,-0.23,0.0,g
2960.0,3117.0,2895.0,4095.0,4095.0,2795.0,2810.0,2657.0,2.02,6.1,11.72,0.07,0.06,-0.23,0.0,g
2967.0,3122.0,2896.0,4095.0,4095.0,2806.0,2814.0,2659.0,2.39,6.37,11.59,0.09,0.02,-0.17,0.0,g
2954.0,3113.0,2897.0,4095.0,4095.0,2800.0,2811.0,2649.0,2.34,6.38,11.55,0.11,0.03,-0.19,0.0,g
2960.0,3108.0,2894.0,4095.0,4095.0,2802.0,2815.0,2663.0,2.23,6.41,11.38,0.01,0.02,-0.16,0.0,g
2958.0,3105.0,2896.0,4095.0,4095.0,2805.0,2823.0,2666.0,2.04,6.46,11.54,0.04,0.01,-0.17,0.0,g
2961.0,3114.0,2890.0,4095.0,4095.0,2814.0,2828.0,2691.0,2.12,6.31,11.62,-0.01,-0.01,-0.15,0.0,g
2960.0,3105.0,2886.0,4095.0,4095.0,2811.0,2827.0,2672.0,2.11,6.45,11.56,0.04,0.01,-0.15,0.0,g
2947.0,3108.0,2891.0,4095.0,4095.0,2802.0,2828.0,2673.0,2.24,6.36,11.59,0.04,0.01,-0.16,0.0,g
2961.0,3115.0,2896.0,4095.0,4095.0,2811.0,2831.0,2677.0,2.33,6.4,11.43,0.0,-0.03,-0.15,0.0,g
2960.0,3114.0,2898.0,4095.0,4095.0,2811.0,2829.0,2678.0,2.2,6.34,11.63,0.01,0.0,-0.19,0.0,g
2960.0,3120.0,2894.0,4095.0,4095.0,2800.0,2827.0,2685.0,2.18,6.35,11.53,-0.04,0.01,-0.13,0.0,g
2959.0,870.0,2514.0,4095.0,4095.0,2599.0,2773.0,2646.0,2.45,6.36,11.5,0.05,0.05,-0.16,0.0,g
2962.0,873.0,2515.0,4095.0,4095.0,2604.0,2775.0,2652.0,2.39,6.24,11.53,-0.02,-0.02,-0.12,0.0,g
2963.0,867.0,2525.0,4095.0,4095.0,2603.0,2779.0,2649.0,2.42,6.35,11.4,-0.04,-0.06,-0.12,0.0,g
2963.0,867.0,2528.0,4095.0,4095.0,2605.0,2781.0,2661.0,2.6,6.28,11.46,-0.19,-0.06,-0.13,0.0,g
2959.0,877.0,2522.0,4095.0,4095.0,2602.0,2785.0,2657.0,2.64,6.17,11.71,-0.1,-0.06,-0.18,0.0,g
2961.0,874.0,2524.0,4095.0,4095.0,2605.0,2786.0,2658.0,2.77,6.04,11.79,0.02,0.02,-0.16,0.0,g
2974.0,879.0,2523.0,4095.0,4095.0,2606.0,2784.0,2662.0,2.68,6.04,11.81,0.03,-0.01,-0.19,0.0,g
2963.0,879.0,2527.0,4095.0,4095.0,2609.0,2793.0,2671.0,2.45,6.21,11.62,0.07,0.03,-0.17,0.0,g
2959.0,880.0,2515.0,4095.0,4095.0,2605.0,2789.0,2660.0,2.45,6.24,11.45,0.05,-0.02,-0.17,0.0,g
2960.0,878.0,2515.0,4095.0,4095.0,2608.0,2785.0,2660.0,2.58,6.3,11.39,-0.07,0.01,-0.11,0.0,g
2960.0,886.0,2527.0,4095.0,4095.0,2608.0,2785.0,2654.0,2.67,6.21,11.72,-0.01,-0.01,-0.13,0.0,g
2963.0,891.0,2533.0,4095.0,4095.0,2608.0,2786.0,2653.0,2.66,6.2,11.47,-0.03,-0.0,-0.15,0.0,g
2966.0,889.0,2531.0,4095.0,4095.0,2608.0,2795.0,2653.0,2.5,6.13,11.65,-0.05,-0.04,-0.19,0.0,g
2960.0,895.0,2521.0,4095.0,4095.0,2608.0,2786.0,2650.0,2.55,6.14,11.67,-0.03,-0.02,-0.16,0.0,g
2960.0,889.0,2533.0,4095.0,4095.0,2612.0,2795.0,2656.0,2.68,6.08,11.66,0.03,0.02,-0.16,0.0,g
2963.0,886.0,2526.0,4095.0,4095.0,2613.0,2786.0,2663.0,2.68,6.1,11.73,0.01,0.01,-0.15,0.0,g
2959.0,893.0,2527.0,4095.0,4095.0,2613.0,2788.0,2661.0,2.58,6.12,11.69,0.08,0.02,-0.21,0.0,g
2959.0,895.0,2527.0,4095.0,4095.0,2607.0,2794.0,2661.0,2.51,6.16,11.54,-0.0,-0.04,-0.17,0.0,g
2955.0,897.0,2525.0,4095.0,4095.0,2611.0,2790.0,2661.0,2.33,6.21,11.54,0.04,0.0,-0.15,0.0,g
2969.0,884.0,2525.0,4095.0,4095.0,2610.0,2796.0,2662.0,2.57,6.12,11.6,-0.08,-0.0,-0.12,0.0,g
2971.0,891.0,2529.0,4095.0,4095.0,2640.0,2813.0,2682.0,2.54,6.15,11.74,0.04,0.02,-0.16,0.0,g
2960.0,877.0,2514.0,4095.0,4095.0,2638.0,2814.0,2678.0,2.51,6.14,11.55,-0.01,-0.03,-0.15,0.0,g
2959.0,880.0,2518.0,4095.0,4095.0,2639.0,2814.0,2681.0,2.55,6.17,11.71,0.07,0.01,-0.15,0.0,g
2955.0,874.0,2511.0,4095.0,4095.0,2638.0,2816.0,2679.0,2.63,6.24,11.44,-0.01,-0.02,-0.14,0.0,g
2963.0,876.0,2513.0,4095.0,4095.0,2640.0,2816.0,2685.0,2.49,6.19,11.71,0.04,0.02,-0.17,0.0,g
2961.0,885.0,2512.0,4095.0,4095.0,2639.0,2811.0,2678.0,2.49,6.16,11.63,-0.01,0.01,-0.15,0.0,g
2958.0,878.0,2523.0,4095.0,4095.0,2631.0,2815.0,2686.0,2.41,6.22,11.6,0.05,-0.0,-0.16,0.0,g
2954.0,874.0,2513.0,4095.0,4095.0,2643.0,2817.0,2683.0,2.4,6.17,11.61,-0.02,0.03,-0.12,0.0,g
2960.0,880.0,2515.0,4095.0,4095.0,2643.0,2819.0,2683.0,2.68,6.2,11.68,0.07,-0.02,-0.16,0.0,g
2967.0,873.0,2510.0,4095.0,4095.0,2638.0,2823.0,2688.0,2.61,6.22,11.51,-0.02,-0.0,-0.15,0.0,g
2965.0,878.0,2512.0,4095.0,4095.0,2640.0,2815.0,2687.0,2.5,6.21,11.65,0.05,0.03,-0.18,0.0,g
2960.0,874.0,2518.0,4095.0,4095.0,2641.0,2814.0,2688.0,2.51,6.22,11.5,-0.02,0.0,-0.16,0.0,g
2960.0,879.0,2517.0,4095.0,4095.0,2640.0,2815.0,2686.0,2.36,6.31,11.61,0.02,-0.01,-0.17,0.0,g
2959.0,878.0,2512.0,4095.0,4095.0,2640.0,2804.0,2681.0,2.39,6.3,11.44,0.03,-0.01,-0.16,0.0,g
2960.0,871.0,2517.0,4095.0,4095.0,2642.0,2815.0,2686.0,2.54,6.22,11.45,-0.05,0.0,-0.12,0.0,g
2953.0,880.0,2512.0,4095.0,4095.0,2640.0,2814.0,2682.0,2.77,6.01,11.84,-0.01,0.01,-0.14,0.0,g
2962.0,880.0,2518.0,4095.0,4095.0,2641.0,2815.0,2691.0,2.56,6.11,11.77,0.02,-0.03,-0.19,0.0,g
2959.0,880.0,2515.0,4095.0,4095.0,2640.0,2815.0,2689.0,2.34,6.21,11.61,0.06,0.01,-0.18,0.0,g
2959.0,866.0,2514.0,4095.0,4095.0,2640.0,2813.0,2688.0,2.26,6.3,11.45,0.03,0.0,-0.16,0.0,g
2955.0,880.0,2518.0,4095.0,4095.0,2642.0,2816.0,2689.0,2.52,6.22,11.56,-0.01,-0.01,-0.14,0.0,g
2979.0,3415.0,2672.0,4095.0,4095.0,2409.0,2490.0,2358.0,2.24,5.26,12.28,0.4,0.16,-0.23,0.0,g
2979.0,3415.0,2672.0,4095.0,4095.0,2409.0,2490.0,2358.0,2.24,5.26,12.28,0.4,0.16,-0.23,0.0,g
2973.0,3649.0,2739.0,4095.0,4095.0,2453.0,2494.0,2348.0,2.33,5.55,11.97,0.43,0.25,-0.25,0.0,g
2965.0,3649.0,2800.0,4095.0,4095.0,2449.0,2496.0,2334.0,2.29,5.77,11.12,0.07,0.04,-0.13,0.0,g
2966.0,3679.0,2826.0,4095.0,4095.0,2461.0,2495.0,2334.0,2.67,5.87,12.11,0.06,-0.02,-0.18,0.0,g
2970.0,3671.0,2832.0,4095.0,4095.0,2461.0,2499.0,2333.0,2.37,5.98,11.82,0.12,-0.03,-0.21,0.0,g
2960.0,3670.0,2831.0,4095.0,4095.0,2465.0,2509.0,2337.0,2.13,5.97,11.58,-0.01,0.03,-0.17,0.0,g
2962.0,3680.0,2832.0,4095.0,4095.0,2478.0,2511.0,2351.0,2.15,6.06,11.82,-0.0,0.02,-0.14,0.0,g
2967.0,3675.0,2837.0,4095.0,4095.0,2480.0,2512.0,2359.0,2.22,5.88,11.93,0.02,-0.02,-0.14,0.0,g
2969.0,3673.0,2839.0,4095.0,4095.0,2485.0,2523.0,2365.0,2.12,6.09,11.78,0.01,-0.07,-0.16,0.0,g
2967.0,3678.0,2843.0,4095.0,4095.0,2487.0,2529.0,2370.0,2.35,5.92,11.85,0.05,0.04,-0.13,0.0,g
2959.0,3675.0,2837.0,4095.0,4095.0,2491.0,2530.0,2371.0,2.26,6.06,11.81,-0.04,-0.06,-0.16,0.0,g
2967.0,3678.0,2838.0,4095.0,4095.0,2492.0,2537.0,2380.0,2.17,6.04,11.91,0.04,0.03,-0.17,0.0,g
2962.0,3677.0,2843.0,4095.0,4095.0,2495.0,2543.0,2383.0,2.0,6.07,11.73,-0.05,0.03,-0.12,0.0,g
2963.0,3673.0,2839.0,4095.0,4095.0,2496.0,2544.0,2381.0,2.28,5.99,11.89,0.01,0.01,-0.14,0.0,g
2966.0,3664.0,2845.0,4095.0,4095.0,2499.0,2547.0,2396.0,2.36,6.05,11.92,0.04,-0.0,-0.14,0.0,g
2964.0,3667.0,2843.0,4095.0,4095.0,2499.0,2546.0,2399.0,2.3,6.01,11.67,-0.03,-0.03,-0.17,0.0,g
2979.0,3673.0,2848.0,4095.0,4095.0,2506.0,2551.0,2402.0,2.21,6.03,11.92,0.02,0.01,-0.16,0.0,g
2972.0,3675.0,2845.0,4095.0,4095.0,2506.0,2550.0,2411.0,2.37,5.94,11.89,0.01,0.02,-0.18,0.0,g
2971.0,3677.0,2847.0,4095.0,4095.0,2509.0,2549.0,2407.0,2.21,6.09,11.77,0.03,0.01,-0.18,0.0,g
2992.0,3810.0,2794.0,4095.0,4095.0,2672.0,2803.0,2672.0,2.63,6.15,11.77,0.06,0.01,-0.16,0.0,g
3003.0,3837.0,2771.0,4095.0,4095.0,2693.0,2843.0,2722.0,2.56,6.0,11.75,0.04,0.03,-0.17,0.0,g
3002.0,3867.0,2762.0,4095.0,4095.0,2704.0,2871.0,2749.0,2.32,5.93,11.77,-0.0,0.02,-0.15,0.0,g
2993.0,3878.0,2757.0,4095.0,4095.0,2718.0,2886.0,2775.0,2.47,5.98,11.82,0.02,0.01,-0.17,0.0,g
2995.0,3869.0,2765.0,4095.0,4095.0,2721.0,2889.0,2783.0,2.51,5.96,11.78,0.02,0.01,-0.17,0.0,g
3001.0,3871.0,2767.0,4095.0,4095.0,2726.0,2889.0,2781.0,2.54,5.96,11.78,-0.0,-0.02,-0.15,0.0,g
2995.0,3875.0,2766.0,4095.0,4095.0,2733.0,2890.0,2777.0,2.62,5.96,11.74,0.02,-0.01,-0.17,0.0,g
2986.0,3856.0,2762.0,4095.0,4095.0,2719.0,2880.0,2769.0,2.56,6.03,11.83,-0.04,0.0,-0.17,0.0,g
2991.0,3855.0,2765.0,4095.0,4095.0,2725.0,2873.0,2764.0,2.54,5.88,11.9,0.03,-0.0,-0.18,0.0,g
2991.0,3839.0,2766.0,4095.0,4095.0,2710.0,2864.0,2754.0,2.28,6.09,11.69,-0.02,0.01,-0.15,0.0,g
2992.0,3843.0,2771.0,4095.0,4095.0,2708.0,2849.0,2737.0,2.61,5.86,11.94,0.01,0.02,-0.14,0.0,g
2989.0,3835.0,2785.0,4095.0,4095.0,2702.0,2833.0,2718.0,2.48,6.11,11.73,-0.02,-0.06,-0.17,0.0,g
2983.0,3815.0,2790.0,4095.0,4095.0,2695.0,2803.0,2672.0,2.41,5.93,11.83,-0.03,-0.02,-0.15,0.0,g
2977.0,3787.0,2805.0,4095.0,4095.0,2655.0,2768.0,2639.0,2.39,5.93,11.84,-0.05,-0.04,-0.13,0.0,g
2980.0,3773.0,2829.0,4095.0,4095.0,2636.0,2738.0,2603.0,2.52,5.86,11.84,-0.02,0.02,-0.12,0.0,g
2974.0,3728.0,2843.0,4095.0,4095.0,2618.0,2705.0,2559.0,2.73,5.84,11.89,-0.02,-0.03,-0.14,0.0,g
2973.0,3725.0,2846.0,4095.0,4095.0,2608.0,2703.0,2559.0,2.56,5.99,11.77,-0.03,-0.04,-0.17,0.0,g
2977.0,3705.0,2864.0,4095.0,4095.0,2603.0,2681.0,2546.0,2.52,5.73,12.03,-0.01,0.0,-0.16,0.0,g
2981.0,3715.0,2864.0,4095.0,4095.0,2609.0,2685.0,2544.0,2.47,5.86,11.94,0.06,-0.01,-0.17,0.0,g
2966.0,3694.0,2859.0,4095.0,4095.0,2606.0,2687.0,2540.0,2.52,5.83,11.76,0.03,0.03,-0.15,0.0,g
2983.0,3815.0,2790.0,4095.0,4095.0,2695.0,2803.0,2672.0,2.41,5.93,11.83,-0.03,-0.02,-0.15,0.0,g
