hall_1,hall_2,hall_3,flex_t,flex_i,flex_m,flex_r,flex_p,accel_x,accel_y,accel_z,gyro_x,gyro_y,gyro_z,hand,sign
2939.0,3095.0,3053.0,4095.0,4095.0,2822.0,3066.0,3328.0,-8.09,1.14,5.37,-0.11,-0.01,-0.06,1.0,g
2918.0,3098.0,3040.0,4095.0,4095.0,2829.0,3066.0,3311.0,-7.99,1.13,5.25,-0.04,0.01,-0.1,1.0,g
2928.0,3091.0,3044.0,4095.0,4095.0,2816.0,3054.0,3311.0,-7.97,1.21,4.97,-0.08,0.02,-0.09,1.0,g
2931.0,3104.0,3034.0,4095.0,4095.0,2817.0,3059.0,3313.0,-8.1,1.15,4.95,-0.06,0.03,-0.09,1.0,g
2931.0,3101.0,3045.0,4095.0,4095.0,2832.0,3060.0,3312.0,-8.13,1.06,4.97,-0.12,0.02,-0.07,1.0,g
2937.0,3089.0,3045.0,4095.0,4095.0,2818.0,3059.0,3318.0,-8.24,1.04,5.15,-0.09,-0.02,-0.08,1.0,g
2928.0,3095.0,3051.0,4095.0,4095.0,2817.0,3063.0,3312.0,-8.12,0.96,5.42,-0.08,0.02,-0.04,1.0,g
2925.0,3088.0,3042.0,4095.0,4095.0,2827.0,3069.0,3317.0,-8.18,1.01,5.19,-0.04,0.01,-0.05,1.0,g
2909.0,3094.0,3049.0,4095.0,4095.0,2819.0,3054.0,3317.0,-8.07,1.05,5.02,-0.05,0.02,-0.04,1.0,g
2930.0,2974.0,3043.0,4095.0,4095.0,2810.0,3061.0,3312.0,-8.13,1.07,4.95,-0.06,-0.0,-0.05,1.0,g
2928.0,3088.0,3035.0,4095.0,4095.0,2831.0,3059.0,3325.0,-8.08,1.01,5.03,-0.08,0.03,-0.05,1.0,g
2938.0,3105.0,3043.0,4095.0,4095.0,2832.0,3065.0,3315.0,-8.21,1.01,5.03,-0.08,0.0,-0.06,1.0,g
2917.0,3099.0,3035.0,4095.0,4095.0,2832.0,3056.0,3312.0,-8.11,1.08,5.02,-0.09,0.01,-0.05,1.0,g
2927.0,3103.0,3055.0,4095.0,4095.0,2833.0,3068.0,3312.0,-8.13,1.01,5.17,-0.12,-0.0,-0.04,1.0,g
2928.0,3101.0,3042.0,4095.0,4095.0,2829.0,3056.0,3326.0,-8.16,1.01,5.09,-0.08,0.01,-0.05,1.0,g
2926.0,3088.0,3037.0,4095.0,4095.0,2829.0,3057.0,3314.0,-8.21,1.0,5.09,-0.06,0.0,-0.03,1.0,g
2928.0,3091.0,3040.0,4095.0,4095.0,2832.0,3059.0,3318.0,-8.18,0.96,5.12,-0.06,0.01,-0.04,1.0,g
2922.0,3102.0,3046.0,4095.0,4095.0,2827.0,3059.0,3318.0,-8.16,0.99,5.07,-0.07,0.01,-0.02,1.0,g
2921.0,3091.0,3041.0,4095.0,4095.0,2834.0,3056.0,3321.0,-8.16,1.02,5.07,-0.06,-0.07,-0.01,1.0,g
2931.0,3088.0,3046.0,4095.0,4095.0,2835.0,3059.0,3319.0,-8.36,0.99,5.13,-0.02,-0.08,0.09,1.0,g
2931.0,3095.0,3056.0,4095.0,4095.0,2836.0,3070.0,3313.0,-8.06,1.18,5.07,-0.07,0.03,0.08,1.0,g
2931.0,3093.0,3038.0,4095.0,4095.0,2835.0,3057.0,3316.0,-8.2,1.09,5.23,-0.03,-0.09,0.04,1.0,g
2921.0,3089.0,3053.0,4095.0,4095.0,2829.0,3068.0,3330.0,-8.17,1.08,5.25,-0.04,-0.08,0.01,1.0,g
2934.0,3087.0,3043.0,4095.0,4095.0,2839.0,3055.0,3317.0,-8.25,1.22,5.18,-0.04,-0.08,0.02,1.0,g
2926.0,3095.0,3039.0,4095.0,4095.0,2842.0,3061.0,3312.0,-8.07,1.17,5.38,0.02,-0.3,0.08,1.0,g
2929.0,3093.0,3037.0,4095.0,4095.0,2834.0,3063.0,3328.0,-7.86,1.22,5.6,0.05,-0.25,0.02,1.0,g
2926.0,3098.0,3047.0,4095.0,4095.0,2845.0,3061.0,3323.0,-7.65,1.54,5.5,0.14,-0.37,0.03,1.0,g
2933.0,3119.0,3040.0,4095.0,4095.0,2837.0,3065.0,3314.0,-7.64,1.67,5.3,-0.1,-0.01,0.01,1.0,g
2914.0,3092.0,3048.0,4095.0,4095.0,2832.0,3069.0,3309.0,-7.69,1.33,5.76,0.02,-0.14,-0.11,1.0,g
2921.0,3091.0,3045.0,4095.0,4095.0,2833.0,3065.0,3312.0,-7.37,1.86,5.63,-0.01,0.01,-0.1,1.0,g
2917.0,3095.0,3043.0,4095.0,4095.0,2832.0,3059.0,3313.0,-7.62,1.32,5.76,-0.16,-0.01,-0.04,1.0,g
2918.0,3101.0,3040.0,4095.0,4095.0,2831.0,3063.0,3303.0,-7.67,1.47,5.74,-0.05,-0.0,-0.11,1.0,g
2931.0,3087.0,3040.0,4095.0,4095.0,2813.0,3062.0,3303.0,-7.65,1.32,5.79,-0.08,0.03,-0.11,1.0,g
2933.0,3093.0,3038.0,4095.0,4095.0,2826.0,3063.0,3313.0,-7.79,1.3,5.67,-0.04,0.04,-0.13,1.0,g
2930.0,3099.0,3039.0,4095.0,4095.0,2798.0,3056.0,3326.0,-8.03,1.32,5.63,0.04,0.06,-0.15,1.0,g
2945.0,3097.0,3044.0,4095.0,4095.0,2768.0,3042.0,3301.0,-7.68,1.21,5.73,-0.16,0.15,-0.13,1.0,g
2943.0,3081.0,3054.0,4095.0,4095.0,2781.0,3050.0,3328.0,-7.75,1.27,5.45,-0.04,0.22,-0.18,1.0,g
2949.0,3094.0,3036.0,4095.0,4095.0,2788.0,3056.0,3361.0,-8.0,1.32,5.37,-0.06,0.13,-0.11,1.0,g
2946.0,3093.0,3034.0,4095.0,4095.0,2783.0,3056.0,3359.0,-7.7,1.21,5.21,-0.31,0.54,-0.02,1.0,g
2946.0,3088.0,3050.0,4095.0,4095.0,2786.0,3054.0,3364.0,-7.92,1.04,5.32,-0.24,0.52,-0.06,1.0,g
2955.0,3095.0,3043.0,4095.0,4095.0,2783.0,3046.0,3363.0,-8.0,1.03,5.09,-0.16,0.42,-0.17,1.0,g
2945.0,3088.0,3051.0,4095.0,4095.0,2774.0,3041.0,3366.0,-8.59,0.84,4.7,-0.27,0.54,-0.06,1.0,g
2953.0,3114.0,3050.0,4095.0,4095.0,2778.0,3042.0,3349.0,-8.83,0.66,4.54,-0.07,0.08,-0.14,1.0,g
2944.0,3089.0,3051.0,4095.0,4095.0,2779.0,3020.0,3314.0,-8.45,0.92,4.36,0.01,0.02,-0.06,1.0,g
2939.0,3031.0,3054.0,4080.0,4095.0,2782.0,2994.0,3278.0,-8.58,0.72,4.6,0.04,0.06,-0.07,1.0,g
2947.0,3099.0,3051.0,4080.0,4095.0,2768.0,2991.0,3262.0,-8.45,0.89,4.45,0.07,0.01,-0.09,1.0,g
2944.0,3098.0,3056.0,3949.0,4095.0,2775.0,2987.0,3270.0,-8.52,0.8,4.41,-0.2,0.29,0.0,1.0,g
2960.0,3101.0,3056.0,3719.0,4095.0,2768.0,2998.0,3280.0,-8.48,0.83,4.35,-0.15,0.14,-0.06,1.0,g
2946.0,3099.0,3049.0,3597.0,4095.0,2768.0,3006.0,3286.0,-8.24,0.87,4.26,-0.08,0.07,-0.05,1.0,g
2947.0,3106.0,3054.0,3582.0,4095.0,2755.0,3009.0,3298.0,-8.63,0.77,4.37,-0.06,0.16,-0.03,1.0,g
2973.0,3094.0,3059.0,3618.0,4095.0,2751.0,3005.0,3297.0,-8.52,0.91,3.95,-0.1,-0.03,-0.04,1.0,g
2964.0,3106.0,3061.0,3648.0,4095.0,2704.0,2991.0,3292.0,-8.7,0.89,4.01,-0.09,-0.05,-0.02,1.0,g
2959.0,3120.0,3057.0,3715.0,4095.0,2631.0,2986.0,3293.0,-8.66,0.69,4.17,-0.19,-0.18,-0.02,1.0,g
2960.0,3134.0,3068.0,3770.0,4095.0,2621.0,2972.0,3281.0,-8.24,0.72,4.42,0.01,-0.18,-0.12,1.0,g
2959.0,3142.0,3059.0,3827.0,4095.0,2626.0,2971.0,3282.0,-8.47,1.02,4.32,-0.1,0.09,0.01,1.0,g
2966.0,3137.0,3067.0,3888.0,4095.0,2629.0,2961.0,3286.0,-8.39,0.81,4.26,-0.09,-0.15,-0.06,1.0,g
2960.0,3138.0,3063.0,3933.0,4095.0,2640.0,2966.0,3279.0,-8.53,0.81,4.48,-0.07,0.05,-0.08,1.0,g
2954.0,3137.0,3067.0,3942.0,4095.0,2657.0,2973.0,3280.0,-8.32,0.82,4.31,-0.1,-0.1,-0.1,1.0,g
2953.0,3129.0,3068.0,3987.0,4095.0,2667.0,2969.0,3287.0,-8.28,0.64,4.58,-0.09,0.1,-0.05,1.0,g
2933.0,3139.0,3061.0,4038.0,4095.0,2669.0,2976.0,3283.0,-8.71,0.68,4.47,0.02,0.09,-0.09,1.0,g
2935.0,3151.0,3066.0,4071.0,4095.0,2670.0,2990.0,3285.0,-8.56,0.85,4.16,0.09,0.09,-0.03,1.0,g
2945.0,3147.0,3071.0,4095.0,4095.0,2671.0,2992.0,3276.0,-8.59,0.54,4.29,-0.06,0.05,-0.03,1.0,g
2935.0,3163.0,3082.0,4095.0,4095.0,2673.0,2995.0,3281.0,-8.63,0.72,4.31,0.0,-0.02,-0.05,1.0,g
2928.0,3141.0,3071.0,4095.0,4095.0,2671.0,2997.0,3289.0,-8.5,0.66,4.34,-0.07,-0.07,-0.07,1.0,g
2935.0,3151.0,3065.0,4095.0,4095.0,2666.0,3006.0,3284.0,-8.48,0.74,4.4,0.04,-0.14,-0.08,1.0,g
2934.0,3152.0,3079.0,4095.0,4095.0,2668.0,3003.0,3291.0,-8.45,0.71,4.45,0.06,-0.19,-0.1,1.0,g
2941.0,3147.0,3057.0,4095.0,4095.0,2673.0,3006.0,3280.0,-8.07,0.98,4.58,0.23,-0.41,-0.19,1.0,g
2945.0,3143.0,3058.0,4095.0,4095.0,2683.0,2994.0,3287.0,-8.32,0.67,4.84,0.15,-0.2,-0.11,1.0,g
2947.0,3146.0,3069.0,4095.0,4095.0,2675.0,2995.0,3283.0,-7.97,0.83,4.69,0.11,-0.35,-0.21,1.0,g
2943.0,3152.0,3081.0,4095.0,4095.0,2693.0,2992.0,3286.0,-8.12,0.85,5.04,0.02,0.01,-0.1,1.0,g
2930.0,3150.0,3063.0,4095.0,4095.0,2693.0,2994.0,3280.0,-8.34,0.69,5.0,0.06,-0.03,-0.15,1.0,g
2939.0,3151.0,3084.0,4095.0,4095.0,2699.0,2992.0,3292.0,-8.53,0.73,4.84,-0.02,0.11,-0.13,1.0,g
2954.0,3102.0,3071.0,4095.0,4095.0,2704.0,3008.0,3280.0,-8.43,0.57,4.81,-0.05,0.07,-0.04,1.0,g
2942.0,3149.0,3090.0,4095.0,4095.0,2694.0,2997.0,3289.0,-8.4,0.65,4.72,-0.11,0.01,-0.03,1.0,g
2937.0,3139.0,3069.0,4095.0,4095.0,2703.0,2995.0,3295.0,-8.16,0.62,4.86,-0.12,0.03,-0.03,1.0,g
2931.0,3152.0,3055.0,4095.0,4095.0,2710.0,2999.0,3307.0,-8.14,0.69,4.78,-0.18,-0.12,-0.12,1.0,g
2960.0,3149.0,3070.0,4095.0,4095.0,2720.0,2994.0,3299.0,-8.19,0.65,5.05,-0.09,0.07,-0.12,1.0,g
2950.0,3137.0,3067.0,4095.0,4095.0,2719.0,2990.0,3312.0,-8.37,0.47,4.9,-0.12,0.07,-0.03,1.0,g
2949.0,3138.0,3067.0,4095.0,4095.0,2731.0,2997.0,3329.0,-8.35,0.55,4.78,-0.21,0.18,-0.01,1.0,g
2970.0,3120.0,3054.0,4095.0,4095.0,2733.0,3007.0,3328.0,-8.69,0.33,4.8,-0.15,0.23,0.01,1.0,g
2982.0,3131.0,3057.0,4095.0,4095.0,2736.0,2995.0,3330.0,-8.43,0.68,4.49,-0.15,0.05,0.02,1.0,g
2966.0,3115.0,3057.0,4095.0,4095.0,2739.0,3001.0,3333.0,-8.21,0.49,4.58,-0.14,0.09,0.05,1.0,g
2975.0,3119.0,3068.0,4095.0,4095.0,2742.0,2992.0,3306.0,-8.57,0.52,4.5,-0.2,-0.05,0.05,1.0,g
2961.0,3107.0,3071.0,4095.0,4095.0,2746.0,2974.0,3280.0,-8.21,0.55,4.71,-0.17,0.04,0.07,1.0,g
2970.0,3103.0,3055.0,4095.0,4095.0,2759.0,2971.0,3281.0,-8.37,0.45,4.75,-0.11,0.18,0.01,1.0,g
2959.0,3110.0,3070.0,4095.0,4095.0,2763.0,2994.0,3299.0,-8.51,0.63,4.46,0.1,0.02,-0.02,1.0,g
2966.0,3120.0,3071.0,4095.0,4095.0,2773.0,3005.0,3307.0,-8.65,0.59,4.48,-0.07,0.05,0.09,1.0,g
2959.0,3152.0,3088.0,4095.0,4095.0,2789.0,3012.0,3326.0,-8.45,0.67,4.48,-0.03,-0.07,0.01,1.0,g
2961.0,3158.0,3088.0,4095.0,4095.0,2797.0,3018.0,3315.0,-8.52,0.7,4.44,-0.11,-0.07,0.04,1.0,g
2958.0,3177.0,3088.0,4095.0,4095.0,2847.0,3008.0,3307.0,-8.31,0.78,4.55,-0.11,-0.11,0.04,1.0,g
2943.0,3189.0,3084.0,4095.0,4095.0,2887.0,3015.0,3307.0,-8.44,0.87,4.66,0.01,-0.13,-0.11,1.0,g
2960.0,3190.0,3087.0,4095.0,4095.0,2896.0,3005.0,3279.0,-8.18,0.7,4.75,-0.08,-0.03,-0.07,1.0,g
2954.0,3193.0,3085.0,4095.0,4095.0,2911.0,2994.0,3282.0,-8.39,0.81,4.61,-0.07,-0.14,-0.08,1.0,g
2950.0,3184.0,3089.0,4095.0,4095.0,2960.0,2997.0,3275.0,-8.33,0.71,4.79,-0.1,-0.02,-0.03,1.0,g
2963.0,3203.0,3089.0,4095.0,4095.0,2987.0,2996.0,3285.0,-8.22,0.65,4.87,-0.1,-0.0,-0.13,1.0,g
2965.0,3174.0,3066.0,4095.0,4095.0,3008.0,2999.0,3283.0,-8.14,0.79,4.63,-0.18,-0.06,-0.05,1.0,g
2960.0,3183.0,3060.0,4095.0,4095.0,3019.0,3007.0,3293.0,-8.1,0.64,4.8,-0.18,0.01,-0.09,1.0,g
2960.0,3201.0,3085.0,4095.0,4095.0,3020.0,2995.0,3293.0,-8.2,0.67,4.65,-0.11,0.08,-0.1,1.0,g
2957.0,3191.0,3079.0,4095.0,4095.0,3035.0,3005.0,3301.0,-8.56,0.51,4.64,-0.19,-0.05,-0.12,1.0,g
2974.0,3187.0,3082.0,4095.0,4095.0,3040.0,3013.0,3313.0,-8.16,0.5,4.77,-0.23,-0.03,-0.07,1.0,g
2970.0,3181.0,3084.0,4095.0,4095.0,3038.0,3023.0,3315.0,-8.43,0.34,4.92,-0.04,-0.03,-0.14,1.0,g
2973.0,3177.0,3070.0,4095.0,4095.0,3029.0,3018.0,3330.0,-8.27,0.31,4.83,-0.15,0.01,-0.06,1.0,g
2970.0,3175.0,3071.0,4095.0,4095.0,3040.0,3025.0,3335.0,-8.52,0.22,4.94,-0.02,-0.05,-0.11,1.0,g
2967.0,3179.0,3071.0,4095.0,4095.0,3038.0,3029.0,3341.0,-8.3,0.27,4.82,-0.1,-0.0,-0.07,1.0,g
2973.0,3175.0,3081.0,4095.0,4095.0,3046.0,3034.0,3353.0,-8.35,0.3,4.88,-0.11,-0.06,-0.06,1.0,g
2963.0,3169.0,3093.0,4095.0,4095.0,3053.0,3033.0,3343.0,-8.6,0.15,4.99,-0.11,0.04,-0.02,1.0,g
2962.0,3175.0,3085.0,4095.0,4095.0,3056.0,3023.0,3339.0,-9.08,-0.02,5.13,-0.11,-0.01,0.05,1.0,g
2967.0,3184.0,3079.0,4095.0,4095.0,3056.0,3025.0,3339.0,-8.47,0.16,5.15,-0.01,0.01,0.15,1.0,g
2970.0,3164.0,3071.0,4095.0,4095.0,3056.0,3025.0,3358.0,-7.92,0.53,4.76,-0.01,-0.01,0.15,1.0,g
2967.0,3178.0,3067.0,4095.0,4095.0,3045.0,3031.0,3353.0,-7.83,0.68,4.61,-0.09,-0.06,0.07,1.0,g
2968.0,3189.0,3088.0,4095.0,4095.0,3007.0,3033.0,3393.0,-7.76,0.91,4.79,-0.17,-0.1,-0.01,1.0,g
2972.0,3194.0,3092.0,4095.0,4095.0,2951.0,3049.0,3442.0,-8.06,0.6,5.04,-0.14,-0.04,-0.07,1.0,g
2977.0,3200.0,3143.0,4095.0,4095.0,2937.0,3065.0,3489.0,-8.3,0.5,5.06,-0.08,-0.02,-0.07,1.0,g
2966.0,3290.0,3163.0,4095.0,4095.0,2938.0,3071.0,3513.0,-8.23,0.43,5.07,-0.06,-0.03,-0.03,1.0,g
2965.0,3297.0,3194.0,4095.0,4095.0,2956.0,3071.0,3421.0,-8.08,0.37,5.15,-0.12,-0.04,-0.05,1.0,g
2954.0,3347.0,3213.0,4095.0,4095.0,2945.0,3055.0,3450.0,-7.91,0.54,5.15,-0.08,0.06,-0.01,1.0,g
2959.0,3429.0,3212.0,4095.0,4095.0,2950.0,3057.0,3563.0,-8.19,0.57,5.09,-0.04,-0.02,-0.1,1.0,g
2970.0,3407.0,3233.0,4095.0,4095.0,2942.0,3048.0,3525.0,-8.31,0.53,4.82,-0.09,0.09,-0.01,1.0,g
2957.0,3405.0,3220.0,4095.0,4095.0,2948.0,3049.0,3519.0,-8.2,0.45,5.09,-0.09,0.04,-0.02,1.0,g
2970.0,3397.0,3225.0,4095.0,4095.0,2934.0,3024.0,3457.0,-8.26,0.38,5.02,-0.07,0.07,-0.01,1.0,g
2978.0,3374.0,3221.0,4095.0,4095.0,2934.0,3008.0,3474.0,-8.26,0.46,5.06,0.04,0.03,-0.06,1.0,g
2959.0,3382.0,3188.0,4095.0,4095.0,2955.0,3002.0,3414.0,-8.25,0.4,4.98,-0.06,-0.02,-0.04,1.0,g
2962.0,3357.0,3158.0,4095.0,4095.0,2957.0,2992.0,3343.0,-8.26,0.44,5.02,-0.05,0.03,-0.02,1.0,g
2976.0,3359.0,3135.0,4095.0,4095.0,2954.0,2989.0,3331.0,-8.19,0.54,4.96,-0.03,-0.01,-0.02,1.0,g
2959.0,3344.0,3120.0,4095.0,4095.0,2953.0,2973.0,3302.0,-8.23,0.51,4.98,-0.03,0.04,-0.02,1.0,g
2960.0,3312.0,3120.0,4095.0,4095.0,2947.0,2969.0,3296.0,-8.19,0.6,4.95,-0.01,0.0,-0.0,1.0,g
2957.0,3330.0,3122.0,4095.0,4095.0,2929.0,2979.0,3299.0,-8.3,0.53,4.89,-0.04,-0.01,-0.0,1.0,g
2957.0,3327.0,3127.0,4095.0,4095.0,2919.0,2966.0,3303.0,-8.18,0.59,5.07,-0.0,-0.01,0.01,1.0,g
2953.0,3333.0,3119.0,4095.0,4095.0,2907.0,2979.0,3303.0,-8.11,0.58,4.97,-0.04,0.04,0.08,1.0,g
2949.0,3347.0,3126.0,4095.0,4095.0,2929.0,2992.0,3303.0,-8.16,0.68,4.91,0.03,-0.0,-0.02,1.0,g
2937.0,3370.0,3122.0,4095.0,4095.0,2937.0,3007.0,3295.0,-8.15,0.78,4.81,-0.09,0.03,-0.01,1.0,g
2941.0,3392.0,3133.0,4095.0,4095.0,2896.0,3008.0,3318.0,-8.24,0.58,4.94,-0.07,-0.02,-0.09,1.0,g
2935.0,3388.0,3120.0,4095.0,4095.0,2830.0,3006.0,3311.0,-8.25,0.74,4.96,-0.06,0.0,-0.08,1.0,g
2932.0,3377.0,3123.0,4095.0,4095.0,2792.0,3007.0,3297.0,-8.07,0.58,4.96,-0.11,-0.06,-0.09,1.0,g
2940.0,3383.0,3120.0,4095.0,4095.0,2762.0,2995.0,3311.0,-8.15,0.6,4.94,-0.11,-0.06,-0.08,1.0,g
2945.0,3379.0,3139.0,4095.0,4095.0,2761.0,2994.0,3302.0,-8.15,0.54,5.12,0.0,0.0,-0.1,1.0,g
2935.0,3365.0,3129.0,4095.0,4095.0,2741.0,2990.0,3309.0,-8.19,0.46,5.09,-0.04,-0.04,-0.09,1.0,g
2936.0,3375.0,3118.0,4095.0,4095.0,2754.0,2981.0,3312.0,-8.16,0.55,5.13,0.05,-0.09,-0.13,1.0,g
2932.0,3359.0,3120.0,4095.0,4095.0,2753.0,2985.0,3317.0,-7.91,0.53,5.07,-0.0,0.05,-0.09,1.0,g
2946.0,3364.0,3119.0,4095.0,4095.0,2752.0,2987.0,3312.0,-8.29,0.52,5.09,0.07,-0.06,-0.13,1.0,g
2928.0,3342.0,3137.0,4095.0,4095.0,2730.0,2981.0,3316.0,-8.03,0.47,5.24,0.09,-0.02,-0.08,1.0,g
2935.0,3353.0,3143.0,4095.0,4095.0,2762.0,2991.0,3300.0,-8.2,0.68,5.18,0.16,-0.02,-0.13,1.0,g
2930.0,3358.0,3130.0,4095.0,4095.0,2765.0,2994.0,3312.0,-8.11,0.37,5.17,0.0,-0.02,-0.09,1.0,g
2935.0,3359.0,3133.0,4095.0,4095.0,2768.0,2982.0,3319.0,-8.3,0.52,5.24,0.02,-0.01,-0.07,1.0,g
2937.0,3355.0,3136.0,4095.0,4095.0,2754.0,2991.0,3309.0,-8.16,0.45,5.15,0.06,-0.21,-0.12,1.0,g
2932.0,3354.0,3128.0,4095.0,4095.0,2757.0,2992.0,3303.0,-7.93,0.59,5.2,0.03,-0.04,-0.09,1.0,g
2935.0,3345.0,3136.0,4095.0,4095.0,2763.0,2990.0,3318.0,-8.16,0.49,5.3,-0.0,-0.03,-0.04,1.0,g
2928.0,3339.0,3127.0,4095.0,4095.0,2770.0,2988.0,3319.0,-8.3,0.42,5.39,0.02,-0.16,-0.09,1.0,g
2935.0,3347.0,3136.0,4095.0,4095.0,2775.0,2983.0,3307.0,-7.95,0.74,5.32,0.02,0.06,0.01,1.0,g
2927.0,3362.0,3126.0,4095.0,4095.0,2785.0,2995.0,3317.0,-8.02,0.67,5.22,-0.01,-0.01,-0.03,1.0,g
2944.0,3340.0,3125.0,4095.0,4095.0,2771.0,2994.0,3328.0,-7.76,0.81,5.13,-0.04,0.01,-0.04,1.0,g
2926.0,3353.0,3120.0,4095.0,4095.0,2771.0,2992.0,3312.0,-8.03,0.65,5.21,-0.08,-0.02,-0.09,1.0,g
2927.0,3365.0,3150.0,4095.0,4095.0,2775.0,2992.0,3314.0,-7.98,0.67,5.23,-0.12,0.0,-0.06,1.0,g
2928.0,3362.0,3124.0,4095.0,4095.0,2781.0,2992.0,3312.0,-7.96,0.55,5.47,-0.08,-0.04,-0.12,1.0,g
2934.0,3367.0,3132.0,4095.0,4095.0,2790.0,2997.0,3315.0,-7.92,0.6,5.32,-0.1,0.0,-0.06,1.0,g
2934.0,3365.0,3133.0,4095.0,4095.0,2790.0,2999.0,3318.0,-7.98,0.45,5.39,-0.07,-0.0,-0.08,1.0,g
2939.0,3341.0,3111.0,4095.0,4095.0,2791.0,2996.0,3313.0,-8.01,0.48,5.39,-0.08,0.01,-0.09,1.0,g
2925.0,3360.0,3128.0,4095.0,4095.0,2790.0,3002.0,3334.0,-8.11,0.43,5.41,-0.13,-0.01,-0.06,1.0,g
2927.0,3344.0,3116.0,4095.0,4095.0,2800.0,3008.0,3359.0,-7.97,0.44,5.07,-0.26,0.06,-0.03,1.0,g
2933.0,3344.0,3122.0,4095.0,4095.0,2817.0,3018.0,3365.0,-7.9,0.26,5.59,-0.41,-0.12,-0.02,1.0,g
2950.0,3343.0,3116.0,4095.0,4095.0,2804.0,3022.0,3392.0,-8.09,0.35,5.39,-0.01,0.02,-0.11,1.0,g
2943.0,3341.0,3120.0,4095.0,4095.0,2816.0,3020.0,3387.0,-7.79,0.4,5.46,-0.06,0.02,-0.06,1.0,g
2944.0,3361.0,3123.0,4095.0,4095.0,2821.0,3015.0,3401.0,-8.05,0.37,5.22,-0.05,0.07,-0.05,1.0,g
2944.0,3350.0,3126.0,4095.0,4095.0,2817.0,3024.0,3398.0,-7.83,0.37,5.33,-0.05,0.09,-0.16,1.0,g
2944.0,3363.0,3124.0,4095.0,4095.0,2823.0,3011.0,3386.0,-7.83,0.28,5.35,-0.08,0.16,-0.22,1.0,g
2944.0,3344.0,3123.0,4095.0,4095.0,2830.0,3023.0,3395.0,-8.17,0.03,5.33,-0.02,0.2,-0.33,1.0,g
2945.0,3377.0,3120.0,4095.0,4095.0,2817.0,3019.0,3399.0,-8.04,0.08,5.26,-0.0,0.07,-0.21,1.0,g
2948.0,3375.0,3127.0,4095.0,4095.0,2816.0,3029.0,3383.0,-8.5,-0.12,5.17,0.05,0.07,-0.24,1.0,g
2935.0,3379.0,3120.0,4095.0,4095.0,2827.0,3022.0,3385.0,-8.2,-0.1,5.02,0.06,0.04,-0.18,1.0,g
2949.0,3376.0,3120.0,4095.0,4095.0,2823.0,3027.0,3379.0,-8.38,-0.03,4.82,-0.01,0.01,-0.14,1.0,g
2938.0,3386.0,3109.0,4095.0,4095.0,2822.0,3027.0,3387.0,-8.22,-0.09,4.92,-0.12,0.13,-0.05,1.0,g
2928.0,3379.0,3115.0,4095.0,4095.0,2822.0,3024.0,3394.0,-8.38,-0.07,4.76,-0.16,0.29,-0.13,1.0,g
2929.0,3373.0,3103.0,4095.0,4095.0,2822.0,3024.0,3397.0,-8.19,-0.21,4.7,-0.25,0.45,-0.01,1.0,g
2938.0,3376.0,3121.0,4095.0,4095.0,2830.0,3027.0,3391.0,-8.69,-0.26,4.64,-0.25,0.33,-0.06,1.0,g
2944.0,3379.0,3121.0,4095.0,4095.0,2827.0,3026.0,3386.0,-8.59,-0.37,4.53,-0.09,0.15,-0.07,1.0,g
2927.0,3376.0,3118.0,4095.0,4095.0,2824.0,3021.0,3407.0,-8.82,-0.26,4.33,-0.18,0.37,0.01,1.0,g
2945.0,3383.0,3111.0,4095.0,4095.0,2831.0,3028.0,3411.0,-8.39,-0.23,4.21,-0.18,0.22,-0.13,1.0,g
2940.0,3392.0,3113.0,4095.0,4095.0,2830.0,3026.0,3408.0,-8.78,-0.33,3.97,-0.27,0.52,-0.1,1.0,g
2939.0,3396.0,3114.0,4095.0,4095.0,2836.0,3037.0,3417.0,-8.71,-0.46,3.92,-0.04,0.06,-0.11,1.0,g
2930.0,3391.0,3114.0,4095.0,4095.0,2834.0,3026.0,3429.0,-9.09,-0.4,3.8,-0.08,0.25,-0.1,1.0,g
2938.0,3396.0,3111.0,4095.0,4095.0,2831.0,3024.0,3426.0,-9.14,-0.7,3.76,-0.02,-0.1,-0.13,1.0,g
2935.0,3395.0,3113.0,4095.0,4095.0,2837.0,3037.0,3409.0,-9.16,-0.57,3.6,-0.13,-0.01,0.02,1.0,g
2938.0,3391.0,3121.0,4095.0,4095.0,2844.0,3037.0,3418.0,-9.3,-0.67,3.78,-0.06,-0.46,-0.05,1.0,g
2946.0,3392.0,3106.0,4095.0,4095.0,2849.0,3041.0,3430.0,-8.1,-0.23,4.0,-0.11,-0.07,0.01,1.0,g
2935.0,3386.0,3110.0,4095.0,4095.0,2835.0,3042.0,3449.0,-9.04,-0.53,4.01,-0.1,-0.19,0.04,1.0,g
2932.0,3386.0,3115.0,4095.0,4095.0,2847.0,3047.0,3440.0,-8.26,-0.3,4.08,-0.12,-0.34,0.01,1.0,g
2962.0,3378.0,3121.0,4095.0,4095.0,2845.0,3045.0,3455.0,-8.56,-0.56,4.53,-0.37,-0.3,0.06,1.0,g
2957.0,3344.0,3111.0,4095.0,4095.0,2836.0,3036.0,3455.0,-7.64,-0.33,4.56,-0.17,-0.57,0.0,1.0,g
2944.0,3345.0,3120.0,4095.0,4095.0,2837.0,3036.0,3457.0,-8.13,-0.29,4.83,-0.24,-0.19,0.09,1.0,g
2929.0,3344.0,3126.0,4095.0,4095.0,2838.0,3038.0,3460.0,-8.13,-0.39,4.86,-0.1,-0.12,0.07,1.0,g
2935.0,3344.0,3138.0,4095.0,4095.0,2838.0,3034.0,3466.0,-8.16,-0.41,4.87,-0.21,-0.02,0.03,1.0,g
2944.0,3338.0,3130.0,4095.0,4095.0,2829.0,3041.0,3458.0,-8.0,-0.38,4.96,-0.1,0.09,0.01,1.0,g
2951.0,3349.0,3135.0,4095.0,4095.0,2831.0,3029.0,3472.0,-8.16,-0.32,4.73,-0.08,0.06,0.03,1.0,g
2960.0,3353.0,3136.0,4095.0,4095.0,2826.0,3050.0,3472.0,-8.13,-0.22,4.8,0.05,0.0,-0.1,1.0,g
2950.0,3376.0,3174.0,4095.0,4095.0,2829.0,3040.0,3447.0,-8.06,-0.32,4.87,-0.05,0.11,-0.1,1.0,g
2954.0,3390.0,3183.0,4095.0,4095.0,2811.0,3053.0,3446.0,-8.38,-0.24,4.69,-0.04,0.12,-0.07,1.0,g
2953.0,3383.0,3185.0,4095.0,4095.0,2819.0,3054.0,3467.0,-8.49,-0.49,4.68,-0.1,0.13,-0.03,1.0,g
2954.0,3406.0,3201.0,4095.0,4095.0,2805.0,3061.0,3507.0,-8.62,-0.47,4.7,-0.11,0.18,0.03,1.0,g
2947.0,3419.0,3209.0,4095.0,4095.0,2810.0,3055.0,3515.0,-8.33,-0.26,4.54,-0.0,-0.06,-0.06,1.0,g
2967.0,3435.0,3205.0,4095.0,4095.0,2820.0,3061.0,3520.0,-8.56,-0.36,4.51,-0.1,0.11,0.01,1.0,g
2947.0,3399.0,3237.0,4095.0,4095.0,2825.0,3063.0,3539.0,-8.33,-0.29,4.53,-0.14,0.04,-0.02,1.0,g
2951.0,3411.0,3249.0,4095.0,4095.0,2829.0,3045.0,3534.0,-8.43,-0.28,4.54,-0.13,0.05,-0.03,1.0,g
2950.0,3392.0,3248.0,4095.0,4095.0,2831.0,3050.0,3518.0,-8.3,-0.34,4.4,-0.01,0.13,-0.02,1.0,g
2961.0,3413.0,3250.0,4095.0,4095.0,2832.0,3054.0,3523.0,-8.51,-0.4,4.45,-0.04,0.03,-0.04,1.0,g
2963.0,3415.0,3242.0,4095.0,4095.0,2825.0,3049.0,3519.0,-8.52,-0.32,4.39,0.04,0.08,-0.07,1.0,g
2961.0,3457.0,3264.0,4095.0,4095.0,2832.0,3055.0,3504.0,-8.52,-0.35,4.41,-0.01,0.01,-0.02,1.0,g
2951.0,3472.0,3260.0,4095.0,4095.0,2826.0,3035.0,3455.0,-8.72,-0.2,4.35,0.09,0.04,-0.05,1.0,g
2945.0,3472.0,3279.0,4095.0,4095.0,2837.0,3025.0,3415.0,-8.52,-0.32,4.37,-0.04,0.05,-0.0,1.0,g
2955.0,3446.0,3282.0,4095.0,4095.0,2841.0,3007.0,3355.0,-8.55,-0.42,4.45,-0.07,-0.03,-0.04,1.0,g
2946.0,3435.0,3277.0,4095.0,4095.0,2885.0,2990.0,3337.0,-8.48,-0.14,4.4,0.05,0.02,-0.02,1.0,g
2954.0,3433.0,3279.0,4095.0,4095.0,2902.0,2986.0,3314.0,-8.6,-0.31,4.45,0.0,-0.01,-0.08,1.0,g
