hall_1,hall_2,hall_3,flex_t,flex_i,flex_m,flex_r,flex_p,accel_x,accel_y,accel_z,gyro_x,gyro_y,gyro_z,hand,sign
1697.0,2963.0,2994.0,3371.0,4095.0,4095.0,3036.0,2811.0,-8.67,-1.17,4.07,-0.06,0.02,-0.05,1.0,h
1712.0,2961.0,2998.0,3373.0,4095.0,4095.0,3045.0,2816.0,-8.54,-1.2,4.29,-0.07,0.05,-0.03,1.0,h
1737.0,2965.0,3002.0,3375.0,4095.0,4095.0,3043.0,2822.0,-8.58,-1.09,4.05,-0.06,0.01,-0.03,1.0,h
1659.0,2969.0,3004.0,3386.0,4095.0,4095.0,3044.0,2837.0,-8.53,-1.09,4.09,-0.03,-0.04,-0.05,1.0,h
1661.0,2982.0,2992.0,3383.0,4095.0,4095.0,3049.0,2838.0,-8.47,-1.07,4.2,-0.05,-0.01,-0.04,1.0,h
1699.0,2962.0,3003.0,3376.0,4095.0,4095.0,3046.0,2834.0,-8.54,-1.05,4.08,-0.04,-0.01,-0.06,1.0,h
1732.0,2960.0,3001.0,3386.0,4095.0,4095.0,3055.0,2857.0,-8.49,-1.08,4.07,-0.05,0.0,-0.05,1.0,h
1678.0,2967.0,3009.0,3380.0,4095.0,4095.0,3046.0,2865.0,-8.7,-1.17,4.16,-0.02,-0.01,-0.09,1.0,h
1631.0,2962.0,2995.0,3385.0,4095.0,4095.0,3053.0,2855.0,-8.63,-1.19,4.06,-0.06,-0.02,-0.05,1.0,h
1600.0,2970.0,2990.0,3379.0,4095.0,4095.0,3056.0,2846.0,-8.54,-1.17,4.17,-0.05,-0.01,-0.03,1.0,h
1779.0,2959.0,2994.0,3394.0,4095.0,4095.0,3059.0,2851.0,-8.56,-1.14,4.08,-0.08,-0.01,-0.03,1.0,h
1777.0,2963.0,2990.0,3402.0,4095.0,4095.0,3050.0,2836.0,-8.58,-1.15,4.17,-0.1,0.0,-0.02,1.0,h
1664.0,2960.0,3003.0,3402.0,4095.0,4095.0,3044.0,2845.0,-8.56,-1.22,4.18,-0.09,-0.01,-0.04,1.0,h
1479.0,2974.0,3014.0,3393.0,4095.0,4095.0,3056.0,2837.0,-8.55,-1.16,4.1,-0.07,-0.0,-0.04,1.0,h
1262.0,2970.0,3003.0,3408.0,4095.0,4095.0,3049.0,2867.0,-8.59,-1.16,4.13,-0.13,0.01,-0.01,1.0,h
1271.0,2960.0,3005.0,3399.0,4095.0,4095.0,3058.0,2863.0,-8.51,-1.24,4.16,-0.1,0.03,-0.02,1.0,h
1277.0,2958.0,2991.0,3407.0,4095.0,4095.0,3056.0,2876.0,-8.57,-1.18,4.13,-0.08,0.03,-0.02,1.0,h
1285.0,2967.0,2991.0,3410.0,4095.0,4095.0,3045.0,2864.0,-8.48,-1.13,4.22,-0.08,-0.0,-0.02,1.0,h
1306.0,2963.0,2999.0,3413.0,4095.0,4095.0,3054.0,2864.0,-8.6,-1.23,4.15,-0.07,-0.01,-0.05,1.0,h
1294.0,2973.0,3002.0,3399.0,4095.0,4095.0,3057.0,2874.0,-8.49,-1.18,4.15,-0.05,-0.02,-0.03,1.0,h
3100.0,2954.0,3067.0,2883.0,4095.0,4095.0,3583.0,3315.0,-8.99,-0.63,3.59,-0.11,-0.01,-0.04,1.0,h
3088.0,2963.0,3079.0,2889.0,4095.0,4095.0,3579.0,3312.0,-8.94,-0.5,3.43,-0.04,-0.03,-0.02,1.0,h
3103.0,2960.0,3067.0,2895.0,4095.0,4095.0,3582.0,3326.0,-8.88,-0.54,3.38,-0.05,-0.02,-0.05,1.0,h
3107.0,2961.0,3067.0,2881.0,4095.0,4095.0,3583.0,3323.0,-8.88,-0.49,3.44,-0.07,-0.04,-0.01,1.0,h
3119.0,2964.0,3088.0,2894.0,4095.0,4095.0,3607.0,3325.0,-8.87,-0.45,3.28,-0.05,-0.03,-0.04,1.0,h
3123.0,2976.0,3066.0,2883.0,4095.0,4095.0,3583.0,3323.0,-8.88,-0.41,3.39,-0.05,0.0,-0.05,1.0,h
3115.0,2954.0,3083.0,2896.0,4095.0,4095.0,3600.0,3329.0,-9.03,-0.54,3.35,-0.07,-0.0,-0.02,1.0,h
3135.0,2961.0,3082.0,2896.0,4095.0,4095.0,3583.0,3323.0,-8.88,-0.48,3.57,-0.04,-0.02,-0.04,1.0,h
3134.0,3010.0,3061.0,2890.0,4095.0,4095.0,3582.0,3333.0,-8.73,-0.41,3.39,-0.0,-0.01,-0.05,1.0,h
3142.0,2954.0,3081.0,2896.0,4095.0,4095.0,3600.0,3330.0,-8.88,-0.47,3.48,-0.03,0.04,-0.05,1.0,h
3155.0,2960.0,3071.0,2895.0,4095.0,4095.0,3599.0,3323.0,-8.89,-0.53,3.37,-0.03,0.03,-0.05,1.0,h
3146.0,2960.0,3086.0,2890.0,4095.0,4095.0,3609.0,3338.0,-9.1,-0.39,3.33,-0.06,-0.0,-0.0,1.0,h
3152.0,2965.0,3071.0,2899.0,4095.0,4095.0,3602.0,3340.0,-8.73,-0.34,3.36,-0.02,-0.0,-0.03,1.0,h
3148.0,2953.0,3071.0,2899.0,4095.0,4095.0,3583.0,3329.0,-8.95,-0.29,3.26,-0.04,0.0,-0.06,1.0,h
3167.0,2961.0,3068.0,2897.0,4095.0,4095.0,3623.0,3342.0,-9.01,-0.45,3.48,-0.04,-0.03,-0.07,1.0,h
3159.0,2959.0,3067.0,2905.0,4095.0,4095.0,3611.0,3343.0,-8.9,-0.35,3.3,-0.06,-0.01,-0.03,1.0,h
3167.0,2953.0,3071.0,2896.0,4095.0,4095.0,3615.0,3348.0,-8.99,-0.44,3.34,-0.06,-0.01,-0.03,1.0,h
3231.0,2961.0,3085.0,2906.0,4095.0,4095.0,3583.0,3332.0,-8.92,-0.37,3.34,-0.07,0.05,-0.0,1.0,h
3231.0,2949.0,3083.0,2905.0,4095.0,4095.0,3622.0,3344.0,-8.97,-0.39,3.26,-0.04,0.01,-0.03,1.0,h
3243.0,2966.0,3081.0,2906.0,4095.0,4095.0,3611.0,3347.0,-9.05,-0.36,3.36,-0.05,0.0,-0.03,1.0,h
3244.0,2961.0,3068.0,2906.0,4095.0,4095.0,3610.0,3351.0,-8.9,-0.33,3.32,-0.06,-0.01,-0.04,1.0,h
3242.0,2944.0,3062.0,2895.0,4095.0,4095.0,3583.0,3326.0,-8.96,-0.44,3.32,-0.07,0.02,-0.02,1.0,h
3254.0,2967.0,3082.0,2899.0,4095.0,4095.0,3601.0,3346.0,-8.93,-0.31,3.28,-0.06,0.01,-0.03,1.0,h
3231.0,2965.0,3069.0,2903.0,4095.0,4095.0,3625.0,3344.0,-8.97,-0.37,3.32,-0.08,0.01,-0.03,1.0,h
3248.0,2966.0,3071.0,2915.0,4095.0,4095.0,3583.0,3347.0,-9.01,-0.4,3.28,-0.07,0.02,-0.01,1.0,h
3234.0,2957.0,3063.0,2913.0,4095.0,4095.0,3603.0,3335.0,-8.88,-0.29,3.3,-0.07,0.02,-0.01,1.0,h
3261.0,2965.0,3066.0,2913.0,4095.0,4095.0,3603.0,3355.0,-8.94,-0.27,3.27,-0.04,-0.02,-0.04,1.0,h
3245.0,2971.0,3071.0,2923.0,4095.0,4095.0,3597.0,3344.0,-8.89,-0.31,3.4,-0.08,-0.01,-0.01,1.0,h
3245.0,2959.0,3071.0,2902.0,4095.0,4095.0,3618.0,3347.0,-8.87,-0.23,3.29,-0.06,0.02,-0.03,1.0,h
3253.0,2878.0,3071.0,2914.0,4095.0,4095.0,3583.0,3351.0,-8.89,-0.29,3.36,-0.05,-0.02,-0.03,1.0,h
3242.0,2959.0,3069.0,2919.0,4095.0,4095.0,3600.0,3345.0,-8.91,-0.27,3.36,-0.06,-0.02,-0.03,1.0,h
3264.0,2971.0,3083.0,2900.0,4095.0,4095.0,3600.0,3346.0,-8.97,-0.23,3.27,-0.06,-0.01,-0.03,1.0,h
3253.0,2960.0,3067.0,2909.0,4095.0,4095.0,3613.0,3358.0,-8.97,-0.28,3.31,-0.03,-0.05,-0.06,1.0,h
3248.0,2965.0,3085.0,2909.0,4095.0,4095.0,3583.0,3345.0,-8.89,-0.32,3.33,-0.07,-0.02,-0.05,1.0,h
3248.0,2975.0,3058.0,2903.0,4095.0,4095.0,3615.0,3357.0,-8.91,-0.3,3.3,-0.06,-0.02,-0.04,1.0,h
3248.0,2955.0,3070.0,2905.0,4095.0,4095.0,3583.0,3351.0,-8.92,-0.25,3.29,-0.04,-0.01,-0.05,1.0,h
3263.0,2955.0,3083.0,2909.0,4095.0,4095.0,3601.0,3347.0,-8.87,-0.29,3.34,-0.07,-0.02,-0.04,1.0,h
3249.0,2950.0,3058.0,2918.0,4095.0,4095.0,3600.0,3356.0,-8.88,-0.28,3.32,-0.06,-0.01,-0.04,1.0,h
3251.0,2955.0,3069.0,2919.0,4095.0,4095.0,3597.0,3355.0,-9.0,-0.29,3.33,-0.06,-0.02,-0.05,1.0,h
3269.0,2957.0,3067.0,2915.0,4095.0,4095.0,3618.0,3373.0,-8.94,-0.33,3.38,-0.05,-0.02,-0.05,1.0,h
3247.0,2953.0,3059.0,2925.0,4095.0,4095.0,3599.0,3345.0,-8.98,-0.32,3.34,-0.04,-0.02,-0.05,1.0,h
3250.0,2961.0,3066.0,2925.0,4095.0,4095.0,3600.0,3368.0,-8.95,-0.36,3.34,-0.1,-0.01,-0.03,1.0,h
3252.0,2960.0,3066.0,2925.0,4095.0,4095.0,3616.0,3356.0,-8.89,-0.34,3.39,-0.08,-0.0,-0.01,1.0,h
3255.0,2950.0,3088.0,2918.0,4095.0,4095.0,3613.0,3359.0,-8.91,-0.35,3.38,-0.03,0.02,-0.05,1.0,h
3249.0,2955.0,3062.0,2912.0,4095.0,4095.0,3622.0,3343.0,-8.97,-0.29,3.37,-0.05,-0.01,-0.04,1.0,h
3274.0,2954.0,3071.0,2922.0,4095.0,4095.0,3600.0,3355.0,-8.86,-0.26,3.43,-0.02,-0.06,-0.06,1.0,h
3248.0,2954.0,3069.0,2913.0,4095.0,4095.0,3601.0,3354.0,-8.86,-0.24,3.36,-0.05,-0.01,-0.06,1.0,h
3253.0,2966.0,3059.0,2927.0,4095.0,4095.0,3600.0,3365.0,-8.91,-0.38,3.41,-0.07,-0.02,-0.05,1.0,h
3247.0,2955.0,3056.0,2926.0,4095.0,4095.0,3613.0,3351.0,-8.76,-0.37,3.39,-0.03,0.01,-0.06,1.0,h
3245.0,2960.0,3087.0,2918.0,4095.0,4095.0,3605.0,3376.0,-8.81,-0.49,3.65,-0.08,0.07,-0.01,1.0,h
3250.0,2960.0,3071.0,2928.0,4095.0,4095.0,3620.0,3359.0,-9.03,-0.35,3.38,-0.05,0.03,-0.03,1.0,h
3259.0,2962.0,3081.0,2923.0,4095.0,4095.0,3623.0,3358.0,-8.94,-0.23,3.28,-0.09,-0.01,-0.01,1.0,h
3261.0,2953.0,3095.0,2929.0,4095.0,4095.0,3606.0,3369.0,-8.96,-0.37,3.34,-0.07,0.01,-0.01,1.0,h
3262.0,2961.0,3068.0,2931.0,4095.0,4095.0,3603.0,3376.0,-8.74,-0.27,3.47,-0.09,0.0,0.01,1.0,h
3254.0,2928.0,3063.0,2928.0,4095.0,4095.0,3611.0,3371.0,-8.93,-0.3,3.39,-0.03,0.01,-0.04,1.0,h
3249.0,2959.0,3062.0,2925.0,4095.0,4095.0,3613.0,3375.0,-8.91,-0.23,3.28,-0.01,0.02,-0.05,1.0,h
3252.0,2983.0,3063.0,2923.0,4095.0,4095.0,3615.0,3367.0,-9.05,-0.2,3.34,-0.08,-0.02,-0.05,1.0,h
3247.0,2947.0,3094.0,2918.0,4095.0,4095.0,3617.0,3359.0,-8.79,-0.28,3.35,-0.09,0.01,-0.01,1.0,h
3273.0,2950.0,3063.0,2929.0,4095.0,4095.0,3631.0,3367.0,-9.04,-0.24,3.28,-0.04,0.02,-0.06,1.0,h
3262.0,2975.0,3085.0,2933.0,4095.0,4095.0,3614.0,3367.0,-8.99,-0.24,3.2,-0.05,-0.0,-0.06,1.0,h
963.0,2960.0,3017.0,2944.0,4095.0,4095.0,3164.0,2718.0,-8.92,-0.73,3.15,-0.06,-0.04,-0.05,1.0,h
956.0,2983.0,3009.0,2944.0,4095.0,4095.0,3161.0,2665.0,-8.79,-0.67,3.16,-0.04,-0.02,-0.03,1.0,h
959.0,2965.0,3002.0,2943.0,4095.0,4095.0,3159.0,2855.0,-8.93,-0.71,3.3,-0.04,0.03,-0.04,1.0,h
951.0,2969.0,3008.0,2949.0,4095.0,4095.0,3164.0,2849.0,-9.03,-0.62,3.03,-0.01,0.05,-0.02,1.0,h
961.0,2965.0,3007.0,2944.0,4095.0,4095.0,3159.0,2806.0,-9.07,-0.77,3.16,0.06,0.02,-0.01,1.0,h
961.0,2959.0,3006.0,2947.0,4095.0,4095.0,3171.0,2860.0,-8.98,-0.55,3.15,0.05,0.01,-0.01,1.0,h
950.0,2963.0,3009.0,2944.0,4095.0,4095.0,3161.0,2884.0,-9.17,-0.39,3.06,-0.06,0.0,0.04,1.0,h
959.0,2972.0,3019.0,2961.0,4095.0,4095.0,3158.0,2909.0,-8.97,-0.44,3.07,-0.09,-0.04,-0.02,1.0,h
966.0,2960.0,3010.0,2948.0,4095.0,4095.0,3172.0,2930.0,-8.71,-0.27,2.99,-0.06,-0.04,0.01,1.0,h
961.0,2962.0,3024.0,2970.0,4095.0,4095.0,3156.0,2910.0,-8.9,-0.32,2.99,-0.09,0.01,-0.09,1.0,h
975.0,2976.0,3011.0,2955.0,4095.0,4095.0,3183.0,2937.0,-8.96,-0.55,3.22,-0.08,0.06,-0.09,1.0,h
965.0,2969.0,3007.0,2958.0,4095.0,4095.0,3187.0,2933.0,-9.31,-0.96,3.39,-0.1,0.01,0.02,1.0,h
962.0,2959.0,3007.0,2962.0,4095.0,4095.0,3178.0,2939.0,-8.71,-0.42,3.16,0.01,-0.0,0.01,1.0,h
972.0,2960.0,3009.0,2960.0,4095.0,4095.0,3178.0,2954.0,-8.77,-0.15,2.87,-0.04,-0.07,-0.12,1.0,h
964.0,2970.0,3010.0,2962.0,4095.0,4095.0,3168.0,2946.0,-8.83,-0.42,3.03,-0.08,-0.01,-0.08,1.0,h
971.0,2960.0,3024.0,2962.0,4095.0,4095.0,3164.0,2960.0,-9.13,-0.62,3.07,-0.08,-0.01,-0.06,1.0,h
960.0,2963.0,3011.0,2980.0,4095.0,4095.0,3176.0,2963.0,-8.89,-0.69,3.21,-0.06,-0.03,-0.03,1.0,h
960.0,2960.0,3006.0,2979.0,4095.0,4095.0,3177.0,2960.0,-8.93,-0.57,3.23,-0.04,0.01,-0.05,1.0,h
955.0,2968.0,3010.0,2965.0,4095.0,4095.0,3180.0,2976.0,-8.97,-0.52,3.12,-0.07,0.03,-0.04,1.0,h
966.0,2960.0,3017.0,2974.0,4095.0,4095.0,3184.0,2960.0,-8.98,-0.63,3.16,-0.09,0.01,-0.04,1.0,h
975.0,2960.0,3008.0,2988.0,4095.0,4095.0,3187.0,2965.0,-8.95,-0.66,3.22,-0.09,0.01,-0.04,1.0,h
967.0,2963.0,3010.0,2975.0,4095.0,4095.0,3183.0,2973.0,-8.82,-0.49,3.08,-0.08,-0.01,-0.07,1.0,h
967.0,2971.0,3007.0,2992.0,4095.0,4095.0,3200.0,2939.0,-8.96,-0.69,3.16,-0.11,0.01,-0.07,1.0,h
967.0,2975.0,3022.0,2981.0,4095.0,4095.0,3186.0,2974.0,-9.0,-0.84,3.33,-0.08,0.04,-0.06,1.0,h
976.0,2962.0,3016.0,2991.0,4095.0,4095.0,3184.0,2979.0,-9.03,-0.77,3.18,-0.05,0.03,-0.04,1.0,h
971.0,2964.0,3018.0,2989.0,4095.0,4095.0,3183.0,2985.0,-8.9,-0.7,3.13,-0.05,0.01,-0.03,1.0,h
967.0,2969.0,3013.0,2983.0,4095.0,4095.0,3177.0,2992.0,-8.84,-0.7,3.13,-0.07,-0.02,-0.05,1.0,h
976.0,2973.0,3011.0,2988.0,4095.0,4095.0,3180.0,2992.0,-8.88,-0.8,3.16,-0.06,0.02,-0.06,1.0,h
960.0,2966.0,3023.0,2997.0,4095.0,4095.0,3184.0,2989.0,-9.0,-0.82,3.26,-0.06,0.01,-0.05,1.0,h
966.0,2967.0,3014.0,2994.0,4095.0,4095.0,3195.0,2999.0,-9.03,-0.84,3.2,-0.05,0.03,-0.05,1.0,h
959.0,2959.0,3002.0,2992.0,4095.0,4095.0,3183.0,2987.0,-8.91,-0.79,3.15,-0.04,0.01,-0.05,1.0,h
937.0,2960.0,3014.0,2994.0,4095.0,4095.0,3164.0,2995.0,-8.95,-1.28,3.16,-0.03,0.02,-0.04,1.0,h
945.0,2960.0,3015.0,2994.0,4095.0,4095.0,3154.0,2993.0,-8.86,-0.85,3.19,-0.07,0.04,-0.02,1.0,h
977.0,2967.0,3012.0,2991.0,4095.0,4095.0,3154.0,2992.0,-8.96,-0.81,3.07,-0.07,0.03,-0.02,1.0,h
971.0,2970.0,3010.0,3002.0,4095.0,4095.0,3171.0,3014.0,-8.96,-0.8,3.06,-0.07,0.03,-0.02,1.0,h
983.0,2909.0,3002.0,3008.0,4095.0,4095.0,3169.0,3008.0,-9.0,-0.78,3.04,-0.08,0.02,-0.01,1.0,h
999.0,2969.0,3019.0,3005.0,4095.0,4095.0,3173.0,3015.0,-8.95,-0.78,3.07,-0.08,0.04,-0.01,1.0,h
982.0,2971.0,3011.0,3009.0,4095.0,4095.0,3181.0,3007.0,-8.95,-0.71,3.0,-0.07,0.01,-0.05,1.0,h
998.0,2963.0,3011.0,2998.0,4095.0,4095.0,3177.0,3019.0,-9.04,-0.77,2.99,-0.08,0.03,-0.03,1.0,h
999.0,2978.0,3005.0,3006.0,4095.0,4095.0,3184.0,3024.0,-8.87,-0.76,2.94,-0.08,0.0,-0.04,1.0,h
907.0,2944.0,3024.0,2796.0,4095.0,4095.0,3086.0,2891.0,-9.11,-1.36,2.96,-0.03,0.01,-0.04,1.0,h
899.0,2953.0,3024.0,2802.0,4095.0,4095.0,3088.0,2911.0,-8.81,-1.21,2.86,0.06,-0.11,-0.11,1.0,h
894.0,2966.0,3026.0,2818.0,4095.0,4095.0,3087.0,2935.0,-8.98,-1.31,2.79,-0.09,-0.03,-0.1,1.0,h
901.0,2954.0,3024.0,2811.0,4095.0,4095.0,3093.0,2938.0,-8.91,-1.52,3.17,-0.1,-0.03,-0.02,1.0,h
912.0,2960.0,3024.0,2826.0,4095.0,4095.0,3103.0,2938.0,-8.98,-1.36,2.92,0.01,-0.02,-0.06,1.0,h
925.0,2967.0,3025.0,2827.0,4095.0,4095.0,3098.0,2932.0,-8.99,-1.34,2.85,-0.08,-0.04,-0.02,1.0,h
923.0,2960.0,3027.0,2824.0,4095.0,4095.0,3105.0,2942.0,-8.81,-1.29,2.92,-0.09,-0.02,-0.03,1.0,h
926.0,2946.0,3025.0,2832.0,4095.0,4095.0,3109.0,2950.0,-8.92,-1.4,2.98,-0.04,-0.08,-0.05,1.0,h
913.0,2947.0,3024.0,2834.0,4095.0,4095.0,3094.0,2958.0,-8.91,-1.29,3.01,-0.0,-0.09,-0.05,1.0,h
916.0,2960.0,3017.0,2845.0,4095.0,4095.0,3095.0,2950.0,-9.01,-1.34,3.05,-0.03,-0.11,-0.06,1.0,h
922.0,2961.0,3011.0,2862.0,4095.0,4095.0,3083.0,2960.0,-8.96,-1.39,3.06,-0.12,-0.05,-0.04,1.0,h
923.0,2943.0,3022.0,2863.0,4095.0,4095.0,3067.0,2954.0,-8.82,-1.45,3.38,-0.08,0.01,-0.03,1.0,h
939.0,2949.0,3019.0,2863.0,4095.0,4095.0,3118.0,2934.0,-8.79,-1.41,3.16,-0.13,0.03,0.01,1.0,h
933.0,2956.0,3021.0,2865.0,4095.0,4095.0,3103.0,2929.0,-8.93,-1.4,3.35,-0.06,0.0,-0.02,1.0,h
931.0,2955.0,3014.0,2864.0,4095.0,4095.0,3103.0,2949.0,-8.78,-1.36,3.24,-0.04,-0.03,-0.04,1.0,h
933.0,2949.0,3019.0,2871.0,4095.0,4095.0,3107.0,2944.0,-8.93,-1.35,3.16,-0.06,-0.04,-0.04,1.0,h
944.0,2961.0,3024.0,2869.0,4095.0,4095.0,3106.0,2961.0,-8.74,-1.34,3.28,-0.05,-0.02,-0.03,1.0,h
944.0,2962.0,3022.0,2873.0,4095.0,4095.0,3115.0,2955.0,-8.78,-1.31,3.23,-0.06,0.0,-0.05,1.0,h
943.0,2960.0,3024.0,2874.0,4095.0,4095.0,3125.0,2973.0,-8.8,-1.44,3.36,-0.06,-0.04,-0.05,1.0,h
944.0,2992.0,3018.0,2880.0,4095.0,4095.0,3109.0,2970.0,-8.96,-1.38,3.2,-0.01,-0.01,-0.04,1.0,h
943.0,2954.0,3023.0,2878.0,4095.0,4095.0,3120.0,2966.0,-8.71,-1.25,3.21,-0.05,-0.07,-0.06,1.0,h
944.0,2956.0,3029.0,2885.0,4095.0,4095.0,3111.0,2979.0,-8.82,-1.33,3.29,-0.04,-0.02,-0.05,1.0,h
945.0,2951.0,3013.0,2887.0,4095.0,4095.0,3113.0,2979.0,-8.83,-1.39,3.27,-0.07,-0.08,-0.05,1.0,h
947.0,2959.0,3024.0,2893.0,4095.0,4095.0,3122.0,2990.0,-8.85,-1.31,3.32,-0.06,-0.01,-0.01,1.0,h
953.0,2943.0,3023.0,2902.0,4095.0,4095.0,3118.0,2963.0,-8.77,-1.27,3.25,-0.07,0.01,-0.02,1.0,h
944.0,2947.0,3031.0,2903.0,4095.0,4095.0,3120.0,2985.0,-8.91,-1.37,3.35,-0.08,0.04,-0.02,1.0,h
948.0,2950.0,3030.0,2902.0,4095.0,4095.0,3120.0,2991.0,-8.64,-1.34,3.23,-0.08,0.01,0.0,1.0,h
944.0,2957.0,3023.0,2907.0,4095.0,4095.0,3115.0,2990.0,-8.68,-1.26,3.38,-0.11,-0.01,-0.04,1.0,h
949.0,2969.0,3017.0,2903.0,4095.0,4095.0,3115.0,2998.0,-8.89,-1.36,3.24,-0.06,-0.0,-0.03,1.0,h
954.0,2950.0,3033.0,2912.0,4095.0,4095.0,3120.0,3005.0,-8.77,-1.31,3.35,-0.06,-0.02,-0.04,1.0,h
958.0,2958.0,3023.0,2903.0,4095.0,4095.0,3109.0,3014.0,-8.9,-1.36,3.38,-0.05,-0.02,-0.04,1.0,h
946.0,2898.0,3024.0,2906.0,4095.0,4095.0,3121.0,3015.0,-8.63,-1.25,3.35,-0.09,-0.08,-0.07,1.0,h
945.0,2896.0,3024.0,2923.0,4095.0,4095.0,3119.0,3025.0,-8.78,-1.35,3.59,-0.05,-0.04,-0.04,1.0,h
944.0,2964.0,3014.0,2903.0,4095.0,4095.0,3119.0,3031.0,-8.79,-1.31,3.25,-0.04,0.01,-0.04,1.0,h
945.0,2951.0,3024.0,2869.0,4095.0,4095.0,3099.0,3024.0,-8.86,-1.31,3.28,-0.12,-0.0,-0.02,1.0,h
944.0,2949.0,3014.0,2906.0,4095.0,4095.0,3101.0,3055.0,-8.99,-1.57,3.39,-0.08,-0.07,-0.02,1.0,h
949.0,2957.0,3025.0,2919.0,4095.0,4095.0,3090.0,3057.0,-8.89,-1.29,3.43,-0.09,-0.06,0.02,1.0,h
945.0,2943.0,3024.0,2902.0,4095.0,4095.0,3134.0,3061.0,-8.82,-1.24,3.37,-0.04,-0.04,-0.01,1.0,h
944.0,2954.0,3024.0,2931.0,4095.0,4095.0,3143.0,3055.0,-8.85,-1.31,3.41,-0.09,-0.03,-0.01,1.0,h
944.0,2958.0,3034.0,2914.0,4095.0,4095.0,3137.0,3039.0,-8.79,-1.25,3.55,-0.03,-0.01,-0.02,1.0,h
1089.0,2961.0,2999.0,3029.0,4095.0,4095.0,3024.0,2855.0,-9.06,-1.24,2.47,-0.09,-0.04,-0.02,1.0,h
1149.0,2955.0,2991.0,3045.0,4095.0,4095.0,3008.0,2853.0,-9.07,-1.34,2.67,-0.01,-0.03,-0.03,1.0,h
1664.0,2966.0,2991.0,3047.0,4095.0,4095.0,3017.0,2889.0,-8.91,-1.14,2.58,-0.08,-0.01,-0.03,1.0,h
1741.0,2963.0,2987.0,3045.0,4095.0,4095.0,3017.0,2899.0,-9.17,-1.33,2.62,-0.04,-0.06,-0.05,1.0,h
1842.0,2960.0,2990.0,3056.0,4095.0,4095.0,3024.0,2879.0,-9.03,-1.18,2.87,-0.02,-0.01,-0.01,1.0,h
1904.0,2962.0,2992.0,3056.0,4095.0,4095.0,3011.0,2870.0,-9.13,-1.11,2.55,-0.05,-0.04,-0.04,1.0,h
1936.0,2961.0,2999.0,3050.0,4095.0,4095.0,3023.0,2833.0,-8.91,-1.2,2.74,-0.09,-0.02,-0.03,1.0,h
1950.0,2963.0,2982.0,3037.0,4095.0,4095.0,3018.0,2820.0,-9.02,-1.07,2.55,-0.08,0.01,-0.05,1.0,h
1951.0,2959.0,2992.0,3027.0,4095.0,4095.0,3019.0,2827.0,-9.1,-1.27,2.81,-0.07,-0.01,-0.04,1.0,h
1962.0,2956.0,2992.0,3011.0,4095.0,4095.0,3022.0,2755.0,-9.03,-1.19,2.72,-0.05,-0.02,-0.0,1.0,h
1951.0,2960.0,3002.0,3007.0,4095.0,4095.0,3012.0,2782.0,-9.12,-1.11,2.72,-0.08,-0.06,-0.02,1.0,h
1950.0,2959.0,2992.0,3008.0,4095.0,4095.0,3011.0,2753.0,-8.94,-1.18,2.87,-0.01,0.02,-0.01,1.0,h
1938.0,2950.0,2995.0,3013.0,4095.0,4095.0,3023.0,2797.0,-8.9,-1.0,2.7,-0.03,-0.01,-0.03,1.0,h
1920.0,2953.0,2966.0,3017.0,4095.0,4095.0,3022.0,2785.0,-9.02,-1.15,2.78,0.0,-0.0,-0.06,1.0,h
1933.0,2960.0,2991.0,3024.0,4095.0,4095.0,3034.0,2785.0,-9.17,-1.26,2.73,-0.04,0.08,-0.09,1.0,h
1919.0,2960.0,2975.0,3022.0,4095.0,4095.0,3024.0,2800.0,-9.13,-1.17,2.67,-0.06,0.01,-0.02,1.0,h
1922.0,2961.0,2986.0,3028.0,4095.0,4095.0,3024.0,2818.0,-9.05,-1.12,2.67,-0.09,0.01,-0.02,1.0,h
1932.0,2961.0,2992.0,3024.0,4095.0,4095.0,3032.0,2829.0,-9.03,-1.17,2.79,-0.03,0.0,-0.06,1.0,h
1913.0,2957.0,2994.0,3037.0,4095.0,4095.0,3039.0,2865.0,-9.05,-1.12,2.74,-0.05,-0.02,-0.04,1.0,h
1914.0,2963.0,2987.0,3037.0,4095.0,4095.0,3035.0,2874.0,-8.93,-1.23,2.79,-0.02,-0.02,-0.05,1.0,h
1920.0,2960.0,2994.0,3025.0,4095.0,4095.0,3041.0,2881.0,-9.05,-1.07,2.78,-0.03,-0.05,-0.05,1.0,h
1920.0,2960.0,2992.0,3040.0,4095.0,4095.0,3031.0,2877.0,-8.93,-1.19,2.8,0.03,-0.04,-0.08,1.0,h
2055.0,2947.0,2993.0,3031.0,4095.0,4095.0,3025.0,2880.0,-8.97,-1.06,2.76,-0.07,-0.05,-0.06,1.0,h
2038.0,2974.0,2992.0,3042.0,4095.0,4095.0,3031.0,2905.0,-8.95,-1.13,2.87,-0.09,0.01,-0.05,1.0,h
1852.0,2960.0,2987.0,3039.0,4095.0,4095.0,3035.0,2919.0,-9.07,-1.23,2.86,-0.07,0.01,-0.05,1.0,h
1699.0,2947.0,2983.0,3031.0,4095.0,4095.0,3030.0,2916.0,-9.1,-1.16,2.83,-0.03,-0.04,-0.08,1.0,h
1450.0,2957.0,2991.0,3035.0,4095.0,4095.0,3024.0,2915.0,-8.95,-1.22,2.84,-0.09,0.0,-0.03,1.0,h
1382.0,2956.0,3001.0,3041.0,4095.0,4095.0,3030.0,2921.0,-8.88,-1.19,2.99,-0.08,-0.02,-0.03,1.0,h
1360.0,2957.0,3002.0,3041.0,4095.0,4095.0,3035.0,2924.0,-8.93,-1.14,2.89,-0.06,0.01,-0.03,1.0,h
1365.0,2962.0,2991.0,3049.0,4095.0,4095.0,3037.0,2931.0,-9.16,-1.12,2.96,-0.11,0.02,-0.07,1.0,h
1360.0,2969.0,2991.0,3046.0,4095.0,4095.0,3023.0,2935.0,-8.97,-1.31,3.06,-0.08,-0.03,-0.0,1.0,h
1341.0,2961.0,2991.0,3033.0,4095.0,4095.0,3025.0,2943.0,-8.73,-1.09,3.09,-0.06,0.03,-0.05,1.0,h
1320.0,2964.0,2997.0,3038.0,4095.0,4095.0,3027.0,2928.0,-8.88,-1.24,3.03,-0.06,0.02,-0.04,1.0,h
1315.0,2955.0,2985.0,3030.0,4095.0,4095.0,3030.0,2950.0,-9.11,-1.29,2.93,-0.07,-0.0,-0.04,1.0,h
1306.0,2960.0,2999.0,3041.0,4095.0,4095.0,3047.0,2937.0,-8.75,-1.14,3.03,0.0,-0.03,-0.05,1.0,h
1293.0,2942.0,2981.0,3044.0,4095.0,4095.0,3040.0,2942.0,-8.85,-1.13,3.08,0.01,-0.03,-0.07,1.0,h
1278.0,2960.0,2991.0,3051.0,4095.0,4095.0,3027.0,2949.0,-8.85,-1.1,2.99,-0.05,-0.04,-0.06,1.0,h
1275.0,2959.0,2991.0,3044.0,4095.0,4095.0,3027.0,2944.0,-8.91,-1.24,2.95,-0.07,-0.02,-0.06,1.0,h
1280.0,2956.0,2995.0,3057.0,4095.0,4095.0,3039.0,2957.0,-8.83,-1.17,3.03,-0.06,0.01,-0.06,1.0,h
1271.0,2951.0,2994.0,3056.0,4095.0,4095.0,3039.0,2953.0,-8.91,-1.22,3.01,-0.04,0.01,-0.03,1.0,h
1162.0,2953.0,3002.0,3066.0,4095.0,4095.0,3031.0,2992.0,-9.01,-1.42,2.43,-0.04,-0.08,-0.04,1.0,h
1138.0,2955.0,2981.0,3066.0,4095.0,4095.0,3039.0,2996.0,-9.15,-1.3,2.47,-0.04,-0.04,-0.03,1.0,h
1149.0,2965.0,2990.0,3061.0,4095.0,4095.0,3024.0,2989.0,-9.05,-1.26,2.4,-0.09,-0.06,-0.03,1.0,h
1168.0,2975.0,2989.0,3084.0,4095.0,4095.0,3051.0,2976.0,-8.95,-1.32,2.62,-0.08,0.0,-0.01,1.0,h
1168.0,2960.0,2986.0,3071.0,4095.0,4095.0,3047.0,2986.0,-9.12,-1.25,2.68,-0.06,-0.04,-0.02,1.0,h
1168.0,2960.0,2983.0,3067.0,4095.0,4095.0,3038.0,2981.0,-9.04,-1.32,2.55,-0.07,-0.03,0.01,1.0,h
1173.0,2966.0,2987.0,3067.0,4095.0,4095.0,3050.0,2992.0,-8.85,-1.21,2.65,-0.09,-0.0,-0.05,1.0,h
1190.0,2977.0,2989.0,3065.0,4095.0,4095.0,3041.0,2999.0,-9.15,-1.3,2.57,-0.08,0.01,0.0,1.0,h
1177.0,2957.0,2992.0,3071.0,4095.0,4095.0,3037.0,2991.0,-9.01,-1.25,2.68,-0.06,0.01,-0.01,1.0,h
1178.0,2962.0,2989.0,3071.0,4095.0,4095.0,3038.0,2994.0,-9.1,-1.29,2.61,-0.06,0.05,-0.01,1.0,h
1200.0,2974.0,2992.0,3071.0,4095.0,4095.0,3044.0,2998.0,-9.11,-1.22,2.62,-0.06,0.03,-0.03,1.0,h
1214.0,2960.0,2987.0,3087.0,4095.0,4095.0,3052.0,3007.0,-9.02,-1.17,2.56,0.0,0.01,-0.07,1.0,h
1232.0,2959.0,2995.0,3071.0,4095.0,4095.0,3043.0,3008.0,-9.07,-1.26,2.67,-0.06,-0.02,-0.06,1.0,h
1218.0,2967.0,2992.0,3088.0,4095.0,4095.0,3045.0,3009.0,-9.02,-1.24,2.58,-0.05,-0.01,-0.04,1.0,h
1232.0,2977.0,2989.0,3087.0,4095.0,4095.0,3050.0,3007.0,-9.04,-1.27,2.62,-0.03,-0.02,-0.05,1.0,h
1219.0,2963.0,2980.0,3083.0,4095.0,4095.0,3050.0,3019.0,-9.01,-1.26,2.68,-0.05,0.0,-0.04,1.0,h
1211.0,2962.0,2991.0,3090.0,4095.0,4095.0,3038.0,3009.0,-9.0,-1.17,2.61,-0.01,0.04,-0.04,1.0,h
1217.0,2953.0,2987.0,3083.0,4095.0,4095.0,3045.0,3019.0,-9.19,-1.23,2.62,-0.07,-0.02,-0.04,1.0,h
1222.0,2965.0,2992.0,3090.0,4095.0,4095.0,3043.0,3014.0,-8.96,-1.16,2.58,-0.04,-0.03,-0.03,1.0,h
1203.0,2950.0,2992.0,3089.0,4095.0,4095.0,3047.0,3025.0,-9.03,-1.16,2.55,-0.09,-0.03,-0.04,1.0,h
1197.0,2965.0,2997.0,3083.0,4095.0,4095.0,3053.0,3023.0,-9.03,-1.21,2.54,-0.08,0.01,-0.06,1.0,h
1151.0,2954.0,2981.0,3087.0,4095.0,4095.0,3050.0,3031.0,-9.01,-1.23,2.65,-0.07,-0.03,-0.03,1.0,h
1124.0,2960.0,2992.0,3093.0,4095.0,4095.0,3040.0,3024.0,-8.94,-1.06,2.43,-0.03,0.02,-0.04,1.0,h
1132.0,2960.0,2999.0,3087.0,4095.0,4095.0,3056.0,2992.0,-9.06,-1.16,2.61,-0.06,-0.0,-0.04,1.0,h
1120.0,2969.0,2993.0,3088.0,4095.0,4095.0,3053.0,3023.0,-9.06,-1.17,2.52,-0.06,-0.02,-0.03,1.0,h
1122.0,2963.0,3007.0,3086.0,4095.0,4095.0,3040.0,3023.0,-9.09,-1.2,2.63,-0.08,-0.03,-0.05,1.0,h
1115.0,2958.0,2991.0,3088.0,4095.0,4095.0,3053.0,3015.0,-8.96,-1.18,2.66,-0.06,-0.04,-0.03,1.0,h
1115.0,2956.0,2997.0,3086.0,4095.0,4095.0,3051.0,3025.0,-9.11,-1.24,2.67,0.01,0.01,0.01,1.0,h
1133.0,2953.0,2995.0,3081.0,4095.0,4095.0,3060.0,3035.0,-9.0,-1.03,2.57,-0.03,0.02,-0.04,1.0,h
1129.0,2947.0,2992.0,3088.0,4095.0,4095.0,3047.0,3034.0,-9.12,-1.21,2.76,-0.07,0.02,0.01,1.0,h
1118.0,2967.0,2992.0,3071.0,4095.0,4095.0,3051.0,3024.0,-9.0,-1.07,2.66,-0.01,0.0,0.01,1.0,h
1104.0,2960.0,2995.0,3081.0,4095.0,4095.0,3053.0,3030.0,-9.0,-1.07,2.67,-0.03,0.0,-0.02,1.0,h
1008.0,2959.0,2985.0,3094.0,4095.0,4095.0,3049.0,3026.0,-8.91,-1.08,2.8,0.0,-0.05,-0.1,1.0,h
990.0,2960.0,2986.0,3089.0,4095.0,4095.0,3045.0,3023.0,-8.94,-1.03,2.75,0.01,0.05,-0.03,1.0,h
986.0,2961.0,2987.0,3083.0,4095.0,4095.0,3057.0,3025.0,-9.22,-0.96,2.56,-0.02,0.04,-0.01,1.0,h
1001.0,2963.0,2982.0,3088.0,4095.0,4095.0,3047.0,3031.0,-9.07,-0.92,2.66,-0.06,-0.02,-0.03,1.0,h
1005.0,2958.0,2998.0,3091.0,4095.0,4095.0,3045.0,3025.0,-8.96,-0.97,2.65,-0.07,-0.02,-0.03,1.0,h
997.0,2966.0,2991.0,3095.0,4095.0,4095.0,3047.0,3033.0,-8.87,-0.9,2.61,-0.04,0.03,-0.05,1.0,h
1007.0,2962.0,2993.0,3088.0,4095.0,4095.0,3055.0,3025.0,-9.08,-0.96,2.64,-0.06,0.01,-0.04,1.0,h
1011.0,2990.0,2990.0,3090.0,4095.0,4095.0,3043.0,3035.0,-9.16,-0.95,2.54,-0.1,-0.02,-0.03,1.0,h
1017.0,2967.0,2991.0,3109.0,4095.0,4095.0,3065.0,3041.0,-9.05,-1.0,2.7,-0.08,0.01,-0.02,1.0,h
1009.0,2966.0,2992.0,3089.0,4095.0,4095.0,3067.0,3027.0,-9.1,-1.07,2.67,-0.01,0.03,-0.03,1.0,h
1023.0,2961.0,2987.0,3088.0,4095.0,4095.0,3045.0,3051.0,-9.02,-0.92,2.71,-0.04,-0.01,-0.05,1.0,h
1040.0,2966.0,3001.0,3086.0,4095.0,4095.0,3063.0,3034.0,-9.12,-0.94,2.57,-0.05,-0.0,-0.03,1.0,h
1036.0,2959.0,2992.0,3091.0,4095.0,4095.0,3061.0,3058.0,-9.02,-0.99,2.72,-0.05,0.0,-0.04,1.0,h
1035.0,2955.0,2983.0,3090.0,4095.0,4095.0,3051.0,3055.0,-9.01,-0.98,2.63,-0.04,0.01,-0.03,1.0,h
1075.0,2960.0,2989.0,3101.0,4095.0,4095.0,3055.0,3043.0,-9.05,-0.95,2.7,-0.04,-0.02,-0.04,1.0,h
1101.0,2966.0,2979.0,3095.0,4095.0,4095.0,3067.0,3050.0,-9.0,-0.86,2.48,-0.05,-0.01,-0.05,1.0,h
1115.0,2962.0,2990.0,3088.0,4095.0,4095.0,3043.0,3056.0,-8.95,-0.85,2.69,-0.07,0.01,-0.02,1.0,h
1119.0,2956.0,2992.0,3094.0,4095.0,4095.0,3059.0,3055.0,-9.12,-0.94,2.64,-0.05,0.05,-0.04,1.0,h
1117.0,2965.0,3002.0,3091.0,4095.0,4095.0,3069.0,3056.0,-9.1,-0.87,2.58,-0.05,0.0,-0.02,1.0,h
1137.0,2947.0,2992.0,3088.0,4095.0,4095.0,3056.0,3062.0,-9.04,-0.81,2.52,-0.1,0.02,-0.01,1.0,h
1121.0,2960.0,2991.0,3087.0,4095.0,4095.0,3058.0,3050.0,-9.07,-0.9,2.62,-0.08,0.03,-0.03,1.0,h
1127.0,2957.0,2989.0,3088.0,4095.0,4095.0,3063.0,3050.0,-9.16,-0.97,2.55,-0.06,0.03,-0.04,1.0,h
1130.0,2962.0,2994.0,3101.0,4095.0,4095.0,3057.0,3051.0,-9.01,-0.82,2.55,-0.08,-0.01,-0.05,1.0,h
1123.0,2968.0,2986.0,3102.0,4095.0,4095.0,3046.0,3056.0,-9.11,-0.94,2.62,-0.06,-0.0,-0.04,1.0,h
1122.0,2966.0,2989.0,3104.0,4095.0,4095.0,3055.0,3050.0,-9.13,-0.92,2.5,-0.06,-0.04,-0.07,1.0,h
1121.0,2975.0,2999.0,3101.0,4095.0,4095.0,3055.0,3051.0,-9.08,-0.93,2.59,-0.06,-0.02,-0.04,1.0,h
1113.0,2965.0,3007.0,3088.0,4095.0,4095.0,3057.0,3043.0,-9.07,-0.89,2.46,-0.05,-0.02,-0.04,1.0,h
1131.0,2960.0,2998.0,3091.0,4095.0,4095.0,3071.0,3039.0,-9.06,-0.95,2.63,-0.07,0.0,-0.03,1.0,h
974.0,2960.0,2994.0,3071.0,4095.0,4095.0,3119.0,3061.0,-9.05,-1.3,2.89,-0.02,0.02,-0.04,1.0,h
976.0,2960.0,2992.0,3088.0,4095.0,4095.0,3119.0,3060.0,-8.91,-1.35,3.01,0.01,-0.09,-0.05,1.0,h
979.0,2960.0,3002.0,3098.0,4095.0,4095.0,3121.0,3057.0,-9.01,-1.34,3.07,-0.01,-0.0,-0.05,1.0,h
981.0,2951.0,2987.0,3097.0,4095.0,4095.0,3109.0,3050.0,-8.92,-1.26,2.97,-0.03,0.01,-0.01,1.0,h
999.0,2961.0,2992.0,3106.0,4095.0,4095.0,3102.0,3015.0,-8.92,-1.25,3.02,-0.06,0.01,-0.02,1.0,h
1005.0,2926.0,2997.0,3102.0,4095.0,4095.0,3105.0,3034.0,-9.02,-1.15,2.99,-0.05,0.01,-0.04,1.0,h
1008.0,2956.0,2992.0,3108.0,4095.0,4095.0,3109.0,3041.0,-8.82,-1.25,3.18,-0.05,-0.03,-0.03,1.0,h
1020.0,2961.0,3003.0,3103.0,4095.0,4095.0,3118.0,3054.0,-9.07,-1.18,2.98,-0.0,-0.01,-0.07,1.0,h
1045.0,2960.0,3002.0,3104.0,4095.0,4095.0,3103.0,3062.0,-8.88,-1.15,3.03,-0.06,-0.02,-0.02,1.0,h
1078.0,2958.0,2992.0,3117.0,4095.0,4095.0,3107.0,3045.0,-8.99,-1.19,3.01,-0.03,-0.04,-0.05,1.0,h
1078.0,2945.0,2993.0,3105.0,4095.0,4095.0,3120.0,3056.0,-8.97,-1.18,3.01,-0.05,-0.03,-0.03,1.0,h
1088.0,2977.0,3006.0,3092.0,4095.0,4095.0,3098.0,3043.0,-8.91,-1.19,3.06,-0.06,0.0,-0.03,1.0,h
1087.0,2945.0,3000.0,3093.0,4095.0,4095.0,3104.0,3031.0,-8.93,-1.12,3.0,-0.06,-0.02,-0.03,1.0,h
1095.0,2960.0,2990.0,3098.0,4095.0,4095.0,3103.0,3045.0,-8.86,-1.21,3.12,-0.08,0.02,-0.02,1.0,h
1104.0,2948.0,2997.0,3092.0,4095.0,4095.0,3105.0,3020.0,-9.01,-1.18,3.08,-0.04,0.02,-0.06,1.0,h
1113.0,2954.0,2997.0,3101.0,4095.0,4095.0,3121.0,3017.0,-8.94,-1.17,3.15,-0.05,-0.01,-0.05,1.0,h
1091.0,2950.0,3010.0,3097.0,4095.0,4095.0,3099.0,2991.0,-8.87,-1.1,3.08,-0.06,-0.02,-0.04,1.0,h
1102.0,2953.0,2995.0,3091.0,4095.0,4095.0,3105.0,3029.0,-8.77,-1.27,3.19,-0.0,0.04,-0.1,1.0,h
1099.0,2969.0,3007.0,3100.0,4095.0,4095.0,3111.0,2995.0,-9.15,-1.23,3.0,-0.08,0.01,-0.06,1.0,h
1096.0,2934.0,2992.0,3091.0,4095.0,4095.0,3120.0,3025.0,-8.99,-1.35,3.02,-0.08,-0.02,-0.06,1.0,h
1102.0,2955.0,2998.0,3115.0,4095.0,4095.0,3127.0,3024.0,-8.89,-1.33,3.07,-0.08,-0.0,-0.03,1.0,h
1079.0,2935.0,3002.0,3113.0,4095.0,4095.0,3119.0,3018.0,-8.88,-1.24,3.04,-0.09,-0.0,-0.02,1.0,h
1093.0,2933.0,2993.0,3120.0,4095.0,4095.0,3118.0,3017.0,-8.9,-1.29,3.02,-0.06,0.01,-0.03,1.0,h
1104.0,2951.0,3001.0,3120.0,4095.0,4095.0,3111.0,2953.0,-8.92,-1.3,3.15,0.01,0.02,-0.06,1.0,h
1096.0,2950.0,3010.0,3125.0,4095.0,4095.0,3111.0,2960.0,-8.91,-1.32,3.1,-0.03,-0.02,-0.07,1.0,h
1083.0,2952.0,2997.0,3118.0,4095.0,4095.0,3120.0,2954.0,-8.94,-1.25,3.06,-0.05,-0.02,-0.05,1.0,h
1060.0,3008.0,2995.0,3121.0,4095.0,4095.0,3120.0,3010.0,-8.87,-1.23,2.97,-0.06,-0.03,-0.04,1.0,h
1067.0,2947.0,2992.0,3131.0,4095.0,4095.0,3119.0,3017.0,-8.94,-1.25,3.13,-0.05,-0.01,-0.02,1.0,h
1071.0,2960.0,2986.0,3133.0,4095.0,4095.0,3120.0,3030.0,-8.87,-1.28,3.15,-0.05,0.0,-0.02,1.0,h
1069.0,2959.0,3000.0,3136.0,4095.0,4095.0,3114.0,3023.0,-8.92,-1.15,2.98,-0.06,0.0,0.0,1.0,h
1072.0,2953.0,2999.0,3134.0,4095.0,4095.0,3120.0,3020.0,-8.86,-1.19,3.12,-0.06,-0.03,-0.04,1.0,h
1081.0,2949.0,2997.0,3121.0,4095.0,4095.0,3119.0,3026.0,-8.89,-1.18,3.03,-0.06,-0.01,-0.05,1.0,h
1083.0,2947.0,3010.0,3131.0,4095.0,4095.0,3120.0,3054.0,-8.91,-1.18,3.08,-0.04,-0.01,-0.03,1.0,h
1070.0,2946.0,2997.0,3137.0,4095.0,4095.0,3107.0,3040.0,-8.95,-1.15,3.08,-0.07,-0.03,-0.03,1.0,h
1079.0,2957.0,3002.0,3131.0,4095.0,4095.0,3120.0,3063.0,-8.77,-1.18,3.05,-0.04,-0.02,-0.03,1.0,h
1075.0,3001.0,2979.0,3146.0,4095.0,4095.0,3114.0,3054.0,-8.89,-1.19,3.08,-0.05,0.01,-0.04,1.0,h
1074.0,2946.0,2997.0,3139.0,4095.0,4095.0,3134.0,3055.0,-8.88,-1.18,3.07,-0.05,0.01,-0.03,1.0,h
1088.0,2958.0,2998.0,3143.0,4095.0,4095.0,3120.0,3088.0,-8.85,-1.09,3.1,-0.07,0.04,-0.03,1.0,h
1082.0,2959.0,2992.0,3133.0,4095.0,4095.0,3120.0,3085.0,-8.99,-1.12,2.9,-0.07,0.01,-0.05,1.0,h
1042.0,2958.0,2992.0,3145.0,4095.0,4095.0,3116.0,3071.0,-8.86,-1.14,3.08,-0.08,-0.0,-0.05,1.0,h
1063.0,2975.0,2995.0,3137.0,4095.0,4095.0,3120.0,3089.0,-8.97,-1.1,2.94,-0.05,-0.01,-0.05,1.0,h
1066.0,2944.0,2998.0,3146.0,4095.0,4095.0,3122.0,3093.0,-8.91,-1.16,2.95,-0.06,0.01,-0.03,1.0,h
1067.0,2960.0,2995.0,3147.0,4095.0,4095.0,3123.0,3090.0,-8.89,-1.15,2.93,-0.06,0.01,-0.04,1.0,h
1067.0,2950.0,3006.0,3152.0,4095.0,4095.0,3114.0,3092.0,-8.96,-1.14,2.94,-0.06,0.02,-0.03,1.0,h
1072.0,2944.0,2992.0,3151.0,4095.0,4095.0,3125.0,3087.0,-8.98,-1.22,2.98,-0.07,0.01,-0.03,1.0,h
1066.0,2955.0,2995.0,3151.0,4095.0,4095.0,3127.0,3088.0,-9.05,-1.2,2.99,-0.07,-0.01,-0.03,1.0,h
1069.0,2958.0,2996.0,3136.0,4095.0,4095.0,3122.0,3084.0,-8.88,-1.14,2.99,-0.05,0.01,-0.03,1.0,h
1070.0,2951.0,3003.0,3140.0,4095.0,4095.0,3125.0,3083.0,-8.87,-1.18,3.16,-0.03,-0.01,-0.05,1.0,h
1065.0,2958.0,2995.0,3156.0,4095.0,4095.0,3129.0,3089.0,-8.94,-1.09,2.87,-0.09,-0.03,-0.02,1.0,h
1069.0,2955.0,2992.0,3158.0,4095.0,4095.0,3124.0,3104.0,-8.89,-1.2,3.02,-0.08,-0.01,-0.03,1.0,h
1071.0,2945.0,2996.0,3143.0,4095.0,4095.0,3123.0,3101.0,-8.84,-1.13,3.0,-0.08,0.03,-0.03,1.0,h
1072.0,2962.0,3007.0,3151.0,4095.0,4095.0,3129.0,3109.0,-8.98,-1.17,3.05,-0.07,0.03,-0.02,1.0,h
1069.0,2959.0,2989.0,3152.0,4095.0,4095.0,3141.0,3101.0,-8.92,-1.11,3.04,-0.08,0.02,-0.02,1.0,h
1072.0,2949.0,2991.0,3152.0,4095.0,4095.0,3127.0,3090.0,-8.91,-1.13,2.98,-0.06,0.02,-0.02,1.0,h
1085.0,2963.0,2996.0,3148.0,4095.0,4095.0,3125.0,3111.0,-9.0,-1.19,3.06,-0.06,-0.01,-0.03,1.0,h
1095.0,2943.0,3007.0,3150.0,4095.0,4095.0,3133.0,3103.0,-8.98,-1.14,2.95,-0.06,-0.02,-0.05,1.0,h
1104.0,2951.0,2997.0,3159.0,4095.0,4095.0,3136.0,3122.0,-8.89,-1.15,3.03,-0.06,0.01,-0.04,1.0,h
1101.0,2950.0,3001.0,3158.0,4095.0,4095.0,3143.0,3119.0,-8.91,-1.15,2.98,-0.06,0.02,-0.02,1.0,h
1103.0,3008.0,2993.0,3152.0,4095.0,4095.0,3127.0,3116.0,-9.0,-1.09,2.93,-0.08,0.01,-0.03,1.0,h
1107.0,2959.0,2994.0,3136.0,4095.0,4095.0,3143.0,3120.0,-8.82,-1.13,3.09,-0.06,-0.02,-0.04,1.0,h
901.0,2977.0,3001.0,3069.0,4095.0,4095.0,3068.0,1939.0,-9.14,-1.3,3.12,-0.08,0.06,-0.04,1.0,h
903.0,2961.0,2993.0,3071.0,4095.0,4095.0,3056.0,1967.0,-8.92,-1.27,3.11,-0.09,0.01,-0.01,1.0,h
903.0,2963.0,2994.0,3069.0,4095.0,4095.0,3062.0,1935.0,-8.78,-1.2,3.17,-0.04,0.02,-0.05,1.0,h
902.0,2975.0,3007.0,3062.0,4095.0,4095.0,3063.0,1953.0,-8.89,-1.25,3.08,-0.01,-0.03,-0.04,1.0,h
901.0,2977.0,3003.0,3088.0,4095.0,4095.0,3056.0,1983.0,-8.9,-1.2,3.15,-0.03,0.02,-0.05,1.0,h
899.0,2964.0,3002.0,3071.0,4095.0,4095.0,3067.0,1952.0,-8.99,-1.27,3.13,-0.03,0.02,-0.02,1.0,h
910.0,2971.0,2997.0,3088.0,4095.0,4095.0,3071.0,1970.0,-8.83,-1.13,3.09,-0.03,-0.01,-0.05,1.0,h
916.0,2965.0,2997.0,3085.0,4095.0,4095.0,3058.0,1943.0,-8.95,-1.15,3.03,-0.07,-0.0,-0.03,1.0,h
895.0,2965.0,3001.0,3090.0,4095.0,4095.0,3066.0,1979.0,-8.88,-1.11,3.14,-0.06,0.02,-0.04,1.0,h
917.0,2972.0,2995.0,3088.0,4095.0,4095.0,3054.0,1980.0,-8.88,-1.1,3.09,-0.1,-0.02,-0.02,1.0,h
931.0,2973.0,2993.0,3056.0,4095.0,4095.0,3051.0,1894.0,-8.92,-1.19,2.99,-0.07,-0.03,-0.05,1.0,h
932.0,2975.0,2991.0,3082.0,4095.0,4095.0,3056.0,1876.0,-8.91,-1.09,3.05,-0.02,-0.03,-0.05,1.0,h
931.0,2966.0,2992.0,3068.0,4095.0,4095.0,3083.0,2157.0,-8.87,-1.14,3.11,-0.08,-0.04,-0.04,1.0,h
933.0,2967.0,2996.0,3088.0,4095.0,4095.0,3071.0,1895.0,-8.92,-1.16,2.98,-0.06,0.02,-0.03,1.0,h
947.0,3010.0,2990.0,3097.0,4095.0,4095.0,3063.0,1906.0,-8.9,-1.16,3.14,-0.07,0.04,-0.03,1.0,h
959.0,2963.0,2994.0,3097.0,4095.0,4095.0,3063.0,2222.0,-8.95,-1.07,2.94,-0.03,0.04,-0.04,1.0,h
963.0,2961.0,3001.0,3090.0,4095.0,4095.0,3070.0,2009.0,-8.91,-1.17,3.01,-0.06,0.01,-0.03,1.0,h
964.0,2961.0,2994.0,3106.0,4095.0,4095.0,3060.0,2151.0,-9.08,-1.2,3.07,-0.07,0.06,-0.01,1.0,h
965.0,2977.0,2999.0,3109.0,4095.0,4095.0,3055.0,2151.0,-8.85,-1.01,2.8,-0.19,-0.01,0.01,1.0,h
958.0,2962.0,2988.0,3118.0,4095.0,4095.0,3062.0,2288.0,-8.83,-1.04,2.9,-0.17,-0.05,-0.01,1.0,h
910.0,2963.0,2995.0,3115.0,4095.0,4095.0,3081.0,1951.0,-9.22,-1.3,2.94,0.01,0.04,-0.14,1.0,h
897.0,2948.0,2999.0,3121.0,4095.0,4095.0,3082.0,2250.0,-9.2,-1.19,2.78,-0.07,0.02,-0.02,1.0,h
898.0,2973.0,3002.0,3115.0,4095.0,4095.0,3067.0,1968.0,-9.1,-1.22,2.76,-0.04,-0.03,-0.04,1.0,h
912.0,2967.0,2992.0,3117.0,4095.0,4095.0,3079.0,1997.0,-9.0,-1.15,2.84,-0.05,-0.04,-0.05,1.0,h
914.0,3136.0,2997.0,3119.0,4095.0,4095.0,3071.0,2094.0,-9.0,-1.15,2.82,-0.04,-0.03,-0.04,1.0,h
919.0,2974.0,2983.0,3116.0,4095.0,4095.0,3071.0,2113.0,-9.03,-1.12,2.84,-0.04,-0.03,-0.03,1.0,h
919.0,3071.0,2992.0,3122.0,4095.0,4095.0,3088.0,2112.0,-8.91,-1.1,2.89,-0.03,-0.02,-0.03,1.0,h
925.0,2967.0,3007.0,3122.0,4095.0,4095.0,3083.0,2255.0,-8.98,-1.09,2.91,-0.05,-0.04,-0.04,1.0,h
945.0,2974.0,2998.0,3137.0,4095.0,4095.0,3071.0,2289.0,-8.96,-1.07,2.9,-0.01,-0.02,-0.03,1.0,h
950.0,2965.0,2991.0,3127.0,4095.0,4095.0,3071.0,2288.0,-8.95,-1.06,2.87,-0.04,-0.03,-0.07,1.0,h
950.0,2991.0,2992.0,3146.0,4095.0,4095.0,3071.0,2139.0,-9.04,-1.15,2.94,-0.01,-0.01,-0.06,1.0,h
978.0,2965.0,2998.0,3133.0,4095.0,4095.0,3071.0,2199.0,-8.94,-1.11,2.91,-0.07,-0.04,-0.01,1.0,h
982.0,2976.0,2995.0,3139.0,4095.0,4095.0,3087.0,2283.0,-8.86,-1.11,3.07,-0.05,0.01,-0.01,1.0,h
988.0,2977.0,2992.0,3126.0,4095.0,4095.0,3057.0,2719.0,-8.95,-1.08,2.99,-0.06,0.0,-0.03,1.0,h
993.0,2955.0,3005.0,3131.0,4095.0,4095.0,3069.0,2800.0,-9.0,-1.06,2.94,-0.08,-0.01,-0.03,1.0,h
998.0,2974.0,2992.0,3138.0,4095.0,4095.0,3084.0,2829.0,-9.01,-1.04,2.99,-0.05,-0.0,-0.03,1.0,h
993.0,2965.0,2991.0,3138.0,4095.0,4095.0,3088.0,2848.0,-8.89,-1.0,2.96,-0.1,0.0,-0.03,1.0,h
988.0,2966.0,2995.0,3134.0,4095.0,4095.0,3087.0,2855.0,-9.0,-1.07,2.99,-0.08,0.02,-0.03,1.0,h
991.0,2964.0,2992.0,3127.0,4095.0,4095.0,3071.0,2851.0,-8.94,-1.08,3.0,-0.08,0.02,-0.03,1.0,h
997.0,2971.0,3004.0,3146.0,4095.0,4095.0,3088.0,2865.0,-8.87,-1.08,3.03,-0.09,0.02,-0.02,1.0,h
996.0,2975.0,2994.0,3134.0,4095.0,4095.0,3085.0,2882.0,-9.0,-1.06,2.93,-0.09,0.02,-0.02,1.0,h
995.0,2971.0,2992.0,3133.0,4095.0,4095.0,3083.0,2881.0,-8.98,-1.03,2.95,-0.05,0.0,-0.04,1.0,h
997.0,2969.0,2992.0,3136.0,4095.0,4095.0,3091.0,2869.0,-8.98,-1.06,2.96,-0.07,-0.01,-0.03,1.0,h
1003.0,2990.0,2992.0,3140.0,4095.0,4095.0,3083.0,2886.0,-9.04,-1.06,2.88,-0.06,0.01,-0.04,1.0,h
999.0,2918.0,2990.0,3141.0,4095.0,4095.0,3083.0,2876.0,-8.83,-1.04,2.92,-0.06,-0.02,-0.05,1.0,h
999.0,2960.0,2997.0,3137.0,4095.0,4095.0,3093.0,2894.0,-8.94,-1.1,3.13,-0.04,-0.0,-0.05,1.0,h
1001.0,2979.0,2995.0,3127.0,4095.0,4095.0,3098.0,2867.0,-8.95,-1.07,2.92,-0.06,0.01,-0.04,1.0,h
999.0,2976.0,2993.0,3133.0,4095.0,4095.0,3089.0,2891.0,-8.98,-1.09,3.01,-0.06,0.01,-0.04,1.0,h
999.0,2973.0,2999.0,3130.0,4095.0,4095.0,3088.0,2903.0,-8.88,-1.04,3.01,-0.05,-0.01,-0.05,1.0,h
1001.0,2962.0,2996.0,3122.0,4095.0,4095.0,3088.0,2903.0,-9.06,-1.14,2.89,-0.05,0.0,-0.02,1.0,h
997.0,2967.0,2999.0,3141.0,4095.0,4095.0,3085.0,2890.0,-8.98,-1.16,3.17,-0.08,-0.02,-0.04,1.0,h
995.0,2964.0,2995.0,3134.0,4095.0,4095.0,3091.0,2910.0,-8.97,-1.06,2.91,-0.06,-0.04,-0.05,1.0,h
1005.0,2961.0,2987.0,3146.0,4095.0,4095.0,3088.0,2928.0,-8.89,-1.17,3.22,-0.06,0.03,-0.04,1.0,h
1020.0,2974.0,2999.0,3136.0,4095.0,4095.0,3083.0,2938.0,-8.96,-1.11,3.03,-0.04,0.01,-0.05,1.0,h
1012.0,2947.0,2992.0,3129.0,4095.0,4095.0,3088.0,2942.0,-8.92,-1.1,3.0,-0.05,-0.0,-0.06,1.0,h
1019.0,2960.0,2999.0,3135.0,4095.0,4095.0,3101.0,2935.0,-8.96,-1.11,3.07,-0.07,-0.02,-0.03,1.0,h
1009.0,2960.0,2992.0,3140.0,4095.0,4095.0,3104.0,2928.0,-8.87,-1.04,2.98,-0.04,0.0,-0.06,1.0,h
1007.0,2953.0,3005.0,3132.0,4095.0,4095.0,3087.0,2925.0,-9.0,-1.05,2.98,-0.06,0.01,-0.02,1.0,h
1008.0,2973.0,2994.0,3133.0,4095.0,4095.0,3091.0,2931.0,-8.89,-1.09,3.1,-0.02,0.01,-0.05,1.0,h
1007.0,2959.0,2999.0,3135.0,4095.0,4095.0,3086.0,2927.0,-9.02,-0.92,2.84,-0.05,-0.01,-0.03,1.0,h
880.0,2975.0,2998.0,3011.0,4095.0,4095.0,3057.0,2602.0,-8.95,-1.01,3.17,-0.05,0.02,-0.02,1.0,h
890.0,2960.0,2999.0,3017.0,4095.0,4095.0,3062.0,2635.0,-9.02,-0.96,3.04,-0.01,0.04,0.0,1.0,h
882.0,2963.0,2995.0,3030.0,4095.0,4095.0,3071.0,2630.0,-8.89,-0.99,3.15,-0.01,-0.0,-0.06,1.0,h
885.0,2970.0,3003.0,3030.0,4095.0,4095.0,3063.0,2589.0,-9.16,-0.94,3.03,-0.03,0.03,-0.03,1.0,h
893.0,2970.0,2992.0,3030.0,4095.0,4095.0,3066.0,2626.0,-8.91,-0.76,2.95,-0.09,-0.0,-0.03,1.0,h
892.0,2976.0,2993.0,3041.0,4095.0,4095.0,3071.0,2614.0,-8.96,-0.89,3.04,-0.11,-0.01,-0.01,1.0,h
882.0,2975.0,2992.0,3045.0,4095.0,4095.0,3071.0,2658.0,-9.0,-0.85,2.95,-0.07,-0.03,-0.04,1.0,h
896.0,2972.0,3008.0,3055.0,4095.0,4095.0,3069.0,2703.0,-8.82,-0.88,3.11,-0.11,-0.02,-0.03,1.0,h
886.0,2971.0,2992.0,3056.0,4095.0,4095.0,3083.0,2736.0,-8.98,-0.95,3.08,-0.07,0.03,-0.03,1.0,h
890.0,2970.0,2990.0,3056.0,4095.0,4095.0,3067.0,2711.0,-8.96,-0.92,3.08,-0.04,0.04,-0.03,1.0,h
890.0,2975.0,2992.0,3067.0,4095.0,4095.0,3071.0,2718.0,-8.98,-0.89,3.04,-0.06,-0.03,-0.05,1.0,h
895.0,2981.0,2997.0,3055.0,4095.0,4095.0,3071.0,2737.0,-9.01,-0.89,3.08,-0.04,-0.01,-0.05,1.0,h
899.0,2973.0,2992.0,3056.0,4095.0,4095.0,3102.0,2749.0,-8.93,-0.82,3.05,-0.06,-0.04,-0.05,1.0,h
897.0,2973.0,2999.0,3071.0,4095.0,4095.0,3083.0,2705.0,-8.9,-0.85,3.12,-0.08,0.0,-0.02,1.0,h
884.0,2972.0,3004.0,3056.0,4095.0,4095.0,3088.0,2704.0,-9.03,-0.85,2.91,-0.06,-0.03,-0.05,1.0,h
890.0,2960.0,2992.0,3059.0,4095.0,4095.0,3082.0,2725.0,-9.02,-0.89,3.06,-0.04,-0.02,-0.05,1.0,h
887.0,2971.0,2993.0,3082.0,4095.0,4095.0,3063.0,2729.0,-8.9,-0.81,2.96,-0.04,-0.02,-0.06,1.0,h
887.0,2960.0,2985.0,3071.0,4095.0,4095.0,3086.0,2726.0,-8.94,-0.93,3.11,-0.06,-0.0,-0.05,1.0,h
891.0,2963.0,2981.0,3063.0,4095.0,4095.0,3071.0,2751.0,-8.97,-0.85,2.98,-0.08,0.01,-0.03,1.0,h
895.0,2974.0,2999.0,3088.0,4095.0,4095.0,3089.0,2730.0,-8.9,-0.89,3.03,-0.08,0.01,-0.03,1.0,h
