hall_1,hall_2,hall_3,flex_t,flex_i,flex_m,flex_r,flex_p,accel_x,accel_y,accel_z,gyro_x,gyro_y,gyro_z,hand,sign
1748.0,2901.0,2962.0,4095.0,4095.0,4095.0,3303.0,3024.0,9.86,2.05,4.74,0.02,-0.01,-0.17,0.0,h
1746.0,2901.0,2965.0,4095.0,4095.0,4095.0,3313.0,3025.0,9.85,2.04,4.9,-0.01,0.02,-0.16,0.0,h
1746.0,2901.0,2968.0,4095.0,4095.0,4095.0,3309.0,3025.0,9.82,2.04,4.89,0.03,-0.03,-0.18,0.0,h
1745.0,2896.0,2961.0,4095.0,4095.0,4095.0,3307.0,3024.0,9.76,2.08,4.81,0.04,0.01,-0.16,0.0,h
1744.0,2906.0,2964.0,4095.0,4095.0,4095.0,3312.0,3034.0,9.79,2.11,4.93,0.02,-0.04,-0.18,0.0,h
1757.0,2901.0,2965.0,4095.0,4095.0,4095.0,3313.0,3030.0,9.77,2.15,4.8,0.05,0.03,-0.14,0.0,h
1747.0,2896.0,2972.0,4095.0,4095.0,4095.0,3312.0,3030.0,9.72,2.15,4.79,0.0,-0.03,-0.16,0.0,h
1745.0,2896.0,2955.0,4095.0,4095.0,4095.0,3310.0,3025.0,9.81,2.18,4.86,0.05,0.02,-0.14,0.0,h
1746.0,2901.0,2964.0,4095.0,4095.0,4095.0,3309.0,3027.0,9.91,2.06,4.79,0.01,-0.01,-0.18,0.0,h
1732.0,2897.0,2960.0,4095.0,4095.0,4095.0,3309.0,3041.0,9.79,2.05,4.84,0.06,0.04,-0.13,0.0,h
1729.0,2896.0,2960.0,4095.0,4095.0,4095.0,3311.0,3025.0,9.87,2.08,4.75,-0.01,-0.01,-0.18,0.0,h
1730.0,2901.0,2963.0,4095.0,4095.0,4095.0,3310.0,3029.0,9.78,2.11,4.82,0.02,0.01,-0.18,0.0,h
1728.0,2897.0,2960.0,4095.0,4095.0,4095.0,3299.0,3026.0,9.76,2.08,4.89,0.03,0.0,-0.18,0.0,h
1730.0,2899.0,2960.0,4095.0,4095.0,4095.0,3312.0,3029.0,9.66,2.24,4.85,0.02,0.07,-0.16,0.0,h
1732.0,2896.0,2963.0,4095.0,4095.0,4095.0,3307.0,3027.0,9.68,2.18,4.85,0.09,0.07,-0.13,0.0,h
1733.0,2907.0,2955.0,4095.0,4095.0,4095.0,3302.0,3039.0,9.86,2.12,4.82,0.03,0.0,-0.16,0.0,h
1741.0,2896.0,2947.0,4095.0,4095.0,4095.0,3294.0,3051.0,9.83,2.13,4.69,0.01,0.02,-0.15,0.0,h
1747.0,2896.0,2959.0,4095.0,4095.0,4095.0,3300.0,3057.0,9.85,2.08,4.88,-0.01,-0.0,-0.17,0.0,h
1753.0,2903.0,2953.0,4095.0,4095.0,4095.0,3303.0,3062.0,9.81,2.04,4.92,-0.02,-0.03,-0.16,0.0,h
1765.0,2896.0,2955.0,4095.0,4095.0,4095.0,3301.0,3067.0,9.75,2.06,5.01,0.01,-0.04,-0.16,0.0,h
3088.0,2896.0,2962.0,4095.0,4095.0,4095.0,3059.0,2782.0,10.09,2.6,4.83,-0.32,-0.23,0.16,0.0,h
3062.0,2897.0,2960.0,4095.0,4095.0,4095.0,3011.0,2615.0,9.63,3.2,5.01,-0.08,-0.13,-0.17,0.0,h
3141.0,2903.0,2267.0,4095.0,4095.0,4095.0,3003.0,2559.0,10.14,2.66,5.14,0.15,-0.11,-0.61,0.0,h
3115.0,2904.0,2544.0,4095.0,4095.0,4095.0,2946.0,2527.0,9.07,2.9,4.57,0.4,0.18,-0.16,0.0,h
3085.0,2901.0,2583.0,4095.0,4095.0,4095.0,2928.0,2454.0,9.39,3.0,4.67,0.18,-0.35,-0.24,0.0,h
3058.0,2905.0,2559.0,4095.0,4095.0,4095.0,2917.0,2451.0,9.33,3.2,4.08,-0.07,-0.02,-0.2,0.0,h
3038.0,2903.0,2559.0,4095.0,4095.0,4095.0,2911.0,2441.0,9.85,2.99,4.39,-0.04,-0.03,-0.11,0.0,h
3036.0,2896.0,2559.0,4095.0,4095.0,4095.0,2898.0,2463.0,9.42,2.7,4.87,0.01,-0.14,-0.22,0.0,h
3041.0,2911.0,2559.0,4095.0,4095.0,4095.0,2943.0,2506.0,9.85,2.91,3.97,0.3,-0.03,-0.16,0.0,h
3043.0,2911.0,2559.0,4095.0,4095.0,4095.0,2973.0,2537.0,9.98,3.09,4.35,0.06,0.16,-0.24,0.0,h
3053.0,2897.0,2582.0,4095.0,4095.0,4095.0,2905.0,2517.0,9.82,3.14,4.36,0.2,0.31,-0.11,0.0,h
3086.0,2909.0,2601.0,4095.0,4095.0,3691.0,2769.0,2411.0,9.37,2.99,4.59,0.12,0.27,-0.14,0.0,h
3071.0,2895.0,2610.0,4095.0,4095.0,3602.0,2742.0,2405.0,9.45,3.06,4.65,0.01,0.27,-0.02,0.0,h
3042.0,2896.0,2608.0,4095.0,4095.0,3760.0,2781.0,2448.0,9.81,3.23,4.59,-0.11,0.26,0.03,0.0,h
3039.0,2898.0,2595.0,4095.0,4095.0,4095.0,2883.0,2555.0,9.86,2.77,5.11,-0.06,0.07,-0.18,0.0,h
3027.0,2898.0,2523.0,4095.0,4095.0,4095.0,2997.0,2645.0,9.31,2.97,5.05,0.06,0.03,-0.14,0.0,h
3024.0,2898.0,2448.0,4095.0,4095.0,4095.0,3070.0,2705.0,9.55,2.55,5.06,-0.25,-0.08,-0.06,0.0,h
3003.0,2897.0,2400.0,4095.0,4095.0,4095.0,3109.0,2735.0,9.98,3.12,4.95,0.15,-0.18,-0.19,0.0,h
3015.0,2899.0,2385.0,4095.0,4095.0,4095.0,3146.0,2741.0,9.5,2.73,4.68,-0.03,-0.12,-0.32,0.0,h
3040.0,2898.0,2517.0,4095.0,4095.0,4095.0,3169.0,2753.0,9.39,2.97,4.94,0.0,-0.06,-0.18,0.0,h
1049.0,2893.0,2734.0,4095.0,4095.0,4095.0,3243.0,2775.0,9.64,2.54,4.56,0.07,-0.06,-0.04,0.0,h
1051.0,2901.0,2725.0,4095.0,4095.0,4095.0,3249.0,2785.0,9.47,2.49,4.55,0.11,-0.08,-0.05,0.0,h
1008.0,2897.0,2708.0,4095.0,4095.0,4095.0,3259.0,2777.0,9.49,2.24,5.13,0.48,-0.08,0.12,0.0,h
966.0,2902.0,2704.0,4095.0,4095.0,4095.0,3269.0,2775.0,9.68,2.39,3.74,0.49,-0.01,-0.04,0.0,h
962.0,2889.0,2696.0,4095.0,4095.0,4095.0,3263.0,2770.0,10.38,2.41,3.62,-0.11,-0.3,-0.36,0.0,h
958.0,2905.0,2704.0,4095.0,4095.0,4095.0,3264.0,2770.0,9.7,2.54,3.67,-0.23,-0.15,-0.34,0.0,h
950.0,2896.0,2736.0,4095.0,4095.0,4095.0,3276.0,2751.0,9.97,2.42,4.07,-0.28,-0.52,-0.44,0.0,h
943.0,2900.0,2800.0,4095.0,4095.0,4095.0,3216.0,2705.0,9.61,2.62,4.03,-0.06,-0.39,-0.34,0.0,h
949.0,2897.0,2855.0,4069.0,4095.0,4095.0,3198.0,2672.0,9.78,2.53,3.94,-0.03,-0.16,-0.23,0.0,h
948.0,2896.0,2915.0,3983.0,4095.0,4095.0,3180.0,2643.0,9.36,2.95,3.57,0.5,0.02,-0.04,0.0,h
954.0,2899.0,2960.0,3950.0,4095.0,4095.0,3184.0,2624.0,9.29,2.96,3.16,-0.12,-0.22,-0.24,0.0,h
945.0,2897.0,3023.0,3936.0,4095.0,4095.0,3187.0,2606.0,9.73,2.8,3.45,0.12,-0.17,-0.09,0.0,h
944.0,2907.0,3119.0,3903.0,4095.0,4095.0,3187.0,2586.0,9.43,2.79,3.17,-0.02,-0.02,-0.01,0.0,h
944.0,2911.0,3189.0,3917.0,4095.0,4095.0,3185.0,2559.0,9.86,2.59,3.34,0.03,-0.09,-0.05,0.0,h
944.0,2910.0,3225.0,3931.0,4095.0,4095.0,3187.0,2559.0,9.42,2.58,3.51,-0.12,0.18,-0.11,0.0,h
945.0,2906.0,3218.0,3936.0,4095.0,4095.0,3186.0,2559.0,9.82,2.54,3.48,0.01,0.09,-0.09,0.0,h
944.0,2899.0,3216.0,3964.0,4095.0,4095.0,3210.0,2598.0,9.46,2.34,3.93,-0.09,-0.1,-0.09,0.0,h
947.0,2897.0,3216.0,3966.0,4095.0,4095.0,3203.0,2595.0,9.88,2.63,3.42,0.11,0.13,-0.07,0.0,h
944.0,2895.0,3217.0,3963.0,4095.0,4095.0,3195.0,2605.0,9.68,2.28,3.59,-0.13,-0.13,-0.19,0.0,h
944.0,2896.0,3216.0,3977.0,4095.0,4095.0,3210.0,2608.0,9.79,2.59,3.46,0.08,0.06,-0.1,0.0,h
1015.0,2896.0,2992.0,3858.0,4095.0,4095.0,3108.0,2650.0,9.52,2.32,4.41,0.41,0.22,-0.22,0.0,h
1023.0,2897.0,3010.0,3795.0,4095.0,4095.0,3109.0,2640.0,9.38,2.4,4.56,0.42,-0.09,-0.27,0.0,h
1022.0,2905.0,3022.0,3761.0,4095.0,4095.0,3103.0,2638.0,9.6,2.66,4.31,0.26,0.13,-0.34,0.0,h
1023.0,2909.0,3011.0,3753.0,4095.0,4095.0,3118.0,2637.0,9.59,2.65,4.13,0.07,-0.07,-0.18,0.0,h
1033.0,2906.0,2999.0,3767.0,4095.0,4095.0,3113.0,2634.0,9.54,2.55,4.24,-0.03,-0.06,-0.06,0.0,h
1023.0,2903.0,2992.0,3767.0,4095.0,4095.0,3111.0,2635.0,9.89,2.68,3.8,-0.02,-0.01,-0.14,0.0,h
1035.0,2905.0,3001.0,3797.0,4095.0,4095.0,3125.0,2643.0,9.77,2.47,4.08,-0.02,-0.0,-0.13,0.0,h
1035.0,2898.0,2994.0,3798.0,4095.0,4095.0,3125.0,2650.0,9.55,2.6,3.95,-0.14,-0.07,-0.15,0.0,h
1040.0,2902.0,2995.0,3844.0,4095.0,4095.0,3137.0,2654.0,9.9,2.5,4.22,-0.08,-0.05,-0.16,0.0,h
1040.0,2891.0,2986.0,3847.0,4095.0,4095.0,3136.0,2653.0,9.19,2.48,4.23,-0.16,0.0,-0.15,0.0,h
1040.0,2901.0,2981.0,3870.0,4095.0,4095.0,3131.0,2652.0,9.84,2.47,4.15,-0.03,-0.06,-0.12,0.0,h
1048.0,2901.0,2992.0,3882.0,4095.0,4095.0,3141.0,2655.0,9.56,2.5,4.14,-0.05,-0.07,-0.13,0.0,h
1041.0,2906.0,2990.0,3874.0,4095.0,4095.0,3136.0,2651.0,9.95,2.57,3.91,0.05,0.02,-0.12,0.0,h
1045.0,2895.0,2986.0,3875.0,4095.0,4095.0,3139.0,2661.0,9.59,2.48,4.06,-0.09,-0.09,-0.18,0.0,h
1043.0,2898.0,2983.0,3888.0,4095.0,4095.0,3145.0,2661.0,9.69,2.57,4.0,0.07,0.06,-0.11,0.0,h
1069.0,2899.0,2973.0,3889.0,4095.0,4095.0,3136.0,2654.0,9.84,2.5,4.08,-0.05,-0.07,-0.18,0.0,h
1057.0,2895.0,2978.0,3903.0,4095.0,4095.0,3123.0,2655.0,9.57,2.49,4.08,0.03,0.05,-0.13,0.0,h
1066.0,2896.0,2960.0,3911.0,4095.0,4095.0,3110.0,2651.0,9.74,2.48,3.9,-0.03,-0.04,-0.13,0.0,h
1077.0,2899.0,2992.0,3975.0,4095.0,4095.0,3057.0,2633.0,9.75,2.72,3.74,-0.07,0.18,-0.08,0.0,h
1077.0,2901.0,3003.0,4010.0,4095.0,4095.0,2983.0,2614.0,10.0,2.26,3.89,-0.33,0.17,-0.12,0.0,h
918.0,2907.0,3141.0,4011.0,4095.0,4095.0,2747.0,2457.0,9.5,2.56,3.97,-0.11,-0.02,-0.15,0.0,h
921.0,2911.0,3136.0,4026.0,4095.0,4095.0,2750.0,2463.0,9.79,2.49,4.17,0.08,0.02,-0.13,0.0,h
915.0,2914.0,3135.0,4029.0,4095.0,4095.0,2755.0,2462.0,9.53,2.56,3.89,-0.08,-0.02,-0.14,0.0,h
915.0,2909.0,3145.0,4019.0,4095.0,4095.0,2757.0,2471.0,9.87,2.52,4.09,0.03,0.03,-0.1,0.0,h
912.0,2907.0,3149.0,4045.0,4095.0,4095.0,2763.0,2479.0,9.66,2.56,3.98,-0.11,-0.05,-0.14,0.0,h
916.0,2898.0,3146.0,4046.0,4095.0,4095.0,2766.0,2482.0,9.96,2.45,4.15,-0.0,-0.03,-0.13,0.0,h
917.0,2898.0,3148.0,4042.0,4095.0,4095.0,2768.0,2487.0,9.68,2.51,3.87,-0.07,-0.04,-0.14,0.0,h
913.0,2896.0,3150.0,4053.0,4095.0,4095.0,2763.0,2487.0,9.9,2.4,4.19,-0.0,-0.05,-0.15,0.0,h
919.0,2896.0,3169.0,4048.0,4095.0,4095.0,2774.0,2494.0,9.7,2.5,4.0,-0.01,-0.0,-0.16,0.0,h
914.0,2910.0,3165.0,4047.0,4095.0,4095.0,2781.0,2496.0,9.73,2.4,3.96,-0.08,-0.07,-0.18,0.0,h
992.0,2899.0,3156.0,4032.0,4095.0,4095.0,2783.0,2501.0,9.62,2.56,4.07,-0.02,-0.03,-0.17,0.0,h
939.0,2899.0,3168.0,4074.0,4095.0,4095.0,2786.0,2497.0,9.84,2.46,4.05,-0.11,-0.03,-0.15,0.0,h
890.0,2899.0,3167.0,4078.0,4095.0,4095.0,2794.0,2498.0,9.64,2.53,4.12,0.03,0.03,-0.16,0.0,h
885.0,2903.0,3171.0,4068.0,4095.0,4095.0,2798.0,2503.0,9.9,2.45,3.96,-0.03,-0.05,-0.19,0.0,h
896.0,2902.0,3170.0,4071.0,4095.0,4095.0,2800.0,2508.0,9.76,2.55,4.08,0.05,0.0,-0.17,0.0,h
897.0,2898.0,3177.0,4071.0,4095.0,4095.0,2801.0,2508.0,9.72,2.55,3.91,-0.08,-0.0,-0.18,0.0,h
893.0,2910.0,3185.0,4080.0,4095.0,4095.0,2806.0,2511.0,9.76,2.57,4.11,-0.02,-0.02,-0.18,0.0,h
899.0,2901.0,3184.0,4095.0,4095.0,4095.0,2807.0,2510.0,9.68,2.58,4.05,0.0,0.01,-0.17,0.0,h
899.0,2906.0,3183.0,4077.0,4095.0,4095.0,2805.0,2514.0,9.53,2.64,4.07,-0.02,0.02,-0.15,0.0,h
897.0,2903.0,3186.0,4095.0,4095.0,4095.0,2814.0,2518.0,9.78,2.6,4.02,0.0,-0.05,-0.17,0.0,h
3846.0,2912.0,3070.0,4095.0,4095.0,4095.0,2657.0,2519.0,9.6,2.71,3.68,-0.03,0.02,-0.16,0.0,h
3857.0,2907.0,3071.0,4095.0,4095.0,4095.0,2646.0,2521.0,9.46,2.82,3.64,0.03,-0.02,-0.16,0.0,h
3865.0,2914.0,3071.0,4095.0,4095.0,4095.0,2657.0,2519.0,9.62,2.82,3.51,0.01,0.02,-0.15,0.0,h
3858.0,2911.0,3062.0,4095.0,4095.0,4095.0,2656.0,2514.0,9.62,2.79,3.51,0.0,-0.05,-0.18,0.0,h
3867.0,2910.0,3067.0,4095.0,4095.0,4095.0,2663.0,2525.0,9.66,2.74,3.43,0.03,-0.04,-0.19,0.0,h
3866.0,2902.0,3059.0,4095.0,4095.0,4095.0,2654.0,2526.0,9.68,2.8,3.56,0.04,-0.02,-0.23,0.0,h
3884.0,2914.0,3065.0,4095.0,4095.0,4095.0,2666.0,2527.0,9.58,2.86,3.47,0.06,0.0,-0.2,0.0,h
3879.0,2912.0,3071.0,4095.0,4095.0,4095.0,2663.0,2527.0,9.62,2.86,3.44,-0.0,-0.03,-0.16,0.0,h
3901.0,2907.0,3070.0,4095.0,4095.0,4095.0,2670.0,2527.0,9.52,2.94,3.42,0.02,0.05,-0.13,0.0,h
3886.0,2907.0,3068.0,4095.0,4095.0,4095.0,2669.0,2531.0,9.62,2.86,3.52,-0.04,-0.02,-0.16,0.0,h
3888.0,2910.0,3071.0,4095.0,4095.0,4095.0,2666.0,2533.0,9.52,2.87,3.57,0.0,0.01,-0.13,0.0,h
3881.0,2910.0,3068.0,4095.0,4095.0,4095.0,2668.0,2530.0,9.69,2.76,3.6,0.03,-0.02,-0.14,0.0,h
3888.0,2914.0,3082.0,4095.0,4095.0,4095.0,2672.0,2535.0,9.65,2.83,3.4,0.09,-0.0,-0.15,0.0,h
3870.0,2907.0,3062.0,4095.0,4095.0,4095.0,2669.0,2523.0,9.79,2.84,3.29,0.0,-0.03,-0.19,0.0,h
3872.0,2899.0,3061.0,4095.0,4095.0,4095.0,2672.0,2523.0,9.6,2.85,3.47,0.02,0.04,-0.17,0.0,h
3873.0,2911.0,3066.0,4095.0,4095.0,4095.0,2667.0,2535.0,9.58,2.87,3.55,-0.0,-0.02,-0.19,0.0,h
3859.0,2902.0,3071.0,4095.0,4095.0,4095.0,2650.0,2527.0,9.58,2.92,3.55,0.01,0.01,-0.17,0.0,h
3883.0,2907.0,3071.0,4095.0,4095.0,4095.0,2672.0,2534.0,9.54,2.92,3.48,0.02,0.0,-0.16,0.0,h
3895.0,2911.0,3071.0,4095.0,4095.0,4095.0,2672.0,2533.0,9.61,2.96,3.34,-0.0,-0.02,-0.16,0.0,h
3907.0,2918.0,3068.0,4095.0,4095.0,4095.0,2672.0,2526.0,9.7,2.89,3.51,0.01,0.06,-0.14,0.0,h
3762.0,2939.0,2877.0,3905.0,4095.0,4095.0,2790.0,2623.0,9.48,3.05,3.07,-0.11,0.1,-0.05,0.0,h
3765.0,2953.0,2867.0,3920.0,4095.0,4095.0,2797.0,2625.0,9.33,3.21,3.15,-0.1,0.15,-0.04,0.0,h
3774.0,2932.0,2873.0,3958.0,4095.0,4095.0,2795.0,2627.0,9.56,3.01,3.25,-0.14,0.02,-0.08,0.0,h
3758.0,2943.0,2877.0,3953.0,4095.0,4095.0,2798.0,2627.0,9.54,3.08,3.27,-0.07,0.03,-0.15,0.0,h
3761.0,2934.0,2875.0,3952.0,4095.0,4095.0,2793.0,2631.0,9.64,2.95,3.48,0.03,-0.04,-0.16,0.0,h
3760.0,2929.0,2867.0,3950.0,4095.0,4095.0,2787.0,2624.0,9.38,3.13,3.35,0.02,0.04,-0.15,0.0,h
3765.0,2943.0,2871.0,3982.0,4095.0,4095.0,2797.0,2629.0,9.45,3.04,3.39,0.07,0.02,-0.14,0.0,h
3767.0,2947.0,2874.0,3975.0,4095.0,4095.0,2798.0,2631.0,9.63,3.09,3.19,0.02,0.02,-0.15,0.0,h
3763.0,2943.0,2871.0,3988.0,4095.0,4095.0,2798.0,2639.0,9.47,3.02,3.23,0.03,0.06,-0.14,0.0,h
3771.0,2934.0,2864.0,3991.0,4095.0,4095.0,2782.0,2631.0,9.64,3.05,3.31,-0.05,0.08,-0.15,0.0,h
3762.0,2939.0,2869.0,3986.0,4095.0,4095.0,2781.0,2598.0,9.36,3.28,3.21,-0.1,0.09,-0.15,0.0,h
3770.0,2942.0,2867.0,4016.0,4095.0,4095.0,2784.0,2627.0,9.7,2.97,3.38,-0.19,-0.02,-0.15,0.0,h
3766.0,2936.0,2874.0,4014.0,4095.0,4095.0,2789.0,2627.0,9.55,2.89,3.67,-0.05,0.03,-0.13,0.0,h
3787.0,2938.0,2870.0,4038.0,4095.0,4095.0,2794.0,2628.0,9.5,2.95,3.63,-0.01,0.01,-0.13,0.0,h
3778.0,2942.0,2869.0,4032.0,4095.0,4095.0,2791.0,2623.0,9.68,2.97,3.66,0.03,-0.03,-0.15,0.0,h
3775.0,2944.0,2875.0,4045.0,4095.0,4095.0,2791.0,2629.0,9.74,2.94,3.52,0.02,-0.03,-0.16,0.0,h
3766.0,2947.0,2880.0,4033.0,4095.0,4095.0,2795.0,2632.0,9.67,3.01,3.41,-0.0,-0.02,-0.18,0.0,h
3751.0,2945.0,2870.0,4047.0,4095.0,4095.0,2799.0,2633.0,9.66,3.04,3.48,0.02,-0.02,-0.19,0.0,h
3766.0,2943.0,2876.0,4022.0,4095.0,4095.0,2793.0,2629.0,9.47,3.07,3.52,0.02,0.01,-0.18,0.0,h
3771.0,2944.0,2867.0,4030.0,4095.0,4095.0,2797.0,2631.0,9.62,3.11,3.49,0.01,0.04,-0.18,0.0,h
3888.0,2910.0,2871.0,4095.0,4095.0,4095.0,2752.0,3003.0,9.48,3.26,4.18,0.03,-0.02,-0.1,0.0,h
3890.0,2923.0,2882.0,4095.0,4095.0,4095.0,2758.0,2967.0,9.63,3.38,4.08,0.06,-0.12,-0.14,0.0,h
3887.0,2903.0,2881.0,4095.0,4095.0,4095.0,2755.0,2974.0,9.48,3.46,4.03,-0.02,-0.02,-0.17,0.0,h
3883.0,2915.0,2868.0,4095.0,4095.0,4095.0,2755.0,2978.0,9.46,3.34,4.04,-0.04,0.12,-0.09,0.0,h
3890.0,2907.0,2867.0,4095.0,4095.0,4095.0,2766.0,2985.0,9.64,3.29,4.21,0.01,-0.05,-0.14,0.0,h
3874.0,2901.0,2871.0,4095.0,4095.0,4095.0,2753.0,2989.0,9.39,3.23,4.24,-0.01,0.0,-0.15,0.0,h
3879.0,2911.0,2877.0,4095.0,4095.0,4095.0,2782.0,2990.0,9.48,3.32,4.21,0.02,-0.07,-0.17,0.0,h
3888.0,2912.0,2879.0,4095.0,4095.0,4095.0,2751.0,2992.0,9.43,3.37,4.17,0.04,-0.04,-0.18,0.0,h
3879.0,2911.0,2876.0,4095.0,4095.0,4095.0,2742.0,2992.0,9.65,3.31,4.07,0.13,0.01,-0.25,0.0,h
3882.0,2909.0,2873.0,4095.0,4095.0,4095.0,2743.0,2989.0,9.25,3.49,3.9,0.1,0.05,-0.2,0.0,h
3905.0,2919.0,2873.0,4095.0,4095.0,4095.0,2753.0,2999.0,9.48,3.44,4.01,-0.03,0.09,-0.15,0.0,h
3899.0,2909.0,2870.0,4095.0,4095.0,4095.0,2757.0,2997.0,9.45,3.47,4.28,-0.03,0.02,-0.15,0.0,h
3877.0,2903.0,2874.0,4095.0,4095.0,4095.0,2768.0,2986.0,9.26,3.41,4.21,-0.04,0.0,-0.13,0.0,h
3877.0,2909.0,2873.0,4095.0,4095.0,4095.0,2751.0,2993.0,9.37,3.4,4.27,0.0,-0.04,-0.13,0.0,h
3874.0,2912.0,2874.0,4095.0,4095.0,4095.0,2756.0,2993.0,9.52,3.29,4.24,0.05,0.01,-0.12,0.0,h
3892.0,2923.0,2878.0,4095.0,4095.0,4095.0,2768.0,2993.0,9.58,3.29,4.16,0.03,-0.04,-0.15,0.0,h
3876.0,2911.0,2877.0,4095.0,4095.0,4095.0,2755.0,2997.0,9.82,3.29,4.22,0.17,0.03,-0.21,0.0,h
3899.0,2911.0,2879.0,4095.0,4095.0,4095.0,2765.0,2993.0,9.62,3.42,4.23,0.38,0.1,-0.41,0.0,h
3898.0,2912.0,2864.0,4095.0,4095.0,4095.0,2766.0,2992.0,9.2,3.57,3.83,0.28,0.07,-0.29,0.0,h
3920.0,2912.0,2870.0,4095.0,4095.0,4095.0,2778.0,3005.0,9.47,3.54,3.98,0.15,0.13,-0.15,0.0,h
874.0,2928.0,2880.0,4095.0,4095.0,4095.0,2780.0,2595.0,9.21,3.44,4.6,0.01,0.0,-0.14,0.0,h
885.0,2926.0,2880.0,4095.0,4095.0,4095.0,2775.0,2596.0,9.52,3.49,4.55,-0.01,0.0,-0.14,0.0,h
899.0,2924.0,2882.0,4095.0,4095.0,4095.0,2787.0,2602.0,9.33,3.41,4.57,-0.01,-0.01,-0.13,0.0,h
991.0,2934.0,2875.0,4095.0,4095.0,4095.0,2774.0,2601.0,9.54,3.45,4.48,0.0,-0.03,-0.15,0.0,h
1493.0,2927.0,2880.0,4095.0,4095.0,4095.0,2780.0,2606.0,9.29,3.36,4.48,0.01,0.01,-0.14,0.0,h
2300.0,2929.0,2880.0,4095.0,4095.0,4095.0,2783.0,2605.0,9.59,3.38,4.45,0.07,-0.02,-0.15,0.0,h
3008.0,2922.0,2887.0,4095.0,4095.0,4095.0,2777.0,2605.0,9.47,3.43,4.39,-0.04,0.01,-0.16,0.0,h
3517.0,2927.0,2883.0,4095.0,4095.0,4095.0,2778.0,2607.0,9.41,3.59,4.3,-0.09,0.08,-0.19,0.0,h
3681.0,2925.0,2882.0,4095.0,4095.0,4095.0,2785.0,2609.0,9.42,3.51,4.67,-0.11,-0.05,-0.18,0.0,h
3707.0,2928.0,2880.0,4095.0,4095.0,4095.0,2783.0,2613.0,9.17,3.43,4.8,-0.04,0.06,-0.11,0.0,h
3719.0,2933.0,2885.0,4095.0,4095.0,4095.0,2784.0,2614.0,9.44,3.4,4.67,0.05,-0.12,-0.11,0.0,h
3729.0,2929.0,2893.0,4095.0,4095.0,4095.0,2791.0,2614.0,9.58,3.41,4.32,0.0,0.02,-0.06,0.0,h
3714.0,2928.0,2886.0,4095.0,4095.0,4095.0,2785.0,2614.0,9.71,3.38,4.59,-0.04,-0.09,-0.16,0.0,h
3651.0,2943.0,2880.0,4095.0,4095.0,4095.0,2793.0,2613.0,9.32,3.32,4.63,-0.03,0.02,-0.15,0.0,h
3520.0,2933.0,2889.0,4095.0,4095.0,4095.0,2775.0,2624.0,9.46,3.37,4.63,-0.01,-0.01,-0.13,0.0,h
3463.0,2928.0,2879.0,4095.0,4095.0,4095.0,2785.0,2623.0,9.42,3.37,4.77,0.01,-0.04,-0.18,0.0,h
3456.0,2923.0,2878.0,4095.0,4095.0,4095.0,2785.0,2620.0,9.34,3.45,4.49,0.02,-0.01,-0.16,0.0,h
3427.0,2938.0,2886.0,4095.0,4095.0,4095.0,2784.0,2629.0,9.5,3.39,4.53,0.04,-0.05,-0.13,0.0,h
3428.0,2930.0,2883.0,4095.0,4095.0,4095.0,2786.0,2623.0,9.45,3.42,4.36,0.0,0.0,-0.14,0.0,h
3365.0,2931.0,2880.0,4095.0,4095.0,4095.0,2768.0,2624.0,9.56,3.4,4.37,-0.02,-0.03,-0.14,0.0,h
2741.0,2912.0,2885.0,4095.0,4095.0,4095.0,2745.0,2722.0,9.31,3.48,4.13,-0.02,-0.07,-0.16,0.0,h
2791.0,2912.0,2880.0,4095.0,4095.0,4095.0,2736.0,2725.0,9.42,3.49,4.24,0.08,-0.02,-0.14,0.0,h
2801.0,2917.0,2883.0,4095.0,4095.0,4095.0,2738.0,2723.0,9.55,3.35,4.23,-0.03,-0.11,-0.18,0.0,h
2838.0,2911.0,2890.0,4095.0,4095.0,4095.0,2737.0,2723.0,9.33,3.48,4.17,0.07,-0.01,-0.14,0.0,h
2854.0,2901.0,2880.0,4095.0,4095.0,4095.0,2735.0,2726.0,9.52,3.39,4.04,0.03,-0.08,-0.16,0.0,h
2867.0,2911.0,2895.0,4095.0,4095.0,4095.0,2739.0,2727.0,9.5,3.48,3.87,0.05,0.02,-0.14,0.0,h
2851.0,2917.0,2891.0,4095.0,4095.0,4095.0,2745.0,2730.0,9.5,3.52,3.99,-0.01,0.02,-0.15,0.0,h
2833.0,2907.0,2879.0,4095.0,4095.0,4095.0,2736.0,2727.0,9.29,3.51,4.06,0.0,-0.02,-0.17,0.0,h
2819.0,2917.0,2896.0,4095.0,4095.0,4095.0,2740.0,2729.0,9.37,3.38,4.13,-0.01,0.01,-0.14,0.0,h
2757.0,2911.0,2882.0,4095.0,4095.0,4095.0,2739.0,2726.0,9.35,3.46,4.19,0.0,0.06,-0.13,0.0,h
2755.0,2909.0,2889.0,4095.0,4095.0,4095.0,2736.0,2726.0,9.38,3.39,4.22,0.02,0.01,-0.14,0.0,h
2768.0,2915.0,2889.0,4095.0,4095.0,4095.0,2738.0,2726.0,9.55,3.5,4.08,0.06,-0.01,-0.14,0.0,h
2764.0,2919.0,2883.0,4095.0,4095.0,4095.0,2745.0,2727.0,9.42,3.42,4.14,0.01,0.03,-0.13,0.0,h
2769.0,2911.0,2891.0,4095.0,4095.0,4095.0,2753.0,2725.0,9.45,3.41,4.24,0.01,-0.06,-0.14,0.0,h
2752.0,2911.0,2885.0,4095.0,4095.0,4095.0,2743.0,2731.0,9.58,3.57,4.19,0.03,-0.04,-0.14,0.0,h
2679.0,2919.0,2893.0,4095.0,4095.0,4095.0,2751.0,2725.0,9.41,3.58,4.11,-0.13,-0.01,-0.15,0.0,h
2534.0,2911.0,2886.0,4095.0,4095.0,4095.0,2737.0,2727.0,9.2,3.46,4.36,-0.07,0.01,-0.11,0.0,h
2507.0,2923.0,2893.0,4095.0,4095.0,4095.0,2747.0,2732.0,9.27,3.37,4.24,-0.11,-0.06,-0.11,0.0,h
2475.0,2906.0,2881.0,4095.0,4095.0,4095.0,2738.0,2726.0,9.28,3.18,4.28,0.05,0.14,-0.02,0.0,h
2490.0,2918.0,2886.0,4095.0,4095.0,4095.0,2738.0,2723.0,9.76,3.17,4.0,0.03,-0.18,-0.09,0.0,h
3699.0,2932.0,2870.0,4059.0,4095.0,4095.0,2638.0,2652.0,9.44,3.27,3.62,-0.02,-0.08,-0.07,0.0,h
4095.0,2928.0,2875.0,4053.0,4095.0,4095.0,2639.0,2659.0,9.34,3.24,3.51,0.11,0.26,0.09,0.0,h
4095.0,2933.0,2874.0,4067.0,4095.0,4095.0,2637.0,2667.0,9.51,3.36,3.73,-0.11,0.03,0.04,0.0,h
4095.0,2931.0,2864.0,4087.0,4095.0,4095.0,2636.0,2663.0,9.5,3.1,3.83,0.03,-0.02,-0.1,0.0,h
4095.0,2940.0,2874.0,4094.0,4095.0,4095.0,2640.0,2672.0,9.61,3.16,3.5,0.0,-0.1,-0.11,0.0,h
4095.0,2939.0,2862.0,4085.0,4095.0,4095.0,2643.0,2670.0,9.44,3.27,3.41,0.09,-0.03,-0.13,0.0,h
4095.0,2935.0,2864.0,4086.0,4095.0,4095.0,2637.0,2671.0,9.5,3.1,3.28,0.01,0.01,-0.11,0.0,h
4095.0,2930.0,2873.0,4095.0,4095.0,4095.0,2643.0,2675.0,9.58,3.11,3.38,0.01,-0.02,-0.12,0.0,h
4095.0,2929.0,2870.0,4095.0,4095.0,4095.0,2638.0,2674.0,9.84,3.0,3.54,-0.05,-0.04,-0.18,0.0,h
4095.0,2932.0,2871.0,4095.0,4095.0,4095.0,2641.0,2677.0,9.49,3.14,3.63,-0.12,0.05,-0.19,0.0,h
4095.0,2931.0,2866.0,4095.0,4095.0,4095.0,2637.0,2673.0,9.57,3.03,3.9,-0.06,-0.03,-0.17,0.0,h
4095.0,2933.0,2868.0,4095.0,4095.0,4095.0,2643.0,2679.0,9.02,2.97,3.77,0.01,-0.02,-0.12,0.0,h
4095.0,2930.0,2870.0,4095.0,4095.0,4095.0,2634.0,2699.0,9.54,2.84,3.69,0.14,-0.01,-0.05,0.0,h
4095.0,2931.0,2867.0,4095.0,4095.0,4095.0,2640.0,2675.0,9.97,3.23,3.24,0.18,0.0,-0.13,0.0,h
4095.0,2943.0,2874.0,4095.0,4095.0,4095.0,2641.0,2685.0,9.78,3.14,3.08,0.08,0.02,-0.2,0.0,h
4080.0,2939.0,2870.0,4095.0,4095.0,4095.0,2640.0,2680.0,9.44,3.06,3.62,0.01,0.05,-0.2,0.0,h
4079.0,2933.0,2867.0,4095.0,4095.0,4095.0,2643.0,2691.0,9.39,3.14,3.53,0.07,0.03,-0.2,0.0,h
4047.0,2944.0,2871.0,4095.0,4095.0,4095.0,2652.0,2688.0,9.5,2.98,3.46,-0.02,-0.05,-0.19,0.0,h
3983.0,2947.0,2873.0,4095.0,4095.0,4095.0,2643.0,2691.0,9.74,3.12,3.66,0.03,0.01,-0.14,0.0,h
3969.0,2944.0,2869.0,4095.0,4095.0,4095.0,2645.0,2689.0,9.62,2.99,3.68,0.06,0.02,-0.16,0.0,h
3440.0,2969.0,2871.0,4095.0,4095.0,4095.0,2749.0,2502.0,9.93,2.26,3.12,0.01,-0.02,-0.16,0.0,h
3438.0,2974.0,2880.0,4095.0,4095.0,4095.0,2752.0,2503.0,9.8,2.22,3.07,0.0,0.07,-0.16,0.0,h
3434.0,2965.0,2865.0,4095.0,4095.0,4095.0,2755.0,2511.0,9.77,2.27,3.38,-0.04,0.04,-0.16,0.0,h
3418.0,2967.0,2867.0,4095.0,4095.0,4095.0,2751.0,2517.0,9.88,2.15,3.58,0.0,0.05,-0.17,0.0,h
3421.0,2967.0,2873.0,4095.0,4095.0,4095.0,2749.0,2526.0,9.74,2.19,3.7,-0.0,0.01,-0.18,0.0,h
3408.0,2960.0,2865.0,4095.0,4095.0,4095.0,2742.0,2522.0,9.49,2.26,3.65,0.02,-0.01,-0.14,0.0,h
3424.0,2960.0,2877.0,4095.0,4095.0,4095.0,2746.0,2527.0,9.8,2.31,3.61,0.03,0.02,-0.13,0.0,h
3430.0,2959.0,2863.0,4095.0,4095.0,4095.0,2746.0,2529.0,9.73,2.33,3.48,0.02,-0.01,-0.17,0.0,h
3435.0,2971.0,2871.0,4095.0,4095.0,4095.0,2750.0,2534.0,9.64,2.27,3.37,-0.03,0.02,-0.13,0.0,h
3440.0,2966.0,2870.0,4095.0,4095.0,4095.0,2750.0,2538.0,9.95,2.18,3.51,-0.03,-0.01,-0.14,0.0,h
3427.0,2963.0,2875.0,4095.0,4095.0,4095.0,2743.0,2533.0,9.86,2.13,3.61,-0.01,-0.03,-0.16,0.0,h
3437.0,2965.0,2871.0,4095.0,4095.0,4095.0,2750.0,2537.0,9.79,2.2,3.66,-0.01,-0.05,-0.18,0.0,h
3453.0,2963.0,2869.0,4095.0,4095.0,4095.0,2755.0,2540.0,9.66,2.25,3.61,0.07,0.02,-0.16,0.0,h
3438.0,2962.0,2869.0,4095.0,4095.0,4095.0,2747.0,2539.0,9.78,2.22,3.26,0.06,-0.03,-0.15,0.0,h
3456.0,2966.0,2871.0,4095.0,4095.0,4095.0,2753.0,2544.0,9.89,2.26,3.36,-0.02,-0.03,-0.16,0.0,h
3439.0,2973.0,2871.0,4095.0,4095.0,4095.0,2753.0,2544.0,9.77,2.25,3.33,-0.04,0.03,-0.15,0.0,h
3448.0,2972.0,2880.0,4095.0,4095.0,4095.0,2750.0,2544.0,9.87,2.19,3.63,0.01,-0.03,-0.16,0.0,h
3490.0,2961.0,2864.0,4095.0,4095.0,4095.0,2750.0,2544.0,9.75,2.28,3.5,0.08,0.05,-0.19,0.0,h
3473.0,2965.0,2869.0,4095.0,4095.0,4095.0,2743.0,2544.0,9.83,2.28,3.58,0.12,0.0,-0.23,0.0,h
3472.0,2966.0,2873.0,4095.0,4095.0,4095.0,2733.0,2537.0,9.63,2.32,3.53,0.15,0.07,-0.21,0.0,h
2745.0,2927.0,2912.0,4095.0,4095.0,3543.0,2598.0,2736.0,9.71,2.68,4.08,-0.16,-0.25,-0.48,0.0,h
2774.0,2944.0,2928.0,4065.0,4095.0,3553.0,2583.0,2637.0,9.3,2.88,3.88,-0.12,0.06,-0.16,0.0,h
2793.0,2935.0,2918.0,4003.0,4095.0,3533.0,2559.0,2584.0,10.3,2.67,3.93,0.15,-0.11,-0.33,0.0,h
2786.0,2934.0,2925.0,3972.0,4095.0,3477.0,2581.0,2522.0,9.43,2.99,3.68,0.17,0.01,-0.17,0.0,h
2800.0,2939.0,2927.0,3950.0,4095.0,3527.0,2583.0,2546.0,9.68,2.83,3.69,0.03,-0.14,-0.03,0.0,h
2780.0,2923.0,2910.0,3965.0,4095.0,3645.0,2598.0,2629.0,9.46,2.81,3.62,-0.42,-0.05,0.16,0.0,h
2751.0,2930.0,2909.0,3999.0,4095.0,3829.0,2608.0,2679.0,10.23,2.58,3.82,-0.21,-0.07,-0.07,0.0,h
2708.0,2928.0,2909.0,4016.0,4095.0,3933.0,2609.0,2685.0,9.66,2.65,3.81,-0.1,-0.05,-0.2,0.0,h
2691.0,2919.0,2912.0,3989.0,4095.0,3920.0,2599.0,2672.0,9.7,2.52,3.84,-0.01,-0.04,-0.1,0.0,h
2705.0,2926.0,2903.0,3990.0,4095.0,3918.0,2608.0,2678.0,9.84,2.57,3.88,-0.05,-0.05,-0.13,0.0,h
2711.0,2935.0,2923.0,4013.0,4095.0,3917.0,2617.0,2680.0,9.74,2.59,3.85,0.07,0.03,-0.15,0.0,h
2717.0,2939.0,2913.0,4032.0,4095.0,3924.0,2615.0,2683.0,9.73,2.53,3.78,-0.03,-0.1,-0.18,0.0,h
2727.0,2925.0,2913.0,4043.0,4095.0,3907.0,2617.0,2675.0,9.72,2.65,3.88,0.01,-0.04,-0.16,0.0,h
2726.0,2928.0,2903.0,4043.0,4095.0,3882.0,2609.0,2673.0,9.67,2.66,3.58,-0.01,0.01,-0.16,0.0,h
2735.0,2925.0,2911.0,4043.0,4095.0,3902.0,2619.0,2679.0,9.62,2.65,3.74,-0.01,0.0,-0.11,0.0,h
2733.0,2927.0,2914.0,4061.0,4095.0,3902.0,2619.0,2688.0,9.82,2.59,3.78,-0.03,0.03,-0.12,0.0,h
2721.0,2926.0,2912.0,4070.0,4095.0,3952.0,2614.0,2697.0,9.48,2.46,3.94,-0.05,-0.02,-0.15,0.0,h
2672.0,2930.0,2914.0,4087.0,4095.0,4006.0,2623.0,2701.0,9.6,2.71,3.76,-0.05,-0.05,-0.16,0.0,h
2653.0,2923.0,2915.0,4080.0,4095.0,4015.0,2618.0,2701.0,9.56,2.66,3.68,-0.06,-0.04,-0.14,0.0,h
2627.0,2921.0,2909.0,4089.0,4095.0,4036.0,2622.0,2703.0,9.53,2.56,3.68,-0.02,-0.02,-0.1,0.0,h
3281.0,2924.0,2884.0,4095.0,4095.0,4095.0,2827.0,2798.0,9.73,2.43,3.44,0.04,0.0,-0.16,0.0,h
3278.0,2914.0,2871.0,4095.0,4095.0,4095.0,2830.0,2791.0,9.7,2.42,3.41,-0.04,-0.01,-0.15,0.0,h
3269.0,2908.0,2871.0,4095.0,4095.0,4095.0,2819.0,2789.0,9.71,2.4,3.6,0.06,-0.01,-0.15,0.0,h
3282.0,2913.0,2871.0,4095.0,4095.0,4095.0,2821.0,2790.0,9.67,2.29,3.5,-0.02,-0.0,-0.15,0.0,h
3275.0,2923.0,2879.0,4095.0,4095.0,4095.0,2829.0,2791.0,9.87,2.4,3.56,0.08,-0.01,-0.15,0.0,h
3280.0,2913.0,2869.0,4095.0,4095.0,4095.0,2827.0,2797.0,9.66,2.32,3.51,0.01,0.02,-0.16,0.0,h
3280.0,2928.0,2880.0,4095.0,4095.0,4095.0,2830.0,2801.0,9.71,2.35,3.64,0.11,0.09,-0.11,0.0,h
3269.0,2919.0,2873.0,4095.0,4095.0,4095.0,2823.0,2801.0,9.61,2.45,3.4,0.11,0.05,-0.09,0.0,h
3280.0,2918.0,2880.0,4095.0,4095.0,4095.0,2838.0,2800.0,9.85,2.29,3.24,-0.01,-0.0,-0.14,0.0,h
3278.0,2912.0,2869.0,4095.0,4095.0,4095.0,2832.0,2800.0,9.85,2.25,3.45,-0.01,-0.03,-0.15,0.0,h
3280.0,2919.0,2875.0,4095.0,4095.0,4095.0,2835.0,2802.0,9.7,2.09,3.43,0.01,0.02,-0.15,0.0,h
3280.0,2923.0,2879.0,4095.0,4095.0,4095.0,2821.0,2803.0,9.9,2.18,3.44,0.05,0.0,-0.15,0.0,h
3287.0,2917.0,2880.0,4095.0,4095.0,4095.0,2833.0,2805.0,9.92,2.32,3.42,0.04,-0.06,-0.19,0.0,h
3281.0,2921.0,2879.0,4095.0,4095.0,4095.0,2830.0,2805.0,9.72,2.43,3.45,0.06,0.0,-0.15,0.0,h
3283.0,2928.0,2885.0,4095.0,4095.0,4095.0,2837.0,2811.0,9.74,2.37,3.46,-0.01,0.04,-0.18,0.0,h
3280.0,2916.0,2867.0,4095.0,4095.0,4095.0,2832.0,2807.0,9.47,2.32,3.49,0.04,0.0,-0.13,0.0,h
3285.0,2922.0,2870.0,4095.0,4095.0,4095.0,2833.0,2807.0,9.93,2.42,3.45,0.03,0.05,-0.12,0.0,h
3283.0,2918.0,2871.0,4095.0,4095.0,4095.0,2835.0,2813.0,9.83,2.26,3.39,-0.04,-0.01,-0.18,0.0,h
3273.0,2918.0,2877.0,4095.0,4095.0,4095.0,2832.0,2800.0,9.63,2.28,3.71,0.01,0.05,-0.16,0.0,h
3275.0,2912.0,2879.0,4095.0,4095.0,4095.0,2834.0,2813.0,9.88,2.32,3.81,0.03,0.01,-0.15,0.0,h
3294.0,2944.0,2867.0,4095.0,4095.0,4095.0,2649.0,2832.0,9.79,2.62,3.86,0.02,-0.01,-0.18,0.0,h
3284.0,2945.0,2873.0,4095.0,4095.0,4095.0,2651.0,2833.0,9.74,2.44,3.72,-0.19,-0.04,-0.13,0.0,h
3287.0,2945.0,2874.0,4095.0,4095.0,4095.0,2660.0,2842.0,9.45,2.71,3.9,-0.07,0.04,-0.11,0.0,h
3288.0,2930.0,2866.0,4095.0,4095.0,4095.0,2663.0,2851.0,9.72,2.67,3.67,0.01,-0.0,-0.14,0.0,h
3291.0,2943.0,2865.0,4095.0,4095.0,4095.0,2665.0,2858.0,9.44,2.66,3.59,-0.1,0.0,-0.1,0.0,h
3298.0,2939.0,2867.0,4095.0,4095.0,4095.0,2672.0,2860.0,9.92,2.67,3.77,0.02,-0.04,-0.16,0.0,h
3287.0,2941.0,2869.0,4095.0,4095.0,4095.0,2672.0,2864.0,9.61,2.59,3.75,-0.06,-0.05,-0.17,0.0,h
3283.0,2931.0,2868.0,4095.0,4095.0,4095.0,2665.0,2859.0,9.62,2.65,3.73,-0.02,0.03,-0.13,0.0,h
3280.0,2941.0,2870.0,4095.0,4095.0,4095.0,2668.0,2864.0,9.85,2.56,3.77,-0.08,-0.08,-0.14,0.0,h
3281.0,2943.0,2876.0,4095.0,4095.0,4095.0,2674.0,2863.0,9.71,2.56,3.73,0.01,0.06,-0.13,0.0,h
3279.0,2938.0,2869.0,4095.0,4095.0,4095.0,2675.0,2862.0,9.62,2.6,3.71,-0.02,-0.02,-0.15,0.0,h
3278.0,2929.0,2869.0,4095.0,4095.0,4095.0,2675.0,2851.0,9.49,2.56,3.83,-0.01,-0.03,-0.13,0.0,h
3293.0,2931.0,2875.0,4095.0,4095.0,4095.0,2678.0,2864.0,9.83,2.49,3.65,0.01,-0.01,-0.14,0.0,h
3286.0,2944.0,2865.0,4095.0,4095.0,4095.0,2674.0,2839.0,9.82,2.51,3.47,-0.01,-0.08,-0.17,0.0,h
3271.0,2933.0,2869.0,4095.0,4095.0,4095.0,2665.0,2833.0,9.77,2.47,3.63,-0.01,-0.01,-0.18,0.0,h
3290.0,2934.0,2862.0,4095.0,4095.0,4095.0,2672.0,2832.0,9.85,2.53,3.71,-0.03,-0.06,-0.19,0.0,h
3270.0,2943.0,2864.0,4095.0,4095.0,4095.0,2672.0,2832.0,9.6,2.63,3.92,0.04,-0.01,-0.19,0.0,h
3279.0,2943.0,2870.0,4095.0,4095.0,4095.0,2678.0,2827.0,9.57,2.64,3.75,-0.05,-0.03,-0.15,0.0,h
3270.0,2946.0,2869.0,4095.0,4095.0,4095.0,2686.0,2831.0,9.49,2.77,3.75,0.03,-0.01,-0.16,0.0,h
3280.0,2943.0,2873.0,4095.0,4095.0,4095.0,2694.0,2832.0,9.62,2.6,3.68,0.01,0.01,-0.14,0.0,h
3231.0,2982.0,3055.0,4095.0,4095.0,3997.0,2750.0,2320.0,9.71,2.71,3.49,0.03,0.04,-0.14,0.0,h
3233.0,2981.0,3056.0,4095.0,4095.0,3986.0,2752.0,2333.0,9.68,2.8,3.61,-0.04,-0.01,-0.17,0.0,h
3227.0,2991.0,3056.0,4095.0,4095.0,3997.0,2752.0,2326.0,9.57,2.68,3.75,-0.03,0.02,-0.14,0.0,h
3232.0,2992.0,3057.0,4095.0,4095.0,4009.0,2752.0,2323.0,9.63,2.69,3.85,0.02,-0.0,-0.16,0.0,h
3230.0,2980.0,3054.0,4095.0,4095.0,4017.0,2759.0,2343.0,9.58,2.78,3.55,-0.04,-0.03,-0.18,0.0,h
3227.0,2983.0,3056.0,4095.0,4095.0,4015.0,2758.0,2351.0,9.85,2.76,3.58,-0.0,-0.05,-0.17,0.0,h
3247.0,2982.0,3057.0,4095.0,4095.0,4066.0,2750.0,2352.0,9.63,2.77,3.65,-0.06,-0.02,-0.16,0.0,h
3232.0,2983.0,3061.0,4095.0,4095.0,4082.0,2767.0,2354.0,9.65,2.71,3.64,0.01,-0.0,-0.12,0.0,h
3235.0,2986.0,3063.0,4095.0,4095.0,4067.0,2767.0,2370.0,9.71,2.69,3.63,-0.01,0.01,-0.15,0.0,h
3231.0,2979.0,3058.0,4095.0,4095.0,4070.0,2779.0,2353.0,9.78,2.66,3.71,0.02,0.02,-0.15,0.0,h
3235.0,2980.0,3058.0,4095.0,4095.0,4054.0,2766.0,2352.0,9.67,2.68,3.73,0.01,-0.02,-0.17,0.0,h
3242.0,2990.0,3055.0,4095.0,4095.0,4062.0,2766.0,2352.0,9.58,2.71,3.8,0.03,0.04,-0.15,0.0,h
3236.0,2989.0,3066.0,4095.0,4095.0,4060.0,2769.0,2357.0,9.67,2.82,3.62,-0.05,-0.02,-0.2,0.0,h
3242.0,2992.0,3059.0,4095.0,4095.0,4095.0,2779.0,2373.0,9.47,2.87,3.58,-0.04,0.04,-0.2,0.0,h
3228.0,2983.0,3052.0,4095.0,4095.0,4061.0,2782.0,2359.0,9.66,2.77,3.73,0.01,0.01,-0.13,0.0,h
3239.0,2990.0,3069.0,4095.0,4095.0,4063.0,2781.0,2365.0,9.76,2.72,3.7,0.02,0.0,-0.15,0.0,h
3230.0,2991.0,3088.0,4095.0,4095.0,4095.0,2784.0,2357.0,9.7,2.74,3.79,0.04,0.04,-0.15,0.0,h
3239.0,2991.0,3086.0,4095.0,4095.0,4053.0,2782.0,2359.0,9.68,2.76,3.76,0.03,0.05,-0.16,0.0,h
3241.0,2999.0,3089.0,4095.0,4095.0,4031.0,2775.0,2337.0,9.75,2.75,3.67,0.0,0.06,-0.19,0.0,h
3235.0,2993.0,3127.0,4095.0,4095.0,3977.0,2758.0,2309.0,9.35,2.89,3.88,-0.01,0.09,-0.22,0.0,h
3263.0,2949.0,2891.0,4095.0,4095.0,4095.0,2547.0,2626.0,9.73,2.79,3.86,0.05,0.01,-0.14,0.0,h
3277.0,2949.0,2897.0,4095.0,4095.0,4095.0,2558.0,2620.0,9.63,2.93,3.76,0.01,-0.0,-0.14,0.0,h
3266.0,2943.0,2890.0,4095.0,4095.0,4095.0,2559.0,2617.0,9.54,2.94,3.86,0.03,0.07,-0.12,0.0,h
3262.0,2947.0,2890.0,4095.0,4095.0,4095.0,2558.0,2615.0,9.6,2.97,3.9,-0.0,-0.01,-0.15,0.0,h
3267.0,2945.0,2886.0,4095.0,4095.0,4095.0,2555.0,2623.0,9.54,2.82,4.0,0.06,0.01,-0.15,0.0,h
3271.0,2949.0,2890.0,4095.0,4095.0,4095.0,2554.0,2628.0,9.56,2.88,3.83,-0.0,-0.05,-0.15,0.0,h
3264.0,2942.0,2896.0,4095.0,4095.0,4095.0,2557.0,2628.0,9.71,2.85,3.83,0.06,-0.0,-0.1,0.0,h
3258.0,2942.0,2891.0,4095.0,4095.0,4095.0,2551.0,2625.0,9.71,2.86,3.65,0.03,-0.02,-0.15,0.0,h
3265.0,2958.0,2893.0,4095.0,4095.0,4095.0,2551.0,2627.0,9.63,2.75,3.75,0.04,0.02,-0.16,0.0,h
3267.0,2942.0,2887.0,4095.0,4095.0,4095.0,2550.0,2630.0,9.47,2.89,3.77,-0.0,-0.07,-0.15,0.0,h
3275.0,2949.0,2896.0,4095.0,4095.0,4095.0,2557.0,2638.0,9.51,3.16,3.71,0.03,-0.06,-0.13,0.0,h
3262.0,2947.0,2899.0,4095.0,4095.0,4095.0,2559.0,2630.0,9.6,2.94,3.66,0.04,-0.03,-0.11,0.0,h
3274.0,2953.0,2890.0,4095.0,4095.0,4095.0,2559.0,2640.0,9.82,2.71,3.76,-0.01,-0.02,-0.12,0.0,h
3277.0,2950.0,2896.0,4095.0,4095.0,4095.0,2559.0,2640.0,9.94,2.73,3.8,-0.04,0.03,-0.12,0.0,h
3268.0,2949.0,2898.0,4095.0,4095.0,4095.0,2559.0,2645.0,9.68,2.64,3.97,0.0,0.03,-0.13,0.0,h
3267.0,2949.0,2892.0,4095.0,4095.0,4095.0,2559.0,2642.0,9.54,2.73,3.89,-0.0,-0.03,-0.09,0.0,h
3271.0,2944.0,2899.0,4095.0,4095.0,4095.0,2559.0,2645.0,9.62,2.89,3.73,-0.0,-0.06,-0.15,0.0,h
3278.0,2950.0,2893.0,4095.0,4095.0,4095.0,2559.0,2649.0,9.56,2.83,3.63,-0.07,-0.01,-0.12,0.0,h
3270.0,2949.0,2883.0,4095.0,4095.0,4095.0,2559.0,2654.0,9.74,2.75,3.79,0.05,-0.03,-0.13,0.0,h
3267.0,2943.0,2891.0,4095.0,4095.0,4095.0,2559.0,2647.0,9.68,2.66,3.83,-0.03,-0.05,-0.13,0.0,h
3198.0,3029.0,2865.0,3937.0,4095.0,4095.0,2672.0,2590.0,9.51,3.02,3.42,-0.36,-0.11,0.0,0.0,h
3184.0,3043.0,2871.0,3920.0,4095.0,4095.0,2670.0,2589.0,9.11,3.3,3.25,-0.31,-0.14,-0.06,0.0,h
3185.0,3033.0,2869.0,3965.0,4095.0,4095.0,2670.0,2591.0,9.84,2.98,3.41,-0.15,-0.23,-0.22,0.0,h
3189.0,3055.0,2876.0,3969.0,4095.0,4095.0,2678.0,2593.0,9.01,3.21,3.4,-0.16,-0.05,-0.14,0.0,h
3188.0,3065.0,2871.0,3974.0,4095.0,4095.0,2670.0,2597.0,9.83,3.2,3.27,0.05,0.06,-0.11,0.0,h
3185.0,3088.0,2869.0,3987.0,4095.0,4095.0,2672.0,2602.0,9.49,3.17,3.37,-0.04,-0.02,-0.13,0.0,h
3194.0,3103.0,2876.0,4001.0,4095.0,4095.0,2678.0,2602.0,9.38,3.21,3.34,-0.05,0.02,-0.11,0.0,h
3185.0,3095.0,2879.0,4016.0,4095.0,4095.0,2675.0,2594.0,9.59,3.11,3.34,0.02,0.02,-0.09,0.0,h
3196.0,3094.0,2869.0,4038.0,4095.0,4095.0,2682.0,2605.0,9.68,3.15,3.18,-0.01,-0.05,-0.13,0.0,h
3201.0,3103.0,2869.0,4007.0,4095.0,4095.0,2675.0,2602.0,9.44,3.13,3.2,-0.03,0.05,-0.08,0.0,h
3193.0,3099.0,2870.0,4007.0,4095.0,4095.0,2672.0,2605.0,9.57,3.07,3.4,-0.01,-0.0,-0.15,0.0,h
3187.0,3105.0,2871.0,4043.0,4095.0,4095.0,2681.0,2608.0,9.5,3.09,3.37,-0.04,0.04,-0.14,0.0,h
3185.0,3090.0,2869.0,4023.0,4095.0,4095.0,2675.0,2606.0,9.58,3.05,3.6,0.01,-0.02,-0.17,0.0,h
3184.0,3098.0,2877.0,4047.0,4095.0,4095.0,2675.0,2612.0,9.51,3.1,3.3,0.02,-0.0,-0.15,0.0,h
3197.0,3094.0,2874.0,4042.0,4095.0,4095.0,2684.0,2619.0,9.56,3.08,3.34,0.02,-0.01,-0.14,0.0,h
3191.0,3095.0,2877.0,4064.0,4095.0,4095.0,2686.0,2609.0,9.48,3.07,3.28,-0.04,0.02,-0.12,0.0,h
3195.0,3088.0,2874.0,4073.0,4095.0,4095.0,2687.0,2611.0,9.55,3.1,3.28,-0.07,-0.05,-0.12,0.0,h
3197.0,3093.0,2881.0,4085.0,4095.0,4095.0,2689.0,2614.0,9.45,3.06,3.49,-0.02,0.04,-0.12,0.0,h
3190.0,3092.0,2864.0,4090.0,4095.0,4095.0,2685.0,2614.0,9.61,3.0,3.36,0.02,-0.02,-0.14,0.0,h
3201.0,3088.0,2864.0,4093.0,4095.0,4095.0,2687.0,2609.0,9.57,3.03,3.39,0.02,-0.02,-0.14,0.0,h
4095.0,2926.0,923.0,3915.0,4095.0,4095.0,2704.0,2510.0,9.5,3.19,2.74,0.03,-0.04,-0.14,0.0,h
4095.0,2914.0,919.0,3926.0,4095.0,4095.0,2699.0,2507.0,9.4,3.11,2.7,-0.06,0.0,-0.19,0.0,h
4095.0,2919.0,922.0,3920.0,4095.0,4095.0,2699.0,2507.0,9.25,3.11,2.79,0.03,-0.02,-0.12,0.0,h
4095.0,2915.0,923.0,3915.0,4095.0,4095.0,2697.0,2505.0,9.38,3.07,2.8,-0.0,-0.01,-0.13,0.0,h
4095.0,2911.0,913.0,3911.0,4095.0,4095.0,2701.0,2509.0,9.55,2.98,2.6,0.06,-0.05,-0.12,0.0,h
4095.0,2927.0,923.0,3933.0,4095.0,4095.0,2704.0,2507.0,9.58,3.05,2.62,0.05,-0.05,-0.16,0.0,h
4095.0,2907.0,914.0,3926.0,4095.0,4095.0,2701.0,2512.0,9.73,3.01,2.37,0.12,0.04,-0.16,0.0,h
4095.0,2912.0,927.0,3941.0,4095.0,4095.0,2691.0,2501.0,9.58,3.26,2.44,-0.0,-0.03,-0.19,0.0,h
4095.0,2924.0,925.0,3929.0,4095.0,4095.0,2705.0,2511.0,9.59,3.11,2.66,0.03,0.03,-0.2,0.0,h
4095.0,2914.0,923.0,3925.0,4095.0,4095.0,2703.0,2510.0,9.31,3.15,2.7,0.05,0.04,-0.2,0.0,h
4095.0,2921.0,919.0,3936.0,4095.0,4095.0,2683.0,2507.0,9.67,3.06,2.8,0.06,0.08,-0.17,0.0,h
4095.0,2914.0,918.0,3947.0,4095.0,4095.0,2690.0,2512.0,9.39,3.05,2.79,-0.07,0.02,-0.23,0.0,h
4095.0,2913.0,918.0,3933.0,4095.0,4095.0,2698.0,2511.0,9.17,3.09,2.98,0.09,0.03,-0.19,0.0,h
4095.0,2920.0,915.0,3954.0,4095.0,4095.0,2698.0,2516.0,9.04,3.34,2.67,0.05,0.0,-0.2,0.0,h
4095.0,2921.0,923.0,3950.0,4095.0,4095.0,2699.0,2515.0,9.25,3.31,2.69,0.11,0.03,-0.13,0.0,h
4095.0,2916.0,923.0,3938.0,4095.0,4095.0,2687.0,2514.0,9.62,3.29,2.58,0.03,-0.01,-0.14,0.0,h
4095.0,2912.0,924.0,3952.0,4095.0,4095.0,2704.0,2523.0,9.8,3.23,2.52,0.01,0.07,-0.19,0.0,h
4095.0,2922.0,919.0,3951.0,4095.0,4095.0,2699.0,2522.0,9.23,3.11,2.96,-0.08,0.02,-0.2,0.0,h
4095.0,2915.0,923.0,3941.0,4095.0,4095.0,2699.0,2515.0,9.0,3.21,2.53,-0.01,0.16,-0.08,0.0,h
4095.0,2917.0,913.0,3942.0,4095.0,4095.0,2689.0,2500.0,9.68,3.34,2.48,-0.3,0.1,0.03,0.0,h
4095.0,2911.0,944.0,4095.0,4095.0,4095.0,2718.0,2419.0,9.36,3.18,3.37,0.06,0.02,-0.14,0.0,h
4095.0,2913.0,944.0,4095.0,4095.0,4095.0,2722.0,2405.0,9.14,3.14,3.31,0.26,0.27,-0.04,0.0,h
4095.0,2917.0,943.0,4095.0,4095.0,4095.0,2717.0,2398.0,9.52,3.19,3.02,0.08,-0.07,-0.1,0.0,h
4095.0,2911.0,939.0,4095.0,4095.0,4095.0,2719.0,2403.0,9.96,3.06,2.91,0.11,0.06,-0.08,0.0,h
4095.0,2921.0,941.0,4095.0,4095.0,4095.0,2727.0,2405.0,9.87,3.22,2.96,-0.08,-0.04,-0.17,0.0,h
4095.0,2917.0,940.0,4095.0,4095.0,4095.0,2731.0,2403.0,9.65,3.19,3.3,0.01,0.16,-0.14,0.0,h
4095.0,2915.0,936.0,4095.0,4095.0,4095.0,2730.0,2407.0,9.17,3.05,3.54,0.19,0.41,-0.07,0.0,h
4095.0,2910.0,939.0,4095.0,4095.0,4095.0,2726.0,2402.0,9.5,2.93,3.63,0.14,0.25,-0.09,0.0,h
4095.0,2911.0,939.0,4095.0,4095.0,4095.0,2721.0,2404.0,9.67,2.95,3.57,0.04,0.08,-0.16,0.0,h
4095.0,2919.0,941.0,4095.0,4095.0,4095.0,2732.0,2405.0,9.57,2.89,3.57,0.0,0.08,-0.17,0.0,h
4095.0,2911.0,941.0,4095.0,4095.0,4095.0,2723.0,2400.0,9.76,3.03,3.9,-0.08,-0.02,-0.19,0.0,h
4095.0,2925.0,941.0,4095.0,4095.0,4095.0,2735.0,2415.0,9.53,3.13,3.81,-0.02,-0.0,-0.23,0.0,h
4095.0,2915.0,944.0,4095.0,4095.0,4095.0,2734.0,2412.0,9.34,3.11,3.9,-0.06,-0.06,-0.21,0.0,h
4095.0,2918.0,944.0,4095.0,4095.0,4095.0,2732.0,2393.0,9.46,3.02,4.0,0.14,0.08,-0.15,0.0,h
4095.0,2917.0,945.0,4095.0,4095.0,4095.0,2721.0,2384.0,9.5,2.99,4.01,0.32,0.14,-0.18,0.0,h
4095.0,2918.0,950.0,4095.0,4095.0,4095.0,2723.0,2386.0,9.56,3.23,3.55,0.17,-0.01,-0.19,0.0,h
4095.0,2915.0,944.0,4095.0,4095.0,4095.0,2727.0,2374.0,9.7,3.23,3.62,0.06,-0.04,-0.18,0.0,h
4095.0,2923.0,944.0,4095.0,4095.0,4095.0,2727.0,2357.0,9.52,3.35,3.72,0.08,0.13,-0.19,0.0,h
4095.0,2917.0,942.0,4095.0,4095.0,4095.0,2722.0,2341.0,9.35,2.96,4.29,0.14,0.09,-0.07,0.0,h
4095.0,2925.0,946.0,4095.0,4095.0,3999.0,2721.0,2304.0,9.48,3.25,3.66,0.69,0.49,-0.22,0.0,h
4095.0,2962.0,2868.0,3985.0,4095.0,3605.0,2786.0,2665.0,9.44,3.31,3.75,0.11,0.07,-0.1,0.0,h
4095.0,2962.0,2868.0,3985.0,4095.0,3605.0,2786.0,2665.0,9.44,3.31,3.75,0.11,0.07,-0.1,0.0,h
4095.0,2963.0,2879.0,4001.0,4095.0,3617.0,2802.0,2661.0,9.63,3.28,3.8,0.12,0.05,-0.13,0.0,h
4095.0,2962.0,2876.0,3998.0,4095.0,3630.0,2815.0,2647.0,9.49,3.36,3.64,0.08,0.2,-0.11,0.0,h
4095.0,2969.0,2882.0,4003.0,4095.0,3644.0,2845.0,2666.0,9.71,3.21,3.68,0.02,0.01,-0.16,0.0,h
4095.0,2955.0,2878.0,3999.0,4095.0,3634.0,2845.0,2658.0,9.35,3.33,4.06,-0.04,0.03,-0.22,0.0,h
4095.0,2960.0,2880.0,3999.0,4095.0,3639.0,2850.0,2657.0,9.25,3.27,4.11,-0.05,-0.12,-0.2,0.0,h
4095.0,2960.0,2873.0,3994.0,4095.0,3635.0,2838.0,2642.0,9.3,3.38,3.94,-0.03,-0.12,-0.13,0.0,h
4095.0,2949.0,2880.0,3991.0,4095.0,3600.0,2834.0,2634.0,9.78,3.26,3.8,-0.02,-0.17,-0.18,0.0,h
4095.0,2965.0,2883.0,4001.0,4095.0,3606.0,2830.0,2623.0,9.54,3.23,3.78,0.03,0.01,-0.15,0.0,h
4095.0,2955.0,2873.0,3980.0,4095.0,3583.0,2818.0,2614.0,9.8,3.16,3.59,0.04,-0.02,-0.17,0.0,h
4095.0,2959.0,2884.0,4016.0,4095.0,3583.0,2825.0,2619.0,9.62,3.39,3.77,0.04,-0.03,-0.21,0.0,h
4095.0,2963.0,2881.0,4007.0,4095.0,3603.0,2829.0,2624.0,9.14,3.35,3.89,-0.01,-0.11,-0.19,0.0,h
4095.0,2966.0,2880.0,4015.0,4095.0,3606.0,2832.0,2624.0,9.25,3.34,3.85,0.09,-0.03,-0.13,0.0,h
4095.0,2966.0,2880.0,4048.0,4095.0,3613.0,2826.0,2624.0,9.7,3.26,3.39,0.02,-0.05,-0.15,0.0,h
4095.0,2967.0,2873.0,4012.0,4095.0,3612.0,2821.0,2618.0,9.59,3.32,3.47,0.02,-0.0,-0.14,0.0,h
4095.0,2962.0,2873.0,4001.0,4095.0,3606.0,2828.0,2624.0,9.54,3.43,3.28,-0.02,0.01,-0.17,0.0,h
4095.0,2960.0,2879.0,4016.0,4095.0,3610.0,2830.0,2621.0,9.66,3.29,3.5,-0.11,-0.13,-0.19,0.0,h
4095.0,2961.0,2865.0,4013.0,4095.0,3620.0,2822.0,2625.0,9.49,3.3,3.8,-0.0,0.07,-0.19,0.0,h
4095.0,2970.0,2892.0,4010.0,4095.0,3646.0,2828.0,2631.0,9.32,3.34,3.98,-0.08,-0.02,-0.21,0.0,h
4095.0,2949.0,2910.0,4095.0,4095.0,4095.0,2645.0,2531.0,9.54,2.67,4.05,0.07,-0.02,-0.17,0.0,h
4095.0,2941.0,2903.0,4095.0,4095.0,4095.0,2643.0,2537.0,9.69,2.65,3.96,0.02,-0.02,-0.15,0.0,h
4095.0,2946.0,2909.0,4095.0,4095.0,4095.0,2649.0,2533.0,9.64,2.63,3.93,0.05,-0.06,-0.14,0.0,h
4095.0,2951.0,2910.0,4095.0,4095.0,4095.0,2654.0,2537.0,9.84,2.54,3.71,0.02,-0.01,-0.15,0.0,h
4095.0,2948.0,2909.0,4095.0,4095.0,4095.0,2651.0,2537.0,9.83,2.58,3.74,0.05,-0.05,-0.18,0.0,h
4095.0,2946.0,2909.0,4095.0,4095.0,4095.0,2649.0,2530.0,9.69,2.59,3.73,0.03,-0.05,-0.18,0.0,h
4095.0,2957.0,2917.0,4095.0,4095.0,4095.0,2651.0,2532.0,9.67,2.57,3.83,0.08,-0.03,-0.17,0.0,h
4095.0,2951.0,2910.0,4095.0,4095.0,4095.0,2657.0,2534.0,9.75,2.64,3.74,0.08,-0.01,-0.2,0.0,h
4095.0,2948.0,2917.0,4095.0,4095.0,4095.0,2655.0,2538.0,9.65,2.71,3.58,0.06,-0.04,-0.19,0.0,h
4095.0,2949.0,2919.0,4095.0,4095.0,4095.0,2654.0,2532.0,9.65,2.74,3.57,0.06,0.0,-0.17,0.0,h
4095.0,2954.0,2915.0,4095.0,4095.0,4095.0,2660.0,2538.0,9.67,2.77,3.52,0.06,-0.02,-0.2,0.0,h
4095.0,2943.0,2915.0,4095.0,4095.0,4095.0,2655.0,2531.0,9.56,2.79,3.5,0.06,0.01,-0.17,0.0,h
4095.0,2951.0,2918.0,4095.0,4095.0,4095.0,2665.0,2544.0,9.67,2.74,3.69,0.08,-0.01,-0.19,0.0,h
4095.0,2955.0,2919.0,4095.0,4095.0,4095.0,2656.0,2526.0,9.37,2.78,3.8,0.03,0.1,-0.16,0.0,h
4095.0,2949.0,2913.0,4095.0,4095.0,4095.0,2655.0,2530.0,9.7,2.63,3.8,0.05,-0.09,-0.11,0.0,h
4095.0,2950.0,2906.0,4095.0,4095.0,4095.0,2647.0,2526.0,9.79,2.76,3.56,0.05,0.05,-0.12,0.0,h
4095.0,2950.0,2921.0,4095.0,4095.0,4095.0,2662.0,2535.0,9.85,2.68,3.54,0.01,-0.05,-0.14,0.0,h
4095.0,2945.0,2918.0,4095.0,4095.0,4095.0,2653.0,2509.0,9.52,2.74,3.58,0.01,0.04,-0.15,0.0,h
4095.0,2946.0,2907.0,4095.0,4095.0,4095.0,2670.0,2509.0,9.86,2.62,3.67,-0.0,-0.0,-0.14,0.0,h
4095.0,2945.0,2919.0,4095.0,4095.0,4095.0,2651.0,2507.0,9.58,2.74,3.74,0.01,0.02,-0.16,0.0,h
4026.0,2929.0,2287.0,4095.0,4095.0,4095.0,2863.0,2434.0,10.14,2.27,4.05,-0.08,-0.13,-0.12,0.0,h
4038.0,2932.0,2277.0,4095.0,4095.0,4095.0,2865.0,2427.0,9.99,2.53,4.29,-0.02,-0.06,-0.17,0.0,h
4041.0,2931.0,2282.0,4095.0,4095.0,4095.0,2865.0,2429.0,9.7,2.55,4.21,0.04,0.02,-0.19,0.0,h
4019.0,2929.0,2275.0,4095.0,4095.0,4095.0,2861.0,2425.0,9.53,2.58,4.01,0.07,0.03,-0.18,0.0,h
4032.0,2928.0,2279.0,4095.0,4095.0,4095.0,2862.0,2423.0,9.64,2.75,3.89,-0.08,-0.1,-0.2,0.0,h
4016.0,2933.0,2270.0,4095.0,4095.0,4095.0,2859.0,2418.0,9.61,2.64,4.29,-0.07,0.01,-0.14,0.0,h
4030.0,2928.0,2128.0,4095.0,4095.0,4095.0,2851.0,2400.0,9.43,2.6,4.53,0.02,-0.01,-0.15,0.0,h
4004.0,2935.0,1895.0,4095.0,4095.0,4095.0,2850.0,2378.0,9.74,2.46,4.3,-0.0,0.02,-0.02,0.0,h
4007.0,2940.0,1852.0,4095.0,4095.0,4047.0,2850.0,2391.0,9.86,2.5,4.18,0.14,-0.08,-0.05,0.0,h
3981.0,2944.0,2012.0,4095.0,4095.0,3935.0,2842.0,2368.0,9.7,2.45,3.92,0.06,-0.17,0.03,0.0,h
3985.0,2938.0,2005.0,4095.0,4095.0,3889.0,2832.0,2285.0,10.12,2.25,3.43,-0.1,-0.11,0.16,0.0,h
3999.0,2938.0,1601.0,4095.0,4095.0,3888.0,2802.0,2240.0,10.24,2.39,3.71,-0.21,-0.11,-0.07,0.0,h
3995.0,2943.0,1520.0,4095.0,4095.0,3899.0,2805.0,2228.0,10.27,2.07,3.73,-0.23,-0.08,-0.13,0.0,h
3993.0,2942.0,2413.0,4095.0,4095.0,3901.0,2799.0,2215.0,9.77,2.12,4.12,-0.07,0.01,-0.11,0.0,h
4016.0,2941.0,2919.0,4095.0,4095.0,3921.0,2796.0,2179.0,10.04,2.24,4.21,0.04,0.03,-0.19,0.0,h
4039.0,2942.0,2909.0,4095.0,4095.0,3918.0,2770.0,2173.0,9.99,2.15,3.83,-0.02,-0.23,-0.25,0.0,h
4095.0,2949.0,2880.0,4095.0,4095.0,3907.0,2784.0,2198.0,9.49,2.43,3.97,0.28,0.05,-0.23,0.0,h
4095.0,2943.0,2553.0,4095.0,4095.0,3870.0,2781.0,2226.0,9.97,2.22,3.95,0.14,0.1,-0.3,0.0,h
4095.0,2959.0,2718.0,4095.0,4095.0,3644.0,2755.0,2195.0,9.84,2.35,3.49,0.29,0.31,-0.11,0.0,h
4095.0,2965.0,2767.0,4095.0,4095.0,3467.0,2736.0,2206.0,9.62,2.68,3.89,0.08,0.21,-0.07,0.0,h
4095.0,2939.0,2923.0,4095.0,4095.0,4095.0,2843.0,2394.0,9.73,2.18,3.85,0.18,-0.0,-0.17,0.0,h
4095.0,2939.0,2923.0,4095.0,4095.0,4095.0,2843.0,2394.0,9.73,2.18,3.85,0.18,-0.0,-0.17,0.0,h
4095.0,2944.0,2911.0,4095.0,4095.0,4095.0,2856.0,2395.0,9.85,2.28,3.88,-0.01,-0.08,-0.15,0.0,h
4095.0,2945.0,2916.0,4095.0,4095.0,4095.0,2858.0,2398.0,9.93,2.14,3.88,0.04,0.01,-0.16,0.0,h
4095.0,2939.0,2914.0,4095.0,4095.0,4095.0,2858.0,2401.0,9.71,2.19,3.8,0.05,0.0,-0.14,0.0,h
4095.0,2938.0,2912.0,4095.0,4095.0,4095.0,2854.0,2393.0,9.93,2.18,3.8,0.05,0.01,-0.16,0.0,h
4095.0,2944.0,2912.0,4095.0,4095.0,4095.0,2859.0,2399.0,9.83,2.29,3.83,0.06,-0.04,-0.21,0.0,h
4095.0,2946.0,2922.0,4095.0,4095.0,4095.0,2863.0,2401.0,9.72,2.24,3.8,0.08,0.02,-0.18,0.0,h
4095.0,2944.0,2914.0,4095.0,4095.0,4095.0,2864.0,2399.0,9.73,2.37,3.68,0.05,-0.05,-0.19,0.0,h
4095.0,2939.0,2914.0,4095.0,4095.0,4095.0,2850.0,2402.0,9.62,2.38,3.87,0.06,0.01,-0.18,0.0,h
4095.0,2931.0,2917.0,4095.0,4095.0,4095.0,2862.0,2400.0,9.72,2.38,3.68,-0.02,-0.03,-0.15,0.0,h
4095.0,2932.0,2913.0,4095.0,4095.0,4095.0,2863.0,2403.0,9.81,2.35,3.81,0.05,0.07,-0.12,0.0,h
4095.0,2927.0,2911.0,4095.0,4095.0,4095.0,2864.0,2406.0,9.95,2.25,3.62,-0.11,0.17,-0.07,0.0,h
4090.0,2934.0,2926.0,4095.0,4095.0,4095.0,2864.0,2412.0,9.8,2.37,4.02,0.08,0.12,-0.15,0.0,h
4066.0,2928.0,2926.0,4095.0,4095.0,4095.0,2865.0,2407.0,9.79,2.1,4.06,-0.07,-0.08,-0.17,0.0,h
4065.0,2925.0,2922.0,4095.0,4095.0,4095.0,2878.0,2413.0,9.74,2.27,4.06,0.07,0.06,-0.12,0.0,h
4058.0,2927.0,2921.0,4095.0,4095.0,4095.0,2866.0,2410.0,9.76,2.21,3.98,0.0,-0.09,-0.17,0.0,h
4051.0,2928.0,2928.0,4095.0,4095.0,4095.0,2865.0,2415.0,9.87,2.28,3.86,0.04,0.02,-0.13,0.0,h
4063.0,2928.0,2928.0,4095.0,4095.0,4095.0,2869.0,2415.0,10.0,2.2,3.84,0.01,-0.06,-0.15,0.0,h
4075.0,2939.0,2929.0,4095.0,4095.0,4095.0,2875.0,2416.0,9.84,2.29,3.92,0.01,0.02,-0.16,0.0,h
4095.0,2921.0,1007.0,4095.0,4095.0,4095.0,2800.0,2335.0,9.71,2.43,3.99,0.06,0.01,-0.14,0.0,h
4087.0,2921.0,1010.0,4095.0,4095.0,4095.0,2800.0,2327.0,9.77,2.47,3.62,0.01,-0.03,-0.14,0.0,h
4095.0,2930.0,1008.0,4095.0,4095.0,4095.0,2813.0,2345.0,9.76,2.5,3.79,0.06,0.0,-0.16,0.0,h
4095.0,2918.0,1011.0,4095.0,4095.0,4095.0,2811.0,2352.0,9.78,2.47,3.81,0.02,0.01,-0.14,0.0,h
4095.0,2927.0,1008.0,4095.0,4095.0,4095.0,2810.0,2353.0,9.74,2.49,3.94,0.07,0.0,-0.16,0.0,h
4095.0,2928.0,1006.0,4095.0,4095.0,4095.0,2815.0,2363.0,9.75,2.51,3.83,0.02,-0.02,-0.16,0.0,h
4095.0,2922.0,1007.0,4095.0,4095.0,4095.0,2807.0,2365.0,9.68,2.54,3.72,0.06,0.0,-0.14,0.0,h
4095.0,2926.0,1008.0,4095.0,4095.0,4095.0,2810.0,2358.0,9.72,2.44,3.62,0.0,0.0,-0.11,0.0,h
4095.0,2929.0,1008.0,4095.0,4095.0,4095.0,2816.0,2368.0,9.85,2.43,3.84,0.01,0.0,-0.14,0.0,h
4095.0,2922.0,1006.0,4095.0,4095.0,4095.0,2813.0,2364.0,9.82,2.35,3.74,0.03,0.0,-0.16,0.0,h
4095.0,2924.0,1008.0,4095.0,4095.0,4095.0,2817.0,2372.0,9.79,2.39,3.89,0.05,0.02,-0.16,0.0,h
4080.0,2915.0,1009.0,4095.0,4095.0,4095.0,2810.0,2368.0,9.83,2.53,3.83,0.06,-0.07,-0.19,0.0,h
4095.0,2919.0,1009.0,4095.0,4095.0,4095.0,2809.0,2374.0,9.67,2.42,3.74,0.06,0.05,-0.16,0.0,h
4095.0,2923.0,1008.0,4095.0,4095.0,4095.0,2814.0,2375.0,9.81,2.47,3.73,0.02,-0.04,-0.18,0.0,h
4090.0,2916.0,1008.0,4095.0,4095.0,4095.0,2805.0,2373.0,9.63,2.5,3.93,-0.01,0.04,-0.17,0.0,h
4094.0,2916.0,1012.0,4095.0,4095.0,4095.0,2811.0,2373.0,9.65,2.57,3.76,0.05,0.02,-0.14,0.0,h
4085.0,2918.0,1036.0,4095.0,4095.0,4095.0,2815.0,2371.0,9.66,2.52,3.78,-0.04,-0.04,-0.14,0.0,h
4095.0,2918.0,1023.0,4095.0,4095.0,4095.0,2800.0,2355.0,9.73,2.56,3.62,-0.02,0.04,-0.13,0.0,h
4095.0,2928.0,976.0,4095.0,4095.0,4095.0,2799.0,2306.0,9.75,2.4,3.84,-0.03,-0.03,-0.13,0.0,h
4095.0,2931.0,2443.0,4095.0,4095.0,4095.0,2797.0,2233.0,9.6,2.4,3.76,0.08,0.03,-0.02,0.0,h
4095.0,2953.0,2935.0,4095.0,4095.0,3968.0,2839.0,2400.0,9.74,2.51,3.91,0.02,0.02,-0.15,0.0,h
4095.0,2946.0,2934.0,4095.0,4095.0,3971.0,2843.0,2411.0,9.73,2.58,3.85,0.05,-0.0,-0.17,0.0,h
4095.0,2945.0,2931.0,4095.0,4095.0,3963.0,2839.0,2400.0,9.67,2.58,3.84,0.0,0.01,-0.18,0.0,h
4095.0,2960.0,2935.0,4095.0,4095.0,3977.0,2837.0,2416.0,9.74,2.55,3.85,0.06,-0.01,-0.16,0.0,h
4095.0,2955.0,2918.0,4095.0,4095.0,3927.0,2835.0,2413.0,9.88,2.63,3.69,-0.01,0.03,-0.16,0.0,h
4095.0,2961.0,2881.0,4095.0,4095.0,3920.0,2849.0,2446.0,9.72,2.59,3.84,0.0,0.08,-0.14,0.0,h
4095.0,2971.0,2863.0,4095.0,4095.0,3910.0,2864.0,2470.0,9.89,2.38,3.84,0.02,0.02,-0.11,0.0,h
4095.0,2973.0,2682.0,4095.0,4095.0,3918.0,2896.0,2368.0,10.01,2.31,3.58,0.05,0.1,-0.06,0.0,h
4095.0,2964.0,2471.0,4095.0,4095.0,3920.0,2902.0,2286.0,9.61,2.46,3.81,-0.17,0.02,-0.08,0.0,h
4095.0,2967.0,2767.0,4095.0,4095.0,3977.0,2910.0,2294.0,10.09,2.24,4.34,-0.17,-0.08,0.06,0.0,h
4095.0,2970.0,2835.0,4095.0,4095.0,3983.0,2912.0,2307.0,9.89,2.4,4.36,0.1,0.23,-0.15,0.0,h
4095.0,2965.0,2656.0,4095.0,4095.0,3763.0,2863.0,2246.0,9.81,2.42,4.4,0.23,-0.03,-0.56,0.0,h
4095.0,2971.0,2547.0,4095.0,4095.0,3419.0,2729.0,2192.0,9.22,2.67,3.59,0.4,0.08,-0.36,0.0,h
4095.0,2949.0,2517.0,4095.0,4095.0,3474.0,2718.0,2202.0,9.3,2.85,3.81,0.23,0.03,-0.3,0.0,h
4095.0,2928.0,2475.0,4095.0,4095.0,3700.0,2757.0,2265.0,9.47,2.92,3.86,-0.06,-0.22,-0.39,0.0,h
4095.0,2941.0,2443.0,4095.0,4095.0,4016.0,2763.0,2311.0,9.37,2.64,3.95,-0.25,-0.03,-0.12,0.0,h
4095.0,2919.0,2416.0,4094.0,4095.0,4095.0,2757.0,2350.0,9.87,2.84,4.39,-0.02,-0.1,-0.04,0.0,h
4095.0,2927.0,2402.0,4095.0,4095.0,4095.0,2756.0,2362.0,9.37,2.71,4.0,-0.2,-0.08,-0.1,0.0,h
4095.0,2935.0,2395.0,4095.0,4095.0,4095.0,2779.0,2382.0,9.72,2.78,3.91,0.07,0.05,-0.13,0.0,h
4095.0,2927.0,2399.0,4095.0,4095.0,4095.0,2778.0,2384.0,9.59,2.74,3.96,-0.18,-0.16,-0.16,0.0,h
4095.0,2930.0,2368.0,4095.0,4095.0,4095.0,2815.0,2433.0,9.78,2.69,3.61,-0.03,0.01,-0.14,0.0,h
4095.0,2934.0,2377.0,4095.0,4095.0,4095.0,2816.0,2437.0,9.84,2.64,3.87,-0.03,-0.02,-0.17,0.0,h
4095.0,2930.0,2369.0,4095.0,4095.0,4095.0,2816.0,2443.0,9.67,2.71,3.96,0.03,0.04,-0.21,0.0,h
4095.0,2933.0,2311.0,4095.0,4095.0,4095.0,2831.0,2435.0,9.56,2.62,3.97,0.15,-0.01,-0.18,0.0,h
4095.0,2950.0,2452.0,4095.0,4095.0,4070.0,2899.0,2377.0,9.46,2.72,3.62,0.04,0.3,0.01,0.0,h
4095.0,3088.0,2866.0,4095.0,4095.0,3742.0,2832.0,2329.0,10.38,2.49,4.17,0.63,0.39,-0.22,0.0,h
4095.0,3099.0,2877.0,4095.0,4095.0,3470.0,2737.0,2277.0,9.39,2.9,4.44,0.88,0.37,-0.43,0.0,h
4095.0,3024.0,2876.0,4095.0,4095.0,3429.0,2766.0,2283.0,9.54,2.9,3.76,0.66,-0.12,-0.6,0.0,h
4095.0,2993.0,2878.0,4095.0,4095.0,3579.0,2833.0,2419.0,9.2,3.14,3.83,0.62,-0.25,-0.51,0.0,h
4095.0,2977.0,2880.0,4095.0,4095.0,3861.0,2799.0,2559.0,9.24,3.58,3.32,0.08,-0.36,-0.34,0.0,h
4095.0,2970.0,2884.0,3890.0,4095.0,4095.0,2759.0,2621.0,10.03,3.46,2.91,-0.26,-0.64,-0.38,0.0,h
4095.0,2970.0,2887.0,3825.0,4095.0,4095.0,2774.0,2639.0,9.46,3.11,3.05,-0.12,0.17,-0.1,0.0,h
4095.0,2977.0,2891.0,3799.0,4095.0,4095.0,2766.0,2622.0,9.35,3.63,3.24,-0.34,-0.03,-0.12,0.0,h
4095.0,2970.0,2887.0,3843.0,4095.0,4095.0,2749.0,2623.0,9.42,3.0,3.73,-0.12,0.07,0.02,0.0,h
4095.0,2964.0,2881.0,3920.0,4095.0,4095.0,2741.0,2631.0,9.53,3.42,3.55,-0.31,-0.1,-0.1,0.0,h
4095.0,2961.0,2883.0,3943.0,4095.0,4095.0,2740.0,2635.0,9.68,3.15,3.67,-0.04,-0.03,-0.14,0.0,h
4095.0,2976.0,2885.0,3949.0,4095.0,4095.0,2736.0,2640.0,9.05,3.51,3.23,-0.27,-0.05,-0.12,0.0,h
4095.0,2966.0,2893.0,3962.0,4095.0,4095.0,2740.0,2645.0,9.47,3.04,3.49,-0.45,-0.07,0.08,0.0,h
4095.0,2961.0,2891.0,3988.0,4095.0,4095.0,2735.0,2642.0,9.2,3.34,3.53,-0.17,0.04,0.07,0.0,h
4095.0,2974.0,2895.0,4029.0,4095.0,4095.0,2741.0,2654.0,9.81,2.8,3.47,-0.33,-0.2,0.02,0.0,h
4087.0,2972.0,2895.0,4095.0,4095.0,4095.0,2755.0,2678.0,9.48,3.28,3.12,0.36,-0.12,-0.42,0.0,h
4095.0,2973.0,2883.0,4095.0,4095.0,4095.0,2766.0,2688.0,9.15,3.56,3.14,0.15,0.04,-0.22,0.0,h
4095.0,2976.0,2896.0,4095.0,4095.0,4095.0,2771.0,2694.0,9.27,3.55,3.38,0.01,0.06,-0.11,0.0,h
4095.0,2975.0,2889.0,4095.0,4095.0,4095.0,2773.0,2693.0,8.77,3.89,3.28,-0.15,0.04,0.02,0.0,h
4095.0,2967.0,2893.0,4095.0,4095.0,4095.0,2773.0,2698.0,9.03,3.58,3.0,-0.12,-0.04,0.05,0.0,h
4095.0,2964.0,2895.0,4095.0,4095.0,4095.0,2786.0,2701.0,9.29,2.99,2.76,-0.18,-0.06,0.11,0.0,h
4095.0,2973.0,2890.0,4095.0,4095.0,4095.0,2775.0,2699.0,9.74,2.93,2.99,-0.13,0.06,0.1,0.0,h
4095.0,2965.0,2887.0,4095.0,4095.0,4095.0,2769.0,2704.0,9.49,3.15,3.46,0.0,-0.11,-0.08,0.0,h
4087.0,2973.0,2887.0,4095.0,4095.0,4095.0,2779.0,2704.0,8.91,3.39,2.72,0.14,0.06,-0.11,0.0,h
4069.0,2977.0,2887.0,4095.0,4095.0,4095.0,2784.0,2709.0,9.94,2.83,3.25,0.18,-0.12,-0.08,0.0,h
4080.0,2992.0,2890.0,4095.0,4095.0,4095.0,2783.0,2706.0,10.18,2.36,3.61,0.14,-0.11,-0.13,0.0,h
4073.0,3010.0,2880.0,4095.0,4095.0,4095.0,2829.0,2730.0,9.59,2.81,3.09,0.35,-0.21,0.02,0.0,h
4070.0,3091.0,2861.0,4095.0,4095.0,4087.0,2905.0,2559.0,10.32,1.89,2.08,-0.5,-0.34,0.55,0.0,h
4066.0,3111.0,2800.0,4095.0,4095.0,4071.0,2886.0,2455.0,10.16,2.29,2.27,-0.47,-0.14,0.39,0.0,h
4080.0,3040.0,2805.0,4095.0,4095.0,4095.0,2859.0,2382.0,11.27,1.55,2.93,-0.48,0.24,-0.1,0.0,h
4066.0,3002.0,2791.0,4095.0,4095.0,4095.0,2770.0,2290.0,9.37,2.75,3.57,0.31,0.59,-0.29,0.0,h
4051.0,3045.0,2718.0,4095.0,4095.0,3867.0,2689.0,2252.0,9.51,2.58,3.24,0.44,0.08,-1.01,0.0,h
4033.0,3031.0,2537.0,4095.0,4095.0,3774.0,2678.0,2254.0,8.9,3.17,3.15,0.76,0.11,-0.6,0.0,h
4016.0,2992.0,1502.0,4095.0,4095.0,3815.0,2725.0,2215.0,9.52,2.8,2.77,0.17,-0.17,-0.91,0.0,h
4024.0,2981.0,1167.0,4085.0,4095.0,4063.0,2706.0,2256.0,8.78,3.91,3.45,-0.08,0.42,-0.16,0.0,h
4087.0,2951.0,1085.0,4095.0,4095.0,4095.0,2751.0,2526.0,9.67,2.87,3.71,0.12,0.06,-0.15,0.0,h
4077.0,2949.0,1102.0,4095.0,4095.0,4095.0,2751.0,2531.0,9.56,3.11,3.71,0.04,0.05,-0.15,0.0,h
4080.0,2945.0,1103.0,4095.0,4095.0,4095.0,2756.0,2535.0,9.63,2.85,4.04,0.06,-0.01,-0.15,0.0,h
4074.0,2947.0,1109.0,4095.0,4095.0,4095.0,2755.0,2538.0,9.55,3.01,4.15,-0.02,0.0,-0.15,0.0,h
4086.0,2950.0,1123.0,4095.0,4095.0,4095.0,2769.0,2544.0,9.7,2.96,3.87,0.05,-0.03,-0.14,0.0,h
4080.0,2942.0,1139.0,4095.0,4095.0,4095.0,2758.0,2544.0,9.66,2.99,3.72,-0.01,0.05,-0.11,0.0,h
4095.0,2944.0,1147.0,4095.0,4095.0,4095.0,2765.0,2543.0,9.89,3.01,4.02,-0.01,0.04,-0.19,0.0,h
4087.0,2955.0,1149.0,4095.0,4095.0,4095.0,2762.0,2541.0,9.04,2.9,4.34,-0.06,-0.02,-0.18,0.0,h
4087.0,2943.0,1138.0,4095.0,4095.0,4095.0,2765.0,2538.0,9.6,2.9,4.23,0.06,0.01,-0.08,0.0,h
4069.0,2946.0,1139.0,4095.0,4095.0,4095.0,2761.0,2542.0,9.86,2.85,4.07,-0.01,-0.07,-0.12,0.0,h
4081.0,2951.0,1141.0,4095.0,4095.0,4095.0,2766.0,2544.0,9.69,2.75,4.06,0.06,-0.04,-0.14,0.0,h
4077.0,2950.0,1136.0,4095.0,4095.0,4095.0,2769.0,2543.0,9.5,2.75,4.07,0.01,-0.05,-0.12,0.0,h
4078.0,2954.0,1139.0,4095.0,4095.0,4095.0,2771.0,2545.0,9.58,2.79,3.88,0.16,-0.01,-0.09,0.0,h
4080.0,2960.0,1145.0,4095.0,4095.0,4095.0,2768.0,2549.0,9.64,2.86,3.7,0.14,-0.08,-0.09,0.0,h
4080.0,2951.0,1146.0,4095.0,4095.0,4095.0,2763.0,2547.0,9.47,2.84,4.01,0.07,-0.08,-0.09,0.0,h
4085.0,2955.0,1143.0,4095.0,4095.0,4095.0,2767.0,2553.0,10.45,2.55,3.75,0.18,-0.0,-0.1,0.0,h
4087.0,2953.0,1136.0,4095.0,4095.0,4095.0,2768.0,2545.0,10.29,2.69,3.47,0.12,-0.04,-0.27,0.0,h
4083.0,2954.0,1149.0,4095.0,4095.0,4095.0,2762.0,2545.0,9.71,2.62,3.76,0.01,0.01,-0.25,0.0,h
4075.0,2957.0,1154.0,4095.0,4095.0,4095.0,2757.0,2533.0,9.29,2.8,4.0,0.1,0.15,-0.16,0.0,h
4082.0,2944.0,1149.0,4095.0,4095.0,4095.0,2747.0,2539.0,9.43,3.05,4.07,0.21,0.04,-0.16,0.0,h
4095.0,2923.0,3689.0,4095.0,4095.0,4095.0,2704.0,2457.0,9.61,3.06,4.41,-0.05,0.09,-0.15,0.0,h
4095.0,2923.0,3689.0,4095.0,4095.0,4095.0,2704.0,2457.0,9.61,3.06,4.41,-0.05,0.09,-0.15,0.0,h
4095.0,2928.0,3699.0,4095.0,4095.0,4095.0,2703.0,2465.0,9.17,2.68,4.16,0.0,-0.04,-0.15,0.0,h
4095.0,2931.0,3701.0,4095.0,4095.0,4095.0,2707.0,2468.0,9.41,2.65,4.2,0.18,0.11,-0.01,0.0,h
4095.0,2922.0,3687.0,4095.0,4095.0,4095.0,2703.0,2459.0,10.03,2.78,3.89,0.2,0.01,-0.03,0.0,h
4090.0,2928.0,3687.0,4095.0,4095.0,4095.0,2705.0,2467.0,9.72,2.8,3.9,0.1,0.03,-0.09,0.0,h
4080.0,2932.0,3701.0,4095.0,4095.0,4095.0,2706.0,2467.0,9.8,2.92,4.21,0.0,-0.03,-0.1,0.0,h
4049.0,2928.0,3693.0,4095.0,4095.0,4095.0,2704.0,2463.0,9.33,2.77,4.39,-0.07,-0.07,-0.11,0.0,h
4066.0,2930.0,3690.0,4095.0,4095.0,4095.0,2709.0,2467.0,9.64,2.79,4.21,-0.09,-0.01,-0.03,0.0,h
4022.0,2929.0,3677.0,4095.0,4095.0,4095.0,2711.0,2462.0,10.21,2.43,4.07,-0.17,-0.04,-0.01,0.0,h
4006.0,2928.0,3687.0,4095.0,4095.0,4095.0,2721.0,2467.0,9.67,2.33,3.96,-0.02,-0.01,-0.18,0.0,h
3985.0,2931.0,3691.0,4095.0,4095.0,4095.0,2723.0,2475.0,9.76,2.5,4.25,0.05,0.1,-0.1,0.0,h
3933.0,2923.0,3683.0,4095.0,4095.0,4095.0,2719.0,2466.0,10.24,2.0,4.45,0.16,0.08,-0.21,0.0,h
3906.0,2928.0,3689.0,4095.0,4095.0,4095.0,2723.0,2465.0,9.66,2.41,4.03,0.07,0.08,-0.2,0.0,h
3920.0,2922.0,3701.0,4095.0,4095.0,4095.0,2721.0,2466.0,10.27,2.62,4.31,0.1,0.06,-0.2,0.0,h
3919.0,2921.0,3690.0,4095.0,4095.0,4095.0,2731.0,2467.0,10.17,2.43,3.74,0.22,0.12,-0.35,0.0,h
3919.0,2921.0,3693.0,4095.0,4095.0,4095.0,2724.0,2469.0,9.17,3.28,4.75,0.09,0.06,-0.22,0.0,h
3920.0,2919.0,3690.0,4095.0,4095.0,4095.0,2735.0,2474.0,8.95,3.34,3.89,0.25,0.03,-0.23,0.0,h
3915.0,2919.0,3686.0,4095.0,4095.0,4095.0,2734.0,2473.0,9.45,2.43,3.62,0.12,0.07,-0.1,0.0,h
3918.0,2926.0,3681.0,4095.0,4095.0,4095.0,2735.0,2469.0,10.7,2.86,4.54,-0.02,0.15,-0.18,0.0,h
4034.0,2938.0,3071.0,4095.0,4095.0,4095.0,2931.0,2559.0,9.81,1.84,4.58,0.0,0.13,-0.19,0.0,h
4022.0,2943.0,3071.0,4095.0,4095.0,4095.0,2928.0,2559.0,9.63,1.86,4.77,-0.04,-0.09,-0.19,0.0,h
4016.0,2956.0,3081.0,4095.0,4095.0,4095.0,2935.0,2559.0,9.54,2.08,4.23,0.13,0.12,-0.14,0.0,h
4022.0,2935.0,3065.0,4095.0,4095.0,4095.0,2928.0,2559.0,9.61,1.77,4.13,-0.04,-0.06,-0.11,0.0,h
4018.0,2938.0,3070.0,4095.0,4095.0,4095.0,2932.0,2559.0,9.72,1.81,4.34,-0.07,0.07,-0.1,0.0,h
4022.0,2935.0,3062.0,4095.0,4095.0,4095.0,2927.0,2559.0,10.1,1.73,4.53,-0.08,0.07,-0.09,0.0,h
4030.0,2944.0,3071.0,4095.0,4095.0,4095.0,2941.0,2559.0,9.77,1.67,4.96,-0.07,0.07,-0.11,0.0,h
4029.0,2943.0,3082.0,4095.0,4095.0,4095.0,2935.0,2559.0,9.71,1.87,4.66,0.03,-0.09,-0.13,0.0,h
4017.0,2933.0,3067.0,4095.0,4095.0,4095.0,2935.0,2559.0,10.22,1.7,4.61,0.07,0.14,-0.12,0.0,h
4017.0,2942.0,3065.0,4095.0,4095.0,4095.0,2928.0,2559.0,9.82,1.29,4.5,0.02,0.03,-0.21,0.0,h
4034.0,2945.0,3081.0,4095.0,4095.0,4095.0,2929.0,2559.0,9.72,1.57,4.63,0.04,0.17,-0.16,0.0,h
4003.0,2939.0,3061.0,4095.0,4095.0,4095.0,2933.0,2559.0,9.7,2.07,4.97,0.04,-0.08,-0.15,0.0,h
4017.0,2950.0,3022.0,4095.0,4095.0,4095.0,2929.0,2544.0,9.64,2.17,4.19,0.12,0.02,-0.06,0.0,h
4003.0,2945.0,2901.0,4095.0,4095.0,4095.0,2924.0,2519.0,10.88,1.8,4.18,-0.01,-0.27,-0.22,0.0,h
4011.0,2946.0,2861.0,4095.0,4095.0,4095.0,2928.0,2545.0,10.0,1.82,4.92,-0.14,0.0,-0.31,0.0,h
4010.0,2944.0,2926.0,4095.0,4095.0,4095.0,2928.0,2551.0,9.53,1.86,4.81,-0.11,-0.05,-0.32,0.0,h
4016.0,2945.0,3041.0,4095.0,4095.0,4095.0,2945.0,2559.0,9.6,1.62,4.75,-0.03,-0.09,-0.19,0.0,h
4026.0,2944.0,3070.0,4095.0,4095.0,4095.0,2933.0,2559.0,10.26,1.86,4.03,0.08,-0.06,-0.26,0.0,h
4014.0,2945.0,3059.0,4095.0,4095.0,4095.0,2938.0,2559.0,9.78,1.95,4.42,-0.01,0.01,-0.28,0.0,h
4029.0,2949.0,3030.0,4095.0,4095.0,4095.0,2939.0,2559.0,9.57,1.95,4.76,0.07,0.1,-0.22,0.0,h
4095.0,2949.0,3040.0,4095.0,4095.0,4095.0,2933.0,2698.0,9.64,2.42,2.86,-0.01,-0.0,-0.11,0.0,h
4095.0,2950.0,3044.0,4095.0,4095.0,4095.0,2935.0,2699.0,10.03,2.4,2.85,0.11,0.08,-0.07,0.0,h
4095.0,2943.0,3046.0,4095.0,4095.0,4095.0,2931.0,2697.0,10.17,2.25,2.93,-0.15,0.04,-0.17,0.0,h
4095.0,2956.0,3043.0,4095.0,4095.0,4095.0,2934.0,2699.0,9.93,2.3,3.14,-0.05,0.14,-0.17,0.0,h
4095.0,2960.0,3054.0,4095.0,4095.0,4095.0,2932.0,2704.0,9.69,2.25,3.39,-0.13,0.07,-0.2,0.0,h
4095.0,2953.0,3050.0,4095.0,4095.0,4095.0,2938.0,2704.0,9.43,2.36,3.48,-0.07,0.08,-0.21,0.0,h
4095.0,2949.0,3047.0,4095.0,4095.0,4095.0,2931.0,2704.0,9.45,2.45,3.63,-0.05,0.11,-0.15,0.0,h
4095.0,2946.0,3037.0,4095.0,4095.0,4095.0,2942.0,2701.0,10.04,2.53,3.76,0.07,-0.06,-0.21,0.0,h
4095.0,2955.0,3043.0,4095.0,4095.0,4095.0,2933.0,2704.0,9.46,2.79,3.23,0.15,0.08,-0.17,0.0,h
4095.0,2944.0,3043.0,4095.0,4095.0,4095.0,2928.0,2703.0,9.26,2.47,3.29,-0.02,-0.04,-0.11,0.0,h
4095.0,2949.0,3049.0,4095.0,4095.0,4095.0,2931.0,2704.0,9.91,2.06,3.35,0.12,0.01,-0.08,0.0,h
4095.0,2958.0,3041.0,4095.0,4095.0,4095.0,2943.0,2705.0,9.91,2.28,3.15,0.04,-0.02,-0.12,0.0,h
4095.0,2950.0,3041.0,4095.0,4095.0,4095.0,2927.0,2701.0,9.92,2.47,3.41,-0.0,0.04,-0.13,0.0,h
4095.0,2948.0,3039.0,4095.0,4095.0,4095.0,2928.0,2704.0,9.67,2.47,3.25,-0.14,-0.03,-0.16,0.0,h
4095.0,2947.0,3049.0,4095.0,4095.0,4095.0,2934.0,2704.0,9.64,2.26,3.45,-0.21,-0.0,-0.21,0.0,h
4095.0,2945.0,3038.0,4095.0,4095.0,4095.0,2930.0,2697.0,9.76,2.35,4.05,-0.16,-0.04,-0.16,0.0,h
4095.0,2954.0,3048.0,4095.0,4095.0,4095.0,2931.0,2704.0,9.39,2.57,3.85,-0.06,-0.07,-0.12,0.0,h
4095.0,2946.0,3046.0,4095.0,4095.0,4095.0,2931.0,2705.0,9.67,2.5,3.43,0.03,-0.12,-0.07,0.0,h
4095.0,2950.0,3040.0,4095.0,4095.0,4095.0,2928.0,2709.0,9.87,2.3,3.38,0.1,0.02,-0.04,0.0,h
4095.0,2951.0,3043.0,4095.0,4095.0,4095.0,2931.0,2704.0,9.84,2.11,3.24,0.1,-0.07,-0.1,0.0,h
4095.0,2921.0,3426.0,3978.0,4095.0,4095.0,2706.0,2442.0,9.68,2.2,3.82,-0.45,0.01,0.22,0.0,h
4095.0,2921.0,3426.0,3978.0,4095.0,4095.0,2706.0,2442.0,9.68,2.2,3.82,-0.45,0.01,0.22,0.0,h
4095.0,2915.0,3429.0,3999.0,4095.0,4095.0,2701.0,2442.0,10.43,1.98,3.76,-0.13,-0.16,-0.06,0.0,h
4095.0,2915.0,3408.0,4003.0,4095.0,4095.0,2704.0,2432.0,9.56,2.05,3.68,-0.22,-0.07,-0.1,0.0,h
4095.0,2918.0,3415.0,4027.0,4095.0,4095.0,2715.0,2447.0,10.02,2.02,3.54,0.03,0.04,-0.15,0.0,h
4095.0,2914.0,3421.0,4045.0,4095.0,4095.0,2721.0,2438.0,9.75,1.99,3.52,-0.11,-0.08,-0.14,0.0,h
4095.0,2917.0,3429.0,4048.0,4095.0,4095.0,2722.0,2448.0,9.8,2.15,3.66,0.01,0.03,-0.15,0.0,h
4095.0,2919.0,3422.0,4091.0,4095.0,4095.0,2726.0,2448.0,9.88,2.09,3.67,-0.0,-0.03,-0.15,0.0,h
4095.0,2914.0,3434.0,4091.0,4095.0,4095.0,2734.0,2455.0,9.71,2.09,3.49,-0.02,-0.01,-0.15,0.0,h
4095.0,2915.0,3438.0,4095.0,4095.0,4095.0,2733.0,2463.0,9.78,2.06,3.58,-0.01,-0.01,-0.14,0.0,h
4095.0,2921.0,3433.0,4090.0,4095.0,4095.0,2734.0,2461.0,9.96,2.02,3.59,0.0,0.01,-0.15,0.0,h
4095.0,2917.0,3434.0,4087.0,4095.0,4095.0,2735.0,2464.0,9.83,1.98,3.57,-0.04,0.02,-0.15,0.0,h
4095.0,2915.0,3443.0,4092.0,4095.0,4095.0,2736.0,2466.0,9.88,2.03,3.63,-0.05,0.01,-0.17,0.0,h
4095.0,2919.0,3438.0,4095.0,4095.0,4095.0,2727.0,2467.0,9.86,2.0,3.61,-0.01,-0.01,-0.18,0.0,h
4095.0,2928.0,3441.0,4095.0,4095.0,4095.0,2738.0,2465.0,9.82,2.3,3.63,-0.03,0.01,-0.18,0.0,h
4095.0,2921.0,3440.0,4095.0,4095.0,4095.0,2735.0,2462.0,9.8,2.18,3.71,-0.05,-0.03,-0.19,0.0,h
4095.0,2918.0,3435.0,4095.0,4095.0,4095.0,2735.0,2467.0,9.59,2.26,3.7,0.0,0.04,-0.16,0.0,h
4095.0,2921.0,3440.0,4095.0,4095.0,4095.0,2741.0,2474.0,9.9,2.06,3.72,-0.02,-0.06,-0.15,0.0,h
4095.0,2919.0,3426.0,4095.0,4095.0,4095.0,2737.0,2474.0,9.78,2.17,3.71,0.05,0.03,-0.14,0.0,h
4095.0,2923.0,3441.0,4095.0,4095.0,4095.0,2746.0,2483.0,9.89,1.94,3.62,-0.0,-0.05,-0.17,0.0,h
4095.0,2949.0,918.0,4007.0,4095.0,3961.0,2675.0,2711.0,9.25,2.45,3.57,-0.22,-0.03,-0.13,0.0,h
4095.0,2944.0,927.0,4011.0,4095.0,4033.0,2667.0,2714.0,9.9,2.32,3.41,-0.16,-0.02,-0.13,0.0,h
4095.0,2949.0,920.0,3984.0,4095.0,4069.0,2659.0,2706.0,9.63,2.41,3.72,-0.06,-0.07,-0.15,0.0,h
4095.0,2950.0,923.0,3995.0,4095.0,4095.0,2665.0,2718.0,9.72,2.35,3.55,-0.0,0.02,-0.13,0.0,h
4095.0,2951.0,923.0,4005.0,4095.0,4095.0,2665.0,2725.0,9.83,2.27,3.63,0.04,-0.02,-0.11,0.0,h
4095.0,2957.0,914.0,3999.0,4095.0,4091.0,2659.0,2720.0,10.02,2.22,3.4,-0.05,-0.08,-0.18,0.0,h
4095.0,2955.0,918.0,3995.0,4095.0,4095.0,2655.0,2714.0,9.82,2.23,3.51,0.0,-0.0,-0.16,0.0,h
4095.0,2954.0,917.0,4015.0,4095.0,4095.0,2666.0,2725.0,9.65,2.24,3.76,0.04,0.07,-0.13,0.0,h
4095.0,2943.0,921.0,4034.0,4095.0,4095.0,2663.0,2722.0,9.77,2.32,3.64,0.07,0.0,-0.15,0.0,h
4095.0,2944.0,918.0,4047.0,4095.0,4091.0,2672.0,2735.0,9.79,2.36,3.45,0.06,-0.01,-0.15,0.0,h
4095.0,2958.0,918.0,4042.0,4095.0,4095.0,2669.0,2729.0,9.84,2.34,3.41,0.05,0.07,-0.13,0.0,h
4095.0,2955.0,915.0,4048.0,4095.0,4095.0,2667.0,2731.0,9.68,2.32,3.5,-0.08,-0.05,-0.15,0.0,h
4095.0,2959.0,922.0,4059.0,4095.0,4095.0,2672.0,2729.0,9.82,2.26,3.6,0.02,0.05,-0.14,0.0,h
4095.0,2946.0,928.0,4073.0,4095.0,4095.0,2674.0,2735.0,9.72,2.28,3.59,-0.07,-0.03,-0.14,0.0,h
4095.0,2951.0,929.0,4080.0,4095.0,4095.0,2667.0,2733.0,9.73,2.27,3.64,0.02,0.01,-0.14,0.0,h
4095.0,2953.0,929.0,4064.0,4095.0,4095.0,2662.0,2735.0,9.95,2.31,3.46,-0.04,-0.0,-0.13,0.0,h
4095.0,2950.0,921.0,4086.0,4095.0,4095.0,2669.0,2737.0,9.88,2.21,3.69,-0.06,-0.04,-0.15,0.0,h
4095.0,2951.0,921.0,4087.0,4095.0,4095.0,2667.0,2739.0,9.78,2.3,3.67,0.02,0.01,-0.16,0.0,h
4095.0,2954.0,931.0,4087.0,4095.0,4095.0,2673.0,2743.0,9.68,2.24,3.62,-0.02,-0.05,-0.16,0.0,h
4095.0,2958.0,926.0,4095.0,4095.0,4095.0,2667.0,2739.0,9.93,2.35,3.35,0.03,0.01,-0.16,0.0,h
4095.0,2942.0,914.0,4095.0,4095.0,4007.0,2732.0,2369.0,9.31,3.18,2.72,-0.19,-0.09,-0.23,0.0,h
4095.0,2942.0,914.0,4095.0,4095.0,4007.0,2732.0,2369.0,9.31,3.18,2.72,-0.19,-0.09,-0.23,0.0,h
4095.0,2933.0,919.0,4095.0,4095.0,4017.0,2727.0,2383.0,9.56,3.15,2.58,-0.09,0.03,-0.14,0.0,h
4095.0,2937.0,927.0,4095.0,4095.0,4005.0,2754.0,2383.0,9.29,3.04,2.68,-0.13,-0.22,-0.15,0.0,h
4095.0,2943.0,931.0,4095.0,4095.0,3991.0,2752.0,2390.0,9.19,3.09,2.66,-0.04,0.04,-0.08,0.0,h
4095.0,2931.0,919.0,4095.0,4095.0,3961.0,2752.0,2401.0,9.72,2.88,2.53,-0.04,-0.07,-0.08,0.0,h
4095.0,2938.0,919.0,4095.0,4095.0,3984.0,2753.0,2403.0,9.71,2.8,2.48,-0.05,-0.03,-0.14,0.0,h
4095.0,2935.0,930.0,4095.0,4095.0,3974.0,2752.0,2403.0,9.53,2.94,2.46,0.02,-0.17,-0.19,0.0,h
4095.0,2935.0,929.0,4095.0,4095.0,3990.0,2757.0,2411.0,9.49,2.95,2.43,0.01,0.04,-0.17,0.0,h
4095.0,2937.0,934.0,4095.0,4095.0,3998.0,2766.0,2416.0,9.36,3.15,2.38,-0.11,-0.16,-0.21,0.0,h
4095.0,2934.0,924.0,4095.0,4095.0,3974.0,2762.0,2416.0,9.77,2.96,2.43,-0.04,-0.0,-0.19,0.0,h
4095.0,2931.0,918.0,4095.0,4095.0,3975.0,2763.0,2419.0,9.12,3.21,2.52,-0.09,-0.19,-0.22,0.0,h
4095.0,2937.0,917.0,4095.0,4095.0,3953.0,2767.0,2418.0,9.47,3.08,2.41,0.16,0.22,-0.09,0.0,h
4095.0,2932.0,935.0,4095.0,4095.0,3935.0,2767.0,2407.0,9.49,3.16,2.18,-0.13,-0.24,-0.22,0.0,h
4095.0,2939.0,927.0,4095.0,4095.0,3955.0,2773.0,2421.0,9.58,3.06,2.43,0.03,-0.03,-0.16,0.0,h
4095.0,2937.0,927.0,4095.0,4095.0,3949.0,2768.0,2416.0,9.16,3.24,2.33,-0.17,-0.27,-0.25,0.0,h
4095.0,2935.0,930.0,4095.0,4095.0,3947.0,2756.0,2416.0,9.32,3.21,2.21,-0.01,-0.11,-0.17,0.0,h
4095.0,2944.0,931.0,4095.0,4095.0,3929.0,2768.0,2425.0,9.28,3.23,2.23,-0.06,-0.16,-0.2,0.0,h
4095.0,2938.0,933.0,4095.0,4095.0,3926.0,2759.0,2421.0,9.24,3.42,2.19,0.13,0.1,-0.14,0.0,h
4095.0,2928.0,935.0,4095.0,4095.0,3934.0,2762.0,2414.0,9.28,3.34,1.78,-0.05,-0.15,-0.21,0.0,h
4095.0,2922.0,3027.0,4095.0,4095.0,3583.0,2768.0,2323.0,9.2,3.23,2.24,0.06,-0.03,-0.17,0.0,h
4095.0,2924.0,3039.0,4095.0,4095.0,3583.0,2783.0,2345.0,9.67,3.05,2.02,-0.01,0.02,-0.14,0.0,h
4095.0,2918.0,3051.0,4095.0,4095.0,3583.0,2775.0,2352.0,9.34,3.23,2.16,0.05,0.01,-0.15,0.0,h
4095.0,2923.0,3046.0,4095.0,4095.0,3603.0,2782.0,2365.0,9.43,3.08,2.3,0.0,0.04,-0.16,0.0,h
4095.0,2928.0,3039.0,4095.0,4095.0,3549.0,2779.0,2358.0,9.22,3.25,2.22,0.04,0.03,-0.14,0.0,h
4095.0,2919.0,3041.0,4095.0,4095.0,3556.0,2787.0,2366.0,9.41,3.11,2.22,0.04,0.05,-0.13,0.0,h
4095.0,2915.0,3042.0,4095.0,4095.0,3553.0,2781.0,2368.0,9.17,3.22,2.27,0.02,0.05,-0.09,0.0,h
4095.0,2921.0,3033.0,4095.0,4095.0,3559.0,2783.0,2377.0,9.58,2.96,2.38,0.03,-0.0,-0.12,0.0,h
4095.0,2917.0,3049.0,4095.0,4095.0,3578.0,2787.0,2378.0,9.23,3.09,2.5,0.12,0.19,-0.08,0.0,h
4095.0,2921.0,3050.0,4095.0,4095.0,3571.0,2787.0,2377.0,9.4,2.96,2.38,0.23,0.3,-0.09,0.0,h
4095.0,2928.0,3065.0,4095.0,4095.0,3621.0,2790.0,2387.0,9.16,3.24,2.41,0.05,0.08,-0.09,0.0,h
4095.0,2918.0,3099.0,4095.0,4095.0,3660.0,2790.0,2391.0,9.53,2.95,2.5,0.01,0.1,-0.13,0.0,h
4095.0,2923.0,3166.0,4095.0,4095.0,3695.0,2787.0,2409.0,9.49,2.94,2.65,-0.05,0.02,-0.15,0.0,h
4095.0,2913.0,3184.0,4095.0,4095.0,3696.0,2789.0,2407.0,9.5,2.9,2.55,0.01,-0.03,-0.15,0.0,h
4095.0,2910.0,3177.0,4095.0,4095.0,3691.0,2781.0,2401.0,9.52,2.93,2.56,0.01,0.05,-0.14,0.0,h
4095.0,2921.0,3184.0,4095.0,4095.0,3664.0,2787.0,2415.0,9.38,3.0,2.51,0.04,-0.01,-0.17,0.0,h
4095.0,2923.0,3181.0,4095.0,4095.0,3688.0,2789.0,2416.0,9.48,3.01,2.57,0.01,0.04,-0.16,0.0,h
4095.0,2917.0,3187.0,4095.0,4095.0,3671.0,2791.0,2414.0,9.4,3.0,2.65,-0.02,-0.03,-0.18,0.0,h
4095.0,2919.0,3189.0,4095.0,4095.0,3685.0,2800.0,2416.0,9.54,2.99,2.63,0.01,0.01,-0.13,0.0,h
4095.0,2926.0,3201.0,4095.0,4095.0,3676.0,2799.0,2417.0,9.61,2.94,2.56,-0.01,-0.03,-0.17,0.0,h
4063.0,2937.0,2780.0,4095.0,4095.0,3430.0,2795.0,2458.0,9.55,3.01,2.63,0.07,0.05,-0.1,0.0,h
4069.0,2941.0,2775.0,4095.0,4095.0,3453.0,2800.0,2459.0,9.5,3.1,2.54,-0.03,-0.05,-0.15,0.0,h
4079.0,2945.0,2762.0,4095.0,4095.0,3454.0,2800.0,2465.0,9.37,3.07,2.67,0.03,0.05,-0.12,0.0,h
4053.0,2946.0,2759.0,4095.0,4095.0,3472.0,2805.0,2469.0,9.48,3.01,2.75,-0.06,-0.03,-0.13,0.0,h
4055.0,2938.0,2751.0,4095.0,4095.0,3467.0,2813.0,2466.0,9.44,3.06,2.68,0.04,-0.0,-0.15,0.0,h
4055.0,2939.0,2747.0,4095.0,4095.0,3479.0,2800.0,2474.0,9.48,2.98,2.64,0.02,0.02,-0.15,0.0,h
4061.0,2941.0,2757.0,4095.0,4095.0,3489.0,2807.0,2480.0,9.52,3.05,2.74,0.04,0.02,-0.15,0.0,h
4063.0,2945.0,2750.0,4095.0,4095.0,3490.0,2806.0,2472.0,9.52,3.04,2.54,-0.01,-0.02,-0.16,0.0,h
4076.0,2938.0,2757.0,4095.0,4095.0,3518.0,2803.0,2471.0,9.49,3.08,2.65,-0.0,-0.01,-0.14,0.0,h
4048.0,2946.0,2763.0,4095.0,4095.0,3531.0,2803.0,2474.0,9.39,3.0,2.72,-0.05,-0.0,-0.15,0.0,h
4063.0,2943.0,2768.0,4095.0,4095.0,3542.0,2803.0,2481.0,9.37,3.03,2.81,0.0,0.02,-0.11,0.0,h
4046.0,2937.0,2762.0,4095.0,4095.0,3551.0,2804.0,2480.0,9.58,3.02,2.63,0.05,-0.04,-0.15,0.0,h
4053.0,2935.0,2762.0,4095.0,4095.0,3537.0,2806.0,2482.0,9.36,3.11,2.52,0.01,-0.02,-0.14,0.0,h
4063.0,2937.0,2762.0,4095.0,4095.0,3551.0,2815.0,2484.0,9.56,2.98,2.62,0.02,0.02,-0.14,0.0,h
4066.0,2943.0,2761.0,4095.0,4095.0,3547.0,2812.0,2494.0,9.44,3.01,2.69,-0.04,-0.04,-0.15,0.0,h
4050.0,2934.0,2758.0,4095.0,4095.0,3537.0,2802.0,2482.0,9.56,2.93,2.74,0.02,-0.02,-0.16,0.0,h
4051.0,2935.0,2752.0,4095.0,4095.0,3542.0,2810.0,2483.0,9.49,3.0,2.72,0.05,0.01,-0.14,0.0,h
4070.0,2942.0,2754.0,4095.0,4095.0,3557.0,2813.0,2483.0,9.5,2.96,2.57,0.05,-0.02,-0.17,0.0,h
4063.0,2941.0,2747.0,4095.0,4095.0,3563.0,2817.0,2483.0,9.53,2.98,2.68,0.01,0.04,-0.13,0.0,h
4052.0,2938.0,2743.0,4095.0,4095.0,3541.0,2815.0,2482.0,9.44,3.01,2.72,0.07,-0.02,-0.16,0.0,h
4087.0,2915.0,3210.0,4095.0,4095.0,4095.0,2670.0,2382.0,9.63,3.01,3.06,0.03,-0.08,-0.17,0.0,h
4080.0,2926.0,3210.0,4095.0,4095.0,4095.0,2677.0,2382.0,9.32,3.21,3.04,0.02,0.02,-0.16,0.0,h
4095.0,2929.0,3216.0,4095.0,4095.0,4095.0,2672.0,2384.0,9.47,3.05,3.05,0.08,-0.06,-0.18,0.0,h
4095.0,2927.0,3232.0,4095.0,4095.0,4095.0,2682.0,2385.0,9.27,3.09,3.14,0.09,0.06,-0.16,0.0,h
4094.0,2928.0,3233.0,4095.0,4095.0,4095.0,2693.0,2397.0,9.74,3.12,3.08,0.34,0.12,-0.24,0.0,h
4095.0,2928.0,3222.0,4095.0,4095.0,4095.0,2692.0,2390.0,9.55,3.03,2.92,0.29,0.28,-0.23,0.0,h
4095.0,2926.0,3213.0,4095.0,4095.0,4095.0,2698.0,2391.0,9.75,3.25,2.86,0.19,0.35,-0.14,0.0,h
4095.0,2923.0,3214.0,4095.0,4095.0,4095.0,2687.0,2387.0,9.55,3.19,3.4,0.25,0.42,-0.15,0.0,h
4095.0,2926.0,3223.0,4095.0,4095.0,4095.0,2693.0,2393.0,9.27,3.16,3.63,0.06,0.03,-0.13,0.0,h
4095.0,2928.0,3231.0,4095.0,4095.0,4095.0,2700.0,2397.0,9.64,3.07,3.43,0.24,0.29,-0.05,0.0,h
4095.0,2929.0,3216.0,4095.0,4095.0,4095.0,2695.0,2398.0,9.38,3.21,3.59,0.13,0.05,-0.04,0.0,h
4095.0,2923.0,3223.0,4095.0,4095.0,4095.0,2694.0,2402.0,9.96,2.86,3.6,0.19,0.17,-0.05,0.0,h
4095.0,2923.0,3213.0,4095.0,4095.0,4095.0,2699.0,2402.0,9.53,3.15,3.39,0.0,-0.11,-0.07,0.0,h
4095.0,2930.0,3218.0,4095.0,4095.0,4095.0,2704.0,2400.0,10.01,2.64,3.36,0.1,0.05,-0.09,0.0,h
4095.0,2930.0,3225.0,4095.0,4095.0,4095.0,2697.0,2397.0,9.6,2.79,3.48,-0.05,-0.0,-0.13,0.0,h
4095.0,2925.0,3221.0,4095.0,4095.0,4095.0,2698.0,2400.0,9.9,2.7,3.75,0.06,0.06,-0.14,0.0,h
4095.0,2927.0,3215.0,4095.0,4095.0,4095.0,2689.0,2397.0,9.45,2.91,3.68,-0.0,0.1,-0.1,0.0,h
4095.0,2926.0,3213.0,4095.0,4095.0,4095.0,2681.0,2387.0,9.67,2.67,3.73,0.02,0.04,-0.11,0.0,h
4095.0,2928.0,3217.0,4095.0,4095.0,4095.0,2681.0,2389.0,9.67,2.85,3.75,0.03,0.14,-0.12,0.0,h
4095.0,2919.0,3219.0,4095.0,4095.0,4095.0,2672.0,2384.0,9.61,2.84,3.8,0.02,-0.02,-0.15,0.0,h
4095.0,2913.0,896.0,4095.0,4095.0,4095.0,2743.0,2437.0,9.58,2.57,3.73,-0.12,0.01,-0.1,0.0,h
4095.0,2923.0,898.0,4095.0,4095.0,4095.0,2752.0,2441.0,9.77,2.49,3.86,0.03,-0.0,-0.09,0.0,h
4095.0,2927.0,894.0,4095.0,4095.0,4095.0,2746.0,2435.0,9.58,2.48,3.91,-0.04,-0.07,-0.12,0.0,h
4095.0,2928.0,899.0,4095.0,4095.0,4095.0,2755.0,2448.0,9.65,2.43,3.76,0.04,0.09,-0.12,0.0,h
4095.0,2918.0,891.0,4095.0,4095.0,4095.0,2750.0,2448.0,9.9,2.36,3.69,-0.05,-0.09,-0.12,0.0,h
4095.0,2919.0,894.0,4095.0,4095.0,4095.0,2750.0,2448.0,9.66,2.53,3.82,0.06,0.04,-0.15,0.0,h
4095.0,2920.0,897.0,4095.0,4095.0,4095.0,2750.0,2448.0,10.11,2.34,3.77,0.04,0.02,-0.15,0.0,h
4095.0,2917.0,887.0,4095.0,4095.0,4095.0,2753.0,2451.0,9.62,2.52,3.79,0.15,0.2,-0.12,0.0,h
4095.0,2917.0,897.0,4095.0,4095.0,4095.0,2759.0,2455.0,9.42,2.57,3.71,0.11,0.11,-0.06,0.0,h
4095.0,2911.0,896.0,4095.0,4095.0,4095.0,2758.0,2455.0,9.73,2.45,3.85,0.09,0.14,-0.05,0.0,h
4095.0,2925.0,894.0,4095.0,4095.0,4095.0,2767.0,2457.0,9.73,2.46,3.85,-0.05,-0.09,-0.09,0.0,h
4095.0,2918.0,893.0,4095.0,4095.0,4095.0,2766.0,2457.0,10.18,2.04,3.97,0.07,0.15,-0.06,0.0,h
4095.0,2914.0,898.0,4095.0,4095.0,4095.0,2761.0,2457.0,9.88,2.21,3.94,-0.01,0.02,-0.12,0.0,h
4095.0,2918.0,895.0,4095.0,4095.0,4095.0,2765.0,2464.0,10.14,2.13,4.11,0.1,0.17,-0.14,0.0,h
4095.0,2915.0,896.0,4095.0,4095.0,4095.0,2763.0,2457.0,9.74,2.26,4.05,-0.01,-0.03,-0.16,0.0,h
4095.0,2917.0,897.0,4095.0,4095.0,4095.0,2764.0,2461.0,9.73,2.34,4.12,0.1,0.11,-0.13,0.0,h
4095.0,2921.0,891.0,4095.0,4095.0,4095.0,2765.0,2462.0,9.73,2.27,4.14,0.01,-0.03,-0.14,0.0,h
4095.0,2915.0,895.0,4095.0,4095.0,4095.0,2767.0,2462.0,9.97,2.14,4.04,0.12,0.06,-0.13,0.0,h
4095.0,2918.0,897.0,4095.0,4095.0,4095.0,2768.0,2467.0,9.58,2.16,4.18,0.04,-0.02,-0.11,0.0,h
4095.0,2919.0,887.0,4095.0,4095.0,4095.0,2768.0,2461.0,9.85,2.13,4.13,0.09,0.11,-0.1,0.0,h
4095.0,2927.0,912.0,4095.0,4095.0,4095.0,2910.0,2559.0,9.77,1.68,3.93,-0.06,-0.07,-0.15,0.0,h
4095.0,2922.0,902.0,4095.0,4095.0,4095.0,2912.0,2559.0,9.94,1.85,4.09,0.02,0.06,-0.12,0.0,h
4095.0,2923.0,902.0,4095.0,4095.0,4095.0,2914.0,2554.0,9.99,1.85,4.03,-0.01,-0.07,-0.18,0.0,h
4095.0,2926.0,903.0,4095.0,4095.0,4095.0,2913.0,2559.0,9.91,2.0,3.93,0.08,0.12,-0.15,0.0,h
4095.0,2927.0,897.0,4095.0,4095.0,4095.0,2919.0,2546.0,9.96,2.06,3.97,0.03,-0.07,-0.2,0.0,h
4078.0,2922.0,897.0,4095.0,4095.0,4095.0,2914.0,2558.0,9.62,2.16,3.83,0.04,0.07,-0.16,0.0,h
4039.0,2917.0,903.0,4095.0,4095.0,4095.0,2910.0,2555.0,9.71,2.03,3.87,-0.05,-0.08,-0.14,0.0,h
4011.0,2914.0,895.0,4095.0,4095.0,4095.0,2906.0,2554.0,9.77,2.02,4.04,-0.0,0.04,-0.1,0.0,h
3986.0,2924.0,905.0,4095.0,4095.0,4095.0,2917.0,2555.0,10.06,1.84,3.98,-0.04,-0.09,-0.14,0.0,h
3983.0,2919.0,907.0,4095.0,4095.0,4095.0,2913.0,2559.0,10.01,1.8,4.18,0.05,0.07,-0.12,0.0,h
3930.0,2921.0,892.0,4095.0,4095.0,4095.0,2914.0,2559.0,9.92,1.9,3.9,-0.0,-0.05,-0.18,0.0,h
3983.0,2922.0,898.0,4095.0,4095.0,4095.0,2911.0,2559.0,9.98,1.87,4.05,0.05,0.03,-0.17,0.0,h
3991.0,2911.0,902.0,4095.0,4095.0,4095.0,2910.0,2559.0,9.8,2.05,3.91,-0.0,-0.04,-0.21,0.0,h
3991.0,2926.0,896.0,4095.0,4095.0,4095.0,2919.0,2559.0,9.84,1.96,4.08,0.06,0.02,-0.18,0.0,h
4001.0,2922.0,898.0,4095.0,4095.0,4095.0,2909.0,2559.0,9.72,2.15,3.95,-0.0,0.01,-0.15,0.0,h
3987.0,2920.0,900.0,4095.0,4095.0,4095.0,2909.0,2559.0,9.74,2.04,4.04,0.05,0.01,-0.14,0.0,h
4015.0,2927.0,895.0,4095.0,4095.0,4095.0,2918.0,2559.0,9.69,2.1,3.87,-0.07,-0.05,-0.13,0.0,h
4003.0,2915.0,908.0,4095.0,4095.0,4095.0,2906.0,2559.0,9.83,1.99,3.96,0.01,-0.02,-0.11,0.0,h
4022.0,2928.0,901.0,4095.0,4095.0,4095.0,2928.0,2559.0,9.99,1.9,4.05,-0.05,-0.03,-0.13,0.0,h
4011.0,2915.0,902.0,4095.0,4095.0,4095.0,2913.0,2559.0,10.09,1.69,4.16,0.02,-0.0,-0.15,0.0,h
4095.0,3047.0,2891.0,4095.0,4095.0,4095.0,2754.0,2703.0,9.5,2.23,4.47,0.01,0.07,-0.16,0.0,h
4095.0,3048.0,2882.0,4095.0,4095.0,4095.0,2765.0,2709.0,10.0,2.17,4.28,0.05,-0.03,-0.14,0.0,h
4095.0,3045.0,2886.0,4095.0,4095.0,4095.0,2761.0,2711.0,9.51,2.32,4.26,-0.05,-0.05,-0.13,0.0,h
4095.0,3039.0,2886.0,4095.0,4095.0,4095.0,2765.0,2703.0,9.92,2.11,4.34,-0.09,-0.08,-0.13,0.0,h
4095.0,3050.0,2893.0,4095.0,4095.0,4095.0,2768.0,2722.0,9.77,2.09,4.38,-0.01,-0.06,-0.13,0.0,h
4095.0,3053.0,2883.0,4095.0,4095.0,4095.0,2759.0,2707.0,9.85,1.98,4.21,-0.04,-0.08,-0.15,0.0,h
4095.0,3058.0,2887.0,4095.0,4095.0,4095.0,2786.0,2717.0,10.02,1.98,4.33,0.1,-0.01,-0.16,0.0,h
2955.0,3054.0,2882.0,4095.0,4095.0,4095.0,2765.0,2709.0,9.8,2.01,4.24,-0.03,-0.09,-0.19,0.0,h
2849.0,3056.0,2885.0,4095.0,4095.0,4095.0,2768.0,2719.0,9.8,2.2,4.29,0.13,0.07,-0.16,0.0,h
2864.0,3056.0,2887.0,4095.0,4095.0,4095.0,2764.0,2710.0,9.89,2.05,3.91,-0.02,-0.04,-0.18,0.0,h
2880.0,3057.0,2885.0,4095.0,4095.0,4095.0,2768.0,2721.0,9.75,2.26,4.25,0.02,0.04,-0.18,0.0,h
2895.0,3059.0,2890.0,4095.0,4095.0,4095.0,2768.0,2721.0,9.85,2.23,4.2,-0.02,-0.0,-0.18,0.0,h
2953.0,3057.0,2880.0,4095.0,4095.0,4095.0,2768.0,2721.0,9.71,2.21,4.26,0.03,0.01,-0.18,0.0,h
2992.0,3054.0,2881.0,4095.0,4095.0,4095.0,2768.0,2721.0,9.94,2.15,4.1,-0.0,0.01,-0.17,0.0,h
3008.0,3049.0,2881.0,4095.0,4095.0,4095.0,2769.0,2723.0,9.71,2.17,4.37,0.01,0.0,-0.18,0.0,h
3014.0,3049.0,2891.0,4095.0,4095.0,4095.0,2780.0,2735.0,9.73,2.27,4.27,0.02,0.02,-0.17,0.0,h
3004.0,3053.0,2891.0,4095.0,4095.0,4095.0,2770.0,2727.0,9.64,2.21,4.35,0.02,-0.0,-0.16,0.0,h
2997.0,3058.0,2881.0,4095.0,4095.0,4095.0,2769.0,2730.0,9.76,2.23,4.29,0.07,0.06,-0.13,0.0,h
2959.0,3218.0,2881.0,4095.0,4095.0,4095.0,2778.0,2736.0,9.84,2.23,4.1,-0.02,-0.07,-0.16,0.0,h
2932.0,3067.0,2883.0,4095.0,4095.0,4095.0,2781.0,2737.0,9.78,2.1,4.19,0.03,0.02,-0.16,0.0,h
3865.0,3002.0,2885.0,4095.0,4095.0,4095.0,2836.0,2772.0,9.9,1.65,3.57,-0.0,-0.0,-0.15,0.0,h
3891.0,3007.0,2879.0,4095.0,4095.0,4095.0,2842.0,2779.0,9.91,1.78,3.48,0.05,-0.01,-0.16,0.0,h
3892.0,3018.0,2889.0,4095.0,4095.0,4095.0,2845.0,2784.0,9.88,1.64,3.45,0.03,-0.02,-0.15,0.0,h
3883.0,2992.0,2880.0,4095.0,4095.0,4095.0,2842.0,2784.0,10.1,1.71,3.33,0.01,0.03,-0.17,0.0,h
3877.0,2999.0,2881.0,4095.0,4095.0,4095.0,2841.0,2782.0,9.9,1.72,3.54,-0.01,-0.0,-0.19,0.0,h
3890.0,3007.0,2886.0,4095.0,4095.0,4095.0,2840.0,2789.0,9.75,1.86,3.4,0.02,0.05,-0.17,0.0,h
3891.0,2995.0,2880.0,4095.0,4095.0,4095.0,2839.0,2783.0,9.76,1.81,3.56,-0.01,-0.01,-0.16,0.0,h
3889.0,3002.0,2880.0,4095.0,4095.0,4095.0,2841.0,2783.0,9.78,1.9,3.74,0.02,0.0,-0.16,0.0,h
3902.0,3005.0,2886.0,4095.0,4095.0,4095.0,2843.0,2787.0,9.76,1.76,3.76,0.05,-0.04,-0.15,0.0,h
3901.0,3006.0,2879.0,4095.0,4095.0,4095.0,2842.0,2784.0,9.8,1.83,3.68,0.11,0.01,-0.14,0.0,h
3897.0,3006.0,2877.0,4095.0,4095.0,4095.0,2847.0,2790.0,9.66,1.72,3.49,0.09,-0.01,-0.09,0.0,h
3931.0,2995.0,2877.0,4095.0,4095.0,4095.0,2844.0,2784.0,10.15,1.81,3.19,0.05,-0.02,-0.11,0.0,h
3947.0,2997.0,2882.0,4095.0,4095.0,4095.0,2846.0,2800.0,10.05,1.61,3.33,-0.02,-0.07,-0.15,0.0,h
3934.0,3001.0,2878.0,4095.0,4095.0,4095.0,2837.0,2790.0,9.89,1.76,3.55,-0.03,0.02,-0.16,0.0,h
3955.0,2994.0,2880.0,4095.0,4095.0,4095.0,2843.0,2784.0,9.91,1.65,3.44,0.01,-0.02,-0.16,0.0,h
3957.0,2998.0,2880.0,4095.0,4095.0,4095.0,2849.0,2790.0,9.98,1.71,3.37,0.02,0.01,-0.15,0.0,h
3948.0,2991.0,2881.0,4095.0,4095.0,4095.0,2846.0,2790.0,10.05,1.74,3.42,0.01,-0.01,-0.18,0.0,h
3949.0,2986.0,2875.0,4095.0,4095.0,4095.0,2833.0,2787.0,9.69,1.85,3.68,0.01,0.02,-0.17,0.0,h
3959.0,2987.0,2886.0,4095.0,4095.0,4095.0,2845.0,2777.0,9.57,1.84,3.84,0.13,0.09,-0.11,0.0,h
3984.0,2987.0,2880.0,4095.0,4095.0,4095.0,2842.0,2763.0,9.75,1.69,3.66,0.11,-0.02,-0.09,0.0,h
4095.0,2934.0,3347.0,4095.0,4095.0,4095.0,2789.0,2559.0,10.08,1.98,3.14,0.01,0.06,-0.1,0.0,h
4095.0,2931.0,3346.0,4095.0,4095.0,4095.0,2773.0,2585.0,9.64,2.02,3.16,-0.08,-0.13,-0.13,0.0,h
4095.0,2929.0,3343.0,4095.0,4095.0,4095.0,2799.0,2559.0,9.77,1.85,3.27,-0.1,0.02,-0.09,0.0,h
4095.0,2928.0,3347.0,4095.0,4095.0,4095.0,2799.0,2596.0,9.8,1.96,3.22,-0.11,-0.17,-0.15,0.0,h
4095.0,2939.0,3359.0,4095.0,4095.0,4095.0,2799.0,2593.0,10.0,1.87,3.22,-0.01,0.02,-0.14,0.0,h
4095.0,2923.0,3354.0,4095.0,4095.0,4095.0,2800.0,2595.0,9.83,1.95,3.12,0.05,-0.07,-0.16,0.0,h
4095.0,2928.0,3364.0,4095.0,4095.0,4095.0,2797.0,2599.0,9.86,1.94,3.03,0.08,0.06,-0.15,0.0,h
4095.0,2934.0,3359.0,4095.0,4095.0,4095.0,2800.0,2603.0,9.84,1.97,3.01,0.0,-0.05,-0.16,0.0,h
4095.0,2939.0,3365.0,4095.0,4095.0,4095.0,2810.0,2602.0,9.68,1.98,3.14,0.02,0.03,-0.15,0.0,h
4095.0,2922.0,3350.0,4095.0,4095.0,4095.0,2805.0,2601.0,9.72,1.94,3.17,0.0,-0.02,-0.15,0.0,h
4095.0,2930.0,3355.0,4095.0,4095.0,4095.0,2809.0,2607.0,9.66,1.98,3.17,-0.0,-0.0,-0.13,0.0,h
4095.0,2929.0,3353.0,4095.0,4095.0,4095.0,2813.0,2606.0,9.8,1.94,3.23,0.09,0.01,-0.13,0.0,h
4095.0,2931.0,3361.0,4095.0,4095.0,4095.0,2814.0,2608.0,9.65,1.98,3.02,0.03,0.02,-0.1,0.0,h
4095.0,2935.0,3362.0,4095.0,4095.0,4095.0,2816.0,2608.0,9.92,1.87,3.1,0.01,-0.02,-0.12,0.0,h
4095.0,2929.0,3358.0,4095.0,4095.0,4095.0,2818.0,2610.0,9.87,1.84,3.08,0.03,0.05,-0.12,0.0,h
4095.0,2925.0,3346.0,4095.0,4095.0,4095.0,2813.0,2605.0,9.89,1.81,3.06,0.02,-0.03,-0.15,0.0,h
4095.0,2935.0,3358.0,4095.0,4095.0,4095.0,2821.0,2611.0,9.88,1.84,3.15,0.04,0.05,-0.14,0.0,h
4095.0,2934.0,3355.0,4095.0,4095.0,4095.0,2807.0,2610.0,9.85,1.92,3.09,0.01,-0.0,-0.16,0.0,h
4095.0,2935.0,3345.0,4095.0,4095.0,4095.0,2820.0,2608.0,9.76,1.87,3.26,0.04,0.01,-0.15,0.0,h
4095.0,2923.0,3328.0,4095.0,4095.0,4033.0,2817.0,2585.0,9.85,1.85,3.11,0.04,0.05,-0.12,0.0,h
4080.0,2962.0,2178.0,4095.0,4095.0,4095.0,2945.0,2743.0,9.82,2.03,3.36,0.0,-0.03,-0.13,0.0,h
4054.0,2969.0,2175.0,4095.0,4095.0,4095.0,2947.0,2752.0,10.17,1.66,3.57,0.02,0.02,-0.13,0.0,h
4088.0,2967.0,2189.0,4095.0,4095.0,4095.0,2945.0,2758.0,10.04,1.84,3.51,0.13,0.12,-0.16,0.0,h
4049.0,2966.0,2179.0,4095.0,4095.0,4095.0,2946.0,2758.0,9.87,2.07,3.15,0.04,-0.05,-0.22,0.0,h
4067.0,2959.0,2163.0,4095.0,4095.0,4095.0,2947.0,2751.0,9.81,2.12,3.3,-0.02,0.01,-0.23,0.0,h
4065.0,2970.0,2179.0,4095.0,4095.0,4095.0,2955.0,2749.0,9.85,2.26,3.42,-0.01,-0.01,-0.26,0.0,h
4093.0,2961.0,2192.0,4095.0,4095.0,4095.0,2949.0,2749.0,9.68,2.22,3.55,-0.02,0.03,-0.23,0.0,h
4051.0,2965.0,2193.0,4095.0,4095.0,4095.0,2953.0,2737.0,9.73,2.37,3.3,-0.05,0.02,-0.23,0.0,h
4073.0,2960.0,2192.0,4095.0,4095.0,4095.0,2958.0,2749.0,9.49,2.47,3.57,-0.04,0.01,-0.21,0.0,h
4076.0,2964.0,2195.0,4095.0,4095.0,4095.0,2958.0,2751.0,9.49,2.41,3.43,-0.04,-0.01,-0.2,0.0,h
4059.0,2966.0,2210.0,4095.0,4095.0,4095.0,2956.0,2748.0,9.48,2.23,3.39,-0.05,0.01,-0.14,0.0,h
4048.0,2960.0,2201.0,4095.0,4095.0,4095.0,2955.0,2755.0,10.0,2.26,3.34,0.01,0.12,-0.14,0.0,h
4040.0,2957.0,2201.0,4095.0,4095.0,4095.0,2955.0,2751.0,9.95,2.42,3.69,-0.04,0.05,-0.15,0.0,h
4037.0,2963.0,2208.0,4095.0,4095.0,4095.0,2960.0,2749.0,9.7,2.28,3.71,-0.07,0.02,-0.18,0.0,h
4041.0,2970.0,2206.0,4095.0,4095.0,4095.0,2961.0,2754.0,9.58,2.36,3.85,0.0,-0.0,-0.16,0.0,h
4026.0,2961.0,2201.0,4095.0,4095.0,4095.0,2960.0,2750.0,9.66,2.35,3.79,-0.01,-0.02,-0.15,0.0,h
4032.0,2967.0,2197.0,4095.0,4095.0,4095.0,2959.0,2757.0,9.7,2.36,3.69,0.05,-0.02,-0.14,0.0,h
4027.0,2973.0,2207.0,4095.0,4095.0,4095.0,2960.0,2759.0,9.83,2.33,3.53,-0.0,-0.01,-0.14,0.0,h
4031.0,2963.0,2202.0,4095.0,4095.0,4095.0,2958.0,2758.0,9.76,2.25,3.63,0.06,0.01,-0.14,0.0,h
4029.0,2961.0,2203.0,4095.0,4095.0,4095.0,2957.0,2763.0,9.88,2.25,3.57,-0.02,-0.04,-0.17,0.0,h
3555.0,2922.0,965.0,4095.0,4095.0,4095.0,2709.0,2559.0,8.69,3.84,0.94,-0.1,-0.11,-0.13,0.0,h
3551.0,2907.0,962.0,4095.0,4095.0,4095.0,2719.0,2559.0,8.2,4.04,0.98,-0.19,-0.0,-0.14,0.0,h
3558.0,2914.0,967.0,4095.0,4095.0,4095.0,2721.0,2559.0,8.68,3.93,1.02,-0.03,0.06,-0.05,0.0,h
3551.0,2912.0,967.0,4095.0,4095.0,4095.0,2734.0,2559.0,8.74,3.91,0.96,-0.04,-0.11,-0.12,0.0,h
3554.0,2913.0,969.0,4095.0,4095.0,4095.0,2734.0,2559.0,8.76,3.93,0.97,0.02,-0.0,-0.12,0.0,h
3572.0,2928.0,957.0,4095.0,4095.0,4095.0,2733.0,2559.0,8.78,3.9,0.91,-0.02,-0.04,-0.11,0.0,h
3567.0,2921.0,960.0,4095.0,4095.0,4095.0,2730.0,2559.0,8.83,3.86,0.91,0.1,0.16,-0.05,0.0,h
3567.0,2910.0,944.0,4095.0,4095.0,4095.0,2726.0,2589.0,8.67,3.71,1.14,0.12,0.14,-0.07,0.0,h
3573.0,2915.0,950.0,4095.0,4095.0,4095.0,2725.0,2559.0,8.61,3.69,0.99,0.32,0.38,0.0,0.0,h
3581.0,2914.0,949.0,4095.0,4095.0,4095.0,2729.0,2587.0,9.21,3.56,0.85,0.13,0.13,-0.09,0.0,h
3577.0,2911.0,946.0,4095.0,4095.0,4095.0,2720.0,2585.0,8.6,3.71,1.14,0.16,0.19,-0.07,0.0,h
3569.0,2912.0,954.0,4095.0,4095.0,4095.0,2727.0,2591.0,9.3,3.32,1.18,0.01,0.15,-0.12,0.0,h
3568.0,2915.0,947.0,4095.0,4095.0,4095.0,2727.0,2591.0,8.78,3.61,1.27,0.09,0.11,-0.12,0.0,h
3583.0,2921.0,955.0,4095.0,4095.0,4095.0,2727.0,2595.0,9.26,3.38,1.23,0.04,0.03,-0.15,0.0,h
3582.0,2915.0,953.0,4095.0,4095.0,4095.0,2722.0,2594.0,8.88,3.56,1.33,0.15,0.14,-0.13,0.0,h
3583.0,2919.0,950.0,4095.0,4095.0,4095.0,2731.0,2598.0,9.29,3.39,1.33,0.14,0.18,-0.13,0.0,h
3570.0,2925.0,959.0,4095.0,4095.0,4095.0,2735.0,2592.0,8.54,3.57,1.64,0.52,0.79,0.05,0.0,h
3565.0,2913.0,948.0,4095.0,4095.0,4095.0,2731.0,2594.0,9.67,3.35,1.44,0.2,0.26,-0.04,0.0,h
3567.0,2912.0,953.0,4095.0,4095.0,4095.0,2733.0,2603.0,8.81,3.31,1.91,0.38,0.67,0.01,0.0,h
3569.0,2909.0,960.0,4095.0,4095.0,4095.0,2735.0,2603.0,9.42,3.07,1.89,-0.05,-0.02,-0.12,0.0,h
4095.0,2923.0,1252.0,4095.0,4095.0,4091.0,2880.0,2627.0,9.68,2.1,2.9,0.03,0.0,-0.14,0.0,h
4095.0,2919.0,1280.0,4095.0,4095.0,4080.0,2883.0,2643.0,9.9,2.19,2.71,0.02,-0.07,-0.16,0.0,h
4095.0,2924.0,1310.0,4095.0,4095.0,4090.0,2882.0,2637.0,9.59,2.24,2.75,-0.03,-0.03,-0.15,0.0,h
4095.0,2922.0,1328.0,4095.0,4095.0,4078.0,2874.0,2642.0,9.65,2.22,2.78,0.02,0.01,-0.12,0.0,h
4095.0,2919.0,1334.0,4095.0,4095.0,4068.0,2880.0,2643.0,9.75,2.14,2.74,0.01,-0.03,-0.12,0.0,h
4095.0,2912.0,1328.0,4095.0,4095.0,4051.0,2879.0,2645.0,9.78,2.07,2.81,0.01,0.01,-0.11,0.0,h
4095.0,2914.0,1322.0,4095.0,4095.0,4048.0,2879.0,2642.0,9.75,1.98,2.88,-0.01,-0.02,-0.14,0.0,h
4095.0,2922.0,1323.0,4095.0,4095.0,4029.0,2884.0,2651.0,9.74,2.02,2.8,0.0,-0.01,-0.13,0.0,h
4095.0,2925.0,1313.0,4095.0,4095.0,4046.0,2875.0,2642.0,9.84,2.04,2.72,0.01,0.01,-0.12,0.0,h
4095.0,2913.0,1313.0,4095.0,4095.0,4023.0,2879.0,2646.0,9.84,2.01,2.77,0.05,-0.02,-0.15,0.0,h
4095.0,2923.0,1317.0,4095.0,4095.0,4025.0,2881.0,2652.0,9.77,1.93,2.96,0.13,0.2,-0.09,0.0,h
4095.0,2915.0,1306.0,4095.0,4095.0,4013.0,2875.0,2646.0,9.32,2.12,3.07,0.27,0.26,-0.04,0.0,h
4095.0,2922.0,1296.0,4095.0,4095.0,4032.0,2876.0,2649.0,10.11,1.89,2.75,-0.05,-0.09,-0.13,0.0,h
4095.0,2917.0,1300.0,4095.0,4095.0,4057.0,2882.0,2655.0,9.75,1.96,2.89,0.04,0.06,-0.13,0.0,h
4095.0,2912.0,1301.0,4095.0,4095.0,4039.0,2871.0,2646.0,9.82,1.85,2.98,-0.08,-0.05,-0.16,0.0,h
4095.0,2909.0,1300.0,4095.0,4095.0,4035.0,2877.0,2651.0,9.73,1.9,3.11,0.05,0.05,-0.14,0.0,h
4095.0,2915.0,1299.0,4095.0,4095.0,4032.0,2879.0,2649.0,9.78,1.88,3.01,-0.02,-0.04,-0.16,0.0,h
4095.0,2913.0,1299.0,4095.0,4095.0,4009.0,2879.0,2654.0,9.87,1.92,2.98,0.12,-0.04,-0.15,0.0,h
4095.0,2915.0,1311.0,4095.0,4095.0,4014.0,2880.0,2653.0,9.89,1.86,2.92,0.09,-0.04,-0.17,0.0,h
4095.0,2915.0,1319.0,4095.0,4095.0,3997.0,2887.0,2666.0,10.04,1.69,2.92,0.12,0.02,-0.2,0.0,h
4095.0,2918.0,1522.0,4095.0,4095.0,3936.0,2907.0,2691.0,9.69,2.03,3.21,0.01,-0.04,-0.16,0.0,h
4095.0,2915.0,1611.0,4095.0,4095.0,3968.0,2911.0,2694.0,9.7,2.16,3.15,0.02,-0.05,-0.14,0.0,h
4095.0,2918.0,1655.0,4095.0,4095.0,3956.0,2911.0,2695.0,10.01,1.92,2.91,-0.03,-0.08,-0.18,0.0,h
4095.0,2913.0,1655.0,4095.0,4095.0,3954.0,2912.0,2701.0,9.9,2.04,3.03,-0.01,0.0,-0.17,0.0,h
4095.0,2910.0,1662.0,4095.0,4095.0,3955.0,2913.0,2692.0,9.88,2.08,2.92,-0.0,-0.06,-0.2,0.0,h
4095.0,2919.0,1667.0,4095.0,4095.0,3954.0,2914.0,2699.0,9.67,1.98,2.8,0.02,0.03,-0.17,0.0,h
4095.0,2917.0,1658.0,4095.0,4095.0,3955.0,2910.0,2695.0,9.79,2.03,3.07,-0.02,0.03,-0.17,0.0,h
4095.0,2911.0,1651.0,4095.0,4095.0,3935.0,2912.0,2686.0,9.74,2.08,3.17,0.0,-0.0,-0.19,0.0,h
4095.0,2911.0,1651.0,4095.0,4095.0,3947.0,2921.0,2719.0,9.55,2.19,3.52,-0.05,0.01,-0.18,0.0,h
4095.0,2922.0,1669.0,4095.0,4095.0,3951.0,2913.0,2704.0,9.39,2.14,3.74,0.06,-0.04,-0.24,0.0,h
4095.0,2909.0,1679.0,4095.0,4095.0,3932.0,2915.0,2703.0,9.57,2.31,2.97,0.1,-0.07,-0.19,0.0,h
4095.0,2916.0,1677.0,4095.0,4095.0,3919.0,2911.0,2699.0,9.79,2.25,2.7,0.02,-0.15,-0.15,0.0,h
4095.0,2922.0,1665.0,4095.0,4095.0,3924.0,2915.0,2703.0,9.73,2.23,2.65,0.03,0.02,-0.11,0.0,h
4095.0,2925.0,1659.0,4095.0,4095.0,3923.0,2922.0,2704.0,9.83,2.11,2.72,-0.02,-0.06,-0.14,0.0,h
4095.0,2918.0,1657.0,4095.0,4095.0,3909.0,2911.0,2703.0,9.75,2.06,3.05,0.02,0.07,-0.12,0.0,h
4095.0,2909.0,1653.0,4095.0,4095.0,3904.0,2909.0,2703.0,9.86,2.04,3.02,0.02,-0.02,-0.14,0.0,h
4095.0,2913.0,1648.0,4095.0,4095.0,3900.0,2912.0,2700.0,9.84,2.1,3.09,0.14,0.14,-0.14,0.0,h
4095.0,2912.0,1644.0,4095.0,4095.0,3860.0,2907.0,2691.0,9.78,2.23,2.98,0.07,-0.03,-0.15,0.0,h
4095.0,2913.0,1616.0,4095.0,4095.0,3846.0,2910.0,2695.0,9.79,2.09,2.94,0.05,0.01,-0.2,0.0,h
4095.0,2914.0,1578.0,4095.0,4095.0,3839.0,2905.0,2685.0,9.71,2.14,2.84,-0.0,-0.02,-0.19,0.0,h
4095.0,2913.0,4095.0,4095.0,4095.0,4095.0,3254.0,2997.0,9.08,2.75,3.39,-0.06,0.05,-0.08,0.0,h
4095.0,2913.0,4095.0,4095.0,4095.0,4095.0,3245.0,2991.0,9.65,2.51,3.44,0.04,0.07,-0.04,0.0,h
4095.0,2909.0,4095.0,4095.0,4095.0,4095.0,3215.0,2959.0,9.36,2.66,3.21,0.19,0.48,0.07,0.0,h
4095.0,2914.0,4095.0,4095.0,4095.0,4095.0,3193.0,2943.0,9.8,2.36,3.53,0.14,0.2,-0.04,0.0,h
4095.0,2912.0,4095.0,4095.0,4095.0,4095.0,3143.0,2927.0,9.58,2.47,3.57,0.04,0.1,-0.02,0.0,h
4095.0,2908.0,4095.0,4095.0,4095.0,4095.0,3142.0,2896.0,9.81,2.1,3.53,-0.08,-0.04,-0.08,0.0,h
4095.0,2915.0,4095.0,4095.0,4095.0,4095.0,3149.0,2898.0,9.97,2.27,3.6,-0.08,-0.03,-0.11,0.0,h
4095.0,2915.0,4095.0,4095.0,4095.0,4095.0,3145.0,2896.0,9.89,2.14,3.7,-0.08,-0.06,-0.16,0.0,h
4095.0,2913.0,4095.0,4095.0,4095.0,4095.0,3147.0,2896.0,9.93,2.28,3.53,0.05,0.04,-0.13,0.0,h
4095.0,2910.0,4095.0,4095.0,4095.0,4095.0,3142.0,2895.0,9.78,2.21,3.58,-0.0,-0.08,-0.19,0.0,h
4095.0,2916.0,4095.0,4095.0,4095.0,4095.0,3149.0,2896.0,9.74,2.28,3.56,0.04,-0.04,-0.17,0.0,h
4095.0,2903.0,4095.0,4095.0,4095.0,4095.0,3141.0,2896.0,9.67,2.25,3.65,-0.04,-0.11,-0.18,0.0,h
4095.0,2907.0,4095.0,4095.0,4095.0,4095.0,3146.0,2895.0,9.71,2.31,3.5,-0.01,-0.0,-0.14,0.0,h
4095.0,2911.0,4095.0,4095.0,4095.0,4095.0,3142.0,2894.0,9.83,2.32,3.41,0.04,-0.04,-0.16,0.0,h
4095.0,2915.0,4095.0,4095.0,4095.0,4095.0,3142.0,2896.0,9.76,2.34,3.41,-0.02,-0.0,-0.16,0.0,h
4095.0,2912.0,4095.0,4095.0,4095.0,4095.0,3143.0,2894.0,9.61,2.38,3.47,0.04,-0.05,-0.16,0.0,h
4095.0,2911.0,4095.0,4095.0,4095.0,4095.0,3151.0,2889.0,9.71,2.37,3.29,-0.07,-0.02,-0.16,0.0,h
4095.0,2909.0,4095.0,4095.0,4095.0,4095.0,3130.0,2893.0,9.79,2.25,3.56,0.03,-0.02,-0.14,0.0,h
4095.0,2916.0,4095.0,4095.0,4095.0,4095.0,3151.0,2896.0,9.98,2.24,3.36,0.01,0.03,-0.15,0.0,h
4095.0,2910.0,4095.0,4095.0,4095.0,4095.0,3135.0,2893.0,10.01,2.18,3.49,0.04,-0.03,-0.19,0.0,h
4095.0,2910.0,3358.0,3954.0,4095.0,4095.0,2818.0,2608.0,10.01,1.68,3.83,-0.06,-0.01,-0.17,0.0,h
4095.0,2906.0,3360.0,3952.0,4095.0,4095.0,2815.0,2608.0,9.57,1.46,4.21,-0.08,0.01,-0.13,0.0,h
4095.0,2904.0,3350.0,3963.0,4095.0,4095.0,2816.0,2609.0,9.8,1.53,4.41,-0.07,0.01,-0.1,0.0,h
4095.0,2909.0,3359.0,3952.0,4095.0,4095.0,2819.0,2603.0,10.0,1.39,4.37,-0.07,-0.03,-0.13,0.0,h
4095.0,2909.0,3364.0,3951.0,4095.0,4095.0,2811.0,2605.0,9.93,1.45,4.38,-0.05,0.0,-0.13,0.0,h
4095.0,2903.0,3355.0,3952.0,4095.0,4095.0,2822.0,2605.0,10.11,1.52,4.34,-0.02,-0.05,-0.14,0.0,h
4095.0,2903.0,3354.0,3968.0,4095.0,4095.0,2815.0,2608.0,10.15,1.57,4.29,0.01,-0.01,-0.18,0.0,h
4095.0,2907.0,3370.0,3958.0,4095.0,4095.0,2816.0,2608.0,9.96,1.66,4.02,-0.02,-0.08,-0.21,0.0,h
4095.0,2914.0,3359.0,3949.0,4095.0,4095.0,2821.0,2608.0,9.87,1.7,4.09,0.03,-0.0,-0.17,0.0,h
4095.0,2902.0,3360.0,3965.0,4095.0,4095.0,2819.0,2611.0,9.88,1.62,4.06,0.01,-0.01,-0.17,0.0,h
4095.0,2909.0,3370.0,3955.0,4095.0,4095.0,2822.0,2606.0,9.86,1.6,4.02,0.04,0.03,-0.14,0.0,h
4095.0,2906.0,3347.0,3952.0,4095.0,4095.0,2816.0,2601.0,9.95,1.66,3.94,-0.02,0.04,-0.13,0.0,h
4095.0,2904.0,3360.0,3929.0,4095.0,4095.0,2812.0,2599.0,9.93,1.51,4.28,-0.03,0.02,-0.13,0.0,h
4095.0,2911.0,3366.0,3958.0,4095.0,4095.0,2818.0,2606.0,9.85,1.58,4.41,0.03,0.03,-0.15,0.0,h
4095.0,2906.0,3358.0,3955.0,4095.0,4095.0,2814.0,2597.0,9.93,1.47,4.38,0.04,-0.02,-0.15,0.0,h
4095.0,2910.0,3358.0,3956.0,4095.0,4095.0,2818.0,2602.0,9.96,1.63,4.11,0.03,-0.01,-0.15,0.0,h
4095.0,2901.0,3351.0,3949.0,4095.0,4095.0,2816.0,2602.0,10.11,1.61,4.09,-0.03,-0.01,-0.17,0.0,h
4095.0,2917.0,3364.0,3956.0,4095.0,4095.0,2817.0,2605.0,9.97,1.59,4.3,-0.01,0.01,-0.18,0.0,h
4095.0,2913.0,3346.0,3955.0,4095.0,4095.0,2816.0,2605.0,9.76,1.72,4.23,-0.03,-0.03,-0.17,0.0,h
4095.0,2902.0,3361.0,3951.0,4095.0,4095.0,2815.0,2599.0,9.52,1.64,4.18,-0.13,-0.13,-0.17,0.0,h
4095.0,2910.0,3401.0,4064.0,4095.0,4095.0,2807.0,2631.0,9.71,2.1,2.7,0.2,0.19,-0.1,0.0,h
4095.0,2907.0,3408.0,4050.0,4095.0,4095.0,2807.0,2638.0,9.52,2.27,2.72,0.29,0.21,-0.14,0.0,h
4095.0,2905.0,3413.0,4060.0,4095.0,4095.0,2802.0,2655.0,9.68,2.21,2.69,0.08,0.09,-0.17,0.0,h
4095.0,2914.0,3413.0,4078.0,4095.0,4095.0,2811.0,2640.0,9.63,2.43,2.72,0.07,0.03,-0.15,0.0,h
4095.0,2911.0,3418.0,4081.0,4095.0,4095.0,2807.0,2639.0,9.49,2.26,2.77,0.05,0.09,-0.11,0.0,h
4095.0,2899.0,3413.0,4048.0,4095.0,4095.0,2800.0,2634.0,9.84,2.17,2.78,0.03,-0.02,-0.12,0.0,h
4095.0,2899.0,3405.0,4063.0,4095.0,4095.0,2817.0,2638.0,9.75,2.01,2.85,0.09,0.07,-0.13,0.0,h
4095.0,2914.0,3409.0,4084.0,4095.0,4095.0,2811.0,2640.0,9.84,2.07,2.69,0.03,-0.02,-0.15,0.0,h
4095.0,2911.0,3411.0,4076.0,4095.0,4095.0,2811.0,2637.0,9.84,2.04,2.84,0.09,0.19,-0.13,0.0,h
4095.0,2909.0,3415.0,4095.0,4095.0,4095.0,2809.0,2640.0,9.8,2.04,2.9,0.1,0.14,-0.15,0.0,h
4095.0,2912.0,3409.0,4085.0,4095.0,4095.0,2807.0,2640.0,9.93,2.04,2.99,0.01,-0.04,-0.18,0.0,h
4095.0,2909.0,3408.0,4079.0,4095.0,4095.0,2804.0,2641.0,9.69,2.16,3.03,0.08,0.07,-0.19,0.0,h
4095.0,2911.0,3412.0,4095.0,4095.0,4095.0,2816.0,2643.0,9.59,2.04,3.08,0.03,-0.01,-0.17,0.0,h
4095.0,2922.0,3410.0,4093.0,4095.0,4095.0,2813.0,2638.0,9.79,2.25,2.9,0.09,0.04,-0.15,0.0,h
4095.0,2912.0,3420.0,4090.0,4095.0,4095.0,2811.0,2638.0,9.6,2.15,3.02,-0.02,-0.08,-0.17,0.0,h
4095.0,2909.0,3414.0,4080.0,4095.0,4095.0,2812.0,2643.0,9.79,2.11,2.87,0.03,0.04,-0.14,0.0,h
4095.0,2898.0,3402.0,4076.0,4095.0,4095.0,2802.0,2630.0,9.73,2.09,3.03,0.04,-0.09,-0.16,0.0,h
4095.0,2913.0,3408.0,4095.0,4095.0,4095.0,2803.0,2626.0,9.73,2.08,2.97,0.06,0.04,-0.15,0.0,h
4095.0,2913.0,3405.0,4062.0,4095.0,4095.0,2805.0,2636.0,9.82,2.15,2.97,0.05,-0.0,-0.19,0.0,h
4095.0,2906.0,3407.0,4094.0,4095.0,4095.0,2801.0,2633.0,9.73,1.98,3.02,0.01,-0.0,-0.19,0.0,h
