hall_1,hall_2,hall_3,flex_t,flex_i,flex_m,flex_r,flex_p,accel_x,accel_y,accel_z,gyro_x,gyro_y,gyro_z,hand,sign
1535.0,2983.0,1934.0,3135.0,4095.0,4095.0,3181.0,3150.0,8.64,3.56,5.23,-0.08,0.06,-0.33,0.0,h
1535.0,2979.0,1934.0,3136.0,4095.0,4095.0,3183.0,3146.0,8.49,3.44,5.27,-0.23,-0.01,-0.23,0.0,h
1535.0,2989.0,1931.0,3132.0,4095.0,4095.0,3181.0,3142.0,8.77,3.37,5.62,-0.26,-0.12,-0.22,0.0,h
1533.0,2992.0,1931.0,3137.0,4095.0,4095.0,3183.0,3149.0,8.99,3.17,5.72,-0.33,-0.11,-0.19,0.0,h
1535.0,2992.0,1936.0,3141.0,4095.0,4095.0,3180.0,3143.0,8.85,3.01,5.89,-0.34,-0.18,-0.17,0.0,h
1535.0,2978.0,1935.0,3138.0,4095.0,4095.0,3184.0,3149.0,8.13,2.9,5.9,-0.31,-0.18,0.0,0.0,h
1535.0,2981.0,1920.0,3139.0,4095.0,4095.0,3184.0,3147.0,9.01,2.32,6.33,-0.28,-0.31,0.06,0.0,h
1534.0,2995.0,1927.0,3147.0,4095.0,4095.0,3190.0,3149.0,9.35,2.17,6.73,-0.16,-0.26,0.1,0.0,h
1535.0,2977.0,1919.0,3143.0,4095.0,4095.0,3183.0,3142.0,10.06,1.95,6.69,0.01,-0.24,0.13,0.0,h
1533.0,2982.0,1927.0,3147.0,4095.0,4095.0,3185.0,3143.0,10.37,1.95,6.41,0.24,-0.2,0.03,0.0,h
1473.0,2976.0,1922.0,3140.0,4095.0,4095.0,3175.0,3137.0,10.26,1.92,5.95,0.41,-0.04,-0.07,0.0,h
1473.0,2978.0,1921.0,3137.0,4095.0,4095.0,3178.0,3141.0,10.14,2.15,5.77,0.58,-0.22,-0.09,0.0,h
1493.0,2977.0,1920.0,3143.0,4095.0,4095.0,3184.0,3141.0,9.65,2.27,5.35,0.39,-0.0,0.0,0.0,h
1488.0,2983.0,1930.0,3138.0,4095.0,4095.0,3186.0,3142.0,9.59,2.05,5.08,0.45,-0.16,-0.04,0.0,h
1501.0,2987.0,1925.0,3141.0,4095.0,4095.0,3187.0,3143.0,9.44,2.58,4.38,0.46,-0.08,0.06,0.0,h
1468.0,2992.0,1919.0,3146.0,4095.0,4095.0,3185.0,3147.0,9.71,2.39,4.05,0.35,-0.14,0.08,0.0,h
1445.0,2992.0,1918.0,3141.0,4095.0,4095.0,3197.0,3149.0,10.26,2.45,3.9,0.23,-0.06,0.03,0.0,h
1319.0,2980.0,1919.0,3142.0,4095.0,4095.0,3187.0,3147.0,9.97,2.37,3.96,0.2,-0.04,-0.12,0.0,h
1331.0,2982.0,1919.0,3151.0,4095.0,4095.0,3199.0,3147.0,9.6,2.14,3.98,-0.02,-0.05,-0.09,0.0,h
1375.0,2992.0,1920.0,3152.0,4095.0,4095.0,3184.0,3149.0,8.98,2.69,4.16,-0.08,0.09,0.03,0.0,h
1356.0,2992.0,1911.0,3161.0,4095.0,4095.0,3188.0,3149.0,9.58,2.37,4.53,-0.15,-0.15,0.07,0.0,h
1363.0,2992.0,1914.0,3165.0,4095.0,4095.0,3197.0,3149.0,10.37,2.43,4.87,-0.12,-0.17,0.03,0.0,h
1364.0,2984.0,1917.0,3165.0,4095.0,4095.0,3189.0,3145.0,10.83,2.29,4.98,-0.07,-0.05,-0.07,0.0,h
1371.0,2992.0,1910.0,3173.0,4095.0,4095.0,3191.0,3147.0,10.67,2.34,4.72,-0.06,-0.02,-0.2,0.0,h
1363.0,2991.0,1914.0,3173.0,4095.0,4095.0,3195.0,3139.0,9.87,2.27,4.29,-0.08,-0.11,-0.25,0.0,h
1365.0,2991.0,1927.0,3163.0,4095.0,4095.0,3189.0,3127.0,9.85,2.03,4.32,-0.13,-0.06,-0.22,0.0,h
1378.0,2985.0,1934.0,3169.0,4095.0,4095.0,3177.0,3125.0,9.82,2.1,4.54,-0.17,-0.05,-0.22,0.0,h
1373.0,2988.0,1917.0,3170.0,4095.0,4095.0,3151.0,3088.0,9.73,2.0,4.79,-0.12,0.07,-0.19,0.0,h
1370.0,2987.0,1943.0,3180.0,4095.0,4095.0,3093.0,3008.0,9.98,1.91,4.64,-0.13,-0.08,-0.23,0.0,h
1377.0,2977.0,2032.0,3182.0,4095.0,4095.0,3011.0,2868.0,9.94,1.98,4.56,-0.14,-0.04,-0.24,0.0,h
1371.0,2978.0,2074.0,3169.0,4095.0,4095.0,3024.0,2859.0,9.89,2.16,4.76,-0.03,0.06,-0.32,0.0,h
1371.0,2992.0,2090.0,3185.0,4095.0,4095.0,3023.0,2816.0,9.9,2.81,4.53,-0.14,-0.12,-0.23,0.0,h
1383.0,2992.0,2198.0,3150.0,4095.0,4091.0,3007.0,2740.0,9.97,2.86,4.21,0.14,-0.03,-0.35,0.0,h
1394.0,2988.0,2208.0,3123.0,4095.0,4055.0,3035.0,2754.0,9.72,2.88,4.29,-0.28,-0.1,-0.33,0.0,h
1393.0,2987.0,2212.0,3093.0,4095.0,4076.0,3035.0,2736.0,10.17,3.24,4.12,-0.31,0.02,-0.32,0.0,h
1399.0,2990.0,2224.0,3088.0,4095.0,4035.0,3071.0,2747.0,9.68,3.16,4.38,-0.32,-0.09,-0.38,0.0,h
1435.0,2983.0,2170.0,3145.0,4095.0,4059.0,3071.0,2788.0,9.76,2.86,4.73,-0.37,0.22,-0.37,0.0,h
1434.0,2975.0,1958.0,3198.0,4095.0,4077.0,3046.0,2877.0,9.4,3.08,4.79,-0.34,0.19,-0.42,0.0,h
1437.0,2987.0,1766.0,3271.0,4095.0,4095.0,3056.0,2942.0,9.43,3.17,5.69,-0.52,0.18,-0.27,0.0,h
1426.0,2976.0,1769.0,3269.0,4095.0,4090.0,3045.0,2883.0,9.34,3.16,5.08,-0.4,0.01,-0.32,0.0,h
1445.0,2992.0,1778.0,3216.0,4095.0,4006.0,3062.0,2883.0,9.76,3.4,4.96,-0.41,-0.06,-0.31,0.0,h
1498.0,2993.0,1948.0,3155.0,4095.0,3853.0,3024.0,2730.0,9.36,2.89,4.95,-0.63,0.11,-0.18,0.0,h
1523.0,2979.0,1978.0,3118.0,4095.0,3825.0,3053.0,2720.0,9.02,3.08,5.43,-0.56,0.04,-0.19,0.0,h
1626.0,2990.0,2041.0,3089.0,4095.0,3765.0,3060.0,2704.0,9.27,2.69,5.71,-0.49,-0.12,-0.2,0.0,h
1755.0,2993.0,2095.0,3085.0,4095.0,3679.0,3062.0,2672.0,9.11,2.89,5.21,-0.44,0.02,-0.18,0.0,h
1741.0,2992.0,2091.0,3101.0,4095.0,3714.0,3101.0,2719.0,9.41,2.98,5.19,-0.37,-0.06,-0.24,0.0,h
1733.0,2983.0,2098.0,3117.0,4095.0,3865.0,3108.0,2739.0,8.94,2.89,4.95,-0.56,-0.13,-0.12,0.0,h
1582.0,2989.0,2034.0,3143.0,4095.0,4095.0,3117.0,2785.0,9.51,2.53,5.56,-0.59,-0.19,-0.11,0.0,h
1477.0,2992.0,1952.0,3150.0,4095.0,4095.0,3123.0,2845.0,9.77,2.4,5.25,-0.72,-0.24,-0.01,0.0,h
1394.0,2982.0,1904.0,3162.0,4095.0,4095.0,3124.0,2884.0,10.37,2.25,5.37,-0.52,-0.25,-0.34,0.0,h
1325.0,2982.0,1886.0,3162.0,4095.0,4095.0,3131.0,2896.0,9.84,2.31,6.32,-0.44,0.03,-0.23,0.0,h
1328.0,2979.0,1892.0,3162.0,4095.0,4095.0,3123.0,2896.0,9.82,2.0,6.7,-0.34,-0.0,-0.15,0.0,h
1315.0,2981.0,1904.0,3165.0,4095.0,3880.0,3111.0,2896.0,9.42,2.11,6.27,-0.16,-0.06,-0.26,0.0,h
1373.0,2996.0,1903.0,3169.0,4067.0,3503.0,3090.0,2896.0,8.65,1.67,6.14,-0.11,-0.04,-0.18,0.0,h
1391.0,2982.0,1908.0,3171.0,4080.0,3401.0,3083.0,2896.0,9.11,2.4,5.53,-0.03,0.05,-0.05,0.0,h
1436.0,2986.0,1913.0,3121.0,4095.0,3498.0,3059.0,2897.0,9.84,2.36,6.07,-0.05,-0.01,-0.07,0.0,h
1442.0,2977.0,1899.0,3102.0,4095.0,3749.0,3050.0,2912.0,9.92,2.47,6.49,0.09,0.13,-0.2,0.0,h
1410.0,2981.0,1838.0,3120.0,4095.0,4095.0,3063.0,2971.0,9.6,2.55,6.6,0.27,0.14,-0.25,0.0,h
1417.0,2977.0,1819.0,3120.0,4095.0,4095.0,3093.0,3019.0,8.73,3.13,6.4,0.45,0.23,-0.1,0.0,h
1477.0,2992.0,1834.0,3133.0,4095.0,3919.0,3071.0,2988.0,9.24,2.41,6.61,0.28,-0.06,0.13,0.0,h
1584.0,2982.0,1856.0,3136.0,4095.0,3361.0,3061.0,2954.0,9.56,2.49,6.33,0.52,0.14,0.11,0.0,h
1797.0,2979.0,1845.0,3142.0,3883.0,3221.0,3054.0,2969.0,9.35,2.33,5.77,0.47,-0.27,0.05,0.0,h
1959.0,2986.0,1842.0,3138.0,3893.0,3181.0,3053.0,2978.0,10.32,2.03,5.51,0.68,-0.08,-0.01,0.0,h
1899.0,2975.0,1853.0,3143.0,3981.0,3327.0,3064.0,2986.0,9.74,2.42,4.98,0.29,0.12,0.01,0.0,h
1631.0,2983.0,1840.0,3148.0,4095.0,3786.0,3081.0,2998.0,10.59,2.58,5.06,0.5,0.2,-0.2,0.0,h
1606.0,2977.0,1824.0,3143.0,4095.0,4095.0,3092.0,3010.0,9.4,2.45,5.5,0.26,0.18,-0.16,0.0,h
1605.0,2985.0,1828.0,3150.0,4095.0,4095.0,3102.0,3021.0,9.8,2.37,5.96,0.3,0.08,-0.17,0.0,h
1591.0,2975.0,1814.0,3146.0,4095.0,4095.0,3102.0,3024.0,9.33,2.52,5.85,0.34,0.34,-0.09,0.0,h
1577.0,2992.0,1826.0,3155.0,4095.0,4095.0,3105.0,3024.0,9.77,2.35,6.34,0.45,0.18,-0.09,0.0,h
1593.0,2992.0,1818.0,3158.0,4095.0,4095.0,3109.0,3022.0,9.51,2.31,6.16,0.49,0.15,-0.04,0.0,h
1595.0,2974.0,1820.0,3152.0,4095.0,4095.0,3107.0,3030.0,9.4,2.42,5.94,0.58,0.14,-0.04,0.0,h
1585.0,2983.0,1810.0,3157.0,4095.0,4095.0,3119.0,3050.0,9.79,2.3,5.99,0.48,0.21,0.04,0.0,h
1581.0,2992.0,1811.0,3154.0,4095.0,4095.0,3127.0,3062.0,9.24,2.42,5.83,0.4,0.27,0.1,0.0,h
1577.0,2988.0,1803.0,3154.0,4095.0,4095.0,3135.0,3071.0,10.0,2.39,6.13,0.64,0.12,-0.08,0.0,h
1583.0,2977.0,1808.0,3150.0,4095.0,4095.0,3138.0,3085.0,10.09,2.26,5.94,0.48,0.06,-0.1,0.0,h
1579.0,2988.0,1809.0,3153.0,4095.0,4095.0,3137.0,3082.0,9.93,2.47,5.53,0.46,0.01,-0.21,0.0,h
1573.0,2989.0,1811.0,3154.0,4095.0,4095.0,3147.0,3088.0,9.94,2.63,5.26,0.34,-0.19,-0.27,0.0,h
1583.0,2994.0,1811.0,3152.0,4095.0,4095.0,3149.0,3082.0,9.83,2.82,5.38,0.16,0.17,-0.11,0.0,h
1590.0,2976.0,1821.0,3153.0,4095.0,4095.0,3149.0,3085.0,10.29,2.5,5.89,0.24,-0.17,-0.5,0.0,h
1583.0,2983.0,1829.0,3145.0,4095.0,4095.0,3146.0,3079.0,9.83,2.39,5.34,0.11,-0.0,-0.52,0.0,h
1578.0,2983.0,1849.0,3123.0,4095.0,4095.0,3132.0,3036.0,8.82,2.2,5.82,0.11,0.15,-0.47,0.0,h
1565.0,2981.0,1872.0,3121.0,4095.0,4095.0,3126.0,3008.0,8.86,2.56,5.82,0.24,0.09,-0.32,0.0,h
1577.0,2986.0,1889.0,3115.0,4095.0,4095.0,3111.0,2965.0,8.32,2.89,5.83,0.34,0.21,-0.14,0.0,h
1651.0,2977.0,2159.0,3065.0,4095.0,4095.0,3039.0,2797.0,8.74,2.95,5.27,0.24,0.02,0.14,0.0,h
1638.0,2983.0,2170.0,3054.0,4095.0,4066.0,3071.0,2822.0,8.93,3.1,5.19,0.35,0.13,0.02,0.0,h
1634.0,2991.0,2192.0,3024.0,4095.0,4016.0,3044.0,2769.0,9.45,3.15,5.48,0.2,-0.13,0.02,0.0,h
1630.0,2979.0,2211.0,3024.0,4095.0,3989.0,3044.0,2769.0,9.38,3.45,5.31,0.23,-0.04,-0.03,0.0,h
1663.0,2988.0,2237.0,3018.0,4095.0,3863.0,3040.0,2740.0,9.17,2.99,5.32,0.21,-0.14,-0.09,0.0,h
1679.0,2995.0,2286.0,2998.0,4095.0,3765.0,3031.0,2721.0,9.57,2.78,4.95,0.09,-0.01,-0.02,0.0,h
1664.0,2987.0,2304.0,2977.0,4095.0,3754.0,3030.0,2704.0,9.71,3.02,5.62,0.14,-0.17,-0.09,0.0,h
1683.0,2990.0,2359.0,3008.0,4095.0,3686.0,3021.0,2669.0,9.31,3.2,5.44,0.15,-0.21,-0.07,0.0,h
1739.0,2991.0,2430.0,2961.0,4095.0,3631.0,3014.0,2635.0,10.04,3.22,5.27,0.07,-0.08,-0.02,0.0,h
1728.0,2980.0,2433.0,2962.0,4095.0,3663.0,3033.0,2658.0,9.95,3.13,5.13,0.13,-0.13,-0.13,0.0,h
1726.0,2981.0,2421.0,2997.0,4095.0,3818.0,3062.0,2711.0,9.88,3.2,4.78,0.03,-0.03,-0.07,0.0,h
1763.0,2990.0,2409.0,3009.0,4095.0,3866.0,3069.0,2749.0,10.24,3.12,4.73,-0.0,-0.2,-0.1,0.0,h
1838.0,2975.0,2384.0,3111.0,4095.0,3856.0,2928.0,2805.0,9.87,2.94,4.8,0.06,-0.14,-0.16,0.0,h
1826.0,2981.0,2411.0,3169.0,4095.0,3952.0,2950.0,2848.0,9.45,2.72,4.78,-0.13,-0.14,-0.16,0.0,h
1822.0,2992.0,2432.0,3295.0,4095.0,3978.0,2948.0,2862.0,9.69,2.52,4.83,-0.09,0.09,-0.15,0.0,h
1839.0,2987.0,2434.0,3378.0,4095.0,3953.0,2970.0,2866.0,9.7,2.49,5.01,-0.12,-0.28,-0.24,0.0,h
1858.0,2974.0,2475.0,3373.0,4095.0,3899.0,2950.0,2838.0,9.36,2.75,5.23,0.03,-0.13,-0.2,0.0,h
1872.0,2985.0,2525.0,3365.0,4095.0,3824.0,2942.0,2832.0,9.49,2.56,5.06,-0.03,-0.06,-0.06,0.0,h
1912.0,2994.0,2597.0,3259.0,4095.0,3679.0,2918.0,2791.0,10.25,2.71,4.71,0.11,-0.01,-0.11,0.0,h
1939.0,2988.0,2636.0,3167.0,4095.0,3633.0,2910.0,2770.0,9.77,2.15,4.9,-0.03,-0.07,-0.13,0.0,h
1941.0,2971.0,2655.0,3105.0,4095.0,3634.0,2913.0,2759.0,9.7,2.3,4.81,-0.05,0.04,-0.19,0.0,h
1957.0,2971.0,2688.0,3097.0,4095.0,3662.0,2927.0,2749.0,9.37,2.21,5.16,0.06,-0.2,-0.24,0.0,h
1985.0,2995.0,2688.0,3099.0,4095.0,3678.0,2931.0,2747.0,9.03,2.41,4.99,0.05,0.01,-0.08,0.0,h
1984.0,2990.0,2703.0,3099.0,4095.0,3697.0,2937.0,2750.0,9.45,2.24,4.92,0.17,-0.16,-0.03,0.0,h
1978.0,2976.0,2704.0,3088.0,4095.0,3727.0,2953.0,2753.0,9.77,2.17,4.68,0.2,0.02,0.01,0.0,h
1974.0,2976.0,2694.0,3065.0,4095.0,3746.0,2970.0,2752.0,9.84,2.36,4.42,0.25,-0.08,-0.04,0.0,h
1967.0,2992.0,2704.0,3050.0,4095.0,3760.0,2995.0,2756.0,9.59,2.29,4.43,0.24,-0.16,-0.01,0.0,h
1970.0,2992.0,2707.0,3027.0,4095.0,3749.0,3018.0,2745.0,9.87,2.52,4.0,0.31,-0.05,-0.0,0.0,h
1961.0,2987.0,2693.0,2969.0,4095.0,3760.0,3029.0,2752.0,10.04,2.21,4.04,0.29,-0.07,-0.07,0.0,h
1968.0,2992.0,2699.0,2955.0,4095.0,3758.0,3040.0,2747.0,9.89,2.15,3.85,0.24,-0.15,-0.1,0.0,h
1961.0,2981.0,2695.0,2944.0,4095.0,3719.0,3049.0,2744.0,9.81,2.1,4.04,0.25,-0.13,-0.15,0.0,h
1968.0,2992.0,2691.0,2938.0,4095.0,3723.0,3057.0,2738.0,9.96,2.15,3.95,0.21,-0.21,-0.15,0.0,h
1970.0,2977.0,2699.0,2922.0,4095.0,3723.0,3065.0,2741.0,9.94,2.09,3.84,0.27,-0.08,-0.19,0.0,h
1968.0,2981.0,2698.0,2907.0,4095.0,3706.0,3066.0,2736.0,9.73,2.4,3.82,0.33,-0.12,-0.15,0.0,h
1971.0,2987.0,2689.0,2898.0,4095.0,3660.0,3059.0,2741.0,10.17,2.79,3.42,0.33,-0.09,-0.1,0.0,h
1987.0,2992.0,2702.0,2907.0,4095.0,3651.0,3068.0,2751.0,10.78,2.81,2.98,0.21,0.03,-0.13,0.0,h
1984.0,2988.0,2689.0,2912.0,4095.0,3652.0,3082.0,2742.0,10.27,2.58,3.28,0.09,0.02,-0.22,0.0,h
1981.0,2988.0,2694.0,2919.0,4095.0,3657.0,3085.0,2745.0,9.95,2.9,3.09,-0.06,-0.01,-0.22,0.0,h
1984.0,2990.0,2702.0,2915.0,4095.0,3650.0,3087.0,2751.0,9.69,3.09,3.3,-0.12,0.07,-0.22,0.0,h
1986.0,2977.0,2697.0,2922.0,4095.0,3654.0,3087.0,2754.0,9.42,3.31,3.25,-0.23,0.11,-0.18,0.0,h
1988.0,2983.0,2691.0,2928.0,4095.0,3664.0,3086.0,2751.0,9.57,3.17,3.05,-0.37,-0.04,-0.19,0.0,h
1983.0,2981.0,2686.0,2931.0,4095.0,3694.0,3088.0,2757.0,10.06,3.06,3.11,-0.44,0.02,-0.23,0.0,h
1958.0,2985.0,2686.0,2934.0,4095.0,3799.0,3083.0,2768.0,10.44,2.52,3.58,-0.64,-0.02,-0.33,0.0,h
1893.0,2988.0,2682.0,2945.0,4095.0,3935.0,3083.0,2774.0,10.84,2.44,3.79,-0.59,0.11,-0.45,0.0,h
1814.0,2985.0,2674.0,2957.0,4095.0,4095.0,3071.0,2791.0,10.41,2.42,4.42,-0.58,0.15,-0.51,0.0,h
1759.0,2981.0,2673.0,2959.0,4095.0,4095.0,3065.0,2812.0,10.37,2.65,3.93,-0.53,0.24,-0.51,0.0,h
1743.0,2991.0,2671.0,2965.0,4095.0,4095.0,3066.0,2818.0,9.99,2.91,4.37,-0.5,0.28,-0.5,0.0,h
1680.0,2987.0,2665.0,2970.0,4095.0,4095.0,3069.0,2830.0,9.87,2.97,4.24,-0.59,0.29,-0.46,0.0,h
1623.0,2988.0,2667.0,2976.0,4095.0,4095.0,3058.0,2832.0,8.65,2.9,4.42,-0.57,0.24,-0.56,0.0,h
1529.0,2989.0,2667.0,2989.0,4095.0,4095.0,3055.0,2854.0,8.48,2.94,5.04,-0.64,0.31,-0.38,0.0,h
1462.0,2982.0,2660.0,2991.0,4095.0,4095.0,3053.0,2858.0,8.51,3.15,5.42,-0.62,0.12,-0.3,0.0,h
1435.0,2979.0,2661.0,2991.0,4095.0,4095.0,3056.0,2861.0,8.65,2.98,5.92,-0.5,0.08,-0.33,0.0,h
1386.0,2990.0,2663.0,2997.0,4095.0,4095.0,3061.0,2862.0,8.4,2.99,6.16,-0.51,0.04,-0.25,0.0,h
1372.0,2991.0,2669.0,2997.0,4095.0,4095.0,3082.0,2862.0,8.47,2.95,6.15,-0.39,-0.06,-0.17,0.0,h
1357.0,2992.0,2663.0,2997.0,4095.0,4095.0,3088.0,2863.0,8.27,2.89,6.47,-0.31,-0.08,-0.1,0.0,h
1347.0,2976.0,2659.0,2993.0,4095.0,4095.0,3088.0,2864.0,8.54,2.6,6.72,-0.24,-0.1,0.0,0.0,h
1347.0,2981.0,2670.0,2981.0,4095.0,4095.0,3086.0,2858.0,8.21,2.66,6.39,-0.09,-0.19,0.05,0.0,h
1344.0,2992.0,2677.0,2985.0,4095.0,4095.0,3088.0,2862.0,8.32,2.53,6.35,0.08,-0.3,0.1,0.0,h
1360.0,2982.0,2670.0,2992.0,4095.0,4095.0,3088.0,2857.0,8.71,2.29,5.85,0.15,-0.27,0.18,0.0,h
1359.0,2991.0,2672.0,2994.0,4095.0,4095.0,3094.0,2861.0,9.47,2.53,5.79,0.26,-0.5,0.13,0.0,h
1363.0,2991.0,2673.0,2997.0,4095.0,4095.0,3088.0,2861.0,10.7,2.59,5.52,0.27,-0.59,0.08,0.0,h
1365.0,2982.0,2674.0,2995.0,4095.0,4095.0,3088.0,2865.0,10.53,2.77,5.1,0.38,-0.42,0.01,0.0,h
1367.0,2983.0,2672.0,3005.0,4095.0,4095.0,3091.0,2864.0,11.3,2.39,5.22,0.36,-0.2,0.0,0.0,h
1359.0,2991.0,2672.0,2999.0,4095.0,4095.0,3091.0,2864.0,11.2,2.87,4.9,0.46,-0.06,-0.08,0.0,h
1359.0,2976.0,2669.0,3003.0,4095.0,4095.0,3099.0,2866.0,10.82,2.76,4.77,0.49,0.13,-0.16,0.0,h
1360.0,2983.0,2666.0,2999.0,4095.0,4095.0,3089.0,2864.0,10.31,2.85,4.43,0.49,0.12,-0.24,0.0,h
1363.0,2986.0,2672.0,3002.0,4095.0,4095.0,3088.0,2864.0,10.0,2.78,4.6,0.46,0.21,-0.25,0.0,h
1355.0,2979.0,2666.0,3007.0,4095.0,4095.0,3089.0,2864.0,9.8,2.81,4.6,0.51,0.2,-0.28,0.0,h
1363.0,2983.0,2679.0,3009.0,4095.0,4095.0,3091.0,2870.0,9.77,3.07,4.43,0.55,0.14,-0.35,0.0,h
1363.0,2972.0,2672.0,3008.0,4095.0,4095.0,3082.0,2864.0,10.03,3.11,4.51,0.56,0.27,-0.36,0.0,h
1361.0,2978.0,2676.0,3009.0,4095.0,4095.0,3084.0,2871.0,9.89,3.1,4.37,0.51,0.12,-0.48,0.0,h
1374.0,2977.0,2672.0,3008.0,4095.0,4095.0,3071.0,2869.0,9.33,3.33,4.22,0.49,0.28,-0.45,0.0,h
1391.0,2992.0,2672.0,3011.0,4095.0,4095.0,3071.0,2866.0,9.42,3.84,3.98,0.35,0.26,-0.31,0.0,h
1382.0,2995.0,2672.0,3014.0,4095.0,4095.0,3065.0,2865.0,9.15,3.71,4.29,0.22,0.33,-0.18,0.0,h
1394.0,2981.0,2677.0,3018.0,4095.0,4095.0,3058.0,2864.0,9.14,3.68,4.09,0.17,0.29,-0.17,0.0,h
1394.0,2987.0,2673.0,3015.0,4095.0,4095.0,3056.0,2865.0,9.23,3.27,4.64,0.1,0.3,-0.19,0.0,h
1393.0,2992.0,2677.0,3021.0,4095.0,4095.0,3055.0,2869.0,8.56,3.34,4.8,0.07,0.32,-0.16,0.0,h
1404.0,2982.0,2672.0,3019.0,4095.0,4095.0,3047.0,2877.0,8.66,3.27,5.15,0.03,0.09,-0.17,0.0,h
1417.0,2993.0,2685.0,2903.0,4095.0,4095.0,3051.0,2874.0,8.11,3.4,5.0,0.04,0.1,-0.05,0.0,h
1407.0,2992.0,2675.0,2903.0,4095.0,4095.0,3043.0,2877.0,8.3,3.33,4.91,0.03,-0.0,0.09,0.0,h
1394.0,2989.0,2679.0,2912.0,4095.0,4095.0,3040.0,2879.0,9.0,3.07,5.02,0.01,-0.02,0.11,0.0,h
1372.0,2983.0,2679.0,2914.0,4095.0,4095.0,3041.0,2877.0,9.28,3.16,5.03,-0.0,-0.08,0.12,0.0,h
1367.0,2992.0,2677.0,2922.0,4095.0,4095.0,3029.0,2873.0,9.88,3.19,5.27,-0.01,-0.13,0.07,0.0,h
1362.0,2991.0,2686.0,2926.0,4095.0,4095.0,3036.0,2871.0,9.63,3.12,5.03,0.02,-0.14,-0.01,0.0,h
1343.0,2996.0,2679.0,2927.0,4095.0,4095.0,3040.0,2877.0,9.61,3.23,4.83,-0.08,-0.09,0.05,0.0,h
1363.0,2978.0,2675.0,2924.0,4095.0,4095.0,3042.0,2879.0,9.77,3.11,4.53,-0.03,-0.2,-0.07,0.0,h
1353.0,2987.0,2688.0,2927.0,4095.0,4095.0,3043.0,2878.0,9.57,3.19,4.25,-0.19,-0.18,-0.05,0.0,h
1373.0,2978.0,2678.0,2928.0,4095.0,4095.0,3043.0,2877.0,9.39,3.06,4.54,-0.31,-0.3,-0.15,0.0,h
1370.0,2991.0,2673.0,2928.0,4095.0,4095.0,3039.0,2877.0,9.04,3.09,4.23,-0.3,-0.22,-0.03,0.0,h
1370.0,2982.0,2673.0,2928.0,4095.0,4095.0,3035.0,2879.0,9.54,2.85,4.8,-0.42,-0.31,-0.0,0.0,h
1371.0,2979.0,2682.0,2928.0,4095.0,4095.0,3038.0,2881.0,10.2,2.79,4.83,-0.44,-0.26,-0.0,0.0,h
1373.0,2991.0,2681.0,2931.0,4095.0,4095.0,3034.0,2877.0,10.03,2.69,4.77,-0.38,-0.35,-0.09,0.0,h
1370.0,2991.0,2673.0,2935.0,4095.0,4095.0,3037.0,2877.0,9.96,2.52,4.8,-0.45,-0.18,0.01,0.0,h
1387.0,2978.0,2671.0,2928.0,4095.0,4095.0,3041.0,2882.0,10.52,2.42,4.84,-0.37,-0.14,0.01,0.0,h
1385.0,2975.0,2672.0,2928.0,4095.0,4095.0,3039.0,2881.0,11.28,2.24,5.19,-0.32,-0.16,-0.16,0.0,h
1403.0,2986.0,2672.0,2932.0,4095.0,4095.0,3035.0,2878.0,10.97,2.48,5.04,-0.23,0.01,-0.31,0.0,h
1413.0,2980.0,2674.0,2935.0,4095.0,4095.0,3035.0,2877.0,10.37,2.48,4.93,-0.14,0.06,-0.39,0.0,h
1412.0,2992.0,2683.0,2936.0,4095.0,4095.0,3043.0,2886.0,10.01,2.68,4.87,-0.1,0.22,-0.3,0.0,h
1413.0,2991.0,2672.0,2938.0,4095.0,4095.0,3042.0,2883.0,9.86,2.51,4.93,-0.06,0.15,-0.27,0.0,h
1399.0,2980.0,2680.0,2933.0,4095.0,4095.0,3039.0,2876.0,9.73,2.61,4.71,0.02,0.14,-0.34,0.0,h
1407.0,2989.0,2679.0,2931.0,4095.0,4095.0,3040.0,2878.0,9.46,2.7,4.37,-0.02,0.11,-0.32,0.0,h
1402.0,2977.0,2685.0,2935.0,4095.0,4095.0,3040.0,2880.0,9.29,2.62,4.2,-0.1,0.04,-0.32,0.0,h
1408.0,2985.0,2681.0,2938.0,4095.0,4095.0,3037.0,2882.0,9.22,2.69,4.46,-0.17,0.1,-0.25,0.0,h
1411.0,2979.0,2669.0,2939.0,4095.0,4095.0,3039.0,2885.0,9.39,2.57,4.82,-0.17,0.08,-0.23,0.0,h
1457.0,2975.0,2689.0,2935.0,4095.0,4095.0,3030.0,2886.0,9.69,2.47,5.12,-0.19,0.1,-0.2,0.0,h
1489.0,2976.0,2672.0,2935.0,4095.0,4095.0,3026.0,2882.0,9.73,2.43,5.31,-0.16,0.09,-0.24,0.0,h
1479.0,2977.0,2676.0,2941.0,4095.0,4095.0,3026.0,2880.0,9.6,2.27,5.57,-0.07,0.09,-0.25,0.0,h
1439.0,2986.0,2681.0,2943.0,4095.0,4095.0,3031.0,2885.0,9.44,2.41,5.76,-0.03,0.14,-0.19,0.0,h
1403.0,2983.0,2675.0,2945.0,4095.0,4095.0,3035.0,2879.0,9.17,2.64,5.77,0.08,0.14,-0.14,0.0,h
1418.0,2979.0,2682.0,2948.0,4095.0,4095.0,3035.0,2879.0,9.46,2.77,5.69,0.12,0.1,-0.09,0.0,h
1422.0,2985.0,2679.0,2948.0,4095.0,4095.0,3030.0,2880.0,9.37,3.25,5.62,0.33,0.04,-0.11,0.0,h
1417.0,2987.0,2681.0,2946.0,4095.0,4095.0,3037.0,2880.0,10.03,3.09,5.1,0.18,0.07,-0.07,0.0,h
1401.0,2978.0,2679.0,2945.0,4095.0,4095.0,3035.0,2882.0,9.96,2.86,5.16,0.06,0.2,-0.05,0.0,h
1395.0,2993.0,2683.0,2957.0,4095.0,4095.0,3034.0,2880.0,9.42,2.83,5.55,0.01,0.13,-0.11,0.0,h
1370.0,2987.0,2672.0,2951.0,4095.0,4095.0,3041.0,2885.0,9.59,3.31,5.86,0.06,0.17,-0.1,0.0,h
1358.0,2991.0,2669.0,2954.0,4095.0,4095.0,3033.0,2895.0,11.26,3.68,6.26,-0.14,0.79,0.32,0.0,h
1329.0,2983.0,2665.0,2954.0,4095.0,4095.0,3041.0,2916.0,10.48,2.3,6.01,0.11,0.28,-0.29,0.0,h
1333.0,2991.0,2671.0,2958.0,4095.0,4095.0,3046.0,2919.0,8.81,2.7,5.47,0.05,0.11,-0.45,0.0,h
1342.0,2979.0,2661.0,2958.0,4095.0,4095.0,3046.0,2915.0,8.07,2.62,5.78,-0.07,0.41,-0.29,0.0,h
1358.0,2983.0,2665.0,2969.0,4095.0,4095.0,3053.0,2918.0,8.17,2.4,6.04,-0.09,0.0,-0.29,0.0,h
1359.0,2981.0,2663.0,2960.0,4095.0,4095.0,3051.0,2922.0,8.49,2.22,6.4,-0.06,0.09,-0.21,0.0,h
1455.0,2989.0,2662.0,2965.0,4095.0,4095.0,3047.0,2924.0,8.85,2.04,7.13,-0.02,0.04,-0.09,0.0,h
2007.0,2981.0,2669.0,2969.0,4095.0,4095.0,3051.0,2928.0,8.97,2.6,7.05,0.08,-0.01,-0.07,0.0,h
2126.0,2985.0,2661.0,2966.0,4095.0,4095.0,3043.0,2928.0,9.58,2.98,7.3,0.28,0.02,-0.13,0.0,h
1951.0,2992.0,2668.0,2973.0,4095.0,4095.0,3041.0,2927.0,9.54,3.02,6.74,0.47,-0.05,-0.26,0.0,h
1782.0,2992.0,2674.0,2971.0,4095.0,4095.0,3038.0,2928.0,8.99,3.18,6.01,0.36,-0.01,-0.22,0.0,h
1763.0,2988.0,2669.0,2971.0,4095.0,4095.0,3037.0,2924.0,9.15,3.15,5.9,0.23,-0.12,-0.18,0.0,h
1695.0,2986.0,2674.0,2973.0,4095.0,4095.0,3030.0,2917.0,9.18,2.96,6.1,0.18,-0.06,-0.17,0.0,h
1552.0,2990.0,2682.0,2963.0,4095.0,4095.0,3034.0,2921.0,9.0,3.29,5.94,0.17,-0.18,-0.21,0.0,h
1518.0,2994.0,2677.0,2977.0,4095.0,4095.0,3035.0,2923.0,9.05,3.11,6.06,0.22,-0.06,-0.15,0.0,h
1497.0,2990.0,2673.0,2975.0,4095.0,4095.0,3037.0,2919.0,8.96,3.57,5.86,0.21,-0.14,-0.05,0.0,h
1457.0,2980.0,2672.0,2973.0,4095.0,4095.0,3031.0,2924.0,8.67,3.81,5.62,0.23,-0.27,-0.01,0.0,h
1431.0,2991.0,2669.0,2974.0,4095.0,4095.0,3031.0,2917.0,9.0,4.41,4.77,0.25,-0.29,-0.01,0.0,h
1430.0,2985.0,2678.0,2974.0,4095.0,4095.0,3027.0,2917.0,9.28,4.05,4.31,-0.07,-0.38,-0.03,0.0,h
1419.0,2981.0,2676.0,2975.0,4095.0,4095.0,3044.0,2928.0,9.45,3.75,4.56,-0.25,-0.26,0.07,0.0,h
1392.0,2985.0,2677.0,2975.0,4095.0,4095.0,3045.0,2928.0,10.67,3.21,5.85,-0.32,-0.24,0.02,0.0,h
1366.0,2979.0,2673.0,2979.0,4095.0,4095.0,3039.0,2927.0,11.37,3.75,6.15,-0.31,-0.03,-0.05,0.0,h
1367.0,2976.0,2672.0,2961.0,4095.0,4095.0,3044.0,2927.0,11.55,3.24,5.72,-0.17,-0.03,-0.25,0.0,h
1344.0,2992.0,2686.0,2977.0,4095.0,4095.0,3046.0,2929.0,10.23,3.07,5.2,-0.22,0.12,-0.29,0.0,h
1335.0,2994.0,2682.0,2975.0,4095.0,4095.0,3048.0,2928.0,9.6,3.37,5.14,-0.33,0.21,-0.26,0.0,h
1341.0,2985.0,2671.0,2974.0,4095.0,4095.0,3039.0,2931.0,9.49,2.83,5.56,-0.41,0.2,-0.34,0.0,h
1342.0,2986.0,2678.0,2975.0,4095.0,4095.0,3047.0,2931.0,9.34,3.0,5.54,-0.35,0.12,-0.4,0.0,h
1339.0,2992.0,2675.0,2983.0,4095.0,4095.0,3047.0,2928.0,8.72,3.14,5.41,-0.34,0.04,-0.42,0.0,h
1351.0,2991.0,2674.0,2979.0,4095.0,4095.0,3040.0,2935.0,8.44,2.91,5.53,-0.41,-0.03,-0.3,0.0,h
1862.0,2988.0,3549.0,3184.0,4095.0,4095.0,3227.0,2886.0,9.21,3.72,5.6,0.05,0.08,-0.15,0.0,h
1859.0,2992.0,3537.0,3179.0,4095.0,4095.0,3232.0,2889.0,9.28,3.68,5.74,0.02,-0.0,-0.16,0.0,h
1858.0,2992.0,3555.0,3175.0,4095.0,4095.0,3235.0,2887.0,9.55,3.76,5.61,0.06,-0.01,-0.16,0.0,h
1864.0,2991.0,3555.0,3183.0,4095.0,4095.0,3232.0,2892.0,9.55,3.69,5.88,0.15,0.19,-0.18,0.0,h
1792.0,2989.0,3547.0,3186.0,4095.0,4095.0,3238.0,2895.0,9.41,3.6,5.92,0.15,0.31,-0.16,0.0,h
1583.0,2992.0,3556.0,3190.0,4095.0,4095.0,3231.0,2891.0,9.0,3.46,6.0,0.21,0.24,-0.17,0.0,h
1571.0,2990.0,3561.0,3182.0,4095.0,4095.0,3223.0,2890.0,8.75,3.64,5.79,0.32,0.15,-0.1,0.0,h
1519.0,2990.0,3536.0,3153.0,4095.0,4095.0,3152.0,2803.0,9.07,4.42,4.92,0.4,0.36,-0.03,0.0,h
1506.0,2981.0,3511.0,3161.0,4095.0,4095.0,3149.0,2816.0,9.55,3.12,6.64,-0.09,0.16,0.01,0.0,h
1487.0,2992.0,3504.0,3133.0,4095.0,4095.0,3136.0,2800.0,9.18,2.94,6.83,0.12,0.08,-0.09,0.0,h
1483.0,2979.0,3489.0,3139.0,4095.0,4095.0,3120.0,2791.0,9.59,3.39,6.72,0.4,0.16,-0.1,0.0,h
1471.0,2987.0,3488.0,3136.0,4095.0,4095.0,3071.0,2798.0,9.65,4.26,6.81,0.49,0.33,-0.09,0.0,h
1419.0,2992.0,3479.0,3136.0,4095.0,4087.0,3067.0,2774.0,9.25,4.62,5.86,0.01,0.31,0.05,0.0,h
1424.0,2992.0,3494.0,3165.0,4095.0,4095.0,3098.0,2799.0,8.65,4.88,6.54,0.04,0.2,-0.14,0.0,h
1355.0,2994.0,3459.0,3161.0,4095.0,4095.0,3117.0,2810.0,8.84,5.3,5.94,-0.52,0.05,-0.12,0.0,h
1351.0,2997.0,3467.0,3152.0,4095.0,4095.0,3135.0,2817.0,8.14,3.53,5.96,-0.54,-0.12,-0.47,0.0,h
1358.0,2995.0,3465.0,3142.0,4095.0,4095.0,3141.0,2818.0,8.44,2.56,6.6,-0.72,-0.39,-0.43,0.0,h
1360.0,2992.0,3469.0,3176.0,4095.0,4095.0,3152.0,2829.0,9.15,2.15,6.75,-0.54,-0.34,-0.14,0.0,h
1366.0,2992.0,3470.0,3182.0,4095.0,4095.0,3163.0,2832.0,9.64,1.47,7.97,-0.09,-0.44,-0.16,0.0,h
1360.0,2987.0,3475.0,3184.0,4095.0,4095.0,3159.0,2832.0,9.72,2.77,7.24,0.67,-0.12,0.11,0.0,h
1366.0,2983.0,3466.0,3175.0,4095.0,4095.0,3157.0,2831.0,9.8,3.78,5.34,0.67,-0.02,-0.02,0.0,h
1366.0,2988.0,3463.0,3173.0,4095.0,4095.0,3174.0,2832.0,9.26,3.9,5.65,0.4,0.06,-0.14,0.0,h
1373.0,2989.0,3469.0,3153.0,4095.0,4095.0,3175.0,2835.0,9.45,3.67,5.79,0.46,0.13,-0.1,0.0,h
1362.0,2990.0,3469.0,3163.0,4095.0,4095.0,3169.0,2841.0,9.21,3.97,5.21,0.38,0.07,-0.21,0.0,h
1373.0,2995.0,3472.0,3166.0,4095.0,4095.0,3169.0,2843.0,8.92,3.8,5.59,0.23,0.05,-0.25,0.0,h
1344.0,2983.0,3465.0,3163.0,4095.0,4095.0,3169.0,2846.0,8.76,4.14,5.25,0.17,-0.09,-0.23,0.0,h
1361.0,2991.0,3456.0,3168.0,4095.0,4095.0,3171.0,2849.0,9.12,4.38,5.43,-0.02,-0.22,-0.18,0.0,h
1360.0,2987.0,3472.0,3167.0,4095.0,4095.0,3171.0,2854.0,10.22,4.66,5.46,0.06,-0.13,-0.44,0.0,h
1367.0,2999.0,3459.0,3164.0,4095.0,4095.0,3184.0,2864.0,8.65,4.99,4.74,-0.37,-0.13,-0.35,0.0,h
1374.0,2987.0,3473.0,3159.0,4095.0,4095.0,3186.0,2864.0,8.64,4.49,5.17,-0.49,-0.19,-0.18,0.0,h
1393.0,2997.0,3463.0,3143.0,4095.0,4095.0,3174.0,2850.0,8.56,4.15,4.84,-0.36,-0.37,-0.34,0.0,h
1376.0,2992.0,3462.0,3134.0,4095.0,4095.0,3184.0,2861.0,8.37,4.07,4.63,-0.42,-0.24,-0.03,0.0,h
1391.0,2987.0,3466.0,3146.0,4095.0,4095.0,3187.0,2864.0,9.79,3.04,5.55,-0.36,-0.33,0.01,0.0,h
1392.0,2992.0,3477.0,3143.0,4095.0,4095.0,3177.0,2863.0,9.61,3.28,5.46,0.05,-0.15,-0.11,0.0,h
1382.0,2998.0,3491.0,3152.0,4095.0,4095.0,3181.0,2864.0,9.63,3.61,5.05,0.26,0.04,0.01,0.0,h
1338.0,2995.0,3515.0,3152.0,4095.0,4095.0,3184.0,2859.0,9.87,3.28,5.13,0.08,0.74,0.35,0.0,h
1328.0,2977.0,3504.0,3159.0,4095.0,4095.0,3191.0,2866.0,9.51,3.33,5.65,0.38,-0.02,-0.08,0.0,h
1328.0,2989.0,3505.0,3165.0,4095.0,4095.0,3198.0,2867.0,9.76,3.24,5.36,0.45,0.32,-0.0,0.0,h
1313.0,2978.0,3520.0,3163.0,4095.0,4095.0,3196.0,2874.0,9.47,3.22,5.17,0.44,0.28,-0.08,0.0,h
1312.0,2991.0,3505.0,3165.0,4095.0,4095.0,3179.0,2862.0,9.28,3.25,5.29,0.4,0.21,-0.17,0.0,h
1328.0,2992.0,3500.0,3171.0,4095.0,4095.0,3193.0,2865.0,8.81,3.73,5.47,0.19,0.07,-0.2,0.0,h
1328.0,2999.0,3503.0,3171.0,4095.0,4095.0,3191.0,2867.0,8.94,3.77,5.37,0.24,0.01,-0.18,0.0,h
1315.0,2976.0,3506.0,3170.0,4095.0,4095.0,3195.0,2875.0,9.01,3.79,5.18,0.0,-0.08,-0.07,0.0,h
1328.0,2989.0,3504.0,3176.0,4095.0,4095.0,3199.0,2871.0,9.57,3.47,5.72,-0.05,-0.25,-0.21,0.0,h
1328.0,2979.0,3502.0,3175.0,4095.0,4095.0,3191.0,2864.0,9.54,3.61,5.35,-0.07,-0.21,-0.23,0.0,h
1347.0,2981.0,3513.0,3171.0,4095.0,4095.0,3185.0,2863.0,9.46,3.84,5.51,-0.08,-0.0,-0.15,0.0,h
1341.0,2982.0,3487.0,3177.0,4095.0,4095.0,3193.0,2872.0,9.35,3.94,5.25,-0.19,-0.08,-0.17,0.0,h
1293.0,2979.0,3504.0,3168.0,4095.0,4095.0,3187.0,2866.0,9.51,3.5,5.33,-0.34,0.11,-0.11,0.0,h
1333.0,2998.0,3501.0,3175.0,4095.0,4095.0,3194.0,2880.0,9.6,3.45,5.56,-0.18,-0.03,-0.33,0.0,h
1334.0,2989.0,3501.0,3175.0,4095.0,4095.0,3196.0,2882.0,9.24,3.44,5.47,-0.28,-0.01,-0.26,0.0,h
1317.0,2992.0,3504.0,3179.0,4095.0,4095.0,3201.0,2887.0,9.07,3.75,5.6,-0.25,-0.03,-0.19,0.0,h
1307.0,2982.0,3518.0,3187.0,4095.0,4095.0,3207.0,2896.0,9.26,3.76,5.43,-0.33,-0.07,-0.18,0.0,h
1315.0,2994.0,3517.0,3184.0,4095.0,4095.0,3216.0,2899.0,9.12,3.6,5.65,-0.45,-0.06,-0.12,0.0,h
1375.0,2992.0,3503.0,3182.0,4095.0,4095.0,3214.0,2903.0,9.32,3.26,5.96,-0.48,-0.19,-0.16,0.0,h
1462.0,2989.0,3504.0,3189.0,4095.0,4095.0,3216.0,2903.0,9.38,3.4,5.93,-0.44,0.01,0.03,0.0,h
1758.0,2987.0,3510.0,3188.0,4095.0,4095.0,3207.0,2903.0,9.49,3.21,5.84,-0.48,-0.09,-0.08,0.0,h
2233.0,2983.0,3504.0,3185.0,4095.0,4095.0,3214.0,2907.0,9.38,2.97,5.97,-0.4,-0.13,-0.2,0.0,h
2243.0,2986.0,3514.0,3184.0,4095.0,4095.0,3216.0,2917.0,9.45,2.6,6.62,-0.39,-0.2,-0.22,0.0,h
2271.0,2998.0,3527.0,3193.0,4095.0,4095.0,3217.0,2912.0,10.01,2.87,6.5,-0.11,0.06,-0.28,0.0,h
2167.0,2986.0,3524.0,3187.0,4095.0,4095.0,3227.0,2915.0,9.77,2.83,6.61,0.14,0.48,-0.24,0.0,h
2059.0,2985.0,3513.0,3193.0,4095.0,4095.0,3226.0,2901.0,8.93,2.78,6.7,-0.16,-0.08,-0.37,0.0,h
2078.0,2992.0,3510.0,3195.0,4095.0,4095.0,3223.0,2915.0,9.3,2.9,7.19,0.03,0.17,-0.2,0.0,h
2080.0,2982.0,3522.0,3191.0,4095.0,4095.0,3223.0,2917.0,9.37,2.82,7.53,0.08,0.13,-0.28,0.0,h
2133.0,2998.0,3517.0,3194.0,4095.0,4095.0,3226.0,2913.0,8.66,3.34,7.0,0.26,0.31,-0.1,0.0,h
2127.0,2992.0,3515.0,3187.0,4095.0,4095.0,3219.0,2918.0,9.43,3.19,7.29,0.46,0.07,-0.08,0.0,h
2131.0,2986.0,3526.0,3185.0,4095.0,4095.0,3235.0,2919.0,9.34,3.75,6.59,0.13,0.17,-0.25,0.0,h
2107.0,2994.0,3529.0,3199.0,4095.0,4095.0,3227.0,2918.0,8.29,3.24,6.8,-0.0,0.36,-0.01,0.0,h
2138.0,2987.0,3529.0,3203.0,4095.0,4095.0,3220.0,2916.0,8.63,2.77,6.98,-0.03,-0.17,0.12,0.0,h
2176.0,2991.0,3525.0,3229.0,4095.0,4095.0,3243.0,2923.0,9.52,2.72,8.04,0.41,-0.17,-0.12,0.0,h
2214.0,2979.0,3526.0,3217.0,4095.0,4095.0,3248.0,2926.0,9.73,3.5,7.49,0.57,-0.01,-0.09,0.0,h
2253.0,2980.0,3533.0,3131.0,4095.0,4095.0,3204.0,2901.0,9.91,4.04,7.18,0.19,0.42,0.07,0.0,h
2267.0,2985.0,3538.0,3154.0,4095.0,4095.0,3237.0,2914.0,9.39,3.69,7.71,0.31,0.39,-0.23,0.0,h
2265.0,2992.0,3525.0,3150.0,4095.0,4095.0,3248.0,2919.0,8.88,3.33,7.83,0.29,0.21,-0.41,0.0,h
2318.0,2991.0,3531.0,3166.0,4095.0,4095.0,3248.0,2928.0,8.65,3.37,7.25,0.39,0.28,-0.34,0.0,h
2503.0,2973.0,3521.0,3143.0,4095.0,4095.0,3252.0,2926.0,8.29,3.66,7.81,0.57,0.03,-0.41,0.0,h
2510.0,2997.0,3509.0,3165.0,4095.0,4095.0,3255.0,2922.0,8.22,4.3,7.46,0.46,0.17,-0.24,0.0,h
2512.0,2974.0,3507.0,3161.0,4095.0,4095.0,3255.0,2925.0,7.64,4.87,6.7,0.28,-0.03,-0.13,0.0,h
2508.0,2989.0,3510.0,3152.0,4095.0,4095.0,3255.0,2922.0,8.06,4.76,7.02,-0.14,-0.26,-0.06,0.0,h
2499.0,2991.0,3509.0,3164.0,4095.0,4095.0,3265.0,2928.0,8.93,4.31,7.73,-0.06,-0.16,-0.11,0.0,h
2486.0,2979.0,3518.0,3157.0,4095.0,4095.0,3259.0,2927.0,8.3,4.42,7.21,0.01,-0.06,-0.08,0.0,h
2347.0,2999.0,3537.0,3177.0,4095.0,4095.0,3249.0,2934.0,8.5,3.91,7.56,-0.05,-0.3,-0.11,0.0,h
2261.0,2975.0,3519.0,3173.0,4095.0,4095.0,3248.0,2937.0,8.32,3.95,7.14,0.17,-0.3,-0.07,0.0,h
2263.0,2989.0,3537.0,3181.0,4095.0,4095.0,3253.0,2943.0,8.96,3.98,6.56,0.34,-0.18,0.06,0.0,h
2319.0,2990.0,3530.0,3194.0,4095.0,4095.0,3245.0,2943.0,8.76,3.93,5.9,0.2,-0.34,0.01,0.0,h
2307.0,2973.0,3523.0,3191.0,4095.0,4095.0,3259.0,2946.0,9.51,3.52,6.27,0.16,-0.23,0.1,0.0,h
2321.0,2992.0,3506.0,3169.0,4095.0,4095.0,3263.0,2948.0,9.79,3.68,5.9,0.17,-0.21,0.06,0.0,h
2310.0,2981.0,3514.0,3169.0,4095.0,4095.0,3261.0,2944.0,9.48,3.89,5.39,0.2,0.14,0.08,0.0,h
2291.0,2995.0,3517.0,3184.0,4095.0,4095.0,3265.0,2943.0,10.1,2.88,6.5,-0.07,-0.03,0.01,0.0,h
2329.0,2987.0,3525.0,3195.0,4095.0,4095.0,3248.0,2939.0,9.85,2.94,6.36,0.28,0.32,-0.2,0.0,h
2320.0,2992.0,3536.0,3181.0,4095.0,4095.0,3217.0,2893.0,9.14,3.28,6.31,0.32,0.54,-0.16,0.0,h
2323.0,2991.0,3540.0,3175.0,4095.0,4095.0,3216.0,2887.0,9.61,3.43,6.56,0.13,0.38,-0.17,0.0,h
2330.0,2982.0,3519.0,3200.0,4095.0,4095.0,3238.0,2915.0,9.16,3.53,6.71,0.01,0.36,-0.26,0.0,h
2325.0,2992.0,3534.0,3203.0,4095.0,4095.0,3238.0,2913.0,8.1,4.08,7.29,-0.17,0.24,-0.13,0.0,h
2326.0,2992.0,3521.0,3199.0,4095.0,4095.0,3223.0,2910.0,9.33,3.58,6.62,0.02,0.25,-0.02,0.0,h
2320.0,2978.0,3535.0,3209.0,4095.0,4095.0,3242.0,2919.0,9.16,3.0,7.49,-0.07,0.05,-0.37,0.0,h
2326.0,2978.0,3520.0,3214.0,4095.0,4095.0,3237.0,2921.0,9.07,3.46,7.62,0.07,0.09,-0.49,0.0,h
2315.0,2987.0,3519.0,3219.0,4095.0,4095.0,3249.0,2928.0,8.03,4.41,7.36,-0.0,0.06,-0.43,0.0,h
2311.0,2998.0,3519.0,3216.0,4095.0,4095.0,3245.0,2928.0,8.24,4.42,7.2,-0.2,-0.01,-0.27,0.0,h
2318.0,2985.0,3517.0,3211.0,4095.0,4095.0,3248.0,2928.0,8.41,3.9,7.28,-0.38,-0.15,-0.3,0.0,h
2307.0,2990.0,3530.0,3222.0,4095.0,4095.0,3255.0,2929.0,8.26,3.23,7.56,-0.44,-0.25,-0.25,0.0,h
2314.0,2993.0,3526.0,3228.0,4095.0,4095.0,3251.0,2927.0,8.48,2.65,8.26,-0.2,-0.24,-0.11,0.0,h
2313.0,2987.0,3529.0,3215.0,4095.0,4095.0,3248.0,2934.0,8.72,2.88,7.82,0.31,-0.25,-0.09,0.0,h
2321.0,2983.0,3523.0,3210.0,4095.0,4095.0,3250.0,2927.0,9.01,3.35,7.09,0.35,-0.2,0.08,0.0,h
2319.0,2992.0,3520.0,3203.0,4095.0,4095.0,3254.0,2943.0,9.3,3.89,6.53,0.34,-0.24,-0.1,0.0,h
2308.0,2992.0,3526.0,3167.0,4095.0,4095.0,3248.0,2929.0,8.52,4.71,5.66,0.23,-0.36,-0.29,0.0,h
2315.0,3002.0,3518.0,3109.0,4095.0,4095.0,3207.0,2911.0,8.8,4.63,6.31,-0.06,-0.15,0.06,0.0,h
2305.0,2992.0,3523.0,3122.0,4095.0,4095.0,3215.0,2915.0,9.26,3.93,6.41,-0.2,-0.38,0.01,0.0,h
2315.0,2995.0,3518.0,3138.0,4095.0,4095.0,3218.0,2921.0,8.68,3.5,5.75,-0.07,-0.84,-0.04,0.0,h
2317.0,2983.0,3523.0,3136.0,4095.0,4095.0,3219.0,2919.0,10.83,3.63,5.04,-0.25,-0.39,-0.14,0.0,h
2314.0,2990.0,3523.0,3147.0,4095.0,4095.0,3225.0,2919.0,10.33,3.15,5.29,-0.33,0.08,-0.07,0.0,h
2303.0,2992.0,3515.0,3157.0,4095.0,4095.0,3232.0,2925.0,9.01,3.09,5.51,-0.26,1.13,0.43,0.0,h
2288.0,2985.0,3509.0,3155.0,4095.0,4095.0,3248.0,2928.0,9.55,2.47,6.44,-0.44,-0.08,-0.13,0.0,h
2293.0,2983.0,3507.0,3165.0,4095.0,4095.0,3233.0,2931.0,10.33,2.2,7.04,-0.18,-0.09,-0.44,0.0,h
2289.0,2994.0,3522.0,3171.0,4095.0,4095.0,3241.0,2928.0,9.56,2.71,6.33,-0.07,0.23,-0.32,0.0,h
2303.0,2979.0,3514.0,3143.0,4095.0,4095.0,3239.0,2929.0,9.75,2.89,6.73,-0.11,-0.0,-0.34,0.0,h
2304.0,2995.0,3507.0,3152.0,4095.0,4095.0,3239.0,2934.0,9.06,2.85,6.67,0.03,0.54,-0.23,0.0,h
2303.0,2992.0,3512.0,3171.0,4095.0,4095.0,3248.0,2937.0,8.75,2.51,7.47,0.13,0.26,-0.32,0.0,h
2295.0,2992.0,3504.0,3171.0,4095.0,4095.0,3245.0,2930.0,8.47,3.59,6.0,0.24,-0.27,-0.66,0.0,h
2271.0,2993.0,3502.0,3148.0,4095.0,4095.0,3227.0,2928.0,8.21,3.47,6.57,0.14,-0.09,-0.17,0.0,h
2263.0,2994.0,3499.0,3149.0,4095.0,4095.0,3239.0,2935.0,9.36,3.37,7.37,0.22,0.01,0.12,0.0,h
2256.0,2978.0,3504.0,3152.0,4095.0,4095.0,3248.0,2941.0,9.43,3.93,7.29,0.31,0.12,0.12,0.0,h
2259.0,2989.0,3494.0,3145.0,4095.0,4095.0,3250.0,2939.0,9.29,4.48,7.14,0.3,0.29,0.13,0.0,h
2272.0,2991.0,3497.0,3152.0,4095.0,4095.0,3249.0,2941.0,9.28,3.99,6.88,0.16,0.23,-0.22,0.0,h
2304.0,2987.0,3501.0,3174.0,4095.0,4095.0,3254.0,2949.0,8.88,3.67,7.12,0.04,0.22,-0.29,0.0,h
2299.0,2990.0,3500.0,3177.0,4095.0,4095.0,3261.0,2956.0,9.15,3.32,6.56,0.03,-0.04,-0.27,0.0,h
2154.0,2994.0,3511.0,3175.0,4095.0,4095.0,3257.0,2959.0,8.79,3.25,7.25,-0.06,0.04,-0.12,0.0,h
2047.0,2989.0,3518.0,3182.0,4095.0,4095.0,3260.0,2961.0,8.64,3.4,7.45,0.17,0.03,-0.13,0.0,h
1799.0,2992.0,3526.0,3175.0,4095.0,4095.0,3263.0,2960.0,8.65,3.56,7.21,0.13,-0.07,-0.14,0.0,h
1357.0,2981.0,3527.0,3183.0,4095.0,4095.0,3275.0,2962.0,8.69,3.56,7.36,0.08,-0.09,-0.12,0.0,h
1415.0,2995.0,3550.0,3172.0,4095.0,4095.0,3275.0,2970.0,9.17,3.43,7.5,0.16,0.08,0.02,0.0,h
1344.0,2989.0,3535.0,3168.0,4095.0,4095.0,3283.0,2975.0,9.28,3.49,7.55,0.14,0.19,0.04,0.0,h
1249.0,2991.0,3520.0,3163.0,4095.0,4095.0,3281.0,2975.0,9.29,3.53,7.23,0.18,0.15,0.02,0.0,h
1217.0,2992.0,3523.0,3058.0,4095.0,4095.0,3279.0,2975.0,9.36,3.53,6.99,0.12,0.19,-0.03,0.0,h
1202.0,2990.0,3425.0,3119.0,4095.0,4095.0,2926.0,2744.0,8.53,3.3,7.42,-0.07,0.07,-0.06,0.0,h
1203.0,2982.0,3394.0,3163.0,4095.0,4095.0,2875.0,2704.0,9.16,3.34,7.19,0.07,-0.04,-0.25,0.0,h
1191.0,2981.0,3331.0,3189.0,4095.0,4095.0,2811.0,2640.0,9.07,3.44,7.31,-0.09,-0.19,-0.32,0.0,h
1188.0,2990.0,3277.0,3184.0,4095.0,4095.0,2815.0,2603.0,8.77,3.68,7.24,-0.07,-0.16,-0.25,0.0,h
1181.0,2987.0,3261.0,3184.0,4095.0,4095.0,2873.0,2580.0,8.75,3.61,7.38,0.11,-0.04,-0.23,0.0,h
1177.0,2997.0,3237.0,3173.0,4095.0,4095.0,2867.0,2550.0,8.78,3.42,7.47,0.09,0.1,-0.17,0.0,h
1187.0,2983.0,3239.0,3169.0,4095.0,4095.0,2899.0,2609.0,8.96,3.38,7.55,0.12,0.24,-0.05,0.0,h
1201.0,2992.0,3242.0,3271.0,4095.0,4095.0,2896.0,2685.0,8.58,3.19,7.58,-0.57,-0.28,-0.09,0.0,h
1866.0,3004.0,3261.0,3277.0,4095.0,3909.0,2890.0,2694.0,9.02,2.83,7.98,0.11,-0.16,-0.13,0.0,h
2075.0,2996.0,3280.0,3251.0,4095.0,4095.0,2906.0,2704.0,9.17,3.16,7.51,-0.02,-0.05,-0.13,0.0,h
2155.0,2987.0,3293.0,3312.0,4095.0,4095.0,2896.0,2717.0,9.13,3.27,7.16,-0.04,0.05,-0.02,0.0,h
2160.0,2988.0,3286.0,3557.0,4095.0,4095.0,2896.0,2722.0,9.28,2.85,7.59,-0.22,-0.04,-0.02,0.0,h
2183.0,2993.0,3301.0,3291.0,4095.0,4095.0,2801.0,2715.0,9.08,2.69,7.68,0.02,-0.16,-0.24,0.0,h
2221.0,2980.0,3307.0,2992.0,4095.0,4095.0,2864.0,2673.0,9.14,2.93,7.36,0.24,0.28,-0.07,0.0,h
2288.0,2991.0,3338.0,2928.0,4095.0,4095.0,2871.0,2528.0,9.15,2.99,7.75,0.07,0.1,-0.08,0.0,h
2352.0,2983.0,3372.0,2824.0,4095.0,4095.0,2827.0,2479.0,9.01,2.91,7.7,0.24,0.03,-0.29,0.0,h
2368.0,2993.0,3375.0,2858.0,4095.0,4095.0,2873.0,2512.0,8.67,3.23,7.43,-0.11,0.04,-0.12,0.0,h
2353.0,2983.0,3367.0,2871.0,4095.0,4095.0,2891.0,2531.0,9.15,3.06,7.64,-0.19,-0.08,-0.08,0.0,h
2357.0,2988.0,3366.0,2880.0,4095.0,4095.0,2903.0,2552.0,9.03,3.09,7.43,-0.11,-0.15,-0.2,0.0,h
2355.0,2991.0,3375.0,2898.0,4095.0,4095.0,2909.0,2555.0,8.93,3.09,7.7,0.13,-0.07,-0.22,0.0,h
2352.0,2993.0,3367.0,2971.0,4095.0,4095.0,2896.0,2559.0,8.9,3.33,7.51,0.04,-0.26,-0.11,0.0,h
2367.0,2992.0,3375.0,3017.0,4095.0,4095.0,2897.0,2606.0,9.28,3.51,7.47,-0.05,-0.17,-0.16,0.0,h
2354.0,2989.0,3376.0,3023.0,4095.0,4095.0,2903.0,2608.0,9.24,3.15,7.28,-0.2,-0.03,-0.23,0.0,h
2331.0,2991.0,3382.0,3031.0,4095.0,4095.0,2913.0,2619.0,9.35,3.37,7.27,-0.23,-0.12,-0.29,0.0,h
2301.0,2995.0,3377.0,3051.0,4095.0,4095.0,2914.0,2621.0,9.7,3.2,7.49,-0.34,-0.11,-0.47,0.0,h
2256.0,2987.0,3394.0,3082.0,4095.0,4095.0,2921.0,2641.0,9.27,3.05,7.24,-0.37,-0.04,-0.51,0.0,h
2204.0,2981.0,3389.0,3101.0,4095.0,4095.0,2935.0,2667.0,9.72,3.04,8.5,0.07,0.29,-0.68,0.0,h
2000.0,2985.0,3385.0,3107.0,4095.0,4015.0,2932.0,2679.0,8.32,3.25,7.98,-0.02,0.28,-0.44,0.0,h
1934.0,2992.0,3393.0,3105.0,4095.0,4080.0,2952.0,2683.0,8.04,3.76,8.04,0.19,0.06,-0.5,0.0,h
1497.0,2989.0,3407.0,3125.0,4095.0,4047.0,2943.0,2700.0,7.89,4.35,8.16,0.34,0.27,-0.46,0.0,h
2160.0,2983.0,3394.0,3127.0,4095.0,4095.0,2960.0,2702.0,7.49,4.57,8.26,0.41,0.29,-0.34,0.0,h
2255.0,2989.0,3408.0,3145.0,4095.0,4095.0,2966.0,2706.0,7.17,4.8,7.58,0.27,-0.02,-0.03,0.0,h
2277.0,2984.0,3402.0,3147.0,4095.0,4095.0,2976.0,2723.0,7.5,4.73,7.77,0.13,-0.04,0.17,0.0,h
2382.0,2985.0,3408.0,3135.0,4095.0,4095.0,2979.0,2730.0,9.58,5.12,5.62,0.26,0.25,0.15,0.0,h
2704.0,2995.0,3408.0,3150.0,4095.0,4095.0,2991.0,2735.0,7.41,5.11,8.19,-0.04,-0.25,-0.18,0.0,h
2715.0,2992.0,3406.0,3151.0,4095.0,4095.0,2990.0,2736.0,8.24,4.65,8.99,0.13,-0.3,0.1,0.0,h
2590.0,2992.0,3408.0,3152.0,4095.0,4095.0,2981.0,2741.0,8.91,4.61,7.6,0.26,-0.12,0.18,0.0,h
2206.0,2997.0,3423.0,3169.0,4095.0,4095.0,2978.0,2749.0,9.41,4.54,7.9,0.14,-0.01,0.01,0.0,h
2182.0,2989.0,3428.0,3178.0,4095.0,4095.0,2983.0,2757.0,9.18,4.37,7.47,0.24,0.36,-0.09,0.0,h
2290.0,2988.0,3431.0,3179.0,4095.0,4095.0,2987.0,2755.0,9.33,4.48,6.97,-0.11,0.46,-0.35,0.0,h
2363.0,2999.0,3415.0,3184.0,4095.0,4095.0,3002.0,2768.0,7.22,4.13,9.0,-0.09,0.3,-0.5,0.0,h
2347.0,2979.0,3440.0,3187.0,4095.0,4095.0,3022.0,2787.0,6.94,4.15,9.02,0.1,0.1,-0.23,0.0,h
2333.0,2991.0,3433.0,3187.0,4095.0,4095.0,3008.0,2789.0,7.56,4.19,8.83,0.21,0.1,-0.13,0.0,h
2336.0,2991.0,3441.0,3197.0,4095.0,4095.0,3015.0,2799.0,7.81,4.56,8.26,0.37,0.0,-0.22,0.0,h
2327.0,3004.0,3440.0,3191.0,4095.0,4095.0,3018.0,2799.0,7.24,5.1,8.05,0.29,-0.02,-0.15,0.0,h
2278.0,2989.0,3427.0,3189.0,4095.0,4095.0,3023.0,2805.0,7.08,5.37,7.58,0.05,-0.11,0.0,0.0,h
2263.0,2982.0,3423.0,3194.0,4095.0,4095.0,3021.0,2816.0,8.12,5.1,8.47,-0.06,-0.22,-0.01,0.0,h
2246.0,2993.0,3425.0,3209.0,4095.0,4095.0,3012.0,2826.0,8.72,4.81,9.15,-0.03,-0.01,-0.23,0.0,h
2269.0,2986.0,3428.0,3219.0,4095.0,4095.0,3012.0,2835.0,7.86,5.65,7.69,0.03,0.09,-0.29,0.0,h
2268.0,2987.0,3435.0,3216.0,4095.0,4095.0,3007.0,2832.0,7.8,5.34,8.13,-0.21,0.1,-0.18,0.0,h
2256.0,2989.0,3439.0,3226.0,4095.0,4095.0,3011.0,2842.0,7.62,5.26,8.52,-0.36,0.1,-0.13,0.0,h
2270.0,2986.0,3443.0,3229.0,4095.0,4095.0,3025.0,2852.0,7.41,4.8,8.85,-0.33,0.01,-0.23,0.0,h
2283.0,2992.0,3443.0,3234.0,4095.0,4095.0,3029.0,2842.0,7.52,4.38,8.56,-0.27,-0.15,-0.28,0.0,h
2293.0,2986.0,3455.0,3233.0,4095.0,4095.0,3023.0,2859.0,7.52,4.03,8.36,-0.41,-0.38,-0.33,0.0,h
2311.0,2993.0,3452.0,3231.0,4095.0,4095.0,3025.0,2855.0,7.42,3.62,8.39,-0.47,-0.32,-0.13,0.0,h
2295.0,2991.0,3439.0,3230.0,4095.0,4095.0,3030.0,2864.0,7.97,3.09,9.24,-0.29,-0.23,0.1,0.0,h
2298.0,2990.0,3431.0,3235.0,4095.0,4095.0,3034.0,2864.0,8.7,3.32,9.26,0.08,-0.22,-0.01,0.0,h
2279.0,2992.0,3430.0,3238.0,4095.0,4095.0,3043.0,2864.0,8.56,3.36,8.25,0.26,-0.16,0.02,0.0,h
2281.0,2976.0,3441.0,3235.0,4095.0,4095.0,3031.0,2869.0,8.93,3.68,7.95,0.31,-0.14,-0.1,0.0,h
2272.0,2992.0,3445.0,3236.0,4095.0,4095.0,3030.0,2865.0,8.76,3.88,8.09,0.29,-0.03,-0.13,0.0,h
2279.0,2992.0,3458.0,3243.0,4095.0,4095.0,3045.0,2866.0,8.27,4.47,7.48,0.22,-0.08,-0.05,0.0,h
2302.0,2974.0,3447.0,3223.0,4095.0,4095.0,3024.0,2865.0,8.45,4.11,8.02,0.14,-0.26,0.04,0.0,h
2421.0,2987.0,3440.0,3217.0,4095.0,4095.0,3049.0,2869.0,8.58,4.15,7.47,0.09,-0.06,-0.01,0.0,h
2390.0,2990.0,3456.0,3232.0,4095.0,4095.0,3055.0,2869.0,8.71,4.16,6.98,-0.11,-0.31,-0.05,0.0,h
2388.0,2992.0,3451.0,3223.0,4095.0,4095.0,3054.0,2871.0,8.81,3.73,7.01,-0.35,-0.45,0.1,0.0,h
2374.0,2982.0,3447.0,3237.0,4095.0,4095.0,3061.0,2874.0,9.58,3.58,6.78,-0.43,-0.37,0.15,0.0,h
2373.0,2991.0,3447.0,3231.0,4095.0,4095.0,3059.0,2866.0,10.77,3.04,7.24,-0.31,-0.07,-0.19,0.0,h
2381.0,2991.0,3440.0,3230.0,4095.0,4095.0,3065.0,2873.0,9.74,2.74,7.19,-0.1,0.28,-0.32,0.0,h
2384.0,2981.0,3449.0,3239.0,4095.0,4095.0,3066.0,2873.0,9.57,2.56,7.19,0.06,0.33,-0.31,0.0,h
2369.0,2977.0,3443.0,3234.0,4095.0,4095.0,3063.0,2875.0,8.97,3.18,7.55,0.22,0.34,-0.35,0.0,h
2382.0,2992.0,3446.0,3242.0,4095.0,4095.0,3056.0,2876.0,8.61,3.82,7.1,0.2,0.28,-0.31,0.0,h
2369.0,2992.0,3453.0,3247.0,4095.0,4095.0,3069.0,2883.0,8.77,3.73,7.9,0.16,0.14,-0.34,0.0,h
2358.0,2990.0,3455.0,3243.0,4095.0,4095.0,3071.0,2878.0,8.48,3.73,7.94,0.16,0.18,-0.24,0.0,h
2353.0,2992.0,3446.0,3242.0,4095.0,4095.0,3081.0,2887.0,8.34,3.83,7.54,0.25,0.24,-0.17,0.0,h
2421.0,2987.0,3450.0,3228.0,4095.0,4095.0,3070.0,2874.0,8.09,4.33,7.58,0.28,-0.02,-0.14,0.0,h
2459.0,2992.0,3450.0,3219.0,4095.0,4095.0,3087.0,2874.0,8.58,4.35,7.81,0.09,0.2,-0.11,0.0,h
2425.0,2997.0,3462.0,3230.0,4095.0,4095.0,3093.0,2880.0,8.39,4.48,7.96,0.11,0.19,-0.19,0.0,h
2416.0,2992.0,3451.0,3232.0,4095.0,4095.0,3095.0,2881.0,8.03,4.56,8.06,0.02,0.07,-0.21,0.0,h
2418.0,2977.0,3442.0,3232.0,4095.0,4095.0,3083.0,2880.0,8.09,4.33,8.23,-0.09,0.07,-0.08,0.0,h
2399.0,2979.0,3443.0,3235.0,4095.0,4095.0,3090.0,2888.0,8.12,4.19,7.72,-0.18,0.01,-0.14,0.0,h
2382.0,2992.0,3455.0,3242.0,4095.0,4095.0,3095.0,2882.0,8.12,3.88,8.17,-0.28,-0.03,-0.23,0.0,h
2320.0,2979.0,3448.0,3238.0,4095.0,4095.0,3091.0,2877.0,7.69,4.03,8.27,-0.31,-0.12,-0.05,0.0,h
2310.0,2988.0,3468.0,3243.0,4095.0,4095.0,3105.0,2886.0,8.56,3.01,8.86,-0.31,-0.09,0.07,0.0,h
2278.0,2979.0,3462.0,3242.0,4095.0,4095.0,3103.0,2887.0,8.5,2.94,8.66,-0.1,-0.15,-0.04,0.0,h
2261.0,2987.0,3467.0,3234.0,4095.0,4095.0,3109.0,2885.0,8.23,2.87,8.29,0.02,-0.22,-0.05,0.0,h
2269.0,2993.0,3470.0,3245.0,4095.0,4095.0,3098.0,2886.0,8.4,2.96,7.4,0.13,-0.51,-0.16,0.0,h
2275.0,2992.0,3466.0,3234.0,4095.0,4095.0,3105.0,2887.0,10.27,2.83,8.9,0.21,-0.25,-0.08,0.0,h
2279.0,2987.0,3469.0,3232.0,4095.0,4095.0,3071.0,2881.0,9.49,3.54,7.6,0.89,0.24,-0.35,0.0,h
2267.0,2992.0,3482.0,3235.0,4095.0,4095.0,3084.0,2891.0,8.79,4.34,6.85,0.48,0.21,-0.19,0.0,h
2258.0,2999.0,3473.0,3238.0,4095.0,4095.0,3089.0,2896.0,8.28,4.21,7.07,0.31,0.09,-0.09,0.0,h
2237.0,2992.0,3479.0,3236.0,4095.0,4095.0,3091.0,2896.0,8.14,4.36,6.66,0.1,-0.09,0.0,0.0,h
2241.0,2983.0,3469.0,3243.0,4095.0,4095.0,3099.0,2896.0,8.91,3.87,7.23,0.0,-0.14,-0.03,0.0,h
2241.0,2992.0,3469.0,3236.0,4095.0,4095.0,3101.0,2896.0,9.14,3.73,7.77,0.19,0.04,-0.05,0.0,h
2240.0,2977.0,3457.0,3246.0,4095.0,4095.0,3102.0,2889.0,9.53,3.93,7.44,0.27,0.14,-0.05,0.0,h
2211.0,2991.0,3467.0,3247.0,4095.0,4095.0,3106.0,2899.0,9.27,4.07,7.28,0.13,0.24,-0.15,0.0,h
2208.0,2983.0,3469.0,3243.0,4095.0,4095.0,3105.0,2900.0,8.6,4.2,7.46,0.07,0.27,-0.14,0.0,h
2202.0,2986.0,3467.0,3247.0,4095.0,4095.0,3106.0,2907.0,8.66,4.38,7.51,-0.23,0.27,-0.05,0.0,h
2189.0,2985.0,3469.0,3247.0,4095.0,4095.0,3103.0,2896.0,8.11,3.73,8.32,-0.29,0.37,0.13,0.0,h
2192.0,2990.0,3472.0,3248.0,4095.0,4095.0,3103.0,2900.0,9.0,2.91,8.25,-0.2,0.16,-0.14,0.0,h
2183.0,2991.0,3475.0,3253.0,4095.0,4095.0,3114.0,2903.0,8.67,2.59,8.13,0.12,0.1,-0.5,0.0,h
