hall_1,hall_2,hall_3,flex_t,flex_i,flex_m,flex_r,flex_p,accel_x,accel_y,accel_z,gyro_x,gyro_y,gyro_z,hand,sign
3729.0,3118.0,3088.0,2816.0,4095.0,4095.0,4095.0,4095.0,18.19,7.08,-1.81,-0.1,-0.63,-1.04,1.0,hello
3659.0,3115.0,3111.0,2851.0,4095.0,4095.0,4095.0,4095.0,-2.03,-3.24,8.9,-4.63,-0.22,-3.35,1.0,hello
3598.0,3130.0,3120.0,2910.0,4095.0,4095.0,4095.0,4045.0,0.31,5.77,12.49,-0.68,-0.51,-1.04,1.0,hello
3598.0,3125.0,3121.0,2916.0,4095.0,4095.0,4095.0,4095.0,1.37,5.89,8.72,-0.22,-0.01,-0.23,1.0,hello
3598.0,3115.0,3114.0,2929.0,4095.0,4095.0,4095.0,4095.0,2.05,5.6,8.52,-0.1,0.05,-0.13,1.0,hello
3600.0,3126.0,3121.0,2925.0,4095.0,4095.0,4095.0,4095.0,2.02,5.88,7.93,-0.05,-0.0,-0.05,1.0,hello
3623.0,3129.0,3119.0,2932.0,4095.0,4095.0,4095.0,4095.0,2.37,5.96,8.47,-0.04,-0.0,-0.01,1.0,hello
3583.0,3132.0,3120.0,2938.0,4095.0,4095.0,4095.0,4095.0,1.91,5.85,8.08,0.02,0.07,-0.06,1.0,hello
3583.0,3122.0,3107.0,2929.0,4095.0,4095.0,4095.0,4095.0,2.1,5.74,8.2,-0.03,0.06,-0.03,1.0,hello
3583.0,3128.0,3105.0,2933.0,4095.0,4095.0,4095.0,4095.0,2.4,5.96,7.92,-0.01,0.02,-0.02,1.0,hello
3611.0,3118.0,3107.0,2941.0,4095.0,4095.0,4095.0,4095.0,2.11,5.81,8.18,-0.09,0.08,-0.06,1.0,hello
3606.0,3126.0,3117.0,2929.0,4095.0,4095.0,4095.0,4095.0,2.03,5.76,8.06,-0.08,-0.03,-0.06,1.0,hello
3605.0,3134.0,3105.0,2942.0,4095.0,4095.0,4095.0,4095.0,2.34,5.8,8.33,-0.08,0.03,-0.05,1.0,hello
3600.0,3120.0,3120.0,2945.0,4095.0,4095.0,4095.0,4095.0,1.92,5.97,8.23,-0.08,0.09,-0.04,1.0,hello
3605.0,3135.0,3094.0,2951.0,4095.0,4095.0,4095.0,4095.0,1.87,5.93,8.37,-0.1,0.01,-0.0,1.0,hello
3606.0,3137.0,3102.0,2960.0,4095.0,4095.0,4095.0,4095.0,1.91,5.83,8.26,-0.04,0.01,-0.01,1.0,hello
3630.0,3143.0,3110.0,2966.0,4095.0,4095.0,4095.0,4095.0,1.97,5.86,8.09,-0.03,0.02,-0.03,1.0,hello
3628.0,3122.0,3113.0,2961.0,4095.0,4095.0,4095.0,4095.0,1.99,5.82,8.07,-0.06,0.01,-0.03,1.0,hello
3602.0,3138.0,3094.0,2974.0,4095.0,4095.0,4095.0,4095.0,2.01,5.86,8.15,-0.03,-0.01,-0.04,1.0,hello
3629.0,3125.0,3098.0,2979.0,4095.0,4095.0,4095.0,4095.0,1.87,5.89,8.16,-0.08,-0.01,-0.03,1.0,hello
3355.0,3145.0,3294.0,2885.0,4095.0,4095.0,4095.0,4095.0,6.12,6.67,5.16,-0.02,-0.02,-0.03,1.0,hello
3350.0,3134.0,3302.0,2899.0,4095.0,4095.0,4095.0,4095.0,5.92,6.63,5.32,-0.02,-0.02,-0.05,1.0,hello
3331.0,3136.0,3286.0,2905.0,4095.0,4095.0,4095.0,4095.0,5.65,6.66,5.11,0.0,-0.15,-0.03,1.0,hello
3339.0,3130.0,3281.0,2896.0,4095.0,4095.0,4095.0,4095.0,5.65,6.7,5.25,-0.03,0.01,-0.01,1.0,hello
3331.0,3130.0,3269.0,2903.0,4095.0,4095.0,4095.0,4095.0,6.05,6.67,5.36,0.0,0.04,-0.02,1.0,hello
3343.0,3136.0,3301.0,2897.0,4095.0,4095.0,4095.0,4095.0,11.6,7.0,1.5,0.05,-0.1,-0.33,1.0,hello
3333.0,3118.0,3312.0,2896.0,4095.0,4095.0,4095.0,4095.0,11.55,3.28,-0.36,-2.6,-0.06,-3.75,1.0,hello
3360.0,3141.0,3316.0,2950.0,4095.0,4095.0,4095.0,4095.0,-8.68,-0.4,15.24,-2.34,-0.26,-2.29,1.0,hello
3350.0,3138.0,3327.0,2951.0,4095.0,4095.0,4095.0,4095.0,-0.02,6.29,9.91,-0.03,0.07,-0.44,1.0,hello
3343.0,3137.0,3312.0,2963.0,4095.0,4095.0,4095.0,4095.0,1.04,6.13,8.33,-0.14,-0.03,-0.1,1.0,hello
3344.0,3135.0,3318.0,2957.0,4095.0,4095.0,4095.0,4095.0,1.33,5.96,7.99,-0.06,0.03,-0.05,1.0,hello
3329.0,3147.0,3319.0,2955.0,4095.0,4095.0,4095.0,4095.0,1.16,6.14,8.12,-0.06,0.03,-0.02,1.0,hello
3332.0,3137.0,3326.0,2957.0,4095.0,4095.0,4095.0,4095.0,1.12,6.04,8.26,-0.05,0.04,0.01,1.0,hello
3345.0,3135.0,3314.0,2958.0,4095.0,4095.0,4095.0,4095.0,1.44,6.05,8.3,-0.04,0.05,0.0,1.0,hello
3349.0,3122.0,3331.0,2953.0,4095.0,4095.0,4095.0,4095.0,1.29,6.1,7.98,-0.01,0.04,-0.07,1.0,hello
3342.0,3134.0,3332.0,2963.0,4095.0,4095.0,4095.0,4095.0,1.29,6.12,8.01,-0.1,0.01,-0.03,1.0,hello
3351.0,3136.0,3318.0,2960.0,4095.0,4095.0,4095.0,4095.0,1.13,6.11,8.2,-0.05,0.04,-0.04,1.0,hello
3335.0,3143.0,3317.0,2958.0,4095.0,4095.0,4095.0,4095.0,1.25,6.14,8.06,-0.07,-0.04,-0.03,1.0,hello
3352.0,3137.0,3336.0,2960.0,4095.0,4095.0,4095.0,4095.0,1.08,6.0,8.16,-0.09,0.05,-0.06,1.0,hello
3344.0,3135.0,3318.0,2960.0,4095.0,4095.0,4095.0,4095.0,1.18,6.17,8.1,-0.06,0.02,-0.04,1.0,hello
3476.0,3303.0,4095.0,2559.0,4095.0,4095.0,4095.0,4095.0,6.76,7.56,-0.57,-0.07,0.0,-0.01,1.0,hello
3478.0,3275.0,4095.0,2590.0,4095.0,4095.0,4095.0,4095.0,6.66,7.56,-0.66,-0.04,0.04,-0.05,1.0,hello
3474.0,3296.0,4095.0,2594.0,4095.0,4095.0,4095.0,4095.0,6.68,7.59,-0.47,-0.06,0.03,-0.14,1.0,hello
3462.0,3282.0,4095.0,2608.0,4095.0,4095.0,4095.0,4095.0,6.84,7.28,-0.85,-0.05,-0.14,-0.08,1.0,hello
3462.0,3306.0,4095.0,2513.0,4095.0,4095.0,4095.0,0.0,24.28,8.19,-18.14,-1.49,-0.59,-2.84,1.0,hello
3483.0,3290.0,4095.0,2701.0,4095.0,4095.0,4095.0,4095.0,-18.97,-7.44,23.98,-4.24,2.71,-0.46,1.0,hello
3395.0,3310.0,4095.0,2661.0,4095.0,4095.0,4095.0,4095.0,2.55,12.68,-0.49,0.0,-0.62,-0.29,1.0,hello
3400.0,3295.0,4095.0,2695.0,4095.0,4095.0,4095.0,4095.0,2.82,9.86,4.69,-0.1,0.03,-0.36,1.0,hello
3395.0,3312.0,4095.0,2708.0,4095.0,4095.0,4095.0,4095.0,1.18,8.85,4.72,-0.17,-0.17,-0.2,1.0,hello
3394.0,3292.0,4095.0,2710.0,4095.0,4095.0,4095.0,4095.0,1.19,9.08,4.32,-0.06,0.1,-0.18,1.0,hello
3399.0,3277.0,4095.0,2704.0,4095.0,4095.0,4095.0,4095.0,1.04,9.35,4.23,-0.09,0.04,0.01,1.0,hello
3387.0,3305.0,4095.0,2709.0,4095.0,4095.0,4095.0,4095.0,1.55,9.27,4.5,0.01,0.09,0.01,1.0,hello
3408.0,3295.0,4095.0,2710.0,4095.0,4095.0,4095.0,4095.0,1.36,9.16,4.18,0.01,0.04,-0.01,1.0,hello
3394.0,3297.0,4095.0,2703.0,4095.0,4095.0,4095.0,4095.0,1.52,9.27,4.15,-0.02,-0.01,-0.05,1.0,hello
3393.0,3305.0,4095.0,2702.0,4095.0,4095.0,4095.0,4095.0,1.21,9.32,3.93,-0.06,0.05,-0.03,1.0,hello
3397.0,3297.0,4095.0,2699.0,4095.0,4095.0,4095.0,4095.0,1.52,9.21,4.03,-0.03,-0.09,-0.01,1.0,hello
3405.0,3284.0,4095.0,2691.0,4095.0,4095.0,4095.0,4095.0,1.31,9.18,4.01,-0.09,0.01,-0.05,1.0,hello
3383.0,3283.0,4095.0,2683.0,4095.0,4095.0,4095.0,4095.0,1.22,9.22,3.92,-0.05,-0.1,-0.04,1.0,hello
3397.0,3298.0,4095.0,2687.0,4095.0,4095.0,4095.0,4095.0,1.33,9.18,4.23,-0.09,0.02,-0.07,1.0,hello
3398.0,3280.0,4095.0,2697.0,4095.0,4095.0,4095.0,4095.0,1.18,9.17,3.98,-0.08,-0.01,-0.04,1.0,hello
3427.0,3255.0,4095.0,2756.0,4095.0,4095.0,4095.0,4095.0,6.41,7.93,0.9,-0.07,0.01,-0.03,1.0,hello
3421.0,3253.0,4095.0,2769.0,4095.0,4095.0,4095.0,4095.0,6.23,7.71,0.41,-0.1,-0.04,-0.05,1.0,hello
3408.0,3255.0,4095.0,2757.0,4095.0,4095.0,4095.0,4067.0,16.82,8.62,-9.06,-0.54,-0.34,-1.3,1.0,hello
3409.0,3251.0,4095.0,2775.0,4095.0,4095.0,4095.0,4095.0,7.25,2.01,0.63,-3.2,-0.48,-3.82,1.0,hello
3422.0,3273.0,4095.0,2838.0,4095.0,4095.0,4095.0,4095.0,-10.92,3.13,16.92,-0.9,-0.16,-1.67,1.0,hello
3408.0,3261.0,4095.0,2832.0,4095.0,4095.0,4095.0,4095.0,-0.95,9.74,4.25,-0.2,0.19,-0.25,1.0,hello
3435.0,3254.0,4095.0,2823.0,4095.0,4095.0,4095.0,4095.0,1.09,9.01,5.33,-0.11,0.12,-0.09,1.0,hello
3414.0,3270.0,4095.0,2837.0,4095.0,4095.0,4095.0,4095.0,0.14,9.04,4.46,-0.0,0.08,-0.05,1.0,hello
3411.0,3250.0,4095.0,2834.0,4095.0,4095.0,4095.0,4095.0,0.13,9.04,4.88,-0.1,0.1,-0.02,1.0,hello
3427.0,3269.0,4095.0,2838.0,4095.0,4095.0,4095.0,4095.0,0.39,8.92,4.78,-0.04,-0.06,-0.01,1.0,hello
3409.0,3273.0,4095.0,2841.0,4095.0,4095.0,4095.0,4095.0,0.8,9.13,4.59,-0.0,-0.03,-0.0,1.0,hello
3408.0,3248.0,4095.0,2835.0,4095.0,4095.0,4095.0,4095.0,0.42,8.95,4.82,0.01,-0.02,-0.01,1.0,hello
3413.0,3275.0,4095.0,2837.0,4095.0,4095.0,4095.0,4095.0,0.59,9.11,4.25,-0.01,0.04,-0.03,1.0,hello
3401.0,3259.0,4095.0,2835.0,4095.0,4095.0,4095.0,4095.0,0.76,9.08,4.63,-0.07,-0.03,-0.03,1.0,hello
3406.0,3269.0,4095.0,2832.0,4095.0,4095.0,4095.0,4095.0,0.38,9.08,4.43,-0.08,-0.0,-0.05,1.0,hello
3417.0,3264.0,4095.0,2832.0,4095.0,4095.0,4095.0,4095.0,0.37,9.1,4.41,-0.06,-0.01,-0.03,1.0,hello
3415.0,3269.0,4095.0,2832.0,4095.0,4095.0,4095.0,4095.0,0.48,9.06,4.6,-0.04,0.07,-0.03,1.0,hello
3407.0,3270.0,4095.0,2832.0,4095.0,4095.0,4095.0,4095.0,0.62,9.17,4.48,-0.08,0.08,-0.03,1.0,hello
3403.0,3280.0,4095.0,2813.0,4095.0,4095.0,4095.0,4095.0,0.45,9.06,4.53,-0.07,0.05,-0.02,1.0,hello
3421.0,3258.0,4095.0,2817.0,4095.0,4095.0,4095.0,4095.0,0.54,9.12,4.41,-0.05,0.0,-0.05,1.0,hello
3347.0,3200.0,3685.0,2691.0,4095.0,4095.0,4095.0,4095.0,5.86,8.43,-0.25,-0.03,-0.12,-0.02,1.0,hello
3355.0,3204.0,3682.0,2704.0,4095.0,4095.0,4095.0,4095.0,5.57,8.3,-0.22,-0.02,-0.08,-0.04,1.0,hello
3355.0,3201.0,3683.0,2706.0,4095.0,4095.0,4095.0,4095.0,6.52,8.14,-0.43,-0.08,0.13,-0.08,1.0,hello
3312.0,3197.0,3712.0,2688.0,4095.0,4095.0,4095.0,4095.0,19.32,10.45,-8.18,-0.8,-0.94,-2.24,1.0,hello
3350.0,3207.0,3711.0,2727.0,4095.0,4095.0,4095.0,4095.0,-6.23,2.2,7.21,-2.32,-0.05,-2.48,1.0,hello
3344.0,3210.0,3742.0,2763.0,4095.0,4095.0,4095.0,4095.0,-4.45,8.61,4.77,-0.36,-0.41,-0.75,1.0,hello
3341.0,3202.0,3715.0,2759.0,4095.0,4095.0,4095.0,4095.0,0.16,9.65,3.68,-0.3,-0.14,-0.07,1.0,hello
3323.0,3202.0,3730.0,2761.0,4095.0,4095.0,4095.0,4095.0,0.93,9.74,3.0,-0.04,-0.11,-0.08,1.0,hello
3337.0,3216.0,3756.0,2751.0,4095.0,4095.0,4095.0,4095.0,0.49,9.78,3.24,0.01,-0.04,-0.02,1.0,hello
3349.0,3201.0,3755.0,2763.0,4095.0,4095.0,4095.0,4095.0,0.45,9.65,3.21,-0.01,0.09,-0.02,1.0,hello
3329.0,3198.0,3756.0,2757.0,4095.0,4095.0,4095.0,4095.0,0.63,9.64,2.96,-0.03,-0.01,-0.05,1.0,hello
3357.0,3198.0,3711.0,2758.0,4095.0,4095.0,4095.0,4095.0,0.4,9.73,2.69,-0.03,0.04,-0.04,1.0,hello
3345.0,3187.0,3728.0,2767.0,4095.0,4095.0,4095.0,4095.0,0.41,9.67,2.84,0.01,0.02,-0.04,1.0,hello
3340.0,3216.0,3735.0,2763.0,4095.0,4095.0,4095.0,4095.0,0.68,9.86,2.53,-0.08,0.05,-0.01,1.0,hello
3331.0,3206.0,3756.0,2767.0,4095.0,4095.0,4095.0,4095.0,0.47,9.67,2.84,-0.08,0.01,-0.01,1.0,hello
3337.0,3200.0,3743.0,2759.0,4095.0,4095.0,4095.0,4095.0,0.51,9.71,2.48,-0.06,0.04,-0.02,1.0,hello
3327.0,3211.0,3733.0,2767.0,4095.0,4095.0,4095.0,4095.0,0.75,9.66,2.82,-0.1,-0.0,-0.05,1.0,hello
3342.0,3214.0,3760.0,2774.0,4095.0,4095.0,4095.0,4095.0,0.42,9.72,2.72,-0.06,0.01,-0.01,1.0,hello
3344.0,3203.0,3750.0,2777.0,4095.0,4095.0,4095.0,4095.0,0.69,9.77,2.73,-0.05,0.04,-0.02,1.0,hello
3329.0,3209.0,3756.0,2767.0,4095.0,4095.0,4095.0,4095.0,0.68,9.76,2.41,-0.05,0.08,-0.0,1.0,hello
3377.0,3184.0,3786.0,2847.0,4095.0,4095.0,4095.0,4095.0,6.32,8.02,0.68,-0.04,-0.09,-0.04,1.0,hello
3358.0,3174.0,3807.0,2854.0,4095.0,4095.0,4095.0,4095.0,6.39,7.84,0.91,-0.02,-0.08,-0.04,1.0,hello
3362.0,3200.0,3799.0,2866.0,4095.0,4095.0,4095.0,4095.0,6.33,7.63,0.98,-0.03,-0.15,-0.04,1.0,hello
3371.0,3184.0,3799.0,2829.0,4095.0,4095.0,4095.0,4095.0,16.69,8.11,-7.37,-0.49,-0.77,-1.4,1.0,hello
3376.0,3214.0,3849.0,2848.0,4095.0,4095.0,4095.0,4095.0,7.62,2.66,0.96,-2.85,-1.0,-3.95,1.0,hello
3399.0,3189.0,3843.0,2913.0,4095.0,4095.0,4095.0,4095.0,-10.08,6.32,11.5,0.08,-0.12,-1.77,1.0,hello
3391.0,3196.0,3865.0,2912.0,4095.0,4095.0,4095.0,4095.0,-1.5,9.75,2.53,-0.1,-0.08,-0.15,1.0,hello
3385.0,3191.0,3861.0,2917.0,4095.0,4095.0,4095.0,4095.0,0.89,9.62,4.29,-0.15,0.04,-0.13,1.0,hello
3389.0,3199.0,3861.0,2911.0,4095.0,4095.0,4095.0,4095.0,-0.16,9.54,3.1,-0.02,0.0,-0.1,1.0,hello
3394.0,3197.0,3839.0,2903.0,4095.0,4095.0,4095.0,4095.0,0.24,9.67,2.97,-0.11,-0.02,-0.02,1.0,hello
3391.0,3203.0,3873.0,2915.0,4095.0,4095.0,4095.0,4095.0,0.22,9.65,3.43,-0.12,0.08,-0.05,1.0,hello
3385.0,3201.0,3852.0,2913.0,4095.0,4095.0,4095.0,4095.0,0.06,9.64,3.3,-0.08,0.05,-0.01,1.0,hello
3382.0,3186.0,3851.0,2901.0,4095.0,4095.0,4095.0,4095.0,0.26,9.62,3.18,-0.07,-0.01,0.02,1.0,hello
3371.0,3183.0,3854.0,2903.0,4095.0,4095.0,4095.0,4095.0,0.42,9.46,3.22,-0.15,0.01,-0.01,1.0,hello
3380.0,3203.0,3847.0,2911.0,4095.0,4095.0,4095.0,4095.0,0.28,9.49,3.41,-0.07,0.02,-0.07,1.0,hello
3376.0,3216.0,3871.0,2897.0,4095.0,4095.0,4095.0,4095.0,0.28,9.58,3.28,-0.08,0.01,-0.03,1.0,hello
3382.0,3184.0,3851.0,2907.0,4095.0,4095.0,4095.0,4095.0,0.26,9.5,3.34,-0.12,0.08,-0.02,1.0,hello
3376.0,3190.0,3870.0,2905.0,4095.0,4095.0,4095.0,4095.0,0.53,9.6,3.34,-0.09,0.03,-0.05,1.0,hello
3355.0,3195.0,3856.0,2902.0,4095.0,4095.0,4095.0,4095.0,0.3,9.45,3.46,-0.07,0.01,-0.02,1.0,hello
3394.0,3191.0,3855.0,2915.0,4095.0,4095.0,4095.0,4095.0,0.33,9.52,3.4,-0.08,0.06,-0.0,1.0,hello
3024.0,3169.0,4027.0,2735.0,4095.0,4095.0,4095.0,4095.0,6.25,7.78,0.83,-0.04,0.0,-0.03,1.0,hello
3017.0,3178.0,4016.0,2752.0,4095.0,4095.0,4095.0,4095.0,6.65,7.74,0.49,-0.08,-0.07,-0.02,1.0,hello
3021.0,3181.0,4031.0,2706.0,4095.0,4095.0,4095.0,4095.0,19.1,9.13,-7.96,-0.36,-0.54,-1.66,1.0,hello
3025.0,3186.0,4031.0,2755.0,4095.0,4095.0,4095.0,4095.0,1.48,3.11,2.99,-2.73,-0.82,-3.53,1.0,hello
3019.0,3185.0,4015.0,2815.0,4095.0,4095.0,4095.0,4095.0,-8.17,6.34,10.61,-0.32,-0.35,-1.16,1.0,hello
3024.0,3184.0,4017.0,2807.0,4095.0,4095.0,4095.0,4095.0,1.21,10.21,3.16,-0.05,-0.06,-0.13,1.0,hello
3024.0,3197.0,4016.0,2814.0,4095.0,4095.0,4095.0,4095.0,1.1,9.14,3.74,-0.15,-0.01,-0.08,1.0,hello
3025.0,3187.0,4047.0,2811.0,4095.0,4095.0,4095.0,4095.0,0.53,9.44,3.35,-0.13,-0.03,-0.04,1.0,hello
3011.0,3195.0,4039.0,2812.0,4095.0,4095.0,4095.0,4095.0,0.99,9.38,3.6,-0.13,-0.01,-0.08,1.0,hello
3022.0,3183.0,4016.0,2817.0,4095.0,4095.0,4095.0,4095.0,0.94,9.61,3.76,-0.18,-0.07,-0.07,1.0,hello
3013.0,3191.0,4034.0,2827.0,4095.0,4095.0,4095.0,4095.0,0.64,9.54,3.77,-0.1,-0.02,-0.05,1.0,hello
3007.0,3194.0,4015.0,2815.0,4095.0,4095.0,4095.0,4095.0,0.62,9.38,3.7,-0.08,0.04,-0.02,1.0,hello
3003.0,3195.0,4023.0,2819.0,4095.0,4095.0,4095.0,4095.0,0.84,9.48,3.87,-0.04,-0.04,-0.03,1.0,hello
3022.0,3191.0,4014.0,2816.0,4095.0,4095.0,4095.0,4095.0,0.66,9.31,3.82,-0.05,0.01,-0.03,1.0,hello
3014.0,3191.0,4047.0,2823.0,4095.0,4095.0,4095.0,4095.0,0.86,9.45,3.61,-0.08,0.01,0.01,1.0,hello
3013.0,3181.0,4026.0,2830.0,4095.0,4095.0,4095.0,4095.0,0.64,9.29,3.73,-0.07,-0.03,-0.02,1.0,hello
3012.0,3186.0,4045.0,2823.0,4095.0,4095.0,4095.0,4095.0,0.86,9.37,3.66,-0.09,0.02,-0.04,1.0,hello
3005.0,3175.0,4048.0,2816.0,4095.0,4095.0,4095.0,4095.0,0.75,9.3,3.92,-0.05,0.0,-0.04,1.0,hello
3017.0,3174.0,4050.0,2822.0,4095.0,4095.0,4095.0,4095.0,0.75,9.38,3.58,-0.13,0.03,-0.06,1.0,hello
3019.0,3187.0,4057.0,2832.0,4095.0,4095.0,4095.0,4095.0,0.94,9.45,3.54,-0.07,0.0,-0.02,1.0,hello
3445.0,3207.0,4080.0,2800.0,4095.0,4095.0,4095.0,4095.0,6.26,8.04,-0.47,-0.06,-0.02,-0.03,1.0,hello
3456.0,3216.0,4064.0,2800.0,4095.0,4095.0,4095.0,4095.0,6.22,7.99,-0.61,-0.07,-0.02,-0.04,1.0,hello
3387.0,3201.0,4074.0,2768.0,4095.0,4095.0,4095.0,4095.0,16.92,9.24,-10.26,-0.61,-0.66,-1.28,1.0,hello
3392.0,3237.0,4081.0,2797.0,4095.0,4095.0,4095.0,3466.0,4.57,2.48,2.95,-3.13,-0.72,-3.61,1.0,hello
3405.0,3221.0,4093.0,2832.0,4095.0,4095.0,4095.0,3501.0,-8.86,6.77,9.18,-0.35,-0.27,-1.4,1.0,hello
3381.0,3233.0,4095.0,2841.0,4095.0,4095.0,4095.0,3497.0,-1.05,9.82,2.31,-0.25,-0.07,0.14,1.0,hello
3393.0,3216.0,4080.0,2849.0,4095.0,4095.0,4095.0,3486.0,2.09,9.83,3.54,-0.21,-0.01,-0.06,1.0,hello
3397.0,3223.0,4095.0,2850.0,4095.0,4095.0,4095.0,3437.0,0.15,9.34,3.29,-0.16,0.07,-0.07,1.0,hello
3377.0,3225.0,4091.0,2846.0,4095.0,4095.0,4095.0,3517.0,0.88,9.67,3.46,-0.12,-0.01,0.01,1.0,hello
3385.0,3225.0,4086.0,2836.0,4095.0,4095.0,4095.0,3549.0,0.45,9.7,3.34,-0.06,0.01,0.0,1.0,hello
3402.0,3203.0,4090.0,2858.0,4095.0,4095.0,4095.0,3472.0,0.57,9.44,3.27,-0.12,0.04,0.02,1.0,hello
3391.0,3235.0,4087.0,2849.0,4095.0,4095.0,4095.0,3445.0,0.83,9.3,3.14,-0.08,0.08,-0.05,1.0,hello
3386.0,3214.0,4095.0,2854.0,4095.0,4095.0,4095.0,3417.0,1.07,9.84,3.01,-0.1,-0.04,-0.03,1.0,hello
3393.0,3214.0,4089.0,2859.0,4095.0,4095.0,4095.0,3441.0,0.67,9.49,3.56,-0.1,0.03,-0.05,1.0,hello
3381.0,3227.0,4094.0,2863.0,4095.0,4095.0,4095.0,3467.0,0.75,9.58,3.17,-0.05,0.01,-0.04,1.0,hello
3376.0,3229.0,4095.0,2858.0,4095.0,4095.0,4095.0,3490.0,0.84,9.57,3.19,-0.07,0.0,-0.01,1.0,hello
3389.0,3215.0,4063.0,2850.0,4095.0,4095.0,4095.0,3439.0,0.72,9.59,3.18,-0.08,0.03,-0.02,1.0,hello
3376.0,3223.0,4095.0,2858.0,4095.0,4095.0,4095.0,3467.0,0.84,9.59,3.31,-0.06,0.03,-0.04,1.0,hello
3382.0,3222.0,4093.0,2863.0,4095.0,4095.0,4095.0,3387.0,0.81,9.64,3.27,-0.05,-0.02,-0.03,1.0,hello
3375.0,3203.0,4066.0,2864.0,4095.0,4095.0,4095.0,3473.0,0.72,9.56,3.3,-0.04,-0.01,-0.03,1.0,hello
3406.0,3184.0,3568.0,2869.0,4095.0,4095.0,4095.0,4095.0,5.83,8.23,1.64,-0.09,-0.05,-0.06,1.0,hello
3395.0,3183.0,3560.0,2874.0,4095.0,4095.0,4095.0,4095.0,7.16,8.1,1.03,-0.05,-0.2,-0.04,1.0,hello
3353.0,3205.0,3772.0,2839.0,4095.0,4095.0,4095.0,4095.0,22.25,10.29,-6.16,-0.82,-3.07,-2.14,1.0,hello
3408.0,3213.0,3785.0,2928.0,4095.0,4095.0,4095.0,4095.0,-10.43,0.71,7.98,-3.23,0.08,-1.65,1.0,hello
3402.0,3216.0,3790.0,2951.0,4095.0,4095.0,4095.0,4095.0,-1.92,8.28,2.87,-0.29,-0.52,-0.16,1.0,hello
3397.0,3207.0,3793.0,2951.0,4095.0,4095.0,4095.0,4095.0,1.92,10.15,4.22,-0.15,0.18,-0.25,1.0,hello
3382.0,3216.0,3789.0,2945.0,4095.0,4095.0,4095.0,4095.0,1.08,9.96,3.38,0.0,0.05,-0.13,1.0,hello
3387.0,3213.0,3809.0,2946.0,4095.0,4095.0,4095.0,4095.0,0.83,9.38,2.9,-0.02,-0.02,0.04,1.0,hello
3376.0,3197.0,3792.0,2943.0,4095.0,4095.0,4095.0,4095.0,0.81,9.45,2.73,-0.11,0.08,0.07,1.0,hello
3403.0,3213.0,3819.0,2953.0,4095.0,4095.0,4095.0,4095.0,1.47,9.72,3.02,-0.08,0.09,-0.01,1.0,hello
3376.0,3213.0,3810.0,2954.0,4095.0,4095.0,4095.0,4095.0,1.19,9.57,3.32,-0.08,0.08,-0.0,1.0,hello
3389.0,3201.0,3820.0,2951.0,4095.0,4095.0,4095.0,4095.0,1.42,9.55,3.32,-0.05,0.06,-0.01,1.0,hello
3386.0,3225.0,3798.0,2957.0,4095.0,4095.0,4095.0,4095.0,1.32,9.76,2.84,-0.05,-0.07,0.02,1.0,hello
3408.0,3223.0,3799.0,2949.0,4095.0,4095.0,4095.0,4095.0,1.48,9.48,3.19,-0.01,0.05,-0.04,1.0,hello
3389.0,3221.0,3783.0,2944.0,4095.0,4095.0,4095.0,4095.0,1.52,9.64,2.87,-0.03,0.06,-0.08,1.0,hello
3391.0,3199.0,3792.0,2949.0,4095.0,4095.0,4095.0,4095.0,1.27,9.59,2.85,-0.05,0.02,-0.07,1.0,hello
3386.0,3209.0,3807.0,2964.0,4095.0,4095.0,4095.0,4095.0,0.83,9.56,3.18,-0.08,0.05,-0.1,1.0,hello
3392.0,3216.0,3809.0,2949.0,4095.0,4095.0,4095.0,4095.0,1.06,9.89,3.05,-0.1,-0.07,0.01,1.0,hello
3391.0,3214.0,3824.0,2957.0,4095.0,4095.0,4095.0,4095.0,1.02,9.7,3.16,-0.07,-0.04,-0.01,1.0,hello
3376.0,3212.0,3793.0,2960.0,4095.0,4095.0,4095.0,4095.0,1.2,9.44,3.06,0.0,-0.0,0.02,1.0,hello
3054.0,3236.0,4095.0,2928.0,4095.0,4095.0,4095.0,4095.0,5.79,8.37,0.79,-0.07,-0.02,-0.03,1.0,hello
3056.0,3215.0,4095.0,2931.0,4095.0,4095.0,4095.0,4095.0,7.22,7.95,0.73,-0.02,-0.29,-0.08,1.0,hello
3056.0,3217.0,4095.0,2896.0,4095.0,4095.0,4095.0,4095.0,20.93,8.65,-4.25,-0.7,-2.4,-1.82,1.0,hello
3071.0,3237.0,4095.0,2960.0,4095.0,4095.0,4095.0,4095.0,-7.89,3.28,2.67,-2.27,1.45,-3.47,1.0,hello
3071.0,3226.0,4095.0,2978.0,4095.0,4095.0,4095.0,4095.0,-8.06,8.03,3.97,-0.29,-0.77,-0.43,1.0,hello
3063.0,3238.0,4095.0,2961.0,4095.0,4095.0,4095.0,4095.0,0.35,10.05,3.09,-0.12,-0.03,-0.08,1.0,hello
3063.0,3227.0,4095.0,2960.0,4095.0,4095.0,4095.0,4095.0,-0.58,9.68,2.7,-0.11,-0.07,0.08,1.0,hello
3071.0,3228.0,4095.0,2971.0,4095.0,4095.0,4095.0,4095.0,0.13,9.66,3.02,-0.11,-0.07,0.07,1.0,hello
3063.0,3227.0,4095.0,2962.0,4095.0,4095.0,4095.0,4095.0,0.19,9.78,2.9,-0.09,-0.01,0.02,1.0,hello
3058.0,3233.0,4095.0,2961.0,4095.0,4095.0,4095.0,4095.0,0.02,9.64,3.13,-0.09,-0.01,0.03,1.0,hello
3056.0,3227.0,4095.0,2960.0,4095.0,4095.0,4095.0,4095.0,0.4,9.75,2.89,0.01,-0.12,0.01,1.0,hello
3078.0,3223.0,4095.0,2970.0,4095.0,4095.0,4095.0,4095.0,0.17,9.75,2.6,-0.03,-0.06,-0.0,1.0,hello
3059.0,3233.0,4095.0,2970.0,4095.0,4095.0,4095.0,4095.0,0.11,9.64,2.87,-0.02,0.03,0.03,1.0,hello
3056.0,3223.0,4095.0,2964.0,4095.0,4095.0,4095.0,4095.0,0.35,9.84,2.49,-0.07,0.08,-0.01,1.0,hello
3069.0,3216.0,4095.0,2973.0,4095.0,4095.0,4095.0,4095.0,0.4,9.79,2.71,-0.07,0.01,0.0,1.0,hello
3066.0,3233.0,4095.0,2965.0,4095.0,4095.0,4095.0,4095.0,0.37,9.75,2.53,-0.06,0.03,-0.02,1.0,hello
3067.0,3232.0,4095.0,2962.0,4095.0,4095.0,4095.0,4095.0,0.37,9.62,2.9,-0.1,0.04,-0.04,1.0,hello
3056.0,3216.0,4095.0,2979.0,4095.0,4095.0,4095.0,4095.0,0.2,9.77,2.64,-0.06,0.01,-0.02,1.0,hello
3057.0,3218.0,4095.0,2962.0,4095.0,4095.0,4095.0,4095.0,0.42,9.75,2.73,-0.05,0.03,-0.01,1.0,hello
3050.0,3229.0,4095.0,2978.0,4095.0,4095.0,4095.0,4095.0,0.45,9.63,2.72,-0.07,0.07,-0.02,1.0,hello
3401.0,3472.0,3714.0,3051.0,4095.0,4095.0,4095.0,4095.0,6.0,8.04,0.88,-0.04,-0.12,-0.06,1.0,hello
3410.0,3438.0,3759.0,3035.0,4095.0,4095.0,4095.0,4095.0,13.9,7.95,-3.02,0.07,-0.67,-1.01,1.0,hello
3408.0,3456.0,3891.0,3044.0,4095.0,4095.0,4095.0,4095.0,7.5,4.63,1.75,-1.6,-0.64,-4.5,1.0,hello
3422.0,3455.0,3858.0,3107.0,4095.0,4095.0,4095.0,4095.0,-11.22,6.81,4.46,-0.71,-0.34,-1.6,1.0,hello
3398.0,3438.0,3902.0,3101.0,4095.0,4095.0,4095.0,4095.0,0.3,10.11,2.09,-0.41,-0.19,0.14,1.0,hello
3415.0,3451.0,3923.0,3102.0,4095.0,4095.0,4095.0,4095.0,0.34,9.95,1.82,-0.11,-0.16,-0.01,1.0,hello
3408.0,3435.0,3938.0,3105.0,4095.0,4095.0,4095.0,4095.0,0.55,9.9,2.14,-0.18,-0.08,0.11,1.0,hello
3406.0,3465.0,3951.0,3102.0,4095.0,4095.0,4095.0,4095.0,0.65,9.96,2.53,-0.11,-0.05,0.03,1.0,hello
3410.0,3455.0,3971.0,3103.0,4095.0,4095.0,4095.0,4095.0,0.67,9.88,2.44,-0.09,-0.04,0.03,1.0,hello
3387.0,3453.0,3989.0,3095.0,4095.0,4095.0,4095.0,4095.0,0.83,9.92,2.24,-0.09,-0.02,-0.0,1.0,hello
3403.0,3440.0,3959.0,3101.0,4095.0,4095.0,4095.0,4095.0,0.77,9.83,2.2,-0.05,-0.02,-0.01,1.0,hello
3413.0,3444.0,3952.0,3101.0,4095.0,4095.0,4095.0,4095.0,0.88,9.86,2.33,-0.06,0.01,-0.02,1.0,hello
3398.0,3441.0,3966.0,3102.0,4095.0,4095.0,4095.0,4095.0,0.72,9.8,2.37,-0.03,-0.02,-0.03,1.0,hello
3425.0,3483.0,3982.0,3104.0,4095.0,4095.0,4095.0,4095.0,0.79,9.83,2.13,-0.06,-0.03,-0.01,1.0,hello
3408.0,3441.0,3969.0,3102.0,4095.0,4095.0,4095.0,4095.0,0.8,9.8,2.28,-0.04,0.03,-0.01,1.0,hello
3408.0,3471.0,3986.0,3101.0,4095.0,4095.0,4095.0,4095.0,0.67,9.81,2.26,-0.06,0.06,-0.01,1.0,hello
3405.0,3442.0,3970.0,3098.0,4095.0,4095.0,4095.0,4095.0,0.93,9.89,2.36,-0.06,0.02,-0.04,1.0,hello
3406.0,3454.0,3994.0,3106.0,4095.0,4095.0,4095.0,4095.0,0.76,9.83,2.15,-0.05,0.01,-0.02,1.0,hello
3408.0,3458.0,3982.0,3093.0,4095.0,4095.0,4095.0,4095.0,0.8,9.72,2.18,-0.07,0.01,-0.03,1.0,hello
3403.0,3450.0,3990.0,3095.0,4095.0,4095.0,4095.0,4095.0,0.93,9.84,2.23,-0.06,-0.01,-0.0,1.0,hello
3091.0,3263.0,3582.0,2820.0,4095.0,4095.0,4095.0,4095.0,6.18,8.03,-0.12,-0.06,0.01,-0.04,1.0,hello
3106.0,3280.0,3597.0,2839.0,4095.0,4095.0,4095.0,4095.0,6.32,8.0,-0.29,-0.06,-0.06,-0.05,1.0,hello
3110.0,3269.0,3583.0,2835.0,4095.0,4095.0,4095.0,4095.0,7.47,7.81,-0.99,0.04,-0.02,-0.16,1.0,hello
3101.0,3283.0,3618.0,2816.0,4095.0,4095.0,4095.0,4095.0,15.19,7.25,-5.95,-1.47,-1.49,-2.0,1.0,hello
3104.0,3277.0,3645.0,2896.0,4095.0,4095.0,4095.0,4095.0,-1.95,5.71,5.77,-2.3,-0.42,-2.85,1.0,hello
3087.0,3266.0,3637.0,2907.0,4095.0,4095.0,4095.0,4095.0,-3.98,9.14,4.42,-0.16,-0.04,-0.48,1.0,hello
3085.0,3280.0,3719.0,2903.0,4095.0,4095.0,4095.0,4095.0,0.76,9.79,3.09,-0.09,0.09,-0.06,1.0,hello
3083.0,3295.0,3727.0,2911.0,4095.0,4095.0,4095.0,4095.0,0.54,9.4,3.14,-0.07,-0.01,-0.03,1.0,hello
3090.0,3274.0,3745.0,2900.0,4095.0,4095.0,4095.0,4095.0,0.93,9.6,2.96,-0.11,0.0,0.01,1.0,hello
3090.0,3265.0,3729.0,2913.0,4095.0,4095.0,4095.0,4095.0,0.72,9.64,2.78,-0.07,-0.05,0.02,1.0,hello
3095.0,3289.0,3719.0,2919.0,4095.0,4095.0,4095.0,4095.0,1.06,9.82,2.85,-0.05,0.03,-0.0,1.0,hello
3095.0,3271.0,3738.0,2907.0,4095.0,4095.0,4095.0,4095.0,0.79,9.72,2.59,-0.09,0.0,-0.02,1.0,hello
3088.0,3285.0,3756.0,2911.0,4095.0,4095.0,4095.0,4095.0,1.0,9.75,2.67,-0.08,0.03,-0.0,1.0,hello
3071.0,3280.0,3787.0,2911.0,4095.0,4095.0,4095.0,4095.0,0.98,9.68,2.75,-0.12,0.13,-0.01,1.0,hello
3089.0,3271.0,3759.0,2917.0,4095.0,4095.0,4095.0,4095.0,0.83,9.75,2.73,-0.06,-0.03,-0.01,1.0,hello
3088.0,3289.0,3765.0,2922.0,4095.0,4095.0,4095.0,4095.0,1.05,9.8,2.68,-0.07,0.06,0.01,1.0,hello
3082.0,3266.0,3773.0,2915.0,4095.0,4095.0,4095.0,4095.0,1.05,9.72,2.72,-0.1,0.05,-0.03,1.0,hello
3091.0,3283.0,3759.0,2922.0,4095.0,4095.0,4095.0,4095.0,1.05,9.65,2.92,-0.12,0.05,-0.05,1.0,hello
3087.0,3282.0,3775.0,2927.0,4095.0,4095.0,4095.0,4095.0,0.83,9.66,2.87,-0.08,0.03,-0.07,1.0,hello
3093.0,3283.0,3792.0,2929.0,4095.0,4095.0,4095.0,4095.0,0.86,9.56,2.91,-0.09,0.01,-0.0,1.0,hello
3111.0,3207.0,3774.0,2849.0,4095.0,4095.0,4095.0,4095.0,6.11,8.04,-0.18,-0.06,0.0,-0.07,1.0,hello
3103.0,3216.0,3751.0,2850.0,4095.0,4095.0,4095.0,4095.0,7.48,7.95,-1.05,0.03,0.15,-0.15,1.0,hello
3083.0,3218.0,3888.0,2810.0,4095.0,4095.0,4095.0,4095.0,18.38,8.74,-8.24,-0.89,-1.31,-2.76,1.0,hello
3104.0,3217.0,3840.0,2894.0,4095.0,4095.0,4095.0,4095.0,-5.38,3.44,7.36,-2.53,-0.28,-2.3,1.0,hello
3116.0,3216.0,3846.0,2928.0,4095.0,4095.0,4095.0,4095.0,-2.85,9.43,4.66,-0.19,-0.15,-0.7,1.0,hello
3099.0,3219.0,3885.0,2923.0,4095.0,4095.0,4095.0,4095.0,1.77,10.22,2.41,-0.15,-0.11,-0.03,1.0,hello
3114.0,3216.0,3906.0,2933.0,4095.0,4095.0,4095.0,4095.0,0.83,9.59,2.78,-0.15,-0.01,-0.02,1.0,hello
3090.0,3215.0,3943.0,2930.0,4095.0,4095.0,4095.0,4095.0,1.09,9.78,3.06,-0.16,0.06,0.01,1.0,hello
3090.0,3207.0,3922.0,2934.0,4095.0,4095.0,4095.0,4095.0,0.99,9.75,3.0,-0.06,0.01,0.02,1.0,hello
3093.0,3218.0,3939.0,2939.0,4095.0,4095.0,4095.0,4095.0,1.1,9.65,3.05,0.0,0.01,-0.0,1.0,hello
3097.0,3213.0,3953.0,2937.0,4095.0,4095.0,4095.0,4095.0,1.22,9.72,2.81,-0.04,0.0,0.05,1.0,hello
3107.0,3216.0,3939.0,2933.0,4095.0,4095.0,4095.0,4095.0,1.11,9.65,2.76,-0.05,0.05,0.0,1.0,hello
3097.0,3228.0,3959.0,2937.0,4095.0,4095.0,4095.0,4095.0,1.29,9.65,2.67,-0.05,0.03,-0.01,1.0,hello
3101.0,3216.0,3959.0,2939.0,4095.0,4095.0,4095.0,4095.0,1.06,9.7,2.77,-0.06,0.07,-0.01,1.0,hello
3101.0,3217.0,3932.0,2944.0,4095.0,4095.0,4095.0,4095.0,1.36,9.7,2.75,-0.07,0.03,-0.02,1.0,hello
3108.0,3210.0,3941.0,2950.0,4095.0,4095.0,4095.0,4095.0,1.46,9.73,2.76,-0.03,0.03,-0.04,1.0,hello
3108.0,3216.0,3951.0,2939.0,4095.0,4095.0,4095.0,4095.0,1.38,9.71,2.76,-0.06,-0.01,-0.01,1.0,hello
3092.0,3218.0,3943.0,2942.0,4095.0,4095.0,4095.0,4095.0,1.28,9.63,2.87,-0.04,-0.03,-0.02,1.0,hello
3101.0,3216.0,3952.0,2957.0,4095.0,4095.0,4095.0,4095.0,1.35,9.62,2.79,-0.05,0.03,-0.01,1.0,hello
3084.0,3219.0,3956.0,2951.0,4095.0,4095.0,4095.0,4095.0,1.26,9.63,2.82,-0.07,0.02,-0.01,1.0,hello
3095.0,3197.0,4010.0,2931.0,4095.0,4095.0,4095.0,4095.0,6.18,8.03,0.09,-0.05,-0.03,-0.04,1.0,hello
3101.0,3207.0,3994.0,2937.0,4095.0,4095.0,4095.0,4095.0,6.04,7.98,0.04,-0.07,-0.02,-0.04,1.0,hello
3105.0,3212.0,4012.0,2938.0,4095.0,4095.0,4095.0,4095.0,8.21,7.63,-1.25,-0.03,0.02,-0.2,1.0,hello
3089.0,3201.0,4093.0,2890.0,4095.0,4095.0,4095.0,4095.0,13.94,6.81,-5.41,-1.39,-1.6,-2.11,1.0,hello
3091.0,3205.0,4071.0,2949.0,4095.0,4095.0,4095.0,4095.0,-1.35,5.8,3.84,-2.71,0.21,-3.0,1.0,hello
3103.0,3216.0,3999.0,3005.0,4095.0,4095.0,4095.0,4095.0,-5.32,8.86,6.66,-0.57,-0.07,-0.74,1.0,hello
3101.0,3222.0,4059.0,3009.0,4095.0,4095.0,4095.0,4095.0,1.16,10.0,3.96,-0.15,-0.06,0.03,1.0,hello
3091.0,3202.0,4037.0,3001.0,4095.0,4095.0,4095.0,4095.0,0.6,9.42,3.11,-0.02,0.1,-0.1,1.0,hello
3102.0,3231.0,4042.0,3003.0,4095.0,4095.0,4095.0,4095.0,0.87,9.59,3.16,-0.13,-0.01,-0.04,1.0,hello
3093.0,3200.0,4043.0,2999.0,4095.0,4095.0,4095.0,4095.0,0.68,9.61,3.35,-0.1,0.02,-0.05,1.0,hello
3091.0,3216.0,4016.0,2995.0,4095.0,4095.0,4095.0,4095.0,0.67,9.65,3.43,-0.05,-0.05,-0.0,1.0,hello
3096.0,3235.0,4038.0,3001.0,4095.0,4095.0,4095.0,4095.0,1.0,9.7,3.42,-0.04,-0.05,0.05,1.0,hello
3099.0,3219.0,4048.0,3002.0,4095.0,4095.0,4095.0,4095.0,1.02,9.48,3.3,-0.03,-0.01,-0.01,1.0,hello
3089.0,3219.0,4031.0,3005.0,4095.0,4095.0,4095.0,4095.0,0.95,9.5,3.19,-0.06,0.0,0.02,1.0,hello
3106.0,3216.0,4031.0,3009.0,4095.0,4095.0,4095.0,4095.0,1.07,9.51,3.36,-0.04,0.05,-0.04,1.0,hello
3099.0,3216.0,4027.0,2992.0,4095.0,4095.0,4095.0,4095.0,1.06,9.52,3.32,-0.06,0.02,-0.01,1.0,hello
3093.0,3226.0,4034.0,2993.0,4095.0,4095.0,4095.0,4095.0,1.11,9.56,3.22,-0.04,0.03,-0.01,1.0,hello
3099.0,3226.0,4022.0,2992.0,4095.0,4095.0,4095.0,4095.0,1.13,9.41,3.39,-0.03,-0.05,-0.0,1.0,hello
3101.0,3222.0,4035.0,3003.0,4095.0,4095.0,4095.0,4095.0,1.15,9.52,3.17,-0.08,-0.05,-0.02,1.0,hello
3097.0,3217.0,4020.0,3008.0,4095.0,4095.0,4095.0,4095.0,0.98,9.59,3.04,-0.1,0.04,-0.01,1.0,hello
3095.0,3200.0,4095.0,2991.0,4095.0,4095.0,4095.0,4095.0,5.85,8.09,-0.94,-0.06,-0.02,-0.03,1.0,hello
3103.0,3191.0,4095.0,2993.0,4095.0,4095.0,4095.0,4095.0,5.94,8.08,-0.82,-0.04,-0.02,-0.05,1.0,hello
3095.0,3189.0,4089.0,2991.0,4095.0,4095.0,4095.0,4095.0,8.74,7.81,-2.76,0.03,0.21,-0.3,1.0,hello
3088.0,3202.0,4095.0,2925.0,4095.0,4095.0,4095.0,4095.0,14.34,7.05,-4.09,-1.84,-1.18,-2.54,1.0,hello
3106.0,3217.0,4095.0,3046.0,4095.0,4095.0,4095.0,4095.0,-4.94,4.58,1.64,-2.69,0.59,-2.9,1.0,hello
3094.0,3210.0,4095.0,3114.0,4095.0,4095.0,4095.0,4095.0,-5.91,8.13,7.1,-0.65,-0.25,-0.8,1.0,hello
3089.0,3199.0,4095.0,3089.0,4095.0,4095.0,4095.0,4095.0,-0.96,10.18,3.51,-0.05,0.09,-0.14,1.0,hello
3095.0,3213.0,4095.0,3101.0,4095.0,4095.0,4095.0,4095.0,-0.2,9.29,3.35,-0.05,0.0,0.07,1.0,hello
3088.0,3200.0,4095.0,3086.0,4095.0,4095.0,4095.0,4095.0,0.06,9.64,3.19,-0.0,0.01,0.06,1.0,hello
3093.0,3201.0,4094.0,3071.0,4095.0,4095.0,4095.0,4095.0,0.1,9.65,3.42,-0.06,-0.0,0.04,1.0,hello
3108.0,3210.0,4095.0,3062.0,4095.0,4095.0,4095.0,4095.0,0.11,9.7,3.09,-0.03,-0.03,0.01,1.0,hello
3088.0,3204.0,4095.0,3046.0,4095.0,4095.0,4095.0,4095.0,0.04,9.62,2.92,-0.09,-0.03,0.02,1.0,hello
3089.0,3207.0,4095.0,3025.0,4095.0,4095.0,4095.0,4095.0,0.06,9.57,3.17,-0.08,-0.01,-0.01,1.0,hello
3101.0,3201.0,4095.0,3029.0,4095.0,4095.0,4095.0,4095.0,0.09,9.58,3.16,-0.06,0.02,-0.01,1.0,hello
3083.0,3219.0,4095.0,3037.0,4095.0,4095.0,4095.0,4095.0,0.14,9.59,3.14,-0.03,0.04,-0.02,1.0,hello
3093.0,3213.0,4095.0,3033.0,4095.0,4095.0,4095.0,4095.0,0.21,9.46,3.17,-0.08,-0.01,0.02,1.0,hello
3085.0,3214.0,4095.0,3044.0,4095.0,4095.0,4095.0,4095.0,0.23,9.58,3.12,-0.05,-0.01,0.0,1.0,hello
3099.0,3207.0,4095.0,3039.0,4095.0,4095.0,4095.0,4095.0,0.14,9.66,2.88,-0.06,-0.0,0.01,1.0,hello
3095.0,3209.0,4091.0,3053.0,4095.0,4095.0,4095.0,4095.0,0.39,9.7,2.96,-0.07,0.04,-0.02,1.0,hello
3071.0,3201.0,4095.0,3043.0,4095.0,4095.0,4095.0,4095.0,0.19,9.54,3.24,-0.07,0.01,-0.04,1.0,hello
3056.0,3189.0,4095.0,2912.0,4095.0,4095.0,4095.0,4095.0,6.05,8.06,1.38,-0.05,0.01,-0.03,1.0,hello
3056.0,3177.0,4095.0,2919.0,4095.0,4095.0,4095.0,4095.0,6.22,7.99,1.32,-0.02,-0.1,-0.06,1.0,hello
3061.0,3213.0,4095.0,2922.0,4095.0,4095.0,4095.0,4095.0,7.69,7.67,0.56,0.08,-0.17,-0.12,1.0,hello
3039.0,3198.0,4095.0,2873.0,4095.0,4095.0,4095.0,4095.0,16.65,7.54,-3.76,-1.08,-2.08,-3.42,1.0,hello
3050.0,3217.0,4095.0,2944.0,4095.0,4095.0,4095.0,4095.0,-4.92,5.08,6.7,-2.05,-0.53,-2.26,1.0,hello
3046.0,3210.0,4095.0,2977.0,4095.0,4095.0,4095.0,4095.0,-3.62,8.5,5.61,-0.43,-0.45,-0.38,1.0,hello
3061.0,3203.0,4095.0,2972.0,4095.0,4095.0,4095.0,4095.0,1.37,10.18,3.17,0.01,0.05,-0.1,1.0,hello
3051.0,3214.0,4095.0,2957.0,4095.0,4095.0,4095.0,4095.0,0.77,9.6,2.57,-0.1,0.03,-0.1,1.0,hello
3045.0,3206.0,4095.0,2973.0,4095.0,4095.0,4095.0,4095.0,0.61,9.69,3.11,-0.11,0.0,-0.06,1.0,hello
3057.0,3200.0,4095.0,2960.0,4095.0,4095.0,4095.0,4095.0,0.71,9.59,2.99,-0.1,0.04,-0.07,1.0,hello
3056.0,3211.0,4095.0,2970.0,4095.0,4095.0,4095.0,4095.0,0.67,9.81,3.18,-0.15,0.05,-0.05,1.0,hello
3056.0,3189.0,4095.0,2969.0,4095.0,4095.0,4095.0,4095.0,0.39,9.54,3.45,-0.06,0.0,-0.0,1.0,hello
3051.0,3205.0,4095.0,2976.0,4095.0,4095.0,4095.0,4095.0,0.55,9.5,3.19,-0.04,0.01,0.0,1.0,hello
3041.0,3193.0,4095.0,2980.0,4095.0,4095.0,4095.0,4095.0,0.81,9.7,2.91,-0.1,0.05,-0.01,1.0,hello
3047.0,3212.0,4095.0,2977.0,4095.0,4095.0,4095.0,4095.0,0.6,9.64,3.08,-0.08,0.03,-0.02,1.0,hello
3045.0,3205.0,4095.0,2981.0,4095.0,4095.0,4095.0,4095.0,0.72,9.36,3.53,-0.09,-0.03,-0.0,1.0,hello
3038.0,3206.0,4095.0,2975.0,4095.0,4095.0,4095.0,4095.0,0.59,9.64,3.24,-0.06,-0.0,-0.0,1.0,hello
3056.0,3216.0,4095.0,2976.0,4095.0,4095.0,4095.0,4095.0,0.71,9.63,3.17,-0.06,-0.04,-0.01,1.0,hello
3055.0,3184.0,4095.0,2979.0,4095.0,4095.0,4095.0,4095.0,0.52,9.39,3.2,-0.03,0.03,0.0,1.0,hello
3046.0,3205.0,4095.0,2993.0,4095.0,4095.0,4095.0,4095.0,0.6,9.6,3.15,-0.08,0.03,0.0,1.0,hello
3027.0,3219.0,4095.0,2899.0,4095.0,4095.0,4095.0,4095.0,6.13,8.11,0.59,-0.06,-0.05,-0.03,1.0,hello
3031.0,3210.0,4095.0,2902.0,4095.0,4095.0,4095.0,4095.0,6.35,7.95,0.46,-0.03,-0.03,-0.07,1.0,hello
3037.0,3234.0,4095.0,2877.0,4095.0,4095.0,4095.0,4095.0,13.17,7.12,-4.32,-0.18,0.13,-0.99,1.0,hello
3034.0,3216.0,4095.0,2871.0,4095.0,4095.0,4095.0,4095.0,12.68,6.22,0.43,-2.21,-1.68,-3.5,1.0,hello
3024.0,3231.0,4095.0,2963.0,4095.0,4095.0,4095.0,4095.0,-10.63,4.35,8.92,-1.39,0.07,-2.07,1.0,hello
3031.0,3245.0,4095.0,2971.0,4095.0,4095.0,4095.0,4095.0,-2.16,9.52,4.85,-0.2,-0.05,-0.17,1.0,hello
3029.0,3223.0,4095.0,2965.0,4095.0,4095.0,4095.0,4095.0,0.54,9.76,4.07,-0.1,0.04,-0.06,1.0,hello
3033.0,3228.0,4095.0,2967.0,4095.0,4095.0,4095.0,4095.0,-0.08,9.19,3.91,-0.07,0.03,-0.04,1.0,hello
3013.0,3234.0,4095.0,2974.0,4095.0,4095.0,4095.0,4095.0,0.16,9.34,3.9,-0.04,0.03,0.01,1.0,hello
3019.0,3230.0,4095.0,2973.0,4095.0,4095.0,4095.0,4095.0,0.04,9.38,3.99,-0.07,0.03,0.01,1.0,hello
3033.0,3241.0,4095.0,2970.0,4095.0,4095.0,4095.0,4095.0,0.06,9.43,3.66,-0.06,0.04,0.03,1.0,hello
3027.0,3234.0,4095.0,2979.0,4095.0,4095.0,4095.0,4095.0,0.08,9.39,3.71,-0.08,0.05,0.07,1.0,hello
3024.0,3232.0,4095.0,2978.0,4095.0,4095.0,4095.0,4095.0,0.47,9.38,3.88,-0.09,0.08,0.03,1.0,hello
3023.0,3238.0,4095.0,2969.0,4095.0,4095.0,4095.0,4095.0,0.34,9.47,3.71,-0.02,0.06,-0.02,1.0,hello
3025.0,3234.0,4095.0,2977.0,4095.0,4095.0,4095.0,4095.0,0.29,9.34,3.72,-0.08,0.05,0.0,1.0,hello
3031.0,3235.0,4095.0,2975.0,4095.0,4095.0,4095.0,4095.0,0.55,9.49,3.71,-0.08,-0.0,0.02,1.0,hello
3029.0,3231.0,4095.0,2978.0,4095.0,4095.0,4095.0,4095.0,0.39,9.41,3.74,-0.04,-0.02,0.01,1.0,hello
3014.0,3221.0,4095.0,2982.0,4095.0,4095.0,4095.0,4095.0,0.29,9.32,3.77,-0.06,0.03,-0.01,1.0,hello
3029.0,3223.0,4095.0,2974.0,4095.0,4095.0,4095.0,4095.0,0.4,9.48,3.62,-0.08,-0.01,0.02,1.0,hello
3031.0,3231.0,4095.0,2979.0,4095.0,4095.0,4095.0,4095.0,0.44,9.43,3.78,-0.07,0.05,0.06,1.0,hello
3021.0,3228.0,4095.0,2800.0,4095.0,4095.0,4095.0,4095.0,6.0,8.26,0.18,-0.09,0.0,-0.01,1.0,hello
3008.0,3229.0,4095.0,2800.0,4095.0,4095.0,4095.0,4095.0,6.14,8.09,-0.29,-0.09,0.04,-0.02,1.0,hello
3009.0,3234.0,4095.0,2757.0,4095.0,4095.0,4095.0,4095.0,18.03,8.88,-6.62,-0.65,-1.48,-1.47,1.0,hello
3034.0,3226.0,4095.0,2755.0,4095.0,4095.0,4095.0,4095.0,-0.61,3.64,0.79,-2.98,-0.09,-3.51,1.0,hello
3024.0,3242.0,4095.0,2813.0,4095.0,4095.0,4095.0,4095.0,-7.34,6.38,11.29,-0.79,-0.36,-0.49,1.0,hello
3024.0,3231.0,4095.0,2831.0,4095.0,4095.0,4095.0,4095.0,0.85,10.0,3.2,-0.15,0.13,0.01,1.0,hello
3023.0,3235.0,4095.0,2834.0,4095.0,4095.0,4095.0,4095.0,0.76,9.26,3.73,-0.16,-0.03,0.03,1.0,hello
3015.0,3237.0,4095.0,2845.0,4095.0,4095.0,4095.0,4095.0,0.72,9.47,3.39,-0.08,-0.02,0.05,1.0,hello
3023.0,3237.0,4095.0,2847.0,4095.0,4095.0,4095.0,4095.0,0.85,9.53,3.86,-0.06,0.04,0.0,1.0,hello
3015.0,3243.0,4095.0,2861.0,4095.0,4095.0,4095.0,4095.0,0.63,9.59,3.47,-0.02,0.04,0.01,1.0,hello
3014.0,3238.0,4095.0,2858.0,4095.0,4095.0,4095.0,4095.0,0.94,9.42,3.5,-0.05,0.02,0.02,1.0,hello
3013.0,3239.0,4095.0,2859.0,4095.0,4095.0,4095.0,4095.0,0.98,9.48,3.3,-0.03,0.04,0.0,1.0,hello
3017.0,3253.0,4095.0,2865.0,4095.0,4095.0,4095.0,4095.0,1.18,9.45,3.37,-0.05,0.0,-0.03,1.0,hello
3007.0,3223.0,4095.0,2865.0,4095.0,4095.0,4095.0,4095.0,0.9,9.59,3.3,-0.06,0.03,-0.01,1.0,hello
3010.0,3253.0,4095.0,2870.0,4095.0,4095.0,4095.0,4095.0,1.17,9.59,3.47,-0.06,0.02,-0.05,1.0,hello
3017.0,3251.0,4095.0,2871.0,4095.0,4095.0,4095.0,4095.0,0.79,9.55,3.3,-0.07,0.0,-0.04,1.0,hello
3008.0,3233.0,4095.0,2863.0,4095.0,4095.0,4095.0,4095.0,1.02,9.5,3.39,-0.06,-0.01,0.02,1.0,hello
3006.0,3239.0,4095.0,2877.0,4095.0,4095.0,4095.0,4095.0,0.94,9.49,3.42,-0.05,0.02,0.01,1.0,hello
3013.0,3229.0,4095.0,2878.0,4095.0,4095.0,4095.0,4095.0,1.01,9.41,3.31,-0.1,-0.0,0.02,1.0,hello
3013.0,3239.0,4095.0,2875.0,4095.0,4095.0,4095.0,4095.0,0.93,9.42,3.47,-0.08,-0.01,-0.0,1.0,hello
3013.0,3220.0,4095.0,2883.0,4095.0,4095.0,4095.0,4095.0,5.97,8.2,0.32,-0.05,-0.07,-0.03,1.0,hello
3004.0,3227.0,4095.0,2893.0,4095.0,4095.0,4095.0,4095.0,8.03,7.83,-1.15,0.02,-0.02,-0.19,1.0,hello
3009.0,3229.0,4095.0,2859.0,4095.0,4095.0,4095.0,4095.0,15.56,7.6,-6.59,-1.69,-1.26,-2.51,1.0,hello
2999.0,3232.0,4095.0,2954.0,4095.0,4095.0,4095.0,4095.0,-4.79,3.73,9.02,-2.56,-0.33,-2.14,1.0,hello
3005.0,3230.0,4095.0,2978.0,4095.0,4095.0,4095.0,4095.0,-3.71,9.31,5.7,-0.02,0.0,-0.55,1.0,hello
3011.0,3248.0,4095.0,2975.0,4095.0,4095.0,4095.0,4095.0,0.79,9.55,3.52,-0.17,0.1,-0.01,1.0,hello
3010.0,3245.0,4095.0,2989.0,4095.0,4095.0,4095.0,4095.0,0.79,9.39,3.78,-0.1,0.03,-0.08,1.0,hello
3008.0,3225.0,4095.0,2974.0,4095.0,4095.0,4095.0,4095.0,0.7,9.58,3.51,-0.05,0.0,-0.01,1.0,hello
3019.0,3229.0,4095.0,2986.0,4095.0,4095.0,4095.0,4095.0,0.66,9.47,3.63,-0.05,0.01,-0.06,1.0,hello
3024.0,3235.0,4095.0,2990.0,4095.0,4095.0,4095.0,4095.0,0.64,9.44,3.6,-0.05,-0.02,0.04,1.0,hello
3021.0,3227.0,4095.0,2983.0,4095.0,4095.0,4095.0,4095.0,1.11,9.59,3.33,-0.04,-0.01,0.01,1.0,hello
3017.0,3235.0,4095.0,2987.0,4095.0,4095.0,4095.0,4095.0,0.8,9.35,3.4,-0.05,0.03,-0.01,1.0,hello
3023.0,3232.0,4095.0,2982.0,4095.0,4095.0,4095.0,4095.0,0.86,9.43,3.59,-0.04,0.01,-0.01,1.0,hello
3007.0,3233.0,4095.0,2991.0,4095.0,4095.0,4095.0,4095.0,1.09,9.59,3.48,-0.03,-0.03,-0.06,1.0,hello
3004.0,3231.0,4095.0,2994.0,4095.0,4095.0,4095.0,4095.0,0.81,9.5,3.36,-0.05,0.0,-0.05,1.0,hello
3015.0,3233.0,4095.0,2990.0,4095.0,4095.0,4095.0,4095.0,0.83,9.42,3.37,-0.05,0.03,-0.01,1.0,hello
3017.0,3239.0,4095.0,2997.0,4095.0,4095.0,4095.0,4095.0,1.2,9.56,3.59,-0.08,-0.0,-0.05,1.0,hello
2998.0,3250.0,4095.0,2996.0,4095.0,4095.0,4095.0,4095.0,0.7,9.46,3.38,-0.08,0.0,-0.03,1.0,hello
3011.0,3255.0,4095.0,2991.0,4095.0,4095.0,4095.0,4095.0,0.87,9.51,3.48,-0.09,-0.02,-0.02,1.0,hello
3005.0,3232.0,4095.0,2994.0,4095.0,4095.0,4095.0,4095.0,0.74,9.48,3.47,-0.08,-0.04,-0.01,1.0,hello
3035.0,3245.0,4095.0,2827.0,4095.0,4095.0,4095.0,4095.0,5.82,8.33,0.03,-0.06,-0.03,-0.03,1.0,hello
3032.0,3241.0,4095.0,2829.0,4095.0,4095.0,4095.0,4095.0,5.87,8.19,0.01,-0.06,-0.03,-0.03,1.0,hello
3037.0,3243.0,4095.0,2845.0,4095.0,4095.0,4095.0,4095.0,6.3,8.21,-0.2,-0.04,-0.07,-0.08,1.0,hello
3011.0,3248.0,4095.0,2829.0,4095.0,4095.0,4095.0,4095.0,12.61,8.62,-7.08,-0.61,-0.76,-0.91,1.0,hello
3022.0,3253.0,4095.0,2831.0,4095.0,4095.0,4095.0,4095.0,9.37,5.19,-1.64,-3.74,-1.19,-3.61,1.0,hello
3007.0,3253.0,4095.0,2911.0,4095.0,4095.0,4095.0,4095.0,-9.88,4.58,13.95,0.07,-0.21,-1.23,1.0,hello
3006.0,3233.0,4095.0,2895.0,4095.0,4095.0,4095.0,4095.0,1.8,10.37,2.85,0.21,0.05,-0.03,1.0,hello
2999.0,3248.0,4095.0,2897.0,4095.0,4095.0,4095.0,4095.0,1.24,9.45,2.94,-0.02,0.18,-0.19,1.0,hello
3008.0,3249.0,4095.0,2910.0,4095.0,4095.0,4095.0,4095.0,0.75,9.52,3.05,-0.05,0.12,-0.06,1.0,hello
3019.0,3248.0,4095.0,2913.0,4095.0,4095.0,4095.0,4095.0,1.0,9.71,3.38,-0.03,0.1,-0.04,1.0,hello
3003.0,3248.0,4095.0,2913.0,4095.0,4095.0,4095.0,4095.0,0.9,9.7,3.11,-0.05,0.09,-0.03,1.0,hello
3004.0,3248.0,4095.0,2928.0,4095.0,4095.0,4095.0,4095.0,1.06,9.54,3.29,-0.05,0.0,-0.03,1.0,hello
3006.0,3248.0,4089.0,2918.0,4095.0,4095.0,4095.0,4095.0,1.06,9.53,3.26,-0.01,0.01,-0.01,1.0,hello
3010.0,3238.0,4095.0,2925.0,4095.0,4095.0,4095.0,4095.0,0.96,9.56,3.05,-0.07,0.01,0.01,1.0,hello
2992.0,3247.0,4095.0,2928.0,4095.0,4095.0,4095.0,4095.0,0.93,9.56,3.26,-0.03,0.02,-0.03,1.0,hello
3005.0,3241.0,4095.0,2919.0,4095.0,4095.0,4095.0,4095.0,0.96,9.56,3.03,-0.06,-0.01,0.02,1.0,hello
3007.0,3242.0,4095.0,2928.0,4095.0,4095.0,4095.0,4095.0,1.14,9.52,3.11,-0.08,0.08,-0.02,1.0,hello
2998.0,3248.0,4095.0,2927.0,4095.0,4095.0,4095.0,4095.0,0.97,9.56,3.16,-0.06,0.03,0.01,1.0,hello
3014.0,3245.0,4095.0,2932.0,4095.0,4095.0,4095.0,4095.0,1.09,9.64,3.14,-0.08,0.05,-0.01,1.0,hello
2999.0,3231.0,4095.0,2939.0,4095.0,4095.0,4095.0,4095.0,1.26,9.73,3.2,0.0,0.01,-0.01,1.0,hello
3059.0,3394.0,3893.0,2913.0,4095.0,4095.0,4095.0,4095.0,6.0,8.23,-0.23,-0.06,0.0,-0.03,1.0,hello
3053.0,3408.0,3874.0,2913.0,4095.0,4095.0,4095.0,4095.0,6.03,8.25,-0.29,-0.07,-0.02,-0.04,1.0,hello
3041.0,3398.0,3898.0,2914.0,4095.0,4095.0,4095.0,4095.0,11.89,8.19,-4.65,-0.15,-0.29,-0.48,1.0,hello
3051.0,3393.0,4032.0,2887.0,4095.0,4095.0,4095.0,4095.0,13.6,6.25,-3.6,-3.24,-1.55,-3.78,1.0,hello
3047.0,3391.0,3985.0,2998.0,4095.0,4095.0,4095.0,4095.0,-11.76,4.09,10.7,-0.96,0.15,-1.74,1.0,hello
3042.0,3386.0,4016.0,2995.0,4095.0,4095.0,4095.0,4095.0,0.47,9.66,4.02,-0.25,0.22,0.14,1.0,hello
3045.0,3389.0,4014.0,2993.0,4095.0,4095.0,4095.0,4095.0,1.08,9.75,3.71,-0.17,0.14,-0.1,1.0,hello
3051.0,3385.0,3991.0,2992.0,4095.0,4095.0,4095.0,4095.0,0.54,9.35,3.72,-0.11,-0.03,0.04,1.0,hello
3047.0,3389.0,4016.0,3004.0,4095.0,4095.0,4095.0,4095.0,1.21,9.56,3.47,-0.12,-0.03,0.05,1.0,hello
3040.0,3408.0,4011.0,2999.0,4095.0,4095.0,4095.0,4095.0,1.16,9.43,3.5,-0.01,0.02,0.01,1.0,hello
3052.0,3371.0,4018.0,3006.0,4095.0,4095.0,4095.0,4095.0,1.05,9.36,3.43,-0.05,0.03,0.01,1.0,hello
3041.0,3408.0,4031.0,3011.0,4095.0,4095.0,4095.0,4095.0,1.52,9.47,3.57,-0.03,-0.04,0.03,1.0,hello
3056.0,3381.0,4027.0,3003.0,4095.0,4095.0,4095.0,4095.0,1.41,9.51,3.53,0.0,0.05,-0.01,1.0,hello
3037.0,3391.0,4006.0,3015.0,4095.0,4095.0,4095.0,4095.0,1.39,9.59,3.12,-0.02,0.05,-0.02,1.0,hello
3051.0,3391.0,4041.0,3005.0,4095.0,4095.0,4095.0,4095.0,1.24,9.47,3.34,-0.05,0.04,-0.03,1.0,hello
3039.0,3410.0,4030.0,3007.0,4095.0,4095.0,4095.0,4095.0,1.4,9.55,3.25,-0.08,0.02,-0.03,1.0,hello
3049.0,3397.0,4035.0,3007.0,4095.0,4095.0,4095.0,4095.0,1.13,9.49,3.43,-0.07,-0.03,-0.01,1.0,hello
3047.0,3395.0,4016.0,3007.0,4095.0,4095.0,4095.0,4095.0,1.31,9.52,3.35,-0.07,0.02,-0.02,1.0,hello
3043.0,3390.0,4016.0,3007.0,4095.0,4095.0,4095.0,4095.0,1.3,9.56,3.45,-0.05,-0.02,0.01,1.0,hello
3043.0,3391.0,4017.0,3010.0,4095.0,4095.0,4095.0,4095.0,1.43,9.51,3.42,-0.07,0.03,-0.02,1.0,hello
3156.0,3297.0,3984.0,3039.0,4095.0,4095.0,4095.0,4095.0,6.19,8.01,-0.34,-0.05,-0.04,-0.05,1.0,hello
3154.0,3291.0,3979.0,3057.0,4095.0,4095.0,4095.0,4095.0,6.02,7.9,-0.3,-0.08,0.01,-0.04,1.0,hello
3152.0,3290.0,4015.0,3055.0,4095.0,4095.0,4095.0,4095.0,7.19,7.91,-1.1,-0.05,-0.0,-0.06,1.0,hello
3154.0,3293.0,4080.0,2979.0,4095.0,4095.0,4095.0,4095.0,18.71,9.15,-9.69,-0.79,-0.49,-1.97,1.0,hello
3155.0,3298.0,3984.0,3105.0,4095.0,4095.0,4095.0,4095.0,-6.33,2.01,9.24,-2.91,-0.73,-1.88,1.0,hello
3154.0,3299.0,4030.0,3115.0,4095.0,4095.0,4095.0,4095.0,-0.26,9.41,5.15,-0.39,-0.05,-0.47,1.0,hello
3152.0,3295.0,4024.0,3095.0,4095.0,4095.0,4095.0,4095.0,1.7,9.7,3.68,-0.15,0.0,-0.14,1.0,hello
3153.0,3309.0,4038.0,3106.0,4095.0,4095.0,4095.0,4095.0,2.03,9.27,3.58,-0.03,-0.01,-0.14,1.0,hello
3149.0,3301.0,4074.0,3101.0,4095.0,4095.0,4095.0,4095.0,1.81,9.48,3.29,-0.04,0.07,-0.04,1.0,hello
3142.0,3306.0,4047.0,3096.0,4095.0,4095.0,4095.0,4095.0,1.87,9.53,3.23,-0.01,0.0,0.01,1.0,hello
3141.0,3309.0,4079.0,3099.0,4095.0,4095.0,4095.0,4095.0,1.72,9.43,2.83,-0.05,0.01,-0.01,1.0,hello
3146.0,3285.0,4054.0,3103.0,4095.0,4095.0,4095.0,4095.0,1.9,9.52,3.33,-0.09,-0.03,-0.04,1.0,hello
3149.0,3297.0,4080.0,3102.0,4095.0,4095.0,4095.0,4095.0,1.9,9.5,2.97,-0.07,-0.03,0.03,1.0,hello
3155.0,3295.0,4031.0,3115.0,4095.0,4095.0,4095.0,4095.0,1.89,9.46,3.17,-0.05,-0.01,0.01,1.0,hello
3163.0,3303.0,4073.0,3111.0,4095.0,4095.0,4095.0,4095.0,1.95,9.47,2.98,-0.04,0.0,-0.02,1.0,hello
3149.0,3294.0,4079.0,3106.0,4095.0,4095.0,4095.0,4095.0,2.09,9.52,2.99,-0.05,0.03,-0.04,1.0,hello
3149.0,3296.0,4092.0,3117.0,4095.0,4095.0,4095.0,4095.0,2.09,9.4,2.96,-0.02,-0.01,-0.01,1.0,hello
3152.0,3312.0,4085.0,3111.0,4095.0,4095.0,4095.0,4095.0,1.98,9.47,3.1,-0.05,0.05,-0.06,1.0,hello
3153.0,3316.0,4068.0,3088.0,4095.0,4095.0,4095.0,4095.0,2.06,9.49,3.07,-0.03,0.08,-0.05,1.0,hello
3138.0,3296.0,4080.0,3088.0,4095.0,4095.0,4095.0,4095.0,2.14,9.62,2.94,-0.04,0.0,-0.04,1.0,hello
3163.0,3209.0,4095.0,3022.0,4095.0,4095.0,4095.0,4095.0,6.29,7.96,0.01,-0.06,0.01,-0.03,1.0,hello
3163.0,3223.0,4095.0,3027.0,4095.0,4095.0,4095.0,4095.0,6.47,7.94,-0.14,-0.03,-0.02,-0.05,1.0,hello
3139.0,3216.0,4095.0,2994.0,4095.0,4095.0,4095.0,4095.0,16.38,8.57,-5.75,-0.55,-1.24,-1.19,1.0,hello
3169.0,3217.0,4095.0,3024.0,4095.0,4095.0,4095.0,4095.0,2.38,4.56,0.64,-2.29,0.26,-3.84,1.0,hello
3158.0,3231.0,4095.0,3071.0,4095.0,4095.0,4095.0,4095.0,-7.81,5.63,6.43,-1.19,-0.68,-1.23,1.0,hello
3152.0,3222.0,4095.0,3067.0,4095.0,4095.0,4095.0,4095.0,0.54,10.17,4.92,-0.1,-0.03,0.02,1.0,hello
3152.0,3218.0,4095.0,3071.0,4095.0,4095.0,4095.0,4095.0,0.51,9.72,3.75,-0.1,0.09,-0.01,1.0,hello
3145.0,3223.0,4095.0,3071.0,4095.0,4095.0,4095.0,4095.0,0.51,9.36,3.66,-0.04,0.06,0.05,1.0,hello
3166.0,3233.0,4095.0,3071.0,4095.0,4095.0,4095.0,4095.0,0.72,9.71,3.36,-0.05,0.0,0.04,1.0,hello
3161.0,3234.0,4095.0,3088.0,4095.0,4095.0,4095.0,4095.0,0.75,9.55,3.33,-0.05,-0.02,0.01,1.0,hello
3152.0,3222.0,4095.0,3082.0,4095.0,4095.0,4095.0,4095.0,0.63,9.5,3.42,-0.05,0.03,0.01,1.0,hello
3142.0,3220.0,4095.0,3088.0,4095.0,4095.0,4095.0,4095.0,0.95,9.62,3.22,-0.07,0.03,-0.0,1.0,hello
3155.0,3220.0,4095.0,3082.0,4095.0,4095.0,4095.0,4095.0,0.94,9.58,3.25,-0.09,0.01,0.0,1.0,hello
3146.0,3222.0,4095.0,3088.0,4095.0,4095.0,4095.0,4095.0,0.94,9.45,3.4,-0.07,-0.03,-0.01,1.0,hello
3139.0,3234.0,4095.0,3083.0,4095.0,4095.0,4095.0,4095.0,0.99,9.49,3.37,-0.07,-0.04,-0.01,1.0,hello
3142.0,3215.0,4095.0,3088.0,4095.0,4095.0,4095.0,4095.0,0.8,9.47,3.54,-0.07,-0.01,-0.02,1.0,hello
3138.0,3226.0,4095.0,3089.0,4095.0,4095.0,4095.0,4095.0,0.81,9.53,3.25,-0.04,0.01,-0.02,1.0,hello
3141.0,3223.0,4095.0,3071.0,4095.0,4095.0,4095.0,4095.0,1.01,9.54,3.46,-0.05,-0.05,-0.02,1.0,hello
3150.0,3225.0,4095.0,3087.0,4095.0,4095.0,4095.0,4095.0,0.79,9.53,3.3,-0.04,0.03,-0.02,1.0,hello
3152.0,3232.0,4095.0,3079.0,4095.0,4095.0,4095.0,4095.0,1.1,9.61,3.21,-0.08,0.01,-0.02,1.0,hello
3165.0,3205.0,4095.0,2991.0,4095.0,4095.0,4095.0,4095.0,5.76,8.31,-0.01,-0.07,-0.02,-0.03,1.0,hello
3136.0,3216.0,4095.0,2979.0,4095.0,4095.0,4095.0,4095.0,5.85,8.29,0.08,-0.08,-0.04,-0.05,1.0,hello
3136.0,3216.0,4095.0,2985.0,4095.0,4095.0,4095.0,4095.0,8.11,8.02,-1.69,-0.1,-0.02,-0.22,1.0,hello
3124.0,3223.0,4095.0,2989.0,4095.0,4095.0,4095.0,4095.0,13.38,7.16,-3.57,-1.75,-1.86,-2.26,1.0,hello
3127.0,3219.0,4095.0,3042.0,4095.0,4095.0,4095.0,4095.0,-5.17,5.84,6.51,-2.37,-0.06,-2.32,1.0,hello
3136.0,3218.0,4095.0,3061.0,4095.0,4095.0,4095.0,4095.0,-2.15,8.93,5.08,-0.36,-0.5,-0.34,1.0,hello
3125.0,3238.0,4095.0,3059.0,4095.0,4095.0,4095.0,4095.0,0.81,9.63,3.58,-0.16,0.0,-0.06,1.0,hello
3147.0,3234.0,4095.0,3061.0,4095.0,4095.0,4095.0,4095.0,0.81,9.55,3.43,-0.06,0.0,-0.04,1.0,hello
3136.0,3216.0,4095.0,3071.0,4095.0,4095.0,4095.0,4095.0,0.76,9.51,3.17,-0.07,0.0,-0.01,1.0,hello
3135.0,3218.0,4095.0,3065.0,4095.0,4095.0,4095.0,4095.0,1.0,9.6,2.99,-0.08,-0.02,-0.03,1.0,hello
3147.0,3222.0,4095.0,3085.0,4095.0,4095.0,4095.0,4095.0,1.09,9.7,3.36,-0.07,-0.01,0.06,1.0,hello
3132.0,3229.0,4095.0,3071.0,4095.0,4095.0,4095.0,4095.0,1.19,9.66,3.25,0.02,0.01,-0.04,1.0,hello
3133.0,3221.0,4095.0,3063.0,4095.0,4095.0,4095.0,4095.0,1.29,9.64,3.29,-0.03,-0.03,-0.02,1.0,hello
3146.0,3216.0,4095.0,3061.0,4095.0,4095.0,4095.0,4095.0,0.94,9.5,3.13,-0.06,0.03,-0.03,1.0,hello
3140.0,3231.0,4095.0,3063.0,4095.0,4095.0,4095.0,4095.0,1.37,9.64,3.26,-0.04,0.01,-0.03,1.0,hello
3137.0,3229.0,4095.0,3057.0,4095.0,4095.0,4095.0,4095.0,1.39,9.58,3.32,-0.02,-0.0,-0.01,1.0,hello
3135.0,3218.0,4095.0,3057.0,4095.0,4095.0,4095.0,4095.0,1.4,9.52,3.17,-0.0,-0.01,-0.04,1.0,hello
3134.0,3207.0,4095.0,3057.0,4095.0,4095.0,4095.0,4095.0,1.33,9.63,2.99,-0.05,0.0,-0.01,1.0,hello
3125.0,3218.0,4095.0,3063.0,4095.0,4095.0,4095.0,4095.0,1.11,9.42,3.32,-0.04,-0.08,-0.02,1.0,hello
3134.0,3217.0,4095.0,3086.0,4095.0,4095.0,4095.0,4095.0,1.17,9.5,3.27,-0.07,0.03,-0.01,1.0,hello
3095.0,3322.0,4095.0,2986.0,4095.0,4095.0,4095.0,4095.0,6.16,8.19,0.71,-0.03,-0.12,-0.06,1.0,hello
3107.0,3316.0,4095.0,2986.0,4095.0,4095.0,4095.0,4095.0,6.05,8.05,0.59,-0.08,-0.05,-0.06,1.0,hello
3099.0,3335.0,4095.0,2990.0,4095.0,4095.0,4095.0,4095.0,11.23,7.98,-1.9,-0.1,-0.64,-0.42,1.0,hello
3087.0,3331.0,4095.0,2967.0,4095.0,4095.0,4095.0,4095.0,9.53,6.73,-4.97,-2.23,-1.14,-3.45,1.0,hello
3088.0,3344.0,4095.0,3027.0,4095.0,4095.0,4095.0,4095.0,-6.21,3.68,13.27,-1.6,-0.94,-1.41,1.0,hello
3091.0,3344.0,4095.0,3037.0,4095.0,4095.0,4095.0,4095.0,0.1,9.51,4.31,-0.07,-0.08,-0.34,1.0,hello
3090.0,3343.0,4095.0,3029.0,4095.0,4095.0,4095.0,4095.0,1.69,10.08,3.08,-0.12,0.02,-0.02,1.0,hello
3087.0,3353.0,4095.0,3036.0,4095.0,4095.0,4095.0,4095.0,0.82,9.41,3.54,-0.06,0.12,-0.02,1.0,hello
3071.0,3345.0,4095.0,3037.0,4095.0,4095.0,4095.0,4095.0,1.11,9.5,3.33,-0.07,0.08,0.03,1.0,hello
3089.0,3344.0,4095.0,3034.0,4095.0,4095.0,4095.0,4095.0,0.95,9.64,3.24,-0.09,0.07,0.02,1.0,hello
3093.0,3350.0,4095.0,3046.0,4095.0,4095.0,4095.0,4095.0,1.13,9.47,3.14,-0.05,0.07,0.06,1.0,hello
3071.0,3358.0,4095.0,3042.0,4095.0,4095.0,4095.0,4095.0,1.3,9.54,3.18,-0.02,0.03,0.03,1.0,hello
3071.0,3348.0,4095.0,3038.0,4095.0,4095.0,4095.0,4095.0,1.4,9.66,2.7,-0.05,0.02,0.02,1.0,hello
3083.0,3341.0,4095.0,3053.0,4095.0,4095.0,4095.0,4095.0,1.4,9.5,3.04,-0.06,0.02,-0.03,1.0,hello
3094.0,3365.0,4095.0,3053.0,4095.0,4095.0,4095.0,4095.0,1.26,9.57,3.12,-0.09,-0.01,-0.01,1.0,hello
3083.0,3346.0,4095.0,3037.0,4095.0,4095.0,4095.0,4095.0,1.25,9.52,3.09,-0.06,0.0,-0.02,1.0,hello
3088.0,3346.0,4095.0,3045.0,4095.0,4095.0,4095.0,4095.0,1.37,9.6,2.9,-0.08,0.03,-0.04,1.0,hello
3093.0,3325.0,4095.0,3051.0,4095.0,4095.0,4095.0,4095.0,1.36,9.55,3.17,-0.05,-0.0,-0.01,1.0,hello
3063.0,3347.0,4095.0,3039.0,4095.0,4095.0,4095.0,4095.0,1.37,9.52,3.26,-0.04,0.01,-0.01,1.0,hello
3086.0,3332.0,4095.0,3050.0,4095.0,4095.0,4095.0,4095.0,1.46,9.6,3.07,-0.0,0.0,-0.02,1.0,hello
3200.0,3264.0,4095.0,2910.0,4095.0,4095.0,4095.0,4095.0,6.34,7.99,1.07,-0.02,-0.05,0.03,1.0,hello
3201.0,3261.0,4095.0,2924.0,4095.0,4095.0,4095.0,4095.0,6.08,7.92,1.13,-0.06,0.02,0.0,1.0,hello
3210.0,3248.0,4095.0,2934.0,4095.0,4095.0,4095.0,4095.0,7.01,7.86,0.59,-0.02,-0.03,-0.06,1.0,hello
3176.0,3251.0,4095.0,2864.0,4095.0,4095.0,4095.0,4095.0,15.89,9.56,-9.57,-0.93,-1.54,-1.71,1.0,hello
3194.0,3258.0,4095.0,2974.0,4095.0,4095.0,4095.0,4095.0,-0.56,2.66,10.64,-2.96,-0.05,-1.7,1.0,hello
3179.0,3261.0,4095.0,3005.0,4095.0,4095.0,4095.0,4095.0,-1.48,8.44,6.84,0.1,-0.02,-0.67,1.0,hello
3167.0,3246.0,4095.0,2992.0,4095.0,4095.0,4095.0,4095.0,2.04,9.46,3.0,0.02,0.08,-0.23,1.0,hello
3178.0,3265.0,4095.0,2978.0,4095.0,4095.0,4095.0,4095.0,1.86,9.15,3.56,-0.04,0.02,-0.16,1.0,hello
3177.0,3261.0,4095.0,2981.0,4095.0,4095.0,4095.0,4095.0,1.77,9.36,3.63,-0.02,0.01,-0.18,1.0,hello
3152.0,3248.0,4095.0,2979.0,4095.0,4095.0,4095.0,4095.0,1.53,9.25,3.78,-0.07,-0.02,-0.03,1.0,hello
3182.0,3264.0,4095.0,2982.0,4095.0,4095.0,4095.0,4095.0,1.81,9.35,3.5,-0.04,-0.05,0.01,1.0,hello
3185.0,3264.0,4095.0,2974.0,4095.0,4095.0,4095.0,4095.0,1.95,9.36,3.41,-0.08,-0.0,-0.03,1.0,hello
3166.0,3242.0,4095.0,2975.0,4095.0,4095.0,4095.0,4095.0,1.8,9.36,3.71,-0.09,-0.02,-0.04,1.0,hello
3175.0,3262.0,4095.0,2985.0,4095.0,4095.0,4095.0,4095.0,1.77,9.39,3.68,-0.05,-0.01,-0.03,1.0,hello
3174.0,3257.0,4095.0,2989.0,4095.0,4095.0,4095.0,4095.0,1.86,9.28,3.58,-0.05,0.01,-0.03,1.0,hello
3167.0,3265.0,4095.0,2983.0,4095.0,4095.0,4095.0,4095.0,1.91,9.38,3.53,-0.07,-0.04,-0.04,1.0,hello
3167.0,3253.0,4095.0,2983.0,4095.0,4095.0,4095.0,4095.0,1.71,9.26,3.76,-0.09,0.0,-0.02,1.0,hello
3164.0,3258.0,4095.0,2996.0,4095.0,4095.0,4095.0,4095.0,1.68,9.19,3.64,-0.12,0.05,-0.01,1.0,hello
3154.0,3255.0,4095.0,2990.0,4095.0,4095.0,4095.0,4095.0,1.76,9.19,3.8,-0.08,0.04,-0.02,1.0,hello
3169.0,3247.0,4095.0,2994.0,4095.0,4095.0,4095.0,4095.0,1.93,9.4,3.6,-0.06,-0.06,-0.01,1.0,hello
3266.0,3281.0,4095.0,3109.0,4095.0,4095.0,4095.0,3338.0,5.99,8.15,0.47,-0.03,-0.04,-0.05,1.0,hello
3281.0,3323.0,4075.0,3114.0,4095.0,4095.0,4095.0,3363.0,6.1,8.09,0.24,-0.1,-0.01,-0.02,1.0,hello
3290.0,3324.0,4095.0,3045.0,4095.0,4095.0,4095.0,3799.0,14.98,9.76,-8.61,-0.51,0.1,-1.25,1.0,hello
3271.0,3313.0,4095.0,3121.0,4095.0,4095.0,4095.0,4095.0,2.92,3.92,6.08,-3.36,-0.63,-2.27,1.0,hello
3248.0,3323.0,4095.0,3179.0,4095.0,4095.0,4095.0,4095.0,-3.21,7.02,8.45,-0.48,-0.18,-1.23,1.0,hello
3268.0,3303.0,4095.0,3159.0,4095.0,4095.0,4095.0,4095.0,0.99,9.43,4.25,-0.04,-0.01,-0.24,1.0,hello
3263.0,3317.0,4095.0,3157.0,4095.0,4095.0,4095.0,4095.0,1.58,9.25,3.89,0.01,0.11,-0.08,1.0,hello
3265.0,3315.0,4095.0,3164.0,4095.0,4095.0,4095.0,4095.0,1.94,9.18,3.9,-0.1,-0.01,-0.03,1.0,hello
3276.0,3312.0,4095.0,3157.0,4095.0,4095.0,4095.0,4095.0,1.65,9.21,4.09,-0.06,-0.0,-0.0,1.0,hello
3263.0,3305.0,4095.0,3161.0,4095.0,4095.0,4095.0,4095.0,1.91,9.27,3.77,-0.07,0.05,-0.0,1.0,hello
3265.0,3307.0,4095.0,3161.0,4095.0,4095.0,4095.0,4095.0,1.84,9.18,3.86,-0.05,0.03,0.0,1.0,hello
3267.0,3313.0,4095.0,3162.0,4095.0,4095.0,4095.0,4095.0,1.99,9.18,3.85,-0.04,0.01,-0.0,1.0,hello
3267.0,3315.0,4095.0,3164.0,4095.0,4095.0,4095.0,4095.0,1.81,9.17,3.9,-0.03,-0.04,-0.04,1.0,hello
3273.0,3321.0,4095.0,3171.0,4095.0,4095.0,4095.0,4095.0,1.94,9.26,3.73,-0.05,0.02,-0.01,1.0,hello
3263.0,3328.0,4095.0,3165.0,4095.0,4095.0,4095.0,4095.0,1.94,9.2,3.88,-0.07,-0.01,-0.04,1.0,hello
3255.0,3314.0,4095.0,3173.0,4095.0,4095.0,4095.0,4095.0,1.86,9.11,3.99,-0.11,0.01,0.0,1.0,hello
3267.0,3311.0,4095.0,3167.0,4095.0,4095.0,4095.0,4095.0,1.86,9.23,3.91,-0.04,0.05,-0.04,1.0,hello
3265.0,3312.0,4095.0,3173.0,4095.0,4095.0,4095.0,4095.0,1.92,9.21,3.86,-0.07,0.02,-0.02,1.0,hello
3259.0,3313.0,4095.0,3170.0,4095.0,4095.0,4095.0,4095.0,1.82,9.19,3.81,-0.07,0.02,-0.03,1.0,hello
3269.0,3307.0,4095.0,3171.0,4095.0,4095.0,4095.0,4095.0,1.87,9.17,3.75,-0.1,0.01,-0.01,1.0,hello
3062.0,3294.0,4067.0,3089.0,4095.0,4095.0,4095.0,4095.0,5.92,8.26,0.0,-0.07,-0.0,-0.01,1.0,hello
3071.0,3297.0,4058.0,3119.0,4095.0,4095.0,4095.0,4095.0,6.52,8.04,-0.67,-0.04,-0.05,-0.08,1.0,hello
3047.0,3302.0,4095.0,3086.0,4095.0,4095.0,4095.0,4095.0,13.22,9.34,-7.01,-0.81,-0.75,-1.41,1.0,hello
3056.0,3307.0,4095.0,3136.0,4095.0,4095.0,4095.0,4095.0,-0.12,5.46,5.05,-2.84,0.07,-1.99,1.0,hello
3059.0,3301.0,4081.0,3114.0,4095.0,4095.0,4095.0,4095.0,-1.56,8.18,6.37,-0.45,-0.34,-0.54,1.0,hello
3049.0,3302.0,4095.0,3093.0,4095.0,4095.0,4095.0,4095.0,2.59,9.79,3.01,-0.03,-0.05,-0.04,1.0,hello
3056.0,3299.0,4095.0,3117.0,4095.0,4095.0,4095.0,4095.0,2.32,9.3,2.86,-0.08,0.06,-0.05,1.0,hello
3049.0,3306.0,4095.0,3126.0,4095.0,4095.0,4095.0,4095.0,2.35,9.38,2.98,-0.07,-0.01,-0.03,1.0,hello
3056.0,3318.0,4095.0,3136.0,4095.0,4095.0,4095.0,4095.0,2.5,9.45,3.07,-0.07,-0.01,-0.03,1.0,hello
3069.0,3324.0,4095.0,3137.0,4095.0,4095.0,4095.0,4095.0,2.27,9.43,2.91,-0.1,0.02,-0.03,1.0,hello
3057.0,3312.0,4095.0,3125.0,4095.0,4095.0,4095.0,4095.0,2.5,9.45,2.95,-0.06,0.01,-0.01,1.0,hello
3041.0,3314.0,4095.0,3152.0,4095.0,4095.0,4095.0,4095.0,2.49,9.44,2.89,-0.04,-0.02,-0.01,1.0,hello
3047.0,3338.0,4095.0,3151.0,4095.0,4095.0,4095.0,4095.0,2.56,9.47,2.85,-0.08,-0.04,-0.05,1.0,hello
3055.0,3313.0,4095.0,3163.0,4095.0,4095.0,4095.0,4095.0,2.52,9.38,2.94,-0.06,0.04,-0.05,1.0,hello
3051.0,3312.0,4095.0,3167.0,4095.0,4095.0,4095.0,4095.0,2.52,9.41,2.8,-0.04,0.02,-0.02,1.0,hello
3055.0,3312.0,4095.0,3166.0,4095.0,4095.0,4095.0,4095.0,2.6,9.48,2.94,-0.05,0.01,-0.03,1.0,hello
3065.0,3305.0,4095.0,3171.0,4095.0,4095.0,4095.0,4095.0,2.56,9.37,2.97,-0.04,0.01,-0.05,1.0,hello
3051.0,3311.0,4095.0,3173.0,4095.0,4095.0,4095.0,4095.0,2.61,9.46,2.81,-0.05,-0.03,-0.01,1.0,hello
3055.0,3311.0,4095.0,3172.0,4095.0,4095.0,4095.0,4095.0,2.53,9.46,2.91,-0.05,-0.03,-0.04,1.0,hello
3056.0,3312.0,4095.0,3182.0,4095.0,4095.0,4095.0,4095.0,2.59,9.51,2.75,-0.04,-0.02,-0.04,1.0,hello
3285.0,3451.0,3440.0,3059.0,4095.0,4095.0,4095.0,2907.0,5.87,8.34,0.52,-0.06,0.02,-0.03,1.0,hello
3294.0,3453.0,3427.0,3063.0,4095.0,4095.0,4095.0,2911.0,5.79,8.32,0.46,-0.04,-0.03,-0.06,1.0,hello
3280.0,3469.0,3427.0,3056.0,4095.0,4095.0,4095.0,2921.0,10.72,8.7,-3.71,-0.11,-0.19,-0.43,1.0,hello
3279.0,3439.0,3476.0,3024.0,4095.0,4095.0,4095.0,3091.0,8.94,6.92,-3.26,-2.32,-0.96,-2.77,1.0,hello
3263.0,3451.0,3467.0,3096.0,4095.0,4095.0,4095.0,3269.0,-3.8,4.65,10.92,-1.48,-0.28,-1.18,1.0,hello
3278.0,3459.0,3469.0,3083.0,4095.0,4095.0,4095.0,3245.0,0.36,9.24,5.81,0.07,0.1,-0.15,1.0,hello
3262.0,3470.0,3466.0,3082.0,4095.0,4095.0,4095.0,3243.0,2.51,9.7,3.6,0.08,0.12,-0.1,1.0,hello
3255.0,3441.0,3466.0,3088.0,4095.0,4095.0,4095.0,3245.0,2.06,9.19,3.49,0.01,0.02,-0.09,1.0,hello
3258.0,3469.0,3456.0,3082.0,4095.0,4095.0,4095.0,3261.0,2.01,9.32,3.72,-0.05,0.06,-0.04,1.0,hello
3276.0,3462.0,3479.0,3085.0,4095.0,4095.0,4095.0,3249.0,2.03,9.33,3.76,-0.07,0.05,-0.01,1.0,hello
3264.0,3449.0,3470.0,3090.0,4095.0,4095.0,4095.0,3246.0,1.92,9.27,3.65,-0.03,0.06,0.0,1.0,hello
3259.0,3463.0,3477.0,3098.0,4095.0,4095.0,4095.0,3265.0,2.06,9.25,3.54,-0.05,-0.03,0.0,1.0,hello
3271.0,3474.0,3474.0,3098.0,4095.0,4095.0,4095.0,3182.0,2.15,9.3,3.46,-0.07,0.03,-0.03,1.0,hello
3264.0,3455.0,3469.0,3104.0,4095.0,4095.0,4095.0,3175.0,2.18,9.28,3.71,-0.08,-0.06,-0.04,1.0,hello
3246.0,3453.0,3458.0,3093.0,4095.0,4095.0,4095.0,3171.0,2.06,9.28,3.65,-0.05,-0.03,-0.02,1.0,hello
3271.0,3451.0,3470.0,3099.0,4095.0,4095.0,4095.0,3179.0,2.12,9.25,3.73,-0.06,-0.04,-0.01,1.0,hello
3257.0,3454.0,3472.0,3093.0,4095.0,4095.0,4095.0,3207.0,1.98,9.31,3.48,-0.09,-0.04,-0.01,1.0,hello
3269.0,3460.0,3456.0,3101.0,4095.0,4095.0,4095.0,3180.0,2.05,9.22,3.71,-0.04,0.02,-0.02,1.0,hello
3248.0,3440.0,3462.0,3094.0,4095.0,4095.0,4095.0,3184.0,2.12,9.3,3.53,-0.08,0.01,-0.02,1.0,hello
3262.0,3474.0,3458.0,3093.0,4095.0,4095.0,4095.0,3159.0,2.2,9.3,3.7,-0.06,0.04,0.0,1.0,hello
3088.0,3520.0,3923.0,2992.0,4095.0,4095.0,4095.0,4095.0,5.91,8.3,0.0,-0.04,-0.05,-0.04,1.0,hello
3069.0,3529.0,3940.0,2999.0,4095.0,4095.0,4095.0,4095.0,7.42,8.29,-1.87,0.06,-0.1,-0.19,1.0,hello
3066.0,3535.0,3931.0,2983.0,4095.0,4095.0,4095.0,4095.0,12.24,8.63,-6.76,-1.67,-0.74,-1.86,1.0,hello
3070.0,3547.0,3965.0,3051.0,4095.0,4095.0,4095.0,4095.0,-2.38,4.99,7.77,-2.22,-0.02,-1.63,1.0,hello
3071.0,3557.0,3971.0,3071.0,4095.0,4095.0,4095.0,4095.0,-1.2,8.5,6.29,-0.25,-0.12,-0.44,1.0,hello
3085.0,3549.0,3951.0,3071.0,4095.0,4095.0,4095.0,4095.0,2.16,9.92,2.84,0.09,0.02,-0.1,1.0,hello
3065.0,3535.0,3965.0,3070.0,4095.0,4095.0,4095.0,4095.0,1.92,9.63,2.42,0.01,0.04,-0.13,1.0,hello
3071.0,3566.0,3951.0,3084.0,4095.0,4095.0,4095.0,4095.0,1.73,9.55,2.66,-0.05,-0.0,-0.06,1.0,hello
3067.0,3557.0,3942.0,3088.0,4095.0,4095.0,4095.0,4095.0,1.93,9.7,2.73,-0.01,0.0,-0.01,1.0,hello
3071.0,3542.0,3952.0,3084.0,4095.0,4095.0,4095.0,4095.0,1.63,9.58,2.61,-0.09,0.01,-0.0,1.0,hello
3066.0,3541.0,3943.0,3088.0,4095.0,4095.0,4095.0,4095.0,1.94,9.57,2.66,-0.06,-0.01,0.01,1.0,hello
3071.0,3542.0,3957.0,3088.0,4095.0,4095.0,4095.0,4095.0,1.85,9.59,2.63,-0.1,0.0,0.0,1.0,hello
3066.0,3547.0,3952.0,3091.0,4095.0,4095.0,4095.0,4095.0,1.94,9.72,2.55,-0.05,-0.02,0.0,1.0,hello
3061.0,3551.0,3942.0,3087.0,4095.0,4095.0,4095.0,4095.0,1.93,9.56,2.78,-0.07,-0.01,-0.01,1.0,hello
3067.0,3534.0,3928.0,3089.0,4095.0,4095.0,4095.0,4095.0,1.89,9.67,2.59,-0.05,0.0,-0.03,1.0,hello
3071.0,3538.0,3950.0,3089.0,4095.0,4095.0,4095.0,4095.0,1.96,9.58,2.54,-0.05,-0.03,-0.02,1.0,hello
3070.0,3543.0,3974.0,3089.0,4095.0,4095.0,4095.0,4095.0,1.98,9.64,2.62,-0.05,-0.04,-0.0,1.0,hello
3070.0,3558.0,3958.0,3071.0,4095.0,4095.0,4095.0,4095.0,1.68,9.57,2.55,-0.02,-0.01,-0.0,1.0,hello
3088.0,3561.0,3969.0,3088.0,4095.0,4095.0,4095.0,4095.0,2.1,9.75,2.53,-0.08,-0.03,0.04,1.0,hello
3083.0,3536.0,3951.0,3082.0,4095.0,4095.0,4095.0,4095.0,2.22,9.7,2.35,-0.06,0.03,-0.03,1.0,hello
3163.0,3480.0,3115.0,2647.0,4095.0,4095.0,4095.0,1968.0,20.17,6.81,-0.85,-0.25,-0.84,-0.67,1.0,hello
3184.0,3482.0,3142.0,2684.0,4095.0,4095.0,4095.0,3172.0,-1.66,-5.46,9.15,-3.44,1.93,-4.65,1.0,hello
3155.0,3492.0,3156.0,2731.0,4095.0,4095.0,4095.0,2159.0,0.17,7.72,9.1,-0.07,-1.48,-0.31,1.0,hello
3159.0,3476.0,3143.0,2743.0,4095.0,4095.0,4095.0,2151.0,2.88,6.07,8.52,-0.02,-0.17,-0.37,1.0,hello
3159.0,3499.0,3157.0,2743.0,4095.0,4095.0,4095.0,2682.0,1.5,5.93,7.59,-0.14,-0.04,-0.18,1.0,hello
3150.0,3485.0,3146.0,2747.0,4095.0,4095.0,4095.0,2820.0,2.07,6.08,8.39,-0.06,-0.04,0.04,1.0,hello
3157.0,3476.0,3141.0,2743.0,4095.0,4095.0,4095.0,2837.0,2.36,6.34,8.23,0.09,-0.07,0.02,1.0,hello
3146.0,3471.0,3149.0,2754.0,4095.0,4095.0,4095.0,2945.0,2.62,6.3,7.69,0.05,0.0,0.06,1.0,hello
3169.0,3482.0,3146.0,2749.0,4095.0,4095.0,4095.0,3019.0,2.76,6.37,7.38,-0.0,-0.07,0.05,1.0,hello
3147.0,3502.0,3156.0,2746.0,4095.0,4095.0,4095.0,3008.0,2.79,6.38,7.36,-0.05,0.03,0.04,1.0,hello
3143.0,3471.0,3149.0,2747.0,4095.0,4095.0,4095.0,3027.0,2.78,6.31,7.69,-0.08,0.12,0.03,1.0,hello
3152.0,3487.0,3153.0,2751.0,4095.0,4095.0,4095.0,3049.0,2.86,6.35,7.72,-0.06,0.08,0.01,1.0,hello
3154.0,3481.0,3147.0,2750.0,4095.0,4095.0,4095.0,3088.0,2.99,6.36,7.55,-0.09,0.08,-0.02,1.0,hello
3154.0,3481.0,3141.0,2750.0,4095.0,4095.0,4095.0,3120.0,2.76,6.39,7.45,-0.06,0.01,-0.03,1.0,hello
3153.0,3485.0,3142.0,2759.0,4095.0,4095.0,4095.0,3060.0,2.96,6.32,7.74,-0.08,0.04,-0.02,1.0,hello
3152.0,3474.0,3159.0,2755.0,4095.0,4095.0,4095.0,3071.0,2.8,6.37,7.63,-0.05,0.01,0.02,1.0,hello
3152.0,3491.0,3151.0,2752.0,4095.0,4095.0,4095.0,3059.0,2.73,6.35,7.54,-0.05,-0.01,-0.0,1.0,hello
3156.0,3475.0,3153.0,2761.0,4095.0,4095.0,4095.0,3165.0,2.87,6.39,7.54,-0.05,-0.08,-0.01,1.0,hello
3152.0,3462.0,3154.0,2768.0,4095.0,4095.0,4095.0,3131.0,2.93,6.36,7.46,-0.06,-0.13,-0.01,1.0,hello
3163.0,3490.0,3138.0,2753.0,4095.0,4095.0,4095.0,3152.0,3.07,6.36,7.54,-0.03,-0.11,-0.04,1.0,hello
3184.0,3533.0,3986.0,2643.0,4095.0,4095.0,4095.0,2761.0,8.15,6.04,0.66,-0.05,0.14,-0.02,1.0,hello
3200.0,3538.0,3988.0,2646.0,4095.0,4095.0,4095.0,2821.0,8.31,6.01,0.47,-0.08,0.02,-0.02,1.0,hello
3168.0,3532.0,3978.0,2649.0,4095.0,4095.0,4095.0,2813.0,7.95,5.97,0.66,-0.11,-0.06,-0.06,1.0,hello
3184.0,3533.0,3983.0,2638.0,4095.0,4095.0,4095.0,2787.0,10.87,5.93,-1.49,-0.19,0.13,-0.13,1.0,hello
3152.0,3537.0,4016.0,2625.0,4095.0,4095.0,4095.0,0.0,23.1,1.73,-2.63,-2.7,-1.07,-4.85,1.0,hello
3190.0,3546.0,3997.0,2704.0,4095.0,4095.0,4095.0,2283.0,-14.2,4.87,8.02,-1.07,-1.29,-1.91,1.0,hello
3174.0,3536.0,4011.0,2708.0,4095.0,4095.0,4095.0,2413.0,2.06,9.92,3.35,-0.25,0.0,-0.12,1.0,hello
3168.0,3538.0,4002.0,2711.0,4095.0,4095.0,4095.0,2515.0,2.68,9.29,2.82,-0.18,0.01,-0.03,1.0,hello
3156.0,3551.0,4016.0,2718.0,4095.0,4095.0,4095.0,2940.0,2.77,9.33,2.87,-0.06,0.12,-0.03,1.0,hello
3161.0,3549.0,4031.0,2727.0,4095.0,4095.0,4095.0,2998.0,2.86,9.28,2.88,-0.08,-0.17,-0.05,1.0,hello
3148.0,3548.0,4015.0,2720.0,4095.0,4095.0,4095.0,3024.0,3.19,9.45,2.86,-0.08,-0.18,-0.02,1.0,hello
3165.0,3565.0,4016.0,2725.0,4095.0,4095.0,4095.0,3018.0,3.0,9.52,2.7,-0.04,-0.15,-0.01,1.0,hello
3152.0,3540.0,3994.0,2727.0,4095.0,4095.0,4095.0,3145.0,2.91,9.39,2.8,-0.02,-0.18,-0.02,1.0,hello
3157.0,3552.0,3990.0,2755.0,4095.0,4095.0,4095.0,3169.0,3.18,9.3,2.76,-0.02,-0.01,-0.02,1.0,hello
3161.0,3543.0,4007.0,2755.0,4095.0,4095.0,4095.0,3170.0,2.87,9.3,2.57,-0.06,-0.03,-0.01,1.0,hello
3157.0,3532.0,3997.0,2769.0,4095.0,4095.0,4095.0,3193.0,2.99,9.32,2.8,-0.06,0.03,-0.01,1.0,hello
3153.0,3531.0,4011.0,2771.0,4095.0,4095.0,4095.0,3195.0,3.15,9.35,2.82,-0.05,0.13,-0.0,1.0,hello
3153.0,3540.0,3982.0,2761.0,4095.0,4095.0,4095.0,3173.0,2.89,9.29,2.65,-0.04,0.08,-0.04,1.0,hello
3155.0,3539.0,3997.0,2765.0,4095.0,4095.0,4095.0,3202.0,3.17,9.27,2.71,-0.12,0.06,0.02,1.0,hello
3152.0,3533.0,4003.0,2768.0,4095.0,4095.0,4095.0,3203.0,2.88,9.27,2.93,-0.12,0.04,-0.03,1.0,hello
3133.0,3472.0,3898.0,2704.0,4095.0,4095.0,4095.0,3071.0,8.29,5.79,0.43,-0.01,-0.09,-0.06,1.0,hello
3123.0,3453.0,3890.0,2713.0,4095.0,4095.0,4095.0,3063.0,8.17,5.77,0.51,-0.05,0.02,-0.05,1.0,hello
3130.0,3468.0,3907.0,2710.0,4095.0,4095.0,4095.0,2999.0,11.08,4.74,-0.09,-0.12,-0.22,-0.14,1.0,hello
3120.0,3466.0,3965.0,2626.0,4095.0,4095.0,4095.0,1751.0,22.02,4.01,-12.07,-2.76,-0.95,-3.71,1.0,hello
3135.0,3483.0,3890.0,2769.0,4095.0,4095.0,4095.0,2977.0,-11.85,3.48,13.53,-1.1,0.55,-1.89,1.0,hello
3125.0,3506.0,3913.0,2774.0,4095.0,4095.0,4095.0,3184.0,3.45,10.37,3.25,0.01,0.09,-0.44,1.0,hello
3106.0,3475.0,3931.0,2798.0,4095.0,4095.0,4095.0,3274.0,3.35,9.3,3.41,-0.02,-0.19,-0.26,1.0,hello
3120.0,3479.0,3931.0,2795.0,4095.0,4095.0,4095.0,3329.0,3.14,8.83,3.58,0.03,-0.2,-0.13,1.0,hello
3115.0,3482.0,3931.0,2813.0,4095.0,4095.0,4095.0,3345.0,3.21,8.88,3.32,-0.03,0.05,-0.03,1.0,hello
3109.0,3488.0,3947.0,2813.0,4095.0,4095.0,4095.0,3361.0,3.39,9.07,3.4,0.01,0.05,0.01,1.0,hello
3110.0,3472.0,3935.0,2819.0,4095.0,4095.0,4095.0,3383.0,3.48,9.17,3.19,-0.01,0.02,-0.02,1.0,hello
3110.0,3487.0,3947.0,2815.0,4095.0,4095.0,4095.0,3367.0,3.37,9.16,2.73,0.0,0.08,0.01,1.0,hello
3109.0,3487.0,3951.0,2819.0,4095.0,4095.0,4095.0,3376.0,3.69,9.08,2.87,0.01,0.09,-0.01,1.0,hello
3121.0,3499.0,3942.0,2825.0,4095.0,4095.0,4095.0,3394.0,3.37,9.11,2.78,-0.01,0.09,-0.03,1.0,hello
3113.0,3504.0,3955.0,2832.0,4095.0,4095.0,4095.0,3399.0,3.67,9.28,2.87,-0.04,0.01,-0.01,1.0,hello
3118.0,3499.0,3955.0,2830.0,4095.0,4095.0,4095.0,3425.0,3.54,9.16,2.9,-0.07,0.04,-0.02,1.0,hello
3120.0,3498.0,3966.0,2832.0,4095.0,4095.0,4095.0,3430.0,3.56,9.17,2.74,-0.06,0.0,-0.01,1.0,hello
3118.0,3477.0,3939.0,2839.0,4095.0,4095.0,4095.0,3429.0,3.56,9.05,3.06,-0.02,-0.02,-0.02,1.0,hello
3120.0,3475.0,3963.0,2834.0,4095.0,4095.0,4095.0,3400.0,3.52,9.17,2.69,-0.04,-0.01,-0.04,1.0,hello
3125.0,3501.0,3952.0,2846.0,4095.0,4095.0,4095.0,3385.0,3.65,9.17,2.72,-0.05,-0.04,-0.03,1.0,hello
3134.0,3447.0,3827.0,2755.0,4095.0,4095.0,4095.0,3184.0,8.32,5.78,-0.07,-0.09,-0.06,-0.0,1.0,hello
3138.0,3456.0,3824.0,2771.0,4095.0,4095.0,4095.0,3207.0,8.15,5.7,-0.28,-0.07,0.05,-0.04,1.0,hello
3150.0,3442.0,3807.0,2770.0,4095.0,4095.0,4095.0,3250.0,8.64,5.58,-0.4,-0.12,-0.04,-0.05,1.0,hello
3126.0,3463.0,3827.0,2762.0,4095.0,4095.0,4095.0,3054.0,18.17,4.78,-6.97,-0.81,-0.79,-1.54,1.0,hello
3121.0,3451.0,3853.0,2798.0,4095.0,4095.0,4095.0,3330.0,5.2,1.42,0.29,-2.26,0.44,-4.42,1.0,hello
3123.0,3460.0,3840.0,2820.0,4095.0,4095.0,4095.0,3429.0,-7.91,7.16,8.43,-0.77,-0.2,-1.1,1.0,hello
3110.0,3460.0,3833.0,2847.0,4095.0,4095.0,4095.0,3504.0,1.92,10.66,3.29,-0.27,0.17,-0.04,1.0,hello
3113.0,3478.0,3823.0,2850.0,4095.0,4095.0,4095.0,3517.0,2.48,9.52,2.85,-0.07,0.09,0.0,1.0,hello
3120.0,3491.0,3842.0,2855.0,4095.0,4095.0,4095.0,3520.0,2.43,9.4,2.85,0.03,-0.02,0.01,1.0,hello
3095.0,3465.0,3858.0,2858.0,4095.0,4095.0,4095.0,3555.0,2.86,9.52,2.56,0.03,0.01,0.01,1.0,hello
3118.0,3463.0,3837.0,2862.0,4095.0,4095.0,4095.0,3531.0,2.89,9.37,2.44,-0.02,0.04,0.02,1.0,hello
3105.0,3474.0,3829.0,2862.0,4095.0,4095.0,4095.0,3521.0,2.93,9.44,2.72,-0.04,0.07,-0.0,1.0,hello
3118.0,3474.0,3824.0,2865.0,4095.0,4095.0,4095.0,3600.0,2.87,9.36,2.71,-0.06,-0.01,-0.0,1.0,hello
3122.0,3482.0,3835.0,2878.0,4095.0,4095.0,4095.0,3622.0,2.72,9.35,2.83,-0.04,-0.01,-0.05,1.0,hello
3106.0,3475.0,3834.0,2879.0,4095.0,4095.0,4095.0,3631.0,2.87,9.49,2.66,-0.03,-0.01,-0.02,1.0,hello
3120.0,3471.0,3842.0,2877.0,4095.0,4095.0,4095.0,3630.0,2.93,9.42,2.63,-0.07,0.01,-0.01,1.0,hello
3107.0,3461.0,3837.0,2882.0,4095.0,4095.0,4095.0,3642.0,2.9,9.4,2.54,-0.03,0.04,-0.04,1.0,hello
3109.0,3465.0,3839.0,2885.0,4095.0,4095.0,4095.0,3627.0,2.78,9.43,2.65,-0.06,0.01,-0.04,1.0,hello
3118.0,3479.0,3839.0,2883.0,4095.0,4095.0,4095.0,3617.0,2.87,9.43,2.66,-0.06,0.0,-0.04,1.0,hello
3092.0,3459.0,3842.0,2882.0,4095.0,4095.0,4095.0,3632.0,2.75,9.44,2.59,-0.05,0.03,-0.05,1.0,hello
3307.0,3690.0,3985.0,2791.0,4095.0,4095.0,4095.0,3271.0,8.28,6.17,0.89,0.01,-0.12,-0.05,1.0,hello
3298.0,3685.0,3984.0,2815.0,4095.0,4095.0,4095.0,3281.0,7.85,6.04,0.86,-0.07,-0.04,-0.05,1.0,hello
3298.0,3672.0,3984.0,2814.0,4095.0,4095.0,4095.0,3248.0,9.83,5.75,-0.28,-0.17,-0.15,-0.2,1.0,hello
3280.0,3632.0,4015.0,2781.0,4095.0,4095.0,4095.0,2864.0,21.88,5.55,-3.36,-1.66,-0.85,-2.77,1.0,hello
3295.0,3639.0,3973.0,2854.0,4095.0,4095.0,4095.0,3349.0,-2.89,2.52,3.1,-1.81,0.5,-3.58,1.0,hello
3281.0,3654.0,3981.0,2880.0,4095.0,4095.0,4095.0,3481.0,-4.42,8.43,7.47,-0.46,-0.29,-0.62,1.0,hello
3277.0,3654.0,3985.0,2892.0,4095.0,4095.0,4095.0,3556.0,2.11,9.64,3.5,-0.1,-0.07,0.08,1.0,hello
3280.0,3635.0,3982.0,2909.0,4095.0,4095.0,4095.0,3632.0,2.89,9.3,3.11,-0.06,-0.04,0.1,1.0,hello
3270.0,3649.0,3983.0,2903.0,4095.0,4095.0,4095.0,3697.0,2.86,9.32,3.21,-0.04,-0.16,-0.03,1.0,hello
3265.0,3638.0,3984.0,2899.0,4095.0,4095.0,4095.0,3734.0,2.71,9.24,3.56,0.03,-0.09,-0.09,1.0,hello
3279.0,3647.0,3995.0,2911.0,4095.0,4095.0,4095.0,3745.0,2.36,9.27,3.32,0.05,0.07,-0.04,1.0,hello
3264.0,3633.0,3984.0,2903.0,4095.0,4095.0,4095.0,3753.0,2.65,9.53,2.71,-0.01,0.04,0.03,1.0,hello
3264.0,3637.0,3994.0,2909.0,4095.0,4095.0,4095.0,3759.0,2.69,9.34,3.02,-0.01,-0.01,-0.02,1.0,hello
3262.0,3630.0,3968.0,2912.0,4095.0,4095.0,4095.0,3783.0,2.46,9.38,2.6,-0.05,-0.01,-0.01,1.0,hello
3271.0,3638.0,3996.0,2917.0,4095.0,4095.0,4095.0,3795.0,2.62,9.38,2.95,-0.09,-0.01,0.01,1.0,hello
3248.0,3632.0,3983.0,2915.0,4095.0,4095.0,4095.0,3811.0,2.84,9.39,2.94,-0.08,-0.01,0.03,1.0,hello
3263.0,3647.0,3987.0,2914.0,4095.0,4095.0,4095.0,3822.0,2.9,9.39,2.9,-0.06,-0.01,-0.02,1.0,hello
3255.0,3623.0,4003.0,2921.0,4095.0,4095.0,4095.0,3841.0,2.73,9.31,2.95,-0.03,-0.09,-0.06,1.0,hello
3258.0,3627.0,3983.0,2925.0,4095.0,4095.0,4095.0,3829.0,2.68,9.39,2.91,-0.07,-0.04,-0.02,1.0,hello
3269.0,3623.0,4014.0,2928.0,4095.0,4095.0,4095.0,3824.0,2.72,9.41,2.77,-0.05,-0.05,-0.04,1.0,hello
3169.0,3190.0,3526.0,2782.0,4095.0,4095.0,4095.0,3450.0,7.9,6.28,0.38,-0.04,-0.05,-0.08,1.0,hello
3163.0,3185.0,3535.0,2784.0,4095.0,4095.0,4095.0,3405.0,8.18,6.17,0.11,-0.05,-0.04,-0.09,1.0,hello
3156.0,3179.0,3515.0,2711.0,4095.0,4095.0,4095.0,3070.0,14.76,5.23,-2.99,-0.37,-0.53,-0.91,1.0,hello
3152.0,3187.0,3547.0,2741.0,4095.0,4095.0,4095.0,3056.0,9.39,4.31,-1.58,-1.46,-0.04,-4.54,1.0,hello
3158.0,3182.0,3530.0,2801.0,4095.0,4095.0,4095.0,3403.0,-7.12,6.91,5.86,-1.2,-0.36,-1.17,1.0,hello
3153.0,3190.0,3549.0,2818.0,4095.0,4095.0,4095.0,3341.0,2.12,9.63,4.14,-0.18,0.04,-0.13,1.0,hello
3166.0,3181.0,3558.0,2815.0,4095.0,4095.0,4095.0,3538.0,2.57,9.65,2.28,0.06,0.04,-0.09,1.0,hello
3158.0,3184.0,3573.0,2822.0,4095.0,4095.0,4095.0,3654.0,2.56,9.37,1.79,0.01,0.02,-0.03,1.0,hello
3152.0,3184.0,3600.0,2832.0,4095.0,4095.0,4095.0,3711.0,2.92,9.57,1.89,-0.04,-0.05,0.0,1.0,hello
3155.0,3196.0,3613.0,2833.0,4095.0,4095.0,4095.0,3723.0,2.75,9.55,1.97,-0.03,0.04,-0.03,1.0,hello
3152.0,3182.0,3597.0,2847.0,4095.0,4095.0,4095.0,3741.0,2.84,9.5,2.15,-0.13,0.07,-0.07,1.0,hello
3147.0,3179.0,3604.0,2849.0,4095.0,4095.0,4095.0,3791.0,2.7,9.53,1.82,-0.09,0.12,-0.01,1.0,hello
3155.0,3184.0,3615.0,2849.0,4095.0,4095.0,4095.0,3855.0,2.99,9.52,2.18,-0.07,0.03,-0.05,1.0,hello
3145.0,3186.0,3617.0,2855.0,4095.0,4095.0,4095.0,3814.0,2.69,9.49,2.01,-0.06,0.03,-0.01,1.0,hello
3164.0,3181.0,3622.0,2862.0,4095.0,4095.0,4095.0,3821.0,2.9,9.55,2.01,-0.07,0.1,-0.06,1.0,hello
3152.0,3175.0,3651.0,2859.0,4095.0,4095.0,4095.0,3811.0,2.72,9.47,2.18,-0.02,0.13,-0.04,1.0,hello
3151.0,3188.0,3638.0,2861.0,4095.0,4095.0,4095.0,3729.0,2.96,9.64,1.85,-0.04,0.04,0.01,1.0,hello
3157.0,3184.0,3659.0,2864.0,4095.0,4095.0,4095.0,3867.0,2.73,9.64,2.05,-0.02,-0.03,0.0,1.0,hello
3147.0,3184.0,3664.0,2866.0,4095.0,4095.0,4095.0,3807.0,2.92,9.44,2.03,-0.11,-0.05,0.02,1.0,hello
3143.0,3191.0,3665.0,2864.0,4095.0,4095.0,4095.0,3824.0,3.12,9.55,1.89,-0.08,-0.0,-0.02,1.0,hello
3562.0,3306.0,4041.0,2717.0,4095.0,4095.0,4095.0,3530.0,8.36,5.89,0.17,-0.05,-0.01,-0.05,1.0,hello
3559.0,3285.0,4024.0,2739.0,4095.0,4095.0,4095.0,3551.0,8.42,5.79,0.15,-0.03,-0.08,-0.05,1.0,hello
3558.0,3296.0,4016.0,2748.0,4095.0,4095.0,4095.0,3551.0,8.05,5.89,0.14,-0.05,-0.03,-0.08,1.0,hello
3568.0,3293.0,4031.0,2751.0,4095.0,4095.0,4095.0,3627.0,8.4,5.83,-0.09,-0.06,-0.01,-0.08,1.0,hello
3534.0,3297.0,4051.0,2703.0,4095.0,4095.0,4095.0,3286.0,18.83,5.36,-5.81,-0.57,-0.35,-1.14,1.0,hello
3526.0,3291.0,4027.0,2747.0,4095.0,4095.0,4095.0,3763.0,6.13,2.75,-0.34,-1.42,1.12,-4.43,1.0,hello
3537.0,3328.0,4044.0,2775.0,4095.0,4095.0,4095.0,3947.0,-10.29,6.58,8.18,-0.93,-1.64,-1.26,1.0,hello
3519.0,3321.0,4028.0,2794.0,4095.0,4095.0,4095.0,4079.0,3.06,10.41,2.71,-0.06,-0.16,-0.02,1.0,hello
3525.0,3314.0,4013.0,2803.0,4095.0,4095.0,4095.0,4095.0,2.85,9.38,2.45,-0.0,0.11,-0.14,1.0,hello
3538.0,3303.0,4033.0,2807.0,4095.0,4095.0,4095.0,4095.0,2.83,9.44,2.28,-0.07,-0.0,0.02,1.0,hello
3523.0,3321.0,4042.0,2814.0,4095.0,4095.0,4095.0,4095.0,2.71,9.52,2.21,-0.11,0.02,0.07,1.0,hello
3533.0,3312.0,4025.0,2819.0,4095.0,4095.0,4095.0,4095.0,2.96,9.63,2.41,-0.0,0.15,-0.1,1.0,hello
3522.0,3306.0,4021.0,2826.0,4095.0,4095.0,4095.0,4095.0,2.83,9.54,2.44,-0.07,-0.02,0.0,1.0,hello
3522.0,3316.0,4027.0,2830.0,4095.0,4095.0,4095.0,4095.0,3.09,9.33,2.47,-0.06,-0.02,0.01,1.0,hello
3520.0,3298.0,4023.0,2823.0,4095.0,4095.0,4095.0,4095.0,2.91,9.36,2.31,-0.05,-0.03,-0.04,1.0,hello
3543.0,3310.0,4033.0,2832.0,4095.0,4095.0,4095.0,4095.0,3.01,9.52,2.38,-0.05,-0.1,-0.03,1.0,hello
3530.0,3315.0,4061.0,2832.0,4095.0,4095.0,4095.0,4095.0,2.94,9.41,2.36,-0.07,-0.02,-0.04,1.0,hello
3533.0,3298.0,4026.0,2839.0,4095.0,4095.0,4095.0,4095.0,2.76,9.56,2.26,-0.02,-0.04,-0.02,1.0,hello
3539.0,3302.0,4031.0,2846.0,4095.0,4095.0,4095.0,4095.0,3.05,9.5,2.37,-0.05,-0.02,-0.02,1.0,hello
3542.0,3312.0,4027.0,2841.0,4095.0,4095.0,4095.0,4095.0,3.06,9.48,2.41,-0.06,-0.05,0.0,1.0,hello
3408.0,3229.0,3567.0,2753.0,4095.0,4095.0,4095.0,3730.0,8.04,6.37,0.19,-0.07,0.11,-0.04,1.0,hello
3394.0,3231.0,3558.0,2757.0,4095.0,4095.0,4095.0,3792.0,8.5,6.4,-0.01,-0.08,-0.0,-0.14,1.0,hello
3408.0,3218.0,3559.0,2737.0,4095.0,4095.0,4095.0,3264.0,15.97,6.27,-3.9,-0.39,-0.94,-1.17,1.0,hello
3395.0,3235.0,3619.0,2739.0,4095.0,4095.0,4095.0,3382.0,6.74,3.09,-0.23,-2.8,-0.5,-3.86,1.0,hello
3418.0,3248.0,3617.0,2825.0,4095.0,4095.0,4095.0,3920.0,-6.73,7.13,6.74,-0.8,-1.08,-1.28,1.0,hello
3395.0,3232.0,3616.0,2843.0,4095.0,4095.0,4095.0,4043.0,1.99,9.87,3.56,-0.27,-0.07,-0.13,1.0,hello
3387.0,3239.0,3632.0,2832.0,4095.0,4095.0,4095.0,4023.0,2.55,9.39,2.84,-0.13,0.1,-0.03,1.0,hello
3393.0,3239.0,3632.0,2846.0,4095.0,4095.0,4095.0,4072.0,3.11,9.41,2.82,-0.06,-0.1,0.09,1.0,hello
3401.0,3237.0,3634.0,2844.0,4095.0,4095.0,4095.0,4077.0,2.88,9.51,2.5,-0.02,0.01,0.04,1.0,hello
3397.0,3229.0,3650.0,2847.0,4095.0,4095.0,4095.0,4048.0,2.98,9.34,2.35,-0.03,0.08,0.03,1.0,hello
3397.0,3248.0,3631.0,2855.0,4095.0,4095.0,4095.0,3984.0,3.32,9.36,2.37,-0.01,-0.01,-0.04,1.0,hello
3401.0,3233.0,3631.0,2847.0,4095.0,4095.0,4095.0,4071.0,2.83,9.17,2.39,-0.14,-0.11,-0.1,1.0,hello
3392.0,3245.0,3641.0,2855.0,4095.0,4095.0,4095.0,4093.0,2.92,9.31,2.99,-0.09,-0.03,-0.06,1.0,hello
3386.0,3231.0,3642.0,2864.0,4095.0,4095.0,4095.0,4095.0,2.85,9.59,2.6,0.03,-0.05,-0.06,1.0,hello
3389.0,3239.0,3648.0,2861.0,4095.0,4095.0,4095.0,4095.0,3.05,9.61,2.3,0.03,-0.05,0.02,1.0,hello
3411.0,3244.0,3647.0,2858.0,4095.0,4095.0,4095.0,4095.0,3.06,9.33,2.31,0.01,-0.03,-0.03,1.0,hello
3408.0,3241.0,3662.0,2859.0,4095.0,4095.0,4095.0,4095.0,2.98,9.41,2.22,-0.01,-0.04,-0.04,1.0,hello
3394.0,3236.0,3661.0,2861.0,4095.0,4095.0,4095.0,4095.0,3.12,9.45,2.17,-0.03,-0.02,-0.04,1.0,hello
3399.0,3233.0,3651.0,2864.0,4095.0,4095.0,4095.0,4095.0,2.78,9.41,2.36,-0.08,-0.0,-0.02,1.0,hello
3390.0,3248.0,3663.0,2864.0,4095.0,4095.0,4095.0,4095.0,3.0,9.45,2.45,-0.04,-0.02,-0.06,1.0,hello
3331.0,3331.0,3709.0,2792.0,4095.0,4095.0,4095.0,3559.0,7.91,6.27,0.41,-0.04,0.09,-0.07,1.0,hello
3334.0,3333.0,3701.0,2803.0,4095.0,4095.0,4095.0,3536.0,7.86,6.34,0.43,-0.02,0.01,-0.06,1.0,hello
3344.0,3332.0,3696.0,2818.0,4095.0,4095.0,4095.0,3600.0,7.97,6.24,0.35,-0.08,-0.03,-0.04,1.0,hello
3334.0,3355.0,3718.0,2796.0,4095.0,4095.0,4095.0,3200.0,15.48,5.64,-3.7,-0.69,-0.6,-0.55,1.0,hello
3337.0,3332.0,3720.0,2806.0,4095.0,4095.0,4095.0,3271.0,6.57,3.64,-0.34,-1.34,0.59,-3.6,1.0,hello
3343.0,3335.0,3709.0,2855.0,4095.0,4095.0,4095.0,3524.0,-4.6,7.47,7.67,-1.08,-0.77,-0.9,1.0,hello
3328.0,3353.0,3726.0,2869.0,4095.0,4095.0,4095.0,3447.0,3.61,9.65,3.23,-0.1,0.09,-0.28,1.0,hello
3331.0,3349.0,3729.0,2875.0,4095.0,4095.0,4095.0,3507.0,3.43,9.22,2.55,-0.05,-0.02,-0.1,1.0,hello
3339.0,3344.0,3726.0,2879.0,4095.0,4095.0,4095.0,3443.0,3.69,9.08,2.43,0.02,0.02,-0.04,1.0,hello
3346.0,3339.0,3726.0,2877.0,4095.0,4095.0,4095.0,3500.0,4.08,9.21,1.89,0.01,0.01,-0.01,1.0,hello
3338.0,3342.0,3717.0,2871.0,4095.0,4095.0,4095.0,3520.0,4.23,9.14,2.19,-0.05,-0.04,-0.03,1.0,hello
3312.0,3350.0,3752.0,2870.0,4095.0,4095.0,4095.0,3520.0,4.12,9.17,2.15,-0.02,-0.02,-0.03,1.0,hello
3344.0,3346.0,3744.0,2873.0,4095.0,4095.0,4095.0,3601.0,3.9,9.08,2.11,-0.02,-0.0,-0.07,1.0,hello
3331.0,3350.0,3718.0,2870.0,4095.0,4095.0,4095.0,3607.0,4.02,9.2,2.02,-0.04,-0.02,-0.04,1.0,hello
3323.0,3343.0,3716.0,2879.0,4095.0,4095.0,4095.0,3647.0,3.89,9.21,2.09,-0.05,0.02,-0.03,1.0,hello
3315.0,3345.0,3725.0,2878.0,4095.0,4095.0,4095.0,3671.0,4.02,9.24,2.02,-0.06,0.01,-0.02,1.0,hello
3340.0,3341.0,3719.0,2882.0,4095.0,4095.0,4095.0,3751.0,3.78,9.1,2.16,-0.04,0.0,-0.03,1.0,hello
3326.0,3344.0,3722.0,2883.0,4095.0,4095.0,4095.0,3753.0,4.07,9.29,1.97,-0.04,0.01,-0.02,1.0,hello
3334.0,3360.0,3718.0,2881.0,4095.0,4095.0,4095.0,3775.0,3.88,9.15,2.05,-0.07,-0.02,-0.05,1.0,hello
3328.0,3333.0,3712.0,2894.0,4095.0,4095.0,4095.0,3778.0,4.07,9.09,2.18,-0.05,-0.04,-0.04,1.0,hello
3456.0,3331.0,3647.0,2800.0,4095.0,4095.0,4095.0,3311.0,7.76,6.29,-0.4,-0.06,-0.08,-0.03,1.0,hello
3458.0,3331.0,3668.0,2800.0,4095.0,4095.0,4095.0,3376.0,7.76,6.32,-0.45,-0.05,-0.03,-0.06,1.0,hello
3427.0,3327.0,3662.0,2814.0,4095.0,4095.0,4095.0,3425.0,7.96,6.32,-0.46,-0.07,-0.0,-0.07,1.0,hello
3441.0,3344.0,3664.0,2813.0,4095.0,4095.0,4095.0,3434.0,9.07,5.93,-0.74,-0.09,-0.17,-0.15,1.0,hello
3424.0,3332.0,3677.0,2779.0,4095.0,4095.0,4095.0,3351.0,15.31,6.35,-6.24,-0.92,-0.54,-1.64,1.0,hello
3421.0,3340.0,3675.0,2826.0,4095.0,4095.0,4095.0,3328.0,1.79,5.4,3.07,-2.06,0.01,-2.82,1.0,hello
3431.0,3332.0,3662.0,2835.0,4095.0,4095.0,4095.0,3633.0,-2.15,8.21,5.71,-0.65,-0.47,-0.62,1.0,hello
3399.0,3341.0,3667.0,2865.0,4095.0,4095.0,4095.0,3632.0,3.71,9.89,1.79,-0.06,-0.17,-0.01,1.0,hello
3404.0,3319.0,3678.0,2864.0,4095.0,4095.0,4095.0,3671.0,3.64,9.21,1.8,-0.05,-0.05,-0.1,1.0,hello
3425.0,3345.0,3675.0,2865.0,4095.0,4095.0,4095.0,3696.0,3.49,9.26,1.5,-0.03,-0.06,-0.09,1.0,hello
3423.0,3338.0,3673.0,2876.0,4095.0,4095.0,4095.0,3742.0,3.31,9.33,1.42,-0.09,-0.08,-0.04,1.0,hello
3399.0,3337.0,3690.0,2879.0,4095.0,4095.0,4095.0,3743.0,3.98,9.54,1.4,-0.07,0.0,-0.04,1.0,hello
3408.0,3344.0,3689.0,2887.0,4095.0,4095.0,4095.0,3799.0,3.49,9.56,1.67,-0.08,-0.01,-0.07,1.0,hello
3395.0,3337.0,3677.0,2881.0,4095.0,4095.0,4095.0,3826.0,3.3,9.37,1.49,-0.11,0.02,-0.03,1.0,hello
3407.0,3328.0,3678.0,2875.0,4095.0,4095.0,4095.0,3810.0,3.39,9.48,1.53,-0.07,0.03,-0.04,1.0,hello
3415.0,3344.0,3671.0,2873.0,4095.0,4095.0,4095.0,3856.0,3.51,9.43,1.68,-0.07,0.01,-0.03,1.0,hello
3401.0,3341.0,3694.0,2882.0,4095.0,4095.0,4095.0,3853.0,3.5,9.48,1.57,-0.11,0.04,-0.02,1.0,hello
3418.0,3335.0,3666.0,2880.0,4095.0,4095.0,4095.0,3870.0,3.39,9.41,1.7,-0.08,0.01,-0.02,1.0,hello
3402.0,3343.0,3677.0,2881.0,4095.0,4095.0,4095.0,3881.0,3.41,9.4,1.69,-0.06,0.03,0.01,1.0,hello
3423.0,3333.0,3671.0,2875.0,4095.0,4095.0,4095.0,3865.0,3.51,9.36,1.71,-0.09,-0.03,-0.01,1.0,hello
3212.0,3333.0,3979.0,2758.0,4095.0,4095.0,4095.0,4087.0,8.26,6.03,-0.09,-0.05,-0.03,-0.03,1.0,hello
3183.0,3334.0,3979.0,2768.0,4095.0,4095.0,4095.0,4066.0,8.48,5.92,-0.28,-0.09,-0.04,-0.09,1.0,hello
3189.0,3335.0,3981.0,2741.0,4095.0,4095.0,4095.0,3568.0,16.2,5.82,-5.31,-0.57,-0.56,-1.14,1.0,hello
3188.0,3336.0,3979.0,2771.0,4095.0,4095.0,4095.0,3679.0,9.08,4.72,-0.85,-2.03,-0.17,-3.34,1.0,hello
3211.0,3353.0,3977.0,2800.0,4095.0,4095.0,4095.0,4095.0,-5.59,6.45,8.9,-0.69,-0.44,-1.4,1.0,hello
3211.0,3341.0,3987.0,2800.0,4095.0,4095.0,4095.0,4095.0,2.57,9.85,2.12,-0.1,-0.06,-0.11,1.0,hello
3203.0,3339.0,3962.0,2802.0,4095.0,4095.0,4095.0,4095.0,3.55,9.23,2.28,-0.07,-0.02,-0.11,1.0,hello
3202.0,3354.0,3979.0,2818.0,4095.0,4095.0,4095.0,4095.0,3.31,9.2,2.39,-0.04,-0.02,-0.1,1.0,hello
3189.0,3347.0,3978.0,2830.0,4095.0,4095.0,4095.0,4095.0,3.38,9.4,2.06,-0.05,-0.11,-0.05,1.0,hello
3198.0,3364.0,3955.0,2830.0,4095.0,4095.0,4095.0,4095.0,3.37,9.34,2.13,-0.09,-0.05,0.01,1.0,hello
3201.0,3351.0,3973.0,2832.0,4095.0,4095.0,4095.0,4095.0,3.49,9.28,2.25,-0.12,-0.01,-0.0,1.0,hello
3202.0,3349.0,3998.0,2832.0,4095.0,4095.0,4095.0,4095.0,3.48,9.32,2.33,-0.11,-0.04,-0.04,1.0,hello
3190.0,3347.0,3935.0,2843.0,4095.0,4095.0,4095.0,4095.0,3.5,9.31,2.37,-0.07,-0.01,-0.04,1.0,hello
3190.0,3374.0,3951.0,2847.0,4095.0,4095.0,4095.0,4095.0,3.43,9.26,2.28,-0.08,-0.02,-0.03,1.0,hello
3197.0,3351.0,3948.0,2847.0,4095.0,4095.0,4095.0,4095.0,3.59,9.3,2.27,-0.05,0.04,-0.04,1.0,hello
3202.0,3355.0,3971.0,2847.0,4095.0,4095.0,4095.0,4095.0,3.44,9.27,2.35,-0.05,0.02,-0.01,1.0,hello
3191.0,3346.0,3967.0,2850.0,4095.0,4095.0,4095.0,4095.0,3.61,9.32,2.26,-0.03,-0.02,-0.05,1.0,hello
3193.0,3343.0,3967.0,2845.0,4095.0,4095.0,4095.0,4095.0,3.68,9.33,2.25,-0.03,-0.01,-0.04,1.0,hello
3199.0,3344.0,3952.0,2846.0,4095.0,4095.0,4095.0,4095.0,3.64,9.32,2.26,-0.03,-0.02,-0.04,1.0,hello
3190.0,3358.0,3953.0,2861.0,4095.0,4095.0,4095.0,4095.0,3.44,9.24,2.25,-0.04,-0.01,-0.04,1.0,hello
3139.0,3463.0,4077.0,2863.0,4095.0,4095.0,4095.0,4095.0,7.76,6.44,-0.23,-0.06,0.05,-0.04,1.0,hello
3139.0,3478.0,4051.0,2867.0,4095.0,4095.0,4095.0,4095.0,7.76,6.31,-0.25,-0.11,0.12,-0.08,1.0,hello
3137.0,3487.0,4058.0,2791.0,4095.0,4095.0,4095.0,3699.0,12.55,5.3,-4.25,-0.3,0.16,-0.66,1.0,hello
3131.0,3472.0,4057.0,2821.0,4095.0,4095.0,4095.0,3958.0,13.34,4.45,1.26,-2.28,-0.29,-3.85,1.0,hello
3167.0,3481.0,4014.0,2863.0,4095.0,4095.0,4095.0,4095.0,-6.49,8.01,3.06,-0.84,-0.7,-1.85,1.0,hello
3163.0,3485.0,4048.0,2898.0,4095.0,4095.0,4095.0,4095.0,0.61,9.44,3.95,-0.39,0.19,0.06,1.0,hello
3151.0,3472.0,4030.0,2898.0,4095.0,4095.0,4095.0,4095.0,3.21,9.87,2.39,-0.1,0.01,0.04,1.0,hello
3168.0,3487.0,4043.0,2906.0,4095.0,4095.0,4095.0,4095.0,2.72,9.45,2.43,-0.07,0.08,-0.04,1.0,hello
3146.0,3501.0,4041.0,2903.0,4095.0,4095.0,4095.0,4095.0,2.94,9.68,2.27,-0.07,0.06,-0.04,1.0,hello
3129.0,3504.0,4032.0,2910.0,4095.0,4095.0,4095.0,4095.0,2.65,9.45,2.64,-0.09,-0.04,-0.05,1.0,hello
3143.0,3477.0,4042.0,2922.0,4095.0,4095.0,4095.0,4095.0,2.77,9.44,2.53,-0.06,0.01,0.01,1.0,hello
3139.0,3479.0,4017.0,2911.0,4095.0,4095.0,4095.0,4095.0,3.06,9.56,2.47,-0.05,-0.01,-0.02,1.0,hello
3143.0,3471.0,4043.0,2906.0,4095.0,4095.0,4095.0,4095.0,2.58,9.58,2.21,-0.08,-0.07,-0.02,1.0,hello
3150.0,3473.0,4030.0,2911.0,4095.0,4095.0,4095.0,4095.0,2.68,9.34,2.38,-0.08,-0.08,-0.0,1.0,hello
3143.0,3487.0,4045.0,2918.0,4095.0,4095.0,4095.0,4095.0,2.9,9.49,2.43,-0.09,-0.05,-0.04,1.0,hello
3149.0,3462.0,4033.0,2923.0,4095.0,4095.0,4095.0,4095.0,2.61,9.41,2.41,-0.09,-0.08,-0.0,1.0,hello
3155.0,3467.0,4016.0,2928.0,4095.0,4095.0,4095.0,4095.0,2.91,9.44,2.42,-0.11,0.08,0.04,1.0,hello
3137.0,3466.0,4016.0,2919.0,4095.0,4095.0,4095.0,4095.0,3.1,9.39,2.55,-0.08,0.03,-0.03,1.0,hello
3140.0,3470.0,4036.0,2915.0,4095.0,4095.0,4095.0,4095.0,3.0,9.4,2.59,-0.08,-0.01,-0.01,1.0,hello
3146.0,3471.0,4033.0,2922.0,4095.0,4095.0,4095.0,4095.0,3.22,9.46,2.62,-0.05,-0.02,-0.04,1.0,hello
3327.0,3344.0,3822.0,2802.0,4095.0,4095.0,4095.0,4015.0,7.94,6.15,-0.51,-0.04,-0.05,-0.03,1.0,hello
3331.0,3335.0,3817.0,2817.0,4095.0,4095.0,4095.0,4000.0,8.11,6.07,-0.61,-0.04,-0.0,-0.04,1.0,hello
3344.0,3340.0,3825.0,2814.0,4095.0,4095.0,4095.0,3939.0,8.56,5.84,-1.0,-0.05,-0.06,-0.1,1.0,hello
3343.0,3338.0,3840.0,2704.0,4095.0,4095.0,4095.0,3305.0,15.38,4.79,-7.07,-0.52,0.03,-1.26,1.0,hello
3342.0,3339.0,3844.0,2778.0,4095.0,4095.0,4095.0,3853.0,4.66,3.7,2.33,-2.79,0.42,-3.76,1.0,hello
3328.0,3360.0,3801.0,2819.0,4095.0,4095.0,4095.0,4095.0,-3.56,8.56,6.61,-0.83,-0.5,-0.69,1.0,hello
3303.0,3362.0,3810.0,2820.0,4095.0,4095.0,4095.0,4095.0,3.28,9.53,3.16,0.0,0.02,-0.1,1.0,hello
3313.0,3344.0,3807.0,2834.0,4095.0,4095.0,4095.0,4095.0,3.2,9.4,2.27,-0.02,0.04,-0.06,1.0,hello
3303.0,3345.0,3805.0,2834.0,4095.0,4095.0,4095.0,4095.0,3.39,9.21,2.48,-0.01,-0.01,-0.06,1.0,hello
3312.0,3344.0,3842.0,2842.0,4095.0,4095.0,4095.0,4095.0,3.29,9.4,2.35,0.0,-0.03,-0.06,1.0,hello
3311.0,3344.0,3817.0,2853.0,4095.0,4095.0,4095.0,4095.0,3.46,9.44,2.34,-0.11,0.0,0.0,1.0,hello
3305.0,3356.0,3824.0,2851.0,4095.0,4095.0,4095.0,4095.0,3.3,9.25,2.46,-0.03,0.05,-0.0,1.0,hello
3299.0,3362.0,3831.0,2851.0,4095.0,4095.0,4095.0,4095.0,3.78,9.22,2.28,-0.03,-0.01,-0.02,1.0,hello
3301.0,3335.0,3814.0,2849.0,4095.0,4095.0,4095.0,4095.0,3.31,9.13,2.43,-0.05,0.01,-0.03,1.0,hello
3308.0,3344.0,3825.0,2849.0,4095.0,4095.0,4095.0,4095.0,3.57,9.32,2.39,-0.04,-0.03,-0.01,1.0,hello
3307.0,3343.0,3822.0,2850.0,4095.0,4095.0,4095.0,4095.0,3.51,9.33,2.21,-0.05,-0.02,0.03,1.0,hello
3309.0,3350.0,3845.0,2845.0,4095.0,4095.0,4095.0,4095.0,3.79,9.24,2.39,-0.05,-0.04,0.01,1.0,hello
3306.0,3338.0,3840.0,2853.0,4095.0,4095.0,4095.0,4095.0,3.57,9.26,2.3,-0.02,-0.0,-0.05,1.0,hello
3303.0,3358.0,3831.0,2838.0,4095.0,4095.0,4095.0,4095.0,3.67,9.32,2.09,-0.07,-0.03,-0.01,1.0,hello
3309.0,3339.0,3824.0,2851.0,4095.0,4095.0,4095.0,4095.0,3.54,9.18,2.37,-0.09,0.0,-0.03,1.0,hello
3129.0,3266.0,3651.0,2817.0,4095.0,4095.0,4095.0,4095.0,7.99,6.38,0.3,-0.04,-0.02,-0.04,1.0,hello
3125.0,3280.0,3643.0,2818.0,4095.0,4095.0,4095.0,4095.0,8.02,6.33,0.43,-0.04,-0.03,-0.05,1.0,hello
3121.0,3263.0,3645.0,2835.0,4095.0,4095.0,4095.0,4095.0,8.36,6.3,0.06,-0.12,-0.05,-0.07,1.0,hello
3121.0,3270.0,3664.0,2798.0,4095.0,4095.0,4095.0,4095.0,13.73,6.73,-4.9,-0.63,-0.2,-0.67,1.0,hello
3130.0,3283.0,3692.0,2795.0,4095.0,4095.0,4095.0,4095.0,8.94,4.41,1.06,-1.63,0.42,-3.28,1.0,hello
3136.0,3281.0,3702.0,2864.0,4095.0,4095.0,4095.0,4095.0,-3.43,7.19,5.34,-0.95,-0.18,-1.38,1.0,hello
3142.0,3285.0,3680.0,2861.0,4095.0,4095.0,4095.0,4095.0,1.07,9.01,4.32,-0.14,-0.07,0.04,1.0,hello
3135.0,3287.0,3714.0,2866.0,4095.0,4095.0,4095.0,4095.0,3.97,9.42,2.85,0.04,-0.07,-0.0,1.0,hello
3143.0,3265.0,3696.0,2867.0,4095.0,4095.0,4095.0,4095.0,3.64,9.06,2.69,-0.05,0.01,-0.06,1.0,hello
3130.0,3285.0,3701.0,2865.0,4095.0,4095.0,4095.0,4095.0,3.7,9.21,2.73,-0.06,-0.02,-0.04,1.0,hello
3137.0,3280.0,3713.0,2867.0,4095.0,4095.0,4095.0,4095.0,3.55,9.2,2.72,-0.03,0.02,-0.06,1.0,hello
3150.0,3274.0,3718.0,2879.0,4095.0,4095.0,4095.0,4095.0,3.63,9.2,2.59,-0.07,0.08,-0.0,1.0,hello
3127.0,3275.0,3700.0,2878.0,4095.0,4095.0,4095.0,4095.0,3.51,9.11,2.8,-0.06,0.07,-0.03,1.0,hello
3127.0,3296.0,3707.0,2880.0,4095.0,4095.0,4095.0,4095.0,3.65,9.21,2.58,-0.08,0.07,-0.03,1.0,hello
3126.0,3278.0,3723.0,2890.0,4095.0,4095.0,4095.0,4095.0,3.52,9.12,2.84,-0.08,0.02,-0.02,1.0,hello
3121.0,3274.0,3694.0,2887.0,4095.0,4095.0,4095.0,4095.0,3.6,9.18,2.88,-0.06,-0.03,-0.0,1.0,hello
3136.0,3295.0,3712.0,2884.0,4095.0,4095.0,4095.0,4095.0,3.55,9.16,2.57,-0.05,0.03,-0.04,1.0,hello
3136.0,3269.0,3707.0,2885.0,4095.0,4095.0,4095.0,4095.0,3.6,9.21,2.24,-0.06,-0.01,-0.03,1.0,hello
3141.0,3275.0,3696.0,2886.0,4095.0,4095.0,4095.0,4095.0,3.4,9.17,2.99,-0.03,-0.03,-0.05,1.0,hello
3134.0,3280.0,3718.0,2881.0,4095.0,4095.0,4095.0,4095.0,3.7,9.22,2.57,-0.03,-0.03,-0.02,1.0,hello
3093.0,3521.0,4095.0,2774.0,4095.0,4095.0,4095.0,3669.0,7.89,6.33,-0.88,-0.05,-0.03,-0.06,1.0,hello
3101.0,3511.0,4095.0,2783.0,4095.0,4095.0,4095.0,3658.0,7.85,6.46,-0.75,-0.07,-0.03,-0.09,1.0,hello
3099.0,3511.0,4095.0,2797.0,4095.0,4095.0,4095.0,3697.0,8.02,6.3,-0.9,-0.08,-0.0,-0.05,1.0,hello
3095.0,3497.0,4095.0,2738.0,4095.0,4095.0,4095.0,3469.0,17.33,6.01,-5.81,-0.39,-0.22,-0.94,1.0,hello
3116.0,3537.0,4095.0,2837.0,4095.0,4095.0,4095.0,3583.0,1.18,1.79,3.11,-2.76,0.64,-2.76,1.0,hello
3120.0,3548.0,4095.0,2902.0,4095.0,4095.0,4095.0,3759.0,-0.36,8.53,5.47,-0.47,-0.32,-0.6,1.0,hello
3107.0,3537.0,4095.0,2907.0,4095.0,4095.0,4095.0,3815.0,4.43,9.26,2.59,-0.05,0.0,-0.23,1.0,hello
3108.0,3542.0,4095.0,2898.0,4095.0,4095.0,4095.0,3875.0,4.0,8.74,2.51,-0.08,-0.04,-0.14,1.0,hello
3121.0,3543.0,4095.0,2901.0,4095.0,4095.0,4095.0,3939.0,3.61,9.14,1.98,-0.09,0.08,-0.17,1.0,hello
3102.0,3536.0,4095.0,2903.0,4095.0,4095.0,4095.0,3970.0,4.04,9.47,2.08,-0.01,-0.09,-0.08,1.0,hello
3120.0,3545.0,4095.0,2911.0,4095.0,4095.0,4095.0,3983.0,3.74,9.25,1.77,0.04,0.02,-0.08,1.0,hello
3103.0,3535.0,4095.0,2912.0,4095.0,4095.0,4095.0,3980.0,4.08,9.28,1.66,-0.05,-0.03,-0.01,1.0,hello
3103.0,3537.0,4095.0,2912.0,4095.0,4095.0,4095.0,3999.0,3.73,9.28,1.6,-0.03,-0.0,-0.06,1.0,hello
3103.0,3536.0,4095.0,2907.0,4095.0,4095.0,4095.0,4022.0,3.79,9.21,1.69,-0.07,-0.0,-0.06,1.0,hello
3120.0,3530.0,4095.0,2913.0,4095.0,4095.0,4095.0,4033.0,3.86,9.29,1.74,-0.04,0.04,-0.06,1.0,hello
3107.0,3510.0,4095.0,2930.0,4095.0,4095.0,4095.0,3997.0,3.75,9.15,1.93,-0.11,0.01,-0.03,1.0,hello
3115.0,3536.0,4095.0,2928.0,4095.0,4095.0,4095.0,4016.0,3.97,9.24,1.95,-0.08,-0.01,-0.03,1.0,hello
3095.0,3536.0,4095.0,2937.0,4095.0,4095.0,4095.0,3995.0,3.8,9.26,1.89,-0.07,-0.03,-0.02,1.0,hello
3095.0,3536.0,4095.0,2933.0,4095.0,4095.0,4095.0,4027.0,3.86,9.19,1.92,-0.1,0.02,-0.0,1.0,hello
3106.0,3504.0,4095.0,2945.0,4095.0,4095.0,4095.0,4055.0,3.81,9.25,1.89,-0.08,0.02,-0.0,1.0,hello
3442.0,3434.0,3924.0,2739.0,4095.0,4095.0,4095.0,3797.0,7.93,6.38,-1.12,-0.06,0.0,-0.04,1.0,hello
3445.0,3437.0,3943.0,2741.0,4095.0,4095.0,4095.0,3803.0,7.7,6.38,-1.06,-0.06,-0.05,-0.05,1.0,hello
3463.0,3445.0,3938.0,2761.0,4095.0,4095.0,4095.0,3823.0,7.6,6.5,-1.02,-0.1,0.01,-0.04,1.0,hello
3433.0,3440.0,3935.0,2743.0,4095.0,4095.0,4095.0,3614.0,15.44,7.42,-7.31,-0.28,-0.26,-0.95,1.0,hello
3423.0,3442.0,3989.0,2817.0,4095.0,4095.0,4095.0,3736.0,5.61,2.88,-1.14,-3.86,-0.03,-2.45,1.0,hello
3423.0,3475.0,3984.0,2858.0,4095.0,4095.0,4095.0,3917.0,-1.77,6.9,8.36,-0.41,0.35,-0.59,1.0,hello
3396.0,3477.0,3974.0,2864.0,4095.0,4095.0,4095.0,4027.0,4.11,9.6,1.23,0.2,0.56,-0.14,1.0,hello
3392.0,3466.0,3997.0,2867.0,4095.0,4095.0,4095.0,4049.0,4.34,9.03,1.25,-0.02,0.15,-0.13,1.0,hello
3401.0,3451.0,4005.0,2876.0,4095.0,4095.0,4095.0,4075.0,4.12,8.97,1.36,-0.06,-0.05,0.04,1.0,hello
3413.0,3455.0,3990.0,2878.0,4095.0,4095.0,4095.0,4051.0,4.17,9.4,1.32,-0.1,0.06,0.03,1.0,hello
3392.0,3454.0,3995.0,2880.0,4095.0,4095.0,4095.0,4068.0,4.44,9.18,1.51,-0.03,0.13,-0.01,1.0,hello
3391.0,3461.0,4003.0,2875.0,4095.0,4095.0,4095.0,4079.0,4.55,9.09,1.21,0.02,0.05,-0.06,1.0,hello
3394.0,3440.0,3999.0,2883.0,4095.0,4095.0,4095.0,4095.0,4.45,9.04,1.2,-0.02,-0.05,-0.05,1.0,hello
3408.0,3468.0,4000.0,2884.0,4095.0,4095.0,4095.0,4095.0,4.19,9.24,1.11,-0.02,0.04,-0.07,1.0,hello
3409.0,3461.0,3988.0,2889.0,4095.0,4095.0,4095.0,4095.0,4.36,9.36,1.23,-0.06,-0.02,-0.01,1.0,hello
3402.0,3457.0,4003.0,2892.0,4095.0,4095.0,4095.0,4095.0,4.36,9.08,1.48,-0.04,0.06,-0.01,1.0,hello
3403.0,3475.0,3989.0,2889.0,4095.0,4095.0,4095.0,4095.0,4.35,9.0,1.24,-0.02,0.08,-0.05,1.0,hello
3399.0,3470.0,3984.0,2892.0,4095.0,4095.0,4095.0,4095.0,4.32,9.06,1.0,-0.08,0.07,-0.04,1.0,hello
3402.0,3466.0,3966.0,2896.0,4095.0,4095.0,4095.0,4095.0,4.42,9.15,1.45,-0.06,0.08,-0.03,1.0,hello
3411.0,3457.0,3997.0,2896.0,4095.0,4095.0,4095.0,4095.0,4.38,9.19,1.26,-0.02,0.05,-0.03,1.0,hello
3123.0,3813.0,3906.0,2734.0,4095.0,4095.0,4095.0,3758.0,7.74,6.65,-0.8,-0.07,-0.01,-0.05,1.0,hello
3134.0,3798.0,3904.0,2740.0,4095.0,4095.0,4095.0,3760.0,7.62,6.61,-0.72,-0.08,-0.02,-0.07,1.0,hello
3129.0,3714.0,3927.0,2755.0,4095.0,4095.0,4095.0,3756.0,10.36,6.21,-2.66,-0.23,-0.39,-0.27,1.0,hello
3136.0,3707.0,4031.0,2665.0,4095.0,4095.0,4095.0,3651.0,16.73,4.74,-7.25,-1.99,-0.61,-2.73,1.0,hello
3174.0,3699.0,3997.0,2826.0,4095.0,4095.0,4095.0,3910.0,-8.02,6.58,5.46,-1.48,1.14,-2.17,1.0,hello
3151.0,3660.0,4029.0,2847.0,4095.0,4095.0,4095.0,4007.0,1.19,9.71,6.01,-0.08,-0.12,-0.12,1.0,hello
3157.0,3659.0,4019.0,2859.0,4095.0,4095.0,4095.0,3990.0,3.24,9.74,1.94,0.11,-0.05,-0.1,1.0,hello
3153.0,3634.0,4047.0,2864.0,4095.0,4095.0,4095.0,4009.0,3.11,9.04,2.31,-0.06,-0.15,-0.04,1.0,hello
3151.0,3653.0,4051.0,2871.0,4095.0,4095.0,4095.0,4023.0,3.21,9.49,2.25,-0.05,-0.08,-0.06,1.0,hello
3154.0,3638.0,4039.0,2867.0,4095.0,4095.0,4095.0,4006.0,2.84,9.68,2.07,-0.0,-0.13,-0.04,1.0,hello
3166.0,3632.0,4055.0,2869.0,4095.0,4095.0,4095.0,3979.0,3.17,9.59,1.85,-0.07,0.02,0.01,1.0,hello
3159.0,3610.0,4063.0,2870.0,4095.0,4095.0,4095.0,3989.0,3.25,9.42,2.01,-0.05,-0.02,-0.01,1.0,hello
3154.0,3629.0,4043.0,2874.0,4095.0,4095.0,4095.0,3977.0,3.31,9.32,2.08,-0.0,0.04,-0.05,1.0,hello
3159.0,3623.0,4081.0,2879.0,4095.0,4095.0,4095.0,3955.0,3.18,9.58,1.74,-0.05,-0.04,-0.1,1.0,hello
3152.0,3615.0,4062.0,2870.0,4095.0,4095.0,4095.0,3961.0,2.7,9.58,2.02,-0.04,-0.03,-0.09,1.0,hello
3147.0,3623.0,4070.0,2875.0,4095.0,4095.0,4095.0,3963.0,2.95,9.57,1.8,-0.01,-0.0,-0.04,1.0,hello
3150.0,3631.0,4042.0,2877.0,4095.0,4095.0,4095.0,4009.0,2.77,9.63,1.81,-0.05,0.03,-0.02,1.0,hello
3146.0,3630.0,4061.0,2874.0,4095.0,4095.0,4095.0,3983.0,2.87,9.59,1.72,-0.06,0.03,-0.02,1.0,hello
3151.0,3629.0,4063.0,2867.0,4095.0,4095.0,4095.0,3986.0,3.07,9.56,2.09,-0.05,-0.01,-0.01,1.0,hello
3158.0,3614.0,4057.0,2870.0,4095.0,4095.0,4095.0,3990.0,2.95,9.55,1.72,-0.04,0.05,-0.01,1.0,hello
3220.0,3472.0,3723.0,2768.0,4095.0,4095.0,4095.0,3990.0,7.73,6.52,-0.69,-0.07,-0.03,-0.06,1.0,hello
3241.0,3455.0,3714.0,2746.0,4095.0,4095.0,4095.0,4038.0,8.31,6.3,-1.07,-0.06,-0.07,-0.11,1.0,hello
3219.0,3470.0,3738.0,2703.0,4095.0,4095.0,4095.0,3414.0,16.58,6.48,-7.26,-0.46,-0.61,-1.25,1.0,hello
3247.0,3483.0,3760.0,2754.0,4095.0,4095.0,4095.0,3824.0,3.03,3.67,3.62,-1.94,0.59,-3.11,1.0,hello
3244.0,3485.0,3744.0,2852.0,4095.0,4095.0,4095.0,4095.0,-2.54,9.14,3.37,-0.38,-0.07,-0.71,1.0,hello
3248.0,3484.0,3783.0,2853.0,4095.0,4095.0,4095.0,4095.0,3.31,9.99,1.15,-0.11,0.14,-0.1,1.0,hello
3256.0,3482.0,3788.0,2855.0,4095.0,4095.0,4095.0,4095.0,2.85,9.45,1.5,-0.12,0.08,-0.1,1.0,hello
3229.0,3489.0,3778.0,2861.0,4095.0,4095.0,4095.0,4095.0,3.39,9.62,1.39,-0.04,-0.02,-0.09,1.0,hello
3252.0,3471.0,3782.0,2865.0,4095.0,4095.0,4095.0,4095.0,3.11,9.62,0.99,-0.08,-0.04,-0.03,1.0,hello
3241.0,3472.0,3786.0,2861.0,4095.0,4095.0,4095.0,4095.0,3.13,9.57,1.18,-0.08,0.02,-0.03,1.0,hello
3255.0,3483.0,3794.0,2866.0,4095.0,4095.0,4095.0,4095.0,2.96,9.57,1.27,-0.09,0.0,0.0,1.0,hello
3239.0,3498.0,3778.0,2864.0,4095.0,4095.0,4095.0,4095.0,3.31,9.5,1.22,-0.05,-0.05,-0.0,1.0,hello
3234.0,3487.0,3805.0,2871.0,4095.0,4095.0,4095.0,4095.0,3.32,9.54,1.13,-0.06,-0.02,0.0,1.0,hello
3242.0,3483.0,3793.0,2867.0,4095.0,4095.0,4095.0,4095.0,3.35,9.57,1.26,-0.08,-0.02,-0.01,1.0,hello
3242.0,3489.0,3777.0,2870.0,4095.0,4095.0,4095.0,4095.0,3.25,9.52,1.12,-0.04,-0.06,-0.03,1.0,hello
3236.0,3493.0,3818.0,2864.0,4095.0,4095.0,4095.0,4095.0,3.3,9.55,1.14,-0.03,-0.07,-0.04,1.0,hello
3251.0,3475.0,3801.0,2871.0,4095.0,4095.0,4095.0,4095.0,3.16,9.5,1.13,-0.02,0.03,-0.02,1.0,hello
3231.0,3477.0,3791.0,2864.0,4095.0,4095.0,4095.0,4095.0,3.41,9.62,0.99,-0.05,0.1,-0.06,1.0,hello
3246.0,3499.0,3792.0,2864.0,4095.0,4095.0,4095.0,4095.0,3.11,9.56,1.18,-0.08,0.03,-0.03,1.0,hello
3247.0,3495.0,3825.0,2864.0,4095.0,4095.0,4095.0,4095.0,3.28,9.55,1.37,-0.07,-0.03,0.01,1.0,hello
3358.0,3478.0,4007.0,2787.0,4095.0,4095.0,4095.0,4095.0,7.68,6.62,-0.8,-0.06,0.0,-0.03,1.0,hello
3350.0,3472.0,3971.0,2799.0,4095.0,4095.0,4095.0,4095.0,7.69,6.52,-0.78,-0.05,0.0,-0.04,1.0,hello
3351.0,3475.0,3983.0,2797.0,4095.0,4095.0,4095.0,4055.0,9.04,6.18,-1.58,-0.06,0.1,-0.19,1.0,hello
3344.0,3463.0,4010.0,2731.0,4095.0,4095.0,4095.0,3605.0,18.42,6.19,-7.13,-0.89,-0.62,-1.85,1.0,hello
3366.0,3487.0,3984.0,2832.0,4095.0,4095.0,4095.0,4053.0,-2.89,3.34,5.29,-2.12,0.61,-2.83,1.0,hello
3353.0,3497.0,3971.0,2879.0,4095.0,4095.0,4095.0,4095.0,-1.81,9.03,4.54,-0.54,-0.43,-0.59,1.0,hello
3369.0,3491.0,3955.0,2889.0,4095.0,4095.0,4095.0,4095.0,2.28,9.87,2.28,-0.03,0.01,-0.02,1.0,hello
3351.0,3506.0,3971.0,2898.0,4095.0,4095.0,4095.0,4095.0,2.78,9.42,2.04,-0.02,0.06,-0.04,1.0,hello
3351.0,3504.0,3984.0,2894.0,4095.0,4095.0,4095.0,4095.0,2.7,9.55,1.83,-0.02,0.03,-0.05,1.0,hello
3353.0,3480.0,3986.0,2904.0,4095.0,4095.0,4095.0,4095.0,2.82,9.57,1.6,-0.05,0.01,-0.04,1.0,hello
3353.0,3501.0,3984.0,2882.0,4095.0,4095.0,4095.0,4095.0,2.95,9.68,1.63,-0.14,0.01,-0.01,1.0,hello
3353.0,3491.0,4002.0,2894.0,4095.0,4095.0,4095.0,4095.0,2.71,9.52,1.97,-0.05,0.02,-0.01,1.0,hello
3349.0,3497.0,3956.0,2887.0,4095.0,4095.0,4095.0,4095.0,2.98,9.63,1.72,-0.04,-0.01,-0.02,1.0,hello
3373.0,3479.0,3981.0,2894.0,4095.0,4095.0,4095.0,4095.0,2.91,9.54,1.73,-0.06,-0.03,-0.02,1.0,hello
3340.0,3495.0,3990.0,2891.0,4095.0,4095.0,4095.0,4095.0,2.97,9.57,1.96,-0.05,-0.01,-0.0,1.0,hello
3360.0,3507.0,3986.0,2893.0,4095.0,4095.0,4095.0,4095.0,3.05,9.56,1.85,-0.06,-0.04,0.02,1.0,hello
3350.0,3485.0,4003.0,2893.0,4095.0,4095.0,4095.0,4095.0,2.96,9.48,1.87,-0.04,-0.06,-0.04,1.0,hello
3342.0,3491.0,3969.0,2899.0,4095.0,4095.0,4095.0,4095.0,3.12,9.53,1.73,-0.07,-0.07,-0.01,1.0,hello
3366.0,3486.0,3961.0,2909.0,4095.0,4095.0,4095.0,4095.0,2.94,9.46,1.8,-0.1,-0.07,-0.02,1.0,hello
3345.0,3498.0,3962.0,2907.0,4095.0,4095.0,4095.0,4095.0,3.06,9.52,1.83,-0.09,-0.05,-0.03,1.0,hello
3362.0,3515.0,3925.0,2844.0,4095.0,4095.0,4095.0,4095.0,7.5,6.57,-0.37,-0.04,-0.02,-0.05,1.0,hello
3370.0,3491.0,3923.0,2860.0,4095.0,4095.0,4095.0,4095.0,7.75,6.56,-0.45,-0.05,-0.07,-0.05,1.0,hello
3376.0,3504.0,3941.0,2830.0,4095.0,4095.0,4095.0,4079.0,11.34,6.45,-2.38,-0.08,-0.01,-0.32,1.0,hello
3367.0,3501.0,4032.0,2777.0,4095.0,4095.0,4095.0,3421.0,18.47,5.82,-7.8,-2.27,-0.8,-3.25,1.0,hello
3392.0,3530.0,3983.0,2931.0,4095.0,4095.0,4095.0,4019.0,-12.22,2.97,11.01,-1.14,0.33,-1.78,1.0,hello
3361.0,3520.0,3996.0,2938.0,4095.0,4095.0,4095.0,4095.0,1.84,10.62,2.31,0.27,0.13,0.12,1.0,hello
3375.0,3521.0,4031.0,2930.0,4095.0,4095.0,4095.0,4095.0,3.46,9.54,2.39,-0.06,-0.09,0.0,1.0,hello
3357.0,3520.0,4001.0,2943.0,4095.0,4095.0,4095.0,4095.0,2.54,9.32,2.63,-0.05,-0.05,-0.04,1.0,hello
3357.0,3520.0,4004.0,2939.0,4095.0,4095.0,4095.0,4095.0,3.27,9.56,2.71,0.02,-0.14,-0.01,1.0,hello
3351.0,3507.0,4015.0,2934.0,4095.0,4095.0,4095.0,4095.0,2.83,9.44,2.26,-0.01,-0.05,-0.06,1.0,hello
3361.0,3520.0,4016.0,2946.0,4095.0,4095.0,4095.0,4095.0,3.13,9.43,2.43,-0.01,-0.08,0.02,1.0,hello
3358.0,3504.0,4003.0,2948.0,4095.0,4095.0,4095.0,4095.0,3.03,9.44,2.17,-0.02,-0.0,-0.04,1.0,hello
3357.0,3525.0,4016.0,2943.0,4095.0,4095.0,4095.0,4095.0,2.98,9.45,2.29,0.01,-0.05,-0.01,1.0,hello
3339.0,3514.0,4012.0,2944.0,4095.0,4095.0,4095.0,4095.0,3.03,9.51,2.0,-0.02,-0.02,-0.03,1.0,hello
3360.0,3511.0,4016.0,2944.0,4095.0,4095.0,4095.0,4095.0,3.06,9.53,2.01,-0.03,0.05,-0.02,1.0,hello
3356.0,3519.0,4016.0,2943.0,4095.0,4095.0,4095.0,4095.0,3.16,9.46,2.11,-0.04,0.07,-0.01,1.0,hello
3349.0,3498.0,4041.0,2946.0,4095.0,4095.0,4095.0,4095.0,3.17,9.41,2.07,-0.05,0.05,-0.05,1.0,hello
3349.0,3536.0,4023.0,2941.0,4095.0,4095.0,4095.0,4095.0,3.03,9.51,2.0,-0.03,0.01,-0.04,1.0,hello
3344.0,3507.0,4014.0,2932.0,4095.0,4095.0,4095.0,4095.0,3.18,9.53,2.15,-0.07,-0.01,-0.05,1.0,hello
3361.0,3508.0,4016.0,2908.0,4095.0,4095.0,4095.0,4095.0,2.86,9.51,1.94,-0.04,-0.01,-0.05,1.0,hello
3335.0,3482.0,3993.0,2703.0,4095.0,4095.0,4095.0,4095.0,7.73,6.37,-0.67,-0.07,0.04,-0.05,1.0,hello
3329.0,3487.0,3998.0,2704.0,4095.0,4095.0,4095.0,4095.0,7.78,6.35,-0.68,-0.07,0.06,-0.05,1.0,hello
3344.0,3494.0,3995.0,2698.0,4095.0,4095.0,4095.0,4095.0,7.78,6.45,-0.66,-0.08,0.04,-0.03,1.0,hello
3325.0,3490.0,3993.0,2704.0,4095.0,4095.0,4095.0,4095.0,8.96,6.01,-1.71,-0.09,0.02,0.02,1.0,hello
3323.0,3484.0,4022.0,2672.0,4095.0,4095.0,4095.0,4095.0,17.25,5.99,-7.18,-1.86,-0.63,-1.89,1.0,hello
3346.0,3505.0,4016.0,2721.0,4095.0,4095.0,4095.0,4095.0,-3.51,3.46,5.09,-1.85,2.2,-2.77,1.0,hello
3329.0,3520.0,4049.0,2782.0,4095.0,4095.0,4095.0,4095.0,-0.9,9.29,3.82,-0.27,-0.1,-0.56,1.0,hello
3327.0,3507.0,4023.0,2800.0,4095.0,4095.0,4095.0,4095.0,3.87,9.82,2.66,-0.06,-0.1,-0.02,1.0,hello
3334.0,3507.0,4051.0,2803.0,4095.0,4095.0,4095.0,4095.0,3.25,9.21,2.62,0.01,-0.0,-0.1,1.0,hello
3319.0,3519.0,4037.0,2799.0,4095.0,4095.0,4095.0,4095.0,3.36,9.4,2.15,-0.02,-0.02,-0.0,1.0,hello
3333.0,3505.0,4029.0,2801.0,4095.0,4095.0,4095.0,4095.0,3.34,9.38,2.35,-0.04,0.03,-0.04,1.0,hello
3335.0,3531.0,4045.0,2815.0,4095.0,4095.0,4095.0,4095.0,3.11,9.34,1.96,-0.04,0.14,-0.02,1.0,hello
3325.0,3495.0,4030.0,2812.0,4095.0,4095.0,4095.0,4095.0,3.43,9.26,2.37,-0.06,0.03,-0.01,1.0,hello
3328.0,3484.0,4014.0,2815.0,4095.0,4095.0,4095.0,4095.0,3.3,9.32,2.13,-0.09,0.06,-0.01,1.0,hello
3331.0,3501.0,4031.0,2810.0,4095.0,4095.0,4095.0,4095.0,3.34,9.29,2.42,-0.09,0.03,-0.03,1.0,hello
3343.0,3504.0,4059.0,2822.0,4095.0,4095.0,4095.0,4095.0,3.43,9.36,2.45,-0.06,-0.0,-0.04,1.0,hello
3327.0,3517.0,4037.0,2817.0,4095.0,4095.0,4095.0,4095.0,3.19,9.23,2.29,-0.05,0.03,-0.05,1.0,hello
3333.0,3511.0,4029.0,2831.0,4095.0,4095.0,4095.0,4095.0,3.45,9.34,2.23,-0.06,-0.0,-0.02,1.0,hello
3327.0,3504.0,4033.0,2833.0,4095.0,4095.0,4095.0,4095.0,3.48,9.32,2.27,-0.07,0.01,-0.04,1.0,hello
3342.0,3504.0,4027.0,2829.0,4095.0,4095.0,4095.0,4095.0,3.38,9.31,2.26,-0.06,0.01,-0.03,1.0,hello
3205.0,3486.0,3979.0,2759.0,4095.0,4095.0,4095.0,4095.0,7.85,6.6,-0.2,-0.05,-0.07,-0.04,1.0,hello
3197.0,3485.0,3979.0,2768.0,4095.0,4095.0,4095.0,4095.0,7.74,6.55,-0.33,-0.04,-0.03,-0.05,1.0,hello
3205.0,3485.0,3983.0,2770.0,4095.0,4095.0,4095.0,4095.0,7.84,6.56,-0.51,-0.05,-0.06,-0.06,1.0,hello
3194.0,3481.0,3991.0,2737.0,4095.0,4095.0,4095.0,3657.0,13.07,6.85,-5.17,-0.34,-0.74,-0.54,1.0,hello
3187.0,3508.0,4006.0,2739.0,4095.0,4095.0,4095.0,3603.0,11.96,4.71,-3.54,-2.69,-0.29,-3.03,1.0,hello
3232.0,3515.0,4007.0,2803.0,4095.0,4095.0,4095.0,4010.0,-8.32,4.11,12.45,-1.51,-0.01,-1.45,1.0,hello
3221.0,3494.0,3995.0,2837.0,4095.0,4095.0,4095.0,4095.0,4.09,10.69,1.08,0.08,-0.21,-0.14,1.0,hello
3198.0,3513.0,3988.0,2854.0,4095.0,4095.0,4095.0,4095.0,4.25,9.18,2.7,-0.13,-0.11,-0.12,1.0,hello
3205.0,3502.0,4013.0,2845.0,4095.0,4095.0,4095.0,4095.0,3.03,9.15,2.51,-0.04,-0.03,-0.07,1.0,hello
3196.0,3498.0,4002.0,2855.0,4095.0,4095.0,4095.0,4095.0,3.6,9.39,2.45,0.03,-0.05,-0.01,1.0,hello
3214.0,3494.0,4010.0,2859.0,4095.0,4095.0,4095.0,4095.0,3.44,9.18,2.25,-0.1,-0.05,-0.0,1.0,hello
3215.0,3502.0,4003.0,2855.0,4095.0,4095.0,4095.0,4095.0,3.68,9.12,2.42,-0.06,-0.04,-0.01,1.0,hello
3201.0,3505.0,3999.0,2854.0,4095.0,4095.0,4095.0,4095.0,3.7,9.07,2.44,-0.06,-0.06,-0.03,1.0,hello
3194.0,3504.0,3993.0,2857.0,4095.0,4095.0,4095.0,4095.0,3.47,9.17,2.15,-0.0,0.03,-0.01,1.0,hello
3193.0,3494.0,4005.0,2866.0,4095.0,4095.0,4095.0,4095.0,3.51,9.22,2.36,-0.04,-0.02,-0.03,1.0,hello
3209.0,3516.0,3984.0,2864.0,4095.0,4095.0,4095.0,4095.0,3.76,9.18,2.45,-0.07,0.08,-0.02,1.0,hello
3201.0,3504.0,3983.0,2864.0,4095.0,4095.0,4095.0,4095.0,3.62,9.17,2.38,-0.03,0.03,0.0,1.0,hello
3204.0,3492.0,3984.0,2864.0,4095.0,4095.0,4095.0,4095.0,3.81,9.23,2.25,-0.01,0.0,-0.03,1.0,hello
3194.0,3514.0,4007.0,2863.0,4095.0,4095.0,4095.0,4095.0,3.66,9.14,2.3,-0.06,0.01,-0.04,1.0,hello
3197.0,3495.0,3995.0,2861.0,4095.0,4095.0,4095.0,4095.0,3.76,9.12,2.18,-0.03,-0.08,-0.01,1.0,hello
3411.0,3486.0,3979.0,2711.0,4095.0,4095.0,4095.0,3309.0,7.52,6.67,-1.1,-0.08,0.09,-0.02,1.0,hello
3389.0,3508.0,3966.0,2736.0,4095.0,4095.0,4095.0,3301.0,7.52,6.69,-1.07,-0.07,-0.0,-0.05,1.0,hello
3401.0,3504.0,3971.0,2747.0,4095.0,4095.0,4095.0,3331.0,7.94,6.56,-1.16,-0.1,0.01,-0.09,1.0,hello
3403.0,3493.0,3974.0,2733.0,4095.0,4095.0,4095.0,2853.0,14.21,6.64,-5.38,-0.22,-0.11,-1.06,1.0,hello
3423.0,3492.0,3984.0,2745.0,4095.0,4095.0,4095.0,3378.0,5.01,4.03,-0.57,-3.11,-0.15,-3.17,1.0,hello
3435.0,3497.0,3985.0,2782.0,4095.0,4095.0,4095.0,3620.0,-2.94,8.15,6.17,-0.63,-0.63,-0.76,1.0,hello
3403.0,3494.0,3979.0,2810.0,4095.0,4095.0,4095.0,3679.0,2.82,9.67,2.62,-0.04,-0.11,-0.02,1.0,hello
3398.0,3487.0,3983.0,2817.0,4095.0,4095.0,4095.0,3632.0,3.63,9.32,1.83,0.06,0.07,-0.07,1.0,hello
3405.0,3492.0,3971.0,2823.0,4095.0,4095.0,4095.0,3696.0,3.71,9.42,1.89,-0.04,-0.07,-0.04,1.0,hello
3408.0,3489.0,3981.0,2827.0,4095.0,4095.0,4095.0,3705.0,3.52,9.48,1.62,-0.07,0.07,-0.04,1.0,hello
3410.0,3502.0,3978.0,2831.0,4095.0,4095.0,4095.0,3733.0,3.52,9.39,1.91,-0.07,-0.08,0.0,1.0,hello
3418.0,3486.0,3976.0,2833.0,4095.0,4095.0,4095.0,3729.0,3.62,9.38,1.76,-0.08,-0.06,-0.0,1.0,hello
3408.0,3486.0,3988.0,2829.0,4095.0,4095.0,4095.0,3744.0,3.51,9.38,1.83,-0.06,-0.09,-0.02,1.0,hello
3408.0,3507.0,3984.0,2843.0,4095.0,4095.0,4095.0,3748.0,3.45,9.3,1.9,-0.05,-0.1,-0.04,1.0,hello
3413.0,3493.0,3972.0,2849.0,4095.0,4095.0,4095.0,3755.0,3.65,9.38,1.89,-0.05,-0.09,-0.01,1.0,hello
3393.0,3504.0,3984.0,2849.0,4095.0,4095.0,4095.0,3771.0,3.43,9.29,1.85,-0.04,-0.02,-0.05,1.0,hello
3395.0,3487.0,3993.0,2838.0,4095.0,4095.0,4095.0,3769.0,3.46,9.35,1.85,-0.03,-0.02,-0.02,1.0,hello
3402.0,3472.0,3979.0,2839.0,4095.0,4095.0,4095.0,3769.0,3.58,9.36,1.72,-0.08,-0.01,-0.03,1.0,hello
3406.0,3491.0,4005.0,2847.0,4095.0,4095.0,4095.0,3759.0,3.74,9.38,1.68,-0.08,0.04,-0.02,1.0,hello
3408.0,3481.0,3993.0,2846.0,4095.0,4095.0,4095.0,3750.0,3.63,9.37,1.91,-0.12,0.03,-0.0,1.0,hello
3401.0,3377.0,3927.0,2781.0,4095.0,4095.0,4095.0,3886.0,7.49,6.84,-1.21,-0.1,0.01,-0.02,1.0,hello
3419.0,3377.0,3925.0,2787.0,4095.0,4095.0,4095.0,3875.0,7.37,6.87,-1.37,-0.08,-0.03,-0.02,1.0,hello
3407.0,3369.0,3920.0,2791.0,4095.0,4095.0,4095.0,3895.0,7.4,6.84,-1.29,-0.07,-0.01,-0.03,1.0,hello
3393.0,3378.0,3922.0,2798.0,4095.0,4095.0,4095.0,3935.0,8.09,6.61,-1.82,-0.06,0.13,-0.1,1.0,hello
3377.0,3380.0,3923.0,2747.0,4095.0,4095.0,4095.0,3297.0,16.64,6.33,-8.33,-1.25,-0.19,-1.53,1.0,hello
3376.0,3381.0,3923.0,2815.0,4095.0,4095.0,4095.0,3822.0,2.46,4.55,1.52,-2.38,1.13,-3.39,1.0,hello
3401.0,3398.0,3923.0,2867.0,4095.0,4095.0,4095.0,4059.0,-7.69,5.72,9.14,-0.94,0.16,-0.95,1.0,hello
3381.0,3392.0,3942.0,2880.0,4095.0,4095.0,4095.0,4095.0,1.89,9.82,3.35,-0.02,0.14,0.04,1.0,hello
3395.0,3409.0,3942.0,2884.0,4095.0,4095.0,4095.0,4083.0,2.09,9.58,2.42,0.03,0.06,-0.09,1.0,hello
3378.0,3402.0,3955.0,2877.0,4095.0,4095.0,4095.0,4030.0,2.47,9.58,2.42,0.03,-0.05,0.0,1.0,hello
3399.0,3397.0,3942.0,2882.0,4095.0,4095.0,4095.0,4047.0,2.14,9.74,2.04,-0.04,0.1,0.04,1.0,hello
3399.0,3392.0,3950.0,2881.0,4095.0,4095.0,4095.0,4064.0,2.14,9.77,1.91,-0.0,0.09,0.06,1.0,hello
3370.0,3390.0,3968.0,2887.0,4095.0,4095.0,4095.0,4095.0,2.65,9.56,2.05,-0.06,-0.01,0.08,1.0,hello
3372.0,3397.0,3952.0,2893.0,4095.0,4095.0,4095.0,4095.0,2.92,9.69,2.2,-0.09,0.03,-0.0,1.0,hello
3376.0,3404.0,3946.0,2897.0,4095.0,4095.0,4095.0,4095.0,2.57,9.62,2.17,-0.08,-0.01,-0.02,1.0,hello
3379.0,3395.0,3927.0,2896.0,4095.0,4095.0,4095.0,4095.0,2.59,9.62,1.94,-0.03,0.02,-0.06,1.0,hello
3376.0,3397.0,3952.0,2893.0,4095.0,4095.0,4095.0,4095.0,2.58,9.63,2.08,-0.09,0.01,-0.01,1.0,hello
3378.0,3399.0,3936.0,2891.0,4095.0,4095.0,4095.0,4095.0,2.69,9.58,2.14,-0.04,0.0,-0.03,1.0,hello
3376.0,3401.0,3946.0,2894.0,4095.0,4095.0,4095.0,4095.0,2.53,9.62,2.23,-0.05,-0.04,-0.02,1.0,hello
3376.0,3394.0,3934.0,2899.0,4095.0,4095.0,4095.0,4095.0,2.56,9.68,1.91,-0.06,0.03,-0.03,1.0,hello
3393.0,3531.0,4095.0,2559.0,4095.0,4095.0,4095.0,2765.0,7.66,6.29,2.5,-0.1,-0.07,0.03,1.0,hello
3397.0,3543.0,4095.0,2559.0,4095.0,4095.0,4095.0,2813.0,7.83,6.04,2.34,-0.06,-0.05,0.01,1.0,hello
3409.0,3534.0,4095.0,2559.0,4095.0,4095.0,4095.0,2827.0,7.55,6.26,2.12,-0.01,-0.04,-0.05,1.0,hello
3424.0,3506.0,4095.0,2559.0,4095.0,4095.0,4095.0,2849.0,7.87,6.3,2.22,-0.05,-0.09,-0.04,1.0,hello
3380.0,3523.0,4095.0,2544.0,4095.0,4095.0,4095.0,2383.0,16.28,6.25,-2.29,-0.07,0.39,-0.4,1.0,hello
3376.0,3520.0,4095.0,2530.0,4095.0,4095.0,4095.0,2384.0,4.55,-0.13,4.68,-2.8,2.32,-4.2,1.0,hello
3376.0,3531.0,4095.0,2637.0,4095.0,4095.0,4095.0,2714.0,-3.19,8.44,7.46,-0.18,0.15,-0.66,1.0,hello
3362.0,3528.0,4095.0,2623.0,4095.0,4095.0,4095.0,2690.0,3.47,9.03,4.08,0.15,0.14,-0.07,1.0,hello
3367.0,3523.0,4095.0,2631.0,4095.0,4095.0,4095.0,2843.0,4.28,8.74,3.96,-0.08,-0.34,-0.12,1.0,hello
3367.0,3499.0,4095.0,2613.0,4095.0,4095.0,4095.0,2937.0,3.4,8.4,4.22,-0.06,-0.21,-0.15,1.0,hello
3359.0,3513.0,4095.0,2623.0,4095.0,4095.0,4095.0,2994.0,3.23,8.89,3.79,-0.05,-0.42,-0.1,1.0,hello
3354.0,3519.0,4095.0,2625.0,4095.0,4095.0,4095.0,3023.0,3.17,8.66,4.16,-0.08,0.16,-0.02,1.0,hello
3351.0,3524.0,4095.0,2621.0,4095.0,4095.0,4095.0,2994.0,3.38,8.7,4.1,-0.05,0.05,0.02,1.0,hello
3353.0,3515.0,4095.0,2624.0,4095.0,4095.0,4095.0,3056.0,3.77,8.8,4.06,-0.04,0.01,0.02,1.0,hello
3345.0,3536.0,4095.0,2626.0,4095.0,4095.0,4095.0,2993.0,3.64,8.62,3.9,-0.07,-0.01,-0.0,1.0,hello
3343.0,3531.0,4095.0,2629.0,4095.0,4095.0,4095.0,2965.0,3.62,8.61,3.93,-0.08,-0.01,-0.0,1.0,hello
3346.0,3530.0,4095.0,2626.0,4095.0,4095.0,4095.0,2990.0,3.7,8.67,3.99,-0.02,-0.02,-0.03,1.0,hello
3362.0,3507.0,4095.0,2624.0,4095.0,4095.0,4095.0,3022.0,3.68,8.63,3.86,-0.04,0.01,-0.05,1.0,hello
3362.0,3525.0,4095.0,2631.0,4095.0,4095.0,4095.0,3024.0,3.44,8.71,3.99,-0.08,0.06,-0.02,1.0,hello
3355.0,3509.0,4095.0,2645.0,4095.0,4095.0,4095.0,2944.0,3.68,8.6,3.99,-0.09,-0.14,-0.03,1.0,hello
3380.0,3492.0,4095.0,2670.0,4095.0,4095.0,4095.0,3297.0,7.94,6.32,1.09,-0.08,0.01,0.0,1.0,hello
3361.0,3486.0,4095.0,2681.0,4095.0,4095.0,4095.0,3311.0,8.08,6.44,0.78,-0.01,-0.19,-0.06,1.0,hello
3351.0,3482.0,4095.0,2679.0,4095.0,4095.0,4095.0,3374.0,7.76,6.27,1.11,-0.08,-0.03,-0.01,1.0,hello
3360.0,3487.0,4095.0,2691.0,4095.0,4095.0,4095.0,3388.0,7.76,6.36,1.01,-0.07,0.02,-0.03,1.0,hello
3367.0,3491.0,4095.0,2698.0,4095.0,4095.0,4095.0,3396.0,7.91,6.41,0.88,-0.04,0.02,-0.05,1.0,hello
3361.0,3482.0,4095.0,2707.0,4095.0,4095.0,4095.0,3403.0,7.94,6.48,0.93,-0.01,-0.08,-0.04,1.0,hello
3379.0,3475.0,4095.0,2717.0,4095.0,4095.0,4095.0,3358.0,7.83,6.33,0.84,-0.02,-0.04,-0.03,1.0,hello
3377.0,3477.0,4095.0,2722.0,4095.0,4095.0,4095.0,3219.0,8.26,6.01,0.71,-0.1,0.14,-0.06,1.0,hello
3353.0,3472.0,4095.0,2653.0,4095.0,4095.0,4095.0,2074.0,21.54,7.38,-10.83,-0.73,-0.9,-1.92,1.0,hello
3359.0,3484.0,4095.0,2787.0,4095.0,4095.0,4095.0,2532.0,-9.36,2.21,13.14,-0.03,2.16,-1.75,1.0,hello
3354.0,3493.0,4095.0,2790.0,4095.0,4095.0,4095.0,2681.0,1.41,9.11,4.0,-0.03,0.33,-0.29,1.0,hello
3330.0,3493.0,4095.0,2786.0,4095.0,4095.0,4095.0,2992.0,4.67,8.92,3.12,-0.07,-0.14,-0.01,1.0,hello
3338.0,3494.0,4095.0,2791.0,4095.0,4095.0,4095.0,3011.0,3.85,8.57,3.17,-0.08,0.07,-0.01,1.0,hello
3329.0,3495.0,4095.0,2790.0,4095.0,4095.0,4095.0,3025.0,4.44,9.01,2.8,-0.07,-0.01,-0.03,1.0,hello
3331.0,3483.0,4095.0,2782.0,4095.0,4095.0,4095.0,3037.0,3.87,8.64,3.44,-0.12,-0.0,-0.13,1.0,hello
3338.0,3478.0,4095.0,2812.0,4095.0,4095.0,4095.0,3601.0,3.66,8.79,3.04,-0.07,0.17,0.01,1.0,hello
3335.0,3491.0,4095.0,2795.0,4095.0,4095.0,4095.0,3639.0,3.99,8.73,3.31,-0.09,0.04,0.06,1.0,hello
3328.0,3488.0,4095.0,2800.0,4095.0,4095.0,4095.0,3658.0,4.23,8.77,2.9,-0.06,0.07,-0.04,1.0,hello
3314.0,3482.0,4095.0,2797.0,4095.0,4095.0,4095.0,3716.0,4.18,8.75,3.19,-0.07,0.02,-0.04,1.0,hello
3346.0,3467.0,4095.0,2794.0,4095.0,4095.0,4095.0,3719.0,4.19,8.8,3.06,-0.05,0.03,-0.04,1.0,hello
3387.0,3157.0,3728.0,2802.0,4095.0,4095.0,4095.0,3530.0,7.84,6.19,0.69,-0.08,0.03,-0.02,1.0,hello
3381.0,3152.0,3737.0,2816.0,4095.0,4095.0,4095.0,3567.0,7.93,6.23,0.6,-0.05,-0.05,-0.05,1.0,hello
3386.0,3149.0,3754.0,2823.0,4095.0,4095.0,4095.0,3600.0,7.98,6.23,0.71,-0.06,-0.02,-0.05,1.0,hello
3405.0,3143.0,3759.0,2843.0,4095.0,4095.0,4095.0,3546.0,8.03,6.34,0.69,-0.05,0.0,-0.07,1.0,hello
3391.0,3152.0,3760.0,2844.0,4095.0,4095.0,4095.0,3550.0,7.88,6.27,0.65,-0.07,-0.02,-0.05,1.0,hello
3383.0,3151.0,3762.0,2844.0,4095.0,4095.0,4095.0,3553.0,7.88,6.51,0.63,-0.06,0.22,-0.05,1.0,hello
3376.0,3152.0,3758.0,2851.0,4095.0,4095.0,4095.0,3619.0,8.15,6.25,0.72,-0.03,-0.05,-0.04,1.0,hello
3378.0,3145.0,3778.0,2830.0,4095.0,4095.0,4095.0,3518.0,13.45,6.46,-2.37,-0.07,0.35,-0.3,1.0,hello
3358.0,3152.0,3786.0,2800.0,4095.0,4095.0,4095.0,3418.0,16.23,4.38,-1.29,-1.64,-0.28,-3.6,1.0,hello
3389.0,3171.0,3819.0,2839.0,4095.0,4095.0,4095.0,3724.0,-7.96,5.37,7.51,-1.16,-0.83,-1.86,1.0,hello
3380.0,3158.0,3793.0,2859.0,4095.0,4095.0,4095.0,3712.0,1.89,9.02,5.02,-0.28,-0.22,0.02,1.0,hello
3374.0,3153.0,3833.0,2870.0,4095.0,4095.0,4095.0,3779.0,4.24,9.38,3.45,-0.01,-0.09,0.03,1.0,hello
3381.0,3170.0,3827.0,2871.0,4095.0,4095.0,4095.0,3830.0,3.64,8.52,3.24,-0.02,-0.04,-0.05,1.0,hello
3377.0,3172.0,3830.0,2881.0,4095.0,4095.0,4095.0,3844.0,3.63,9.02,2.95,-0.02,-0.03,-0.06,1.0,hello
3376.0,3167.0,3843.0,2871.0,4095.0,4095.0,4095.0,3847.0,3.64,9.11,2.77,-0.12,0.0,-0.03,1.0,hello
3376.0,3153.0,3841.0,2874.0,4095.0,4095.0,4095.0,3843.0,3.67,9.16,2.96,-0.07,-0.01,-0.01,1.0,hello
3365.0,3157.0,3846.0,2871.0,4095.0,4095.0,4095.0,3889.0,3.65,8.96,2.98,-0.02,-0.09,-0.04,1.0,hello
3376.0,3153.0,3856.0,2879.0,4095.0,4095.0,4095.0,3865.0,3.57,8.94,2.97,0.01,-0.06,-0.07,1.0,hello
3383.0,3153.0,3827.0,2871.0,4095.0,4095.0,4095.0,3877.0,3.58,9.06,2.72,-0.09,0.09,-0.07,1.0,hello
3388.0,3155.0,3834.0,2882.0,4095.0,4095.0,4095.0,3857.0,3.74,9.21,2.93,-0.06,-0.06,-0.04,1.0,hello
3226.0,3190.0,4022.0,2725.0,4095.0,4095.0,4095.0,3826.0,7.78,6.49,-0.04,-0.05,-0.01,-0.02,1.0,hello
3248.0,3207.0,4035.0,2736.0,4095.0,4095.0,4095.0,3817.0,7.86,6.43,-0.03,-0.03,0.0,-0.06,1.0,hello
3243.0,3188.0,4003.0,2747.0,4095.0,4095.0,4095.0,3837.0,7.87,6.51,-0.04,-0.06,0.04,-0.04,1.0,hello
3233.0,3183.0,4029.0,2736.0,4095.0,4095.0,4095.0,3859.0,7.65,6.41,0.02,-0.1,0.18,-0.03,1.0,hello
3255.0,3185.0,4026.0,2737.0,4095.0,4095.0,4095.0,3888.0,7.97,6.47,0.09,-0.04,-0.02,-0.04,1.0,hello
3237.0,3185.0,4031.0,2720.0,4095.0,4095.0,4095.0,3874.0,8.19,6.42,0.11,-0.08,0.03,-0.03,1.0,hello
3231.0,3199.0,4018.0,2730.0,4095.0,4095.0,4095.0,3842.0,10.68,6.28,-0.88,0.09,0.1,-0.19,1.0,hello
3235.0,3197.0,4045.0,2653.0,4095.0,4095.0,4095.0,3687.0,17.96,5.86,-8.66,-1.67,-0.33,-2.98,1.0,hello
3254.0,3200.0,4032.0,2768.0,4095.0,4095.0,4095.0,3835.0,-9.33,3.52,13.11,-1.17,-1.13,-1.54,1.0,hello
3216.0,3187.0,4038.0,2770.0,4095.0,4095.0,4095.0,4049.0,2.67,9.52,3.53,0.14,0.0,-0.15,1.0,hello
3232.0,3189.0,4029.0,2775.0,4095.0,4095.0,4095.0,4045.0,4.79,8.99,2.53,-0.0,-0.01,-0.05,1.0,hello
3219.0,3205.0,4029.0,2781.0,4095.0,4095.0,4095.0,4059.0,3.75,8.71,2.82,-0.04,-0.04,0.02,1.0,hello
3227.0,3197.0,4023.0,2780.0,4095.0,4095.0,4095.0,4095.0,3.98,8.92,2.76,-0.01,-0.02,0.0,1.0,hello
3232.0,3200.0,4023.0,2779.0,4095.0,4095.0,4095.0,4095.0,4.3,8.96,2.31,-0.02,0.06,-0.01,1.0,hello
3229.0,3203.0,4027.0,2789.0,4095.0,4095.0,4095.0,4083.0,4.63,9.0,2.42,-0.01,-0.02,0.02,1.0,hello
3226.0,3207.0,4039.0,2781.0,4095.0,4095.0,4095.0,4095.0,4.37,8.88,2.4,-0.03,-0.03,-0.02,1.0,hello
3216.0,3197.0,4020.0,2770.0,4095.0,4095.0,4095.0,4051.0,4.33,8.92,2.38,-0.13,0.05,-0.02,1.0,hello
3217.0,3186.0,4027.0,2774.0,4095.0,4095.0,4095.0,4036.0,4.35,8.91,2.69,-0.07,-0.02,-0.03,1.0,hello
3230.0,3200.0,4019.0,2775.0,4095.0,4095.0,4095.0,4091.0,4.04,8.81,2.38,-0.08,0.02,-0.01,1.0,hello
3221.0,3187.0,4045.0,2771.0,4095.0,4095.0,4095.0,4075.0,4.35,8.87,2.46,-0.19,0.02,-0.03,1.0,hello
3452.0,3255.0,4042.0,2801.0,4095.0,4095.0,4095.0,3860.0,8.31,6.0,0.34,-0.08,-0.02,-0.06,1.0,hello
3462.0,3244.0,4051.0,2811.0,4095.0,4095.0,4095.0,3825.0,8.07,6.05,0.14,-0.05,-0.01,-0.06,1.0,hello
3455.0,3249.0,4050.0,2811.0,4095.0,4095.0,4095.0,3767.0,9.95,5.87,-0.87,-0.04,-0.01,-0.14,1.0,hello
3429.0,3251.0,4063.0,2787.0,4095.0,4095.0,4095.0,3522.0,16.72,6.09,-5.73,-1.94,-0.31,-2.34,1.0,hello
3414.0,3259.0,4034.0,2859.0,4095.0,4095.0,4095.0,3888.0,-0.92,3.91,6.39,-1.69,1.0,-2.5,1.0,hello
3425.0,3264.0,4021.0,2891.0,4095.0,4095.0,4095.0,4048.0,-0.0,9.19,3.93,-0.15,0.0,-0.35,1.0,hello
3406.0,3248.0,4023.0,2871.0,4095.0,4095.0,4095.0,4034.0,4.82,9.64,2.14,0.06,-0.2,0.05,1.0,hello
3413.0,3250.0,4016.0,2871.0,4095.0,4095.0,4095.0,4076.0,3.96,9.09,2.38,-0.01,0.01,-0.1,1.0,hello
3429.0,3253.0,4034.0,2881.0,4095.0,4095.0,4095.0,4079.0,3.78,9.22,2.35,0.02,-0.04,-0.13,1.0,hello
3406.0,3265.0,4033.0,2902.0,4095.0,4095.0,4095.0,4095.0,3.54,9.2,2.6,-0.05,0.07,-0.04,1.0,hello
3398.0,3253.0,4045.0,2898.0,4095.0,4095.0,4095.0,4090.0,3.45,9.15,2.27,-0.08,0.17,0.0,1.0,hello
3399.0,3262.0,4032.0,2898.0,4095.0,4095.0,4095.0,4095.0,3.84,9.12,2.24,-0.09,0.14,0.02,1.0,hello
3391.0,3257.0,4020.0,2899.0,4095.0,4095.0,4095.0,4095.0,3.79,9.11,2.17,-0.07,-0.08,0.0,1.0,hello
3412.0,3249.0,4048.0,2899.0,4095.0,4095.0,4095.0,4095.0,4.11,9.18,2.33,-0.09,-0.03,-0.03,1.0,hello
3408.0,3258.0,4039.0,2897.0,4095.0,4095.0,4095.0,4095.0,3.81,9.07,2.39,-0.08,0.05,-0.04,1.0,hello
3408.0,3258.0,4029.0,2896.0,4095.0,4095.0,4095.0,4095.0,3.98,9.1,2.35,-0.08,-0.05,-0.01,1.0,hello
3420.0,3246.0,4046.0,2898.0,4095.0,4095.0,4095.0,4095.0,3.95,9.17,2.19,-0.07,0.02,-0.03,1.0,hello
3407.0,3248.0,4025.0,2896.0,4095.0,4095.0,4095.0,4095.0,3.82,9.11,2.32,-0.08,0.08,-0.01,1.0,hello
3406.0,3255.0,4036.0,2909.0,4095.0,4095.0,4095.0,4095.0,3.92,9.04,2.46,-0.06,-0.08,-0.0,1.0,hello
3407.0,3263.0,4053.0,2913.0,4095.0,4095.0,4095.0,4095.0,3.89,9.17,2.17,-0.05,-0.01,-0.06,1.0,hello
3115.0,3212.0,4095.0,2832.0,4095.0,4095.0,4095.0,3886.0,8.31,6.06,0.55,-0.06,0.13,-0.05,1.0,hello
3109.0,3234.0,4095.0,2845.0,4095.0,4095.0,4095.0,4022.0,8.32,5.91,0.64,-0.08,0.01,-0.04,1.0,hello
3099.0,3238.0,4095.0,2850.0,4095.0,4095.0,4095.0,4051.0,8.1,6.02,0.52,-0.04,-0.01,-0.07,1.0,hello
3109.0,3219.0,4095.0,2847.0,4095.0,4095.0,4095.0,4080.0,8.35,6.1,0.59,-0.04,-0.07,-0.05,1.0,hello
3102.0,3223.0,4095.0,2852.0,4095.0,4095.0,4095.0,4086.0,8.34,6.0,0.52,-0.03,-0.01,-0.08,1.0,hello
3103.0,3238.0,4095.0,2858.0,4095.0,4095.0,4095.0,4090.0,8.11,6.05,0.68,-0.03,-0.08,-0.04,1.0,hello
3111.0,3218.0,4095.0,2850.0,4095.0,4095.0,4095.0,4069.0,8.39,5.89,0.45,-0.07,-0.03,-0.03,1.0,hello
3088.0,3244.0,4095.0,2758.0,4095.0,4095.0,4095.0,3058.0,21.16,5.52,-7.41,-0.76,-0.06,-1.94,1.0,hello
3126.0,3238.0,4095.0,2864.0,4095.0,4095.0,4095.0,3717.0,-6.74,2.6,6.59,-0.91,1.72,-2.95,1.0,hello
3112.0,3264.0,4095.0,2907.0,4095.0,4095.0,4095.0,3856.0,-0.14,9.11,4.34,-0.24,0.22,-0.2,1.0,hello
3119.0,3255.0,4095.0,2896.0,4095.0,4095.0,4095.0,3777.0,4.21,9.53,2.25,-0.04,0.14,-0.03,1.0,hello
3105.0,3264.0,4095.0,2901.0,4095.0,4095.0,4095.0,3765.0,3.8,9.06,2.32,-0.09,0.15,-0.1,1.0,hello
3120.0,3271.0,4095.0,2899.0,4095.0,4095.0,4095.0,3671.0,3.65,9.11,2.93,-0.07,0.01,-0.01,1.0,hello
3120.0,3249.0,4095.0,2901.0,4095.0,4095.0,4095.0,3710.0,3.8,9.16,2.43,-0.07,-0.0,-0.03,1.0,hello
3111.0,3258.0,4095.0,2907.0,4095.0,4095.0,4095.0,3824.0,3.98,9.22,2.49,-0.05,0.0,-0.02,1.0,hello
3113.0,3251.0,4095.0,2907.0,4095.0,4095.0,4095.0,3879.0,3.91,9.11,2.52,-0.07,0.07,-0.02,1.0,hello
3125.0,3247.0,4095.0,2896.0,4095.0,4095.0,4095.0,3920.0,4.06,9.1,2.51,-0.07,0.03,0.0,1.0,hello
3107.0,3259.0,4095.0,2905.0,4095.0,4095.0,4095.0,3968.0,4.05,9.07,2.44,-0.05,-0.03,-0.03,1.0,hello
3104.0,3242.0,4095.0,2880.0,4095.0,4095.0,4095.0,3918.0,3.76,9.18,2.38,-0.05,-0.11,-0.01,1.0,hello
3115.0,3255.0,4095.0,2895.0,4095.0,4095.0,4095.0,3924.0,3.69,9.08,2.45,-0.09,-0.04,-0.01,1.0,hello
2805.0,4095.0,926.0,3088.0,4095.0,4095.0,4095.0,2946.0,-10.67,6.32,8.99,-1.41,2.49,-0.45,1.0,hello
959.0,4095.0,903.0,3015.0,4095.0,4095.0,4095.0,3377.0,7.0,10.66,-0.01,0.18,-0.43,-0.23,1.0,hello
1111.0,4095.0,917.0,3026.0,4095.0,4095.0,4095.0,3439.0,3.59,8.95,0.75,-0.09,-0.22,-0.13,1.0,hello
1232.0,4095.0,911.0,3031.0,4095.0,4095.0,4095.0,3485.0,3.86,9.1,0.62,0.02,-0.15,0.08,1.0,hello
1385.0,4095.0,910.0,3024.0,4095.0,4095.0,4095.0,3474.0,4.3,9.17,0.13,-0.03,0.09,0.1,1.0,hello
1360.0,4095.0,912.0,3010.0,4095.0,4095.0,4095.0,3699.0,4.26,9.0,-0.03,-0.03,0.21,0.04,1.0,hello
999.0,4095.0,912.0,2992.0,4095.0,4095.0,4095.0,3694.0,4.86,9.26,0.21,-0.01,0.04,0.03,1.0,hello
976.0,4095.0,912.0,2989.0,4095.0,4095.0,4095.0,3741.0,4.6,8.98,0.18,-0.04,0.18,-0.09,1.0,hello
973.0,4095.0,914.0,2978.0,4095.0,4095.0,4095.0,3739.0,4.64,9.25,0.43,-0.03,0.02,-0.11,1.0,hello
929.0,4095.0,909.0,2938.0,4095.0,4095.0,4095.0,3731.0,4.35,9.04,0.74,0.02,0.15,-0.12,1.0,hello
910.0,4095.0,909.0,2946.0,4095.0,4095.0,4095.0,3683.0,4.54,9.28,-0.22,0.01,0.02,-0.14,1.0,hello
925.0,4095.0,912.0,2943.0,4095.0,4095.0,4095.0,3919.0,4.12,9.36,0.03,-0.2,-0.15,-0.05,1.0,hello
912.0,4095.0,921.0,2949.0,4095.0,4095.0,4095.0,4029.0,4.37,9.06,0.91,-0.1,0.03,-0.09,1.0,hello
916.0,4095.0,911.0,2949.0,4095.0,4095.0,4095.0,4052.0,4.52,9.13,0.19,-0.04,0.0,-0.07,1.0,hello
930.0,4095.0,931.0,2937.0,4095.0,4095.0,4095.0,4051.0,4.44,9.13,0.54,-0.14,0.02,-0.1,1.0,hello
946.0,4095.0,941.0,2942.0,4095.0,4095.0,4095.0,4017.0,4.46,8.97,0.68,-0.09,0.1,-0.04,1.0,hello
944.0,4095.0,933.0,2951.0,4095.0,4095.0,4095.0,4017.0,3.71,9.21,0.56,-0.08,-0.01,0.07,1.0,hello
955.0,4095.0,941.0,2879.0,4095.0,4095.0,4095.0,3999.0,4.56,8.98,0.8,0.02,0.07,0.03,1.0,hello
951.0,4095.0,932.0,2874.0,4095.0,4095.0,4095.0,4015.0,4.28,9.21,0.04,0.05,0.08,-0.09,1.0,hello
961.0,4095.0,932.0,2888.0,4095.0,4095.0,4095.0,4029.0,4.44,9.2,0.11,-0.07,0.05,-0.07,1.0,hello
895.0,2688.0,903.0,2722.0,4095.0,4095.0,4095.0,3497.0,7.54,6.45,-2.23,-0.05,-0.07,-0.05,1.0,hello
908.0,2736.0,903.0,2751.0,4095.0,4095.0,4095.0,3650.0,7.54,6.45,-2.69,0.04,-0.1,-0.11,1.0,hello
914.0,2896.0,901.0,2768.0,4095.0,4095.0,4095.0,3715.0,7.05,6.53,-2.01,-0.04,-0.08,-0.06,1.0,hello
