hall_1_L,hall_2_L,hall_3_L,flex_t_L,flex_i_L,flex_m_L,flex_r_L,flex_p_L,accel_x_L,accel_y_L,accel_z_L,gyro_x_L,gyro_y_L,gyro_z_L,hand,hall_1_R,hall_2_R,hall_3_R,flex_t_R,flex_i_R,flex_m_R,flex_r_R,flex_p_R,accel_x_R,accel_y_R,accel_z_R,gyro_x_R,gyro_y_R,gyro_z_R,hand,sign
4095.0,1094.0,4095.0,4095.0,3667.0,3501.0,4095.0,4095.0,5.56,0.43,-4.05,0.01,0.01,-0.13,0.0,3615.0,3728.0,3281.0,4095.0,3614.0,2891.0,3109.0,3195.0,-8.75,-0.09,3.7,-0.05,0.03,-0.06,1.0,help
4095.0,1098.0,4095.0,4095.0,3667.0,3499.0,4095.0,4095.0,5.45,0.44,-4.11,0.02,-0.02,-0.14,0.0,3614.0,3729.0,3282.0,4095.0,3613.0,2885.0,3102.0,3189.0,-8.68,-0.12,3.83,-0.07,-0.01,-0.05,1.0,help
4095.0,1083.0,4095.0,4095.0,3671.0,3504.0,4095.0,4095.0,5.33,0.37,-4.0,0.04,-0.03,-0.13,0.0,3617.0,3713.0,3279.0,4095.0,3614.0,2892.0,3109.0,3194.0,-8.59,-0.11,3.6,-0.07,0.01,-0.06,1.0,help
4095.0,1091.0,4095.0,4095.0,3668.0,3500.0,4095.0,4095.0,6.52,0.7,-5.75,0.18,-0.04,-0.11,0.0,3611.0,3729.0,3271.0,4095.0,3602.0,2882.0,3103.0,3192.0,-10.28,-0.07,4.58,-0.2,-0.04,-0.19,1.0,help
4095.0,1120.0,4095.0,4095.0,3622.0,3432.0,4095.0,4095.0,9.39,2.56,-10.22,-0.81,-0.0,-0.86,0.0,3601.0,3728.0,3287.0,4095.0,3601.0,2880.0,3104.0,3189.0,-17.07,-0.96,6.15,0.13,-0.27,0.61,1.0,help
4095.0,1121.0,4095.0,4095.0,3569.0,3422.0,4095.0,3839.0,5.29,0.74,-5.26,-1.41,0.39,-1.3,0.0,3602.0,3734.0,3280.0,4095.0,3600.0,2879.0,3106.0,3189.0,-9.64,0.1,4.22,0.43,-0.61,1.23,1.0,help
4095.0,1121.0,4095.0,4095.0,3559.0,3440.0,4095.0,3863.0,2.53,0.96,0.07,-0.75,0.24,-0.83,0.0,3622.0,3753.0,3280.0,4095.0,3583.0,2863.0,3106.0,3190.0,-3.38,1.35,2.25,0.25,-0.82,0.78,1.0,help
4095.0,1096.0,4095.0,4095.0,3562.0,3455.0,4095.0,3839.0,3.29,2.39,1.09,-0.16,0.01,-0.31,0.0,3632.0,3780.0,3295.0,3919.0,3583.0,2855.0,3104.0,3179.0,-2.94,1.93,2.76,0.07,0.02,0.34,1.0,help
4077.0,1079.0,3840.0,4095.0,3568.0,3451.0,4095.0,3822.0,5.04,4.04,-2.52,0.39,0.14,0.01,0.0,3622.0,3778.0,3277.0,4095.0,3579.0,2860.0,3102.0,3182.0,-6.45,3.7,5.2,0.18,0.18,-0.19,1.0,help
4090.0,1072.0,3839.0,4095.0,3580.0,3445.0,4095.0,3841.0,5.97,4.24,-3.23,0.09,0.01,-0.05,0.0,3625.0,3781.0,3285.0,4095.0,3583.0,2869.0,3103.0,3186.0,-8.41,3.04,4.74,-0.07,0.09,-0.04,1.0,help
4095.0,1072.0,3857.0,4095.0,3583.0,3466.0,4095.0,3904.0,6.02,4.12,-3.37,0.06,0.02,-0.13,0.0,3627.0,3783.0,3270.0,4095.0,3583.0,2864.0,3117.0,3184.0,-7.87,2.85,5.18,-0.1,0.02,-0.07,1.0,help
4093.0,1079.0,3911.0,4095.0,3583.0,3449.0,4095.0,3912.0,5.71,3.99,-2.99,0.0,0.04,-0.12,0.0,3610.0,3760.0,3280.0,4095.0,3578.0,2859.0,3117.0,3189.0,-7.97,2.98,4.78,-0.05,-0.02,-0.02,1.0,help
4095.0,1073.0,3927.0,4095.0,3607.0,3463.0,4095.0,3927.0,5.8,4.03,-3.05,-0.02,0.05,-0.12,0.0,3621.0,3757.0,3270.0,4095.0,3580.0,2864.0,3108.0,3189.0,-7.93,3.0,4.85,-0.06,0.06,-0.04,1.0,help
4093.0,1074.0,3919.0,4095.0,3583.0,3459.0,4095.0,3927.0,5.71,4.09,-2.97,-0.02,0.02,-0.15,0.0,3615.0,3777.0,3280.0,4095.0,3581.0,2864.0,3114.0,3184.0,-7.81,3.06,4.92,-0.05,-0.04,-0.01,1.0,help
4087.0,1082.0,3952.0,4095.0,3597.0,3466.0,4095.0,3935.0,5.76,3.98,-2.91,0.02,0.03,-0.14,0.0,3615.0,3760.0,3283.0,4095.0,3573.0,2866.0,3105.0,3186.0,-7.78,2.96,4.83,-0.06,0.02,-0.05,1.0,help
4095.0,1087.0,4011.0,4095.0,3599.0,3459.0,4095.0,3931.0,5.87,4.11,-3.01,0.04,-0.01,-0.15,0.0,3628.0,3767.0,3282.0,4095.0,3582.0,2871.0,3101.0,3185.0,-7.89,3.01,4.86,-0.06,-0.01,-0.05,1.0,help
4080.0,1070.0,4028.0,4095.0,3607.0,3458.0,4095.0,3928.0,5.73,4.01,-2.95,0.01,0.0,-0.15,0.0,3611.0,3769.0,3280.0,4095.0,3583.0,2868.0,3105.0,3187.0,-7.83,3.04,4.79,-0.07,-0.01,-0.04,1.0,help
4095.0,1089.0,4095.0,4095.0,3597.0,3459.0,4095.0,3917.0,5.82,4.08,-2.99,-0.0,-0.02,-0.15,0.0,3614.0,3773.0,3275.0,4095.0,3597.0,2866.0,3105.0,3199.0,-7.95,2.96,4.77,-0.08,0.01,-0.04,1.0,help
4083.0,1073.0,4095.0,4095.0,3606.0,3463.0,4095.0,3916.0,5.63,4.08,-2.91,0.01,0.0,-0.17,0.0,3617.0,3771.0,3283.0,4095.0,3601.0,2875.0,3112.0,3195.0,-7.77,2.97,4.88,-0.07,0.01,-0.03,1.0,help
4091.0,1072.0,4095.0,4095.0,3600.0,3463.0,4095.0,3920.0,5.84,4.11,-2.99,0.0,0.0,-0.16,0.0,3630.0,3779.0,3270.0,4095.0,3599.0,2869.0,3106.0,3193.0,-7.93,2.9,4.88,-0.07,-0.03,-0.03,1.0,help
3677.0,3539.0,2773.0,4095.0,3341.0,3363.0,4095.0,3466.0,5.26,-0.02,-4.26,-0.01,0.02,-0.14,0.0,3751.0,3950.0,3217.0,4095.0,3454.0,2789.0,3063.0,3118.0,-8.9,-0.14,3.24,-0.06,0.02,0.01,1.0,help
3681.0,3552.0,3025.0,4095.0,3332.0,3355.0,4095.0,3486.0,5.4,-0.07,-4.21,0.01,-0.0,-0.12,0.0,3729.0,3920.0,3244.0,4095.0,3434.0,2786.0,3062.0,3109.0,-9.03,-0.11,3.05,-0.04,0.02,-0.05,1.0,help
3681.0,3572.0,3357.0,4095.0,3349.0,3356.0,4095.0,3486.0,5.48,-0.06,-4.21,0.19,-0.0,-0.11,0.0,3743.0,3913.0,3223.0,4095.0,3437.0,2799.0,3066.0,3119.0,-8.7,0.16,3.27,-0.07,0.1,-0.14,1.0,help
3497.0,3532.0,4095.0,4095.0,3309.0,3322.0,4095.0,3451.0,11.23,2.22,-11.98,-0.11,0.06,-0.4,0.0,3739.0,3935.0,3228.0,4095.0,3418.0,2794.0,3057.0,3104.0,-18.42,-0.06,7.57,-0.06,0.28,0.06,1.0,help
3527.0,3624.0,4095.0,4095.0,3290.0,3339.0,3991.0,3479.0,7.07,0.12,-7.41,-1.79,0.73,-1.47,0.0,3792.0,3938.0,3243.0,4095.0,3417.0,2801.0,3066.0,3105.0,-11.76,-0.23,4.32,0.46,-1.39,1.48,1.0,help
3519.0,3280.0,4095.0,4095.0,3269.0,3342.0,3875.0,3525.0,1.71,-0.44,1.34,-1.67,0.43,-1.24,0.0,3821.0,3927.0,3222.0,4095.0,3519.0,2794.0,3056.0,3109.0,-1.79,-0.34,0.43,0.09,-0.72,1.16,1.0,help
3469.0,2928.0,4095.0,4095.0,3335.0,3340.0,3870.0,3532.0,2.89,2.25,0.85,0.06,0.05,-0.31,0.0,3828.0,3931.0,3223.0,4095.0,3536.0,2799.0,3056.0,3119.0,-2.44,2.22,3.72,0.2,-0.12,0.21,1.0,help
3409.0,2765.0,4065.0,4095.0,3344.0,3334.0,3891.0,3488.0,5.59,4.06,-2.5,0.39,-0.11,-0.1,0.0,3824.0,3963.0,3235.0,4095.0,3536.0,2800.0,3057.0,3099.0,-7.58,3.06,4.46,-0.07,0.23,-0.13,1.0,help
3431.0,2826.0,4080.0,4095.0,3344.0,3328.0,3888.0,3487.0,5.96,4.56,-3.09,0.18,-0.09,-0.14,0.0,3826.0,3935.0,3222.0,4095.0,3540.0,2806.0,3056.0,3107.0,-8.31,3.32,5.05,-0.11,0.02,-0.1,1.0,help
3434.0,2831.0,4065.0,4095.0,3370.0,3328.0,3911.0,3478.0,5.85,4.24,-2.86,0.04,-0.05,-0.15,0.0,3842.0,3959.0,3225.0,4095.0,3554.0,2813.0,3069.0,3119.0,-7.91,3.17,4.78,-0.12,-0.01,-0.03,1.0,help
3438.0,2874.0,4092.0,4095.0,3371.0,3332.0,3927.0,3505.0,5.78,4.26,-2.98,0.06,0.01,-0.14,0.0,3846.0,3941.0,3243.0,4095.0,3562.0,2811.0,3059.0,3124.0,-8.06,3.17,4.82,-0.09,0.02,-0.09,1.0,help
3420.0,2962.0,4073.0,4095.0,3375.0,3337.0,3957.0,3526.0,5.79,4.12,-2.97,-0.01,0.04,-0.16,0.0,3873.0,3933.0,3235.0,4095.0,3554.0,2813.0,3057.0,3125.0,-7.8,3.03,4.92,-0.06,0.04,-0.04,1.0,help
3423.0,2965.0,4048.0,4095.0,3378.0,3341.0,3957.0,3525.0,5.88,4.26,-2.86,-0.04,0.03,-0.15,0.0,3886.0,3959.0,3227.0,4095.0,3550.0,2821.0,3063.0,3128.0,-7.84,3.14,4.79,-0.09,-0.02,-0.02,1.0,help
3417.0,2966.0,3930.0,4095.0,3378.0,3338.0,3961.0,3520.0,5.69,4.23,-2.72,-0.01,-0.0,-0.16,0.0,3866.0,3952.0,3219.0,4095.0,3551.0,2822.0,3070.0,3137.0,-7.67,3.11,4.79,-0.12,-0.04,-0.04,1.0,help
3438.0,3082.0,3969.0,4095.0,3390.0,3341.0,3984.0,3526.0,5.6,4.31,-2.84,0.02,0.02,-0.17,0.0,3867.0,3939.0,3228.0,4095.0,3564.0,2825.0,3069.0,3145.0,-7.83,3.15,4.89,-0.1,0.03,-0.03,1.0,help
3435.0,3138.0,3979.0,4095.0,3385.0,3343.0,3999.0,3536.0,5.7,4.28,-2.74,0.03,0.01,-0.15,0.0,3883.0,3933.0,3216.0,4095.0,3563.0,2825.0,3063.0,3139.0,-7.72,3.12,4.86,-0.11,0.02,-0.04,1.0,help
3443.0,3122.0,3962.0,4095.0,3389.0,3345.0,3998.0,3536.0,5.85,4.27,-2.88,0.01,-0.02,-0.16,0.0,3888.0,3929.0,3242.0,4095.0,3568.0,2827.0,3060.0,3146.0,-7.75,3.06,4.97,-0.09,-0.02,-0.03,1.0,help
3454.0,3127.0,3965.0,4095.0,3395.0,3343.0,3994.0,3536.0,5.84,4.25,-2.82,0.0,0.0,-0.14,0.0,3878.0,3907.0,3239.0,4095.0,3560.0,2829.0,3067.0,3153.0,-7.82,3.07,4.87,-0.07,0.01,-0.05,1.0,help
3451.0,3122.0,3954.0,4095.0,3392.0,3344.0,4011.0,3536.0,5.83,4.27,-2.91,0.01,0.02,-0.16,0.0,3882.0,3935.0,3233.0,4095.0,3562.0,2826.0,3061.0,3145.0,-7.91,3.07,4.92,-0.08,0.01,-0.03,1.0,help
3451.0,3133.0,3984.0,4095.0,3407.0,3349.0,3997.0,3539.0,5.85,4.26,-2.86,0.02,0.01,-0.15,0.0,3899.0,3927.0,3221.0,4095.0,3552.0,2827.0,3054.0,3139.0,-7.81,3.07,4.9,-0.07,0.02,-0.03,1.0,help
1938.0,4095.0,2559.0,3885.0,3382.0,3312.0,4095.0,3311.0,5.8,0.31,-4.06,0.03,-0.0,-0.11,0.0,3482.0,4068.0,4095.0,4095.0,3568.0,2863.0,3114.0,3206.0,-8.87,0.43,3.6,-0.05,0.04,-0.08,1.0,help
1941.0,4095.0,2587.0,3895.0,3376.0,3321.0,4095.0,3319.0,5.64,0.34,-3.92,0.01,-0.01,-0.11,0.0,3470.0,4054.0,4095.0,4095.0,3561.0,2862.0,3113.0,3199.0,-8.79,0.47,3.53,-0.05,0.02,-0.08,1.0,help
1968.0,4095.0,2585.0,3889.0,3383.0,3317.0,4095.0,3311.0,5.69,0.37,-4.05,0.05,-0.07,-0.1,0.0,3487.0,4095.0,4095.0,4095.0,3574.0,2864.0,3109.0,3195.0,-8.84,0.57,3.64,-0.06,0.03,-0.14,1.0,help
1843.0,4023.0,2984.0,3904.0,3310.0,3309.0,4063.0,3351.0,9.95,3.48,-9.65,0.14,-0.39,-0.27,0.0,3470.0,4077.0,4095.0,4095.0,3559.0,2882.0,3094.0,3189.0,-14.89,1.44,7.6,0.02,-0.11,-0.06,1.0,help
1705.0,3841.0,4095.0,3985.0,3263.0,3229.0,3987.0,3317.0,8.3,1.27,-8.23,-1.73,0.7,-1.52,0.0,3577.0,4080.0,4095.0,4095.0,3573.0,2864.0,3139.0,3193.0,-13.32,0.86,5.33,0.52,-1.21,1.42,1.0,help
2015.0,4049.0,4095.0,4095.0,3303.0,3231.0,3951.0,3511.0,2.52,-0.38,0.42,-1.8,0.81,-1.03,0.0,3552.0,4095.0,4095.0,4095.0,3581.0,2862.0,3106.0,3200.0,-3.82,-0.07,0.39,0.28,-1.22,1.44,1.0,help
2322.0,4059.0,4095.0,4095.0,3321.0,3263.0,3823.0,3463.0,2.86,1.92,1.59,-0.19,0.14,-0.36,0.0,3567.0,4092.0,4095.0,4095.0,3599.0,2866.0,3111.0,3199.0,-1.42,2.7,3.31,0.3,-0.21,0.4,1.0,help
2291.0,4035.0,4095.0,4095.0,3334.0,3261.0,3879.0,3459.0,5.79,3.94,-1.86,0.34,-0.15,-0.14,0.0,3578.0,4090.0,4095.0,4095.0,3575.0,2861.0,3104.0,3188.0,-6.38,3.89,4.92,0.01,0.07,-0.12,1.0,help
2222.0,4012.0,4095.0,4095.0,3336.0,3248.0,3865.0,3466.0,6.07,4.46,-2.9,0.18,-0.07,-0.1,0.0,3583.0,4095.0,4095.0,4095.0,3599.0,2859.0,3117.0,3199.0,-7.68,4.03,5.37,-0.1,0.1,-0.15,1.0,help
2223.0,3994.0,4095.0,4095.0,3341.0,3267.0,3881.0,3482.0,5.97,4.41,-2.7,0.06,-0.06,-0.14,0.0,3577.0,4095.0,4095.0,4095.0,3607.0,2879.0,3114.0,3200.0,-7.08,3.84,5.44,-0.09,-0.02,-0.09,1.0,help
2212.0,3984.0,4095.0,4095.0,3344.0,3255.0,3890.0,3490.0,5.91,4.39,-2.76,0.01,0.02,-0.17,0.0,3568.0,4095.0,4095.0,4095.0,3603.0,2874.0,3099.0,3191.0,-7.38,3.78,5.41,-0.07,0.04,-0.06,1.0,help
2175.0,4012.0,4095.0,4095.0,3343.0,3262.0,3898.0,3494.0,5.78,4.26,-2.85,0.04,0.01,-0.16,0.0,3578.0,4095.0,4095.0,4095.0,3583.0,2868.0,3103.0,3199.0,-7.22,3.71,5.51,-0.09,-0.0,-0.07,1.0,help
2135.0,3973.0,4095.0,4095.0,3344.0,3263.0,3911.0,3501.0,5.77,4.27,-2.77,0.02,-0.02,-0.17,0.0,3579.0,4080.0,4091.0,4095.0,3598.0,2866.0,3114.0,3205.0,-7.18,3.7,5.34,-0.07,0.04,-0.03,1.0,help
2096.0,3988.0,4095.0,4095.0,3345.0,3266.0,3920.0,3501.0,5.71,4.25,-2.72,0.02,-0.01,-0.14,0.0,3583.0,4095.0,4094.0,4095.0,3600.0,2870.0,3108.0,3205.0,-7.07,3.65,5.48,-0.07,-0.02,-0.05,1.0,help
2075.0,3984.0,4095.0,4095.0,3344.0,3260.0,3922.0,3503.0,5.92,4.28,-2.78,0.06,-0.02,-0.15,0.0,3577.0,4076.0,4090.0,4095.0,3601.0,2880.0,3119.0,3216.0,-7.32,3.7,5.46,-0.08,0.01,-0.06,1.0,help
2065.0,3990.0,4095.0,4095.0,3347.0,3267.0,3922.0,3506.0,5.98,4.28,-2.91,0.04,-0.03,-0.15,0.0,3575.0,4095.0,4095.0,4095.0,3583.0,2877.0,3102.0,3194.0,-7.33,3.57,5.4,-0.07,-0.0,-0.05,1.0,help
2009.0,4007.0,4095.0,4095.0,3353.0,3271.0,3922.0,3504.0,5.81,4.25,-2.8,0.02,0.0,-0.15,0.0,3583.0,4094.0,4095.0,4095.0,3613.0,2877.0,3111.0,3204.0,-7.28,3.6,5.37,-0.07,0.01,-0.03,1.0,help
2005.0,3991.0,4095.0,4095.0,3350.0,3269.0,3931.0,3504.0,5.76,4.3,-2.88,0.01,0.01,-0.15,0.0,3578.0,4070.0,4095.0,4095.0,3610.0,2879.0,3109.0,3201.0,-7.38,3.54,5.39,-0.07,0.0,-0.02,1.0,help
2019.0,3987.0,4095.0,4095.0,3346.0,3272.0,3937.0,3501.0,5.66,4.19,-2.67,0.01,0.04,-0.15,0.0,3566.0,4095.0,4095.0,4095.0,3608.0,2885.0,3117.0,3205.0,-7.17,3.56,5.37,-0.06,0.02,-0.03,1.0,help
2026.0,4001.0,4095.0,4095.0,3347.0,3270.0,3943.0,3508.0,5.77,4.29,-2.79,0.02,-0.01,-0.14,0.0,3565.0,4080.0,4095.0,4095.0,3611.0,2882.0,3119.0,3213.0,-7.21,3.62,5.45,-0.05,0.01,-0.05,1.0,help
2256.0,4095.0,1007.0,4095.0,3411.0,3298.0,4060.0,3241.0,5.09,-0.57,-4.31,-0.02,0.02,-0.15,0.0,3455.0,3135.0,2979.0,4095.0,3636.0,2891.0,3151.0,3264.0,-8.77,-0.08,3.31,-0.07,-0.03,-0.04,1.0,help
2220.0,4095.0,996.0,4095.0,3409.0,3298.0,4059.0,3248.0,5.41,-0.73,-4.73,0.19,-0.03,-0.17,0.0,3453.0,3117.0,2889.0,4095.0,3618.0,2897.0,3150.0,3249.0,-18.5,-1.19,5.76,-0.16,0.56,0.05,1.0,help
2194.0,4095.0,3893.0,4095.0,3403.0,3303.0,3911.0,2926.0,3.47,-0.92,-4.41,0.33,-1.02,-1.16,0.0,3459.0,3087.0,2722.0,4095.0,3637.0,2900.0,3152.0,3248.0,-8.9,-0.34,2.12,-0.44,-0.87,0.47,1.0,help
2458.0,3542.0,3535.0,4095.0,3365.0,3302.0,3749.0,2926.0,3.39,0.28,-0.77,-0.65,0.21,-0.6,0.0,3460.0,3104.0,2761.0,4095.0,3664.0,2917.0,3155.0,3261.0,-4.03,0.54,2.83,-0.12,-0.09,0.42,1.0,help
2608.0,3181.0,3474.0,4095.0,3381.0,3312.0,3736.0,2882.0,3.24,0.07,-1.71,-0.3,0.2,-0.37,0.0,3452.0,3093.0,2729.0,4095.0,3663.0,2896.0,3163.0,3275.0,-5.21,-0.01,2.38,0.06,0.17,0.34,1.0,help
2958.0,2622.0,3424.0,4095.0,3399.0,3311.0,3725.0,2786.0,4.21,1.11,-3.43,0.12,0.11,-0.1,0.0,3455.0,3104.0,2733.0,4095.0,3668.0,2905.0,3164.0,3261.0,-6.79,1.42,3.74,0.07,-0.0,0.04,1.0,help
2970.0,2640.0,3445.0,4095.0,3408.0,3315.0,3775.0,2992.0,5.17,1.27,-4.68,-0.11,0.11,-0.09,0.0,3446.0,3121.0,2726.0,4095.0,3680.0,2913.0,3167.0,3273.0,-8.93,1.24,4.03,-0.01,0.06,-0.05,1.0,help
2994.0,2646.0,3459.0,4095.0,3428.0,3315.0,3779.0,3005.0,5.24,1.26,-4.48,-0.19,0.06,-0.18,0.0,3458.0,3121.0,2707.0,4095.0,3682.0,2915.0,3162.0,3273.0,-8.62,1.11,4.0,0.07,-0.05,0.0,1.0,help
2960.0,2774.0,3505.0,4095.0,3410.0,3312.0,3778.0,3023.0,4.92,1.22,-4.44,-0.13,0.14,-0.12,0.0,3470.0,3120.0,2709.0,4095.0,3675.0,2910.0,3168.0,3280.0,-8.59,1.08,3.73,0.01,-0.06,-0.05,1.0,help
2973.0,2785.0,3521.0,4095.0,3414.0,3318.0,3776.0,3036.0,5.06,1.51,-4.18,-0.08,-0.01,-0.14,0.0,3451.0,3120.0,2717.0,4095.0,3689.0,2912.0,3177.0,3279.0,-8.73,1.27,3.83,-0.01,-0.04,-0.03,1.0,help
2960.0,2797.0,3568.0,4095.0,3421.0,3314.0,3763.0,3049.0,5.09,1.55,-4.42,-0.09,0.02,-0.19,0.0,3456.0,3102.0,2708.0,4095.0,3682.0,2919.0,3166.0,3280.0,-8.91,1.2,3.8,-0.06,-0.06,-0.08,1.0,help
2960.0,2837.0,3639.0,4095.0,3420.0,3313.0,3779.0,3061.0,5.01,1.56,-4.29,-0.06,0.03,-0.18,0.0,3472.0,3122.0,2701.0,4095.0,3685.0,2921.0,3162.0,3280.0,-8.77,1.3,3.75,-0.07,0.06,-0.02,1.0,help
2950.0,2851.0,3649.0,4095.0,3427.0,3317.0,3776.0,3071.0,5.24,1.69,-4.35,0.0,-0.02,-0.18,0.0,3456.0,3120.0,2701.0,4095.0,3674.0,2911.0,3170.0,3291.0,-8.68,1.34,3.91,-0.03,-0.02,-0.01,1.0,help
2927.0,2849.0,3653.0,4095.0,3437.0,3309.0,3786.0,3083.0,5.09,1.64,-4.35,-0.01,0.04,-0.23,0.0,3473.0,3114.0,2703.0,4095.0,3676.0,2915.0,3170.0,3275.0,-8.69,1.25,3.87,-0.09,-0.05,0.01,1.0,help
2940.0,2895.0,3650.0,4095.0,3428.0,3315.0,3801.0,3083.0,5.15,1.75,-4.2,-0.02,0.05,-0.17,0.0,3446.0,3120.0,2704.0,4095.0,3694.0,2924.0,3175.0,3279.0,-8.64,1.31,3.86,-0.08,0.03,-0.02,1.0,help
3007.0,2986.0,3647.0,4095.0,3434.0,3315.0,3778.0,3088.0,5.07,1.7,-4.3,-0.02,0.0,-0.2,0.0,3472.0,3123.0,2704.0,4095.0,3677.0,2912.0,3168.0,3275.0,-8.71,1.36,3.85,-0.12,-0.01,-0.02,1.0,help
3011.0,2986.0,3645.0,4095.0,3430.0,3315.0,3818.0,3088.0,5.01,1.74,-4.25,0.02,0.0,-0.17,0.0,3467.0,3105.0,2703.0,4095.0,3687.0,2910.0,3170.0,3279.0,-8.54,1.38,3.89,-0.07,-0.0,-0.02,1.0,help
3025.0,2977.0,3653.0,4095.0,3439.0,3322.0,3808.0,3095.0,5.23,1.86,-4.16,-0.0,0.03,-0.16,0.0,3457.0,3132.0,2701.0,4095.0,3693.0,2908.0,3165.0,3279.0,-8.63,1.37,3.89,-0.06,-0.0,-0.03,1.0,help
3054.0,2986.0,3664.0,4095.0,3440.0,3317.0,3803.0,3093.0,4.98,1.9,-4.08,-0.07,-0.02,-0.15,0.0,3459.0,3125.0,2702.0,4095.0,3697.0,2917.0,3159.0,3275.0,-8.6,1.45,3.79,-0.06,-0.05,-0.02,1.0,help
3089.0,2977.0,3652.0,4095.0,3438.0,3315.0,3814.0,3110.0,5.17,1.87,-4.2,0.02,0.01,-0.14,0.0,3447.0,3120.0,2705.0,4095.0,3693.0,2919.0,3171.0,3273.0,-8.78,1.38,3.75,-0.08,0.15,-0.05,1.0,help
2146.0,2025.0,2718.0,4095.0,3395.0,3306.0,3998.0,3345.0,4.6,-0.74,-4.54,-0.02,0.03,-0.16,0.0,4095.0,3546.0,4095.0,4095.0,3696.0,2902.0,3145.0,3230.0,-9.01,-0.82,2.8,-0.05,-0.02,-0.05,1.0,help
2109.0,2037.0,2769.0,4095.0,3398.0,3301.0,3984.0,3360.0,4.76,-0.92,-4.74,0.03,-0.01,-0.14,0.0,4095.0,3523.0,4095.0,4095.0,3727.0,2912.0,3139.0,3227.0,-9.05,-0.86,2.74,-0.08,0.05,-0.06,1.0,help
1841.0,2081.0,2877.0,4095.0,3401.0,3312.0,3987.0,3357.0,5.2,-0.24,-4.95,0.12,-0.06,-0.13,0.0,4095.0,3523.0,4095.0,4095.0,3724.0,2927.0,3149.0,3235.0,-9.35,-0.6,3.25,-0.02,-0.13,0.02,1.0,help
1234.0,2414.0,3006.0,4095.0,3351.0,3264.0,3830.0,3289.0,9.07,-0.21,-9.22,0.03,0.65,-0.71,0.0,4095.0,3559.0,4095.0,4095.0,3634.0,2911.0,3143.0,3238.0,-12.84,0.06,5.34,0.17,0.58,-0.23,1.0,help
1862.0,4079.0,2615.0,4095.0,3335.0,3255.0,3646.0,3167.0,6.47,-0.29,-7.14,0.48,-0.38,-1.21,0.0,4095.0,3545.0,4095.0,4095.0,3691.0,2915.0,3137.0,3195.0,-12.81,-1.19,2.17,0.16,0.16,0.62,1.0,help
944.0,3376.0,3211.0,4095.0,3392.0,3267.0,3648.0,3036.0,3.0,-1.03,-3.81,-0.44,-0.37,-1.15,0.0,4095.0,3537.0,4095.0,4095.0,3622.0,2922.0,3147.0,3190.0,-7.75,-0.21,1.26,-0.1,-0.65,0.84,1.0,help
959.0,3071.0,3129.0,4095.0,3435.0,3277.0,3696.0,2909.0,2.24,-0.94,-0.4,-0.94,0.14,-0.65,0.0,4095.0,3566.0,4095.0,4095.0,3664.0,2932.0,3147.0,3206.0,-4.54,-0.56,0.57,-0.02,-0.52,0.63,1.0,help
1104.0,3495.0,3071.0,4095.0,3450.0,3308.0,3697.0,3093.0,3.19,-0.09,-1.92,0.11,0.08,-0.15,0.0,4095.0,3567.0,4095.0,4095.0,3676.0,2925.0,3145.0,3220.0,-5.14,0.32,2.6,0.02,-0.16,0.1,1.0,help
1098.0,2889.0,3071.0,4095.0,3469.0,3327.0,3739.0,3067.0,4.37,0.97,-3.91,-0.05,0.12,0.04,0.0,4095.0,3616.0,4095.0,4095.0,3694.0,2933.0,3152.0,3221.0,-8.12,1.14,3.33,0.01,0.17,-0.09,1.0,help
1056.0,3225.0,3053.0,4095.0,3474.0,3325.0,3753.0,3063.0,5.14,1.35,-5.15,-0.01,0.08,-0.05,0.0,4095.0,3583.0,4095.0,4095.0,3705.0,2937.0,3152.0,3222.0,-9.51,1.41,3.73,-0.01,0.15,-0.07,1.0,help
1033.0,3303.0,3095.0,4095.0,3472.0,3327.0,3719.0,3113.0,5.16,1.24,-4.79,-0.12,0.04,-0.19,0.0,4095.0,3615.0,4095.0,4095.0,3700.0,2946.0,3152.0,3226.0,-9.43,1.33,3.27,-0.05,-0.07,0.03,1.0,help
1008.0,3322.0,3108.0,4095.0,3450.0,3327.0,3754.0,3120.0,4.97,1.42,-4.52,-0.15,0.07,-0.17,0.0,4095.0,3601.0,4095.0,4095.0,3711.0,2946.0,3153.0,3242.0,-8.99,1.4,3.39,-0.06,-0.01,0.0,1.0,help
1011.0,3344.0,3138.0,4095.0,3468.0,3332.0,3781.0,3155.0,4.68,1.46,-4.2,-0.08,0.0,-0.17,0.0,4095.0,3615.0,4095.0,4095.0,3697.0,2942.0,3154.0,3230.0,-8.65,1.55,3.31,-0.05,-0.07,-0.01,1.0,help
999.0,3252.0,3166.0,4095.0,3489.0,3321.0,3792.0,3161.0,4.73,1.57,-4.27,-0.05,-0.02,-0.14,0.0,4095.0,3583.0,4095.0,4095.0,3717.0,2946.0,3151.0,3216.0,-8.88,1.54,3.24,-0.08,-0.02,-0.07,1.0,help
1017.0,3286.0,3169.0,4095.0,3482.0,3338.0,3824.0,3184.0,4.96,1.62,-4.31,-0.04,0.03,-0.15,0.0,4095.0,3610.0,4095.0,4095.0,3696.0,2946.0,3162.0,3223.0,-8.72,1.58,3.44,-0.09,0.08,-0.04,1.0,help
1034.0,3287.0,3182.0,4095.0,3491.0,3327.0,3825.0,3184.0,4.92,1.61,-4.38,0.04,-0.0,-0.18,0.0,4095.0,3613.0,4095.0,4095.0,3712.0,2943.0,3145.0,3227.0,-8.71,1.44,3.39,-0.1,0.05,-0.05,1.0,help
1069.0,3291.0,3178.0,4095.0,3490.0,3330.0,3847.0,3182.0,5.01,1.61,-4.39,-0.03,0.05,-0.12,0.0,4095.0,3619.0,4095.0,4095.0,3696.0,2944.0,3154.0,3226.0,-8.83,1.5,3.37,-0.08,0.03,-0.05,1.0,help
1083.0,3285.0,3184.0,4095.0,3489.0,3328.0,3851.0,3197.0,5.11,1.58,-4.46,0.0,-0.02,-0.17,0.0,4095.0,3629.0,4095.0,4095.0,3696.0,2949.0,3152.0,3226.0,-8.96,1.51,3.35,-0.11,0.04,-0.05,1.0,help
1189.0,3131.0,3197.0,4095.0,3485.0,3329.0,3856.0,3198.0,4.92,1.57,-4.31,0.02,-0.01,-0.19,0.0,4095.0,3600.0,4095.0,4095.0,3707.0,2951.0,3161.0,3229.0,-8.81,1.35,3.35,-0.1,-0.01,-0.06,1.0,help
1334.0,2957.0,3216.0,4095.0,3486.0,3328.0,3874.0,3213.0,5.05,1.61,-4.3,-0.06,0.02,-0.14,0.0,4095.0,3583.0,4095.0,4095.0,3698.0,2948.0,3163.0,3231.0,-8.71,1.37,3.41,-0.04,0.1,-0.01,1.0,help
3301.0,1018.0,3371.0,4095.0,3351.0,3280.0,4095.0,3415.0,4.81,-0.37,-4.6,0.0,0.01,-0.15,0.0,3664.0,3487.0,1904.0,4095.0,3750.0,3023.0,3248.0,3398.0,-9.04,-0.25,3.2,-0.04,-0.03,0.0,1.0,help
3309.0,1007.0,3363.0,4095.0,3361.0,3280.0,4095.0,3405.0,4.71,-0.42,-4.51,0.02,-0.03,-0.15,0.0,3674.0,3485.0,1904.0,4095.0,3733.0,3011.0,3245.0,3395.0,-8.94,-0.18,3.08,-0.07,-0.03,-0.06,1.0,help
3319.0,1006.0,3344.0,4095.0,3356.0,3281.0,4095.0,3410.0,4.62,-0.31,-4.51,0.04,-0.05,-0.12,0.0,3666.0,3485.0,1907.0,4095.0,3745.0,3005.0,3223.0,3395.0,-8.88,-0.09,3.22,-0.03,-0.04,-0.07,1.0,help
3359.0,1015.0,3372.0,4095.0,3307.0,3262.0,4095.0,3377.0,8.25,1.72,-8.58,0.27,-0.33,-0.13,0.0,4095.0,3502.0,2059.0,4095.0,3728.0,2959.0,3211.0,3359.0,-13.46,1.45,5.92,0.29,0.01,-0.32,1.0,help
3246.0,1054.0,3915.0,4095.0,3319.0,3217.0,3981.0,3362.0,7.46,1.8,-8.07,-1.11,0.38,-1.02,0.0,4095.0,3577.0,2083.0,4078.0,3662.0,2895.0,3173.0,3287.0,-13.31,0.62,5.37,0.42,-0.26,0.73,1.0,help
3095.0,1091.0,4095.0,4095.0,3312.0,3216.0,3886.0,3318.0,3.1,-1.14,-3.43,-0.85,0.29,-0.97,0.0,4095.0,3638.0,2070.0,4095.0,3680.0,2896.0,3152.0,3279.0,-6.81,-0.59,2.15,0.19,-0.5,0.77,1.0,help
3011.0,1131.0,4095.0,4095.0,3333.0,3231.0,3782.0,3319.0,1.79,-0.13,-1.18,-0.25,0.28,-0.42,0.0,4095.0,3630.0,2076.0,4095.0,3678.0,2921.0,3175.0,3312.0,-5.49,0.37,1.48,0.09,-0.13,0.4,1.0,help
2858.0,1111.0,4095.0,4095.0,3344.0,3222.0,3764.0,3310.0,3.6,1.18,-2.3,0.16,-0.06,-0.36,0.0,4095.0,3631.0,2083.0,4095.0,3697.0,2923.0,3174.0,3323.0,-5.93,1.26,3.0,-0.04,0.02,0.07,1.0,help
2922.0,1106.0,3934.0,4095.0,3335.0,3229.0,3807.0,3313.0,4.74,1.97,-3.57,0.21,-0.12,-0.19,0.0,4095.0,3648.0,2086.0,4095.0,3696.0,2937.0,3189.0,3324.0,-7.9,1.9,3.65,-0.1,0.03,-0.12,1.0,help
2909.0,1093.0,3933.0,4095.0,3341.0,3232.0,3822.0,3323.0,5.05,2.14,-4.44,0.05,0.03,-0.17,0.0,4095.0,3643.0,2069.0,4095.0,3696.0,2947.0,3191.0,3328.0,-8.71,1.79,4.02,-0.08,0.12,-0.07,1.0,help
2768.0,1098.0,3936.0,4095.0,3343.0,3234.0,3835.0,3328.0,5.02,2.09,-4.58,-0.02,0.06,-0.15,0.0,4095.0,3642.0,2067.0,4095.0,3703.0,2943.0,3184.0,3325.0,-8.75,1.74,4.23,-0.08,0.01,-0.02,1.0,help
2757.0,1103.0,3934.0,4095.0,3338.0,3233.0,3839.0,3339.0,5.04,2.08,-4.25,-0.04,0.01,-0.17,0.0,4095.0,3648.0,2073.0,4095.0,3698.0,2950.0,3187.0,3338.0,-8.68,1.85,3.92,-0.07,-0.04,-0.02,1.0,help
2694.0,1105.0,3951.0,4095.0,3337.0,3231.0,3859.0,3346.0,5.01,2.15,-4.08,-0.01,0.04,-0.15,0.0,4095.0,3639.0,2060.0,4095.0,3711.0,2956.0,3191.0,3337.0,-8.38,1.81,3.99,-0.05,0.0,-0.01,1.0,help
2681.0,1099.0,3938.0,4095.0,3345.0,3240.0,3867.0,3346.0,5.09,2.09,-4.13,0.01,0.01,-0.14,0.0,4095.0,3647.0,2037.0,4095.0,3706.0,2961.0,3183.0,3347.0,-8.39,1.92,4.01,-0.05,0.03,-0.03,1.0,help
2667.0,1099.0,3920.0,4095.0,3343.0,3234.0,3874.0,3350.0,5.17,2.12,-4.14,0.03,-0.03,-0.13,0.0,4095.0,3655.0,2032.0,4095.0,3719.0,2967.0,3199.0,3333.0,-8.5,1.84,3.92,-0.06,-0.01,-0.07,1.0,help
2670.0,1119.0,3888.0,4095.0,3342.0,3230.0,3881.0,3355.0,5.07,2.09,-4.02,0.06,-0.03,-0.13,0.0,4095.0,3653.0,2032.0,4095.0,3723.0,2964.0,3184.0,3337.0,-8.54,1.92,3.76,-0.08,-0.01,-0.1,1.0,help
2683.0,1106.0,3869.0,4095.0,3344.0,3234.0,3888.0,3375.0,5.14,2.17,-4.23,0.04,-0.01,-0.13,0.0,4095.0,3659.0,2038.0,4095.0,3690.0,2960.0,3212.0,3343.0,-8.67,1.76,3.91,-0.08,0.07,-0.07,1.0,help
2704.0,1106.0,3883.0,4095.0,3342.0,3233.0,3888.0,3374.0,5.08,2.14,-4.36,0.05,-0.04,-0.16,0.0,4095.0,3646.0,2038.0,4095.0,3727.0,2975.0,3199.0,3337.0,-8.8,1.85,4.0,-0.11,0.04,-0.09,1.0,help
2649.0,1114.0,3856.0,4095.0,3344.0,3237.0,3890.0,3389.0,5.13,2.14,-4.24,0.0,-0.01,-0.16,0.0,4095.0,3641.0,2031.0,4095.0,3714.0,2970.0,3196.0,3348.0,-8.55,1.76,3.94,-0.07,-0.03,-0.04,1.0,help
2665.0,1101.0,3863.0,4095.0,3355.0,3228.0,3895.0,3373.0,5.02,2.06,-4.29,-0.0,0.02,-0.17,0.0,4095.0,3661.0,2031.0,4095.0,3728.0,2975.0,3203.0,3346.0,-8.73,1.64,3.85,-0.08,0.01,-0.02,1.0,help
3504.0,971.0,4095.0,4052.0,3266.0,3275.0,4014.0,3311.0,4.64,-0.39,-4.62,-0.02,0.04,-0.15,0.0,3475.0,3383.0,4095.0,4095.0,3710.0,2993.0,3183.0,3338.0,-8.85,-0.45,3.18,-0.04,-0.04,-0.03,1.0,help
3511.0,974.0,4095.0,4055.0,3264.0,3280.0,4007.0,3329.0,4.68,-0.31,-4.55,0.03,0.02,-0.14,0.0,3465.0,3375.0,4095.0,4095.0,3710.0,2987.0,3177.0,3331.0,-8.96,-0.44,3.08,-0.07,0.03,-0.05,1.0,help
3520.0,979.0,4090.0,4061.0,3277.0,3280.0,4016.0,3331.0,5.14,0.0,-5.14,0.18,-0.12,-0.12,0.0,3478.0,3383.0,4095.0,4095.0,3719.0,2987.0,3181.0,3328.0,-9.47,0.41,3.61,-0.11,0.06,-0.18,1.0,help
3247.0,1037.0,4095.0,4041.0,3267.0,3259.0,3876.0,3187.0,5.09,-0.31,-6.81,-0.77,0.51,-1.13,0.0,3520.0,3398.0,4095.0,4095.0,3680.0,2951.0,3195.0,3302.0,-12.2,-1.19,2.29,0.2,-0.94,0.97,1.0,help
3125.0,1017.0,3203.0,4095.0,3314.0,3267.0,3875.0,3239.0,3.07,-0.34,-1.88,-1.29,0.57,-0.85,0.0,3504.0,3398.0,4095.0,4095.0,3683.0,2945.0,3194.0,3280.0,-5.93,-0.46,1.8,0.12,-0.5,0.96,1.0,help
3137.0,1008.0,3434.0,4095.0,3275.0,3275.0,3854.0,3209.0,2.52,0.37,-0.09,-0.31,0.28,-0.42,0.0,3504.0,3437.0,4095.0,4095.0,3695.0,2962.0,3187.0,3270.0,-3.73,0.86,2.02,0.16,-0.43,0.37,1.0,help
3070.0,1023.0,4095.0,4095.0,3291.0,3285.0,3843.0,3201.0,4.89,1.92,-2.38,0.1,-0.08,-0.17,0.0,3511.0,3421.0,4095.0,4095.0,3737.0,2970.0,3184.0,3200.0,-7.03,1.41,3.05,-0.13,0.17,-0.04,1.0,help
3094.0,1039.0,4095.0,4095.0,3303.0,3280.0,3869.0,3200.0,5.64,2.65,-3.85,0.15,-0.04,-0.07,0.0,3517.0,3439.0,4095.0,4095.0,3714.0,2973.0,3187.0,3264.0,-8.29,1.83,4.26,-0.09,0.17,-0.14,1.0,help
3061.0,1018.0,4095.0,4095.0,3311.0,3279.0,3857.0,3242.0,5.66,2.62,-4.17,0.1,-0.04,-0.12,0.0,3503.0,3435.0,4095.0,4095.0,3741.0,2988.0,3191.0,3311.0,-8.82,1.9,4.13,-0.06,0.03,-0.1,1.0,help
3119.0,1023.0,4095.0,4095.0,3308.0,3280.0,3859.0,3248.0,5.49,2.59,-3.92,-0.01,-0.08,-0.12,0.0,3504.0,3450.0,4095.0,4095.0,3728.0,2981.0,3194.0,3312.0,-8.82,1.87,3.85,-0.07,0.03,-0.02,1.0,help
3013.0,1020.0,4095.0,4095.0,3309.0,3280.0,3876.0,3244.0,5.44,2.48,-3.96,-0.02,-0.01,-0.15,0.0,3511.0,3439.0,4095.0,4095.0,3753.0,2996.0,3187.0,3257.0,-8.6,1.86,3.94,-0.04,0.03,-0.03,1.0,help
2992.0,1035.0,4095.0,4095.0,3314.0,3285.0,3873.0,3262.0,5.44,2.42,-3.96,-0.02,0.02,-0.14,0.0,3517.0,3450.0,4095.0,4095.0,3745.0,2987.0,3195.0,3248.0,-8.5,1.83,3.95,-0.06,0.02,-0.01,1.0,help
2960.0,1035.0,4095.0,4095.0,3313.0,3279.0,3888.0,3270.0,5.42,2.49,-3.83,-0.03,0.01,-0.17,0.0,3514.0,3424.0,4095.0,4095.0,3715.0,2984.0,3193.0,3251.0,-8.16,1.65,3.74,-0.0,0.01,0.02,1.0,help
2886.0,1021.0,4095.0,4095.0,3313.0,3279.0,3882.0,3282.0,5.26,2.54,-3.81,0.02,0.02,-0.14,0.0,3514.0,3430.0,4095.0,4095.0,3743.0,2995.0,3207.0,3258.0,-8.57,1.92,3.82,-0.07,-0.01,-0.03,1.0,help
2815.0,1021.0,4095.0,4095.0,3311.0,3280.0,3881.0,3301.0,5.34,2.6,-3.88,0.03,0.01,-0.15,0.0,3511.0,3455.0,4095.0,4095.0,3733.0,2961.0,3197.0,3261.0,-8.82,2.04,3.88,-0.02,0.0,-0.11,1.0,help
2752.0,1020.0,4095.0,4095.0,3321.0,3281.0,3886.0,3307.0,5.33,2.64,-3.83,0.0,0.01,-0.16,0.0,3505.0,3435.0,4095.0,4095.0,3734.0,2990.0,3199.0,3289.0,-8.61,1.9,3.9,-0.08,0.02,-0.04,1.0,help
2677.0,1011.0,4095.0,4095.0,3324.0,3280.0,3903.0,3307.0,5.38,2.64,-3.9,-0.02,0.01,-0.18,0.0,3512.0,3435.0,4095.0,4095.0,3729.0,2991.0,3200.0,3278.0,-8.67,1.83,3.98,-0.07,0.03,-0.03,1.0,help
2656.0,1023.0,4095.0,4095.0,3328.0,3279.0,3906.0,3312.0,5.34,2.62,-3.79,-0.01,0.0,-0.16,0.0,3511.0,3443.0,4095.0,4095.0,3733.0,3005.0,3200.0,3242.0,-8.48,1.94,3.9,-0.06,0.0,-0.02,1.0,help
2624.0,1023.0,4095.0,4095.0,3329.0,3285.0,3904.0,3312.0,5.32,2.58,-3.74,0.0,0.02,-0.17,0.0,3490.0,3457.0,4095.0,4095.0,3737.0,3008.0,3202.0,3247.0,-8.54,1.97,3.81,-0.06,0.03,-0.03,1.0,help
2629.0,1009.0,4095.0,4095.0,3332.0,3282.0,3914.0,3314.0,5.51,2.68,-3.87,0.02,0.01,-0.15,0.0,3504.0,3455.0,4095.0,4095.0,3721.0,3004.0,3205.0,3274.0,-8.44,1.91,4.0,-0.07,0.02,-0.03,1.0,help
3395.0,1010.0,3434.0,3838.0,3303.0,3268.0,4095.0,3231.0,4.78,-0.55,-4.46,0.01,-0.0,-0.15,0.0,4095.0,3841.0,3088.0,4095.0,3750.0,2890.0,3144.0,3303.0,-8.93,-0.03,3.11,-0.06,0.0,-0.06,1.0,help
3377.0,1015.0,3436.0,3825.0,3294.0,3269.0,4095.0,3231.0,4.8,-0.5,-4.45,0.0,0.01,-0.15,0.0,4095.0,3839.0,3088.0,4095.0,3760.0,2897.0,3152.0,3303.0,-8.88,-0.06,3.11,-0.06,-0.0,-0.05,1.0,help
3387.0,1007.0,3486.0,3814.0,3290.0,3274.0,4095.0,3242.0,5.62,0.06,-5.49,0.21,-0.21,-0.08,0.0,4095.0,3869.0,3063.0,4095.0,3755.0,2899.0,3145.0,3312.0,-9.73,0.79,4.02,-0.17,0.03,-0.21,1.0,help
3344.0,1002.0,3563.0,3790.0,3302.0,3252.0,4016.0,3210.0,9.34,2.74,-11.2,-0.4,-0.12,-0.54,0.0,4095.0,3839.0,3071.0,4095.0,3774.0,2892.0,3142.0,3317.0,-15.74,1.17,7.53,-0.2,-0.26,0.45,1.0,help
3226.0,1018.0,3489.0,3820.0,3278.0,3264.0,3943.0,3070.0,5.44,-1.12,-6.01,-1.39,0.58,-1.21,0.0,4095.0,3856.0,3111.0,4095.0,3777.0,2911.0,3151.0,3319.0,-9.92,0.13,3.89,0.55,-0.64,1.29,1.0,help
3274.0,1014.0,3783.0,3903.0,3307.0,3263.0,3888.0,3102.0,2.65,-0.77,-0.57,-0.6,0.15,-1.0,0.0,4095.0,3845.0,3095.0,4095.0,3729.0,2923.0,3155.0,3323.0,-4.67,-0.4,0.48,-0.04,-0.49,0.6,1.0,help
3504.0,1042.0,3504.0,3917.0,3242.0,3279.0,3886.0,2928.0,3.0,0.4,-1.41,-0.0,0.09,-0.35,0.0,4095.0,3842.0,3091.0,4080.0,3748.0,2923.0,3152.0,3334.0,-5.1,0.9,2.45,-0.13,0.03,0.13,1.0,help
3539.0,1034.0,3376.0,3925.0,3293.0,3275.0,3852.0,2960.0,4.49,1.89,-2.79,0.29,-0.01,-0.14,0.0,4095.0,3859.0,3085.0,4095.0,3719.0,2923.0,3155.0,3344.0,-6.93,1.88,3.37,-0.17,0.05,-0.11,1.0,help
3583.0,1017.0,3259.0,3959.0,3310.0,3282.0,3853.0,2997.0,5.29,2.69,-4.25,-0.02,0.03,-0.18,0.0,4095.0,3861.0,3063.0,4095.0,3699.0,2929.0,3161.0,3344.0,-8.69,2.36,4.24,-0.08,0.11,-0.05,1.0,help
3581.0,1023.0,3266.0,3961.0,3312.0,3291.0,3878.0,3050.0,5.2,2.59,-4.16,-0.06,0.04,-0.19,0.0,4095.0,3888.0,3082.0,4095.0,3702.0,2935.0,3163.0,3343.0,-8.5,2.21,4.26,-0.09,0.05,0.0,1.0,help
3563.0,1005.0,3267.0,3973.0,3319.0,3292.0,3888.0,3065.0,5.13,2.6,-3.86,-0.06,0.03,-0.17,0.0,4095.0,3887.0,3063.0,4095.0,3728.0,2938.0,3153.0,3345.0,-8.24,2.3,4.13,-0.04,0.0,0.0,1.0,help
3581.0,1019.0,3266.0,3977.0,3319.0,3291.0,3899.0,3087.0,5.21,2.61,-4.03,-0.02,0.0,-0.16,0.0,4095.0,3891.0,3067.0,4095.0,3723.0,2939.0,3158.0,3348.0,-8.46,2.3,4.08,-0.05,0.01,-0.02,1.0,help
3567.0,1009.0,3265.0,3973.0,3323.0,3290.0,3902.0,3090.0,5.13,2.65,-3.97,-0.02,0.02,-0.15,0.0,4095.0,3883.0,3083.0,4095.0,3737.0,2943.0,3161.0,3344.0,-8.33,2.34,4.18,-0.04,0.0,-0.0,1.0,help
3572.0,1011.0,3269.0,3983.0,3323.0,3298.0,3899.0,3102.0,5.34,2.63,-3.95,-0.01,0.03,-0.16,0.0,4095.0,3894.0,3069.0,4095.0,3739.0,2942.0,3163.0,3354.0,-8.3,2.38,4.07,-0.04,0.02,-0.01,1.0,help
3597.0,1014.0,3263.0,3977.0,3324.0,3295.0,3892.0,3103.0,5.19,2.72,-3.86,0.0,0.01,-0.16,0.0,4095.0,3888.0,3063.0,4095.0,3763.0,2943.0,3184.0,3344.0,-8.36,2.33,4.04,-0.04,-0.04,-0.03,1.0,help
3583.0,1015.0,3279.0,3981.0,3325.0,3293.0,3902.0,3111.0,5.19,2.69,-3.89,0.03,0.01,-0.14,0.0,4095.0,3895.0,3069.0,4095.0,3772.0,2945.0,3161.0,3329.0,-8.41,2.35,3.95,-0.06,-0.0,-0.07,1.0,help
3583.0,1010.0,3280.0,3987.0,3327.0,3294.0,3901.0,3110.0,5.28,2.71,-3.9,0.05,-0.03,-0.13,0.0,4095.0,3902.0,3067.0,4095.0,3761.0,2950.0,3168.0,3343.0,-8.39,2.38,4.06,-0.05,-0.0,-0.06,1.0,help
3583.0,1011.0,3280.0,3991.0,3330.0,3287.0,3898.0,3125.0,5.18,2.71,-3.94,0.01,-0.01,-0.16,0.0,4095.0,3885.0,3066.0,4095.0,3766.0,2951.0,3165.0,3351.0,-8.49,2.4,4.02,-0.07,-0.01,-0.05,1.0,help
3583.0,1008.0,3269.0,3999.0,3328.0,3293.0,3905.0,3143.0,5.33,2.75,-3.9,0.01,-0.01,-0.16,0.0,4095.0,3877.0,3071.0,4095.0,3773.0,2949.0,3155.0,3341.0,-8.43,2.29,4.04,-0.07,0.01,-0.03,1.0,help
3598.0,1015.0,3321.0,3997.0,3328.0,3289.0,3885.0,3153.0,5.31,2.76,-3.84,0.02,0.02,-0.15,0.0,4095.0,3904.0,3066.0,4095.0,3761.0,2954.0,3167.0,3350.0,-8.38,2.27,4.1,-0.03,-0.06,-0.03,1.0,help
1328.0,970.0,939.0,4095.0,3020.0,3339.0,4095.0,3504.0,4.42,-0.59,-4.82,0.03,0.03,-0.16,0.0,3545.0,2773.0,4095.0,4095.0,3583.0,2933.0,3186.0,3219.0,-8.96,-0.88,3.11,-0.09,0.03,-0.04,1.0,help
1344.0,967.0,930.0,4095.0,3024.0,3333.0,4095.0,3503.0,4.32,-0.64,-4.69,0.05,-0.01,-0.14,0.0,3546.0,2775.0,4095.0,4095.0,3583.0,2929.0,3186.0,3214.0,-8.83,-0.89,3.02,-0.07,0.02,-0.07,1.0,help
1335.0,975.0,931.0,4095.0,2971.0,3330.0,4095.0,3504.0,4.26,-0.62,-4.54,0.12,-0.02,-0.09,0.0,3531.0,2775.0,4095.0,4095.0,3567.0,2940.0,3186.0,3235.0,-8.63,-0.8,2.91,-0.07,0.09,-0.14,1.0,help
1349.0,976.0,956.0,4095.0,2911.0,3305.0,4023.0,3409.0,8.12,2.61,-10.65,0.83,-0.3,0.06,0.0,3548.0,2799.0,4095.0,4095.0,3572.0,2929.0,3181.0,3202.0,-14.51,1.0,8.21,-0.34,-0.54,-0.19,1.0,help
1418.0,1008.0,1594.0,4086.0,3277.0,3243.0,3805.0,3307.0,7.19,-0.06,-8.52,-1.26,0.39,-1.5,0.0,3565.0,2785.0,4095.0,4095.0,3543.0,2935.0,3184.0,3195.0,-14.32,-1.28,4.22,0.48,-0.04,1.1,1.0,help
1258.0,1019.0,976.0,4095.0,3266.0,3248.0,3761.0,3232.0,2.65,-2.77,-2.13,-1.02,0.4,-0.96,0.0,3619.0,2807.0,4095.0,4095.0,3575.0,2920.0,3171.0,3209.0,-5.31,-1.47,1.31,0.38,-0.22,1.06,1.0,help
1813.0,979.0,1062.0,4095.0,3333.0,3250.0,3664.0,3185.0,2.65,-1.17,-1.24,-0.28,0.36,-0.5,0.0,3639.0,2823.0,4095.0,4095.0,3595.0,2915.0,3177.0,3211.0,-6.24,-0.28,0.51,0.0,0.02,0.47,1.0,help
2378.0,1002.0,1122.0,4095.0,3334.0,3251.0,3719.0,3160.0,3.14,0.83,-2.31,-0.08,0.08,-0.35,0.0,3662.0,2822.0,4095.0,4095.0,3600.0,2922.0,3175.0,3206.0,-6.43,1.45,2.83,-0.05,-0.14,0.13,1.0,help
2369.0,1003.0,1117.0,4095.0,3339.0,3246.0,3696.0,3173.0,4.36,1.83,-3.82,0.11,-0.1,-0.21,0.0,3644.0,2817.0,4095.0,4095.0,3583.0,2915.0,3178.0,3225.0,-8.17,1.6,3.58,-0.12,0.12,-0.04,1.0,help
2416.0,999.0,1107.0,4095.0,3353.0,3245.0,3710.0,3184.0,5.19,2.04,-4.46,0.08,-0.05,-0.18,0.0,3689.0,2831.0,4095.0,4095.0,3600.0,2919.0,3183.0,3221.0,-8.69,1.93,3.79,-0.08,0.0,-0.07,1.0,help
2292.0,989.0,1131.0,4095.0,3361.0,3248.0,3750.0,3216.0,4.91,1.82,-4.35,-0.01,-0.02,-0.15,0.0,3688.0,2831.0,4095.0,4095.0,3604.0,2927.0,3183.0,3229.0,-8.6,1.84,3.76,-0.06,-0.07,-0.04,1.0,help
2194.0,987.0,1111.0,4095.0,3362.0,3247.0,3776.0,3233.0,4.96,1.96,-4.46,0.05,0.03,-0.15,0.0,3691.0,2835.0,4095.0,4095.0,3600.0,2927.0,3171.0,3237.0,-8.63,1.67,3.9,-0.05,0.02,-0.02,1.0,help
2137.0,991.0,1107.0,4095.0,3366.0,3239.0,3766.0,3248.0,4.86,1.87,-4.34,0.04,0.06,-0.12,0.0,3681.0,2832.0,4095.0,4095.0,3608.0,2931.0,3182.0,3230.0,-8.6,1.81,3.77,-0.02,0.05,-0.04,1.0,help
1994.0,982.0,1658.0,4095.0,3374.0,3248.0,3795.0,3271.0,5.22,1.89,-4.44,-0.02,0.01,-0.08,0.0,3692.0,2831.0,4095.0,4095.0,3599.0,2935.0,3174.0,3232.0,-8.68,1.9,3.59,-0.03,0.03,-0.05,1.0,help
1830.0,977.0,2187.0,4095.0,3387.0,3223.0,3800.0,3277.0,5.1,1.71,-4.3,-0.0,-0.02,-0.12,0.0,3698.0,2837.0,4095.0,4095.0,3575.0,2929.0,3174.0,3248.0,-8.65,2.11,3.45,-0.05,-0.01,-0.06,1.0,help
1803.0,979.0,2221.0,4095.0,3379.0,3228.0,3810.0,3279.0,4.95,1.92,-4.36,-0.01,-0.01,-0.14,0.0,3697.0,2843.0,4095.0,4095.0,3581.0,2928.0,3184.0,3248.0,-8.9,1.82,3.5,-0.06,0.03,-0.03,1.0,help
1762.0,974.0,2224.0,4095.0,3376.0,3223.0,3813.0,3278.0,4.94,1.82,-4.4,-0.01,0.01,-0.13,0.0,3711.0,2832.0,4095.0,4095.0,3583.0,2929.0,3184.0,3243.0,-8.63,1.8,3.64,-0.03,0.05,-0.04,1.0,help
1648.0,969.0,2603.0,4095.0,3379.0,3213.0,3814.0,3275.0,4.85,1.79,-4.3,-0.0,0.05,-0.13,0.0,3708.0,2835.0,4095.0,4095.0,3583.0,2935.0,3184.0,3243.0,-8.51,2.02,3.65,-0.04,0.04,0.01,1.0,help
1570.0,975.0,2726.0,4095.0,3386.0,3218.0,3815.0,3274.0,4.92,1.86,-4.22,0.02,0.03,-0.1,0.0,3707.0,2822.0,4095.0,4095.0,3614.0,2929.0,3175.0,3236.0,-8.57,1.98,3.49,-0.0,-0.03,-0.02,1.0,help
1535.0,978.0,2736.0,4095.0,3383.0,3219.0,3813.0,3274.0,5.06,1.78,-4.25,0.01,0.03,-0.11,0.0,3696.0,2837.0,4095.0,4095.0,3600.0,2934.0,3193.0,3241.0,-8.95,1.94,3.12,-0.02,0.02,-0.03,1.0,help
3159.0,926.0,1217.0,3830.0,3257.0,3215.0,4045.0,3238.0,4.67,-0.3,-4.54,0.06,-0.0,-0.15,0.0,3753.0,3469.0,2428.0,4048.0,3664.0,2961.0,3183.0,3383.0,-8.95,-0.49,3.04,-0.05,0.02,-0.06,1.0,help
3157.0,938.0,1086.0,3834.0,3274.0,3219.0,4049.0,3237.0,4.6,-0.38,-4.35,0.07,-0.03,-0.13,0.0,3743.0,3470.0,2434.0,4082.0,3666.0,2960.0,3166.0,3387.0,-8.74,-0.39,2.99,-0.07,0.01,-0.09,1.0,help
3184.0,941.0,946.0,3807.0,3255.0,3206.0,3959.0,3131.0,8.84,0.96,-10.24,0.49,-0.03,-0.23,0.0,3757.0,3489.0,2406.0,4069.0,3660.0,2965.0,3164.0,3367.0,-14.83,0.59,6.05,-0.21,0.32,-0.28,1.0,help
3166.0,930.0,969.0,3858.0,2825.0,3145.0,3781.0,3225.0,8.71,0.33,-9.39,-1.2,1.63,-1.65,0.0,3760.0,3460.0,2384.0,4095.0,3637.0,2960.0,3179.0,3405.0,-15.04,-1.28,3.84,0.34,-0.75,1.5,1.0,help
3216.0,956.0,941.0,4048.0,3277.0,3186.0,3797.0,3163.0,3.03,-1.03,-1.19,-1.0,0.19,-1.25,0.0,3746.0,3479.0,2366.0,4095.0,3651.0,2961.0,3182.0,3403.0,-4.5,0.27,1.4,0.09,-0.88,1.32,1.0,help
3211.0,944.0,929.0,4095.0,3263.0,3183.0,3729.0,3051.0,1.81,0.8,0.27,-0.49,-0.07,-0.52,0.0,3743.0,3472.0,2382.0,4095.0,3671.0,2958.0,3190.0,3450.0,-4.16,1.05,1.66,-0.2,-0.05,0.42,1.0,help
3266.0,949.0,1861.0,4095.0,3329.0,3184.0,3699.0,3033.0,4.07,2.11,-2.2,0.3,-0.33,-0.28,0.0,3755.0,3478.0,2368.0,4095.0,3687.0,2957.0,3186.0,3442.0,-6.07,1.8,3.43,-0.14,0.06,-0.14,1.0,help
3280.0,955.0,1920.0,4095.0,3331.0,3184.0,3664.0,2999.0,4.69,2.98,-3.87,0.24,-0.11,-0.1,0.0,3728.0,3479.0,2383.0,4095.0,3695.0,2960.0,3191.0,3452.0,-8.52,2.23,3.97,-0.09,0.2,-0.18,1.0,help
3315.0,959.0,1935.0,4095.0,3330.0,3186.0,3694.0,2985.0,5.2,3.3,-4.38,0.16,-0.01,-0.04,0.0,3735.0,3480.0,2379.0,4095.0,3687.0,2964.0,3195.0,3475.0,-9.04,2.38,4.29,-0.05,0.2,-0.12,1.0,help
3318.0,966.0,1939.0,4095.0,3350.0,3191.0,3713.0,3026.0,5.03,2.77,-4.15,0.07,-0.02,-0.15,0.0,3753.0,3472.0,2382.0,4095.0,3679.0,2979.0,3200.0,3459.0,-8.32,2.28,4.12,-0.09,0.01,-0.06,1.0,help
3323.0,957.0,2000.0,4095.0,3353.0,3199.0,3719.0,3031.0,5.05,2.68,-3.81,-0.01,0.03,-0.11,0.0,3747.0,3479.0,2386.0,4095.0,3691.0,2973.0,3199.0,3460.0,-8.32,2.35,3.63,-0.01,-0.04,-0.07,1.0,help
3358.0,961.0,2011.0,4095.0,3356.0,3198.0,3724.0,3088.0,5.41,2.72,-4.33,0.07,-0.03,-0.14,0.0,3747.0,3495.0,2389.0,4095.0,3713.0,2982.0,3199.0,3461.0,-9.0,2.09,3.61,-0.11,0.14,-0.13,1.0,help
3376.0,944.0,2032.0,4095.0,3355.0,3195.0,3743.0,3120.0,5.25,2.6,-4.24,0.01,-0.01,-0.16,0.0,3728.0,3486.0,2388.0,4095.0,3690.0,2983.0,3205.0,3471.0,-8.67,2.13,3.79,-0.07,-0.01,-0.06,1.0,help
3386.0,948.0,2045.0,4095.0,3354.0,3199.0,3751.0,3134.0,5.19,2.57,-4.02,-0.03,0.04,-0.18,0.0,3746.0,3483.0,2373.0,4095.0,3690.0,2978.0,3196.0,3453.0,-8.58,2.06,3.73,-0.08,-0.04,-0.05,1.0,help
3343.0,960.0,2040.0,4095.0,3360.0,3194.0,3744.0,3155.0,5.19,2.73,-4.03,-0.06,0.0,-0.16,0.0,3739.0,3486.0,2387.0,4095.0,3685.0,2979.0,3201.0,3451.0,-8.65,2.05,3.64,-0.05,-0.05,-0.04,1.0,help
3345.0,950.0,2046.0,4095.0,3359.0,3197.0,3746.0,3171.0,5.06,2.84,-3.9,-0.02,0.03,-0.16,0.0,3762.0,3503.0,2317.0,4095.0,3696.0,2972.0,3200.0,3419.0,-8.66,2.06,3.62,-0.05,0.02,-0.01,1.0,help
3330.0,960.0,2064.0,4095.0,3347.0,3196.0,3771.0,3187.0,5.03,2.83,-3.9,-0.01,0.02,-0.15,0.0,3734.0,3486.0,2293.0,4095.0,3681.0,2986.0,3210.0,3445.0,-8.57,2.1,3.67,-0.06,0.02,-0.05,1.0,help
3289.0,960.0,2065.0,4095.0,3344.0,3184.0,3779.0,3191.0,5.23,2.82,-3.87,0.0,0.04,-0.14,0.0,3743.0,3479.0,2279.0,4095.0,3683.0,2981.0,3195.0,3427.0,-8.61,2.17,3.63,-0.07,0.07,-0.04,1.0,help
3268.0,962.0,2064.0,4095.0,3334.0,3184.0,3782.0,3197.0,5.08,2.79,-3.86,0.01,-0.01,-0.14,0.0,3745.0,3489.0,2271.0,4095.0,3682.0,2983.0,3207.0,3442.0,-8.83,2.14,3.44,-0.05,0.0,-0.04,1.0,help
3262.0,959.0,2058.0,4095.0,3339.0,3200.0,3791.0,3199.0,5.1,2.77,-4.02,0.02,-0.04,-0.15,0.0,3765.0,3472.0,2242.0,4095.0,3692.0,2989.0,3221.0,3425.0,-8.81,2.04,3.53,-0.09,0.06,-0.05,1.0,help
3664.0,3120.0,4095.0,4095.0,2754.0,2972.0,4015.0,3558.0,4.44,-0.39,-5.0,0.03,-0.06,-0.13,0.0,4095.0,4095.0,4095.0,3899.0,3709.0,2898.0,3209.0,3279.0,-9.21,-0.6,2.92,-0.08,0.04,-0.09,1.0,help
3728.0,3120.0,4095.0,4095.0,2782.0,2979.0,3984.0,3566.0,4.71,0.04,-5.13,0.16,-0.13,-0.14,0.0,4095.0,4095.0,4095.0,3952.0,3722.0,2901.0,3216.0,3299.0,-9.17,-0.01,3.62,-0.07,0.01,-0.13,1.0,help
3807.0,2662.0,4095.0,4095.0,2784.0,2954.0,3819.0,3483.0,10.55,3.04,-11.0,-0.16,0.26,-1.12,0.0,4095.0,4095.0,4095.0,3888.0,3718.0,2903.0,3205.0,3313.0,-16.8,1.25,7.84,0.06,0.01,0.37,1.0,help
4095.0,3024.0,4095.0,4095.0,3159.0,2987.0,3866.0,3507.0,4.95,-1.43,-6.87,-0.55,0.87,-1.73,0.0,4095.0,4095.0,4095.0,4066.0,3724.0,2919.0,3203.0,3293.0,-10.67,-2.14,3.06,0.04,-0.6,0.97,1.0,help
4095.0,2853.0,4095.0,4095.0,3314.0,3091.0,3885.0,3458.0,1.67,-1.19,-1.56,-0.73,0.23,-0.9,0.0,4095.0,4095.0,4095.0,4043.0,3706.0,2912.0,3209.0,3312.0,-5.36,-0.39,0.75,-0.03,-0.33,0.89,1.0,help
4095.0,2085.0,4095.0,4095.0,3300.0,3097.0,3881.0,3455.0,3.24,1.41,-0.0,-0.36,0.06,-0.51,0.0,4095.0,4095.0,4095.0,4059.0,3645.0,2923.0,3213.0,3323.0,-3.94,1.32,2.28,0.06,-0.34,0.35,1.0,help
4048.0,2057.0,4095.0,4095.0,3270.0,3093.0,3885.0,3492.0,4.53,1.98,-2.71,0.16,-0.04,-0.17,0.0,4095.0,4095.0,4095.0,4080.0,3678.0,2919.0,3205.0,3313.0,-6.81,1.7,3.23,0.0,0.14,-0.09,1.0,help
4095.0,1447.0,4095.0,4095.0,3280.0,3091.0,3839.0,3453.0,5.26,2.65,-3.96,0.16,-0.03,-0.06,0.0,4095.0,4095.0,4095.0,4095.0,3686.0,2929.0,3212.0,3310.0,-8.55,1.88,3.96,-0.09,0.07,-0.14,1.0,help
4095.0,1429.0,4095.0,4095.0,3300.0,3093.0,3878.0,3458.0,5.5,2.74,-4.22,0.15,-0.1,-0.17,0.0,4095.0,4095.0,4095.0,4095.0,3711.0,2928.0,3207.0,3307.0,-8.77,1.96,4.08,-0.11,0.07,-0.11,1.0,help
4095.0,1408.0,4095.0,4095.0,3296.0,3094.0,3862.0,3456.0,5.1,2.71,-4.17,0.04,-0.0,-0.18,0.0,4095.0,4095.0,4095.0,4095.0,3704.0,2927.0,3215.0,3314.0,-8.8,1.79,3.91,-0.14,-0.05,-0.08,1.0,help
4095.0,1421.0,4095.0,4095.0,3294.0,3103.0,3873.0,3471.0,4.93,2.57,-4.26,0.02,0.02,-0.18,0.0,4095.0,4095.0,4095.0,4095.0,3704.0,2928.0,3209.0,3313.0,-8.65,1.53,4.04,-0.1,0.05,-0.02,1.0,help
4095.0,1408.0,4095.0,4095.0,3295.0,3102.0,3869.0,3470.0,5.04,2.62,-3.99,0.0,0.05,-0.15,0.0,4095.0,4095.0,4095.0,4095.0,3712.0,2929.0,3210.0,3313.0,-8.57,1.78,3.92,-0.05,0.03,-0.02,1.0,help
4095.0,1424.0,4095.0,4095.0,3293.0,3100.0,3871.0,3472.0,5.21,2.53,-4.09,0.04,-0.01,-0.13,0.0,4095.0,4095.0,4095.0,4095.0,3722.0,2934.0,3203.0,3315.0,-8.56,1.72,3.93,-0.05,0.03,-0.05,1.0,help
4095.0,1392.0,4095.0,4095.0,3303.0,3107.0,3873.0,3478.0,5.12,2.55,-4.13,0.01,-0.03,-0.16,0.0,4095.0,4095.0,4095.0,4095.0,3696.0,2929.0,3211.0,3315.0,-8.76,1.69,3.75,-0.05,-0.01,-0.05,1.0,help
4095.0,1369.0,4095.0,4095.0,3306.0,3095.0,3862.0,3472.0,5.28,2.58,-4.09,-0.0,0.01,-0.16,0.0,4095.0,4095.0,4095.0,4095.0,3713.0,2938.0,3215.0,3312.0,-8.78,1.64,3.76,-0.05,-0.0,-0.02,1.0,help
4095.0,1287.0,4095.0,4095.0,3302.0,3081.0,3863.0,3479.0,5.1,2.58,-3.9,0.01,0.01,-0.15,0.0,4095.0,4095.0,4095.0,4095.0,3715.0,2930.0,3212.0,3325.0,-8.45,1.76,3.81,-0.07,0.01,-0.04,1.0,help
4095.0,1296.0,4095.0,4095.0,3309.0,3098.0,3858.0,3490.0,5.14,2.58,-4.21,0.03,0.04,-0.13,0.0,4095.0,4095.0,4095.0,4095.0,3719.0,2939.0,3203.0,3318.0,-8.79,1.56,3.87,-0.09,0.05,-0.05,1.0,help
4095.0,1300.0,4095.0,4095.0,3309.0,3088.0,3861.0,3482.0,4.99,2.49,-4.23,-0.01,0.03,-0.13,0.0,4095.0,4095.0,4095.0,4095.0,3729.0,2938.0,3216.0,3315.0,-8.74,1.71,3.94,-0.03,0.04,0.0,1.0,help
4095.0,1289.0,4095.0,4095.0,3306.0,3088.0,3853.0,3489.0,5.07,2.44,-4.03,0.0,0.0,-0.14,0.0,4095.0,4095.0,4095.0,4095.0,3725.0,2937.0,3202.0,3319.0,-8.71,1.76,3.68,-0.05,-0.0,-0.04,1.0,help
4095.0,1239.0,4095.0,4095.0,3311.0,3088.0,3835.0,3499.0,5.16,2.41,-4.05,-0.01,-0.03,-0.17,0.0,4095.0,4095.0,4095.0,4095.0,3722.0,2928.0,3202.0,3317.0,-8.69,1.74,3.65,-0.04,-0.01,-0.02,1.0,help
3091.0,4089.0,4067.0,4095.0,3433.0,3311.0,4095.0,3818.0,4.95,-0.64,-4.72,-0.02,-0.03,-0.13,0.0,3437.0,4095.0,4095.0,3995.0,3695.0,2953.0,3194.0,3367.0,-9.01,-0.74,3.13,-0.05,0.0,-0.04,1.0,help
3099.0,4095.0,4095.0,4095.0,3403.0,3291.0,4095.0,3773.0,5.02,-0.19,-5.28,0.27,-0.2,-0.02,0.0,3458.0,4095.0,4095.0,3984.0,3687.0,2948.0,3192.0,3370.0,-9.17,-0.21,3.89,0.03,0.01,-0.18,1.0,help
3470.0,4095.0,4095.0,4095.0,3377.0,3233.0,4095.0,3721.0,9.24,1.52,-12.16,0.15,-0.07,-0.55,0.0,3630.0,4095.0,4095.0,4005.0,3694.0,2943.0,3166.0,3322.0,-16.7,0.11,7.84,0.12,0.4,0.13,1.0,help
3529.0,4095.0,4095.0,4095.0,3555.0,3376.0,4095.0,3808.0,4.69,-1.57,-5.88,-1.49,0.53,-1.39,0.0,3649.0,4095.0,4095.0,4045.0,3712.0,2965.0,3184.0,3321.0,-10.29,-1.45,2.63,0.21,-0.93,1.41,1.0,help
3362.0,4095.0,4095.0,4095.0,3737.0,3680.0,4095.0,3854.0,2.34,-0.78,-0.76,-1.1,0.38,-0.88,0.0,3664.0,4095.0,4095.0,4007.0,3599.0,2963.0,3175.0,3363.0,-4.33,0.09,1.4,-0.12,-0.36,0.83,1.0,help
3313.0,4095.0,4038.0,4095.0,3749.0,3861.0,4095.0,3889.0,2.51,0.58,-1.33,-0.24,0.18,-0.5,0.0,3687.0,4095.0,4095.0,3975.0,3673.0,2978.0,3183.0,3365.0,-5.3,0.49,2.71,0.07,-0.1,0.24,1.0,help
3632.0,4095.0,4011.0,4095.0,3735.0,3664.0,4095.0,3741.0,4.98,2.48,-4.09,0.18,-0.02,-0.14,0.0,3754.0,4095.0,4095.0,4034.0,3695.0,2981.0,3185.0,3377.0,-8.54,2.07,4.14,-0.03,0.26,-0.04,1.0,help
3673.0,4095.0,4011.0,4095.0,3697.0,3659.0,4095.0,3728.0,5.14,2.64,-4.44,0.07,0.01,-0.12,0.0,3762.0,4095.0,4095.0,4034.0,3690.0,2983.0,3191.0,3379.0,-8.63,1.99,4.44,-0.02,-0.05,-0.03,1.0,help
3690.0,4095.0,4022.0,4095.0,3691.0,3637.0,4095.0,3738.0,5.06,2.5,-4.19,0.04,-0.03,-0.15,0.0,3782.0,4095.0,4095.0,4058.0,3706.0,2999.0,3193.0,3382.0,-8.88,2.07,3.74,-0.04,-0.12,-0.04,1.0,help
3701.0,4095.0,4003.0,4095.0,3679.0,3631.0,4095.0,3808.0,4.92,2.31,-3.92,0.02,0.01,-0.12,0.0,3767.0,4095.0,4095.0,4079.0,3699.0,2992.0,3195.0,3397.0,-8.15,1.99,3.99,-0.07,0.04,-0.04,1.0,help
3715.0,4095.0,4012.0,4095.0,3664.0,3639.0,4095.0,3821.0,5.07,2.34,-3.92,0.14,-0.01,-0.13,0.0,3770.0,4095.0,4095.0,4076.0,3709.0,2992.0,3197.0,3391.0,-8.31,2.01,3.88,-0.09,0.13,-0.15,1.0,help
3712.0,4095.0,4007.0,4095.0,3649.0,3614.0,4095.0,3814.0,5.08,2.07,-4.18,0.14,-0.02,-0.14,0.0,3763.0,4095.0,4095.0,4093.0,3717.0,2993.0,3188.0,3383.0,-8.33,1.73,3.92,-0.08,0.06,-0.13,1.0,help
3726.0,4095.0,4019.0,4095.0,3639.0,3583.0,4095.0,3827.0,5.08,2.21,-4.46,0.12,-0.03,-0.12,0.0,3764.0,4095.0,4095.0,4095.0,3701.0,2992.0,3187.0,3379.0,-8.83,1.75,4.03,-0.1,0.01,-0.13,1.0,help
3725.0,4095.0,4022.0,4095.0,3645.0,3595.0,4095.0,3825.0,5.1,2.14,-4.43,0.07,-0.02,-0.14,0.0,3774.0,4095.0,4095.0,4095.0,3714.0,2992.0,3184.0,3366.0,-8.82,1.8,3.93,-0.06,0.0,-0.09,1.0,help
3729.0,4095.0,4023.0,4095.0,3633.0,3570.0,4095.0,3838.0,4.99,2.12,-4.41,0.01,-0.02,-0.17,0.0,3763.0,4095.0,4095.0,4095.0,3703.0,2972.0,3177.0,3355.0,-8.8,1.64,3.94,-0.07,-0.05,-0.03,1.0,help
3726.0,4095.0,4048.0,4095.0,3638.0,3558.0,4095.0,3840.0,4.94,2.1,-4.23,-0.01,0.02,-0.17,0.0,3805.0,4095.0,4095.0,4095.0,3701.0,2970.0,3169.0,3294.0,-8.52,1.7,3.89,-0.03,-0.0,0.02,1.0,help
3740.0,4095.0,4032.0,4095.0,3619.0,3534.0,4095.0,3846.0,4.96,2.15,-4.24,0.04,0.0,-0.17,0.0,3792.0,4095.0,4095.0,4095.0,3714.0,2960.0,3185.0,3294.0,-8.66,1.81,3.78,-0.08,-0.0,-0.06,1.0,help
3761.0,4095.0,4055.0,4095.0,3622.0,3535.0,4095.0,3838.0,5.14,2.18,-4.33,0.02,-0.0,-0.16,0.0,3807.0,4095.0,4095.0,4095.0,3716.0,2965.0,3173.0,3311.0,-8.65,1.71,3.88,-0.07,0.02,-0.05,1.0,help
3760.0,4095.0,4053.0,4095.0,3615.0,3532.0,4095.0,3852.0,4.92,2.12,-4.26,-0.0,0.01,-0.16,0.0,3795.0,4095.0,4095.0,4095.0,3712.0,2970.0,3178.0,3286.0,-8.62,1.71,3.91,-0.08,0.04,-0.03,1.0,help
3760.0,4095.0,4048.0,4095.0,3600.0,3507.0,4095.0,3856.0,4.89,2.09,-4.13,-0.03,0.01,-0.14,0.0,3798.0,4095.0,4095.0,4095.0,3728.0,2969.0,3174.0,3291.0,-8.51,1.76,3.8,-0.07,0.02,-0.05,1.0,help
3120.0,2909.0,2497.0,4036.0,3252.0,3173.0,3857.0,3251.0,4.33,-0.6,-4.9,0.03,0.03,-0.14,0.0,4095.0,3937.0,4095.0,4095.0,3649.0,2900.0,3119.0,3165.0,-9.3,-0.4,2.39,-0.09,0.05,-0.08,1.0,help
3146.0,2919.0,2439.0,4048.0,3262.0,3179.0,3875.0,3279.0,4.22,-0.68,-4.84,0.04,-0.01,-0.15,0.0,4095.0,3950.0,4095.0,4095.0,3651.0,2909.0,3126.0,3170.0,-9.02,-0.44,2.53,-0.08,-0.01,-0.06,1.0,help
3248.0,2918.0,2253.0,4069.0,3265.0,3173.0,3874.0,3259.0,4.16,-0.43,-4.94,0.17,-0.06,-0.08,0.0,4095.0,3939.0,4095.0,4095.0,3655.0,2907.0,3125.0,3179.0,-8.91,-0.29,2.68,-0.06,-0.02,-0.16,1.0,help
2463.0,2831.0,2378.0,4077.0,2962.0,3139.0,3805.0,3234.0,9.61,1.33,-12.78,-0.06,0.28,-0.61,0.0,4095.0,3906.0,4095.0,4095.0,3664.0,2919.0,3130.0,3180.0,-17.02,-0.1,6.96,0.09,0.39,0.08,1.0,help
2817.0,4095.0,938.0,4095.0,3328.0,3143.0,3775.0,3303.0,5.55,-0.28,-6.77,-1.01,0.36,-1.55,0.0,4095.0,3947.0,4095.0,4095.0,3659.0,2902.0,3127.0,3183.0,-11.46,-0.84,2.62,0.46,-0.86,1.03,1.0,help
1895.0,4095.0,4095.0,4095.0,3462.0,3250.0,3956.0,3509.0,2.43,-1.0,-0.99,-0.51,0.1,-0.83,0.0,4095.0,3937.0,4095.0,4095.0,3664.0,2912.0,3131.0,3187.0,-4.31,0.06,0.53,-0.11,-0.13,0.85,1.0,help
1638.0,4095.0,4095.0,4095.0,3509.0,3257.0,3923.0,3492.0,3.34,0.42,-1.88,-0.11,-0.07,-0.51,0.0,4095.0,3922.0,4095.0,4095.0,3655.0,2917.0,3137.0,3187.0,-5.43,0.67,2.19,-0.11,-0.41,0.15,1.0,help
1891.0,4095.0,4095.0,4095.0,3485.0,3261.0,3917.0,3509.0,4.06,1.84,-2.89,0.03,0.12,-0.23,0.0,4095.0,3937.0,4095.0,4095.0,3665.0,2912.0,3136.0,3193.0,-7.37,1.22,2.61,-0.11,-0.02,0.1,1.0,help
1973.0,4095.0,4095.0,4095.0,3489.0,3265.0,3919.0,3493.0,4.71,2.43,-4.01,0.16,0.01,-0.18,0.0,4095.0,3933.0,4095.0,4095.0,3664.0,2913.0,3129.0,3202.0,-8.44,1.89,3.36,-0.1,0.05,-0.05,1.0,help
1937.0,4095.0,4095.0,4095.0,3455.0,3259.0,3935.0,3507.0,4.75,2.52,-4.59,0.1,-0.02,-0.19,0.0,4095.0,3935.0,4095.0,4095.0,3662.0,2919.0,3135.0,3199.0,-8.85,1.77,3.78,-0.11,0.05,-0.05,1.0,help
1887.0,4095.0,4095.0,4095.0,3487.0,3265.0,3917.0,3506.0,4.79,2.43,-4.41,0.02,-0.03,-0.15,0.0,4095.0,3938.0,4095.0,4095.0,3674.0,2917.0,3132.0,3199.0,-8.65,1.79,3.67,-0.06,-0.02,-0.06,1.0,help
1895.0,4095.0,4095.0,4095.0,3488.0,3262.0,3937.0,3504.0,4.72,2.42,-4.45,0.01,0.01,-0.13,0.0,4095.0,3922.0,4095.0,4095.0,3661.0,2925.0,3131.0,3202.0,-8.78,1.67,3.65,-0.03,-0.06,-0.05,1.0,help
1890.0,4095.0,4095.0,4095.0,3485.0,3269.0,3942.0,3504.0,4.68,2.33,-4.19,0.01,0.05,-0.1,0.0,4095.0,3953.0,4095.0,4095.0,3657.0,2926.0,3133.0,3203.0,-8.7,1.85,3.33,-0.04,0.02,-0.05,1.0,help
1890.0,4095.0,4095.0,4095.0,3475.0,3265.0,3936.0,3508.0,4.8,2.31,-4.35,0.03,-0.03,-0.16,0.0,4095.0,3942.0,4095.0,4095.0,3676.0,2925.0,3131.0,3210.0,-8.69,1.78,3.62,-0.06,0.07,-0.06,1.0,help
1890.0,4095.0,4095.0,4095.0,3472.0,3258.0,3942.0,3505.0,4.66,2.27,-4.38,0.04,-0.02,-0.15,0.0,4095.0,3920.0,4095.0,4095.0,3664.0,2914.0,3133.0,3210.0,-8.61,1.76,3.66,-0.07,0.03,-0.07,1.0,help
1898.0,4095.0,4095.0,4095.0,3478.0,3269.0,3923.0,3507.0,4.68,2.26,-4.49,0.05,0.02,-0.17,0.0,4095.0,3945.0,4095.0,4095.0,3667.0,2922.0,3139.0,3213.0,-8.66,1.72,3.71,-0.07,0.0,-0.05,1.0,help
1929.0,4095.0,4095.0,4095.0,3486.0,3252.0,3921.0,3507.0,4.7,2.34,-4.42,0.03,-0.02,-0.16,0.0,4095.0,3956.0,4095.0,4095.0,3664.0,2916.0,3136.0,3211.0,-8.76,1.66,3.69,-0.07,-0.01,-0.04,1.0,help
2064.0,4095.0,4095.0,4095.0,3490.0,3248.0,3920.0,3504.0,4.51,2.26,-4.4,0.0,-0.01,-0.15,0.0,4095.0,3923.0,4095.0,4095.0,3667.0,2915.0,3135.0,3214.0,-8.68,1.69,3.6,-0.07,0.03,-0.04,1.0,help
2096.0,4095.0,4095.0,4095.0,3491.0,3249.0,3922.0,3516.0,4.51,2.21,-4.43,0.04,-0.02,-0.15,0.0,4095.0,3933.0,4095.0,4095.0,3665.0,2926.0,3136.0,3215.0,-8.84,1.73,3.47,-0.07,0.04,-0.05,1.0,help
2097.0,4095.0,4095.0,4095.0,3491.0,3238.0,3925.0,3520.0,4.59,2.16,-4.5,0.03,-0.02,-0.14,0.0,4095.0,3927.0,4095.0,4095.0,3665.0,2923.0,3131.0,3215.0,-8.74,1.61,3.72,-0.08,0.05,-0.05,1.0,help
3746.0,1073.0,4095.0,4036.0,3257.0,3181.0,4032.0,3404.0,3.94,-0.55,-4.83,0.03,-0.01,-0.14,0.0,4095.0,4015.0,4095.0,4095.0,3766.0,2957.0,3162.0,3294.0,-8.86,-0.81,2.89,-0.05,-0.01,-0.06,1.0,help
3693.0,1072.0,4095.0,4017.0,3248.0,3184.0,4025.0,3383.0,4.51,-0.27,-5.51,0.16,-0.09,-0.06,0.0,4095.0,4006.0,4095.0,4095.0,3755.0,2954.0,3177.0,3286.0,-9.71,-0.33,3.27,-0.02,0.05,-0.13,1.0,help
3453.0,1062.0,4095.0,4006.0,3198.0,3153.0,3899.0,3358.0,9.0,2.13,-10.65,-0.47,0.44,-0.23,0.0,4095.0,3990.0,4095.0,4095.0,3761.0,2957.0,3158.0,3244.0,-16.59,-0.67,5.51,0.42,-0.53,0.28,1.0,help
3115.0,1057.0,3952.0,4066.0,3250.0,3142.0,3753.0,3311.0,5.13,-1.98,-7.7,-1.06,0.38,-1.47,0.0,4095.0,4095.0,4095.0,4095.0,3781.0,2966.0,3152.0,3248.0,-11.86,-0.59,3.82,0.18,-0.21,1.33,1.0,help
3366.0,1298.0,3894.0,4095.0,3231.0,3185.0,3758.0,3298.0,2.26,-1.16,-0.95,-1.22,0.13,-1.14,0.0,4095.0,4095.0,4095.0,4095.0,3771.0,2960.0,3178.0,3271.0,-5.1,-0.39,0.38,-0.11,-0.96,1.25,1.0,help
2934.0,1415.0,3439.0,4095.0,3354.0,3205.0,3693.0,3254.0,3.13,1.31,-0.69,0.13,-0.18,-0.69,0.0,4095.0,4061.0,4095.0,4095.0,3783.0,2960.0,3173.0,3281.0,-4.14,1.47,2.99,-0.12,0.32,0.41,1.0,help
2901.0,1107.0,3248.0,4095.0,3359.0,3212.0,3675.0,3248.0,3.58,2.55,-2.21,0.34,-0.4,-0.32,0.0,4095.0,4090.0,4095.0,4091.0,3777.0,2958.0,3173.0,3299.0,-5.67,2.32,4.12,-0.13,0.21,-0.1,1.0,help
2928.0,1072.0,3219.0,4095.0,3363.0,3210.0,3730.0,3236.0,4.17,2.75,-3.92,0.31,-0.19,-0.02,0.0,4095.0,4082.0,4095.0,4095.0,3779.0,2950.0,3178.0,3294.0,-7.49,2.07,4.24,-0.09,0.09,-0.37,1.0,help
2785.0,1085.0,3249.0,4095.0,3369.0,3210.0,3743.0,3252.0,4.43,2.19,-5.34,0.17,0.01,-0.08,0.0,4095.0,4095.0,4095.0,4048.0,3787.0,2965.0,3184.0,3297.0,-8.73,2.0,3.98,-0.06,0.17,-0.06,1.0,help
2515.0,1023.0,3217.0,4095.0,3387.0,3206.0,3788.0,3266.0,4.47,2.05,-4.88,0.06,-0.04,-0.18,0.0,4095.0,4095.0,4095.0,4073.0,3780.0,2962.0,3183.0,3297.0,-8.82,1.81,3.68,-0.13,0.02,-0.08,1.0,help
2438.0,1022.0,3189.0,4095.0,3386.0,3206.0,3814.0,3266.0,4.51,1.91,-4.76,0.07,0.04,-0.13,0.0,4095.0,4095.0,4095.0,4057.0,3783.0,2965.0,3179.0,3295.0,-8.58,1.96,3.61,-0.06,-0.0,-0.05,1.0,help
2635.0,1012.0,3184.0,4095.0,3386.0,3195.0,3806.0,3280.0,4.42,2.06,-4.66,-0.03,0.01,-0.2,0.0,4095.0,4095.0,4095.0,4049.0,3773.0,2965.0,3183.0,3312.0,-8.84,1.81,3.55,-0.08,0.01,-0.01,1.0,help
2656.0,1022.0,3185.0,4095.0,3391.0,3188.0,3813.0,3275.0,4.35,2.05,-4.65,0.02,0.04,-0.18,0.0,4095.0,4095.0,4095.0,4095.0,3773.0,2959.0,3185.0,3314.0,-8.62,1.87,3.65,-0.08,0.01,-0.02,1.0,help
2732.0,1010.0,3198.0,4095.0,3386.0,3188.0,3811.0,3277.0,4.34,2.25,-4.44,0.03,-0.0,-0.18,0.0,4095.0,4095.0,4095.0,4095.0,3781.0,2960.0,3194.0,3307.0,-8.24,1.81,3.89,-0.04,-0.09,-0.03,1.0,help
2769.0,1011.0,3200.0,4095.0,3391.0,3182.0,3815.0,3279.0,4.34,2.12,-4.67,0.02,-0.01,-0.17,0.0,4095.0,4095.0,4095.0,4095.0,3766.0,2960.0,3188.0,3321.0,-8.72,1.71,3.69,-0.07,0.03,-0.06,1.0,help
2719.0,1037.0,3205.0,4095.0,3389.0,3184.0,3817.0,3280.0,4.39,2.15,-4.64,0.01,-0.02,-0.18,0.0,4095.0,4095.0,4095.0,4095.0,3779.0,2960.0,3185.0,3312.0,-8.78,1.82,3.63,-0.08,-0.02,-0.05,1.0,help
2704.0,1023.0,3210.0,4095.0,3392.0,3184.0,3828.0,3266.0,4.29,2.22,-4.67,0.02,-0.0,-0.15,0.0,4095.0,4095.0,4095.0,4095.0,3777.0,2962.0,3190.0,3312.0,-8.84,1.74,3.7,-0.06,0.0,-0.04,1.0,help
2667.0,1008.0,3200.0,4095.0,3390.0,3171.0,3821.0,3269.0,4.18,2.22,-4.49,0.04,-0.1,-0.11,0.0,4095.0,4095.0,4095.0,4095.0,3794.0,2960.0,3178.0,3306.0,-8.52,1.82,3.77,-0.05,-0.04,-0.06,1.0,help
2636.0,1014.0,3207.0,4095.0,3408.0,3178.0,3824.0,3280.0,4.12,2.19,-4.62,-0.02,0.01,-0.11,0.0,4095.0,4095.0,4095.0,4095.0,3777.0,2959.0,3182.0,3312.0,-8.55,1.6,3.87,-0.04,0.03,-0.07,1.0,help
2644.0,1023.0,3236.0,4095.0,3409.0,3184.0,3834.0,3265.0,3.8,2.11,-4.45,-0.09,0.04,-0.07,0.0,4095.0,4095.0,4095.0,4095.0,3793.0,2976.0,3188.0,3313.0,-8.42,1.49,3.64,-0.02,0.09,-0.06,1.0,help
3271.0,970.0,2816.0,3929.0,3274.0,3141.0,3989.0,3267.0,4.35,-0.54,-4.92,0.01,0.01,-0.11,0.0,3794.0,4095.0,2479.0,4095.0,3669.0,2913.0,3205.0,3417.0,-9.14,-0.82,3.06,-0.07,0.03,-0.1,1.0,help
3261.0,946.0,2874.0,3910.0,3262.0,3131.0,3984.0,3328.0,4.05,-0.44,-4.73,0.03,0.03,-0.13,0.0,3807.0,4095.0,2471.0,4095.0,3676.0,2902.0,3193.0,3426.0,-9.14,-0.31,2.83,-0.1,0.03,-0.11,1.0,help
3243.0,932.0,2900.0,3839.0,3131.0,3090.0,3885.0,3346.0,9.11,0.9,-11.98,0.11,0.19,-0.48,0.0,4095.0,4095.0,2727.0,4095.0,3662.0,2886.0,3130.0,3253.0,-15.02,-1.67,6.57,0.02,-0.36,-0.15,1.0,help
3146.0,971.0,2876.0,3924.0,3219.0,3051.0,3649.0,3357.0,5.8,-1.2,-10.0,-1.77,0.66,-1.83,0.0,4095.0,4095.0,1895.0,4095.0,3663.0,2896.0,3162.0,3234.0,-14.09,-2.62,2.77,0.0,-0.02,1.29,1.0,help
3089.0,1214.0,2955.0,4048.0,3347.0,3067.0,3575.0,3369.0,0.84,-0.02,1.46,-0.26,-0.67,-1.21,0.0,4095.0,4095.0,1513.0,4095.0,3632.0,2908.0,3178.0,3212.0,-3.45,-0.0,0.83,0.29,-0.99,1.52,1.0,help
2871.0,1390.0,2986.0,4080.0,3421.0,3139.0,3712.0,3444.0,2.51,1.48,0.0,-0.11,0.06,-0.42,0.0,4095.0,4095.0,1515.0,4095.0,3567.0,2907.0,3189.0,3251.0,-3.22,2.27,3.03,0.01,-0.33,0.15,1.0,help
2538.0,1232.0,2992.0,4095.0,3310.0,3147.0,3722.0,3422.0,3.81,1.83,-3.98,0.24,-0.03,-0.11,0.0,4095.0,4095.0,1525.0,4091.0,3599.0,2914.0,3191.0,3254.0,-7.5,2.25,3.75,-0.09,0.18,-0.2,1.0,help
2331.0,1230.0,2990.0,4095.0,3360.0,3151.0,3725.0,3394.0,4.26,2.34,-4.89,0.41,-0.07,-0.15,0.0,4095.0,4095.0,1525.0,4095.0,3605.0,2919.0,3185.0,3253.0,-8.8,2.01,4.12,-0.08,0.03,-0.12,1.0,help
2223.0,1019.0,3019.0,4095.0,3399.0,3152.0,3727.0,3365.0,4.05,2.27,-4.89,-0.08,0.05,-0.16,0.0,4095.0,4095.0,1520.0,4095.0,3583.0,2914.0,3179.0,3255.0,-8.49,1.71,4.17,-0.12,-0.06,-0.09,1.0,help
2231.0,989.0,3042.0,4095.0,3407.0,3166.0,3786.0,3391.0,3.9,2.39,-4.63,-0.03,0.04,-0.15,0.0,4095.0,4095.0,1518.0,4095.0,3600.0,2925.0,3190.0,3261.0,-8.51,1.84,4.05,-0.1,-0.05,-0.08,1.0,help
2240.0,1007.0,3050.0,4095.0,3422.0,3141.0,3833.0,3407.0,3.97,2.29,-4.85,0.02,-0.01,-0.17,0.0,4095.0,4095.0,1440.0,4095.0,3583.0,2914.0,3189.0,3251.0,-8.72,1.67,4.07,-0.08,0.03,-0.06,1.0,help
2224.0,1003.0,3054.0,4095.0,3423.0,3154.0,3849.0,3408.0,4.06,2.31,-4.75,-0.03,0.03,-0.18,0.0,4095.0,4095.0,1392.0,4095.0,3600.0,2913.0,3195.0,3258.0,-8.5,1.78,4.12,-0.09,0.0,-0.0,1.0,help
2231.0,993.0,3056.0,4095.0,3427.0,3169.0,3839.0,3413.0,4.02,2.44,-4.59,0.05,0.01,-0.16,0.0,4095.0,4095.0,1388.0,4095.0,3599.0,2918.0,3189.0,3261.0,-8.52,1.7,4.17,-0.1,-0.04,-0.03,1.0,help
2233.0,1010.0,3047.0,4095.0,3434.0,3171.0,3856.0,3414.0,3.99,2.42,-4.68,-0.02,-0.0,-0.13,0.0,4095.0,4095.0,1370.0,4095.0,3583.0,2919.0,3189.0,3271.0,-8.5,1.71,4.28,-0.06,0.01,-0.03,1.0,help
2229.0,999.0,3056.0,4095.0,3440.0,3173.0,3852.0,3419.0,4.19,2.37,-4.64,0.01,0.02,-0.14,0.0,4095.0,4095.0,1367.0,4095.0,3607.0,2918.0,3195.0,3275.0,-8.41,1.76,4.16,-0.07,0.03,-0.04,1.0,help
2227.0,1015.0,3050.0,4095.0,3439.0,3171.0,3845.0,3409.0,4.1,2.42,-4.72,-0.0,0.02,-0.15,0.0,4095.0,4095.0,1366.0,4095.0,3571.0,2927.0,3189.0,3280.0,-8.49,1.75,4.22,-0.04,-0.02,-0.02,1.0,help
2198.0,1010.0,3053.0,4095.0,3432.0,3169.0,3850.0,3411.0,3.95,2.49,-4.39,-0.03,0.08,-0.19,0.0,4095.0,4095.0,1362.0,4095.0,3600.0,2918.0,3184.0,3277.0,-8.3,1.81,4.11,-0.08,-0.06,-0.02,1.0,help
2188.0,1015.0,3063.0,4095.0,3441.0,3174.0,3854.0,3392.0,3.99,2.45,-4.67,-0.0,0.03,-0.16,0.0,4095.0,4095.0,1363.0,4095.0,3607.0,2920.0,3190.0,3275.0,-8.69,1.68,4.09,-0.07,0.04,-0.03,1.0,help
2182.0,1018.0,3067.0,4095.0,3443.0,3177.0,3857.0,3377.0,4.13,2.51,-4.67,0.03,-0.01,-0.16,0.0,4095.0,4095.0,1347.0,4095.0,3603.0,2919.0,3184.0,3277.0,-8.53,1.78,4.22,-0.05,0.04,-0.03,1.0,help
2189.0,1008.0,3067.0,4095.0,3444.0,3171.0,3842.0,3361.0,3.97,2.43,-4.7,-0.0,0.01,-0.16,0.0,4095.0,4095.0,1351.0,4095.0,3616.0,2926.0,3195.0,3275.0,-8.56,1.74,4.3,-0.06,-0.0,-0.02,1.0,help
1290.0,2324.0,3126.0,4095.0,3366.0,3303.0,4095.0,3446.0,3.93,-0.68,-4.88,0.06,0.0,-0.14,0.0,4095.0,4095.0,4095.0,4095.0,3520.0,2845.0,3097.0,3169.0,-9.02,-0.85,3.14,-0.07,0.07,-0.08,1.0,help
1631.0,2240.0,3132.0,4095.0,3378.0,3280.0,4095.0,3430.0,4.02,-0.85,-4.88,0.27,-0.06,-0.15,0.0,4095.0,4095.0,4095.0,4095.0,3545.0,2847.0,3107.0,3179.0,-8.55,-0.62,3.37,-0.12,0.16,-0.15,1.0,help
1700.0,2027.0,2862.0,4095.0,3369.0,3250.0,3926.0,3297.0,8.82,-1.25,-12.96,0.3,0.99,-0.97,0.0,4095.0,4095.0,4095.0,4095.0,3548.0,2858.0,3099.0,3187.0,-17.53,-2.36,6.2,-0.16,0.96,0.13,1.0,help
1019.0,3889.0,3263.0,4095.0,3370.0,3223.0,3622.0,3041.0,5.65,-3.21,-7.87,-0.27,-0.27,-1.4,0.0,4095.0,4095.0,4095.0,3946.0,3521.0,2857.0,3106.0,3187.0,-11.97,-1.74,1.63,-0.02,0.56,1.52,1.0,help
2105.0,4095.0,3223.0,4095.0,3406.0,3249.0,3658.0,3028.0,1.11,0.78,2.54,-0.94,-0.36,-1.16,0.0,4095.0,4095.0,4095.0,4095.0,3505.0,2853.0,3107.0,3174.0,-0.82,0.18,0.91,-0.47,-0.93,1.18,1.0,help
2138.0,4095.0,3210.0,4095.0,3419.0,3275.0,3689.0,3071.0,2.2,1.95,-1.07,0.03,0.04,-0.36,0.0,4095.0,4095.0,4095.0,4095.0,3538.0,2855.0,3110.0,3179.0,-4.02,1.37,3.66,-0.07,-0.24,0.05,1.0,help
2125.0,4095.0,3230.0,4095.0,3444.0,3280.0,3754.0,3147.0,3.9,1.89,-4.81,0.27,0.05,-0.19,0.0,4095.0,4095.0,4095.0,4004.0,3541.0,2853.0,3110.0,3186.0,-8.51,1.4,3.63,-0.11,0.32,-0.11,1.0,help
2139.0,4095.0,3205.0,4095.0,3458.0,3285.0,3760.0,3165.0,3.97,1.97,-5.42,0.14,0.02,-0.18,0.0,4095.0,4095.0,4095.0,4055.0,3543.0,2854.0,3119.0,3195.0,-9.44,1.46,3.47,-0.06,0.09,-0.03,1.0,help
2086.0,4095.0,3199.0,4095.0,3408.0,3283.0,3789.0,3185.0,3.81,1.64,-5.16,0.02,0.05,-0.16,0.0,4095.0,4095.0,4095.0,4067.0,3559.0,2862.0,3118.0,3184.0,-9.01,1.41,3.25,-0.06,0.0,-0.02,1.0,help
2032.0,4095.0,3182.0,4095.0,3457.0,3283.0,3796.0,3190.0,3.84,1.65,-4.9,0.08,0.01,-0.15,0.0,4095.0,4095.0,4095.0,4079.0,3557.0,2859.0,3115.0,3194.0,-8.65,1.3,3.26,-0.09,-0.04,-0.04,1.0,help
2023.0,4095.0,3184.0,4095.0,3454.0,3280.0,3821.0,3198.0,3.91,1.55,-5.12,0.04,0.04,-0.17,0.0,4095.0,4095.0,4095.0,4090.0,3568.0,2863.0,3115.0,3182.0,-9.19,1.29,3.11,-0.07,0.05,-0.03,1.0,help
2087.0,4095.0,3167.0,4095.0,3471.0,3277.0,3824.0,3211.0,3.75,1.78,-4.84,-0.06,0.06,-0.15,0.0,4095.0,4095.0,4095.0,4089.0,3568.0,2866.0,3123.0,3198.0,-8.65,1.51,3.44,-0.07,-0.07,-0.02,1.0,help
2139.0,4095.0,3182.0,4095.0,3470.0,3277.0,3838.0,3220.0,3.85,1.77,-4.91,-0.03,0.03,-0.17,0.0,4095.0,4095.0,4095.0,4095.0,3568.0,2871.0,3115.0,3173.0,-8.78,1.4,3.33,-0.08,-0.04,-0.01,1.0,help
2178.0,4095.0,3179.0,4095.0,3473.0,3285.0,3846.0,3248.0,3.91,1.87,-4.91,-0.01,-0.01,-0.17,0.0,4095.0,4095.0,4095.0,4095.0,3568.0,2878.0,3120.0,3183.0,-8.92,1.47,3.34,-0.08,-0.05,-0.04,1.0,help
2157.0,4095.0,3159.0,4095.0,3481.0,3281.0,3862.0,3239.0,3.93,1.94,-4.94,0.01,-0.01,-0.18,0.0,4095.0,4095.0,4095.0,4095.0,3552.0,2871.0,3117.0,3184.0,-8.92,1.32,3.31,-0.09,-0.04,-0.06,1.0,help
2141.0,4095.0,3167.0,4095.0,3483.0,3280.0,3873.0,3239.0,3.7,1.97,-4.81,0.01,0.03,-0.19,0.0,4095.0,4095.0,4095.0,4095.0,3561.0,2881.0,3122.0,3177.0,-8.76,1.3,3.46,-0.11,-0.02,-0.04,1.0,help
2154.0,4095.0,3157.0,4095.0,3473.0,3284.0,3889.0,3251.0,3.85,1.94,-4.77,0.01,0.01,-0.16,0.0,4095.0,4095.0,4095.0,4095.0,3563.0,2877.0,3120.0,3186.0,-8.83,1.37,3.37,-0.1,0.02,-0.05,1.0,help
2145.0,4095.0,3168.0,4095.0,3477.0,3279.0,3885.0,3280.0,3.92,1.98,-4.91,0.05,-0.02,-0.16,0.0,4095.0,4095.0,4095.0,4095.0,3549.0,2880.0,3120.0,3184.0,-8.9,1.29,3.42,-0.08,0.03,-0.05,1.0,help
2113.0,4095.0,3159.0,4095.0,3475.0,3280.0,3890.0,3273.0,3.77,2.09,-4.76,0.02,-0.01,-0.16,0.0,4095.0,4095.0,4095.0,4095.0,3553.0,2879.0,3121.0,3184.0,-8.79,1.28,3.47,-0.07,0.03,-0.04,1.0,help
2096.0,4095.0,3154.0,4095.0,3486.0,3280.0,3905.0,3281.0,4.01,1.97,-4.98,0.0,0.02,-0.14,0.0,4095.0,4095.0,4095.0,4095.0,3549.0,2871.0,3120.0,3184.0,-8.97,1.33,3.46,-0.05,0.03,-0.04,1.0,help
3302.0,1058.0,2064.0,4095.0,3301.0,3235.0,3856.0,3344.0,4.3,-0.82,-4.94,0.05,-0.07,-0.13,0.0,3838.0,4095.0,3418.0,4095.0,3630.0,2957.0,3163.0,3283.0,-9.04,-1.13,3.18,-0.05,0.0,-0.09,1.0,help
3197.0,1077.0,2085.0,4095.0,3291.0,3231.0,3856.0,3343.0,4.1,-0.92,-4.62,0.09,-0.03,-0.14,0.0,3841.0,4095.0,3425.0,4095.0,3639.0,2954.0,3158.0,3291.0,-8.61,-0.92,3.18,-0.07,0.08,-0.1,1.0,help
1127.0,1070.0,2389.0,4095.0,3339.0,3200.0,3841.0,3200.0,6.81,-0.72,-10.56,0.17,-0.07,-0.36,0.0,3819.0,4095.0,3407.0,4095.0,3629.0,2961.0,3171.0,3291.0,-13.15,-2.04,4.61,-0.05,0.11,-0.17,1.0,help
1008.0,1052.0,2071.0,4095.0,3309.0,3146.0,3555.0,3042.0,6.58,-0.92,-9.56,-1.7,0.33,-1.64,0.0,3929.0,4095.0,3408.0,4095.0,3543.0,2935.0,3161.0,3261.0,-16.03,-3.7,2.86,0.03,0.09,1.58,1.0,help
2749.0,987.0,2800.0,4095.0,3337.0,3166.0,3634.0,2911.0,1.0,0.71,1.63,-0.99,-0.34,-0.75,0.0,4095.0,4095.0,3374.0,4095.0,3625.0,2927.0,3166.0,3282.0,-3.22,1.15,1.0,-0.22,-0.37,1.0,1.0,help
2795.0,980.0,3025.0,4095.0,3373.0,3215.0,3669.0,2960.0,3.38,1.56,-4.68,0.29,0.04,-0.28,0.0,4095.0,4095.0,3359.0,4095.0,3621.0,2926.0,3173.0,3284.0,-8.65,1.25,3.41,-0.04,0.06,-0.05,1.0,help
2800.0,975.0,3022.0,4095.0,3392.0,3228.0,3674.0,2928.0,3.62,1.25,-5.28,0.05,-0.12,-0.26,0.0,4095.0,4095.0,3333.0,4095.0,3616.0,2933.0,3171.0,3278.0,-9.68,1.18,2.79,-0.13,0.22,0.02,1.0,help
2761.0,975.0,3024.0,4095.0,3429.0,3226.0,3696.0,2940.0,3.62,0.84,-5.33,-0.02,0.0,-0.16,0.0,4095.0,4095.0,3335.0,4095.0,3632.0,2928.0,3175.0,3276.0,-8.92,1.07,3.17,-0.06,-0.02,-0.0,1.0,help
2708.0,977.0,3026.0,4095.0,3409.0,3223.0,3709.0,2955.0,4.08,1.18,-5.08,-0.08,0.03,-0.23,0.0,4095.0,4095.0,3315.0,4095.0,3643.0,2938.0,3179.0,3277.0,-8.69,1.31,3.02,-0.0,-0.04,0.05,1.0,help
2678.0,989.0,3027.0,4095.0,3425.0,3216.0,3727.0,2969.0,3.52,1.07,-4.88,-0.07,0.06,-0.17,0.0,4095.0,4095.0,3323.0,4095.0,3651.0,2931.0,3171.0,3270.0,-8.68,1.34,2.91,-0.05,-0.04,0.02,1.0,help
2674.0,989.0,3041.0,4095.0,3429.0,3217.0,3745.0,2978.0,3.67,1.17,-5.12,-0.01,0.03,-0.17,0.0,4095.0,4095.0,3303.0,4095.0,3641.0,2929.0,3179.0,3286.0,-9.04,1.21,2.97,-0.07,-0.02,-0.01,1.0,help
2641.0,975.0,3026.0,4095.0,3421.0,3217.0,3743.0,2988.0,3.79,1.21,-5.11,0.08,0.03,-0.19,0.0,4095.0,4095.0,3301.0,4095.0,3654.0,2939.0,3177.0,3278.0,-9.05,1.31,2.97,-0.09,0.05,-0.05,1.0,help
2596.0,976.0,3035.0,4095.0,3417.0,3218.0,3755.0,3012.0,3.82,1.28,-5.0,-0.02,0.15,-0.22,0.0,4095.0,4095.0,3297.0,4095.0,3641.0,2933.0,3167.0,3277.0,-8.82,1.31,3.13,-0.06,0.02,-0.06,1.0,help
2559.0,985.0,3058.0,4095.0,3440.0,3215.0,3783.0,3062.0,4.16,1.35,-5.02,0.09,-0.06,-0.15,0.0,4095.0,4095.0,3287.0,4095.0,3639.0,2933.0,3162.0,3280.0,-9.06,1.22,3.06,-0.03,0.03,-0.1,1.0,help
2559.0,970.0,3056.0,4095.0,3437.0,3215.0,3776.0,3067.0,3.79,1.3,-5.11,0.06,-0.02,-0.17,0.0,4095.0,4095.0,3291.0,4095.0,3647.0,2947.0,3178.0,3278.0,-9.09,1.19,3.01,-0.11,0.02,-0.05,1.0,help
2547.0,976.0,3068.0,4095.0,3443.0,3219.0,3792.0,3071.0,3.62,1.29,-5.13,0.0,-0.01,-0.19,0.0,4095.0,4095.0,3279.0,4095.0,3651.0,2938.0,3179.0,3283.0,-9.2,1.05,2.95,-0.11,-0.05,-0.04,1.0,help
2530.0,976.0,3049.0,4095.0,3455.0,3216.0,3779.0,3071.0,3.79,1.22,-4.98,-0.03,0.07,-0.19,0.0,4095.0,4095.0,3283.0,4095.0,3636.0,2943.0,3174.0,3286.0,-8.9,1.26,2.99,-0.1,0.07,-0.03,1.0,help
2508.0,974.0,3063.0,4095.0,3457.0,3211.0,3796.0,3088.0,3.87,1.33,-4.97,-0.01,0.03,-0.16,0.0,4095.0,4095.0,3281.0,4095.0,3650.0,2943.0,3184.0,3279.0,-9.09,1.22,2.9,-0.07,-0.01,0.0,1.0,help
2479.0,971.0,3055.0,4095.0,3457.0,3211.0,3791.0,3101.0,3.79,1.51,-4.92,-0.05,0.04,-0.13,0.0,4095.0,4095.0,3282.0,4095.0,3651.0,2938.0,3175.0,3282.0,-9.06,1.11,3.01,-0.06,0.0,-0.0,1.0,help
2453.0,978.0,3068.0,4095.0,3447.0,3211.0,3798.0,3094.0,3.87,1.41,-4.87,-0.03,0.01,-0.17,0.0,4095.0,4095.0,3286.0,4095.0,3634.0,2937.0,3169.0,3296.0,-8.86,1.27,3.11,-0.08,0.03,0.01,1.0,help
2366.0,1046.0,4095.0,4050.0,3350.0,3259.0,3807.0,3280.0,3.76,-1.69,-4.9,-0.03,0.05,-0.16,0.0,4095.0,4095.0,3781.0,4095.0,3646.0,2960.0,3127.0,3218.0,-8.68,-1.5,3.58,-0.03,0.08,-0.03,1.0,help
2614.0,1047.0,4095.0,4062.0,3358.0,3257.0,3819.0,3303.0,4.0,-1.65,-4.83,0.03,0.02,-0.14,0.0,4095.0,4095.0,3789.0,4095.0,3664.0,2960.0,3132.0,3216.0,-8.6,-1.44,3.68,-0.05,0.01,-0.09,1.0,help
2770.0,1041.0,4095.0,4069.0,3344.0,3227.0,3761.0,3361.0,4.39,-2.01,-5.21,-0.03,0.13,-0.29,0.0,4095.0,4095.0,3707.0,4095.0,3602.0,2961.0,3127.0,3196.0,-12.09,-1.7,4.85,0.22,0.46,0.23,1.0,help
2149.0,2178.0,2993.0,4095.0,3391.0,3217.0,3583.0,3157.0,6.05,-1.1,-7.78,0.28,-0.36,-1.42,0.0,4095.0,4095.0,3617.0,4095.0,3635.0,2950.0,3136.0,3190.0,-12.56,-2.43,2.92,-0.12,0.13,0.51,1.0,help
2222.0,1559.0,2847.0,4095.0,3413.0,3216.0,3632.0,3173.0,4.74,-1.44,-5.43,-0.33,-0.22,-1.12,0.0,4095.0,4095.0,3599.0,4095.0,3625.0,2945.0,3142.0,3195.0,-9.64,-1.66,1.65,-0.35,-0.28,0.89,1.0,help
2418.0,1023.0,2975.0,4095.0,3491.0,3270.0,3701.0,2943.0,1.64,1.51,-0.65,-0.8,-0.34,-0.62,0.0,4095.0,4095.0,3411.0,4095.0,3670.0,2934.0,3137.0,3216.0,-3.62,0.58,3.13,-0.13,-0.61,0.61,1.0,help
2512.0,1002.0,2998.0,4095.0,3505.0,3295.0,3763.0,2931.0,2.74,2.03,-2.83,0.12,-0.12,-0.21,0.0,4095.0,4095.0,3435.0,4095.0,3673.0,2929.0,3136.0,3222.0,-5.7,1.97,4.16,0.2,0.09,0.18,1.0,help
2517.0,993.0,3015.0,4095.0,3504.0,3292.0,3783.0,2966.0,3.13,2.35,-5.08,0.26,0.19,-0.18,0.0,4095.0,4095.0,3399.0,4095.0,3650.0,2941.0,3142.0,3219.0,-8.04,1.98,4.51,-0.03,0.16,-0.14,1.0,help
2544.0,1007.0,3021.0,4095.0,3505.0,3303.0,3793.0,3008.0,2.96,1.94,-5.35,0.09,0.07,-0.23,0.0,4095.0,4095.0,3380.0,4095.0,3667.0,2943.0,3136.0,3215.0,-9.0,1.55,3.84,-0.04,-0.02,-0.11,1.0,help
2531.0,1001.0,3024.0,4095.0,3513.0,3301.0,3809.0,3071.0,3.16,1.84,-5.52,-0.0,0.08,-0.2,0.0,4095.0,4095.0,3386.0,4095.0,3647.0,2939.0,3150.0,3222.0,-9.08,1.36,3.74,-0.06,0.02,-0.03,1.0,help
2512.0,1005.0,3021.0,4095.0,3526.0,3294.0,3807.0,3117.0,3.11,2.02,-5.35,-0.01,0.02,-0.19,0.0,4095.0,4095.0,3391.0,4095.0,3647.0,2935.0,3138.0,3219.0,-8.7,1.45,4.15,-0.06,-0.0,0.0,1.0,help
2486.0,1005.0,3025.0,4095.0,3530.0,3293.0,3819.0,3139.0,2.82,1.97,-5.08,-0.06,-0.01,-0.17,0.0,4095.0,4095.0,3377.0,4095.0,3654.0,2944.0,3141.0,3217.0,-8.78,1.55,3.77,-0.07,-0.06,-0.02,1.0,help
2471.0,1007.0,3024.0,4095.0,3535.0,3297.0,3827.0,3177.0,3.05,2.14,-5.13,-0.03,0.02,-0.16,0.0,4095.0,4095.0,3387.0,4095.0,3659.0,2945.0,3151.0,3227.0,-8.6,1.52,4.02,-0.07,-0.01,-0.05,1.0,help
2465.0,993.0,3031.0,4095.0,3522.0,3280.0,3849.0,3165.0,3.09,2.08,-5.12,0.01,0.03,-0.17,0.0,4095.0,4095.0,3365.0,4095.0,3670.0,2950.0,3137.0,3220.0,-8.59,1.61,3.9,-0.06,0.03,-0.06,1.0,help
2458.0,1002.0,3051.0,4095.0,3509.0,3281.0,3855.0,3216.0,3.15,2.05,-5.16,-0.0,0.01,-0.12,0.0,4095.0,4095.0,3376.0,4095.0,3657.0,2945.0,3142.0,3226.0,-8.43,1.58,4.16,-0.07,-0.02,-0.05,1.0,help
2442.0,995.0,3041.0,4095.0,3475.0,3280.0,3865.0,3182.0,3.08,2.11,-4.99,-0.02,0.01,-0.16,0.0,4095.0,4095.0,3370.0,4095.0,3667.0,2958.0,3142.0,3225.0,-8.73,1.49,4.02,-0.07,-0.04,-0.06,1.0,help
2418.0,982.0,3089.0,4095.0,3487.0,3279.0,3877.0,3351.0,3.13,2.13,-5.22,-0.05,0.05,-0.18,0.0,4095.0,4095.0,3373.0,4095.0,3668.0,2947.0,3145.0,3229.0,-8.59,1.57,3.89,-0.07,-0.01,-0.04,1.0,help
2415.0,997.0,3095.0,4095.0,3498.0,3276.0,3886.0,3350.0,3.13,2.15,-4.95,-0.03,0.03,-0.18,0.0,4095.0,4095.0,3390.0,4095.0,3664.0,2939.0,3151.0,3237.0,-8.38,1.61,4.12,-0.11,-0.02,0.0,1.0,help
2426.0,979.0,3090.0,4095.0,3503.0,3279.0,3895.0,3375.0,3.16,2.16,-5.09,0.04,0.01,-0.16,0.0,4095.0,4095.0,3373.0,4095.0,3660.0,2946.0,3147.0,3233.0,-8.58,1.47,4.12,-0.05,-0.02,-0.03,1.0,help
2405.0,991.0,3106.0,4095.0,3473.0,3259.0,3892.0,3387.0,3.23,2.22,-5.09,0.02,-0.03,-0.16,0.0,4095.0,4095.0,3359.0,4095.0,3661.0,2941.0,3151.0,3226.0,-8.62,1.53,4.02,-0.06,-0.01,-0.02,1.0,help
1554.0,1095.0,3024.0,3980.0,3253.0,3210.0,3792.0,3194.0,3.81,0.08,-4.76,0.19,-0.22,-0.18,0.0,3805.0,4095.0,3898.0,4095.0,3600.0,2971.0,3166.0,3239.0,-10.03,-0.84,3.05,-0.07,0.09,-0.07,1.0,help
1535.0,1104.0,2991.0,4021.0,3262.0,3226.0,3819.0,3259.0,3.8,-0.8,-4.59,0.11,-0.04,-0.11,0.0,3812.0,4095.0,3907.0,4095.0,3575.0,2981.0,3173.0,3267.0,-8.32,-0.22,3.52,-0.15,0.12,-0.16,1.0,help
1598.0,1107.0,3148.0,4034.0,3245.0,3229.0,3820.0,3284.0,4.09,-0.84,-4.77,0.16,-0.11,-0.14,0.0,3795.0,4095.0,3905.0,4095.0,3630.0,2982.0,3177.0,3245.0,-8.89,-0.54,3.37,-0.06,0.0,-0.18,1.0,help
1115.0,1118.0,3329.0,4042.0,3238.0,3212.0,3776.0,3310.0,5.68,-0.68,-7.67,0.32,0.02,-0.17,0.0,3810.0,4095.0,3902.0,4095.0,3647.0,2982.0,3170.0,3082.0,-10.92,-0.37,5.05,-0.27,0.15,-0.27,1.0,help
1017.0,1136.0,3455.0,4025.0,3214.0,3138.0,3689.0,3171.0,6.45,-0.46,-9.9,-0.37,-0.38,-1.24,0.0,3825.0,4095.0,3891.0,4095.0,3681.0,2971.0,3179.0,3179.0,-15.28,-1.62,4.94,-0.27,0.25,0.26,1.0,help
1011.0,1123.0,3249.0,4095.0,3262.0,3138.0,3668.0,2923.0,2.56,-1.23,-5.18,-0.59,-0.35,-1.25,0.0,3813.0,4095.0,3879.0,4095.0,3691.0,2976.0,3187.0,3057.0,-9.07,-2.09,1.52,-0.1,-0.45,0.79,1.0,help
1503.0,1023.0,3264.0,4095.0,3293.0,3163.0,3615.0,2977.0,2.18,0.17,-2.06,-0.2,-0.45,-0.89,0.0,3828.0,4095.0,3894.0,4095.0,3700.0,2964.0,3189.0,3063.0,-5.84,-0.14,2.61,-0.18,-0.33,0.83,1.0,help
1764.0,1013.0,3181.0,4095.0,3315.0,3210.0,3728.0,2974.0,1.67,1.65,-1.21,-0.36,-0.04,-0.46,0.0,3829.0,4095.0,3911.0,4095.0,3709.0,2953.0,3197.0,3139.0,-4.41,1.48,2.95,-0.19,-0.29,0.51,1.0,help
1939.0,997.0,3139.0,4095.0,3345.0,3209.0,3719.0,3025.0,2.44,1.69,-3.62,-0.05,0.15,-0.19,0.0,3837.0,4095.0,3939.0,4095.0,3702.0,2955.0,3203.0,3152.0,-6.45,1.59,3.96,0.11,0.09,0.19,1.0,help
2028.0,1005.0,3106.0,4095.0,3365.0,3219.0,3729.0,3071.0,3.31,1.77,-5.19,0.04,0.06,-0.11,0.0,3856.0,4095.0,3961.0,4095.0,3711.0,2961.0,3195.0,3163.0,-8.79,1.56,3.73,-0.04,0.1,-0.05,1.0,help
2054.0,989.0,3111.0,4095.0,3360.0,3225.0,3741.0,3084.0,3.28,1.66,-5.63,-0.03,0.07,-0.17,0.0,3827.0,4095.0,3953.0,4095.0,3703.0,2958.0,3203.0,3125.0,-9.04,1.28,4.01,-0.07,-0.0,-0.02,1.0,help
2043.0,1007.0,3106.0,4095.0,3366.0,3226.0,3746.0,3091.0,3.23,1.6,-5.19,0.03,0.06,-0.17,0.0,3856.0,4095.0,3968.0,4095.0,3701.0,2949.0,3200.0,3119.0,-8.61,1.4,3.72,-0.08,-0.01,-0.05,1.0,help
2038.0,997.0,3110.0,4095.0,3376.0,3221.0,3767.0,3105.0,3.19,1.77,-5.09,0.12,0.02,-0.18,0.0,3834.0,4095.0,3963.0,4095.0,3705.0,2966.0,3207.0,3107.0,-8.6,1.53,3.81,-0.09,0.01,-0.03,1.0,help
2023.0,992.0,3105.0,4095.0,3389.0,3227.0,3767.0,3121.0,3.16,1.76,-5.24,-0.01,0.04,-0.18,0.0,3840.0,4095.0,3956.0,4095.0,3713.0,2966.0,3206.0,2992.0,-8.73,1.42,3.98,-0.06,-0.04,-0.03,1.0,help
2011.0,1003.0,3127.0,4095.0,3377.0,3221.0,3787.0,3123.0,3.34,1.83,-4.94,-0.06,0.15,-0.22,0.0,3839.0,4095.0,3953.0,4095.0,3702.0,2960.0,3205.0,3024.0,-8.48,1.42,3.81,-0.08,-0.06,-0.04,1.0,help
1985.0,1008.0,3138.0,4095.0,3377.0,3223.0,3792.0,3154.0,3.43,1.73,-5.32,-0.03,-0.02,-0.13,0.0,3849.0,4095.0,3950.0,4095.0,3707.0,2959.0,3202.0,3231.0,-8.81,1.36,3.96,-0.09,-0.02,-0.05,1.0,help
1982.0,1003.0,3143.0,4095.0,3381.0,3231.0,3810.0,3163.0,3.27,1.87,-5.16,-0.04,-0.0,-0.16,0.0,3844.0,4095.0,3965.0,4095.0,3698.0,2955.0,3202.0,3216.0,-8.73,1.36,4.06,-0.07,-0.01,-0.02,1.0,help
1975.0,1006.0,3136.0,4095.0,3393.0,3225.0,3809.0,3184.0,3.34,1.88,-5.03,-0.03,0.01,-0.17,0.0,3845.0,4095.0,3954.0,4095.0,3693.0,2955.0,3203.0,3195.0,-8.44,1.44,4.09,-0.08,-0.02,0.0,1.0,help
1967.0,997.0,3142.0,4095.0,3376.0,3227.0,3808.0,3195.0,3.29,1.92,-5.09,0.0,-0.03,-0.15,0.0,3823.0,4095.0,3954.0,4095.0,3702.0,2959.0,3211.0,3217.0,-8.78,1.29,3.96,-0.05,-0.02,-0.02,1.0,help
1967.0,997.0,3143.0,4095.0,3377.0,3227.0,3809.0,3202.0,3.26,1.93,-4.98,-0.03,-0.0,-0.16,0.0,3841.0,4095.0,3961.0,4095.0,3711.0,2965.0,3197.0,3215.0,-8.42,1.5,4.02,-0.07,-0.01,-0.03,1.0,help
3303.0,976.0,3440.0,3954.0,3286.0,3206.0,3760.0,3349.0,4.24,-0.67,-4.75,0.09,-0.04,-0.11,0.0,4095.0,3972.0,2697.0,4095.0,3812.0,2922.0,3188.0,3299.0,-9.03,-0.81,2.63,-0.06,-0.03,-0.1,1.0,help
2738.0,966.0,3462.0,3967.0,3280.0,3190.0,3731.0,3334.0,4.31,-0.7,-5.11,0.12,-0.07,-0.12,0.0,4095.0,3984.0,2687.0,4095.0,3819.0,2946.0,3197.0,3297.0,-9.24,-0.88,2.8,-0.04,0.01,-0.12,1.0,help
2468.0,969.0,4069.0,3977.0,3248.0,3151.0,3653.0,3175.0,7.27,-0.57,-10.53,0.29,-0.0,-0.43,0.0,4095.0,3984.0,2666.0,4095.0,3783.0,2929.0,3185.0,3255.0,-12.85,-0.88,4.98,0.04,0.12,-0.18,1.0,help
2119.0,1045.0,4095.0,4016.0,3227.0,3085.0,3543.0,3103.0,6.53,0.13,-8.97,-0.74,-0.9,-1.49,0.0,4095.0,4016.0,2531.0,4095.0,3738.0,2832.0,3173.0,3237.0,-14.8,-1.86,2.61,0.22,-0.15,0.82,1.0,help
2883.0,998.0,935.0,4095.0,3277.0,3120.0,3531.0,2941.0,2.36,-1.55,-3.83,-0.27,-0.76,-1.48,0.0,4095.0,4011.0,2234.0,4095.0,3743.0,2849.0,3157.0,3246.0,-7.9,-1.01,0.94,-0.31,-0.35,1.34,1.0,help
2963.0,975.0,2879.0,4095.0,3273.0,3153.0,3630.0,3045.0,2.14,0.85,-1.71,-0.4,-0.47,-0.95,0.0,4095.0,4013.0,2112.0,4095.0,3754.0,2874.0,3154.0,3261.0,-5.15,0.24,1.97,-0.15,-0.65,0.96,1.0,help
2951.0,957.0,3403.0,4095.0,3294.0,3184.0,3695.0,3007.0,1.99,1.83,-1.68,-0.35,-0.13,-0.46,0.0,4095.0,4011.0,2143.0,4095.0,3759.0,2880.0,3152.0,3269.0,-4.79,2.38,3.16,0.01,-0.29,0.49,1.0,help
2933.0,966.0,3333.0,4095.0,3318.0,3187.0,3671.0,3017.0,2.66,2.45,-3.81,0.08,0.06,-0.09,0.0,4091.0,4021.0,2155.0,4095.0,3729.0,2895.0,3160.0,3245.0,-6.96,2.5,3.92,-0.01,0.18,-0.0,1.0,help
2933.0,976.0,3312.0,4095.0,3319.0,3193.0,3696.0,3041.0,3.02,2.06,-5.4,0.21,0.01,-0.05,0.0,4095.0,4003.0,2167.0,4095.0,3751.0,2896.0,3166.0,3248.0,-8.71,2.2,3.75,-0.09,0.22,-0.16,1.0,help
2896.0,965.0,3299.0,4095.0,3333.0,3185.0,3727.0,3097.0,2.97,2.07,-5.38,0.18,-0.1,-0.09,0.0,4095.0,4047.0,2192.0,4095.0,3759.0,2896.0,3177.0,3259.0,-8.65,2.05,3.85,-0.1,0.22,-0.15,1.0,help
2876.0,963.0,3271.0,4095.0,3345.0,3186.0,3707.0,3127.0,2.9,2.05,-5.24,0.08,0.01,-0.14,0.0,4095.0,4032.0,2203.0,4095.0,3771.0,2899.0,3178.0,3293.0,-8.87,2.2,3.51,-0.06,0.11,-0.12,1.0,help
2834.0,961.0,3273.0,4095.0,3354.0,3184.0,3718.0,3152.0,3.0,1.81,-5.43,-0.02,-0.0,-0.16,0.0,4095.0,4052.0,2192.0,4095.0,3760.0,2899.0,3164.0,3281.0,-8.94,2.02,3.39,-0.08,0.03,-0.06,1.0,help
2843.0,963.0,3269.0,4095.0,3370.0,3191.0,3713.0,3157.0,2.93,1.92,-5.19,-0.01,-0.02,-0.18,0.0,4095.0,4027.0,2181.0,4095.0,3766.0,2898.0,3175.0,3303.0,-8.74,2.07,3.54,-0.08,-0.03,-0.04,1.0,help
2834.0,966.0,3278.0,4095.0,3383.0,3195.0,3715.0,3151.0,2.69,1.92,-4.98,0.03,0.02,-0.18,0.0,4095.0,4036.0,2182.0,4095.0,3761.0,2902.0,3193.0,3293.0,-8.6,1.92,3.38,-0.1,-0.0,-0.06,1.0,help
2822.0,959.0,3283.0,4095.0,3392.0,3191.0,3739.0,3158.0,2.78,2.05,-5.17,-0.01,-0.01,-0.17,0.0,4086.0,4005.0,2173.0,4095.0,3766.0,2903.0,3177.0,3289.0,-8.85,1.97,3.47,-0.09,0.04,-0.03,1.0,help
2813.0,957.0,3280.0,4095.0,3380.0,3185.0,3723.0,3152.0,2.65,1.89,-5.3,0.03,0.02,-0.2,0.0,4090.0,4014.0,2142.0,4095.0,3771.0,2899.0,3169.0,3280.0,-8.85,1.95,3.57,-0.1,0.02,-0.02,1.0,help
2807.0,956.0,3280.0,4095.0,3394.0,3189.0,3749.0,3158.0,2.94,2.05,-5.04,-0.02,0.01,-0.19,0.0,4095.0,4032.0,2133.0,4095.0,3760.0,2899.0,3182.0,3289.0,-8.71,2.05,3.48,-0.1,0.02,-0.0,1.0,help
2814.0,957.0,3281.0,4095.0,3398.0,3191.0,3739.0,3152.0,2.86,1.94,-5.21,0.04,0.01,-0.21,0.0,4095.0,4022.0,2145.0,4095.0,3776.0,2910.0,3179.0,3287.0,-8.64,1.89,3.53,-0.12,0.06,-0.03,1.0,help
2805.0,964.0,3278.0,4095.0,3408.0,3183.0,3729.0,3131.0,2.87,1.97,-5.21,-0.02,0.0,-0.16,0.0,4095.0,4017.0,2130.0,4095.0,3790.0,2915.0,3184.0,3298.0,-8.8,1.9,3.44,-0.08,-0.05,-0.03,1.0,help
2799.0,950.0,3264.0,4095.0,3407.0,3182.0,3728.0,3105.0,2.86,2.0,-5.22,-0.01,-0.02,-0.15,0.0,4095.0,4009.0,2137.0,4095.0,3791.0,2918.0,3183.0,3299.0,-8.79,1.91,3.45,-0.05,0.0,-0.02,1.0,help
3137.0,960.0,2823.0,4095.0,3249.0,2960.0,3771.0,3259.0,8.75,-0.49,6.98,0.08,0.02,-0.4,0.0,2957.0,3169.0,3328.0,3213.0,4095.0,3519.0,4069.0,4095.0,-8.82,-0.32,4.86,0.01,0.25,0.11,1.0,help
3123.0,965.0,2817.0,4095.0,3253.0,2951.0,3778.0,3264.0,8.66,0.17,6.83,-0.01,0.22,-0.05,0.0,3189.0,3184.0,3462.0,3027.0,4095.0,3661.0,4095.0,4095.0,-8.59,0.02,5.4,-0.26,-0.01,-0.01,1.0,help
3134.0,999.0,2861.0,4095.0,3284.0,2979.0,3779.0,3285.0,7.93,0.95,6.02,-0.17,-1.73,0.09,0.0,1012.0,3259.0,3739.0,3181.0,4095.0,3405.0,3740.0,3879.0,-13.18,1.39,1.24,-0.74,2.51,0.94,1.0,help
3120.0,960.0,2875.0,4095.0,3152.0,3024.0,3749.0,3426.0,8.11,0.43,-4.45,-0.63,-5.85,-0.91,0.0,3657.0,3245.0,3345.0,3350.0,3728.0,2809.0,3005.0,2965.0,-6.93,1.44,2.86,-0.48,0.25,2.0,1.0,help
3149.0,944.0,2815.0,4095.0,3115.0,3067.0,3742.0,3479.0,5.93,0.4,-4.93,-0.23,-1.75,-0.43,0.0,3583.0,3261.0,3269.0,3457.0,3105.0,2621.0,2926.0,1118.0,-3.34,1.09,4.51,-0.84,1.0,0.27,1.0,help
3152.0,947.0,2756.0,4095.0,3118.0,3087.0,3739.0,3291.0,3.48,-1.2,4.59,0.81,-1.72,-0.45,0.0,3342.0,3214.0,3392.0,3690.0,2908.0,2423.0,2832.0,717.0,-7.3,2.56,1.83,0.12,0.13,-1.13,1.0,help
3110.0,953.0,2865.0,4095.0,3104.0,3048.0,3602.0,3117.0,2.95,2.61,-6.9,1.06,0.07,0.03,0.0,3328.0,3216.0,3429.0,3678.0,2963.0,2429.0,2832.0,842.0,-15.76,1.5,3.52,-0.15,0.13,-0.36,1.0,help
3071.0,960.0,2800.0,4095.0,3103.0,2989.0,3473.0,3008.0,5.06,1.06,-15.68,-0.44,0.53,-0.19,0.0,3314.0,3215.0,3459.0,3863.0,2964.0,2410.0,2849.0,1354.0,-14.51,-0.35,0.06,-0.33,0.27,1.44,1.0,help
3163.0,956.0,2495.0,4095.0,3159.0,3015.0,3527.0,3102.0,1.59,0.8,-2.24,-2.14,0.51,-0.59,0.0,3310.0,3218.0,3482.0,3920.0,2968.0,2455.0,2855.0,970.0,0.79,2.71,2.15,-0.23,-0.5,0.86,1.0,help
3221.0,1157.0,3658.0,4095.0,3248.0,3059.0,3521.0,3102.0,2.43,2.69,-4.44,0.44,-0.08,-0.18,0.0,3299.0,3211.0,3472.0,3952.0,2928.0,2481.0,2864.0,976.0,-5.55,2.81,2.28,0.08,0.28,-0.22,1.0,help
3202.0,1793.0,3568.0,4095.0,3262.0,3087.0,3651.0,3194.0,3.69,2.76,-6.28,0.01,-0.04,-0.17,0.0,3298.0,3202.0,3486.0,3899.0,2960.0,2507.0,2879.0,1573.0,-9.29,2.72,1.99,-0.03,-0.06,0.05,1.0,help
3216.0,2302.0,3355.0,4095.0,3246.0,3106.0,3684.0,3280.0,3.01,2.55,-5.03,0.03,0.08,-0.2,0.0,3295.0,3216.0,3485.0,3904.0,2975.0,2515.0,2881.0,1633.0,-8.5,2.68,1.62,-0.06,-0.04,0.01,1.0,help
3217.0,2322.0,3344.0,4095.0,3248.0,3102.0,3726.0,3332.0,3.24,2.67,-5.17,-0.02,0.09,-0.18,0.0,3305.0,3209.0,3493.0,3927.0,3001.0,2524.0,2893.0,1618.0,-9.11,2.66,1.68,-0.09,-0.03,-0.01,1.0,help
3216.0,2323.0,3302.0,4095.0,3273.0,3088.0,3640.0,3344.0,2.8,2.63,-5.36,-0.03,0.08,-0.23,0.0,3295.0,3207.0,3489.0,3949.0,3027.0,2531.0,2880.0,1603.0,-9.09,2.73,1.47,-0.07,-0.0,-0.03,1.0,help
3214.0,2304.0,3341.0,4095.0,3251.0,3088.0,3658.0,3391.0,3.08,2.66,-5.05,0.02,0.03,-0.17,0.0,3312.0,3209.0,3487.0,3934.0,3031.0,2532.0,2892.0,1596.0,-8.87,2.77,1.76,-0.06,-0.0,-0.06,1.0,help
3216.0,2109.0,3619.0,4095.0,3254.0,3071.0,3723.0,3535.0,3.28,2.9,-5.22,0.04,-0.05,-0.18,0.0,3299.0,3203.0,3485.0,3937.0,3071.0,2532.0,2896.0,2448.0,-9.14,2.8,1.95,-0.01,0.04,-0.05,1.0,help
3215.0,2103.0,3583.0,4095.0,3242.0,3071.0,3729.0,3527.0,3.08,2.84,-5.0,0.01,0.0,-0.17,0.0,3286.0,3207.0,3500.0,3952.0,3086.0,2544.0,2896.0,2448.0,-9.05,2.83,1.49,-0.03,0.01,-0.02,1.0,help
3229.0,2080.0,3559.0,4095.0,3245.0,3063.0,3725.0,3504.0,3.03,2.85,-4.98,0.01,0.02,-0.15,0.0,3305.0,3209.0,3478.0,3963.0,3069.0,2550.0,2896.0,2442.0,-8.73,2.83,1.64,-0.07,-0.04,-0.03,1.0,help
3190.0,2062.0,3498.0,4095.0,3248.0,3071.0,3718.0,3504.0,3.17,2.99,-5.01,0.05,0.03,-0.17,0.0,3299.0,3213.0,3488.0,3959.0,3088.0,2551.0,2896.0,2426.0,-8.94,2.88,1.63,-0.01,0.09,-0.05,1.0,help
3210.0,1837.0,3497.0,4095.0,3249.0,3086.0,3717.0,3501.0,3.22,2.97,-5.02,0.04,0.0,-0.16,0.0,3303.0,3206.0,3497.0,3956.0,3088.0,2555.0,2898.0,2432.0,-8.98,2.98,1.59,-0.06,-0.0,-0.03,1.0,help
3163.0,966.0,3026.0,3808.0,3195.0,2810.0,3509.0,3117.0,9.51,0.12,6.35,-0.48,-0.41,-0.07,0.0,2389.0,3346.0,2540.0,3339.0,4095.0,3889.0,4095.0,4095.0,-7.28,-1.83,6.91,-0.15,0.51,0.12,1.0,help
3163.0,960.0,3023.0,3901.0,3195.0,2805.0,3526.0,3135.0,8.57,-2.37,8.91,0.16,0.98,0.12,0.0,2970.0,3440.0,3057.0,3369.0,4095.0,3790.0,4095.0,4095.0,-4.04,0.06,5.53,0.21,0.01,-0.15,1.0,help
3147.0,1082.0,3019.0,4095.0,3118.0,2803.0,3479.0,3149.0,11.13,1.33,3.22,-0.23,-3.71,-0.19,0.0,930.0,3539.0,2967.0,3263.0,3861.0,3095.0,3521.0,3365.0,-12.79,-0.24,-0.27,-1.28,2.72,2.29,1.0,help
3127.0,942.0,2522.0,4095.0,3109.0,2848.0,3508.0,3201.0,7.52,-2.29,-1.65,-2.07,-6.96,-1.17,0.0,3523.0,3391.0,4095.0,3664.0,3127.0,2610.0,2979.0,2416.0,-8.71,-2.05,6.21,0.14,-0.18,0.81,1.0,help
3218.0,956.0,2988.0,4095.0,2997.0,2825.0,3389.0,2902.0,2.13,0.33,-5.53,1.61,0.05,-0.08,0.0,3367.0,3346.0,4073.0,3690.0,3025.0,2450.0,2893.0,2624.0,-8.03,1.6,-0.13,0.14,1.35,-1.01,1.0,help
3150.0,964.0,2975.0,4095.0,2944.0,2820.0,3402.0,2931.0,3.51,-1.05,-7.08,-1.78,0.29,-0.99,0.0,3325.0,3313.0,4095.0,3792.0,3027.0,2469.0,2879.0,2496.0,-16.72,1.07,2.25,-0.08,-0.12,0.85,1.0,help
3161.0,971.0,3043.0,4095.0,2998.0,2811.0,3376.0,2738.0,1.26,1.2,1.82,0.1,-0.14,-0.69,0.0,3344.0,3319.0,4095.0,3915.0,2986.0,2507.0,2887.0,2506.0,-3.01,1.27,-0.45,-0.12,0.13,1.19,1.0,help
3161.0,987.0,3011.0,4095.0,3047.0,2813.0,3353.0,2843.0,2.62,2.27,-5.31,-0.19,-0.07,-0.08,0.0,3325.0,3313.0,4095.0,3959.0,3021.0,2537.0,2901.0,2542.0,-8.48,3.59,1.92,-0.03,0.1,-0.12,1.0,help
3162.0,982.0,3009.0,4095.0,3070.0,2815.0,3386.0,2859.0,2.95,1.79,-5.42,-0.02,-0.03,-0.16,0.0,3339.0,3311.0,4095.0,3945.0,3039.0,2558.0,2907.0,2559.0,-8.98,3.11,1.92,-0.02,0.15,-0.05,1.0,help
3157.0,991.0,2995.0,4095.0,3094.0,2813.0,3375.0,2875.0,2.92,1.54,-5.29,-0.16,0.06,-0.16,0.0,3326.0,3308.0,4095.0,3959.0,3067.0,2559.0,2915.0,2594.0,-9.34,3.15,1.18,-0.01,0.09,0.06,1.0,help
3167.0,987.0,3008.0,4095.0,3098.0,2831.0,3386.0,2896.0,3.06,1.73,-5.19,-0.07,-0.07,-0.14,0.0,3334.0,3309.0,4095.0,3952.0,3081.0,2583.0,2909.0,2527.0,-9.17,3.05,1.27,-0.04,-0.07,-0.02,1.0,help
3170.0,1055.0,2993.0,4095.0,3088.0,2816.0,3409.0,2915.0,3.23,2.14,-5.14,0.07,0.03,-0.14,0.0,3341.0,3314.0,4095.0,3955.0,3082.0,2582.0,2919.0,2587.0,-8.78,3.23,1.52,-0.09,0.03,-0.07,1.0,help
3175.0,1070.0,2995.0,4095.0,3088.0,2817.0,3404.0,2917.0,3.28,2.21,-5.29,0.01,-0.02,-0.15,0.0,3344.0,3311.0,4095.0,3897.0,3091.0,2593.0,2925.0,2623.0,-8.84,3.18,1.48,-0.09,-0.02,-0.03,1.0,help
3157.0,1051.0,2999.0,4095.0,3088.0,2811.0,3419.0,2949.0,3.34,2.04,-5.21,0.09,-0.07,-0.14,0.0,3340.0,3315.0,4095.0,3887.0,3097.0,2608.0,2925.0,2628.0,-9.03,3.07,1.18,-0.08,-0.0,-0.08,1.0,help
3170.0,1040.0,3003.0,4095.0,3117.0,2825.0,3413.0,2948.0,3.22,1.93,-5.14,0.07,-0.04,-0.15,0.0,3344.0,3315.0,4095.0,3910.0,3093.0,2610.0,2926.0,2619.0,-8.89,2.96,1.31,-0.04,0.05,-0.03,1.0,help
3170.0,1039.0,2981.0,4095.0,3110.0,2829.0,3412.0,2919.0,3.37,1.84,-5.33,-0.02,0.0,-0.12,0.0,3331.0,3317.0,4095.0,3952.0,3098.0,2608.0,2933.0,2678.0,-8.84,2.99,1.28,-0.07,0.0,-0.08,1.0,help
3157.0,1041.0,2981.0,4095.0,3110.0,2813.0,3425.0,2943.0,3.2,1.95,-5.33,0.02,0.02,-0.12,0.0,3328.0,3324.0,4095.0,3942.0,3111.0,2617.0,2929.0,2694.0,-9.13,3.06,1.13,-0.08,0.04,-0.05,1.0,help
3169.0,1044.0,2988.0,4095.0,3090.0,2846.0,3453.0,2927.0,3.16,1.85,-5.08,0.05,0.03,-0.15,0.0,3325.0,3311.0,4095.0,3988.0,3102.0,2615.0,2927.0,2706.0,-8.64,2.93,1.33,-0.06,-0.05,-0.0,1.0,help
3194.0,1051.0,2979.0,4095.0,3093.0,2832.0,3447.0,2923.0,3.14,1.97,-5.22,0.01,0.03,-0.16,0.0,3329.0,3312.0,4095.0,3990.0,3103.0,2617.0,2933.0,2716.0,-8.98,3.03,1.3,-0.03,0.04,-0.03,1.0,help
3185.0,1043.0,2965.0,4095.0,3107.0,2843.0,3454.0,2938.0,3.18,2.14,-4.87,-0.02,0.18,-0.16,0.0,3323.0,3316.0,4095.0,4011.0,3107.0,2619.0,2930.0,2735.0,-8.91,2.99,1.19,-0.07,-0.0,-0.04,1.0,help
3200.0,963.0,2753.0,3829.0,2915.0,2708.0,3474.0,3053.0,9.73,-1.05,3.34,0.15,0.03,-0.23,0.0,953.0,3440.0,4095.0,3027.0,4095.0,3475.0,4095.0,4095.0,-9.05,-0.68,3.79,-0.03,0.11,0.0,1.0,help
3188.0,962.0,2713.0,3812.0,2909.0,2718.0,3521.0,3091.0,9.17,-0.57,3.13,-0.11,0.11,-0.13,0.0,962.0,3460.0,4095.0,3030.0,4095.0,3487.0,4095.0,4095.0,-8.67,-0.86,4.26,-0.35,0.07,0.04,1.0,help
3184.0,953.0,2890.0,4095.0,2881.0,2787.0,3596.0,3199.0,5.04,-0.15,3.79,0.06,-0.99,-0.03,0.0,935.0,3440.0,4070.0,3071.0,4095.0,3659.0,4095.0,4095.0,-8.71,-0.72,4.19,-0.43,0.55,0.4,1.0,help
3163.0,948.0,2863.0,4095.0,2987.0,2803.0,3559.0,3181.0,10.16,-1.16,-3.54,-0.46,-4.72,-0.3,0.0,1971.0,3294.0,3739.0,3413.0,4095.0,3407.0,3742.0,3094.0,-10.9,1.15,1.43,-0.55,1.64,0.96,1.0,help
3190.0,978.0,2857.0,4095.0,2909.0,2771.0,3483.0,3237.0,6.18,-1.07,-5.74,-0.43,-4.27,-0.22,0.0,1319.0,3295.0,3325.0,3476.0,4017.0,3107.0,3381.0,2930.0,-7.72,0.69,2.96,-0.08,-0.56,1.13,1.0,help
3184.0,943.0,2610.0,4095.0,2898.0,2886.0,3517.0,3392.0,4.43,-0.16,-5.59,-0.29,-0.49,-0.55,0.0,3406.0,3248.0,3309.0,3395.0,3018.0,2521.0,2891.0,2335.0,-7.56,1.0,1.01,-0.34,0.62,-0.89,1.0,help
2737.0,944.0,2720.0,4095.0,2880.0,2944.0,3633.0,3184.0,3.02,0.36,-7.32,-1.08,-1.68,0.04,0.0,3346.0,3233.0,3465.0,3581.0,3104.0,2554.0,2879.0,2635.0,-11.87,0.56,2.38,-0.17,0.23,-0.01,1.0,help
2975.0,965.0,2672.0,4095.0,2891.0,2859.0,3451.0,3067.0,3.83,-0.52,-12.02,-0.3,0.27,-0.47,0.0,3342.0,3231.0,3465.0,3582.0,3083.0,2559.0,2884.0,2711.0,-13.06,-0.27,2.15,0.01,0.47,0.02,1.0,help
3175.0,1023.0,2676.0,4095.0,2918.0,2845.0,3323.0,2961.0,3.02,-0.24,-6.58,-1.04,0.65,-0.6,0.0,3341.0,3234.0,3463.0,3675.0,3127.0,2583.0,2891.0,2705.0,-13.41,-0.72,-0.12,-0.22,0.45,0.98,1.0,help
3195.0,1009.0,3281.0,4095.0,2992.0,2870.0,3279.0,2874.0,1.72,2.27,1.6,-0.59,0.52,-0.47,0.0,3334.0,3239.0,3486.0,3682.0,3148.0,2558.0,2898.0,2750.0,-5.38,2.41,2.59,-0.08,0.11,-0.01,1.0,help
3226.0,983.0,3706.0,4095.0,3023.0,2910.0,3306.0,2958.0,3.43,2.26,-5.6,-0.07,-0.11,-0.11,0.0,3331.0,3233.0,3490.0,3693.0,3148.0,2559.0,2897.0,2694.0,-9.85,2.3,0.84,-0.16,-0.04,-0.06,1.0,help
3262.0,982.0,3568.0,4095.0,3031.0,2915.0,3306.0,3009.0,3.19,1.82,-5.04,-0.01,-0.02,-0.17,0.0,3330.0,3229.0,3478.0,3696.0,3142.0,2559.0,2898.0,2747.0,-9.24,2.53,0.86,-0.05,0.06,0.02,1.0,help
3267.0,977.0,3428.0,4095.0,3031.0,2903.0,3345.0,2992.0,3.06,1.87,-5.58,0.17,0.06,-0.18,0.0,3331.0,3219.0,3483.0,3698.0,3146.0,2559.0,2899.0,2787.0,-9.04,2.83,0.91,-0.1,-0.14,-0.04,1.0,help
3275.0,987.0,3426.0,4095.0,3056.0,2917.0,3371.0,2992.0,3.25,1.94,-5.29,0.02,0.01,-0.14,0.0,3315.0,3219.0,3501.0,3713.0,3152.0,2582.0,2910.0,2803.0,-8.96,2.65,0.94,-0.07,0.01,-0.05,1.0,help
3259.0,985.0,3408.0,4095.0,3053.0,2914.0,3373.0,2965.0,3.49,1.88,-5.39,0.01,0.01,-0.15,0.0,3328.0,3226.0,3489.0,3722.0,3162.0,2590.0,2922.0,2810.0,-9.11,2.7,0.66,-0.05,0.0,-0.04,1.0,help
3295.0,983.0,3463.0,4095.0,3037.0,2920.0,3377.0,2999.0,3.48,1.95,-5.1,0.01,0.02,-0.13,0.0,3331.0,3239.0,3479.0,3711.0,3176.0,2599.0,2928.0,2818.0,-9.02,2.61,0.84,-0.06,0.02,-0.03,1.0,help
3280.0,989.0,3445.0,4095.0,3058.0,2901.0,3403.0,3002.0,3.4,2.01,-5.18,-0.06,-0.01,-0.16,0.0,3328.0,3228.0,3489.0,3711.0,3178.0,2607.0,2923.0,2822.0,-9.01,2.7,0.89,-0.03,-0.01,-0.04,1.0,help
3267.0,978.0,3398.0,4095.0,3045.0,2916.0,3408.0,3011.0,3.48,1.98,-5.11,0.0,0.03,-0.14,0.0,3330.0,3225.0,3487.0,3742.0,3179.0,2608.0,2931.0,2829.0,-9.05,2.73,0.76,-0.06,-0.06,-0.02,1.0,help
3280.0,995.0,3394.0,4095.0,3056.0,2909.0,3409.0,3003.0,3.42,2.0,-5.3,0.03,0.0,-0.18,0.0,3323.0,3227.0,3497.0,3727.0,3185.0,2608.0,2928.0,2836.0,-9.07,2.69,0.84,-0.09,-0.05,-0.02,1.0,help
3274.0,985.0,3191.0,4095.0,3056.0,2928.0,3413.0,3007.0,3.51,2.07,-5.2,0.02,0.01,-0.16,0.0,3339.0,3232.0,3483.0,3728.0,3186.0,2617.0,2937.0,2841.0,-8.92,2.68,0.97,-0.09,-0.01,-0.08,1.0,help
3120.0,982.0,2736.0,3942.0,3131.0,2942.0,3799.0,3261.0,9.35,-0.81,4.13,-0.12,1.59,0.26,0.0,963.0,3303.0,2638.0,3358.0,4095.0,4013.0,4095.0,4095.0,-10.11,-3.72,4.11,-0.25,-0.13,-0.06,1.0,help
3106.0,976.0,2839.0,4082.0,3159.0,2964.0,3877.0,3338.0,9.45,-3.0,5.44,-1.09,-2.35,0.96,0.0,1098.0,3316.0,1909.0,3566.0,4095.0,4071.0,4095.0,4032.0,-11.45,-3.03,2.87,-0.41,1.19,1.05,1.0,help
3115.0,3225.0,2851.0,4095.0,3139.0,3020.0,3821.0,3315.0,11.9,-3.9,-4.94,0.16,-8.73,-1.47,0.0,943.0,3179.0,4078.0,3568.0,4016.0,3022.0,3504.0,2928.0,-5.53,0.7,0.85,-0.49,1.03,1.49,1.0,help
3246.0,2277.0,2119.0,4095.0,2889.0,2861.0,3360.0,3006.0,4.16,-1.54,-3.0,-1.06,-1.53,-0.03,0.0,1678.0,3330.0,3899.0,3737.0,3758.0,2813.0,3259.0,2874.0,-10.62,-1.09,3.32,0.32,0.24,-0.01,1.0,help
3310.0,949.0,2496.0,4095.0,2887.0,2861.0,3342.0,2816.0,2.45,0.23,-6.31,-0.25,0.17,-0.25,0.0,3617.0,3344.0,3583.0,3831.0,3243.0,2419.0,2902.0,2693.0,-8.62,1.51,2.05,0.67,-0.01,0.02,1.0,help
3301.0,945.0,2636.0,4095.0,2829.0,2838.0,3282.0,2736.0,1.71,0.09,-5.53,0.34,0.08,0.12,0.0,3570.0,3302.0,3454.0,3823.0,3122.0,2461.0,2851.0,2256.0,-8.74,0.79,2.57,-0.33,0.04,-0.25,1.0,help
3392.0,2151.0,3024.0,4095.0,2754.0,2879.0,3345.0,2769.0,2.64,-0.03,-7.19,0.13,-0.22,-0.3,0.0,3558.0,3294.0,3470.0,3858.0,3136.0,2475.0,2864.0,2480.0,-9.66,1.16,2.48,-0.19,-0.14,-0.14,1.0,help
3115.0,3186.0,1617.0,4095.0,2711.0,2895.0,3429.0,2864.0,3.76,0.04,-12.44,-1.19,0.17,-0.55,0.0,3531.0,3295.0,3459.0,3868.0,3122.0,2483.0,2871.0,2479.0,-14.17,0.77,3.7,-0.12,0.17,0.14,1.0,help
3159.0,3178.0,2422.0,4095.0,2983.0,2892.0,3395.0,2886.0,1.25,0.6,-2.79,-1.82,-0.18,-0.92,0.0,3493.0,3307.0,3488.0,3927.0,3083.0,2469.0,2875.0,2641.0,-0.83,2.85,0.88,-0.04,-0.19,0.7,1.0,help
3313.0,3322.0,2770.0,4095.0,3051.0,2913.0,3376.0,2967.0,2.35,3.38,-5.2,0.31,0.04,-0.14,0.0,3492.0,3303.0,3494.0,3847.0,3108.0,2480.0,2885.0,2643.0,-7.76,2.9,1.57,0.0,0.13,-0.09,1.0,help
3293.0,3302.0,2768.0,4095.0,3030.0,2905.0,3390.0,2960.0,2.58,3.15,-4.83,0.08,0.07,-0.23,0.0,3504.0,3309.0,3504.0,3967.0,3119.0,2503.0,2895.0,2659.0,-8.33,3.02,1.68,-0.13,0.01,-0.02,1.0,help
3280.0,3260.0,2780.0,4095.0,3061.0,2915.0,3389.0,2975.0,2.56,3.13,-5.09,0.05,-0.0,-0.21,0.0,3505.0,3301.0,3498.0,3989.0,3127.0,2508.0,2896.0,2671.0,-8.79,2.76,1.67,-0.15,0.09,-0.07,1.0,help
3297.0,3226.0,2766.0,4095.0,3039.0,2909.0,3440.0,2976.0,2.76,3.13,-5.06,0.09,-0.03,-0.12,0.0,3504.0,3297.0,3499.0,4027.0,3118.0,2508.0,2896.0,2671.0,-8.66,2.79,1.7,-0.06,-0.04,-0.08,1.0,help
3309.0,3200.0,2759.0,4095.0,3056.0,2885.0,3434.0,2975.0,2.38,2.9,-5.36,0.03,0.0,-0.13,0.0,3496.0,3294.0,3499.0,4065.0,3134.0,2502.0,2897.0,2668.0,-9.22,2.76,1.56,-0.04,0.05,-0.05,1.0,help
3255.0,3167.0,2775.0,4095.0,3045.0,2880.0,3410.0,2960.0,2.55,3.01,-5.09,0.03,-0.02,-0.13,0.0,3493.0,3309.0,3492.0,4065.0,3131.0,2511.0,2896.0,2668.0,-9.17,2.7,1.39,0.03,0.06,-0.0,1.0,help
3268.0,3165.0,2753.0,4095.0,3061.0,2878.0,3436.0,2960.0,2.65,2.91,-5.31,-0.01,0.0,-0.12,0.0,3504.0,3311.0,3515.0,4066.0,3125.0,2511.0,2903.0,2672.0,-8.8,2.85,1.7,-0.05,-0.02,-0.06,1.0,help
3283.0,3136.0,2775.0,4095.0,3034.0,2890.0,3430.0,2960.0,2.67,3.06,-4.97,-0.0,0.01,-0.13,0.0,3498.0,3301.0,3495.0,4050.0,3123.0,2514.0,2899.0,2670.0,-8.92,2.93,1.3,-0.05,-0.02,-0.03,1.0,help
3258.0,3127.0,2797.0,4095.0,3049.0,2875.0,3440.0,2943.0,2.6,2.91,-5.26,0.02,-0.04,-0.13,0.0,3511.0,3315.0,3501.0,4050.0,3137.0,2521.0,2912.0,2679.0,-9.09,2.88,1.59,-0.02,-0.04,-0.05,1.0,help
3279.0,3132.0,2800.0,4095.0,3037.0,2896.0,3439.0,2943.0,2.58,2.99,-5.13,0.03,-0.05,-0.13,0.0,3515.0,3309.0,3505.0,4061.0,3132.0,2522.0,2909.0,2686.0,-8.99,2.86,1.49,-0.02,0.01,-0.04,1.0,help
3280.0,3135.0,2778.0,4095.0,3038.0,2880.0,3429.0,2944.0,2.62,3.02,-5.15,0.03,-0.05,-0.12,0.0,3489.0,3307.0,3499.0,4066.0,3129.0,2522.0,2909.0,2689.0,-8.84,2.81,1.67,-0.02,-0.05,-0.04,1.0,help
3159.0,945.0,3022.0,3920.0,3024.0,2785.0,3505.0,3105.0,9.01,-1.72,3.62,-0.36,-2.29,0.11,0.0,3650.0,3415.0,2913.0,3485.0,4095.0,3775.0,4095.0,3605.0,-6.64,-2.96,6.97,0.07,1.12,-0.24,1.0,help
3141.0,944.0,3037.0,4048.0,3039.0,2773.0,3520.0,3140.0,9.85,-2.99,2.98,-0.6,0.21,0.72,0.0,3037.0,3200.0,3429.0,3847.0,4095.0,3943.0,4095.0,4078.0,-9.24,-4.74,9.34,1.16,0.75,0.75,1.0,help
3137.0,958.0,3290.0,4095.0,2979.0,2761.0,3479.0,3181.0,7.98,-2.2,-4.18,-1.11,-4.11,-0.84,0.0,3972.0,3201.0,3297.0,3583.0,4091.0,3282.0,3520.0,3114.0,-8.41,0.48,7.04,-0.6,0.96,1.82,1.0,help
3162.0,947.0,2901.0,4095.0,2933.0,2799.0,3444.0,3183.0,6.41,-2.05,-3.73,-1.19,-3.0,-0.36,0.0,3435.0,3184.0,3142.0,3611.0,3314.0,2703.0,2995.0,2075.0,-6.0,-0.46,4.53,0.02,1.8,0.3,1.0,help
3169.0,934.0,2543.0,4095.0,2673.0,2832.0,3387.0,2864.0,3.39,-1.25,4.64,0.21,-1.18,-0.27,0.0,3401.0,3190.0,3170.0,3581.0,3058.0,2525.0,2915.0,2626.0,-7.76,-0.04,3.49,-0.59,0.58,0.08,1.0,help
3213.0,959.0,2937.0,4095.0,2803.0,2797.0,3287.0,2795.0,2.6,0.85,-5.84,0.09,-0.04,-0.32,0.0,3387.0,3180.0,3193.0,3629.0,3141.0,2507.0,2886.0,2699.0,-6.86,1.58,2.95,-0.35,-0.01,-0.45,1.0,help
3247.0,940.0,3007.0,4095.0,2863.0,2787.0,3264.0,2774.0,1.32,0.51,-5.84,-0.04,-0.1,-0.21,0.0,3390.0,3187.0,3199.0,3725.0,3133.0,2517.0,2891.0,2769.0,-10.08,1.36,2.78,-0.02,0.22,-0.16,1.0,help
3121.0,3323.0,2556.0,4095.0,2969.0,2954.0,3605.0,3142.0,4.01,-0.1,-13.02,-1.22,0.5,-0.82,0.0,3385.0,3190.0,3207.0,3811.0,3151.0,2559.0,2903.0,2814.0,-17.8,-0.21,1.76,-0.2,0.34,0.53,1.0,help
3152.0,2603.0,2546.0,4095.0,3083.0,2959.0,3531.0,2949.0,1.09,1.47,0.65,-1.27,-0.32,-0.72,0.0,3390.0,3184.0,3209.0,3978.0,3137.0,2595.0,2906.0,2845.0,-2.09,2.55,2.38,-0.1,-0.2,0.24,1.0,help
3187.0,3141.0,2445.0,4095.0,3133.0,2986.0,3614.0,3055.0,2.66,2.99,-5.91,0.3,0.01,-0.23,0.0,3386.0,3191.0,3201.0,3945.0,3149.0,2607.0,2915.0,2832.0,-8.49,2.75,1.35,-0.1,0.16,-0.17,1.0,help
3167.0,3205.0,2610.0,4095.0,3136.0,2973.0,3628.0,3151.0,2.47,3.17,-5.31,-0.03,0.06,-0.29,0.0,3399.0,3184.0,3207.0,3952.0,3139.0,2611.0,2923.0,2822.0,-9.57,3.04,1.1,-0.2,0.03,0.0,1.0,help
3182.0,3233.0,2663.0,4095.0,3121.0,2938.0,3613.0,3179.0,2.43,2.97,-4.85,0.06,0.02,-0.23,0.0,3397.0,3187.0,3214.0,3980.0,3120.0,2621.0,2919.0,2818.0,-8.66,2.98,1.53,-0.15,0.03,0.03,1.0,help
3181.0,3247.0,2693.0,4095.0,3125.0,2937.0,3623.0,3206.0,2.73,3.02,-5.23,0.04,0.01,-0.19,0.0,3372.0,3185.0,3200.0,3973.0,3153.0,2627.0,2933.0,2833.0,-9.07,3.02,1.18,-0.07,0.06,-0.1,1.0,help
3188.0,3233.0,2649.0,4095.0,3138.0,2941.0,3623.0,3219.0,2.54,2.89,-5.0,0.03,0.02,-0.15,0.0,3376.0,3186.0,3205.0,3983.0,3157.0,2629.0,2931.0,2835.0,-8.83,2.99,1.31,-0.07,-0.01,-0.05,1.0,help
3199.0,3236.0,2640.0,4095.0,3136.0,2955.0,3648.0,3245.0,2.55,2.81,-5.15,0.03,-0.01,-0.12,0.0,3377.0,3184.0,3191.0,3981.0,3172.0,2625.0,2929.0,2837.0,-8.95,2.99,1.37,-0.07,0.02,-0.05,1.0,help
3168.0,3257.0,2654.0,4095.0,3136.0,2946.0,3625.0,3230.0,2.56,2.85,-5.15,0.01,0.0,-0.15,0.0,3374.0,3182.0,3203.0,3994.0,3168.0,2631.0,2935.0,2841.0,-9.12,2.87,1.37,-0.06,0.05,-0.06,1.0,help
3189.0,3253.0,2592.0,4095.0,3152.0,2938.0,3664.0,3254.0,2.66,2.75,-5.12,0.02,-0.01,-0.15,0.0,3382.0,3198.0,3204.0,4002.0,3190.0,2615.0,2941.0,2847.0,-8.85,2.97,1.3,-0.08,-0.05,-0.03,1.0,help
3200.0,3268.0,2621.0,4095.0,3124.0,2949.0,3651.0,3264.0,2.81,2.78,-5.37,0.02,0.0,-0.15,0.0,3391.0,3190.0,3190.0,4037.0,3181.0,2624.0,2945.0,2861.0,-9.15,2.9,1.11,-0.06,0.01,-0.05,1.0,help
3195.0,3284.0,2621.0,4095.0,3145.0,2955.0,3664.0,3277.0,2.76,2.77,-5.21,0.04,-0.05,-0.17,0.0,3374.0,3179.0,3198.0,4043.0,3194.0,2625.0,2949.0,2855.0,-8.92,2.83,1.27,-0.08,0.06,-0.04,1.0,help
3198.0,3273.0,2633.0,4095.0,3126.0,2946.0,3632.0,3261.0,2.74,2.73,-5.15,-0.01,0.01,-0.18,0.0,3374.0,3178.0,3190.0,4028.0,3188.0,2625.0,2943.0,2800.0,-9.01,2.89,1.2,-0.07,-0.03,0.0,1.0,help
3120.0,3984.0,2877.0,4075.0,3024.0,2894.0,3615.0,3404.0,4.41,-1.85,13.46,0.06,-0.3,0.24,0.0,1791.0,3375.0,1218.0,3744.0,4095.0,4095.0,4095.0,4095.0,-7.3,-1.69,9.67,-0.85,0.05,-1.37,1.0,help
3119.0,3981.0,2880.0,4032.0,3017.0,2906.0,3621.0,3431.0,3.61,-2.56,13.34,-0.12,-0.44,0.11,0.0,2017.0,3345.0,1298.0,3787.0,4095.0,4095.0,4095.0,4095.0,-5.76,-2.03,9.27,-0.96,-0.05,-0.85,1.0,help
3101.0,3231.0,2948.0,4095.0,3049.0,2880.0,3583.0,3542.0,6.67,-2.77,10.14,0.48,-7.63,-1.18,0.0,981.0,3328.0,1232.0,3889.0,4095.0,4095.0,4095.0,4095.0,-7.21,-5.71,14.29,-0.12,0.01,-0.04,1.0,help
3136.0,2141.0,2934.0,4095.0,3061.0,2907.0,3709.0,3558.0,12.37,-0.78,3.42,-0.22,-4.5,-1.24,0.0,2391.0,3441.0,3779.0,3831.0,4095.0,3217.0,3749.0,3415.0,-4.43,-0.88,8.04,1.07,0.97,2.09,1.0,help
3107.0,3057.0,2903.0,4095.0,3117.0,2953.0,3669.0,3598.0,9.21,-0.49,-1.16,-1.21,-5.75,-0.94,0.0,2867.0,3328.0,3181.0,3646.0,3453.0,2559.0,3002.0,2599.0,-0.78,0.67,7.0,1.0,1.0,1.69,1.0,help
3112.0,3667.0,2764.0,4095.0,3130.0,2997.0,3728.0,3582.0,7.69,-0.41,-3.67,-0.9,-3.65,-1.17,0.0,3797.0,3344.0,3140.0,3475.0,3194.0,2545.0,2899.0,2531.0,-1.71,-0.06,3.96,-0.52,2.42,0.44,1.0,help
3200.0,3536.0,2639.0,4095.0,3088.0,2994.0,3712.0,3187.0,3.17,0.71,-4.23,-0.62,-0.35,0.2,0.0,3607.0,3321.0,3152.0,3620.0,3157.0,2455.0,2879.0,2806.0,-15.5,-0.11,9.53,-0.12,0.66,-0.01,1.0,help
3152.0,3093.0,2522.0,4095.0,3067.0,3038.0,3689.0,3175.0,2.95,1.17,-6.85,0.27,0.01,0.0,0.0,3583.0,3309.0,3158.0,3717.0,3184.0,2501.0,2894.0,2866.0,-10.18,1.54,2.75,0.15,0.63,-0.47,1.0,help
3151.0,3040.0,2525.0,4095.0,3085.0,3034.0,3679.0,3215.0,3.46,1.09,-10.48,-0.22,0.37,-0.24,0.0,3552.0,3312.0,3170.0,3749.0,3191.0,2519.0,2902.0,2875.0,-15.1,-1.17,0.8,-0.14,0.39,0.67,1.0,help
3210.0,993.0,2870.0,4095.0,3157.0,3057.0,3456.0,3035.0,0.82,2.06,2.58,-0.58,0.19,-0.52,0.0,3565.0,3307.0,3158.0,3792.0,3103.0,2526.0,2903.0,2893.0,-3.3,2.26,1.93,0.04,-0.11,1.15,1.0,help
3184.0,1777.0,3137.0,4095.0,3190.0,3055.0,3485.0,3231.0,2.68,1.43,-4.41,0.41,-0.08,-0.25,0.0,3537.0,3307.0,3165.0,3765.0,3161.0,2537.0,2910.0,2899.0,-5.82,2.21,2.47,-0.04,0.16,-0.02,1.0,help
3200.0,2202.0,3210.0,4095.0,3200.0,3045.0,3493.0,3312.0,3.44,1.93,-5.97,0.11,0.01,-0.14,0.0,3550.0,3302.0,3165.0,3739.0,3184.0,2539.0,2915.0,2900.0,-9.47,2.36,1.19,-0.1,0.12,-0.04,1.0,help
3194.0,2288.0,3248.0,4095.0,3202.0,3041.0,3521.0,3317.0,2.71,1.58,-5.11,0.06,0.13,-0.16,0.0,3535.0,3328.0,3157.0,3735.0,3194.0,2530.0,2921.0,2896.0,-9.02,1.97,1.16,-0.11,-0.02,-0.01,1.0,help
3195.0,2283.0,3325.0,4095.0,3202.0,3024.0,3550.0,3343.0,3.0,1.79,-5.39,0.02,0.03,-0.17,0.0,3540.0,3319.0,3170.0,3754.0,3201.0,2541.0,2927.0,2895.0,-9.26,2.13,1.11,-0.11,0.04,-0.04,1.0,help
3201.0,2239.0,3327.0,4095.0,3205.0,3036.0,3568.0,3351.0,3.03,1.62,-5.51,0.07,0.02,-0.14,0.0,3543.0,3323.0,3155.0,3774.0,3200.0,2549.0,2925.0,2896.0,-8.98,2.2,1.3,-0.08,-0.01,0.0,1.0,help
3200.0,2224.0,3335.0,4095.0,3181.0,3021.0,3581.0,3372.0,2.94,1.75,-5.24,-0.03,-0.02,-0.18,0.0,3546.0,3318.0,3169.0,3762.0,3203.0,2559.0,2928.0,2897.0,-8.77,2.09,1.28,-0.01,0.03,-0.02,1.0,help
3208.0,2176.0,3310.0,4095.0,3184.0,3024.0,3567.0,3363.0,3.13,1.71,-5.4,0.02,-0.0,-0.13,0.0,3535.0,3301.0,3170.0,3766.0,3211.0,2559.0,2928.0,2896.0,-9.34,2.07,1.14,-0.06,-0.06,-0.02,1.0,help
3198.0,2175.0,3296.0,4095.0,3201.0,3040.0,3606.0,3351.0,3.05,1.66,-5.37,-0.03,0.02,-0.15,0.0,3535.0,3321.0,3163.0,3796.0,3218.0,2559.0,2938.0,2910.0,-9.16,2.14,0.97,-0.07,0.02,-0.04,1.0,help
3225.0,2174.0,3351.0,4095.0,3197.0,3030.0,3580.0,3359.0,3.11,1.69,-5.28,0.04,0.01,-0.14,0.0,3536.0,3319.0,3171.0,3808.0,3214.0,2559.0,2930.0,2902.0,-9.09,2.23,1.05,-0.11,-0.07,-0.01,1.0,help
3207.0,2148.0,3389.0,4095.0,3178.0,3025.0,3575.0,3387.0,2.96,1.71,-5.35,0.0,-0.0,-0.2,0.0,3546.0,3303.0,3151.0,3806.0,3216.0,2559.0,2933.0,2906.0,-9.07,2.17,1.08,-0.12,-0.0,-0.03,1.0,help
3095.0,3239.0,2883.0,4095.0,3265.0,3184.0,4053.0,3911.0,6.76,-3.81,0.29,0.14,-1.31,0.14,0.0,2741.0,3156.0,3120.0,4095.0,4095.0,3713.0,4095.0,4095.0,-2.98,-3.73,5.76,0.02,-0.67,-0.17,1.0,help
3121.0,3264.0,2866.0,4095.0,3302.0,3223.0,4095.0,3908.0,10.05,-4.63,-3.96,-0.2,-2.81,0.05,0.0,2587.0,3214.0,3185.0,4095.0,4095.0,3405.0,3863.0,3723.0,-4.79,-5.95,8.42,0.46,-0.33,-0.5,1.0,help
3117.0,3329.0,2843.0,4095.0,3280.0,3200.0,4095.0,3883.0,6.58,-3.53,-6.65,-0.49,-2.67,-1.2,0.0,3522.0,3285.0,3132.0,3977.0,3622.0,2704.0,3118.0,2591.0,-8.17,-1.82,3.99,1.92,3.69,2.51,1.0,help
3162.0,3571.0,2654.0,4095.0,3227.0,3156.0,3988.0,3629.0,4.72,-1.94,-5.2,-0.95,-1.81,-1.0,0.0,3527.0,3239.0,3057.0,3913.0,3171.0,2457.0,2882.0,2753.0,-9.32,-1.27,1.54,-1.32,2.69,1.72,1.0,help
3130.0,2231.0,2624.0,4095.0,3213.0,3153.0,3955.0,3474.0,3.72,-1.13,-4.04,-0.69,-1.38,-0.66,0.0,3531.0,3230.0,3057.0,3907.0,3165.0,2479.0,2879.0,2810.0,-10.49,-1.55,5.17,-0.3,-0.18,0.79,1.0,help
2846.0,943.0,2640.0,4095.0,3131.0,3047.0,3708.0,3083.0,2.52,-0.1,-5.72,0.3,-0.36,-0.2,0.0,3513.0,3233.0,3056.0,3905.0,3176.0,2481.0,2884.0,2806.0,-10.02,-0.63,2.79,-0.45,0.01,-0.11,1.0,help
2802.0,949.0,2631.0,4095.0,3119.0,3065.0,3699.0,3127.0,3.08,0.11,-6.99,0.04,0.0,-0.37,0.0,3509.0,3235.0,3048.0,3876.0,3197.0,2503.0,2893.0,2820.0,-9.99,-0.45,2.93,-0.11,0.38,-0.32,1.0,help
2871.0,959.0,2608.0,4095.0,3104.0,3013.0,3671.0,3120.0,3.96,-0.35,-11.38,-0.58,-0.27,-0.73,0.0,3504.0,3235.0,3066.0,3920.0,3200.0,2550.0,2891.0,2842.0,-13.2,0.03,2.83,-0.21,0.13,-0.0,1.0,help
3095.0,979.0,2597.0,4095.0,3133.0,2992.0,3515.0,2992.0,1.98,-1.97,-5.68,-1.28,0.1,-0.79,0.0,3504.0,3228.0,3060.0,4061.0,3207.0,2547.0,2909.0,2895.0,-1.59,2.08,1.57,-0.44,0.34,0.75,1.0,help
3411.0,2385.0,2929.0,4095.0,3213.0,2992.0,3517.0,3058.0,1.63,1.74,-4.22,0.02,0.25,-0.27,0.0,3503.0,3229.0,3057.0,4001.0,3216.0,2581.0,2911.0,2909.0,-7.27,1.76,1.65,-0.04,0.04,0.12,1.0,help
3429.0,2416.0,2941.0,4095.0,3243.0,2995.0,3532.0,3128.0,2.2,2.49,-5.48,0.02,0.09,-0.21,0.0,3505.0,3235.0,3056.0,4077.0,3203.0,2591.0,2916.0,2899.0,-9.47,1.11,1.72,-0.09,0.29,-0.22,1.0,help
3475.0,2417.0,2921.0,4095.0,3207.0,3010.0,3583.0,3130.0,2.21,2.12,-5.67,0.2,-0.0,-0.21,0.0,3509.0,3240.0,3057.0,4067.0,3182.0,2591.0,2912.0,2901.0,-8.6,1.92,1.9,-0.07,-0.0,-0.07,1.0,help
3473.0,2432.0,2934.0,4095.0,3216.0,2998.0,3583.0,3153.0,2.09,2.12,-5.8,0.01,0.1,-0.18,0.0,3506.0,3233.0,3065.0,4091.0,3178.0,2593.0,2925.0,2903.0,-9.5,1.21,1.12,-0.11,-0.01,-0.05,1.0,help
3436.0,2419.0,2927.0,4095.0,3211.0,2995.0,3597.0,3152.0,1.96,2.04,-5.39,0.07,-0.06,-0.2,0.0,3491.0,3237.0,3055.0,4095.0,3183.0,2603.0,2923.0,2909.0,-9.12,1.52,1.29,-0.09,0.13,-0.02,1.0,help
3417.0,2407.0,2914.0,4095.0,3223.0,2990.0,3568.0,3149.0,1.99,2.05,-5.16,0.02,0.04,-0.18,0.0,3507.0,3227.0,3057.0,4095.0,3222.0,2608.0,2923.0,2915.0,-9.16,1.38,1.35,-0.08,0.01,-0.07,1.0,help
3450.0,2391.0,2928.0,4095.0,3209.0,2987.0,3614.0,3163.0,2.1,1.84,-5.44,-0.01,0.03,-0.14,0.0,3493.0,3229.0,3062.0,4095.0,3227.0,2609.0,2929.0,2922.0,-9.43,1.3,1.3,-0.07,0.02,-0.03,1.0,help
3418.0,2399.0,2915.0,4095.0,3200.0,2982.0,3611.0,3171.0,2.27,1.8,-5.62,0.03,0.03,-0.17,0.0,3504.0,3236.0,3058.0,4095.0,3234.0,2610.0,2929.0,2921.0,-9.34,1.52,0.93,-0.09,0.06,-0.03,1.0,help
3447.0,2448.0,2911.0,4095.0,3200.0,2971.0,3583.0,3153.0,2.43,1.91,-5.43,0.05,0.07,-0.18,0.0,3504.0,3234.0,3063.0,4095.0,3235.0,2619.0,2938.0,2913.0,-9.23,1.56,0.93,-0.08,0.02,-0.04,1.0,help
3447.0,2454.0,2919.0,4095.0,3217.0,2991.0,3632.0,3152.0,2.37,1.96,-5.42,0.02,0.05,-0.17,0.0,3508.0,3243.0,3056.0,4095.0,3239.0,2614.0,2940.0,2911.0,-9.29,1.57,1.04,-0.08,0.04,0.0,1.0,help
3451.0,2463.0,2928.0,4095.0,3200.0,2979.0,3629.0,3166.0,2.48,1.94,-5.43,0.03,-0.0,-0.17,0.0,3506.0,3230.0,3057.0,4095.0,3241.0,2617.0,2934.0,2927.0,-9.29,1.47,1.16,-0.07,-0.03,0.0,1.0,help
2383.0,1442.0,2867.0,4095.0,3263.0,3258.0,4007.0,3842.0,4.13,-1.7,-3.36,-0.36,0.09,-0.09,0.0,2272.0,2999.0,3043.0,3003.0,3710.0,2992.0,3550.0,2694.0,-9.03,-0.89,2.61,-0.48,-0.19,0.1,1.0,help
2414.0,1325.0,2849.0,4095.0,3233.0,3240.0,3921.0,3753.0,4.42,-1.8,-3.5,0.35,0.06,-0.33,0.0,2416.0,2689.0,3129.0,3087.0,3697.0,3122.0,3713.0,3366.0,-8.69,-1.05,4.05,-0.05,-0.08,-0.17,1.0,help
2418.0,1212.0,2875.0,4095.0,3191.0,3184.0,3823.0,3583.0,3.68,-2.07,-6.1,0.4,-0.32,-0.3,0.0,2245.0,2837.0,3115.0,3171.0,3897.0,3136.0,3731.0,3347.0,-8.47,-0.73,2.95,0.26,0.32,-0.23,1.0,help
2408.0,1114.0,2854.0,4095.0,3198.0,3183.0,3748.0,3539.0,3.57,-1.5,-6.75,-0.39,-0.41,-0.2,0.0,2121.0,3346.0,3069.0,3212.0,3839.0,3024.0,3379.0,2928.0,-10.47,-0.56,1.41,0.03,0.45,0.11,1.0,help
2416.0,957.0,2766.0,4095.0,3212.0,3158.0,3749.0,3478.0,3.82,-1.47,-4.45,-0.61,-0.21,-0.33,0.0,3646.0,3846.0,3029.0,3116.0,3150.0,2479.0,2893.0,2225.0,-7.59,-0.63,2.33,0.32,-0.64,0.37,1.0,help
2499.0,951.0,2628.0,4095.0,3056.0,3151.0,3687.0,3237.0,-0.25,-3.89,6.04,1.38,-1.79,-0.78,0.0,3491.0,3654.0,3051.0,3147.0,3119.0,2446.0,2865.0,2739.0,-8.9,-2.65,2.41,-0.72,0.36,-0.68,1.0,help
2639.0,977.0,2411.0,4095.0,3152.0,3134.0,3663.0,3101.0,3.47,0.25,-5.44,0.46,-0.51,-0.56,0.0,3440.0,3618.0,3042.0,3405.0,3137.0,2515.0,2879.0,2690.0,-9.67,-0.16,1.42,-0.02,0.13,0.03,1.0,help
2768.0,961.0,2480.0,4095.0,3157.0,3099.0,3650.0,3043.0,3.59,0.01,-9.68,-0.77,0.11,-0.46,0.0,3436.0,3583.0,3045.0,3409.0,3150.0,2529.0,2886.0,2672.0,-12.46,-0.68,0.78,-0.08,0.19,0.24,1.0,help
2655.0,976.0,2729.0,4095.0,3210.0,3088.0,3561.0,2933.0,0.72,1.54,0.23,-0.63,-0.33,-0.82,0.0,3406.0,3603.0,3035.0,3504.0,3135.0,2527.0,2901.0,2747.0,-5.51,0.69,-0.34,-0.45,0.07,1.01,1.0,help
2148.0,1041.0,2914.0,4095.0,3255.0,3046.0,3577.0,2976.0,1.0,2.31,-3.4,-0.1,-0.03,-0.25,0.0,3403.0,3606.0,3047.0,3641.0,3123.0,2528.0,2906.0,2721.0,-4.49,1.75,1.36,-0.15,-0.23,0.46,1.0,help
2191.0,1069.0,2912.0,4095.0,3265.0,3035.0,3618.0,2992.0,1.64,2.72,-4.9,0.14,-0.06,-0.08,0.0,3403.0,3597.0,3054.0,3632.0,3120.0,2544.0,2917.0,2789.0,-9.06,2.59,1.14,-0.08,0.11,-0.08,1.0,help
2288.0,1023.0,2928.0,4095.0,3261.0,3021.0,3655.0,2999.0,2.08,2.83,-5.29,0.13,-0.04,-0.2,0.0,3417.0,3621.0,3047.0,3632.0,3109.0,2545.0,2917.0,2814.0,-8.96,2.44,1.0,-0.11,-0.04,-0.07,1.0,help
2285.0,1040.0,2931.0,4095.0,3263.0,3028.0,3646.0,3004.0,1.67,2.82,-5.55,0.1,0.03,-0.19,0.0,3395.0,3598.0,3051.0,3648.0,3108.0,2551.0,2922.0,2870.0,-9.26,2.13,1.07,-0.11,0.03,-0.06,1.0,help
2299.0,1013.0,2942.0,4095.0,3273.0,3021.0,3649.0,2992.0,1.55,2.63,-5.46,0.07,0.01,-0.18,0.0,3403.0,3583.0,3042.0,3662.0,3110.0,2559.0,2922.0,2880.0,-9.2,2.24,0.88,-0.11,-0.02,-0.05,1.0,help
2335.0,1020.0,2928.0,4095.0,3271.0,3025.0,3693.0,2998.0,1.63,2.76,-5.46,0.05,0.01,-0.14,0.0,3402.0,3598.0,3039.0,3655.0,3126.0,2559.0,2927.0,2864.0,-9.01,2.17,0.99,-0.07,0.03,-0.08,1.0,help
2327.0,1018.0,2927.0,4095.0,3287.0,3021.0,3666.0,3006.0,1.7,2.68,-5.4,-0.0,0.03,-0.13,0.0,3398.0,3600.0,3041.0,3665.0,3146.0,2559.0,2932.0,2885.0,-9.23,2.12,0.89,-0.06,-0.01,-0.02,1.0,help
2354.0,1002.0,2927.0,4095.0,3291.0,3034.0,3700.0,2998.0,1.81,2.77,-5.37,0.06,-0.02,-0.14,0.0,3408.0,3600.0,3051.0,3674.0,3151.0,2559.0,2932.0,2894.0,-9.16,2.16,0.79,-0.06,0.05,-0.01,1.0,help
2341.0,1013.0,2930.0,4095.0,3283.0,3031.0,3690.0,3013.0,1.77,2.75,-5.45,0.02,0.02,-0.14,0.0,3390.0,3577.0,3038.0,3699.0,3156.0,2559.0,2938.0,2896.0,-9.29,2.25,0.67,-0.07,0.01,-0.03,1.0,help
2369.0,1017.0,2927.0,4095.0,3280.0,3013.0,3664.0,3003.0,1.72,2.76,-5.4,-0.01,0.03,-0.13,0.0,3390.0,3581.0,3046.0,3691.0,3152.0,2559.0,2942.0,2903.0,-9.14,2.19,0.92,-0.07,0.03,-0.02,1.0,help
2367.0,1003.0,2928.0,4095.0,3276.0,3027.0,3701.0,3024.0,1.84,2.78,-5.46,0.03,0.01,-0.15,0.0,3407.0,3583.0,3042.0,3698.0,3153.0,2590.0,2938.0,2903.0,-9.04,2.22,0.99,-0.05,0.02,-0.01,1.0,help
3203.0,1521.0,2889.0,4062.0,3143.0,3008.0,3669.0,3267.0,9.07,-1.95,-0.93,-0.18,1.57,-0.19,0.0,946.0,3658.0,3812.0,3682.0,4095.0,3531.0,4095.0,3894.0,-5.87,-4.84,6.03,-0.1,-0.01,-0.15,1.0,help
3169.0,3404.0,2931.0,3986.0,3162.0,3055.0,3764.0,3659.0,8.02,-1.49,0.19,0.12,0.47,-0.09,0.0,2401.0,3425.0,3722.0,3633.0,4095.0,3573.0,4095.0,3909.0,-9.13,-5.14,6.12,0.24,0.01,0.58,1.0,help
3023.0,3264.0,2875.0,4095.0,3215.0,3136.0,4070.0,3750.0,7.17,-1.37,-5.72,-0.36,-5.09,-0.36,0.0,2381.0,3468.0,3582.0,3312.0,4095.0,3390.0,3776.0,3443.0,-10.05,-3.79,4.09,0.64,2.11,1.83,1.0,help
3057.0,2693.0,2898.0,4095.0,3161.0,3131.0,3923.0,3826.0,4.81,-2.37,-5.5,-1.29,-1.1,0.39,0.0,3263.0,3500.0,3079.0,3226.0,3877.0,2955.0,3366.0,2924.0,-5.28,-2.07,4.99,-0.34,0.59,0.8,1.0,help
3178.0,2031.0,2836.0,4095.0,3261.0,3158.0,4093.0,4079.0,3.76,-0.35,-4.45,-0.57,-0.6,-0.31,0.0,3856.0,3429.0,3014.0,3187.0,3264.0,2527.0,2977.0,2659.0,-6.99,-0.83,4.48,0.84,1.04,0.94,1.0,help
3233.0,980.0,2772.0,4095.0,3216.0,3151.0,4011.0,3492.0,1.53,0.39,-3.56,0.16,0.08,-0.47,0.0,3580.0,3407.0,3007.0,3341.0,3104.0,2421.0,2883.0,2707.0,-11.02,1.1,4.2,-0.49,0.56,0.74,1.0,help
3281.0,955.0,2761.0,4095.0,3215.0,3098.0,3879.0,3263.0,2.72,1.54,-5.9,0.53,-0.34,-0.53,0.0,3537.0,3406.0,3018.0,3418.0,3127.0,2454.0,2885.0,2768.0,-9.16,0.38,1.39,-0.34,0.91,-0.25,1.0,help
3235.0,956.0,2758.0,4095.0,3196.0,3088.0,3837.0,3239.0,2.75,1.23,-6.35,0.13,0.12,-0.16,0.0,3547.0,3393.0,3015.0,3499.0,3137.0,2481.0,2896.0,2779.0,-10.79,0.73,0.94,-0.07,0.57,-0.18,1.0,help
3307.0,978.0,2770.0,4095.0,3188.0,3021.0,3673.0,3152.0,5.66,0.96,-12.96,-0.63,0.18,-0.75,0.0,3539.0,3391.0,3017.0,3500.0,3138.0,2498.0,2905.0,2783.0,-13.52,0.35,2.31,-0.07,0.15,0.06,1.0,help
3325.0,986.0,2832.0,4095.0,3185.0,2976.0,3579.0,3027.0,0.63,1.64,-1.88,-1.14,-0.26,-1.27,0.0,3537.0,3398.0,3006.0,3511.0,3146.0,2521.0,2911.0,2863.0,-13.33,0.29,-1.23,-0.35,0.87,1.07,1.0,help
3333.0,1009.0,2955.0,4095.0,3201.0,2979.0,3557.0,3087.0,1.03,2.05,-0.17,-0.16,-0.23,-0.35,0.0,3530.0,3408.0,3014.0,3536.0,3125.0,2535.0,2925.0,2887.0,-2.56,1.45,2.51,-0.29,-0.35,0.8,1.0,help
3265.0,1037.0,2975.0,4095.0,3216.0,2955.0,3571.0,3088.0,1.85,2.8,-5.55,0.04,-0.12,-0.13,0.0,3538.0,3407.0,3014.0,3580.0,3120.0,2537.0,2928.0,2895.0,-9.73,2.44,1.04,-0.07,0.08,-0.07,1.0,help
3265.0,1033.0,2961.0,4095.0,3217.0,2960.0,3597.0,3106.0,1.95,2.71,-5.47,-0.04,0.02,-0.14,0.0,3545.0,3414.0,3020.0,3574.0,3127.0,2544.0,2933.0,2897.0,-9.55,2.36,0.64,-0.1,-0.04,-0.01,1.0,help
3299.0,1011.0,2962.0,4095.0,3230.0,2965.0,3603.0,3135.0,2.08,2.58,-5.3,0.02,0.0,-0.15,0.0,3522.0,3405.0,3022.0,3575.0,3127.0,2559.0,2939.0,2903.0,-9.4,2.48,0.83,-0.1,0.03,-0.04,1.0,help
3298.0,1007.0,2986.0,4095.0,3221.0,2956.0,3630.0,3146.0,1.78,2.64,-5.17,-0.01,0.01,-0.08,0.0,3536.0,3415.0,3007.0,3582.0,3120.0,2559.0,2935.0,2911.0,-9.21,2.39,0.56,-0.05,0.09,-0.01,1.0,help
3286.0,1006.0,2974.0,4095.0,3216.0,2960.0,3635.0,3143.0,1.71,2.42,-5.47,0.05,0.01,-0.18,0.0,3521.0,3416.0,3024.0,3602.0,3127.0,2559.0,2931.0,2922.0,-9.23,2.31,0.67,-0.04,-0.04,-0.04,1.0,help
3281.0,995.0,2963.0,4095.0,3225.0,2966.0,3619.0,3149.0,1.74,2.46,-5.48,0.05,0.01,-0.16,0.0,3531.0,3405.0,3014.0,3600.0,3136.0,2559.0,2938.0,2924.0,-9.23,2.27,0.69,-0.07,-0.03,-0.06,1.0,help
3263.0,1003.0,2960.0,4095.0,3239.0,2965.0,3618.0,3141.0,2.02,2.47,-5.49,0.02,-0.03,-0.17,0.0,3517.0,3411.0,3013.0,3610.0,3132.0,2559.0,2935.0,2925.0,-9.36,2.32,0.58,-0.02,0.03,-0.06,1.0,help
3275.0,1007.0,2976.0,4095.0,3239.0,2966.0,3664.0,3127.0,1.83,2.43,-5.34,0.03,0.01,-0.17,0.0,3521.0,3408.0,3009.0,3602.0,3138.0,2582.0,2937.0,2927.0,-9.14,2.38,0.49,-0.04,0.03,-0.05,1.0,help
3264.0,1010.0,2960.0,4095.0,3237.0,2961.0,3631.0,3133.0,1.72,2.43,-5.42,0.03,-0.0,-0.16,0.0,3535.0,3407.0,3009.0,3601.0,3143.0,2583.0,2943.0,2931.0,-9.11,2.38,0.82,-0.05,-0.01,-0.03,1.0,help
3143.0,2430.0,2948.0,3960.0,3171.0,2943.0,3878.0,3563.0,3.28,-4.61,11.37,0.36,-0.2,-0.48,0.0,2473.0,3655.0,2871.0,3612.0,4095.0,3792.0,4095.0,4063.0,-5.75,-8.45,6.61,0.64,0.16,1.66,1.0,help
3109.0,2657.0,2951.0,4095.0,3200.0,2929.0,3856.0,3523.0,5.35,-3.89,9.71,0.42,-5.21,-1.0,0.0,2822.0,3641.0,2981.0,3687.0,4095.0,3743.0,4095.0,4095.0,-5.25,-6.2,5.12,0.66,0.05,1.74,1.0,help
3129.0,3068.0,2957.0,4095.0,3206.0,2930.0,3872.0,3461.0,9.31,-2.93,0.8,-0.03,-7.6,-1.34,0.0,3117.0,3612.0,3760.0,3750.0,4095.0,3361.0,3771.0,3664.0,-5.93,-4.6,5.33,0.5,0.13,1.96,1.0,help
3141.0,3088.0,2855.0,4095.0,3149.0,2863.0,3698.0,3302.0,8.74,-2.7,-2.14,-0.93,-5.12,-1.15,0.0,3536.0,3287.0,4095.0,3323.0,3218.0,2608.0,3009.0,1923.0,-5.04,-2.23,4.83,-0.53,1.18,0.98,1.0,help
3190.0,2800.0,2768.0,4095.0,2818.0,2882.0,3580.0,3367.0,4.73,-2.03,-3.86,0.21,-1.84,-0.86,0.0,3439.0,3229.0,4095.0,3312.0,3155.0,2475.0,2910.0,2705.0,-11.6,-2.76,6.23,-0.4,0.85,0.91,1.0,help
3031.0,2647.0,2653.0,4095.0,3003.0,2894.0,3556.0,3281.0,1.96,-0.31,-5.79,0.46,-0.66,-0.39,0.0,3425.0,3203.0,3986.0,3387.0,3184.0,2541.0,2897.0,2828.0,-10.83,0.31,2.72,-0.2,0.38,-0.03,1.0,help
2786.0,967.0,2647.0,4095.0,3008.0,2849.0,3315.0,3063.0,1.5,-0.3,-9.64,-2.57,0.08,-1.09,0.0,3414.0,3205.0,4011.0,3471.0,3193.0,2544.0,2907.0,2843.0,-18.46,-1.5,2.36,-0.04,0.93,0.97,1.0,help
2865.0,1040.0,2875.0,4095.0,3081.0,2827.0,3526.0,2882.0,0.22,1.68,1.48,-0.58,0.08,-0.71,0.0,3434.0,3213.0,4031.0,3472.0,3232.0,2559.0,2911.0,2867.0,-4.14,0.65,0.16,-0.51,0.13,1.36,1.0,help
2941.0,1180.0,2925.0,4095.0,3165.0,2835.0,3475.0,2897.0,0.79,2.05,-3.11,0.3,-0.01,-0.34,0.0,3415.0,3213.0,4067.0,3543.0,3223.0,2559.0,2927.0,2899.0,-8.58,2.29,0.76,-0.03,0.22,-0.1,1.0,help
3041.0,1069.0,2928.0,4095.0,3153.0,2849.0,3533.0,2942.0,1.47,2.51,-5.83,0.13,0.09,-0.21,0.0,3427.0,3217.0,4080.0,3550.0,3227.0,2589.0,2927.0,2903.0,-9.45,2.38,0.85,-0.11,-0.02,-0.05,1.0,help
3060.0,1037.0,2939.0,4095.0,3162.0,2839.0,3536.0,2951.0,1.41,2.28,-5.62,0.07,0.02,-0.21,0.0,3414.0,3236.0,4090.0,3549.0,3250.0,2592.0,2934.0,2925.0,-9.11,2.27,0.78,-0.08,0.12,-0.04,1.0,help
3024.0,1040.0,2927.0,4095.0,3166.0,2843.0,3561.0,2957.0,1.22,2.23,-5.44,0.02,0.06,-0.22,0.0,3419.0,3216.0,4085.0,3551.0,3259.0,2593.0,2938.0,2922.0,-8.89,2.32,1.19,-0.07,0.04,0.01,1.0,help
3034.0,1002.0,2944.0,4095.0,3159.0,2864.0,3543.0,2974.0,1.5,2.18,-5.47,0.01,0.05,-0.17,0.0,3411.0,3223.0,4085.0,3541.0,3262.0,2605.0,2943.0,2928.0,-9.11,2.27,0.74,-0.11,-0.02,-0.04,1.0,help
3039.0,1012.0,2933.0,4095.0,3161.0,2847.0,3567.0,2973.0,1.59,2.07,-5.61,0.02,-0.01,-0.17,0.0,3434.0,3216.0,4082.0,3566.0,3280.0,2611.0,2946.0,2943.0,-9.27,2.32,0.87,-0.09,0.03,-0.06,1.0,help
3027.0,991.0,2951.0,4095.0,3181.0,2854.0,3547.0,2976.0,1.6,2.11,-5.52,-0.0,-0.01,-0.16,0.0,3414.0,3217.0,4080.0,3567.0,3277.0,2612.0,2946.0,2939.0,-9.16,2.35,0.79,-0.1,0.05,-0.06,1.0,help
3039.0,1014.0,2928.0,4095.0,3184.0,2855.0,3553.0,2979.0,1.7,2.04,-5.66,0.04,0.01,-0.17,0.0,3425.0,3229.0,4069.0,3567.0,3281.0,2609.0,2943.0,2943.0,-9.15,2.32,0.78,-0.1,-0.01,-0.06,1.0,help
3051.0,1008.0,2934.0,4095.0,3182.0,2841.0,3547.0,2959.0,1.81,2.04,-5.6,-0.0,0.0,-0.18,0.0,3413.0,3216.0,4093.0,3559.0,3279.0,2614.0,2945.0,2944.0,-9.29,2.32,0.68,-0.08,0.02,-0.05,1.0,help
3038.0,1002.0,2931.0,4095.0,3168.0,2851.0,3577.0,2981.0,1.74,2.06,-5.6,-0.02,-0.02,-0.18,0.0,3425.0,3216.0,4080.0,3563.0,3286.0,2613.0,2949.0,2946.0,-9.12,2.3,0.81,-0.09,0.0,-0.03,1.0,help
3038.0,1008.0,2929.0,4095.0,3179.0,2838.0,3545.0,2960.0,1.71,2.1,-5.54,-0.04,0.02,-0.17,0.0,3419.0,3225.0,4065.0,3572.0,3291.0,2619.0,2946.0,2956.0,-9.33,2.25,0.81,-0.09,-0.02,-0.04,1.0,help
3063.0,1003.0,2938.0,4095.0,3184.0,2833.0,3570.0,2960.0,1.41,2.03,-5.61,-0.0,-0.05,-0.16,0.0,3425.0,3226.0,4071.0,3571.0,3282.0,2615.0,2958.0,2958.0,-9.27,2.33,0.68,-0.07,0.04,-0.02,1.0,help
3266.0,2891.0,2923.0,4095.0,3169.0,2909.0,3753.0,3251.0,8.69,-4.06,6.06,0.85,-0.38,-0.18,0.0,1722.0,3544.0,1050.0,3607.0,4095.0,3771.0,4095.0,3827.0,-5.55,-7.43,5.82,-0.16,-0.16,0.2,1.0,help
3269.0,2944.0,2941.0,4095.0,3159.0,2912.0,3803.0,3267.0,8.57,-3.61,6.9,0.66,-0.3,-0.09,0.0,2103.0,3512.0,1703.0,3632.0,4095.0,3771.0,4095.0,3783.0,-4.76,-6.31,4.93,-0.28,-0.13,0.22,1.0,help
3260.0,2923.0,2943.0,4095.0,3148.0,2857.0,3726.0,3264.0,9.29,-2.65,5.66,0.42,-2.74,-0.23,0.0,1879.0,3535.0,2227.0,3682.0,4095.0,3682.0,4095.0,3359.0,-7.19,-6.68,5.63,0.1,0.48,0.4,1.0,help
3213.0,2643.0,2879.0,4095.0,3119.0,2866.0,3666.0,3216.0,10.73,-1.59,0.69,0.18,-3.18,-0.79,0.0,2135.0,2987.0,3038.0,3478.0,4095.0,3479.0,4095.0,3187.0,-13.3,-5.49,1.33,-0.47,1.43,3.15,1.0,help
3143.0,946.0,2719.0,4095.0,3102.0,2896.0,3627.0,3477.0,5.45,-2.99,-4.27,-1.43,-2.67,0.06,0.0,2709.0,3109.0,2998.0,3342.0,3527.0,2719.0,3299.0,2942.0,-1.41,-2.23,3.64,0.41,0.5,2.68,1.0,help
3207.0,957.0,2639.0,4095.0,3114.0,2896.0,3583.0,3252.0,4.28,-0.88,-3.83,-0.75,-0.97,-0.17,0.0,3671.0,3116.0,3030.0,3328.0,3145.0,2550.0,2941.0,2490.0,-5.88,-2.9,3.46,-0.38,0.33,0.54,1.0,help
3264.0,1008.0,2645.0,4095.0,3122.0,2928.0,3479.0,3052.0,1.05,0.74,-7.44,-0.35,0.46,0.0,0.0,3522.0,3123.0,3042.0,3406.0,3215.0,2477.0,2928.0,2671.0,-5.9,0.39,1.18,0.15,0.52,-0.04,1.0,help
3230.0,967.0,2647.0,4095.0,3119.0,2905.0,3440.0,3024.0,3.13,0.32,-5.89,0.06,-0.12,-0.08,0.0,3483.0,3133.0,3035.0,3483.0,3231.0,2512.0,2930.0,2727.0,-10.03,0.91,0.92,-0.19,-0.22,-0.11,1.0,help
3221.0,962.0,2641.0,4095.0,3120.0,2856.0,3442.0,2954.0,2.05,0.74,-7.45,-0.14,-0.04,-0.18,0.0,3483.0,3125.0,3030.0,3495.0,3244.0,2544.0,2947.0,2772.0,-13.0,0.95,1.27,-0.17,0.32,0.44,1.0,help
3216.0,987.0,2639.0,4095.0,3114.0,2832.0,3458.0,2954.0,5.26,-3.05,-1.4,-5.33,1.57,-5.8,0.0,3494.0,3121.0,3036.0,3569.0,3216.0,2555.0,2957.0,2798.0,-8.73,0.06,0.83,-0.25,-0.48,0.92,1.0,help
3221.0,1013.0,2612.0,4095.0,3149.0,2835.0,3429.0,2855.0,1.83,2.21,-2.4,-0.22,0.22,-0.3,0.0,3479.0,3127.0,3026.0,3617.0,3195.0,2549.0,2955.0,2815.0,-4.8,2.23,1.46,-0.07,-0.08,0.52,1.0,help
3225.0,1005.0,2654.0,4095.0,3154.0,2833.0,3419.0,2919.0,2.02,2.71,-4.98,0.27,-0.04,-0.14,0.0,3477.0,3123.0,3029.0,3639.0,3197.0,2559.0,2960.0,2827.0,-7.74,2.27,1.56,-0.07,0.01,0.12,1.0,help
3219.0,997.0,2672.0,4095.0,3145.0,2849.0,3418.0,2954.0,1.88,3.32,-5.57,0.11,-0.02,-0.22,0.0,3472.0,3136.0,3039.0,3664.0,3200.0,2556.0,2965.0,2820.0,-8.74,2.59,1.61,-0.11,0.11,0.03,1.0,help
3199.0,992.0,2587.0,4095.0,3135.0,2844.0,3440.0,2963.0,2.24,3.0,-5.4,0.0,0.04,-0.19,0.0,3471.0,3126.0,3029.0,3680.0,3194.0,2558.0,2963.0,2830.0,-9.08,2.6,1.19,-0.05,0.01,-0.07,1.0,help
3175.0,994.0,2525.0,4095.0,3129.0,2855.0,3472.0,3008.0,2.14,2.92,-5.3,-0.01,-0.05,-0.18,0.0,3490.0,3133.0,3026.0,3701.0,3207.0,2559.0,2966.0,2833.0,-9.14,2.41,1.22,-0.06,-0.08,-0.01,1.0,help
3199.0,993.0,2541.0,4095.0,3152.0,2846.0,3439.0,3026.0,2.2,3.02,-5.09,0.02,-0.05,-0.15,0.0,3463.0,3135.0,3037.0,3703.0,3209.0,2559.0,2972.0,2836.0,-9.04,2.49,1.27,-0.06,-0.01,-0.03,1.0,help
3184.0,993.0,2512.0,4095.0,3152.0,2837.0,3443.0,3026.0,2.09,2.99,-5.19,0.03,-0.04,-0.17,0.0,3484.0,3131.0,3029.0,3728.0,3218.0,2559.0,2967.0,2844.0,-8.95,2.64,1.28,-0.07,0.01,-0.01,1.0,help
3197.0,977.0,2480.0,4095.0,3157.0,2851.0,3462.0,3044.0,2.39,3.19,-5.12,0.05,-0.01,-0.13,0.0,3484.0,3129.0,3030.0,3723.0,3211.0,2559.0,2978.0,2850.0,-9.11,2.68,0.8,-0.1,0.09,0.01,1.0,help
3189.0,997.0,2512.0,4095.0,3159.0,2853.0,3459.0,3054.0,2.2,3.05,-5.21,0.04,0.05,-0.14,0.0,3488.0,3131.0,3027.0,3729.0,3216.0,2583.0,2975.0,2851.0,-8.93,2.64,1.22,-0.11,0.02,-0.07,1.0,help
3206.0,997.0,2540.0,4095.0,3146.0,2849.0,3488.0,3059.0,2.49,3.02,-5.2,-0.07,0.14,-0.11,0.0,3477.0,3146.0,3037.0,3703.0,3216.0,2596.0,2980.0,2846.0,-9.34,2.4,0.95,-0.08,-0.02,0.01,1.0,help
3216.0,3723.0,2967.0,4095.0,3071.0,2858.0,3547.0,3481.0,5.04,-3.73,11.53,0.26,-1.27,0.11,0.0,962.0,3488.0,2943.0,3826.0,4095.0,3376.0,4095.0,4095.0,-8.27,-3.44,6.95,-0.49,-0.12,-0.68,1.0,help
3169.0,3503.0,2999.0,4095.0,3109.0,2805.0,3600.0,3854.0,7.8,-3.78,12.17,0.22,1.52,0.99,0.0,3354.0,3376.0,3141.0,3689.0,4095.0,3327.0,3728.0,2873.0,-5.68,-5.79,7.35,0.27,0.28,0.45,1.0,help
3099.0,2401.0,2993.0,4095.0,3105.0,2814.0,3674.0,3811.0,14.32,-0.59,1.26,-0.15,-7.71,-1.97,0.0,2993.0,3306.0,3062.0,3489.0,4069.0,2945.0,3323.0,2679.0,-16.03,-3.44,1.38,-0.37,1.85,2.38,1.0,help
3145.0,3664.0,2853.0,4095.0,3056.0,2863.0,3664.0,3643.0,8.94,-1.19,-4.1,-1.02,-6.24,-2.04,0.0,3834.0,3251.0,3024.0,3131.0,3211.0,2630.0,2991.0,2284.0,-5.82,-2.73,1.93,-1.62,2.52,3.73,1.0,help
3125.0,3461.0,2634.0,4095.0,3087.0,2896.0,3714.0,3603.0,7.52,-1.86,-1.64,-0.33,-2.59,-1.67,0.0,3501.0,3237.0,3017.0,3115.0,3201.0,2467.0,2903.0,2559.0,-7.3,-3.65,2.05,-0.85,1.64,1.95,1.0,help
3191.0,1023.0,2522.0,4095.0,3136.0,2983.0,3788.0,3269.0,3.69,1.15,-5.54,0.21,0.29,-0.13,0.0,3464.0,3205.0,3025.0,3270.0,3247.0,2499.0,2909.0,2800.0,-9.41,0.52,0.3,-0.65,0.29,-0.43,1.0,help
3168.0,1164.0,2495.0,4095.0,3142.0,2934.0,3765.0,3281.0,6.3,3.43,-12.81,-0.42,-0.44,-0.42,0.0,3442.0,3220.0,3025.0,3459.0,3246.0,2539.0,2938.0,2842.0,-15.28,-1.57,1.99,-0.05,-0.18,0.79,1.0,help
3533.0,960.0,2529.0,4095.0,3198.0,2960.0,3678.0,3396.0,1.63,1.81,1.02,-0.17,0.7,-0.09,0.0,3458.0,3237.0,3024.0,3650.0,3258.0,2556.0,2937.0,2851.0,-1.54,1.07,-2.33,0.11,0.69,0.8,1.0,help
3355.0,1017.0,2384.0,4095.0,3234.0,2974.0,3630.0,3259.0,4.1,3.02,-4.58,-0.02,-0.13,-0.09,0.0,3467.0,3226.0,3021.0,3687.0,3215.0,2559.0,2948.0,2874.0,-9.47,1.83,0.06,-0.08,-0.05,-0.01,1.0,help
3345.0,993.0,2282.0,4095.0,3248.0,2981.0,3648.0,3270.0,3.67,3.32,-4.69,0.0,0.04,-0.11,0.0,3462.0,3219.0,3030.0,3634.0,3217.0,2559.0,2949.0,2878.0,-9.73,2.23,0.18,0.01,0.28,0.14,1.0,help
