hall_1,hall_2,hall_3,flex_t,flex_i,flex_m,flex_r,flex_p,accel_x,accel_y,accel_z,gyro_x,gyro_y,gyro_z,hand,sign
3025.0,4095.0,2938.0,2961.0,4095.0,2336.0,2922.0,4095.0,-2.13,9.52,5.72,0.0,-0.09,-0.17,0.0,Hook'em
3024.0,4095.0,2934.0,2975.0,4095.0,2342.0,2929.0,4095.0,-1.94,9.42,6.04,-0.06,-0.03,-0.07,0.0,Hook'em
3024.0,4095.0,2945.0,2979.0,4095.0,2340.0,2930.0,4095.0,-1.53,9.59,5.83,0.05,-0.04,-0.11,0.0,Hook'em
3031.0,4095.0,2944.0,2981.0,4095.0,2349.0,2937.0,4095.0,-1.64,9.64,5.62,0.11,-0.12,-0.25,0.0,Hook'em
3026.0,4095.0,2950.0,2986.0,4095.0,2341.0,2937.0,4095.0,-2.0,9.45,6.01,0.04,-0.08,-0.23,0.0,Hook'em
3022.0,4095.0,2941.0,2982.0,4095.0,2344.0,2934.0,4095.0,-1.89,9.59,5.64,0.01,-0.0,-0.1,0.0,Hook'em
3034.0,4095.0,2929.0,2991.0,4095.0,2351.0,2941.0,4095.0,-1.74,9.62,5.69,-0.0,-0.08,-0.21,0.0,Hook'em
3033.0,4095.0,2944.0,2992.0,4095.0,2352.0,2944.0,4095.0,-2.13,9.43,5.98,-0.02,-0.06,-0.2,0.0,Hook'em
3037.0,4095.0,2943.0,2994.0,4095.0,2352.0,2945.0,4095.0,-2.02,9.51,5.88,-0.03,-0.05,-0.15,0.0,Hook'em
3023.0,4095.0,2941.0,2993.0,4095.0,2350.0,2934.0,4095.0,-2.08,9.5,5.91,0.01,-0.12,-0.12,0.0,Hook'em
3029.0,4095.0,2929.0,2998.0,4095.0,2345.0,2938.0,4095.0,-1.95,9.57,5.8,-0.05,-0.05,-0.04,0.0,Hook'em
3030.0,4095.0,2935.0,2999.0,4095.0,2351.0,2943.0,4095.0,-1.67,9.5,6.07,-0.08,-0.04,-0.03,0.0,Hook'em
3039.0,4095.0,2945.0,2997.0,4095.0,2344.0,2928.0,4095.0,-1.52,9.48,6.25,-0.05,0.02,-0.08,0.0,Hook'em
3029.0,4095.0,2938.0,3008.0,4095.0,2347.0,2928.0,4095.0,-1.57,9.49,6.23,-0.06,-0.04,-0.06,0.0,Hook'em
3024.0,4095.0,2938.0,3001.0,4095.0,2341.0,2927.0,4095.0,-1.32,9.52,6.43,-0.04,-0.02,-0.11,0.0,Hook'em
3026.0,4095.0,2932.0,3010.0,4095.0,2338.0,2919.0,4095.0,-1.27,9.6,6.36,0.02,-0.01,-0.17,0.0,Hook'em
3026.0,4095.0,2932.0,3019.0,4095.0,2329.0,2896.0,4095.0,-1.59,9.5,6.17,0.02,0.01,-0.2,0.0,Hook'em
3038.0,4095.0,2941.0,3023.0,4095.0,2338.0,2902.0,4095.0,-1.55,9.47,6.34,-0.06,0.05,-0.18,0.0,Hook'em
3025.0,4095.0,2949.0,3024.0,4095.0,2338.0,2906.0,4095.0,-1.56,9.47,6.41,-0.01,-0.07,-0.21,0.0,Hook'em
3046.0,4095.0,2944.0,3026.0,4095.0,2339.0,2902.0,4095.0,-1.76,9.48,6.4,-0.03,-0.07,-0.2,0.0,Hook'em
3038.0,4095.0,2941.0,3024.0,4095.0,2337.0,2898.0,4095.0,-1.88,9.33,6.68,-0.05,-0.06,-0.18,0.0,Hook'em
3035.0,4095.0,2946.0,3031.0,4095.0,2332.0,2891.0,4095.0,-1.74,9.29,7.01,-0.02,0.07,-0.12,0.0,Hook'em
3053.0,4095.0,2940.0,3034.0,4095.0,2334.0,2894.0,4095.0,-1.7,9.35,6.83,0.01,0.05,-0.14,0.0,Hook'em
3051.0,4095.0,2933.0,3034.0,4095.0,2334.0,2884.0,4095.0,-1.58,9.49,6.54,0.02,-0.04,-0.17,0.0,Hook'em
3038.0,4095.0,2942.0,3037.0,4095.0,2339.0,2887.0,4095.0,-1.79,9.41,6.65,0.06,-0.06,-0.16,0.0,Hook'em
3026.0,4095.0,2946.0,3036.0,4095.0,2341.0,2886.0,4095.0,-1.67,9.31,6.92,0.1,-0.02,-0.15,0.0,Hook'em
3037.0,4095.0,2945.0,3037.0,4095.0,2335.0,2887.0,4095.0,-1.7,9.29,6.92,0.17,0.1,-0.11,0.0,Hook'em
3029.0,4095.0,2935.0,3038.0,4095.0,2339.0,2882.0,4095.0,-1.7,9.34,6.52,0.26,0.17,-0.05,0.0,Hook'em
3037.0,4095.0,2943.0,3038.0,4095.0,2338.0,2880.0,4095.0,-1.55,9.61,5.64,0.13,0.11,-0.12,0.0,Hook'em
3024.0,4095.0,2943.0,3038.0,4095.0,2333.0,2883.0,4095.0,-1.66,9.53,6.07,-0.05,0.03,-0.16,0.0,Hook'em
3024.0,4095.0,2949.0,3042.0,4095.0,2338.0,2889.0,4095.0,-1.53,9.57,6.06,-0.04,-0.0,-0.14,0.0,Hook'em
3031.0,4095.0,2940.0,3046.0,4095.0,2342.0,2882.0,4095.0,-1.59,9.53,6.14,-0.03,-0.02,-0.17,0.0,Hook'em
3022.0,4095.0,2935.0,3043.0,4095.0,2345.0,2891.0,4095.0,-1.63,9.48,6.31,-0.06,-0.03,-0.22,0.0,Hook'em
3027.0,4095.0,2935.0,3041.0,4095.0,2349.0,2894.0,4095.0,-1.61,9.42,6.41,-0.15,-0.1,-0.24,0.0,Hook'em
3027.0,4095.0,2941.0,3051.0,4095.0,2351.0,2895.0,4095.0,-1.85,9.33,6.73,-0.12,-0.11,-0.23,0.0,Hook'em
3038.0,4095.0,2947.0,3042.0,4095.0,2347.0,2895.0,4095.0,-1.91,9.4,6.84,-0.09,0.01,-0.1,0.0,Hook'em
3040.0,4095.0,2935.0,3051.0,4095.0,2352.0,2898.0,4095.0,-1.65,9.37,6.8,0.04,-0.09,-0.12,0.0,Hook'em
3026.0,4095.0,2949.0,3053.0,4095.0,2352.0,2897.0,4095.0,-1.73,9.31,6.84,0.11,-0.07,-0.1,0.0,Hook'em
3030.0,4095.0,2934.0,3047.0,4095.0,2354.0,2895.0,4095.0,-1.68,9.28,6.86,0.12,0.06,-0.08,0.0,Hook'em
3033.0,4095.0,2945.0,3056.0,4095.0,2353.0,2896.0,4095.0,-1.66,9.35,6.77,0.16,0.05,-0.07,0.0,Hook'em
3033.0,4095.0,2939.0,3056.0,4095.0,2348.0,2897.0,4095.0,-1.33,9.52,6.27,0.24,-0.03,-0.07,0.0,Hook'em
3038.0,4095.0,2928.0,3058.0,4095.0,2345.0,2897.0,4095.0,-1.28,9.59,5.99,0.11,0.09,-0.07,0.0,Hook'em
3026.0,4095.0,2931.0,3058.0,4095.0,2351.0,2895.0,4095.0,-1.12,9.76,5.79,0.02,0.04,-0.07,0.0,Hook'em
3035.0,4095.0,2934.0,3068.0,4095.0,2352.0,2902.0,4095.0,-1.29,9.68,5.97,-0.09,-0.01,-0.09,0.0,Hook'em
3039.0,4095.0,2930.0,3063.0,4095.0,2352.0,2903.0,4095.0,-1.13,9.69,5.98,-0.03,-0.0,-0.14,0.0,Hook'em
3035.0,4095.0,2934.0,3070.0,4095.0,2354.0,2899.0,4095.0,-1.14,9.69,5.99,0.11,-0.1,-0.26,0.0,Hook'em
3036.0,4095.0,2944.0,3069.0,4095.0,2342.0,2901.0,4095.0,-1.48,9.45,6.09,-0.08,0.02,-0.12,0.0,Hook'em
3036.0,4095.0,2945.0,3071.0,4095.0,2345.0,2906.0,4095.0,-1.4,9.58,6.13,-0.1,0.06,-0.15,0.0,Hook'em
3036.0,4095.0,2945.0,3071.0,4095.0,2349.0,2909.0,4095.0,-1.26,9.65,6.05,-0.1,-0.09,-0.2,0.0,Hook'em
3033.0,4095.0,2928.0,3069.0,4095.0,2346.0,2909.0,4095.0,-1.44,9.5,6.45,-0.07,-0.06,-0.2,0.0,Hook'em
3030.0,4095.0,2946.0,3083.0,4095.0,2350.0,2905.0,4095.0,-1.63,9.47,6.57,-0.07,-0.01,-0.12,0.0,Hook'em
3024.0,4095.0,2930.0,3067.0,4095.0,2339.0,2897.0,4095.0,-1.5,9.36,6.78,-0.03,-0.0,-0.12,0.0,Hook'em
3039.0,4095.0,2949.0,3086.0,4095.0,2342.0,2899.0,4095.0,-1.3,9.48,6.51,0.06,0.05,-0.12,0.0,Hook'em
3029.0,4095.0,2949.0,3088.0,4095.0,2349.0,2903.0,4095.0,-1.52,9.55,6.31,0.07,-0.06,-0.13,0.0,Hook'em
3027.0,4095.0,2939.0,3089.0,4095.0,2347.0,2911.0,4095.0,-1.34,9.58,6.19,0.01,-0.05,-0.13,0.0,Hook'em
3033.0,4095.0,2949.0,3086.0,4095.0,2352.0,2911.0,4095.0,-1.34,9.54,6.31,0.06,-0.04,-0.13,0.0,Hook'em
3023.0,4095.0,2940.0,3088.0,4095.0,2343.0,2907.0,4095.0,-1.41,9.57,6.2,0.05,-0.01,-0.13,0.0,Hook'em
3022.0,4095.0,2942.0,3087.0,4095.0,2341.0,2911.0,4095.0,-1.29,9.57,6.32,0.12,-0.0,-0.22,0.0,Hook'em
3039.0,4095.0,2949.0,3091.0,4095.0,2351.0,2913.0,4095.0,-1.39,9.67,5.88,0.01,0.01,-0.12,0.0,Hook'em
3031.0,4095.0,2937.0,3088.0,4095.0,2349.0,2914.0,4095.0,-1.28,9.61,6.19,-0.03,-0.01,-0.15,0.0,Hook'em
3023.0,4095.0,2947.0,3090.0,4095.0,2349.0,2913.0,4095.0,-1.52,9.55,6.14,-0.03,-0.03,-0.14,0.0,Hook'em
3027.0,4095.0,2934.0,3093.0,4095.0,2355.0,2912.0,4095.0,-1.41,9.54,6.2,-0.01,-0.01,-0.14,0.0,Hook'em
3027.0,4095.0,2938.0,3098.0,4095.0,2355.0,2916.0,4095.0,-1.48,9.52,6.22,0.02,-0.0,-0.18,0.0,Hook'em
3040.0,4095.0,2947.0,3097.0,4095.0,2353.0,2917.0,4095.0,-1.5,9.54,6.23,0.0,0.0,-0.13,0.0,Hook'em
3026.0,4095.0,2941.0,3098.0,4095.0,2358.0,2919.0,4095.0,-1.35,9.59,6.2,0.0,0.02,-0.14,0.0,Hook'em
3023.0,4095.0,2947.0,3095.0,4095.0,2352.0,2915.0,4095.0,-1.38,9.59,6.12,0.02,-0.01,-0.16,0.0,Hook'em
3041.0,4095.0,2953.0,3099.0,4095.0,2357.0,2914.0,4095.0,-1.4,9.6,6.19,0.02,-0.01,-0.15,0.0,Hook'em
3039.0,4095.0,2949.0,3093.0,4095.0,2353.0,2916.0,4095.0,-1.27,9.58,6.24,0.02,-0.0,-0.16,0.0,Hook'em
3019.0,4095.0,2929.0,3095.0,4095.0,2354.0,2914.0,4095.0,-1.52,9.49,6.29,0.04,0.0,-0.16,0.0,Hook'em
3035.0,4095.0,2941.0,3094.0,4095.0,2353.0,2914.0,4095.0,-1.49,9.53,6.2,0.02,0.01,-0.15,0.0,Hook'em
3037.0,4095.0,2945.0,3094.0,4095.0,2352.0,2909.0,4095.0,-1.41,9.56,6.21,0.0,0.01,-0.13,0.0,Hook'em
3039.0,4095.0,2945.0,3099.0,4095.0,2353.0,2919.0,4095.0,-1.41,9.5,6.29,0.04,0.01,-0.14,0.0,Hook'em
3036.0,4095.0,2949.0,3099.0,4095.0,2359.0,2918.0,4095.0,-1.37,9.55,6.23,0.03,0.0,-0.16,0.0,Hook'em
3038.0,4095.0,2941.0,3102.0,4095.0,2354.0,2911.0,4095.0,-1.42,9.55,6.24,0.04,-0.02,-0.16,0.0,Hook'em
3036.0,4095.0,2951.0,3105.0,4095.0,2355.0,2914.0,4095.0,-1.35,9.59,6.26,0.04,0.03,-0.09,0.0,Hook'em
3029.0,4095.0,2928.0,3099.0,4095.0,2355.0,2910.0,4095.0,-1.36,9.54,6.26,-0.02,0.01,-0.12,0.0,Hook'em
3031.0,4095.0,2932.0,3111.0,4095.0,2355.0,2911.0,4095.0,-1.24,9.57,6.32,-0.01,0.01,-0.14,0.0,Hook'em
3033.0,4095.0,2934.0,3105.0,4095.0,2357.0,2911.0,4095.0,-1.24,9.61,6.22,-0.0,-0.03,-0.17,0.0,Hook'em
3037.0,4095.0,2959.0,3107.0,4095.0,2361.0,2917.0,4095.0,-1.37,9.59,6.2,-0.01,-0.01,-0.16,0.0,Hook'em
3039.0,4095.0,2945.0,3110.0,4095.0,2361.0,2918.0,4095.0,-1.3,9.58,6.28,-0.02,-0.06,-0.17,0.0,Hook'em
3027.0,4095.0,2939.0,3110.0,4095.0,2361.0,2916.0,4095.0,-1.35,9.5,6.56,-0.01,-0.03,-0.16,0.0,Hook'em
3030.0,4095.0,2947.0,3106.0,4095.0,2359.0,2909.0,4095.0,-1.22,9.58,6.28,0.0,0.04,-0.15,0.0,Hook'em
3025.0,4095.0,2951.0,3111.0,4095.0,2363.0,2914.0,4095.0,-1.26,9.56,6.35,0.01,-0.05,-0.17,0.0,Hook'em
3037.0,4095.0,2947.0,3110.0,4095.0,2359.0,2912.0,4095.0,-1.35,9.51,6.45,0.0,-0.02,-0.16,0.0,Hook'em
3034.0,4095.0,2945.0,3109.0,4095.0,2357.0,2914.0,4095.0,-1.27,9.52,6.42,0.02,-0.03,-0.16,0.0,Hook'em
3025.0,4095.0,2939.0,3098.0,4095.0,2358.0,2915.0,4095.0,-1.26,9.54,6.43,0.05,-0.06,-0.16,0.0,Hook'em
3029.0,4095.0,2940.0,3111.0,4095.0,2362.0,2920.0,4095.0,-1.35,9.52,6.41,0.04,-0.05,-0.17,0.0,Hook'em
3028.0,4095.0,2941.0,3114.0,4095.0,2362.0,2917.0,4095.0,-1.42,9.47,6.52,0.01,-0.01,-0.15,0.0,Hook'em
3030.0,4095.0,2951.0,3114.0,4095.0,2359.0,2917.0,4095.0,-1.32,9.54,6.45,0.03,-0.02,-0.16,0.0,Hook'em
3027.0,4095.0,2946.0,3119.0,4095.0,2365.0,2927.0,4095.0,-1.48,9.5,6.43,0.02,0.03,-0.14,0.0,Hook'em
3024.0,4095.0,2941.0,3110.0,4095.0,2356.0,2917.0,4095.0,-1.28,9.54,6.49,0.02,0.0,-0.16,0.0,Hook'em
3038.0,4095.0,2939.0,3111.0,4095.0,2362.0,2916.0,4095.0,-1.33,9.48,6.45,0.03,-0.01,-0.16,0.0,Hook'em
3025.0,4095.0,2935.0,3115.0,4095.0,2365.0,2919.0,4095.0,-1.35,9.49,6.51,0.06,-0.02,-0.16,0.0,Hook'em
3038.0,4095.0,2949.0,3120.0,4095.0,2366.0,2923.0,4095.0,-1.49,9.47,6.51,0.12,-0.02,-0.16,0.0,Hook'em
3028.0,4095.0,2943.0,3120.0,4095.0,2364.0,2921.0,4095.0,-1.7,9.47,6.42,0.08,0.24,0.02,0.0,Hook'em
3035.0,4095.0,2934.0,3114.0,4095.0,2359.0,2917.0,4095.0,-0.76,9.79,5.9,0.02,0.1,-0.06,0.0,Hook'em
3025.0,4095.0,2954.0,3120.0,4095.0,2367.0,2927.0,4095.0,-1.12,9.66,6.08,-0.01,0.01,-0.17,0.0,Hook'em
3027.0,4095.0,2945.0,3121.0,4095.0,2364.0,2923.0,4095.0,-1.21,9.59,6.2,0.01,-0.05,-0.2,0.0,Hook'em
3035.0,4095.0,2941.0,3120.0,4095.0,2364.0,2921.0,4095.0,-1.32,9.54,6.28,0.01,-0.07,-0.17,0.0,Hook'em
3042.0,4095.0,2948.0,3126.0,4095.0,2367.0,2923.0,4095.0,-1.24,9.57,6.26,0.01,0.0,-0.13,0.0,Hook'em
3028.0,4095.0,2950.0,3123.0,4095.0,2367.0,2925.0,4095.0,-1.16,9.63,6.12,0.03,0.03,-0.14,0.0,Hook'em
3024.0,4095.0,2945.0,3115.0,4095.0,2359.0,2921.0,4095.0,-1.16,9.63,6.09,0.0,-0.03,-0.16,0.0,Hook'em
3039.0,4095.0,2942.0,3123.0,4095.0,2365.0,2919.0,4095.0,-1.27,9.55,6.25,-0.02,-0.03,-0.15,0.0,Hook'em
3039.0,4095.0,2943.0,3123.0,4095.0,2369.0,2926.0,4095.0,-1.25,9.59,6.24,-0.03,-0.01,-0.15,0.0,Hook'em
3031.0,4095.0,2945.0,3122.0,4095.0,2363.0,2921.0,4095.0,-1.19,9.6,6.22,-0.0,0.0,-0.14,0.0,Hook'em
3024.0,4095.0,2934.0,3120.0,4095.0,2361.0,2919.0,4095.0,-1.17,9.6,6.24,-0.02,0.02,-0.15,0.0,Hook'em
3033.0,4095.0,2931.0,3119.0,4095.0,2365.0,2923.0,4095.0,-1.17,9.58,6.25,-0.0,-0.04,-0.16,0.0,Hook'em
3039.0,4095.0,2946.0,3127.0,4095.0,2368.0,2926.0,4095.0,-1.28,9.56,6.34,0.0,-0.02,-0.16,0.0,Hook'em
3024.0,4095.0,2935.0,3120.0,4095.0,2359.0,2921.0,4095.0,-1.29,9.57,6.34,0.01,-0.02,-0.15,0.0,Hook'em
3050.0,4095.0,2944.0,3120.0,4095.0,2366.0,2915.0,4095.0,-1.26,9.58,6.25,0.01,0.0,-0.15,0.0,Hook'em
3039.0,4095.0,2940.0,3126.0,4095.0,2365.0,2924.0,4095.0,-1.27,9.57,6.23,0.02,-0.02,-0.16,0.0,Hook'em
3026.0,4095.0,2939.0,3121.0,4095.0,2365.0,2919.0,4095.0,-1.25,9.57,6.25,0.01,-0.01,-0.15,0.0,Hook'em
3043.0,4095.0,2943.0,3123.0,4095.0,2366.0,2918.0,4095.0,-1.25,9.55,6.31,0.02,-0.0,-0.14,0.0,Hook'em
3036.0,4095.0,2947.0,3125.0,4095.0,2366.0,2925.0,4095.0,-1.2,9.6,6.29,0.02,-0.01,-0.15,0.0,Hook'em
3024.0,4095.0,2937.0,3120.0,4095.0,2363.0,2921.0,4095.0,-1.13,9.62,6.24,-0.0,0.01,-0.13,0.0,Hook'em
3024.0,4095.0,2944.0,3119.0,4095.0,2369.0,2928.0,4095.0,-1.16,9.6,6.32,0.03,-0.01,-0.17,0.0,Hook'em
