hall_1_L,hall_2_L,hall_3_L,flex_t_L,flex_i_L,flex_m_L,flex_r_L,flex_p_L,accel_x_L,accel_y_L,accel_z_L,gyro_x_L,gyro_y_L,gyro_z_L,hand,hall_1_R,hall_2_R,hall_3_R,flex_t_R,flex_i_R,flex_m_R,flex_r_R,flex_p_R,accel_x_R,accel_y_R,accel_z_R,gyro_x_R,gyro_y_R,gyro_z_R,hand,sign
3792.0,3167.0,3527.0,4095.0,1805.0,1930.0,2251.0,1779.0,8.92,4.69,1.93,-0.73,-0.46,0.07,0.0,3659.0,4095.0,1573.0,3472.0,2859.0,2272.0,2816.0,1827.0,-4.2,7.76,3.17,-0.27,0.19,-0.35,1.0,how-are-you
3813.0,3152.0,3531.0,4095.0,1823.0,1961.0,2256.0,1803.0,8.69,5.02,3.04,-0.24,0.02,-0.17,0.0,3639.0,4095.0,1463.0,3508.0,2832.0,2302.0,2817.0,1825.0,-3.62,8.86,4.34,0.16,-0.33,0.06,1.0,how-are-you
3781.0,3152.0,3600.0,4095.0,1856.0,1939.0,2267.0,1791.0,7.43,4.87,1.31,-0.25,-0.41,-0.01,0.0,3647.0,4095.0,1435.0,3520.0,2875.0,2289.0,2832.0,1898.0,-4.05,7.72,3.46,0.35,-0.66,0.59,1.0,how-are-you
3772.0,3159.0,3696.0,4095.0,1870.0,1951.0,2268.0,1810.0,8.7,3.03,-1.0,-0.28,-2.4,1.17,0.0,3639.0,4095.0,1383.0,3565.0,2854.0,2301.0,2847.0,1788.0,-0.39,8.88,0.91,-0.04,-0.92,0.71,1.0,how-are-you
3803.0,3159.0,3690.0,4035.0,1739.0,1937.0,2232.0,1794.0,9.22,4.78,0.54,1.17,2.84,-4.7,0.0,3600.0,4095.0,1602.0,3187.0,2866.0,2295.0,2839.0,1869.0,-1.25,6.35,-2.5,-2.82,4.16,-4.42,1.0,how-are-you
3858.0,3171.0,3515.0,3925.0,1853.0,1965.0,2284.0,1808.0,7.24,7.86,5.15,-0.37,-0.75,0.66,0.0,3537.0,4095.0,2014.0,3399.0,2965.0,2333.0,2896.0,2337.0,-10.63,8.1,5.12,1.26,-0.45,0.86,1.0,how-are-you
3856.0,3152.0,3129.0,3403.0,1982.0,2031.0,2357.0,1959.0,2.68,8.69,10.7,-0.67,1.07,-0.07,0.0,2908.0,3710.0,3936.0,2987.0,4095.0,2276.0,2951.0,1853.0,-15.79,-24.85,1.35,-6.95,5.36,-4.78,1.0,how-are-you
3903.0,3115.0,3014.0,3455.0,2047.0,2064.0,2417.0,2010.0,4.23,7.34,9.98,0.17,-0.85,0.2,0.0,2906.0,3475.0,4095.0,2855.0,4095.0,2289.0,2931.0,2622.0,-8.67,-0.38,3.3,0.16,-0.41,-0.02,1.0,how-are-you
3953.0,3125.0,2918.0,3508.0,2093.0,2083.0,2474.0,2085.0,5.8,6.66,9.25,-0.15,-0.19,0.22,0.0,2910.0,3490.0,4095.0,2860.0,4095.0,2291.0,2933.0,2624.0,-9.28,-0.85,2.62,-0.03,0.09,-0.03,1.0,how-are-you
3968.0,3147.0,2547.0,3578.0,2133.0,2139.0,2559.0,2175.0,5.55,6.62,9.45,-0.07,-0.01,-0.16,0.0,2902.0,3484.0,4095.0,2891.0,4095.0,2318.0,2949.0,2626.0,-8.89,-0.71,3.07,-0.08,-0.12,0.02,1.0,how-are-you
3999.0,3132.0,2523.0,3622.0,2227.0,2144.0,2559.0,2186.0,5.99,6.34,9.99,-0.16,0.1,-0.09,0.0,2919.0,3520.0,4095.0,2890.0,4095.0,2320.0,2949.0,2640.0,-8.87,-0.4,3.02,0.0,-0.09,-0.02,1.0,how-are-you
4021.0,3136.0,2559.0,3629.0,2250.0,2160.0,2585.0,2207.0,5.43,6.34,9.5,0.01,-0.15,-0.1,0.0,2911.0,3525.0,4095.0,2885.0,4095.0,2333.0,2951.0,2641.0,-8.98,-0.62,3.06,0.12,-0.09,-0.13,1.0,how-are-you
3994.0,3141.0,2512.0,3529.0,2210.0,2161.0,2597.0,2249.0,5.55,6.0,9.73,-0.26,0.15,0.04,0.0,2913.0,3537.0,4095.0,2828.0,4095.0,2341.0,2967.0,2638.0,-9.15,-0.53,2.79,-0.09,-0.01,-0.13,1.0,how-are-you
3902.0,3184.0,2164.0,3431.0,2195.0,2142.0,2603.0,2297.0,5.79,5.62,10.15,-0.2,0.08,-0.13,0.0,2937.0,3696.0,4093.0,2685.0,4095.0,2378.0,3003.0,2675.0,-8.91,-0.94,3.2,0.03,-0.04,0.19,1.0,how-are-you
3504.0,3557.0,1839.0,3455.0,2160.0,2159.0,2544.0,2251.0,5.66,5.71,10.08,0.01,-0.2,-0.31,0.0,2937.0,3711.0,3071.0,2832.0,3419.0,2587.0,3463.0,3059.0,-8.89,-0.35,2.94,-0.09,-0.06,0.38,1.0,how-are-you
3504.0,3572.0,1659.0,3494.0,2233.0,2183.0,2624.0,2275.0,5.69,5.91,10.29,0.04,-0.05,-0.27,0.0,2627.0,3725.0,3011.0,2822.0,3427.0,2753.0,3669.0,3154.0,-8.88,0.09,3.77,-0.0,0.08,0.28,1.0,how-are-you
3677.0,3551.0,1626.0,3531.0,2307.0,2223.0,2619.0,2320.0,5.64,6.05,9.73,0.12,-0.13,-0.14,0.0,1399.0,3860.0,3004.0,2945.0,3423.0,2815.0,3695.0,3122.0,-9.65,0.67,2.74,0.18,0.0,-0.05,1.0,how-are-you
3664.0,3562.0,1616.0,3552.0,2335.0,2224.0,2640.0,2310.0,5.66,5.99,9.97,0.02,0.08,-0.13,0.0,1332.0,3798.0,3168.0,2862.0,3578.0,2831.0,3664.0,3203.0,-8.57,1.29,3.4,0.0,-0.08,-0.01,1.0,how-are-you
3698.0,3537.0,1470.0,3536.0,2301.0,2231.0,2639.0,2317.0,6.24,6.08,10.03,-0.05,-0.01,-0.17,0.0,1660.0,3837.0,3207.0,2942.0,3623.0,2823.0,3653.0,3210.0,-8.94,1.07,3.14,0.16,-0.2,-0.08,1.0,how-are-you
3823.0,3522.0,1113.0,3555.0,2319.0,2251.0,2629.0,2288.0,5.8,6.34,9.41,0.04,-0.2,-0.2,0.0,1947.0,3856.0,3251.0,2959.0,3655.0,2817.0,3653.0,3209.0,-8.83,0.96,3.1,-0.01,-0.15,-0.06,1.0,how-are-you
3755.0,3291.0,3139.0,4095.0,2080.0,2070.0,2263.0,1801.0,8.6,4.73,2.48,0.14,0.08,-0.26,0.0,2801.0,4095.0,3908.0,3391.0,2985.0,2453.0,2885.0,2171.0,-2.15,8.63,4.99,-0.06,-0.02,-0.12,1.0,how-are-you
3751.0,3282.0,3145.0,4095.0,2090.0,2065.0,2272.0,1815.0,8.73,4.92,2.36,-0.04,-0.12,-0.06,0.0,2804.0,4095.0,3897.0,3423.0,2992.0,2448.0,2875.0,2122.0,-2.58,8.52,4.73,-0.07,-0.07,-0.03,1.0,how-are-you
3719.0,3277.0,3136.0,4095.0,2071.0,2042.0,2262.0,1823.0,8.95,4.96,2.13,-0.01,-0.7,0.06,0.0,2815.0,4095.0,3910.0,3473.0,2934.0,2451.0,2886.0,2171.0,-2.27,8.7,5.38,-0.1,0.0,0.07,1.0,how-are-you
3737.0,3276.0,3139.0,4095.0,1868.0,3063.0,1859.0,1831.0,9.97,0.48,2.97,1.27,0.05,-0.52,0.0,2789.0,4095.0,3888.0,3400.0,2960.0,2432.0,2876.0,2253.0,-0.21,8.09,2.38,-0.05,-0.61,0.51,1.0,how-are-you
3702.0,3275.0,3152.0,4095.0,2054.0,1997.0,2246.0,1863.0,12.64,4.02,-2.09,0.66,4.09,-4.04,0.0,2830.0,4088.0,3904.0,3332.0,2912.0,2384.0,2886.0,2274.0,2.09,9.9,0.2,-1.28,2.84,-3.05,1.0,how-are-you
3727.0,3287.0,3138.0,3998.0,2058.0,2016.0,2256.0,1854.0,3.33,6.83,2.47,-0.61,2.99,-3.03,0.0,2854.0,4095.0,3901.0,3371.0,2719.0,2446.0,2892.0,2035.0,-11.16,3.81,0.34,-1.94,3.67,-3.43,1.0,how-are-you
3760.0,3275.0,3162.0,3715.0,2084.0,2083.0,2295.0,1906.0,5.32,8.05,5.47,-0.54,-0.17,-0.08,0.0,3519.0,4095.0,3709.0,2998.0,3083.0,2483.0,2987.0,2306.0,-6.15,7.08,0.42,1.0,0.21,0.62,1.0,how-are-you
3761.0,3267.0,3147.0,3494.0,2119.0,2096.0,2309.0,1927.0,4.83,7.58,5.52,-1.15,-0.53,0.13,0.0,3534.0,3583.0,3665.0,2545.0,3044.0,2432.0,3008.0,2333.0,3.59,11.62,-5.13,-0.27,-1.77,-1.72,1.0,how-are-you
3758.0,3275.0,3155.0,3363.0,2145.0,2098.0,2277.0,1939.0,1.47,9.77,10.29,-1.1,0.68,-0.55,0.0,2903.0,3455.0,3735.0,2844.0,4095.0,2313.0,2961.0,2346.0,-25.03,-25.19,1.04,-2.46,0.64,-2.4,1.0,how-are-you
3776.0,3269.0,3155.0,3466.0,2100.0,2111.0,2311.0,1968.0,3.97,7.92,8.46,0.17,-0.64,0.24,0.0,2906.0,3392.0,3695.0,2815.0,4095.0,2373.0,2923.0,2346.0,-7.72,-0.76,4.17,0.19,1.1,0.44,1.0,how-are-you
3792.0,3279.0,3178.0,3485.0,2138.0,2115.0,2285.0,1966.0,3.33,6.58,7.48,-0.48,0.29,0.15,0.0,2909.0,3381.0,3678.0,2831.0,4095.0,2403.0,2933.0,2455.0,-8.84,-1.32,3.84,-0.02,0.1,-0.07,1.0,how-are-you
3782.0,3293.0,3167.0,3519.0,2145.0,2125.0,2323.0,1982.0,5.23,8.13,10.79,-0.46,0.1,0.17,0.0,2907.0,3381.0,3696.0,2837.0,4095.0,2415.0,2943.0,2435.0,-8.62,-0.97,3.36,-0.05,-0.04,-0.04,1.0,how-are-you
3786.0,3271.0,3167.0,3502.0,2149.0,2127.0,2320.0,1978.0,4.2,7.7,9.9,-0.0,-0.09,-0.09,0.0,2913.0,3371.0,3683.0,2858.0,4095.0,2416.0,2934.0,2409.0,-8.72,-0.96,3.58,-0.05,-0.0,0.01,1.0,how-are-you
3787.0,3294.0,3161.0,3518.0,2154.0,2134.0,2335.0,1979.0,4.71,7.21,9.58,0.15,-0.01,-0.14,0.0,2909.0,3379.0,3667.0,2870.0,4095.0,2415.0,2935.0,2431.0,-8.83,-0.96,3.57,-0.03,0.04,0.02,1.0,how-are-you
3795.0,3279.0,3152.0,3533.0,2157.0,2133.0,2330.0,1981.0,4.64,7.22,9.46,-0.03,-0.02,-0.15,0.0,2913.0,3371.0,3690.0,2894.0,4095.0,2423.0,2944.0,2465.0,-8.77,-0.75,3.56,0.01,0.04,-0.04,1.0,how-are-you
3755.0,3264.0,3143.0,3531.0,2160.0,2130.0,2320.0,1996.0,4.28,7.38,9.51,-0.02,-0.01,-0.14,0.0,2911.0,3362.0,3682.0,2907.0,4095.0,2428.0,2944.0,2470.0,-8.87,-0.8,3.13,-0.03,0.05,-0.02,1.0,how-are-you
3774.0,3286.0,3152.0,3555.0,2160.0,2126.0,2339.0,1991.0,4.24,7.36,9.34,0.01,0.02,-0.12,0.0,2911.0,3372.0,3683.0,2906.0,4095.0,2434.0,2950.0,2494.0,-8.8,-0.88,3.39,-0.11,-0.02,-0.03,1.0,how-are-you
3776.0,3276.0,3149.0,3531.0,2169.0,2129.0,2330.0,1998.0,4.55,7.28,9.29,-0.05,0.02,-0.09,0.0,2906.0,3391.0,3683.0,2919.0,4095.0,2439.0,2949.0,2498.0,-8.91,-0.89,3.5,-0.05,-0.01,-0.02,1.0,how-are-you
3744.0,3280.0,3152.0,3533.0,2160.0,2127.0,2336.0,1989.0,4.65,7.01,9.62,-0.09,0.09,-0.06,0.0,2906.0,3377.0,3694.0,2927.0,4095.0,2442.0,2954.0,2519.0,-8.97,-0.89,3.39,-0.08,-0.0,-0.01,1.0,how-are-you
3787.0,3267.0,3139.0,3542.0,2172.0,2139.0,2330.0,1995.0,4.71,7.2,9.5,-0.07,-0.01,-0.12,0.0,2917.0,3377.0,3683.0,2928.0,4095.0,2443.0,2959.0,2518.0,-8.79,-0.88,3.38,-0.12,0.11,-0.02,1.0,how-are-you
3575.0,3807.0,3415.0,3859.0,1723.0,1962.0,2226.0,1730.0,9.87,3.74,2.43,0.1,-0.54,-0.18,0.0,3041.0,4095.0,3425.0,2997.0,2813.0,2465.0,2857.0,1995.0,-4.37,7.44,4.56,-0.22,-0.21,0.08,1.0,how-are-you
3565.0,3787.0,3405.0,3718.0,1808.0,2000.0,2225.0,1791.0,8.76,3.84,1.03,-0.42,-0.44,-0.06,0.0,3098.0,4095.0,3441.0,3071.0,2917.0,2486.0,2930.0,2039.0,-5.3,7.14,5.81,0.01,-0.23,-0.08,1.0,how-are-you
3583.0,3792.0,3392.0,3728.0,1818.0,2035.0,2273.0,1803.0,8.49,4.36,1.09,-0.1,-0.29,-0.07,0.0,3119.0,4095.0,3418.0,3129.0,2923.0,2489.0,2912.0,2062.0,-5.1,7.39,4.36,-0.01,-0.17,-0.03,1.0,how-are-you
3597.0,3770.0,3401.0,3717.0,1819.0,2005.0,2259.0,1793.0,8.77,4.27,1.6,-0.24,0.02,-0.06,0.0,3134.0,4095.0,3413.0,3181.0,2914.0,2491.0,2909.0,2073.0,-4.36,7.65,4.44,0.18,-0.25,-0.07,1.0,how-are-you
3573.0,3790.0,3397.0,3725.0,1827.0,1986.0,2274.0,1808.0,8.77,4.29,1.55,-0.2,0.01,-0.12,0.0,3151.0,4095.0,3418.0,3203.0,2937.0,2494.0,2915.0,2109.0,-4.32,7.48,3.61,0.12,-0.29,-0.13,1.0,how-are-you
3583.0,3785.0,3397.0,3730.0,1841.0,2065.0,2273.0,1797.0,8.89,4.29,1.3,-0.29,-0.19,-0.1,0.0,3181.0,4095.0,3428.0,3197.0,2977.0,2503.0,2944.0,2123.0,-4.87,7.72,4.13,0.13,-0.32,-0.21,1.0,how-are-you
3583.0,3798.0,3393.0,3785.0,1820.0,2130.0,2324.0,1809.0,8.96,4.22,1.75,-0.11,-0.18,-0.05,0.0,3185.0,4095.0,3435.0,3195.0,2992.0,2495.0,3009.0,2145.0,-4.94,7.69,4.15,0.06,-0.25,-0.13,1.0,how-are-you
3583.0,3792.0,3405.0,3792.0,1835.0,2129.0,2369.0,1808.0,8.77,3.91,1.71,-0.01,-0.09,-0.1,0.0,3194.0,4095.0,3410.0,3199.0,2975.0,2496.0,3013.0,2122.0,-4.84,7.73,4.18,-0.02,-0.12,-0.03,1.0,how-are-you
3574.0,3814.0,3414.0,3774.0,1965.0,2135.0,2382.0,1826.0,8.57,4.08,1.62,0.1,-0.04,-0.17,0.0,3190.0,4095.0,3421.0,3210.0,3006.0,2501.0,3027.0,2160.0,-4.61,7.71,4.2,-0.06,0.03,-0.02,1.0,how-are-you
3620.0,3824.0,3394.0,3765.0,1945.0,2128.0,2382.0,1831.0,8.71,4.07,1.41,0.11,-0.01,-0.13,0.0,3184.0,4095.0,3418.0,3200.0,3008.0,2503.0,3028.0,2230.0,-4.67,7.47,4.36,-0.1,-0.03,-0.05,1.0,how-are-you
3583.0,3789.0,3396.0,3781.0,1936.0,2139.0,2378.0,1830.0,8.9,3.9,1.27,0.05,0.03,-0.09,0.0,3183.0,4095.0,3418.0,3202.0,3001.0,2512.0,3029.0,2181.0,-5.17,7.42,4.57,-0.0,0.04,-0.11,1.0,how-are-you
3606.0,3814.0,3408.0,3774.0,1934.0,2151.0,2386.0,1843.0,8.97,3.92,1.45,-0.04,0.0,-0.16,0.0,3199.0,4095.0,3429.0,3200.0,2990.0,2507.0,3045.0,2194.0,-4.83,7.81,4.52,-0.07,-0.09,-0.03,1.0,how-are-you
3598.0,3778.0,3397.0,3788.0,1903.0,2137.0,2384.0,1844.0,8.83,3.83,1.26,-0.05,-0.13,-0.19,0.0,3184.0,4095.0,3411.0,3190.0,3006.0,2514.0,3039.0,2199.0,-4.47,7.52,4.54,-0.05,-0.19,0.01,1.0,how-are-you
3583.0,3807.0,3422.0,3779.0,1892.0,2151.0,2385.0,1870.0,8.54,4.05,1.61,-0.08,-0.05,-0.1,0.0,3190.0,4095.0,3408.0,3200.0,2999.0,2516.0,3051.0,2253.0,-4.6,7.59,4.36,-0.0,-0.05,-0.13,1.0,how-are-you
3599.0,3827.0,3392.0,3790.0,1905.0,2150.0,2375.0,1846.0,9.03,4.1,1.27,-0.09,-0.09,-0.09,0.0,3210.0,4095.0,3425.0,3205.0,2995.0,2518.0,3053.0,2198.0,-4.74,7.81,4.71,-0.05,-0.08,-0.06,1.0,how-are-you
3610.0,3799.0,3401.0,3775.0,1898.0,2147.0,2379.0,1866.0,8.89,4.22,1.13,-0.09,-0.09,-0.17,0.0,3198.0,4095.0,3397.0,3209.0,3017.0,2527.0,3049.0,2213.0,-4.36,7.5,4.78,0.0,-0.1,-0.05,1.0,how-are-you
3600.0,3770.0,3404.0,3786.0,1984.0,2138.0,2389.0,1871.0,8.63,4.11,1.32,-0.13,-0.13,-0.15,0.0,3197.0,4095.0,3408.0,3212.0,3024.0,2521.0,3052.0,2224.0,-4.21,7.54,4.5,-0.01,-0.2,-0.05,1.0,how-are-you
3601.0,3778.0,3390.0,3792.0,1984.0,2139.0,2384.0,1879.0,8.41,4.11,1.34,-0.09,-0.05,-0.14,0.0,3203.0,4095.0,3410.0,3212.0,3017.0,2526.0,3049.0,2243.0,-4.45,7.51,4.49,-0.0,-0.15,-0.08,1.0,how-are-you
3581.0,3772.0,3424.0,3801.0,2059.0,1966.0,2279.0,1869.0,13.36,3.4,3.06,1.0,0.8,-1.52,0.0,3216.0,4095.0,3397.0,3206.0,3065.0,2538.0,2917.0,2118.0,-0.81,6.91,5.37,0.39,2.83,-2.63,1.0,how-are-you
3623.0,3803.0,3450.0,3856.0,1997.0,2000.0,2282.0,1840.0,5.94,5.62,1.23,-0.39,7.0,-5.49,0.0,3582.0,4095.0,3248.0,3136.0,3046.0,2525.0,2979.0,1961.0,-10.35,2.97,-2.26,-1.95,3.29,-5.46,1.0,how-are-you
3273.0,1041.0,1963.0,3810.0,2270.0,2023.0,2261.0,1678.0,10.79,5.11,2.25,0.09,-1.75,0.46,0.0,1535.0,3286.0,3101.0,2960.0,3083.0,2849.0,3184.0,2265.0,-5.49,1.48,4.02,1.53,0.42,2.57,1.0,how-are-you
3440.0,960.0,2767.0,3711.0,1936.0,1904.0,2109.0,1600.0,9.27,4.59,0.18,0.18,-2.86,0.16,0.0,3918.0,3478.0,3118.0,2847.0,2302.0,2496.0,2848.0,1861.0,-2.44,5.37,3.49,0.62,0.75,1.3,1.0,how-are-you
3448.0,943.0,3280.0,3714.0,1910.0,1929.0,2170.0,1637.0,8.64,3.83,3.72,0.52,-0.44,0.27,0.0,3715.0,3493.0,3136.0,2975.0,2822.0,2438.0,2886.0,1999.0,-4.04,7.34,5.76,0.05,-0.51,1.13,1.0,how-are-you
3432.0,944.0,3387.0,3723.0,1959.0,1950.0,2178.0,1679.0,10.2,3.28,0.9,0.31,-0.54,-0.08,0.0,3699.0,3504.0,3134.0,3062.0,2930.0,2485.0,2484.0,2096.0,-2.71,7.86,6.0,-0.1,-0.1,-0.13,1.0,how-are-you
3443.0,942.0,3426.0,3728.0,2006.0,2071.0,2219.0,1734.0,8.76,3.69,0.69,-0.08,0.07,-0.06,0.0,3699.0,3504.0,3150.0,3155.0,2983.0,2501.0,2929.0,2112.0,-4.75,7.84,4.77,0.01,-0.34,0.17,1.0,how-are-you
3440.0,921.0,3442.0,3685.0,2063.0,1979.0,2224.0,1699.0,13.73,3.36,0.9,0.53,2.98,-2.42,0.0,3722.0,3501.0,3150.0,3180.0,2994.0,2511.0,2896.0,2065.0,-3.9,7.18,5.06,-0.06,3.02,-2.37,1.0,how-are-you
3443.0,925.0,3494.0,3646.0,2123.0,2001.0,2235.0,1763.0,5.66,6.82,8.36,0.08,-0.28,0.27,0.0,3713.0,3543.0,3134.0,3349.0,2983.0,2497.0,2949.0,2278.0,-11.77,2.31,5.3,1.42,-0.53,0.86,1.0,how-are-you
3391.0,976.0,2539.0,3718.0,2437.0,2364.0,2515.0,2241.0,0.16,3.65,6.17,-4.56,3.06,3.7,0.0,2922.0,3149.0,3035.0,2620.0,4095.0,2419.0,2963.0,2411.0,-5.39,-6.9,2.41,-5.45,5.02,-3.72,1.0,how-are-you
3166.0,957.0,2340.0,3895.0,2370.0,3084.0,3662.0,2815.0,9.28,-5.63,17.49,0.51,-0.35,0.06,0.0,2902.0,3131.0,3024.0,2821.0,4095.0,2478.0,2933.0,2318.0,-8.91,0.03,2.78,-0.27,-0.2,0.04,1.0,how-are-you
3234.0,953.0,1327.0,3817.0,2666.0,2893.0,3458.0,2691.0,3.61,-2.11,11.6,0.21,0.07,-0.27,0.0,2903.0,3122.0,3023.0,2789.0,4095.0,2481.0,2953.0,2355.0,-9.52,-0.68,1.92,0.15,-0.31,-0.0,1.0,how-are-you
3265.0,939.0,3008.0,3904.0,2635.0,2857.0,3398.0,2672.0,4.91,-2.8,12.74,-0.31,-0.06,-0.09,0.0,2902.0,3131.0,3023.0,2827.0,4095.0,2501.0,2960.0,2401.0,-9.0,-0.35,2.04,-0.03,-0.02,0.02,1.0,how-are-you
3264.0,950.0,3189.0,3899.0,2655.0,2851.0,3376.0,2672.0,5.41,-2.74,12.52,-0.07,0.13,-0.06,0.0,2912.0,3131.0,3034.0,2845.0,4095.0,2512.0,2960.0,2423.0,-9.12,-0.43,2.35,0.04,-0.09,-0.02,1.0,how-are-you
3297.0,943.0,3699.0,3927.0,2617.0,2839.0,3344.0,2653.0,5.09,-2.61,12.98,0.1,-0.0,-0.2,0.0,2908.0,3127.0,3023.0,2861.0,4095.0,2511.0,2966.0,2432.0,-9.3,-0.57,2.12,-0.03,-0.05,-0.0,1.0,how-are-you
3289.0,947.0,3765.0,3920.0,2597.0,2835.0,3328.0,2642.0,4.54,-2.24,12.61,0.07,-0.06,-0.25,0.0,2918.0,3143.0,3034.0,2871.0,4095.0,2513.0,2965.0,2429.0,-9.16,-0.36,2.1,-0.13,0.06,-0.03,1.0,how-are-you
3307.0,935.0,3854.0,3941.0,2617.0,2832.0,3321.0,2630.0,5.02,-2.65,12.97,-0.02,-0.03,-0.12,0.0,2911.0,3130.0,3027.0,2871.0,4095.0,2512.0,2977.0,2446.0,-8.8,-0.28,2.27,0.05,-0.09,-0.0,1.0,how-are-you
3309.0,944.0,3882.0,3893.0,2667.0,2832.0,3332.0,2645.0,4.82,-2.25,12.85,0.01,-0.03,-0.19,0.0,2910.0,3136.0,3030.0,2883.0,4095.0,2512.0,2978.0,2466.0,-9.24,-0.33,2.32,-0.01,-0.11,-0.06,1.0,how-are-you
3311.0,954.0,3891.0,3899.0,2688.0,2846.0,3323.0,2640.0,4.57,-2.56,12.79,0.01,-0.01,-0.16,0.0,2902.0,3136.0,3028.0,2880.0,4095.0,2496.0,2991.0,2480.0,-9.01,-0.35,2.18,0.14,-0.25,-0.06,1.0,how-are-you
3239.0,949.0,3796.0,3899.0,2709.0,2825.0,3333.0,2640.0,4.79,-2.5,13.0,-0.0,0.01,-0.14,0.0,2907.0,3137.0,3031.0,2885.0,4095.0,2498.0,2990.0,2469.0,-9.51,-0.52,2.46,-0.09,-0.0,-0.01,1.0,how-are-you
3249.0,944.0,3803.0,3909.0,2767.0,2839.0,3331.0,2640.0,4.7,-2.35,12.7,0.03,0.01,-0.17,0.0,2907.0,3136.0,3034.0,2915.0,4095.0,2511.0,2991.0,2502.0,-9.16,-0.17,2.26,-0.1,0.03,-0.03,1.0,how-are-you
3238.0,943.0,3663.0,3916.0,2757.0,2820.0,3341.0,2658.0,4.68,-2.42,12.9,0.02,-0.02,-0.14,0.0,2911.0,3130.0,3024.0,2895.0,4095.0,2512.0,2991.0,2508.0,-9.15,-0.39,2.45,-0.04,-0.02,-0.05,1.0,how-are-you
3549.0,948.0,3639.0,3839.0,2047.0,2043.0,2213.0,1791.0,8.77,4.12,0.7,-0.04,-0.2,-0.02,0.0,4095.0,3633.0,3137.0,3418.0,2994.0,2601.0,2972.0,2443.0,-3.87,7.58,5.24,-0.1,-0.26,0.09,1.0,how-are-you
3573.0,944.0,3632.0,3846.0,2069.0,2053.0,2198.0,1810.0,7.99,4.26,0.56,-0.05,-0.25,0.0,0.0,4095.0,3600.0,3146.0,3424.0,2985.0,2587.0,2985.0,2479.0,-3.33,7.63,4.94,-0.05,-0.04,-0.12,1.0,how-are-you
3565.0,936.0,3649.0,3811.0,2069.0,2069.0,2253.0,1806.0,9.48,4.79,0.61,-0.03,0.24,-0.3,0.0,4095.0,3611.0,3143.0,3438.0,3037.0,2607.0,2991.0,2511.0,-3.73,8.62,5.71,-0.18,0.39,-0.23,1.0,how-are-you
3578.0,949.0,3668.0,3857.0,2109.0,2012.0,2228.0,1776.0,4.73,6.11,3.92,-0.32,3.73,-2.8,0.0,4095.0,3614.0,3125.0,3376.0,2951.0,2549.0,2956.0,2406.0,-3.75,6.39,3.1,-0.36,3.46,-2.19,1.0,how-are-you
3583.0,945.0,3665.0,3805.0,2162.0,2135.0,2237.0,1798.0,0.45,7.64,11.04,-0.16,0.87,-0.67,0.0,4063.0,3693.0,3119.0,3371.0,2902.0,2559.0,2972.0,2526.0,-14.05,2.09,4.27,-0.45,0.78,-1.11,1.0,how-are-you
3575.0,938.0,3600.0,3791.0,2131.0,2007.0,2273.0,1824.0,5.91,6.79,6.54,-0.49,-0.1,0.22,0.0,4027.0,3664.0,3113.0,3295.0,2992.0,2559.0,3001.0,2410.0,-11.98,4.4,3.26,0.6,-0.69,0.51,1.0,how-are-you
3569.0,953.0,2854.0,3634.0,1823.0,2122.0,2287.0,1943.0,3.25,2.5,9.44,-3.32,1.32,1.93,0.0,2939.0,3346.0,3040.0,2653.0,4095.0,2285.0,3027.0,2551.0,-2.11,3.44,1.26,-0.66,-0.38,-1.37,1.0,how-are-you
3511.0,946.0,1331.0,2801.0,2303.0,2332.0,2443.0,2117.0,0.54,0.94,15.02,-4.57,1.24,2.57,0.0,2914.0,3296.0,3041.0,2776.0,4095.0,2382.0,2990.0,2509.0,-10.43,-9.39,0.41,-1.67,2.2,-2.46,1.0,how-are-you
3335.0,1673.0,937.0,2995.0,2676.0,2614.0,2864.0,2657.0,2.77,-4.7,13.86,-2.8,0.94,2.24,0.0,2912.0,3312.0,3045.0,2791.0,4095.0,2390.0,2979.0,2495.0,-9.27,-3.03,1.55,0.16,-0.38,0.09,1.0,how-are-you
3210.0,3219.0,954.0,3084.0,2710.0,2717.0,3207.0,2821.0,3.71,-8.04,14.21,-1.59,0.46,0.93,0.0,2907.0,3312.0,3037.0,2815.0,4095.0,2423.0,2991.0,2559.0,-8.82,-1.1,2.48,0.01,-0.02,0.12,1.0,how-are-you
3216.0,3105.0,1123.0,3271.0,2689.0,2631.0,3197.0,2818.0,3.04,-6.03,10.89,0.51,-0.32,-0.56,0.0,2911.0,3310.0,3034.0,2868.0,4095.0,2432.0,2994.0,2598.0,-8.87,-0.59,2.19,-0.01,-0.11,0.13,1.0,how-are-you
3211.0,3083.0,2071.0,3340.0,2694.0,2640.0,3196.0,2813.0,2.18,-6.26,11.58,-0.14,-0.26,-0.37,0.0,2915.0,3312.0,3035.0,2902.0,4095.0,2443.0,3012.0,2624.0,-8.85,-1.19,2.89,-0.21,0.12,0.06,1.0,how-are-you
3203.0,3071.0,2451.0,3271.0,2711.0,2640.0,3201.0,2850.0,2.88,-6.18,11.24,-0.11,0.07,-0.21,0.0,2917.0,3314.0,3035.0,2913.0,4095.0,2450.0,3017.0,2653.0,-9.04,-0.99,2.11,-0.23,0.16,0.03,1.0,how-are-you
3191.0,2543.0,2362.0,3284.0,2509.0,2639.0,3211.0,2883.0,3.06,-6.41,11.27,-0.0,0.01,-0.21,0.0,2899.0,3305.0,3037.0,2919.0,4095.0,2448.0,3021.0,2653.0,-9.15,-0.54,2.02,-0.04,-0.0,-0.05,1.0,how-are-you
3187.0,2544.0,2371.0,3338.0,2615.0,2629.0,3186.0,2871.0,3.08,-6.39,11.36,-0.03,-0.07,-0.17,0.0,2915.0,3317.0,3035.0,2924.0,4095.0,2451.0,3019.0,2655.0,-9.23,-0.87,2.4,-0.0,-0.09,0.0,1.0,how-are-you
3190.0,2539.0,2394.0,3329.0,2618.0,2614.0,3181.0,2870.0,3.1,-6.33,11.22,0.05,-0.06,-0.17,0.0,2896.0,3301.0,3026.0,2939.0,4095.0,2458.0,3018.0,2660.0,-9.32,-0.82,2.37,-0.1,-0.05,-0.05,1.0,how-are-you
3189.0,2554.0,2399.0,3338.0,2623.0,2627.0,3166.0,2877.0,3.25,-6.25,11.17,0.04,-0.01,-0.15,0.0,2927.0,3311.0,3043.0,2938.0,4095.0,2455.0,3024.0,2671.0,-9.02,-0.78,2.51,-0.07,-0.01,-0.0,1.0,how-are-you
3214.0,2559.0,2406.0,3335.0,2499.0,2627.0,3167.0,2878.0,3.17,-6.22,11.24,0.03,-0.0,-0.13,0.0,2915.0,3311.0,3043.0,2943.0,4095.0,2459.0,3023.0,2672.0,-9.22,-0.73,2.48,-0.03,-0.02,-0.02,1.0,how-are-you
3210.0,2593.0,2410.0,3330.0,2291.0,2615.0,3158.0,2874.0,3.23,-6.5,11.32,-0.06,-0.06,-0.13,0.0,2906.0,3311.0,3038.0,2938.0,4095.0,2461.0,3024.0,2671.0,-9.3,-0.88,2.58,-0.11,-0.03,-0.04,1.0,how-are-you
3209.0,2618.0,2443.0,3339.0,2619.0,2631.0,3161.0,2864.0,3.41,-6.7,10.94,-0.13,-0.18,-0.09,0.0,2905.0,3307.0,3034.0,2930.0,4095.0,2460.0,3031.0,2667.0,-8.61,-0.55,2.46,-0.05,-0.01,-0.01,1.0,how-are-you
3415.0,945.0,2784.0,3783.0,2099.0,2064.0,2331.0,1945.0,7.22,4.03,-1.45,0.14,0.02,-0.29,0.0,4095.0,3536.0,3131.0,3343.0,2979.0,2523.0,2949.0,2398.0,-2.8,7.42,4.96,-0.23,-0.02,0.23,1.0,how-are-you
3410.0,948.0,2832.0,3797.0,2101.0,2089.0,2325.0,1943.0,8.02,4.34,-1.35,0.03,-0.01,0.12,0.0,4095.0,3483.0,3120.0,3479.0,3007.0,2512.0,3040.0,2455.0,-2.32,8.78,6.09,0.1,-0.04,-0.31,1.0,how-are-you
3424.0,960.0,2837.0,3714.0,2084.0,2039.0,2294.0,1941.0,8.37,3.65,-0.87,-0.35,7.66,-3.11,0.0,4095.0,3520.0,3122.0,3455.0,2953.0,2498.0,2942.0,2479.0,-3.35,2.98,0.51,-1.07,4.52,-4.11,1.0,how-are-you
3437.0,941.0,2559.0,3696.0,2160.0,2079.0,2307.0,2000.0,4.42,6.93,10.93,-0.84,-0.23,-0.03,0.0,4095.0,3551.0,3099.0,3487.0,2985.0,2463.0,2959.0,2450.0,-13.07,3.88,4.02,0.36,-0.33,0.18,1.0,how-are-you
3440.0,915.0,2141.0,3735.0,2224.0,2130.0,2417.0,2096.0,2.63,5.18,5.82,-2.14,1.0,0.69,0.0,4095.0,3543.0,3085.0,3267.0,2928.0,2483.0,3031.0,2459.0,-6.53,4.05,0.15,0.06,-0.93,-0.4,1.0,how-are-you
3434.0,911.0,1431.0,3643.0,2384.0,2345.0,2512.0,2342.0,0.35,1.08,12.53,-3.2,-0.39,1.05,0.0,3070.0,3259.0,3030.0,2797.0,4095.0,2457.0,3101.0,2548.0,-6.85,1.96,2.11,-0.38,-1.18,-0.55,1.0,how-are-you
3374.0,1680.0,976.0,3789.0,2450.0,2398.0,2639.0,2466.0,6.38,-6.03,13.76,-3.06,-1.12,2.04,0.0,2896.0,3214.0,3038.0,2784.0,4095.0,2427.0,2992.0,2327.0,-9.53,-5.58,-0.28,1.21,-2.06,-1.09,1.0,how-are-you
3283.0,2389.0,966.0,3858.0,2429.0,2467.0,2832.0,2615.0,7.33,-9.55,10.01,-1.05,-1.36,0.51,0.0,2907.0,3216.0,3038.0,2799.0,4095.0,2477.0,3009.0,2624.0,-9.53,-1.82,2.45,-0.23,-0.13,0.18,1.0,how-are-you
3271.0,2503.0,1213.0,3895.0,2699.0,2513.0,2958.0,2703.0,5.3,-7.93,9.01,0.35,-1.06,-0.29,0.0,2911.0,3221.0,3037.0,2819.0,4095.0,2479.0,3013.0,2624.0,-9.17,-1.37,2.72,-0.19,0.29,0.23,1.0,how-are-you
3256.0,2490.0,1269.0,3889.0,2655.0,2500.0,2961.0,2688.0,5.22,-7.38,7.94,0.56,-0.29,-0.17,0.0,2901.0,3227.0,3027.0,2829.0,4095.0,2491.0,3013.0,2608.0,-8.76,-0.58,1.88,-0.13,0.12,0.11,1.0,how-are-you
3248.0,2431.0,1344.0,3883.0,2579.0,2514.0,2967.0,2671.0,5.49,-7.09,7.7,0.35,-0.48,-0.2,0.0,2903.0,3238.0,3050.0,2851.0,4095.0,2496.0,3023.0,2606.0,-9.17,-0.48,2.01,-0.11,0.03,-0.02,1.0,how-are-you
3280.0,2395.0,1392.0,3941.0,2520.0,2512.0,2971.0,2672.0,5.67,-7.19,8.21,0.17,-0.05,-0.21,0.0,2895.0,3230.0,3036.0,2864.0,4095.0,2496.0,3024.0,2611.0,-9.02,-0.56,2.32,-0.06,-0.08,0.0,1.0,how-are-you
3266.0,2384.0,1407.0,3875.0,2587.0,2507.0,2974.0,2671.0,5.82,-7.14,8.15,0.11,-0.08,-0.14,0.0,2907.0,3231.0,3037.0,2865.0,4095.0,2496.0,3019.0,2619.0,-9.11,-0.57,2.07,-0.14,0.04,-0.04,1.0,how-are-you
3260.0,2387.0,1413.0,3909.0,2608.0,2512.0,2960.0,2675.0,5.68,-6.98,8.25,0.08,-0.03,-0.15,0.0,2906.0,3233.0,3047.0,2880.0,4095.0,2509.0,3008.0,2624.0,-9.29,-0.68,2.33,-0.03,0.05,-0.05,1.0,how-are-you
3264.0,2398.0,1413.0,3910.0,2650.0,2506.0,2961.0,2674.0,5.72,-6.96,8.14,0.07,-0.02,-0.15,0.0,2915.0,3222.0,3039.0,2880.0,4095.0,2508.0,3024.0,2625.0,-9.24,-0.73,2.3,-0.06,-0.08,-0.01,1.0,how-are-you
3250.0,2392.0,1410.0,3894.0,2545.0,2520.0,2949.0,2677.0,5.71,-6.85,8.14,0.06,-0.06,-0.16,0.0,2909.0,3216.0,3041.0,2884.0,4095.0,2505.0,3024.0,2629.0,-9.15,-0.61,2.27,-0.11,0.09,0.01,1.0,how-are-you
3282.0,2410.0,1423.0,3939.0,2559.0,2523.0,2953.0,2685.0,5.69,-7.1,8.34,0.01,0.02,-0.12,0.0,2910.0,3237.0,3040.0,2889.0,4095.0,2507.0,3027.0,2635.0,-9.05,-0.54,2.31,-0.0,-0.07,-0.03,1.0,how-are-you
3281.0,2407.0,1437.0,3913.0,2653.0,2519.0,2954.0,2672.0,5.81,-6.94,8.12,0.05,-0.06,-0.14,0.0,2907.0,3234.0,3035.0,2890.0,4095.0,2512.0,3029.0,2638.0,-9.17,-0.69,2.33,-0.06,0.02,-0.03,1.0,how-are-you
3263.0,2406.0,1432.0,3922.0,2670.0,2511.0,2958.0,2670.0,5.55,-7.02,8.42,0.02,-0.02,-0.12,0.0,2909.0,3218.0,3035.0,2896.0,4095.0,2516.0,3029.0,2606.0,-9.29,-0.64,2.0,-0.05,0.03,-0.02,1.0,how-are-you
3251.0,2393.0,1429.0,3920.0,2653.0,2518.0,2962.0,2659.0,5.85,-7.12,8.26,0.01,0.01,-0.14,0.0,2910.0,3235.0,3040.0,2903.0,4095.0,2512.0,3025.0,2615.0,-9.27,-0.57,2.18,-0.06,-0.01,-0.02,1.0,how-are-you
3398.0,925.0,3696.0,3755.0,2162.0,2112.0,3241.0,1917.0,7.58,4.37,-0.64,0.03,-0.06,-0.11,0.0,3890.0,3398.0,3119.0,3295.0,3051.0,2673.0,2923.0,2448.0,-3.41,7.65,5.51,-0.06,-0.01,-0.07,1.0,how-are-you
3386.0,929.0,3742.0,3777.0,2149.0,2124.0,3233.0,1926.0,7.88,4.58,-0.57,0.02,0.1,-0.22,0.0,3891.0,3393.0,3120.0,3291.0,3056.0,2681.0,2864.0,2446.0,-3.5,7.9,5.6,-0.03,0.22,-0.33,1.0,how-are-you
3411.0,933.0,3664.0,3775.0,2109.0,2096.0,2285.0,1866.0,6.47,4.97,1.03,-0.54,5.67,-3.87,0.0,3877.0,3391.0,3119.0,3289.0,2986.0,2634.0,3062.0,2426.0,-2.24,7.11,4.87,-0.36,2.45,-1.63,1.0,how-are-you
3408.0,930.0,3607.0,3782.0,2102.0,2293.0,2303.0,1891.0,0.68,7.39,7.21,-1.89,3.49,-1.96,0.0,3803.0,3409.0,3104.0,3250.0,3033.0,2599.0,2993.0,2287.0,-10.74,1.43,0.26,-0.39,0.58,-1.73,1.0,how-are-you
3413.0,925.0,3583.0,3743.0,2135.0,2221.0,2310.0,1914.0,3.3,9.2,9.64,-0.19,-0.18,0.04,0.0,3804.0,3428.0,3107.0,3328.0,2994.0,2595.0,2992.0,2341.0,-12.12,2.54,1.27,-0.51,-0.37,-0.36,1.0,how-are-you
3407.0,926.0,3523.0,3839.0,2182.0,2170.0,2322.0,1920.0,5.01,7.46,7.67,-0.5,-0.33,0.07,0.0,3780.0,3420.0,3115.0,3147.0,3005.0,2522.0,3005.0,2465.0,-12.34,2.79,4.03,0.57,-1.38,1.45,1.0,how-are-you
3407.0,941.0,2886.0,3680.0,2263.0,2183.0,2407.0,2101.0,-0.37,0.34,8.59,-4.73,1.39,3.39,0.0,3821.0,3374.0,3089.0,3021.0,2989.0,2559.0,3061.0,2403.0,-3.33,5.34,1.47,1.33,-1.33,2.05,1.0,how-are-you
3291.0,1239.0,1165.0,3903.0,2333.0,2591.0,2901.0,2527.0,2.7,-3.76,13.14,-5.79,-0.27,3.78,0.0,2915.0,3280.0,3047.0,2629.0,4095.0,2384.0,3033.0,2475.0,-7.0,-4.8,1.36,-2.51,1.7,-4.46,1.0,how-are-you
3152.0,950.0,2606.0,4065.0,2437.0,3114.0,3685.0,2890.0,8.4,-9.34,10.97,0.4,-1.56,-0.24,0.0,2915.0,3312.0,3043.0,2768.0,4095.0,2431.0,2995.0,2666.0,-10.76,-2.25,2.64,-0.18,0.24,-0.01,1.0,how-are-you
3179.0,951.0,1984.0,4048.0,2736.0,3040.0,3627.0,2886.0,6.05,-6.61,8.66,0.26,-0.47,-0.51,0.0,2909.0,3305.0,3056.0,2767.0,4095.0,2449.0,3001.0,2661.0,-9.54,-2.14,1.44,0.19,-0.11,0.16,1.0,how-are-you
3181.0,953.0,1323.0,4050.0,2899.0,2930.0,3563.0,2809.0,6.06,-7.0,8.29,-0.03,-0.03,-0.17,0.0,2899.0,3302.0,3050.0,2806.0,4095.0,2466.0,3014.0,2751.0,-8.84,-1.3,1.45,0.02,0.0,0.13,1.0,how-are-you
3174.0,942.0,1143.0,4071.0,2909.0,2913.0,3565.0,2830.0,5.59,-6.68,8.36,-0.08,-0.0,-0.16,0.0,2913.0,3289.0,3046.0,2823.0,4095.0,2480.0,3015.0,2775.0,-9.29,-1.1,1.37,-0.01,0.06,0.06,1.0,how-are-you
3173.0,935.0,1105.0,4095.0,2902.0,2896.0,3533.0,2819.0,5.94,-6.96,8.28,-0.08,-0.28,-0.11,0.0,2908.0,3301.0,3056.0,2825.0,4095.0,2485.0,3021.0,2774.0,-9.13,-0.94,1.3,-0.01,-0.02,0.02,1.0,how-are-you
3187.0,947.0,1050.0,4077.0,2877.0,2894.0,3517.0,2802.0,6.04,-6.77,8.16,0.04,-0.13,-0.14,0.0,2902.0,3298.0,3061.0,2857.0,4095.0,2489.0,3001.0,2800.0,-9.17,-0.96,1.64,-0.02,-0.0,-0.03,1.0,how-are-you
3185.0,942.0,1047.0,4080.0,2884.0,2864.0,3489.0,2789.0,6.09,-6.73,8.02,-0.0,-0.06,-0.15,0.0,2906.0,3296.0,3042.0,2864.0,4095.0,2495.0,3025.0,2806.0,-9.45,-1.09,1.54,-0.06,-0.08,-0.02,1.0,how-are-you
3173.0,955.0,1088.0,4087.0,2887.0,2867.0,3488.0,2774.0,6.18,-6.88,8.0,0.07,0.03,-0.15,0.0,2910.0,3294.0,3047.0,2868.0,4095.0,2493.0,3023.0,2800.0,-9.17,-1.01,1.6,-0.08,0.03,-0.01,1.0,how-are-you
3179.0,947.0,1047.0,4095.0,2894.0,2880.0,3494.0,2807.0,6.17,-6.93,8.06,-0.01,0.01,-0.1,0.0,2917.0,3312.0,3046.0,2883.0,4095.0,2499.0,3030.0,2815.0,-9.29,-1.05,1.47,-0.09,-0.01,-0.0,1.0,how-are-you
3189.0,959.0,1023.0,4062.0,2899.0,2851.0,3489.0,2807.0,6.04,-6.82,8.07,0.01,-0.04,-0.11,0.0,2916.0,3299.0,3047.0,2893.0,4095.0,2498.0,3037.0,2819.0,-9.27,-0.99,1.78,-0.03,-0.12,0.02,1.0,how-are-you
3178.0,939.0,1019.0,4095.0,2882.0,2864.0,3499.0,2781.0,6.06,-6.9,8.1,0.06,-0.08,-0.12,0.0,2911.0,3305.0,3056.0,2896.0,4095.0,2507.0,3037.0,2821.0,-9.36,-1.03,1.65,-0.12,-0.03,-0.02,1.0,how-are-you
3163.0,946.0,1046.0,4095.0,2893.0,2861.0,3510.0,2783.0,6.11,-6.85,8.03,0.07,-0.09,-0.16,0.0,2915.0,3300.0,3042.0,2897.0,4095.0,2507.0,3038.0,2820.0,-9.28,-0.99,1.66,-0.1,-0.0,-0.02,1.0,how-are-you
3402.0,947.0,3745.0,3787.0,1942.0,2064.0,2352.0,1882.0,7.28,4.31,-1.06,0.01,-0.03,-0.13,0.0,3536.0,3815.0,3088.0,3204.0,2972.0,2467.0,2928.0,2373.0,-3.62,7.28,5.71,-0.02,0.05,-0.07,1.0,how-are-you
3381.0,957.0,3775.0,3802.0,1934.0,2081.0,2352.0,1887.0,7.34,4.33,-1.19,-0.04,0.06,-0.13,0.0,3539.0,3824.0,3099.0,3170.0,2977.0,2467.0,2931.0,2378.0,-3.76,7.45,5.79,-0.02,-0.05,0.01,1.0,how-are-you
3405.0,942.0,3773.0,3830.0,1936.0,2064.0,2352.0,1881.0,7.3,4.41,-1.07,-0.05,0.08,-0.15,0.0,3538.0,3804.0,3087.0,3231.0,2975.0,2462.0,2931.0,2434.0,-3.84,6.96,5.85,0.09,-0.17,0.11,1.0,how-are-you
3387.0,948.0,3849.0,3839.0,1939.0,2046.0,2079.0,1891.0,9.21,4.02,-2.58,0.19,-0.64,0.02,0.0,3568.0,3837.0,3089.0,3451.0,3033.0,2423.0,2925.0,2369.0,-2.19,8.7,6.72,-0.26,0.27,-0.6,1.0,how-are-you
3419.0,951.0,3819.0,3851.0,1963.0,2034.0,2294.0,1872.0,9.59,3.98,-2.34,-0.69,5.7,-2.74,0.0,3606.0,3893.0,3098.0,3468.0,2955.0,2417.0,2911.0,2359.0,-1.74,6.83,2.84,-0.49,2.91,-2.12,1.0,how-are-you
3414.0,950.0,3746.0,3858.0,2110.0,2099.0,2325.0,1872.0,7.5,7.93,7.69,-0.29,1.05,-1.05,0.0,4095.0,4095.0,3093.0,3475.0,2983.0,2416.0,2903.0,2430.0,-12.28,3.77,4.22,-0.01,-0.21,-0.81,1.0,how-are-you
3445.0,961.0,3514.0,3760.0,2207.0,2138.0,2370.0,1878.0,2.46,5.37,6.87,-2.16,0.51,0.67,0.0,4095.0,4095.0,3071.0,3532.0,3051.0,2432.0,2918.0,2430.0,-10.1,5.88,2.77,0.05,0.24,0.06,1.0,how-are-you
3423.0,954.0,3065.0,3648.0,2103.0,2211.0,2464.0,2081.0,0.29,2.09,8.87,-3.94,1.33,2.79,0.0,2917.0,3454.0,3047.0,2714.0,4095.0,2340.0,2986.0,2494.0,-6.15,-2.46,1.1,-0.63,0.37,-2.07,1.0,how-are-you
3328.0,926.0,1077.0,3762.0,2273.0,2458.0,2816.0,2416.0,2.65,-2.68,14.09,-5.74,0.72,3.45,0.0,2914.0,3449.0,3045.0,2739.0,4095.0,2339.0,2992.0,2613.0,-12.46,-7.27,-0.61,-0.19,1.09,-0.55,1.0,how-are-you
3249.0,944.0,991.0,3830.0,2787.0,2685.0,3107.0,2660.0,4.97,-4.4,12.64,0.45,-0.18,-0.22,0.0,2905.0,3437.0,3056.0,2793.0,4095.0,2368.0,2989.0,2671.0,-9.42,-2.35,1.46,0.13,-0.36,0.31,1.0,how-are-you
3268.0,982.0,1286.0,3840.0,2762.0,2668.0,3103.0,2659.0,3.79,-3.8,10.73,0.02,-0.29,-0.01,0.0,2925.0,3442.0,3046.0,2800.0,4095.0,2387.0,2992.0,2679.0,-8.55,-1.45,1.8,0.03,-0.09,0.15,1.0,how-are-you
3254.0,983.0,1614.0,3899.0,2791.0,2653.0,3105.0,2694.0,5.72,-5.85,11.65,-0.15,-0.41,0.15,0.0,2910.0,3451.0,3055.0,2813.0,4095.0,2384.0,2999.0,2715.0,-8.69,-1.19,2.41,0.03,-0.07,0.08,1.0,how-are-you
3248.0,983.0,1650.0,3911.0,2789.0,2652.0,3107.0,2707.0,5.43,-5.37,11.2,0.05,-0.35,-0.06,0.0,2907.0,3450.0,3056.0,2839.0,4095.0,2407.0,3009.0,2771.0,-9.11,-1.08,2.01,-0.04,-0.03,-0.01,1.0,how-are-you
3248.0,976.0,1701.0,3935.0,2797.0,2642.0,3081.0,2704.0,5.33,-5.01,10.87,0.07,-0.19,-0.17,0.0,2918.0,3440.0,3056.0,2853.0,4095.0,2413.0,3008.0,2767.0,-9.12,-1.12,2.07,-0.11,0.09,-0.02,1.0,how-are-you
3238.0,978.0,1712.0,3941.0,2799.0,2646.0,3083.0,2687.0,5.2,-5.16,11.04,0.03,-0.11,-0.19,0.0,2917.0,3459.0,3053.0,2864.0,4095.0,2416.0,3006.0,2773.0,-9.03,-1.12,2.04,-0.11,0.02,-0.04,1.0,how-are-you
3264.0,976.0,1749.0,3898.0,2785.0,2655.0,3071.0,2685.0,5.67,-5.39,11.13,0.07,0.01,-0.23,0.0,2916.0,3453.0,3049.0,2882.0,4095.0,2414.0,3008.0,2778.0,-9.03,-1.02,2.02,-0.1,0.02,-0.03,1.0,how-are-you
3270.0,974.0,1836.0,3953.0,2791.0,2634.0,3056.0,2671.0,5.4,-5.06,10.85,0.11,-0.13,-0.21,0.0,2919.0,3451.0,3050.0,2896.0,4095.0,2414.0,3008.0,2783.0,-9.18,-1.24,2.04,-0.05,-0.09,-0.03,1.0,how-are-you
3255.0,976.0,1873.0,3915.0,2774.0,2645.0,3071.0,2672.0,5.4,-4.94,10.75,0.07,-0.11,-0.14,0.0,2928.0,3440.0,3058.0,2912.0,4095.0,2420.0,3006.0,2798.0,-9.13,-1.21,2.26,-0.06,-0.09,-0.04,1.0,how-are-you
3245.0,985.0,1906.0,3935.0,2787.0,2645.0,3058.0,2674.0,5.59,-5.03,10.92,0.02,0.0,-0.15,0.0,2921.0,3439.0,3043.0,2911.0,4095.0,2418.0,3011.0,2806.0,-9.12,-1.22,2.27,-0.04,-0.09,-0.03,1.0,how-are-you
3270.0,987.0,1921.0,3929.0,2790.0,2630.0,3056.0,2678.0,5.63,-5.04,10.91,0.04,0.01,-0.16,0.0,2915.0,3433.0,3041.0,2908.0,4095.0,2427.0,3019.0,2810.0,-9.15,-1.26,2.15,-0.04,-0.07,-0.0,1.0,how-are-you
3411.0,2338.0,3658.0,4095.0,1979.0,2059.0,2240.0,1777.0,8.38,4.51,0.77,0.02,-0.04,-0.13,0.0,3921.0,3599.0,3089.0,3553.0,3083.0,2581.0,2992.0,2367.0,-4.91,6.89,5.3,-0.02,-0.17,-0.01,1.0,how-are-you
3407.0,2335.0,3664.0,4095.0,1994.0,2059.0,2276.0,1799.0,8.44,4.37,0.72,-0.0,-0.1,-0.1,0.0,3898.0,3602.0,3063.0,3546.0,3083.0,2588.0,2994.0,2351.0,-4.64,6.91,5.28,-0.07,-0.07,-0.0,1.0,how-are-you
3413.0,2502.0,3650.0,4095.0,1968.0,2038.0,2095.0,1813.0,7.56,3.91,-0.27,-0.12,-1.82,0.51,0.0,3904.0,3583.0,3065.0,3495.0,3029.0,2525.0,3007.0,2261.0,-3.0,6.56,4.89,0.26,-0.77,0.31,1.0,how-are-you
3408.0,2594.0,3666.0,4095.0,1930.0,2038.0,2250.0,1819.0,8.8,4.83,-0.29,0.21,4.13,-3.28,0.0,3919.0,3618.0,3083.0,3456.0,2999.0,2522.0,2991.0,2073.0,-5.47,4.84,1.43,-1.95,5.01,-3.87,1.0,how-are-you
3417.0,2598.0,3655.0,4095.0,1974.0,2064.0,2288.0,1878.0,3.41,5.73,3.9,-1.04,3.92,-2.38,0.0,3887.0,3664.0,3068.0,3509.0,3055.0,2512.0,3010.0,2402.0,-9.34,0.63,1.29,-1.76,1.96,-2.83,1.0,how-are-you
3434.0,2255.0,3689.0,3821.0,1987.0,2128.0,2352.0,1872.0,2.62,1.07,5.97,-2.77,1.17,0.94,0.0,3888.0,3651.0,3061.0,3411.0,3038.0,2495.0,3009.0,2422.0,-16.89,1.22,5.04,0.08,-0.33,0.14,1.0,how-are-you
3394.0,2112.0,3779.0,3755.0,2096.0,2224.0,2479.0,2059.0,2.51,0.15,9.04,-4.85,2.04,2.92,0.0,3025.0,3568.0,3025.0,2635.0,4095.0,2448.0,3210.0,2119.0,-2.36,3.56,1.43,-0.47,-0.73,-0.6,1.0,how-are-you
3248.0,943.0,2059.0,3911.0,2598.0,2501.0,2905.0,2610.0,5.37,-9.28,15.09,-2.49,-0.68,1.24,0.0,2916.0,3569.0,3051.0,2829.0,4095.0,2459.0,3071.0,2831.0,-11.26,-6.93,0.46,0.42,-0.92,-0.85,1.0,how-are-you
3219.0,953.0,2110.0,3952.0,2671.0,2559.0,3087.0,2736.0,4.82,-9.77,12.84,0.18,-1.04,0.02,0.0,2909.0,3559.0,3044.0,2833.0,4095.0,2463.0,3085.0,2854.0,-9.36,-2.02,2.34,-0.25,0.44,0.19,1.0,how-are-you
3190.0,936.0,1937.0,3940.0,2704.0,2559.0,3105.0,2778.0,3.96,-7.07,10.55,0.24,-0.8,-0.14,0.0,2917.0,3563.0,3051.0,2833.0,4095.0,2480.0,3086.0,2867.0,-9.46,-2.34,2.17,0.03,-0.1,0.15,1.0,how-are-you
3194.0,927.0,1782.0,3959.0,2691.0,2597.0,3109.0,2779.0,4.86,-7.3,9.49,0.08,-0.43,-0.05,0.0,2907.0,3547.0,3051.0,2863.0,4095.0,2481.0,3088.0,2881.0,-8.94,-1.85,2.13,-0.01,-0.04,0.11,1.0,how-are-you
3202.0,939.0,1755.0,3953.0,2688.0,2583.0,3105.0,2769.0,4.75,-7.19,9.45,0.13,-0.22,-0.15,0.0,2910.0,3559.0,3050.0,2893.0,4095.0,2513.0,3086.0,2906.0,-8.99,-1.61,2.25,-0.02,-0.03,0.01,1.0,how-are-you
3210.0,939.0,1754.0,3958.0,2699.0,2586.0,3101.0,2743.0,4.51,-6.93,9.51,0.07,-0.04,-0.14,0.0,2914.0,3545.0,3052.0,2893.0,4095.0,2491.0,3085.0,2920.0,-8.92,-1.56,2.01,-0.01,-0.03,-0.0,1.0,how-are-you
3202.0,953.0,1738.0,3954.0,2690.0,2598.0,3102.0,2741.0,4.51,-6.93,9.63,0.03,-0.01,-0.15,0.0,2909.0,3556.0,3049.0,2898.0,4095.0,2511.0,3088.0,2920.0,-8.79,-1.47,2.0,-0.07,-0.05,-0.01,1.0,how-are-you
3194.0,944.0,1707.0,3979.0,2678.0,2590.0,3101.0,2726.0,4.71,-7.03,9.76,0.07,-0.11,-0.19,0.0,2916.0,3535.0,3039.0,2932.0,4095.0,2524.0,3094.0,2927.0,-9.11,-1.68,2.0,-0.02,-0.09,-0.05,1.0,how-are-you
3222.0,954.0,1701.0,3998.0,2651.0,2559.0,3091.0,2722.0,4.87,-7.0,9.71,0.06,-0.0,-0.16,0.0,2911.0,3557.0,3056.0,2928.0,4095.0,2533.0,3090.0,2926.0,-8.97,-1.7,2.13,-0.01,-0.12,-0.06,1.0,how-are-you
3216.0,951.0,1691.0,3989.0,2703.0,2594.0,3094.0,2714.0,4.94,-6.96,9.74,0.05,-0.01,-0.16,0.0,2919.0,3553.0,3049.0,2930.0,4095.0,2541.0,3088.0,2928.0,-9.15,-1.64,2.04,-0.14,0.12,-0.01,1.0,how-are-you
3209.0,945.0,1696.0,4011.0,2688.0,2590.0,3070.0,2697.0,4.72,-6.78,9.63,0.05,0.02,-0.17,0.0,2908.0,3563.0,3045.0,2935.0,4095.0,2542.0,3095.0,2923.0,-9.17,-1.69,2.22,-0.1,0.04,-0.02,1.0,how-are-you
3211.0,947.0,1699.0,3981.0,2697.0,2582.0,3086.0,2688.0,4.87,-6.82,9.7,0.03,0.02,-0.15,0.0,2910.0,3546.0,3046.0,2948.0,4095.0,2546.0,3098.0,2939.0,-8.99,-1.66,2.24,-0.08,-0.04,-0.02,1.0,how-are-you
3215.0,944.0,1691.0,4025.0,2702.0,2583.0,3070.0,2730.0,5.0,-6.8,9.78,0.02,-0.01,-0.16,0.0,2913.0,3537.0,3056.0,2960.0,4095.0,2546.0,3098.0,2945.0,-9.11,-1.7,2.1,-0.07,-0.01,0.01,1.0,how-are-you
3393.0,944.0,3486.0,4095.0,2067.0,2127.0,2130.0,1855.0,8.15,3.92,-0.4,-0.01,-0.02,-0.12,0.0,3185.0,3910.0,3703.0,3744.0,3008.0,2607.0,3223.0,2547.0,-3.52,7.52,5.88,-0.06,-0.02,-0.02,1.0,how-are-you
3387.0,944.0,3511.0,4095.0,2066.0,2135.0,2225.0,1851.0,8.27,3.97,-0.34,-0.0,-0.02,-0.16,0.0,3205.0,3881.0,3711.0,3771.0,3022.0,2606.0,3248.0,2544.0,-3.63,7.25,5.9,-0.05,0.03,0.05,1.0,how-are-you
3377.0,945.0,3510.0,4095.0,2084.0,2128.0,2089.0,1870.0,5.85,3.96,-0.22,-0.04,-1.06,0.57,0.0,3185.0,3889.0,3702.0,3696.0,3024.0,2598.0,3312.0,2559.0,-3.67,6.86,5.55,0.37,-0.66,0.42,1.0,how-are-you
3387.0,947.0,3504.0,4048.0,2102.0,2086.0,2146.0,1874.0,12.88,2.76,-3.52,0.49,2.01,-1.59,0.0,3191.0,3874.0,3696.0,3678.0,3038.0,2605.0,3318.0,2413.0,-1.5,8.54,5.74,-0.15,-0.58,-0.09,1.0,how-are-you
3391.0,947.0,3520.0,4001.0,1985.0,2085.0,2288.0,1853.0,5.9,4.06,0.0,0.03,5.85,-4.23,0.0,3375.0,4041.0,3648.0,3605.0,2880.0,2407.0,2960.0,2477.0,-6.28,2.21,0.16,-2.53,5.15,-4.03,1.0,how-are-you
3390.0,944.0,3507.0,3935.0,2141.0,2065.0,2320.0,1857.0,4.86,7.56,5.03,-0.47,2.72,-1.98,0.0,3713.0,4095.0,3627.0,3698.0,2891.0,2507.0,2976.0,2525.0,-12.6,1.04,4.04,-0.43,0.67,-1.38,1.0,how-are-you
3408.0,945.0,3546.0,3918.0,2192.0,2128.0,2362.0,1904.0,4.11,7.8,7.52,-1.07,0.36,-0.32,0.0,4095.0,4095.0,3619.0,3651.0,2967.0,2497.0,2980.0,2400.0,-14.76,2.93,5.09,0.53,0.04,0.45,1.0,how-are-you
3395.0,948.0,3606.0,3778.0,2227.0,2147.0,2408.0,1938.0,3.75,5.07,6.72,-2.72,0.36,0.75,0.0,4095.0,4095.0,3504.0,3002.0,2921.0,2534.0,3107.0,2175.0,-7.74,5.22,1.93,0.22,-0.86,1.03,1.0,how-are-you
3309.0,960.0,3727.0,3724.0,2381.0,2367.0,2725.0,2431.0,0.38,-1.9,10.68,-4.61,1.11,2.05,0.0,3025.0,3855.0,3279.0,2585.0,3610.0,2438.0,3155.0,2601.0,-3.14,4.61,1.0,-1.51,0.52,-0.23,1.0,how-are-you
3179.0,943.0,2336.0,3813.0,2500.0,2631.0,3154.0,2831.0,4.92,-9.24,14.22,-4.38,-0.95,2.39,0.0,2919.0,3679.0,3248.0,2662.0,4095.0,2367.0,3015.0,2845.0,-11.19,-8.0,2.21,0.39,-1.05,-1.96,1.0,how-are-you
3141.0,944.0,2971.0,4095.0,2746.0,2899.0,3655.0,2923.0,7.33,-14.64,15.55,-0.61,-1.92,0.17,0.0,2901.0,3653.0,3278.0,2674.0,4095.0,2418.0,3003.0,2806.0,-10.49,-4.02,3.65,-0.34,0.29,-0.17,1.0,how-are-you
3167.0,942.0,2037.0,4048.0,2864.0,2927.0,3636.0,2933.0,4.95,-6.63,8.44,0.33,-0.5,-0.21,0.0,2910.0,3664.0,3283.0,2710.0,4095.0,2433.0,3005.0,2860.0,-8.59,-2.47,2.85,-0.1,-0.07,0.16,1.0,how-are-you
3174.0,945.0,1216.0,4037.0,2709.0,2919.0,3689.0,2864.0,6.0,-7.3,8.39,0.3,-0.13,-0.11,0.0,2903.0,3671.0,3311.0,2698.0,4095.0,2428.0,3009.0,2908.0,-8.39,-2.0,3.29,-0.19,0.19,0.11,1.0,how-are-you
3184.0,947.0,962.0,4042.0,2645.0,2903.0,3659.0,2964.0,5.78,-7.08,8.35,0.21,-0.11,-0.25,0.0,2912.0,3658.0,3309.0,2743.0,4095.0,2443.0,3014.0,2917.0,-8.6,-1.91,3.15,-0.03,-0.11,0.0,1.0,how-are-you
3181.0,949.0,960.0,4061.0,2759.0,2873.0,3616.0,2961.0,5.37,-6.81,8.54,0.11,-0.06,-0.2,0.0,2914.0,3656.0,3303.0,2755.0,4095.0,2450.0,3011.0,2912.0,-8.63,-2.12,3.22,-0.04,0.03,-0.04,1.0,how-are-you
3195.0,934.0,944.0,4047.0,2779.0,2847.0,3619.0,2965.0,5.75,-6.88,8.64,0.04,-0.01,-0.16,0.0,2908.0,3671.0,3311.0,2777.0,4095.0,2453.0,3023.0,2953.0,-8.77,-2.2,3.08,-0.04,0.04,-0.04,1.0,how-are-you
3201.0,947.0,944.0,4033.0,2793.0,2839.0,3583.0,2966.0,5.76,-7.05,8.63,-0.11,-0.12,-0.12,0.0,2919.0,3670.0,3307.0,2809.0,4095.0,2462.0,3021.0,2960.0,-8.84,-2.29,3.37,-0.05,0.04,-0.01,1.0,how-are-you
3197.0,944.0,939.0,4080.0,2806.0,2842.0,3600.0,2949.0,5.46,-6.83,8.61,-0.01,-0.01,-0.2,0.0,2906.0,3672.0,3298.0,2819.0,4095.0,2471.0,3024.0,2969.0,-8.56,-2.14,3.22,-0.08,0.0,0.0,1.0,how-are-you
3183.0,944.0,955.0,4023.0,2847.0,2833.0,3583.0,2954.0,5.68,-6.93,8.54,0.05,-0.06,-0.15,0.0,2907.0,3664.0,3327.0,2829.0,4095.0,2455.0,3023.0,2918.0,-8.77,-2.24,3.17,-0.04,0.03,-0.02,1.0,how-are-you
3175.0,935.0,983.0,4095.0,2818.0,2826.0,3569.0,2985.0,5.59,-6.92,8.71,0.08,-0.14,-0.13,0.0,2896.0,3664.0,3327.0,2828.0,4095.0,2448.0,3018.0,2919.0,-8.8,-2.02,3.31,-0.08,0.01,-0.01,1.0,how-are-you
3434.0,954.0,2793.0,4095.0,2093.0,2174.0,2389.0,1977.0,8.82,4.48,1.68,-0.12,0.02,-0.09,0.0,1806.0,3901.0,3235.0,3370.0,3069.0,2624.0,2966.0,2470.0,-4.61,7.55,5.23,0.05,-0.21,0.11,1.0,how-are-you
3426.0,948.0,2803.0,4095.0,2091.0,2148.0,2403.0,1974.0,7.93,4.41,1.43,-0.44,-0.74,0.33,0.0,1813.0,3871.0,3245.0,3414.0,3060.0,2608.0,2969.0,2448.0,-4.35,7.75,4.95,0.1,-0.63,0.54,1.0,how-are-you
3424.0,953.0,2812.0,4095.0,2001.0,2146.0,2422.0,1984.0,7.62,3.83,1.15,-0.25,-0.68,0.32,0.0,1818.0,3854.0,3248.0,3424.0,3050.0,2595.0,3001.0,2475.0,-3.34,7.32,4.63,0.23,-1.07,0.64,1.0,how-are-you
3445.0,944.0,2815.0,4095.0,1970.0,2144.0,2419.0,1998.0,8.65,2.96,0.29,0.01,-1.31,0.53,0.0,1798.0,3867.0,3239.0,3379.0,3021.0,2549.0,3184.0,2448.0,-1.5,8.26,4.57,-0.24,-0.56,-0.1,1.0,how-are-you
3440.0,943.0,2832.0,4095.0,2062.0,2097.0,2403.0,1977.0,6.03,4.57,3.07,0.49,1.49,-2.17,0.0,1885.0,3885.0,3236.0,3440.0,2909.0,2559.0,2975.0,2525.0,-3.98,4.73,1.94,-1.64,3.92,-2.71,1.0,how-are-you
3446.0,935.0,2434.0,4061.0,2189.0,2353.0,2477.0,2029.0,3.02,7.48,6.88,-0.39,2.07,-1.63,0.0,2185.0,4029.0,3221.0,3473.0,2955.0,2547.0,2991.0,2541.0,-8.22,2.0,2.72,-0.7,2.04,-2.51,1.0,how-are-you
3470.0,928.0,2201.0,4047.0,2217.0,2417.0,2519.0,2075.0,5.0,9.3,6.73,-0.76,-0.01,0.26,0.0,2961.0,4095.0,3239.0,3258.0,2894.0,2527.0,2994.0,2533.0,-15.32,1.61,5.07,-0.02,-0.39,0.22,1.0,how-are-you
3473.0,931.0,1968.0,4023.0,2257.0,2193.0,2554.0,2199.0,6.23,5.15,6.01,-1.58,-0.2,0.46,0.0,3000.0,4095.0,3206.0,3023.0,3082.0,2491.0,3022.0,2411.0,-9.2,4.0,2.41,0.82,-0.28,1.62,1.0,how-are-you
3339.0,941.0,940.0,3631.0,2205.0,2340.0,2861.0,2506.0,3.4,-0.34,8.83,-4.14,0.96,3.23,0.0,2931.0,3910.0,3098.0,2493.0,3200.0,2363.0,3056.0,2470.0,-3.78,2.47,2.94,-1.03,1.16,-1.54,1.0,how-are-you
3184.0,933.0,976.0,3583.0,2253.0,2692.0,3418.0,2813.0,3.96,-4.64,12.33,-3.76,-0.07,3.2,0.0,2912.0,3851.0,3114.0,2722.0,4095.0,2352.0,2999.0,2624.0,-7.58,-7.58,1.19,0.17,-0.58,-3.55,1.0,how-are-you
3155.0,954.0,971.0,3675.0,2913.0,2989.0,3682.0,2973.0,8.6,-7.0,9.57,0.59,-1.19,-0.35,0.0,2900.0,3855.0,3136.0,2733.0,4095.0,2361.0,2982.0,2709.0,-10.83,-4.84,0.67,0.62,-1.32,-0.15,1.0,how-are-you
3182.0,947.0,947.0,3715.0,2941.0,2959.0,3670.0,2991.0,5.75,-5.75,8.49,0.23,-0.05,-0.33,0.0,2910.0,3833.0,3124.0,2779.0,4095.0,2410.0,2985.0,2755.0,-9.04,-2.34,1.88,0.16,-0.41,0.04,1.0,how-are-you
3167.0,952.0,944.0,3730.0,2944.0,2967.0,3691.0,2972.0,6.35,-6.58,8.64,0.01,-0.23,-0.14,0.0,2909.0,3839.0,3132.0,2800.0,4095.0,2420.0,2995.0,2767.0,-8.93,-2.06,2.28,-0.05,0.09,0.05,1.0,how-are-you
3170.0,959.0,944.0,3754.0,2951.0,2942.0,3696.0,3007.0,6.02,-6.64,8.58,-0.01,-0.06,-0.15,0.0,2911.0,3856.0,3126.0,2822.0,4095.0,2429.0,2995.0,2765.0,-8.98,-1.91,2.03,-0.01,-0.01,0.0,1.0,how-are-you
3183.0,965.0,934.0,3774.0,2917.0,2874.0,3653.0,2987.0,6.37,-6.51,8.39,0.1,-0.15,-0.21,0.0,2905.0,3856.0,3118.0,2832.0,4095.0,2438.0,2997.0,2774.0,-8.9,-1.68,2.01,-0.12,0.2,0.0,1.0,how-are-you
3183.0,948.0,933.0,3767.0,2915.0,2861.0,3651.0,2946.0,6.47,-6.43,8.39,0.03,-0.06,-0.16,0.0,2910.0,3853.0,3123.0,2833.0,4095.0,2445.0,2999.0,2783.0,-9.09,-1.83,1.97,-0.02,-0.03,-0.04,1.0,how-are-you
3180.0,960.0,939.0,3792.0,2903.0,2862.0,3630.0,2961.0,6.51,-6.33,8.33,0.06,-0.12,-0.18,0.0,2901.0,3856.0,3125.0,2852.0,4095.0,2447.0,2987.0,2783.0,-8.98,-1.79,1.99,-0.02,-0.07,-0.03,1.0,how-are-you
3177.0,949.0,931.0,3787.0,2907.0,2863.0,3621.0,2934.0,6.63,-6.37,8.28,0.04,-0.09,-0.18,0.0,2911.0,3856.0,3123.0,2857.0,4095.0,2451.0,3002.0,2786.0,-9.06,-1.76,2.06,-0.06,-0.05,-0.05,1.0,how-are-you
3177.0,954.0,925.0,3797.0,2914.0,2848.0,3617.0,2936.0,6.55,-6.4,8.29,-0.01,0.03,-0.15,0.0,2910.0,3856.0,3129.0,2862.0,4095.0,2448.0,3005.0,2794.0,-9.2,-1.82,2.0,-0.06,0.01,-0.03,1.0,how-are-you
3180.0,941.0,929.0,3786.0,2916.0,2855.0,3633.0,2942.0,6.45,-6.34,8.27,0.04,0.06,-0.11,0.0,2909.0,3859.0,3127.0,2875.0,4095.0,2455.0,3001.0,2792.0,-9.14,-1.87,1.98,-0.14,0.18,0.01,1.0,how-are-you
3436.0,1015.0,3867.0,4095.0,1968.0,1984.0,2205.0,1741.0,8.25,4.1,0.16,-0.07,-0.45,-0.3,0.0,3375.0,4033.0,3157.0,3337.0,2944.0,2487.0,2917.0,2336.0,-7.23,5.9,3.63,-0.3,-0.49,0.53,1.0,how-are-you
3418.0,1015.0,3899.0,4062.0,1999.0,1991.0,2240.0,1776.0,7.84,4.28,-0.62,-0.19,-0.23,-0.11,0.0,3389.0,3997.0,3162.0,3377.0,3051.0,2526.0,2938.0,2495.0,-4.54,7.03,5.24,0.35,-0.68,0.49,1.0,how-are-you
3422.0,1037.0,3916.0,4095.0,1987.0,1983.0,2250.0,1786.0,7.34,4.34,0.45,-0.34,-0.79,0.15,0.0,3382.0,3965.0,3169.0,3413.0,3038.0,2527.0,2944.0,2464.0,-3.79,7.12,4.4,0.12,-0.5,0.75,1.0,how-are-you
3421.0,1073.0,4064.0,4095.0,1965.0,2015.0,2046.0,1749.0,11.2,2.87,-3.07,0.32,0.82,-0.43,0.0,3355.0,3921.0,3163.0,3286.0,3085.0,2583.0,2689.0,2273.0,-2.47,6.79,5.7,-0.06,-0.85,0.44,1.0,how-are-you
3435.0,1056.0,3952.0,4092.0,2070.0,1999.0,2267.0,1808.0,7.6,3.8,0.87,-0.0,4.07,-3.64,0.0,3382.0,3955.0,3142.0,3473.0,3002.0,2487.0,2959.0,2514.0,-1.98,2.31,2.62,-1.26,4.21,-2.95,1.0,how-are-you
3425.0,1040.0,3831.0,4095.0,2079.0,2017.0,2288.0,1840.0,4.99,8.02,7.32,-0.33,0.09,-0.55,0.0,3632.0,4095.0,3141.0,3376.0,3003.0,2477.0,2986.0,2535.0,-15.83,1.91,4.62,-0.17,0.32,-0.05,1.0,how-are-you
3445.0,1075.0,3712.0,4066.0,2150.0,2075.0,2315.0,1872.0,5.02,5.9,6.08,-1.29,-0.38,0.34,0.0,3722.0,4095.0,3127.0,3131.0,3071.0,2559.0,3015.0,2223.0,-8.97,4.48,2.0,0.61,-0.41,1.83,1.0,how-are-you
3419.0,1246.0,3398.0,3819.0,1999.0,2147.0,2333.0,1968.0,1.98,3.07,6.13,-2.65,0.72,2.68,0.0,2879.0,3503.0,3063.0,2643.0,4095.0,2415.0,3106.0,2689.0,-0.86,2.95,2.42,-1.33,1.42,-2.9,1.0,how-are-you
3146.0,966.0,2448.0,3824.0,3043.0,3206.0,3898.0,2986.0,14.72,-15.41,14.18,-0.41,-1.6,1.16,0.0,2907.0,3433.0,3097.0,2735.0,4095.0,2368.0,2990.0,2827.0,-10.22,-2.97,2.34,-0.32,0.44,0.37,1.0,how-are-you
3197.0,976.0,1424.0,3781.0,3121.0,3361.0,4095.0,3216.0,6.37,-6.4,7.81,0.37,-0.42,-0.66,0.0,2898.0,3415.0,3108.0,2772.0,4095.0,2352.0,2977.0,2860.0,-8.66,-1.8,2.27,0.03,-0.36,0.08,1.0,how-are-you
3195.0,981.0,1131.0,3758.0,3151.0,3355.0,4095.0,3249.0,6.9,-6.12,7.15,0.14,-0.15,-0.45,0.0,2899.0,3411.0,3115.0,2807.0,4095.0,2356.0,2978.0,2841.0,-8.46,-1.64,2.88,-0.06,0.19,0.06,1.0,how-are-you
3216.0,960.0,1056.0,3778.0,3111.0,3285.0,4095.0,3214.0,6.52,-6.39,7.55,-0.07,-0.05,-0.03,0.0,2916.0,3415.0,3104.0,2851.0,4095.0,2379.0,2978.0,2870.0,-9.03,-1.66,2.32,-0.05,0.13,0.11,1.0,how-are-you
3231.0,960.0,1143.0,3798.0,3111.0,3259.0,4095.0,3207.0,7.04,-6.45,7.76,-0.01,-0.19,-0.07,0.0,2906.0,3427.0,3107.0,2862.0,4095.0,2389.0,2994.0,2893.0,-9.1,-1.41,2.23,-0.03,0.03,0.04,1.0,how-are-you
3222.0,986.0,1130.0,3790.0,3116.0,3253.0,4095.0,3243.0,6.97,-6.3,7.5,0.0,-0.07,-0.12,0.0,2911.0,3421.0,3103.0,2881.0,4095.0,2387.0,2999.0,2906.0,-9.16,-1.53,1.94,-0.02,0.01,-0.03,1.0,how-are-you
3248.0,1381.0,1041.0,3827.0,3146.0,3248.0,4095.0,3258.0,6.98,-6.51,7.56,-0.03,-0.06,-0.14,0.0,2922.0,3401.0,3103.0,2863.0,4095.0,2401.0,2998.0,2909.0,-8.89,-1.62,2.14,-0.01,-0.07,-0.01,1.0,how-are-you
3225.0,1265.0,1051.0,3797.0,3141.0,3147.0,4095.0,3230.0,6.95,-6.39,7.47,0.04,-0.01,-0.16,0.0,2910.0,3411.0,3103.0,2871.0,4095.0,2402.0,3002.0,2867.0,-9.22,-1.73,2.52,-0.05,0.02,0.01,1.0,how-are-you
3229.0,1264.0,1040.0,3831.0,3151.0,3100.0,4095.0,3226.0,7.08,-6.31,7.33,0.04,0.04,-0.15,0.0,2924.0,3399.0,3101.0,2916.0,4095.0,2411.0,3004.0,2880.0,-9.09,-1.51,2.33,-0.13,0.12,0.01,1.0,how-are-you
3233.0,1232.0,1040.0,3829.0,3121.0,3088.0,4066.0,3219.0,6.83,-6.55,7.49,0.07,0.01,-0.14,0.0,2913.0,3399.0,3114.0,2931.0,4095.0,2410.0,3007.0,2873.0,-9.11,-1.35,2.15,-0.11,0.14,-0.04,1.0,how-are-you
3239.0,1232.0,1055.0,3831.0,3136.0,3088.0,4089.0,3195.0,6.88,-6.39,7.34,0.08,-0.04,-0.17,0.0,2915.0,3397.0,3111.0,2939.0,4095.0,2416.0,3008.0,2887.0,-9.23,-1.56,2.26,-0.1,0.05,-0.09,1.0,how-are-you
3221.0,1232.0,1045.0,3840.0,3143.0,3071.0,4090.0,3185.0,6.86,-6.31,7.45,0.03,-0.04,-0.13,0.0,2914.0,3397.0,3104.0,2947.0,4095.0,2419.0,3005.0,2897.0,-9.16,-1.61,2.21,-0.11,0.03,-0.01,1.0,how-are-you
3522.0,3813.0,3920.0,4095.0,2012.0,2016.0,2221.0,1828.0,7.9,4.91,1.5,-0.24,-0.18,0.01,0.0,3514.0,3616.0,3664.0,3687.0,3034.0,2588.0,2999.0,2535.0,-4.18,7.46,4.1,0.13,-0.56,0.47,1.0,how-are-you
3509.0,3835.0,3918.0,4095.0,2019.0,3024.0,2234.0,1830.0,8.32,4.47,1.37,-0.31,-1.65,0.7,0.0,3533.0,3599.0,3654.0,3702.0,3051.0,2559.0,3006.0,2544.0,-4.14,7.68,4.86,0.09,-0.59,0.36,1.0,how-are-you
3508.0,3811.0,3973.0,4095.0,1977.0,2067.0,2239.0,1827.0,9.09,3.55,-0.93,0.21,0.03,-0.31,0.0,3525.0,3597.0,3643.0,3675.0,3103.0,2591.0,3005.0,2481.0,-2.34,7.75,4.27,-0.02,-0.35,0.07,1.0,how-are-you
3493.0,3787.0,3933.0,4095.0,2046.0,2030.0,2233.0,1840.0,8.48,4.78,0.02,0.07,4.48,-2.65,0.0,3513.0,3609.0,3654.0,3703.0,3027.0,2558.0,3009.0,2517.0,-3.69,5.24,3.6,-1.07,2.99,-2.76,1.0,how-are-you
3519.0,3787.0,3926.0,4095.0,2047.0,2040.0,2234.0,1857.0,7.07,5.64,2.76,0.02,2.41,-2.04,0.0,3513.0,3642.0,3630.0,3648.0,3029.0,2552.0,3022.0,2636.0,-8.7,1.41,1.74,-1.72,2.63,-2.56,1.0,how-are-you
3539.0,3792.0,3836.0,4095.0,2099.0,2054.0,2263.0,1872.0,5.02,6.85,6.28,-0.89,1.59,-1.0,0.0,3500.0,3678.0,3605.0,3583.0,3057.0,2559.0,3034.0,2658.0,-12.58,2.1,3.26,-0.88,0.98,-1.29,1.0,how-are-you
3475.0,4038.0,3519.0,3725.0,2203.0,2203.0,2475.0,2083.0,5.85,5.12,6.25,-1.68,0.06,1.34,0.0,3504.0,3683.0,3583.0,3484.0,3117.0,2583.0,3041.0,2512.0,-12.26,3.48,3.56,0.59,0.48,0.52,1.0,how-are-you
3429.0,4095.0,2739.0,3562.0,2187.0,2263.0,2559.0,2293.0,4.24,2.79,7.07,-2.13,0.58,1.98,0.0,3513.0,3651.0,3413.0,3159.0,3138.0,2586.0,3110.0,2534.0,-5.82,6.65,-0.72,-0.17,-0.5,0.27,1.0,how-are-you
3293.0,4095.0,1072.0,3561.0,2155.0,2506.0,3035.0,2536.0,2.89,-0.15,10.0,-3.09,0.38,3.09,0.0,2888.0,3568.0,3135.0,2735.0,4095.0,2384.0,3111.0,2479.0,-4.21,-2.55,2.09,-0.66,0.18,-2.81,1.0,how-are-you
3135.0,4095.0,1263.0,3696.0,2749.0,2861.0,3441.0,2598.0,10.66,-6.72,14.16,-3.01,-1.34,3.38,0.0,2909.0,3558.0,3201.0,2583.0,4095.0,2395.0,3050.0,2707.0,-13.96,-11.06,-0.4,-0.73,2.37,-1.86,1.0,how-are-you
3098.0,1038.0,1255.0,3831.0,3145.0,3103.0,3797.0,2850.0,12.19,-8.01,12.38,-0.03,-1.5,0.06,0.0,2902.0,3525.0,3225.0,2741.0,4095.0,2407.0,3024.0,2735.0,-8.96,-2.4,1.93,0.15,-0.44,0.01,1.0,how-are-you
3120.0,1408.0,989.0,3823.0,3172.0,3173.0,3907.0,2847.0,7.54,-4.4,8.03,0.52,-0.3,-0.37,0.0,2915.0,3533.0,3227.0,2832.0,4095.0,2421.0,3024.0,2635.0,-9.15,-3.0,1.75,-0.11,0.21,-0.07,1.0,how-are-you
3153.0,1006.0,966.0,3824.0,2979.0,3190.0,4032.0,3118.0,7.17,-5.79,7.69,-0.07,-0.13,0.04,0.0,2908.0,3531.0,3218.0,2817.0,4095.0,2428.0,3025.0,2697.0,-8.86,-3.23,1.87,0.12,-0.52,0.09,1.0,how-are-you
3151.0,990.0,966.0,3826.0,2957.0,3099.0,4016.0,3087.0,7.38,-6.15,8.26,-0.06,-0.34,-0.07,0.0,2914.0,3529.0,3228.0,2711.0,4095.0,2415.0,3024.0,2747.0,-8.97,-2.67,2.39,-0.08,0.06,0.1,1.0,how-are-you
3157.0,976.0,960.0,3806.0,2967.0,3014.0,3963.0,3018.0,7.29,-5.63,7.41,0.11,0.05,-0.14,0.0,2909.0,3536.0,3221.0,2743.0,4095.0,2415.0,3034.0,2775.0,-8.8,-2.26,1.88,0.05,-0.11,0.11,1.0,how-are-you
3183.0,983.0,942.0,3857.0,2960.0,3019.0,3952.0,3071.0,7.53,-5.99,7.56,0.03,-0.08,-0.11,0.0,2913.0,3519.0,3223.0,2777.0,4095.0,2418.0,3031.0,2789.0,-8.78,-2.32,2.02,-0.01,-0.02,0.02,1.0,how-are-you
3175.0,976.0,934.0,3841.0,2981.0,2977.0,3884.0,3058.0,7.33,-5.83,7.49,0.07,-0.01,-0.14,0.0,2905.0,3518.0,3218.0,2800.0,4095.0,2423.0,3034.0,2779.0,-9.03,-2.37,1.93,-0.12,0.13,-0.0,1.0,how-are-you
3182.0,975.0,933.0,3843.0,2978.0,2997.0,3963.0,3071.0,7.37,-5.81,7.52,0.04,-0.01,-0.18,0.0,2903.0,3512.0,3237.0,2813.0,4095.0,2422.0,3040.0,2785.0,-8.97,-2.39,2.13,-0.07,0.01,-0.02,1.0,how-are-you
3184.0,970.0,939.0,3821.0,2992.0,3006.0,3951.0,3083.0,7.45,-5.88,7.65,0.06,0.03,-0.19,0.0,2907.0,3514.0,3216.0,2839.0,4095.0,2429.0,3037.0,2789.0,-8.97,-2.29,2.0,-0.07,0.03,-0.0,1.0,how-are-you
3174.0,976.0,939.0,3819.0,2970.0,2992.0,3983.0,3097.0,7.36,-5.72,7.66,0.02,-0.03,-0.18,0.0,2909.0,3531.0,3232.0,2845.0,4095.0,2443.0,3043.0,2794.0,-9.02,-2.33,2.05,-0.07,0.04,0.01,1.0,how-are-you
3615.0,3194.0,3675.0,3937.0,1940.0,2062.0,2304.0,1808.0,8.77,3.93,1.35,0.01,0.1,-0.16,0.0,3327.0,3669.0,3974.0,3697.0,2992.0,2604.0,2997.0,2642.0,-6.4,6.14,3.84,-0.02,-0.17,0.22,1.0,how-are-you
3632.0,3200.0,3633.0,4006.0,1906.0,2061.0,2298.0,1793.0,8.62,4.18,1.3,-0.02,-0.14,-0.07,0.0,3327.0,3667.0,3959.0,3616.0,2982.0,2625.0,2992.0,2651.0,-6.48,6.55,4.55,0.0,-0.1,0.23,1.0,how-are-you
3616.0,3193.0,3676.0,4095.0,1914.0,2053.0,2306.0,1826.0,7.4,3.94,0.64,-0.17,-1.46,0.53,0.0,3325.0,3657.0,3951.0,3781.0,2839.0,2630.0,2983.0,2633.0,-4.48,6.43,4.24,0.13,-0.64,0.86,1.0,how-are-you
3635.0,3192.0,3671.0,4095.0,1924.0,2043.0,2317.0,1827.0,8.49,2.71,-0.47,0.16,-0.58,0.34,0.0,3323.0,3703.0,3984.0,3712.0,2995.0,2509.0,2993.0,2614.0,-5.58,7.21,3.12,-0.87,2.06,-2.6,1.0,how-are-you
3635.0,3177.0,3635.0,4095.0,1972.0,2036.0,2391.0,1864.0,6.41,5.31,5.17,-0.56,2.08,-0.81,0.0,3313.0,3710.0,4095.0,3678.0,3017.0,2527.0,3009.0,2626.0,-7.73,1.12,1.01,-1.9,2.44,-2.53,1.0,how-are-you
3648.0,3186.0,3799.0,4080.0,2149.0,2141.0,2478.0,1939.0,5.51,4.42,8.78,-1.5,2.47,0.52,0.0,3290.0,3722.0,4079.0,3345.0,3003.0,2548.0,3080.0,2767.0,-10.7,3.95,2.47,0.08,1.26,-0.14,1.0,how-are-you
3539.0,3285.0,4095.0,3649.0,2277.0,2250.0,2800.0,2317.0,4.93,2.8,7.95,-2.14,1.83,1.58,0.0,3296.0,3407.0,3280.0,2751.0,3152.0,2441.0,3190.0,2612.0,-6.96,5.61,0.87,-1.17,-0.53,0.5,1.0,how-are-you
3351.0,4095.0,1072.0,3565.0,2524.0,2515.0,3196.0,2696.0,4.38,0.42,7.36,-2.55,-0.93,1.82,0.0,2913.0,3184.0,3210.0,2607.0,4095.0,2356.0,3121.0,2667.0,-5.47,2.05,1.9,0.02,-0.89,-1.19,1.0,how-are-you
3233.0,4095.0,1399.0,3535.0,2703.0,2776.0,3650.0,2857.0,7.8,-2.75,10.74,-2.52,-0.37,2.8,0.0,2911.0,3222.0,3199.0,2437.0,4095.0,2317.0,3020.0,2778.0,-6.15,-6.86,1.58,-0.27,0.18,-2.98,1.0,how-are-you
3154.0,4095.0,1047.0,3664.0,3039.0,2979.0,3840.0,2959.0,9.71,-4.94,10.86,0.28,-0.63,-0.35,0.0,2900.0,3229.0,3237.0,2785.0,4095.0,2368.0,2971.0,2832.0,-9.08,-2.55,1.56,-0.01,0.01,0.03,1.0,how-are-you
3183.0,4095.0,976.0,3657.0,3059.0,2930.0,3832.0,2955.0,7.07,-4.38,9.28,0.29,-0.11,-0.5,0.0,2917.0,3241.0,3257.0,2869.0,4095.0,2370.0,2973.0,2866.0,-8.78,-2.96,1.64,0.07,-0.14,0.04,1.0,how-are-you
3190.0,4095.0,960.0,3661.0,3057.0,2896.0,3771.0,2927.0,7.8,-4.73,8.62,0.06,0.01,-0.12,0.0,2917.0,3246.0,3250.0,2891.0,4095.0,2383.0,2983.0,2876.0,-8.84,-2.82,2.0,0.09,-0.19,0.01,1.0,how-are-you
3200.0,4095.0,951.0,3664.0,3038.0,2864.0,3718.0,2896.0,7.62,-4.52,8.68,0.04,-0.11,-0.15,0.0,2917.0,3241.0,3248.0,2864.0,4095.0,2400.0,2989.0,2895.0,-8.89,-2.63,1.8,-0.12,0.26,0.06,1.0,how-are-you
3216.0,4095.0,944.0,3665.0,3039.0,2838.0,3728.0,2905.0,7.81,-4.48,8.45,0.03,0.01,-0.15,0.0,2899.0,3238.0,3248.0,2816.0,4095.0,2384.0,2993.0,2878.0,-8.64,-2.39,1.82,-0.05,-0.08,-0.03,1.0,how-are-you
3197.0,4095.0,944.0,3669.0,3039.0,2817.0,3701.0,2922.0,7.9,-4.5,8.47,0.03,-0.03,-0.13,0.0,2917.0,3246.0,3253.0,2852.0,4095.0,2390.0,2993.0,2885.0,-8.71,-2.44,1.84,-0.11,-0.04,0.0,1.0,how-are-you
3195.0,4095.0,953.0,3670.0,3052.0,2822.0,3723.0,2911.0,7.86,-4.42,8.48,0.08,-0.01,-0.13,0.0,2903.0,3247.0,3263.0,2864.0,4095.0,2403.0,2995.0,2894.0,-9.07,-2.46,1.86,-0.06,0.02,0.04,1.0,how-are-you
3200.0,4095.0,944.0,3697.0,3046.0,2820.0,3669.0,2880.0,7.99,-4.48,8.42,0.05,-0.02,-0.13,0.0,2910.0,3250.0,3265.0,2864.0,4095.0,2411.0,2994.0,2887.0,-9.28,-2.4,1.96,-0.16,0.08,0.08,1.0,how-are-you
3213.0,4095.0,944.0,3684.0,3037.0,2801.0,3675.0,2907.0,8.13,-4.32,8.49,0.04,-0.04,-0.18,0.0,2922.0,3235.0,3279.0,2880.0,4095.0,2411.0,3001.0,2887.0,-8.92,-2.15,1.95,-0.09,-0.04,0.11,1.0,how-are-you
3203.0,4095.0,938.0,3664.0,3056.0,2812.0,3675.0,2928.0,8.11,-4.41,8.58,0.06,0.02,-0.23,0.0,2910.0,3241.0,3267.0,2898.0,4095.0,2421.0,3007.0,2834.0,-8.93,-2.04,1.92,0.01,-0.12,0.07,1.0,how-are-you
3207.0,4095.0,931.0,3680.0,3046.0,2801.0,3663.0,2916.0,7.92,-4.25,8.77,0.09,0.03,-0.23,0.0,2921.0,3241.0,3270.0,2897.0,4095.0,2419.0,2998.0,2864.0,-9.07,-1.97,2.1,-0.03,-0.09,0.02,1.0,how-are-you
4092.0,3655.0,3565.0,4095.0,1914.0,1996.0,2209.0,1756.0,7.3,3.69,-0.07,0.04,-0.23,0.04,0.0,3678.0,3548.0,3243.0,3583.0,2992.0,2464.0,2966.0,2492.0,-4.81,7.06,5.26,0.35,-0.29,0.6,1.0,how-are-you
4064.0,3637.0,3581.0,4095.0,1933.0,2017.0,2225.0,1751.0,6.39,3.56,-1.21,0.09,-0.69,0.36,0.0,3665.0,3538.0,3231.0,3598.0,3024.0,2473.0,2967.0,2291.0,-3.07,7.71,3.99,0.1,-0.64,0.72,1.0,how-are-you
4095.0,3632.0,3574.0,4095.0,1909.0,2014.0,2224.0,1742.0,6.36,2.79,-2.75,-0.03,-1.97,0.59,0.0,3641.0,3552.0,3239.0,3487.0,3071.0,2451.0,2965.0,2319.0,-2.15,7.0,4.35,-0.26,0.05,0.44,1.0,how-are-you
4079.0,3660.0,3611.0,4095.0,1943.0,2021.0,2236.0,1771.0,10.73,3.46,-5.43,-0.33,6.13,-3.13,0.0,3664.0,3556.0,3233.0,3306.0,3120.0,2454.0,2967.0,2314.0,-0.34,7.19,3.33,-0.76,2.29,-3.0,1.0,how-are-you
4083.0,3649.0,3583.0,3722.0,2014.0,2121.0,2373.0,1806.0,4.84,5.5,9.7,-1.14,0.45,0.58,0.0,4095.0,3632.0,3220.0,3039.0,3003.0,2471.0,3015.0,2285.0,-12.96,1.83,2.71,-1.18,1.78,-2.43,1.0,how-are-you
3941.0,3703.0,3536.0,3569.0,1923.0,2177.0,2452.0,1947.0,3.52,4.14,7.21,-1.63,1.0,1.32,0.0,2609.0,3445.0,3101.0,2704.0,3046.0,2432.0,3157.0,2251.0,-5.89,4.37,0.34,-0.67,-0.35,1.1,1.0,how-are-you
3205.0,4095.0,1680.0,3402.0,2724.0,2598.0,3134.0,2462.0,5.74,-2.43,9.72,-2.78,-0.46,3.6,0.0,2849.0,3245.0,3139.0,2705.0,4095.0,2395.0,3095.0,2621.0,-4.28,3.98,0.64,-0.38,-0.11,-0.63,1.0,how-are-you
3118.0,4095.0,2307.0,3523.0,3097.0,3022.0,3729.0,2721.0,14.19,-10.5,14.94,-1.5,-1.28,2.39,0.0,2907.0,3218.0,3128.0,2789.0,4095.0,2382.0,3027.0,2705.0,-4.51,-0.27,0.17,-0.9,0.44,-2.59,1.0,how-are-you
3100.0,4095.0,2074.0,3537.0,3197.0,3145.0,3907.0,2934.0,9.31,-6.56,9.51,0.07,-0.77,-0.09,0.0,2918.0,3228.0,3143.0,2835.0,4095.0,2409.0,3006.0,2672.0,-9.64,-2.84,2.25,-0.27,0.44,0.11,1.0,how-are-you
3135.0,4095.0,1584.0,3569.0,3172.0,3109.0,3989.0,3088.0,7.51,-5.95,7.9,0.03,-0.33,-0.14,0.0,2913.0,3233.0,3147.0,2880.0,4095.0,2427.0,2995.0,2599.0,-8.43,-1.88,1.88,0.04,0.03,-0.0,1.0,how-are-you
3139.0,4095.0,1119.0,3583.0,3118.0,3024.0,3955.0,3136.0,7.27,-6.08,7.47,0.12,-0.03,-0.16,0.0,2905.0,3236.0,3135.0,2928.0,4095.0,2457.0,3008.0,2682.0,-9.37,-2.14,1.85,0.06,-0.14,0.0,1.0,how-are-you
3143.0,4095.0,1072.0,3605.0,3105.0,2990.0,3913.0,3134.0,7.48,-5.89,7.26,0.03,-0.04,-0.11,0.0,2913.0,3237.0,3139.0,2929.0,4095.0,2452.0,3011.0,2709.0,-9.08,-1.81,1.83,-0.08,0.05,0.02,1.0,how-are-you
3151.0,4095.0,1083.0,3625.0,3095.0,2948.0,3934.0,3126.0,7.6,-5.98,7.36,0.02,-0.05,-0.18,0.0,2913.0,3223.0,3147.0,2956.0,4095.0,2457.0,3024.0,2640.0,-9.01,-1.75,1.96,-0.08,-0.03,-0.04,1.0,how-are-you
3143.0,4095.0,1107.0,3583.0,3110.0,2942.0,3920.0,3106.0,7.37,-5.83,7.38,0.05,-0.03,-0.2,0.0,2918.0,3229.0,3143.0,2939.0,4095.0,2449.0,3024.0,2608.0,-9.08,-1.75,1.92,-0.04,-0.06,-0.01,1.0,how-are-you
3151.0,4095.0,1088.0,3583.0,3089.0,2933.0,3916.0,3090.0,7.55,-5.84,7.35,0.05,-0.01,-0.18,0.0,2911.0,3221.0,3145.0,2924.0,4095.0,2433.0,3024.0,2606.0,-8.9,-1.66,1.94,-0.05,-0.06,-0.04,1.0,how-are-you
3149.0,4095.0,1087.0,3600.0,3071.0,2935.0,3856.0,3088.0,7.46,-5.68,7.32,0.04,0.0,-0.19,0.0,2911.0,3225.0,3143.0,2927.0,4095.0,2436.0,3021.0,2619.0,-9.05,-1.64,2.01,-0.05,-0.01,-0.0,1.0,how-are-you
3140.0,4095.0,1088.0,3626.0,3092.0,2925.0,3856.0,3087.0,7.6,-5.74,7.31,0.03,-0.04,-0.16,0.0,2915.0,3234.0,3146.0,2931.0,4095.0,2448.0,3023.0,2640.0,-9.12,-1.62,2.11,0.01,-0.1,-0.0,1.0,how-are-you
3143.0,4095.0,1075.0,3600.0,3089.0,2915.0,3869.0,3071.0,7.57,-5.67,7.3,0.01,-0.0,-0.16,0.0,2916.0,3219.0,3135.0,2935.0,4095.0,2448.0,3025.0,2639.0,-9.02,-1.52,2.14,-0.04,-0.07,-0.01,1.0,how-are-you
3152.0,4095.0,1071.0,3632.0,3099.0,2930.0,3847.0,3047.0,7.56,-5.71,7.38,0.01,-0.04,-0.14,0.0,2915.0,3217.0,3145.0,2945.0,4095.0,2449.0,3019.0,2655.0,-9.14,-1.61,2.06,-0.06,0.08,-0.02,1.0,how-are-you
3147.0,4095.0,1072.0,3598.0,3088.0,2922.0,3851.0,3050.0,7.58,-5.68,7.36,0.01,0.01,-0.16,0.0,2922.0,3225.0,3136.0,2948.0,4095.0,2451.0,3023.0,2653.0,-9.05,-1.53,2.09,-0.07,0.05,-0.01,1.0,how-are-you
3537.0,4095.0,4095.0,4095.0,1853.0,2098.0,2307.0,1833.0,8.1,4.25,0.73,-0.16,-0.43,0.03,0.0,4095.0,3743.0,3722.0,3453.0,3026.0,2559.0,2991.0,2535.0,-4.96,6.84,5.06,0.06,-0.08,0.24,1.0,how-are-you
3506.0,4095.0,4095.0,4095.0,1843.0,2081.0,2318.0,1830.0,7.92,3.28,-1.73,-0.52,-3.45,1.08,0.0,4095.0,3739.0,3711.0,3395.0,3015.0,2608.0,2991.0,2489.0,-4.54,7.23,4.76,0.27,-0.66,0.64,1.0,how-are-you
3517.0,4095.0,4095.0,4095.0,1879.0,2084.0,2309.0,1850.0,7.63,2.92,-2.43,0.1,-0.45,0.2,0.0,4095.0,3719.0,3703.0,3367.0,3071.0,2502.0,2990.0,2353.0,-0.43,9.63,4.64,-0.31,-0.13,-0.14,1.0,how-are-you
3526.0,4095.0,4095.0,4095.0,1910.0,2061.0,2321.0,1845.0,9.92,3.16,-3.81,0.73,3.71,-2.12,0.0,4095.0,3774.0,3750.0,3209.0,2999.0,2496.0,2993.0,2473.0,-5.51,2.66,0.51,-1.64,4.27,-3.63,1.0,how-are-you
3543.0,4095.0,4033.0,4095.0,1911.0,2100.0,2359.0,1891.0,4.77,5.84,4.76,-1.25,3.53,-1.8,0.0,4095.0,3883.0,3670.0,3438.0,2946.0,2512.0,3028.0,2525.0,-11.19,0.31,3.77,-1.16,2.22,-2.23,1.0,how-are-you
3517.0,4095.0,3664.0,4054.0,2015.0,2176.0,2473.0,2011.0,4.14,6.03,10.96,-1.03,0.58,0.13,0.0,4095.0,3922.0,3627.0,3279.0,3005.0,2506.0,3037.0,2679.0,-15.63,2.36,4.06,0.41,0.19,0.47,1.0,how-are-you
3449.0,4095.0,1949.0,3789.0,1984.0,2270.0,2557.0,2219.0,3.77,2.79,7.54,-2.22,0.72,2.13,0.0,2813.0,3520.0,3155.0,2711.0,3344.0,2511.0,3178.0,2731.0,-4.31,4.54,1.06,-0.36,-0.24,0.49,1.0,how-are-you
3280.0,3779.0,976.0,3820.0,2225.0,2339.0,2835.0,2402.0,5.64,-0.64,9.39,-2.66,0.0,3.07,0.0,2864.0,3227.0,3090.0,2763.0,4095.0,2384.0,3103.0,2480.0,-3.58,2.84,1.52,-0.07,-0.05,-1.74,1.0,how-are-you
3157.0,1552.0,954.0,3866.0,2451.0,2651.0,3248.0,2559.0,7.94,-4.58,11.52,-2.99,-0.65,3.38,0.0,2903.0,3215.0,3134.0,2927.0,4095.0,2358.0,3011.0,2549.0,-9.64,-6.45,1.96,-1.23,1.57,-3.21,1.0,how-are-you
3101.0,1838.0,2226.0,3964.0,3034.0,3323.0,4048.0,3034.0,9.96,-8.35,8.69,-0.07,-1.33,-0.11,0.0,2906.0,3214.0,3153.0,2899.0,4095.0,2399.0,2966.0,2607.0,-10.36,-2.53,2.39,-0.14,0.36,0.13,1.0,how-are-you
3081.0,2057.0,2860.0,3947.0,3151.0,3523.0,4095.0,3171.0,7.36,-6.45,7.09,0.1,-0.36,-0.55,0.0,2919.0,3214.0,3142.0,2997.0,4095.0,2423.0,2945.0,2559.0,-9.09,-2.02,2.04,0.03,0.06,0.24,1.0,how-are-you
3079.0,1015.0,2897.0,3985.0,3183.0,3503.0,4095.0,3367.0,6.96,-6.42,6.42,0.13,-0.18,-0.34,0.0,2910.0,3225.0,3151.0,3035.0,4095.0,2431.0,2982.0,2699.0,-8.85,-1.73,2.09,0.03,-0.07,0.12,1.0,how-are-you
3120.0,962.0,2887.0,3990.0,3173.0,3385.0,4095.0,3357.0,6.63,-6.69,6.97,-0.11,-0.03,-0.11,0.0,2922.0,3227.0,3152.0,3045.0,4095.0,2446.0,2992.0,2719.0,-8.93,-1.35,2.23,0.07,-0.16,0.07,1.0,how-are-you
3143.0,948.0,2832.0,3968.0,3126.0,3141.0,4095.0,3309.0,7.08,-6.64,6.69,0.07,-0.05,-0.13,0.0,2902.0,3226.0,3149.0,2981.0,4095.0,2433.0,2992.0,2747.0,-9.02,-1.59,2.3,0.03,-0.03,-0.06,1.0,how-are-you
3150.0,949.0,2832.0,3964.0,3130.0,3159.0,4095.0,3311.0,7.03,-6.66,6.6,0.06,-0.07,-0.17,0.0,2925.0,3232.0,3152.0,2996.0,4095.0,2427.0,2995.0,2736.0,-9.08,-1.5,2.3,-0.05,-0.06,-0.04,1.0,how-are-you
3149.0,954.0,2832.0,4016.0,3121.0,3135.0,4095.0,3312.0,6.98,-6.59,6.56,0.05,-0.04,-0.15,0.0,2905.0,3216.0,3154.0,3019.0,4095.0,2434.0,3002.0,2753.0,-8.98,-1.36,2.21,-0.09,-0.04,-0.03,1.0,how-are-you
3152.0,960.0,2821.0,3975.0,3119.0,3134.0,4095.0,3322.0,6.99,-6.59,6.57,0.03,0.01,-0.16,0.0,2917.0,3230.0,3152.0,3028.0,4095.0,2411.0,3002.0,2759.0,-9.07,-1.49,2.21,-0.06,-0.08,-0.06,1.0,how-are-you
3125.0,958.0,2803.0,4026.0,3111.0,3117.0,4095.0,3326.0,7.12,-6.63,6.58,0.02,-0.06,-0.16,0.0,2909.0,3222.0,3151.0,3058.0,4095.0,2421.0,3008.0,2768.0,-9.22,-1.52,2.26,-0.06,0.01,-0.04,1.0,how-are-you
3142.0,957.0,2820.0,4012.0,3122.0,3123.0,4092.0,3313.0,7.13,-6.6,6.51,0.01,-0.01,-0.15,0.0,2903.0,3214.0,3146.0,3047.0,4095.0,2431.0,3005.0,2709.0,-8.93,-1.47,2.19,-0.06,0.02,-0.04,1.0,how-are-you
3141.0,956.0,2832.0,4032.0,3107.0,3105.0,4086.0,3327.0,7.03,-6.56,6.6,0.03,-0.05,-0.15,0.0,2907.0,3225.0,3150.0,3061.0,4095.0,2438.0,3008.0,2770.0,-9.08,-1.46,2.26,-0.07,0.02,-0.05,1.0,how-are-you
4095.0,3751.0,3874.0,4095.0,1873.0,1865.0,2256.0,1761.0,6.72,4.24,0.41,-0.3,-0.78,0.17,0.0,950.0,3696.0,3583.0,3427.0,2846.0,2861.0,3006.0,2543.0,-5.94,6.68,4.96,0.38,-0.3,1.37,1.0,how-are-you
4095.0,3754.0,3932.0,4095.0,1889.0,2043.0,2263.0,1776.0,7.97,3.09,-0.91,-0.28,-2.27,0.6,0.0,960.0,3668.0,3570.0,3376.0,2749.0,2554.0,2995.0,2662.0,-2.87,6.62,3.47,-0.14,-0.82,1.08,1.0,how-are-you
4095.0,3764.0,3993.0,4095.0,1887.0,2037.0,2257.0,1781.0,11.23,3.09,-4.52,0.14,2.35,-1.77,0.0,950.0,3632.0,3552.0,3463.0,2896.0,2528.0,3007.0,2541.0,-2.19,8.93,6.45,-0.15,-0.12,-0.55,1.0,how-are-you
4095.0,3714.0,3859.0,4095.0,1937.0,2035.0,2261.0,1780.0,5.39,3.79,-0.37,-0.67,6.04,-3.15,0.0,944.0,3691.0,3518.0,3241.0,2889.0,2558.0,3023.0,2529.0,-3.82,3.72,-1.09,-2.27,2.89,-3.92,1.0,how-are-you
4095.0,3697.0,3871.0,3747.0,1936.0,2089.0,2116.0,1824.0,4.14,5.7,7.62,-0.81,3.32,-0.91,0.0,930.0,3760.0,3413.0,2799.0,2955.0,2766.0,3088.0,2529.0,-12.66,-1.29,5.57,-1.53,3.02,-1.81,1.0,how-are-you
4095.0,3983.0,3372.0,3423.0,2057.0,2240.0,2476.0,2002.0,5.37,3.36,8.03,-1.35,0.49,1.22,0.0,933.0,3786.0,3382.0,2845.0,2950.0,2530.0,3102.0,2667.0,-15.03,2.11,1.9,0.88,-0.19,0.5,1.0,how-are-you
3397.0,4095.0,1297.0,3677.0,2087.0,2410.0,2902.0,2363.0,8.06,-1.89,9.41,-2.11,0.26,3.02,0.0,2842.0,3154.0,3159.0,2755.0,4095.0,2486.0,3199.0,2661.0,-0.42,4.21,1.7,-0.22,0.81,-1.96,1.0,how-are-you
3264.0,4095.0,1355.0,3785.0,2427.0,2540.0,3125.0,2478.0,8.48,-4.51,11.82,-1.83,-0.3,2.23,0.0,2899.0,3213.0,3190.0,2803.0,4095.0,2399.0,3090.0,2768.0,-12.05,-10.63,1.64,-0.57,2.49,-3.88,1.0,how-are-you
3189.0,4095.0,1312.0,3854.0,2769.0,2629.0,3203.0,2663.0,12.62,-8.32,12.12,-0.36,-0.68,0.54,0.0,2911.0,3235.0,3237.0,2902.0,4095.0,2416.0,3017.0,2708.0,-12.17,-4.42,-0.11,0.11,0.66,0.13,1.0,how-are-you
3205.0,4095.0,1083.0,3835.0,2843.0,2615.0,3226.0,2707.0,7.3,-4.82,7.42,0.21,0.02,-0.48,0.0,2917.0,3226.0,3253.0,2866.0,4095.0,2456.0,3033.0,2704.0,-9.01,-1.98,0.87,0.08,-0.27,0.25,1.0,how-are-you
3205.0,4095.0,1035.0,3863.0,2877.0,2612.0,3262.0,2710.0,7.67,-5.51,7.77,-0.02,-0.05,-0.05,0.0,2917.0,3220.0,3246.0,2833.0,4095.0,2461.0,3042.0,2703.0,-9.13,-1.74,1.75,0.1,-0.28,0.2,1.0,how-are-you
3183.0,4095.0,1021.0,3828.0,2864.0,2628.0,3257.0,2718.0,7.71,-5.54,7.26,0.12,-0.05,-0.08,0.0,2919.0,3216.0,3251.0,2911.0,4095.0,2470.0,3043.0,2799.0,-9.05,-0.97,1.65,0.0,-0.12,0.09,1.0,how-are-you
3199.0,4095.0,1018.0,3867.0,2858.0,2592.0,3251.0,2715.0,7.91,-5.39,7.43,0.02,0.01,-0.2,0.0,2911.0,3207.0,3250.0,2934.0,4095.0,2471.0,3047.0,2811.0,-8.83,-0.84,1.75,0.04,-0.1,0.06,1.0,how-are-you
3200.0,4095.0,1014.0,3835.0,2871.0,2611.0,3259.0,2721.0,7.61,-5.32,7.41,0.01,-0.03,-0.12,0.0,2923.0,3206.0,3255.0,2933.0,4095.0,2480.0,3041.0,2819.0,-9.47,-1.24,1.48,-0.06,0.04,0.01,1.0,how-are-you
3211.0,4095.0,1018.0,3830.0,2874.0,2608.0,3255.0,2729.0,7.78,-5.33,7.54,-0.04,0.02,-0.12,0.0,2912.0,3219.0,3261.0,2940.0,4095.0,2481.0,3051.0,2845.0,-9.22,-1.07,1.44,-0.07,-0.05,0.02,1.0,how-are-you
3217.0,4095.0,1007.0,3847.0,2866.0,2624.0,3245.0,2722.0,7.87,-5.52,7.69,-0.0,0.01,-0.09,0.0,2908.0,3227.0,3258.0,2978.0,4095.0,2491.0,3066.0,2875.0,-9.5,-0.86,1.28,-0.12,0.1,0.13,1.0,how-are-you
3213.0,4095.0,1013.0,3857.0,2865.0,2624.0,3280.0,2727.0,7.77,-5.44,7.61,0.06,-0.06,-0.17,0.0,2922.0,3221.0,3250.0,3002.0,4095.0,2495.0,3060.0,2884.0,-9.29,-0.68,1.43,-0.07,-0.04,0.01,1.0,how-are-you
3198.0,4095.0,1013.0,3877.0,2877.0,2625.0,3263.0,2736.0,7.61,-5.41,7.5,-0.01,0.02,-0.16,0.0,2923.0,3219.0,3250.0,3018.0,4095.0,2498.0,3079.0,2877.0,-9.22,-0.63,1.6,0.03,-0.22,-0.02,1.0,how-are-you
3215.0,4095.0,1001.0,3860.0,2880.0,2621.0,3264.0,2727.0,7.8,-5.47,7.51,0.01,-0.01,-0.15,0.0,2919.0,3207.0,3248.0,3022.0,4095.0,2502.0,3071.0,2875.0,-9.32,-0.67,1.59,-0.08,-0.04,0.03,1.0,how-are-you
3200.0,4095.0,976.0,3834.0,2885.0,2621.0,3270.0,2738.0,7.54,-5.39,7.57,0.01,-0.03,-0.14,0.0,2927.0,3223.0,3255.0,3012.0,4095.0,2503.0,3085.0,2875.0,-9.26,-0.79,1.67,-0.11,0.01,0.04,1.0,how-are-you
3610.0,3684.0,3766.0,4095.0,1906.0,2069.0,2306.0,1791.0,7.65,3.87,-0.05,-0.13,-0.35,-0.16,0.0,2913.0,3486.0,3659.0,3391.0,2867.0,2559.0,3051.0,2634.0,-4.05,6.95,4.43,0.01,-0.28,0.57,1.0,how-are-you
3600.0,3671.0,3780.0,4095.0,1856.0,2079.0,2299.0,1797.0,5.16,3.67,-1.47,-0.13,-2.87,0.71,0.0,2906.0,3492.0,3677.0,3430.0,2946.0,2559.0,3047.0,2605.0,-3.57,6.56,4.22,-0.04,-0.47,0.65,1.0,how-are-you
3600.0,3669.0,3831.0,4095.0,1945.0,2071.0,2297.0,1817.0,11.18,3.88,-7.59,0.28,4.74,-1.95,0.0,2902.0,3484.0,3659.0,3459.0,3003.0,2529.0,3052.0,2694.0,-2.15,9.92,5.46,-0.26,0.08,-0.2,1.0,how-are-you
3615.0,3675.0,3792.0,4095.0,1908.0,2080.0,2306.0,1840.0,6.77,3.44,0.8,-0.28,3.51,-2.32,0.0,2923.0,3513.0,3655.0,3483.0,3071.0,2594.0,3043.0,2759.0,-3.11,2.39,1.81,-1.03,3.12,-3.6,1.0,how-are-you
3583.0,3710.0,3815.0,3825.0,2000.0,2176.0,2352.0,1872.0,4.84,5.88,10.79,-1.07,1.02,0.25,0.0,3228.0,3536.0,3600.0,3347.0,2999.0,2559.0,3058.0,2686.0,-11.25,-1.41,2.02,-1.45,2.21,-2.95,1.0,how-are-you
3568.0,3795.0,3925.0,3755.0,2079.0,2236.0,2477.0,1955.0,5.49,3.98,7.15,-0.96,-0.32,1.2,0.0,3187.0,3538.0,3354.0,2962.0,2721.0,2559.0,3170.0,2390.0,-9.21,3.79,1.95,-0.03,-0.55,1.23,1.0,how-are-you
3342.0,4095.0,1678.0,3759.0,1809.0,2318.0,2695.0,2173.0,6.02,-0.22,7.99,-2.07,-0.17,3.52,0.0,2434.0,3420.0,3178.0,2704.0,3227.0,2502.0,3243.0,2535.0,-6.02,4.23,2.08,-0.23,-0.61,0.89,1.0,how-are-you
3236.0,4095.0,1719.0,3872.0,2693.0,2559.0,3071.0,2471.0,9.34,-4.07,10.38,-2.23,0.47,3.56,0.0,2924.0,3266.0,3271.0,2879.0,4095.0,2398.0,3015.0,2722.0,-4.78,-2.44,1.18,-1.3,2.74,-3.62,1.0,how-are-you
3120.0,4095.0,1979.0,3989.0,2995.0,2927.0,3600.0,2755.0,12.28,-10.3,12.53,-1.71,-0.6,1.73,0.0,2906.0,3289.0,3312.0,2946.0,4095.0,2407.0,3001.0,2834.0,-14.97,-10.35,0.62,0.55,-0.61,-1.07,1.0,how-are-you
3091.0,4095.0,1846.0,3935.0,3154.0,3159.0,3914.0,2867.0,8.63,-7.4,8.83,0.59,-1.51,-1.0,0.0,2901.0,3280.0,3338.0,2909.0,4095.0,2380.0,2991.0,2757.0,-10.21,-1.35,2.46,-0.02,0.24,0.15,1.0,how-are-you
3083.0,1490.0,1721.0,3921.0,3185.0,3215.0,3973.0,3041.0,7.09,-5.21,6.45,0.06,-0.11,-0.4,0.0,2906.0,3288.0,3350.0,2918.0,4095.0,2414.0,3003.0,2798.0,-9.45,-2.05,1.83,0.01,0.04,0.04,1.0,how-are-you
3141.0,1106.0,1046.0,3930.0,3124.0,3131.0,3889.0,2983.0,7.23,-6.69,6.46,-0.02,0.09,-0.01,0.0,2909.0,3306.0,3349.0,2935.0,4095.0,2410.0,3008.0,2839.0,-9.1,-2.03,2.26,-0.04,0.01,0.05,1.0,how-are-you
3146.0,1082.0,994.0,3906.0,3101.0,3051.0,3889.0,2950.0,7.05,-6.61,6.68,-0.09,-0.11,-0.03,0.0,2911.0,3280.0,3371.0,2931.0,4095.0,2416.0,3023.0,2881.0,-8.98,-1.74,1.87,-0.01,0.02,0.02,1.0,how-are-you
3131.0,1088.0,979.0,3941.0,3069.0,3009.0,3872.0,2960.0,7.15,-6.51,6.59,-0.15,-0.13,-0.13,0.0,2912.0,3287.0,3370.0,2950.0,4095.0,2415.0,3024.0,2886.0,-9.1,-1.62,1.99,-0.08,0.02,0.06,1.0,how-are-you
3138.0,1072.0,960.0,3949.0,3065.0,3007.0,3870.0,2992.0,7.23,-6.7,6.7,0.03,0.01,-0.13,0.0,2918.0,3295.0,3371.0,2944.0,4095.0,2417.0,3021.0,2896.0,-8.82,-1.34,1.92,-0.08,0.08,0.07,1.0,how-are-you
3152.0,1057.0,942.0,3937.0,3071.0,2938.0,3854.0,3004.0,7.07,-6.74,6.31,-0.01,-0.14,-0.12,0.0,2906.0,3297.0,3392.0,2951.0,4095.0,2432.0,3026.0,2905.0,-8.97,-1.52,2.09,-0.1,-0.02,-0.06,1.0,how-are-you
3138.0,1055.0,945.0,3922.0,3071.0,2933.0,3848.0,2995.0,7.17,-6.73,6.37,0.1,-0.06,-0.17,0.0,2915.0,3297.0,3383.0,2959.0,4095.0,2438.0,3029.0,2864.0,-9.25,-1.58,2.06,-0.08,0.03,-0.06,1.0,how-are-you
3142.0,1034.0,942.0,3911.0,3060.0,2933.0,3827.0,2990.0,7.21,-6.68,6.2,0.08,-0.02,-0.19,0.0,2911.0,3290.0,3387.0,2970.0,4095.0,2448.0,3029.0,2907.0,-9.17,-1.53,1.97,-0.07,0.02,-0.03,1.0,how-are-you
3143.0,1050.0,933.0,3935.0,3066.0,2931.0,3813.0,2998.0,7.14,-6.63,6.28,0.03,0.01,-0.2,0.0,2910.0,3287.0,3394.0,2967.0,4095.0,2447.0,3034.0,2909.0,-9.25,-1.67,2.08,-0.05,0.01,-0.04,1.0,how-are-you
3149.0,1040.0,934.0,3984.0,3069.0,2935.0,3810.0,3009.0,7.16,-6.59,6.31,0.0,0.02,-0.17,0.0,2899.0,3290.0,3390.0,2970.0,4095.0,2448.0,3035.0,2906.0,-9.28,-1.6,2.05,-0.05,-0.02,-0.02,1.0,how-are-you
3419.0,4000.0,3887.0,4095.0,1972.0,2043.0,2237.0,1698.0,8.67,3.64,0.03,0.12,0.79,-0.48,0.0,3018.0,3491.0,3571.0,3391.0,2998.0,2603.0,3024.0,2646.0,-6.27,6.06,4.36,0.1,-0.03,0.1,1.0,how-are-you
3429.0,3982.0,3857.0,4095.0,1984.0,2058.0,2242.0,1725.0,8.01,3.96,0.55,-0.11,-0.25,-0.06,0.0,3019.0,3483.0,3559.0,3248.0,2992.0,2608.0,3024.0,2638.0,-6.4,6.55,4.44,0.23,-0.56,0.76,1.0,how-are-you
3421.0,4012.0,3952.0,4095.0,1915.0,2047.0,2246.0,1765.0,7.18,2.07,-2.4,0.22,-1.11,0.36,0.0,3025.0,3473.0,3573.0,3351.0,2883.0,2551.0,3024.0,2674.0,-4.27,6.27,3.12,-0.07,-1.71,1.61,1.0,how-are-you
3421.0,4058.0,3942.0,4095.0,1952.0,2074.0,2259.0,1750.0,11.35,3.28,-4.24,0.13,3.78,-1.62,0.0,3012.0,3518.0,3566.0,3440.0,3035.0,2559.0,3035.0,2690.0,-4.03,7.54,7.15,-0.58,1.9,-2.76,1.0,how-are-you
3421.0,3949.0,3824.0,4095.0,2018.0,2062.0,2256.0,1755.0,6.2,3.2,0.35,0.1,6.02,-2.38,0.0,3226.0,3529.0,3558.0,3497.0,3043.0,2581.0,3010.0,2704.0,-6.2,1.83,0.8,-1.61,3.5,-3.42,1.0,how-are-you
3439.0,3903.0,3771.0,4082.0,1993.0,2078.0,2263.0,1793.0,6.81,5.17,1.0,-1.01,4.93,-2.25,0.0,3543.0,3565.0,3506.0,3223.0,3026.0,2331.0,3031.0,2368.0,-10.81,0.83,-0.23,-1.91,1.44,-2.31,1.0,how-are-you
3413.0,3834.0,3779.0,3608.0,2119.0,2447.0,2375.0,1824.0,3.78,6.22,11.2,-1.58,0.07,-0.06,0.0,3779.0,3542.0,3475.0,3203.0,3029.0,2531.0,3066.0,2528.0,-15.56,1.15,2.54,-0.0,0.07,-0.18,1.0,how-are-you
3365.0,4095.0,3627.0,3439.0,2203.0,2285.0,2587.0,2023.0,4.16,2.72,7.32,-1.9,0.2,2.06,0.0,3889.0,3545.0,3439.0,2971.0,3053.0,2541.0,3102.0,2627.0,-10.21,3.7,-0.54,0.41,-0.56,1.15,1.0,how-are-you
3313.0,4095.0,2272.0,3423.0,1911.0,2289.0,2623.0,2045.0,4.07,-0.46,9.07,-2.5,-0.51,2.99,0.0,3071.0,3551.0,3803.0,2709.0,4095.0,2537.0,3208.0,2861.0,-3.82,4.07,1.27,-0.26,-0.37,-0.77,1.0,how-are-you
3183.0,4095.0,1053.0,3508.0,1989.0,2417.0,2972.0,2361.0,9.38,-5.05,10.29,-1.63,-1.15,2.93,0.0,2918.0,3355.0,3829.0,2755.0,4095.0,2431.0,3071.0,2864.0,-8.5,-6.59,0.97,-1.21,1.3,-3.5,1.0,how-are-you
3108.0,4095.0,1621.0,3655.0,2770.0,2723.0,3439.0,2662.0,14.35,-11.18,12.44,-1.32,-0.66,1.72,0.0,2911.0,3351.0,3919.0,2717.0,4095.0,2448.0,3041.0,2946.0,-11.79,-5.9,1.67,1.11,-2.07,-0.22,1.0,how-are-you
3098.0,4095.0,1488.0,3649.0,2880.0,2905.0,3681.0,2815.0,8.15,-6.28,8.46,0.44,-0.7,-0.49,0.0,2916.0,3351.0,3954.0,2687.0,4095.0,2469.0,3046.0,2990.0,-9.68,-1.64,3.03,-0.17,0.26,-0.07,1.0,how-are-you
3094.0,1053.0,1337.0,3647.0,2922.0,3035.0,3956.0,3013.0,7.09,-5.73,6.98,0.05,-0.12,-0.25,0.0,2912.0,3339.0,3953.0,2703.0,4095.0,2473.0,3054.0,2981.0,-9.17,-2.3,2.25,0.11,-0.3,0.1,1.0,how-are-you
3110.0,1023.0,1074.0,3661.0,2961.0,3115.0,4020.0,3085.0,7.05,-6.2,6.69,-0.1,-0.09,-0.11,0.0,2913.0,3350.0,3981.0,2709.0,4095.0,2481.0,3056.0,2972.0,-9.02,-1.98,2.61,-0.16,0.23,0.11,1.0,how-are-you
3120.0,1008.0,1009.0,3682.0,3013.0,3067.0,4000.0,3043.0,7.16,-6.33,7.1,-0.08,-0.04,-0.09,0.0,2910.0,3357.0,3968.0,2722.0,4095.0,2490.0,3050.0,2985.0,-9.12,-1.82,2.2,-0.02,0.05,0.08,1.0,how-are-you
3133.0,1001.0,1007.0,3655.0,3002.0,3040.0,3974.0,3041.0,7.3,-6.47,7.02,-0.07,-0.06,-0.11,0.0,2913.0,3354.0,3970.0,2734.0,4095.0,2499.0,3057.0,2992.0,-9.0,-1.66,2.18,-0.03,0.03,0.01,1.0,how-are-you
3139.0,1002.0,992.0,3679.0,2960.0,2959.0,3943.0,3008.0,7.18,-6.45,6.88,0.01,-0.06,-0.17,0.0,2922.0,3359.0,3975.0,2747.0,4095.0,2495.0,3056.0,3005.0,-9.11,-1.66,2.2,-0.08,0.14,-0.03,1.0,how-are-you
3127.0,1020.0,1005.0,3696.0,2960.0,2953.0,3919.0,3014.0,7.12,-6.41,6.75,0.07,0.02,-0.17,0.0,2916.0,3349.0,3981.0,2757.0,4095.0,2507.0,3056.0,3013.0,-8.93,-1.53,2.27,-0.06,-0.01,-0.03,1.0,how-are-you
3138.0,1002.0,1003.0,3641.0,2971.0,2951.0,3869.0,3003.0,7.32,-6.45,6.67,0.03,-0.03,-0.15,0.0,2923.0,3357.0,3984.0,2760.0,4095.0,2506.0,3056.0,3007.0,-8.99,-1.68,2.25,-0.11,0.04,-0.02,1.0,how-are-you
3129.0,1007.0,997.0,3706.0,2989.0,2950.0,3871.0,3021.0,7.28,-6.39,6.77,0.02,-0.02,-0.16,0.0,2916.0,3349.0,3999.0,2767.0,4095.0,2509.0,3056.0,3007.0,-9.05,-1.71,2.28,-0.06,-0.03,-0.03,1.0,how-are-you
3583.0,4095.0,3703.0,4095.0,1994.0,1989.0,2221.0,1764.0,8.64,4.55,1.1,0.03,0.18,-0.22,0.0,2279.0,3974.0,3798.0,3216.0,2910.0,2609.0,3015.0,2559.0,-6.63,6.46,3.99,-0.04,-0.09,0.07,1.0,how-are-you
3559.0,4095.0,3761.0,4095.0,1999.0,2000.0,2224.0,1797.0,8.29,4.44,1.2,0.06,-0.09,-0.14,0.0,2286.0,3958.0,3798.0,3242.0,2868.0,2622.0,3018.0,2525.0,-6.92,6.5,4.16,0.16,-0.17,0.61,1.0,how-are-you
3568.0,4095.0,3818.0,4095.0,1965.0,2000.0,2233.0,1776.0,5.78,3.61,-0.12,-0.06,-3.56,1.04,0.0,2271.0,3865.0,3801.0,3239.0,2811.0,2624.0,3029.0,2555.0,-3.11,6.57,4.73,-0.04,-1.48,1.2,1.0,how-are-you
3568.0,4095.0,3938.0,4095.0,2005.0,1997.0,2246.0,1772.0,10.42,3.31,-4.67,-0.02,3.09,-1.94,0.0,2256.0,3855.0,3764.0,3305.0,2880.0,2559.0,3680.0,2475.0,-0.8,9.5,4.67,-0.35,-0.14,0.15,1.0,how-are-you
3596.0,4095.0,3844.0,4095.0,1998.0,1991.0,2229.0,1767.0,6.69,3.88,0.11,-0.31,5.73,-2.88,0.0,2261.0,3991.0,3721.0,3049.0,2911.0,2624.0,3033.0,2559.0,-6.35,0.28,-0.84,-1.08,3.92,-4.3,1.0,how-are-you
3568.0,4095.0,3495.0,3793.0,2064.0,2106.0,2347.0,1937.0,5.04,4.7,7.49,-0.76,-0.36,0.65,0.0,2437.0,4095.0,3547.0,2912.0,2842.0,2633.0,3145.0,2583.0,-10.93,1.84,0.94,0.18,-0.6,1.58,1.0,how-are-you
3412.0,4039.0,1105.0,3835.0,2224.0,2204.0,2597.0,2218.0,7.1,-0.75,9.07,-2.48,-0.9,3.21,0.0,2895.0,3294.0,3268.0,2765.0,4095.0,2389.0,3055.0,2875.0,0.76,4.85,1.79,0.21,-1.16,-2.28,1.0,how-are-you
3204.0,1216.0,1377.0,3960.0,2559.0,2558.0,3170.0,2624.0,10.64,-7.87,12.44,-1.2,-0.44,1.48,0.0,2907.0,3361.0,3517.0,2937.0,4095.0,2338.0,2959.0,2899.0,-9.69,-1.72,1.64,0.34,0.29,0.65,1.0,how-are-you
3165.0,982.0,1326.0,3904.0,2882.0,2752.0,3446.0,2813.0,7.64,-5.96,7.63,0.34,-0.35,-0.43,0.0,2919.0,3353.0,3519.0,2882.0,4095.0,2415.0,2975.0,2869.0,-8.94,-1.56,2.2,-0.05,-0.09,0.15,1.0,how-are-you
3164.0,1002.0,1755.0,3955.0,2807.0,2773.0,3536.0,2832.0,7.53,-6.04,7.42,0.19,-0.35,-0.27,0.0,2913.0,3346.0,3525.0,2866.0,4095.0,2416.0,2983.0,2879.0,-8.69,-1.26,2.4,-0.05,0.08,0.02,1.0,how-are-you
3148.0,975.0,1484.0,3938.0,2960.0,2896.0,3700.0,2929.0,6.8,-6.02,6.91,0.06,-0.06,-0.27,0.0,2915.0,3346.0,3543.0,2895.0,4095.0,2417.0,2987.0,2899.0,-8.8,-1.31,2.24,-0.04,-0.07,-0.01,1.0,how-are-you
3136.0,966.0,961.0,3947.0,3103.0,3103.0,3950.0,3194.0,7.35,-6.09,7.26,-0.09,0.14,-0.08,0.0,2908.0,3360.0,3549.0,2896.0,4095.0,2423.0,2996.0,2897.0,-8.99,-1.41,2.1,-0.01,-0.05,-0.04,1.0,how-are-you
3158.0,970.0,1383.0,3946.0,3161.0,3107.0,4016.0,3222.0,7.52,-6.2,7.13,-0.02,0.08,-0.11,0.0,2915.0,3357.0,3558.0,2918.0,4095.0,2433.0,2991.0,2902.0,-9.19,-1.3,1.91,0.11,-0.21,0.07,1.0,how-are-you
3163.0,955.0,2266.0,3975.0,3150.0,3026.0,4006.0,3185.0,7.41,-6.16,7.24,-0.09,0.04,-0.11,0.0,2913.0,3341.0,3568.0,2928.0,4095.0,2430.0,2993.0,2918.0,-8.94,-1.09,2.07,-0.08,-0.01,-0.03,1.0,how-are-you
3173.0,958.0,2060.0,3956.0,3145.0,3039.0,3991.0,3203.0,7.2,-6.24,7.49,-0.02,-0.05,-0.14,0.0,2912.0,3375.0,3567.0,2939.0,4095.0,2448.0,2991.0,2922.0,-9.18,-1.16,2.11,-0.09,0.03,-0.02,1.0,how-are-you
3180.0,965.0,2091.0,3979.0,3123.0,3018.0,3935.0,3186.0,7.23,-6.23,7.31,0.1,0.02,-0.12,0.0,2910.0,3345.0,3545.0,2945.0,4095.0,2445.0,2975.0,2930.0,-9.19,-1.11,2.08,-0.08,0.04,0.01,1.0,how-are-you
3185.0,955.0,1937.0,4000.0,3120.0,2992.0,3945.0,3173.0,7.13,-6.12,7.44,0.05,-0.1,-0.15,0.0,2908.0,3348.0,3545.0,2953.0,4095.0,2446.0,2992.0,2943.0,-8.99,-1.01,2.01,0.01,-0.06,0.05,1.0,how-are-you
3184.0,963.0,1841.0,3991.0,3109.0,2983.0,3920.0,3183.0,7.35,-6.15,7.26,0.07,-0.04,-0.14,0.0,2916.0,3349.0,3578.0,2977.0,4095.0,2448.0,2993.0,2956.0,-9.3,-0.92,2.13,-0.09,0.06,0.03,1.0,how-are-you
3171.0,963.0,2130.0,3976.0,3120.0,2960.0,3841.0,3135.0,7.11,-6.11,7.32,0.0,-0.02,-0.17,0.0,2911.0,3354.0,3567.0,2985.0,4095.0,2450.0,2992.0,2963.0,-9.23,-1.07,2.08,-0.06,0.06,-0.01,1.0,how-are-you
3164.0,971.0,2225.0,3979.0,3111.0,2989.0,3836.0,3137.0,7.27,-6.1,7.3,0.01,-0.07,-0.15,0.0,2912.0,3354.0,3583.0,2992.0,4095.0,2453.0,2992.0,2990.0,-9.22,-1.04,2.11,-0.06,0.07,-0.03,1.0,how-are-you
3510.0,3883.0,3900.0,4095.0,1871.0,1990.0,2253.0,1733.0,6.79,3.57,-4.44,0.36,0.89,-0.51,0.0,3541.0,3515.0,3632.0,3691.0,3056.0,2618.0,3047.0,2367.0,-3.04,9.18,5.6,-0.1,0.44,-0.57,1.0,how-are-you
3487.0,4011.0,3856.0,4095.0,1986.0,2003.0,2270.0,1799.0,8.75,3.3,-0.33,0.21,4.06,-1.88,0.0,3602.0,3536.0,3627.0,3555.0,3056.0,2638.0,3039.0,2545.0,-5.64,3.01,0.33,-1.15,3.79,-3.98,1.0,how-are-you
3488.0,4021.0,3803.0,4095.0,2029.0,2041.0,2252.0,1819.0,3.6,5.43,2.64,-0.64,5.55,-1.8,0.0,3696.0,3573.0,3539.0,3487.0,3058.0,2816.0,3054.0,2502.0,-13.5,0.12,3.03,-0.34,0.95,-1.99,1.0,how-are-you
3501.0,4095.0,3742.0,4095.0,2077.0,2112.0,2295.0,1869.0,6.12,7.01,10.93,-0.32,0.07,-0.36,0.0,3728.0,3568.0,3539.0,3558.0,3056.0,2666.0,3060.0,2591.0,-13.25,2.79,3.29,-0.59,0.36,-0.35,1.0,how-are-you
3493.0,4095.0,3706.0,4085.0,2103.0,2066.0,2372.0,1877.0,7.47,4.64,7.58,-0.56,-0.29,-0.07,0.0,3702.0,3569.0,3489.0,3214.0,3034.0,2623.0,3111.0,2335.0,-9.6,4.04,1.88,0.22,-0.26,1.32,1.0,how-are-you
3477.0,4095.0,3547.0,3664.0,2063.0,2142.0,2373.0,1958.0,4.32,3.84,6.08,-1.34,0.39,1.12,0.0,3063.0,3530.0,3280.0,2835.0,2888.0,2587.0,3214.0,2417.0,-7.91,3.49,0.47,0.05,-0.85,1.21,1.0,how-are-you
3435.0,3995.0,2454.0,3517.0,2192.0,2179.0,2480.0,2085.0,6.23,1.36,7.4,-2.27,0.51,2.48,0.0,2867.0,3470.0,3249.0,2731.0,3495.0,2413.0,3117.0,2403.0,-2.93,5.93,0.98,-0.28,-0.75,-0.01,1.0,how-are-you
3285.0,1060.0,1063.0,3456.0,2084.0,2320.0,2754.0,2353.0,7.58,-1.37,10.64,-3.0,-0.24,3.32,0.0,2921.0,3263.0,3321.0,2827.0,4095.0,2420.0,3002.0,2661.0,-0.01,1.39,0.63,-1.07,-0.0,-4.28,1.0,how-are-you
3202.0,963.0,985.0,3675.0,2623.0,2559.0,3187.0,2608.0,11.97,-5.16,12.68,-1.66,-1.43,2.73,0.0,2910.0,3310.0,3353.0,2951.0,4095.0,2420.0,3024.0,2800.0,-14.92,-12.04,2.95,-0.79,1.13,-1.51,1.0,how-are-you
3157.0,978.0,965.0,3782.0,2990.0,2847.0,3614.0,2867.0,9.85,-6.32,11.25,0.5,-0.79,-0.31,0.0,2910.0,3287.0,3375.0,2874.0,4095.0,2411.0,2990.0,2506.0,-10.01,-0.58,1.85,0.37,-0.52,0.2,1.0,how-are-you
3159.0,971.0,940.0,3741.0,2989.0,2897.0,3664.0,2971.0,8.42,-4.63,8.12,0.43,-0.59,-0.58,0.0,2903.0,3293.0,3381.0,2677.0,4095.0,2434.0,2999.0,2729.0,-9.49,-1.94,2.53,0.2,-0.04,0.22,1.0,how-are-you
3178.0,944.0,961.0,3749.0,2976.0,2835.0,3567.0,2937.0,7.89,-4.8,7.82,-0.1,-0.11,-0.18,0.0,2909.0,3293.0,3376.0,2666.0,4095.0,2446.0,3015.0,2855.0,-8.8,-1.28,2.1,-0.03,0.02,0.14,1.0,how-are-you
3182.0,949.0,1199.0,3776.0,2974.0,2830.0,3512.0,2918.0,8.24,-4.71,7.68,0.03,-0.22,-0.11,0.0,2915.0,3290.0,3371.0,2748.0,4095.0,2454.0,3024.0,2867.0,-9.05,-1.27,2.08,0.03,-0.02,0.03,1.0,how-are-you
3175.0,948.0,1520.0,3774.0,2963.0,2811.0,3506.0,2897.0,8.26,-4.74,7.62,0.01,-0.08,-0.22,0.0,2903.0,3287.0,3373.0,2786.0,4095.0,2451.0,3021.0,2896.0,-9.12,-1.21,1.7,-0.03,0.09,-0.08,1.0,how-are-you
3182.0,939.0,1535.0,3796.0,2969.0,2822.0,3520.0,2896.0,8.07,-4.74,7.65,-0.01,0.08,-0.18,0.0,2901.0,3283.0,3375.0,2853.0,4095.0,2455.0,3022.0,2869.0,-9.38,-1.24,1.76,-0.1,0.2,-0.03,1.0,how-are-you
3184.0,944.0,1649.0,3790.0,2951.0,2800.0,3507.0,2897.0,8.34,-4.69,7.56,0.02,-0.04,-0.17,0.0,2909.0,3293.0,3387.0,2899.0,4095.0,2466.0,3024.0,2915.0,-9.23,-1.12,1.86,-0.06,-0.06,-0.02,1.0,how-are-you
3184.0,949.0,1650.0,3794.0,2978.0,2794.0,3490.0,2899.0,8.14,-4.74,7.75,0.02,-0.03,-0.17,0.0,2902.0,3280.0,3375.0,2891.0,4095.0,2471.0,3030.0,2919.0,-9.24,-1.12,1.64,-0.1,-0.01,0.01,1.0,how-are-you
3183.0,944.0,1685.0,3804.0,2981.0,2800.0,3486.0,2903.0,8.07,-4.69,7.64,0.05,-0.02,-0.15,0.0,2896.0,3281.0,3377.0,2923.0,4095.0,2469.0,3027.0,2917.0,-9.3,-1.11,1.78,0.0,-0.17,0.01,1.0,how-are-you
3194.0,946.0,1722.0,3794.0,2970.0,2789.0,3505.0,2896.0,8.33,-4.73,7.58,0.05,-0.03,-0.12,0.0,2902.0,3295.0,3382.0,2938.0,4095.0,2469.0,3031.0,2923.0,-9.28,-1.12,1.79,-0.09,-0.08,-0.01,1.0,how-are-you
3169.0,942.0,1728.0,3792.0,2954.0,2794.0,3473.0,2896.0,8.25,-4.7,7.66,0.04,0.0,-0.17,0.0,2900.0,3285.0,3382.0,2941.0,4095.0,2475.0,3034.0,2925.0,-9.32,-1.07,1.95,-0.06,-0.02,-0.02,1.0,how-are-you
3425.0,952.0,1356.0,4095.0,1971.0,2037.0,2273.0,1931.0,8.09,4.34,0.82,-0.1,0.59,-0.35,0.0,3933.0,3503.0,3651.0,3030.0,2998.0,2617.0,3051.0,2559.0,-5.58,6.96,3.86,-0.06,-0.01,-0.02,1.0,how-are-you
3435.0,947.0,1356.0,4095.0,1989.0,2027.0,2293.0,1968.0,8.24,4.15,1.33,0.1,0.65,-0.37,0.0,3934.0,3491.0,3670.0,3054.0,2992.0,2622.0,3053.0,2586.0,-5.6,6.79,3.87,-0.05,0.21,-0.19,1.0,how-are-you
3442.0,945.0,1350.0,4095.0,2000.0,2032.0,2299.0,1978.0,8.42,4.5,1.3,0.13,0.29,-0.3,0.0,3938.0,3503.0,3666.0,3029.0,3007.0,2614.0,3058.0,2598.0,-6.12,7.3,4.47,-0.19,0.04,-0.13,1.0,how-are-you
3413.0,944.0,1345.0,4095.0,1872.0,2017.0,2290.0,1951.0,7.69,2.47,-2.65,-0.39,-4.35,1.47,0.0,3905.0,3474.0,3663.0,3135.0,2928.0,2589.0,3083.0,2366.0,1.66,5.24,4.02,-0.39,-2.12,1.5,1.0,how-are-you
3429.0,944.0,1316.0,4095.0,1941.0,2033.0,2298.0,1968.0,6.99,2.44,-4.49,0.41,-0.07,0.02,0.0,3921.0,3461.0,3637.0,3258.0,3024.0,2594.0,3088.0,2403.0,0.6,9.96,5.94,-0.29,0.25,-0.64,1.0,how-are-you
3445.0,943.0,1313.0,4095.0,1981.0,2025.0,2273.0,1983.0,11.06,3.32,-6.03,-0.04,3.37,-2.35,0.0,3910.0,3472.0,3666.0,3267.0,3143.0,2601.0,3066.0,2431.0,1.1,7.81,6.09,0.08,2.04,-3.3,1.0,how-are-you
3434.0,959.0,1411.0,4095.0,2032.0,2131.0,2381.0,2015.0,1.76,5.35,8.05,-1.09,4.28,-1.68,0.0,3839.0,3541.0,3632.0,2912.0,3108.0,2607.0,3045.0,2511.0,-15.63,3.24,1.67,-0.08,-0.3,1.24,1.0,how-are-you
3435.0,949.0,1329.0,4071.0,2157.0,2128.0,2333.0,2143.0,4.72,4.37,5.48,-0.57,-0.63,0.89,0.0,3837.0,3504.0,3503.0,2891.0,3135.0,2641.0,3131.0,2503.0,-7.35,4.72,0.91,0.39,-0.76,2.08,1.0,how-are-you
3413.0,956.0,967.0,3915.0,2145.0,2245.0,2543.0,2307.0,6.76,-1.57,10.82,-3.02,0.0,4.6,0.0,3273.0,3508.0,3395.0,2768.0,2811.0,2480.0,3173.0,2559.0,-1.09,5.21,-0.85,0.28,-1.8,0.2,1.0,how-are-you
3277.0,944.0,2768.0,3995.0,2352.0,2347.0,2861.0,2448.0,13.98,-5.71,14.39,-3.26,-1.45,4.31,0.0,2896.0,3419.0,3659.0,2990.0,4095.0,2363.0,2999.0,2828.0,-13.55,-6.84,4.47,0.15,0.59,-0.36,1.0,how-are-you
3213.0,930.0,3893.0,4030.0,2281.0,2542.0,3143.0,2830.0,7.0,-4.23,6.96,0.13,0.41,-0.24,0.0,2909.0,3427.0,3651.0,2867.0,4095.0,2377.0,3007.0,2850.0,-9.7,-0.52,2.75,0.19,-0.66,0.12,1.0,how-are-you
3209.0,929.0,3890.0,4054.0,2324.0,2544.0,3165.0,2866.0,8.43,-5.34,7.08,0.04,-0.27,-0.06,0.0,2896.0,3435.0,3664.0,2864.0,4095.0,2401.0,3014.0,2867.0,-8.72,-0.91,2.58,-0.09,0.24,0.04,1.0,how-are-you
3216.0,944.0,3888.0,4032.0,2313.0,2553.0,3154.0,2867.0,7.95,-5.19,7.26,0.04,-0.07,-0.19,0.0,2896.0,3427.0,3659.0,2821.0,4095.0,2429.0,3024.0,2882.0,-9.49,-0.99,1.81,-0.04,0.04,-0.04,1.0,how-are-you
3206.0,937.0,3888.0,4048.0,2311.0,2546.0,3153.0,2881.0,8.13,-5.09,7.1,-0.01,-0.04,-0.18,0.0,2911.0,3424.0,3644.0,2880.0,4095.0,2444.0,3024.0,2878.0,-9.43,-1.02,1.98,-0.04,-0.03,-0.07,1.0,how-are-you
3201.0,944.0,3877.0,4041.0,2288.0,2537.0,3155.0,2889.0,8.11,-5.2,7.22,-0.01,0.0,-0.18,0.0,2908.0,3427.0,3653.0,2891.0,4095.0,2438.0,3031.0,2884.0,-9.28,-1.08,2.01,-0.02,-0.06,-0.06,1.0,how-are-you
3214.0,936.0,3893.0,4030.0,2597.0,2530.0,3158.0,2880.0,8.07,-5.08,7.29,0.01,-0.01,-0.14,0.0,2897.0,3410.0,3664.0,2909.0,4095.0,2454.0,3025.0,2896.0,-9.17,-1.02,1.87,-0.1,0.11,0.03,1.0,how-are-you
3215.0,929.0,3876.0,4023.0,2608.0,2537.0,3151.0,2873.0,8.1,-5.07,7.24,0.01,0.02,-0.14,0.0,2911.0,3413.0,3661.0,2915.0,4095.0,2457.0,3029.0,2895.0,-9.33,-1.11,1.81,-0.08,0.09,-0.04,1.0,how-are-you
3216.0,940.0,3898.0,4061.0,2609.0,2544.0,3136.0,2863.0,7.93,-5.01,7.11,0.02,-0.01,-0.15,0.0,2902.0,3410.0,3639.0,2927.0,4095.0,2461.0,3029.0,2897.0,-9.35,-1.09,1.9,-0.1,0.11,-0.04,1.0,how-are-you
3207.0,944.0,3903.0,4046.0,2614.0,2544.0,3135.0,2873.0,8.03,-5.1,7.24,-0.03,0.03,-0.15,0.0,2896.0,3424.0,3659.0,2931.0,4095.0,2458.0,3038.0,2886.0,-9.27,-1.04,2.03,-0.08,0.09,-0.01,1.0,how-are-you
3219.0,944.0,3890.0,4029.0,2622.0,2547.0,3141.0,2870.0,8.22,-5.14,7.22,-0.02,-0.0,-0.14,0.0,2899.0,3410.0,3643.0,2941.0,4095.0,2457.0,3037.0,2884.0,-9.36,-1.04,1.74,-0.08,0.06,0.02,1.0,how-are-you
3529.0,4095.0,3679.0,4095.0,2000.0,2029.0,2209.0,1769.0,9.39,4.12,1.05,0.17,1.08,-0.75,0.0,3169.0,3826.0,3786.0,3271.0,2738.0,2591.0,2998.0,2239.0,-7.67,4.21,4.98,0.15,0.06,-0.64,1.0,how-are-you
3520.0,4095.0,3665.0,4095.0,1994.0,2047.0,2241.0,1787.0,7.66,4.68,2.12,-0.21,1.17,-0.29,0.0,3210.0,3817.0,3769.0,3280.0,2831.0,2623.0,3005.0,2317.0,-8.89,4.21,3.49,0.37,-0.22,-0.04,1.0,how-are-you
3504.0,4095.0,3695.0,4095.0,2007.0,2041.0,2241.0,1773.0,6.12,3.12,-1.42,-0.38,-5.55,1.88,0.0,3222.0,3778.0,3776.0,3245.0,2891.0,2844.0,3008.0,2354.0,-8.89,4.48,4.52,0.57,-1.3,2.29,1.0,how-are-you
3507.0,4095.0,3739.0,4095.0,2022.0,2039.0,1968.0,1776.0,7.85,1.04,-4.1,0.38,-0.53,0.49,0.0,3232.0,3690.0,3749.0,3223.0,2891.0,2477.0,3088.0,2079.0,-0.4,9.5,6.21,-0.23,0.23,0.25,1.0,how-are-you
3520.0,4095.0,3728.0,4095.0,2058.0,2064.0,2259.0,1798.0,11.32,2.28,-7.02,-0.08,2.42,-1.97,0.0,3286.0,3706.0,3758.0,3347.0,2954.0,2545.0,2989.0,2163.0,-0.55,7.87,5.96,0.06,1.54,-2.57,1.0,how-are-you
3535.0,4095.0,3731.0,3947.0,2117.0,2113.0,2369.0,1862.0,1.52,5.02,9.0,-1.43,4.39,-1.29,0.0,3310.0,3760.0,3647.0,2763.0,2759.0,2551.0,3018.0,2150.0,-6.4,0.0,-2.35,-2.49,5.14,-4.9,1.0,how-are-you
3568.0,4048.0,3712.0,3715.0,2186.0,2149.0,2355.0,1916.0,5.96,4.5,9.78,-0.24,-1.06,0.2,0.0,4095.0,3911.0,3680.0,3002.0,2979.0,2546.0,3066.0,2289.0,-14.89,1.94,-0.75,0.46,-0.18,1.84,1.0,how-are-you
3567.0,4048.0,3735.0,3682.0,2292.0,2185.0,2432.0,1951.0,3.54,2.63,5.9,-1.43,-0.36,1.4,0.0,3998.0,3843.0,3393.0,2859.0,2608.0,2559.0,3153.0,2315.0,-7.42,2.96,1.23,-0.3,-1.96,2.89,1.0,how-are-you
3355.0,4095.0,1727.0,3483.0,2331.0,2547.0,3173.0,2486.0,10.09,-5.58,10.24,-4.34,-0.69,4.9,0.0,2749.0,3904.0,3396.0,2763.0,2609.0,2434.0,3108.0,2805.0,0.16,6.49,-0.44,0.94,-3.39,0.05,1.0,how-are-you
3165.0,4095.0,1566.0,3657.0,2705.0,3163.0,4052.0,2928.0,13.99,-12.68,13.5,-0.91,-1.21,0.75,0.0,2907.0,3503.0,3632.0,2767.0,4095.0,2455.0,3029.0,2880.0,-14.6,-9.52,2.3,1.23,-0.49,-0.37,1.0,how-are-you
3220.0,1454.0,1914.0,3600.0,3037.0,3391.0,4095.0,3333.0,7.13,-5.6,5.95,-0.04,0.2,-0.03,0.0,2901.0,3461.0,3661.0,2753.0,4095.0,2474.0,3031.0,3019.0,-9.57,-1.76,2.83,-0.05,0.4,0.23,1.0,how-are-you
3213.0,998.0,2751.0,3654.0,3152.0,3349.0,4095.0,3331.0,7.35,-6.82,6.55,-0.08,0.03,-0.06,0.0,2898.0,3455.0,3658.0,2796.0,4095.0,2477.0,3038.0,3021.0,-8.58,-0.55,3.41,-0.23,0.16,0.15,1.0,how-are-you
3230.0,1007.0,2743.0,3671.0,3030.0,3230.0,4095.0,3326.0,7.09,-6.67,6.09,0.06,-0.06,-0.08,0.0,2913.0,3458.0,3664.0,2790.0,4095.0,2492.0,3031.0,3026.0,-8.94,-0.85,2.48,-0.03,0.15,-0.03,1.0,how-are-you
3211.0,983.0,2729.0,3669.0,3114.0,3206.0,4095.0,3283.0,7.31,-6.64,5.94,0.01,0.04,-0.13,0.0,2911.0,3451.0,3659.0,2815.0,4095.0,2497.0,3041.0,3024.0,-9.17,-0.69,2.49,-0.03,0.0,-0.05,1.0,how-are-you
3231.0,1006.0,2727.0,3655.0,3123.0,3161.0,4089.0,3276.0,7.03,-6.7,6.22,-0.02,0.03,-0.18,0.0,2896.0,3440.0,3652.0,2827.0,4095.0,2500.0,3043.0,3026.0,-9.31,-0.94,2.61,-0.09,0.1,0.01,1.0,how-are-you
3191.0,991.0,2629.0,3648.0,3102.0,3148.0,4095.0,3268.0,7.13,-6.68,6.16,0.06,-0.03,-0.15,0.0,2919.0,3452.0,3655.0,2832.0,4095.0,2510.0,3050.0,3029.0,-8.96,-0.82,2.83,-0.09,0.07,0.02,1.0,how-are-you
3191.0,1002.0,2490.0,3668.0,3099.0,3111.0,4080.0,3238.0,7.15,-6.59,6.25,0.06,0.01,-0.22,0.0,2913.0,3451.0,3665.0,2846.0,4095.0,2508.0,3049.0,3030.0,-9.03,-0.79,2.56,-0.1,0.04,-0.01,1.0,how-are-you
3184.0,1009.0,2579.0,3705.0,3093.0,3093.0,4080.0,3251.0,7.19,-6.51,6.12,0.04,-0.01,-0.17,0.0,2910.0,3445.0,3655.0,2839.0,4095.0,2512.0,3048.0,3029.0,-9.17,-0.77,2.54,-0.09,0.07,0.01,1.0,how-are-you
3184.0,1008.0,2492.0,3696.0,2994.0,3114.0,4054.0,3252.0,7.14,-6.61,6.27,0.03,0.04,-0.18,0.0,2912.0,3441.0,3661.0,2855.0,4095.0,2509.0,3050.0,3021.0,-9.06,-0.74,2.67,-0.08,0.14,-0.01,1.0,how-are-you
3183.0,1008.0,2477.0,3700.0,3088.0,3071.0,4037.0,3228.0,7.11,-6.53,6.22,0.01,0.01,-0.13,0.0,2914.0,3438.0,3651.0,2854.0,4095.0,2503.0,3050.0,3024.0,-9.1,-0.59,2.66,-0.11,0.09,0.03,1.0,how-are-you
3546.0,3856.0,3722.0,4095.0,2014.0,2080.0,2272.0,1828.0,8.98,5.61,3.29,-0.03,0.13,-0.17,0.0,4066.0,4048.0,3717.0,2927.0,2728.0,2494.0,2999.0,2297.0,-7.64,5.18,1.7,-0.08,0.0,0.18,1.0,how-are-you
3567.0,3859.0,3732.0,4095.0,2013.0,2062.0,2288.0,1845.0,5.47,5.15,2.25,-0.33,-2.86,1.02,0.0,4034.0,3943.0,3698.0,3134.0,2755.0,2512.0,3008.0,2422.0,-8.18,4.78,3.5,0.31,-1.61,2.34,1.0,how-are-you
3519.0,3867.0,3776.0,4095.0,1926.0,2064.0,2315.0,1843.0,8.81,2.39,-1.3,-0.12,-4.35,1.49,0.0,4033.0,3889.0,3711.0,3130.0,2880.0,2495.0,3030.0,2143.0,-0.15,6.34,2.89,-0.19,-2.11,1.24,1.0,how-are-you
3530.0,3869.0,3866.0,4095.0,2027.0,2063.0,2310.0,1854.0,9.94,3.34,-3.03,-0.15,5.61,-3.16,0.0,4046.0,3910.0,3696.0,3184.0,3019.0,2474.0,3005.0,2409.0,-1.7,5.91,1.6,-1.19,2.29,-3.44,1.0,how-are-you
3542.0,3851.0,3827.0,4095.0,2009.0,2239.0,2320.0,1853.0,4.72,4.4,4.43,-0.0,4.79,-2.3,0.0,3888.0,4037.0,3675.0,3115.0,2955.0,2962.0,3045.0,2321.0,-9.89,-0.66,-0.12,-2.51,4.24,-3.59,1.0,how-are-you
3547.0,3861.0,3696.0,3878.0,2059.0,2137.0,2359.0,1895.0,3.11,7.0,6.51,-1.49,3.64,-1.16,0.0,3859.0,4061.0,3616.0,3175.0,3005.0,2534.0,3068.0,2454.0,-18.07,-0.11,2.26,-0.0,0.49,-0.28,1.0,how-are-you
3547.0,3990.0,2931.0,3857.0,2137.0,2238.0,2550.0,2160.0,4.08,3.44,8.53,0.06,0.87,0.89,0.0,3838.0,4059.0,3570.0,3123.0,3024.0,2533.0,3091.0,2451.0,-11.87,2.9,1.92,0.84,-0.15,1.73,1.0,how-are-you
3542.0,4095.0,2097.0,3829.0,2190.0,2342.0,2743.0,2198.0,2.39,-1.08,7.03,-2.43,-1.07,3.37,0.0,2723.0,3903.0,3312.0,2998.0,3207.0,2288.0,3071.0,2737.0,-0.58,6.91,-0.24,0.32,-3.47,0.57,1.0,how-are-you
3152.0,4095.0,956.0,4095.0,3183.0,3114.0,3907.0,2975.0,14.42,-11.06,12.29,-0.76,-1.5,0.67,0.0,2915.0,3361.0,3488.0,2896.0,4095.0,2416.0,3071.0,2917.0,-18.38,-15.24,3.49,0.8,-1.47,-1.41,1.0,how-are-you
3183.0,1007.0,930.0,4095.0,3248.0,3382.0,4095.0,3087.0,8.28,-6.54,7.68,0.51,-0.44,-0.32,0.0,2919.0,3328.0,3477.0,2743.0,4095.0,2385.0,3050.0,2946.0,-10.81,-1.7,3.12,0.29,0.12,0.36,1.0,how-are-you
3194.0,976.0,934.0,4075.0,3206.0,3387.0,4095.0,3242.0,6.79,-6.36,6.42,-0.01,-0.11,-0.32,0.0,2896.0,3331.0,3501.0,2779.0,4095.0,2419.0,3063.0,2933.0,-8.92,-2.01,2.51,-0.24,0.73,0.32,1.0,how-are-you
3202.0,989.0,990.0,4034.0,3186.0,3297.0,4095.0,3271.0,6.9,-6.92,6.39,0.05,-0.11,-0.26,0.0,2910.0,3329.0,3472.0,2833.0,4095.0,2418.0,3067.0,2955.0,-8.6,-1.84,3.02,-0.04,-0.07,0.25,1.0,how-are-you
3247.0,980.0,2864.0,4017.0,3189.0,3271.0,4095.0,3298.0,6.82,-6.86,6.2,0.0,-0.04,-0.2,0.0,2913.0,3324.0,3483.0,2861.0,4095.0,2407.0,3071.0,2961.0,-8.74,-0.93,2.38,-0.01,0.02,0.23,1.0,how-are-you
3241.0,976.0,3101.0,4031.0,3167.0,3177.0,4095.0,3277.0,6.8,-6.77,5.94,-0.01,0.04,-0.13,0.0,2903.0,3335.0,3478.0,2886.0,4095.0,2439.0,3069.0,2963.0,-8.85,-0.75,2.55,0.04,-0.31,0.11,1.0,how-are-you
3242.0,976.0,3185.0,4003.0,3163.0,3184.0,4095.0,3302.0,6.98,-6.8,6.35,-0.06,0.03,-0.11,0.0,2903.0,3322.0,3490.0,2908.0,4095.0,2432.0,3084.0,2975.0,-8.94,-0.89,2.63,0.02,-0.2,-0.07,1.0,how-are-you
3246.0,982.0,3205.0,4069.0,3159.0,3152.0,4095.0,3293.0,6.73,-6.83,6.33,0.01,-0.1,-0.14,0.0,2903.0,3314.0,3482.0,2930.0,4095.0,2433.0,3086.0,2967.0,-8.88,-1.07,2.39,-0.1,-0.06,0.04,1.0,how-are-you
3233.0,993.0,3106.0,4095.0,3131.0,3139.0,4067.0,3291.0,6.74,-6.93,6.27,0.09,-0.01,-0.19,0.0,2922.0,3313.0,3481.0,2933.0,4095.0,2443.0,3084.0,2979.0,-9.39,-1.08,2.62,-0.17,0.08,0.01,1.0,how-are-you
3227.0,980.0,2942.0,4095.0,3137.0,3089.0,4050.0,3280.0,6.98,-6.78,6.29,0.0,0.01,-0.15,0.0,2909.0,3309.0,3479.0,2941.0,4095.0,2442.0,3082.0,2983.0,-9.06,-0.83,2.54,-0.13,0.04,0.07,1.0,how-are-you
3231.0,991.0,2898.0,4074.0,3151.0,3098.0,4078.0,3264.0,6.95,-6.83,6.34,0.0,0.01,-0.15,0.0,2899.0,3312.0,3492.0,2958.0,4095.0,2448.0,3088.0,2983.0,-8.98,-0.57,2.52,-0.08,-0.02,0.03,1.0,how-are-you
3219.0,982.0,2896.0,4095.0,3137.0,3063.0,4049.0,3266.0,6.94,-6.83,6.23,0.03,0.0,-0.16,0.0,2909.0,3312.0,3492.0,2963.0,4095.0,2448.0,3087.0,2981.0,-9.03,-0.5,2.61,-0.03,-0.07,0.03,1.0,how-are-you
3450.0,3415.0,3651.0,4095.0,1989.0,2038.0,2203.0,1792.0,8.81,4.55,2.71,-0.04,0.01,-0.08,0.0,2581.0,3742.0,3569.0,3430.0,2779.0,2634.0,3035.0,2381.0,-8.09,3.91,2.76,-0.12,-0.58,0.2,1.0,how-are-you
3456.0,3550.0,3645.0,4095.0,2000.0,2043.0,2220.0,1798.0,8.98,4.36,3.0,0.05,-0.5,-0.05,0.0,3009.0,3757.0,3614.0,3415.0,2721.0,2622.0,3035.0,2491.0,-8.51,4.87,3.64,0.17,-0.79,0.4,1.0,how-are-you
3451.0,3697.0,3630.0,4095.0,1979.0,2015.0,2203.0,1785.0,5.29,4.42,1.8,-0.19,-4.09,1.01,0.0,3278.0,3756.0,3665.0,3242.0,2877.0,2721.0,3014.0,2295.0,-5.92,4.65,4.17,0.47,-1.27,2.77,1.0,how-are-you
3461.0,3703.0,3622.0,4095.0,1935.0,2034.0,2219.0,1807.0,8.47,1.6,-1.31,0.27,-2.4,0.83,0.0,3344.0,3709.0,3632.0,3454.0,2958.0,2496.0,3071.0,2125.0,0.09,7.85,3.77,-0.19,-0.58,0.9,1.0,how-are-you
3472.0,3938.0,3597.0,4095.0,1962.0,2016.0,2193.0,1830.0,9.77,3.13,-3.07,-0.4,5.72,-3.12,0.0,3364.0,3710.0,3633.0,3546.0,3071.0,2518.0,3015.0,2193.0,0.11,10.65,7.84,0.12,-0.08,-0.9,1.0,how-are-you
3472.0,3938.0,3599.0,4095.0,1975.0,2041.0,2215.0,1798.0,5.83,4.66,1.37,-1.26,5.21,-3.41,0.0,3647.0,3824.0,3613.0,3267.0,2647.0,2529.0,3036.0,2508.0,-9.53,-2.11,-0.03,-2.52,1.61,-3.66,1.0,how-are-you
3461.0,3945.0,3568.0,4095.0,2019.0,2105.0,2288.0,1859.0,4.97,4.24,7.19,-0.4,-1.18,0.72,0.0,3808.0,3819.0,3562.0,3351.0,2952.0,2583.0,3066.0,2509.0,-11.83,2.41,2.16,0.88,0.44,2.25,1.0,how-are-you
3463.0,4011.0,3686.0,4095.0,2099.0,2160.0,2362.0,1904.0,3.09,2.84,8.5,-0.96,3.08,1.65,0.0,3056.0,3696.0,3295.0,2701.0,2877.0,2540.0,3111.0,1911.0,-5.87,2.81,2.42,0.03,-0.34,2.86,1.0,how-are-you
3414.0,3822.0,3322.0,4095.0,1929.0,2269.0,2449.0,2127.0,5.73,-1.52,8.22,-3.04,-0.81,4.38,0.0,2682.0,3440.0,3143.0,2667.0,3018.0,2369.0,3063.0,2505.0,-1.95,5.57,0.76,0.22,-1.12,0.62,1.0,how-are-you
3201.0,1443.0,1472.0,4095.0,2209.0,2541.0,3012.0,2494.0,14.31,-8.43,11.27,-2.53,-2.35,4.07,0.0,2928.0,3207.0,3151.0,2877.0,4095.0,2395.0,3024.0,2631.0,1.35,2.16,-0.97,-2.41,0.3,-5.89,1.0,how-are-you
3155.0,1049.0,1044.0,4095.0,3047.0,2839.0,3466.0,2727.0,11.12,-7.93,10.32,-0.57,-0.14,0.98,0.0,2898.0,3200.0,3114.0,2910.0,4095.0,2367.0,3055.0,2854.0,-17.39,-12.53,4.17,1.19,0.67,0.79,1.0,how-are-you
3184.0,1067.0,939.0,4095.0,3147.0,3001.0,3817.0,2859.0,7.12,-5.79,7.28,0.46,-0.44,-0.02,0.0,2903.0,3195.0,3125.0,2814.0,4095.0,2432.0,3035.0,2911.0,-9.6,-0.12,3.17,-0.1,-0.84,0.37,1.0,how-are-you
3245.0,961.0,3377.0,4095.0,3127.0,3023.0,3853.0,3001.0,6.74,-6.91,6.99,0.03,0.01,-0.2,0.0,2911.0,3194.0,3133.0,2815.0,4095.0,2438.0,3035.0,2915.0,-8.93,-0.65,2.87,0.22,-0.21,0.18,1.0,how-are-you
3250.0,960.0,3563.0,4095.0,3095.0,2969.0,3799.0,3024.0,6.74,-7.0,6.89,-0.06,-0.12,-0.22,0.0,2901.0,3189.0,3142.0,2869.0,4095.0,2451.0,3043.0,2926.0,-8.8,-0.55,2.67,-0.12,0.1,-0.06,1.0,how-are-you
3231.0,979.0,3664.0,4095.0,3090.0,2941.0,3760.0,3011.0,6.85,-6.79,6.59,0.06,-0.0,-0.17,0.0,2905.0,3191.0,3147.0,2888.0,4095.0,2459.0,3047.0,2933.0,-9.07,-0.64,2.26,-0.16,0.12,-0.02,1.0,how-are-you
3239.0,975.0,3664.0,4095.0,3105.0,2928.0,3790.0,3023.0,6.78,-6.84,6.63,0.02,0.04,-0.18,0.0,2903.0,3187.0,3149.0,2915.0,4095.0,2462.0,3047.0,2943.0,-8.99,-0.62,2.66,-0.07,0.08,-0.09,1.0,how-are-you
3241.0,960.0,3636.0,4095.0,3105.0,2937.0,3753.0,3007.0,7.03,-6.83,6.64,0.05,-0.05,-0.18,0.0,2917.0,3191.0,3151.0,2934.0,4095.0,2465.0,3056.0,2944.0,-9.08,-0.85,2.56,-0.09,0.14,0.01,1.0,how-are-you
3226.0,964.0,3654.0,4095.0,3095.0,2926.0,3739.0,3003.0,6.85,-6.67,6.64,-0.01,-0.05,-0.17,0.0,2913.0,3197.0,3147.0,2956.0,4095.0,2470.0,3055.0,2957.0,-8.96,-0.64,2.55,-0.02,-0.05,0.01,1.0,how-are-you
3239.0,967.0,3648.0,4095.0,3084.0,2912.0,3759.0,3024.0,6.9,-6.77,6.71,0.01,-0.0,-0.18,0.0,2899.0,3201.0,3154.0,2954.0,4095.0,2467.0,3054.0,2953.0,-9.08,-0.68,2.49,-0.03,-0.06,-0.0,1.0,how-are-you
3251.0,976.0,3649.0,4095.0,3088.0,2914.0,3722.0,3029.0,6.92,-6.75,6.7,0.01,-0.02,-0.17,0.0,2903.0,3184.0,3178.0,2970.0,4095.0,2478.0,3062.0,2974.0,-9.01,-0.67,2.6,0.02,-0.09,-0.01,1.0,how-are-you
3476.0,965.0,1815.0,4095.0,1984.0,2032.0,2233.0,1908.0,7.6,6.17,3.17,-0.11,0.29,-0.31,0.0,2770.0,3709.0,3122.0,3438.0,2615.0,2597.0,3031.0,2346.0,-7.68,3.8,3.73,0.02,-0.07,0.56,1.0,how-are-you
3488.0,958.0,1835.0,4095.0,1893.0,2064.0,2286.0,1941.0,4.83,6.6,4.4,-0.39,-1.42,0.77,0.0,2797.0,3698.0,3123.0,3471.0,2640.0,2605.0,3039.0,2475.0,-7.47,4.24,4.3,-0.21,-0.07,0.04,1.0,how-are-you
3468.0,958.0,1834.0,4095.0,1972.0,2035.0,2320.0,1953.0,8.03,4.29,1.55,-0.14,-4.09,2.23,0.0,2974.0,3639.0,3130.0,3343.0,2717.0,2585.0,3023.0,2475.0,-5.76,5.61,2.33,0.7,-2.29,3.08,1.0,how-are-you
3462.0,960.0,1838.0,4095.0,1841.0,2017.0,2304.0,1882.0,9.56,2.35,-5.14,0.43,-0.29,-0.21,0.0,2914.0,3629.0,3136.0,3451.0,2901.0,2543.0,3007.0,2241.0,0.01,10.74,7.36,-0.23,0.15,-0.13,1.0,how-are-you
3472.0,975.0,1953.0,4095.0,2003.0,2032.0,2300.0,1936.0,7.11,3.77,0.77,-0.55,4.83,-3.02,0.0,3090.0,3699.0,3142.0,3221.0,2774.0,2544.0,3024.0,2438.0,-6.17,1.01,-1.1,-2.09,3.5,-4.72,1.0,how-are-you
3493.0,962.0,1921.0,4010.0,2033.0,2064.0,2341.0,2002.0,3.07,5.46,6.33,-1.24,2.54,-1.33,0.0,3245.0,3778.0,3117.0,3359.0,2745.0,2559.0,3059.0,2275.0,-16.36,-0.82,4.36,-1.44,3.12,-2.14,1.0,how-are-you
3479.0,956.0,1595.0,3728.0,2082.0,2151.0,2391.0,2133.0,5.74,4.51,7.99,-0.9,-0.09,0.95,0.0,2880.0,3829.0,3086.0,3133.0,2916.0,2610.0,3159.0,2112.0,-12.13,1.57,3.25,0.54,-0.71,1.99,1.0,how-are-you
3414.0,918.0,938.0,3646.0,2181.0,2272.0,2607.0,2265.0,4.71,0.41,7.99,-2.12,0.36,3.49,0.0,2330.0,3664.0,3095.0,2710.0,3153.0,2543.0,3184.0,2640.0,-4.57,4.56,3.02,1.52,-1.3,2.52,1.0,how-are-you
3299.0,2054.0,3873.0,3764.0,2362.0,2559.0,3070.0,2619.0,8.64,-5.22,8.51,-2.21,-1.45,4.28,0.0,2901.0,3445.0,3220.0,2559.0,4095.0,2447.0,3050.0,2743.0,-21.62,-21.85,-0.34,-5.88,4.82,-4.91,1.0,how-are-you
3166.0,1776.0,3079.0,3930.0,3107.0,3054.0,3789.0,3033.0,8.23,-7.05,7.19,0.54,-1.24,-0.77,0.0,2903.0,3403.0,3241.0,2703.0,4095.0,2371.0,3030.0,2757.0,-10.26,-1.93,0.29,-0.18,1.19,0.29,1.0,how-are-you
3179.0,1553.0,3838.0,3883.0,3115.0,3046.0,3801.0,3056.0,6.57,-6.35,6.35,0.03,-0.39,-0.44,0.0,2913.0,3405.0,3234.0,2706.0,4095.0,2387.0,3045.0,2837.0,-9.18,-2.17,2.94,-0.17,-0.22,0.13,1.0,how-are-you
3187.0,1554.0,3965.0,3913.0,3102.0,3001.0,3793.0,3111.0,7.2,-7.08,6.25,-0.01,-0.05,-0.11,0.0,2897.0,3399.0,3234.0,2745.0,4095.0,2409.0,3053.0,2928.0,-8.95,-1.56,1.85,-0.14,0.13,-0.0,1.0,how-are-you
3186.0,1679.0,3921.0,3909.0,3071.0,2986.0,3766.0,3111.0,6.94,-6.88,6.2,0.09,-0.06,-0.23,0.0,2909.0,3398.0,3243.0,2786.0,4095.0,2436.0,3056.0,2906.0,-9.29,-1.59,2.04,0.0,-0.01,0.05,1.0,how-are-you
3190.0,1662.0,3941.0,3953.0,3085.0,2971.0,3787.0,3113.0,6.9,-6.84,6.22,0.05,-0.08,-0.16,0.0,2903.0,3385.0,3245.0,2810.0,4095.0,2438.0,3062.0,2896.0,-9.14,-1.37,1.82,-0.04,-0.01,-0.0,1.0,how-are-you
3200.0,1663.0,3981.0,3920.0,3088.0,2939.0,3778.0,3101.0,7.04,-6.72,6.08,0.1,-0.0,-0.14,0.0,2911.0,3394.0,3227.0,2815.0,4095.0,2438.0,3062.0,2882.0,-9.22,-1.39,1.96,0.03,-0.06,0.02,1.0,how-are-you
3198.0,1659.0,3943.0,3933.0,3093.0,2938.0,3744.0,3094.0,7.12,-6.79,6.1,0.12,-0.07,-0.19,0.0,2911.0,3395.0,3226.0,2831.0,4095.0,2447.0,3067.0,2939.0,-9.29,-1.33,1.9,-0.0,-0.03,0.0,1.0,how-are-you
3198.0,1657.0,3920.0,3927.0,3088.0,2928.0,3760.0,3091.0,7.09,-6.74,6.16,0.05,0.06,-0.16,0.0,2905.0,3378.0,3229.0,2837.0,4095.0,2450.0,3027.0,2935.0,-9.38,-1.27,1.95,-0.11,0.06,-0.01,1.0,how-are-you
3183.0,1647.0,3920.0,3911.0,3069.0,2927.0,3731.0,3115.0,6.87,-6.54,6.22,0.06,-0.05,-0.15,0.0,2918.0,3379.0,3225.0,2855.0,4095.0,2453.0,3066.0,2950.0,-9.23,-1.22,1.76,-0.1,0.01,0.01,1.0,how-are-you
3194.0,1630.0,3910.0,3979.0,3069.0,2921.0,3760.0,3115.0,7.09,-6.66,6.27,-0.05,0.01,-0.14,0.0,2908.0,3402.0,3235.0,2863.0,4095.0,2457.0,3071.0,2947.0,-8.99,-1.18,1.91,-0.02,0.0,-0.01,1.0,how-are-you
3200.0,1586.0,3904.0,3969.0,3062.0,2909.0,3745.0,3114.0,7.17,-6.64,6.15,0.0,-0.01,-0.16,0.0,2901.0,3376.0,3227.0,2863.0,4095.0,2460.0,3071.0,2946.0,-9.06,-1.04,1.99,-0.07,-0.02,-0.04,1.0,how-are-you
3486.0,951.0,929.0,4095.0,2047.0,2095.0,2329.0,2128.0,8.15,5.88,5.37,0.07,-0.02,-0.22,0.0,4095.0,3565.0,3446.0,3217.0,3005.0,2641.0,3109.0,2481.0,-9.17,3.17,3.02,-0.05,-0.01,0.07,1.0,how-are-you
3487.0,970.0,933.0,4095.0,1955.0,2095.0,2358.0,2111.0,4.45,4.71,3.51,0.1,-5.44,2.16,0.0,4095.0,3553.0,3419.0,3229.0,3008.0,2647.0,3105.0,2559.0,-9.73,3.22,3.54,0.1,-0.04,0.47,1.0,how-are-you
3495.0,947.0,929.0,4091.0,1924.0,2075.0,2327.0,2039.0,8.19,2.14,-2.67,-0.38,-5.4,2.11,0.0,4095.0,3529.0,3472.0,3022.0,2930.0,2609.0,3039.0,2325.0,-2.07,5.92,1.71,-0.83,-2.41,2.0,1.0,how-are-you
3467.0,958.0,922.0,3997.0,2043.0,2034.0,2333.0,2070.0,10.7,2.12,-4.39,0.51,3.75,-2.89,0.0,4095.0,3554.0,3474.0,3201.0,3022.0,2583.0,3041.0,2359.0,-0.64,6.5,1.93,-0.12,2.32,-3.98,1.0,how-are-you
3482.0,960.0,935.0,3997.0,2063.0,2059.0,2337.0,2093.0,6.24,3.76,0.03,-0.36,5.5,-3.15,0.0,4095.0,3603.0,3425.0,3217.0,3090.0,2559.0,3056.0,2427.0,-9.21,0.78,-0.82,-2.04,3.48,-4.29,1.0,how-are-you
3493.0,976.0,929.0,3838.0,2109.0,2090.0,2384.0,2117.0,3.51,4.99,6.51,-1.27,2.04,-1.12,0.0,4095.0,3639.0,3407.0,3102.0,3042.0,2606.0,3097.0,2461.0,-17.89,0.47,3.92,0.07,0.9,-0.69,1.0,how-are-you
3486.0,966.0,918.0,3727.0,2128.0,2108.0,2415.0,2149.0,4.64,4.41,7.2,-1.05,0.38,1.17,0.0,2887.0,3470.0,3287.0,2791.0,2515.0,2457.0,3140.0,2451.0,-3.9,4.84,0.67,0.83,-2.6,1.19,1.0,how-are-you
3408.0,916.0,3479.0,3856.0,2224.0,2343.0,2839.0,2427.0,7.79,-3.72,8.18,-3.45,0.26,4.82,0.0,2915.0,3310.0,3354.0,2830.0,4085.0,2437.0,3017.0,2608.0,1.43,6.32,-1.09,0.55,-1.89,-2.03,1.0,how-are-you
3195.0,2418.0,3755.0,4090.0,2449.0,2874.0,3551.0,2895.0,11.73,-9.85,10.44,-2.77,0.28,3.3,0.0,2903.0,3389.0,3379.0,2769.0,4095.0,2430.0,3066.0,1241.0,-18.27,-16.06,3.46,-2.83,1.43,-4.22,1.0,how-are-you
3185.0,1453.0,3268.0,4095.0,3255.0,3198.0,3921.0,3055.0,10.27,-9.87,10.47,0.24,-1.11,-0.16,0.0,2914.0,3347.0,3383.0,2791.0,4095.0,2430.0,3050.0,2917.0,-9.53,-0.58,2.02,0.43,0.36,0.37,1.0,how-are-you
3191.0,1486.0,3813.0,4032.0,3262.0,3291.0,4044.0,3121.0,7.37,-5.82,6.84,0.46,-0.81,-0.45,0.0,2907.0,3344.0,3376.0,2820.0,4095.0,2455.0,3057.0,2944.0,-9.2,-1.73,2.87,0.09,-0.13,0.12,1.0,how-are-you
3229.0,1435.0,3755.0,4055.0,3250.0,3281.0,4022.0,3207.0,6.75,-6.96,7.08,0.01,-0.15,-0.23,0.0,2915.0,3364.0,3386.0,2865.0,4095.0,2459.0,3063.0,2953.0,-9.03,-1.67,3.03,-0.03,-0.13,0.17,1.0,how-are-you
3231.0,1462.0,3698.0,4073.0,3269.0,3253.0,3953.0,3150.0,6.48,-7.11,6.71,0.01,0.03,-0.21,0.0,2907.0,3344.0,3376.0,2884.0,4095.0,2464.0,3064.0,2960.0,-8.83,-1.13,2.62,-0.07,0.02,0.16,1.0,how-are-you
3237.0,1415.0,3687.0,4047.0,3257.0,3196.0,3951.0,3135.0,6.4,-7.09,6.63,-0.01,0.03,-0.18,0.0,2899.0,3340.0,3378.0,2892.0,4095.0,2463.0,3069.0,2961.0,-8.94,-1.15,2.82,-0.05,-0.0,0.05,1.0,how-are-you
3231.0,1405.0,3667.0,4033.0,3246.0,3187.0,3962.0,3120.0,6.51,-7.1,6.8,-0.04,0.0,-0.14,0.0,2915.0,3340.0,3393.0,2911.0,4095.0,2463.0,3068.0,2960.0,-8.96,-1.03,2.54,-0.13,0.03,0.06,1.0,how-are-you
3237.0,1394.0,3683.0,4073.0,3216.0,3159.0,3951.0,3131.0,6.49,-7.05,6.74,0.01,-0.04,-0.09,0.0,2907.0,3366.0,3383.0,2923.0,4095.0,2466.0,3071.0,2960.0,-9.15,-0.98,2.41,-0.11,0.16,0.02,1.0,how-are-you
3235.0,1319.0,3670.0,4041.0,3182.0,3088.0,3879.0,3088.0,6.67,-6.96,6.62,0.03,-0.01,-0.15,0.0,2911.0,3349.0,3383.0,2935.0,4095.0,2469.0,3070.0,2955.0,-9.1,-1.03,2.5,-0.07,0.07,-0.02,1.0,how-are-you
3235.0,1311.0,3677.0,4035.0,3190.0,3079.0,3907.0,3066.0,6.71,-7.05,6.66,-0.02,-0.02,-0.15,0.0,2909.0,3339.0,3385.0,2931.0,4095.0,2471.0,3070.0,2963.0,-9.17,-0.89,2.48,-0.12,0.14,-0.02,1.0,how-are-you
3229.0,1310.0,3651.0,4069.0,3214.0,3070.0,3867.0,3088.0,6.6,-7.0,6.72,-0.01,0.04,-0.15,0.0,2911.0,3337.0,3392.0,2941.0,4095.0,2473.0,3084.0,2971.0,-9.17,-0.98,2.42,-0.06,0.02,-0.02,1.0,how-are-you
3248.0,1318.0,3679.0,4093.0,3186.0,3049.0,3871.0,3099.0,6.79,-7.08,6.65,0.04,-0.01,-0.17,0.0,2914.0,3342.0,3389.0,2949.0,4095.0,2473.0,3070.0,2970.0,-8.84,-0.68,2.55,-0.04,-0.13,-0.0,1.0,how-are-you
3549.0,923.0,926.0,3984.0,1978.0,1987.0,2195.0,1954.0,8.31,4.93,3.86,-0.03,0.04,-0.06,0.0,3654.0,3483.0,3451.0,3607.0,2682.0,2611.0,3057.0,2350.0,-9.0,3.29,3.95,0.06,-0.13,0.44,1.0,how-are-you
3526.0,941.0,931.0,4095.0,1974.0,2000.0,2205.0,1979.0,9.16,4.73,3.67,0.07,-0.15,-0.12,0.0,3654.0,3483.0,3450.0,3685.0,2847.0,2625.0,3061.0,2365.0,-8.5,3.55,3.85,0.05,-0.31,0.4,1.0,how-are-you
3514.0,926.0,923.0,4095.0,1957.0,2011.0,2221.0,1983.0,6.44,4.92,3.49,-0.18,-1.33,0.7,0.0,3643.0,3478.0,3456.0,3554.0,2737.0,2640.0,3057.0,2320.0,-11.52,3.94,4.79,0.36,-1.21,2.65,1.0,how-are-you
3509.0,927.0,929.0,4095.0,1813.0,2002.0,2222.0,1987.0,9.3,2.01,-0.48,-0.21,-5.19,1.73,0.0,3662.0,3472.0,3422.0,3484.0,2899.0,2598.0,3053.0,2477.0,-0.87,4.53,4.2,-0.37,-2.34,2.07,1.0,how-are-you
3531.0,935.0,922.0,4095.0,2000.0,2005.0,2259.0,2032.0,11.49,2.01,-3.64,0.6,2.69,-2.22,0.0,3667.0,3477.0,3425.0,3378.0,2933.0,2559.0,3027.0,2142.0,-0.38,8.01,5.22,0.25,1.43,-3.25,1.0,how-are-you
3531.0,932.0,928.0,4095.0,2014.0,2020.0,2287.0,2077.0,6.95,2.84,-0.11,-0.35,6.02,-3.55,0.0,3663.0,3485.0,3392.0,3440.0,2944.0,2559.0,3071.0,2480.0,-7.52,-0.76,-1.39,-2.57,4.3,-4.63,1.0,how-are-you
3536.0,946.0,1009.0,3881.0,2077.0,2559.0,2354.0,2221.0,5.85,3.9,8.64,-0.82,-0.04,0.64,0.0,3724.0,3519.0,3333.0,3279.0,2993.0,2620.0,3119.0,2640.0,-17.41,-0.87,4.42,-0.18,0.46,-0.57,1.0,how-are-you
3554.0,943.0,2137.0,3710.0,2281.0,2267.0,2479.0,2229.0,5.84,1.62,7.3,-1.12,0.02,2.04,0.0,2541.0,3478.0,3184.0,2955.0,3105.0,2685.0,3278.0,2354.0,-8.71,2.77,0.55,1.18,-2.44,1.57,1.0,how-are-you
3248.0,2135.0,1991.0,3890.0,2833.0,2785.0,3451.0,2730.0,8.11,-4.95,9.79,-2.95,0.75,4.31,0.0,2925.0,3333.0,3355.0,2771.0,4095.0,2475.0,3071.0,2688.0,4.41,6.35,-1.45,-1.84,-1.6,-4.77,1.0,how-are-you
3230.0,2659.0,1418.0,4035.0,3127.0,3179.0,3901.0,3086.0,8.51,-8.67,9.63,-0.08,-0.64,-0.12,0.0,2913.0,3334.0,3401.0,2874.0,4095.0,2503.0,3063.0,2988.0,-9.53,0.09,1.76,-0.37,0.62,0.31,1.0,how-are-you
3219.0,2278.0,3714.0,3953.0,3120.0,3107.0,3835.0,3094.0,6.22,-6.94,7.02,0.16,-0.25,-0.46,0.0,2911.0,3325.0,3402.0,2875.0,4095.0,2517.0,3089.0,3019.0,-8.53,-1.3,2.54,0.09,-0.25,0.11,1.0,how-are-you
3229.0,2256.0,3792.0,3952.0,3035.0,3068.0,3806.0,3108.0,6.48,-7.05,6.9,-0.05,0.03,-0.15,0.0,2913.0,3334.0,3397.0,2891.0,4095.0,2519.0,3089.0,3023.0,-8.87,-1.04,2.53,-0.03,0.08,0.06,1.0,how-are-you
3231.0,2251.0,3851.0,3923.0,3055.0,3024.0,3831.0,3086.0,6.47,-6.88,6.93,0.03,0.0,-0.12,0.0,2905.0,3326.0,3409.0,2917.0,4095.0,2528.0,3093.0,3024.0,-9.05,-1.31,2.56,-0.01,-0.08,-0.08,1.0,how-are-you
3248.0,2235.0,3903.0,3932.0,3056.0,3029.0,3795.0,3109.0,6.77,-6.92,6.92,0.06,-0.05,-0.13,0.0,2902.0,3329.0,3409.0,2922.0,4095.0,2537.0,3088.0,3030.0,-9.16,-1.34,2.63,-0.13,0.06,-0.04,1.0,how-are-you
3239.0,2231.0,3935.0,3979.0,3062.0,3010.0,3790.0,3091.0,6.8,-6.83,6.98,0.0,0.01,-0.16,0.0,2912.0,3311.0,3405.0,2943.0,4095.0,2534.0,3091.0,3028.0,-9.05,-1.19,2.58,-0.1,0.09,-0.02,1.0,how-are-you
3231.0,2218.0,3943.0,3978.0,3069.0,2991.0,3798.0,3110.0,6.63,-6.82,7.04,-0.03,0.02,-0.16,0.0,2907.0,3312.0,3389.0,2939.0,4095.0,2535.0,3101.0,3027.0,-9.06,-1.26,2.6,-0.06,0.01,-0.0,1.0,how-are-you
3248.0,2229.0,3966.0,3952.0,3071.0,2990.0,3776.0,3095.0,6.63,-6.84,6.96,-0.02,0.03,-0.15,0.0,2913.0,3323.0,3419.0,2945.0,4095.0,2537.0,3095.0,3025.0,-8.95,-1.14,2.58,-0.12,0.1,0.02,1.0,how-are-you
3251.0,2215.0,3951.0,3961.0,3056.0,2983.0,3745.0,3085.0,6.65,-6.86,6.93,0.0,-0.01,-0.16,0.0,2912.0,3319.0,3407.0,2947.0,4095.0,2538.0,3094.0,3025.0,-8.92,-1.12,2.54,-0.1,0.06,0.02,1.0,how-are-you
3230.0,2207.0,3955.0,3959.0,3071.0,2970.0,3740.0,3095.0,6.59,-6.82,6.89,0.01,-0.04,-0.15,0.0,2907.0,3318.0,3409.0,2955.0,4095.0,2542.0,3090.0,3024.0,-8.94,-1.1,2.64,-0.12,0.13,-0.01,1.0,how-are-you
3249.0,2203.0,3975.0,3943.0,3071.0,2975.0,3742.0,3103.0,6.71,-6.84,6.9,-0.0,-0.0,-0.14,0.0,2915.0,3317.0,3407.0,2960.0,4095.0,2544.0,3104.0,3001.0,-8.91,-0.94,2.57,-0.09,0.05,-0.02,1.0,how-are-you
3712.0,944.0,993.0,4095.0,1947.0,2005.0,2214.0,1915.0,8.5,5.07,4.05,0.06,0.16,-0.53,0.0,4095.0,3822.0,3840.0,3200.0,2977.0,2559.0,3054.0,2223.0,-8.21,3.11,2.24,-0.26,0.55,-0.37,1.0,how-are-you
3713.0,959.0,1003.0,4095.0,2007.0,2030.0,2241.0,1969.0,8.26,5.34,4.04,-0.06,0.0,-0.6,0.0,4095.0,3843.0,3833.0,3376.0,2683.0,2519.0,3031.0,2215.0,-9.5,2.69,2.49,-0.26,-0.53,-0.4,1.0,how-are-you
3713.0,937.0,1008.0,4095.0,2093.0,2031.0,2277.0,1953.0,7.63,3.9,3.8,-0.17,-6.27,3.0,0.0,4095.0,3696.0,3792.0,3422.0,2864.0,2554.0,2992.0,2134.0,1.51,7.24,2.0,-0.3,-2.6,1.19,1.0,how-are-you
3692.0,944.0,1003.0,4095.0,1783.0,2033.0,2250.0,1901.0,8.73,0.84,-3.79,0.13,0.14,-0.2,0.0,4095.0,3718.0,3777.0,3329.0,3024.0,2548.0,3008.0,2326.0,-0.04,10.35,8.17,0.2,-0.27,-0.81,1.0,how-are-you
3703.0,933.0,995.0,4095.0,1891.0,2053.0,2260.0,1945.0,11.28,0.64,-3.4,0.48,4.53,-3.42,0.0,4095.0,3742.0,3806.0,3621.0,3029.0,2559.0,2999.0,2403.0,-0.0,6.58,3.46,0.0,2.39,-3.67,1.0,how-are-you
3695.0,945.0,1010.0,4095.0,2125.0,2063.0,2289.0,1984.0,6.54,3.18,0.14,-0.41,6.09,-4.05,0.0,4095.0,3861.0,3746.0,3536.0,2795.0,2582.0,3014.0,2433.0,-7.46,-0.88,-3.86,-2.43,4.94,-5.07,1.0,how-are-you
3715.0,921.0,1007.0,3920.0,2187.0,2151.0,2383.0,2117.0,4.92,5.66,8.02,-0.71,-0.74,1.04,0.0,4095.0,4002.0,3718.0,3503.0,3056.0,2595.0,3051.0,2094.0,-13.86,1.12,2.24,0.83,-0.17,1.9,1.0,how-are-you
3651.0,944.0,971.0,3831.0,2224.0,2192.0,2437.0,2199.0,4.69,2.06,6.86,-2.06,0.23,2.56,0.0,4095.0,3925.0,3579.0,2715.0,2795.0,2559.0,3122.0,2117.0,-6.31,3.22,0.35,-0.57,-0.96,2.57,1.0,how-are-you
3471.0,963.0,2664.0,3790.0,2157.0,2272.0,2686.0,2480.0,3.87,-0.9,7.03,-2.48,0.37,3.62,0.0,2905.0,3727.0,3703.0,2863.0,3227.0,2441.0,3037.0,2374.0,-2.16,6.15,0.03,0.97,-3.29,0.1,1.0,how-are-you
3277.0,944.0,4048.0,3849.0,2797.0,2615.0,3293.0,2725.0,7.76,-6.38,10.15,-3.31,-0.54,4.18,0.0,2924.0,3613.0,3851.0,2559.0,4095.0,2403.0,3001.0,2688.0,0.99,3.52,-3.54,-1.16,0.43,-5.07,1.0,how-are-you
3104.0,970.0,3195.0,3958.0,3239.0,3084.0,3887.0,3029.0,13.65,-12.85,11.7,-1.46,-0.51,1.56,0.0,2906.0,3947.0,3744.0,2928.0,4095.0,2503.0,3062.0,2930.0,-18.02,-18.92,8.57,-0.05,-0.21,-1.52,1.0,how-are-you
3207.0,986.0,3380.0,3932.0,3277.0,3159.0,3567.0,2991.0,7.92,-7.2,7.75,0.6,-0.89,-0.41,0.0,2910.0,3877.0,3809.0,2816.0,4095.0,2459.0,3055.0,2976.0,-9.44,-1.49,2.71,-0.29,0.76,0.31,1.0,how-are-you
3242.0,987.0,3376.0,3911.0,3175.0,3071.0,3749.0,2873.0,7.44,-6.57,7.07,-0.05,-0.26,-0.18,0.0,2906.0,3861.0,3792.0,2823.0,4095.0,2473.0,3061.0,2974.0,-9.23,-1.75,2.92,-0.08,0.39,0.31,1.0,how-are-you
3253.0,967.0,3376.0,3937.0,3181.0,3065.0,3791.0,2960.0,6.59,-7.0,6.57,0.07,-0.15,-0.39,0.0,2905.0,3858.0,3800.0,2867.0,4095.0,2478.0,3059.0,2982.0,-8.51,-1.48,3.32,0.09,-0.02,0.16,1.0,how-are-you
3248.0,974.0,3418.0,3914.0,3088.0,3047.0,3791.0,3026.0,6.25,-7.04,6.37,-0.11,0.03,-0.29,0.0,2901.0,3869.0,3808.0,2891.0,4095.0,2478.0,3059.0,2975.0,-9.0,-1.13,2.75,-0.04,0.13,0.07,1.0,how-are-you
3244.0,974.0,3570.0,3919.0,3164.0,2996.0,3767.0,3035.0,6.48,-7.32,6.54,-0.03,-0.04,-0.08,0.0,2901.0,3857.0,3806.0,2915.0,4095.0,2486.0,3063.0,2976.0,-9.06,-1.17,2.8,-0.11,0.08,0.02,1.0,how-are-you
3252.0,963.0,3815.0,3895.0,3143.0,2970.0,3729.0,2987.0,6.9,-7.27,6.33,0.07,-0.14,-0.16,0.0,2901.0,3838.0,3807.0,2928.0,4095.0,2486.0,3066.0,2992.0,-8.97,-1.07,2.72,-0.06,0.07,-0.04,1.0,how-are-you
3235.0,966.0,3841.0,3950.0,3152.0,2962.0,3754.0,3017.0,6.77,-7.09,6.27,0.07,0.0,-0.18,0.0,2913.0,3840.0,3799.0,2944.0,4095.0,2484.0,3060.0,2987.0,-8.86,-0.98,2.68,-0.1,0.02,0.01,1.0,how-are-you
3245.0,976.0,3903.0,3952.0,3139.0,2972.0,3758.0,3037.0,6.67,-7.07,6.33,0.04,0.02,-0.16,0.0,2911.0,3835.0,3810.0,2944.0,4095.0,2487.0,3063.0,2989.0,-9.0,-1.22,2.71,-0.03,-0.04,-0.05,1.0,how-are-you
3242.0,971.0,3920.0,3976.0,3140.0,2942.0,3738.0,3048.0,6.78,-7.0,6.34,0.01,0.02,-0.16,0.0,2901.0,3824.0,3817.0,2937.0,4095.0,2496.0,3062.0,2984.0,-9.06,-1.13,2.67,-0.02,-0.12,-0.01,1.0,how-are-you
3993.0,938.0,2367.0,4046.0,2144.0,2047.0,2273.0,1918.0,8.61,5.31,4.63,-0.04,-0.11,-0.17,0.0,2162.0,3935.0,3136.0,3477.0,2894.0,2555.0,3037.0,2670.0,-9.03,1.67,3.2,-0.05,0.04,0.12,1.0,how-are-you
4028.0,935.0,2494.0,4095.0,2001.0,2037.0,2269.0,1863.0,6.48,4.9,3.97,0.31,-2.53,0.97,0.0,2192.0,3821.0,3130.0,3380.0,2832.0,2589.0,3054.0,2725.0,-9.99,2.44,3.64,0.89,-2.37,2.89,1.0,how-are-you
3975.0,935.0,2585.0,4095.0,2081.0,2000.0,2218.0,1872.0,9.68,1.87,-3.26,-0.36,-5.34,2.93,0.0,2303.0,3760.0,3136.0,3106.0,2939.0,2497.0,3015.0,2466.0,-0.83,5.59,1.21,-0.37,-2.83,2.36,1.0,how-are-you
3993.0,944.0,2671.0,4095.0,2106.0,2022.0,2256.0,1904.0,12.22,1.57,-3.23,0.19,3.78,-2.56,0.0,2499.0,3754.0,3151.0,3433.0,3031.0,2544.0,3023.0,2527.0,-1.74,5.96,3.34,0.33,2.59,-3.31,1.0,how-are-you
3969.0,931.0,2650.0,4095.0,2114.0,2054.0,2304.0,1947.0,4.53,4.27,1.21,-0.65,5.57,-3.38,0.0,2415.0,3900.0,3136.0,3441.0,3050.0,2559.0,3042.0,2519.0,-6.62,-0.12,-1.9,-1.98,2.8,-4.67,1.0,how-are-you
3949.0,936.0,2173.0,4049.0,2265.0,2142.0,2368.0,2029.0,6.96,5.06,6.4,-0.78,0.17,0.97,0.0,2559.0,3987.0,3130.0,3319.0,3029.0,2613.0,3083.0,2441.0,-12.72,1.63,2.68,0.93,0.89,1.76,1.0,how-are-you
3152.0,1017.0,943.0,4016.0,2320.0,2432.0,2991.0,2433.0,4.9,-1.65,6.34,-2.55,-3.4,4.4,0.0,2740.0,3743.0,3154.0,3043.0,3824.0,2414.0,3088.0,2448.0,2.39,7.53,-4.88,1.64,-3.84,-0.06,1.0,how-are-you
3088.0,1038.0,2096.0,4095.0,2803.0,2880.0,3543.0,2866.0,13.73,-6.74,7.89,-1.49,-1.19,2.31,0.0,2905.0,3381.0,3306.0,2886.0,4095.0,2458.0,3041.0,2667.0,-6.22,-8.49,-0.69,-5.23,4.73,-6.98,1.0,how-are-you
3102.0,976.0,1966.0,4095.0,3018.0,3050.0,3815.0,3087.0,11.77,-6.94,7.51,0.12,0.99,0.71,0.0,2911.0,3366.0,3282.0,2882.0,4095.0,2448.0,3039.0,2899.0,-11.54,-2.35,0.86,2.14,-1.31,0.64,1.0,how-are-you
3120.0,958.0,1744.0,4095.0,3097.0,3088.0,3837.0,3200.0,8.28,-5.95,6.83,0.27,-0.16,-0.29,0.0,2911.0,3357.0,3290.0,2880.0,4095.0,2483.0,3056.0,3007.0,-9.23,-1.02,3.03,-0.54,0.77,0.14,1.0,how-are-you
3131.0,949.0,1661.0,4095.0,3056.0,3038.0,3856.0,3182.0,7.69,-5.8,6.45,0.14,-0.03,-0.28,0.0,2910.0,3354.0,3281.0,2887.0,4095.0,2493.0,3053.0,3024.0,-8.99,-0.93,2.31,-0.03,-0.15,0.15,1.0,how-are-you
3138.0,955.0,1696.0,4095.0,3057.0,3049.0,3875.0,3197.0,7.81,-5.71,6.45,0.02,0.19,-0.23,0.0,2911.0,3335.0,3280.0,2893.0,4095.0,2490.0,3057.0,3020.0,-8.97,-0.9,2.06,0.04,-0.18,0.05,1.0,how-are-you
3154.0,949.0,1689.0,4095.0,3019.0,2965.0,3843.0,3173.0,7.68,-5.62,6.46,-0.04,0.1,-0.17,0.0,2909.0,3343.0,3291.0,2925.0,4095.0,2464.0,3067.0,3024.0,-9.18,-0.92,1.82,-0.02,-0.08,-0.03,1.0,how-are-you
3159.0,941.0,1683.0,4095.0,3037.0,2955.0,3858.0,3175.0,7.81,-5.6,6.54,-0.07,0.03,-0.09,0.0,2921.0,3344.0,3293.0,2939.0,4095.0,2496.0,3066.0,3015.0,-9.14,-0.85,1.91,-0.12,0.07,-0.01,1.0,how-are-you
3149.0,943.0,1709.0,4095.0,3026.0,2937.0,3872.0,3185.0,7.94,-5.64,6.8,-0.06,0.01,-0.17,0.0,2909.0,3344.0,3289.0,2949.0,4095.0,2500.0,3071.0,3021.0,-9.27,-0.79,1.8,-0.08,-0.05,-0.01,1.0,how-are-you
3151.0,956.0,1718.0,4074.0,3024.0,2926.0,3859.0,3166.0,7.72,-5.66,7.02,-0.02,-0.07,-0.17,0.0,2914.0,3343.0,3291.0,2949.0,4095.0,2498.0,3063.0,3019.0,-9.11,-0.72,1.87,-0.08,-0.06,-0.0,1.0,how-are-you
3167.0,942.0,1745.0,4053.0,3035.0,2896.0,3824.0,3167.0,7.96,-5.81,6.85,0.08,0.01,-0.14,0.0,2911.0,3351.0,3287.0,2945.0,4095.0,2506.0,3067.0,3015.0,-8.96,-0.71,1.92,-0.04,-0.07,-0.04,1.0,how-are-you
3152.0,949.0,1787.0,4059.0,3031.0,2896.0,3821.0,3165.0,7.9,-5.67,6.59,0.0,-0.01,-0.16,0.0,2914.0,3344.0,3278.0,2955.0,4095.0,2505.0,3069.0,3023.0,-9.19,-0.71,1.88,-0.04,-0.12,-0.05,1.0,how-are-you
3161.0,951.0,1786.0,4058.0,3055.0,2898.0,3833.0,3148.0,7.69,-5.56,6.6,0.02,-0.01,-0.16,0.0,2908.0,3343.0,3279.0,2971.0,4095.0,2507.0,3062.0,3024.0,-9.23,-0.82,2.06,0.0,-0.19,-0.05,1.0,how-are-you
3157.0,945.0,1786.0,4083.0,3055.0,2896.0,3797.0,3177.0,7.89,-5.63,6.55,0.02,-0.01,-0.13,0.0,2915.0,3350.0,3282.0,2971.0,4095.0,2512.0,3087.0,3027.0,-9.22,-0.79,1.9,-0.03,-0.09,-0.03,1.0,how-are-you
3047.0,1001.0,2900.0,4095.0,3229.0,3083.0,3931.0,3653.0,4.97,-2.33,13.97,0.6,-0.68,-0.88,0.0,2026.0,3083.0,3034.0,3742.0,4095.0,4079.0,4095.0,4095.0,-7.76,-5.29,7.72,-0.29,0.38,-1.85,1.0,how-are-you
3039.0,1159.0,2905.0,4095.0,3248.0,3066.0,3895.0,3668.0,4.4,-0.9,12.72,0.72,-0.24,-0.73,0.0,2623.0,3084.0,3189.0,3813.0,4095.0,4095.0,4095.0,4095.0,-8.86,-3.73,6.85,0.21,0.7,0.64,1.0,how-are-you
2675.0,1613.0,2899.0,4095.0,3275.0,3044.0,3879.0,3555.0,5.27,-0.06,12.07,0.23,0.73,-0.2,0.0,2164.0,3169.0,3247.0,3887.0,4095.0,4002.0,4095.0,4095.0,-8.65,-3.58,5.07,0.13,0.43,1.18,1.0,how-are-you
2701.0,1573.0,2838.0,4095.0,3280.0,3053.0,3799.0,3350.0,1.83,0.8,13.98,0.19,-0.16,0.0,0.0,2035.0,3242.0,3334.0,3564.0,4095.0,3239.0,3986.0,4095.0,-12.46,-4.44,5.85,1.55,-1.19,3.6,1.0,how-are-you
2769.0,1491.0,2266.0,4095.0,3246.0,2637.0,3160.0,2672.0,8.43,1.08,8.39,-0.4,-7.12,-0.02,0.0,975.0,3155.0,3354.0,3287.0,4043.0,2651.0,3184.0,3045.0,-6.52,-0.42,4.64,2.47,-3.08,4.79,1.0,how-are-you
3119.0,4095.0,1375.0,4095.0,2920.0,2085.0,2402.0,1834.0,13.71,-0.48,-1.04,-1.22,-6.74,-1.25,0.0,3742.0,3197.0,3381.0,3157.0,3563.0,2382.0,2864.0,2450.0,2.64,4.63,2.89,0.61,-0.33,3.91,1.0,how-are-you
3034.0,4095.0,1590.0,4095.0,2775.0,1857.0,1977.0,1584.0,9.65,-0.3,2.22,-0.51,-1.87,-1.15,0.0,3207.0,3200.0,3547.0,3234.0,3543.0,2378.0,2813.0,1663.0,7.13,7.33,7.69,0.59,0.08,0.09,1.0,how-are-you
3045.0,4095.0,1830.0,4095.0,2409.0,1859.0,2007.0,1594.0,11.55,-0.8,1.28,1.2,3.16,-2.12,0.0,3184.0,3219.0,3671.0,3164.0,3187.0,2382.0,2822.0,2307.0,1.53,10.02,6.52,1.44,1.13,-2.18,1.0,how-are-you
2946.0,4095.0,1807.0,4095.0,2054.0,1838.0,2074.0,1693.0,8.6,1.91,2.75,1.85,5.98,-2.64,0.0,2998.0,3225.0,3852.0,3029.0,3280.0,2438.0,2845.0,2651.0,-2.07,6.45,-3.85,0.11,4.27,-4.26,1.0,how-are-you
