hall_1,hall_2,hall_3,flex_t,flex_i,flex_m,flex_r,flex_p,accel_x,accel_y,accel_z,gyro_x,gyro_y,gyro_z,hand,sign
4095.0,996.0,2950.0,3411.0,2474.0,1290.0,2721.0,4095.0,-1.45,9.86,3.59,-0.19,0.11,0.01,0.0,i
4095.0,1003.0,2950.0,3425.0,2475.0,1287.0,2727.0,4095.0,-1.58,9.79,4.39,-0.25,0.0,-0.09,0.0,i
4095.0,1008.0,2948.0,3433.0,2480.0,1294.0,2729.0,4095.0,-1.61,9.73,4.88,-0.27,0.02,0.0,0.0,i
4095.0,996.0,2949.0,3431.0,2474.0,1293.0,2719.0,4095.0,-1.25,9.64,5.67,-0.18,0.02,0.04,0.0,i
4095.0,1002.0,2951.0,3437.0,2479.0,1290.0,2732.0,4095.0,-0.76,9.72,5.39,-0.04,0.09,0.04,0.0,i
4095.0,1009.0,2957.0,3447.0,2472.0,1287.0,2717.0,4095.0,-0.52,9.89,4.59,0.01,0.03,-0.05,0.0,i
4095.0,1009.0,2959.0,3455.0,2479.0,1291.0,2721.0,4095.0,-0.87,9.82,5.06,-0.2,0.01,-0.12,0.0,i
4095.0,1008.0,2956.0,3435.0,2474.0,1293.0,2725.0,4095.0,-0.87,9.7,5.85,-0.19,-0.02,-0.06,0.0,i
4095.0,1019.0,2959.0,3453.0,2482.0,1295.0,2725.0,4095.0,-0.69,9.8,5.7,-0.11,-0.03,-0.04,0.0,i
4095.0,1012.0,2950.0,3440.0,2480.0,1293.0,2716.0,4095.0,-0.48,9.81,5.47,-0.08,0.01,-0.03,0.0,i
4095.0,1008.0,2960.0,3443.0,2483.0,1296.0,2723.0,4095.0,-0.58,9.74,5.91,-0.04,-0.07,-0.05,0.0,i
4095.0,998.0,2960.0,3435.0,2475.0,1296.0,2720.0,4095.0,-0.08,9.78,5.78,0.07,-0.01,-0.04,0.0,i
4095.0,1008.0,2957.0,3442.0,2483.0,1293.0,2704.0,4095.0,0.17,9.74,6.02,0.02,-0.09,-0.16,0.0,i
4095.0,1005.0,2953.0,3441.0,2481.0,1296.0,2706.0,4095.0,-0.07,9.74,6.05,0.17,-0.09,-0.24,0.0,i
4095.0,1003.0,2960.0,3447.0,2487.0,1297.0,2721.0,4095.0,-0.4,9.82,5.21,0.27,-0.1,-0.31,0.0,i
4095.0,993.0,2960.0,3434.0,2486.0,1296.0,2726.0,4095.0,-0.49,9.77,5.44,0.19,-0.07,-0.22,0.0,i
4095.0,995.0,2951.0,3451.0,2490.0,1293.0,2719.0,4095.0,-0.43,9.82,5.15,0.25,-0.02,-0.18,0.0,i
4095.0,999.0,2960.0,3445.0,2489.0,1293.0,2721.0,4095.0,-0.51,9.62,5.64,0.46,-0.0,-0.16,0.0,i
4095.0,1008.0,2947.0,3422.0,2494.0,1296.0,2704.0,4095.0,-0.65,9.95,3.58,0.6,0.06,-0.34,0.0,i
4095.0,1009.0,2962.0,3427.0,2499.0,1296.0,2706.0,4095.0,-0.94,10.01,2.37,0.33,-0.14,-0.29,0.0,i
4095.0,1019.0,2959.0,3442.0,2499.0,1301.0,2718.0,4095.0,-0.73,9.87,4.13,0.0,-0.02,-0.15,0.0,i
4095.0,1043.0,2969.0,3457.0,2509.0,1301.0,2726.0,4095.0,-0.79,9.86,4.01,0.04,-0.08,-0.15,0.0,i
4095.0,1045.0,2959.0,3446.0,2505.0,1296.0,2715.0,4095.0,-0.76,9.83,4.27,0.02,0.05,-0.09,0.0,i
4095.0,1039.0,2962.0,3445.0,2501.0,1299.0,2721.0,4095.0,-0.41,9.87,3.99,0.01,-0.03,-0.12,0.0,i
4095.0,1041.0,2955.0,3442.0,2503.0,1296.0,2722.0,4095.0,-0.54,9.88,4.13,-0.0,-0.03,-0.17,0.0,i
4095.0,1043.0,2963.0,3453.0,2510.0,1302.0,2723.0,4095.0,-0.75,9.87,4.29,0.01,-0.05,-0.15,0.0,i
4095.0,1047.0,2957.0,3440.0,2504.0,1299.0,2718.0,4095.0,-0.38,9.89,4.01,0.03,0.03,-0.13,0.0,i
4095.0,1061.0,2967.0,3452.0,2502.0,1298.0,2720.0,4095.0,-0.56,9.86,4.17,0.0,-0.1,-0.21,0.0,i
4095.0,1072.0,2960.0,3451.0,2505.0,1297.0,2718.0,4095.0,-0.7,9.86,4.2,-0.01,-0.05,-0.2,0.0,i
4095.0,1071.0,2955.0,3442.0,2509.0,1299.0,2720.0,4095.0,-0.91,9.89,4.21,-0.0,-0.05,-0.14,0.0,i
4095.0,1059.0,2959.0,3440.0,2512.0,1308.0,2723.0,4095.0,-0.47,9.87,4.28,0.04,0.03,-0.12,0.0,i
4095.0,1065.0,2959.0,3418.0,2510.0,1303.0,2717.0,4095.0,-0.48,9.87,4.2,0.05,-0.05,-0.18,0.0,i
4095.0,1068.0,2971.0,3440.0,2514.0,1309.0,2732.0,4095.0,-0.79,9.91,3.97,0.03,-0.04,-0.18,0.0,i
4095.0,1077.0,2960.0,3442.0,2510.0,1301.0,2719.0,4095.0,-0.62,9.88,4.14,-0.02,-0.02,-0.13,0.0,i
4095.0,1081.0,2953.0,3459.0,2518.0,1309.0,2724.0,4095.0,-0.52,9.85,4.26,-0.01,-0.05,-0.16,0.0,i
4095.0,1101.0,2949.0,3447.0,2512.0,1307.0,2725.0,4095.0,-0.67,9.87,4.18,0.04,-0.06,-0.16,0.0,i
4095.0,1099.0,2960.0,3457.0,2513.0,1305.0,2722.0,4095.0,-0.68,9.85,4.25,-0.0,0.01,-0.16,0.0,i
4095.0,1099.0,2959.0,3446.0,2512.0,1297.0,2729.0,4095.0,-0.69,9.84,4.34,0.0,-0.02,-0.16,0.0,i
4095.0,1098.0,2963.0,3467.0,2517.0,1305.0,2727.0,4095.0,-0.62,9.91,4.07,0.04,0.03,-0.12,0.0,i
4095.0,1091.0,2960.0,3454.0,2522.0,1305.0,2737.0,4095.0,-0.6,9.88,4.19,0.01,-0.03,-0.14,0.0,i
4095.0,1135.0,2973.0,3473.0,2526.0,1313.0,2732.0,4095.0,-0.25,9.94,3.92,-0.04,0.01,-0.12,0.0,i
4095.0,1134.0,2960.0,3463.0,2519.0,1308.0,2730.0,4095.0,-0.49,9.9,4.26,-0.07,-0.12,-0.14,0.0,i
4095.0,1146.0,2955.0,3477.0,2529.0,1302.0,2736.0,4095.0,-0.33,9.88,4.61,-0.04,0.04,-0.12,0.0,i
4095.0,1132.0,2954.0,3459.0,2523.0,1271.0,2730.0,4095.0,-0.32,9.91,4.19,-0.01,-0.04,-0.15,0.0,i
4095.0,1140.0,2950.0,3458.0,2521.0,1302.0,2736.0,4095.0,-0.49,9.89,4.36,-0.13,-0.0,-0.1,0.0,i
4095.0,1157.0,2950.0,3473.0,2528.0,1312.0,2736.0,4095.0,-0.3,9.84,4.85,-0.15,-0.03,-0.1,0.0,i
4095.0,1162.0,2961.0,3465.0,2528.0,1308.0,2726.0,4095.0,-0.18,9.91,4.64,-0.05,0.0,-0.11,0.0,i
4095.0,1166.0,2960.0,3465.0,2526.0,1313.0,2736.0,4095.0,-0.21,9.88,4.91,-0.1,-0.01,-0.13,0.0,i
4095.0,1159.0,2945.0,3460.0,2524.0,1313.0,2736.0,4095.0,-0.27,9.93,4.78,-0.06,-0.01,-0.12,0.0,i
4095.0,1157.0,2960.0,3462.0,2530.0,1317.0,2741.0,4095.0,-0.12,9.88,4.81,-0.14,0.01,-0.1,0.0,i
4095.0,1161.0,2946.0,3450.0,2523.0,1315.0,2733.0,4095.0,-0.15,9.81,5.37,-0.24,-0.02,-0.06,0.0,i
4095.0,1173.0,2957.0,3446.0,2537.0,1317.0,2737.0,4095.0,0.05,9.76,5.69,-0.23,-0.02,-0.06,0.0,i
4095.0,1187.0,2957.0,3422.0,2535.0,1313.0,2736.0,4095.0,0.23,9.72,6.04,-0.21,-0.02,-0.09,0.0,i
4095.0,1229.0,2958.0,3442.0,2533.0,1315.0,2746.0,4095.0,0.24,9.66,6.33,-0.06,-0.04,-0.14,0.0,i
4095.0,1227.0,2959.0,3472.0,2531.0,1314.0,2739.0,4095.0,0.13,9.74,6.09,0.05,-0.04,-0.16,0.0,i
4095.0,1265.0,2960.0,3467.0,2528.0,1314.0,2731.0,4095.0,0.42,9.57,6.47,0.13,-0.03,-0.27,0.0,i
4095.0,1264.0,2966.0,3462.0,2541.0,1317.0,2744.0,4095.0,-0.41,9.85,5.47,0.22,-0.07,-0.32,0.0,i
4095.0,1268.0,2961.0,3459.0,2533.0,1315.0,2736.0,4095.0,-0.41,9.9,5.19,0.14,-0.0,-0.16,0.0,i
4095.0,1274.0,2951.0,3459.0,2535.0,1317.0,2742.0,4095.0,0.02,9.81,5.41,0.06,0.01,-0.14,0.0,i
4095.0,1270.0,2955.0,3463.0,2529.0,1317.0,2739.0,4095.0,0.13,9.76,5.49,0.18,0.04,-0.21,0.0,i
4095.0,1040.0,2956.0,3502.0,2545.0,1321.0,2769.0,4095.0,-0.34,9.79,5.55,0.05,0.0,-0.18,0.0,i
4095.0,1055.0,2959.0,3523.0,2551.0,1310.0,2768.0,4095.0,-0.51,9.87,5.27,-0.03,-0.11,-0.18,0.0,i
4095.0,1050.0,2954.0,3517.0,2547.0,1317.0,2758.0,4095.0,-0.6,9.72,5.88,-0.06,-0.06,-0.17,0.0,i
4095.0,1050.0,2957.0,3506.0,2544.0,1322.0,2768.0,4095.0,-0.44,9.79,5.62,0.04,0.04,-0.14,0.0,i
4095.0,1059.0,2960.0,3522.0,2559.0,1325.0,2771.0,4095.0,-0.58,9.79,5.63,0.01,-0.03,-0.12,0.0,i
4095.0,1057.0,2960.0,3518.0,2551.0,1319.0,2768.0,4095.0,-0.45,9.81,5.54,-0.02,0.08,0.02,0.0,i
4095.0,1069.0,2959.0,3526.0,2554.0,1321.0,2768.0,4095.0,0.11,9.77,5.77,-0.05,0.14,-0.01,0.0,i
4095.0,1079.0,2963.0,3505.0,2559.0,1315.0,2764.0,4095.0,-0.29,9.94,5.33,-0.07,-0.09,-0.09,0.0,i
4095.0,1072.0,2958.0,3525.0,2556.0,1319.0,2780.0,4095.0,0.48,9.61,6.42,-0.29,0.03,-0.09,0.0,i
4095.0,1079.0,2951.0,3519.0,2546.0,1301.0,2778.0,4095.0,0.49,9.61,6.33,0.06,-0.06,-0.17,0.0,i
4095.0,1088.0,2955.0,3530.0,2559.0,1271.0,2775.0,4095.0,-0.53,9.68,6.45,-0.11,-0.33,-0.23,0.0,i
4095.0,1095.0,2959.0,3523.0,2549.0,1315.0,2765.0,4095.0,0.13,9.69,6.25,0.14,0.3,-0.11,0.0,i
4095.0,1115.0,2969.0,3538.0,2559.0,1325.0,2770.0,4095.0,0.01,9.76,5.99,0.01,-0.03,-0.18,0.0,i
4095.0,1098.0,2950.0,3520.0,2551.0,1323.0,2768.0,4095.0,-0.18,9.77,6.11,-0.07,-0.46,-0.11,0.0,i
4095.0,1100.0,2965.0,3536.0,2559.0,1328.0,2777.0,4095.0,0.02,9.5,6.91,0.06,0.04,-0.03,0.0,i
4095.0,1123.0,2966.0,3543.0,2559.0,1315.0,2774.0,4095.0,0.0,9.77,6.22,0.1,-0.12,-0.08,0.0,i
4095.0,1143.0,2960.0,3536.0,2545.0,1293.0,2772.0,4095.0,0.57,9.79,5.7,0.11,0.0,0.02,0.0,i
4095.0,1159.0,2954.0,3521.0,2559.0,1318.0,2753.0,4095.0,0.61,9.81,5.78,-0.1,-0.05,-0.02,0.0,i
4095.0,1141.0,2960.0,3513.0,2547.0,1323.0,2751.0,4095.0,0.87,9.48,6.7,-0.05,0.15,-0.04,0.0,i
4095.0,1104.0,2951.0,3509.0,2553.0,1263.0,2751.0,4095.0,0.96,9.73,5.88,0.31,0.04,-0.31,0.0,i
4095.0,1085.0,2954.0,3530.0,2559.0,1326.0,2761.0,4095.0,-0.18,9.8,5.72,0.04,0.02,-0.11,0.0,i
4095.0,1081.0,2962.0,3529.0,2559.0,1328.0,2767.0,4095.0,0.24,9.77,5.22,0.16,0.1,-0.11,0.0,i
4095.0,1088.0,2960.0,3513.0,2559.0,1324.0,2759.0,4095.0,0.22,9.89,4.93,0.06,-0.13,-0.18,0.0,i
4095.0,1091.0,2960.0,3517.0,2559.0,1327.0,2768.0,4095.0,0.04,9.92,4.84,-0.0,-0.1,-0.19,0.0,i
4095.0,1104.0,2960.0,3519.0,2553.0,1318.0,2753.0,4095.0,-0.69,9.86,5.3,0.01,-0.34,-0.14,0.0,i
4095.0,1104.0,2962.0,3529.0,2559.0,1326.0,2759.0,4095.0,0.91,9.81,4.97,0.07,0.35,-0.06,0.0,i
4095.0,1104.0,2956.0,3517.0,2559.0,1323.0,2762.0,4095.0,0.19,9.88,4.71,0.05,-0.02,-0.32,0.0,i
4095.0,1104.0,2966.0,3515.0,2559.0,1315.0,2769.0,4095.0,-0.53,9.93,4.74,-0.05,0.03,-0.23,0.0,i
4095.0,1120.0,2961.0,3518.0,2559.0,1313.0,2763.0,4095.0,0.06,9.86,4.96,-0.1,0.03,-0.16,0.0,i
4095.0,1121.0,2967.0,3535.0,2559.0,1322.0,2767.0,4095.0,0.01,9.75,5.48,-0.05,-0.1,-0.21,0.0,i
4095.0,1131.0,2947.0,3522.0,2559.0,1327.0,2762.0,4095.0,-0.58,9.88,5.21,0.05,0.07,-0.2,0.0,i
4095.0,1131.0,2970.0,3541.0,2559.0,1328.0,2768.0,4095.0,-0.21,9.9,4.92,-0.03,-0.12,-0.17,0.0,i
4095.0,1126.0,2959.0,3539.0,2559.0,1314.0,2765.0,4095.0,-0.2,9.8,5.45,-0.03,-0.09,-0.17,0.0,i
4095.0,1121.0,2958.0,3534.0,2559.0,1303.0,2762.0,4095.0,-0.33,9.86,5.19,0.03,-0.03,-0.18,0.0,i
4095.0,1141.0,2955.0,3536.0,2559.0,1327.0,2768.0,4095.0,-0.37,9.83,5.23,-0.0,-0.02,-0.17,0.0,i
4095.0,1140.0,2959.0,3529.0,2559.0,1327.0,2759.0,4095.0,-0.33,9.84,5.31,-0.01,-0.02,-0.16,0.0,i
4095.0,1138.0,2960.0,3536.0,2559.0,1328.0,2768.0,4095.0,-0.39,9.85,5.31,-0.06,-0.02,-0.14,0.0,i
4095.0,1141.0,2957.0,3533.0,2559.0,1328.0,2766.0,4095.0,-0.32,9.8,5.41,-0.01,-0.05,-0.16,0.0,i
4095.0,1152.0,2965.0,3533.0,2559.0,1327.0,2768.0,4095.0,-0.36,9.84,5.42,0.01,-0.04,-0.18,0.0,i
4095.0,1163.0,2960.0,3538.0,2559.0,1325.0,2762.0,4095.0,-0.44,9.85,5.44,0.02,-0.06,-0.18,0.0,i
4095.0,1170.0,2960.0,3543.0,2559.0,1295.0,2775.0,4095.0,-0.37,9.8,5.5,0.02,-0.03,-0.16,0.0,i
4095.0,1159.0,2957.0,3536.0,2559.0,1326.0,2768.0,4095.0,-0.37,9.85,5.33,0.03,0.03,-0.14,0.0,i
4095.0,1170.0,2965.0,3550.0,2559.0,1328.0,2773.0,4095.0,-0.18,9.83,5.36,0.0,0.02,-0.13,0.0,i
4095.0,1165.0,2959.0,3536.0,2559.0,1328.0,2768.0,4095.0,-0.3,9.79,5.5,0.0,-0.03,-0.16,0.0,i
4095.0,1178.0,2960.0,3547.0,2559.0,1329.0,2772.0,4095.0,-0.32,9.84,5.38,0.03,-0.0,-0.15,0.0,i
4095.0,1167.0,2949.0,3538.0,2579.0,1328.0,2768.0,4095.0,-0.28,9.81,5.38,0.01,-0.0,-0.16,0.0,i
4095.0,1171.0,2965.0,3548.0,2559.0,1328.0,2779.0,4095.0,-0.27,9.8,5.45,0.01,-0.02,-0.16,0.0,i
4095.0,1171.0,2960.0,3541.0,2559.0,1325.0,2768.0,4095.0,-0.39,9.82,5.44,0.0,0.0,-0.14,0.0,i
4095.0,1183.0,2954.0,3548.0,2559.0,1327.0,2768.0,4095.0,-0.23,9.82,5.39,0.03,0.03,-0.13,0.0,i
4095.0,1177.0,2960.0,3539.0,2559.0,1331.0,2777.0,4095.0,-0.23,9.79,5.43,0.0,-0.03,-0.17,0.0,i
4095.0,1186.0,2953.0,3541.0,2559.0,1325.0,2771.0,4095.0,-0.51,9.82,5.43,0.01,-0.0,-0.16,0.0,i
4095.0,1200.0,2965.0,3535.0,2559.0,1285.0,2769.0,4095.0,-0.32,9.83,5.39,-0.0,-0.01,-0.12,0.0,i
4095.0,1190.0,2947.0,3534.0,2559.0,1322.0,2769.0,4095.0,-0.17,9.82,5.47,-0.0,0.03,-0.16,0.0,i
4095.0,1197.0,2954.0,3555.0,2585.0,1329.0,2771.0,4095.0,-0.42,9.83,5.5,0.03,0.02,-0.16,0.0,i
4095.0,1191.0,2950.0,3541.0,2559.0,1324.0,2770.0,4095.0,-0.34,9.83,5.42,0.02,0.02,-0.13,0.0,i
4095.0,1200.0,2960.0,3558.0,2588.0,1328.0,2779.0,4095.0,-0.14,9.83,5.38,0.04,-0.01,-0.14,0.0,i
4095.0,1202.0,2960.0,3546.0,2580.0,1323.0,2771.0,4095.0,-0.29,9.83,5.34,0.01,-0.02,-0.16,0.0,i
4095.0,1202.0,2960.0,3543.0,2591.0,1331.0,2786.0,4095.0,-0.38,9.79,5.5,0.0,-0.03,-0.16,0.0,i
4095.0,1203.0,2959.0,3539.0,2559.0,1307.0,2769.0,4095.0,-0.36,9.82,5.47,0.03,0.02,-0.14,0.0,i
4095.0,1221.0,2963.0,3550.0,2584.0,1332.0,2782.0,4095.0,-0.33,9.79,5.45,0.01,0.0,-0.16,0.0,i
4095.0,985.0,2960.0,3490.0,2619.0,1344.0,2813.0,4095.0,-1.41,9.56,6.26,0.11,0.24,-0.18,0.0,i
4095.0,993.0,2958.0,3492.0,2615.0,1343.0,2823.0,4095.0,-1.57,9.69,5.77,0.15,-0.11,-0.23,0.0,i
4095.0,982.0,2948.0,3490.0,2611.0,1333.0,2816.0,4095.0,-1.44,9.66,5.64,0.1,-0.02,-0.16,0.0,i
4095.0,983.0,2959.0,3502.0,2618.0,1344.0,2814.0,4095.0,-1.12,9.57,6.29,0.06,0.22,-0.1,0.0,i
4095.0,999.0,2951.0,3494.0,2610.0,1343.0,2823.0,4095.0,-1.12,9.5,6.11,0.4,0.11,-0.24,0.0,i
4095.0,987.0,2960.0,3500.0,2619.0,1347.0,2829.0,4095.0,-1.75,9.79,4.67,0.29,0.01,-0.32,0.0,i
4095.0,993.0,2953.0,3487.0,2615.0,1343.0,2798.0,4095.0,-1.78,9.71,5.1,0.06,-0.04,-0.12,0.0,i
4095.0,987.0,2952.0,3492.0,2624.0,1344.0,2800.0,4095.0,-1.44,9.79,4.61,0.09,-0.01,-0.08,0.0,i
4095.0,991.0,2951.0,3489.0,2615.0,1339.0,2799.0,4095.0,-1.61,9.7,5.28,0.01,-0.22,-0.11,0.0,i
4095.0,980.0,2961.0,3504.0,2621.0,1344.0,2798.0,4095.0,-1.49,9.77,4.95,0.13,0.16,0.05,0.0,i
4095.0,989.0,2957.0,3472.0,2619.0,1344.0,2800.0,4095.0,-1.11,9.81,4.62,0.01,0.14,-0.08,0.0,i
4095.0,989.0,2961.0,3498.0,2623.0,1333.0,2789.0,4095.0,-1.12,9.82,4.72,-0.18,0.42,-0.14,0.0,i
4095.0,976.0,2942.0,3477.0,2617.0,1344.0,2779.0,4095.0,-1.34,9.73,5.25,-0.23,-0.17,-0.16,0.0,i
4095.0,974.0,2960.0,3485.0,2622.0,1341.0,2772.0,4095.0,-1.27,9.71,5.54,-0.21,0.03,-0.09,0.0,i
4095.0,983.0,2960.0,3495.0,2624.0,1346.0,2785.0,4095.0,-1.21,9.65,5.89,-0.18,-0.07,-0.02,0.0,i
4095.0,979.0,2959.0,3498.0,2619.0,1331.0,2779.0,4095.0,-0.95,9.69,5.83,-0.14,-0.04,-0.12,0.0,i
4095.0,976.0,2953.0,3515.0,2619.0,1325.0,2779.0,4095.0,-0.94,9.62,6.16,-0.15,-0.06,-0.14,0.0,i
4095.0,981.0,2963.0,3504.0,2614.0,1338.0,2775.0,4095.0,-1.11,9.62,6.28,-0.09,-0.1,-0.12,0.0,i
4095.0,981.0,2959.0,3507.0,2618.0,1346.0,2794.0,4095.0,-0.91,9.55,6.61,-0.03,-0.02,-0.06,0.0,i
4095.0,979.0,2958.0,3499.0,2614.0,1341.0,2783.0,4095.0,-0.66,9.6,6.26,0.08,-0.1,-0.15,0.0,i
4095.0,979.0,2957.0,3506.0,2624.0,1345.0,2798.0,4095.0,-0.85,9.62,6.28,0.13,-0.13,-0.21,0.0,i
4095.0,989.0,2946.0,3504.0,2621.0,1346.0,2797.0,4095.0,-1.07,9.72,5.91,0.02,-0.05,-0.18,0.0,i
4095.0,983.0,2957.0,3519.0,2625.0,1342.0,2795.0,4095.0,-0.85,9.66,6.19,-0.03,0.02,-0.1,0.0,i
4095.0,982.0,2961.0,3504.0,2620.0,1347.0,2805.0,4095.0,-0.79,9.61,6.46,-0.03,-0.06,-0.12,0.0,i
4095.0,987.0,2958.0,3511.0,2621.0,1318.0,2800.0,4095.0,-0.76,9.62,6.3,0.06,-0.01,-0.14,0.0,i
4095.0,992.0,2960.0,3515.0,2626.0,1345.0,2804.0,4095.0,-0.88,9.71,5.98,0.05,-0.03,-0.15,0.0,i
4095.0,982.0,2957.0,3507.0,2621.0,1346.0,2794.0,4095.0,-0.81,9.65,6.28,-0.06,-0.01,-0.09,0.0,i
4095.0,981.0,2960.0,3518.0,2624.0,1340.0,2802.0,4095.0,-0.56,9.59,6.45,0.02,0.01,-0.12,0.0,i
4095.0,977.0,2957.0,3519.0,2626.0,1342.0,2798.0,4095.0,-0.49,9.65,6.15,0.03,-0.15,-0.24,0.0,i
4095.0,982.0,2971.0,3525.0,2630.0,1350.0,2801.0,4095.0,-1.05,9.64,6.21,0.01,-0.04,-0.21,0.0,i
4095.0,991.0,2960.0,3519.0,2621.0,1349.0,2801.0,4095.0,-0.78,9.61,6.22,-0.01,0.02,-0.13,0.0,i
4095.0,989.0,2963.0,3515.0,2637.0,1350.0,2801.0,4095.0,-0.67,9.61,6.32,-0.01,-0.07,-0.17,0.0,i
4095.0,986.0,2947.0,3515.0,2622.0,1344.0,2799.0,4095.0,-0.84,9.6,6.42,0.03,-0.07,-0.18,0.0,i
4095.0,984.0,2953.0,3519.0,2624.0,1343.0,2807.0,4095.0,-0.76,9.65,6.27,0.04,-0.02,-0.2,0.0,i
4095.0,996.0,2960.0,3509.0,2614.0,1345.0,2806.0,4095.0,-1.09,9.64,6.34,0.01,-0.04,-0.16,0.0,i
4095.0,983.0,2960.0,3520.0,2625.0,1339.0,2793.0,4095.0,-1.02,9.69,6.09,0.01,0.03,-0.08,0.0,i
4095.0,981.0,2965.0,3526.0,2633.0,1349.0,2806.0,4095.0,-1.14,9.59,6.3,-0.04,-0.5,-0.01,0.0,i
4095.0,981.0,2960.0,3521.0,2620.0,1331.0,2800.0,4095.0,0.06,9.55,6.4,0.03,0.28,-0.1,0.0,i
4095.0,980.0,2958.0,3526.0,2624.0,1349.0,2805.0,4095.0,-0.58,9.62,6.44,0.01,-0.39,-0.26,0.0,i
4095.0,991.0,2952.0,3519.0,2621.0,1338.0,2801.0,4095.0,-0.72,9.67,6.34,0.0,-0.1,-0.16,0.0,i
4095.0,990.0,2962.0,3511.0,2621.0,1345.0,2810.0,4095.0,-0.51,9.62,6.52,0.03,0.16,0.04,0.0,i
4095.0,991.0,2960.0,3475.0,2635.0,1344.0,2809.0,4095.0,-0.31,9.56,6.63,0.17,0.17,0.04,0.0,i
4095.0,990.0,2960.0,3474.0,2621.0,1347.0,2805.0,4095.0,0.12,9.73,5.82,0.08,-0.02,-0.11,0.0,i
4095.0,995.0,2958.0,3500.0,2625.0,1344.0,2806.0,4095.0,-0.24,9.67,6.15,-0.03,-0.24,-0.3,0.0,i
4095.0,999.0,2960.0,3518.0,2632.0,1337.0,2812.0,4095.0,-0.21,9.67,6.33,0.07,0.05,-0.12,0.0,i
4095.0,986.0,2967.0,3527.0,2622.0,1345.0,2816.0,4095.0,-0.03,9.69,6.12,0.06,-0.16,-0.14,0.0,i
4095.0,997.0,2960.0,3523.0,2623.0,1341.0,2814.0,4095.0,-0.11,9.73,6.08,0.07,0.03,-0.14,0.0,i
4095.0,987.0,2960.0,3539.0,2629.0,1340.0,2819.0,4095.0,-0.2,9.68,6.35,0.11,-0.0,-0.14,0.0,i
4095.0,992.0,2957.0,3533.0,2623.0,1346.0,2815.0,4095.0,0.34,9.74,5.66,0.2,0.03,-0.2,0.0,i
4095.0,995.0,2955.0,3549.0,2635.0,1351.0,2817.0,4095.0,-0.24,9.87,5.25,0.18,0.01,-0.28,0.0,i
4095.0,993.0,2951.0,3537.0,2624.0,1344.0,2814.0,4095.0,-0.76,9.86,5.42,0.03,0.04,-0.23,0.0,i
4095.0,994.0,2967.0,3549.0,2627.0,1346.0,2823.0,4095.0,-0.44,9.77,5.87,0.04,0.15,-0.04,0.0,i
4095.0,992.0,2959.0,3536.0,2626.0,1344.0,2822.0,4095.0,0.1,9.89,5.12,0.07,0.07,-0.13,0.0,i
4095.0,998.0,2948.0,3536.0,2623.0,1345.0,2815.0,4095.0,-0.2,9.87,5.22,-0.04,-0.07,-0.24,0.0,i
4095.0,991.0,2955.0,3543.0,2630.0,1342.0,2819.0,4095.0,-0.44,9.77,5.77,-0.09,-0.06,-0.2,0.0,i
4095.0,993.0,2951.0,3536.0,2624.0,1296.0,2816.0,4095.0,0.18,9.74,5.62,-0.01,0.07,-0.3,0.0,i
4095.0,998.0,2974.0,3542.0,2634.0,1346.0,2815.0,4095.0,-1.23,9.89,5.36,-0.02,-0.11,-0.34,0.0,i
4095.0,991.0,2962.0,3536.0,2624.0,1296.0,2803.0,4095.0,-1.24,9.78,5.84,-0.09,-0.03,-0.03,0.0,i
4095.0,991.0,2965.0,3527.0,2627.0,1344.0,2801.0,4095.0,-0.06,9.75,5.71,-0.01,0.04,-0.02,0.0,i
4095.0,1001.0,2952.0,3519.0,2623.0,1334.0,2800.0,4095.0,-0.15,9.73,5.8,-0.03,-0.03,-0.17,0.0,i
4095.0,1005.0,2960.0,3543.0,2633.0,1328.0,2811.0,4095.0,-0.6,9.78,5.66,-0.0,-0.02,-0.18,0.0,i
4095.0,1007.0,2969.0,3534.0,2621.0,1343.0,2802.0,4095.0,-0.62,9.69,6.07,-0.08,-0.08,-0.15,0.0,i
4095.0,1006.0,2958.0,3543.0,2630.0,1344.0,2817.0,4095.0,-0.64,9.65,6.32,0.05,-0.01,-0.15,0.0,i
4095.0,1003.0,2953.0,3537.0,2629.0,1349.0,2806.0,4095.0,-1.0,9.67,6.22,0.03,-0.02,-0.11,0.0,i
4095.0,1013.0,2965.0,3543.0,2635.0,1344.0,2814.0,4095.0,-0.21,9.76,5.75,0.0,0.06,-0.05,0.0,i
4095.0,1005.0,2955.0,3533.0,2615.0,1328.0,2814.0,4095.0,-0.07,9.64,6.39,-0.09,-0.03,-0.16,0.0,i
4095.0,999.0,2959.0,3549.0,2635.0,1349.0,2816.0,4095.0,-0.86,9.7,6.27,0.16,0.04,-0.16,0.0,i
4095.0,1011.0,2966.0,3536.0,2627.0,1345.0,2806.0,4095.0,-0.63,9.96,4.46,0.08,0.06,-0.04,0.0,i
4095.0,1006.0,2961.0,3536.0,2625.0,1315.0,2815.0,4095.0,-0.4,9.61,6.2,-0.58,0.24,0.07,0.0,i
4095.0,1014.0,2961.0,3538.0,2624.0,1334.0,2809.0,4095.0,0.18,9.49,7.06,-0.34,0.3,0.06,0.0,i
4095.0,1009.0,2967.0,3551.0,2634.0,1355.0,2809.0,4095.0,-0.45,9.55,6.79,-0.36,0.1,-0.05,0.0,i
4095.0,1008.0,2971.0,3560.0,2635.0,1345.0,2806.0,4095.0,0.71,9.65,6.18,-0.37,0.24,0.03,0.0,i
4095.0,1023.0,2947.0,3550.0,2629.0,1344.0,2800.0,4095.0,0.62,8.94,8.2,-0.66,0.01,-0.35,0.0,i
4095.0,1019.0,2967.0,3565.0,2628.0,1347.0,2820.0,4095.0,-0.32,8.75,8.92,-0.32,-0.12,-0.52,0.0,i
4095.0,1009.0,2960.0,3547.0,2626.0,1350.0,2803.0,4095.0,-1.32,8.54,9.69,-0.38,-0.07,-0.33,0.0,i
4095.0,1008.0,2960.0,3571.0,2636.0,1350.0,2804.0,4095.0,-0.3,8.1,10.76,0.19,0.35,-0.01,0.0,i
4095.0,1004.0,2959.0,3571.0,2625.0,1343.0,2773.0,4095.0,0.12,8.39,9.7,0.68,-0.24,-0.25,0.0,i
4095.0,1010.0,2959.0,3577.0,2625.0,1347.0,2771.0,4095.0,-0.2,9.24,6.44,0.33,-0.49,-0.16,0.0,i
4095.0,1005.0,2959.0,3568.0,2625.0,1343.0,2782.0,4095.0,-0.21,8.59,9.59,-0.5,-0.12,-0.3,0.0,i
4095.0,1015.0,2958.0,3583.0,2631.0,1337.0,2798.0,4095.0,-1.61,9.75,9.41,-0.13,0.18,-0.46,0.0,i
4095.0,4095.0,2965.0,3413.0,2597.0,1333.0,2733.0,4095.0,-0.47,9.39,7.19,-0.01,0.36,0.1,0.0,i
4095.0,4095.0,2971.0,3420.0,2606.0,1335.0,2730.0,4095.0,-0.58,9.23,7.69,0.06,0.24,-0.1,0.0,i
4095.0,4095.0,2961.0,3494.0,2610.0,1332.0,2736.0,4095.0,-1.14,9.5,6.56,0.11,0.35,-0.15,0.0,i
4095.0,4095.0,2960.0,3505.0,2608.0,1345.0,2733.0,4095.0,-1.14,9.36,7.24,-0.11,0.06,-0.15,0.0,i
4095.0,4095.0,2965.0,3345.0,2610.0,1344.0,2737.0,4095.0,-1.11,9.14,7.92,-0.06,0.07,-0.06,0.0,i
4095.0,4095.0,2963.0,3346.0,2610.0,1326.0,2736.0,4095.0,-0.92,9.36,7.18,0.1,-0.07,-0.2,0.0,i
4095.0,4095.0,2963.0,3377.0,2619.0,1344.0,2738.0,4095.0,-1.02,9.32,7.15,0.01,-0.17,-0.23,0.0,i
4095.0,4095.0,2960.0,3381.0,2613.0,1328.0,2734.0,4095.0,-0.84,9.28,7.47,0.05,-0.24,-0.21,0.0,i
4095.0,4095.0,2960.0,3387.0,2619.0,1346.0,2746.0,4095.0,-1.52,9.3,7.48,0.06,-0.37,-0.24,0.0,i
4095.0,4095.0,2960.0,3402.0,2618.0,1347.0,2733.0,4095.0,-1.4,9.43,7.36,0.02,-0.4,-0.15,0.0,i
4095.0,4095.0,2958.0,3421.0,2623.0,1349.0,2734.0,4095.0,-1.07,9.44,7.31,0.02,-0.49,-0.04,0.0,i
4095.0,4095.0,2961.0,3422.0,2625.0,1346.0,2742.0,4095.0,-0.4,9.33,7.62,0.08,-0.46,-0.15,0.0,i
4095.0,4095.0,2963.0,3428.0,2626.0,1346.0,2751.0,4095.0,-0.64,9.38,7.4,0.03,-0.53,-0.19,0.0,i
4095.0,4095.0,2955.0,3443.0,2623.0,1344.0,2746.0,4095.0,0.3,9.39,7.25,-0.0,-0.28,-0.26,0.0,i
4095.0,4095.0,2959.0,3463.0,2626.0,1346.0,2763.0,4095.0,-0.47,9.24,7.66,0.01,-0.08,-0.23,0.0,i
4095.0,4095.0,2948.0,3453.0,2621.0,1347.0,2766.0,4095.0,-0.49,9.34,7.46,0.02,-0.09,-0.19,0.0,i
4095.0,4095.0,2960.0,3447.0,2623.0,1328.0,2762.0,4095.0,-0.29,9.26,7.68,-0.03,-0.27,-0.19,0.0,i
4095.0,4095.0,2978.0,3472.0,2629.0,1329.0,2768.0,4095.0,-0.36,9.26,7.74,0.03,-0.07,-0.15,0.0,i
4095.0,4095.0,2959.0,3459.0,2623.0,1341.0,2764.0,4095.0,-0.25,9.32,7.52,0.07,-0.08,-0.08,0.0,i
4095.0,4095.0,2962.0,3460.0,2625.0,1338.0,2774.0,4095.0,0.06,9.38,7.34,0.01,-0.05,-0.11,0.0,i
4095.0,4095.0,2965.0,3500.0,2635.0,1326.0,2777.0,4095.0,-0.64,9.26,7.7,-0.08,0.17,-0.05,0.0,i
4095.0,4095.0,2959.0,3497.0,2637.0,1345.0,2775.0,4095.0,-0.13,9.35,7.48,-0.01,1.09,0.07,0.0,i
4095.0,4095.0,2960.0,3497.0,2643.0,1353.0,2774.0,4095.0,-0.29,9.39,7.31,-0.0,0.29,-0.11,0.0,i
4095.0,4095.0,2960.0,3503.0,2643.0,1349.0,2768.0,4095.0,-0.67,9.33,7.91,0.0,-1.08,-0.23,0.0,i
4095.0,4095.0,2960.0,3503.0,2637.0,1349.0,2777.0,4095.0,-0.4,9.5,6.89,0.12,0.47,-0.17,0.0,i
4095.0,4095.0,2958.0,3494.0,2640.0,1355.0,2777.0,4095.0,-0.34,9.44,7.34,0.02,-0.39,-0.16,0.0,i
4095.0,4095.0,2957.0,3499.0,2647.0,1359.0,2782.0,4095.0,0.07,9.42,7.22,0.11,-0.43,-0.09,0.0,i
4095.0,4095.0,2960.0,3483.0,2640.0,1355.0,2777.0,4095.0,-0.23,9.49,7.08,0.12,-0.05,-0.21,0.0,i
4095.0,4095.0,2960.0,3499.0,2651.0,1360.0,2784.0,4095.0,-0.07,9.53,6.77,0.03,-0.01,-0.11,0.0,i
4095.0,4095.0,2966.0,3487.0,2645.0,1351.0,2778.0,4095.0,0.01,9.44,7.16,0.01,0.04,-0.06,0.0,i
4095.0,4095.0,2955.0,3502.0,2643.0,1351.0,2791.0,4095.0,0.75,9.35,7.42,-0.16,-0.54,-0.24,0.0,i
4095.0,4095.0,2970.0,3515.0,2646.0,1356.0,2789.0,4095.0,-0.28,9.45,7.08,0.1,-0.38,-0.31,0.0,i
4095.0,4095.0,2957.0,3504.0,2646.0,1351.0,2777.0,4095.0,-0.4,9.41,7.41,0.03,-0.02,-0.11,0.0,i
4095.0,4095.0,2959.0,3523.0,2654.0,1355.0,2790.0,4095.0,0.39,9.49,7.01,0.06,-0.1,-0.09,0.0,i
4095.0,4095.0,2960.0,3499.0,2640.0,1296.0,2779.0,4095.0,0.17,9.42,7.24,0.12,-0.05,-0.15,0.0,i
4095.0,4095.0,2963.0,3502.0,2651.0,1353.0,2775.0,4095.0,0.41,9.46,7.02,-0.03,-0.03,-0.18,0.0,i
4095.0,4095.0,2955.0,3516.0,2641.0,1353.0,2779.0,4095.0,-0.16,9.48,7.26,0.05,-0.05,-0.17,0.0,i
4095.0,4095.0,2967.0,3527.0,2654.0,1357.0,2790.0,4095.0,1.95,9.23,6.45,0.27,0.72,-0.06,0.0,i
4095.0,4095.0,2960.0,3518.0,2647.0,1355.0,2786.0,4095.0,-1.29,9.6,6.72,-0.06,1.2,-0.25,0.0,i
4095.0,4095.0,2962.0,3533.0,2653.0,1360.0,2796.0,4095.0,-0.51,9.41,7.56,0.04,0.07,-0.01,0.0,i
4095.0,4095.0,2955.0,3538.0,2655.0,1350.0,2799.0,4095.0,-0.34,9.41,7.28,0.07,0.23,-0.06,0.0,i
4095.0,4095.0,2959.0,3546.0,2660.0,1358.0,2806.0,4095.0,0.24,9.45,7.16,0.02,0.31,-0.02,0.0,i
4095.0,4095.0,2961.0,3535.0,2656.0,1355.0,2801.0,4095.0,0.24,9.48,7.1,0.04,0.11,-0.16,0.0,i
4095.0,4095.0,2960.0,3551.0,2661.0,1360.0,2801.0,4095.0,-0.21,9.47,7.12,0.06,0.05,-0.2,0.0,i
4095.0,4095.0,2960.0,3542.0,2658.0,1360.0,2800.0,4095.0,-0.06,9.52,6.84,0.04,-0.04,-0.19,0.0,i
4095.0,4095.0,2971.0,3567.0,2667.0,1344.0,2807.0,4095.0,-0.21,9.39,7.41,-0.1,-0.13,-0.18,0.0,i
4095.0,4095.0,2947.0,3538.0,2656.0,1355.0,2801.0,4095.0,-0.19,9.45,7.25,0.05,0.01,-0.17,0.0,i
4095.0,4095.0,2957.0,3549.0,2665.0,1360.0,2813.0,4095.0,-0.09,9.44,7.13,0.02,-0.12,-0.16,0.0,i
4095.0,4095.0,2966.0,3558.0,2666.0,1362.0,2807.0,4095.0,-0.01,9.38,7.36,-0.01,-0.12,-0.12,0.0,i
4095.0,4095.0,2960.0,3551.0,2662.0,1360.0,2804.0,4095.0,-0.01,9.32,7.66,0.03,0.08,-0.17,0.0,i
4095.0,4095.0,2954.0,3557.0,2666.0,1360.0,2813.0,4095.0,-0.4,9.53,7.19,0.15,1.1,-0.03,0.0,i
4095.0,4095.0,2963.0,3555.0,2654.0,1360.0,2800.0,4095.0,-0.66,9.37,6.65,0.01,0.24,-0.12,0.0,i
4095.0,4095.0,2959.0,3568.0,2666.0,1362.0,2800.0,4095.0,-0.34,9.51,6.92,0.1,-0.04,-0.11,0.0,i
4095.0,4095.0,2947.0,3555.0,2657.0,1360.0,2804.0,4095.0,-0.25,9.51,7.05,0.14,-0.26,-0.12,0.0,i
4095.0,4095.0,2960.0,3567.0,2671.0,1363.0,2816.0,4095.0,-0.12,9.76,6.31,0.12,-0.03,-0.16,0.0,i
4095.0,4095.0,2956.0,3557.0,2660.0,1361.0,2813.0,4095.0,-0.12,9.54,6.85,-0.02,-0.26,-0.19,0.0,i
4095.0,4095.0,2960.0,3562.0,2668.0,1360.0,2816.0,4095.0,-0.1,9.51,7.04,0.08,-0.18,-0.13,0.0,i
4095.0,4095.0,2959.0,3546.0,2662.0,1349.0,2815.0,4095.0,-0.23,9.6,6.71,0.14,-0.14,-0.2,0.0,i
4095.0,4095.0,2960.0,3567.0,2672.0,1363.0,2815.0,4095.0,-0.09,9.65,6.35,0.15,-0.12,-0.13,0.0,i
4095.0,4095.0,2959.0,3548.0,2658.0,1359.0,2816.0,4095.0,0.07,9.72,6.2,0.1,-0.1,-0.13,0.0,i
4095.0,4095.0,2960.0,3563.0,2674.0,1353.0,2801.0,4095.0,-0.19,9.96,5.06,-0.11,-0.03,-0.09,0.0,i
4095.0,4095.0,2960.0,3542.0,2663.0,1360.0,2800.0,4095.0,0.34,9.59,6.63,-0.24,-0.05,-0.04,0.0,i
4095.0,4095.0,2961.0,3558.0,2673.0,1359.0,2814.0,4095.0,0.32,9.59,6.67,0.07,-0.17,-0.23,0.0,i
4095.0,4095.0,2961.0,3542.0,2667.0,1360.0,2815.0,4095.0,-0.28,9.76,6.1,0.09,0.0,-0.17,0.0,i
4095.0,4095.0,2960.0,3553.0,2672.0,1360.0,2811.0,4095.0,0.14,9.62,6.73,0.1,0.09,-0.05,0.0,i
4095.0,4095.0,2959.0,3536.0,2670.0,1359.0,2818.0,4095.0,0.4,9.74,5.94,0.24,0.02,-0.19,0.0,i
4095.0,4095.0,2960.0,3559.0,2672.0,1357.0,2813.0,4095.0,0.02,9.9,5.28,0.21,-0.08,-0.22,0.0,i
4095.0,4095.0,2960.0,3541.0,2663.0,1358.0,2814.0,4095.0,-0.12,9.91,5.2,0.03,-0.06,-0.14,0.0,i
4095.0,4095.0,2955.0,3546.0,2672.0,1360.0,2816.0,4095.0,-0.06,9.79,5.87,-0.01,0.01,-0.13,0.0,i
4095.0,4095.0,2960.0,3555.0,2672.0,1360.0,2821.0,4095.0,0.15,9.79,5.74,0.07,0.14,-0.08,0.0,i
4095.0,4095.0,2953.0,3540.0,2671.0,1364.0,2820.0,4095.0,0.0,9.68,6.08,0.1,-0.03,-0.15,0.0,i
4095.0,4095.0,2961.0,3554.0,2673.0,1361.0,2819.0,4095.0,0.18,9.89,4.99,0.24,-0.05,-0.14,0.0,i
4095.0,4095.0,2963.0,3543.0,2672.0,1361.0,2810.0,4095.0,0.48,9.92,4.77,0.03,0.03,-0.12,0.0,i
4095.0,4095.0,2961.0,3552.0,2682.0,1362.0,2816.0,4095.0,0.11,9.81,5.24,-0.09,-0.07,-0.2,0.0,i
4095.0,4095.0,2960.0,3551.0,2672.0,1358.0,2810.0,4095.0,0.11,9.91,5.08,-0.05,0.1,-0.12,0.0,i
4095.0,4095.0,2963.0,3562.0,2686.0,1363.0,2819.0,4095.0,0.28,9.84,5.25,-0.09,0.11,-0.15,0.0,i
4095.0,4095.0,2953.0,3550.0,2672.0,1344.0,2815.0,4095.0,0.04,9.86,5.43,-0.13,0.01,-0.13,0.0,i
4095.0,4095.0,2962.0,3564.0,2671.0,1362.0,2823.0,4095.0,-0.06,9.85,5.51,-0.15,0.07,-0.05,0.0,i
4095.0,4095.0,2953.0,3554.0,2673.0,1357.0,2821.0,4095.0,0.34,9.75,5.8,-0.14,0.14,0.02,0.0,i
4095.0,4095.0,2963.0,3565.0,2673.0,1363.0,2826.0,4095.0,0.71,9.7,6.01,-0.19,0.01,-0.04,0.0,i
4095.0,4095.0,2959.0,3566.0,2675.0,1363.0,2811.0,4095.0,0.76,9.63,6.45,-0.08,0.06,-0.09,0.0,i
4095.0,4095.0,2967.0,3571.0,2678.0,1367.0,2828.0,4095.0,0.91,9.46,6.98,-0.23,0.01,-0.09,0.0,i
4095.0,4095.0,2961.0,3564.0,2672.0,1358.0,2819.0,4095.0,1.1,9.31,7.48,-0.19,-0.02,-0.15,0.0,i
4095.0,4095.0,2960.0,3575.0,2685.0,1350.0,2822.0,4095.0,0.82,9.25,7.8,-0.09,-0.05,-0.21,0.0,i
4095.0,4095.0,2963.0,3565.0,2673.0,1364.0,2821.0,4095.0,0.69,9.33,7.46,-0.04,-0.03,-0.19,0.0,i
4095.0,4095.0,2960.0,3563.0,2672.0,1356.0,2817.0,4095.0,0.67,9.34,7.53,-0.03,0.03,-0.16,0.0,i
4095.0,4095.0,2959.0,3567.0,2673.0,1363.0,2829.0,4095.0,0.93,9.29,7.59,-0.03,0.03,-0.18,0.0,i
4095.0,4095.0,2955.0,3558.0,2672.0,1349.0,2816.0,4095.0,0.6,9.34,7.5,-0.01,-0.09,-0.25,0.0,i
4095.0,4095.0,2970.0,3567.0,2672.0,1364.0,2820.0,4095.0,0.42,9.35,7.58,-0.04,-0.02,-0.19,0.0,i
4095.0,4095.0,2954.0,3558.0,2672.0,1358.0,2819.0,4095.0,0.48,9.27,7.79,-0.02,0.08,-0.13,0.0,i
4095.0,4095.0,2963.0,3567.0,2675.0,1362.0,2822.0,4095.0,0.75,9.18,7.97,0.04,0.01,-0.18,0.0,i
4095.0,4095.0,2961.0,3563.0,2675.0,1365.0,2816.0,4095.0,0.76,9.21,7.74,0.19,-0.03,-0.45,0.0,i
4095.0,4095.0,2966.0,3574.0,2686.0,1369.0,2819.0,4095.0,0.43,9.35,7.42,0.22,-0.09,-0.7,0.0,i
4095.0,4095.0,2957.0,3568.0,2677.0,1338.0,2821.0,4095.0,-0.22,9.39,7.28,0.13,-0.62,-0.54,0.0,i
4095.0,4095.0,2967.0,3583.0,2689.0,1367.0,2825.0,4095.0,-0.62,9.48,6.99,0.03,0.18,-0.12,0.0,i
4095.0,4095.0,2951.0,3568.0,2682.0,1361.0,2826.0,4095.0,-0.09,9.43,7.13,-0.06,-0.02,-0.13,0.0,i
4095.0,4095.0,2965.0,3600.0,2688.0,1369.0,2830.0,4095.0,-0.35,9.38,7.33,-0.0,-0.05,-0.17,0.0,i
4095.0,4095.0,2970.0,3599.0,2686.0,1370.0,2830.0,4095.0,-0.58,9.41,7.32,0.03,-0.14,-0.19,0.0,i
4095.0,4095.0,2959.0,3583.0,2685.0,1371.0,2829.0,4095.0,-0.16,9.35,7.3,0.08,-0.37,-0.24,0.0,i
4095.0,4095.0,2953.0,3600.0,2689.0,1364.0,2835.0,4095.0,-0.35,9.39,7.3,0.03,0.08,-0.12,0.0,i
4095.0,4095.0,2963.0,3606.0,2690.0,1359.0,2833.0,4095.0,0.38,9.34,7.47,-0.04,-0.02,-0.16,0.0,i
4095.0,4095.0,2963.0,3623.0,2689.0,1371.0,2839.0,4095.0,0.36,9.29,7.71,-0.03,-0.0,-0.17,0.0,i
4095.0,4095.0,2957.0,3600.0,2684.0,1361.0,2837.0,4095.0,0.28,9.28,7.64,-0.02,-0.03,-0.16,0.0,i
4095.0,4095.0,2964.0,3610.0,2687.0,1372.0,2849.0,4095.0,0.41,9.24,7.74,0.02,0.0,-0.15,0.0,i
4095.0,4095.0,2963.0,3619.0,2691.0,1363.0,2834.0,4095.0,0.09,9.26,7.76,0.05,0.02,-0.14,0.0,i
4095.0,4095.0,2960.0,3617.0,2687.0,1366.0,2845.0,4095.0,0.41,9.36,7.48,0.05,0.07,-0.07,0.0,i
4095.0,4095.0,2950.0,3615.0,2687.0,1360.0,2842.0,4095.0,0.63,9.32,7.59,0.0,0.01,-0.11,0.0,i
4095.0,4095.0,2966.0,3624.0,2690.0,1373.0,2846.0,4095.0,0.4,9.3,7.63,-0.06,-0.08,-0.2,0.0,i
4095.0,4095.0,2956.0,3616.0,2688.0,1372.0,2839.0,4095.0,0.4,9.25,7.76,-0.01,-0.07,-0.15,0.0,i
4095.0,4095.0,2957.0,3629.0,2691.0,1374.0,2845.0,4095.0,0.45,9.33,7.58,0.01,0.0,-0.13,0.0,i
4095.0,4095.0,2960.0,3628.0,2690.0,1367.0,2848.0,4095.0,0.5,9.29,7.62,-0.01,-0.06,-0.15,0.0,i
4095.0,4095.0,2963.0,3631.0,2689.0,1363.0,2837.0,4095.0,0.43,9.24,7.79,-0.03,-0.04,-0.17,0.0,i
4095.0,4095.0,2960.0,3630.0,2692.0,1374.0,2854.0,4095.0,0.47,9.21,7.92,0.0,-0.02,-0.17,0.0,i
4095.0,4095.0,2959.0,3616.0,2687.0,1365.0,2844.0,4095.0,0.64,9.25,7.61,0.03,-0.04,-0.19,0.0,i
4095.0,4095.0,2960.0,3635.0,2692.0,1369.0,2848.0,4095.0,0.47,9.34,7.49,0.05,0.0,-0.2,0.0,i
4095.0,4095.0,2955.0,3626.0,2688.0,1367.0,2838.0,4095.0,0.02,9.22,7.83,0.06,0.06,-0.18,0.0,i
4095.0,4095.0,2960.0,3627.0,2697.0,1363.0,2854.0,4095.0,0.21,9.22,7.91,0.16,0.17,-0.05,0.0,i
4095.0,4095.0,2950.0,3617.0,2697.0,1343.0,2839.0,4095.0,0.57,9.22,7.6,0.07,-0.01,-0.15,0.0,i
4095.0,4095.0,2961.0,3632.0,2698.0,1369.0,2846.0,4095.0,0.57,9.2,7.9,0.2,0.12,-0.24,0.0,i
4095.0,4095.0,2960.0,3622.0,2697.0,1370.0,2839.0,4095.0,0.15,9.42,7.37,0.14,-0.0,-0.15,0.0,i
4095.0,4095.0,2957.0,3615.0,2694.0,1369.0,2842.0,4095.0,0.53,9.25,7.74,-0.02,-0.06,-0.17,0.0,i
4095.0,4095.0,2959.0,3616.0,2698.0,1378.0,2857.0,4095.0,0.17,9.25,7.83,0.04,-0.06,-0.22,0.0,i
4095.0,4095.0,2958.0,3615.0,2690.0,1373.0,2847.0,4095.0,0.01,9.25,7.82,0.03,0.03,-0.1,0.0,i
4095.0,4095.0,2961.0,3622.0,2703.0,1373.0,2861.0,4095.0,0.54,9.26,7.65,0.02,0.0,-0.1,0.0,i
4095.0,4095.0,2960.0,3617.0,2694.0,1372.0,2846.0,4095.0,0.44,9.25,7.68,-0.01,-0.05,-0.18,0.0,i
4095.0,4095.0,2954.0,3627.0,2701.0,1375.0,2855.0,4095.0,0.3,9.27,7.76,0.01,-0.04,-0.18,0.0,i
4095.0,4095.0,2955.0,3633.0,2700.0,1362.0,2852.0,4095.0,0.23,9.23,7.82,0.01,0.01,-0.13,0.0,i
4095.0,4095.0,2957.0,3614.0,2695.0,1376.0,2850.0,4095.0,0.42,9.22,7.91,0.04,0.02,-0.14,0.0,i
4095.0,4095.0,2960.0,3625.0,2702.0,1375.0,2846.0,4095.0,0.43,9.21,7.82,0.05,-0.01,-0.17,0.0,i
4095.0,4095.0,2956.0,3607.0,2699.0,1375.0,2848.0,4095.0,0.56,9.14,8.21,0.15,0.02,-0.2,0.0,i
4095.0,4095.0,2960.0,3611.0,2711.0,1371.0,2861.0,4095.0,0.83,9.09,8.0,0.5,-0.02,-0.38,0.0,i
4095.0,4095.0,2954.0,3602.0,2705.0,1377.0,2842.0,4095.0,-1.0,9.81,5.92,0.4,-0.18,-0.47,0.0,i
4095.0,4095.0,2962.0,3608.0,2704.0,1379.0,2850.0,4095.0,-0.64,9.67,6.29,0.04,0.06,-0.1,0.0,i
4095.0,4095.0,2960.0,3600.0,2704.0,1371.0,2845.0,4095.0,-0.0,9.44,7.03,0.03,0.06,-0.01,0.0,i
4095.0,4095.0,2963.0,3607.0,2709.0,1357.0,2849.0,4095.0,-0.63,9.44,6.56,0.18,-0.0,-0.01,0.0,i
4095.0,4095.0,2954.0,3597.0,2704.0,1376.0,2846.0,4095.0,0.19,9.68,6.43,0.13,0.12,0.03,0.0,i
4095.0,4095.0,2963.0,3604.0,2709.0,1374.0,2849.0,4095.0,0.66,9.63,6.25,0.19,0.16,-0.02,0.0,i
4095.0,4095.0,2953.0,3583.0,2705.0,1371.0,2780.0,4095.0,0.29,9.75,6.05,0.48,0.12,-0.26,0.0,i
4095.0,4095.0,2950.0,3567.0,2704.0,1374.0,2766.0,4095.0,-0.01,9.87,5.61,0.24,-0.29,-0.47,0.0,i
4095.0,4095.0,2971.0,3579.0,2709.0,1379.0,2790.0,4095.0,-0.16,9.9,5.33,0.24,-0.0,-0.42,0.0,i
4095.0,3915.0,2963.0,3600.0,2762.0,1398.0,2838.0,4095.0,-3.89,9.08,5.0,-0.02,-0.07,-0.3,0.0,i
4095.0,3965.0,2970.0,3607.0,2759.0,1397.0,2849.0,4095.0,-3.88,9.01,5.36,-0.07,-0.11,-0.14,0.0,i
4095.0,3952.0,2960.0,3600.0,2758.0,1399.0,2851.0,4095.0,-3.77,9.01,5.51,-0.06,-0.12,-0.18,0.0,i
4095.0,4085.0,2963.0,3616.0,2762.0,1406.0,2862.0,4095.0,-3.76,8.85,5.87,-0.05,-0.11,-0.21,0.0,i
4095.0,4095.0,2958.0,3607.0,2766.0,1404.0,2867.0,4095.0,-3.8,8.83,5.85,0.02,-0.05,-0.18,0.0,i
4095.0,4095.0,2961.0,3617.0,2763.0,1404.0,2876.0,4095.0,-3.39,9.03,5.58,0.05,-0.23,-0.33,0.0,i
4095.0,4095.0,2960.0,3610.0,2768.0,1395.0,2867.0,4095.0,-4.28,8.66,5.32,0.01,-0.22,-0.28,0.0,i
4095.0,4095.0,2971.0,3632.0,2771.0,1393.0,2875.0,4095.0,-4.28,8.71,6.0,-0.14,-0.13,-0.11,0.0,i
4095.0,4095.0,2957.0,3623.0,2763.0,1362.0,2876.0,4095.0,-3.95,8.73,6.34,-0.08,-0.07,-0.05,0.0,i
4095.0,4095.0,2960.0,3641.0,2777.0,1403.0,2885.0,4095.0,-3.94,8.74,6.33,-0.03,-0.1,-0.12,0.0,i
4095.0,4095.0,2955.0,3631.0,2768.0,1401.0,2880.0,4095.0,-3.61,8.83,6.11,-0.09,-0.01,-0.12,0.0,i
4095.0,4095.0,2960.0,3639.0,2769.0,1405.0,2895.0,4095.0,-3.8,8.7,6.93,-0.06,-0.02,-0.12,0.0,i
4095.0,4095.0,2966.0,3646.0,2775.0,1361.0,2890.0,4095.0,-3.96,8.81,6.26,0.03,0.05,-0.04,0.0,i
4095.0,4095.0,2960.0,3635.0,2768.0,1399.0,2889.0,4095.0,-3.64,8.91,6.05,-0.09,0.09,0.1,0.0,i
4095.0,4095.0,2960.0,3659.0,2775.0,1386.0,2892.0,4095.0,-3.02,9.03,5.58,-0.23,0.12,0.26,0.0,i
4095.0,4095.0,2961.0,3651.0,2768.0,1392.0,2880.0,4095.0,-2.77,8.94,7.61,-0.42,0.19,-0.04,0.0,i
4095.0,4095.0,2959.0,3675.0,2784.0,1397.0,2897.0,4095.0,-2.89,8.75,7.62,0.09,-0.13,-0.14,0.0,i
4095.0,4095.0,2960.0,3674.0,2770.0,1399.0,2896.0,4095.0,-3.43,8.9,6.96,0.17,-0.1,-0.14,0.0,i
4095.0,4095.0,2960.0,3685.0,2783.0,1403.0,2896.0,4095.0,-2.89,9.14,6.28,-0.0,0.01,-0.16,0.0,i
4095.0,4095.0,2959.0,3671.0,2771.0,1396.0,2897.0,4095.0,-3.15,8.84,7.22,-0.01,0.06,-0.08,0.0,i
4095.0,4095.0,2963.0,3699.0,2782.0,1404.0,2890.0,4095.0,-2.43,9.13,6.69,0.01,-0.08,-0.08,0.0,i
4095.0,4095.0,2948.0,3686.0,2772.0,1406.0,2896.0,4095.0,-2.88,9.1,6.74,0.26,-0.25,-0.16,0.0,i
4095.0,4095.0,2958.0,3699.0,2785.0,1404.0,2900.0,4095.0,-2.8,9.42,5.82,0.23,-0.09,-0.08,0.0,i
4095.0,4095.0,2960.0,3696.0,2782.0,1404.0,2907.0,4095.0,-2.18,9.37,6.08,0.13,-0.14,-0.1,0.0,i
4095.0,4095.0,2975.0,3702.0,2789.0,1407.0,2912.0,4095.0,-2.69,9.27,6.3,0.19,-0.0,-0.1,0.0,i
4095.0,4095.0,2953.0,3696.0,2785.0,1398.0,2901.0,4095.0,-2.09,9.45,5.83,0.12,0.18,0.02,0.0,i
4095.0,4095.0,2967.0,3714.0,2790.0,1407.0,2908.0,4095.0,-1.64,9.57,5.83,0.08,0.13,-0.12,0.0,i
4095.0,4095.0,2955.0,3696.0,2784.0,1405.0,2909.0,4095.0,-2.76,9.41,5.86,0.22,0.16,-0.15,0.0,i
4095.0,4095.0,2966.0,3711.0,2789.0,1406.0,2909.0,4095.0,-2.28,9.52,5.1,0.14,0.13,0.02,0.0,i
4095.0,4095.0,2955.0,3702.0,2786.0,1395.0,2899.0,4095.0,-1.57,9.67,4.72,0.17,0.13,-0.01,0.0,i
4095.0,4095.0,2962.0,3697.0,2791.0,1403.0,2915.0,4095.0,-1.42,9.79,4.72,-0.24,0.02,-0.06,0.0,i
4095.0,4095.0,2957.0,3703.0,2791.0,1403.0,2918.0,4095.0,-2.09,9.45,5.63,-0.07,-0.18,-0.38,0.0,i
4095.0,4095.0,2957.0,3699.0,2781.0,1403.0,2912.0,4095.0,-2.6,9.55,5.45,-0.12,-0.02,-0.19,0.0,i
4095.0,4095.0,2961.0,3718.0,2785.0,1407.0,2916.0,4095.0,-2.11,9.31,6.6,-0.1,0.15,-0.09,0.0,i
4095.0,4095.0,2960.0,3711.0,2781.0,1401.0,2906.0,4095.0,-2.24,9.52,5.39,0.12,-0.2,-0.2,0.0,i
4095.0,4095.0,2967.0,3717.0,2783.0,1407.0,2922.0,4095.0,-2.4,9.57,5.46,-0.01,0.01,-0.13,0.0,i
4095.0,4095.0,2959.0,3716.0,2775.0,1402.0,2911.0,4095.0,-1.83,9.39,6.34,-0.11,-0.0,-0.11,0.0,i
4095.0,4095.0,2955.0,3727.0,2788.0,1398.0,2913.0,4095.0,-2.26,9.49,5.94,0.17,-0.17,-0.06,0.0,i
4095.0,4095.0,2961.0,3715.0,2783.0,1401.0,2908.0,4095.0,-1.96,9.59,5.66,0.04,0.28,0.0,0.0,i
4095.0,4095.0,2964.0,3717.0,2787.0,1406.0,2925.0,4095.0,-1.46,9.68,5.52,-0.01,0.04,-0.04,0.0,i
4095.0,4095.0,2964.0,3714.0,2787.0,1399.0,2923.0,4095.0,-1.84,9.45,6.28,-0.28,-0.05,-0.28,0.0,i
4095.0,4095.0,2958.0,3712.0,2785.0,1405.0,2914.0,4095.0,-1.98,9.31,6.9,-0.14,0.01,-0.2,0.0,i
4095.0,4095.0,2964.0,3723.0,2785.0,1410.0,2925.0,4095.0,-1.75,9.41,6.25,-0.05,0.29,-0.18,0.0,i
4095.0,4095.0,2951.0,3707.0,2781.0,1407.0,2917.0,4095.0,-1.85,9.38,6.5,-0.18,-0.12,-0.2,0.0,i
4095.0,4095.0,2961.0,3729.0,2786.0,1407.0,2919.0,4095.0,-2.29,9.17,7.21,-0.13,0.07,-0.24,0.0,i
4095.0,4095.0,2955.0,3706.0,2779.0,1403.0,2915.0,4095.0,-2.04,9.31,6.81,-0.08,0.13,-0.14,0.0,i
4095.0,4095.0,2959.0,3710.0,2786.0,1407.0,2928.0,4095.0,-2.07,9.18,7.14,-0.09,0.15,-0.13,0.0,i
4095.0,4095.0,2959.0,3698.0,2782.0,1400.0,2909.0,4095.0,-2.19,9.19,7.08,0.04,-0.03,-0.16,0.0,i
4095.0,4095.0,2966.0,3711.0,2781.0,1402.0,2907.0,4095.0,-2.2,9.25,6.79,0.06,-0.01,-0.13,0.0,i
4095.0,4095.0,2960.0,3696.0,2783.0,1397.0,2913.0,4095.0,-1.94,9.31,6.73,-0.04,0.01,-0.16,0.0,i
4095.0,4095.0,2961.0,3701.0,2787.0,1408.0,2911.0,4095.0,-2.12,9.17,7.26,0.01,0.02,-0.18,0.0,i
4095.0,4095.0,2960.0,3685.0,2788.0,1407.0,2910.0,4095.0,-2.27,9.26,6.83,0.1,-0.01,-0.11,0.0,i
4095.0,4095.0,2955.0,3664.0,2785.0,1407.0,2909.0,4095.0,-1.91,9.31,6.69,0.02,0.02,-0.12,0.0,i
4095.0,4095.0,2961.0,3659.0,2793.0,1407.0,2903.0,4095.0,-1.92,9.3,6.73,0.01,-0.05,-0.17,0.0,i
4095.0,4095.0,2959.0,3638.0,2781.0,1392.0,2902.0,4095.0,-2.08,9.19,7.01,-0.01,-0.02,-0.18,0.0,i
4095.0,4095.0,2970.0,3642.0,2789.0,1398.0,2913.0,4095.0,-2.15,9.23,7.03,0.02,-0.01,-0.15,0.0,i
4095.0,4095.0,2956.0,3663.0,2778.0,1371.0,2897.0,4095.0,-2.11,9.27,6.89,0.03,0.0,-0.11,0.0,i
4095.0,4095.0,2959.0,3666.0,2786.0,1402.0,2907.0,4095.0,-1.93,9.24,6.81,0.03,-0.04,-0.15,0.0,i
4095.0,4095.0,2965.0,3680.0,2781.0,1402.0,2906.0,4095.0,-1.86,9.26,6.68,0.0,-0.01,-0.14,0.0,i
4095.0,4095.0,2964.0,3698.0,2783.0,1351.0,2907.0,4095.0,-2.06,9.38,6.6,-0.02,-0.01,-0.09,0.0,i
4095.0,2241.0,2943.0,3349.0,2606.0,1340.0,2730.0,4095.0,-2.11,9.09,7.32,0.1,-0.01,0.01,0.0,i
4095.0,2224.0,2943.0,3373.0,2614.0,1339.0,2730.0,4095.0,-1.55,9.13,7.47,0.04,-0.01,-0.03,0.0,i
4095.0,2209.0,2961.0,3386.0,2619.0,1345.0,2738.0,4095.0,-1.36,9.14,7.63,0.09,-0.05,-0.14,0.0,i
4095.0,2341.0,2944.0,3354.0,2618.0,1344.0,2710.0,4095.0,-1.66,9.23,7.16,0.04,-0.11,-0.19,0.0,i
4095.0,2460.0,2958.0,3372.0,2627.0,1303.0,2719.0,4095.0,-1.73,9.14,7.39,-0.03,-0.13,-0.24,0.0,i
4095.0,2453.0,2957.0,3376.0,2624.0,1343.0,2721.0,4095.0,-2.0,8.97,8.01,0.04,-0.1,-0.14,0.0,i
4095.0,2462.0,2958.0,3383.0,2627.0,1349.0,2731.0,4095.0,-1.78,9.24,7.16,0.03,-0.13,-0.11,0.0,i
4095.0,2448.0,2946.0,3387.0,2625.0,1349.0,2729.0,4095.0,-1.47,9.2,7.49,-0.1,-0.07,-0.08,0.0,i
4095.0,2451.0,2961.0,3409.0,2630.0,1354.0,2736.0,4095.0,-1.39,9.02,7.86,-0.03,-0.09,-0.14,0.0,i
4095.0,2462.0,2960.0,3411.0,2631.0,1343.0,2735.0,4095.0,-1.57,9.17,7.42,-0.1,-0.05,-0.15,0.0,i
4095.0,2459.0,2958.0,3431.0,2637.0,1350.0,2737.0,4095.0,-1.19,8.93,8.37,-0.18,0.08,-0.08,0.0,i
4095.0,2453.0,2965.0,3431.0,2633.0,1342.0,2742.0,4095.0,-1.35,8.84,8.46,0.18,0.04,-0.18,0.0,i
4095.0,2464.0,2949.0,3449.0,2640.0,1349.0,2751.0,4095.0,-1.55,9.26,7.08,0.07,-0.09,-0.23,0.0,i
4095.0,2512.0,2961.0,3444.0,2640.0,1357.0,2751.0,4095.0,-1.28,9.11,7.52,-0.1,-0.17,-0.26,0.0,i
4095.0,2503.0,2960.0,3440.0,2636.0,1349.0,2752.0,4095.0,-1.61,8.9,8.33,-0.02,0.08,-0.2,0.0,i
4095.0,2515.0,2965.0,3455.0,2640.0,1356.0,2762.0,4095.0,-1.74,8.99,7.99,0.03,0.06,-0.17,0.0,i
4095.0,2531.0,2958.0,3440.0,2635.0,1328.0,2763.0,4095.0,-1.7,9.05,7.82,-0.04,0.06,-0.16,0.0,i
4095.0,2559.0,2953.0,3461.0,2641.0,1350.0,2768.0,4095.0,-1.68,8.84,8.43,-0.07,0.07,-0.14,0.0,i
4095.0,2559.0,2951.0,3453.0,2640.0,1349.0,2767.0,4095.0,-1.69,8.92,7.98,0.02,-0.09,-0.22,0.0,i
4095.0,2559.0,2963.0,3472.0,2645.0,1353.0,2765.0,4095.0,-1.91,8.89,8.12,-0.03,-0.05,-0.15,0.0,i
4095.0,2711.0,2959.0,3469.0,2642.0,1356.0,2791.0,4095.0,-1.54,9.06,7.66,0.0,-0.09,-0.21,0.0,i
4095.0,2704.0,2960.0,3479.0,2659.0,1359.0,2797.0,4095.0,-1.75,8.89,8.26,-0.04,0.11,-0.07,0.0,i
4095.0,2689.0,2958.0,3473.0,2651.0,1357.0,2797.0,4095.0,-1.57,8.76,8.52,0.05,0.21,0.11,0.0,i
4095.0,2655.0,2957.0,3483.0,2658.0,1354.0,2803.0,4095.0,-1.0,9.1,7.79,0.17,0.15,0.05,0.0,i
4095.0,2635.0,2960.0,3476.0,2653.0,1350.0,2802.0,4095.0,-0.95,9.13,7.8,0.14,0.06,-0.03,0.0,i
4095.0,2559.0,2951.0,3486.0,2658.0,1360.0,2810.0,4095.0,-0.68,9.23,7.48,0.13,0.01,-0.13,0.0,i
4095.0,2555.0,2954.0,3479.0,2652.0,1344.0,2803.0,4095.0,-1.09,9.32,7.24,0.06,-0.12,-0.22,0.0,i
4095.0,2559.0,2951.0,3498.0,2662.0,1360.0,2811.0,4095.0,-1.25,9.24,7.45,-0.0,-0.03,-0.15,0.0,i
4095.0,2555.0,2959.0,3488.0,2661.0,1357.0,2800.0,4095.0,-0.99,9.21,7.65,-0.01,-0.05,-0.15,0.0,i
4095.0,2559.0,2964.0,3502.0,2668.0,1355.0,2800.0,4095.0,-1.09,9.21,7.57,0.02,-0.05,-0.19,0.0,i
4095.0,2557.0,2953.0,3498.0,2662.0,1362.0,2814.0,4095.0,-1.16,9.23,7.52,0.01,0.0,-0.15,0.0,i
4095.0,2551.0,2958.0,3487.0,2657.0,1360.0,2802.0,4095.0,-1.14,9.2,7.67,0.02,0.01,-0.15,0.0,i
4095.0,2559.0,2960.0,3486.0,2666.0,1362.0,2805.0,4095.0,-1.34,9.11,7.99,0.11,0.01,-0.12,0.0,i
4095.0,2559.0,2960.0,3495.0,2666.0,1354.0,2806.0,4095.0,-0.93,9.33,7.25,0.19,0.09,-0.09,0.0,i
4095.0,2559.0,2967.0,3498.0,2667.0,1361.0,2814.0,4095.0,-0.98,9.33,7.06,0.12,0.05,-0.16,0.0,i
4095.0,2480.0,2960.0,3485.0,2663.0,1359.0,2811.0,4095.0,-1.16,9.49,6.65,0.16,-0.11,-0.33,0.0,i
4095.0,2414.0,2960.0,3487.0,2674.0,1360.0,2805.0,4095.0,-1.19,9.35,6.88,-0.16,-0.05,-0.17,0.0,i
4095.0,2401.0,2949.0,3473.0,2671.0,1360.0,2811.0,4095.0,-1.4,9.04,7.32,0.13,-0.02,-0.35,0.0,i
4095.0,1719.0,2951.0,3439.0,2677.0,1360.0,2814.0,4095.0,-2.22,9.15,7.0,0.9,-0.31,-1.36,0.0,i
4095.0,1084.0,2951.0,3440.0,2672.0,1363.0,2822.0,4095.0,-3.19,9.45,5.43,0.49,0.16,-0.58,0.0,i
4095.0,976.0,2955.0,3443.0,2681.0,1370.0,2817.0,4095.0,-3.23,9.35,5.52,0.1,-0.06,-0.24,0.0,i
4095.0,958.0,2958.0,3459.0,2692.0,1360.0,2802.0,4095.0,-2.9,9.54,5.76,-0.15,-0.03,-0.06,0.0,i
4095.0,932.0,2956.0,3472.0,2699.0,1375.0,2790.0,4095.0,-2.93,9.33,5.97,-0.07,0.08,-0.14,0.0,i
4095.0,935.0,2970.0,3491.0,2707.0,1376.0,2803.0,4095.0,-2.97,9.27,5.99,0.04,0.1,-0.28,0.0,i
4095.0,931.0,2954.0,3457.0,2701.0,1374.0,2768.0,4095.0,-3.28,9.35,5.73,0.09,-0.02,-0.42,0.0,i
4095.0,926.0,2960.0,3487.0,2698.0,1376.0,2767.0,4095.0,-3.71,9.24,5.81,0.02,0.14,-0.12,0.0,i
4095.0,925.0,2954.0,3481.0,2698.0,1375.0,2781.0,4095.0,-3.33,9.22,5.78,0.04,0.07,-0.1,0.0,i
4095.0,922.0,2973.0,3504.0,2693.0,1371.0,2800.0,4095.0,-3.12,9.37,5.12,0.15,-0.03,-0.3,0.0,i
4095.0,930.0,2961.0,3522.0,2698.0,1363.0,2805.0,4095.0,-3.53,9.11,5.58,-0.11,-0.03,-0.06,0.0,i
4095.0,926.0,2966.0,3566.0,2704.0,1374.0,2835.0,4095.0,-3.05,9.07,5.92,-0.19,0.06,0.17,0.0,i
4095.0,924.0,2960.0,3559.0,2703.0,1373.0,2834.0,4095.0,-2.64,9.19,6.19,-0.05,0.03,-0.11,0.0,i
4095.0,922.0,2967.0,3575.0,2704.0,1380.0,2838.0,4095.0,-2.79,9.18,6.17,-0.0,-0.06,-0.13,0.0,i
4095.0,931.0,2960.0,3559.0,2703.0,1374.0,2837.0,4095.0,-2.82,9.24,5.98,-0.02,0.01,-0.09,0.0,i
4095.0,926.0,2967.0,3559.0,2705.0,1377.0,2832.0,4095.0,-2.74,9.21,6.19,0.01,0.04,-0.14,0.0,i
4095.0,934.0,2960.0,3557.0,2712.0,1382.0,2846.0,4095.0,-2.56,9.23,6.09,-0.01,0.01,-0.14,0.0,i
4095.0,933.0,2963.0,3558.0,2709.0,1373.0,2836.0,4095.0,-2.59,9.33,6.16,0.01,-0.06,-0.12,0.0,i
4095.0,933.0,2961.0,3562.0,2706.0,1367.0,2829.0,4095.0,-2.59,9.16,6.28,-0.03,-0.02,-0.12,0.0,i
4095.0,925.0,2960.0,3553.0,2707.0,1377.0,2833.0,4095.0,-2.68,9.23,6.33,0.05,-0.01,-0.18,0.0,i
4095.0,931.0,2964.0,3567.0,2711.0,1375.0,2833.0,4095.0,-2.77,9.26,6.07,0.06,0.03,-0.2,0.0,i
4095.0,922.0,2957.0,3548.0,2704.0,1371.0,2833.0,4095.0,-2.69,9.34,5.95,0.0,-0.02,-0.15,0.0,i
4095.0,927.0,2965.0,3553.0,2717.0,1379.0,2843.0,4095.0,-2.46,9.27,5.95,-0.05,0.04,-0.13,0.0,i
4095.0,927.0,2964.0,3555.0,2711.0,1373.0,2836.0,4095.0,-2.65,9.17,6.41,-0.12,-0.1,-0.21,0.0,i
4095.0,941.0,2963.0,3570.0,2710.0,1376.0,2843.0,4095.0,-2.83,9.18,6.4,-0.06,-0.08,-0.19,0.0,i
4095.0,930.0,2958.0,3563.0,2708.0,1374.0,2835.0,4095.0,-2.98,9.14,6.48,-0.07,-0.09,-0.17,0.0,i
4095.0,934.0,2967.0,3567.0,2710.0,1374.0,2849.0,4095.0,-2.85,9.17,6.3,-0.09,0.13,-0.14,0.0,i
4095.0,922.0,2971.0,3568.0,2716.0,1383.0,2844.0,4095.0,-2.77,9.13,6.7,-0.11,0.04,-0.12,0.0,i
4095.0,935.0,2973.0,3566.0,2710.0,1349.0,2835.0,4095.0,-2.62,9.06,6.98,-0.07,-0.0,-0.13,0.0,i
4095.0,933.0,2969.0,3568.0,2711.0,1376.0,2851.0,4095.0,-2.73,9.09,6.71,0.0,-0.02,-0.13,0.0,i
4095.0,944.0,2957.0,3557.0,2707.0,1378.0,2849.0,4095.0,-2.74,9.08,6.67,-0.06,0.02,-0.1,0.0,i
4095.0,930.0,2960.0,3569.0,2721.0,1385.0,2851.0,4095.0,-2.6,9.12,6.74,-0.08,-0.09,-0.11,0.0,i
4095.0,936.0,2961.0,3563.0,2711.0,1378.0,2846.0,4095.0,-2.61,9.04,7.12,-0.07,0.01,-0.1,0.0,i
4095.0,937.0,2960.0,3569.0,2716.0,1381.0,2850.0,4095.0,-2.45,9.02,7.19,-0.05,0.0,-0.14,0.0,i
4095.0,937.0,2959.0,3559.0,2708.0,1373.0,2848.0,4095.0,-2.5,9.05,7.28,0.01,-0.06,-0.16,0.0,i
4095.0,937.0,2974.0,3583.0,2719.0,1379.0,2848.0,4095.0,-2.6,9.0,7.19,0.01,0.01,-0.15,0.0,i
4095.0,924.0,2957.0,3569.0,2711.0,1379.0,2839.0,4095.0,-2.92,9.0,7.11,0.06,0.08,-0.01,0.0,i
4095.0,919.0,2973.0,3572.0,2711.0,1379.0,2845.0,4095.0,-2.32,9.15,7.01,-0.0,0.17,0.04,0.0,i
4095.0,933.0,2951.0,3559.0,2705.0,1328.0,2851.0,4095.0,-1.96,9.28,6.9,0.03,0.08,-0.03,0.0,i
4095.0,931.0,2961.0,3554.0,2707.0,1377.0,2846.0,4095.0,-2.08,9.26,6.93,0.06,-0.03,-0.12,0.0,i
4095.0,935.0,2960.0,3567.0,2720.0,1387.0,2851.0,4095.0,-2.01,9.24,6.84,0.03,0.02,-0.16,0.0,i
4095.0,933.0,2961.0,3557.0,2707.0,1380.0,2851.0,4095.0,-2.27,9.18,7.08,0.06,0.01,-0.15,0.0,i
4095.0,936.0,2960.0,3568.0,2716.0,1383.0,2849.0,4095.0,-2.02,9.23,6.88,0.1,0.07,-0.13,0.0,i
4095.0,944.0,2955.0,3567.0,2714.0,1383.0,2849.0,4095.0,-1.92,9.35,6.51,0.06,0.03,-0.16,0.0,i
4095.0,931.0,2960.0,3568.0,2715.0,1373.0,2855.0,4095.0,-2.13,9.3,6.52,0.02,-0.05,-0.22,0.0,i
4095.0,939.0,2957.0,3565.0,2713.0,1375.0,2848.0,4095.0,-2.19,9.33,6.57,-0.04,-0.05,-0.19,0.0,i
4095.0,927.0,2959.0,3568.0,2711.0,1383.0,2854.0,4095.0,-2.05,9.17,7.23,-0.14,-0.01,-0.2,0.0,i
4095.0,939.0,2960.0,3558.0,2712.0,1376.0,2853.0,4095.0,-2.09,9.06,7.32,0.02,0.01,-0.3,0.0,i
4095.0,933.0,2960.0,3572.0,2717.0,1379.0,2860.0,4095.0,-2.67,9.13,6.74,0.02,-0.09,-0.26,0.0,i
4095.0,930.0,2951.0,3567.0,2716.0,1381.0,2854.0,4095.0,-2.77,9.07,7.02,0.03,-0.01,-0.12,0.0,i
4095.0,940.0,2963.0,3568.0,2725.0,1391.0,2850.0,4095.0,-2.06,9.21,6.91,0.08,-0.08,-0.13,0.0,i
4095.0,931.0,2962.0,3578.0,2726.0,1391.0,2853.0,4095.0,-2.47,9.11,6.96,0.05,-0.06,-0.27,0.0,i
4095.0,943.0,2953.0,3568.0,2715.0,1385.0,2850.0,4095.0,-2.79,9.12,6.75,0.09,-0.04,-0.19,0.0,i
4095.0,929.0,2960.0,3579.0,2725.0,1386.0,2863.0,4095.0,-2.62,9.21,6.5,0.03,0.01,-0.13,0.0,i
4095.0,941.0,2960.0,3565.0,2715.0,1379.0,2858.0,4095.0,-2.49,9.15,6.73,-0.01,-0.05,-0.13,0.0,i
4095.0,930.0,2960.0,3575.0,2725.0,1391.0,2865.0,4095.0,-2.27,9.2,6.84,0.03,0.01,-0.13,0.0,i
4095.0,933.0,2947.0,3571.0,2716.0,1386.0,2859.0,4095.0,-2.36,9.22,6.59,0.01,-0.01,-0.21,0.0,i
4095.0,941.0,2959.0,3583.0,2722.0,1386.0,2861.0,4095.0,-2.76,9.12,6.92,-0.02,-0.02,-0.19,0.0,i
4095.0,940.0,2959.0,3583.0,2721.0,1375.0,2849.0,4095.0,-2.6,9.08,7.07,-0.01,0.06,-0.12,0.0,i
4095.0,941.0,2966.0,3577.0,2727.0,1328.0,2848.0,4095.0,-2.48,9.0,7.31,0.13,0.15,-0.06,0.0,i
4095.0,934.0,2960.0,3577.0,2719.0,1379.0,2830.0,4095.0,-2.61,9.22,6.49,0.24,0.04,-0.09,0.0,i
4095.0,933.0,2975.0,3573.0,2722.0,1383.0,2844.0,4095.0,-2.4,9.34,6.02,0.09,-0.0,-0.07,0.0,i
4095.0,942.0,2960.0,3571.0,2723.0,1386.0,2837.0,4095.0,-2.16,9.31,6.25,0.0,-0.0,-0.11,0.0,i
4095.0,934.0,2956.0,3572.0,2717.0,1375.0,2832.0,4095.0,-2.12,9.26,6.64,0.01,-0.03,-0.15,0.0,i
4095.0,929.0,2963.0,3579.0,2728.0,1385.0,2854.0,4095.0,-2.16,9.36,6.23,0.03,-0.05,-0.21,0.0,i
4095.0,944.0,2959.0,3569.0,2715.0,1380.0,2851.0,4095.0,-2.57,9.16,6.86,0.04,-0.04,-0.21,0.0,i
4095.0,937.0,2973.0,3578.0,2719.0,1377.0,2857.0,4095.0,-2.62,9.3,6.28,0.13,0.05,-0.11,0.0,i
4095.0,944.0,2960.0,3575.0,2721.0,1382.0,2850.0,4095.0,-2.3,9.4,6.15,0.07,-0.01,-0.06,0.0,i
4095.0,944.0,2960.0,3597.0,2723.0,1385.0,2859.0,4095.0,-2.07,9.37,6.49,0.12,-0.03,-0.09,0.0,i
4095.0,942.0,2960.0,3583.0,2720.0,1378.0,2851.0,4095.0,-2.36,9.53,5.67,0.18,-0.08,-0.11,0.0,i
4095.0,944.0,2963.0,3583.0,2729.0,1387.0,2858.0,4095.0,-2.08,9.48,5.78,0.01,0.11,-0.04,0.0,i
4095.0,938.0,2962.0,3581.0,2723.0,1379.0,2850.0,4095.0,-1.87,9.39,6.26,0.01,0.03,-0.16,0.0,i
4095.0,928.0,2971.0,3568.0,2733.0,1389.0,2835.0,4095.0,-2.37,9.37,6.23,0.18,-0.28,-0.45,0.0,i
4095.0,941.0,2962.0,3562.0,2726.0,1388.0,2838.0,4095.0,-2.57,9.44,5.57,0.05,-0.09,-0.18,0.0,i
4095.0,925.0,2961.0,3569.0,2732.0,1378.0,2835.0,4095.0,-2.29,9.39,6.13,0.02,0.02,-0.1,0.0,i
4095.0,933.0,2963.0,3573.0,2735.0,1390.0,2839.0,4095.0,-2.4,9.39,5.91,0.09,-0.09,-0.16,0.0,i
4095.0,930.0,2949.0,3568.0,2727.0,1383.0,2842.0,4095.0,-2.43,9.46,5.51,0.05,-0.05,-0.1,0.0,i
4095.0,937.0,2967.0,3583.0,2733.0,1390.0,2850.0,4095.0,-2.2,9.45,5.83,0.01,-0.02,-0.07,0.0,i
4095.0,933.0,2960.0,3579.0,2735.0,1382.0,2845.0,4095.0,-2.15,9.43,6.0,0.02,0.04,-0.09,0.0,i
4095.0,938.0,2965.0,3583.0,2736.0,1391.0,2856.0,4095.0,-2.07,9.49,5.76,0.02,0.06,-0.07,0.0,i
4095.0,933.0,2957.0,3583.0,2732.0,1387.0,2849.0,4095.0,-2.64,9.54,5.61,-0.02,0.11,-0.05,0.0,i
4095.0,929.0,2969.0,3600.0,2733.0,1392.0,2855.0,4095.0,-1.51,9.64,5.59,-0.05,0.15,-0.02,0.0,i
4095.0,935.0,2958.0,3581.0,2733.0,1369.0,2859.0,4095.0,-1.49,9.36,6.11,0.01,-0.07,-0.18,0.0,i
4095.0,927.0,2961.0,3583.0,2736.0,1386.0,2864.0,4095.0,-2.03,9.52,5.77,-0.01,-0.02,-0.19,0.0,i
4095.0,933.0,2960.0,3583.0,2737.0,1385.0,2854.0,4095.0,-1.89,9.5,5.96,-0.01,-0.13,-0.19,0.0,i
4095.0,931.0,2970.0,3601.0,2735.0,1382.0,2861.0,4095.0,-2.07,9.49,6.06,-0.03,0.04,-0.19,0.0,i
4095.0,939.0,2972.0,3605.0,2736.0,1377.0,2862.0,4095.0,-2.04,9.47,6.05,0.01,-0.03,-0.2,0.0,i
4095.0,941.0,2960.0,3597.0,2731.0,1379.0,2855.0,4095.0,-2.15,9.49,6.01,-0.02,-0.0,-0.16,0.0,i
4095.0,941.0,2962.0,3600.0,2736.0,1386.0,2864.0,4095.0,-1.93,9.49,6.09,0.02,-0.06,-0.18,0.0,i
4095.0,930.0,2962.0,3598.0,2735.0,1386.0,2859.0,4095.0,-2.18,9.45,6.09,0.03,-0.07,-0.18,0.0,i
4095.0,941.0,2977.0,3601.0,2737.0,1334.0,2863.0,4095.0,-2.18,9.43,6.07,0.01,0.05,-0.15,0.0,i
4095.0,927.0,2965.0,3599.0,2731.0,1380.0,2863.0,4095.0,-1.93,9.48,5.95,0.01,0.0,-0.16,0.0,i
4095.0,940.0,2960.0,3615.0,2738.0,1391.0,2862.0,4095.0,-2.1,9.43,6.07,0.01,-0.04,-0.18,0.0,i
4095.0,923.0,2951.0,3583.0,2737.0,1390.0,2863.0,4095.0,-2.08,9.41,6.08,0.01,-0.06,-0.17,0.0,i
4095.0,934.0,2966.0,3609.0,2736.0,1390.0,2854.0,4095.0,-2.14,9.41,6.11,0.01,-0.04,-0.16,0.0,i
4095.0,944.0,2954.0,3595.0,2734.0,1383.0,2861.0,4095.0,-2.06,9.37,6.24,0.01,-0.02,-0.13,0.0,i
4095.0,945.0,2970.0,3617.0,2741.0,1392.0,2864.0,4095.0,-2.06,9.46,6.04,0.04,-0.02,-0.15,0.0,i
4095.0,940.0,2963.0,3603.0,2736.0,1370.0,2864.0,4095.0,-2.02,9.46,5.97,0.0,-0.02,-0.12,0.0,i
4095.0,926.0,2962.0,3607.0,2735.0,1387.0,2864.0,4095.0,-1.92,9.43,6.34,0.04,-0.01,-0.14,0.0,i
4095.0,943.0,2959.0,3615.0,2739.0,1379.0,2864.0,4095.0,-2.01,9.49,6.02,0.14,-0.07,-0.2,0.0,i
4095.0,924.0,2960.0,3601.0,2734.0,1387.0,2864.0,4095.0,-2.22,9.51,5.53,0.03,0.03,-0.18,0.0,i
4095.0,941.0,2963.0,3622.0,2740.0,1386.0,2870.0,4095.0,-2.09,9.47,5.93,-0.04,0.01,-0.12,0.0,i
4095.0,929.0,2960.0,3602.0,2729.0,1385.0,2864.0,4095.0,-2.05,9.43,6.05,0.02,-0.05,-0.18,0.0,i
4095.0,935.0,2967.0,3625.0,2743.0,1388.0,2866.0,4095.0,-2.24,9.47,5.99,0.01,-0.02,-0.15,0.0,i
4095.0,943.0,2953.0,3617.0,2732.0,1376.0,2863.0,4095.0,-2.06,9.45,6.11,-0.0,0.06,-0.15,0.0,i
4095.0,930.0,2975.0,3626.0,2736.0,1362.0,2864.0,4095.0,-2.09,9.42,6.28,0.07,-0.07,-0.16,0.0,i
4095.0,928.0,2959.0,3614.0,2736.0,1386.0,2863.0,4095.0,-1.88,9.45,6.11,0.17,-0.11,-0.16,0.0,i
4095.0,935.0,2960.0,3625.0,2742.0,1385.0,2865.0,4095.0,-2.23,9.47,5.66,0.08,0.1,-0.14,0.0,i
4095.0,939.0,2966.0,3616.0,2741.0,1389.0,2864.0,4095.0,-1.96,9.57,5.51,0.03,-0.03,-0.12,0.0,i
4095.0,939.0,2960.0,3631.0,2743.0,1392.0,2863.0,4095.0,-1.86,9.53,5.75,0.0,-0.04,-0.16,0.0,i
4095.0,944.0,2966.0,3622.0,2742.0,1392.0,2867.0,4095.0,-2.07,9.48,6.0,0.04,-0.1,-0.17,0.0,i
4095.0,940.0,2962.0,3619.0,2740.0,1383.0,2864.0,4095.0,-2.09,9.48,5.88,0.11,-0.06,-0.14,0.0,i
4095.0,942.0,2962.0,3625.0,2742.0,1387.0,2866.0,4095.0,-1.93,9.58,5.38,0.05,0.02,-0.16,0.0,i
4095.0,935.0,2964.0,3609.0,2734.0,1391.0,2866.0,4095.0,-1.96,9.55,5.51,-0.03,-0.07,-0.16,0.0,i
4095.0,943.0,2957.0,3623.0,2747.0,1392.0,2869.0,4095.0,-2.07,9.48,5.83,-0.02,0.01,-0.17,0.0,i
4095.0,944.0,2961.0,3615.0,2739.0,1386.0,2864.0,4095.0,-2.12,9.48,5.76,0.04,-0.04,-0.14,0.0,i
4095.0,928.0,2963.0,3626.0,2739.0,1342.0,2866.0,4095.0,-1.96,9.52,5.69,0.0,0.04,-0.12,0.0,i
4095.0,933.0,2962.0,3616.0,2736.0,1388.0,2865.0,4095.0,-1.9,9.51,5.73,0.05,-0.02,-0.18,0.0,i
4095.0,943.0,2970.0,3630.0,2748.0,1377.0,2870.0,4095.0,-2.13,9.53,5.57,0.03,-0.01,-0.18,0.0,i
4095.0,942.0,2959.0,3622.0,2745.0,1392.0,2865.0,4095.0,-1.94,9.53,5.57,0.0,-0.05,-0.16,0.0,i
4095.0,937.0,2971.0,3629.0,2748.0,1391.0,2874.0,4095.0,-2.04,9.53,5.72,0.01,-0.06,-0.17,0.0,i
4095.0,943.0,2965.0,3626.0,2739.0,1392.0,2869.0,4095.0,-2.13,9.5,5.63,0.0,0.05,-0.14,0.0,i
4095.0,934.0,2962.0,3621.0,2736.0,1386.0,2871.0,4095.0,-2.03,9.53,5.65,-0.02,0.0,-0.13,0.0,i
4095.0,939.0,2971.0,3632.0,2741.0,1392.0,2875.0,4095.0,-1.84,9.55,5.61,-0.02,-0.0,-0.14,0.0,i
4095.0,928.0,2960.0,3621.0,2739.0,1387.0,2867.0,4095.0,-2.01,9.48,5.87,-0.03,0.01,-0.17,0.0,i
4095.0,943.0,2960.0,3632.0,2745.0,1385.0,2876.0,4095.0,-2.12,9.46,6.0,0.01,-0.01,-0.17,0.0,i
4095.0,939.0,2960.0,3619.0,2735.0,1377.0,2865.0,4095.0,-1.91,9.52,5.71,0.03,0.01,-0.16,0.0,i
4095.0,939.0,2977.0,3632.0,2742.0,1391.0,2873.0,4095.0,-2.05,9.49,5.82,0.03,-0.05,-0.17,0.0,i
4095.0,931.0,2959.0,3617.0,2739.0,1390.0,2869.0,4095.0,-2.11,9.47,5.77,0.03,-0.02,-0.14,0.0,i
4095.0,935.0,2965.0,3632.0,2742.0,1392.0,2872.0,4095.0,-1.92,9.51,5.67,-0.01,0.05,-0.14,0.0,i
4095.0,941.0,2970.0,3629.0,2746.0,1387.0,2864.0,4095.0,-1.93,9.53,5.76,0.02,-0.03,-0.16,0.0,i
4095.0,944.0,2967.0,3630.0,2741.0,1391.0,2880.0,4095.0,-2.09,9.52,5.72,0.03,-0.05,-0.16,0.0,i
4095.0,937.0,2960.0,3619.0,2739.0,1390.0,2875.0,4095.0,-2.19,9.5,5.89,0.02,0.06,-0.12,0.0,i
4095.0,935.0,2967.0,3617.0,2740.0,1377.0,2869.0,4095.0,-1.91,9.52,5.78,0.01,0.06,-0.1,0.0,i
4095.0,940.0,2959.0,3633.0,2745.0,1391.0,2877.0,4095.0,-1.95,9.53,5.64,0.04,0.01,-0.17,0.0,i
4095.0,929.0,2958.0,3622.0,2736.0,1390.0,2871.0,4095.0,-2.01,9.52,5.78,-0.04,0.01,-0.13,0.0,i
4095.0,939.0,2967.0,3637.0,2747.0,1392.0,2875.0,4095.0,-1.89,9.49,5.96,0.05,-0.01,-0.12,0.0,i
4095.0,944.0,2961.0,3623.0,2739.0,1392.0,2874.0,4095.0,-1.75,9.59,5.6,-0.01,-0.01,-0.14,0.0,i
4095.0,938.0,2965.0,3635.0,2742.0,1372.0,2871.0,4095.0,-1.66,9.55,5.51,-0.03,0.26,-0.17,0.0,i
4095.0,931.0,2960.0,3626.0,2746.0,1386.0,2874.0,4095.0,-1.92,9.44,5.88,-0.11,0.48,-0.13,0.0,i
4095.0,944.0,2960.0,3638.0,2751.0,1345.0,2880.0,4095.0,-2.24,9.44,6.13,-0.13,0.25,-0.09,0.0,i
4095.0,933.0,2962.0,3621.0,2739.0,1379.0,2871.0,4095.0,-1.91,9.56,5.5,0.03,-0.13,-0.13,0.0,i
4095.0,944.0,2965.0,3632.0,2747.0,1392.0,2877.0,4095.0,-2.26,9.45,5.87,-0.08,-0.06,-0.03,0.0,i
4095.0,931.0,2960.0,3619.0,2737.0,1392.0,2873.0,4095.0,-1.55,9.45,6.35,-0.02,0.04,-0.05,0.0,i
4095.0,937.0,2963.0,3644.0,2751.0,1392.0,2871.0,4095.0,-1.52,9.64,5.7,0.04,-0.13,-0.15,0.0,i
4095.0,929.0,2953.0,3631.0,2741.0,1392.0,2874.0,4095.0,-1.33,9.59,5.67,-0.02,-0.11,-0.19,0.0,i
4095.0,943.0,2957.0,3629.0,2751.0,1390.0,2875.0,4095.0,-2.04,9.57,6.2,-0.08,-0.19,-0.4,0.0,i
4095.0,941.0,2960.0,3642.0,2749.0,1375.0,2875.0,4095.0,-2.6,9.22,6.72,-0.0,-0.12,-0.21,0.0,i
4095.0,950.0,2958.0,3626.0,2740.0,1391.0,2874.0,4095.0,-2.25,9.46,6.01,-0.02,-0.02,-0.04,0.0,i
4095.0,944.0,2961.0,3648.0,2752.0,1392.0,2874.0,4095.0,-1.81,9.41,6.5,-0.06,0.01,-0.03,0.0,i
4095.0,944.0,2960.0,3627.0,2743.0,1389.0,2877.0,4095.0,-1.79,9.47,6.44,0.11,-0.08,-0.05,0.0,i
4095.0,938.0,2966.0,3635.0,2747.0,1394.0,2880.0,4095.0,-1.58,9.46,6.5,0.05,-0.03,-0.13,0.0,i
4095.0,941.0,2961.0,3628.0,2741.0,1391.0,2869.0,4095.0,-1.46,9.79,5.68,0.13,-0.04,-0.13,0.0,i
4095.0,943.0,2959.0,3632.0,2745.0,1372.0,2885.0,4095.0,-1.4,9.48,6.36,-0.01,-0.11,-0.25,0.0,i
4095.0,948.0,2959.0,3631.0,2743.0,1382.0,2875.0,4095.0,-2.16,9.46,6.18,0.1,-0.08,-0.24,0.0,i
4095.0,947.0,2975.0,3638.0,2746.0,1392.0,2881.0,4095.0,-1.95,9.59,5.85,-0.14,0.03,-0.21,0.0,i
4095.0,945.0,2960.0,3630.0,2739.0,1381.0,2873.0,4095.0,-1.93,9.48,6.42,0.01,-0.02,-0.06,0.0,i
4095.0,940.0,2955.0,3638.0,2745.0,1387.0,2871.0,4095.0,-1.49,9.56,6.05,0.0,0.09,-0.08,0.0,i
4095.0,951.0,2960.0,3634.0,2747.0,1390.0,2876.0,4095.0,-1.41,9.52,6.29,-0.09,0.07,-0.22,0.0,i
4095.0,944.0,2961.0,3621.0,2742.0,1390.0,2879.0,4095.0,-1.7,9.43,6.36,-0.07,-0.09,-0.25,0.0,i
4095.0,949.0,2966.0,3627.0,2749.0,1392.0,2871.0,4095.0,-1.74,9.42,6.59,-0.06,-0.12,-0.33,0.0,i
4095.0,949.0,2960.0,3625.0,2743.0,1331.0,2870.0,4095.0,-2.03,9.34,6.79,0.03,0.06,-0.15,0.0,i
4095.0,4095.0,2960.0,3520.0,2798.0,1421.0,2953.0,4095.0,-1.14,9.25,6.97,0.22,0.66,-0.32,0.0,i
4095.0,4095.0,2957.0,3425.0,2793.0,1408.0,2926.0,4095.0,-1.64,9.46,6.37,0.42,-0.27,-0.61,0.0,i
4095.0,4095.0,2971.0,3447.0,2797.0,1410.0,2924.0,4095.0,-2.13,9.45,6.2,0.08,-0.23,-0.27,0.0,i
4095.0,4095.0,2969.0,3454.0,2800.0,1409.0,2915.0,4095.0,-2.34,9.32,6.36,0.05,-0.03,-0.25,0.0,i
4095.0,4095.0,2961.0,3483.0,2806.0,1415.0,2934.0,4095.0,-2.37,9.35,6.35,-0.02,-0.11,-0.16,0.0,i
4095.0,4095.0,2965.0,3500.0,2801.0,1386.0,2938.0,4095.0,-2.22,9.36,6.42,-0.05,0.06,0.11,0.0,i
4095.0,4095.0,2958.0,3525.0,2806.0,1407.0,2953.0,4095.0,-1.72,9.42,6.35,-0.04,-0.04,-0.03,0.0,i
4095.0,4095.0,2965.0,3542.0,2814.0,1403.0,2962.0,4095.0,-1.65,9.52,6.53,-0.01,0.08,0.01,0.0,i
4095.0,4095.0,2955.0,3549.0,2805.0,1413.0,2960.0,4095.0,-1.69,9.55,6.21,0.02,0.06,-0.01,0.0,i
4095.0,4095.0,2963.0,3568.0,2807.0,1417.0,2975.0,4095.0,-1.6,9.4,6.69,-0.06,0.02,-0.12,0.0,i
4095.0,4095.0,2963.0,3573.0,2807.0,1409.0,2971.0,4095.0,-1.39,9.49,6.47,0.05,-0.07,-0.13,0.0,i
4095.0,4095.0,2972.0,3601.0,2816.0,1412.0,2976.0,4095.0,-1.51,9.37,6.85,0.0,-0.06,-0.18,0.0,i
4095.0,4095.0,2960.0,3573.0,2806.0,1405.0,2974.0,4095.0,-1.24,9.52,6.41,0.02,-0.1,-0.14,0.0,i
4095.0,4095.0,2961.0,3583.0,2816.0,1417.0,2989.0,4095.0,-1.62,9.48,6.56,-0.02,-0.06,-0.16,0.0,i
4095.0,4095.0,2971.0,3597.0,2816.0,1415.0,2976.0,4095.0,-1.29,9.17,7.16,0.06,-0.19,-0.17,0.0,i
4095.0,4095.0,2961.0,3601.0,2816.0,1419.0,2992.0,4095.0,-1.22,9.26,7.13,0.04,0.0,-0.21,0.0,i
4095.0,4081.0,2950.0,3583.0,2817.0,1417.0,2983.0,4095.0,-1.86,9.38,6.83,0.06,0.03,-0.24,0.0,i
4095.0,4095.0,2961.0,3600.0,2817.0,1417.0,2992.0,4095.0,-1.72,9.46,6.5,0.0,-0.01,-0.15,0.0,i
4095.0,4095.0,2963.0,3614.0,2825.0,1418.0,2991.0,4095.0,-1.58,9.36,6.88,-0.05,-0.04,-0.11,0.0,i
4095.0,4080.0,2964.0,3600.0,2817.0,1411.0,2992.0,4095.0,-1.38,9.37,6.84,0.0,-0.04,-0.13,0.0,i
4095.0,4039.0,2965.0,3600.0,2817.0,1418.0,2999.0,4095.0,-1.27,9.44,6.85,0.01,-0.14,-0.18,0.0,i
4095.0,4041.0,2960.0,3602.0,2813.0,1418.0,3005.0,4095.0,-1.45,9.42,6.91,0.01,-0.01,-0.15,0.0,i
4095.0,4077.0,2966.0,3602.0,2826.0,1424.0,3008.0,4095.0,-1.45,9.4,6.86,0.02,0.11,-0.01,0.0,i
4095.0,4053.0,2960.0,3393.0,2826.0,1422.0,3006.0,4095.0,-0.85,9.52,6.62,0.14,0.18,-0.01,0.0,i
4095.0,4083.0,2966.0,3440.0,2831.0,1424.0,3008.0,4095.0,-1.02,9.52,6.63,0.01,-0.09,-0.14,0.0,i
4095.0,4083.0,2964.0,3443.0,2826.0,1419.0,2997.0,4095.0,-0.54,9.44,6.7,0.01,-0.42,-0.2,0.0,i
4095.0,4095.0,2960.0,3471.0,2830.0,1424.0,3006.0,4095.0,-1.13,9.5,6.63,-0.03,-0.21,-0.15,0.0,i
4095.0,4066.0,2961.0,3481.0,2824.0,1424.0,3006.0,4095.0,-1.05,9.52,6.67,-0.01,-0.15,-0.12,0.0,i
4095.0,4095.0,2957.0,3484.0,2820.0,1422.0,3008.0,4095.0,-0.62,9.33,7.14,-0.04,-0.57,-0.18,0.0,i
4095.0,4086.0,2960.0,3503.0,2822.0,1411.0,2997.0,4095.0,-0.8,9.57,6.59,0.06,0.1,-0.14,0.0,i
4095.0,4090.0,2959.0,3503.0,2823.0,1420.0,3008.0,4095.0,-0.79,9.54,6.71,-0.01,-0.28,-0.18,0.0,i
4095.0,4079.0,2959.0,3501.0,2818.0,1421.0,2994.0,4095.0,-0.49,9.44,6.9,0.03,-0.21,-0.2,0.0,i
4095.0,4095.0,2971.0,3507.0,2822.0,1423.0,2996.0,4095.0,-0.75,9.54,6.74,0.05,-0.18,-0.2,0.0,i
4095.0,4095.0,2960.0,3509.0,2823.0,1406.0,2999.0,4095.0,-0.35,9.51,6.86,-0.02,-0.09,-0.17,0.0,i
4095.0,4063.0,2957.0,3501.0,2817.0,1417.0,2994.0,4095.0,-1.07,9.49,6.91,0.07,-0.08,-0.22,0.0,i
4095.0,4089.0,2969.0,3501.0,2817.0,1422.0,3006.0,4095.0,-0.75,9.53,6.73,0.06,0.0,-0.12,0.0,i
4095.0,4080.0,2951.0,3489.0,2811.0,1421.0,2999.0,4095.0,-0.59,9.54,6.62,0.02,-0.08,-0.15,0.0,i
4095.0,4079.0,2951.0,3504.0,2823.0,1424.0,3004.0,4095.0,-0.77,9.47,6.84,0.06,-0.07,-0.18,0.0,i
4095.0,4078.0,2950.0,3504.0,2827.0,1422.0,2998.0,4095.0,-0.68,9.73,6.43,-0.01,0.03,-0.03,0.0,i
4095.0,4078.0,2955.0,3511.0,2823.0,1422.0,3007.0,4095.0,-0.61,9.4,7.19,0.07,-0.08,-0.14,0.0,i
4095.0,4048.0,2964.0,3520.0,2821.0,1421.0,2994.0,4095.0,-0.48,9.69,6.16,0.01,-0.01,-0.17,0.0,i
4095.0,4052.0,2967.0,3529.0,2816.0,1424.0,3002.0,4095.0,-0.29,9.73,5.86,-0.15,-0.1,-0.2,0.0,i
4095.0,4035.0,2961.0,3524.0,2814.0,1419.0,3003.0,4095.0,-0.92,9.46,7.24,-0.15,0.05,-0.17,0.0,i
4095.0,4079.0,2972.0,3529.0,2815.0,1423.0,3002.0,4095.0,-0.33,9.54,6.86,0.06,-0.01,-0.15,0.0,i
4095.0,4053.0,2949.0,3519.0,2803.0,1418.0,3002.0,4095.0,-0.44,9.5,7.03,0.01,-0.06,-0.27,0.0,i
4095.0,4069.0,2967.0,3529.0,2810.0,1419.0,3008.0,4095.0,-0.71,9.65,6.25,0.13,-0.16,-0.19,0.0,i
4095.0,4037.0,2951.0,3522.0,2811.0,1418.0,3005.0,4095.0,-0.81,9.64,6.35,-0.05,0.03,-0.18,0.0,i
4095.0,4037.0,2962.0,3534.0,2814.0,1420.0,2996.0,4095.0,-0.88,9.52,6.85,-0.07,0.01,-0.12,0.0,i
4095.0,4058.0,2960.0,3518.0,2815.0,1424.0,3001.0,4095.0,-0.45,9.5,6.77,-0.01,0.01,-0.14,0.0,i
4095.0,4044.0,2960.0,3521.0,2814.0,1409.0,3001.0,4095.0,-0.7,9.48,6.79,0.03,-0.07,-0.21,0.0,i
4095.0,4044.0,2969.0,3533.0,2813.0,1422.0,3006.0,4095.0,-0.91,9.5,6.91,0.04,-0.0,-0.16,0.0,i
4095.0,4053.0,2959.0,3523.0,2813.0,1420.0,2998.0,4095.0,-0.59,9.53,6.66,0.01,-0.01,-0.14,0.0,i
4095.0,4050.0,2971.0,3536.0,2814.0,1417.0,3002.0,4095.0,-0.46,9.53,6.7,0.02,-0.0,-0.18,0.0,i
4095.0,4053.0,2959.0,3517.0,2807.0,1411.0,2998.0,4095.0,-0.73,9.52,6.65,-0.03,-0.03,-0.27,0.0,i
4095.0,4057.0,2970.0,3537.0,2819.0,1422.0,3004.0,4095.0,-1.14,9.44,7.07,-0.05,-0.04,-0.23,0.0,i
4095.0,4055.0,2944.0,3522.0,2811.0,1363.0,3006.0,4095.0,-1.14,9.39,7.07,0.09,-0.02,-0.13,0.0,i
4095.0,4048.0,2966.0,3534.0,2813.0,1411.0,3013.0,4095.0,-0.8,9.52,6.62,0.05,0.04,-0.11,0.0,i
4095.0,4043.0,2960.0,3518.0,2814.0,1415.0,3007.0,4095.0,-0.8,9.48,6.87,0.0,0.04,-0.13,0.0,i
4095.0,4047.0,2960.0,3531.0,2817.0,1419.0,3009.0,4095.0,-0.88,9.48,6.84,0.04,-0.01,-0.14,0.0,i
4095.0,4045.0,2961.0,3531.0,2811.0,1420.0,3016.0,4095.0,-0.81,9.51,6.75,0.02,0.0,-0.13,0.0,i
4095.0,4043.0,2959.0,3575.0,2816.0,1372.0,3024.0,4095.0,-0.42,9.62,6.47,-0.01,-0.15,-0.22,0.0,i
4095.0,4034.0,2960.0,3562.0,2811.0,1413.0,3018.0,4095.0,-0.06,9.6,6.43,0.01,-0.19,-0.24,0.0,i
4095.0,4047.0,2961.0,3571.0,2807.0,1413.0,3024.0,4095.0,-0.44,9.61,6.39,-0.02,-0.08,-0.24,0.0,i
4095.0,4030.0,2954.0,3569.0,2815.0,1412.0,3020.0,4095.0,-0.62,9.65,6.48,-0.01,-0.02,-0.15,0.0,i
4095.0,4019.0,2960.0,3575.0,2817.0,1423.0,3024.0,4095.0,-0.42,9.55,6.77,-0.03,-0.0,-0.16,0.0,i
4095.0,4023.0,2957.0,3570.0,2809.0,1411.0,3020.0,4095.0,-0.39,9.56,6.59,0.04,-0.11,-0.19,0.0,i
4095.0,4049.0,2965.0,3583.0,2814.0,1407.0,3024.0,4095.0,-0.4,9.59,6.46,0.01,-0.06,-0.18,0.0,i
4095.0,4022.0,2960.0,3567.0,2809.0,1408.0,3018.0,4095.0,-0.37,9.61,6.63,0.02,-0.07,-0.18,0.0,i
4095.0,4047.0,2971.0,3583.0,2814.0,1417.0,3021.0,4095.0,-0.56,9.55,6.7,0.0,-0.17,-0.2,0.0,i
4095.0,4009.0,2954.0,3575.0,2818.0,1419.0,3024.0,4095.0,-0.6,9.59,6.62,0.02,0.06,-0.13,0.0,i
4095.0,4032.0,2955.0,3570.0,2810.0,1392.0,3022.0,4095.0,-0.45,9.56,6.7,0.03,0.03,-0.13,0.0,i
4095.0,4023.0,2960.0,3600.0,2816.0,1408.0,3024.0,4095.0,-0.45,9.6,6.53,0.04,0.02,-0.12,0.0,i
4095.0,4030.0,2959.0,3577.0,2813.0,1417.0,3019.0,4095.0,-0.42,9.63,6.51,0.01,-0.01,-0.15,0.0,i
4095.0,4039.0,2966.0,3581.0,2813.0,1415.0,3027.0,4095.0,-0.47,9.59,6.55,0.03,-0.0,-0.16,0.0,i
4095.0,4050.0,2957.0,3581.0,2814.0,1403.0,3018.0,4095.0,-0.39,9.59,6.59,0.0,-0.05,-0.16,0.0,i
4095.0,4041.0,2975.0,3597.0,2818.0,1420.0,3024.0,4095.0,-0.49,9.57,6.69,0.03,-0.05,-0.17,0.0,i
4095.0,4034.0,2962.0,3578.0,2815.0,1409.0,3022.0,4095.0,-0.43,9.59,6.51,0.03,0.03,-0.17,0.0,i
4095.0,4041.0,2958.0,3583.0,2818.0,1392.0,3024.0,4095.0,-0.39,9.59,6.51,-0.01,-0.04,-0.18,0.0,i
4095.0,4016.0,2958.0,3583.0,2815.0,1418.0,3024.0,4095.0,-0.54,9.56,6.66,0.01,-0.07,-0.17,0.0,i
4095.0,4048.0,2965.0,3583.0,2816.0,1421.0,3026.0,4095.0,-0.59,9.57,6.64,0.02,0.03,-0.14,0.0,i
4095.0,3930.0,2970.0,3605.0,2831.0,1422.0,3051.0,4095.0,-0.71,9.85,5.86,-0.35,-0.03,-0.25,0.0,i
4095.0,3920.0,2961.0,3604.0,2833.0,1412.0,3037.0,4095.0,-1.63,9.33,7.44,0.16,-0.04,-0.16,0.0,i
4095.0,3920.0,2963.0,3622.0,2838.0,1422.0,3047.0,4095.0,-0.74,9.69,5.91,-0.06,0.14,-0.07,0.0,i
4095.0,3920.0,2961.0,3607.0,2831.0,1424.0,3045.0,4095.0,-1.15,9.58,6.41,-0.17,0.08,-0.07,0.0,i
4095.0,3937.0,2969.0,3626.0,2832.0,1424.0,3044.0,4095.0,-0.85,9.51,6.93,-0.35,-0.04,0.04,0.0,i
4095.0,3919.0,2959.0,3600.0,2828.0,1417.0,3040.0,4095.0,0.15,9.28,7.79,-0.23,0.13,0.03,0.0,i
4095.0,3931.0,2965.0,3616.0,2833.0,1423.0,3050.0,4095.0,-0.33,9.24,8.11,0.08,0.04,-0.12,0.0,i
4095.0,3920.0,2957.0,3612.0,2832.0,1423.0,3038.0,4095.0,-0.51,9.5,6.93,0.12,-0.01,-0.19,0.0,i
4095.0,3915.0,2961.0,3623.0,2835.0,1424.0,3046.0,4095.0,-0.48,9.42,7.16,0.01,-0.02,-0.16,0.0,i
4095.0,3905.0,2959.0,3604.0,2829.0,1417.0,3042.0,4095.0,0.02,9.28,7.57,0.18,-0.05,-0.21,0.0,i
4095.0,3922.0,2960.0,3617.0,2832.0,1423.0,3054.0,4095.0,-1.02,9.59,6.56,0.19,-0.2,-0.35,0.0,i
4095.0,3929.0,2973.0,3619.0,2827.0,1424.0,3051.0,4095.0,-0.86,9.61,6.35,-0.01,-0.26,-0.21,0.0,i
4095.0,3915.0,2957.0,3613.0,2828.0,1420.0,3043.0,4095.0,-0.48,9.35,7.43,-0.06,-0.05,-0.16,0.0,i
4095.0,3934.0,2964.0,3613.0,2832.0,1424.0,3050.0,4095.0,-0.73,9.19,7.96,0.19,-0.19,-0.23,0.0,i
4095.0,3919.0,2958.0,3630.0,2829.0,1423.0,3045.0,4095.0,-1.29,9.61,6.46,0.29,-0.02,-0.08,0.0,i
4095.0,3940.0,2960.0,3633.0,2832.0,1394.0,3043.0,4095.0,-0.03,9.61,6.41,0.18,-0.03,0.0,0.0,i
4095.0,3907.0,2960.0,3629.0,2827.0,1417.0,3043.0,4095.0,-0.14,9.67,6.24,0.11,-0.14,-0.2,0.0,i
4095.0,3947.0,2960.0,3633.0,2835.0,1422.0,3054.0,4095.0,-0.45,9.8,5.79,0.03,-0.11,-0.22,0.0,i
4095.0,3920.0,2960.0,3631.0,2834.0,1423.0,3043.0,4095.0,-0.49,9.67,6.33,-0.03,0.02,-0.13,0.0,i
4095.0,3919.0,2962.0,3632.0,2839.0,1424.0,3056.0,4095.0,-0.16,9.59,6.53,-0.03,0.05,-0.15,0.0,i
4095.0,3920.0,2962.0,3643.0,2838.0,1429.0,3057.0,4095.0,-1.46,9.37,7.17,0.07,0.05,-0.2,0.0,i
4095.0,3925.0,2957.0,3626.0,2833.0,1424.0,3057.0,4095.0,-1.39,9.36,7.02,-0.02,0.04,-0.18,0.0,i
4095.0,3936.0,2962.0,3643.0,2837.0,1370.0,3056.0,4095.0,-1.7,9.3,7.46,0.06,0.11,-0.07,0.0,i
4095.0,3927.0,2959.0,3626.0,2833.0,1405.0,3053.0,4095.0,-1.11,9.45,6.74,0.1,0.02,-0.05,0.0,i
4095.0,3920.0,2960.0,3632.0,2842.0,1422.0,3061.0,4095.0,-1.13,9.45,6.74,0.04,0.03,-0.03,0.0,i
4095.0,3931.0,2953.0,3623.0,2832.0,1423.0,3051.0,4095.0,-0.78,9.33,7.09,0.03,0.19,-0.04,0.0,i
4095.0,3927.0,2963.0,3604.0,2839.0,1434.0,2985.0,4095.0,-1.68,9.0,7.75,0.67,0.51,-0.46,0.0,i
4095.0,3925.0,2960.0,3583.0,2848.0,1430.0,2977.0,4095.0,-1.12,9.95,5.37,-0.14,-0.07,-0.06,0.0,i
4095.0,3921.0,2958.0,3556.0,2834.0,1406.0,2983.0,4095.0,-1.28,9.61,5.8,-0.45,-0.18,0.13,0.0,i
4095.0,3919.0,2962.0,3595.0,2829.0,1424.0,2994.0,4095.0,-0.86,9.27,6.7,-0.71,-0.65,-0.13,0.0,i
4095.0,3964.0,2960.0,3579.0,2822.0,1413.0,2999.0,4095.0,-0.84,9.13,8.0,0.13,0.05,-0.1,0.0,i
4095.0,3971.0,2962.0,3600.0,2832.0,1371.0,3018.0,4095.0,-0.6,9.33,6.99,0.42,0.04,-0.5,0.0,i
4095.0,3957.0,2959.0,3664.0,2831.0,1421.0,3015.0,4095.0,-1.47,9.46,6.73,0.39,-0.14,-0.71,0.0,i
4095.0,4011.0,2959.0,3677.0,2849.0,1424.0,3024.0,4095.0,-1.99,9.43,6.48,0.16,-0.13,-0.48,0.0,i
4095.0,3985.0,2961.0,3634.0,2845.0,1424.0,3023.0,4095.0,-2.28,9.36,6.42,0.09,0.05,-0.26,0.0,i
4095.0,3990.0,2969.0,3659.0,2862.0,1433.0,3038.0,4095.0,-2.04,9.27,6.59,0.04,0.01,-0.19,0.0,i
4095.0,4013.0,2960.0,3642.0,2849.0,1427.0,3049.0,4095.0,-2.2,9.38,6.5,0.05,-0.01,-0.17,0.0,i
4095.0,3999.0,2963.0,3661.0,2855.0,1429.0,3053.0,4095.0,-2.09,9.49,6.15,0.01,0.01,-0.09,0.0,i
4095.0,3999.0,2961.0,3654.0,2851.0,1438.0,3056.0,4095.0,-2.08,9.08,6.5,-0.17,0.16,0.21,0.0,i
4095.0,3984.0,2966.0,3691.0,2855.0,1435.0,3044.0,4095.0,-1.47,9.38,6.51,-0.14,-0.03,0.01,0.0,i
4095.0,3952.0,2963.0,3726.0,2862.0,1427.0,3066.0,4095.0,-1.34,9.41,6.85,0.02,-0.0,-0.14,0.0,i
4095.0,3951.0,2957.0,3701.0,2855.0,1434.0,3067.0,4095.0,-1.47,9.4,6.75,-0.01,0.12,-0.11,0.0,i
4095.0,3968.0,2963.0,3715.0,2864.0,1427.0,3079.0,4095.0,-1.41,9.38,6.82,-0.0,0.19,-0.14,0.0,i
4095.0,3957.0,2964.0,3711.0,2858.0,1418.0,3071.0,4095.0,-1.17,9.4,6.9,0.01,0.01,-0.15,0.0,i
4095.0,3956.0,2950.0,3729.0,2864.0,1427.0,3071.0,4095.0,-1.43,9.38,6.87,0.02,-0.19,-0.2,0.0,i
4095.0,3941.0,2960.0,3717.0,2863.0,1429.0,3071.0,4095.0,-1.5,9.39,6.88,-0.01,-0.06,-0.15,0.0,i
4095.0,3974.0,2963.0,3610.0,2864.0,1435.0,3081.0,4095.0,-1.39,9.38,6.88,-0.0,-0.04,-0.14,0.0,i
4095.0,3944.0,2963.0,3621.0,2857.0,1431.0,3066.0,4095.0,-1.39,9.38,6.9,-0.02,-0.01,-0.11,0.0,i
4095.0,3969.0,2963.0,3609.0,2864.0,1441.0,3082.0,4095.0,-1.35,9.39,6.95,0.01,0.02,-0.13,0.0,i
4095.0,3952.0,2959.0,3606.0,2863.0,1428.0,3070.0,4095.0,-1.27,9.39,6.86,0.01,0.01,-0.15,0.0,i
4095.0,3961.0,2961.0,3611.0,2864.0,1437.0,3071.0,4095.0,-1.31,9.37,6.97,0.01,-0.01,-0.16,0.0,i
4095.0,3983.0,2965.0,3616.0,2866.0,1436.0,3087.0,4095.0,-1.25,9.37,7.0,0.0,0.0,-0.16,0.0,i
4095.0,3943.0,2956.0,3615.0,2864.0,1431.0,3071.0,4095.0,-1.22,9.43,6.8,0.06,-0.08,-0.17,0.0,i
4095.0,3952.0,2961.0,3632.0,2866.0,1426.0,3071.0,4095.0,-1.36,9.38,6.93,-0.01,-0.01,-0.16,0.0,i
4095.0,3952.0,2962.0,3621.0,2857.0,1431.0,3071.0,4095.0,-1.3,9.38,6.89,0.03,-0.05,-0.17,0.0,i
4095.0,3957.0,2955.0,3623.0,2862.0,1429.0,3087.0,4095.0,-1.33,9.36,7.06,-0.0,-0.03,-0.16,0.0,i
4095.0,3942.0,2955.0,3626.0,2856.0,1427.0,3067.0,4095.0,-1.35,9.42,6.85,0.03,-0.04,-0.14,0.0,i
4095.0,3952.0,2959.0,3638.0,2865.0,1440.0,3085.0,4095.0,-1.36,9.41,6.96,0.01,0.01,-0.14,0.0,i
4095.0,3959.0,2950.0,3629.0,2854.0,1430.0,3071.0,4095.0,-1.03,9.39,6.88,0.02,-0.06,-0.14,0.0,i
4095.0,3963.0,2949.0,3644.0,2864.0,1392.0,3086.0,4095.0,-1.19,9.41,6.96,0.02,-0.06,-0.18,0.0,i
4095.0,3946.0,2961.0,3668.0,2864.0,1435.0,3058.0,4095.0,-1.1,9.52,6.48,0.0,-0.04,-0.15,0.0,i
4095.0,3938.0,2951.0,3645.0,2864.0,1430.0,3058.0,4095.0,-1.23,9.52,6.46,0.02,0.16,-0.11,0.0,i
4095.0,3943.0,2959.0,3653.0,2868.0,1437.0,3071.0,4095.0,-1.28,9.56,6.37,0.03,0.23,-0.02,0.0,i
4095.0,3959.0,2952.0,3664.0,2863.0,1408.0,3056.0,4095.0,-0.75,9.58,6.26,0.0,0.02,-0.09,0.0,i
4095.0,3967.0,2960.0,3669.0,2863.0,1431.0,3071.0,4095.0,-0.88,9.62,6.23,0.01,-0.05,-0.18,0.0,i
4095.0,3949.0,2960.0,3668.0,2861.0,1435.0,3069.0,4095.0,-1.06,9.57,6.36,0.01,-0.08,-0.17,0.0,i
4095.0,3941.0,2955.0,3665.0,2864.0,1430.0,3066.0,4095.0,-0.98,9.61,6.32,-0.0,-0.07,-0.16,0.0,i
4095.0,3948.0,2970.0,3679.0,2864.0,1438.0,3062.0,4095.0,-1.07,9.6,6.25,0.02,-0.01,-0.16,0.0,i
4095.0,3952.0,2960.0,3663.0,2864.0,1437.0,3070.0,4095.0,-0.85,9.66,6.08,-0.02,-0.03,-0.16,0.0,i
4095.0,3950.0,2970.0,3669.0,2866.0,1424.0,3071.0,4095.0,-0.68,9.53,6.53,-0.06,-0.12,-0.31,0.0,i
4095.0,3920.0,2960.0,3664.0,2863.0,1426.0,3063.0,4095.0,-1.19,9.57,6.02,-0.03,-0.12,-0.26,0.0,i
4095.0,3932.0,2960.0,3669.0,2866.0,1408.0,3071.0,4095.0,-1.45,9.4,6.89,-0.08,-0.07,-0.2,0.0,i
4095.0,3929.0,2955.0,3674.0,2862.0,1424.0,3066.0,4095.0,-1.11,9.56,6.28,-0.02,-0.09,-0.24,0.0,i
4095.0,3941.0,2971.0,3675.0,2869.0,1431.0,3070.0,4095.0,-0.98,9.55,6.17,-0.13,-0.25,-0.24,0.0,i
4095.0,3945.0,2960.0,3673.0,2860.0,1428.0,3063.0,4095.0,-2.26,9.28,7.07,-0.33,-0.09,-0.3,0.0,i
4095.0,3926.0,2962.0,3683.0,2867.0,1430.0,3071.0,4095.0,-2.05,9.24,7.39,-0.14,0.03,0.35,0.0,i
4095.0,3920.0,2957.0,3646.0,2847.0,1426.0,3061.0,4095.0,1.36,9.33,6.8,-0.5,0.26,0.09,0.0,i
4095.0,3915.0,2957.0,3671.0,2848.0,1415.0,3068.0,4095.0,-1.0,9.01,8.59,-0.25,-0.08,-0.32,0.0,i
4095.0,3917.0,2965.0,3706.0,2851.0,1419.0,3071.0,4095.0,-1.72,8.78,9.04,0.14,0.04,-0.08,0.0,i
4095.0,3909.0,2960.0,3685.0,2845.0,1424.0,3067.0,4095.0,-0.45,8.96,8.0,0.23,-0.21,-0.01,0.0,i
4095.0,3920.0,2951.0,3695.0,2854.0,1398.0,3071.0,4095.0,-0.82,9.11,8.23,0.12,-0.07,-0.16,0.0,i
4095.0,3911.0,2957.0,3677.0,2850.0,1431.0,3083.0,4095.0,-0.4,9.11,8.08,0.15,0.04,-0.18,0.0,i
4095.0,3920.0,2959.0,3696.0,2851.0,1424.0,3086.0,4095.0,-1.24,8.86,8.88,0.38,0.06,-0.24,0.0,i
4095.0,3912.0,2970.0,3698.0,2855.0,1427.0,3085.0,4095.0,-0.97,9.66,6.0,0.5,-0.07,-0.13,0.0,i
4095.0,3918.0,2960.0,3692.0,2853.0,1425.0,3069.0,4095.0,-0.49,9.58,6.12,0.08,0.11,-0.13,0.0,i
4095.0,3919.0,2960.0,3697.0,2858.0,1425.0,3088.0,4095.0,-1.38,9.66,6.36,0.04,-0.28,-0.29,0.0,i
4095.0,3919.0,2947.0,3691.0,2854.0,1427.0,3084.0,4095.0,-0.76,9.49,6.55,-0.09,0.01,-0.11,0.0,i
4095.0,3933.0,2971.0,3701.0,2854.0,1428.0,3088.0,4095.0,-0.89,9.35,7.39,-0.26,0.52,-0.12,0.0,i
4095.0,3910.0,2948.0,3693.0,2851.0,1435.0,3081.0,4095.0,-0.89,9.3,7.1,-0.15,-0.13,-0.28,0.0,i
4095.0,3910.0,2959.0,3712.0,2859.0,1434.0,3088.0,4095.0,-1.83,9.31,7.42,-0.14,0.19,-0.03,0.0,i
4095.0,3899.0,2959.0,3699.0,2851.0,1429.0,3088.0,4095.0,-0.64,9.22,7.62,-0.23,0.01,-0.1,0.0,i
4095.0,3918.0,2955.0,3696.0,2857.0,1429.0,3089.0,4095.0,-1.01,9.12,7.89,-0.08,-0.21,-0.21,0.0,i
4095.0,3907.0,2960.0,3707.0,2857.0,1424.0,3085.0,4095.0,-1.14,9.13,8.09,-0.01,-0.24,-0.19,0.0,i
4095.0,3915.0,2967.0,3713.0,2863.0,1429.0,3071.0,4095.0,-0.48,9.12,7.6,0.03,-0.07,-0.22,0.0,i
4095.0,3916.0,2960.0,3697.0,2847.0,1433.0,3085.0,4095.0,-1.04,9.2,7.73,-0.16,-0.13,-0.3,0.0,i
4095.0,3894.0,2955.0,3701.0,2857.0,1429.0,3085.0,4095.0,-1.6,8.87,8.76,-0.18,-0.16,-0.23,0.0,i
4095.0,3906.0,2959.0,3723.0,2859.0,1429.0,3095.0,4095.0,-1.22,8.91,8.57,0.16,-0.02,-0.1,0.0,i
4095.0,3899.0,2951.0,3696.0,2853.0,1419.0,3086.0,4095.0,-1.08,9.14,7.82,0.06,-0.06,-0.09,0.0,i
4095.0,3927.0,2966.0,3713.0,2858.0,1434.0,3085.0,4095.0,-1.36,8.91,7.86,0.13,0.04,0.02,0.0,i
4095.0,3887.0,2957.0,3698.0,2854.0,1394.0,3071.0,4095.0,-0.07,9.23,7.37,-0.05,-0.27,-0.03,0.0,i
4095.0,3885.0,2966.0,3703.0,2861.0,1435.0,3084.0,4095.0,-0.82,8.96,8.27,0.02,0.17,-0.13,0.0,i
4095.0,3890.0,2959.0,3685.0,2867.0,1439.0,3071.0,4095.0,-0.94,9.18,7.89,0.32,1.1,0.1,0.0,i
4095.0,3904.0,2950.0,3664.0,2859.0,1435.0,3071.0,4095.0,-0.8,9.11,8.03,-0.0,0.13,-0.13,0.0,i
4095.0,3919.0,2967.0,3698.0,2864.0,1438.0,3084.0,4095.0,-1.04,8.99,8.18,-0.01,-0.07,-0.16,0.0,i
4095.0,3889.0,2953.0,3690.0,2863.0,1437.0,3088.0,4095.0,-0.59,9.05,7.94,-0.09,-0.13,-0.18,0.0,i
4095.0,3895.0,2957.0,3710.0,2865.0,1434.0,3088.0,4095.0,-1.09,9.08,8.22,-0.08,-0.17,-0.19,0.0,i
4095.0,3877.0,2959.0,3699.0,2859.0,1423.0,3088.0,4095.0,-1.03,8.84,8.63,-0.08,-0.16,-0.18,0.0,i
4095.0,3887.0,2972.0,3700.0,2861.0,1435.0,3095.0,4095.0,-0.5,8.9,8.32,0.13,-0.26,-0.29,0.0,i
4095.0,3895.0,2966.0,3705.0,2855.0,1423.0,3085.0,4095.0,-1.3,8.98,8.17,0.07,-0.3,-0.27,0.0,i
4095.0,3900.0,2958.0,3710.0,2853.0,1431.0,3095.0,4095.0,-0.92,8.96,8.32,0.02,-0.08,-0.16,0.0,i
4095.0,3888.0,2970.0,3721.0,2858.0,1430.0,3088.0,4095.0,-0.98,8.97,8.27,0.06,-0.05,-0.13,0.0,i
4095.0,3875.0,2964.0,3700.0,2848.0,1430.0,3091.0,4095.0,-0.71,8.96,8.45,-0.0,0.0,-0.12,0.0,i
4095.0,3899.0,2961.0,3710.0,2855.0,1431.0,3088.0,4095.0,-0.7,8.92,8.4,0.06,-0.01,-0.12,0.0,i
4095.0,3874.0,2960.0,3667.0,2850.0,1415.0,3085.0,4095.0,-0.84,9.14,8.35,0.02,-0.09,-0.15,0.0,i
4095.0,3824.0,2962.0,3670.0,2862.0,1433.0,3090.0,4095.0,-0.69,8.96,8.43,0.03,0.02,-0.14,0.0,i
4095.0,3824.0,2962.0,3655.0,2846.0,1430.0,3085.0,4095.0,-1.03,9.02,8.22,0.12,0.0,-0.11,0.0,i
4095.0,3849.0,2959.0,3664.0,2854.0,1425.0,3095.0,4095.0,-0.64,9.13,7.84,0.05,-0.01,-0.05,0.0,i
4095.0,3804.0,2953.0,3657.0,2848.0,1430.0,3088.0,4095.0,-0.37,9.04,8.28,-0.05,-0.03,-0.11,0.0,i
4095.0,3819.0,2960.0,3670.0,2847.0,1387.0,3089.0,4095.0,-0.31,9.03,8.17,0.07,-0.04,-0.15,0.0,i
4095.0,3805.0,2960.0,3666.0,2853.0,1417.0,3088.0,4095.0,-0.41,9.07,8.05,0.03,0.08,-0.15,0.0,i
4095.0,4095.0,2957.0,3451.0,2763.0,1392.0,2810.0,4095.0,-3.4,8.56,6.26,0.09,0.11,0.02,0.0,i
4095.0,4095.0,2962.0,3458.0,2766.0,1402.0,2819.0,4095.0,-3.58,9.02,5.72,0.16,0.04,0.04,0.0,i
4095.0,4095.0,2944.0,3472.0,2765.0,1392.0,2816.0,4095.0,-3.12,9.18,5.6,0.14,0.06,0.02,0.0,i
4095.0,4095.0,2962.0,3490.0,2784.0,1349.0,2821.0,4095.0,-2.87,9.34,5.43,0.08,-0.04,-0.04,0.0,i
4095.0,4095.0,2954.0,3497.0,2778.0,1399.0,2834.0,4095.0,-2.99,9.24,5.46,0.12,-0.05,-0.07,0.0,i
4095.0,4095.0,2943.0,3494.0,2777.0,1405.0,2831.0,4095.0,-2.67,9.4,5.15,0.09,0.02,-0.04,0.0,i
4095.0,4095.0,2963.0,3501.0,2787.0,1408.0,2838.0,4095.0,-2.65,9.48,4.99,0.08,-0.04,-0.13,0.0,i
4095.0,4095.0,2956.0,3503.0,2786.0,1396.0,2832.0,4095.0,-2.71,9.47,4.79,-0.05,0.01,-0.02,0.0,i
4095.0,4095.0,2959.0,3520.0,2782.0,1406.0,2850.0,4095.0,-2.6,9.17,5.75,-0.17,0.09,-0.08,0.0,i
4095.0,4095.0,2955.0,3525.0,2782.0,1403.0,2842.0,4095.0,-2.43,9.43,5.75,-0.13,0.01,-0.11,0.0,i
4095.0,4095.0,2960.0,3543.0,2799.0,1413.0,2853.0,4095.0,-2.23,9.36,5.9,-0.14,-0.08,-0.01,0.0,i
4095.0,4095.0,2948.0,3557.0,2787.0,1408.0,2850.0,4095.0,-2.06,9.39,6.09,-0.2,-0.08,0.07,0.0,i
4095.0,4095.0,2960.0,3565.0,2800.0,1414.0,2853.0,4095.0,-2.09,9.53,6.01,-0.06,-0.03,-0.02,0.0,i
4095.0,4095.0,2960.0,3559.0,2799.0,1414.0,2853.0,4095.0,-1.96,9.53,5.98,-0.13,-0.02,-0.06,0.0,i
4095.0,4095.0,2962.0,3572.0,2801.0,1409.0,2853.0,4095.0,-1.75,9.39,6.65,-0.09,-0.0,-0.06,0.0,i
4095.0,4095.0,2957.0,3575.0,2794.0,1410.0,2853.0,4095.0,-1.59,9.43,6.46,-0.01,0.02,-0.06,0.0,i
4095.0,4095.0,2949.0,3583.0,2800.0,1417.0,2854.0,4095.0,-1.73,9.52,6.36,-0.03,-0.04,-0.08,0.0,i
4095.0,4095.0,2963.0,3565.0,2799.0,1412.0,2854.0,4095.0,-1.77,9.44,6.54,0.03,-0.07,-0.15,0.0,i
4095.0,4095.0,2945.0,3553.0,2802.0,1414.0,2854.0,4095.0,-1.45,9.47,6.53,-0.0,0.02,-0.15,0.0,i
4095.0,4095.0,2960.0,3570.0,2806.0,1418.0,2866.0,4095.0,-1.67,9.42,6.62,0.04,-0.01,-0.19,0.0,i
4095.0,4095.0,2965.0,3583.0,2815.0,1414.0,2870.0,4095.0,-1.63,9.46,6.44,0.03,-0.09,-0.17,0.0,i
4095.0,4095.0,2957.0,3579.0,2804.0,1414.0,2869.0,4095.0,-1.58,9.45,6.56,0.01,0.04,-0.11,0.0,i
4095.0,4095.0,2962.0,3581.0,2813.0,1406.0,2879.0,4095.0,-1.42,9.41,6.73,0.1,0.03,-0.16,0.0,i
4095.0,4095.0,2959.0,3582.0,2813.0,1420.0,2879.0,4095.0,-1.51,9.59,6.09,0.1,0.29,-0.2,0.0,i
4095.0,4095.0,2959.0,3583.0,2817.0,1414.0,2879.0,4095.0,-1.66,9.52,6.14,0.1,-0.15,-0.18,0.0,i
4095.0,4095.0,2950.0,3600.0,2818.0,1412.0,2885.0,4095.0,-1.61,9.54,6.04,0.07,-0.09,-0.11,0.0,i
4095.0,4095.0,2960.0,3583.0,2818.0,1414.0,2881.0,4095.0,-1.39,9.58,5.97,0.03,-0.0,-0.1,0.0,i
4095.0,4095.0,2971.0,3600.0,2822.0,1423.0,2896.0,4095.0,-1.43,9.57,6.18,-0.02,0.0,-0.14,0.0,i
4095.0,4095.0,2955.0,3599.0,2813.0,1413.0,2887.0,4095.0,-1.59,9.53,6.36,0.03,-0.05,-0.14,0.0,i
4095.0,4095.0,2977.0,3616.0,2826.0,1421.0,2896.0,4095.0,-1.29,9.68,5.8,0.05,-0.01,-0.11,0.0,i
4095.0,4095.0,2957.0,3583.0,2815.0,1408.0,2892.0,4095.0,-1.32,9.71,5.58,-0.15,0.03,-0.12,0.0,i
4095.0,4095.0,2958.0,3604.0,2815.0,1415.0,2902.0,4095.0,-1.32,9.41,6.96,-0.1,-0.01,-0.16,0.0,i
4095.0,4095.0,2960.0,3611.0,2823.0,1406.0,2896.0,4095.0,-1.24,9.5,6.03,0.14,0.02,-0.26,0.0,i
4095.0,4095.0,2957.0,3607.0,2818.0,1410.0,2903.0,4095.0,-1.98,9.57,5.92,-0.17,-0.02,-0.15,0.0,i
4095.0,4095.0,2958.0,3603.0,2816.0,1417.0,2905.0,4095.0,-1.3,9.39,7.14,-0.01,0.13,-0.03,0.0,i
4095.0,4095.0,2948.0,3616.0,2821.0,1419.0,2911.0,4095.0,-1.0,9.61,6.12,0.15,-0.06,-0.19,0.0,i
4095.0,4095.0,2960.0,3610.0,2827.0,1424.0,2918.0,4095.0,-1.53,9.62,5.75,-0.08,-0.1,-0.21,0.0,i
4095.0,4095.0,2955.0,3626.0,2823.0,1424.0,2918.0,4095.0,-1.38,9.6,7.19,-0.07,-0.07,-0.09,0.0,i
4095.0,4095.0,2970.0,3619.0,2817.0,1421.0,2925.0,4095.0,-1.12,9.53,6.23,0.15,0.0,-0.17,0.0,i
4095.0,4095.0,2959.0,3617.0,2822.0,1423.0,2927.0,4095.0,-1.75,9.54,6.05,-0.1,-0.02,-0.21,0.0,i
4095.0,4095.0,2961.0,3637.0,2832.0,1428.0,2943.0,4095.0,-1.09,9.49,6.5,0.19,-0.07,-0.19,0.0,i
4095.0,4095.0,2973.0,3634.0,2832.0,1427.0,2943.0,4095.0,-1.76,9.59,6.09,-0.06,0.03,-0.17,0.0,i
4095.0,4095.0,2958.0,3630.0,2825.0,1424.0,2934.0,4095.0,-1.39,9.36,7.11,0.05,0.17,-0.0,0.0,i
4095.0,4095.0,2963.0,3633.0,2833.0,1426.0,2941.0,4095.0,-0.83,9.81,5.88,0.01,0.19,-0.13,0.0,i
4095.0,4095.0,2960.0,3619.0,2815.0,1421.0,2927.0,4095.0,-1.26,9.38,6.44,-0.03,-0.1,-0.11,0.0,i
4095.0,4095.0,2961.0,3632.0,2830.0,1424.0,2933.0,4095.0,-1.19,9.61,6.21,-0.0,0.02,-0.11,0.0,i
4095.0,4095.0,2954.0,3632.0,2815.0,1421.0,2943.0,4095.0,-1.16,9.56,6.46,-0.06,-0.07,-0.1,0.0,i
4095.0,4095.0,2950.0,3639.0,2829.0,1424.0,2949.0,4095.0,-1.36,9.47,6.69,0.05,-0.04,-0.16,0.0,i
4095.0,4095.0,2960.0,3634.0,2816.0,1422.0,2947.0,4095.0,-1.05,9.41,6.97,0.03,0.06,-0.0,0.0,i
4095.0,4095.0,2962.0,3645.0,2826.0,1424.0,2960.0,4095.0,-1.1,9.58,6.4,-0.05,-0.01,-0.14,0.0,i
4095.0,4095.0,2947.0,3636.0,2820.0,1424.0,2953.0,4095.0,-1.03,9.56,6.55,-0.03,0.0,-0.11,0.0,i
4095.0,4095.0,2957.0,3642.0,2826.0,1426.0,2966.0,4095.0,-0.92,9.5,6.68,0.01,-0.05,-0.17,0.0,i
4095.0,4095.0,2960.0,3646.0,2832.0,1424.0,2962.0,4095.0,-1.14,9.5,6.69,0.03,-0.01,-0.19,0.0,i
4095.0,4095.0,2960.0,3647.0,2827.0,1424.0,2951.0,4095.0,-1.45,9.55,6.44,0.04,-0.02,-0.14,0.0,i
4095.0,4095.0,2973.0,3649.0,2832.0,1425.0,2969.0,4095.0,-0.89,9.55,6.5,-0.02,-0.04,-0.08,0.0,i
4095.0,4095.0,2955.0,3643.0,2816.0,1413.0,2964.0,4095.0,-0.75,9.52,6.68,-0.01,-0.1,-0.14,0.0,i
4095.0,4095.0,2966.0,3645.0,2830.0,1423.0,2975.0,4095.0,-1.02,9.52,6.64,0.03,0.0,-0.16,0.0,i
4095.0,4095.0,2953.0,3645.0,2831.0,1418.0,2966.0,4095.0,-1.06,9.56,6.56,0.03,-0.04,-0.14,0.0,i
4095.0,4095.0,2960.0,3651.0,2832.0,1424.0,2975.0,4095.0,-0.96,9.57,6.51,0.04,0.04,-0.07,0.0,i
4095.0,4095.0,2960.0,3636.0,2819.0,1419.0,2978.0,4095.0,-0.59,9.58,6.62,-0.03,0.03,-0.1,0.0,i
4095.0,4095.0,2954.0,3664.0,2837.0,1419.0,2987.0,4095.0,-0.71,9.59,6.28,-0.03,-0.01,-0.15,0.0,i
4095.0,4095.0,2966.0,3657.0,2833.0,1420.0,2995.0,4095.0,-0.77,9.56,6.6,-0.05,0.06,-0.13,0.0,i
4095.0,4095.0,2959.0,3660.0,2829.0,1421.0,2986.0,4095.0,-0.3,9.48,6.79,-0.08,0.03,-0.21,0.0,i
4095.0,4095.0,2955.0,3677.0,2838.0,1424.0,2992.0,4095.0,-1.16,9.44,6.99,0.05,-0.06,-0.26,0.0,i
4095.0,4095.0,2959.0,3659.0,2840.0,1424.0,2992.0,4095.0,-0.98,9.54,6.47,-0.04,0.07,-0.21,0.0,i
4095.0,4095.0,2957.0,3668.0,2842.0,1429.0,3006.0,4095.0,-1.52,9.39,7.18,-0.05,0.01,-0.15,0.0,i
4095.0,4095.0,2962.0,3667.0,2834.0,1424.0,2993.0,4095.0,-0.83,9.5,6.72,-0.01,-0.02,-0.08,0.0,i
4095.0,4095.0,2951.0,3653.0,2832.0,1424.0,2994.0,4095.0,-0.91,9.38,7.14,-0.0,-0.06,-0.15,0.0,i
4095.0,4095.0,2960.0,3666.0,2837.0,1424.0,3005.0,4095.0,-0.46,9.53,6.63,0.0,-0.13,-0.18,0.0,i
4095.0,4095.0,2960.0,3662.0,2837.0,1424.0,3001.0,4095.0,-0.87,9.42,6.96,0.01,-0.15,-0.24,0.0,i
4095.0,4095.0,2959.0,3678.0,2841.0,1426.0,2993.0,4095.0,-1.08,9.41,7.13,-0.03,0.06,-0.17,0.0,i
4095.0,4095.0,2957.0,3654.0,2835.0,1425.0,2995.0,4095.0,-0.86,9.38,7.12,0.01,-0.08,-0.2,0.0,i
4095.0,4095.0,2961.0,3674.0,2868.0,1416.0,3002.0,4095.0,-0.94,9.5,6.72,0.03,-0.02,-0.21,0.0,i
4095.0,4095.0,2955.0,3667.0,2838.0,1422.0,2992.0,4095.0,-1.31,9.37,7.15,-0.05,0.01,-0.19,0.0,i
4095.0,4095.0,2963.0,3665.0,2846.0,1424.0,3004.0,4095.0,-1.14,9.33,7.3,0.02,-0.05,-0.15,0.0,i
4095.0,4095.0,2959.0,3671.0,2839.0,1424.0,2993.0,4095.0,-1.18,9.46,6.86,0.09,0.01,-0.17,0.0,i
4095.0,4095.0,2958.0,3675.0,2848.0,1427.0,2997.0,4095.0,-0.96,9.53,6.47,-0.07,0.06,-0.09,0.0,i
4095.0,4095.0,2951.0,3648.0,2842.0,1423.0,2999.0,4095.0,-0.81,9.35,7.61,-0.08,0.12,-0.12,0.0,i
4095.0,4095.0,2963.0,3658.0,2845.0,1425.0,3001.0,4095.0,-0.36,9.33,6.93,0.04,-0.11,-0.38,0.0,i
4095.0,4095.0,2960.0,3653.0,2845.0,1428.0,3013.0,4095.0,-2.29,9.37,6.62,-0.16,-0.05,-0.31,0.0,i
4095.0,4084.0,2958.0,3600.0,2824.0,1423.0,3021.0,4095.0,-0.17,9.1,7.88,0.07,-0.06,-0.25,0.0,i
4095.0,4095.0,2963.0,3617.0,2828.0,1424.0,3025.0,4095.0,-0.33,9.26,7.78,0.25,-0.11,-0.32,0.0,i
4095.0,4059.0,2960.0,3602.0,2830.0,1424.0,3027.0,4095.0,-0.51,9.37,7.49,0.15,0.0,-0.1,0.0,i
4095.0,4058.0,2966.0,3625.0,2839.0,1426.0,3037.0,4095.0,-0.37,9.29,7.48,-0.1,0.01,-0.1,0.0,i
4095.0,4063.0,2959.0,3619.0,2827.0,1424.0,3029.0,4095.0,-0.8,9.15,8.07,0.08,0.04,-0.04,0.0,i
4095.0,4080.0,2960.0,3632.0,2835.0,1422.0,3026.0,4095.0,0.0,9.33,7.47,0.1,0.08,-0.05,0.0,i
4095.0,4061.0,2960.0,3609.0,2832.0,1415.0,3031.0,4095.0,0.19,9.47,6.87,0.16,0.25,-0.2,0.0,i
4095.0,4094.0,2960.0,3618.0,2842.0,1424.0,3039.0,4095.0,-0.48,9.41,6.92,0.05,0.43,-0.26,0.0,i
4095.0,4048.0,2960.0,3607.0,2837.0,1422.0,3041.0,4095.0,-0.94,9.51,7.04,0.1,0.72,-0.3,0.0,i
4095.0,4071.0,2969.0,3663.0,2847.0,1424.0,3047.0,4095.0,-1.31,9.33,7.34,0.03,0.36,-0.25,0.0,i
4095.0,4095.0,2958.0,3648.0,2846.0,1429.0,3033.0,4095.0,-1.36,9.37,6.95,0.05,0.23,-0.13,0.0,i
4095.0,4095.0,2960.0,3674.0,2861.0,1431.0,3018.0,4095.0,-1.14,9.49,6.67,-0.01,0.16,-0.16,0.0,i
4095.0,4095.0,2960.0,3689.0,2867.0,1438.0,3019.0,4095.0,-1.26,9.38,7.1,-0.05,0.09,-0.17,0.0,i
4095.0,4095.0,2953.0,3648.0,2863.0,1423.0,3001.0,4095.0,-1.15,9.39,7.02,-0.06,-0.03,-0.15,0.0,i
4095.0,4095.0,2960.0,3651.0,2865.0,1440.0,3019.0,4095.0,-1.31,9.35,7.15,-0.01,-0.03,-0.19,0.0,i
4095.0,4095.0,2963.0,3664.0,2869.0,1434.0,3015.0,4095.0,-1.46,9.34,7.21,0.04,-0.01,-0.18,0.0,i
4095.0,4095.0,2967.0,3659.0,2867.0,1441.0,3031.0,4095.0,-1.29,9.37,7.03,-0.04,-0.04,-0.14,0.0,i
4095.0,4095.0,2958.0,3648.0,2853.0,1436.0,3029.0,4095.0,-1.18,9.3,7.15,-0.08,0.01,-0.12,0.0,i
4095.0,4095.0,2967.0,3655.0,2861.0,1438.0,3043.0,4095.0,-1.25,9.23,7.48,-0.01,-0.07,-0.18,0.0,i
4095.0,4090.0,2950.0,3647.0,2849.0,1425.0,3043.0,4095.0,-1.49,9.29,7.18,0.06,-0.04,-0.13,0.0,i
4095.0,4043.0,2953.0,3641.0,2847.0,1431.0,3061.0,4095.0,-0.96,9.35,7.15,0.05,-0.08,-0.2,0.0,i
4095.0,4046.0,2960.0,3661.0,2860.0,1436.0,3069.0,4095.0,-1.24,9.19,7.38,0.19,0.05,-0.25,0.0,i
4095.0,4035.0,2959.0,3636.0,2860.0,1438.0,3054.0,4095.0,-1.12,9.41,6.9,0.15,0.08,-0.1,0.0,i
4095.0,4037.0,2965.0,3632.0,2866.0,1438.0,3068.0,4095.0,-1.13,9.56,6.5,0.11,-0.12,-0.16,0.0,i
4095.0,4050.0,2963.0,3627.0,2862.0,1439.0,3067.0,4095.0,-0.89,9.56,6.39,0.01,-0.04,-0.15,0.0,i
4095.0,4053.0,2966.0,3646.0,2865.0,1438.0,3079.0,4095.0,-1.13,9.45,6.77,-0.05,-0.24,-0.23,0.0,i
4095.0,4048.0,2953.0,3632.0,2862.0,1437.0,3065.0,4095.0,-1.2,9.48,6.89,0.02,-0.04,-0.12,0.0,i
4095.0,4048.0,2961.0,3643.0,2864.0,1436.0,3062.0,4095.0,-1.01,9.46,6.78,0.06,-0.0,-0.15,0.0,i
4095.0,4073.0,2967.0,3645.0,2867.0,1438.0,3069.0,4095.0,-1.2,9.4,7.07,0.09,-0.06,-0.13,0.0,i
4095.0,4038.0,2957.0,3651.0,2863.0,1436.0,3063.0,4095.0,-0.99,9.7,5.83,0.11,0.02,-0.13,0.0,i
4095.0,4063.0,2958.0,3641.0,2864.0,1438.0,3071.0,4095.0,-0.66,9.62,6.4,-0.36,-0.01,-0.18,0.0,i
4095.0,4032.0,2957.0,3632.0,2849.0,1435.0,3065.0,4095.0,-1.34,8.89,8.52,-0.12,-0.01,-0.19,0.0,i
4095.0,4042.0,2960.0,3647.0,2858.0,1438.0,3071.0,4095.0,-1.1,9.42,6.95,0.02,-0.07,-0.14,0.0,i
4095.0,4016.0,2967.0,3637.0,2849.0,1434.0,3070.0,4095.0,-0.94,9.34,7.27,0.08,-0.11,-0.23,0.0,i
4095.0,4039.0,2967.0,3652.0,2863.0,1437.0,3071.0,4095.0,-1.17,9.44,6.83,-0.03,-0.06,-0.15,0.0,i
4095.0,4003.0,2959.0,3637.0,2859.0,1424.0,3071.0,4095.0,-0.94,9.26,7.6,-0.05,-0.13,-0.19,0.0,i
4095.0,4012.0,2963.0,3644.0,2861.0,1403.0,3086.0,4095.0,-1.14,9.4,7.01,0.09,-0.02,-0.14,0.0,i
4095.0,3977.0,2960.0,3633.0,2854.0,1426.0,3082.0,4095.0,-1.02,9.32,7.31,-0.03,0.01,-0.12,0.0,i
4095.0,3984.0,2969.0,3646.0,2864.0,1424.0,3087.0,4095.0,-1.22,9.33,7.24,0.07,0.23,-0.07,0.0,i
4095.0,3983.0,2957.0,3639.0,2864.0,1435.0,3087.0,4095.0,-1.11,9.45,6.82,-0.01,0.55,0.18,0.0,i
4095.0,3966.0,2962.0,3647.0,2859.0,1437.0,3088.0,4095.0,-1.12,9.22,7.61,-0.05,0.12,-0.05,0.0,i
4095.0,3952.0,2954.0,3634.0,2857.0,1433.0,3082.0,4095.0,-0.89,9.21,7.78,0.02,0.07,-0.05,0.0,i
4095.0,3951.0,2960.0,3638.0,2861.0,1435.0,3086.0,4095.0,-0.82,9.29,7.35,0.1,0.02,-0.11,0.0,i
4095.0,3928.0,2958.0,3632.0,2862.0,1435.0,3086.0,4095.0,-0.64,9.43,6.96,0.02,-0.02,-0.13,0.0,i
4095.0,3953.0,2954.0,3646.0,2858.0,1437.0,3091.0,4095.0,-0.79,9.39,7.22,-0.04,-0.05,-0.18,0.0,i
4095.0,3941.0,2954.0,3635.0,2858.0,1435.0,3088.0,4095.0,-1.96,9.33,7.4,-0.08,0.11,-0.01,0.0,i
4095.0,3965.0,2963.0,3649.0,2864.0,1426.0,3098.0,4095.0,-0.61,9.25,7.49,-0.11,0.74,0.44,0.0,i
4095.0,3928.0,2960.0,3645.0,2860.0,1425.0,3088.0,4095.0,0.28,9.26,7.76,-0.05,0.29,0.14,0.0,i
4095.0,3967.0,2960.0,3658.0,2865.0,1430.0,3089.0,4095.0,0.11,9.32,7.42,-0.0,-0.14,-0.06,0.0,i
4095.0,3952.0,2959.0,3645.0,2858.0,1426.0,3087.0,4095.0,0.03,9.28,7.71,-0.06,0.04,-0.15,0.0,i
4095.0,3949.0,2962.0,3650.0,2863.0,1437.0,3091.0,4095.0,-0.14,9.28,7.96,0.03,-0.05,-0.15,0.0,i
4095.0,3859.0,2969.0,3649.0,2864.0,1439.0,3103.0,4095.0,-0.19,9.19,7.77,0.1,-0.23,-0.24,0.0,i
4095.0,3818.0,2955.0,3621.0,2864.0,1424.0,3110.0,4095.0,-0.03,9.31,7.66,0.16,-0.03,-0.12,0.0,i
4095.0,3825.0,2961.0,3617.0,2871.0,1429.0,3100.0,4095.0,0.21,9.36,7.17,0.25,-0.02,-0.27,0.0,i
4095.0,3937.0,2969.0,3632.0,2864.0,1439.0,3071.0,4095.0,-0.13,9.42,6.91,-0.02,-0.6,-0.19,0.0,i
4095.0,4095.0,2951.0,3661.0,2871.0,1445.0,3081.0,4095.0,-0.25,9.41,7.19,-0.05,0.07,-0.15,0.0,i
4095.0,4095.0,2957.0,3666.0,2869.0,1440.0,3080.0,4095.0,-0.07,9.32,7.5,-0.02,0.12,-0.16,0.0,i
4095.0,4095.0,2957.0,3667.0,2873.0,1444.0,3100.0,4095.0,-0.03,9.11,7.44,0.05,-0.01,-0.2,0.0,i
4095.0,4095.0,2960.0,3666.0,2864.0,1442.0,3095.0,4095.0,-0.2,9.35,7.35,0.01,0.04,-0.21,0.0,i
4095.0,4095.0,2956.0,3665.0,2871.0,1445.0,3105.0,4095.0,-0.08,9.36,7.29,-0.09,-0.02,-0.13,0.0,i
4095.0,4095.0,2955.0,3642.0,2864.0,1422.0,3089.0,4095.0,-0.21,9.36,7.39,0.09,-0.06,-0.14,0.0,i
4095.0,4095.0,2959.0,3649.0,2868.0,1436.0,3094.0,4095.0,-0.08,9.32,7.56,0.03,-0.14,-0.11,0.0,i
4095.0,4095.0,2951.0,3627.0,2863.0,1429.0,3091.0,4095.0,-0.09,9.43,7.23,0.11,-0.0,-0.16,0.0,i
4095.0,4095.0,2969.0,3647.0,2870.0,1429.0,3093.0,4095.0,-0.17,9.46,7.15,0.07,-0.14,-0.18,0.0,i
4095.0,4095.0,2954.0,3617.0,2861.0,1432.0,3071.0,4095.0,-0.24,9.48,7.1,-0.05,-0.43,-0.19,0.0,i
4095.0,4095.0,2970.0,3632.0,2861.0,1431.0,3091.0,4095.0,0.02,9.44,7.3,0.04,0.34,-0.11,0.0,i
4095.0,4095.0,2949.0,3620.0,2858.0,1434.0,3094.0,4095.0,0.1,9.37,7.43,-0.02,-0.17,-0.21,0.0,i
4095.0,4095.0,2960.0,3635.0,2855.0,1434.0,3088.0,4095.0,-0.18,9.42,7.29,0.0,-0.03,-0.18,0.0,i
4095.0,4095.0,2960.0,3635.0,2865.0,1433.0,3088.0,4095.0,-0.09,9.41,7.31,0.03,0.05,-0.14,0.0,i
4095.0,4095.0,2960.0,3618.0,2865.0,1424.0,3090.0,4095.0,0.02,9.39,7.34,0.03,-0.07,-0.17,0.0,i
4095.0,4095.0,2965.0,3625.0,2864.0,1378.0,3103.0,4095.0,-0.2,9.43,7.25,-0.0,-0.05,-0.17,0.0,i
4095.0,4095.0,2960.0,3621.0,2858.0,1402.0,3090.0,4095.0,-0.09,9.41,7.33,0.01,-0.02,-0.14,0.0,i
4095.0,4095.0,2961.0,3638.0,2870.0,1423.0,3097.0,4095.0,0.07,9.42,7.37,0.05,-0.01,-0.13,0.0,i
4095.0,4095.0,2955.0,3629.0,2855.0,1425.0,3090.0,4095.0,-0.04,9.38,7.32,0.01,0.02,-0.14,0.0,i
4095.0,4095.0,2966.0,3642.0,2867.0,1427.0,3093.0,4095.0,0.01,9.37,7.34,0.0,-0.04,-0.16,0.0,i
4095.0,4083.0,2959.0,3633.0,2862.0,1433.0,3094.0,4095.0,-0.01,9.41,7.32,0.01,-0.01,-0.15,0.0,i
4095.0,4095.0,2959.0,3644.0,2868.0,1434.0,3100.0,4095.0,0.12,9.39,7.3,0.01,0.01,-0.15,0.0,i
4095.0,4081.0,2949.0,3629.0,2863.0,1432.0,3103.0,4095.0,0.03,9.39,7.33,0.01,-0.07,-0.19,0.0,i
4095.0,4095.0,2965.0,3643.0,2864.0,1424.0,3102.0,4095.0,-0.26,9.34,7.61,0.03,-0.01,-0.14,0.0,i
4095.0,4095.0,2963.0,3648.0,2868.0,1438.0,3107.0,4095.0,0.11,9.26,7.69,0.09,-0.04,-0.1,0.0,i
4095.0,4047.0,2957.0,3643.0,2861.0,1426.0,3105.0,4095.0,-0.1,9.35,7.52,-0.01,-0.02,-0.19,0.0,i
4095.0,4065.0,2959.0,3644.0,2866.0,1438.0,3111.0,4095.0,-0.18,9.39,7.35,0.01,-0.08,-0.19,0.0,i
4095.0,4043.0,2958.0,3645.0,2864.0,1435.0,3111.0,4095.0,-0.11,9.37,7.4,-0.02,0.02,-0.15,0.0,i
4095.0,4042.0,2960.0,3648.0,2866.0,1409.0,3115.0,4095.0,-0.05,9.32,7.58,0.03,0.06,-0.13,0.0,i
4095.0,4048.0,2960.0,3648.0,2871.0,1432.0,3120.0,4095.0,-0.19,9.37,7.37,0.04,0.09,-0.13,0.0,i
4095.0,4033.0,2954.0,3632.0,2864.0,1428.0,3121.0,4095.0,-0.15,9.44,7.17,-0.0,0.03,-0.14,0.0,i
4095.0,4029.0,2965.0,3652.0,2873.0,1437.0,3129.0,4095.0,0.04,9.29,7.61,-0.0,-0.02,-0.17,0.0,i
4095.0,4012.0,2953.0,3633.0,2867.0,1423.0,3127.0,4095.0,-0.71,9.39,7.38,0.05,-0.17,-0.18,0.0,i
4095.0,4033.0,2967.0,3635.0,2866.0,1441.0,3133.0,4095.0,-0.24,9.37,7.45,0.03,0.16,0.07,0.0,i
4095.0,4005.0,2955.0,3630.0,2862.0,1436.0,3125.0,4095.0,0.64,9.41,7.2,0.09,0.04,-0.05,0.0,i
4095.0,4026.0,2970.0,3639.0,2869.0,1439.0,3133.0,4095.0,0.51,9.51,6.85,-0.05,-0.02,-0.2,0.0,i
4095.0,4011.0,2960.0,3642.0,2867.0,1439.0,3131.0,4095.0,0.06,9.23,7.71,-0.08,-0.06,-0.28,0.0,i
4095.0,4016.0,2960.0,3635.0,2875.0,1439.0,3134.0,4095.0,-0.18,9.37,7.45,0.03,-0.09,-0.28,0.0,i
4095.0,3999.0,2958.0,3635.0,2865.0,1424.0,3127.0,4095.0,-0.37,9.38,7.39,0.0,-0.07,-0.19,0.0,i
4095.0,4017.0,2966.0,3648.0,2877.0,1435.0,3133.0,4095.0,0.12,9.38,7.27,-0.01,0.01,-0.15,0.0,i
4095.0,4033.0,2959.0,3641.0,2866.0,1439.0,3137.0,4095.0,-0.15,9.23,7.87,-0.03,-0.03,-0.22,0.0,i
4095.0,3997.0,2949.0,3632.0,2865.0,1421.0,3130.0,4095.0,-0.39,9.4,7.38,0.05,-0.06,-0.2,0.0,i
4095.0,4023.0,2960.0,3646.0,2864.0,1438.0,3143.0,4095.0,-0.33,9.37,7.45,-0.01,0.05,-0.11,0.0,i
4095.0,4022.0,2960.0,3635.0,2864.0,1428.0,3127.0,4095.0,-0.02,9.31,7.56,-0.01,0.02,-0.15,0.0,i
4095.0,4030.0,2961.0,3648.0,2866.0,1436.0,3130.0,4095.0,-0.18,9.33,7.42,0.02,-0.07,-0.22,0.0,i
4095.0,3999.0,2965.0,3654.0,2871.0,1427.0,3135.0,4095.0,-0.59,9.27,7.73,0.06,-0.01,-0.11,0.0,i
4095.0,3994.0,2955.0,3635.0,2864.0,1427.0,3126.0,4095.0,-0.14,9.31,7.45,0.03,0.02,-0.13,0.0,i
4095.0,4003.0,2955.0,3661.0,2877.0,1440.0,3136.0,4095.0,-0.14,9.27,7.62,0.01,-0.04,-0.17,0.0,i
4095.0,4007.0,2964.0,3653.0,2866.0,1433.0,3128.0,4095.0,-0.43,9.3,7.55,0.03,-0.08,-0.23,0.0,i
4095.0,4019.0,2959.0,3648.0,2865.0,1435.0,3135.0,4095.0,-0.96,9.28,7.71,0.03,-0.02,-0.09,0.0,i
4095.0,4005.0,2959.0,3639.0,2863.0,1429.0,3133.0,4095.0,-0.07,9.24,7.73,0.06,0.09,0.05,0.0,i
4095.0,4012.0,2963.0,3655.0,2865.0,1433.0,3133.0,4095.0,0.45,9.34,7.27,0.04,-0.0,-0.11,0.0,i
4095.0,3984.0,2958.0,3647.0,2864.0,1433.0,3131.0,4095.0,-0.08,9.28,7.63,0.0,-0.05,-0.22,0.0,i
4095.0,4016.0,2966.0,3647.0,2873.0,1438.0,3140.0,4095.0,-0.13,9.38,7.33,-0.01,-0.03,-0.17,0.0,i
4095.0,3991.0,2959.0,3639.0,2862.0,1431.0,3132.0,4095.0,-0.26,9.28,7.77,-0.02,-0.15,-0.25,0.0,i
4095.0,3994.0,2961.0,3648.0,2865.0,1421.0,3134.0,4095.0,-0.32,9.3,7.54,0.08,-0.05,-0.15,0.0,i
4095.0,3995.0,2967.0,3658.0,2880.0,1433.0,3133.0,4095.0,-0.06,9.35,7.41,0.01,0.03,-0.15,0.0,i
4095.0,3994.0,2960.0,3639.0,2867.0,1436.0,3130.0,4095.0,-0.17,9.31,7.47,-0.01,0.03,-0.17,0.0,i
4095.0,3987.0,2960.0,3653.0,2880.0,1437.0,3138.0,4095.0,-0.06,9.35,7.35,-0.07,0.03,-0.19,0.0,i
4095.0,3987.0,2958.0,3648.0,2868.0,1435.0,3120.0,4095.0,-0.34,9.29,7.87,-0.09,0.0,-0.22,0.0,i
4095.0,3997.0,2967.0,3661.0,2880.0,1436.0,3134.0,4095.0,-0.47,9.1,8.05,-0.05,0.1,-0.18,0.0,i
4095.0,3979.0,2950.0,3646.0,2871.0,1397.0,3136.0,4095.0,-0.29,9.24,7.7,-0.01,0.03,-0.2,0.0,i
4095.0,3989.0,2960.0,3661.0,2875.0,1435.0,3142.0,4095.0,-0.52,9.16,7.89,-0.07,0.02,-0.26,0.0,i
4095.0,3996.0,2959.0,3643.0,2864.0,1434.0,3128.0,4095.0,-1.03,9.12,7.98,-0.05,-0.01,-0.2,0.0,i
4095.0,3975.0,2954.0,3662.0,2879.0,1438.0,3127.0,4095.0,-0.68,9.06,8.19,-0.03,0.04,-0.14,0.0,i
