hall_1,hall_2,hall_3,flex_t,flex_i,flex_m,flex_r,flex_p,accel_x,accel_y,accel_z,gyro_x,gyro_y,gyro_z,hand,sign
3315.0,3462.0,3003.0,2661.0,3741.0,3131.0,3269.0,4095.0,0.76,10.01,0.77,-0.06,-0.02,-0.05,1.0,i
3319.0,3474.0,3008.0,2672.0,3734.0,3120.0,3258.0,4095.0,1.09,10.1,0.82,-0.03,-0.04,-0.06,1.0,i
3333.0,3485.0,3007.0,2677.0,3753.0,3138.0,3264.0,4095.0,1.0,10.08,0.81,-0.05,0.09,-0.09,1.0,i
3312.0,3459.0,3002.0,2672.0,3727.0,3125.0,3253.0,4095.0,0.73,9.98,0.79,-0.07,0.03,-0.05,1.0,i
3318.0,3462.0,3006.0,2676.0,3737.0,3135.0,3255.0,4095.0,0.94,10.09,0.67,-0.05,-0.03,-0.05,1.0,i
3311.0,3460.0,3008.0,2672.0,3730.0,3141.0,3265.0,4095.0,0.82,10.02,0.7,-0.06,0.01,-0.02,1.0,i
3313.0,3467.0,3005.0,2667.0,3722.0,3135.0,3261.0,4095.0,0.91,10.04,0.76,-0.1,-0.02,-0.01,1.0,i
3339.0,3470.0,3014.0,2674.0,3756.0,3146.0,3278.0,4095.0,0.98,10.05,0.93,-0.08,-0.0,-0.06,1.0,i
3319.0,3457.0,3006.0,2672.0,3729.0,3136.0,3267.0,4095.0,0.81,10.04,0.79,-0.06,0.03,-0.07,1.0,i
3325.0,3478.0,3011.0,2675.0,3728.0,3133.0,3264.0,4095.0,0.75,10.08,0.65,-0.11,0.01,-0.03,1.0,i
3315.0,3466.0,3004.0,2672.0,3728.0,3127.0,3258.0,4095.0,0.95,10.08,0.95,-0.09,-0.06,-0.07,1.0,i
3327.0,3472.0,3010.0,2687.0,3763.0,3152.0,3275.0,4095.0,0.78,10.02,0.96,-0.11,-0.03,-0.06,1.0,i
3312.0,3456.0,3007.0,2673.0,3728.0,3127.0,3250.0,4095.0,0.65,10.02,1.0,-0.06,-0.01,-0.05,1.0,i
3323.0,3466.0,3013.0,2679.0,3746.0,3150.0,3266.0,4095.0,0.72,10.02,1.0,-0.09,0.01,-0.02,1.0,i
3317.0,3459.0,3008.0,2682.0,3738.0,3141.0,3264.0,4095.0,0.85,10.07,0.99,-0.05,-0.01,-0.04,1.0,i
3328.0,3473.0,3009.0,2684.0,3745.0,3150.0,3271.0,4095.0,0.78,10.03,0.97,-0.06,0.0,-0.03,1.0,i
3312.0,3471.0,3007.0,2681.0,3734.0,3143.0,3259.0,4095.0,0.8,10.01,1.08,-0.06,0.02,-0.02,1.0,i
3328.0,3461.0,3014.0,2677.0,3735.0,3142.0,3255.0,4095.0,0.84,10.01,1.02,-0.05,0.0,-0.02,1.0,i
3321.0,3472.0,3014.0,2682.0,3751.0,3151.0,3267.0,4095.0,0.7,9.98,0.91,-0.08,0.05,-0.02,1.0,i
3327.0,3467.0,3011.0,2685.0,3739.0,3149.0,3263.0,4095.0,0.83,10.05,1.0,-0.07,0.01,-0.02,1.0,i
3319.0,3469.0,3018.0,2693.0,3747.0,3157.0,3269.0,4095.0,0.86,10.02,0.9,-0.06,0.01,-0.03,1.0,i
3315.0,3455.0,3014.0,2688.0,3751.0,3155.0,3266.0,4095.0,0.82,10.01,1.02,-0.07,0.0,-0.02,1.0,i
3319.0,3459.0,3011.0,2690.0,3746.0,3159.0,3275.0,4095.0,0.95,10.0,1.05,-0.07,0.01,-0.03,1.0,i
3299.0,3446.0,3008.0,2685.0,3745.0,3155.0,3265.0,4095.0,0.85,10.02,1.03,-0.06,-0.03,-0.03,1.0,i
3331.0,3473.0,3018.0,2694.0,3760.0,3155.0,3267.0,4095.0,0.94,10.07,0.83,-0.07,-0.03,-0.04,1.0,i
3325.0,3463.0,3007.0,2690.0,3745.0,3149.0,3261.0,4095.0,1.05,10.04,1.17,-0.07,-0.03,-0.07,1.0,i
3327.0,3472.0,3024.0,2690.0,3743.0,3164.0,3264.0,4095.0,0.79,9.96,1.07,-0.06,-0.07,-0.06,1.0,i
3314.0,3445.0,2999.0,2682.0,3740.0,3153.0,3267.0,4095.0,0.84,10.01,0.81,-0.01,-0.28,-0.06,1.0,i
3321.0,3463.0,3021.0,2694.0,3773.0,3158.0,3263.0,4095.0,0.97,10.04,0.92,-0.07,-0.37,-0.04,1.0,i
3314.0,3456.0,3023.0,2691.0,3756.0,3157.0,3263.0,4095.0,1.04,10.02,1.46,-0.08,-0.09,-0.06,1.0,i
3318.0,3461.0,3014.0,2693.0,3754.0,3161.0,3272.0,4095.0,0.83,10.02,1.17,0.01,-0.01,-0.07,1.0,i
3318.0,3446.0,2997.0,2695.0,3739.0,3162.0,3273.0,4095.0,0.78,9.99,0.78,-0.03,0.04,-0.0,1.0,i
3309.0,3441.0,3004.0,2688.0,3746.0,3158.0,3263.0,4095.0,1.07,10.07,0.76,-0.08,-0.01,-0.02,1.0,i
3323.0,3449.0,3024.0,2697.0,3761.0,3171.0,3275.0,4095.0,0.81,10.01,1.09,-0.05,-0.04,-0.04,1.0,i
3312.0,3457.0,3005.0,2689.0,3745.0,3162.0,3259.0,4095.0,0.74,9.96,1.06,-0.04,0.0,-0.05,1.0,i
3312.0,3465.0,3018.0,2698.0,3763.0,3173.0,3271.0,4095.0,0.74,10.11,0.82,-0.06,0.05,0.03,1.0,i
3321.0,3455.0,3009.0,2681.0,3735.0,3172.0,3271.0,4095.0,0.97,10.11,0.93,-0.01,-0.06,-0.07,1.0,i
3315.0,3450.0,3024.0,2690.0,3758.0,3184.0,3277.0,4095.0,0.82,10.05,0.96,-0.06,-0.05,-0.02,1.0,i
3325.0,3440.0,3011.0,2688.0,3743.0,3171.0,3269.0,4095.0,0.86,10.01,0.86,-0.07,0.0,-0.04,1.0,i
3330.0,3454.0,3023.0,2687.0,3762.0,3182.0,3286.0,4095.0,0.83,10.07,0.9,-0.08,0.01,0.03,1.0,i
3303.0,3429.0,3009.0,2693.0,3763.0,3184.0,3280.0,4095.0,0.81,9.99,0.96,-0.09,0.0,-0.02,1.0,i
3317.0,3430.0,3018.0,2703.0,3765.0,3187.0,3281.0,4095.0,1.08,10.01,1.18,-0.08,0.0,-0.01,1.0,i
3301.0,3429.0,3005.0,2690.0,3756.0,3185.0,3280.0,4095.0,0.98,10.03,1.0,-0.03,0.01,-0.04,1.0,i
3322.0,3440.0,3024.0,2705.0,3755.0,3187.0,3281.0,4095.0,0.98,10.03,1.02,-0.06,-0.03,-0.03,1.0,i
3313.0,3425.0,3009.0,2692.0,3746.0,3177.0,3280.0,4095.0,0.96,9.99,1.05,-0.04,0.0,-0.03,1.0,i
3312.0,3434.0,3022.0,2706.0,3785.0,3184.0,3279.0,4095.0,1.08,10.04,1.01,-0.06,0.0,-0.04,1.0,i
3322.0,3435.0,3024.0,2691.0,3761.0,3190.0,3283.0,4095.0,0.89,10.02,0.81,-0.08,0.01,-0.03,1.0,i
3313.0,3417.0,3008.0,2691.0,3749.0,3184.0,3280.0,4095.0,1.03,10.02,0.96,-0.12,0.0,0.01,1.0,i
3323.0,3435.0,3029.0,2707.0,3771.0,3184.0,3280.0,4095.0,1.37,10.02,1.55,-0.1,-0.02,-0.06,1.0,i
3315.0,3435.0,3014.0,2697.0,3760.0,3183.0,3274.0,4095.0,0.71,9.91,1.1,0.01,0.04,-0.06,1.0,i
3328.0,3437.0,3020.0,2704.0,3760.0,3197.0,3282.0,4095.0,1.05,10.06,0.72,-0.1,0.03,0.02,1.0,i
3312.0,3419.0,3014.0,2691.0,3749.0,3186.0,3280.0,4095.0,1.27,9.92,1.5,-0.1,0.06,-0.02,1.0,i
3318.0,3439.0,3017.0,2701.0,3773.0,3185.0,3286.0,4095.0,1.11,9.97,1.25,0.01,-0.01,-0.11,1.0,i
3313.0,3429.0,3022.0,2691.0,3754.0,3184.0,3282.0,4095.0,0.72,10.01,0.72,-0.03,0.02,-0.04,1.0,i
3328.0,3418.0,3015.0,2699.0,3759.0,3190.0,3287.0,4095.0,1.02,10.02,0.96,-0.09,0.0,-0.03,1.0,i
3314.0,3417.0,3015.0,2698.0,3771.0,3184.0,3281.0,4095.0,1.02,9.96,1.25,-0.1,-0.01,-0.0,1.0,i
3312.0,3425.0,3020.0,2704.0,3777.0,3197.0,3294.0,4095.0,1.15,10.02,1.12,-0.06,0.05,-0.03,1.0,i
3310.0,3421.0,3010.0,2704.0,3760.0,3190.0,3280.0,4095.0,1.21,10.04,1.0,-0.06,0.01,-0.06,1.0,i
3312.0,3431.0,3021.0,2700.0,3755.0,3177.0,3280.0,4095.0,1.0,9.97,1.2,-0.08,0.03,0.02,1.0,i
3330.0,3440.0,3024.0,2706.0,3760.0,3191.0,3283.0,4095.0,1.28,10.0,1.21,-0.06,0.04,-0.01,1.0,i
3309.0,3430.0,3023.0,2698.0,3762.0,3187.0,3283.0,4095.0,1.02,9.97,1.42,-0.07,-0.03,-0.05,1.0,i
3319.0,3438.0,3026.0,2705.0,3777.0,3199.0,3290.0,4095.0,0.94,10.05,1.03,-0.04,-0.04,-0.09,1.0,i
3321.0,3430.0,3005.0,2698.0,3753.0,3196.0,3280.0,4095.0,0.86,10.01,1.17,-0.07,-0.1,-0.12,1.0,i
3327.0,3426.0,3015.0,2706.0,3792.0,3198.0,3289.0,4095.0,0.64,9.96,1.27,-0.11,0.04,-0.03,1.0,i
3318.0,3425.0,3019.0,2699.0,3755.0,3188.0,3280.0,4095.0,0.8,10.01,1.15,-0.04,0.01,-0.07,1.0,i
3326.0,3423.0,3024.0,2706.0,3771.0,3184.0,3281.0,4095.0,0.76,10.06,1.04,-0.05,-0.02,-0.08,1.0,i
3313.0,3408.0,3019.0,2704.0,3779.0,3194.0,3280.0,4095.0,0.73,10.01,1.23,-0.1,-0.03,-0.07,1.0,i
3307.0,3428.0,3023.0,2706.0,3772.0,3202.0,3289.0,4095.0,0.51,10.01,1.26,-0.09,0.01,-0.06,1.0,i
3312.0,3429.0,3021.0,2704.0,3769.0,3196.0,3280.0,4095.0,0.65,10.01,1.23,-0.09,-0.01,-0.07,1.0,i
3315.0,3438.0,3015.0,2704.0,3758.0,3197.0,3280.0,4095.0,0.72,10.02,1.32,-0.09,0.0,-0.06,1.0,i
3325.0,3440.0,3024.0,2707.0,3761.0,3200.0,3285.0,4095.0,0.55,9.97,1.38,-0.07,-0.0,-0.07,1.0,i
3312.0,3427.0,3024.0,2705.0,3767.0,3191.0,3280.0,4095.0,0.44,9.98,1.24,-0.09,0.01,-0.02,1.0,i
3323.0,3421.0,3021.0,2704.0,3767.0,3201.0,3291.0,4095.0,0.57,10.02,1.26,-0.11,0.01,-0.02,1.0,i
3322.0,3426.0,3027.0,2704.0,3763.0,3193.0,3274.0,4095.0,0.66,10.04,1.45,-0.1,-0.03,-0.05,1.0,i
3326.0,3430.0,3034.0,2716.0,3787.0,3195.0,3279.0,4095.0,0.44,9.95,1.49,-0.11,0.02,-0.03,1.0,i
3312.0,3417.0,3017.0,2704.0,3769.0,3195.0,3277.0,4095.0,0.46,9.98,1.48,-0.1,0.04,-0.01,1.0,i
3328.0,3431.0,3027.0,2711.0,3779.0,3203.0,3285.0,4095.0,0.68,9.99,1.59,-0.06,-0.08,-0.05,1.0,i
3304.0,3435.0,3017.0,2706.0,3751.0,3191.0,3275.0,4095.0,0.52,9.98,1.57,-0.08,0.01,-0.03,1.0,i
3321.0,3438.0,3034.0,2707.0,3775.0,3202.0,3297.0,4095.0,0.53,9.99,1.54,-0.08,0.01,-0.01,1.0,i
3315.0,3414.0,3024.0,2713.0,3777.0,3210.0,3282.0,4095.0,0.56,10.0,1.6,-0.09,0.01,-0.02,1.0,i
3315.0,3423.0,3026.0,2709.0,3791.0,3201.0,3283.0,4095.0,0.52,9.96,1.5,-0.08,0.04,0.01,1.0,i
3317.0,3409.0,3013.0,2704.0,3759.0,3195.0,3277.0,4095.0,0.79,9.98,1.64,-0.06,0.02,-0.01,1.0,i
3325.0,3415.0,3030.0,2715.0,3783.0,3202.0,3291.0,4095.0,0.63,9.97,1.6,-0.08,0.05,-0.04,1.0,i
3312.0,3415.0,3024.0,2708.0,3771.0,3194.0,3277.0,4095.0,0.6,9.9,1.66,-0.1,0.06,-0.01,1.0,i
3312.0,3413.0,3024.0,2715.0,3789.0,3204.0,3293.0,4095.0,0.72,9.89,1.78,-0.08,0.05,-0.01,1.0,i
3312.0,3409.0,3022.0,2707.0,3792.0,3199.0,3277.0,4095.0,0.66,9.94,1.7,-0.07,0.09,0.01,1.0,i
3312.0,3408.0,3030.0,2706.0,3779.0,3200.0,3281.0,4095.0,0.92,10.01,1.65,-0.09,0.05,0.04,1.0,i
3318.0,3405.0,3022.0,2711.0,3765.0,3198.0,3274.0,4095.0,0.94,9.89,2.08,-0.09,0.05,-0.01,1.0,i
3317.0,3401.0,3021.0,2704.0,3767.0,3194.0,3280.0,4095.0,0.76,9.92,1.82,-0.09,0.03,-0.04,1.0,i
3316.0,3417.0,3034.0,2713.0,3765.0,3199.0,3277.0,4095.0,0.79,9.93,1.83,-0.09,-0.0,-0.05,1.0,i
3314.0,3403.0,3014.0,2704.0,3762.0,3194.0,3280.0,4095.0,0.82,9.96,1.81,-0.11,0.08,0.0,1.0,i
3326.0,3413.0,3025.0,2707.0,3767.0,3200.0,3287.0,4095.0,0.85,9.93,2.04,-0.09,-0.02,-0.06,1.0,i
3318.0,3401.0,3015.0,2711.0,3760.0,3197.0,3285.0,4095.0,0.65,9.91,1.9,-0.04,-0.02,0.03,1.0,i
3315.0,3412.0,3024.0,2715.0,3762.0,3205.0,3285.0,4095.0,1.06,9.9,2.2,-0.11,-0.07,-0.08,1.0,i
3312.0,3408.0,3021.0,2715.0,3760.0,3200.0,3274.0,4095.0,0.29,9.96,1.78,-0.0,-0.04,-0.05,1.0,i
3313.0,3399.0,3027.0,2716.0,3777.0,3212.0,3286.0,4095.0,0.93,9.91,1.92,-0.1,0.0,0.03,1.0,i
3307.0,3415.0,3025.0,2711.0,3764.0,3207.0,3278.0,4095.0,1.18,9.86,2.26,-0.06,-0.08,-0.02,1.0,i
3322.0,3426.0,3031.0,2714.0,3777.0,3209.0,3283.0,4095.0,1.14,9.9,2.2,-0.02,-0.0,-0.06,1.0,i
3309.0,3408.0,3019.0,2713.0,3766.0,3204.0,3271.0,4095.0,0.95,9.89,2.06,-0.02,-0.02,-0.09,1.0,i
3315.0,3412.0,3022.0,2721.0,3762.0,3210.0,3271.0,4095.0,0.66,9.86,1.92,-0.03,0.01,-0.04,1.0,i
3315.0,3408.0,3022.0,2718.0,3757.0,3205.0,3275.0,4095.0,1.04,9.88,2.04,-0.06,0.01,0.01,1.0,i
3307.0,3414.0,3024.0,2721.0,3771.0,3207.0,3280.0,4095.0,1.13,9.96,1.82,-0.01,-0.01,-0.07,1.0,i
3323.0,3403.0,3021.0,2709.0,3760.0,3197.0,3280.0,4095.0,0.89,9.94,1.58,-0.02,-0.05,-0.02,1.0,i
3311.0,3423.0,3024.0,2719.0,3760.0,3205.0,3279.0,4095.0,1.05,9.88,1.92,-0.05,-0.03,0.0,1.0,i
3298.0,3407.0,3019.0,2726.0,3787.0,3213.0,3282.0,4095.0,1.1,9.93,1.89,-0.02,0.0,-0.02,1.0,i
3310.0,3401.0,3025.0,2713.0,3760.0,3203.0,3279.0,4095.0,1.22,9.93,1.82,0.05,0.01,-0.12,1.0,i
3307.0,3407.0,3028.0,2722.0,3806.0,3217.0,3280.0,4095.0,0.76,9.97,1.34,0.05,0.04,-0.08,1.0,i
3312.0,3397.0,3021.0,2719.0,3769.0,3199.0,3281.0,4095.0,0.83,9.99,1.33,-0.01,0.1,-0.06,1.0,i
3323.0,3402.0,3027.0,2721.0,3792.0,3215.0,3287.0,4095.0,0.89,10.0,1.42,0.0,-0.05,-0.06,1.0,i
3303.0,3405.0,3010.0,2718.0,3754.0,3201.0,3277.0,4095.0,0.71,9.97,1.23,-0.01,0.08,-0.03,1.0,i
3311.0,3408.0,3031.0,2725.0,3760.0,3207.0,3280.0,4095.0,0.64,10.02,1.04,-0.08,0.03,-0.01,1.0,i
3315.0,3397.0,3022.0,2713.0,3773.0,3207.0,3276.0,4095.0,1.01,9.99,1.58,-0.1,0.02,0.0,1.0,i
3315.0,3403.0,3026.0,2722.0,3746.0,3211.0,3278.0,4095.0,1.02,9.96,1.61,-0.01,0.04,-0.04,1.0,i
3312.0,3400.0,3022.0,2720.0,3762.0,3210.0,3275.0,4095.0,1.14,10.06,1.09,0.0,0.02,-0.03,1.0,i
3302.0,3390.0,3026.0,2727.0,3773.0,3218.0,3283.0,4095.0,0.81,9.94,1.13,-0.12,0.04,-0.02,1.0,i
3312.0,3395.0,3019.0,2715.0,3749.0,3211.0,3286.0,4095.0,0.86,9.94,1.38,-0.13,-0.03,-0.05,1.0,i
3311.0,3399.0,3019.0,2717.0,3765.0,3207.0,3279.0,4095.0,0.92,9.88,1.92,-0.1,-0.05,-0.04,1.0,i
3319.0,3418.0,3030.0,2718.0,3761.0,3213.0,3280.0,4095.0,0.91,10.05,1.13,-0.06,0.03,-0.02,1.0,i
3303.0,3398.0,3021.0,2722.0,3767.0,3211.0,3278.0,4095.0,1.27,10.04,1.5,-0.1,-0.01,-0.06,1.0,i
3312.0,3404.0,3030.0,2722.0,3787.0,3217.0,3292.0,4095.0,0.73,9.98,1.39,-0.13,0.02,-0.06,1.0,i
3316.0,3390.0,3030.0,2725.0,3792.0,3214.0,3284.0,4095.0,0.78,9.93,1.78,-0.1,-0.01,-0.06,1.0,i
3314.0,3392.0,3015.0,2715.0,3776.0,3214.0,3286.0,4095.0,0.84,9.96,1.92,-0.12,-0.01,-0.06,1.0,i
3324.0,3407.0,3038.0,2720.0,3774.0,3210.0,3280.0,4095.0,0.75,9.91,1.98,-0.11,-0.01,-0.08,1.0,i
3312.0,3387.0,3030.0,2725.0,3798.0,3218.0,3295.0,4095.0,0.64,9.89,2.12,-0.07,-0.01,-0.09,1.0,i
3295.0,3376.0,3021.0,2715.0,3783.0,3213.0,3280.0,4095.0,0.67,9.95,1.85,-0.04,-0.02,-0.08,1.0,i
3327.0,3394.0,3031.0,2726.0,3778.0,3213.0,3287.0,4095.0,0.39,9.87,1.92,-0.07,0.01,-0.07,1.0,i
3305.0,3381.0,3022.0,2718.0,3760.0,3205.0,3280.0,4095.0,0.48,9.87,2.1,-0.1,-0.06,-0.01,1.0,i
3316.0,3404.0,3030.0,2722.0,3777.0,3214.0,3285.0,4095.0,0.81,9.9,2.14,-0.05,-0.04,-0.06,1.0,i
3302.0,3377.0,3024.0,2723.0,3775.0,3213.0,3286.0,4095.0,0.68,9.92,2.03,-0.03,-0.05,-0.12,1.0,i
3317.0,3398.0,3026.0,2729.0,3789.0,3218.0,3280.0,4095.0,0.4,9.9,1.94,-0.04,-0.04,-0.1,1.0,i
3307.0,3390.0,3024.0,2723.0,3776.0,3207.0,3283.0,4095.0,0.31,9.94,1.93,-0.07,0.01,-0.1,1.0,i
3315.0,3402.0,3019.0,2722.0,3783.0,3210.0,3286.0,4095.0,0.26,9.87,2.16,-0.05,-0.01,-0.09,1.0,i
3309.0,3386.0,3013.0,2718.0,3760.0,3202.0,3286.0,4095.0,0.22,9.91,1.81,-0.01,0.01,-0.03,1.0,i
3328.0,3394.0,3026.0,2722.0,3779.0,3211.0,3283.0,4095.0,0.44,9.94,1.89,-0.08,-0.01,-0.02,1.0,i
3321.0,3397.0,3031.0,2727.0,3785.0,3212.0,3281.0,4095.0,0.29,9.9,2.08,-0.07,0.01,-0.04,1.0,i
3307.0,3390.0,3015.0,2723.0,3777.0,3214.0,3275.0,4095.0,0.41,9.97,1.91,-0.03,-0.04,-0.05,1.0,i
3317.0,3394.0,3026.0,2729.0,3777.0,3222.0,3284.0,4095.0,0.21,9.91,1.91,-0.07,0.02,-0.06,1.0,i
3311.0,3379.0,3025.0,2724.0,3771.0,3208.0,3274.0,4095.0,0.38,9.91,1.99,-0.03,-0.02,-0.05,1.0,i
3311.0,3379.0,3025.0,2726.0,3783.0,3217.0,3281.0,4095.0,0.56,9.93,2.06,-0.01,-0.02,-0.1,1.0,i
3303.0,3376.0,3021.0,2725.0,3773.0,3220.0,3275.0,4095.0,0.11,9.96,1.68,-0.02,0.03,-0.1,1.0,i
3309.0,3383.0,3018.0,2723.0,3790.0,3217.0,3290.0,4095.0,0.09,9.99,1.65,-0.05,0.01,-0.04,1.0,i
3311.0,3381.0,3018.0,2719.0,3781.0,3222.0,3280.0,4095.0,0.11,9.95,1.9,-0.06,-0.04,-0.07,1.0,i
3323.0,3393.0,3024.0,2723.0,3782.0,3223.0,3291.0,4095.0,-0.26,9.88,1.66,-0.06,0.05,0.01,1.0,i
3309.0,3388.0,3023.0,2723.0,3781.0,3212.0,3280.0,4095.0,0.03,9.98,1.62,-0.09,0.02,0.05,1.0,i
3322.0,3389.0,3027.0,2736.0,3779.0,3215.0,3280.0,4095.0,0.43,9.92,2.22,-0.03,-0.04,-0.05,1.0,i
3305.0,3385.0,3013.0,2725.0,3773.0,3214.0,3283.0,4095.0,-0.03,9.94,1.58,0.02,0.06,-0.06,1.0,i
3318.0,3395.0,3023.0,2721.0,3769.0,3216.0,3284.0,4095.0,0.05,10.0,1.49,-0.01,0.11,0.04,1.0,i
3303.0,3376.0,3024.0,2731.0,3776.0,3221.0,3280.0,4095.0,0.28,10.01,1.39,-0.03,-0.01,0.02,1.0,i
3312.0,3399.0,3027.0,2735.0,3791.0,3222.0,3283.0,4095.0,0.38,10.0,1.7,-0.11,-0.02,0.01,1.0,i
3309.0,3377.0,3021.0,2723.0,3777.0,3216.0,3279.0,4095.0,0.33,9.96,1.94,-0.07,0.04,-0.02,1.0,i
3321.0,3386.0,3024.0,2727.0,3785.0,3216.0,3285.0,4095.0,0.36,9.96,1.83,0.06,0.02,-0.07,1.0,i
3319.0,3383.0,3024.0,2725.0,3775.0,3216.0,3279.0,4095.0,-0.04,9.94,1.4,0.1,0.05,-0.0,1.0,i
3310.0,3389.0,3019.0,2721.0,3770.0,3216.0,3280.0,4095.0,0.3,10.02,1.12,0.03,-0.03,0.03,1.0,i
3323.0,3393.0,3025.0,2730.0,3792.0,3227.0,3285.0,4095.0,0.49,10.07,0.98,-0.04,0.04,0.03,1.0,i
3312.0,3376.0,3021.0,2725.0,3776.0,3214.0,3280.0,4095.0,0.24,10.04,0.93,-0.12,0.04,0.03,1.0,i
3316.0,3388.0,3027.0,2736.0,3793.0,3223.0,3281.0,4095.0,0.67,9.97,1.85,-0.1,-0.04,0.01,1.0,i
3295.0,3382.0,3022.0,2726.0,3777.0,3216.0,3280.0,4095.0,0.37,9.99,1.4,-0.02,0.12,-0.02,1.0,i
3323.0,3392.0,3021.0,2734.0,3789.0,3243.0,3292.0,4095.0,0.4,9.99,1.28,-0.02,0.03,0.0,1.0,i
3310.0,3392.0,3029.0,2732.0,3776.0,3221.0,3280.0,4095.0,0.43,10.02,1.05,-0.03,0.07,0.07,1.0,i
3314.0,3386.0,3027.0,2735.0,3787.0,3217.0,3285.0,4095.0,0.85,10.06,1.06,-0.04,0.01,0.08,1.0,i
3312.0,3371.0,3017.0,2725.0,3773.0,3216.0,3282.0,4095.0,1.03,9.99,1.08,-0.08,-0.03,0.04,1.0,i
3326.0,3392.0,3024.0,2731.0,3791.0,3226.0,3286.0,4095.0,1.21,9.95,1.54,-0.09,-0.01,0.02,1.0,i
3314.0,3384.0,3026.0,2730.0,3766.0,3215.0,3277.0,4095.0,0.89,10.06,1.14,-0.15,0.04,0.03,1.0,i
3312.0,3381.0,3019.0,2741.0,3815.0,3232.0,3291.0,4095.0,1.03,9.85,1.91,-0.09,-0.01,0.06,1.0,i
3311.0,3389.0,3019.0,2725.0,3777.0,3216.0,3279.0,4095.0,1.53,10.06,1.15,-0.03,0.11,0.04,1.0,i
3319.0,3387.0,3038.0,2735.0,3813.0,3231.0,3284.0,4095.0,1.49,9.98,1.49,-0.09,0.05,0.0,1.0,i
3303.0,3376.0,3026.0,2727.0,3783.0,3221.0,3280.0,4095.0,1.16,10.01,1.08,-0.08,0.12,0.0,1.0,i
3318.0,3380.0,3024.0,2727.0,3788.0,3223.0,3294.0,4095.0,1.56,9.87,1.81,-0.12,-0.09,0.04,1.0,i
3311.0,3375.0,3022.0,2726.0,3782.0,3222.0,3281.0,4095.0,1.51,9.92,1.64,-0.05,0.07,-0.06,1.0,i
3319.0,3379.0,3025.0,2733.0,3809.0,3232.0,3294.0,4095.0,1.38,9.9,1.72,-0.07,-0.04,-0.01,1.0,i
3312.0,3377.0,3025.0,2742.0,3803.0,3229.0,3284.0,4095.0,1.29,9.97,1.25,-0.02,0.08,-0.05,1.0,i
3302.0,3376.0,3024.0,2733.0,3792.0,3218.0,3282.0,4095.0,1.47,9.88,1.71,-0.1,-0.06,-0.0,1.0,i
3318.0,3383.0,3022.0,2729.0,3792.0,3223.0,3299.0,4095.0,1.28,9.86,1.83,-0.06,0.02,-0.06,1.0,i
3297.0,3376.0,3021.0,2735.0,3792.0,3236.0,3280.0,4095.0,1.28,9.89,1.6,-0.05,0.03,0.0,1.0,i
3307.0,3386.0,3024.0,2733.0,3797.0,3238.0,3297.0,4095.0,1.68,9.92,1.68,-0.03,0.02,0.01,1.0,i
3311.0,3377.0,3021.0,2733.0,3782.0,3219.0,3280.0,4095.0,1.51,9.87,1.64,-0.03,0.05,-0.02,1.0,i
3313.0,3378.0,3024.0,2729.0,3782.0,3224.0,3289.0,4095.0,1.25,9.86,1.6,-0.06,0.08,0.02,1.0,i
3311.0,3365.0,3018.0,2725.0,3792.0,3223.0,3287.0,4095.0,1.69,9.9,1.54,-0.04,0.06,0.04,1.0,i
3320.0,3387.0,3031.0,2731.0,3815.0,3229.0,3285.0,4095.0,1.78,9.92,1.58,-0.04,0.04,-0.03,1.0,i
3307.0,3373.0,3027.0,2726.0,3798.0,3218.0,3275.0,4095.0,1.57,9.9,1.59,-0.05,0.01,-0.01,1.0,i
3312.0,3378.0,3027.0,2731.0,3799.0,3231.0,3290.0,4095.0,1.68,9.92,1.48,-0.06,0.01,-0.01,1.0,i
3305.0,3377.0,3024.0,2727.0,3790.0,3216.0,3279.0,4095.0,1.69,9.85,1.6,-0.04,0.0,-0.05,1.0,i
3328.0,3378.0,3023.0,2731.0,3824.0,3221.0,3283.0,4095.0,1.65,9.9,1.42,-0.02,0.0,-0.06,1.0,i
3303.0,3355.0,3022.0,2727.0,3792.0,3219.0,3283.0,4095.0,1.57,9.9,1.47,-0.04,-0.04,-0.05,1.0,i
3318.0,3378.0,3029.0,2729.0,3787.0,3232.0,3287.0,4095.0,1.86,9.93,1.55,0.02,-0.13,-0.09,1.0,i
3305.0,3371.0,3025.0,2723.0,3794.0,3218.0,3279.0,4095.0,1.96,10.02,1.26,0.07,-0.25,-0.28,1.0,i
3309.0,3390.0,3025.0,2736.0,3794.0,3223.0,3295.0,4095.0,0.86,9.93,1.07,0.01,-0.15,-0.24,1.0,i
3299.0,3376.0,3017.0,2725.0,3791.0,3216.0,3278.0,4095.0,1.02,9.96,1.07,0.0,-0.13,-0.15,1.0,i
3325.0,3392.0,3026.0,2734.0,3791.0,3227.0,3289.0,4095.0,1.03,10.02,1.01,0.01,-0.11,-0.18,1.0,i
3312.0,3381.0,3027.0,2731.0,3786.0,3218.0,3282.0,4095.0,0.74,10.01,0.87,0.0,-0.15,-0.16,1.0,i
3315.0,3393.0,3024.0,2736.0,3793.0,3229.0,3280.0,4095.0,0.63,10.0,0.92,-0.06,-0.08,-0.08,1.0,i
3314.0,3392.0,3024.0,2736.0,3787.0,3223.0,3295.0,4095.0,0.85,10.03,0.99,-0.05,-0.06,-0.09,1.0,i
3303.0,3373.0,3022.0,2729.0,3792.0,3225.0,3282.0,4095.0,0.51,9.99,0.89,-0.06,-0.02,-0.07,1.0,i
3321.0,3374.0,3023.0,2726.0,3802.0,3229.0,3295.0,4095.0,0.6,10.06,0.83,-0.06,-0.01,-0.03,1.0,i
3317.0,3379.0,3022.0,2722.0,3792.0,3216.0,3279.0,4095.0,0.91,10.1,0.96,-0.06,-0.07,-0.05,1.0,i
3308.0,3379.0,3034.0,2736.0,3815.0,3241.0,3295.0,4095.0,0.99,10.04,0.99,-0.04,-0.09,-0.12,1.0,i
3307.0,3376.0,3023.0,2731.0,3806.0,3219.0,3280.0,4095.0,0.3,9.99,0.72,-0.06,-0.03,-0.13,1.0,i
3299.0,3367.0,3023.0,2731.0,3818.0,3231.0,3294.0,4095.0,0.33,10.01,0.93,-0.05,-0.04,-0.09,1.0,i
3319.0,3366.0,3009.0,2729.0,3787.0,3223.0,3287.0,4095.0,0.33,10.0,1.0,-0.06,-0.03,-0.04,1.0,i
3312.0,3361.0,3031.0,2735.0,3805.0,3231.0,3285.0,4095.0,0.37,10.03,0.87,-0.04,0.02,-0.03,1.0,i
3818.0,3939.0,3035.0,2624.0,4095.0,3665.0,3239.0,4032.0,0.79,10.06,0.29,-0.07,0.02,-0.04,1.0,i
3807.0,3943.0,3027.0,2628.0,4095.0,3687.0,3247.0,4095.0,0.85,10.08,0.38,-0.03,-0.05,-0.07,1.0,i
3797.0,3905.0,3019.0,2622.0,4095.0,3661.0,3238.0,4082.0,0.91,10.04,0.32,-0.05,-0.0,-0.02,1.0,i
3795.0,3924.0,3024.0,2631.0,4095.0,3682.0,3245.0,4095.0,1.08,10.06,0.37,-0.08,0.07,0.01,1.0,i
3802.0,3915.0,3024.0,2624.0,4095.0,3661.0,3248.0,4095.0,0.75,9.99,0.35,-0.1,0.08,0.0,1.0,i
3808.0,3924.0,3024.0,2637.0,4095.0,3694.0,3248.0,4095.0,1.04,10.14,-0.03,-0.11,0.0,-0.05,1.0,i
3782.0,3907.0,3024.0,2624.0,4095.0,3675.0,3245.0,4095.0,0.99,10.05,0.37,-0.2,-0.05,-0.05,1.0,i
3818.0,3930.0,3030.0,2640.0,4095.0,3685.0,3242.0,4095.0,0.9,10.01,0.75,-0.17,-0.03,-0.06,1.0,i
3794.0,3893.0,3023.0,2639.0,4095.0,3673.0,3248.0,4095.0,0.87,10.0,0.78,-0.21,0.01,-0.05,1.0,i
3789.0,3920.0,3025.0,2637.0,4095.0,3675.0,3247.0,4095.0,0.87,10.0,1.01,-0.14,-0.04,-0.05,1.0,i
3812.0,3941.0,3031.0,2642.0,4095.0,3685.0,3249.0,4095.0,0.79,10.02,0.97,-0.11,0.04,-0.03,1.0,i
3810.0,3906.0,3023.0,2638.0,4095.0,3677.0,3248.0,4095.0,1.04,10.03,0.97,-0.06,-0.01,-0.06,1.0,i
3822.0,3916.0,3027.0,2642.0,4095.0,3686.0,3249.0,4095.0,0.73,10.06,0.89,-0.08,0.03,-0.03,1.0,i
3804.0,3899.0,3025.0,2648.0,4095.0,3687.0,3239.0,4095.0,0.77,10.02,0.89,-0.09,-0.01,-0.01,1.0,i
3824.0,3923.0,3031.0,2651.0,4095.0,3712.0,3250.0,4095.0,0.95,10.05,1.02,-0.12,-0.04,-0.05,1.0,i
3807.0,3905.0,3020.0,2645.0,4095.0,3696.0,3238.0,4095.0,0.8,10.02,1.08,-0.1,-0.05,-0.06,1.0,i
3814.0,3919.0,3028.0,2647.0,4095.0,3708.0,3262.0,4095.0,0.72,9.99,1.07,-0.1,0.0,-0.01,1.0,i
3792.0,3898.0,3023.0,2647.0,4095.0,3707.0,3249.0,4095.0,0.84,10.0,1.13,-0.11,-0.02,-0.03,1.0,i
3811.0,3920.0,3037.0,2659.0,4095.0,3711.0,3261.0,4095.0,0.78,9.99,1.13,-0.11,0.01,-0.03,1.0,i
3801.0,3904.0,3024.0,2655.0,4095.0,3712.0,3253.0,4095.0,0.68,9.98,1.11,-0.12,0.03,0.0,1.0,i
3809.0,3889.0,3025.0,2667.0,4095.0,3712.0,3266.0,4095.0,1.06,9.94,1.63,-0.08,0.03,0.01,1.0,i
3817.0,3895.0,3029.0,2665.0,4095.0,3695.0,3248.0,4095.0,1.0,9.97,1.51,-0.09,0.07,0.02,1.0,i
3808.0,3893.0,3040.0,2671.0,4095.0,3714.0,3254.0,4095.0,1.3,10.0,1.54,-0.12,0.02,0.02,1.0,i
3798.0,3898.0,3031.0,2669.0,4095.0,3701.0,3261.0,4095.0,1.23,9.88,1.88,-0.14,0.01,-0.0,1.0,i
3832.0,3907.0,3030.0,2670.0,4095.0,3715.0,3271.0,4095.0,1.09,9.84,1.88,-0.12,0.07,0.01,1.0,i
3801.0,3907.0,3024.0,2672.0,4095.0,3716.0,3263.0,4095.0,1.28,9.89,1.94,-0.09,0.04,0.03,1.0,i
3797.0,3889.0,3024.0,2667.0,4095.0,3719.0,3260.0,4095.0,1.16,9.84,1.88,-0.1,0.09,0.01,1.0,i
3826.0,3919.0,3040.0,2672.0,4095.0,3718.0,3271.0,4095.0,1.31,9.87,1.84,-0.08,0.07,0.04,1.0,i
3805.0,3888.0,3017.0,2663.0,4095.0,3710.0,3261.0,4095.0,1.56,9.87,1.95,-0.1,0.0,0.03,1.0,i
3820.0,3906.0,3037.0,2673.0,4095.0,3715.0,3268.0,4095.0,1.63,9.87,2.1,-0.09,0.02,-0.01,1.0,i
3797.0,3859.0,3026.0,2669.0,4095.0,3711.0,3263.0,4095.0,1.4,9.82,2.04,-0.06,-0.02,-0.02,1.0,i
3802.0,3888.0,3030.0,2672.0,4095.0,3728.0,3281.0,4095.0,1.47,9.82,2.03,-0.07,0.04,0.0,1.0,i
3810.0,3888.0,3039.0,2668.0,4095.0,3713.0,3269.0,4095.0,1.53,9.85,2.05,-0.07,0.02,-0.02,1.0,i
3824.0,3895.0,3024.0,2672.0,4095.0,3713.0,3267.0,4095.0,1.49,9.82,2.12,-0.06,0.04,0.02,1.0,i
3797.0,3869.0,3031.0,2667.0,4095.0,3715.0,3267.0,4095.0,1.58,9.82,2.01,-0.06,0.06,0.02,1.0,i
3802.0,3897.0,3037.0,2672.0,4095.0,3721.0,3269.0,4095.0,1.73,9.84,2.08,-0.05,-0.0,-0.0,1.0,i
3808.0,3888.0,3025.0,2671.0,4095.0,3701.0,3264.0,4095.0,1.63,9.83,1.99,-0.06,0.03,0.01,1.0,i
3791.0,3893.0,3028.0,2672.0,4095.0,3696.0,3262.0,4095.0,1.72,9.82,2.04,-0.06,0.05,0.01,1.0,i
3811.0,3882.0,3025.0,2676.0,4095.0,3717.0,3279.0,4095.0,1.71,9.79,2.02,-0.06,0.03,-0.01,1.0,i
3798.0,3879.0,3026.0,2674.0,4095.0,3708.0,3275.0,3904.0,1.7,9.82,2.07,-0.05,0.03,-0.01,1.0,i
3812.0,3885.0,3040.0,2677.0,4095.0,3722.0,3280.0,4095.0,2.02,9.8,1.99,-0.05,0.04,-0.0,1.0,i
3808.0,3879.0,3026.0,2668.0,4095.0,3707.0,3266.0,4095.0,1.91,9.72,2.07,-0.05,0.02,0.01,1.0,i
3818.0,3903.0,3033.0,2676.0,4095.0,3735.0,3269.0,4095.0,2.19,9.79,2.02,-0.05,0.03,-0.0,1.0,i
3812.0,3887.0,3029.0,2679.0,4095.0,3728.0,3283.0,4095.0,2.05,9.74,2.04,-0.05,0.03,-0.02,1.0,i
3812.0,3872.0,3025.0,2674.0,4095.0,3712.0,3274.0,4095.0,2.14,9.72,2.08,-0.04,0.0,-0.0,1.0,i
3814.0,3872.0,3026.0,2678.0,4095.0,3724.0,3283.0,4095.0,2.22,9.74,2.06,-0.03,0.01,-0.01,1.0,i
3813.0,3883.0,3030.0,2677.0,4095.0,3711.0,3273.0,4095.0,2.09,9.71,2.01,-0.04,0.02,-0.01,1.0,i
3819.0,3881.0,3039.0,2679.0,4095.0,3717.0,3278.0,4095.0,2.17,9.75,2.0,-0.05,0.03,-0.01,1.0,i
3807.0,3883.0,3039.0,2675.0,4095.0,3710.0,3267.0,4095.0,2.25,9.75,2.05,-0.03,0.01,-0.02,1.0,i
3814.0,3882.0,3034.0,2681.0,4095.0,3730.0,3283.0,4010.0,2.17,9.71,1.99,-0.02,0.04,-0.02,1.0,i
3819.0,3859.0,3032.0,2678.0,4095.0,3719.0,3277.0,4048.0,2.17,9.73,1.94,-0.04,0.04,-0.02,1.0,i
3819.0,3883.0,3034.0,2678.0,4095.0,3738.0,3280.0,4095.0,2.28,9.76,1.93,-0.02,0.01,-0.02,1.0,i
3805.0,3861.0,3029.0,2672.0,4095.0,3712.0,3274.0,4095.0,2.29,9.78,1.96,-0.0,-0.0,-0.03,1.0,i
3807.0,3887.0,3030.0,2683.0,4095.0,3728.0,3290.0,4095.0,2.18,9.71,1.88,-0.02,0.03,-0.03,1.0,i
3815.0,3899.0,3030.0,2688.0,4095.0,3736.0,3281.0,4095.0,2.18,9.73,1.86,-0.02,0.03,-0.03,1.0,i
3792.0,3884.0,3031.0,2682.0,4095.0,3728.0,3281.0,4095.0,2.23,9.76,1.74,-0.01,0.03,-0.02,1.0,i
3817.0,3873.0,3026.0,2688.0,4095.0,3733.0,3277.0,4095.0,2.3,9.8,1.65,-0.01,0.02,-0.03,1.0,i
3814.0,3870.0,3026.0,2686.0,4095.0,3711.0,3280.0,4095.0,2.17,9.76,1.68,-0.03,0.01,-0.05,1.0,i
3824.0,3889.0,3034.0,2688.0,4095.0,3725.0,3281.0,4095.0,2.14,9.77,1.68,-0.03,0.03,-0.04,1.0,i
3792.0,3857.0,3023.0,2674.0,4095.0,3723.0,3280.0,4095.0,2.21,9.79,1.69,-0.02,0.02,-0.04,1.0,i
3835.0,3877.0,3035.0,2690.0,4095.0,3750.0,3299.0,4095.0,1.96,9.84,1.31,-0.04,0.02,-0.06,1.0,i
3809.0,3858.0,3025.0,2685.0,4095.0,3719.0,3284.0,4095.0,1.91,9.84,1.25,-0.05,0.04,-0.05,1.0,i
3825.0,3894.0,3046.0,2698.0,4095.0,3733.0,3292.0,4095.0,2.06,9.86,1.21,-0.04,-0.01,-0.05,1.0,i
3808.0,3849.0,3028.0,2687.0,4095.0,3722.0,3287.0,4095.0,2.02,9.9,1.21,-0.03,-0.08,-0.08,1.0,i
3834.0,3870.0,3031.0,2704.0,4095.0,3734.0,3292.0,4095.0,1.89,9.88,1.3,-0.03,-0.04,-0.08,1.0,i
3815.0,3857.0,3026.0,2686.0,4095.0,3719.0,3285.0,4095.0,1.83,9.91,1.19,-0.01,-0.07,-0.06,1.0,i
3823.0,3887.0,3039.0,2687.0,4095.0,3727.0,3281.0,4095.0,1.86,9.91,1.13,-0.05,0.01,-0.05,1.0,i
3807.0,3863.0,3039.0,2697.0,4095.0,3735.0,3301.0,4095.0,1.91,9.94,1.1,-0.03,-0.02,-0.06,1.0,i
3809.0,3862.0,3037.0,2685.0,4095.0,3717.0,3275.0,4095.0,1.88,9.93,1.12,-0.01,-0.06,-0.08,1.0,i
3825.0,3871.0,3037.0,2689.0,4095.0,3731.0,3297.0,4095.0,1.84,9.95,1.07,-0.03,0.03,-0.08,1.0,i
3823.0,3861.0,3039.0,2687.0,4095.0,3719.0,3290.0,4095.0,1.63,9.9,1.13,-0.06,0.07,-0.09,1.0,i
3829.0,3859.0,3034.0,2695.0,4095.0,3739.0,3298.0,4095.0,1.71,9.97,0.98,-0.03,-0.04,-0.09,1.0,i
3821.0,3857.0,3031.0,2686.0,4095.0,3718.0,3281.0,4095.0,1.51,9.9,1.1,-0.02,-0.0,-0.1,1.0,i
3822.0,3854.0,3031.0,2688.0,4095.0,3726.0,3294.0,4095.0,1.47,9.97,0.9,0.0,-0.03,-0.07,1.0,i
3805.0,3862.0,3034.0,2685.0,4095.0,3727.0,3286.0,4095.0,1.58,10.02,0.83,-0.03,0.02,-0.04,1.0,i
3821.0,3857.0,3037.0,2685.0,4095.0,3746.0,3298.0,4095.0,1.59,9.96,0.9,-0.03,-0.03,-0.05,1.0,i
3819.0,3849.0,3034.0,2687.0,4095.0,3717.0,3283.0,4095.0,1.48,10.0,0.85,-0.05,0.0,-0.04,1.0,i
3808.0,3856.0,3028.0,2688.0,4095.0,3739.0,3289.0,4095.0,1.54,9.98,0.93,-0.05,0.02,-0.04,1.0,i
3835.0,3857.0,3036.0,2691.0,4095.0,3741.0,3303.0,4095.0,1.56,9.97,0.86,-0.03,-0.01,-0.05,1.0,i
3812.0,3858.0,3029.0,2687.0,4095.0,3715.0,3292.0,4095.0,1.53,9.99,0.87,-0.0,-0.03,-0.04,1.0,i
3819.0,3871.0,3039.0,2701.0,4095.0,3741.0,3318.0,4095.0,1.06,10.06,0.44,-0.01,-0.1,-0.13,1.0,i
3811.0,3878.0,3024.0,2693.0,4095.0,3758.0,3302.0,4095.0,0.95,10.08,0.53,0.01,-0.14,-0.22,1.0,i
3821.0,3885.0,3027.0,2687.0,4095.0,3760.0,3294.0,4095.0,0.65,9.99,0.39,0.08,-0.07,-0.22,1.0,i
3838.0,3915.0,3019.0,2684.0,4095.0,3765.0,3316.0,4095.0,0.25,10.08,0.08,0.03,-0.1,-0.18,1.0,i
3835.0,3910.0,3024.0,2688.0,4095.0,3781.0,3314.0,4095.0,0.46,10.0,0.06,-0.07,-0.02,-0.05,1.0,i
3851.0,3915.0,3014.0,2676.0,4095.0,3827.0,3353.0,4095.0,0.84,10.08,0.12,-0.03,-0.22,-0.3,1.0,i
3853.0,3905.0,3019.0,2675.0,4095.0,3818.0,3333.0,4095.0,0.01,10.02,0.26,-0.14,-0.24,-0.32,1.0,i
3841.0,3907.0,3024.0,2693.0,4095.0,3842.0,3357.0,4095.0,-0.59,9.92,0.33,-0.09,-0.12,-0.26,1.0,i
3838.0,3915.0,3023.0,2687.0,4095.0,3807.0,3335.0,4095.0,-1.0,9.93,0.4,-0.05,-0.06,-0.17,1.0,i
3855.0,3907.0,3024.0,2688.0,4095.0,3854.0,3363.0,4095.0,-0.59,9.98,0.45,-0.0,-0.02,-0.12,1.0,i
3856.0,3887.0,3009.0,2689.0,4095.0,3841.0,3349.0,4095.0,-0.65,9.99,0.24,-0.01,0.04,-0.05,1.0,i
3869.0,3911.0,3022.0,2693.0,4095.0,3856.0,3367.0,4095.0,-0.72,9.99,0.13,-0.06,0.03,-0.04,1.0,i
3847.0,3889.0,3018.0,2688.0,4095.0,3835.0,3353.0,4095.0,-0.59,10.07,0.2,-0.05,-0.01,-0.03,1.0,i
3850.0,3889.0,3024.0,2689.0,4095.0,3839.0,3345.0,4095.0,-0.54,10.05,0.21,-0.01,-0.02,-0.1,1.0,i
3846.0,3915.0,3033.0,2694.0,4095.0,3835.0,3359.0,4095.0,-0.75,10.03,0.14,-0.03,0.02,-0.08,1.0,i
3856.0,3887.0,3022.0,2686.0,4095.0,3826.0,3344.0,4095.0,-0.79,10.0,0.09,-0.05,-0.0,-0.07,1.0,i
3839.0,3907.0,3031.0,2695.0,4095.0,3827.0,3347.0,4095.0,-0.59,10.05,0.16,-0.06,-0.0,-0.1,1.0,i
3829.0,3887.0,3023.0,2685.0,4095.0,3825.0,3346.0,4095.0,-1.0,9.96,0.1,-0.02,-0.0,-0.08,1.0,i
3862.0,3901.0,3039.0,2693.0,4095.0,3841.0,3351.0,4095.0,-1.02,9.95,-0.11,-0.04,0.0,-0.06,1.0,i
3837.0,3886.0,3019.0,2688.0,4095.0,3846.0,3349.0,4095.0,-0.84,10.0,-0.01,-0.09,0.0,-0.05,1.0,i
3827.0,3904.0,3026.0,2700.0,4095.0,3838.0,3345.0,4095.0,-1.26,9.92,0.11,-0.13,0.13,-0.07,1.0,i
3865.0,3903.0,3035.0,2703.0,4095.0,3833.0,3358.0,4095.0,-1.17,9.98,0.16,-0.07,-0.0,-0.04,1.0,i
3850.0,3870.0,3022.0,2691.0,4095.0,3813.0,3345.0,4095.0,-0.96,9.97,0.18,-0.07,0.01,-0.04,1.0,i
3871.0,3904.0,3034.0,2703.0,4095.0,3835.0,3351.0,4095.0,-0.88,9.99,0.28,-0.06,-0.01,-0.05,1.0,i
3839.0,3883.0,3029.0,2698.0,4095.0,3836.0,3353.0,4095.0,-1.0,9.96,0.17,-0.08,0.0,-0.07,1.0,i
3849.0,3889.0,3037.0,2701.0,4095.0,3834.0,3351.0,4095.0,-1.0,9.96,0.3,-0.08,0.02,-0.07,1.0,i
3840.0,3879.0,3027.0,2704.0,4095.0,3831.0,3340.0,4095.0,-1.11,9.99,0.12,-0.03,-0.01,-0.05,1.0,i
3840.0,3881.0,3027.0,2705.0,4095.0,3837.0,3351.0,4095.0,-1.06,9.96,0.2,-0.07,-0.01,-0.06,1.0,i
3842.0,3888.0,3027.0,2702.0,4095.0,3826.0,3344.0,4095.0,-1.07,9.95,0.24,-0.09,-0.02,-0.09,1.0,i
3851.0,3907.0,3046.0,2706.0,4095.0,3845.0,3361.0,4095.0,-1.19,9.93,0.27,-0.09,-0.04,-0.07,1.0,i
3831.0,3879.0,3024.0,2695.0,4095.0,3824.0,3347.0,4095.0,-1.31,9.94,0.34,-0.12,0.01,-0.06,1.0,i
3850.0,3888.0,3035.0,2703.0,4095.0,3845.0,3358.0,4095.0,-1.29,9.93,0.46,-0.09,-0.02,-0.09,1.0,i
3843.0,3879.0,3029.0,2703.0,4095.0,3847.0,3370.0,4095.0,-1.46,9.91,0.4,-0.12,0.11,-0.05,1.0,i
3841.0,3879.0,3024.0,2694.0,4095.0,3830.0,3351.0,4095.0,-1.42,9.9,0.53,-0.09,0.05,-0.03,1.0,i
3851.0,3895.0,3035.0,2705.0,4095.0,3843.0,3361.0,4095.0,-1.15,9.93,0.52,-0.08,0.04,-0.04,1.0,i
3824.0,3885.0,3029.0,2698.0,4095.0,3836.0,3349.0,4095.0,-1.23,9.93,0.51,-0.09,-0.01,-0.05,1.0,i
3843.0,3885.0,3025.0,2704.0,4095.0,3831.0,3353.0,4095.0,-1.31,9.9,0.56,-0.08,-0.01,-0.05,1.0,i
3837.0,3879.0,3027.0,2698.0,4095.0,3827.0,3353.0,4095.0,-1.29,9.94,0.64,-0.09,0.02,-0.04,1.0,i
3846.0,3891.0,3030.0,2704.0,4095.0,3835.0,3347.0,4095.0,-1.35,9.95,0.59,-0.07,-0.0,-0.06,1.0,i
3834.0,3888.0,3023.0,2695.0,4095.0,3838.0,3347.0,4095.0,-1.36,9.92,0.59,-0.08,0.01,-0.04,1.0,i
3852.0,3895.0,3031.0,2706.0,4095.0,3827.0,3346.0,4095.0,-1.46,9.87,0.87,-0.07,0.01,-0.03,1.0,i
3827.0,3885.0,3041.0,2714.0,4095.0,3852.0,3360.0,4095.0,-1.32,9.92,0.7,-0.09,0.0,-0.05,1.0,i
3837.0,3895.0,3027.0,2703.0,4095.0,3824.0,3343.0,4095.0,-1.36,9.94,0.79,-0.11,-0.01,-0.05,1.0,i
3840.0,3871.0,3027.0,2708.0,4095.0,3855.0,3363.0,4095.0,-1.42,9.89,1.02,-0.12,-0.01,-0.03,1.0,i
3831.0,3889.0,3030.0,2709.0,4095.0,3833.0,3344.0,4095.0,-1.55,9.83,1.19,-0.1,0.03,-0.01,1.0,i
3850.0,3887.0,3037.0,2711.0,4095.0,3847.0,3349.0,4095.0,-1.39,9.88,0.99,-0.08,0.02,-0.02,1.0,i
3827.0,3869.0,3025.0,2705.0,4095.0,3824.0,3349.0,4095.0,-1.5,9.89,1.0,-0.1,0.01,-0.02,1.0,i
3839.0,3875.0,3029.0,2723.0,4095.0,3837.0,3344.0,4095.0,-1.36,9.9,1.06,-0.08,-0.01,-0.02,1.0,i
3856.0,3888.0,3035.0,2705.0,4095.0,3843.0,3363.0,4095.0,-1.26,9.89,1.11,-0.11,0.01,-0.01,1.0,i
3841.0,3878.0,3025.0,2707.0,4095.0,3837.0,3348.0,4095.0,-1.29,9.9,1.17,-0.11,-0.01,-0.03,1.0,i
3840.0,3886.0,3035.0,2711.0,4095.0,3845.0,3351.0,4095.0,-1.44,9.81,1.23,-0.09,0.01,-0.01,1.0,i
3831.0,3878.0,3027.0,2706.0,4095.0,3839.0,3350.0,4095.0,-1.23,9.93,1.1,-0.09,0.02,-0.04,1.0,i
3847.0,3905.0,3039.0,2710.0,4095.0,3857.0,3370.0,4095.0,-1.31,9.88,1.27,-0.1,-0.02,-0.06,1.0,i
3842.0,3881.0,3021.0,2703.0,4095.0,3841.0,3348.0,4095.0,-1.5,9.8,1.34,-0.12,0.03,-0.04,1.0,i
3847.0,3888.0,3024.0,2715.0,4095.0,3850.0,3351.0,4095.0,-1.36,9.87,1.45,-0.09,0.0,-0.04,1.0,i
3835.0,3856.0,3022.0,2707.0,4095.0,3846.0,3346.0,4095.0,-1.24,9.82,1.5,-0.06,-0.04,-0.06,1.0,i
3861.0,3887.0,3034.0,2718.0,4095.0,3853.0,3365.0,4095.0,-1.31,9.82,1.42,-0.08,-0.02,-0.02,1.0,i
3858.0,3873.0,3026.0,2711.0,4095.0,3824.0,3346.0,4095.0,-1.44,9.82,1.41,-0.12,0.04,-0.01,1.0,i
3858.0,3893.0,3034.0,2712.0,4095.0,3856.0,3358.0,4095.0,-1.29,9.86,1.51,-0.11,0.02,-0.02,1.0,i
3861.0,3888.0,3030.0,2712.0,4095.0,3855.0,3364.0,4095.0,-1.32,9.82,1.55,-0.11,0.01,-0.02,1.0,i
3849.0,3905.0,3038.0,2719.0,4095.0,3856.0,3356.0,4095.0,-1.0,9.82,2.0,-0.11,-0.05,0.03,1.0,i
3834.0,3866.0,3023.0,2705.0,4095.0,3842.0,3351.0,4095.0,-1.01,9.81,2.05,-0.12,0.04,0.01,1.0,i
3856.0,3909.0,3031.0,2719.0,4095.0,3845.0,3353.0,4095.0,-1.07,9.76,2.06,-0.1,0.03,0.01,1.0,i
3851.0,3882.0,3017.0,2706.0,4095.0,3834.0,3350.0,4095.0,-1.14,9.81,1.94,-0.12,0.08,0.03,1.0,i
3847.0,3859.0,3029.0,2722.0,4095.0,3845.0,3351.0,4095.0,-0.92,9.83,2.03,-0.1,0.02,0.0,1.0,i
3856.0,3879.0,3032.0,2715.0,4095.0,3845.0,3357.0,4095.0,-0.92,9.8,2.1,-0.07,0.02,-0.01,1.0,i
3841.0,3866.0,3026.0,2705.0,4095.0,3838.0,3347.0,4095.0,-0.94,9.79,2.07,-0.07,-0.02,-0.0,1.0,i
3849.0,3871.0,3035.0,2711.0,4095.0,3849.0,3367.0,4095.0,-0.94,9.81,2.08,-0.09,0.06,0.0,1.0,i
3841.0,3876.0,3033.0,2710.0,4095.0,3831.0,3344.0,4095.0,-0.84,9.84,2.1,-0.08,0.01,-0.02,1.0,i
3853.0,3872.0,3031.0,2719.0,4095.0,3849.0,3360.0,4095.0,-0.89,9.81,2.12,-0.08,0.01,-0.02,1.0,i
3845.0,3869.0,3030.0,2711.0,4095.0,3831.0,3349.0,4095.0,-1.0,9.79,2.16,-0.09,0.02,0.01,1.0,i
3856.0,3877.0,3035.0,2725.0,4095.0,3837.0,3355.0,4095.0,-0.93,9.77,2.26,-0.09,0.06,0.02,1.0,i
3854.0,3874.0,3024.0,2717.0,4095.0,3825.0,3345.0,4095.0,-0.77,9.78,2.2,-0.07,0.03,0.03,1.0,i
3857.0,3895.0,3039.0,2726.0,4095.0,3840.0,3359.0,4095.0,-0.67,9.8,2.12,-0.09,0.01,-0.0,1.0,i
3843.0,3875.0,3026.0,2719.0,4095.0,3843.0,3351.0,4095.0,-0.72,9.79,2.26,-0.1,0.05,0.01,1.0,i
3839.0,3888.0,3031.0,2724.0,4095.0,3837.0,3350.0,4095.0,-0.62,9.79,2.29,-0.06,0.01,0.01,1.0,i
3841.0,3888.0,3033.0,2717.0,4095.0,3822.0,3345.0,4095.0,-0.54,9.83,2.27,-0.06,0.01,0.01,1.0,i
3839.0,3877.0,3029.0,2717.0,4095.0,3825.0,3347.0,4095.0,-0.51,9.82,2.29,-0.08,0.01,0.0,1.0,i
3867.0,3899.0,3027.0,2719.0,4095.0,3841.0,3353.0,4095.0,-0.57,9.82,2.14,-0.06,-0.02,0.02,1.0,i
3824.0,3858.0,3022.0,2711.0,4095.0,3840.0,3359.0,4095.0,-0.25,9.85,2.35,-0.06,0.03,-0.01,1.0,i
3842.0,3861.0,3038.0,2721.0,4095.0,3839.0,3356.0,4095.0,-0.16,9.92,1.95,-0.05,0.06,0.01,1.0,i
3858.0,3884.0,3039.0,2723.0,4095.0,3858.0,3370.0,4095.0,-0.01,9.95,1.93,-0.02,-0.0,-0.0,1.0,i
3847.0,3869.0,3025.0,2718.0,4095.0,3830.0,3355.0,4095.0,-0.05,9.94,1.93,-0.05,0.05,-0.01,1.0,i
3854.0,3902.0,3039.0,2717.0,4095.0,3854.0,3369.0,4095.0,-0.18,9.93,1.84,-0.02,0.01,-0.03,1.0,i
3839.0,3863.0,3031.0,2731.0,4095.0,3839.0,3350.0,4095.0,0.01,9.94,1.9,-0.03,0.0,-0.01,1.0,i
3856.0,3870.0,3036.0,2722.0,4095.0,3849.0,3359.0,4095.0,-0.03,9.95,1.81,-0.04,0.01,-0.02,1.0,i
3837.0,3869.0,3021.0,2715.0,4095.0,3827.0,3358.0,4095.0,-0.07,9.91,1.82,-0.06,-0.02,-0.04,1.0,i
3834.0,3879.0,3031.0,2723.0,4095.0,3851.0,3359.0,4095.0,-0.05,9.93,1.91,-0.07,0.03,-0.02,1.0,i
3838.0,3856.0,3026.0,2713.0,4095.0,3842.0,3354.0,4095.0,0.06,9.92,1.92,-0.04,-0.01,-0.01,1.0,i
3856.0,3886.0,3031.0,2724.0,4095.0,3847.0,3355.0,4095.0,0.13,9.97,1.81,-0.04,-0.02,-0.05,1.0,i
3858.0,3892.0,3031.0,2725.0,4095.0,3845.0,3362.0,4095.0,0.02,9.96,1.81,-0.04,0.01,-0.05,1.0,i
3856.0,3870.0,3024.0,2716.0,4095.0,3838.0,3356.0,4095.0,-0.13,9.94,1.72,-0.03,-0.08,-0.04,1.0,i
3860.0,3889.0,3041.0,2727.0,4095.0,3853.0,3362.0,4095.0,-0.13,9.9,1.87,-0.02,-0.09,-0.04,1.0,i
3839.0,3873.0,3030.0,2721.0,4095.0,3829.0,3345.0,4095.0,-0.26,9.91,1.76,-0.06,0.03,0.04,1.0,i
3871.0,3885.0,3031.0,2723.0,4095.0,3836.0,3366.0,4095.0,0.2,9.96,2.03,-0.01,0.04,0.01,1.0,i
3843.0,3856.0,3026.0,2718.0,4095.0,3835.0,3358.0,4095.0,-0.0,9.99,1.55,0.01,-0.03,0.0,1.0,i
3843.0,3859.0,3028.0,2719.0,4095.0,3851.0,3362.0,4095.0,0.31,10.07,1.42,-0.01,-0.07,0.01,1.0,i
3849.0,3858.0,3027.0,2721.0,4095.0,3834.0,3353.0,4095.0,0.17,9.97,1.45,-0.06,0.03,-0.0,1.0,i
3841.0,3877.0,3031.0,2726.0,4095.0,3849.0,3357.0,4095.0,0.22,9.96,1.57,-0.06,0.01,-0.01,1.0,i
3829.0,3867.0,3031.0,2717.0,4095.0,3839.0,3349.0,4095.0,0.04,10.02,1.41,-0.06,-0.01,-0.02,1.0,i
3823.0,3871.0,3028.0,2722.0,4095.0,3843.0,3354.0,4095.0,0.13,9.91,1.51,-0.04,0.07,-0.03,1.0,i
3849.0,3871.0,3035.0,2724.0,4095.0,3836.0,3357.0,4095.0,0.37,10.01,1.28,0.01,0.05,-0.05,1.0,i
3843.0,3876.0,3026.0,2723.0,4095.0,3837.0,3348.0,4095.0,0.18,9.99,0.98,0.05,-0.0,-0.02,1.0,i
3845.0,3878.0,3037.0,2723.0,4095.0,3855.0,3359.0,4095.0,0.21,10.08,0.75,0.02,0.04,0.01,1.0,i
3843.0,3871.0,3024.0,2721.0,4095.0,3842.0,3354.0,4095.0,0.42,10.09,0.98,-0.07,-0.1,-0.09,1.0,i
3856.0,3875.0,3030.0,2717.0,4095.0,3831.0,3347.0,4095.0,0.38,10.01,0.95,-0.01,0.04,-0.01,1.0,i
3861.0,3892.0,3046.0,2730.0,4095.0,3879.0,3364.0,4095.0,-0.02,10.06,0.39,-0.04,0.07,-0.01,1.0,i
3855.0,3881.0,3024.0,2722.0,4095.0,3838.0,3360.0,4095.0,0.38,9.96,1.08,-0.12,-0.02,0.05,1.0,i
3871.0,3889.0,3039.0,2733.0,4095.0,3861.0,3365.0,4095.0,0.69,10.02,1.12,-0.03,0.12,0.09,1.0,i
3835.0,3863.0,3026.0,2720.0,4095.0,3847.0,3351.0,4095.0,0.78,10.18,0.59,-0.1,0.15,0.01,1.0,i
3869.0,3881.0,3039.0,2719.0,4095.0,3853.0,3367.0,4095.0,0.4,10.1,0.64,-0.08,0.01,-0.03,1.0,i
3841.0,3855.0,3027.0,2720.0,4095.0,3833.0,3361.0,4095.0,0.51,10.0,1.14,-0.11,-0.01,-0.03,1.0,i
3839.0,3870.0,3046.0,2726.0,4095.0,3879.0,3358.0,4095.0,0.68,9.95,1.3,-0.04,0.04,0.0,1.0,i
3839.0,3859.0,3027.0,2704.0,4095.0,3839.0,3354.0,4095.0,0.69,10.07,1.02,-0.06,0.05,-0.08,1.0,i
3874.0,3862.0,3036.0,2719.0,4095.0,3840.0,3361.0,4095.0,0.36,10.13,0.75,-0.16,0.59,-0.01,1.0,i
3856.0,3876.0,3023.0,2710.0,4095.0,3838.0,3355.0,4095.0,0.18,9.94,1.31,-0.22,0.2,-0.05,1.0,i
3857.0,3863.0,3030.0,2720.0,4095.0,3851.0,3359.0,4095.0,0.71,9.97,1.67,-0.07,-0.02,-0.1,1.0,i
3861.0,3874.0,3030.0,2723.0,4095.0,3873.0,3371.0,4095.0,0.34,10.07,1.2,-0.02,0.08,-0.08,1.0,i
3854.0,3856.0,3031.0,2719.0,4095.0,3842.0,3344.0,4095.0,0.32,10.01,1.14,-0.05,0.1,-0.04,1.0,i
3859.0,3879.0,3043.0,2727.0,4095.0,3858.0,3359.0,4095.0,0.5,10.08,1.08,-0.09,0.05,-0.09,1.0,i
3325.0,3155.0,3024.0,2770.0,3989.0,3665.0,3699.0,4095.0,0.23,9.99,0.89,0.12,-0.02,-0.03,1.0,i
3315.0,3150.0,3024.0,2765.0,4016.0,3664.0,3716.0,4095.0,0.54,10.12,-0.21,0.02,0.03,0.05,1.0,i
3313.0,3169.0,3019.0,2767.0,4017.0,3664.0,3729.0,4095.0,0.89,10.15,0.25,-0.13,0.08,-0.08,1.0,i
3309.0,3158.0,3018.0,2758.0,4007.0,3664.0,3727.0,4095.0,0.4,9.99,0.98,-0.16,-0.05,-0.1,1.0,i
3322.0,3150.0,3023.0,2770.0,4030.0,3670.0,3726.0,4095.0,-0.48,9.97,0.21,0.07,0.13,-0.01,1.0,i
3298.0,3152.0,3017.0,2764.0,4011.0,3661.0,3722.0,4095.0,0.33,10.18,-0.28,-0.07,0.19,0.14,1.0,i
3309.0,3141.0,3027.0,2762.0,4035.0,3669.0,3727.0,4095.0,0.78,10.14,0.51,-0.22,0.13,0.07,1.0,i
3301.0,3143.0,3022.0,2766.0,4049.0,3683.0,3741.0,4095.0,0.59,10.05,0.68,-0.12,0.05,0.03,1.0,i
3312.0,3151.0,3024.0,2755.0,4016.0,3661.0,3728.0,4095.0,0.59,9.91,0.82,-0.09,0.05,0.03,1.0,i
3316.0,3140.0,3035.0,2754.0,4031.0,3687.0,3753.0,4095.0,0.99,10.15,0.41,-0.01,0.12,0.02,1.0,i
3312.0,3142.0,3023.0,2752.0,4016.0,3667.0,3735.0,4095.0,0.99,10.07,0.64,-0.06,-0.04,-0.05,1.0,i
3317.0,3143.0,3022.0,2762.0,4038.0,3681.0,3749.0,4095.0,0.59,10.0,0.65,-0.1,0.09,-0.04,1.0,i
3296.0,3133.0,3019.0,2763.0,4036.0,3686.0,3744.0,4095.0,0.58,9.98,0.84,0.02,-0.25,-0.09,1.0,i
3313.0,3162.0,3024.0,2761.0,4048.0,3712.0,3761.0,4095.0,0.66,9.99,0.35,0.09,-0.09,-0.02,1.0,i
3312.0,3152.0,3010.0,2767.0,4035.0,3696.0,3761.0,4095.0,1.14,10.24,0.05,0.06,-0.3,-0.02,1.0,i
3303.0,3178.0,3024.0,2761.0,4032.0,3712.0,3771.0,4095.0,0.52,9.99,0.23,-0.06,-0.09,-0.12,1.0,i
3314.0,3172.0,3013.0,2768.0,4033.0,3703.0,3758.0,4095.0,0.58,10.06,0.01,-0.09,0.03,-0.01,1.0,i
3317.0,3200.0,3024.0,2729.0,4050.0,3723.0,3794.0,4095.0,1.23,10.24,0.2,-0.39,1.19,0.04,1.0,i
3313.0,3207.0,3024.0,2741.0,4083.0,3746.0,3815.0,4095.0,0.35,9.99,0.72,0.04,-0.31,-0.15,1.0,i
3306.0,3194.0,3015.0,2739.0,4048.0,3728.0,3803.0,4095.0,0.6,10.01,0.65,-0.0,0.0,-0.08,1.0,i
3321.0,3206.0,3024.0,2770.0,4085.0,3726.0,3808.0,4095.0,0.65,10.01,0.72,-0.11,0.13,-0.01,1.0,i
3317.0,3190.0,3029.0,2759.0,4058.0,3710.0,3802.0,4095.0,0.91,10.02,1.09,-0.05,-0.01,-0.02,1.0,i
3321.0,3197.0,3018.0,2772.0,4086.0,3728.0,3824.0,4095.0,0.67,10.13,0.38,-0.02,0.05,-0.04,1.0,i
3317.0,3190.0,3021.0,2768.0,4069.0,3722.0,3809.0,4095.0,0.74,10.08,0.62,-0.1,-0.04,-0.03,1.0,i
3310.0,3205.0,3017.0,2768.0,4066.0,3728.0,3823.0,4095.0,1.08,10.09,1.32,-0.06,-0.09,-0.0,1.0,i
3307.0,3203.0,3026.0,2774.0,4086.0,3735.0,3821.0,4095.0,1.0,10.1,0.75,0.08,0.17,-0.12,1.0,i
3308.0,3197.0,3022.0,2773.0,4074.0,3713.0,3813.0,4095.0,0.84,10.17,0.25,0.11,-0.08,-0.18,1.0,i
3314.0,3200.0,3042.0,2781.0,4077.0,3731.0,3814.0,4095.0,-0.15,9.8,0.53,-0.07,0.1,-0.07,1.0,i
3301.0,3185.0,3021.0,2770.0,4059.0,3707.0,3810.0,4095.0,0.4,9.99,0.45,-0.04,-0.03,0.05,1.0,i
3322.0,3185.0,3029.0,2790.0,4095.0,3727.0,3824.0,4095.0,1.14,10.19,0.24,-0.01,-0.24,-0.06,1.0,i
3303.0,3180.0,3028.0,2793.0,4080.0,3713.0,3813.0,4095.0,0.5,10.08,0.32,-0.1,0.04,-0.04,1.0,i
3318.0,3205.0,3041.0,2801.0,4095.0,3718.0,3815.0,4095.0,0.29,9.95,0.32,-0.02,-0.1,-0.02,1.0,i
3325.0,3183.0,3020.0,2793.0,4077.0,3696.0,3815.0,4095.0,0.88,10.12,0.37,-0.08,-0.04,0.04,1.0,i
3312.0,3199.0,3030.0,2800.0,4076.0,3707.0,3823.0,4095.0,0.96,10.05,0.72,-0.16,-0.01,-0.07,1.0,i
3312.0,3184.0,3027.0,2800.0,4095.0,3715.0,3815.0,4095.0,0.62,10.15,0.1,-0.14,0.16,-0.12,1.0,i
3312.0,3195.0,3024.0,2800.0,4095.0,3726.0,3810.0,4095.0,-0.0,9.86,0.66,-0.27,0.13,-0.03,1.0,i
3306.0,3186.0,3021.0,2785.0,4067.0,3704.0,3818.0,4095.0,0.85,10.04,1.1,-0.11,-0.12,-0.06,1.0,i
3319.0,3184.0,3029.0,2794.0,4074.0,3709.0,3799.0,4095.0,0.3,10.03,0.71,-0.06,0.07,-0.03,1.0,i
3322.0,3183.0,3031.0,2800.0,4095.0,3715.0,3819.0,4095.0,0.55,10.07,0.88,-0.13,0.01,0.04,1.0,i
3307.0,3184.0,3014.0,2791.0,4095.0,3710.0,3809.0,4095.0,0.67,9.99,1.0,-0.09,0.06,-0.01,1.0,i
3312.0,3366.0,3029.0,2807.0,4095.0,3757.0,3845.0,4095.0,0.13,10.1,0.43,-0.04,-0.09,-0.07,1.0,i
3326.0,3378.0,3022.0,2801.0,4095.0,3742.0,3840.0,4095.0,-0.05,10.1,0.46,-0.04,-0.08,-0.09,1.0,i
3319.0,3401.0,3023.0,2800.0,4095.0,3763.0,3865.0,4095.0,-0.03,10.13,0.46,-0.01,-0.05,-0.13,1.0,i
3314.0,3388.0,3015.0,2805.0,4095.0,3750.0,3851.0,4095.0,-0.14,10.11,0.3,-0.02,-0.03,-0.12,1.0,i
3321.0,3394.0,3025.0,2805.0,4095.0,3758.0,3853.0,4095.0,-0.23,10.09,0.18,-0.05,-0.0,-0.12,1.0,i
3310.0,3376.0,3010.0,2800.0,4095.0,3760.0,3853.0,4095.0,-0.36,10.01,0.31,-0.11,-0.03,-0.12,1.0,i
3318.0,3376.0,3024.0,2805.0,4095.0,3758.0,3881.0,4095.0,-0.45,10.07,0.46,-0.12,-0.07,-0.13,1.0,i
3298.0,3391.0,3014.0,2809.0,4095.0,3746.0,3851.0,4095.0,-0.74,9.96,0.67,-0.11,-0.05,-0.09,1.0,i
3313.0,3379.0,3024.0,2805.0,4095.0,3753.0,3856.0,4095.0,-0.65,10.01,0.61,-0.07,-0.04,-0.07,1.0,i
3312.0,3375.0,3020.0,2803.0,4095.0,3747.0,3856.0,4095.0,-0.69,9.99,0.57,-0.04,-0.01,-0.06,1.0,i
3319.0,3394.0,3022.0,2806.0,4095.0,3777.0,3867.0,4095.0,-0.65,10.0,0.5,-0.05,-0.01,-0.03,1.0,i
3307.0,3379.0,3024.0,2805.0,4095.0,3747.0,3854.0,4095.0,-0.55,10.04,0.5,-0.05,0.0,-0.06,1.0,i
3315.0,3398.0,3024.0,2814.0,4095.0,3755.0,3856.0,4095.0,-0.75,9.98,0.54,-0.08,-0.01,-0.05,1.0,i
3312.0,3391.0,3026.0,2814.0,4095.0,3766.0,3861.0,4095.0,-0.69,10.02,0.59,-0.07,-0.04,-0.04,1.0,i
3311.0,3385.0,3024.0,2787.0,4095.0,3755.0,3839.0,4095.0,-0.54,10.04,0.48,-0.06,-0.21,-0.06,1.0,i
3317.0,3401.0,3025.0,2782.0,4095.0,3773.0,3850.0,4095.0,-0.75,9.98,0.62,-0.11,-0.09,-0.06,1.0,i
3305.0,3387.0,3006.0,2770.0,4095.0,3761.0,3855.0,4095.0,-0.87,9.89,0.93,-0.08,-0.02,-0.03,1.0,i
3311.0,3408.0,3024.0,2787.0,4095.0,3771.0,3849.0,4095.0,-0.57,10.07,0.64,-0.07,0.02,-0.03,1.0,i
3312.0,3407.0,3022.0,2778.0,4095.0,3768.0,3833.0,4095.0,-0.58,10.08,0.56,-0.1,-0.02,-0.07,1.0,i
3312.0,3407.0,3029.0,2782.0,4095.0,3763.0,3845.0,4095.0,-0.83,10.0,0.73,-0.17,0.02,-0.09,1.0,i
3323.0,3694.0,3026.0,2805.0,4095.0,3820.0,3892.0,4095.0,-0.54,9.92,1.62,-0.08,0.05,0.01,1.0,i
3312.0,3669.0,3007.0,2800.0,4095.0,3799.0,3885.0,4095.0,-0.52,9.96,1.4,-0.13,0.02,-0.04,1.0,i
3309.0,3664.0,3024.0,2805.0,4095.0,3825.0,3904.0,4095.0,-0.64,9.94,1.63,-0.15,-0.03,-0.04,1.0,i
3312.0,3670.0,3017.0,2799.0,4095.0,3796.0,3888.0,4095.0,-0.44,9.93,1.88,-0.24,0.22,0.01,1.0,i
3320.0,3686.0,3024.0,2802.0,4095.0,3819.0,3910.0,4095.0,-0.62,9.81,2.14,-0.17,0.13,-0.01,1.0,i
3311.0,3664.0,3015.0,2800.0,4095.0,3824.0,3905.0,4095.0,-0.53,9.87,2.12,-0.11,0.04,-0.0,1.0,i
3298.0,3682.0,3019.0,2801.0,4095.0,3809.0,3877.0,4095.0,-0.64,9.85,2.07,-0.08,0.03,0.02,1.0,i
3312.0,3664.0,3024.0,2802.0,4095.0,3819.0,3903.0,4095.0,-0.48,9.85,1.92,-0.12,0.01,0.05,1.0,i
3304.0,3664.0,3021.0,2799.0,4095.0,3786.0,3875.0,4095.0,-0.2,9.85,2.31,-0.15,-0.05,0.03,1.0,i
3318.0,3683.0,3031.0,2805.0,4095.0,3821.0,3890.0,4095.0,-0.4,9.82,2.29,-0.1,-0.01,0.04,1.0,i
3309.0,3651.0,3022.0,2800.0,4095.0,3799.0,3895.0,4095.0,-0.12,9.86,2.35,-0.04,-0.04,0.06,1.0,i
3314.0,3667.0,3022.0,2805.0,4095.0,3811.0,3889.0,4095.0,-0.12,9.88,2.26,-0.06,0.0,0.06,1.0,i
3306.0,3665.0,3022.0,2799.0,4095.0,3809.0,3885.0,4095.0,0.13,9.79,2.55,-0.05,-0.07,0.03,1.0,i
3323.0,3664.0,3023.0,2797.0,4095.0,3826.0,3915.0,4095.0,0.04,9.91,2.12,-0.04,0.1,0.0,1.0,i
3297.0,3653.0,3026.0,2800.0,4095.0,3801.0,3870.0,4095.0,-0.41,9.83,1.91,-0.04,-0.02,0.04,1.0,i
3312.0,3674.0,3014.0,2814.0,4095.0,3818.0,3891.0,4095.0,0.25,9.84,2.34,-0.1,0.03,0.08,1.0,i
3322.0,3661.0,3030.0,2800.0,4095.0,3802.0,3889.0,4095.0,0.51,9.95,2.3,-0.02,-0.01,-0.06,1.0,i
3309.0,3667.0,3020.0,2794.0,4095.0,3802.0,3874.0,4095.0,0.06,9.92,2.0,-0.06,0.01,-0.05,1.0,i
3319.0,3679.0,3023.0,2801.0,4095.0,3823.0,3909.0,4095.0,0.0,9.82,2.24,-0.12,0.04,-0.0,1.0,i
3315.0,3658.0,3008.0,2797.0,4095.0,3819.0,3883.0,4095.0,0.27,9.83,2.5,-0.06,-0.01,-0.02,1.0,i
3322.0,3678.0,3024.0,2800.0,4095.0,3821.0,3899.0,4095.0,0.29,9.85,2.15,-0.08,0.01,-0.0,1.0,i
3312.0,3664.0,3024.0,2798.0,4095.0,3814.0,3888.0,4095.0,0.5,9.85,2.43,-0.08,-0.01,0.02,1.0,i
3312.0,3671.0,3018.0,2799.0,4095.0,3810.0,3893.0,4095.0,0.33,9.86,2.25,-0.08,0.1,0.03,1.0,i
3304.0,3679.0,3018.0,2798.0,4095.0,3807.0,3882.0,4095.0,0.44,9.85,2.36,-0.08,0.03,0.04,1.0,i
3312.0,3664.0,3024.0,2800.0,4095.0,3799.0,3874.0,4095.0,0.47,9.8,2.33,-0.06,0.08,0.04,1.0,i
3325.0,3682.0,3038.0,2805.0,4095.0,3823.0,3907.0,4095.0,0.82,9.89,2.35,-0.04,0.0,0.03,1.0,i
3301.0,3658.0,3020.0,2800.0,4095.0,3811.0,3897.0,4095.0,0.54,9.83,2.23,-0.09,-0.01,0.04,1.0,i
3312.0,3658.0,3023.0,2803.0,4095.0,3814.0,3893.0,4095.0,0.77,9.92,2.36,-0.07,-0.23,-0.02,1.0,i
3309.0,3655.0,3020.0,2800.0,4095.0,3815.0,3886.0,4095.0,0.99,9.79,2.6,0.0,-0.43,-0.07,1.0,i
3323.0,3666.0,3033.0,2805.0,4095.0,3817.0,3905.0,4095.0,0.78,9.88,2.06,-0.01,0.15,0.0,1.0,i
3312.0,3648.0,3014.0,2800.0,4095.0,3814.0,3873.0,4095.0,1.32,9.97,2.19,-0.11,0.13,-0.0,1.0,i
3312.0,3661.0,3027.0,2807.0,4095.0,3798.0,3887.0,4095.0,0.76,9.84,2.44,-0.09,0.21,-0.07,1.0,i
3309.0,3662.0,3024.0,2800.0,4095.0,3799.0,3878.0,4095.0,0.6,9.76,2.31,0.0,0.01,-0.03,1.0,i
3314.0,3665.0,3027.0,2801.0,4095.0,3830.0,3905.0,4095.0,0.95,9.91,2.14,-0.08,0.02,-0.02,1.0,i
3305.0,3664.0,3029.0,2793.0,4095.0,3795.0,3888.0,4095.0,1.09,9.83,2.5,-0.09,-0.02,-0.04,1.0,i
3315.0,3681.0,3027.0,2796.0,4095.0,3810.0,3870.0,4095.0,1.11,9.8,2.47,0.04,0.06,-0.12,1.0,i
3314.0,3650.0,3021.0,2794.0,4095.0,3825.0,3892.0,4095.0,0.01,9.65,2.32,0.03,-0.01,-0.09,1.0,i
3313.0,3647.0,3024.0,2786.0,4095.0,3822.0,3891.0,4095.0,0.83,9.85,2.28,0.1,0.06,0.04,1.0,i
3312.0,3649.0,3029.0,2796.0,4095.0,3827.0,3898.0,4095.0,0.77,9.97,1.63,0.05,0.15,0.03,1.0,i
3301.0,3648.0,3024.0,2795.0,4095.0,3818.0,3872.0,4095.0,0.94,9.97,1.68,0.0,0.02,0.01,1.0,i
3307.0,3659.0,3023.0,2794.0,4095.0,3781.0,3877.0,4095.0,0.8,10.04,1.33,-0.06,-0.03,-0.05,1.0,i
3317.0,3655.0,3024.0,2800.0,4095.0,3785.0,3902.0,4095.0,0.72,10.01,1.28,-0.05,0.0,-0.04,1.0,i
3312.0,3654.0,3013.0,2791.0,4095.0,3776.0,3888.0,4095.0,0.54,9.99,1.23,-0.05,-0.01,-0.05,1.0,i
3329.0,3666.0,3031.0,2805.0,4095.0,3798.0,3888.0,4095.0,0.76,10.05,1.32,-0.08,-0.04,-0.04,1.0,i
3312.0,3658.0,3017.0,2795.0,4095.0,3781.0,3888.0,4095.0,0.56,10.02,1.18,-0.04,0.02,-0.05,1.0,i
3314.0,3675.0,3036.0,2808.0,4095.0,3792.0,3879.0,4095.0,0.73,9.96,1.43,-0.06,-0.01,-0.07,1.0,i
3318.0,3655.0,3024.0,2794.0,4095.0,3792.0,3911.0,4095.0,0.8,10.02,1.44,-0.05,-0.03,-0.06,1.0,i
3317.0,3641.0,3015.0,2797.0,4095.0,3774.0,3878.0,4095.0,0.26,10.05,1.02,-0.03,0.09,-0.1,1.0,i
3319.0,3666.0,3031.0,2806.0,4095.0,3801.0,3907.0,4095.0,0.37,9.97,1.34,-0.04,-0.03,-0.06,1.0,i
3312.0,3648.0,3024.0,2795.0,4095.0,3775.0,3881.0,4095.0,0.75,10.0,1.44,-0.01,-0.02,-0.09,1.0,i
3314.0,3650.0,3035.0,2806.0,4095.0,3789.0,3907.0,4095.0,0.3,10.04,0.86,-0.04,0.04,-0.07,1.0,i
3312.0,3639.0,3017.0,2796.0,4095.0,3773.0,3892.0,4095.0,0.09,9.94,1.16,-0.13,0.07,-0.02,1.0,i
3310.0,3664.0,3034.0,2800.0,4095.0,3806.0,3889.0,4095.0,0.71,10.08,1.23,-0.06,0.02,-0.03,1.0,i
3306.0,3648.0,3024.0,2791.0,4095.0,3786.0,3888.0,4095.0,0.13,10.04,1.01,-0.12,0.01,-0.04,1.0,i
3321.0,3662.0,3033.0,2803.0,4095.0,3787.0,3902.0,4095.0,0.43,10.0,1.38,-0.07,-0.04,-0.04,1.0,i
3322.0,3654.0,3026.0,2801.0,4095.0,3785.0,3869.0,4095.0,0.54,9.96,1.47,-0.09,-0.04,-0.01,1.0,i
3312.0,3662.0,3025.0,2802.0,4095.0,3798.0,3904.0,4095.0,0.1,9.91,1.28,-0.1,0.03,0.01,1.0,i
3309.0,3647.0,3028.0,2800.0,4095.0,3789.0,3888.0,4095.0,0.85,10.0,1.57,-0.07,-0.01,0.0,1.0,i
3319.0,3664.0,3034.0,2800.0,4095.0,3777.0,3879.0,4095.0,0.16,10.07,1.07,-0.1,-0.0,-0.06,1.0,i
3317.0,3645.0,3023.0,2800.0,4095.0,3821.0,3886.0,4095.0,0.34,10.02,1.34,-0.11,0.02,0.02,1.0,i
3312.0,3653.0,3023.0,2800.0,4095.0,3825.0,3898.0,4095.0,-0.62,9.93,1.27,-0.17,-0.03,-0.07,1.0,i
3316.0,3664.0,3034.0,2821.0,4095.0,3806.0,3904.0,4095.0,-0.45,9.87,1.78,-0.11,0.03,0.02,1.0,i
3305.0,3665.0,3024.0,2805.0,4095.0,3797.0,3894.0,4095.0,-0.47,9.98,1.34,-0.06,0.07,0.08,1.0,i
3323.0,3664.0,3033.0,2803.0,4095.0,3803.0,3903.0,4095.0,0.07,9.95,1.8,-0.18,-0.02,-0.03,1.0,i
3309.0,3639.0,3021.0,2800.0,4095.0,3795.0,3899.0,4095.0,-0.38,10.0,1.39,-0.17,0.16,0.03,1.0,i
3318.0,3661.0,3021.0,2805.0,4095.0,3815.0,3920.0,4095.0,-0.2,9.91,1.76,-0.17,-0.03,-0.03,1.0,i
3312.0,3646.0,3023.0,2806.0,4095.0,3796.0,3886.0,4095.0,-0.42,9.82,2.04,-0.08,0.07,0.06,1.0,i
3326.0,3664.0,3024.0,2807.0,4095.0,3799.0,3906.0,4095.0,-0.04,10.03,1.61,-0.04,0.06,0.11,1.0,i
3307.0,3659.0,3023.0,2807.0,4095.0,3812.0,3899.0,4095.0,0.36,9.89,2.32,-0.14,-0.06,0.0,1.0,i
3302.0,3648.0,3018.0,2811.0,4095.0,3811.0,3895.0,4095.0,0.11,9.87,2.2,-0.04,0.08,-0.06,1.0,i
3313.0,3666.0,3029.0,2814.0,4095.0,3801.0,3892.0,4095.0,0.17,9.96,1.82,0.01,0.01,-0.04,1.0,i
3307.0,3646.0,3017.0,2803.0,4095.0,3803.0,3898.0,4095.0,-0.13,9.96,1.31,0.04,0.02,-0.02,1.0,i
3312.0,3671.0,3030.0,2807.0,4095.0,3831.0,3888.0,4095.0,-0.19,10.07,1.07,-0.09,0.0,0.02,1.0,i
3309.0,3642.0,3015.0,2806.0,4095.0,3786.0,3890.0,4095.0,0.35,9.92,2.2,-0.22,-0.07,0.03,1.0,i
3312.0,3664.0,3034.0,2816.0,4095.0,3815.0,3901.0,4095.0,0.34,9.83,2.48,-0.04,0.03,-0.09,1.0,i
3308.0,3664.0,3027.0,2809.0,4095.0,3789.0,3875.0,4095.0,-0.08,9.92,1.64,0.03,0.02,-0.06,1.0,i
3311.0,3664.0,3021.0,2813.0,4095.0,3818.0,3911.0,4095.0,-0.04,10.06,1.23,0.0,0.05,0.01,1.0,i
3315.0,3648.0,3021.0,2810.0,4095.0,3792.0,3878.0,4095.0,0.23,10.01,1.63,-0.16,-0.02,0.03,1.0,i
3327.0,3661.0,3026.0,2816.0,4095.0,3821.0,3914.0,4095.0,0.45,9.88,2.37,-0.06,-0.01,-0.07,1.0,i
3311.0,3638.0,3023.0,2810.0,4095.0,3804.0,3895.0,4095.0,-0.09,9.9,1.78,-0.01,0.02,-0.06,1.0,i
3306.0,3646.0,3020.0,2811.0,4095.0,3809.0,3887.0,4095.0,0.16,9.95,1.86,-0.09,0.01,-0.02,1.0,i
3329.0,3669.0,3025.0,2825.0,4095.0,3819.0,3899.0,4095.0,0.14,9.94,1.86,-0.03,0.01,-0.03,1.0,i
3311.0,3662.0,3024.0,2814.0,4095.0,3798.0,3879.0,4095.0,0.19,9.96,1.73,-0.05,0.01,-0.03,1.0,i
3309.0,3654.0,3022.0,2821.0,4095.0,3809.0,3892.0,4095.0,0.18,9.94,1.73,-0.08,-0.0,-0.04,1.0,i
3319.0,3651.0,3023.0,2818.0,4095.0,3813.0,3903.0,4095.0,0.09,9.94,1.85,-0.07,-0.01,-0.03,1.0,i
3309.0,3646.0,3017.0,2803.0,4095.0,3804.0,3891.0,4095.0,0.05,9.92,1.85,-0.06,0.01,-0.01,1.0,i
3315.0,3651.0,3027.0,2821.0,4095.0,3813.0,3901.0,4095.0,0.2,9.96,1.74,-0.04,0.04,0.01,1.0,i
3312.0,3633.0,3022.0,2811.0,4095.0,3804.0,3890.0,4095.0,0.44,10.02,1.7,-0.05,-0.0,-0.02,1.0,i
3312.0,3651.0,3027.0,2815.0,4095.0,3814.0,3904.0,4095.0,0.18,9.95,1.8,-0.07,-0.01,-0.06,1.0,i
3317.0,3648.0,3025.0,2816.0,4095.0,3795.0,3885.0,4095.0,0.09,9.93,1.73,-0.05,0.01,-0.05,1.0,i
3323.0,3651.0,3028.0,2813.0,4095.0,3808.0,3903.0,4095.0,0.16,9.97,1.71,-0.06,-0.0,-0.04,1.0,i
3296.0,3651.0,3024.0,2814.0,4095.0,3809.0,3889.0,4095.0,0.12,9.94,1.81,-0.06,-0.01,-0.03,1.0,i
3309.0,3674.0,3025.0,2821.0,4095.0,3808.0,3897.0,4095.0,0.2,9.98,1.74,-0.06,0.01,-0.02,1.0,i
3314.0,3653.0,3012.0,2810.0,4095.0,3792.0,3874.0,4095.0,0.15,9.96,1.73,-0.08,0.0,-0.03,1.0,i
3309.0,3654.0,3028.0,2819.0,4095.0,3808.0,3906.0,4095.0,0.15,9.93,1.78,-0.05,0.01,-0.03,1.0,i
3311.0,3649.0,3024.0,2823.0,4095.0,3810.0,3888.0,4095.0,0.31,9.96,1.81,-0.05,-0.03,-0.03,1.0,i
3311.0,3649.0,3023.0,2807.0,4095.0,3791.0,3889.0,4095.0,0.22,9.97,1.8,-0.08,-0.01,-0.03,1.0,i
3308.0,3653.0,3033.0,2825.0,4095.0,3823.0,3917.0,4095.0,0.15,9.93,1.77,-0.06,0.01,-0.02,1.0,i
3309.0,3649.0,3025.0,2819.0,4095.0,3793.0,3888.0,4095.0,0.26,9.95,1.75,-0.07,-0.02,-0.02,1.0,i
3314.0,3647.0,3024.0,2819.0,4095.0,3805.0,3910.0,4095.0,0.31,9.94,1.83,-0.06,-0.04,-0.06,1.0,i
3308.0,3648.0,3024.0,2806.0,4095.0,3807.0,3890.0,4095.0,-0.96,9.9,1.08,0.07,0.12,0.01,1.0,i
3312.0,3655.0,3023.0,2817.0,4095.0,3826.0,3911.0,4095.0,-0.41,9.97,1.4,-0.16,0.05,0.05,1.0,i
3303.0,3653.0,3024.0,2812.0,4095.0,3822.0,3903.0,4095.0,0.46,10.01,2.24,-0.1,-0.01,-0.04,1.0,i
3311.0,3661.0,3033.0,2817.0,4095.0,3829.0,3900.0,4095.0,-0.58,9.91,1.23,0.05,-0.22,-0.19,1.0,i
3315.0,3648.0,3010.0,2806.0,4095.0,3804.0,3883.0,4095.0,-0.4,10.12,0.96,-0.04,-0.37,-0.26,1.0,i
3310.0,3667.0,3026.0,2816.0,4095.0,3821.0,3904.0,4095.0,-0.66,9.73,2.49,-0.17,-0.08,-0.13,1.0,i
3314.0,3660.0,3027.0,2813.0,4095.0,3797.0,3863.0,4095.0,-0.7,9.93,1.63,-0.01,-0.01,-0.13,1.0,i
3317.0,3664.0,3036.0,2816.0,4095.0,3831.0,3906.0,4095.0,-0.96,9.91,1.23,-0.03,-0.04,-0.09,1.0,i
3312.0,3671.0,3024.0,2818.0,4095.0,3819.0,3888.0,4095.0,-0.75,10.05,1.32,-0.17,0.0,-0.1,1.0,i
3319.0,3668.0,3023.0,2811.0,4095.0,3796.0,3886.0,4095.0,-0.57,9.91,1.88,-0.2,0.04,-0.16,1.0,i
3322.0,3665.0,3024.0,2814.0,4095.0,3824.0,3897.0,4095.0,-1.16,9.78,1.85,-0.27,0.15,-0.13,1.0,i
3307.0,3651.0,3023.0,2829.0,4095.0,3800.0,3885.0,4095.0,-1.2,9.8,1.91,-0.18,-0.04,-0.11,1.0,i
3323.0,3661.0,3026.0,2817.0,4095.0,3815.0,3888.0,4095.0,-1.24,9.7,2.38,-0.19,-0.03,-0.03,1.0,i
3317.0,3663.0,3024.0,2818.0,4095.0,3807.0,3877.0,4095.0,-1.19,9.73,2.33,-0.14,0.02,0.01,1.0,i
3325.0,3670.0,3027.0,2817.0,4095.0,3814.0,3888.0,4095.0,-0.91,9.67,2.83,-0.11,0.0,-0.02,1.0,i
3311.0,3657.0,3023.0,2811.0,4095.0,3794.0,3881.0,4095.0,-1.17,9.7,2.46,-0.02,0.03,-0.02,1.0,i
3312.0,3671.0,3025.0,2815.0,4095.0,3818.0,3903.0,4095.0,-1.16,9.73,2.15,0.01,-0.06,0.01,1.0,i
3312.0,3671.0,3024.0,2813.0,4095.0,3798.0,3889.0,4095.0,-1.06,9.86,1.81,-0.01,-0.07,0.02,1.0,i
3319.0,3664.0,3026.0,2819.0,4095.0,3821.0,3904.0,4095.0,-0.74,9.84,2.24,-0.17,-0.1,0.03,1.0,i
3300.0,3675.0,3031.0,2825.0,4095.0,3811.0,3890.0,4095.0,-0.59,9.75,2.74,-0.12,-0.03,-0.06,1.0,i
3315.0,3677.0,3024.0,2823.0,4095.0,3814.0,3888.0,4095.0,-0.5,9.76,2.6,-0.13,0.02,0.0,1.0,i
3312.0,3650.0,3022.0,2815.0,4095.0,3809.0,3887.0,4095.0,-0.67,9.71,2.75,-0.05,-0.01,-0.1,1.0,i
3313.0,3682.0,3023.0,2823.0,4095.0,3798.0,3895.0,4095.0,-0.93,9.72,2.4,-0.09,0.05,-0.18,1.0,i
3312.0,3681.0,3013.0,2810.0,4095.0,3795.0,3875.0,4095.0,-1.37,9.78,2.34,-0.03,-0.01,-0.14,1.0,i
3307.0,3685.0,3006.0,2815.0,4095.0,3831.0,3909.0,4095.0,-1.36,9.73,2.23,-0.04,0.01,-0.03,1.0,i
3303.0,3664.0,3004.0,2813.0,4095.0,3819.0,3888.0,4095.0,-1.02,9.69,2.55,-0.06,-0.03,-0.03,1.0,i
3315.0,3685.0,3005.0,2811.0,4095.0,3819.0,3899.0,4095.0,-0.92,9.67,2.72,0.03,0.02,-0.09,1.0,i
3312.0,3707.0,3001.0,2800.0,4095.0,3815.0,3899.0,4095.0,-1.27,9.83,2.11,0.04,0.0,-0.04,1.0,i
3313.0,3729.0,2987.0,2800.0,4095.0,3827.0,3916.0,4095.0,-1.27,9.87,1.81,-0.05,0.01,0.1,1.0,i
3312.0,3733.0,3011.0,2786.0,4095.0,3841.0,3967.0,4095.0,-0.81,9.76,2.43,-0.0,-0.23,0.19,1.0,i
3311.0,3718.0,3015.0,2768.0,4095.0,3858.0,3957.0,4095.0,-0.29,9.94,2.35,0.07,-0.32,-0.0,1.0,i
3310.0,3703.0,3013.0,2769.0,4095.0,3872.0,3982.0,4095.0,-0.61,9.83,2.06,0.08,-0.17,0.02,1.0,i
3303.0,3696.0,3002.0,2751.0,4095.0,3887.0,3994.0,4095.0,-0.36,9.88,1.96,-0.1,-0.09,0.0,1.0,i
3317.0,3730.0,3015.0,2767.0,4095.0,3903.0,4017.0,4095.0,-0.51,9.88,2.13,-0.03,-0.09,-0.0,1.0,i
3312.0,3713.0,3008.0,2762.0,4095.0,3888.0,4005.0,4095.0,-0.45,9.85,2.14,-0.08,0.08,0.02,1.0,i
3312.0,3735.0,3022.0,2762.0,4095.0,3907.0,4012.0,4095.0,-0.15,9.94,2.15,-0.03,0.0,-0.06,1.0,i
3312.0,3717.0,3008.0,2765.0,4095.0,3906.0,4016.0,4095.0,-0.66,9.85,1.78,0.01,0.02,-0.04,1.0,i
3312.0,3736.0,3011.0,2762.0,4095.0,3925.0,4029.0,4095.0,-0.27,9.97,1.81,0.05,-0.22,-0.12,1.0,i
3309.0,3723.0,3007.0,2766.0,4095.0,3889.0,4007.0,4095.0,-0.64,9.9,1.79,-0.09,-0.06,-0.14,1.0,i
3316.0,3738.0,3018.0,2768.0,4095.0,3920.0,4022.0,4095.0,-0.78,9.86,1.8,-0.06,-0.0,-0.09,1.0,i
3507.0,1212.0,3017.0,2710.0,4095.0,3839.0,3728.0,4095.0,0.22,10.03,0.4,-0.12,0.08,0.03,1.0,i
3505.0,1214.0,3008.0,2711.0,4095.0,3809.0,3741.0,4095.0,0.38,10.14,0.4,-0.09,0.07,-0.02,1.0,i
3521.0,1218.0,3020.0,2725.0,4095.0,3831.0,3753.0,4095.0,0.4,10.09,0.48,-0.07,0.02,-0.04,1.0,i
3499.0,1203.0,3011.0,2725.0,4095.0,3841.0,3772.0,4095.0,0.29,10.07,0.55,-0.11,0.1,-0.06,1.0,i
3501.0,1200.0,3016.0,2729.0,4095.0,3840.0,3760.0,4095.0,0.25,10.09,0.46,-0.07,0.07,-0.06,1.0,i
3504.0,1207.0,3022.0,2741.0,4095.0,3847.0,3771.0,4095.0,0.3,10.08,0.51,-0.04,0.03,-0.04,1.0,i
3515.0,1191.0,3008.0,2736.0,4095.0,3846.0,3773.0,4095.0,0.31,10.07,0.54,-0.05,0.05,-0.05,1.0,i
3521.0,1194.0,3019.0,2743.0,4095.0,3871.0,3789.0,4095.0,-0.11,9.97,0.56,-0.14,0.08,-0.0,1.0,i
3506.0,1198.0,3017.0,2746.0,4095.0,3835.0,3775.0,4095.0,0.27,10.06,0.59,-0.1,0.05,-0.01,1.0,i
3518.0,1191.0,3015.0,2752.0,4095.0,3852.0,3778.0,4095.0,0.3,10.03,0.75,-0.06,0.01,-0.0,1.0,i
3515.0,1191.0,3012.0,2751.0,4095.0,3847.0,3760.0,4095.0,0.27,10.04,0.65,-0.05,0.08,-0.03,1.0,i
3515.0,1185.0,3021.0,2752.0,4095.0,3858.0,3787.0,4095.0,0.29,10.07,0.53,-0.04,0.05,-0.0,1.0,i
3501.0,1195.0,3014.0,2754.0,4095.0,3845.0,3773.0,4095.0,0.4,10.05,0.61,-0.03,0.03,-0.03,1.0,i
3501.0,1202.0,3024.0,2756.0,4095.0,3840.0,3782.0,4095.0,0.24,10.05,0.62,-0.06,0.01,-0.03,1.0,i
3493.0,1200.0,3015.0,2753.0,4095.0,3835.0,3776.0,4095.0,0.2,10.0,0.62,-0.03,0.07,-0.01,1.0,i
3520.0,1194.0,3018.0,2754.0,4095.0,3825.0,3775.0,4095.0,0.29,10.06,0.5,-0.02,0.0,-0.01,1.0,i
3526.0,1200.0,3024.0,2764.0,4095.0,3854.0,3792.0,4095.0,0.54,10.11,0.39,-0.01,0.0,-0.01,1.0,i
3504.0,1189.0,3008.0,2758.0,4095.0,3831.0,3779.0,4095.0,0.45,10.09,0.41,-0.04,0.03,-0.02,1.0,i
3516.0,1195.0,3023.0,2763.0,4095.0,3858.0,3790.0,4095.0,0.4,10.05,0.44,-0.04,0.05,-0.03,1.0,i
3505.0,1188.0,3015.0,2757.0,4095.0,3837.0,3783.0,4095.0,0.48,10.09,0.4,-0.02,0.01,-0.04,1.0,i
3516.0,1164.0,3021.0,2773.0,4095.0,3818.0,3777.0,4095.0,-0.85,9.98,1.23,-0.07,0.02,-0.05,1.0,i
3533.0,1164.0,3017.0,2780.0,4095.0,3830.0,3797.0,4095.0,-0.8,9.94,1.25,-0.07,-0.03,-0.03,1.0,i
3510.0,1158.0,3012.0,2769.0,4095.0,3827.0,3787.0,4095.0,-0.63,10.01,1.29,-0.09,-0.01,-0.03,1.0,i
3520.0,1163.0,3014.0,2782.0,4095.0,3827.0,3801.0,4095.0,-0.61,9.97,1.22,-0.08,-0.02,-0.08,1.0,i
3504.0,1154.0,3024.0,2781.0,4095.0,3831.0,3779.0,4095.0,-0.81,9.9,1.37,-0.11,-0.0,-0.06,1.0,i
3521.0,1157.0,3022.0,2783.0,4095.0,3840.0,3793.0,4095.0,-0.88,9.95,1.35,-0.1,0.01,-0.05,1.0,i
3504.0,1163.0,3012.0,2769.0,4095.0,3826.0,3792.0,4095.0,-0.82,9.92,1.5,-0.08,-0.01,-0.03,1.0,i
3522.0,1167.0,3025.0,2789.0,4095.0,3825.0,3791.0,4095.0,-0.74,9.94,1.47,-0.07,-0.03,-0.07,1.0,i
3530.0,1168.0,3024.0,2775.0,4095.0,3855.0,3797.0,4095.0,-0.95,9.92,1.24,-0.1,0.06,-0.09,1.0,i
3521.0,1152.0,3022.0,2777.0,4095.0,3830.0,3787.0,4095.0,-0.92,9.88,1.61,-0.12,-0.05,-0.07,1.0,i
3529.0,1153.0,3021.0,2784.0,4095.0,3840.0,3802.0,4095.0,-0.87,9.92,1.59,-0.09,-0.05,-0.05,1.0,i
3522.0,1159.0,3023.0,2781.0,4095.0,3837.0,3778.0,4095.0,-0.95,9.87,1.76,-0.12,0.01,-0.03,1.0,i
3519.0,1156.0,3029.0,2790.0,4095.0,3861.0,3798.0,4095.0,-0.65,9.91,1.79,-0.06,-0.07,-0.08,1.0,i
3513.0,1157.0,3015.0,2774.0,4095.0,3824.0,3794.0,4095.0,-1.01,9.87,1.62,-0.06,-0.0,-0.04,1.0,i
3520.0,1161.0,3026.0,2785.0,4095.0,3843.0,3805.0,4095.0,-1.0,9.91,1.61,-0.11,0.02,-0.02,1.0,i
3511.0,1159.0,3010.0,2778.0,4095.0,3826.0,3792.0,4095.0,-0.85,9.89,1.78,-0.11,-0.01,-0.04,1.0,i
3517.0,1159.0,3031.0,2785.0,4095.0,3831.0,3803.0,4095.0,-1.13,9.81,1.79,-0.09,-0.01,-0.03,1.0,i
3526.0,1158.0,3018.0,2783.0,4095.0,3824.0,3774.0,4095.0,-0.78,9.85,1.78,-0.08,-0.04,0.0,1.0,i
3521.0,1152.0,3029.0,2788.0,4095.0,3842.0,3808.0,4095.0,-0.64,9.9,1.95,-0.07,0.01,-0.02,1.0,i
3521.0,1151.0,3023.0,2786.0,4095.0,3850.0,3798.0,4095.0,-0.96,9.86,1.71,-0.07,-0.01,-0.05,1.0,i
3536.0,1143.0,3024.0,2785.0,4095.0,3846.0,3805.0,4095.0,-0.85,9.86,2.05,-0.08,0.04,-0.0,1.0,i
3514.0,1145.0,3018.0,2779.0,4095.0,3841.0,3792.0,4095.0,-0.86,9.82,2.09,-0.08,0.01,-0.01,1.0,i
3523.0,1151.0,3023.0,2779.0,4095.0,3842.0,3809.0,4095.0,-0.85,9.8,2.21,-0.12,-0.02,-0.0,1.0,i
3526.0,1137.0,3024.0,2789.0,4095.0,3849.0,3807.0,4095.0,-0.76,9.85,2.21,-0.07,-0.01,-0.01,1.0,i
3519.0,1142.0,3020.0,2789.0,4095.0,3830.0,3787.0,4095.0,-0.71,9.8,2.27,-0.1,0.02,0.03,1.0,i
3517.0,1146.0,3021.0,2793.0,4095.0,3863.0,3813.0,4095.0,-0.46,9.84,2.45,-0.06,-0.02,-0.03,1.0,i
3510.0,1139.0,3009.0,2783.0,4095.0,3824.0,3790.0,4095.0,-0.88,9.76,2.2,-0.08,0.04,0.0,1.0,i
3526.0,1144.0,3025.0,2788.0,4095.0,3855.0,3814.0,4095.0,-0.66,9.8,2.28,-0.07,0.06,0.01,1.0,i
3527.0,1145.0,3015.0,2785.0,4095.0,3840.0,3782.0,4095.0,-0.5,9.85,2.28,-0.05,-0.05,0.01,1.0,i
3527.0,1150.0,3030.0,2786.0,4095.0,3843.0,3797.0,4095.0,-0.55,9.8,2.33,-0.09,0.06,0.01,1.0,i
3509.0,1147.0,3013.0,2786.0,4095.0,3824.0,3782.0,4095.0,-0.34,9.82,2.45,-0.07,0.03,0.01,1.0,i
3527.0,1148.0,3029.0,2788.0,4095.0,3843.0,3793.0,4095.0,-0.58,9.81,2.24,-0.07,0.04,-0.01,1.0,i
3517.0,1149.0,3017.0,2783.0,4095.0,3823.0,3782.0,4095.0,-0.43,9.84,2.33,-0.07,0.02,-0.01,1.0,i
3523.0,1152.0,3024.0,2800.0,4095.0,3853.0,3807.0,4095.0,-0.5,9.84,2.27,-0.06,0.02,-0.01,1.0,i
3520.0,1145.0,3015.0,2782.0,4095.0,3831.0,3792.0,4095.0,-0.41,9.83,2.38,-0.06,0.05,-0.02,1.0,i
3520.0,1139.0,3024.0,2782.0,4095.0,3831.0,3797.0,4095.0,-0.47,9.83,2.27,-0.06,-0.01,-0.03,1.0,i
3523.0,1146.0,3024.0,2795.0,4095.0,3851.0,3814.0,4095.0,-0.54,9.82,2.23,-0.06,0.01,-0.02,1.0,i
3515.0,1150.0,3014.0,2789.0,4095.0,3826.0,3790.0,4095.0,-0.43,9.79,2.38,-0.08,0.05,0.01,1.0,i
3523.0,1152.0,3036.0,2793.0,4095.0,3871.0,3794.0,4095.0,-0.34,9.82,2.27,-0.07,0.02,-0.03,1.0,i
3518.0,1141.0,3012.0,2785.0,4095.0,3831.0,3779.0,4095.0,-0.28,9.8,2.41,-0.06,0.0,-0.04,1.0,i
3530.0,1135.0,3019.0,2775.0,4095.0,3824.0,3792.0,4095.0,0.44,9.85,2.3,-0.0,-0.01,-0.03,1.0,i
3536.0,1125.0,3025.0,2791.0,4095.0,3823.0,3814.0,4095.0,0.4,9.89,2.08,0.01,0.01,0.0,1.0,i
3526.0,1130.0,3021.0,2790.0,4095.0,3809.0,3789.0,4095.0,0.6,9.94,2.04,-0.0,0.0,-0.01,1.0,i
3536.0,1130.0,3027.0,2794.0,4095.0,3824.0,3811.0,4095.0,0.49,9.94,1.99,-0.04,-0.01,-0.06,1.0,i
3515.0,1126.0,3019.0,2785.0,4095.0,3815.0,3792.0,4095.0,0.34,9.92,2.05,-0.01,-0.04,-0.05,1.0,i
3525.0,1127.0,3024.0,2794.0,4095.0,3841.0,3823.0,4095.0,0.41,9.9,1.99,0.01,-0.03,-0.01,1.0,i
3507.0,1129.0,3018.0,2783.0,4095.0,3823.0,3804.0,4095.0,0.62,9.98,1.88,0.04,-0.02,-0.01,1.0,i
3520.0,1137.0,3027.0,2794.0,4095.0,3839.0,3819.0,4095.0,0.5,9.96,1.64,0.05,0.04,-0.02,1.0,i
3518.0,1122.0,3016.0,2783.0,4095.0,3828.0,3799.0,4095.0,0.61,9.96,1.54,0.04,-0.03,-0.07,1.0,i
3522.0,1122.0,3014.0,2785.0,4095.0,3820.0,3805.0,4095.0,0.45,9.99,1.45,0.04,-0.03,-0.07,1.0,i
3510.0,1136.0,3015.0,2784.0,4095.0,3823.0,3795.0,4095.0,0.34,9.99,1.39,-0.03,0.03,-0.05,1.0,i
3534.0,1132.0,3022.0,2789.0,4095.0,3831.0,3815.0,4095.0,0.46,10.07,1.41,0.02,-0.0,-0.07,1.0,i
3514.0,1127.0,3025.0,2786.0,4095.0,3830.0,3809.0,4095.0,0.37,10.01,1.24,0.03,-0.03,-0.04,1.0,i
3518.0,1133.0,3013.0,2790.0,4095.0,3834.0,3803.0,4095.0,0.43,10.03,1.13,0.02,-0.02,-0.07,1.0,i
3531.0,1133.0,3026.0,2791.0,4095.0,3827.0,3811.0,4095.0,0.34,10.02,1.02,-0.01,-0.01,-0.04,1.0,i
3520.0,1130.0,3011.0,2775.0,4095.0,3811.0,3797.0,4095.0,0.36,10.04,1.03,-0.04,0.01,-0.06,1.0,i
3532.0,1127.0,3021.0,2790.0,4095.0,3824.0,3824.0,4095.0,0.36,10.07,1.08,-0.03,-0.03,-0.06,1.0,i
3518.0,1130.0,3022.0,2790.0,4095.0,3811.0,3793.0,4095.0,0.23,10.08,1.02,-0.02,-0.0,-0.05,1.0,i
3517.0,1123.0,3024.0,2785.0,4095.0,3838.0,3817.0,4095.0,0.31,10.03,1.01,-0.0,-0.01,-0.05,1.0,i
3521.0,1134.0,3022.0,2789.0,4095.0,3824.0,3798.0,4095.0,0.24,10.02,0.82,0.0,0.04,-0.05,1.0,i
3516.0,1136.0,3030.0,2791.0,4095.0,3846.0,3815.0,4095.0,0.15,10.13,-0.34,-0.05,-0.0,-0.04,1.0,i
3519.0,1135.0,3014.0,2781.0,4095.0,3830.0,3803.0,4095.0,0.06,10.0,-0.23,0.02,-0.04,-0.06,1.0,i
3524.0,1137.0,3027.0,2791.0,4095.0,3844.0,3839.0,4095.0,0.02,10.04,-0.54,0.06,-0.06,-0.08,1.0,i
3505.0,1129.0,3015.0,2783.0,4095.0,3831.0,3818.0,4095.0,-0.06,10.06,-0.74,0.01,-0.06,-0.09,1.0,i
3539.0,1141.0,3023.0,2785.0,4095.0,3842.0,3811.0,4095.0,-0.12,10.02,-0.66,-0.03,-0.07,-0.09,1.0,i
3511.0,1135.0,3015.0,2779.0,4095.0,3827.0,3807.0,4095.0,-0.07,10.09,-0.68,-0.05,-0.04,-0.07,1.0,i
3520.0,1136.0,3019.0,2790.0,4095.0,3856.0,3813.0,4095.0,-0.37,9.96,-0.6,-0.06,-0.07,-0.07,1.0,i
3518.0,1141.0,3024.0,2781.0,4095.0,3851.0,3814.0,4095.0,-0.11,10.03,-0.52,-0.05,-0.08,-0.08,1.0,i
3515.0,1131.0,3015.0,2779.0,4095.0,3854.0,3807.0,4095.0,-0.32,9.93,-0.81,0.03,-0.09,-0.16,1.0,i
3530.0,1190.0,3012.0,2763.0,4095.0,3878.0,3847.0,4095.0,-0.42,9.94,-0.7,0.07,-0.35,-0.3,1.0,i
3525.0,1218.0,3024.0,2768.0,4095.0,3875.0,3837.0,4095.0,-0.95,9.83,-0.85,-0.15,-0.03,-0.03,1.0,i
3530.0,1247.0,3022.0,2768.0,4095.0,3894.0,3847.0,4095.0,-0.72,9.98,-0.86,-0.06,-0.26,-0.04,1.0,i
3515.0,1264.0,3013.0,2755.0,4095.0,3877.0,3829.0,4095.0,-0.65,9.94,-0.68,-0.21,-0.16,-0.09,1.0,i
3518.0,1268.0,3021.0,2759.0,4095.0,3900.0,3852.0,4095.0,-0.75,9.99,-0.44,-0.14,-0.29,-0.15,1.0,i
3503.0,1265.0,3013.0,2757.0,4095.0,3887.0,3835.0,4095.0,-1.16,9.88,-0.36,-0.12,-0.1,-0.11,1.0,i
3517.0,1264.0,3023.0,2768.0,4095.0,3890.0,3853.0,4095.0,-1.15,9.91,-0.24,-0.08,-0.06,-0.09,1.0,i
3518.0,1274.0,3021.0,2769.0,4095.0,3918.0,3855.0,4095.0,-1.12,9.95,-0.33,-0.06,0.01,-0.01,1.0,i
3523.0,1265.0,3023.0,2771.0,4095.0,3917.0,3862.0,4095.0,-1.2,9.94,-0.45,-0.07,0.06,-0.03,1.0,i
3519.0,1271.0,3024.0,2773.0,4095.0,3913.0,3857.0,4095.0,-0.74,10.05,-0.48,-0.03,-0.03,-0.08,1.0,i
3515.0,1267.0,3010.0,2765.0,4095.0,3895.0,3845.0,4095.0,-1.1,9.97,-0.58,-0.07,0.01,-0.07,1.0,i
3515.0,1261.0,3024.0,2788.0,4095.0,3915.0,3856.0,4095.0,-1.55,9.9,0.1,-0.12,0.01,-0.03,1.0,i
3516.0,1247.0,3017.0,2793.0,4095.0,3905.0,3839.0,4095.0,-1.57,9.88,0.23,-0.12,-0.02,-0.07,1.0,i
3520.0,1249.0,3024.0,2795.0,4095.0,3907.0,3843.0,4095.0,-1.7,9.87,0.31,-0.11,0.01,-0.05,1.0,i
3507.0,1248.0,3024.0,2785.0,4095.0,3897.0,3827.0,4095.0,-1.58,9.88,0.36,-0.09,-0.01,-0.05,1.0,i
3522.0,1261.0,3023.0,2796.0,4095.0,3917.0,3835.0,4095.0,-1.63,9.86,0.4,-0.12,0.02,-0.02,1.0,i
3511.0,1264.0,3012.0,2789.0,4095.0,3908.0,3844.0,4095.0,-1.58,9.9,0.38,-0.1,-0.0,-0.06,1.0,i
3507.0,1251.0,3024.0,2794.0,4095.0,3915.0,3844.0,4095.0,-1.54,9.92,0.47,-0.14,-0.07,-0.06,1.0,i
3535.0,1244.0,3021.0,2787.0,4095.0,3903.0,3838.0,4095.0,-1.7,9.84,0.65,-0.16,-0.01,-0.04,1.0,i
3527.0,1249.0,3024.0,2791.0,4095.0,3941.0,3856.0,4095.0,-1.58,9.82,0.89,-0.12,-0.01,-0.05,1.0,i
3510.0,1246.0,3013.0,2796.0,4095.0,3920.0,3825.0,4095.0,-1.71,9.83,0.72,-0.09,-0.03,-0.03,1.0,i
3536.0,1244.0,3027.0,2795.0,4095.0,3888.0,3826.0,4095.0,-1.58,9.87,0.76,-0.12,0.0,-0.03,1.0,i
3543.0,1241.0,3027.0,2798.0,4095.0,3903.0,3839.0,4095.0,-1.58,9.84,0.9,-0.12,-0.01,-0.02,1.0,i
3514.0,1247.0,3017.0,2791.0,4095.0,3906.0,3831.0,4095.0,-1.66,9.83,0.93,-0.11,0.01,-0.04,1.0,i
3520.0,1251.0,3024.0,2797.0,4095.0,3922.0,3851.0,4095.0,-1.53,9.86,0.99,-0.12,0.02,-0.03,1.0,i
3514.0,1234.0,3021.0,2798.0,4095.0,3899.0,3835.0,4095.0,-1.61,9.82,1.06,-0.11,0.01,-0.04,1.0,i
3521.0,1241.0,3023.0,2800.0,4095.0,3888.0,3841.0,4095.0,-1.64,9.83,1.02,-0.1,0.0,-0.04,1.0,i
3517.0,1235.0,3024.0,2800.0,4095.0,3903.0,3823.0,4095.0,-1.53,9.84,1.19,-0.12,-0.02,-0.02,1.0,i
3530.0,1228.0,3029.0,2809.0,4095.0,3925.0,3855.0,4095.0,-1.72,9.79,1.23,-0.09,0.01,-0.02,1.0,i
3520.0,1218.0,3015.0,2793.0,4095.0,3893.0,3833.0,4095.0,-1.51,9.86,1.14,-0.04,-0.05,-0.03,1.0,i
3534.0,1230.0,3025.0,2805.0,4095.0,3888.0,3826.0,4095.0,-1.65,9.84,1.12,-0.09,0.0,-0.01,1.0,i
3510.0,1213.0,3011.0,2800.0,4095.0,3894.0,3841.0,4095.0,-1.17,9.86,1.49,-0.08,0.03,0.04,1.0,i
3517.0,1217.0,3024.0,2804.0,4095.0,3895.0,3835.0,4095.0,-1.04,9.92,1.42,-0.06,0.01,0.01,1.0,i
3519.0,1207.0,3022.0,2807.0,4095.0,3904.0,3841.0,4095.0,-0.95,9.89,1.6,-0.09,0.04,0.03,1.0,i
3520.0,1218.0,3020.0,2800.0,4095.0,3904.0,3834.0,4095.0,-0.91,9.88,1.58,-0.06,-0.0,0.01,1.0,i
3533.0,1210.0,3022.0,2807.0,4095.0,3901.0,3827.0,4095.0,-0.87,9.89,1.53,-0.06,0.03,0.0,1.0,i
3531.0,1223.0,3024.0,2800.0,4095.0,3891.0,3822.0,4095.0,-0.99,9.88,1.51,-0.07,0.06,0.01,1.0,i
3536.0,1220.0,3026.0,2807.0,4095.0,3911.0,3838.0,4095.0,-0.96,9.92,1.49,-0.07,0.06,0.0,1.0,i
3527.0,1216.0,3022.0,2803.0,4095.0,3897.0,3824.0,4095.0,-0.75,9.9,1.52,-0.05,0.0,0.01,1.0,i
3536.0,1209.0,3024.0,2812.0,4095.0,3903.0,3841.0,4095.0,-0.76,9.89,1.53,-0.08,0.03,-0.01,1.0,i
3510.0,1207.0,3013.0,2797.0,4095.0,3888.0,3811.0,4095.0,-0.89,9.88,1.58,-0.09,0.06,0.02,1.0,i
3534.0,1218.0,3023.0,2805.0,4095.0,3920.0,3844.0,4095.0,-0.71,9.91,1.61,-0.07,0.03,0.03,1.0,i
3525.0,1215.0,3024.0,2801.0,4095.0,3882.0,3825.0,4095.0,-0.55,9.98,1.51,-0.06,0.05,0.0,1.0,i
3520.0,1227.0,3025.0,2807.0,4095.0,3901.0,3827.0,4095.0,-0.57,9.96,1.56,-0.06,0.01,0.0,1.0,i
3515.0,1221.0,3013.0,2798.0,4095.0,3915.0,3850.0,4095.0,-0.71,9.92,1.57,-0.09,0.01,0.02,1.0,i
3523.0,1217.0,3018.0,2801.0,4095.0,3889.0,3819.0,4095.0,-0.5,9.93,1.71,-0.08,0.05,0.06,1.0,i
3529.0,1216.0,3016.0,2806.0,4095.0,3923.0,3843.0,4095.0,-0.45,9.97,1.55,-0.12,0.17,0.06,1.0,i
3526.0,1216.0,3012.0,2800.0,4095.0,3899.0,3824.0,4095.0,-0.47,9.87,1.78,-0.11,0.2,0.08,1.0,i
3535.0,1226.0,3031.0,2809.0,4095.0,3922.0,3855.0,4095.0,-0.28,9.97,1.63,-0.09,0.09,0.07,1.0,i
3507.0,1227.0,3023.0,2802.0,4095.0,3899.0,3823.0,4095.0,-0.09,10.0,1.63,-0.04,-0.0,-0.0,1.0,i
3522.0,1217.0,3015.0,2811.0,4095.0,3926.0,3850.0,4095.0,-0.21,9.91,1.79,-0.09,0.01,0.02,1.0,i
3518.0,1216.0,3024.0,2801.0,4095.0,3895.0,3830.0,4095.0,-0.31,9.93,1.63,-0.09,0.02,-0.01,1.0,i
3530.0,1219.0,3024.0,2800.0,4095.0,3909.0,3838.0,4095.0,0.17,10.0,1.77,-0.05,0.02,-0.03,1.0,i
3518.0,1213.0,3024.0,2811.0,4095.0,3892.0,3824.0,4095.0,-0.1,9.93,1.68,-0.07,-0.05,-0.02,1.0,i
3531.0,1220.0,3034.0,2810.0,4095.0,3909.0,3839.0,4095.0,-0.01,9.94,1.76,-0.07,0.02,-0.04,1.0,i
3515.0,1213.0,3025.0,2807.0,4095.0,3891.0,3825.0,4095.0,-0.05,9.94,1.78,-0.09,-0.02,0.01,1.0,i
3537.0,1222.0,3031.0,2811.0,4095.0,3911.0,3829.0,4095.0,-0.02,9.97,1.67,-0.07,0.03,-0.03,1.0,i
3521.0,1219.0,3014.0,2805.0,4095.0,3885.0,3824.0,4095.0,0.09,9.94,1.92,-0.06,-0.01,-0.0,1.0,i
3509.0,1216.0,3023.0,2804.0,4095.0,3907.0,3831.0,4095.0,0.02,9.96,1.68,-0.05,0.0,-0.02,1.0,i
3498.0,1214.0,3021.0,2801.0,4095.0,3905.0,3839.0,4095.0,0.12,9.96,1.78,-0.07,-0.0,-0.01,1.0,i
3527.0,1222.0,3023.0,2803.0,4095.0,3894.0,3824.0,4095.0,0.01,9.91,1.84,-0.1,0.03,0.02,1.0,i
3543.0,1222.0,3022.0,2805.0,4095.0,3919.0,3841.0,4095.0,0.24,9.94,1.79,-0.06,0.02,-0.02,1.0,i
3519.0,1212.0,3019.0,2807.0,4095.0,3888.0,3826.0,4095.0,0.24,9.94,1.85,-0.07,-0.01,0.01,1.0,i
3536.0,1218.0,3019.0,2807.0,4095.0,3894.0,3851.0,4095.0,0.27,9.96,1.85,-0.08,0.0,0.0,1.0,i
3517.0,1212.0,3014.0,2803.0,4095.0,3890.0,3826.0,4095.0,0.49,9.98,1.94,-0.08,-0.02,-0.01,1.0,i
3527.0,1218.0,3028.0,2815.0,4095.0,3900.0,3849.0,4095.0,0.26,9.93,1.85,-0.09,0.02,-0.06,1.0,i
3525.0,1214.0,3023.0,2808.0,4095.0,3900.0,3829.0,4095.0,0.12,9.9,1.98,-0.09,-0.0,-0.03,1.0,i
3535.0,1215.0,3033.0,2805.0,4095.0,3901.0,3843.0,4095.0,0.18,9.93,1.87,-0.08,0.01,0.0,1.0,i
3538.0,1211.0,3024.0,2802.0,4095.0,3881.0,3810.0,4095.0,0.34,9.95,1.92,-0.09,0.03,-0.01,1.0,i
3530.0,1213.0,3029.0,2806.0,4095.0,3903.0,3846.0,4095.0,0.33,9.93,1.98,-0.08,-0.02,-0.02,1.0,i
3515.0,1210.0,3014.0,2799.0,4095.0,3889.0,3835.0,4095.0,0.27,9.94,1.97,-0.07,-0.0,-0.04,1.0,i
3527.0,1211.0,3022.0,2800.0,4095.0,3884.0,3821.0,4095.0,0.21,9.88,2.26,-0.06,-0.02,-0.04,1.0,i
3513.0,1200.0,3019.0,2814.0,4095.0,3888.0,3824.0,4095.0,0.18,9.85,2.23,-0.06,-0.02,-0.03,1.0,i
3509.0,1203.0,3018.0,2805.0,4095.0,3905.0,3823.0,4095.0,0.27,9.88,2.25,-0.08,0.0,-0.05,1.0,i
3526.0,1200.0,3024.0,2806.0,4095.0,3893.0,3830.0,4095.0,0.12,9.87,2.2,-0.08,-0.01,-0.09,1.0,i
3524.0,1199.0,3031.0,2807.0,4095.0,3888.0,3839.0,4095.0,0.12,9.88,2.25,-0.06,-0.03,-0.06,1.0,i
3514.0,1200.0,3021.0,2802.0,4095.0,3890.0,3824.0,4095.0,0.16,9.87,2.28,-0.07,-0.03,-0.06,1.0,i
3521.0,1197.0,3022.0,2806.0,4095.0,3902.0,3822.0,4095.0,0.15,9.91,2.2,-0.09,-0.03,-0.1,1.0,i
3521.0,1186.0,3022.0,2810.0,4095.0,3890.0,3818.0,4095.0,-0.03,9.83,2.33,-0.15,-0.06,-0.09,1.0,i
3527.0,1214.0,3023.0,2787.0,4095.0,3945.0,3849.0,4095.0,0.13,9.71,2.59,-0.13,-0.17,-0.07,1.0,i
3516.0,1216.0,3021.0,2771.0,4095.0,3934.0,3844.0,4095.0,0.12,9.85,2.54,-0.04,-0.15,-0.09,1.0,i
3527.0,1223.0,3022.0,2769.0,4095.0,3937.0,3855.0,4095.0,0.1,9.82,2.5,-0.04,-0.19,-0.13,1.0,i
3509.0,1227.0,3019.0,2768.0,4095.0,3923.0,3845.0,4095.0,-0.07,9.83,2.41,-0.04,-0.14,-0.12,1.0,i
3509.0,1220.0,3024.0,2781.0,4095.0,3939.0,3847.0,4095.0,-0.03,9.84,2.48,-0.08,-0.01,-0.09,1.0,i
3517.0,1223.0,3024.0,2768.0,4095.0,3935.0,3837.0,4095.0,-0.07,9.81,2.48,-0.14,0.18,-0.09,1.0,i
3527.0,1224.0,3027.0,2780.0,4095.0,3952.0,3839.0,4095.0,-0.3,9.7,2.73,-0.14,0.16,-0.06,1.0,i
3521.0,1225.0,3011.0,2768.0,4095.0,3951.0,3847.0,4095.0,-0.42,9.73,2.5,-0.07,0.0,-0.05,1.0,i
3520.0,1221.0,3024.0,2758.0,4095.0,3946.0,3833.0,4095.0,-0.17,9.79,2.63,-0.09,-0.04,-0.07,1.0,i
3527.0,1215.0,3025.0,2771.0,4095.0,3948.0,3842.0,4095.0,-0.4,9.73,2.72,-0.12,-0.02,-0.08,1.0,i
3520.0,1215.0,3022.0,2755.0,4095.0,3920.0,3839.0,4095.0,-0.32,9.72,2.9,-0.09,-0.02,-0.09,1.0,i
3522.0,1213.0,3020.0,2762.0,4095.0,3921.0,3842.0,4095.0,-0.35,9.68,3.0,-0.05,0.03,-0.05,1.0,i
3535.0,1209.0,3031.0,2767.0,4095.0,3937.0,3831.0,4095.0,-0.78,9.71,2.6,-0.04,0.01,-0.08,1.0,i
3511.0,1212.0,3024.0,2767.0,4095.0,3938.0,3841.0,4095.0,-0.71,9.76,2.63,-0.03,-0.03,-0.08,1.0,i
3526.0,1209.0,3014.0,2762.0,4095.0,3935.0,3831.0,4095.0,-0.88,9.72,2.55,-0.03,0.01,-0.09,1.0,i
3534.0,1206.0,3027.0,2768.0,4095.0,3942.0,3841.0,4095.0,-1.1,9.72,2.49,-0.07,-0.03,-0.05,1.0,i
3520.0,1201.0,3024.0,2768.0,4095.0,3918.0,3819.0,4095.0,-0.8,9.72,2.61,-0.03,-0.01,-0.07,1.0,i
3534.0,1195.0,3018.0,2768.0,4095.0,3939.0,3834.0,4095.0,-0.82,9.74,2.69,-0.01,-0.04,-0.09,1.0,i
3518.0,1200.0,3024.0,2766.0,4095.0,3926.0,3820.0,4095.0,-1.23,9.71,2.36,0.02,0.02,-0.07,1.0,i
3538.0,1197.0,3020.0,2768.0,4095.0,3948.0,3840.0,4095.0,-0.88,9.77,2.34,0.01,-0.02,-0.03,1.0,i
3507.0,1191.0,3013.0,2759.0,4095.0,3920.0,3827.0,4095.0,-0.99,9.76,2.24,-0.04,0.06,-0.03,1.0,i
3525.0,1195.0,3024.0,2765.0,4095.0,3942.0,3843.0,4095.0,-0.99,9.75,2.26,-0.06,0.01,-0.04,1.0,i
3523.0,1190.0,3018.0,2752.0,4095.0,3920.0,3826.0,4095.0,-0.8,9.75,2.38,-0.06,0.02,-0.07,1.0,i
3533.0,1186.0,3023.0,2759.0,4095.0,3927.0,3825.0,4095.0,-1.09,9.81,2.18,0.02,0.02,-0.08,1.0,i
3507.0,1181.0,3015.0,2768.0,4095.0,3903.0,3827.0,4095.0,-1.16,9.73,2.22,0.0,0.02,-0.03,1.0,i
3536.0,1152.0,3033.0,2779.0,4095.0,3875.0,3821.0,4095.0,-1.18,9.75,2.04,-0.1,0.04,0.03,1.0,i
3527.0,1135.0,3035.0,2787.0,4095.0,3841.0,3821.0,4095.0,-0.75,9.82,2.25,-0.07,-0.06,-0.02,1.0,i
3519.0,1129.0,3014.0,2783.0,4095.0,3834.0,3798.0,4095.0,-0.79,9.73,2.5,-0.08,0.04,-0.05,1.0,i
3531.0,1126.0,3029.0,2787.0,4095.0,3847.0,3815.0,4095.0,-1.42,9.7,2.33,-0.11,0.17,-0.02,1.0,i
3504.0,1120.0,3015.0,2771.0,4095.0,3793.0,3815.0,4095.0,-1.19,9.79,1.96,0.11,0.07,-0.02,1.0,i
3510.0,1094.0,3034.0,2793.0,4095.0,3719.0,3827.0,4095.0,-1.07,9.79,1.7,0.06,0.13,0.04,1.0,i
3520.0,1089.0,3021.0,2806.0,4095.0,3541.0,3792.0,4095.0,-0.75,9.79,2.04,-0.08,0.28,0.04,1.0,i
3123.0,2832.0,3009.0,2435.0,3840.0,2945.0,2922.0,4095.0,0.45,9.96,1.58,-0.07,-0.08,-0.09,1.0,i
3136.0,2831.0,3021.0,2438.0,3841.0,2944.0,2928.0,4095.0,0.29,9.92,1.6,-0.16,0.02,-0.03,1.0,i
3131.0,2821.0,3009.0,2449.0,3854.0,2944.0,2927.0,4095.0,0.54,9.92,2.01,-0.11,-0.01,-0.01,1.0,i
3127.0,2813.0,3019.0,2449.0,3850.0,2944.0,2923.0,4095.0,0.49,9.96,1.84,-0.06,0.01,-0.06,1.0,i
3134.0,2801.0,3023.0,2451.0,3856.0,2955.0,2930.0,4095.0,0.47,9.94,1.71,-0.08,-0.05,-0.07,1.0,i
3121.0,2797.0,3014.0,2459.0,3863.0,2961.0,2929.0,4095.0,0.52,10.0,1.81,-0.18,-0.04,-0.07,1.0,i
3136.0,2805.0,3022.0,2457.0,3862.0,2972.0,2944.0,4095.0,0.36,9.79,2.14,-0.19,0.13,-0.06,1.0,i
3122.0,2796.0,3017.0,2455.0,3855.0,2959.0,2935.0,4095.0,0.49,9.91,2.2,-0.02,-0.06,-0.1,1.0,i
3141.0,2813.0,3027.0,2466.0,3883.0,2974.0,2938.0,4095.0,0.19,9.9,1.92,-0.02,-0.04,-0.12,1.0,i
3133.0,2839.0,3021.0,2451.0,3862.0,2979.0,2939.0,4095.0,0.19,9.87,2.09,-0.01,-0.16,-0.34,1.0,i
3139.0,2896.0,3024.0,2467.0,3877.0,2991.0,2935.0,4041.0,-0.14,9.87,2.0,-0.08,0.08,-0.12,1.0,i
3126.0,2909.0,3017.0,2468.0,3867.0,2979.0,2932.0,4095.0,-0.16,9.94,1.94,-0.03,-0.05,-0.04,1.0,i
3134.0,2912.0,3024.0,2480.0,3891.0,2992.0,2944.0,4095.0,-0.34,9.87,1.97,-0.1,-0.02,-0.03,1.0,i
3124.0,2907.0,3009.0,2471.0,3882.0,2993.0,2938.0,4095.0,-0.17,9.87,2.12,-0.1,0.01,-0.02,1.0,i
3127.0,2924.0,3024.0,2469.0,3902.0,2993.0,2944.0,4095.0,-0.06,9.93,2.05,-0.09,-0.04,-0.04,1.0,i
3143.0,2925.0,3028.0,2475.0,3887.0,2992.0,2941.0,4095.0,-0.1,9.85,2.17,-0.08,-0.01,-0.06,1.0,i
3129.0,2921.0,3017.0,2474.0,3890.0,2998.0,2941.0,4095.0,-0.15,9.88,2.12,-0.07,-0.02,-0.06,1.0,i
3125.0,2938.0,3022.0,2481.0,3886.0,3002.0,2935.0,3683.0,-0.22,9.85,2.25,-0.05,-0.01,-0.11,1.0,i
3126.0,2943.0,3023.0,2472.0,3899.0,2998.0,2937.0,4095.0,-0.13,9.84,2.3,-0.11,-0.03,-0.12,1.0,i
3135.0,2946.0,3024.0,2471.0,3897.0,3002.0,2947.0,4095.0,-0.54,9.84,2.11,-0.07,-0.03,-0.1,1.0,i
3142.0,2943.0,3029.0,2481.0,3914.0,3011.0,2957.0,4095.0,-0.32,9.79,2.38,-0.06,0.01,-0.02,1.0,i
3139.0,2939.0,3024.0,2479.0,3901.0,2995.0,2942.0,4095.0,-0.4,9.88,2.16,-0.02,0.02,-0.03,1.0,i
3141.0,2948.0,3026.0,2486.0,3915.0,3011.0,2946.0,4095.0,-0.43,9.91,2.02,-0.05,-0.03,-0.05,1.0,i
3136.0,2938.0,3024.0,2483.0,3886.0,3008.0,2945.0,4095.0,-0.53,9.88,2.15,-0.1,0.03,-0.01,1.0,i
3143.0,2949.0,3030.0,2486.0,3919.0,3013.0,2953.0,4095.0,-0.37,9.83,2.28,-0.07,0.04,-0.0,1.0,i
3127.0,2935.0,3024.0,2493.0,3914.0,3015.0,2950.0,4095.0,-0.32,9.85,2.26,-0.07,0.02,0.0,1.0,i
3141.0,2933.0,3026.0,2487.0,3901.0,2999.0,2950.0,4095.0,-0.28,9.9,2.13,-0.03,0.01,-0.02,1.0,i
3136.0,2944.0,3030.0,2493.0,3920.0,3024.0,2957.0,4095.0,-0.57,9.77,2.21,-0.02,0.09,-0.01,1.0,i
3132.0,2945.0,3027.0,2493.0,3906.0,3015.0,2948.0,4095.0,-0.22,9.9,2.16,-0.05,-0.0,-0.02,1.0,i
3145.0,2949.0,3037.0,2498.0,3917.0,3021.0,2961.0,4095.0,-0.29,9.82,2.21,-0.07,-0.02,-0.05,1.0,i
3133.0,2938.0,3030.0,2497.0,3911.0,3024.0,2960.0,4095.0,-0.41,9.84,1.99,-0.13,0.02,-0.05,1.0,i
3139.0,2943.0,3029.0,2507.0,3938.0,3024.0,2962.0,4095.0,-0.36,9.83,2.36,-0.16,-0.02,-0.04,1.0,i
3137.0,2931.0,3029.0,2501.0,3908.0,3022.0,2951.0,4095.0,-0.42,9.79,2.51,-0.16,0.06,-0.04,1.0,i
3145.0,2927.0,3037.0,2503.0,3936.0,3025.0,2960.0,4095.0,-0.5,9.74,2.53,-0.15,-0.0,-0.04,1.0,i
3141.0,2928.0,3025.0,2506.0,3912.0,3024.0,2950.0,4095.0,-0.74,9.74,2.26,-0.17,-0.03,0.03,1.0,i
3141.0,2933.0,3035.0,2508.0,3927.0,3024.0,2961.0,4095.0,-0.54,9.55,2.68,-0.15,-0.24,0.23,1.0,i
3138.0,2935.0,3024.0,2508.0,3920.0,3023.0,2951.0,4095.0,0.42,9.76,3.05,-0.1,-0.34,0.29,1.0,i
3142.0,2928.0,3024.0,2514.0,3920.0,3025.0,2956.0,4095.0,0.67,9.85,2.9,-0.13,-0.07,0.04,1.0,i
3146.0,2928.0,3032.0,2519.0,3932.0,3027.0,2963.0,4095.0,0.45,9.73,2.98,-0.13,0.01,0.01,1.0,i
3132.0,2919.0,3024.0,2509.0,3920.0,3031.0,2957.0,4095.0,0.51,9.67,3.17,-0.13,0.02,-0.02,1.0,i
3141.0,2919.0,3033.0,2526.0,3951.0,3031.0,2960.0,4095.0,0.04,9.64,2.91,-0.03,0.08,-0.03,1.0,i
3120.0,2907.0,3024.0,2512.0,3935.0,3034.0,2963.0,4095.0,0.47,9.78,2.9,-0.04,-0.05,-0.07,1.0,i
3151.0,2905.0,3024.0,2518.0,3951.0,3045.0,2981.0,4095.0,0.63,9.79,2.86,0.07,-0.06,-0.14,1.0,i
3136.0,2897.0,3029.0,2512.0,3965.0,3031.0,2973.0,4095.0,0.19,9.74,2.77,-0.02,-0.01,-0.2,1.0,i
3142.0,2908.0,3035.0,2517.0,3951.0,3037.0,2983.0,4095.0,-0.16,9.72,2.64,-0.05,-0.02,-0.21,1.0,i
3135.0,2909.0,3024.0,2513.0,3925.0,3050.0,2975.0,4095.0,-0.31,9.71,2.36,-0.03,-0.08,-0.2,1.0,i
3126.0,2900.0,3015.0,2512.0,3938.0,3037.0,2973.0,4095.0,-0.23,9.75,2.69,-0.14,0.06,-0.16,1.0,i
3143.0,2909.0,3025.0,2518.0,3943.0,3031.0,2975.0,4095.0,-0.37,9.59,3.27,-0.01,-0.04,-0.16,1.0,i
3136.0,2902.0,3024.0,2515.0,3945.0,3038.0,2971.0,4095.0,-0.55,9.61,2.79,0.06,0.03,-0.1,1.0,i
3149.0,2928.0,3030.0,2519.0,3955.0,3034.0,2975.0,4095.0,-0.53,9.63,2.78,0.13,0.02,-0.13,1.0,i
3135.0,2927.0,3025.0,2512.0,3947.0,3051.0,2976.0,4095.0,-0.5,9.82,2.5,0.06,-0.02,-0.11,1.0,i
3137.0,2925.0,3024.0,2517.0,3951.0,3053.0,2987.0,4095.0,-0.32,9.73,2.97,0.15,-0.2,-0.01,1.0,i
3130.0,2911.0,3026.0,2512.0,3937.0,3047.0,2979.0,4095.0,-0.91,9.81,2.04,0.24,-0.08,-0.06,1.0,i
3141.0,2918.0,3039.0,2531.0,3953.0,3054.0,2988.0,4095.0,-0.82,9.93,1.27,0.23,0.09,-0.02,1.0,i
3136.0,2911.0,3024.0,2530.0,3948.0,3050.0,2975.0,4095.0,-0.4,10.15,0.97,0.15,0.02,-0.09,1.0,i
3141.0,2903.0,3034.0,2526.0,3954.0,3056.0,2987.0,4095.0,-0.6,10.0,1.17,-0.01,-0.02,-0.07,1.0,i
3136.0,2895.0,3040.0,2527.0,3968.0,3056.0,2989.0,4095.0,-0.83,9.9,1.28,0.03,0.0,-0.11,1.0,i
3135.0,2896.0,3029.0,2529.0,3955.0,3053.0,2981.0,4095.0,-0.85,9.92,1.18,-0.0,0.03,-0.02,1.0,i
3150.0,2901.0,3041.0,2539.0,3987.0,3051.0,2986.0,4095.0,-0.51,9.98,1.13,0.01,0.02,-0.09,1.0,i
3134.0,2887.0,3034.0,2526.0,3952.0,3042.0,2980.0,4095.0,-0.66,10.02,0.97,0.02,-0.09,-0.16,1.0,i
3150.0,2910.0,3039.0,2534.0,3968.0,3056.0,2993.0,4095.0,-1.01,10.01,0.66,-0.01,0.06,0.0,1.0,i
3136.0,2894.0,3024.0,2529.0,3957.0,3055.0,2991.0,4095.0,-0.77,10.03,0.84,-0.06,0.07,0.01,1.0,i
3151.0,2896.0,3030.0,2526.0,3950.0,3055.0,2990.0,4095.0,-0.87,10.0,0.85,-0.02,-0.01,-0.05,1.0,i
3136.0,2899.0,3027.0,2530.0,3947.0,3060.0,2988.0,4095.0,-1.01,9.91,0.83,-0.04,0.04,0.01,1.0,i
3136.0,2913.0,3042.0,2537.0,3969.0,3062.0,2997.0,4095.0,-0.7,10.01,0.76,-0.02,0.06,0.02,1.0,i
3131.0,2896.0,3033.0,2531.0,3975.0,3061.0,2981.0,4095.0,-0.81,9.99,0.66,-0.06,0.11,0.05,1.0,i
3136.0,2891.0,3026.0,2527.0,3952.0,3071.0,2991.0,4095.0,-0.62,10.04,0.7,-0.07,0.04,0.03,1.0,i
3139.0,2898.0,3035.0,2535.0,3982.0,3070.0,2994.0,4095.0,-0.68,10.01,0.57,-0.05,0.06,0.02,1.0,i
3130.0,2887.0,3030.0,2532.0,3953.0,3070.0,2997.0,4095.0,-0.65,10.08,0.42,-0.14,0.03,0.03,1.0,i
3138.0,2902.0,3034.0,2541.0,3982.0,3065.0,3018.0,4095.0,-0.47,9.97,0.94,-0.14,-0.03,0.04,1.0,i
3133.0,2894.0,3031.0,2533.0,3985.0,3061.0,3019.0,4095.0,-0.46,9.97,0.99,-0.13,0.01,0.03,1.0,i
3137.0,2899.0,3035.0,2544.0,3984.0,3063.0,3017.0,4095.0,-0.18,10.03,1.13,-0.12,-0.01,-0.0,1.0,i
3143.0,2891.0,3024.0,2527.0,3959.0,3056.0,3017.0,4095.0,-0.58,10.05,0.54,-0.13,0.04,-0.0,1.0,i
3137.0,2898.0,3042.0,2544.0,3957.0,3063.0,3025.0,4095.0,-0.38,10.0,1.18,-0.23,-0.01,0.02,1.0,i
3136.0,2893.0,3034.0,2539.0,3951.0,3057.0,3021.0,4095.0,-0.07,9.96,1.59,-0.14,0.02,0.02,1.0,i
3138.0,2896.0,3037.0,2542.0,3978.0,3071.0,3027.0,4095.0,-0.2,9.98,1.38,-0.07,0.02,0.02,1.0,i
3142.0,2895.0,3039.0,2534.0,3963.0,3059.0,3024.0,4095.0,-0.02,9.94,1.55,-0.13,-0.01,0.01,1.0,i
3141.0,2893.0,3041.0,2544.0,3989.0,3083.0,3024.0,4095.0,-0.17,10.02,1.28,-0.06,0.06,-0.02,1.0,i
3140.0,2887.0,3042.0,2543.0,3984.0,3061.0,3035.0,4095.0,0.04,10.01,1.47,-0.07,-0.02,-0.01,1.0,i
3136.0,2905.0,3029.0,2533.0,3953.0,3063.0,3024.0,4095.0,-0.05,9.91,1.58,-0.04,0.07,-0.01,1.0,i
3147.0,2962.0,3030.0,2545.0,4007.0,3084.0,3059.0,4095.0,0.55,10.16,0.83,-0.01,0.04,0.04,1.0,i
3133.0,2946.0,3024.0,2541.0,3984.0,3082.0,3053.0,4095.0,0.3,10.05,1.02,-0.07,0.02,-0.02,1.0,i
3139.0,2961.0,3026.0,2544.0,3985.0,3089.0,3060.0,4095.0,0.19,10.01,1.22,-0.05,0.01,-0.03,1.0,i
3135.0,2958.0,3025.0,2545.0,4004.0,3089.0,3059.0,4095.0,0.36,10.08,1.01,-0.03,0.05,-0.03,1.0,i
3133.0,2935.0,3024.0,2544.0,3993.0,3088.0,3054.0,4095.0,0.28,9.99,1.12,-0.06,-0.04,-0.06,1.0,i
3136.0,2962.0,3034.0,2546.0,4001.0,3089.0,3060.0,4095.0,0.11,10.04,1.0,-0.02,-0.02,-0.08,1.0,i
3136.0,2943.0,3024.0,2546.0,3991.0,3087.0,3047.0,4095.0,0.27,10.05,1.06,-0.03,0.01,-0.02,1.0,i
3139.0,2941.0,3028.0,2559.0,3999.0,3095.0,3055.0,4095.0,0.19,10.01,1.07,-0.03,-0.01,-0.07,1.0,i
3125.0,2944.0,3024.0,2558.0,4001.0,3088.0,3054.0,4095.0,0.06,10.05,0.83,0.02,-0.02,-0.08,1.0,i
3136.0,2960.0,3026.0,2559.0,4018.0,3099.0,3062.0,4095.0,0.09,10.02,0.82,-0.01,-0.0,-0.06,1.0,i
3131.0,2948.0,3019.0,2559.0,3995.0,3089.0,3053.0,4095.0,0.02,10.01,0.74,-0.04,-0.01,-0.07,1.0,i
3149.0,2956.0,3034.0,2559.0,4003.0,3092.0,3046.0,4095.0,0.02,10.07,0.68,-0.03,-0.03,-0.08,1.0,i
3136.0,2943.0,3025.0,2559.0,3997.0,3088.0,3053.0,4095.0,-0.01,10.08,0.76,-0.05,-0.05,-0.07,1.0,i
3145.0,2947.0,3040.0,2559.0,4027.0,3103.0,3055.0,4095.0,-0.03,10.02,0.92,-0.01,0.02,-0.05,1.0,i
3134.0,2944.0,3021.0,2559.0,3995.0,3097.0,3059.0,4095.0,-0.03,10.06,0.62,0.03,-0.01,-0.05,1.0,i
3123.0,2943.0,3028.0,2559.0,3994.0,3091.0,3055.0,4095.0,-0.09,10.07,0.39,-0.03,-0.02,-0.09,1.0,i
3136.0,2944.0,3025.0,2559.0,3999.0,3099.0,3060.0,4095.0,-0.13,10.05,0.57,-0.06,-0.07,-0.1,1.0,i
3129.0,2939.0,3023.0,2559.0,3988.0,3093.0,3055.0,4095.0,-0.23,10.1,0.57,-0.04,-0.07,-0.11,1.0,i
3142.0,2949.0,3024.0,2559.0,4007.0,3106.0,3061.0,4095.0,-0.32,10.02,0.48,-0.02,-0.06,-0.09,1.0,i
3123.0,2939.0,3022.0,2559.0,3975.0,3090.0,3056.0,4095.0,-0.3,10.03,0.5,-0.07,-0.03,-0.08,1.0,i
3149.0,2944.0,3030.0,2559.0,3997.0,3088.0,3063.0,4095.0,-0.67,9.99,0.71,-0.08,-0.05,-0.06,1.0,i
3133.0,2926.0,3019.0,2559.0,3986.0,3088.0,3057.0,4095.0,-0.89,10.01,0.44,-0.08,-0.05,-0.09,1.0,i
3145.0,2934.0,3039.0,2589.0,4017.0,3095.0,3059.0,4095.0,-0.8,10.0,0.6,-0.07,-0.03,-0.07,1.0,i
3130.0,2926.0,3026.0,2559.0,4000.0,3091.0,3056.0,4095.0,-0.9,9.96,0.69,-0.09,-0.03,-0.07,1.0,i
3141.0,2933.0,3024.0,2559.0,4013.0,3099.0,3065.0,4095.0,-1.03,9.98,0.54,-0.1,-0.03,-0.07,1.0,i
3138.0,2925.0,3019.0,2559.0,3984.0,3085.0,3056.0,4095.0,-0.76,10.03,0.74,-0.12,-0.04,-0.07,1.0,i
3139.0,2925.0,3024.0,2587.0,4021.0,3090.0,3056.0,4095.0,-0.92,10.03,0.77,-0.1,-0.1,-0.09,1.0,i
3131.0,2917.0,3025.0,2559.0,3987.0,3086.0,3053.0,4095.0,-1.16,9.9,0.92,-0.14,0.01,-0.04,1.0,i
3147.0,2931.0,3033.0,2590.0,4006.0,3090.0,3056.0,4095.0,-0.99,9.94,1.13,-0.14,-0.0,-0.03,1.0,i
3132.0,2918.0,3024.0,2581.0,4011.0,3095.0,3047.0,4095.0,-1.1,9.96,1.02,-0.1,-0.04,-0.06,1.0,i
3151.0,2935.0,3034.0,2590.0,4025.0,3102.0,3066.0,4095.0,-0.92,9.94,1.15,-0.08,0.03,0.0,1.0,i
3139.0,2937.0,3031.0,2589.0,4032.0,3090.0,3068.0,4095.0,-0.89,9.97,1.19,-0.12,-0.04,-0.07,1.0,i
3135.0,2934.0,3021.0,2582.0,4003.0,3091.0,3056.0,4095.0,-1.44,9.81,1.13,-0.08,0.03,-0.09,1.0,i
3150.0,2958.0,3029.0,2591.0,4007.0,3099.0,3062.0,4095.0,-0.88,10.03,1.1,0.01,0.0,0.01,1.0,i
3134.0,2942.0,3021.0,2583.0,4017.0,3097.0,3059.0,4095.0,-0.94,9.95,1.24,-0.13,-0.01,0.06,1.0,i
3147.0,2946.0,3031.0,2593.0,4029.0,3104.0,3070.0,4095.0,-1.21,9.93,0.98,-0.07,-0.05,-0.09,1.0,i
3136.0,2944.0,3024.0,2590.0,4006.0,3100.0,3058.0,4095.0,-0.63,9.99,1.33,-0.05,-0.02,0.01,1.0,i
3152.0,2939.0,3031.0,2592.0,4027.0,3108.0,3070.0,4095.0,-0.78,9.93,1.29,-0.08,-0.01,-0.08,1.0,i
3130.0,2928.0,3024.0,2582.0,4000.0,3097.0,3059.0,4095.0,-1.63,9.75,1.08,-0.15,0.06,-0.02,1.0,i
3138.0,2934.0,3024.0,2595.0,4031.0,3105.0,3069.0,4095.0,-0.54,10.05,1.37,-0.1,-0.0,-0.0,1.0,i
3125.0,2911.0,3024.0,2591.0,4007.0,3105.0,3071.0,4095.0,-0.77,9.93,1.74,-0.13,0.03,-0.0,1.0,i
3152.0,2928.0,3037.0,2602.0,4025.0,3105.0,3071.0,4095.0,-0.95,9.89,1.8,-0.11,-0.07,-0.08,1.0,i
3136.0,2916.0,3017.0,2588.0,4015.0,3101.0,3059.0,4095.0,-1.27,9.78,1.75,-0.08,0.04,0.02,1.0,i
3139.0,2923.0,3035.0,2604.0,4042.0,3118.0,3071.0,4095.0,-0.5,9.95,1.97,-0.14,-0.01,0.01,1.0,i
3131.0,2911.0,3024.0,2592.0,4009.0,3099.0,3063.0,4095.0,-1.16,9.86,1.72,-0.12,-0.08,-0.17,1.0,i
3152.0,2911.0,3026.0,2599.0,4027.0,3110.0,3071.0,4095.0,-1.28,9.79,1.8,-0.17,0.02,-0.03,1.0,i
3139.0,2907.0,3022.0,2593.0,4010.0,3109.0,3071.0,4095.0,-0.85,9.82,2.33,-0.25,-0.04,-0.04,1.0,i
3136.0,2902.0,3026.0,2594.0,4015.0,3113.0,3066.0,4095.0,-1.22,9.71,2.53,-0.17,-0.02,-0.12,1.0,i
3137.0,2900.0,3026.0,2602.0,4039.0,3116.0,3071.0,4095.0,-1.06,9.69,2.6,-0.08,0.01,-0.01,1.0,i
3130.0,2895.0,3023.0,2596.0,4031.0,3106.0,3069.0,4095.0,-0.86,9.74,2.54,-0.09,-0.02,-0.07,1.0,i
3140.0,2894.0,3023.0,2597.0,4041.0,3114.0,3083.0,4095.0,-1.58,9.63,2.28,-0.11,-0.04,-0.11,1.0,i
3136.0,2900.0,3019.0,2597.0,4013.0,3095.0,3070.0,4095.0,-0.99,9.68,2.72,-0.09,0.03,0.01,1.0,i
3148.0,2896.0,3034.0,2599.0,4029.0,3115.0,3071.0,4095.0,-0.82,9.72,2.66,-0.09,-0.02,-0.09,1.0,i
3135.0,2898.0,3024.0,2595.0,4014.0,3104.0,3071.0,4095.0,-1.72,9.54,2.56,-0.12,-0.01,-0.06,1.0,i
3136.0,2905.0,3028.0,2604.0,4030.0,3115.0,3071.0,4095.0,-0.94,9.71,2.81,-0.09,0.0,-0.02,1.0,i
3135.0,2896.0,3023.0,2595.0,4016.0,3109.0,3071.0,4095.0,-1.13,9.63,2.86,-0.06,-0.03,-0.1,1.0,i
3152.0,2905.0,3028.0,2608.0,4017.0,3105.0,3071.0,4095.0,-1.63,9.56,2.68,-0.06,0.01,-0.03,1.0,i
3121.0,2896.0,3024.0,2595.0,4015.0,3116.0,3071.0,4095.0,-1.01,9.66,2.87,-0.04,0.01,-0.03,1.0,i
3130.0,2896.0,3030.0,2606.0,4045.0,3120.0,3071.0,4095.0,-1.32,9.68,2.5,-0.07,-0.02,-0.13,1.0,i
3142.0,2896.0,3031.0,2608.0,4048.0,3120.0,3085.0,4095.0,-1.4,9.63,2.61,-0.02,-0.01,-0.02,1.0,i
3139.0,2892.0,3033.0,2606.0,4037.0,3136.0,3088.0,4095.0,-1.59,9.62,2.28,0.09,0.02,-0.12,1.0,i
3137.0,2896.0,3024.0,2601.0,4016.0,3105.0,3071.0,4095.0,-1.72,9.68,2.02,0.05,-0.08,-0.13,1.0,i
3139.0,2896.0,3029.0,2608.0,4033.0,3135.0,3088.0,4095.0,-2.1,9.57,2.15,0.01,0.03,-0.01,1.0,i
3129.0,2890.0,3017.0,2610.0,4033.0,3119.0,3087.0,4095.0,-1.39,9.75,2.25,-0.04,0.04,-0.05,1.0,i
3136.0,2897.0,3032.0,2608.0,4031.0,3116.0,3071.0,4095.0,-1.8,9.65,2.15,-0.03,0.05,-0.17,1.0,i
3146.0,2892.0,3026.0,2605.0,4053.0,3117.0,3086.0,4095.0,-2.08,9.57,1.99,0.07,0.01,-0.06,1.0,i
3139.0,2891.0,3026.0,2603.0,4023.0,3110.0,3071.0,4095.0,-1.9,9.62,2.04,-0.05,0.01,-0.04,1.0,i
3149.0,2901.0,3034.0,2608.0,4045.0,3114.0,3087.0,4095.0,-2.33,9.57,1.91,-0.02,0.13,-0.07,1.0,i
3132.0,2891.0,3026.0,2607.0,4032.0,3117.0,3069.0,4095.0,-2.01,9.62,1.95,-0.03,0.27,0.06,1.0,i
3142.0,2895.0,3024.0,2611.0,4046.0,3120.0,3087.0,4095.0,-1.85,9.74,1.83,-0.03,0.12,0.0,1.0,i
3135.0,2889.0,3019.0,2603.0,4025.0,3120.0,3081.0,4095.0,-1.94,9.72,1.6,0.04,0.1,-0.05,1.0,i
3146.0,2899.0,3031.0,2608.0,4047.0,3122.0,3088.0,4095.0,-1.92,9.66,1.75,0.03,0.21,0.12,1.0,i
3137.0,2896.0,3023.0,2604.0,4034.0,3114.0,3081.0,4095.0,-1.26,9.92,1.41,0.02,0.13,-0.01,1.0,i
3151.0,2899.0,3031.0,2610.0,4061.0,3120.0,3081.0,4095.0,-2.01,9.74,1.12,0.02,0.08,-0.05,1.0,i
3129.0,2887.0,3024.0,2607.0,4035.0,3126.0,3090.0,4095.0,-1.55,9.85,1.16,0.0,0.03,0.06,1.0,i
3148.0,2882.0,3024.0,2610.0,4043.0,3127.0,3082.0,4095.0,-1.15,9.89,1.41,-0.06,-0.02,-0.08,1.0,i
3138.0,2880.0,3037.0,2612.0,4037.0,3120.0,3070.0,4095.0,-2.12,9.75,1.12,0.03,-0.16,-0.14,1.0,i
3136.0,2896.0,3033.0,2608.0,4048.0,3115.0,3081.0,4095.0,-1.93,9.78,1.11,0.03,0.07,0.03,1.0,i
3138.0,2883.0,3029.0,2611.0,4054.0,3124.0,3088.0,4095.0,-1.13,9.93,1.46,0.07,-0.14,-0.04,1.0,i
3141.0,2887.0,3023.0,2608.0,4038.0,3124.0,3086.0,4095.0,-2.33,9.68,0.74,0.08,0.03,-0.01,1.0,i
3143.0,2873.0,3025.0,2611.0,4048.0,3117.0,3091.0,4095.0,-0.65,10.01,0.79,-0.09,0.02,-0.01,1.0,i
3142.0,2882.0,3036.0,2622.0,4052.0,3123.0,3083.0,4095.0,-0.94,9.98,0.57,-0.09,0.08,0.02,1.0,i
3135.0,2871.0,3029.0,2610.0,4031.0,3120.0,3083.0,4095.0,-0.62,10.0,0.89,-0.08,-0.02,0.02,1.0,i
3146.0,2876.0,3027.0,2611.0,4053.0,3127.0,3088.0,4095.0,-0.63,10.0,0.65,-0.06,0.02,-0.0,1.0,i
3133.0,2876.0,3022.0,2611.0,4074.0,3120.0,3088.0,4095.0,-0.3,10.09,0.71,-0.07,0.02,0.02,1.0,i
3137.0,2883.0,3033.0,2622.0,4070.0,3134.0,3095.0,4095.0,-0.5,10.0,0.88,-0.09,0.03,-0.02,1.0,i
3135.0,2869.0,3023.0,2608.0,4038.0,3127.0,3088.0,4095.0,-0.62,10.01,0.74,-0.08,0.08,0.03,1.0,i
3135.0,2871.0,3029.0,2622.0,4075.0,3131.0,3091.0,4095.0,-0.25,10.05,0.9,-0.07,0.02,-0.04,1.0,i
3137.0,2871.0,3023.0,2617.0,4064.0,3133.0,3087.0,4095.0,-0.68,9.95,0.79,-0.06,-0.02,-0.04,1.0,i
3138.0,2875.0,3026.0,2613.0,4033.0,3120.0,3084.0,4095.0,-0.23,10.07,0.83,-0.06,-0.01,0.01,1.0,i
3142.0,2875.0,3039.0,2627.0,4051.0,3123.0,3089.0,4095.0,-0.35,10.03,0.83,-0.08,0.03,-0.05,1.0,i
3142.0,2861.0,3029.0,2615.0,4048.0,3126.0,3090.0,4095.0,-0.65,9.96,0.69,-0.11,0.01,0.03,1.0,i
3146.0,2870.0,3031.0,2618.0,4052.0,3127.0,3091.0,4095.0,-0.08,10.03,1.1,-0.1,0.0,-0.02,1.0,i
3136.0,2864.0,3031.0,2608.0,4051.0,3120.0,3088.0,4095.0,-0.7,9.96,0.79,-0.09,0.06,-0.02,1.0,i
3151.0,2866.0,3034.0,2622.0,4059.0,3134.0,3098.0,4095.0,-0.11,10.04,1.06,-0.12,-0.02,0.0,1.0,i
3147.0,2863.0,3034.0,2614.0,4048.0,3123.0,3088.0,4095.0,-0.62,9.92,1.09,-0.11,0.04,-0.09,1.0,i
3150.0,2862.0,3030.0,2620.0,4068.0,3133.0,3101.0,4095.0,-0.37,10.03,0.98,-0.09,-0.01,0.01,1.0,i
3131.0,2855.0,3030.0,2616.0,4055.0,3127.0,3093.0,4095.0,-0.06,10.06,1.08,-0.08,-0.04,-0.06,1.0,i
3130.0,2864.0,3033.0,2623.0,4059.0,3129.0,3093.0,4095.0,-0.38,10.05,0.95,-0.11,-0.03,-0.04,1.0,i
3136.0,2854.0,3027.0,2618.0,4063.0,3130.0,3086.0,4095.0,-0.34,9.98,1.37,-0.12,-0.01,-0.04,1.0,i
3139.0,2846.0,3033.0,2613.0,4051.0,3120.0,3088.0,4095.0,-0.21,9.99,1.4,-0.1,-0.02,-0.06,1.0,i
3143.0,2847.0,3033.0,2625.0,4064.0,3138.0,3087.0,4095.0,-0.47,9.96,1.31,-0.07,-0.08,-0.07,1.0,i
3136.0,2838.0,3028.0,2621.0,4047.0,3121.0,3087.0,4095.0,-0.26,9.99,1.34,-0.06,0.06,0.0,1.0,i
3152.0,2850.0,3031.0,2624.0,4049.0,3121.0,3091.0,4095.0,-0.06,10.01,1.42,-0.1,-0.02,-0.08,1.0,i
3140.0,2851.0,3030.0,2619.0,4047.0,3118.0,3088.0,4095.0,-0.63,9.93,1.34,-0.08,-0.06,-0.12,1.0,i
3142.0,2847.0,3033.0,2623.0,4063.0,3126.0,3094.0,4095.0,-0.31,9.97,1.52,-0.11,-0.04,-0.06,1.0,i
3134.0,2835.0,3022.0,2608.0,4047.0,3120.0,3093.0,4095.0,-0.38,9.93,1.51,-0.05,-0.03,-0.14,1.0,i
3143.0,2832.0,3030.0,2624.0,4055.0,3128.0,3088.0,4095.0,-0.81,9.93,1.37,-0.11,-0.0,-0.1,1.0,i
3152.0,2837.0,3037.0,2621.0,4061.0,3125.0,3094.0,4095.0,-0.54,9.95,1.58,-0.12,-0.02,-0.07,1.0,i
3135.0,2816.0,3025.0,2622.0,4061.0,3133.0,3088.0,4095.0,-0.7,9.94,1.61,-0.07,-0.08,-0.08,1.0,i
3147.0,2827.0,3032.0,2622.0,4066.0,3136.0,3094.0,4095.0,-0.78,9.88,1.67,-0.11,0.04,0.02,1.0,i
3148.0,2813.0,3028.0,2609.0,4053.0,3132.0,3088.0,4095.0,-0.41,9.95,1.78,-0.09,0.07,-0.07,1.0,i
3147.0,2815.0,3035.0,2624.0,4071.0,3136.0,3093.0,4095.0,-1.0,9.84,1.59,-0.09,0.05,-0.06,1.0,i
3140.0,2816.0,3034.0,2620.0,4061.0,3125.0,3091.0,4095.0,-0.6,9.9,1.87,-0.09,0.03,-0.0,1.0,i
3145.0,2825.0,3035.0,2623.0,4059.0,3135.0,3094.0,4095.0,-0.52,10.0,1.73,0.02,-0.16,-0.08,1.0,i
3149.0,2815.0,3034.0,2615.0,4048.0,3120.0,3091.0,4095.0,-0.77,9.89,1.71,-0.07,0.05,0.02,1.0,i
3142.0,2800.0,3027.0,2613.0,4068.0,3134.0,3095.0,4095.0,-0.42,9.97,1.66,-0.07,0.07,-0.04,1.0,i
3127.0,2801.0,3025.0,2618.0,4053.0,3129.0,3095.0,4095.0,-0.88,9.91,1.54,-0.07,-0.08,-0.08,1.0,i
3142.0,2800.0,3037.0,2624.0,4085.0,3133.0,3095.0,4095.0,-0.62,9.9,1.85,-0.09,0.07,0.05,1.0,i
3146.0,2799.0,3023.0,2623.0,4095.0,3136.0,3105.0,4095.0,-0.41,9.92,1.96,-0.07,0.02,-0.02,1.0,i
