hall_1,hall_2,hall_3,flex_t,flex_i,flex_m,flex_r,flex_p,accel_x,accel_y,accel_z,gyro_x,gyro_y,gyro_z,sign
4095.0,2886.0,2994.0,2798.0,2858.0,3066.0,2999.0,4095.0,1.78,9.39,-2.12,-0.05,0.08,-0.03,i
4095.0,2874.0,2999.0,2786.0,2853.0,3070.0,2992.0,4095.0,2.05,9.43,-2.1,-0.06,0.04,0.0,i
4095.0,2866.0,2999.0,2791.0,2857.0,3069.0,2992.0,4095.0,1.87,9.42,-1.94,-0.05,0.01,-0.03,i
4095.0,2869.0,3007.0,2799.0,2855.0,3071.0,2996.0,4095.0,1.69,9.61,-1.87,-0.03,-0.01,-0.05,i
4095.0,2879.0,2995.0,2793.0,2864.0,3070.0,2993.0,4095.0,1.47,9.5,-1.92,0.01,-0.02,-0.03,i
4095.0,2864.0,2998.0,2796.0,2857.0,3082.0,2998.0,4095.0,1.83,9.44,-2.09,0.04,0.0,-0.05,i
4095.0,2878.0,3014.0,2800.0,2863.0,3071.0,3008.0,4095.0,1.59,9.36,-2.19,0.0,-0.03,0.04,i
4095.0,2871.0,2992.0,2799.0,2859.0,3067.0,2999.0,4095.0,1.48,9.41,-2.3,-0.02,0.05,-0.05,i
4095.0,2865.0,3006.0,2803.0,2860.0,3083.0,2999.0,4095.0,1.96,9.48,-2.04,-0.03,0.0,0.0,i
4095.0,2875.0,2999.0,2801.0,2860.0,3071.0,3002.0,4095.0,1.82,9.49,-2.09,-0.02,0.0,-0.04,i
4095.0,2869.0,2992.0,2801.0,2855.0,3070.0,3003.0,4095.0,1.93,9.53,-1.93,-0.01,-0.0,-0.07,i
4095.0,2874.0,2989.0,2806.0,2859.0,3067.0,3007.0,4095.0,1.46,9.68,-1.95,0.03,0.0,-0.05,i
4095.0,2877.0,2992.0,2802.0,2864.0,3080.0,3005.0,4095.0,1.08,9.02,-2.48,0.03,0.09,-0.06,i
4095.0,2865.0,2996.0,2804.0,2860.0,3071.0,3007.0,4095.0,2.16,9.26,-2.37,-0.06,-0.02,0.1,i
4095.0,2865.0,2993.0,2807.0,2864.0,3085.0,3008.0,4095.0,1.68,9.34,-2.11,-0.04,0.05,0.02,i
4095.0,2871.0,2998.0,2806.0,2862.0,3082.0,3013.0,4095.0,1.82,9.4,-2.11,-0.04,0.02,-0.07,i
4095.0,2869.0,2997.0,2802.0,2864.0,3083.0,3005.0,4095.0,1.69,9.47,-2.02,-0.02,-0.01,0.02,i
4095.0,2864.0,2992.0,2799.0,2862.0,3082.0,3009.0,4095.0,1.61,9.4,-2.09,-0.04,0.04,-0.08,i
4095.0,2876.0,2996.0,2801.0,2863.0,3071.0,3010.0,4095.0,1.88,9.62,-2.12,0.0,-0.05,0.02,i
4095.0,2873.0,2993.0,2800.0,2870.0,3080.0,3007.0,4095.0,1.47,9.25,-2.14,-0.03,0.03,-0.03,i
4095.0,2863.0,2992.0,2800.0,2865.0,3082.0,3012.0,4095.0,1.88,9.37,-2.18,-0.05,-0.02,0.0,i
4095.0,2871.0,2998.0,2802.0,2867.0,3088.0,3007.0,4095.0,1.7,9.37,-2.07,-0.05,0.0,0.03,i
4095.0,2868.0,2995.0,2800.0,2863.0,3088.0,3009.0,4095.0,1.78,9.33,-2.05,0.0,0.03,0.03,i
4095.0,2879.0,3003.0,2800.0,2863.0,3071.0,3007.0,4095.0,1.78,9.66,-2.08,-0.04,-0.0,-0.03,i
4095.0,2869.0,2992.0,2800.0,2863.0,3086.0,3015.0,4095.0,1.86,9.56,-1.98,-0.02,-0.02,-0.02,i
4095.0,2878.0,3010.0,2800.0,2864.0,3087.0,3020.0,4095.0,1.77,9.5,-2.13,0.01,-0.02,-0.02,i
4095.0,2869.0,2996.0,2802.0,2862.0,3086.0,3017.0,4095.0,1.44,9.43,-2.25,0.02,0.04,-0.04,i
4095.0,2878.0,2992.0,2800.0,2864.0,3082.0,3011.0,4095.0,1.92,9.43,-2.23,0.01,-0.01,-0.07,i
4095.0,2867.0,3005.0,2800.0,2864.0,3087.0,3021.0,4095.0,1.75,9.31,-2.21,-0.01,0.0,0.02,i
4095.0,2867.0,2992.0,2809.0,2873.0,3086.0,3021.0,4095.0,1.47,9.27,-2.16,0.01,-0.01,0.02,i
4095.0,2873.0,2993.0,2810.0,2869.0,3088.0,3024.0,4095.0,1.91,9.53,-2.26,0.0,-0.0,0.0,i
4095.0,2879.0,2986.0,2807.0,2860.0,3100.0,3021.0,4095.0,1.84,9.46,-2.16,-0.04,0.03,-0.01,i
4095.0,2875.0,2995.0,2807.0,2867.0,3094.0,3033.0,4095.0,1.83,9.52,-2.32,-0.01,0.01,-0.02,i
4095.0,2874.0,3003.0,2809.0,2873.0,3089.0,3031.0,4095.0,1.55,9.37,-2.22,-0.03,0.0,-0.03,i
4095.0,2871.0,2992.0,2812.0,2871.0,3091.0,3026.0,4095.0,1.82,9.31,-2.21,-0.04,0.02,-0.05,i
4095.0,2875.0,2992.0,2816.0,2865.0,3095.0,3027.0,4095.0,1.68,9.37,-2.3,-0.07,0.01,0.02,i
4095.0,2869.0,2991.0,2811.0,2870.0,3091.0,3028.0,4095.0,1.48,9.35,-2.19,-0.07,0.05,0.0,i
4095.0,2875.0,2998.0,2809.0,2867.0,3093.0,3034.0,4095.0,2.04,9.65,-2.14,-0.04,0.01,-0.04,i
4095.0,2873.0,3003.0,2815.0,2877.0,3091.0,3029.0,4095.0,1.94,9.49,-1.98,0.01,-0.04,-0.01,i
4095.0,2875.0,2994.0,2815.0,2870.0,3092.0,3035.0,4095.0,1.45,9.52,-2.33,0.0,-0.02,0.0,i
4095.0,2873.0,2990.0,2813.0,2866.0,3101.0,3024.0,4095.0,1.69,9.33,-2.32,0.01,0.01,-0.06,i
4095.0,2874.0,2996.0,2811.0,2870.0,3091.0,3027.0,4095.0,1.85,9.36,-2.2,-0.0,-0.02,0.02,i
4095.0,2874.0,2999.0,2815.0,2878.0,3098.0,3031.0,4095.0,1.54,9.31,-2.25,-0.04,0.02,0.01,i
4095.0,2876.0,3003.0,2818.0,2876.0,3095.0,3037.0,4095.0,1.92,9.44,-2.24,-0.01,-0.01,-0.04,i
4095.0,2867.0,3007.0,2819.0,2879.0,3104.0,3034.0,4095.0,1.62,9.39,-2.24,-0.05,0.01,0.0,i
4095.0,2878.0,2993.0,2815.0,2881.0,3106.0,3031.0,4095.0,1.75,9.42,-2.14,-0.01,0.02,-0.03,i
4095.0,2869.0,2993.0,2815.0,2874.0,3098.0,3028.0,4095.0,1.84,9.48,-2.16,-0.01,-0.01,0.04,i
4095.0,2874.0,2991.0,2817.0,2879.0,3095.0,3039.0,4095.0,1.81,9.39,-2.32,-0.02,0.02,-0.08,i
4095.0,2865.0,2999.0,2815.0,2875.0,3097.0,3035.0,4095.0,1.8,9.43,-2.41,-0.02,-0.02,0.01,i
4095.0,2874.0,2985.0,2827.0,2878.0,3104.0,3031.0,4095.0,1.47,9.37,-2.14,-0.05,0.0,-0.03,i
4095.0,2873.0,2992.0,2815.0,2877.0,3102.0,3036.0,4095.0,1.86,9.57,-2.34,-0.03,0.02,-0.03,i
4095.0,2865.0,2992.0,2817.0,2875.0,3099.0,3035.0,4095.0,1.78,9.36,-2.22,-0.02,0.01,0.02,i
4095.0,2870.0,2994.0,2819.0,2875.0,3104.0,3031.0,4095.0,1.74,9.49,-2.32,-0.05,0.01,0.01,i
4095.0,2869.0,2987.0,2826.0,2879.0,3109.0,3031.0,4095.0,1.82,9.32,-2.2,-0.03,0.03,-0.04,i
4095.0,2871.0,2989.0,2818.0,2877.0,3099.0,3033.0,4095.0,1.91,9.39,-2.12,-0.04,-0.02,0.0,i
4095.0,2873.0,2992.0,2829.0,2879.0,3101.0,3041.0,4095.0,1.67,9.39,-2.18,-0.04,-0.01,-0.02,i
4095.0,2879.0,2998.0,2830.0,2880.0,3105.0,3043.0,4095.0,1.78,9.45,-2.15,-0.02,0.0,0.03,i
4095.0,2880.0,3001.0,2824.0,2880.0,3105.0,3031.0,4095.0,1.62,9.24,-2.24,-0.02,0.02,-0.04,i
4095.0,2875.0,2987.0,2822.0,2878.0,3107.0,3041.0,4095.0,1.88,9.35,-2.29,-0.04,0.04,-0.06,i
4095.0,2881.0,2995.0,2824.0,2874.0,3111.0,3037.0,4095.0,1.83,9.46,-2.07,-0.05,-0.03,0.07,i
4095.0,2876.0,3002.0,2816.0,2887.0,3104.0,3043.0,4095.0,1.71,9.5,-2.21,-0.01,0.01,-0.07,i
4095.0,2875.0,2991.0,2816.0,2883.0,3099.0,3040.0,4095.0,1.73,9.45,-2.29,0.01,-0.02,0.01,i
4095.0,2885.0,2991.0,2823.0,2881.0,3105.0,3047.0,4095.0,1.86,9.48,-2.32,-0.01,-0.0,-0.01,i
4095.0,2866.0,2990.0,2823.0,2883.0,3106.0,3050.0,4095.0,1.6,9.28,-2.23,-0.01,0.02,0.0,i
4095.0,2866.0,2991.0,2825.0,2884.0,3103.0,3047.0,4095.0,2.13,9.52,-2.35,-0.02,-0.01,-0.05,i
4095.0,2865.0,3003.0,2822.0,2871.0,3106.0,3042.0,4095.0,1.63,9.29,-2.11,-0.03,-0.02,-0.01,i
4095.0,2877.0,2999.0,2823.0,2889.0,3110.0,3047.0,4095.0,1.72,9.54,-2.33,-0.04,-0.0,-0.01,i
4095.0,2880.0,2993.0,2826.0,2879.0,3105.0,3043.0,4095.0,1.47,9.15,-2.15,-0.02,0.04,-0.01,i
4095.0,2869.0,2998.0,2827.0,2881.0,3107.0,3043.0,4095.0,2.05,9.47,-2.39,-0.05,0.01,0.0,i
4095.0,2871.0,2996.0,2819.0,2882.0,3118.0,3046.0,4095.0,1.69,9.34,-2.13,-0.07,0.03,0.02,i
4095.0,2871.0,2999.0,2819.0,2890.0,3112.0,3049.0,4095.0,1.94,9.49,-2.17,-0.04,0.02,-0.05,i
4095.0,2872.0,3001.0,2817.0,2882.0,3105.0,3046.0,4095.0,1.78,9.3,-2.08,-0.03,-0.01,-0.03,i
4095.0,2873.0,3001.0,2822.0,2884.0,3109.0,3043.0,4095.0,1.81,9.48,-2.31,-0.04,-0.0,-0.01,i
4095.0,2873.0,2992.0,2821.0,2891.0,3111.0,3051.0,4095.0,1.64,9.43,-2.21,-0.02,0.0,0.01,i
4095.0,2875.0,2992.0,2823.0,2885.0,3111.0,3046.0,4095.0,1.78,9.54,-2.32,-0.03,0.02,-0.01,i
4095.0,2878.0,2993.0,2830.0,2895.0,3115.0,3054.0,4095.0,1.84,9.29,-2.17,-0.03,0.02,-0.04,i
4095.0,2875.0,2992.0,2828.0,2890.0,3115.0,3045.0,4095.0,1.98,9.52,-2.2,-0.05,-0.02,-0.01,i
4095.0,2873.0,2998.0,2823.0,2889.0,3117.0,3056.0,4095.0,1.59,9.45,-2.11,-0.03,-0.01,0.01,i
4095.0,2879.0,3005.0,2829.0,2891.0,3120.0,3055.0,4095.0,1.72,9.54,-2.23,-0.0,0.02,-0.07,i
4095.0,2877.0,2992.0,2826.0,2880.0,3111.0,3045.0,4095.0,1.86,9.28,-2.16,-0.01,-0.01,-0.01,i
4095.0,2869.0,3003.0,2829.0,2885.0,3107.0,3047.0,4095.0,1.7,9.34,-2.21,-0.06,0.0,-0.01,i
4095.0,2874.0,2992.0,2828.0,2890.0,3115.0,3053.0,4095.0,1.73,9.43,-2.12,-0.03,0.02,-0.04,i
4095.0,2878.0,2995.0,2830.0,2884.0,3117.0,3046.0,4095.0,1.84,9.47,-2.12,-0.02,0.0,-0.01,i
4095.0,2873.0,2992.0,2829.0,2887.0,3110.0,3054.0,4095.0,1.78,9.43,-2.22,-0.0,-0.01,0.0,i
4095.0,2867.0,2992.0,2825.0,2887.0,3111.0,3049.0,4095.0,1.73,9.33,-2.2,-0.0,0.01,-0.06,i
4095.0,2875.0,2991.0,2830.0,2887.0,3118.0,3055.0,4095.0,1.85,9.48,-2.22,-0.0,-0.03,-0.04,i
4095.0,2879.0,2990.0,2824.0,2891.0,3111.0,3047.0,4095.0,1.66,9.39,-2.27,-0.01,-0.0,-0.03,i
4095.0,2872.0,2998.0,2828.0,2891.0,3118.0,3055.0,4095.0,1.62,9.28,-2.29,-0.01,0.01,-0.04,i
4095.0,2871.0,2992.0,2829.0,2873.0,3119.0,3054.0,4095.0,1.6,9.39,-2.38,-0.03,0.01,-0.03,i
4095.0,2871.0,2992.0,2831.0,2895.0,3120.0,3051.0,4095.0,1.84,9.48,-2.3,-0.02,-0.0,-0.02,i
4095.0,2873.0,3002.0,2827.0,2893.0,3116.0,3056.0,4095.0,1.53,9.4,-2.33,-0.03,-0.0,0.01,i
4095.0,2874.0,2992.0,2832.0,2892.0,3120.0,3050.0,4095.0,1.62,9.42,-2.32,-0.02,0.03,-0.02,i
4095.0,2869.0,2999.0,2832.0,2892.0,3121.0,3046.0,4095.0,1.86,9.36,-2.22,-0.01,-0.01,-0.04,i
4095.0,2864.0,2997.0,2833.0,2890.0,3120.0,3056.0,4095.0,1.65,9.37,-2.26,-0.04,-0.01,0.02,i
4095.0,2871.0,2991.0,2829.0,2895.0,3120.0,3051.0,4095.0,1.67,9.33,-2.32,-0.03,0.03,-0.07,i
4095.0,2874.0,2989.0,2829.0,2894.0,3120.0,3056.0,4095.0,1.78,9.42,-2.29,-0.04,-0.01,0.03,i
4095.0,2880.0,2990.0,2824.0,2896.0,3119.0,3049.0,4095.0,1.42,9.38,-2.29,-0.03,0.02,-0.01,i
4095.0,2874.0,2995.0,2831.0,2896.0,3123.0,3053.0,4095.0,2.01,9.44,-2.25,-0.03,0.01,0.0,i
4095.0,2875.0,2993.0,2829.0,2894.0,3120.0,3051.0,4095.0,1.79,9.42,-2.32,-0.02,-0.01,-0.01,i
4095.0,2879.0,2996.0,2828.0,2896.0,3120.0,3056.0,4095.0,1.52,9.27,-2.25,-0.03,-0.0,-0.05,i
4095.0,2864.0,2998.0,2833.0,2895.0,3121.0,3054.0,4095.0,1.76,9.45,-2.26,-0.03,-0.0,-0.04,i
4095.0,2864.0,2992.0,2829.0,2896.0,3099.0,3047.0,4095.0,1.63,9.39,-2.22,-0.02,-0.01,0.0,i
4095.0,2878.0,2994.0,2829.0,2896.0,3123.0,3053.0,4095.0,1.53,9.26,-2.28,-0.04,0.03,-0.02,i
4095.0,2879.0,2992.0,2829.0,2902.0,3120.0,3050.0,4095.0,1.73,9.43,-2.37,-0.03,0.02,-0.01,i
4095.0,2879.0,2995.0,2828.0,2896.0,3125.0,3056.0,4095.0,1.77,9.41,-2.27,-0.04,0.03,-0.04,i
4095.0,2870.0,2992.0,2823.0,2896.0,3125.0,3056.0,4095.0,1.58,9.37,-2.28,-0.03,-0.01,0.0,i
4095.0,2864.0,2992.0,2832.0,2892.0,3123.0,3056.0,4095.0,1.62,9.41,-2.25,-0.02,0.01,-0.03,i
4095.0,2879.0,2994.0,2833.0,2899.0,3123.0,3056.0,4095.0,1.87,9.48,-2.26,-0.02,-0.0,0.01,i
4095.0,2866.0,2991.0,2826.0,2896.0,3120.0,3050.0,4095.0,1.56,9.31,-2.26,-0.03,-0.0,-0.02,i
4095.0,2875.0,2991.0,2829.0,2893.0,3120.0,3051.0,4095.0,1.68,9.42,-2.25,-0.04,-0.01,-0.03,i
4095.0,2867.0,2999.0,2832.0,2892.0,3127.0,3055.0,4095.0,1.64,9.38,-2.18,-0.06,0.03,-0.03,i
4095.0,2877.0,2992.0,2827.0,2896.0,3120.0,3037.0,4095.0,1.66,9.42,-2.2,-0.02,-0.01,0.02,i
4095.0,2869.0,2990.0,2830.0,2899.0,3130.0,3043.0,4095.0,1.78,9.41,-2.35,-0.02,0.0,-0.06,i
4095.0,2870.0,2992.0,2830.0,2896.0,3120.0,3051.0,4095.0,1.7,9.38,-2.36,-0.03,0.0,-0.03,i
4095.0,2875.0,2995.0,2831.0,2901.0,3130.0,3046.0,4095.0,1.47,9.39,-2.25,-0.03,0.0,-0.03,i
4095.0,2877.0,2989.0,2832.0,2893.0,3120.0,3055.0,4095.0,1.53,9.4,-2.32,-0.03,0.02,-0.03,i
4095.0,2873.0,2994.0,2827.0,2896.0,3127.0,3056.0,4095.0,1.72,9.41,-2.25,-0.05,0.02,0.02,i
4095.0,2869.0,2992.0,2831.0,2903.0,3125.0,3056.0,4095.0,1.73,9.46,-2.24,-0.02,0.03,0.01,i
4095.0,2871.0,2992.0,2834.0,2898.0,3127.0,3054.0,4095.0,1.74,9.43,-2.18,-0.03,0.01,-0.05,i
4095.0,2870.0,2992.0,2832.0,2897.0,3131.0,3050.0,4095.0,1.81,9.51,-2.15,-0.01,-0.02,0.01,i
4095.0,2873.0,2992.0,2834.0,2897.0,3129.0,3055.0,4095.0,1.58,9.36,-2.29,0.0,-0.0,-0.04,i
4095.0,2873.0,2995.0,2832.0,2901.0,3127.0,3055.0,4095.0,1.73,9.41,-2.41,0.01,-0.01,-0.04,i
4095.0,2878.0,2997.0,2834.0,2896.0,3123.0,3057.0,4095.0,1.59,9.37,-2.37,-0.0,-0.03,-0.02,i
4095.0,2874.0,2998.0,2832.0,2896.0,3129.0,3056.0,4095.0,1.64,9.39,-2.41,-0.02,0.0,-0.03,i
4095.0,2881.0,2991.0,2832.0,2895.0,3138.0,3055.0,4095.0,1.58,9.31,-2.36,-0.03,0.0,-0.01,i
4095.0,2867.0,2992.0,2835.0,2902.0,3129.0,3053.0,4095.0,1.61,9.39,-2.28,-0.05,0.01,-0.04,i
4095.0,2877.0,2992.0,2835.0,2896.0,3131.0,3054.0,4095.0,1.66,9.45,-2.32,-0.03,0.0,-0.02,i
4095.0,2879.0,2995.0,2836.0,2901.0,3138.0,3051.0,4095.0,1.46,9.42,-2.31,-0.02,-0.01,0.04,i
4095.0,2877.0,2979.0,2834.0,2901.0,3135.0,3057.0,4095.0,1.55,9.33,-2.4,-0.03,0.04,-0.07,i
4095.0,2871.0,2994.0,2833.0,2894.0,3124.0,3056.0,4095.0,1.88,9.4,-2.32,-0.02,-0.01,0.02,i
4095.0,2875.0,2995.0,2832.0,2898.0,3136.0,3055.0,4095.0,1.46,9.34,-2.31,-0.04,0.01,0.01,i
4095.0,2883.0,2991.0,2832.0,2900.0,3135.0,3063.0,4095.0,1.7,9.43,-2.29,-0.03,0.01,-0.04,i
4095.0,2878.0,3003.0,2835.0,2899.0,3131.0,3056.0,4095.0,1.79,9.39,-2.26,-0.01,-0.01,-0.02,i
4095.0,2871.0,2998.0,2833.0,2898.0,3127.0,3056.0,4095.0,1.53,9.39,-2.32,-0.03,-0.01,-0.01,i
4095.0,2870.0,2982.0,2838.0,2911.0,3128.0,3061.0,4095.0,1.6,9.36,-2.38,-0.01,0.01,-0.04,i
4095.0,2875.0,2997.0,2832.0,2899.0,3131.0,3059.0,4095.0,1.69,9.35,-2.28,-0.02,0.0,-0.03,i
4095.0,2866.0,2982.0,2834.0,2896.0,3130.0,3056.0,4095.0,1.71,9.45,-2.35,-0.02,-0.01,-0.02,i
4095.0,2877.0,2992.0,2836.0,2903.0,3134.0,3059.0,4095.0,1.52,9.43,-2.28,-0.03,-0.01,-0.0,i
4095.0,2881.0,2988.0,2834.0,2907.0,3135.0,3057.0,4095.0,1.67,9.48,-2.4,-0.01,0.01,-0.04,i
4095.0,2867.0,2992.0,2837.0,2901.0,3131.0,3049.0,4095.0,1.67,9.33,-2.36,-0.0,0.01,-0.1,i
4095.0,2873.0,2991.0,2832.0,2903.0,3126.0,3059.0,4095.0,1.58,9.5,-2.38,-0.02,-0.04,0.03,i
4095.0,2879.0,2987.0,2836.0,2901.0,3127.0,3058.0,4095.0,1.33,9.32,-2.31,0.0,0.02,-0.02,i
4095.0,2867.0,2995.0,2832.0,2907.0,3136.0,3067.0,4095.0,1.91,9.4,-2.46,-0.03,-0.02,-0.04,i
4095.0,2871.0,2993.0,2832.0,2908.0,3142.0,3059.0,4095.0,1.28,9.35,-2.46,-0.02,-0.02,0.05,i
4095.0,2879.0,2995.0,2833.0,2902.0,3135.0,3055.0,4095.0,1.82,9.49,-2.52,-0.04,0.01,-0.04,i
4095.0,2880.0,2991.0,2832.0,2905.0,3136.0,3056.0,4095.0,1.56,9.33,-2.32,-0.05,-0.02,0.06,i
4095.0,2864.0,2990.0,2832.0,2906.0,3142.0,3057.0,4095.0,1.75,9.52,-2.35,-0.04,0.0,-0.07,i
4095.0,2876.0,2992.0,2835.0,2899.0,3133.0,3056.0,4095.0,1.52,9.44,-2.35,-0.02,-0.03,0.0,i
4095.0,2869.0,2993.0,2836.0,2906.0,3142.0,3056.0,4095.0,1.49,9.47,-2.34,-0.0,-0.03,-0.01,i
4095.0,2878.0,2989.0,2837.0,2903.0,3141.0,3055.0,4095.0,1.57,9.29,-2.48,0.0,-0.0,-0.02,i
4095.0,2880.0,2995.0,2845.0,2911.0,3134.0,3055.0,4095.0,1.66,9.34,-2.45,-0.04,-0.02,-0.01,i
4095.0,2874.0,2995.0,2833.0,2909.0,3135.0,3062.0,4095.0,1.62,9.49,-2.3,-0.03,-0.01,-0.03,i
4095.0,2875.0,2993.0,2837.0,2903.0,3141.0,3057.0,4095.0,1.46,9.45,-2.42,-0.03,-0.0,0.01,i
4095.0,2871.0,2995.0,2839.0,2906.0,3145.0,3066.0,4095.0,1.48,9.34,-2.43,-0.02,0.04,-0.04,i
4095.0,2880.0,3006.0,2846.0,2910.0,3139.0,3061.0,4095.0,1.77,9.36,-2.38,-0.02,-0.01,0.0,i
4095.0,2873.0,3002.0,2842.0,2911.0,3138.0,3066.0,4095.0,1.48,9.35,-2.36,-0.06,0.02,-0.0,i
4095.0,2887.0,2992.0,2847.0,2910.0,3142.0,3065.0,4095.0,1.57,9.46,-2.47,-0.02,0.04,-0.05,i
4095.0,2871.0,2992.0,2842.0,2912.0,3138.0,3059.0,4095.0,1.55,9.28,-2.31,-0.05,0.03,0.03,i
4095.0,2883.0,2992.0,2833.0,2915.0,3147.0,3061.0,4095.0,1.64,9.44,-2.29,-0.04,0.02,-0.01,i
4095.0,2870.0,2994.0,2839.0,2911.0,3143.0,3059.0,4095.0,1.76,9.43,-2.36,-0.03,0.01,-0.01,i
4095.0,2881.0,2998.0,2837.0,2916.0,3147.0,3057.0,4095.0,1.6,9.58,-2.3,-0.03,0.0,-0.07,i
4095.0,2865.0,2995.0,2833.0,2911.0,3140.0,3049.0,4095.0,1.4,9.76,-2.05,0.06,0.06,-0.16,i
4095.0,2883.0,2999.0,2838.0,2912.0,3141.0,3059.0,4095.0,1.54,9.45,-2.27,0.09,0.11,-0.11,i
4095.0,2867.0,2992.0,2838.0,2909.0,3138.0,3056.0,4095.0,1.39,9.21,-2.72,0.06,-0.02,0.02,i
4095.0,2869.0,2992.0,2844.0,2909.0,3146.0,3057.0,4095.0,1.65,9.22,-2.59,0.02,0.01,0.03,i
4095.0,2869.0,2992.0,2838.0,2913.0,3140.0,3061.0,4095.0,1.48,9.27,-2.73,-0.01,-0.04,0.01,i
4095.0,2870.0,2999.0,2832.0,2910.0,3149.0,3061.0,4095.0,1.59,9.29,-2.62,-0.03,-0.01,0.01,i
4095.0,2877.0,2992.0,2831.0,2913.0,3138.0,3053.0,4095.0,1.44,9.33,-2.64,-0.08,0.0,0.02,i
4095.0,2874.0,2991.0,2837.0,2907.0,3137.0,3057.0,4095.0,1.47,9.39,-2.61,-0.06,0.04,-0.03,i
4095.0,2875.0,2992.0,2843.0,2911.0,3150.0,3063.0,4095.0,1.69,9.35,-2.36,-0.07,0.0,-0.02,i
4095.0,2877.0,2992.0,2841.0,2915.0,3146.0,3058.0,4095.0,1.59,9.45,-2.34,-0.08,-0.02,0.01,i
4095.0,2871.0,2992.0,2845.0,2917.0,3139.0,3057.0,4095.0,1.44,9.42,-2.35,-0.05,0.0,-0.08,i
4095.0,2877.0,2992.0,2843.0,2913.0,3146.0,3056.0,4095.0,1.63,9.53,-2.44,-0.04,-0.01,-0.0,i
4095.0,2873.0,2992.0,2845.0,2910.0,3142.0,3067.0,4095.0,1.2,9.42,-2.37,-0.02,0.02,0.04,i
4095.0,2878.0,3005.0,2840.0,2914.0,3136.0,3061.0,4095.0,1.59,9.45,-2.45,-0.02,0.0,-0.04,i
4095.0,2880.0,2994.0,2838.0,2913.0,3139.0,3068.0,4095.0,1.66,9.35,-2.42,-0.03,0.01,-0.0,i
4095.0,2882.0,3001.0,2833.0,2922.0,3146.0,3065.0,4095.0,1.57,9.39,-2.46,-0.05,0.01,0.0,i
4095.0,2879.0,2998.0,2834.0,2912.0,3141.0,3071.0,4095.0,1.48,9.4,-2.4,-0.03,0.01,-0.03,i
4095.0,2878.0,3001.0,2839.0,2910.0,3149.0,3061.0,4095.0,1.62,9.37,-2.44,0.0,-0.02,-0.0,i
4095.0,2871.0,2995.0,2842.0,2914.0,3148.0,3066.0,4095.0,1.58,9.43,-2.28,-0.05,0.01,0.03,i
4095.0,2870.0,2992.0,2838.0,2917.0,3136.0,3063.0,4095.0,1.47,9.32,-2.37,-0.03,0.03,-0.05,i
4095.0,2877.0,2992.0,2842.0,2912.0,3136.0,3071.0,4095.0,1.85,9.42,-2.41,-0.04,0.01,-0.02,i
4095.0,2875.0,2994.0,2846.0,2909.0,3143.0,3063.0,4095.0,1.46,9.4,-2.36,-0.03,-0.0,-0.03,i
4095.0,2875.0,2997.0,2842.0,2913.0,3150.0,3071.0,4095.0,1.42,9.45,-2.38,-0.0,0.0,-0.01,i
4095.0,2873.0,2993.0,2846.0,2914.0,3147.0,3083.0,4095.0,1.25,9.39,-2.46,-0.0,0.01,0.03,i
4095.0,2875.0,3006.0,2849.0,2912.0,3151.0,3066.0,4095.0,1.8,9.38,-2.49,-0.0,0.01,0.06,i
4095.0,2884.0,2991.0,2846.0,2918.0,3152.0,3071.0,4095.0,1.77,9.32,-2.47,-0.03,0.02,-0.0,i
4095.0,2869.0,2993.0,2843.0,2913.0,3152.0,3081.0,4095.0,1.84,9.38,-2.46,-0.02,-0.01,-0.06,i
4095.0,2879.0,2998.0,2846.0,2910.0,3147.0,3082.0,4095.0,1.53,9.46,-2.36,-0.02,-0.02,-0.04,i
4095.0,2880.0,3002.0,2853.0,2913.0,3153.0,3071.0,4095.0,1.45,9.41,-2.48,0.0,-0.02,-0.02,i
4095.0,2877.0,2993.0,2854.0,2915.0,3152.0,3071.0,4095.0,1.46,9.36,-2.46,-0.0,-0.0,0.01,i
4095.0,2879.0,2999.0,2845.0,2914.0,3152.0,3071.0,4095.0,1.69,9.23,-2.47,-0.02,0.02,-0.02,i
4095.0,2869.0,2991.0,2852.0,2914.0,3152.0,3070.0,4095.0,1.77,9.39,-2.47,-0.03,-0.02,-0.0,i
4095.0,2882.0,2991.0,2852.0,2922.0,3148.0,3071.0,4095.0,1.41,9.33,-2.43,-0.03,0.0,-0.02,i
4095.0,2866.0,2991.0,2842.0,2910.0,3143.0,3071.0,4095.0,1.7,9.39,-2.45,-0.03,-0.02,-0.07,i
4095.0,2878.0,2994.0,2844.0,2909.0,3157.0,3071.0,4095.0,1.32,9.32,-2.57,-0.03,-0.0,0.0,i
4095.0,2880.0,2993.0,2853.0,2917.0,3151.0,3071.0,4095.0,1.69,9.36,-2.52,-0.02,0.0,-0.03,i
4095.0,2879.0,2992.0,2846.0,2923.0,3152.0,3071.0,4095.0,1.55,9.39,-2.45,-0.04,-0.01,0.02,i
4095.0,2869.0,2992.0,2848.0,2915.0,3155.0,3071.0,4095.0,1.42,9.38,-2.5,-0.02,0.0,-0.04,i
4095.0,2880.0,2997.0,2849.0,2923.0,3154.0,3081.0,4095.0,1.61,9.33,-2.5,-0.02,0.02,-0.02,i
4095.0,2875.0,3008.0,2845.0,2918.0,3148.0,3071.0,4095.0,1.6,9.37,-2.5,-0.03,0.0,-0.01,i
4095.0,2875.0,2995.0,2845.0,2922.0,3157.0,3071.0,4095.0,1.51,9.33,-2.44,-0.04,0.01,-0.0,i
4095.0,2870.0,2993.0,2850.0,2925.0,3155.0,3083.0,4095.0,1.66,9.41,-2.47,-0.04,0.02,-0.03,i
4095.0,2883.0,2992.0,2839.0,2921.0,3153.0,3078.0,4095.0,1.6,9.43,-2.5,-0.03,0.01,-0.01,i
4095.0,2875.0,3003.0,2848.0,2912.0,3157.0,3082.0,4095.0,1.51,9.38,-2.49,-0.03,0.0,0.0,i
4095.0,2875.0,2994.0,2851.0,2919.0,3151.0,3071.0,4095.0,1.51,9.32,-2.5,-0.03,0.01,-0.05,i
4095.0,2877.0,2995.0,2850.0,2923.0,3155.0,3086.0,4095.0,1.66,9.4,-2.46,-0.02,-0.01,-0.01,i
4095.0,2879.0,2987.0,2846.0,2916.0,3153.0,3080.0,4095.0,1.56,9.35,-2.39,-0.04,0.01,-0.03,i
4095.0,2871.0,2991.0,2846.0,2919.0,3155.0,3071.0,4095.0,1.46,9.39,-2.46,-0.02,0.0,0.02,i
4095.0,2876.0,2997.0,2843.0,2925.0,3157.0,3084.0,4095.0,1.57,9.38,-2.39,-0.02,0.01,-0.05,i
4095.0,2871.0,2992.0,2849.0,2917.0,3163.0,3088.0,4095.0,1.71,9.36,-2.49,0.01,-0.02,-0.04,i
4095.0,2875.0,2993.0,2851.0,2922.0,3157.0,3085.0,4095.0,1.44,9.39,-2.46,-0.03,-0.04,0.03,i
4095.0,2875.0,2992.0,2853.0,2920.0,3162.0,3081.0,4095.0,1.29,9.39,-2.55,-0.0,0.0,-0.05,i
4095.0,2873.0,2995.0,2835.0,2914.0,3152.0,3071.0,4095.0,1.41,9.3,-2.39,-0.01,-0.0,0.08,i
4095.0,2877.0,2991.0,2843.0,2915.0,3155.0,3070.0,4095.0,1.72,9.2,-2.69,-0.02,0.02,-0.07,i
4095.0,2877.0,2997.0,2847.0,2923.0,3155.0,3083.0,4095.0,1.81,9.22,-2.48,-0.03,-0.05,0.01,i
4095.0,2874.0,2991.0,2851.0,2919.0,3154.0,3082.0,4095.0,1.39,9.39,-2.49,-0.07,0.01,-0.06,i
4095.0,2874.0,2995.0,2853.0,2926.0,3155.0,3071.0,4095.0,1.33,9.49,-2.47,-0.02,0.0,-0.01,i
4095.0,2877.0,2987.0,2850.0,2916.0,3157.0,3071.0,4095.0,1.45,9.37,-2.57,-0.02,0.04,-0.02,i
4095.0,2864.0,2983.0,2849.0,2918.0,3157.0,3063.0,4095.0,1.74,9.37,-2.49,-0.02,0.02,0.02,i
4095.0,2874.0,2983.0,2851.0,2913.0,3149.0,3086.0,4095.0,1.58,9.34,-2.48,-0.04,-0.0,-0.03,i
4095.0,2873.0,2991.0,2862.0,2912.0,3155.0,3079.0,4095.0,1.67,9.49,-2.52,-0.01,0.01,-0.04,i
4095.0,2868.0,2997.0,2865.0,2926.0,3157.0,3087.0,4095.0,1.22,9.26,-2.44,-0.06,0.02,0.01,i
4095.0,2875.0,2997.0,2864.0,2928.0,3152.0,3081.0,4095.0,1.69,9.45,-2.51,-0.01,0.03,-0.04,i
4095.0,2879.0,2993.0,2862.0,2928.0,3158.0,3081.0,4095.0,1.74,9.33,-2.43,-0.04,-0.0,-0.01,i
4095.0,2881.0,2997.0,2859.0,2927.0,3154.0,3081.0,4095.0,1.46,9.37,-2.49,-0.02,0.0,-0.01,i
4095.0,2866.0,2990.0,2861.0,2920.0,3152.0,3071.0,4095.0,1.58,9.34,-2.54,-0.02,0.01,-0.07,i
