hall_1,hall_2,hall_3,flex_t,flex_i,flex_m,flex_r,flex_p,accel_x,accel_y,accel_z,gyro_x,gyro_y,gyro_z,hand,sign
4095.0,906.0,2867.0,3359.0,2944.0,2617.0,2864.0,4095.0,-2.25,9.56,4.9,0.03,0.02,-0.16,0.0,i
4095.0,905.0,2855.0,3354.0,2919.0,2614.0,2860.0,4095.0,-2.11,9.52,4.86,0.01,-0.01,-0.17,0.0,i
4095.0,912.0,2859.0,3344.0,2922.0,2611.0,2854.0,4095.0,-2.35,9.58,4.92,0.03,0.01,-0.14,0.0,i
4095.0,912.0,2864.0,3354.0,2913.0,2614.0,2857.0,4095.0,-2.12,9.54,4.87,0.01,-0.04,-0.15,0.0,i
4095.0,913.0,2864.0,3361.0,2921.0,2614.0,2862.0,4095.0,-2.31,9.67,4.86,0.01,-0.01,-0.14,0.0,i
4095.0,910.0,2864.0,3362.0,2926.0,2617.0,2864.0,4095.0,-2.06,9.52,4.89,-0.0,-0.07,-0.14,0.0,i
4095.0,912.0,2859.0,3367.0,2928.0,2619.0,2864.0,4095.0,-2.25,9.53,5.03,0.01,-0.01,-0.17,0.0,i
4095.0,911.0,2864.0,3367.0,2927.0,2620.0,2863.0,4095.0,-2.1,9.56,4.93,-0.02,0.01,-0.15,0.0,i
4095.0,910.0,2864.0,3360.0,2922.0,2620.0,2863.0,4095.0,-2.25,9.54,5.0,0.0,-0.01,-0.15,0.0,i
4095.0,909.0,2861.0,3360.0,2918.0,2619.0,2864.0,4095.0,-2.13,9.51,5.04,0.01,0.02,-0.17,0.0,i
4095.0,910.0,2866.0,3364.0,2930.0,2620.0,2866.0,4095.0,-2.24,9.58,5.02,0.01,-0.02,-0.16,0.0,i
4095.0,912.0,2864.0,3369.0,2927.0,2622.0,2864.0,4095.0,-2.24,9.5,5.1,0.04,0.03,-0.15,0.0,i
4095.0,907.0,2859.0,3357.0,2919.0,2610.0,2855.0,4095.0,-2.14,9.58,4.96,0.02,-0.02,-0.16,0.0,i
4095.0,899.0,2867.0,3362.0,2923.0,2624.0,2863.0,4095.0,-2.05,9.54,4.98,0.05,0.01,-0.15,0.0,i
4095.0,911.0,2863.0,3366.0,2923.0,2624.0,2864.0,4095.0,-2.24,9.58,4.91,0.04,0.01,-0.14,0.0,i
4095.0,910.0,2859.0,3363.0,2928.0,2622.0,2864.0,4095.0,-2.16,9.56,4.92,0.07,0.06,-0.16,0.0,i
4095.0,902.0,2866.0,3377.0,2923.0,2614.0,2863.0,4095.0,-2.28,9.52,4.87,0.07,0.05,-0.17,0.0,i
4095.0,908.0,2864.0,3376.0,2919.0,2615.0,2864.0,4095.0,-2.33,9.56,4.73,0.05,0.05,-0.15,0.0,i
4095.0,901.0,2864.0,3395.0,2928.0,2623.0,2867.0,4095.0,-2.36,9.56,4.76,-0.02,-0.0,-0.14,0.0,i
4095.0,912.0,2864.0,3385.0,2929.0,2627.0,2871.0,4095.0,-2.13,9.58,4.88,0.0,0.01,-0.12,0.0,i
3709.0,875.0,2864.0,3365.0,2397.0,2495.0,2747.0,4095.0,-1.53,9.78,4.17,-0.05,0.03,-0.16,0.0,i
3709.0,873.0,2866.0,3376.0,2395.0,2495.0,2750.0,4095.0,-1.73,9.68,4.33,-0.02,-0.01,-0.17,0.0,i
3703.0,870.0,2861.0,3377.0,2401.0,2494.0,2751.0,4095.0,-1.71,9.72,4.19,-0.04,-0.05,-0.18,0.0,i
3717.0,870.0,2864.0,3387.0,2403.0,2496.0,2757.0,4095.0,-1.81,9.7,4.34,0.01,0.01,-0.16,0.0,i
3727.0,880.0,2863.0,3391.0,2413.0,2495.0,2746.0,4095.0,-1.77,9.71,4.27,-0.06,-0.05,-0.15,0.0,i
3743.0,871.0,2869.0,3391.0,2401.0,2481.0,2754.0,4095.0,-1.86,9.55,4.5,0.01,0.02,-0.12,0.0,i
3738.0,863.0,2864.0,3501.0,2397.0,2487.0,2765.0,4095.0,-1.6,9.66,4.41,-0.07,-0.03,-0.07,0.0,i
3728.0,870.0,2869.0,3845.0,2448.0,2509.0,2783.0,4095.0,-1.3,9.97,4.25,0.03,0.18,0.01,0.0,i
3725.0,863.0,2866.0,3806.0,2455.0,2512.0,2789.0,4095.0,-1.72,9.7,4.53,-0.12,0.06,-0.03,0.0,i
3718.0,866.0,2866.0,3715.0,2445.0,2511.0,2791.0,4095.0,-1.35,9.78,4.54,0.12,0.02,-0.12,0.0,i
3729.0,860.0,2870.0,3696.0,2447.0,2511.0,2789.0,4095.0,-1.3,9.8,4.37,-0.01,-0.03,-0.21,0.0,i
3715.0,862.0,2880.0,3677.0,2448.0,2510.0,2796.0,4095.0,-1.58,9.69,4.53,0.01,0.02,-0.19,0.0,i
3741.0,853.0,2866.0,3664.0,2447.0,2511.0,2784.0,4095.0,-1.54,9.78,4.41,0.04,0.04,-0.2,0.0,i
3710.0,871.0,2859.0,3632.0,2438.0,2503.0,2785.0,4095.0,-1.48,9.7,4.26,0.03,0.04,-0.2,0.0,i
3727.0,859.0,2864.0,3635.0,2442.0,2501.0,2789.0,4095.0,-1.78,9.84,4.32,0.02,-0.04,-0.16,0.0,i
3728.0,863.0,2865.0,3631.0,2444.0,2509.0,2793.0,4095.0,-1.56,9.59,4.46,-0.06,0.01,-0.16,0.0,i
3733.0,860.0,2869.0,3652.0,2448.0,2512.0,2798.0,4095.0,-1.7,9.8,4.48,0.02,0.02,-0.16,0.0,i
3715.0,876.0,2864.0,3632.0,2445.0,2503.0,2794.0,4095.0,-1.59,9.68,4.4,0.01,-0.02,-0.17,0.0,i
3735.0,862.0,2865.0,3632.0,2439.0,2507.0,2798.0,4095.0,-1.67,9.8,4.36,0.02,-0.03,-0.17,0.0,i
3730.0,865.0,2871.0,3667.0,2448.0,2512.0,2805.0,4095.0,-1.73,9.6,4.54,-0.01,-0.02,-0.14,0.0,i
4095.0,896.0,2864.0,3408.0,2521.0,2505.0,2763.0,4095.0,-1.84,9.82,4.42,-0.07,-0.08,-0.12,0.0,i
4095.0,893.0,2864.0,3423.0,2538.0,2511.0,2770.0,4095.0,-1.51,9.55,4.72,-0.03,0.09,-0.18,0.0,i
4095.0,896.0,2866.0,3413.0,2528.0,2502.0,2768.0,4095.0,-1.83,9.77,4.81,0.04,0.02,-0.2,0.0,i
4095.0,885.0,2864.0,3434.0,2537.0,2509.0,2768.0,4095.0,-1.69,9.78,4.73,0.15,0.1,-0.2,0.0,i
4095.0,901.0,2865.0,3442.0,2544.0,2510.0,2771.0,4095.0,-1.93,9.67,4.52,0.09,0.02,-0.23,0.0,i
4095.0,889.0,2870.0,3441.0,2542.0,2509.0,2778.0,4095.0,-2.17,9.55,4.4,0.09,0.03,-0.21,0.0,i
4095.0,895.0,2869.0,3435.0,2539.0,2507.0,2766.0,4095.0,-2.05,9.61,4.2,0.07,0.06,-0.2,0.0,i
4095.0,890.0,2864.0,3445.0,2544.0,2509.0,2777.0,4095.0,-2.38,9.53,4.22,0.03,0.04,-0.16,0.0,i
4095.0,894.0,2867.0,3442.0,2544.0,2510.0,2774.0,4095.0,-2.09,9.58,4.16,0.02,0.03,-0.14,0.0,i
4095.0,890.0,2875.0,3443.0,2544.0,2513.0,2775.0,4095.0,-2.18,9.77,4.22,0.0,0.04,-0.13,0.0,i
4095.0,885.0,2863.0,3438.0,2541.0,2502.0,2774.0,4095.0,-1.9,9.51,4.31,0.01,0.02,-0.16,0.0,i
4095.0,895.0,2864.0,3440.0,2544.0,2508.0,2771.0,4095.0,-1.99,9.8,4.17,0.09,0.02,-0.16,0.0,i
4095.0,887.0,2875.0,3445.0,2549.0,2511.0,2774.0,4095.0,-1.82,9.54,4.12,0.04,0.0,-0.17,0.0,i
4095.0,896.0,2874.0,3450.0,2551.0,2513.0,2777.0,4095.0,-2.01,9.64,4.2,0.07,-0.01,-0.18,0.0,i
4095.0,898.0,2866.0,3455.0,2546.0,2511.0,2773.0,4095.0,-1.95,9.51,3.98,-0.01,-0.0,-0.17,0.0,i
4095.0,886.0,2865.0,3447.0,2546.0,2509.0,2772.0,4095.0,-2.28,9.61,4.32,0.03,0.03,-0.15,0.0,i
4095.0,891.0,2865.0,3446.0,2549.0,2507.0,2770.0,4095.0,-2.18,9.6,4.32,0.04,0.02,-0.13,0.0,i
4095.0,887.0,2863.0,3446.0,2544.0,2506.0,2771.0,4095.0,-2.03,9.65,4.0,0.06,-0.03,-0.14,0.0,i
4095.0,882.0,2864.0,3451.0,2555.0,2512.0,2773.0,4095.0,-1.92,9.67,4.0,0.01,0.03,-0.16,0.0,i
4095.0,891.0,2867.0,3469.0,2544.0,2501.0,2775.0,4095.0,-1.87,9.68,4.07,0.04,-0.01,-0.15,0.0,i
4095.0,896.0,2876.0,3506.0,2559.0,2496.0,2781.0,4095.0,-2.0,9.62,4.76,0.05,-0.01,-0.18,0.0,i
4095.0,901.0,2864.0,3503.0,2559.0,2496.0,2783.0,4095.0,-1.98,9.64,4.48,0.02,-0.08,-0.14,0.0,i
4095.0,896.0,2866.0,3535.0,2559.0,2495.0,2785.0,4095.0,-2.1,9.59,4.38,0.1,0.08,-0.11,0.0,i
4095.0,896.0,2869.0,3551.0,2590.0,2490.0,2783.0,4095.0,-1.96,9.64,3.93,0.08,-0.02,-0.13,0.0,i
4095.0,895.0,2870.0,3548.0,2559.0,2495.0,2790.0,4095.0,-2.25,9.66,3.99,-0.01,0.01,-0.18,0.0,i
4095.0,897.0,2867.0,3537.0,2559.0,2496.0,2778.0,4095.0,-2.1,9.57,4.27,-0.07,0.01,-0.15,0.0,i
4095.0,907.0,2864.0,3543.0,2559.0,2499.0,2782.0,4095.0,-1.97,9.66,4.27,0.01,-0.02,-0.13,0.0,i
4095.0,890.0,2869.0,3553.0,2559.0,2500.0,2783.0,4095.0,-1.96,9.69,4.3,-0.04,0.03,-0.16,0.0,i
4095.0,888.0,2864.0,3537.0,2559.0,2496.0,2782.0,4095.0,-2.11,9.62,4.33,-0.04,-0.04,-0.12,0.0,i
4095.0,891.0,2863.0,3549.0,2582.0,2503.0,2795.0,4095.0,-1.99,9.71,4.13,-0.04,-0.02,-0.14,0.0,i
4095.0,894.0,2870.0,3559.0,2559.0,2502.0,2789.0,4095.0,-1.96,9.53,4.49,-0.11,-0.02,-0.14,0.0,i
4095.0,887.0,2867.0,3547.0,2590.0,2507.0,2795.0,4095.0,-1.97,9.76,4.6,0.02,-0.05,-0.15,0.0,i
4095.0,894.0,2863.0,3543.0,2559.0,2496.0,2793.0,4095.0,-1.77,9.57,4.52,-0.02,-0.03,-0.18,0.0,i
4095.0,911.0,2864.0,3547.0,2559.0,2511.0,2799.0,4095.0,-2.19,9.73,4.7,0.07,-0.02,-0.17,0.0,i
4095.0,885.0,2870.0,3546.0,2591.0,2509.0,2790.0,4095.0,-1.78,9.57,4.45,0.02,0.0,-0.16,0.0,i
4095.0,900.0,2869.0,3541.0,2587.0,2507.0,2794.0,4095.0,-2.07,9.71,4.38,0.03,-0.04,-0.19,0.0,i
4095.0,885.0,2867.0,3559.0,2587.0,2510.0,2795.0,4095.0,-2.09,9.62,4.43,0.02,0.0,-0.16,0.0,i
4095.0,886.0,2876.0,3559.0,2590.0,2506.0,2798.0,4095.0,-2.15,9.62,4.34,0.03,-0.04,-0.16,0.0,i
4095.0,898.0,2866.0,3570.0,2590.0,2506.0,2794.0,4095.0,-2.19,9.63,4.38,0.05,-0.03,-0.17,0.0,i
4095.0,881.0,2865.0,3555.0,2590.0,2512.0,2794.0,4095.0,-2.04,9.74,4.26,0.04,-0.04,-0.14,0.0,i
3433.0,910.0,2864.0,3500.0,2590.0,2487.0,2738.0,4095.0,-2.09,9.78,3.8,-0.02,-0.06,-0.17,0.0,i
3433.0,910.0,2864.0,3500.0,2590.0,2487.0,2738.0,4095.0,-2.09,9.78,3.8,-0.02,-0.06,-0.17,0.0,i
3430.0,912.0,2866.0,3499.0,2591.0,2499.0,2737.0,4095.0,-2.06,9.47,3.91,-0.11,0.04,-0.11,0.0,i
3445.0,917.0,2870.0,3515.0,2592.0,2501.0,2737.0,4095.0,-2.34,9.81,3.94,-0.0,-0.04,-0.1,0.0,i
3441.0,913.0,2876.0,3520.0,2601.0,2501.0,2745.0,4095.0,-1.86,9.58,4.01,-0.09,0.03,-0.09,0.0,i
3440.0,918.0,2873.0,3536.0,2599.0,2501.0,2746.0,4095.0,-1.81,9.76,4.17,0.02,-0.07,-0.13,0.0,i
3427.0,914.0,2865.0,3533.0,2596.0,2503.0,2752.0,4095.0,-1.87,9.68,4.11,0.04,0.03,-0.18,0.0,i
3436.0,913.0,2875.0,3534.0,2594.0,2503.0,2753.0,4095.0,-2.12,9.6,3.86,0.03,0.0,-0.21,0.0,i
3440.0,912.0,2859.0,3555.0,2599.0,2499.0,2753.0,4095.0,-2.15,9.71,3.75,0.05,0.02,-0.14,0.0,i
3439.0,912.0,2864.0,3547.0,2594.0,2502.0,2747.0,4095.0,-2.04,9.55,3.77,-0.03,-0.0,-0.13,0.0,i
3438.0,915.0,2863.0,3542.0,2597.0,2501.0,2751.0,4095.0,-2.05,9.8,3.78,0.01,0.01,-0.14,0.0,i
3427.0,913.0,2862.0,3557.0,2591.0,2498.0,2753.0,4095.0,-1.85,9.56,3.99,-0.05,0.02,-0.17,0.0,i
3439.0,915.0,2864.0,3573.0,2601.0,2503.0,2750.0,4095.0,-2.07,9.8,3.88,0.01,0.03,-0.15,0.0,i
3443.0,915.0,2867.0,3566.0,2597.0,2503.0,2751.0,4095.0,-1.88,9.63,4.02,-0.02,0.02,-0.18,0.0,i
3440.0,917.0,2865.0,3577.0,2602.0,2506.0,2749.0,4095.0,-2.16,9.7,4.01,0.02,-0.01,-0.17,0.0,i
3440.0,919.0,2865.0,3574.0,2599.0,2509.0,2752.0,4095.0,-2.01,9.64,3.89,0.03,0.02,-0.18,0.0,i
3444.0,914.0,2867.0,3568.0,2598.0,2505.0,2756.0,4095.0,-2.07,9.62,3.73,0.02,-0.0,-0.17,0.0,i
3452.0,921.0,2863.0,3569.0,2597.0,2501.0,2752.0,4095.0,-2.12,9.72,3.84,0.02,0.01,-0.15,0.0,i
3458.0,911.0,2869.0,3583.0,2590.0,2496.0,2750.0,4095.0,-2.06,9.61,3.91,-0.03,-0.01,-0.14,0.0,i
3452.0,902.0,2870.0,3607.0,2592.0,2503.0,2757.0,4095.0,-2.06,9.55,4.03,0.02,0.07,-0.15,0.0,i
3862.0,1422.0,2864.0,3323.0,2434.0,2448.0,2690.0,4095.0,-1.29,9.84,3.88,0.01,-0.02,-0.12,0.0,i
3873.0,1306.0,2871.0,3312.0,2432.0,2448.0,2699.0,4095.0,-1.29,9.72,3.8,-0.1,-0.08,-0.18,0.0,i
3869.0,1328.0,2867.0,3301.0,2433.0,2449.0,2695.0,4095.0,-1.36,9.95,3.71,0.06,-0.06,-0.19,0.0,i
3879.0,1329.0,2877.0,3311.0,2439.0,2455.0,2694.0,4095.0,-1.16,9.53,3.8,-0.07,0.03,-0.19,0.0,i
3866.0,1318.0,2864.0,3312.0,2432.0,2454.0,2694.0,4095.0,-1.55,10.01,3.75,-0.02,-0.05,-0.2,0.0,i
3890.0,1173.0,2870.0,3342.0,2448.0,2461.0,2703.0,4095.0,-1.4,9.5,3.98,-0.04,0.08,-0.18,0.0,i
3900.0,1119.0,2873.0,3355.0,2459.0,2461.0,2704.0,4095.0,-1.55,9.84,3.89,-0.04,-0.05,-0.18,0.0,i
3899.0,1057.0,2878.0,3374.0,2461.0,2465.0,2703.0,4095.0,-1.47,9.73,3.88,0.02,0.07,-0.15,0.0,i
3911.0,959.0,2866.0,3386.0,2470.0,2467.0,2704.0,4095.0,-1.48,9.81,3.84,-0.11,0.03,-0.11,0.0,i
3919.0,924.0,2866.0,3377.0,2461.0,2470.0,2724.0,4095.0,-1.31,9.73,4.1,0.0,0.01,-0.13,0.0,i
3918.0,901.0,2864.0,3390.0,2469.0,2474.0,2727.0,4095.0,-1.25,9.64,4.07,-0.04,-0.05,-0.21,0.0,i
3925.0,905.0,2873.0,3407.0,2472.0,2478.0,2742.0,4095.0,-1.53,9.9,3.91,0.02,0.0,-0.21,0.0,i
3908.0,911.0,2866.0,3403.0,2467.0,2475.0,2739.0,4095.0,-1.34,9.58,4.08,-0.05,0.02,-0.17,0.0,i
3920.0,908.0,2867.0,3408.0,2469.0,2474.0,2736.0,4095.0,-1.44,9.89,4.01,0.02,0.03,-0.17,0.0,i
3941.0,898.0,2875.0,3419.0,2479.0,2476.0,2736.0,4095.0,-1.43,9.59,4.18,0.01,0.06,-0.15,0.0,i
3926.0,881.0,2870.0,3417.0,2479.0,2479.0,2742.0,4095.0,-1.37,9.9,3.82,0.03,0.01,-0.16,0.0,i
3922.0,887.0,2864.0,3425.0,2479.0,2479.0,2752.0,4095.0,-1.34,9.74,3.99,0.04,0.04,-0.17,0.0,i
3936.0,885.0,2871.0,3440.0,2480.0,2480.0,2746.0,4095.0,-1.53,9.8,3.99,0.0,-0.01,-0.19,0.0,i
3939.0,877.0,2870.0,3429.0,2480.0,2469.0,2748.0,4095.0,-1.27,9.69,3.98,0.01,0.04,-0.14,0.0,i
3920.0,878.0,2868.0,3431.0,2480.0,2480.0,2751.0,4095.0,-1.44,9.79,4.15,0.02,-0.02,-0.18,0.0,i
3233.0,912.0,2864.0,3395.0,2871.0,2589.0,2749.0,4095.0,-1.51,9.48,3.67,-0.03,-0.02,-0.21,0.0,i
3227.0,887.0,2864.0,3391.0,2863.0,2588.0,2747.0,4095.0,-1.56,9.75,3.65,0.09,-0.08,-0.21,0.0,i
3238.0,881.0,2867.0,3384.0,2860.0,2594.0,2746.0,4095.0,-1.47,9.63,3.64,0.02,-0.03,-0.2,0.0,i
3229.0,883.0,2869.0,3383.0,2859.0,2587.0,2736.0,4095.0,-1.68,9.82,3.66,0.01,0.02,-0.16,0.0,i
3235.0,880.0,2873.0,3394.0,2857.0,2588.0,2771.0,4095.0,-1.64,9.64,3.56,0.03,-0.0,-0.16,0.0,i
3231.0,874.0,2864.0,3404.0,2853.0,2588.0,2747.0,4095.0,-1.76,9.79,3.45,-0.01,0.05,-0.15,0.0,i
3229.0,878.0,2863.0,3419.0,2859.0,2594.0,2748.0,4095.0,-1.77,9.67,3.63,0.0,0.02,-0.14,0.0,i
3221.0,868.0,2866.0,3425.0,2864.0,2593.0,2753.0,4095.0,-1.52,9.65,3.45,-0.09,-0.04,-0.16,0.0,i
3225.0,869.0,2864.0,3407.0,2860.0,2592.0,2752.0,4095.0,-1.83,9.87,3.67,0.03,-0.0,-0.13,0.0,i
3222.0,876.0,2860.0,3432.0,2863.0,2595.0,2750.0,4095.0,-1.42,9.68,3.6,-0.06,-0.06,-0.16,0.0,i
3233.0,875.0,2863.0,3438.0,2862.0,2589.0,2755.0,4095.0,-1.63,9.94,3.72,0.01,0.01,-0.16,0.0,i
3245.0,874.0,2879.0,3447.0,2867.0,2592.0,2757.0,4095.0,-1.49,9.64,3.73,-0.04,-0.04,-0.15,0.0,i
3235.0,879.0,2869.0,3446.0,2864.0,2595.0,2768.0,4095.0,-1.81,9.93,3.74,0.08,0.02,-0.16,0.0,i
3237.0,878.0,2866.0,3450.0,2868.0,2599.0,2755.0,4095.0,-1.64,9.67,3.79,0.02,-0.02,-0.14,0.0,i
3235.0,876.0,2865.0,3442.0,2850.0,2608.0,2748.0,4095.0,-1.92,9.9,3.96,0.18,-0.06,-0.05,0.0,i
3241.0,875.0,2867.0,3468.0,2862.0,2595.0,2767.0,4095.0,-0.86,9.75,3.17,0.07,-0.02,-0.16,0.0,i
3230.0,874.0,2870.0,3467.0,2864.0,2597.0,2764.0,4095.0,-1.56,9.58,3.7,0.04,0.21,-0.22,0.0,i
3219.0,866.0,2871.0,3451.0,2865.0,2592.0,2755.0,4095.0,-1.62,9.82,3.38,0.0,0.04,-0.2,0.0,i
3233.0,864.0,2871.0,3463.0,2876.0,2594.0,2766.0,4095.0,-1.72,9.62,3.38,-0.01,0.19,-0.21,0.0,i
3238.0,875.0,2864.0,3457.0,2867.0,2592.0,2764.0,4095.0,-1.5,9.71,3.33,-0.1,-0.11,-0.17,0.0,i
3155.0,869.0,2871.0,3408.0,2531.0,2525.0,2806.0,4095.0,-1.06,9.77,4.23,-0.07,0.07,-0.09,0.0,i
3166.0,874.0,2864.0,3408.0,2539.0,2514.0,2801.0,4095.0,-0.99,9.91,4.29,0.05,0.04,-0.12,0.0,i
3161.0,868.0,2864.0,3422.0,2531.0,2521.0,2801.0,4095.0,-0.84,9.67,4.35,-0.02,-0.03,-0.13,0.0,i
3178.0,875.0,2874.0,3419.0,2542.0,2525.0,2800.0,4095.0,-0.97,9.89,4.26,-0.0,-0.01,-0.17,0.0,i
3173.0,867.0,2874.0,3413.0,2544.0,2524.0,2801.0,4095.0,-0.99,9.82,4.22,-0.06,-0.01,-0.13,0.0,i
3173.0,867.0,2870.0,3408.0,2545.0,2524.0,2803.0,4095.0,-0.83,9.78,4.48,0.02,0.02,-0.18,0.0,i
3168.0,872.0,2866.0,3415.0,2544.0,2523.0,2799.0,4095.0,-1.08,9.84,4.46,0.02,0.01,-0.16,0.0,i
3171.0,868.0,2874.0,3422.0,2544.0,2530.0,2800.0,4095.0,-1.02,9.83,4.19,0.01,-0.02,-0.15,0.0,i
3174.0,863.0,2867.0,3417.0,2555.0,2535.0,2810.0,4095.0,-0.91,9.87,4.11,0.01,0.07,-0.12,0.0,i
3171.0,865.0,2864.0,3422.0,2551.0,2533.0,2807.0,4095.0,-0.81,9.85,4.26,-0.04,-0.04,-0.17,0.0,i
3181.0,865.0,2878.0,3426.0,2551.0,2535.0,2803.0,4095.0,-0.99,9.9,4.28,-0.0,0.02,-0.16,0.0,i
3184.0,871.0,2875.0,3430.0,2550.0,2543.0,2807.0,4095.0,-1.07,9.63,4.37,-0.06,0.0,-0.17,0.0,i
3184.0,871.0,2871.0,3421.0,2543.0,2529.0,2799.0,4095.0,-1.13,9.88,4.38,0.02,-0.04,-0.15,0.0,i
3193.0,873.0,2869.0,3437.0,2549.0,2531.0,2805.0,4095.0,-0.83,9.77,4.4,-0.04,-0.04,-0.16,0.0,i
3184.0,874.0,2864.0,3427.0,2555.0,2537.0,2811.0,4095.0,-1.05,9.91,4.66,0.05,-0.01,-0.16,0.0,i
3178.0,873.0,2869.0,3425.0,2549.0,2526.0,2800.0,4095.0,-0.92,9.8,4.47,-0.01,-0.02,-0.17,0.0,i
3190.0,870.0,2871.0,3435.0,2555.0,2530.0,2803.0,4095.0,-1.08,9.87,4.41,0.04,0.02,-0.15,0.0,i
3179.0,875.0,2865.0,3429.0,2551.0,2526.0,2799.0,4095.0,-0.99,9.86,4.34,0.01,0.03,-0.16,0.0,i
3184.0,873.0,2871.0,3465.0,2555.0,2526.0,2800.0,4095.0,-1.01,9.76,4.4,0.02,-0.01,-0.16,0.0,i
3182.0,871.0,2878.0,3440.0,2559.0,2523.0,2803.0,4095.0,-1.01,9.87,4.37,-0.01,-0.1,-0.21,0.0,i
3520.0,887.0,2869.0,3533.0,2480.0,2452.0,2773.0,4095.0,-1.62,9.88,3.98,0.07,0.0,-0.19,0.0,i
3526.0,882.0,2865.0,3546.0,2483.0,2452.0,2773.0,4095.0,-1.6,9.61,3.89,-0.0,0.05,-0.16,0.0,i
3525.0,878.0,2871.0,3521.0,2483.0,2457.0,2773.0,4095.0,-1.42,9.78,3.98,0.01,-0.04,-0.14,0.0,i
3527.0,880.0,2875.0,3548.0,2486.0,2460.0,2773.0,4095.0,-1.43,9.53,4.37,-0.06,0.08,-0.19,0.0,i
3535.0,891.0,2867.0,3539.0,2483.0,2455.0,2771.0,4095.0,-1.99,9.76,4.26,0.05,0.02,-0.17,0.0,i
3521.0,895.0,2873.0,3556.0,2494.0,2457.0,2782.0,4095.0,-1.64,9.67,3.94,0.02,0.02,-0.14,0.0,i
3519.0,881.0,2866.0,3543.0,2494.0,2455.0,2771.0,4095.0,-1.48,9.7,4.16,0.03,0.03,-0.16,0.0,i
3534.0,883.0,2871.0,3527.0,2496.0,2461.0,2781.0,4095.0,-1.6,9.75,4.06,0.0,0.04,-0.19,0.0,i
3536.0,883.0,2872.0,3553.0,2495.0,2461.0,2777.0,4095.0,-1.68,9.61,3.91,0.03,0.01,-0.18,0.0,i
3534.0,880.0,2870.0,3551.0,2489.0,2463.0,2784.0,4095.0,-1.9,9.71,3.99,-0.04,-0.02,-0.14,0.0,i
3530.0,895.0,2875.0,3568.0,2494.0,2465.0,2780.0,4095.0,-1.75,9.82,4.11,0.02,0.0,-0.12,0.0,i
3543.0,886.0,2867.0,3560.0,2495.0,2462.0,2779.0,4095.0,-1.43,9.75,4.31,-0.02,-0.02,-0.13,0.0,i
3536.0,896.0,2864.0,3546.0,2493.0,2461.0,2778.0,4095.0,-1.56,9.77,4.36,0.07,-0.03,-0.15,0.0,i
3533.0,887.0,2864.0,3539.0,2496.0,2465.0,2785.0,4095.0,-1.65,9.76,3.95,0.04,-0.0,-0.15,0.0,i
3535.0,891.0,2880.0,3552.0,2493.0,2459.0,2782.0,4095.0,-1.66,9.77,3.84,0.02,-0.04,-0.12,0.0,i
3531.0,880.0,2864.0,3547.0,2493.0,2459.0,2781.0,4095.0,-1.43,9.82,3.91,-0.07,0.01,-0.14,0.0,i
3536.0,882.0,2864.0,3551.0,2496.0,2459.0,2782.0,4095.0,-1.38,9.69,4.39,-0.04,-0.0,-0.15,0.0,i
3531.0,880.0,2864.0,3543.0,2492.0,2455.0,2782.0,4095.0,-1.51,9.82,4.43,0.01,-0.04,-0.19,0.0,i
3535.0,885.0,2867.0,3547.0,2493.0,2458.0,2783.0,4095.0,-1.68,9.65,4.19,0.04,0.01,-0.19,0.0,i
3539.0,885.0,2869.0,3555.0,2503.0,2458.0,2789.0,4095.0,-1.73,9.75,4.08,0.0,-0.01,-0.17,0.0,i
3233.0,866.0,2873.0,3494.0,2462.0,2523.0,2761.0,4095.0,-1.95,9.55,3.79,-0.02,-0.02,-0.09,0.0,i
3233.0,866.0,2873.0,3494.0,2462.0,2523.0,2761.0,4095.0,-1.95,9.55,3.79,-0.02,-0.02,-0.09,0.0,i
3223.0,867.0,2864.0,3504.0,2461.0,2525.0,2757.0,4095.0,-1.88,9.84,3.85,0.01,0.04,-0.12,0.0,i
3229.0,858.0,2874.0,3519.0,2480.0,2523.0,2765.0,4095.0,-1.7,9.68,3.85,-0.04,0.02,-0.12,0.0,i
3233.0,866.0,2869.0,3515.0,2468.0,2526.0,2763.0,4095.0,-1.74,9.78,3.89,0.02,0.01,-0.15,0.0,i
3233.0,858.0,2868.0,3531.0,2469.0,2521.0,2755.0,4095.0,-1.83,9.53,3.98,-0.02,0.01,-0.19,0.0,i
3243.0,863.0,2871.0,3534.0,2467.0,2530.0,2769.0,4095.0,-2.14,9.86,3.63,0.02,0.05,-0.09,0.0,i
3245.0,869.0,2871.0,3557.0,2467.0,2533.0,2774.0,4095.0,-1.8,9.51,3.84,0.01,0.0,-0.1,0.0,i
3239.0,865.0,2877.0,3550.0,2469.0,2528.0,2768.0,4095.0,-1.72,9.67,3.81,-0.02,-0.05,-0.14,0.0,i
3245.0,864.0,2873.0,3568.0,2467.0,2536.0,2790.0,4095.0,-1.68,9.66,3.77,0.0,-0.0,-0.15,0.0,i
3253.0,862.0,2875.0,3571.0,2474.0,2537.0,2785.0,4095.0,-1.73,9.67,3.85,-0.03,0.03,-0.16,0.0,i
3250.0,873.0,2870.0,3577.0,2471.0,2528.0,2777.0,4095.0,-1.65,9.82,3.88,0.03,0.03,-0.16,0.0,i
3248.0,871.0,2871.0,3568.0,2469.0,2526.0,2779.0,4095.0,-1.5,9.68,3.91,0.02,0.03,-0.15,0.0,i
3247.0,865.0,2875.0,3559.0,2469.0,2528.0,2787.0,4095.0,-1.75,9.83,3.87,0.1,0.05,-0.12,0.0,i
3242.0,874.0,2866.0,3549.0,2474.0,2529.0,2781.0,4095.0,-1.76,9.61,3.73,0.03,0.04,-0.21,0.0,i
3233.0,868.0,2871.0,3538.0,2477.0,2529.0,2781.0,4095.0,-1.99,9.66,3.75,0.02,-0.0,-0.18,0.0,i
3248.0,866.0,2877.0,3551.0,2480.0,2531.0,2793.0,4095.0,-1.98,9.61,3.84,0.02,-0.02,-0.16,0.0,i
3247.0,867.0,2865.0,3538.0,2475.0,2526.0,2782.0,4095.0,-1.77,9.63,3.76,-0.01,0.01,-0.15,0.0,i
3257.0,868.0,2880.0,3555.0,2480.0,2537.0,2812.0,4095.0,-2.04,9.76,3.84,0.01,0.04,-0.1,0.0,i
3243.0,870.0,2875.0,3547.0,2480.0,2533.0,2789.0,4095.0,-2.2,9.91,3.52,-0.09,0.05,0.14,0.0,i
3571.0,4095.0,2875.0,3507.0,2484.0,2496.0,2751.0,4095.0,-0.99,9.76,4.13,-0.03,0.05,-0.15,0.0,i
3571.0,4095.0,2871.0,3521.0,2493.0,2496.0,2751.0,4095.0,-1.48,9.7,4.03,0.02,0.05,-0.21,0.0,i
3571.0,4095.0,2874.0,3535.0,2494.0,2494.0,2745.0,4095.0,-1.7,9.68,3.76,0.09,0.01,-0.23,0.0,i
3576.0,4095.0,2878.0,3511.0,2486.0,2497.0,2750.0,4095.0,-1.95,9.73,3.54,0.06,0.09,-0.22,0.0,i
3573.0,4095.0,2883.0,3519.0,2489.0,2499.0,2747.0,4095.0,-1.88,9.78,3.35,0.05,-0.06,-0.13,0.0,i
3574.0,4095.0,2878.0,3526.0,2493.0,2497.0,2750.0,4095.0,-1.51,9.68,3.46,0.01,0.04,-0.12,0.0,i
3561.0,4095.0,2875.0,3531.0,2493.0,2497.0,2743.0,4095.0,-1.48,9.77,3.53,-0.02,-0.0,-0.15,0.0,i
3573.0,4095.0,2871.0,3533.0,2493.0,2486.0,2758.0,4095.0,-1.56,9.74,3.56,0.0,0.03,-0.19,0.0,i
3579.0,4095.0,2875.0,3517.0,2493.0,2495.0,2746.0,4095.0,-1.85,9.69,3.66,-0.02,0.04,-0.19,0.0,i
3568.0,4095.0,2864.0,3518.0,2491.0,2495.0,2747.0,4095.0,-1.84,9.7,3.66,-0.01,-0.05,-0.16,0.0,i
3583.0,4095.0,2866.0,3525.0,2493.0,2496.0,2742.0,4095.0,-1.38,9.59,3.81,-0.01,0.03,-0.17,0.0,i
3570.0,4095.0,2871.0,3521.0,2485.0,2495.0,2751.0,4095.0,-1.87,9.75,3.81,-0.02,0.05,-0.18,0.0,i
3583.0,4095.0,2873.0,3533.0,2494.0,2495.0,2750.0,4095.0,-1.63,9.74,3.65,0.01,0.01,-0.12,0.0,i
3570.0,4095.0,2875.0,3527.0,2496.0,2497.0,2751.0,4095.0,-1.49,9.77,3.82,-0.01,0.1,-0.18,0.0,i
3575.0,4095.0,2874.0,3535.0,2496.0,2498.0,2750.0,4095.0,-1.64,9.85,3.86,0.02,-0.04,-0.18,0.0,i
3583.0,4095.0,2880.0,3557.0,2506.0,2500.0,2751.0,4095.0,-1.51,9.72,3.75,0.05,0.08,-0.2,0.0,i
3568.0,4095.0,2871.0,3538.0,2498.0,2497.0,2749.0,4095.0,-1.58,9.64,3.64,0.02,-0.04,-0.18,0.0,i
3583.0,4095.0,2883.0,3539.0,2501.0,2498.0,2767.0,4095.0,-2.0,9.61,3.77,0.04,0.1,-0.22,0.0,i
3583.0,4095.0,2868.0,3546.0,2503.0,2496.0,2757.0,4095.0,-1.99,9.72,3.37,0.04,-0.01,-0.16,0.0,i
3571.0,4095.0,2874.0,3544.0,2508.0,2497.0,2752.0,4095.0,-1.59,9.64,3.25,0.0,0.01,-0.12,0.0,i
3291.0,907.0,2868.0,3443.0,2559.0,2527.0,2772.0,4095.0,-1.91,9.69,3.79,0.03,0.0,-0.16,0.0,i
3285.0,912.0,2871.0,3441.0,2559.0,2525.0,2779.0,4095.0,-1.98,9.67,3.61,-0.07,-0.03,-0.17,0.0,i
3282.0,900.0,2869.0,3447.0,2559.0,2525.0,2771.0,4095.0,-1.99,9.59,3.79,0.02,0.03,-0.16,0.0,i
3289.0,912.0,2867.0,3447.0,2592.0,2523.0,2783.0,4095.0,-1.99,9.6,3.72,-0.04,-0.04,-0.15,0.0,i
3284.0,906.0,2869.0,3456.0,2582.0,2524.0,2775.0,4095.0,-1.86,9.66,3.65,0.04,0.0,-0.13,0.0,i
3283.0,897.0,2863.0,3458.0,2583.0,2518.0,2769.0,4095.0,-1.78,9.63,3.78,-0.02,-0.0,-0.15,0.0,i
3280.0,896.0,2866.0,3450.0,2586.0,2517.0,2771.0,4095.0,-1.82,9.67,3.73,0.03,-0.01,-0.16,0.0,i
3284.0,903.0,2871.0,3453.0,2591.0,2530.0,2773.0,4095.0,-1.86,9.72,3.74,0.03,-0.0,-0.15,0.0,i
3297.0,910.0,2864.0,3459.0,2591.0,2526.0,2785.0,4095.0,-1.8,9.58,3.8,-0.01,0.01,-0.15,0.0,i
3298.0,899.0,2864.0,3463.0,2592.0,2517.0,2775.0,4095.0,-1.93,9.95,3.68,0.06,-0.0,-0.18,0.0,i
3295.0,901.0,2873.0,3461.0,2592.0,2528.0,2774.0,4095.0,-1.93,9.49,3.67,-0.02,0.05,-0.18,0.0,i
3280.0,903.0,2867.0,3456.0,2591.0,2523.0,2777.0,4095.0,-2.07,9.79,3.59,0.03,-0.03,-0.18,0.0,i
3309.0,896.0,2875.0,3465.0,2597.0,2530.0,2781.0,4095.0,-2.08,9.56,3.79,-0.02,0.03,-0.16,0.0,i
3287.0,906.0,2867.0,3460.0,2591.0,2526.0,2785.0,4095.0,-2.01,9.76,3.62,0.05,-0.05,-0.16,0.0,i
3295.0,908.0,2871.0,3461.0,2594.0,2526.0,2783.0,4095.0,-2.05,9.62,3.82,-0.01,0.04,-0.15,0.0,i
3281.0,905.0,2869.0,3469.0,2593.0,2528.0,2781.0,4095.0,-2.01,9.71,3.75,0.04,-0.02,-0.13,0.0,i
3290.0,899.0,2879.0,3466.0,2595.0,2526.0,2781.0,4095.0,-1.85,9.6,3.7,0.0,0.02,-0.14,0.0,i
3300.0,902.0,2864.0,3467.0,2587.0,2530.0,2768.0,4095.0,-1.99,9.63,3.68,0.05,-0.01,-0.15,0.0,i
3299.0,909.0,2868.0,3474.0,2596.0,2529.0,2782.0,4095.0,-1.86,9.64,3.51,-0.01,0.01,-0.16,0.0,i
3290.0,899.0,2869.0,3477.0,2595.0,2525.0,2775.0,4095.0,-1.85,9.72,3.61,-0.01,-0.02,-0.15,0.0,i
3641.0,4095.0,2875.0,3408.0,2535.0,2526.0,2755.0,4095.0,-0.79,9.9,4.45,-0.05,-0.08,-0.31,0.0,i
3648.0,4095.0,2875.0,3415.0,2541.0,2531.0,2762.0,4095.0,-1.44,9.77,4.28,0.07,0.17,-0.24,0.0,i
3634.0,4095.0,2869.0,3422.0,2537.0,2527.0,2753.0,4095.0,-1.16,9.89,3.79,-0.02,-0.05,-0.19,0.0,i
3647.0,4095.0,2871.0,3427.0,2542.0,2529.0,2757.0,4095.0,-1.17,9.97,4.37,0.03,0.01,-0.14,0.0,i
3661.0,4095.0,2870.0,3434.0,2544.0,2542.0,2762.0,4095.0,-0.87,9.69,4.38,-0.01,-0.05,-0.15,0.0,i
3662.0,4095.0,2875.0,3478.0,2548.0,2542.0,2765.0,4095.0,-1.18,9.96,4.36,0.01,0.04,-0.17,0.0,i
3635.0,4095.0,2870.0,3441.0,2544.0,2533.0,2762.0,4095.0,-1.04,9.7,4.14,-0.06,-0.0,-0.19,0.0,i
3649.0,4095.0,2870.0,3440.0,2543.0,2530.0,2768.0,4095.0,-1.16,9.85,4.41,0.03,0.07,-0.14,0.0,i
3651.0,4095.0,2875.0,3453.0,2544.0,2537.0,2765.0,4095.0,-1.12,9.72,4.66,-0.05,-0.03,-0.17,0.0,i
3662.0,4095.0,2871.0,3398.0,2531.0,2530.0,2773.0,4095.0,-1.09,10.02,4.35,0.02,-0.04,-0.06,0.0,i
3682.0,4095.0,2870.0,3402.0,2537.0,2535.0,2765.0,4095.0,-0.72,9.48,4.76,-0.06,0.11,-0.11,0.0,i
3691.0,4095.0,2870.0,3431.0,2546.0,2541.0,2766.0,4095.0,-1.35,9.98,4.56,0.07,0.16,-0.21,0.0,i
3690.0,4095.0,2878.0,3447.0,2554.0,2541.0,2768.0,4095.0,-1.23,9.66,4.11,0.05,0.1,-0.17,0.0,i
3699.0,4095.0,2867.0,3450.0,2546.0,2540.0,2768.0,4095.0,-1.24,10.02,3.78,0.07,0.14,-0.19,0.0,i
3679.0,4095.0,2871.0,3457.0,2557.0,2537.0,2768.0,4095.0,-1.12,9.84,4.14,-0.04,0.03,-0.13,0.0,i
3687.0,4095.0,2864.0,3472.0,2551.0,2545.0,2768.0,4095.0,-0.93,9.88,4.17,-0.07,0.16,-0.16,0.0,i
3711.0,4095.0,2870.0,3458.0,2549.0,2542.0,2765.0,4095.0,-0.97,9.72,4.48,-0.16,0.14,-0.18,0.0,i
3714.0,4095.0,2870.0,3472.0,2554.0,2544.0,2768.0,4095.0,-1.36,9.69,4.6,-0.07,0.07,-0.16,0.0,i
3723.0,4095.0,2871.0,3475.0,2555.0,2544.0,2777.0,4095.0,-0.94,9.88,4.77,-0.05,0.14,-0.13,0.0,i
3728.0,4095.0,2869.0,3472.0,2558.0,2544.0,2770.0,4095.0,-0.89,9.77,5.01,-0.01,0.28,-0.24,0.0,i
3779.0,859.0,2873.0,3385.0,2846.0,2605.0,2768.0,4095.0,-1.65,9.55,4.04,0.07,0.04,-0.25,0.0,i
3779.0,859.0,2873.0,3385.0,2846.0,2605.0,2768.0,4095.0,-1.65,9.55,4.04,0.07,0.04,-0.25,0.0,i
3781.0,863.0,2865.0,3391.0,2844.0,2602.0,2765.0,4095.0,-2.2,9.85,3.76,0.09,0.11,-0.23,0.0,i
3782.0,864.0,2862.0,3386.0,2841.0,2596.0,2749.0,4095.0,-1.98,9.53,4.23,-0.04,0.17,-0.06,0.0,i
3792.0,867.0,2882.0,3423.0,2843.0,2599.0,2769.0,4095.0,-1.47,9.69,4.48,-0.05,0.13,-0.03,0.0,i
3786.0,882.0,2859.0,3421.0,2846.0,2605.0,2778.0,4095.0,-1.83,9.58,4.52,-0.07,0.32,-0.03,0.0,i
3789.0,870.0,2867.0,3434.0,2847.0,2601.0,2783.0,4095.0,-2.18,9.77,4.5,-0.27,0.13,0.08,0.0,i
3774.0,869.0,2864.0,3426.0,2851.0,2605.0,2789.0,4095.0,-1.83,9.68,4.66,-0.06,0.22,-0.11,0.0,i
3784.0,871.0,2867.0,3418.0,2848.0,2598.0,2775.0,4095.0,-1.74,9.56,4.22,-0.06,0.03,-0.29,0.0,i
3783.0,874.0,2873.0,3409.0,2852.0,2604.0,2778.0,4095.0,-2.14,9.6,3.84,0.11,0.0,-0.3,0.0,i
3785.0,874.0,2869.0,3426.0,2850.0,2595.0,2774.0,4095.0,-2.77,9.47,4.41,-0.05,-0.06,-0.26,0.0,i
3790.0,875.0,2864.0,3435.0,2875.0,2598.0,2784.0,4095.0,-2.36,9.84,4.45,0.09,-0.05,-0.15,0.0,i
3782.0,874.0,2859.0,3446.0,2856.0,2595.0,2785.0,4095.0,-1.56,9.52,4.72,-0.06,0.04,-0.16,0.0,i
3790.0,871.0,2869.0,3452.0,2855.0,2603.0,2778.0,4095.0,-1.59,9.75,4.78,-0.04,0.14,-0.17,0.0,i
3786.0,870.0,2866.0,3486.0,2857.0,2601.0,2779.0,4095.0,-1.76,9.63,4.64,-0.09,0.03,-0.14,0.0,i
3795.0,874.0,2869.0,3462.0,2859.0,2597.0,2786.0,4095.0,-1.89,9.85,4.7,0.01,0.12,-0.12,0.0,i
3782.0,869.0,2862.0,3451.0,2849.0,2581.0,2783.0,4095.0,-1.72,9.5,4.4,-0.01,0.04,-0.11,0.0,i
3813.0,879.0,2871.0,3456.0,2849.0,2589.0,2773.0,4095.0,-1.98,9.63,4.18,0.15,0.09,-0.14,0.0,i
3781.0,875.0,2867.0,3445.0,2845.0,2587.0,2774.0,4095.0,-2.26,9.39,4.05,0.06,-0.01,-0.13,0.0,i
3799.0,869.0,2865.0,3455.0,2864.0,2591.0,2785.0,4095.0,-2.41,10.18,4.0,0.02,-0.05,-0.15,0.0,i
3445.0,2784.0,2870.0,3527.0,2529.0,2559.0,2765.0,4095.0,-1.54,9.81,4.15,-0.06,0.06,0.01,0.0,i
3443.0,2763.0,2865.0,3530.0,2517.0,2559.0,2759.0,4095.0,-0.66,9.93,3.98,-0.15,-0.04,-0.18,0.0,i
3472.0,2667.0,2871.0,3537.0,2526.0,2559.0,2769.0,4095.0,-1.3,9.76,4.12,0.04,0.22,-0.26,0.0,i
3453.0,2637.0,2880.0,3526.0,2530.0,2559.0,2773.0,4095.0,-1.41,9.46,4.16,-0.02,-0.01,-0.25,0.0,i
3453.0,2274.0,2870.0,3509.0,2534.0,2559.0,2774.0,4095.0,-1.84,9.72,4.17,0.03,0.03,-0.25,0.0,i
3456.0,2258.0,2877.0,3516.0,2532.0,2559.0,2775.0,4095.0,-1.97,9.7,4.2,-0.03,-0.05,-0.25,0.0,i
3455.0,1918.0,2866.0,3516.0,2533.0,2559.0,2769.0,4095.0,-2.14,9.43,4.26,0.13,0.05,-0.27,0.0,i
3457.0,1430.0,2865.0,3501.0,2530.0,2559.0,2763.0,4095.0,-1.89,9.45,3.9,0.02,-0.04,-0.19,0.0,i
3450.0,1098.0,2865.0,3510.0,2529.0,2559.0,2762.0,4095.0,-2.24,9.77,4.21,-0.0,-0.18,-0.17,0.0,i
3458.0,1002.0,2865.0,3520.0,2531.0,2559.0,2763.0,4095.0,-1.87,9.62,4.28,-0.05,-0.07,-0.12,0.0,i
3453.0,976.0,2875.0,3505.0,2535.0,2559.0,2768.0,4095.0,-1.79,9.69,4.41,0.01,0.03,-0.08,0.0,i
3459.0,961.0,2864.0,3521.0,2535.0,2559.0,2772.0,4095.0,-1.88,9.82,4.42,0.05,0.05,-0.14,0.0,i
3453.0,955.0,2875.0,3529.0,2544.0,2559.0,2769.0,4095.0,-1.87,9.69,4.07,0.07,0.01,-0.15,0.0,i
3452.0,951.0,2871.0,3521.0,2541.0,2559.0,2768.0,4095.0,-1.76,9.6,3.94,0.07,-0.02,-0.15,0.0,i
3447.0,947.0,2875.0,3524.0,2539.0,2559.0,2768.0,4095.0,-1.75,9.87,4.06,0.01,0.01,-0.17,0.0,i
3454.0,950.0,2870.0,3524.0,2541.0,2559.0,2769.0,4095.0,-1.81,9.85,4.08,0.05,-0.02,-0.17,0.0,i
3443.0,949.0,2868.0,3537.0,2541.0,2559.0,2763.0,4095.0,-1.87,9.54,4.05,-0.02,-0.01,-0.16,0.0,i
3458.0,945.0,2866.0,3527.0,2544.0,2559.0,2777.0,4095.0,-1.63,9.82,4.1,0.05,0.06,-0.1,0.0,i
3456.0,923.0,2867.0,3532.0,2544.0,2559.0,2777.0,4095.0,-1.64,9.66,4.37,-0.07,0.07,-0.08,0.0,i
3460.0,909.0,2876.0,3523.0,2551.0,2559.0,2783.0,4095.0,-1.47,9.78,3.95,-0.0,0.04,-0.1,0.0,i
3995.0,4095.0,2866.0,3391.0,2514.0,2604.0,2815.0,4095.0,-2.39,9.74,3.38,-0.04,-0.13,-0.14,0.0,i
3977.0,4095.0,2864.0,3395.0,2529.0,2604.0,2818.0,4095.0,-2.25,9.52,3.74,-0.09,0.01,-0.11,0.0,i
3978.0,4095.0,2866.0,3428.0,2533.0,2608.0,2831.0,4095.0,-2.26,9.58,3.82,-0.13,-0.07,-0.13,0.0,i
3983.0,4095.0,2870.0,3408.0,2532.0,2606.0,2823.0,4095.0,-2.34,9.45,4.16,-0.06,0.03,-0.1,0.0,i
3970.0,4095.0,2867.0,3411.0,2534.0,2606.0,2825.0,4095.0,-2.21,9.72,3.91,-0.08,-0.02,-0.1,0.0,i
3964.0,4095.0,2863.0,3453.0,2534.0,2604.0,2823.0,4095.0,-2.01,9.66,4.09,-0.02,0.04,-0.1,0.0,i
3984.0,4095.0,2873.0,3433.0,2541.0,2610.0,2829.0,4095.0,-1.83,9.52,4.19,-0.07,0.0,-0.18,0.0,i
3984.0,4095.0,2867.0,3440.0,2534.0,2607.0,2827.0,4095.0,-2.04,9.78,4.1,0.07,0.02,-0.15,0.0,i
4000.0,4095.0,2875.0,3440.0,2543.0,2608.0,2835.0,4095.0,-2.14,9.64,3.65,0.02,0.01,-0.14,0.0,i
3987.0,4095.0,2861.0,3459.0,2530.0,2608.0,2830.0,4095.0,-2.14,9.67,3.76,0.01,0.02,-0.15,0.0,i
3990.0,4095.0,2870.0,3470.0,2551.0,2599.0,2833.0,4095.0,-2.09,9.58,4.09,-0.04,0.03,-0.12,0.0,i
4018.0,4095.0,2871.0,3462.0,2550.0,2607.0,2834.0,4095.0,-1.98,9.71,4.04,-0.03,0.04,-0.11,0.0,i
4017.0,4095.0,2874.0,3472.0,2544.0,2598.0,2836.0,4095.0,-1.97,9.58,4.11,-0.02,0.1,-0.13,0.0,i
4031.0,4095.0,2871.0,3470.0,2544.0,2604.0,2832.0,4095.0,-2.13,9.57,3.95,-0.03,0.03,-0.19,0.0,i
4026.0,4095.0,2867.0,3451.0,2545.0,2608.0,2838.0,4095.0,-2.11,9.65,3.94,0.03,0.04,-0.18,0.0,i
4033.0,4095.0,2867.0,3471.0,2549.0,2603.0,2837.0,4095.0,-2.02,9.56,3.93,0.04,-0.01,-0.24,0.0,i
4037.0,4095.0,2872.0,3471.0,2550.0,2599.0,2841.0,4095.0,-2.11,9.66,3.92,0.03,0.04,-0.18,0.0,i
4058.0,4095.0,2869.0,3484.0,2549.0,2595.0,2843.0,4095.0,-2.24,9.59,4.13,0.03,0.03,-0.18,0.0,i
4056.0,4095.0,2867.0,3482.0,2554.0,2601.0,2831.0,4095.0,-2.06,9.56,4.01,0.03,-0.02,-0.17,0.0,i
4060.0,4095.0,2874.0,3477.0,2550.0,2603.0,2834.0,4095.0,-2.31,9.6,4.11,0.07,0.02,-0.16,0.0,i
3117.0,891.0,2879.0,3193.0,2582.0,2527.0,2832.0,3795.0,-1.32,9.78,4.21,-0.04,0.08,-0.21,0.0,i
3120.0,898.0,2880.0,3186.0,2596.0,2531.0,2838.0,4031.0,-1.68,9.57,4.5,-0.16,0.03,-0.26,0.0,i
3111.0,884.0,2878.0,3181.0,2599.0,2541.0,2843.0,4095.0,-1.71,9.87,3.97,-0.02,-0.02,-0.23,0.0,i
3105.0,884.0,2879.0,3200.0,2612.0,2535.0,2846.0,4095.0,-1.69,9.66,4.24,-0.04,0.15,-0.22,0.0,i
3105.0,896.0,2869.0,3194.0,2611.0,2539.0,2850.0,4095.0,-1.74,9.81,4.14,-0.05,0.05,-0.25,0.0,i
3113.0,882.0,2881.0,3211.0,2624.0,2544.0,2854.0,4095.0,-1.75,9.69,4.11,0.09,0.01,-0.25,0.0,i
3120.0,889.0,2878.0,3210.0,2621.0,2547.0,2857.0,4095.0,-1.9,9.72,4.04,-0.03,0.08,-0.2,0.0,i
3120.0,892.0,2879.0,3203.0,2623.0,2549.0,2854.0,4095.0,-1.79,9.64,4.23,-0.01,0.1,-0.21,0.0,i
3109.0,891.0,2871.0,3199.0,2619.0,2553.0,2858.0,4095.0,-2.17,9.52,4.2,-0.06,0.16,-0.13,0.0,i
3117.0,897.0,2871.0,3215.0,2639.0,2559.0,2861.0,4095.0,-2.62,9.79,4.52,0.32,0.26,0.12,0.0,i
3113.0,891.0,2880.0,3231.0,2635.0,2555.0,2865.0,4095.0,-1.48,9.71,4.01,0.04,0.01,0.02,0.0,i
3120.0,890.0,2871.0,3232.0,2638.0,2559.0,2874.0,4095.0,-1.41,9.87,3.93,-0.04,-0.0,-0.11,0.0,i
3116.0,897.0,2871.0,3225.0,2637.0,2559.0,2864.0,4095.0,-1.27,9.65,4.05,-0.06,0.11,-0.13,0.0,i
3120.0,896.0,2870.0,3234.0,2639.0,2559.0,2893.0,4095.0,-1.48,10.01,3.9,0.02,0.03,-0.19,0.0,i
3111.0,902.0,2870.0,3232.0,2637.0,2559.0,2877.0,4095.0,-1.67,9.57,4.1,0.01,0.13,-0.2,0.0,i
3110.0,902.0,2864.0,3223.0,2640.0,2559.0,2875.0,4095.0,-1.64,10.03,3.87,-0.03,-0.02,-0.21,0.0,i
3120.0,897.0,2871.0,3237.0,2640.0,2559.0,2881.0,4095.0,-1.54,9.63,4.07,0.01,0.1,-0.17,0.0,i
3106.0,901.0,2873.0,3236.0,2645.0,2559.0,2879.0,4095.0,-1.5,9.84,4.01,-0.02,0.01,-0.21,0.0,i
3109.0,896.0,2870.0,3243.0,2646.0,2559.0,2875.0,4095.0,-1.71,9.69,4.34,0.03,0.13,-0.17,0.0,i
3120.0,893.0,2870.0,3248.0,2640.0,2559.0,2870.0,4095.0,-1.8,9.68,4.19,-0.03,0.08,-0.18,0.0,i
2960.0,1982.0,2869.0,4095.0,2942.0,2595.0,2994.0,4095.0,-1.52,9.57,4.66,0.09,-0.22,-0.01,0.0,i
2947.0,2277.0,2877.0,4095.0,2885.0,2512.0,2843.0,4095.0,-1.36,9.04,4.18,0.17,0.04,-0.32,0.0,i
2946.0,2615.0,2867.0,4095.0,2833.0,2448.0,2753.0,4095.0,-1.78,10.05,4.11,0.37,-0.16,-0.39,0.0,i
2951.0,2715.0,2864.0,4095.0,2780.0,2449.0,2733.0,4095.0,-1.65,9.06,4.11,0.45,-0.12,-0.16,0.0,i
3047.0,4095.0,2871.0,4095.0,2719.0,2443.0,2704.0,4095.0,-1.4,10.37,3.08,0.48,-0.22,-0.33,0.0,i
3162.0,4095.0,2868.0,4095.0,2742.0,2478.0,2731.0,4095.0,-1.85,9.23,3.04,0.03,-0.03,0.03,0.0,i
3195.0,4095.0,2864.0,3994.0,2658.0,2496.0,2753.0,4095.0,-1.4,10.09,3.08,0.18,-0.39,-0.25,0.0,i
3216.0,4095.0,2890.0,3765.0,2666.0,2512.0,2767.0,4095.0,-1.2,9.42,3.39,-0.08,0.01,-0.2,0.0,i
3220.0,4095.0,2873.0,3640.0,2646.0,2523.0,2772.0,4095.0,-1.81,10.0,3.27,-0.01,-0.14,-0.13,0.0,i
3230.0,4095.0,2877.0,3633.0,2642.0,2525.0,2782.0,4095.0,-1.57,9.53,3.53,-0.07,0.01,-0.06,0.0,i
3223.0,4095.0,2875.0,3551.0,2636.0,2527.0,2787.0,4095.0,-1.55,9.76,3.31,-0.06,-0.12,-0.12,0.0,i
3232.0,3971.0,2873.0,3546.0,2639.0,2534.0,2797.0,4095.0,-1.62,9.9,3.47,-0.01,-0.08,-0.11,0.0,i
3219.0,3557.0,2881.0,3550.0,2642.0,2528.0,2797.0,4095.0,-1.44,9.49,3.52,-0.11,-0.09,-0.13,0.0,i
3230.0,3472.0,2877.0,3529.0,2639.0,2537.0,2802.0,4095.0,-1.61,9.92,3.66,-0.02,-0.11,-0.18,0.0,i
3237.0,3394.0,2880.0,3520.0,2625.0,2542.0,2801.0,4095.0,-1.34,9.55,3.82,-0.12,-0.05,-0.14,0.0,i
3237.0,3172.0,2894.0,3486.0,2609.0,2539.0,2801.0,4095.0,-1.43,9.96,3.95,-0.08,-0.1,-0.08,0.0,i
3243.0,2178.0,2877.0,3485.0,2610.0,2540.0,2800.0,4095.0,-1.22,9.85,3.86,-0.01,0.01,-0.11,0.0,i
3222.0,951.0,2873.0,3472.0,2605.0,2541.0,2781.0,4095.0,-1.41,9.69,3.65,-0.11,-0.05,-0.05,0.0,i
3231.0,915.0,2881.0,3438.0,2606.0,2559.0,2785.0,4095.0,-1.25,9.64,4.05,0.05,-0.04,-0.24,0.0,i
3222.0,898.0,2876.0,3419.0,2601.0,2548.0,2795.0,4095.0,-1.69,9.9,3.96,-0.03,-0.05,-0.25,0.0,i
3296.0,881.0,2871.0,3333.0,2493.0,2515.0,2803.0,4095.0,-2.46,9.5,3.97,-0.01,-0.07,-0.18,0.0,i
3303.0,885.0,2866.0,3339.0,2496.0,2521.0,2806.0,4095.0,-2.29,9.69,3.72,0.02,0.05,-0.19,0.0,i
3314.0,891.0,2865.0,3339.0,2496.0,2514.0,2813.0,4095.0,-2.37,9.56,3.52,-0.12,0.23,-0.15,0.0,i
3303.0,885.0,2866.0,3341.0,2495.0,2506.0,2791.0,4095.0,-2.59,9.58,3.96,-0.12,0.17,-0.16,0.0,i
3312.0,890.0,2870.0,3342.0,2503.0,2512.0,2799.0,4095.0,-2.21,9.54,4.07,-0.06,-0.03,-0.16,0.0,i
3312.0,894.0,2866.0,3341.0,2498.0,2512.0,2800.0,4095.0,-2.26,9.54,4.05,-0.04,0.14,-0.18,0.0,i
3311.0,894.0,2875.0,3359.0,2496.0,2512.0,2803.0,4095.0,-2.6,9.63,4.13,-0.03,0.09,-0.18,0.0,i
3306.0,890.0,2873.0,3346.0,2501.0,2518.0,2806.0,4095.0,-2.53,9.49,3.99,0.0,0.03,-0.17,0.0,i
3312.0,891.0,2866.0,3344.0,2500.0,2515.0,2803.0,4095.0,-2.64,9.59,3.88,0.02,0.02,-0.14,0.0,i
3301.0,887.0,2864.0,3344.0,2502.0,2515.0,2802.0,4095.0,-2.23,9.51,3.67,-0.05,0.23,-0.16,0.0,i
3299.0,893.0,2866.0,3347.0,2501.0,2519.0,2814.0,4095.0,-2.49,9.52,4.01,-0.11,0.35,-0.15,0.0,i
3312.0,889.0,2870.0,3348.0,2505.0,2523.0,2809.0,4095.0,-2.45,9.53,4.08,-0.0,0.2,-0.21,0.0,i
3302.0,883.0,2868.0,3352.0,2505.0,2517.0,2810.0,4095.0,-2.38,9.53,3.89,0.05,0.06,-0.2,0.0,i
3312.0,890.0,2869.0,3345.0,2509.0,2517.0,2813.0,4095.0,-2.6,9.54,3.81,0.02,0.05,-0.18,0.0,i
3310.0,887.0,2867.0,3362.0,2509.0,2518.0,2811.0,4095.0,-2.46,9.46,3.93,0.02,-0.03,-0.15,0.0,i
3312.0,895.0,2871.0,3357.0,2505.0,2528.0,2816.0,4095.0,-2.39,9.59,3.99,0.02,-0.02,-0.17,0.0,i
3315.0,891.0,2865.0,3363.0,2507.0,2522.0,2814.0,4095.0,-2.55,9.51,4.06,0.05,-0.01,-0.15,0.0,i
3295.0,891.0,2866.0,3361.0,2507.0,2523.0,2815.0,4095.0,-2.43,9.57,3.88,0.03,0.0,-0.16,0.0,i
3319.0,884.0,2869.0,3361.0,2509.0,2517.0,2813.0,4095.0,-2.42,9.62,3.86,0.01,-0.03,-0.14,0.0,i
3312.0,896.0,2868.0,3363.0,2514.0,2524.0,2798.0,4095.0,-2.31,9.78,3.65,-0.03,0.04,-0.2,0.0,i
3257.0,4095.0,2864.0,3559.0,2496.0,2491.0,2821.0,4095.0,-1.95,9.61,4.02,0.12,0.05,-0.15,0.0,i
3251.0,4095.0,2869.0,3563.0,2497.0,2493.0,2819.0,4095.0,-1.97,9.56,3.81,0.03,-0.03,-0.14,0.0,i
3246.0,4095.0,2865.0,3566.0,2499.0,2491.0,2819.0,4095.0,-2.01,9.69,3.84,0.06,0.0,-0.15,0.0,i
3248.0,4095.0,2864.0,3559.0,2502.0,2492.0,2820.0,4095.0,-2.13,9.57,4.16,-0.01,0.0,-0.17,0.0,i
3260.0,4095.0,2879.0,3571.0,2505.0,2494.0,2827.0,4095.0,-2.12,9.79,3.72,0.1,-0.02,-0.17,0.0,i
3255.0,4095.0,2866.0,3568.0,2502.0,2496.0,2832.0,4095.0,-1.97,9.5,3.7,-0.01,0.02,-0.16,0.0,i
3247.0,4095.0,2869.0,3580.0,2505.0,2482.0,2821.0,4095.0,-1.96,9.76,3.58,0.01,-0.02,-0.15,0.0,i
3260.0,4095.0,2871.0,3568.0,2504.0,2487.0,2832.0,4095.0,-2.06,9.63,3.93,-0.03,0.04,-0.16,0.0,i
3258.0,4095.0,2867.0,3570.0,2506.0,2498.0,2832.0,4095.0,-1.97,9.76,4.13,-0.03,0.01,-0.16,0.0,i
3255.0,4095.0,2863.0,3565.0,2506.0,2490.0,2822.0,4095.0,-1.84,9.58,3.97,-0.04,0.07,-0.19,0.0,i
3249.0,4095.0,2871.0,3579.0,2506.0,2499.0,2831.0,4095.0,-2.27,9.79,3.81,0.05,0.02,-0.18,0.0,i
3255.0,4095.0,2867.0,3568.0,2509.0,2496.0,2829.0,4095.0,-2.08,9.49,3.73,-0.04,-0.01,-0.16,0.0,i
3250.0,4095.0,2864.0,3571.0,2507.0,2495.0,2817.0,4095.0,-2.13,9.69,3.88,-0.06,-0.0,-0.17,0.0,i
3255.0,4095.0,2871.0,3567.0,2506.0,2493.0,2819.0,4095.0,-2.22,9.47,4.28,-0.04,-0.05,-0.18,0.0,i
3259.0,4095.0,2867.0,3562.0,2502.0,2495.0,2821.0,4095.0,-2.54,9.7,4.42,0.05,-0.0,-0.14,0.0,i
3258.0,4095.0,2864.0,3568.0,2496.0,2493.0,2825.0,4095.0,-2.07,9.56,3.89,0.07,0.0,-0.13,0.0,i
3259.0,4095.0,2879.0,3573.0,2511.0,2496.0,2827.0,4095.0,-2.13,9.75,3.65,0.03,0.0,-0.13,0.0,i
3264.0,4095.0,2870.0,3599.0,2499.0,2491.0,2823.0,4095.0,-1.92,9.58,3.85,-0.0,-0.01,-0.11,0.0,i
3253.0,4095.0,2871.0,3570.0,2509.0,2496.0,2829.0,4095.0,-2.12,9.63,4.04,0.02,-0.03,-0.15,0.0,i
3255.0,4095.0,2881.0,3579.0,2509.0,2496.0,2829.0,4095.0,-2.2,9.56,4.0,0.02,-0.05,-0.15,0.0,i
3283.0,909.0,2870.0,3241.0,2839.0,2642.0,2800.0,4095.0,-2.15,9.59,3.4,-0.04,0.04,-0.19,0.0,i
3283.0,909.0,2870.0,3241.0,2839.0,2642.0,2800.0,4095.0,-2.15,9.59,3.4,-0.04,0.04,-0.19,0.0,i
3298.0,908.0,2875.0,3241.0,2846.0,2640.0,2798.0,4095.0,-2.34,9.52,3.85,0.03,-0.0,-0.16,0.0,i
3283.0,905.0,2876.0,3243.0,2843.0,2642.0,2803.0,4095.0,-2.36,9.54,3.64,0.09,0.01,-0.21,0.0,i
3291.0,903.0,2871.0,3245.0,2841.0,2643.0,2805.0,4095.0,-2.69,9.7,3.46,0.13,-0.07,-0.16,0.0,i
3289.0,909.0,2866.0,3247.0,2845.0,2640.0,2799.0,4095.0,-2.12,9.62,2.99,0.03,-0.03,-0.13,0.0,i
3297.0,905.0,2871.0,3248.0,2855.0,2635.0,2799.0,4095.0,-2.1,9.61,3.41,-0.04,0.09,-0.14,0.0,i
3291.0,898.0,2873.0,3248.0,2847.0,2633.0,2795.0,4095.0,-2.37,9.57,3.62,-0.04,0.07,-0.16,0.0,i
3283.0,909.0,2874.0,3253.0,2846.0,2631.0,2793.0,4095.0,-2.55,9.23,3.59,-0.05,0.01,-0.16,0.0,i
3285.0,912.0,2869.0,3264.0,2828.0,2627.0,2787.0,4095.0,-2.54,9.18,3.6,0.1,0.01,-0.18,0.0,i
3290.0,911.0,2873.0,3283.0,2833.0,2626.0,2800.0,4095.0,-2.96,9.82,3.16,0.05,0.04,-0.05,0.0,i
3271.0,911.0,2864.0,3285.0,2832.0,2622.0,2799.0,4095.0,-2.54,9.65,3.1,-0.14,-0.03,0.05,0.0,i
3279.0,907.0,2865.0,3289.0,2837.0,2635.0,2799.0,4095.0,-1.92,9.45,3.64,-0.11,-0.08,-0.07,0.0,i
3286.0,911.0,2870.0,3301.0,2839.0,2637.0,2806.0,4095.0,-1.91,9.72,3.94,-0.04,-0.04,-0.1,0.0,i
3280.0,911.0,2866.0,3302.0,2838.0,2630.0,2800.0,4095.0,-1.82,9.58,4.16,-0.0,-0.03,-0.11,0.0,i
3283.0,906.0,2874.0,3302.0,2842.0,2641.0,2810.0,4095.0,-1.76,9.73,4.26,-0.04,0.02,-0.12,0.0,i
3275.0,911.0,2869.0,3307.0,2843.0,2639.0,2803.0,4095.0,-1.97,9.67,4.12,0.12,0.03,-0.18,0.0,i
3290.0,905.0,2870.0,3303.0,2836.0,2632.0,2800.0,4095.0,-2.28,9.73,3.43,0.1,0.0,-0.14,0.0,i
3280.0,911.0,2867.0,3313.0,2848.0,2638.0,2803.0,4095.0,-1.95,9.55,3.17,0.1,0.02,-0.14,0.0,i
3280.0,909.0,2865.0,3316.0,2839.0,2635.0,2801.0,4095.0,-2.03,9.67,3.27,0.13,-0.01,-0.15,0.0,i
3194.0,874.0,2869.0,3440.0,2631.0,2525.0,2819.0,4095.0,-0.68,9.95,4.59,-0.04,0.12,-0.15,0.0,i
3191.0,873.0,2867.0,3453.0,2629.0,2512.0,2817.0,4095.0,-0.86,9.63,5.32,-0.17,-0.29,-0.11,0.0,i
3197.0,869.0,2863.0,3456.0,2636.0,2526.0,2817.0,4095.0,-0.88,9.91,5.46,0.03,-0.19,-0.15,0.0,i
3184.0,871.0,2865.0,3462.0,2637.0,2525.0,2816.0,4095.0,-0.82,9.7,5.26,-0.08,-0.0,-0.2,0.0,i
3191.0,873.0,2878.0,3425.0,2640.0,2532.0,2821.0,4095.0,-1.11,9.88,5.38,0.0,-0.02,-0.12,0.0,i
3186.0,875.0,2865.0,3430.0,2634.0,2517.0,2817.0,4095.0,-0.71,9.7,5.5,-0.09,0.01,-0.18,0.0,i
3185.0,877.0,2864.0,3456.0,2641.0,2521.0,2825.0,4095.0,-0.95,9.88,5.45,-0.1,-0.2,-0.14,0.0,i
3198.0,871.0,2868.0,3455.0,2640.0,2519.0,2816.0,4095.0,-0.78,9.66,5.6,0.02,0.01,-0.15,0.0,i
3195.0,879.0,2873.0,3465.0,2646.0,2517.0,2814.0,4095.0,-0.94,9.9,5.46,-0.01,-0.09,-0.18,0.0,i
3184.0,863.0,2880.0,3467.0,2639.0,2519.0,2810.0,4095.0,-0.88,9.7,5.32,0.14,0.01,-0.15,0.0,i
3193.0,878.0,2875.0,3471.0,2672.0,2526.0,2826.0,4095.0,-0.47,9.8,5.17,-0.0,0.08,-0.17,0.0,i
3200.0,873.0,2879.0,3477.0,2640.0,2524.0,2817.0,4095.0,-1.07,9.74,5.6,-0.01,0.38,-0.17,0.0,i
3197.0,867.0,2865.0,3487.0,2641.0,2519.0,2803.0,4095.0,-0.6,9.69,5.41,0.11,0.1,-0.12,0.0,i
3197.0,865.0,2869.0,3498.0,2646.0,2528.0,2811.0,4095.0,-1.29,9.81,4.99,-0.02,0.7,-0.18,0.0,i
3202.0,880.0,2874.0,3504.0,2645.0,2522.0,2810.0,4095.0,-1.29,9.77,5.2,-0.01,0.53,-0.06,0.0,i
3200.0,867.0,2862.0,3485.0,2631.0,2517.0,2803.0,4095.0,-0.94,9.92,5.07,0.09,0.39,-0.03,0.0,i
3212.0,869.0,2864.0,3511.0,2631.0,2524.0,2814.0,4095.0,-1.24,9.8,5.21,-0.02,0.25,0.05,0.0,i
3211.0,880.0,2877.0,3486.0,2625.0,2518.0,2810.0,4095.0,-0.58,9.9,4.91,0.08,-0.05,0.13,0.0,i
3225.0,876.0,2871.0,3499.0,2605.0,2503.0,2815.0,4095.0,-0.47,9.66,5.27,-0.07,0.2,0.06,0.0,i
3248.0,870.0,2875.0,3535.0,2601.0,2487.0,2807.0,4095.0,-0.2,9.85,5.39,0.08,-0.1,-0.02,0.0,i
4095.0,901.0,2878.0,3472.0,2487.0,2623.0,2796.0,4095.0,-2.56,9.74,3.91,0.09,0.06,-0.11,0.0,i
4095.0,899.0,2864.0,3467.0,2483.0,2608.0,2793.0,4095.0,-1.94,9.7,3.24,0.0,0.02,-0.08,0.0,i
4095.0,896.0,2864.0,3477.0,2494.0,2621.0,2794.0,4095.0,-1.46,9.5,3.68,-0.1,0.17,-0.14,0.0,i
4095.0,905.0,2871.0,3484.0,2491.0,2615.0,2803.0,4095.0,-2.22,9.67,4.17,-0.06,0.13,-0.23,0.0,i
4095.0,897.0,2864.0,3487.0,2493.0,2623.0,2800.0,4095.0,-2.2,9.56,3.8,0.01,0.02,-0.21,0.0,i
4095.0,893.0,2876.0,3496.0,2490.0,2622.0,2805.0,4095.0,-2.29,9.52,3.57,-0.08,0.04,-0.2,0.0,i
4095.0,893.0,2867.0,3481.0,2494.0,2621.0,2801.0,4095.0,-2.5,9.57,4.05,-0.09,0.04,-0.16,0.0,i
4095.0,897.0,2864.0,3489.0,2496.0,2624.0,2807.0,4095.0,-1.96,9.63,4.03,-0.05,-0.03,-0.13,0.0,i
4095.0,896.0,2874.0,3493.0,2495.0,2625.0,2802.0,4095.0,-2.37,9.65,4.27,-0.03,0.05,-0.2,0.0,i
4095.0,899.0,2867.0,3483.0,2497.0,2614.0,2798.0,4095.0,-2.1,9.44,3.9,-0.02,-0.1,-0.19,0.0,i
4095.0,890.0,2873.0,3489.0,2495.0,2624.0,2801.0,4095.0,-2.38,9.7,4.03,0.04,-0.01,-0.16,0.0,i
4095.0,896.0,2866.0,3490.0,2495.0,2622.0,2803.0,4095.0,-2.26,9.65,4.16,0.04,0.01,-0.17,0.0,i
4095.0,904.0,2867.0,3504.0,2500.0,2623.0,2809.0,4095.0,-2.21,9.67,3.94,0.01,-0.05,-0.11,0.0,i
4095.0,897.0,2870.0,3489.0,2494.0,2624.0,2796.0,4095.0,-1.9,9.27,4.21,-0.06,-0.01,-0.14,0.0,i
4095.0,890.0,2865.0,3497.0,2522.0,2627.0,2810.0,4095.0,-2.44,9.69,4.17,-0.03,-0.02,-0.15,0.0,i
4095.0,901.0,2867.0,3498.0,2501.0,2631.0,2816.0,4095.0,-2.32,9.45,4.2,-0.03,0.07,-0.15,0.0,i
4095.0,900.0,2866.0,3488.0,2496.0,2619.0,2807.0,4095.0,-2.36,9.62,3.99,0.14,0.01,-0.2,0.0,i
4095.0,894.0,2880.0,3500.0,2503.0,2623.0,2815.0,4095.0,-2.28,9.54,3.78,0.04,-0.04,-0.23,0.0,i
4095.0,893.0,2871.0,3499.0,2494.0,2624.0,2807.0,4095.0,-2.61,9.7,3.89,0.03,-0.09,-0.19,0.0,i
4095.0,893.0,2864.0,3493.0,2494.0,2625.0,2815.0,4095.0,-2.16,9.37,4.09,-0.06,0.01,-0.14,0.0,i
4027.0,883.0,2865.0,3440.0,2553.0,2559.0,2786.0,4095.0,-2.05,9.62,3.65,0.05,-0.08,-0.08,0.0,i
4043.0,882.0,2874.0,3437.0,2553.0,2559.0,2784.0,4095.0,-1.88,9.66,3.39,0.01,-0.08,-0.17,0.0,i
4018.0,878.0,2874.0,3435.0,2550.0,2559.0,2789.0,4095.0,-1.92,9.65,3.71,-0.0,-0.03,-0.17,0.0,i
4034.0,869.0,2871.0,3437.0,2555.0,2559.0,2788.0,4095.0,-2.04,9.75,3.91,0.04,0.02,-0.16,0.0,i
4027.0,880.0,2872.0,3440.0,2547.0,2559.0,2800.0,4095.0,-1.91,9.54,3.44,0.03,0.05,-0.18,0.0,i
4016.0,876.0,2864.0,3434.0,2557.0,2559.0,2778.0,4095.0,-1.96,9.59,3.36,0.04,0.04,-0.21,0.0,i
4045.0,880.0,2867.0,3434.0,2559.0,2559.0,2789.0,4095.0,-2.4,9.49,3.61,-0.02,0.02,-0.22,0.0,i
4016.0,880.0,2865.0,3427.0,2546.0,2559.0,2777.0,4095.0,-2.5,9.64,3.45,0.04,-0.04,-0.19,0.0,i
4017.0,879.0,2865.0,3441.0,2555.0,2544.0,2783.0,4095.0,-2.24,9.53,3.41,-0.05,-0.06,-0.17,0.0,i
4018.0,879.0,2864.0,3431.0,2545.0,2553.0,2779.0,4095.0,-2.19,9.56,3.79,-0.06,0.0,-0.17,0.0,i
4039.0,878.0,2875.0,3440.0,2554.0,2559.0,2788.0,4095.0,-2.32,9.55,3.78,-0.02,-0.06,-0.16,0.0,i
4021.0,877.0,2870.0,3425.0,2542.0,2557.0,2782.0,4095.0,-2.28,9.57,3.61,-0.0,0.0,-0.18,0.0,i
4022.0,878.0,2871.0,3445.0,2558.0,2559.0,2785.0,4095.0,-2.29,9.62,3.62,-0.0,-0.04,-0.12,0.0,i
4021.0,875.0,2875.0,3449.0,2559.0,2559.0,2794.0,4095.0,-2.02,9.65,3.6,-0.02,-0.03,-0.17,0.0,i
4035.0,874.0,2867.0,3461.0,2557.0,2559.0,2789.0,4095.0,-2.22,9.62,3.8,-0.05,-0.05,-0.15,0.0,i
4028.0,873.0,2867.0,3461.0,2558.0,2559.0,2784.0,4095.0,-2.07,9.59,3.83,0.0,-0.04,-0.15,0.0,i
4028.0,879.0,2871.0,3449.0,2559.0,2559.0,2788.0,4095.0,-2.2,9.52,3.82,0.0,0.02,-0.17,0.0,i
4032.0,871.0,2864.0,3459.0,2559.0,2559.0,2786.0,4095.0,-2.37,9.61,3.63,0.02,0.01,-0.15,0.0,i
4033.0,881.0,2870.0,3443.0,2559.0,2559.0,2795.0,4095.0,-2.24,9.62,3.59,0.01,0.02,-0.13,0.0,i
4023.0,880.0,2869.0,3461.0,2559.0,2559.0,2797.0,4095.0,-2.3,9.63,3.95,0.04,0.06,-0.13,0.0,i
3695.0,3381.0,2873.0,3601.0,2559.0,2538.0,2814.0,4095.0,-1.99,9.7,3.24,0.04,0.07,-0.22,0.0,i
3695.0,3386.0,2867.0,3583.0,2559.0,2541.0,2813.0,4095.0,-1.97,9.65,3.38,-0.03,0.07,-0.16,0.0,i
3683.0,3385.0,2867.0,3602.0,2559.0,2542.0,2826.0,4095.0,-1.85,9.48,3.4,0.08,-0.01,-0.16,0.0,i
3683.0,3381.0,2873.0,3630.0,2554.0,2534.0,2813.0,4095.0,-1.79,9.74,3.11,-0.01,-0.04,-0.2,0.0,i
3689.0,3377.0,2873.0,3598.0,2558.0,2535.0,2810.0,4095.0,-2.23,9.57,3.56,-0.07,0.01,-0.17,0.0,i
3695.0,3376.0,2873.0,3600.0,2559.0,2541.0,2819.0,4095.0,-2.13,9.55,3.38,-0.01,-0.01,-0.15,0.0,i
3694.0,3375.0,2871.0,3600.0,2559.0,2542.0,2815.0,4095.0,-2.12,9.81,3.39,-0.07,0.11,-0.12,0.0,i
3686.0,3362.0,2864.0,3603.0,2559.0,2535.0,2817.0,4095.0,-1.75,9.56,3.78,0.01,0.04,-0.18,0.0,i
3694.0,3380.0,2873.0,3600.0,2559.0,2541.0,2817.0,4095.0,-2.06,9.48,3.15,0.14,0.06,-0.3,0.0,i
3675.0,3376.0,2864.0,3583.0,2559.0,2543.0,2810.0,4095.0,-2.81,9.42,2.74,0.1,0.03,-0.19,0.0,i
3696.0,3398.0,2864.0,3583.0,2558.0,2547.0,2813.0,4095.0,-2.35,9.62,2.76,0.12,-0.05,-0.19,0.0,i
3690.0,3405.0,2865.0,3583.0,2559.0,2535.0,2813.0,4095.0,-2.05,9.58,3.05,-0.1,-0.04,-0.16,0.0,i
3687.0,3408.0,2865.0,3583.0,2559.0,2544.0,2810.0,4095.0,-2.06,9.61,3.65,-0.07,0.05,-0.16,0.0,i
3699.0,3419.0,2871.0,3600.0,2559.0,2544.0,2813.0,4095.0,-2.4,9.49,3.57,0.06,0.02,-0.18,0.0,i
3694.0,3406.0,2867.0,3600.0,2559.0,2538.0,2815.0,4095.0,-2.43,9.49,3.03,0.13,0.02,-0.22,0.0,i
3694.0,3397.0,2871.0,3603.0,2559.0,2542.0,2815.0,4095.0,-2.47,9.48,2.99,0.05,0.02,-0.16,0.0,i
3680.0,3397.0,2864.0,3583.0,2559.0,2539.0,2810.0,4095.0,-2.59,9.53,3.21,0.08,0.05,-0.1,0.0,i
3695.0,3408.0,2867.0,3606.0,2559.0,2541.0,2811.0,4095.0,-2.3,9.45,2.99,0.09,-0.21,-0.02,0.0,i
3690.0,3406.0,2870.0,3600.0,2559.0,2538.0,2813.0,4095.0,-2.14,9.52,2.73,0.01,0.17,-0.18,0.0,i
3689.0,3413.0,2866.0,3607.0,2559.0,2542.0,2811.0,4095.0,-2.43,9.53,3.14,-0.07,-0.01,-0.1,0.0,i
3350.0,3751.0,2871.0,3362.0,2780.0,2512.0,2791.0,4095.0,-1.74,9.74,3.73,0.13,0.04,-0.1,0.0,i
3343.0,3759.0,2869.0,3357.0,2785.0,2507.0,2783.0,4095.0,-1.36,9.8,3.66,0.05,0.1,-0.12,0.0,i
3347.0,3755.0,2864.0,3365.0,2779.0,2512.0,2785.0,4095.0,-1.41,9.66,3.69,0.05,-0.02,-0.16,0.0,i
3341.0,3758.0,2865.0,3362.0,2779.0,2511.0,2790.0,4095.0,-2.05,9.79,3.9,-0.03,-0.1,-0.16,0.0,i
3344.0,3751.0,2871.0,3376.0,2784.0,2512.0,2798.0,4095.0,-1.84,9.5,4.2,-0.07,-0.11,-0.11,0.0,i
3358.0,3749.0,2874.0,3372.0,2785.0,2512.0,2796.0,4095.0,-1.59,9.79,3.93,0.05,-0.16,-0.15,0.0,i
3344.0,3747.0,2864.0,3361.0,2773.0,2507.0,2790.0,4095.0,-1.46,9.63,3.99,-0.08,-0.05,-0.24,0.0,i
3355.0,3728.0,2869.0,3366.0,2775.0,2507.0,2794.0,4095.0,-1.86,9.79,4.13,0.1,0.02,-0.21,0.0,i
3347.0,3735.0,2866.0,3371.0,2774.0,2508.0,2793.0,4095.0,-1.77,9.64,3.78,0.05,-0.03,-0.16,0.0,i
3354.0,3743.0,2865.0,3366.0,2775.0,2510.0,2789.0,4095.0,-1.96,9.68,3.96,0.1,0.04,-0.16,0.0,i
3342.0,3759.0,2864.0,3376.0,2770.0,2512.0,2783.0,4095.0,-1.82,9.64,4.0,0.09,0.08,-0.18,0.0,i
3358.0,3757.0,2875.0,3375.0,2785.0,2507.0,2790.0,4095.0,-1.73,9.65,3.68,0.15,0.08,-0.18,0.0,i
3347.0,3742.0,2866.0,3375.0,2778.0,2510.0,2791.0,4095.0,-1.68,9.73,3.4,0.05,0.07,-0.18,0.0,i
3349.0,3753.0,2866.0,3373.0,2778.0,2511.0,2795.0,4095.0,-1.94,9.53,3.65,0.04,0.13,-0.19,0.0,i
3351.0,3750.0,2875.0,3372.0,2783.0,2507.0,2791.0,4095.0,-1.88,9.81,3.33,0.08,-0.01,-0.17,0.0,i
3361.0,3754.0,2875.0,3381.0,2780.0,2512.0,2794.0,4095.0,-1.92,9.64,3.52,-0.01,0.01,-0.17,0.0,i
3361.0,3758.0,2865.0,3376.0,2783.0,2512.0,2794.0,4095.0,-1.95,9.57,3.67,0.03,-0.08,-0.13,0.0,i
3349.0,3749.0,2873.0,3383.0,2782.0,2515.0,2799.0,4095.0,-1.83,9.76,3.8,0.03,-0.01,-0.22,0.0,i
3351.0,3755.0,2867.0,3382.0,2783.0,2517.0,2800.0,4095.0,-1.9,9.72,3.69,-0.01,-0.11,-0.28,0.0,i
3358.0,3773.0,2866.0,3370.0,2768.0,2519.0,2791.0,4095.0,-1.92,9.56,3.85,0.11,-0.09,-0.32,0.0,i
3195.0,2074.0,2875.0,3440.0,2501.0,2604.0,2795.0,4095.0,-2.34,9.61,4.0,-0.14,-0.13,-0.2,0.0,i
3184.0,2069.0,2874.0,3449.0,2502.0,2605.0,2795.0,4095.0,-2.25,9.52,3.87,-0.13,0.03,-0.24,0.0,i
3195.0,2219.0,2882.0,3467.0,2503.0,2607.0,2797.0,4095.0,-2.76,9.52,4.14,-0.05,0.08,-0.15,0.0,i
3194.0,2229.0,2879.0,3457.0,2506.0,2606.0,2800.0,4095.0,-2.47,9.69,3.78,-0.01,-0.06,-0.13,0.0,i
3200.0,2230.0,2877.0,3466.0,2512.0,2603.0,2795.0,4095.0,-2.26,9.56,4.14,-0.12,0.04,-0.09,0.0,i
3203.0,2258.0,2879.0,3465.0,2496.0,2601.0,2800.0,4095.0,-1.91,9.59,4.25,-0.01,0.02,-0.13,0.0,i
3194.0,2262.0,2875.0,3472.0,2512.0,2607.0,2813.0,4095.0,-1.88,9.5,4.36,0.02,0.06,-0.16,0.0,i
3201.0,2273.0,2867.0,3470.0,2505.0,2603.0,2800.0,4095.0,-2.09,9.68,4.1,0.02,-0.01,-0.19,0.0,i
3200.0,2280.0,2869.0,3465.0,2510.0,2602.0,2800.0,4095.0,-2.19,9.5,4.01,0.05,0.05,-0.18,0.0,i
3211.0,2281.0,2871.0,3465.0,2512.0,2605.0,2800.0,4095.0,-2.44,9.71,3.93,-0.01,0.04,-0.18,0.0,i
3210.0,2303.0,2871.0,3455.0,2511.0,2606.0,2800.0,4095.0,-2.51,9.42,4.08,0.04,-0.03,-0.17,0.0,i
3191.0,2295.0,2871.0,3468.0,2509.0,2599.0,2798.0,4095.0,-2.07,9.69,3.6,0.02,-0.12,-0.23,0.0,i
3194.0,2371.0,2871.0,3489.0,2511.0,2597.0,2798.0,4095.0,-2.66,9.49,3.93,-0.09,0.05,-0.17,0.0,i
3200.0,2431.0,2875.0,3504.0,2511.0,2593.0,2798.0,4095.0,-2.16,9.58,3.85,-0.17,-0.0,-0.18,0.0,i
3216.0,2825.0,2880.0,3520.0,2508.0,2591.0,2800.0,4095.0,-2.47,9.45,4.5,-0.06,0.01,-0.1,0.0,i
3201.0,3013.0,2874.0,3522.0,2511.0,2597.0,2799.0,4095.0,-2.0,9.55,4.4,-0.01,-0.08,-0.14,0.0,i
3202.0,3021.0,2879.0,3538.0,2512.0,2598.0,2802.0,4095.0,-2.24,9.54,4.5,0.08,-0.01,-0.15,0.0,i
3202.0,3024.0,2874.0,3536.0,2512.0,2591.0,2805.0,4095.0,-2.27,9.57,4.15,0.02,-0.05,-0.18,0.0,i
3209.0,3029.0,2871.0,3535.0,2512.0,2603.0,2807.0,4095.0,-2.49,9.51,4.1,0.03,-0.0,-0.16,0.0,i
3198.0,3029.0,2875.0,3521.0,2509.0,2595.0,2802.0,4095.0,-2.29,9.61,4.04,-0.01,-0.01,-0.14,0.0,i
3229.0,3365.0,2878.0,3646.0,2515.0,2607.0,2850.0,4095.0,-1.82,9.71,4.18,0.13,-0.03,-0.13,0.0,i
3229.0,3397.0,2876.0,3648.0,2514.0,2608.0,2849.0,4095.0,-1.72,9.67,3.97,0.01,0.03,-0.17,0.0,i
3217.0,3408.0,2872.0,3643.0,2512.0,2603.0,2847.0,4095.0,-2.07,9.57,4.14,0.04,0.02,-0.16,0.0,i
3225.0,3430.0,2877.0,3650.0,2519.0,2608.0,2848.0,4095.0,-2.06,9.62,3.96,0.02,0.04,-0.17,0.0,i
3231.0,3437.0,2880.0,3679.0,2515.0,2608.0,2847.0,4095.0,-2.36,9.6,4.19,-0.06,0.03,-0.12,0.0,i
3221.0,3439.0,2871.0,3638.0,2515.0,2603.0,2850.0,4095.0,-2.24,9.58,4.28,-0.02,0.01,-0.1,0.0,i
3221.0,3437.0,2878.0,3627.0,2511.0,2599.0,2848.0,4095.0,-1.96,9.7,4.25,-0.0,0.01,-0.11,0.0,i
3222.0,3457.0,2869.0,3644.0,2513.0,2608.0,2854.0,4095.0,-1.85,9.68,4.3,-0.0,0.08,-0.14,0.0,i
3225.0,3465.0,2869.0,3635.0,2517.0,2608.0,2850.0,4095.0,-1.91,9.65,4.27,0.01,-0.03,-0.14,0.0,i
3230.0,3456.0,2865.0,3630.0,2518.0,2598.0,2847.0,4095.0,-1.89,9.71,4.2,0.01,0.01,-0.18,0.0,i
3223.0,3474.0,2876.0,3642.0,2522.0,2607.0,2857.0,4095.0,-1.98,9.65,4.09,0.02,-0.01,-0.16,0.0,i
3218.0,3482.0,2872.0,3627.0,2515.0,2604.0,2849.0,4095.0,-2.16,9.63,4.17,0.01,-0.01,-0.16,0.0,i
3221.0,3548.0,2880.0,3639.0,2522.0,2608.0,2855.0,4095.0,-2.05,9.58,4.12,0.02,-0.02,-0.16,0.0,i
3219.0,3565.0,2877.0,3646.0,2517.0,2607.0,2853.0,4095.0,-2.08,9.57,4.23,-0.01,-0.01,-0.14,0.0,i
3219.0,3547.0,2867.0,3649.0,2523.0,2603.0,2851.0,4095.0,-2.17,9.55,4.26,-0.01,0.02,-0.15,0.0,i
3222.0,3558.0,2871.0,3636.0,2515.0,2603.0,2851.0,4095.0,-2.18,9.68,4.3,0.02,-0.02,-0.13,0.0,i
3233.0,3547.0,2866.0,3648.0,2525.0,2608.0,2850.0,4095.0,-1.89,9.64,4.25,0.01,-0.01,-0.13,0.0,i
3226.0,3559.0,2875.0,3639.0,2535.0,2605.0,2850.0,4095.0,-1.96,9.68,4.35,0.02,-0.01,-0.12,0.0,i
3219.0,3574.0,2879.0,3637.0,2510.0,2594.0,2847.0,4095.0,-1.98,9.64,4.29,0.0,0.03,-0.14,0.0,i
3225.0,3613.0,2874.0,3642.0,2523.0,2599.0,2851.0,4095.0,-2.0,9.69,4.17,0.03,0.05,-0.16,0.0,i
3122.0,3713.0,2874.0,3581.0,2506.0,2400.0,2733.0,4095.0,-1.71,9.78,3.43,-0.0,-0.03,-0.12,0.0,i
3117.0,3707.0,2871.0,3570.0,2513.0,2399.0,2733.0,4095.0,-1.74,9.61,3.8,-0.0,0.07,-0.16,0.0,i
3122.0,3725.0,2875.0,3611.0,2515.0,2403.0,2736.0,4095.0,-2.0,9.62,3.6,0.02,0.06,-0.19,0.0,i
3123.0,3710.0,2868.0,3571.0,2512.0,2401.0,2730.0,4095.0,-2.12,9.6,3.41,0.01,0.12,-0.15,0.0,i
3120.0,3703.0,2879.0,3572.0,2512.0,2405.0,2731.0,4095.0,-2.09,9.58,3.54,-0.03,0.03,-0.11,0.0,i
3130.0,3713.0,2878.0,3605.0,2518.0,2407.0,2733.0,4095.0,-1.85,9.69,3.66,-0.01,0.01,-0.14,0.0,i
3123.0,3702.0,2880.0,3597.0,2515.0,2410.0,2738.0,4095.0,-1.97,9.61,3.62,0.01,0.04,-0.16,0.0,i
3117.0,3701.0,2873.0,3597.0,2517.0,2410.0,2737.0,4095.0,-1.92,9.69,3.59,0.01,-0.05,-0.14,0.0,i
3120.0,3716.0,2879.0,3638.0,2517.0,2416.0,2746.0,4095.0,-1.86,9.63,3.76,0.04,-0.04,-0.09,0.0,i
3119.0,3702.0,2882.0,3674.0,2509.0,2418.0,2753.0,4095.0,-1.45,9.71,3.37,0.04,-0.1,-0.11,0.0,i
3114.0,3695.0,2880.0,3696.0,2515.0,2416.0,2754.0,4095.0,-1.8,9.62,3.54,-0.0,0.07,-0.21,0.0,i
3120.0,3683.0,2874.0,3681.0,2511.0,2415.0,2752.0,4095.0,-2.07,9.61,3.6,-0.0,0.06,-0.25,0.0,i
3120.0,3687.0,2880.0,3697.0,2522.0,2425.0,2758.0,4095.0,-2.11,9.64,3.56,-0.02,0.09,-0.21,0.0,i
3125.0,3696.0,2877.0,3686.0,2515.0,2418.0,2758.0,4095.0,-2.17,9.56,3.73,-0.0,0.07,-0.21,0.0,i
3126.0,3690.0,2879.0,3695.0,2519.0,2425.0,2761.0,4095.0,-2.13,9.63,3.54,0.02,-0.02,-0.15,0.0,i
3125.0,3691.0,2880.0,3687.0,2518.0,2419.0,2768.0,4095.0,-2.17,9.59,3.44,0.01,-0.03,-0.12,0.0,i
3122.0,3683.0,2880.0,3696.0,2523.0,2419.0,2763.0,4095.0,-2.01,9.7,3.41,0.01,-0.01,-0.09,0.0,i
3124.0,3674.0,2881.0,3694.0,2524.0,2444.0,2766.0,4095.0,-1.55,9.64,3.45,-0.03,0.0,-0.13,0.0,i
3120.0,3666.0,2874.0,3686.0,2513.0,2419.0,2758.0,4095.0,-1.91,9.67,3.77,-0.05,-0.01,-0.16,0.0,i
3120.0,3680.0,2880.0,3696.0,2515.0,2416.0,2765.0,4095.0,-1.89,9.66,3.82,0.01,-0.01,-0.18,0.0,i
3130.0,867.0,2871.0,3350.0,2693.0,2628.0,2807.0,4095.0,-2.28,9.61,4.07,-0.24,0.11,-0.2,0.0,i
3121.0,858.0,2866.0,3358.0,2683.0,2637.0,2815.0,4095.0,-1.82,9.69,4.03,0.09,0.09,-0.15,0.0,i
3120.0,867.0,2871.0,3344.0,2698.0,2634.0,2817.0,4095.0,-2.0,9.23,4.28,-0.25,-0.0,-0.24,0.0,i
3126.0,858.0,2871.0,3357.0,2693.0,2637.0,2813.0,4095.0,-2.21,10.03,3.98,0.17,-0.15,-0.14,0.0,i
3123.0,858.0,2869.0,3353.0,2695.0,2625.0,2815.0,4095.0,-1.92,9.37,4.13,-0.04,0.12,-0.21,0.0,i
3126.0,866.0,2869.0,3370.0,2701.0,2635.0,2816.0,4095.0,-2.22,9.87,3.96,0.11,-0.09,-0.16,0.0,i
3122.0,860.0,2863.0,3357.0,2700.0,2625.0,2811.0,4095.0,-1.97,9.39,4.02,0.02,0.05,-0.13,0.0,i
3127.0,868.0,2879.0,3376.0,2697.0,2634.0,2817.0,4095.0,-2.27,9.85,3.86,-0.04,-0.1,-0.14,0.0,i
3123.0,858.0,2871.0,3375.0,2704.0,2640.0,2820.0,4095.0,-1.97,9.5,4.02,-0.01,0.09,-0.1,0.0,i
3131.0,855.0,2864.0,3373.0,2699.0,2618.0,2814.0,4095.0,-2.18,9.69,4.07,-0.05,0.0,-0.13,0.0,i
3122.0,859.0,2863.0,3392.0,2697.0,2635.0,2818.0,4095.0,-1.9,9.56,4.13,0.03,-0.01,-0.14,0.0,i
3126.0,857.0,2873.0,3397.0,2703.0,2633.0,2821.0,4095.0,-2.02,9.62,4.05,-0.0,-0.03,-0.14,0.0,i
3125.0,855.0,2867.0,3401.0,2701.0,2631.0,2817.0,4095.0,-1.97,9.67,3.89,-0.01,0.03,-0.14,0.0,i
3120.0,851.0,2870.0,3398.0,2708.0,2624.0,2810.0,4095.0,-2.2,9.73,4.1,-0.07,-0.0,-0.12,0.0,i
3130.0,855.0,2867.0,3409.0,2701.0,2634.0,2821.0,4095.0,-1.86,9.51,4.18,-0.02,0.02,-0.12,0.0,i
3120.0,865.0,2864.0,3408.0,2690.0,2627.0,2817.0,4095.0,-1.85,9.7,4.16,-0.0,-0.04,-0.13,0.0,i
3120.0,855.0,2864.0,3418.0,2685.0,2614.0,2813.0,4095.0,-1.77,9.66,4.31,0.04,-0.03,-0.15,0.0,i
3120.0,855.0,2865.0,3431.0,2676.0,2626.0,2814.0,4095.0,-1.9,9.65,4.18,0.01,-0.02,-0.21,0.0,i
3120.0,859.0,2877.0,3449.0,2666.0,2631.0,2815.0,4095.0,-2.07,9.73,4.11,0.04,0.01,-0.18,0.0,i
3132.0,855.0,2870.0,3463.0,2650.0,2631.0,2825.0,4095.0,-2.19,9.57,4.29,0.05,0.06,-0.16,0.0,i
3511.0,3289.0,2862.0,3484.0,2624.0,2559.0,2832.0,4095.0,-1.21,9.79,3.32,0.02,0.01,-0.19,0.0,i
3523.0,3290.0,2864.0,3489.0,2624.0,2582.0,2831.0,4095.0,-1.39,9.72,3.32,-0.0,0.0,-0.22,0.0,i
3520.0,3297.0,2865.0,3487.0,2611.0,2559.0,2831.0,4095.0,-1.51,9.77,3.29,0.0,-0.01,-0.16,0.0,i
3529.0,3295.0,2882.0,3500.0,2630.0,2592.0,2838.0,4095.0,-1.36,9.68,3.34,0.03,-0.03,-0.18,0.0,i
3525.0,3280.0,2869.0,3504.0,2647.0,2559.0,2832.0,4095.0,-1.37,9.81,3.35,0.01,0.01,-0.18,0.0,i
3536.0,3307.0,2868.0,3504.0,2629.0,2588.0,2836.0,4095.0,-1.59,9.73,3.37,0.02,0.01,-0.17,0.0,i
3523.0,3293.0,2867.0,3505.0,2630.0,2559.0,2832.0,4095.0,-1.55,9.8,3.17,0.01,0.05,-0.16,0.0,i
3523.0,3295.0,2868.0,3501.0,2624.0,2610.0,2832.0,4095.0,-1.43,9.69,3.15,-0.0,-0.0,-0.15,0.0,i
3526.0,3305.0,2871.0,3505.0,2624.0,2559.0,2831.0,4095.0,-1.39,9.79,3.11,-0.01,-0.01,-0.16,0.0,i
3548.0,3319.0,2875.0,3518.0,2625.0,2592.0,2834.0,4095.0,-1.44,9.69,3.32,-0.04,-0.02,-0.16,0.0,i
3547.0,3327.0,2874.0,3520.0,2622.0,2594.0,2837.0,4095.0,-1.38,9.79,3.31,-0.0,-0.02,-0.18,0.0,i
3550.0,3323.0,2867.0,3510.0,2609.0,2586.0,2834.0,4095.0,-1.61,9.67,3.37,-0.09,-0.03,-0.18,0.0,i
3546.0,3341.0,2870.0,3526.0,2618.0,2583.0,2841.0,4095.0,-1.56,9.7,3.53,0.02,-0.02,-0.17,0.0,i
3551.0,3338.0,2880.0,3507.0,2615.0,2588.0,2839.0,4095.0,-1.71,9.81,3.41,0.0,-0.02,-0.12,0.0,i
3535.0,3335.0,2870.0,3527.0,2619.0,2586.0,2842.0,4095.0,-1.38,9.63,3.45,-0.02,0.02,-0.1,0.0,i
3548.0,3342.0,2864.0,3511.0,2615.0,2597.0,2839.0,4095.0,-1.3,9.85,3.39,0.02,0.01,-0.14,0.0,i
3552.0,3359.0,2874.0,3549.0,2619.0,2592.0,2842.0,4095.0,-1.34,9.69,3.31,-0.03,-0.03,-0.16,0.0,i
3568.0,3370.0,2871.0,3527.0,2614.0,2589.0,2845.0,4095.0,-1.52,9.81,3.32,0.01,0.01,-0.14,0.0,i
3568.0,3407.0,2874.0,3542.0,2615.0,2591.0,2845.0,4095.0,-1.45,9.73,3.39,-0.05,-0.01,-0.14,0.0,i
3559.0,3403.0,2874.0,3553.0,2618.0,2590.0,2837.0,4095.0,-1.44,9.8,3.59,-0.01,0.06,-0.13,0.0,i
3177.0,895.0,2871.0,3899.0,2851.0,2691.0,2879.0,4095.0,-1.68,9.76,3.85,0.1,-0.02,-0.15,0.0,i
3180.0,899.0,2871.0,3898.0,2855.0,2698.0,2886.0,4095.0,-1.35,9.78,3.82,-0.01,-0.04,-0.13,0.0,i
3170.0,896.0,2866.0,3890.0,2859.0,2699.0,2880.0,4095.0,-1.3,9.76,3.96,0.08,-0.05,-0.15,0.0,i
3179.0,898.0,2866.0,3888.0,2850.0,2693.0,2880.0,4095.0,-1.16,9.83,3.75,0.02,-0.02,-0.15,0.0,i
3184.0,898.0,2875.0,3910.0,2857.0,2702.0,2880.0,4095.0,-1.49,9.69,3.82,0.04,0.05,-0.2,0.0,i
3184.0,893.0,2866.0,3907.0,2863.0,2703.0,2885.0,4095.0,-1.58,9.89,3.44,-0.01,0.05,-0.19,0.0,i
3184.0,896.0,2870.0,3893.0,2862.0,2694.0,2885.0,4095.0,-1.67,9.64,3.76,-0.05,0.02,-0.15,0.0,i
3180.0,896.0,2886.0,3910.0,2859.0,2694.0,2882.0,4095.0,-1.75,9.88,3.76,0.05,-0.04,-0.15,0.0,i
3184.0,900.0,2874.0,3888.0,2855.0,2699.0,2879.0,4095.0,-1.5,9.67,4.05,0.04,-0.1,-0.1,0.0,i
3177.0,899.0,2871.0,3913.0,2850.0,2693.0,2880.0,4095.0,-1.13,9.86,3.95,0.12,-0.09,-0.18,0.0,i
3183.0,896.0,2870.0,3901.0,2855.0,2688.0,2878.0,4095.0,-1.38,9.62,3.66,0.03,-0.02,-0.19,0.0,i
3181.0,891.0,2883.0,3904.0,2854.0,2697.0,2881.0,4095.0,-1.53,9.83,3.62,0.02,-0.04,-0.23,0.0,i
3180.0,895.0,2877.0,3879.0,2855.0,2698.0,2893.0,4095.0,-2.05,9.63,3.8,-0.01,0.03,-0.19,0.0,i
3177.0,891.0,2864.0,3841.0,2857.0,2694.0,2878.0,4095.0,-1.81,9.72,3.72,0.07,-0.08,-0.13,0.0,i
3179.0,905.0,2876.0,3845.0,2859.0,2698.0,2883.0,4095.0,-1.46,9.72,3.86,0.1,-0.1,-0.15,0.0,i
3185.0,902.0,2878.0,3901.0,2859.0,2693.0,2880.0,4095.0,-1.53,9.74,3.66,0.14,-0.06,-0.18,0.0,i
3187.0,899.0,2869.0,3907.0,2859.0,2691.0,2881.0,4095.0,-1.55,9.67,3.46,0.07,-0.02,-0.16,0.0,i
3184.0,896.0,2871.0,3913.0,2854.0,2688.0,2887.0,4095.0,-1.73,9.76,3.37,0.05,-0.0,-0.14,0.0,i
3184.0,903.0,2879.0,3893.0,2860.0,2689.0,2882.0,4095.0,-1.56,9.73,3.38,0.04,-0.26,-0.11,0.0,i
3184.0,896.0,2870.0,3903.0,2853.0,2690.0,2881.0,4095.0,-1.19,9.68,3.54,0.04,-0.27,-0.18,0.0,i
3344.0,950.0,2880.0,3294.0,2477.0,2479.0,2818.0,4095.0,-1.65,9.67,3.31,-0.14,-0.04,-0.15,0.0,i
3338.0,951.0,2878.0,3326.0,2477.0,2475.0,2818.0,4095.0,-1.37,9.73,3.4,-0.1,-0.05,-0.26,0.0,i
3329.0,944.0,2880.0,3335.0,2480.0,2471.0,2811.0,4095.0,-1.81,9.51,3.53,-0.02,-0.0,-0.18,0.0,i
3343.0,951.0,2880.0,3327.0,2478.0,2463.0,2818.0,4095.0,-1.74,9.86,3.28,-0.02,-0.12,-0.23,0.0,i
3348.0,958.0,2880.0,3342.0,2489.0,2463.0,2812.0,4095.0,-1.82,9.61,3.63,-0.02,0.03,-0.17,0.0,i
3345.0,951.0,2883.0,3341.0,2480.0,2464.0,2812.0,4095.0,-1.75,9.79,3.28,0.07,-0.02,-0.18,0.0,i
3351.0,954.0,2879.0,3355.0,2482.0,2463.0,2815.0,4095.0,-1.79,9.56,3.33,-0.02,-0.02,-0.17,0.0,i
3342.0,950.0,2874.0,3347.0,2480.0,2466.0,2811.0,4095.0,-1.81,9.79,3.28,0.04,-0.02,-0.15,0.0,i
3340.0,951.0,2871.0,3347.0,2478.0,2463.0,2813.0,4095.0,-1.75,9.6,3.33,-0.01,-0.01,-0.16,0.0,i
3345.0,955.0,2879.0,3360.0,2480.0,2461.0,2814.0,4095.0,-1.79,9.76,3.31,-0.02,-0.02,-0.13,0.0,i
3339.0,951.0,2877.0,3363.0,2473.0,2454.0,2803.0,4095.0,-1.75,9.57,3.66,-0.03,0.01,-0.14,0.0,i
3338.0,947.0,2880.0,3366.0,2479.0,2457.0,2806.0,4095.0,-1.64,9.71,3.58,0.0,-0.08,-0.15,0.0,i
3346.0,949.0,2878.0,3373.0,2480.0,2455.0,2801.0,4095.0,-1.71,9.65,3.57,-0.02,-0.0,-0.13,0.0,i
3344.0,951.0,2877.0,3375.0,2480.0,2454.0,2800.0,4095.0,-1.69,9.7,3.41,-0.02,0.01,-0.14,0.0,i
3354.0,950.0,2880.0,3386.0,2490.0,2455.0,2802.0,4095.0,-1.69,9.65,3.49,-0.01,0.06,-0.12,0.0,i
3339.0,946.0,2878.0,3382.0,2482.0,2453.0,2800.0,4095.0,-1.68,9.74,3.28,0.01,-0.03,-0.16,0.0,i
3342.0,948.0,2877.0,3393.0,2483.0,2451.0,2810.0,4095.0,-1.71,9.79,3.26,-0.07,0.02,-0.13,0.0,i
3344.0,954.0,2881.0,3408.0,2490.0,2453.0,2803.0,4095.0,-1.88,9.65,3.41,-0.11,-0.05,-0.12,0.0,i
3350.0,957.0,2879.0,3421.0,2480.0,2451.0,2795.0,4095.0,-1.75,9.71,3.4,-0.22,-0.09,-0.07,0.0,i
3344.0,955.0,2885.0,3457.0,2480.0,2435.0,2806.0,4095.0,-1.6,9.61,3.88,-0.19,-0.07,-0.14,0.0,i
3088.0,4095.0,2882.0,3619.0,2544.0,2361.0,2642.0,4095.0,-2.06,9.6,3.1,-0.05,-0.02,-0.22,0.0,i
3079.0,4095.0,2879.0,3619.0,2543.0,2352.0,2641.0,4095.0,-1.83,9.59,3.22,0.1,-0.02,-0.21,0.0,i
3087.0,4095.0,2880.0,3611.0,2543.0,2352.0,2642.0,4095.0,-1.99,9.79,3.19,-0.01,-0.07,-0.19,0.0,i
3083.0,4095.0,2877.0,3618.0,2541.0,2352.0,2650.0,4095.0,-1.94,9.69,3.11,-0.03,-0.03,-0.16,0.0,i
3083.0,4095.0,2880.0,3621.0,2544.0,2348.0,2643.0,4095.0,-1.9,9.59,3.32,-0.09,-0.04,-0.13,0.0,i
3095.0,4095.0,2880.0,3632.0,2530.0,2356.0,2649.0,4095.0,-1.76,9.84,3.32,0.01,-0.07,-0.14,0.0,i
3088.0,4095.0,2880.0,3630.0,2544.0,2353.0,2649.0,4095.0,-1.66,9.52,3.45,-0.06,-0.02,-0.15,0.0,i
3071.0,4095.0,2879.0,3637.0,2550.0,2354.0,2650.0,4095.0,-2.04,9.78,3.45,0.03,-0.02,-0.16,0.0,i
3071.0,4095.0,2881.0,3642.0,2539.0,2352.0,2647.0,4095.0,-1.98,9.55,3.32,-0.06,-0.05,-0.14,0.0,i
3087.0,4095.0,2883.0,3667.0,2542.0,2352.0,2649.0,4095.0,-1.71,9.7,3.3,-0.02,-0.17,-0.2,0.0,i
3071.0,4095.0,2880.0,3663.0,2538.0,2343.0,2633.0,4095.0,-1.52,9.72,3.34,-0.12,-0.05,-0.31,0.0,i
3086.0,4095.0,2887.0,3664.0,2538.0,2352.0,2640.0,4095.0,-1.84,9.6,3.83,-0.01,0.02,-0.26,0.0,i
3083.0,4095.0,2889.0,3664.0,2530.0,2347.0,2643.0,4095.0,-2.26,9.78,3.72,-0.05,0.0,-0.19,0.0,i
3071.0,4095.0,2887.0,3669.0,2533.0,2346.0,2639.0,4095.0,-2.12,9.4,3.92,-0.01,-0.0,-0.16,0.0,i
3071.0,4095.0,2885.0,3675.0,2528.0,2336.0,2633.0,4095.0,-2.06,9.84,3.67,0.03,0.01,-0.15,0.0,i
3068.0,4095.0,2883.0,3691.0,2539.0,2339.0,2633.0,4095.0,-1.89,9.52,3.61,0.09,0.02,-0.13,0.0,i
3085.0,4095.0,2891.0,3702.0,2534.0,2343.0,2625.0,4095.0,-1.91,9.81,3.24,-0.02,-0.12,-0.16,0.0,i
3065.0,4095.0,2895.0,3712.0,2537.0,2349.0,2623.0,4095.0,-1.92,9.43,3.51,-0.03,-0.02,-0.19,0.0,i
3068.0,4095.0,2890.0,3721.0,2527.0,2341.0,2621.0,4095.0,-2.08,9.81,3.22,-0.02,-0.04,-0.13,0.0,i
3070.0,4095.0,2894.0,3726.0,2525.0,2340.0,2624.0,4095.0,-2.19,9.56,3.69,-0.04,0.06,-0.1,0.0,i
3149.0,3813.0,2891.0,3441.0,2755.0,2517.0,2915.0,3440.0,-1.42,9.63,3.31,0.02,0.06,-0.14,0.0,i
3143.0,3794.0,2896.0,3443.0,2752.0,2509.0,2898.0,3456.0,-1.62,9.8,3.28,-0.03,0.06,-0.11,0.0,i
3147.0,3990.0,2892.0,3463.0,2750.0,2512.0,2907.0,3460.0,-1.19,9.69,3.32,-0.06,-0.02,-0.12,0.0,i
3159.0,4036.0,2891.0,3494.0,2736.0,2512.0,2917.0,3490.0,-1.44,9.72,3.52,-0.07,-0.02,-0.14,0.0,i
3149.0,4033.0,2890.0,3504.0,2742.0,2515.0,2915.0,3490.0,-1.38,9.85,3.72,-0.0,-0.08,-0.12,0.0,i
3152.0,4046.0,2895.0,3518.0,2742.0,2515.0,2924.0,3495.0,-0.98,9.68,3.63,-0.08,-0.07,-0.18,0.0,i
3151.0,4055.0,2892.0,3533.0,2736.0,2519.0,2926.0,3520.0,-1.47,9.83,3.72,0.06,0.06,-0.15,0.0,i
3146.0,4069.0,2887.0,3527.0,2731.0,2512.0,2918.0,3489.0,-1.3,9.77,3.48,0.02,0.14,-0.19,0.0,i
3151.0,4020.0,2893.0,3549.0,2733.0,2515.0,2925.0,3499.0,-1.47,9.75,3.66,-0.03,0.05,-0.18,0.0,i
3155.0,3953.0,2894.0,3559.0,2741.0,2515.0,2911.0,3502.0,-1.38,9.83,3.5,0.05,-0.02,-0.18,0.0,i
3153.0,3965.0,2893.0,3555.0,2742.0,2522.0,2915.0,3509.0,-1.58,9.68,3.56,-0.01,0.0,-0.17,0.0,i
3155.0,3937.0,2890.0,3568.0,2737.0,2517.0,2916.0,3515.0,-1.57,9.82,3.54,0.05,0.02,-0.18,0.0,i
3152.0,3918.0,2882.0,3565.0,2736.0,2515.0,2917.0,3503.0,-1.41,9.69,3.54,-0.01,-0.01,-0.15,0.0,i
3152.0,3931.0,2895.0,3570.0,2737.0,2527.0,2925.0,3511.0,-1.45,9.86,3.47,0.04,-0.01,-0.17,0.0,i
3152.0,3952.0,2897.0,3573.0,2736.0,2522.0,2925.0,3513.0,-1.59,9.71,3.54,-0.02,-0.03,-0.14,0.0,i
3149.0,3938.0,2890.0,3562.0,2727.0,2515.0,2921.0,3517.0,-1.39,9.79,3.42,-0.0,-0.03,-0.16,0.0,i
3151.0,3930.0,2877.0,3578.0,2726.0,2514.0,2913.0,3488.0,-1.63,9.74,3.45,-0.0,0.03,-0.14,0.0,i
3152.0,3952.0,2896.0,3603.0,2720.0,2518.0,2917.0,3489.0,-1.42,9.72,3.39,-0.04,0.08,-0.15,0.0,i
3152.0,3920.0,2884.0,3643.0,2729.0,2517.0,2924.0,3485.0,-1.59,9.74,3.49,-0.04,0.38,-0.18,0.0,i
3151.0,3888.0,2894.0,3662.0,2725.0,2511.0,2923.0,3461.0,-1.82,9.75,3.82,-0.12,-0.01,-0.14,0.0,i
3414.0,876.0,2864.0,3707.0,2863.0,2672.0,2778.0,4095.0,-2.14,9.54,4.34,-0.01,0.07,-0.15,0.0,i
3418.0,880.0,2867.0,3710.0,2864.0,2669.0,2779.0,4095.0,-2.17,9.67,4.22,-0.01,-0.04,-0.19,0.0,i
3414.0,875.0,2864.0,3718.0,2864.0,2672.0,2782.0,4095.0,-2.24,9.38,4.45,-0.02,0.08,-0.17,0.0,i
3413.0,874.0,2874.0,3712.0,2864.0,2662.0,2779.0,4095.0,-2.39,9.7,4.29,0.02,0.08,-0.12,0.0,i
3423.0,878.0,2873.0,3699.0,2864.0,2653.0,2769.0,4095.0,-2.15,9.36,4.37,0.01,0.08,-0.12,0.0,i
3426.0,873.0,2869.0,3707.0,2871.0,2662.0,2774.0,4095.0,-2.24,9.8,4.19,0.08,-0.07,-0.12,0.0,i
3411.0,875.0,2865.0,3708.0,2866.0,2659.0,2773.0,4095.0,-2.16,9.45,4.31,0.02,0.08,-0.15,0.0,i
3445.0,874.0,2870.0,3699.0,2877.0,2645.0,2778.0,4095.0,-2.11,9.67,4.12,0.02,-0.04,-0.14,0.0,i
3419.0,874.0,2873.0,3701.0,2878.0,2660.0,2780.0,4095.0,-2.3,9.59,4.24,0.06,0.06,-0.12,0.0,i
3427.0,874.0,2864.0,3674.0,2890.0,2666.0,2772.0,4095.0,-2.26,9.64,4.13,-0.04,0.01,-0.15,0.0,i
3408.0,867.0,2867.0,3664.0,2881.0,2658.0,2770.0,4095.0,-2.1,9.57,4.27,0.03,0.04,-0.05,0.0,i
3411.0,870.0,2864.0,3649.0,2881.0,2655.0,2767.0,4095.0,-1.77,9.66,4.25,-0.05,0.04,-0.14,0.0,i
3419.0,877.0,2871.0,3679.0,2886.0,2659.0,2777.0,4095.0,-1.86,9.65,4.41,0.11,-0.03,-0.11,0.0,i
3423.0,877.0,2865.0,3659.0,2885.0,2663.0,2778.0,4095.0,-1.7,9.62,4.11,-0.02,0.02,-0.25,0.0,i
3415.0,880.0,2870.0,3655.0,2896.0,2663.0,2776.0,4095.0,-2.35,9.65,4.39,0.06,0.02,-0.19,0.0,i
3415.0,869.0,2865.0,3664.0,2890.0,2658.0,2782.0,4095.0,-2.14,9.67,4.22,0.03,0.0,-0.16,0.0,i
3430.0,872.0,2871.0,3682.0,2896.0,2666.0,2781.0,4095.0,-2.2,9.65,4.3,0.02,0.02,-0.14,0.0,i
3417.0,876.0,2871.0,3689.0,2894.0,2661.0,2778.0,4095.0,-2.1,9.47,4.33,0.09,0.03,-0.22,0.0,i
3435.0,875.0,2871.0,3699.0,2896.0,2663.0,2781.0,4095.0,-2.26,9.71,3.94,0.07,-0.01,-0.19,0.0,i
3414.0,865.0,2867.0,3699.0,2890.0,2655.0,2777.0,4095.0,-2.38,9.39,3.88,0.02,0.05,-0.19,0.0,i
3454.0,886.0,2878.0,3341.0,2583.0,2559.0,2768.0,4095.0,-2.08,9.58,3.9,0.04,0.08,-0.13,0.0,i
3456.0,899.0,2879.0,3354.0,2589.0,2597.0,2767.0,4095.0,-1.96,9.65,3.71,0.04,-0.0,-0.17,0.0,i
3457.0,883.0,2867.0,3344.0,2593.0,2590.0,2773.0,4095.0,-2.17,9.61,3.67,0.05,0.04,-0.18,0.0,i
3468.0,901.0,2878.0,3354.0,2592.0,2596.0,2774.0,4095.0,-2.06,9.59,3.5,0.02,-0.01,-0.17,0.0,i
3467.0,895.0,2880.0,3346.0,2602.0,2595.0,2771.0,4095.0,-2.26,9.63,3.65,0.04,0.04,-0.15,0.0,i
3466.0,890.0,2885.0,3350.0,2602.0,2593.0,2773.0,4095.0,-2.04,9.56,3.64,-0.02,0.01,-0.14,0.0,i
3467.0,900.0,2874.0,3355.0,2605.0,2598.0,2773.0,4095.0,-2.08,9.63,3.81,0.03,-0.02,-0.16,0.0,i
3455.0,893.0,2873.0,3350.0,2597.0,2592.0,2768.0,4095.0,-1.98,9.62,3.69,0.04,-0.01,-0.16,0.0,i
3463.0,893.0,2880.0,3357.0,2605.0,2592.0,2772.0,4095.0,-2.13,9.67,3.64,0.06,0.02,-0.15,0.0,i
3460.0,895.0,2868.0,3353.0,2601.0,2594.0,2767.0,4095.0,-2.19,9.67,3.5,0.01,0.04,-0.16,0.0,i
3472.0,896.0,2872.0,3356.0,2607.0,2601.0,2771.0,4095.0,-2.11,9.64,3.51,0.0,0.01,-0.14,0.0,i
3462.0,891.0,2880.0,3363.0,2629.0,2601.0,2781.0,4095.0,-2.09,9.58,3.66,-0.01,0.0,-0.15,0.0,i
3459.0,886.0,2882.0,3359.0,2611.0,2589.0,2774.0,4095.0,-2.03,9.67,3.7,-0.0,-0.02,-0.13,0.0,i
3451.0,891.0,2881.0,3366.0,2607.0,2597.0,2774.0,4095.0,-1.85,9.61,3.82,0.02,0.0,-0.14,0.0,i
3462.0,899.0,2870.0,3363.0,2606.0,2592.0,2769.0,4095.0,-1.96,9.67,3.71,0.01,0.0,-0.19,0.0,i
3468.0,886.0,2880.0,3375.0,2614.0,2591.0,2758.0,4095.0,-2.21,9.6,3.65,0.06,0.01,-0.19,0.0,i
3466.0,883.0,2879.0,3369.0,2606.0,2591.0,2770.0,4095.0,-2.16,9.65,3.59,-0.01,0.01,-0.17,0.0,i
3463.0,882.0,2886.0,3377.0,2613.0,2604.0,2778.0,4095.0,-2.19,9.61,3.88,0.03,0.04,-0.13,0.0,i
3463.0,890.0,2878.0,3364.0,2608.0,2593.0,2778.0,4095.0,-1.97,9.62,3.59,-0.0,-0.01,-0.15,0.0,i
3472.0,888.0,2874.0,3375.0,2606.0,2593.0,2771.0,4095.0,-1.98,9.56,3.69,0.02,0.06,-0.16,0.0,i
3183.0,951.0,2880.0,3599.0,2365.0,2418.0,2665.0,4095.0,-1.37,9.84,3.18,-0.3,-0.1,-0.15,0.0,i
3183.0,951.0,2880.0,3599.0,2365.0,2418.0,2665.0,4095.0,-1.37,9.84,3.18,-0.3,-0.1,-0.15,0.0,i
3199.0,951.0,2894.0,3642.0,2366.0,2427.0,2672.0,4095.0,-1.44,9.64,3.51,-0.26,-0.09,-0.19,0.0,i
3194.0,949.0,2875.0,3642.0,2368.0,2416.0,2672.0,4095.0,-1.42,9.69,3.67,-0.16,-0.1,-0.12,0.0,i
3190.0,950.0,2875.0,3646.0,2368.0,2422.0,2673.0,4095.0,-1.24,9.72,3.61,-0.02,-0.05,-0.24,0.0,i
3184.0,955.0,2878.0,3653.0,2374.0,2429.0,2672.0,4095.0,-1.32,9.76,3.53,-0.0,-0.1,-0.16,0.0,i
3187.0,957.0,2879.0,3663.0,2381.0,2429.0,2686.0,4095.0,-1.31,9.66,3.66,0.0,-0.03,-0.26,0.0,i
3194.0,960.0,2879.0,3670.0,2384.0,2431.0,2695.0,4095.0,-1.49,9.84,3.42,0.07,-0.01,-0.2,0.0,i
3193.0,960.0,2880.0,3670.0,2389.0,2437.0,2703.0,4095.0,-1.58,9.77,3.31,0.04,0.0,-0.21,0.0,i
3191.0,962.0,2869.0,3664.0,2395.0,2416.0,2697.0,4095.0,-1.62,9.86,3.42,0.02,-0.02,-0.22,0.0,i
3198.0,957.0,2879.0,3664.0,2401.0,2422.0,2701.0,4095.0,-1.76,9.65,3.48,-0.02,-0.01,-0.21,0.0,i
3197.0,958.0,2880.0,3679.0,2402.0,2431.0,2697.0,4095.0,-1.71,9.78,3.41,0.03,-0.08,-0.22,0.0,i
3190.0,953.0,2883.0,3685.0,2401.0,2430.0,2698.0,4095.0,-1.86,9.71,3.76,-0.01,-0.02,-0.16,0.0,i
3186.0,960.0,2875.0,3680.0,2401.0,2430.0,2703.0,4095.0,-1.81,9.72,3.68,0.03,-0.06,-0.17,0.0,i
3183.0,955.0,2869.0,3693.0,2401.0,2432.0,2699.0,4095.0,-1.73,9.7,3.47,0.03,0.05,-0.14,0.0,i
3184.0,960.0,2875.0,3687.0,2409.0,2429.0,2703.0,4095.0,-1.68,9.66,3.32,0.02,-0.07,-0.15,0.0,i
3200.0,961.0,2876.0,3699.0,2410.0,2433.0,2702.0,4095.0,-1.73,9.67,3.4,0.05,-0.03,-0.16,0.0,i
3189.0,955.0,2879.0,3693.0,2406.0,2434.0,2704.0,4095.0,-1.78,9.71,3.34,0.04,-0.11,-0.14,0.0,i
3194.0,961.0,2874.0,3697.0,2412.0,2435.0,2707.0,4095.0,-1.57,9.66,3.31,0.03,-0.07,-0.17,0.0,i
3185.0,960.0,2882.0,3697.0,2397.0,2430.0,2704.0,4095.0,-1.89,9.77,3.52,-0.0,-0.1,-0.14,0.0,i
3196.0,910.0,2885.0,3376.0,2435.0,2519.0,2792.0,4095.0,-1.79,9.62,3.43,-0.01,0.1,-0.1,0.0,i
3195.0,907.0,2890.0,3387.0,2437.0,2524.0,2790.0,4095.0,-1.71,9.55,3.4,-0.0,0.08,-0.13,0.0,i
3195.0,914.0,2879.0,3391.0,2435.0,2527.0,2798.0,4095.0,-1.7,9.64,3.22,0.08,-0.04,-0.16,0.0,i
3195.0,911.0,2883.0,3388.0,2439.0,2528.0,2800.0,4095.0,-2.02,9.75,3.06,-0.02,0.01,-0.2,0.0,i
3197.0,903.0,2880.0,3381.0,2438.0,2525.0,2800.0,4095.0,-1.96,9.47,3.22,-0.0,0.04,-0.19,0.0,i
3196.0,906.0,2876.0,3391.0,2437.0,2515.0,2795.0,4095.0,-1.99,9.7,3.05,-0.01,-0.02,-0.15,0.0,i
3191.0,912.0,2874.0,3383.0,2434.0,2523.0,2801.0,4095.0,-1.98,9.53,3.18,0.0,0.0,-0.17,0.0,i
3189.0,907.0,2878.0,3383.0,2459.0,2521.0,2797.0,4095.0,-2.04,9.69,3.15,-0.04,-0.03,-0.14,0.0,i
3189.0,912.0,2878.0,3391.0,2439.0,2527.0,2804.0,4095.0,-1.92,9.65,3.25,-0.02,-0.03,-0.17,0.0,i
3191.0,904.0,2883.0,3391.0,2441.0,2527.0,2803.0,4095.0,-1.91,9.54,3.38,-0.05,-0.02,-0.13,0.0,i
3195.0,909.0,2883.0,3391.0,2442.0,2539.0,2802.0,4095.0,-1.86,9.67,3.35,0.05,-0.01,-0.17,0.0,i
3200.0,910.0,2879.0,3386.0,2435.0,2530.0,2802.0,4095.0,-1.98,9.56,3.2,-0.05,-0.03,-0.16,0.0,i
3197.0,912.0,2880.0,3386.0,2445.0,2528.0,2800.0,4095.0,-2.15,9.71,3.08,-0.01,-0.02,-0.16,0.0,i
3191.0,908.0,2879.0,3392.0,2447.0,2531.0,2803.0,4095.0,-1.83,9.53,3.23,-0.13,-0.02,-0.1,0.0,i
3193.0,912.0,2869.0,3392.0,2443.0,2534.0,2806.0,4095.0,-1.85,9.91,3.63,0.04,-0.01,-0.12,0.0,i
3196.0,912.0,2865.0,3398.0,2451.0,2539.0,2807.0,4095.0,-1.7,9.54,3.55,-0.09,-0.0,-0.13,0.0,i
3186.0,909.0,2876.0,3387.0,2436.0,2525.0,2801.0,4095.0,-1.79,9.66,3.58,0.06,0.0,-0.15,0.0,i
3199.0,913.0,2867.0,3394.0,2439.0,2534.0,2803.0,4095.0,-1.81,9.59,3.36,-0.07,-0.0,-0.18,0.0,i
3200.0,907.0,2878.0,3403.0,2447.0,2535.0,2806.0,4095.0,-2.02,9.7,3.45,0.05,-0.01,-0.15,0.0,i
3201.0,907.0,2875.0,3394.0,2436.0,2533.0,2803.0,4095.0,-2.02,9.65,3.41,-0.1,-0.04,-0.16,0.0,i
3202.0,883.0,2882.0,3681.0,2446.0,2433.0,2701.0,4095.0,-1.46,9.81,3.25,0.02,-0.01,-0.17,0.0,i
3202.0,891.0,2881.0,3676.0,2450.0,2433.0,2701.0,4095.0,-1.51,9.76,3.17,-0.02,-0.01,-0.13,0.0,i
3195.0,892.0,2875.0,3680.0,2447.0,2429.0,2699.0,4095.0,-1.17,9.75,3.21,-0.05,-0.02,-0.18,0.0,i
3202.0,891.0,2875.0,3667.0,2448.0,2437.0,2704.0,4095.0,-1.31,9.65,3.76,-0.07,-0.06,-0.19,0.0,i
3216.0,883.0,2886.0,3677.0,2441.0,2435.0,2703.0,4095.0,-1.32,9.66,4.13,-0.11,-0.11,-0.21,0.0,i
3211.0,885.0,2882.0,3686.0,2452.0,2433.0,2702.0,4095.0,-1.54,9.79,4.13,0.01,-0.07,-0.21,0.0,i
3198.0,882.0,2878.0,3668.0,2448.0,2428.0,2697.0,4095.0,-1.56,9.68,3.98,0.04,-0.03,-0.2,0.0,i
3199.0,888.0,2882.0,3679.0,2449.0,2434.0,2706.0,4095.0,-1.69,9.83,3.65,0.1,0.01,-0.21,0.0,i
3201.0,891.0,2876.0,3677.0,2449.0,2433.0,2700.0,4095.0,-1.58,9.86,3.41,0.07,0.05,-0.16,0.0,i
3213.0,886.0,2880.0,3679.0,2448.0,2433.0,2703.0,4095.0,-1.42,9.79,3.49,0.07,0.01,-0.12,0.0,i
3205.0,887.0,2880.0,3676.0,2448.0,2437.0,2699.0,4095.0,-1.38,9.88,3.08,0.02,-0.0,-0.07,0.0,i
3201.0,890.0,2875.0,3679.0,2451.0,2435.0,2698.0,4095.0,-1.23,9.97,2.86,0.01,-0.27,-0.04,0.0,i
3201.0,880.0,2881.0,3669.0,2448.0,2434.0,2701.0,4095.0,-0.79,9.63,3.03,-0.1,-0.25,-0.12,0.0,i
3207.0,893.0,2883.0,3681.0,2455.0,2438.0,2705.0,4095.0,-1.36,9.68,4.63,-0.15,-0.04,-0.16,0.0,i
3206.0,886.0,2880.0,3685.0,2451.0,2441.0,2704.0,4095.0,-1.64,9.64,4.98,-0.0,-0.2,-0.2,0.0,i
3202.0,880.0,2891.0,3690.0,2450.0,2447.0,2705.0,4095.0,-1.92,9.65,4.32,0.15,0.16,-0.22,0.0,i
3206.0,892.0,2880.0,3675.0,2449.0,2434.0,2703.0,4095.0,-1.85,9.73,3.57,0.19,0.13,-0.19,0.0,i
3202.0,882.0,2883.0,3679.0,2450.0,2438.0,2705.0,4095.0,-1.75,9.81,2.98,0.13,0.11,-0.12,0.0,i
3206.0,882.0,2885.0,3685.0,2461.0,2439.0,2705.0,4095.0,-1.53,9.79,3.3,-0.0,0.1,-0.04,0.0,i
3215.0,891.0,2885.0,3678.0,2458.0,2442.0,2705.0,4095.0,-0.94,9.82,3.5,-0.02,0.12,-0.07,0.0,i
3194.0,880.0,2896.0,3559.0,2541.0,2512.0,2801.0,4095.0,-1.24,9.55,3.67,0.06,0.07,-0.21,0.0,i
3177.0,879.0,2894.0,3583.0,2533.0,2505.0,2806.0,4095.0,-1.62,10.03,3.4,0.05,-0.02,-0.3,0.0,i
3186.0,880.0,2896.0,3624.0,2535.0,2513.0,2815.0,4095.0,-1.47,9.43,3.68,0.0,-0.05,-0.2,0.0,i
3185.0,882.0,2883.0,3649.0,2529.0,2508.0,2809.0,4018.0,-1.79,9.92,3.53,0.13,0.14,-0.04,0.0,i
3185.0,890.0,2887.0,3683.0,2515.0,2503.0,2818.0,3898.0,-1.12,9.68,3.3,-0.08,-0.09,-0.14,0.0,i
3194.0,896.0,2894.0,3683.0,2537.0,2509.0,2814.0,3920.0,-1.35,9.91,3.47,0.0,0.04,-0.11,0.0,i
3194.0,896.0,2890.0,3690.0,2544.0,2511.0,2818.0,3955.0,-1.23,9.67,3.67,0.03,-0.06,-0.18,0.0,i
3183.0,891.0,2891.0,3681.0,2534.0,2530.0,2819.0,3969.0,-1.24,9.84,3.38,-0.0,0.02,-0.19,0.0,i
3184.0,890.0,2890.0,3677.0,2541.0,2511.0,2815.0,4065.0,-1.51,9.75,3.6,0.03,0.03,-0.15,0.0,i
3200.0,898.0,2894.0,3676.0,2559.0,2510.0,2827.0,4095.0,-1.46,9.73,3.41,0.01,0.01,-0.16,0.0,i
3184.0,887.0,2883.0,3654.0,2559.0,2507.0,2827.0,4095.0,-1.5,9.83,3.47,0.04,-0.04,-0.16,0.0,i
3208.0,894.0,2880.0,3651.0,2559.0,2514.0,2834.0,4095.0,-1.35,9.63,3.48,-0.07,-0.07,-0.18,0.0,i
3200.0,893.0,2893.0,3648.0,2559.0,2523.0,2841.0,4095.0,-1.38,9.73,3.68,0.02,-0.03,-0.15,0.0,i
3191.0,896.0,2887.0,3632.0,2559.0,2515.0,2834.0,4095.0,-1.29,9.71,3.58,-0.01,0.02,-0.19,0.0,i
3194.0,885.0,2880.0,3637.0,2587.0,2519.0,2844.0,4095.0,-1.55,9.89,3.63,0.07,0.02,-0.17,0.0,i
3199.0,892.0,2886.0,3632.0,2559.0,2514.0,2836.0,4095.0,-1.37,9.62,3.52,-0.03,-0.02,-0.17,0.0,i
3190.0,890.0,2891.0,3626.0,2583.0,2512.0,2842.0,4095.0,-1.57,9.82,3.67,0.04,0.0,-0.18,0.0,i
3203.0,894.0,2882.0,3613.0,2586.0,2523.0,2837.0,4095.0,-1.45,9.71,3.51,0.0,0.0,-0.16,0.0,i
3202.0,894.0,2887.0,3633.0,2559.0,2522.0,2832.0,4095.0,-1.52,9.8,3.48,0.03,-0.04,-0.15,0.0,i
3189.0,889.0,2885.0,3637.0,2583.0,2515.0,2833.0,4095.0,-1.53,9.65,3.46,0.0,0.05,-0.15,0.0,i
4095.0,945.0,2864.0,3819.0,2737.0,2542.0,2829.0,4095.0,-1.18,9.6,3.5,0.15,0.05,-0.27,0.0,i
4095.0,934.0,2875.0,4095.0,2659.0,2511.0,2802.0,4095.0,-1.21,9.79,2.43,0.29,0.56,-0.24,0.0,i
4095.0,934.0,2869.0,4095.0,2657.0,2519.0,2807.0,4095.0,-1.36,9.76,2.93,0.09,0.12,-0.24,0.0,i
4095.0,939.0,2868.0,3696.0,2651.0,2525.0,2810.0,4095.0,-1.86,9.82,2.75,0.14,-0.01,-0.08,0.0,i
4095.0,935.0,2879.0,3503.0,2640.0,2525.0,2823.0,4095.0,-1.23,9.65,3.0,-0.09,-0.18,-0.18,0.0,i
4095.0,929.0,2871.0,3481.0,2617.0,2521.0,2815.0,4095.0,-1.39,9.67,3.19,-0.0,0.04,-0.2,0.0,i
4095.0,931.0,2868.0,3455.0,2619.0,2517.0,2826.0,4095.0,-1.47,9.74,3.08,-0.1,-0.12,-0.16,0.0,i
4095.0,942.0,2865.0,3482.0,2627.0,2523.0,2827.0,4095.0,-1.58,9.71,3.28,0.07,0.05,-0.24,0.0,i
4095.0,936.0,2864.0,3503.0,2632.0,2523.0,2825.0,4095.0,-1.76,9.76,3.02,-0.04,-0.03,-0.18,0.0,i
4095.0,941.0,2866.0,3517.0,2638.0,2526.0,2830.0,4095.0,-1.6,9.84,3.12,0.06,0.01,-0.12,0.0,i
4095.0,933.0,2871.0,3536.0,2643.0,2517.0,2830.0,4095.0,-1.58,9.63,3.06,-0.04,-0.02,-0.13,0.0,i
4095.0,938.0,2871.0,3534.0,2645.0,2529.0,2830.0,4095.0,-1.76,9.8,3.07,0.04,-0.1,-0.11,0.0,i
4095.0,934.0,2874.0,3537.0,2653.0,2535.0,2830.0,4095.0,-1.97,9.6,3.28,0.01,-0.42,-0.04,0.0,i
4095.0,931.0,2878.0,3539.0,2646.0,2537.0,2830.0,4095.0,-0.39,9.73,2.65,0.05,-0.34,-0.11,0.0,i
4095.0,930.0,2881.0,3552.0,2649.0,2535.0,2832.0,4095.0,-1.95,9.64,3.38,-0.05,-0.01,-0.15,0.0,i
4095.0,933.0,2875.0,3549.0,2651.0,2535.0,2832.0,4095.0,-1.26,9.74,3.12,-0.01,0.1,-0.13,0.0,i
4095.0,935.0,2877.0,3547.0,2654.0,2535.0,2834.0,4095.0,-1.37,9.63,3.3,-0.01,0.07,-0.17,0.0,i
4095.0,941.0,2874.0,3555.0,2653.0,2541.0,2829.0,4095.0,-1.38,9.75,3.05,-0.01,0.09,-0.17,0.0,i
4095.0,934.0,2871.0,3583.0,2642.0,2533.0,2832.0,4095.0,-1.72,9.68,3.47,-0.01,-0.0,-0.17,0.0,i
4095.0,933.0,2873.0,3563.0,2656.0,2523.0,2831.0,4095.0,-1.28,9.69,3.32,0.02,0.03,-0.18,0.0,i
4095.0,917.0,2879.0,3607.0,2415.0,2423.0,2765.0,4095.0,-1.89,9.66,3.9,0.05,0.14,-0.18,0.0,i
4095.0,916.0,2869.0,3610.0,2423.0,2423.0,2750.0,4095.0,-2.13,9.66,3.85,0.09,0.09,-0.18,0.0,i
4095.0,912.0,2879.0,3598.0,2430.0,2430.0,2757.0,4095.0,-1.94,9.58,3.51,0.07,0.07,-0.19,0.0,i
4095.0,919.0,2874.0,3583.0,2435.0,2426.0,2768.0,4095.0,-2.17,9.71,3.43,0.09,0.06,-0.19,0.0,i
4095.0,912.0,2875.0,3623.0,2439.0,2430.0,2769.0,4095.0,-2.18,9.61,3.53,-0.01,0.03,-0.16,0.0,i
4095.0,913.0,2883.0,3611.0,2437.0,2431.0,2765.0,4095.0,-2.16,9.64,3.71,0.02,0.03,-0.12,0.0,i
4095.0,913.0,2870.0,3619.0,2425.0,2435.0,2768.0,4095.0,-1.92,9.65,3.63,-0.01,0.03,-0.13,0.0,i
4095.0,911.0,2874.0,3617.0,2439.0,2431.0,2770.0,4095.0,-1.85,9.76,3.45,0.06,-0.02,-0.15,0.0,i
4095.0,914.0,2878.0,3625.0,2448.0,2431.0,2772.0,4095.0,-1.97,9.49,3.57,-0.04,0.11,-0.16,0.0,i
4095.0,920.0,2871.0,3619.0,2442.0,2429.0,2768.0,4095.0,-1.96,9.73,3.51,0.04,0.1,-0.15,0.0,i
4095.0,918.0,2881.0,3623.0,2443.0,2439.0,2773.0,4095.0,-1.93,9.6,3.65,-0.05,0.05,-0.12,0.0,i
4095.0,914.0,2866.0,3616.0,2439.0,2439.0,2775.0,4095.0,-1.93,9.7,3.78,-0.0,-0.03,-0.12,0.0,i
4095.0,917.0,2870.0,3632.0,2448.0,2443.0,2781.0,4095.0,-1.67,9.64,3.61,0.01,-0.03,-0.16,0.0,i
4095.0,911.0,2875.0,3641.0,2448.0,2441.0,2782.0,4095.0,-2.0,9.72,3.7,0.0,0.01,-0.15,0.0,i
4095.0,912.0,2874.0,3633.0,2445.0,2443.0,2779.0,4095.0,-1.94,9.63,3.72,-0.02,0.02,-0.15,0.0,i
4095.0,914.0,2865.0,3621.0,2447.0,2441.0,2781.0,4095.0,-1.92,9.77,3.71,0.04,-0.0,-0.15,0.0,i
4095.0,908.0,2877.0,3631.0,2453.0,2443.0,2782.0,4095.0,-1.97,9.63,3.73,-0.01,0.03,-0.19,0.0,i
4095.0,917.0,2877.0,3633.0,2451.0,2437.0,2785.0,4095.0,-2.05,9.69,3.66,0.07,-0.01,-0.17,0.0,i
4095.0,912.0,2864.0,3634.0,2453.0,2444.0,2784.0,4095.0,-2.05,9.58,3.52,0.01,0.05,-0.18,0.0,i
4095.0,914.0,2875.0,3654.0,2451.0,2444.0,2791.0,4095.0,-2.11,9.71,3.62,0.04,0.03,-0.12,0.0,i
3709.0,918.0,2869.0,3644.0,2551.0,2356.0,2618.0,4095.0,-1.4,9.77,3.69,-0.01,-0.02,-0.17,0.0,i
3703.0,917.0,2880.0,3675.0,2546.0,2358.0,2614.0,4095.0,-1.45,9.85,3.85,0.02,0.02,-0.16,0.0,i
3711.0,921.0,2884.0,3663.0,2556.0,2365.0,2621.0,4095.0,-1.22,9.69,3.8,-0.01,-0.01,-0.16,0.0,i
3721.0,912.0,2876.0,3674.0,2558.0,2363.0,2624.0,4095.0,-1.28,9.82,3.75,0.01,0.05,-0.17,0.0,i
3716.0,918.0,2885.0,3674.0,2557.0,2362.0,2629.0,4095.0,-1.39,9.73,3.8,0.0,0.11,-0.18,0.0,i
3702.0,919.0,2882.0,3667.0,2555.0,2363.0,2624.0,4095.0,-1.48,9.75,3.83,0.03,0.0,-0.17,0.0,i
3712.0,919.0,2879.0,3692.0,2555.0,2368.0,2621.0,4095.0,-1.34,9.8,3.66,0.02,-0.0,-0.13,0.0,i
3723.0,921.0,2895.0,3683.0,2555.0,2373.0,2624.0,4095.0,-1.34,9.75,3.7,-0.02,0.03,-0.14,0.0,i
3716.0,914.0,2877.0,3678.0,2553.0,2369.0,2624.0,4095.0,-1.23,9.88,3.68,-0.04,0.07,-0.16,0.0,i
3723.0,922.0,2874.0,3677.0,2559.0,2367.0,2624.0,4095.0,-1.2,9.71,3.88,-0.03,0.04,-0.16,0.0,i
3715.0,926.0,2880.0,3687.0,2555.0,2369.0,2631.0,4095.0,-1.53,9.83,3.96,-0.02,0.06,-0.17,0.0,i
3726.0,923.0,2879.0,3696.0,2553.0,2368.0,2629.0,4095.0,-1.38,9.73,3.83,0.01,0.05,-0.16,0.0,i
3703.0,925.0,2879.0,3675.0,2554.0,2366.0,2625.0,4095.0,-1.4,9.86,3.61,-0.04,0.03,-0.11,0.0,i
3727.0,912.0,2880.0,3698.0,2558.0,2370.0,2628.0,4095.0,-1.47,9.82,3.89,-0.13,-0.13,-0.03,0.0,i
3706.0,919.0,2877.0,3691.0,2549.0,2368.0,2651.0,4095.0,-1.13,9.82,3.99,-0.07,0.05,-0.17,0.0,i
3713.0,919.0,2878.0,3696.0,2553.0,2368.0,2629.0,4095.0,-1.47,9.69,4.26,-0.04,0.02,-0.2,0.0,i
3728.0,911.0,2880.0,3700.0,2559.0,2368.0,2634.0,4095.0,-1.49,9.88,4.09,0.04,0.06,-0.18,0.0,i
3696.0,919.0,2873.0,3699.0,2559.0,2368.0,2633.0,4095.0,-1.37,9.73,4.29,-0.0,0.04,-0.13,0.0,i
3703.0,913.0,2871.0,3699.0,2553.0,2378.0,2627.0,4095.0,-1.17,9.73,4.16,-0.02,0.09,-0.17,0.0,i
3711.0,913.0,2881.0,3716.0,2559.0,2379.0,2630.0,4095.0,-1.45,9.73,4.11,0.08,0.1,-0.17,0.0,i
3735.0,881.0,2896.0,3509.0,2505.0,2524.0,2791.0,4095.0,-1.24,9.56,4.2,-0.05,0.08,-0.12,0.0,i
3733.0,877.0,2899.0,3530.0,2512.0,2527.0,2797.0,4095.0,-1.27,9.88,4.07,0.01,0.14,-0.21,0.0,i
3719.0,878.0,2889.0,3546.0,2517.0,2531.0,2798.0,4095.0,-1.44,9.66,4.13,-0.01,-0.01,-0.2,0.0,i
3728.0,881.0,2896.0,3546.0,2517.0,2523.0,2794.0,4095.0,-1.61,9.84,4.02,-0.03,-0.04,-0.17,0.0,i
3726.0,880.0,2890.0,3536.0,2513.0,2526.0,2798.0,4095.0,-1.55,9.56,4.28,-0.04,-0.11,-0.15,0.0,i
3726.0,889.0,2896.0,3545.0,2517.0,2529.0,2788.0,4095.0,-1.64,9.85,4.59,-0.0,0.08,-0.15,0.0,i
3715.0,881.0,2896.0,3536.0,2519.0,2527.0,2797.0,4095.0,-1.45,9.61,4.61,0.01,-0.09,-0.11,0.0,i
3725.0,883.0,2896.0,3549.0,2517.0,2519.0,2796.0,4095.0,-1.32,9.82,4.53,0.18,-0.28,-0.19,0.0,i
3691.0,880.0,2895.0,3550.0,2517.0,2523.0,2797.0,4095.0,-1.18,9.78,3.68,0.12,-0.07,-0.19,0.0,i
3711.0,887.0,2897.0,3567.0,2524.0,2528.0,2800.0,4095.0,-1.23,9.91,3.84,0.02,-0.04,-0.2,0.0,i
3713.0,877.0,2896.0,3573.0,2525.0,2530.0,2799.0,4095.0,-1.34,9.75,4.22,0.02,0.14,-0.14,0.0,i
3710.0,880.0,2894.0,3579.0,2526.0,2522.0,2807.0,4095.0,-1.37,9.85,4.26,0.05,-0.04,-0.12,0.0,i
3702.0,895.0,2889.0,3583.0,2531.0,2521.0,2806.0,4095.0,-1.27,9.67,4.28,-0.03,0.08,-0.16,0.0,i
3710.0,881.0,2893.0,3574.0,2531.0,2518.0,2809.0,4095.0,-1.45,9.8,4.29,-0.03,0.05,-0.14,0.0,i
3701.0,880.0,2896.0,3569.0,2531.0,2526.0,2798.0,4095.0,-1.09,9.76,4.33,0.0,0.06,-0.14,0.0,i
3695.0,886.0,2894.0,3581.0,2529.0,2526.0,2802.0,4095.0,-1.28,9.88,4.25,0.02,0.01,-0.16,0.0,i
3698.0,882.0,2895.0,3583.0,2534.0,2533.0,2807.0,4095.0,-1.25,9.65,4.24,0.0,0.08,-0.21,0.0,i
3709.0,883.0,2896.0,3579.0,2542.0,2530.0,2807.0,4095.0,-1.77,9.79,4.07,0.08,0.1,-0.23,0.0,i
3705.0,885.0,2883.0,3581.0,2531.0,2528.0,2802.0,4095.0,-1.62,9.73,3.82,0.0,0.01,-0.2,0.0,i
3697.0,880.0,2883.0,3564.0,2543.0,2529.0,2805.0,4095.0,-1.83,9.74,4.17,0.06,0.03,-0.19,0.0,i
3747.0,887.0,2882.0,3761.0,2489.0,2502.0,2763.0,4095.0,-2.31,9.89,3.38,0.02,-0.02,-0.17,0.0,i
3757.0,895.0,2877.0,3747.0,2486.0,2510.0,2768.0,4095.0,-2.3,9.76,3.36,0.06,-0.0,-0.16,0.0,i
3754.0,890.0,2883.0,3754.0,2485.0,2506.0,2768.0,4095.0,-1.95,9.68,3.08,0.03,-0.01,-0.14,0.0,i
3756.0,883.0,2880.0,3744.0,2486.0,2506.0,2768.0,4095.0,-2.01,9.45,3.64,-0.02,-0.01,-0.09,0.0,i
3756.0,887.0,2880.0,3761.0,2481.0,2501.0,2767.0,4095.0,-2.16,9.71,3.75,0.01,-0.07,-0.07,0.0,i
3751.0,896.0,2879.0,3761.0,2483.0,2502.0,2765.0,4095.0,-1.68,9.5,3.74,-0.05,-0.02,-0.07,0.0,i
3730.0,889.0,2877.0,3739.0,2485.0,2505.0,2770.0,4095.0,-1.58,9.61,4.12,-0.03,0.2,-0.15,0.0,i
3755.0,880.0,2871.0,3757.0,2483.0,2496.0,2767.0,4095.0,-2.08,9.51,3.74,0.11,-0.03,-0.17,0.0,i
3745.0,890.0,2877.0,3741.0,2485.0,2502.0,2765.0,4095.0,-2.1,9.41,2.92,0.15,-0.1,-0.3,0.0,i
3749.0,890.0,2871.0,3711.0,2480.0,2503.0,2767.0,4095.0,-2.69,9.78,2.64,0.07,-0.12,-0.15,0.0,i
3766.0,891.0,2881.0,3723.0,2484.0,2514.0,2768.0,4095.0,-2.42,9.56,3.17,-0.17,-0.02,-0.06,0.0,i
3748.0,891.0,2875.0,3728.0,2476.0,2503.0,2768.0,4095.0,-2.53,10.3,3.21,-0.39,-0.25,0.2,0.0,i
3745.0,886.0,2874.0,3740.0,2483.0,2505.0,2768.0,4095.0,-0.92,9.3,3.76,-0.65,-0.08,0.09,0.0,i
3770.0,885.0,2883.0,3729.0,2486.0,2508.0,2772.0,4095.0,-1.59,10.04,4.78,-0.23,-0.22,0.14,0.0,i
3759.0,887.0,2880.0,3728.0,2495.0,2503.0,2779.0,4095.0,0.67,9.8,4.68,-0.22,-0.35,0.01,0.0,i
3759.0,884.0,2880.0,3712.0,2491.0,2505.0,2775.0,4095.0,-0.31,9.49,5.39,0.06,0.03,-0.25,0.0,i
3761.0,894.0,2880.0,3696.0,2487.0,2525.0,2778.0,4095.0,-0.43,10.1,5.09,-0.01,0.11,-0.43,0.0,i
3758.0,886.0,2881.0,3709.0,2489.0,2503.0,2779.0,4095.0,-2.45,9.65,5.06,0.21,0.23,-0.41,0.0,i
3777.0,887.0,2877.0,3711.0,2491.0,2522.0,2778.0,4095.0,-1.75,9.48,2.98,0.32,-0.14,-0.48,0.0,i
3795.0,893.0,2877.0,3704.0,2502.0,2531.0,2779.0,4095.0,-2.6,9.22,3.79,0.3,0.12,-0.51,0.0,i
3730.0,891.0,2883.0,3763.0,2515.0,2512.0,2797.0,4095.0,-1.44,9.74,3.19,0.08,0.04,-0.16,0.0,i
3738.0,890.0,2882.0,3779.0,2523.0,2519.0,2783.0,4095.0,-1.6,9.68,2.8,0.16,-0.01,-0.16,0.0,i
3738.0,883.0,2880.0,3776.0,2522.0,2521.0,2795.0,4095.0,-1.54,9.76,2.5,0.18,-0.07,-0.19,0.0,i
3754.0,893.0,2881.0,3762.0,2521.0,2524.0,2795.0,4095.0,-1.41,9.76,2.33,0.19,-0.12,-0.19,0.0,i
3734.0,891.0,2882.0,3763.0,2522.0,2527.0,2793.0,4095.0,-1.06,9.65,2.25,0.1,-0.07,-0.17,0.0,i
3744.0,894.0,2883.0,3762.0,2518.0,2514.0,2793.0,4095.0,-1.27,9.63,2.39,0.03,0.01,-0.23,0.0,i
3741.0,894.0,2886.0,3751.0,2523.0,2516.0,2794.0,4095.0,-1.87,9.63,2.52,0.02,0.0,-0.21,0.0,i
3745.0,898.0,2880.0,3781.0,2513.0,2522.0,2796.0,4095.0,-2.02,9.56,2.66,0.0,0.06,-0.15,0.0,i
3743.0,894.0,2887.0,3772.0,2521.0,2522.0,2799.0,4095.0,-2.22,9.33,3.13,0.07,0.16,-0.13,0.0,i
3747.0,896.0,2890.0,3775.0,2520.0,2544.0,2791.0,4095.0,-1.72,9.59,2.71,0.17,0.07,-0.11,0.0,i
3745.0,887.0,2880.0,3765.0,2515.0,2524.0,2794.0,4095.0,-1.54,9.71,2.06,0.13,0.03,-0.09,0.0,i
3735.0,895.0,2894.0,3760.0,2514.0,2531.0,2799.0,4095.0,-1.34,9.66,1.96,-0.0,0.06,-0.08,0.0,i
3728.0,886.0,2881.0,3765.0,2515.0,2523.0,2795.0,4095.0,-1.13,9.69,2.38,-0.07,-0.04,-0.05,0.0,i
3737.0,886.0,2875.0,3760.0,2513.0,2523.0,2797.0,4095.0,-0.96,9.5,2.86,-0.06,-0.1,-0.1,0.0,i
3751.0,883.0,2881.0,3791.0,2518.0,2527.0,2801.0,4095.0,-1.58,9.67,2.81,0.06,-0.15,-0.17,0.0,i
3739.0,887.0,2874.0,3782.0,2525.0,2523.0,2801.0,4095.0,-1.63,9.68,2.67,0.13,-0.09,-0.12,0.0,i
3733.0,890.0,2881.0,3787.0,2513.0,2527.0,2804.0,4095.0,-1.49,9.46,2.58,0.09,0.01,-0.06,0.0,i
3734.0,883.0,2871.0,3769.0,2512.0,2525.0,2799.0,4095.0,-1.42,9.76,2.24,0.12,0.05,-0.12,0.0,i
3735.0,880.0,2881.0,3778.0,2514.0,2522.0,2806.0,4095.0,-1.25,9.53,2.04,0.14,0.12,-0.1,0.0,i
3729.0,884.0,2878.0,3775.0,2517.0,2541.0,2800.0,4095.0,-0.84,9.77,1.75,0.09,0.07,-0.09,0.0,i
3533.0,889.0,2905.0,3393.0,2672.0,2527.0,2800.0,3991.0,-1.6,9.88,2.85,-0.13,0.02,-0.11,0.0,i
3504.0,892.0,2896.0,3391.0,2678.0,2521.0,2795.0,3983.0,-0.92,9.54,2.68,-0.23,-0.03,-0.17,0.0,i
3486.0,897.0,2895.0,3408.0,2657.0,2519.0,2800.0,4019.0,-1.23,9.8,2.83,-0.11,0.08,-0.11,0.0,i
3478.0,896.0,2903.0,3423.0,2663.0,2525.0,2800.0,4039.0,-1.04,9.42,3.22,-0.13,0.03,-0.21,0.0,i
3478.0,884.0,2895.0,3430.0,2670.0,2522.0,2801.0,4048.0,-0.96,9.8,2.9,0.02,0.03,-0.15,0.0,i
3467.0,895.0,2896.0,3429.0,2667.0,2523.0,2800.0,4045.0,-1.09,9.76,3.02,-0.01,0.08,-0.18,0.0,i
3479.0,883.0,2895.0,3429.0,2672.0,2526.0,2803.0,4069.0,-1.25,9.73,3.04,-0.01,0.08,-0.17,0.0,i
3483.0,899.0,2895.0,3433.0,2673.0,2530.0,2807.0,4067.0,-1.3,9.76,2.95,0.09,0.04,-0.16,0.0,i
3473.0,883.0,2891.0,3440.0,2671.0,2523.0,2801.0,4046.0,-1.14,9.7,2.93,0.01,0.04,-0.16,0.0,i
3476.0,889.0,2902.0,3472.0,2669.0,2538.0,2811.0,4062.0,-1.16,9.8,2.94,0.06,-0.01,-0.15,0.0,i
3491.0,881.0,2897.0,3490.0,2670.0,2545.0,2815.0,4042.0,-0.98,9.71,2.8,0.07,0.1,-0.18,0.0,i
3497.0,880.0,2896.0,3525.0,2679.0,2549.0,2823.0,4044.0,-1.18,9.71,2.92,-0.04,0.06,-0.22,0.0,i
3495.0,889.0,2896.0,3529.0,2688.0,2546.0,2826.0,4059.0,-1.32,9.83,2.89,0.0,-0.0,-0.15,0.0,i
3486.0,887.0,2897.0,3541.0,2681.0,2551.0,2814.0,4047.0,-1.22,9.55,2.77,-0.1,0.06,-0.17,0.0,i
3488.0,895.0,2896.0,3547.0,2689.0,2555.0,2825.0,4065.0,-1.5,9.84,2.74,-0.06,0.05,-0.11,0.0,i
3498.0,883.0,2898.0,3534.0,2688.0,2557.0,2829.0,4061.0,-1.23,9.64,3.0,-0.06,0.1,-0.14,0.0,i
3484.0,889.0,2896.0,3536.0,2688.0,2551.0,2823.0,4061.0,-1.24,9.84,2.99,-0.0,0.05,-0.14,0.0,i
3472.0,894.0,2891.0,3547.0,2691.0,2547.0,2820.0,4059.0,-1.1,9.71,3.05,-0.08,0.02,-0.16,0.0,i
3490.0,903.0,2898.0,3552.0,2701.0,2548.0,2818.0,4077.0,-1.28,9.84,3.19,-0.01,-0.02,-0.13,0.0,i
3475.0,899.0,2905.0,3549.0,2704.0,2545.0,2821.0,4079.0,-1.15,9.56,3.27,-0.1,0.06,-0.15,0.0,i
3750.0,875.0,2877.0,3609.0,2555.0,2622.0,2841.0,4095.0,-1.47,9.53,2.85,0.02,0.05,-0.18,0.0,i
3738.0,880.0,2878.0,3600.0,2559.0,2614.0,2842.0,4095.0,-1.94,9.69,2.88,0.11,0.05,-0.21,0.0,i
3733.0,879.0,2879.0,3572.0,2559.0,2626.0,2851.0,4095.0,-1.84,9.41,2.5,0.11,0.0,-0.22,0.0,i
3728.0,879.0,2882.0,3551.0,2559.0,2622.0,2851.0,4095.0,-1.91,9.48,2.15,0.13,0.06,-0.23,0.0,i
3746.0,882.0,2874.0,3562.0,2559.0,2620.0,2851.0,4095.0,-2.09,9.57,2.21,0.09,0.06,-0.15,0.0,i
3754.0,879.0,2880.0,3541.0,2559.0,2621.0,2855.0,4095.0,-1.98,9.5,2.14,0.06,0.02,-0.15,0.0,i
3750.0,880.0,2887.0,3559.0,2559.0,2624.0,2859.0,4095.0,-1.88,9.47,2.08,0.03,0.06,-0.14,0.0,i
3742.0,883.0,2874.0,3549.0,2559.0,2617.0,2851.0,4095.0,-1.9,9.49,2.1,-0.03,0.07,-0.14,0.0,i
3741.0,884.0,2889.0,3568.0,2559.0,2623.0,2854.0,4095.0,-1.99,9.48,2.43,0.02,0.04,-0.14,0.0,i
3753.0,881.0,2881.0,3568.0,2559.0,2626.0,2858.0,4095.0,-1.63,9.69,2.17,0.01,0.33,-0.19,0.0,i
3732.0,877.0,2877.0,3549.0,2559.0,2640.0,2837.0,4095.0,-1.82,9.46,2.45,-0.01,0.29,-0.14,0.0,i
3749.0,879.0,2885.0,3549.0,2559.0,2633.0,2861.0,4095.0,-1.44,9.61,2.36,0.02,0.3,-0.2,0.0,i
3751.0,875.0,2879.0,3547.0,2583.0,2619.0,2864.0,4095.0,-1.92,9.67,2.42,0.0,0.29,-0.14,0.0,i
3744.0,880.0,2883.0,3539.0,2559.0,2623.0,2858.0,4095.0,-1.3,9.37,2.23,0.03,-0.04,-0.12,0.0,i
3743.0,876.0,2885.0,3537.0,2559.0,2623.0,2850.0,4095.0,-2.18,9.43,2.21,0.08,0.0,-0.22,0.0,i
3753.0,882.0,2880.0,3546.0,2583.0,2608.0,2853.0,4095.0,-2.41,9.42,1.76,0.1,-0.09,-0.08,0.0,i
3755.0,877.0,2883.0,3565.0,2587.0,2631.0,2864.0,4095.0,-2.42,9.35,1.98,0.06,-0.42,0.01,0.0,i
3749.0,880.0,2883.0,3583.0,2589.0,2634.0,2874.0,4095.0,-1.43,9.8,1.8,0.09,-0.09,-0.02,0.0,i
3739.0,885.0,2875.0,3583.0,2589.0,2630.0,2863.0,4095.0,-1.1,9.57,2.07,-0.05,-0.12,-0.07,0.0,i
3757.0,882.0,2890.0,3578.0,2585.0,2636.0,2864.0,4095.0,-1.2,9.5,2.47,-0.01,0.0,-0.16,0.0,i
3757.0,885.0,2876.0,3616.0,2591.0,2647.0,2893.0,4095.0,-1.96,9.75,2.45,0.18,-0.14,-0.16,0.0,i
3767.0,880.0,2871.0,3619.0,2598.0,2642.0,2887.0,4095.0,-1.28,9.73,1.86,0.04,-0.21,-0.14,0.0,i
3755.0,892.0,2865.0,3632.0,2586.0,2635.0,2884.0,4095.0,-1.24,9.56,2.82,-0.04,-0.02,-0.18,0.0,i
3762.0,895.0,2873.0,3605.0,2592.0,2643.0,2889.0,4095.0,-1.23,9.6,3.69,-0.04,-0.09,-0.23,0.0,i
3754.0,893.0,2866.0,3609.0,2590.0,2644.0,2890.0,4095.0,-1.89,10.03,3.27,-0.12,-0.13,-0.21,0.0,i
3771.0,885.0,2875.0,3626.0,2589.0,2653.0,2894.0,4095.0,-1.59,9.48,2.82,-0.04,-0.01,-0.09,0.0,i
3773.0,882.0,2866.0,3613.0,2585.0,2645.0,2894.0,4095.0,-1.17,9.67,3.23,-0.08,0.09,-0.14,0.0,i
3760.0,893.0,2878.0,3630.0,2596.0,2648.0,2895.0,4095.0,-1.77,9.73,3.72,-0.11,-0.05,-0.26,0.0,i
3769.0,894.0,2871.0,3619.0,2593.0,2640.0,2896.0,4095.0,-1.9,9.78,2.63,0.08,-0.15,-0.15,0.0,i
3769.0,880.0,2874.0,3630.0,2591.0,2640.0,2886.0,4095.0,-1.29,9.48,2.61,-0.06,0.05,-0.13,0.0,i
3760.0,891.0,2875.0,3604.0,2588.0,2626.0,2879.0,4095.0,-1.57,9.84,3.32,-0.06,0.04,-0.15,0.0,i
3759.0,892.0,2875.0,3627.0,2589.0,2639.0,2887.0,4095.0,-1.57,9.89,3.35,-0.08,-0.15,-0.14,0.0,i
3778.0,894.0,2879.0,3631.0,2588.0,2640.0,2883.0,4095.0,-1.17,9.61,3.4,-0.0,-0.12,-0.12,0.0,i
3761.0,891.0,2866.0,3627.0,2559.0,2614.0,2878.0,4095.0,-1.18,9.78,3.52,-0.09,-0.11,-0.2,0.0,i
3778.0,897.0,2880.0,3649.0,2559.0,2608.0,2879.0,4095.0,-1.77,9.72,3.81,-0.22,-0.12,-0.15,0.0,i
3760.0,896.0,2866.0,3646.0,2559.0,2615.0,2885.0,4095.0,-1.36,9.66,3.47,0.02,-0.01,-0.11,0.0,i
3757.0,895.0,2878.0,3687.0,2559.0,2611.0,2879.0,4095.0,-1.33,9.66,3.72,0.01,0.07,-0.17,0.0,i
3755.0,895.0,2880.0,3650.0,2559.0,2613.0,2882.0,4095.0,-1.64,9.72,3.88,0.05,-0.02,-0.2,0.0,i
3773.0,901.0,2866.0,3647.0,2559.0,2611.0,2882.0,4095.0,-1.58,9.69,3.69,0.06,-0.01,-0.21,0.0,i
3770.0,898.0,2869.0,3658.0,2583.0,2625.0,2886.0,4095.0,-1.65,9.74,3.25,0.14,0.07,-0.18,0.0,i
