hall_1,hall_2,hall_3,flex_t,flex_i,flex_m,flex_r,flex_p,accel_x,accel_y,accel_z,gyro_x,gyro_y,gyro_z,hand,sign
3822.0,4095.0,2929.0,3199.0,2640.0,2462.0,2639.0,4095.0,-1.37,9.84,4.42,0.01,-0.03,-0.11,0.0,i
3817.0,4095.0,2939.0,3200.0,2625.0,2461.0,2631.0,4095.0,-1.43,9.88,4.51,0.0,0.02,-0.16,0.0,i
3797.0,4095.0,2946.0,3199.0,2640.0,2464.0,2635.0,4095.0,-1.4,9.76,4.44,0.05,0.0,-0.17,0.0,i
3793.0,4095.0,2932.0,3198.0,2645.0,2469.0,2630.0,4095.0,-1.49,9.78,4.34,0.02,0.01,-0.18,0.0,i
3823.0,4095.0,2941.0,3200.0,2640.0,2463.0,2640.0,4095.0,-1.5,9.73,4.33,0.02,0.0,-0.15,0.0,i
3792.0,4095.0,2939.0,3205.0,2644.0,2467.0,2638.0,4095.0,-1.47,9.66,4.34,-0.01,-0.0,-0.14,0.0,i
3792.0,4095.0,2931.0,3204.0,2640.0,2467.0,2641.0,4095.0,-1.39,9.71,4.58,-0.03,0.01,-0.14,0.0,i
3819.0,4095.0,2930.0,3212.0,2640.0,2463.0,2643.0,4095.0,-1.4,9.78,4.43,0.02,-0.03,-0.13,0.0,i
3824.0,4095.0,2939.0,3199.0,2647.0,2453.0,2639.0,4095.0,-1.33,9.78,4.49,0.01,0.0,-0.12,0.0,i
3813.0,4095.0,2947.0,3203.0,2647.0,2467.0,2640.0,4095.0,-1.27,9.75,4.47,-0.01,-0.02,-0.14,0.0,i
3812.0,4095.0,2928.0,3236.0,2640.0,2466.0,2641.0,4095.0,-1.36,9.82,4.56,0.01,-0.02,-0.13,0.0,i
3802.0,4095.0,2937.0,3209.0,2641.0,2477.0,2640.0,4095.0,-1.29,9.81,4.49,0.03,-0.01,-0.15,0.0,i
3820.0,4095.0,2947.0,3212.0,2657.0,2475.0,2646.0,4095.0,-1.43,9.75,4.56,0.02,0.01,-0.16,0.0,i
3803.0,4095.0,2947.0,3207.0,2649.0,2475.0,2651.0,4095.0,-1.3,9.7,4.43,0.01,0.0,-0.14,0.0,i
3792.0,4095.0,2935.0,3212.0,2657.0,2473.0,2645.0,4095.0,-1.31,9.79,4.53,0.02,0.02,-0.14,0.0,i
3797.0,4095.0,2933.0,3185.0,2657.0,2470.0,2650.0,4095.0,-1.16,9.76,4.4,0.02,0.0,-0.15,0.0,i
3814.0,4095.0,2928.0,3216.0,2663.0,2474.0,2639.0,4095.0,-1.33,9.82,4.43,0.01,-0.01,-0.16,0.0,i
3779.0,4095.0,2935.0,3217.0,2669.0,2476.0,2647.0,4095.0,-1.34,9.75,4.4,0.03,-0.01,-0.15,0.0,i
3804.0,4095.0,2935.0,3215.0,2667.0,2474.0,2646.0,4095.0,-1.33,9.79,4.43,0.0,-0.01,-0.14,0.0,i
3794.0,4095.0,2929.0,3216.0,2658.0,2475.0,2655.0,4095.0,-1.34,9.82,4.48,0.02,0.01,-0.16,0.0,i
3807.0,4095.0,2933.0,3202.0,2663.0,2478.0,2657.0,4095.0,-1.26,9.72,4.43,0.01,0.0,-0.16,0.0,i
3792.0,4095.0,2934.0,3214.0,2666.0,2474.0,2656.0,4095.0,-1.25,9.74,4.48,-0.01,-0.01,-0.14,0.0,i
3808.0,4095.0,2943.0,3227.0,2663.0,2478.0,2653.0,4095.0,-1.25,9.8,4.4,0.03,-0.01,-0.15,0.0,i
3824.0,4095.0,2929.0,3223.0,2669.0,2479.0,2655.0,4095.0,-1.32,9.82,4.37,0.04,-0.02,-0.16,0.0,i
3805.0,4095.0,2934.0,3219.0,2677.0,2478.0,2655.0,4095.0,-1.34,9.77,4.37,-0.0,-0.02,-0.16,0.0,i
3809.0,4095.0,2931.0,3223.0,2669.0,2486.0,2659.0,4095.0,-1.36,9.77,4.39,0.02,0.0,-0.16,0.0,i
3797.0,4095.0,2934.0,3215.0,2669.0,2479.0,2651.0,4095.0,-1.29,9.77,4.4,0.03,0.0,-0.15,0.0,i
3802.0,4095.0,2943.0,3216.0,2672.0,2480.0,2650.0,4095.0,-1.27,9.77,4.32,0.01,-0.01,-0.15,0.0,i
3798.0,4095.0,2939.0,3218.0,2675.0,2480.0,2658.0,4095.0,-1.25,9.78,4.36,0.01,-0.02,-0.14,0.0,i
3813.0,4095.0,2935.0,3217.0,2675.0,2490.0,2659.0,4095.0,-1.22,9.81,4.36,-0.01,0.04,-0.16,0.0,i
3817.0,4095.0,2929.0,3227.0,2641.0,2484.0,2655.0,4095.0,-1.3,9.82,4.43,0.04,0.0,-0.16,0.0,i
3807.0,4095.0,2921.0,3229.0,2675.0,2480.0,2637.0,4095.0,-1.21,9.78,4.32,0.02,-0.01,-0.16,0.0,i
3792.0,4095.0,2928.0,3221.0,2675.0,2478.0,2638.0,4095.0,-1.38,9.75,4.47,0.02,-0.01,-0.16,0.0,i
3785.0,4095.0,2928.0,3231.0,2689.0,2485.0,2662.0,4095.0,-1.24,9.74,4.42,0.02,0.01,-0.15,0.0,i
3819.0,4095.0,2940.0,3226.0,2681.0,2487.0,2672.0,4095.0,-1.34,9.8,4.27,0.02,0.0,-0.16,0.0,i
3792.0,4095.0,2938.0,3187.0,2676.0,2489.0,2667.0,4095.0,-1.33,9.73,4.57,-0.02,0.02,-0.14,0.0,i
3794.0,4095.0,2928.0,3238.0,2676.0,2496.0,2667.0,4095.0,-1.25,9.84,4.36,0.04,-0.0,-0.15,0.0,i
3799.0,4095.0,2933.0,3228.0,2687.0,2493.0,2661.0,4095.0,-1.37,9.77,4.38,-0.01,-0.0,-0.15,0.0,i
3799.0,4095.0,2935.0,3227.0,2678.0,2483.0,2657.0,4095.0,-1.31,9.8,4.49,0.03,0.0,-0.15,0.0,i
3808.0,4095.0,2938.0,3222.0,2641.0,2482.0,2662.0,4095.0,-1.28,9.78,4.38,0.04,0.01,-0.14,0.0,i
3813.0,4095.0,2927.0,3235.0,2685.0,2492.0,2669.0,4095.0,-1.3,9.75,4.46,0.01,0.02,-0.14,0.0,i
4095.0,3794.0,2938.0,2907.0,2320.0,2367.0,2559.0,4095.0,-1.4,9.85,4.46,0.02,0.01,-0.16,0.0,i
4095.0,3769.0,2925.0,2904.0,2320.0,2363.0,2589.0,4095.0,-1.3,9.81,4.46,0.01,0.0,-0.17,0.0,i
4095.0,3790.0,2941.0,2922.0,2322.0,2357.0,2586.0,4095.0,-1.46,9.72,4.47,-0.0,-0.01,-0.17,0.0,i
4095.0,3773.0,2941.0,2929.0,2326.0,2365.0,2587.0,4095.0,-1.36,9.77,4.45,0.03,-0.0,-0.16,0.0,i
4095.0,3758.0,2937.0,2931.0,2325.0,2370.0,2597.0,4095.0,-1.44,9.75,4.48,0.03,-0.02,-0.16,0.0,i
4095.0,3782.0,2944.0,2928.0,2339.0,2370.0,2602.0,4095.0,-1.36,9.79,4.41,0.03,-0.01,-0.16,0.0,i
4095.0,3781.0,2931.0,2938.0,2342.0,2366.0,2603.0,4095.0,-1.46,9.82,4.41,-0.01,-0.01,-0.16,0.0,i
4095.0,3760.0,2933.0,2939.0,2328.0,2374.0,2596.0,4095.0,-1.51,9.77,4.49,0.0,-0.0,-0.16,0.0,i
4095.0,3778.0,2946.0,2941.0,2337.0,2377.0,2595.0,4095.0,-1.37,9.76,4.46,0.01,-0.01,-0.16,0.0,i
4095.0,3792.0,2943.0,2944.0,2339.0,2374.0,2591.0,4095.0,-1.39,9.75,4.46,0.02,-0.01,-0.16,0.0,i
4095.0,3760.0,2953.0,2945.0,2337.0,2379.0,2599.0,4095.0,-1.68,9.75,4.5,0.01,0.01,-0.16,0.0,i
4095.0,3755.0,2935.0,2944.0,2336.0,2382.0,2598.0,4095.0,-1.32,9.77,4.4,0.01,0.01,-0.14,0.0,i
4095.0,3793.0,2942.0,2953.0,2333.0,2369.0,2595.0,4095.0,-1.56,9.81,4.46,0.01,-0.01,-0.14,0.0,i
4095.0,3775.0,2942.0,2950.0,2335.0,2379.0,2599.0,4095.0,-1.46,9.78,4.4,0.01,-0.04,-0.13,0.0,i
4095.0,3797.0,2937.0,2948.0,2338.0,2375.0,2603.0,4095.0,-1.38,9.82,4.5,0.0,-0.04,-0.14,0.0,i
4095.0,3761.0,2939.0,2946.0,2334.0,2377.0,2604.0,4095.0,-1.37,9.8,4.49,0.03,0.0,-0.15,0.0,i
4095.0,3777.0,2953.0,2944.0,2335.0,2356.0,2607.0,4095.0,-1.5,9.79,4.46,0.01,0.02,-0.17,0.0,i
4095.0,3769.0,2944.0,2949.0,2346.0,2381.0,2599.0,4095.0,-1.34,9.8,4.42,0.02,-0.01,-0.16,0.0,i
4095.0,3787.0,2951.0,2948.0,2349.0,2377.0,2605.0,4095.0,-1.58,9.71,4.45,-0.01,0.01,-0.15,0.0,i
4095.0,3760.0,2944.0,2960.0,2343.0,2382.0,2603.0,4095.0,-1.41,9.81,4.37,0.03,0.01,-0.14,0.0,i
4095.0,3783.0,2935.0,2957.0,2350.0,2384.0,2607.0,4095.0,-1.51,9.76,4.49,0.0,0.01,-0.16,0.0,i
4095.0,3760.0,2930.0,2987.0,2347.0,2375.0,2608.0,4095.0,-1.56,9.82,4.36,0.03,-0.0,-0.15,0.0,i
4095.0,3787.0,2933.0,2986.0,2352.0,2345.0,2610.0,4095.0,-1.53,9.73,4.53,-0.0,0.01,-0.16,0.0,i
4095.0,3753.0,2940.0,2982.0,2349.0,2384.0,2604.0,4095.0,-1.47,9.76,4.41,0.03,-0.01,-0.16,0.0,i
4095.0,3786.0,2929.0,2987.0,2343.0,2383.0,2607.0,4095.0,-1.46,9.8,4.5,0.02,-0.01,-0.16,0.0,i
4095.0,3784.0,2940.0,2985.0,2350.0,2371.0,2608.0,4095.0,-1.5,9.73,4.48,0.03,-0.01,-0.16,0.0,i
4095.0,3792.0,2932.0,2989.0,2352.0,2378.0,2611.0,4095.0,-1.48,9.76,4.32,0.01,-0.02,-0.15,0.0,i
4095.0,3778.0,2928.0,2983.0,2351.0,2379.0,2599.0,4095.0,-1.51,9.75,4.42,0.01,-0.01,-0.14,0.0,i
4095.0,3775.0,2946.0,2992.0,2353.0,2383.0,2608.0,4095.0,-1.44,9.79,4.44,0.02,0.0,-0.15,0.0,i
4095.0,3771.0,2940.0,2987.0,2348.0,2379.0,2609.0,4095.0,-1.49,9.75,4.38,0.01,0.0,-0.17,0.0,i
4095.0,3779.0,2942.0,2978.0,2350.0,2377.0,2607.0,4095.0,-1.42,9.74,4.42,0.01,-0.01,-0.15,0.0,i
4095.0,3785.0,2943.0,2992.0,2343.0,2378.0,2613.0,4095.0,-1.45,9.67,4.51,0.02,-0.02,-0.14,0.0,i
4095.0,3776.0,2940.0,2989.0,2350.0,2384.0,2613.0,4095.0,-1.45,9.8,4.47,-0.01,0.01,-0.15,0.0,i
4095.0,3768.0,2928.0,2976.0,2349.0,2379.0,2613.0,4095.0,-1.43,9.82,4.44,0.02,-0.01,-0.15,0.0,i
4095.0,3784.0,2927.0,2991.0,2345.0,2387.0,2618.0,4095.0,-1.49,9.73,4.4,0.01,-0.03,-0.16,0.0,i
4095.0,3769.0,2943.0,2993.0,2354.0,2384.0,2621.0,4095.0,-1.42,9.73,4.49,0.01,-0.02,-0.14,0.0,i
4095.0,3789.0,2940.0,2990.0,2355.0,2378.0,2613.0,4095.0,-1.46,9.76,4.45,0.01,0.0,-0.15,0.0,i
4095.0,3766.0,2928.0,2986.0,2352.0,2384.0,2629.0,4095.0,-1.42,9.79,4.38,0.02,-0.01,-0.15,0.0,i
4095.0,3760.0,2935.0,3011.0,2358.0,2383.0,2613.0,4095.0,-1.44,9.76,4.37,0.02,-0.01,-0.15,0.0,i
4095.0,3761.0,2929.0,2995.0,2355.0,2384.0,2619.0,4095.0,-1.47,9.75,4.53,-0.0,0.0,-0.15,0.0,i
4095.0,3760.0,2941.0,2996.0,2356.0,2386.0,2619.0,4095.0,-1.47,9.77,4.48,0.01,0.02,-0.15,0.0,i
3583.0,3712.0,2955.0,3092.0,1986.0,2229.0,2666.0,4095.0,-3.71,8.86,5.88,-0.05,0.1,-0.1,0.0,i
3572.0,3699.0,2959.0,3071.0,2015.0,2240.0,2682.0,4095.0,-3.12,9.32,6.03,-0.13,0.18,0.1,0.0,i
3579.0,3719.0,2953.0,3103.0,2000.0,2255.0,2672.0,4095.0,-2.95,9.27,5.46,-0.01,0.06,-0.07,0.0,i
3581.0,3720.0,2960.0,3088.0,2020.0,2244.0,2663.0,4095.0,-3.23,9.35,5.51,0.01,0.06,-0.09,0.0,i
3561.0,3686.0,2935.0,3096.0,2016.0,2251.0,2672.0,4095.0,-2.84,9.27,5.85,0.07,0.04,-0.11,0.0,i
3583.0,3691.0,2933.0,3105.0,2005.0,2260.0,2670.0,4095.0,-2.99,9.2,5.49,0.04,0.06,-0.16,0.0,i
3583.0,3686.0,2929.0,3106.0,2000.0,2245.0,2672.0,4095.0,-2.88,9.31,5.09,0.04,0.01,-0.15,0.0,i
3577.0,3717.0,2943.0,3118.0,2019.0,2251.0,2679.0,4095.0,-2.95,9.3,5.19,0.01,-0.06,-0.13,0.0,i
3555.0,3687.0,2947.0,3119.0,2019.0,2246.0,2672.0,4095.0,-2.94,9.23,5.32,0.06,-0.05,-0.15,0.0,i
3552.0,3687.0,2941.0,3100.0,2013.0,2256.0,2682.0,4095.0,-3.09,9.26,5.26,0.04,-0.06,-0.15,0.0,i
3567.0,3710.0,2943.0,3119.0,2020.0,2252.0,2687.0,4095.0,-2.98,9.25,5.37,0.02,-0.0,-0.15,0.0,i
3578.0,3709.0,2943.0,3101.0,1983.0,2251.0,2672.0,4095.0,-3.02,9.19,5.28,-0.0,-0.0,-0.13,0.0,i
3570.0,3705.0,2950.0,3114.0,2032.0,2266.0,2674.0,4095.0,-3.12,9.3,5.23,-0.02,0.01,-0.13,0.0,i
3568.0,3712.0,2944.0,3114.0,2021.0,2243.0,2682.0,4095.0,-2.93,9.28,5.39,0.02,-0.03,-0.14,0.0,i
3554.0,3707.0,2944.0,3125.0,2021.0,2247.0,2672.0,4095.0,-3.07,9.3,5.49,0.04,-0.06,-0.15,0.0,i
3577.0,3723.0,2935.0,3109.0,2027.0,2256.0,2671.0,4095.0,-2.76,9.36,5.06,0.08,-0.02,-0.12,0.0,i
3583.0,3723.0,2931.0,3134.0,2011.0,2251.0,2679.0,4095.0,-3.29,9.31,5.33,0.04,-0.01,-0.13,0.0,i
3551.0,3717.0,2930.0,3120.0,2030.0,2238.0,2678.0,4095.0,-2.77,9.45,5.21,0.05,0.02,-0.14,0.0,i
3597.0,3685.0,2950.0,3121.0,2035.0,2235.0,2683.0,4095.0,-2.87,9.33,5.32,0.06,-0.05,-0.16,0.0,i
3551.0,3703.0,2947.0,3134.0,2031.0,2253.0,2675.0,4095.0,-3.18,9.23,5.36,0.02,0.0,-0.15,0.0,i
3572.0,3726.0,2933.0,3105.0,2029.0,2256.0,2675.0,4095.0,-2.89,9.29,5.3,0.02,-0.0,-0.16,0.0,i
3575.0,3705.0,2942.0,3105.0,2047.0,2257.0,2677.0,4095.0,-2.85,9.22,5.28,-0.0,0.01,-0.19,0.0,i
3559.0,3673.0,2950.0,3120.0,2039.0,2257.0,2681.0,4095.0,-2.96,9.26,5.23,0.02,-0.02,-0.16,0.0,i
3583.0,3713.0,2940.0,3113.0,2044.0,2245.0,2672.0,4095.0,-2.84,9.33,5.06,0.02,-0.04,-0.14,0.0,i
3570.0,3683.0,2943.0,3127.0,2035.0,2253.0,2688.0,4095.0,-2.93,9.32,5.34,0.01,0.03,-0.17,0.0,i
3600.0,3679.0,2935.0,3115.0,2038.0,2259.0,2691.0,4095.0,-2.78,9.28,5.16,0.05,-0.02,-0.17,0.0,i
3565.0,3714.0,2943.0,3130.0,2035.0,2245.0,2675.0,4095.0,-3.1,9.26,5.14,0.04,-0.03,-0.11,0.0,i
3563.0,3708.0,2950.0,3109.0,2043.0,2246.0,2689.0,4095.0,-3.01,9.26,5.12,-0.02,0.15,-0.09,0.0,i
3575.0,3698.0,2935.0,3125.0,2037.0,2240.0,2691.0,4095.0,-2.86,9.39,5.17,0.01,0.08,-0.15,0.0,i
3583.0,3712.0,2934.0,3115.0,2064.0,2245.0,2677.0,4095.0,-2.71,9.24,4.99,0.0,-0.01,-0.14,0.0,i
3578.0,3687.0,2944.0,3108.0,2059.0,2249.0,2685.0,4095.0,-2.75,9.43,5.32,0.0,0.07,-0.14,0.0,i
3575.0,3705.0,2950.0,3132.0,2055.0,2263.0,2688.0,4095.0,-2.46,9.52,4.79,0.02,0.03,-0.15,0.0,i
3579.0,3686.0,2938.0,3117.0,2042.0,2251.0,2682.0,4095.0,-2.61,9.44,5.14,-0.03,0.02,-0.15,0.0,i
3565.0,3696.0,2939.0,3119.0,2041.0,2247.0,2685.0,4095.0,-2.76,9.51,4.83,-0.02,-0.03,-0.15,0.0,i
3571.0,3696.0,2955.0,3130.0,2059.0,2262.0,2674.0,4095.0,-2.68,9.45,5.21,0.01,-0.05,-0.17,0.0,i
3575.0,3682.0,2937.0,3121.0,2046.0,2258.0,2686.0,4095.0,-2.86,9.29,5.16,0.05,-0.07,-0.17,0.0,i
3563.0,3687.0,2959.0,3137.0,2055.0,2256.0,2684.0,4095.0,-2.76,9.39,5.25,-0.01,0.03,-0.15,0.0,i
3582.0,3682.0,2941.0,3119.0,2064.0,2253.0,2688.0,4095.0,-2.99,9.47,5.14,0.0,0.04,-0.17,0.0,i
3567.0,3696.0,2944.0,3121.0,2054.0,2254.0,2691.0,4095.0,-2.76,9.29,4.98,-0.02,-0.0,-0.16,0.0,i
3583.0,3686.0,2953.0,3109.0,2062.0,2265.0,2685.0,4095.0,-3.0,9.32,5.08,-0.03,-0.07,-0.17,0.0,i
3595.0,3711.0,2938.0,3095.0,2080.0,2256.0,2691.0,4095.0,-2.87,9.38,5.48,-0.03,-0.01,-0.13,0.0,i
