hall_1,hall_2,hall_3,flex_t,flex_i,flex_m,flex_r,flex_p,accel_x,accel_y,accel_z,gyro_x,gyro_y,gyro_z,hand,sign
3275.0,3209.0,2997.0,3162.0,3492.0,2743.0,3183.0,4095.0,2.49,9.44,2.81,-0.02,-0.01,-0.08,1.0,i
3263.0,3184.0,2994.0,3170.0,3488.0,2733.0,3184.0,4095.0,2.4,9.46,2.58,-0.11,-0.05,-0.05,1.0,i
3268.0,3190.0,2992.0,3168.0,3480.0,2711.0,3184.0,4095.0,2.51,9.43,2.83,-0.08,-0.02,-0.03,1.0,i
3267.0,3190.0,2991.0,3152.0,3493.0,2739.0,3187.0,4095.0,2.52,9.46,2.8,-0.08,-0.02,-0.04,1.0,i
3258.0,3200.0,2997.0,3158.0,3502.0,2739.0,3188.0,4095.0,2.53,9.41,2.84,-0.09,0.02,0.01,1.0,i
3262.0,3214.0,3009.0,3155.0,3493.0,2736.0,3201.0,4095.0,2.65,9.49,2.74,-0.05,-0.02,-0.04,1.0,i
3267.0,3123.0,2998.0,3154.0,3495.0,2752.0,3195.0,4095.0,2.68,9.47,2.69,-0.07,0.0,-0.03,1.0,i
3265.0,3202.0,3008.0,3152.0,3481.0,2750.0,3198.0,4095.0,2.6,9.4,2.75,-0.09,-0.04,-0.07,1.0,i
3267.0,3202.0,3001.0,3136.0,3491.0,2753.0,3193.0,4095.0,2.66,9.42,2.75,-0.08,0.06,-0.06,1.0,i
3259.0,3184.0,2998.0,3117.0,3503.0,2751.0,3187.0,4095.0,2.58,9.43,2.61,-0.09,0.06,-0.02,1.0,i
3262.0,3210.0,2992.0,3117.0,3504.0,2754.0,3199.0,4095.0,2.65,9.54,2.64,-0.15,-0.01,-0.05,1.0,i
3266.0,3167.0,2999.0,3113.0,3507.0,2753.0,3200.0,4095.0,2.65,9.26,2.98,-0.17,-0.08,-0.1,1.0,i
3269.0,3205.0,2995.0,3117.0,3507.0,2759.0,3209.0,4095.0,2.39,9.41,2.84,-0.19,0.02,0.02,1.0,i
3259.0,3205.0,2990.0,3120.0,3517.0,2758.0,3209.0,4095.0,2.55,9.31,2.99,-0.15,-0.07,-0.02,1.0,i
3259.0,3201.0,2983.0,3130.0,3489.0,2750.0,3205.0,4095.0,2.75,9.35,3.22,-0.16,-0.03,-0.06,1.0,i
3249.0,3197.0,2991.0,3135.0,3487.0,2762.0,3203.0,4095.0,2.6,9.27,3.37,-0.15,-0.07,-0.09,1.0,i
3269.0,3250.0,2998.0,3137.0,3493.0,2762.0,3217.0,4095.0,2.46,9.28,3.39,-0.1,-0.01,-0.11,1.0,i
3270.0,3117.0,3007.0,3138.0,3499.0,2768.0,3223.0,4095.0,2.47,9.24,3.41,-0.1,-0.04,-0.06,1.0,i
3279.0,3216.0,2997.0,3133.0,3490.0,2767.0,3217.0,4095.0,2.58,9.31,3.35,-0.06,0.02,-0.03,1.0,i
3268.0,3219.0,2995.0,3138.0,3492.0,2766.0,3211.0,4095.0,2.55,9.29,3.13,-0.04,-0.02,-0.04,1.0,i
3270.0,3184.0,2994.0,3119.0,3501.0,2777.0,3204.0,4095.0,2.75,9.29,3.36,0.03,0.13,0.05,1.0,i
3269.0,3211.0,2991.0,3095.0,3498.0,2784.0,3205.0,4095.0,2.55,9.41,3.23,-0.04,-0.1,-0.1,1.0,i
3258.0,3190.0,2995.0,3094.0,3502.0,2774.0,3216.0,4095.0,2.53,9.26,3.3,-0.05,0.03,-0.02,1.0,i
3280.0,3315.0,2991.0,3087.0,3498.0,2781.0,3216.0,4095.0,2.54,9.25,3.11,-0.04,-0.01,-0.01,1.0,i
3264.0,3202.0,2993.0,3089.0,3504.0,2783.0,3216.0,4095.0,2.66,9.42,2.99,0.01,-0.06,0.01,1.0,i
3280.0,3200.0,2985.0,3071.0,3504.0,2792.0,3215.0,4095.0,2.67,9.32,3.05,-0.07,-0.09,0.05,1.0,i
3253.0,3193.0,2997.0,3085.0,3501.0,2795.0,3218.0,4095.0,2.71,9.45,3.33,-0.13,-0.09,0.02,1.0,i
3264.0,3251.0,2997.0,3088.0,3509.0,2789.0,3204.0,4095.0,2.51,9.34,3.13,-0.15,-0.01,-0.02,1.0,i
3263.0,3199.0,2991.0,3088.0,3510.0,2793.0,3210.0,4095.0,2.7,9.37,3.17,-0.1,-0.08,-0.11,1.0,i
3280.0,3190.0,2992.0,3091.0,3499.0,2791.0,3218.0,4095.0,2.89,9.34,3.1,-0.11,-0.05,-0.12,1.0,i
3266.0,3201.0,3000.0,3102.0,3499.0,2795.0,3218.0,4095.0,2.71,9.33,3.24,-0.0,-0.07,-0.18,1.0,i
3268.0,3203.0,2997.0,3101.0,3519.0,2798.0,3216.0,4095.0,2.63,9.27,3.15,-0.05,-0.04,-0.09,1.0,i
3267.0,3197.0,2987.0,3098.0,3504.0,2797.0,3221.0,4095.0,2.72,9.36,3.05,-0.03,-0.02,-0.11,1.0,i
3269.0,3187.0,2991.0,3099.0,3518.0,2800.0,3217.0,4095.0,2.91,9.4,3.06,-0.05,0.0,-0.13,1.0,i
3269.0,3186.0,2998.0,3102.0,3511.0,2799.0,3226.0,4095.0,2.66,9.36,3.0,-0.09,0.0,-0.12,1.0,i
3270.0,3190.0,2985.0,3099.0,3525.0,2797.0,3214.0,4095.0,2.92,9.46,3.08,-0.09,-0.0,-0.19,1.0,i
3269.0,3213.0,2998.0,3108.0,3514.0,2801.0,3213.0,4095.0,2.42,9.32,3.15,-0.11,0.02,-0.16,1.0,i
3273.0,3195.0,3002.0,3114.0,3471.0,2794.0,3220.0,4095.0,2.43,9.42,3.21,-0.06,-0.01,-0.21,1.0,i
3270.0,3185.0,2996.0,3107.0,3511.0,2800.0,3225.0,4095.0,1.99,9.44,3.13,-0.11,0.07,-0.22,1.0,i
3271.0,3191.0,2997.0,3110.0,3519.0,2796.0,3223.0,4095.0,2.02,9.42,3.24,-0.06,-0.05,-0.21,1.0,i
3276.0,3199.0,2984.0,3120.0,3506.0,2801.0,3231.0,4095.0,1.88,9.39,3.22,-0.11,0.04,-0.11,1.0,i
3267.0,3199.0,2997.0,3119.0,3517.0,2805.0,3220.0,4095.0,2.03,9.41,3.2,-0.04,-0.06,-0.14,1.0,i
3269.0,3209.0,2998.0,3117.0,3519.0,2803.0,3222.0,4095.0,1.66,9.34,3.27,-0.16,0.06,-0.05,1.0,i
3269.0,3193.0,2992.0,3120.0,3525.0,2802.0,3219.0,4095.0,1.83,9.41,3.27,-0.04,-0.1,-0.11,1.0,i
3264.0,3199.0,2994.0,3133.0,3521.0,2795.0,3216.0,4095.0,1.88,9.4,3.3,-0.09,0.01,-0.09,1.0,i
3273.0,3193.0,3003.0,3136.0,3522.0,2797.0,3223.0,4095.0,1.83,9.42,3.29,-0.04,-0.03,-0.06,1.0,i
3266.0,3210.0,3002.0,3136.0,3519.0,2789.0,3222.0,4095.0,2.13,9.42,3.24,-0.05,0.02,-0.1,1.0,i
3265.0,3198.0,2997.0,3129.0,3516.0,2791.0,3218.0,4095.0,1.82,9.47,3.06,-0.06,0.01,-0.08,1.0,i
3271.0,3183.0,2992.0,3137.0,3513.0,2787.0,3219.0,4095.0,1.92,9.46,3.23,-0.07,0.02,-0.12,1.0,i
3261.0,3109.0,2995.0,3139.0,3534.0,2789.0,3232.0,4095.0,1.67,9.41,3.19,-0.11,0.01,-0.04,1.0,i
3260.0,3187.0,3005.0,3137.0,3518.0,2788.0,3229.0,4095.0,2.0,9.45,3.26,-0.04,0.08,-0.07,1.0,i
3265.0,3195.0,2992.0,3148.0,3519.0,2783.0,3211.0,4095.0,2.04,9.53,3.29,-0.08,0.18,-0.05,1.0,i
3278.0,3221.0,2997.0,3162.0,3504.0,2768.0,3195.0,4095.0,1.84,9.34,3.39,-0.09,0.28,-0.1,1.0,i
3278.0,3285.0,2986.0,3184.0,3508.0,2766.0,3186.0,4095.0,1.52,9.37,3.44,-0.22,0.28,-0.04,1.0,i
3286.0,3289.0,2988.0,3210.0,3495.0,2765.0,3162.0,4095.0,1.72,9.5,3.77,-0.01,0.23,-0.13,1.0,i
3313.0,3313.0,2987.0,3202.0,3498.0,2756.0,3167.0,4095.0,1.31,9.3,3.42,-0.09,0.1,-0.08,1.0,i
3339.0,3338.0,2995.0,3210.0,3489.0,2752.0,3164.0,4095.0,1.75,9.59,3.21,-0.03,0.23,-0.07,1.0,i
3339.0,3333.0,2983.0,3207.0,3486.0,2754.0,3172.0,4095.0,1.37,9.48,3.36,-0.13,0.04,-0.08,1.0,i
3346.0,3358.0,2992.0,3239.0,3499.0,2759.0,3189.0,4095.0,1.54,9.38,3.43,0.03,-0.13,-0.09,1.0,i
3326.0,3373.0,2984.0,3234.0,3490.0,2755.0,3195.0,4095.0,1.35,9.32,3.45,0.21,-0.06,-0.12,1.0,i
3280.0,3374.0,2993.0,3239.0,3504.0,2758.0,3209.0,4095.0,1.41,9.72,3.08,0.24,-0.23,-0.1,1.0,i
3221.0,3420.0,2988.0,3231.0,3501.0,2766.0,3225.0,4095.0,1.34,9.42,3.0,-0.09,-0.12,-0.11,1.0,i
3219.0,3445.0,2992.0,3221.0,3501.0,2782.0,3248.0,4095.0,1.4,9.72,3.09,-0.01,-0.02,-0.04,1.0,i
3205.0,3399.0,2994.0,3194.0,3500.0,2809.0,3246.0,4095.0,1.44,9.39,3.27,0.19,-0.22,-0.09,1.0,i
3210.0,3354.0,2995.0,3183.0,3513.0,2833.0,3264.0,4095.0,1.73,9.86,2.69,-0.15,0.11,-0.01,1.0,i
3211.0,3305.0,2991.0,3279.0,3515.0,2861.0,3289.0,4095.0,1.3,9.55,2.98,-0.08,0.12,-0.05,1.0,i
3216.0,3307.0,3003.0,3439.0,3526.0,2877.0,3301.0,4095.0,1.37,9.29,3.02,-0.01,-0.03,-0.12,1.0,i
3223.0,3248.0,2998.0,3537.0,3521.0,2903.0,3350.0,4095.0,1.52,9.84,2.81,-0.19,-0.1,-0.11,1.0,i
3205.0,3287.0,2983.0,3565.0,3536.0,2914.0,3376.0,4095.0,1.31,9.51,3.22,-0.06,0.12,-0.18,1.0,i
3216.0,3263.0,2993.0,3606.0,3522.0,2933.0,3383.0,4095.0,1.02,9.67,2.98,-0.02,-0.04,-0.1,1.0,i
3209.0,3287.0,2992.0,3555.0,3507.0,2931.0,3378.0,4095.0,1.47,9.89,3.16,-0.12,-0.17,-0.1,1.0,i
3199.0,3296.0,2999.0,3543.0,3537.0,2919.0,3362.0,4095.0,1.27,9.47,3.19,0.09,0.03,-0.12,1.0,i
3184.0,3363.0,2997.0,3561.0,3509.0,2911.0,3328.0,4095.0,1.12,9.64,2.8,-0.09,-0.16,-0.16,1.0,i
3189.0,3392.0,3003.0,3443.0,3533.0,2917.0,3319.0,3856.0,1.25,9.62,3.06,-0.1,0.02,-0.03,1.0,i
3171.0,3322.0,2998.0,3341.0,3529.0,2906.0,3312.0,3639.0,1.16,9.5,3.31,-0.03,0.05,-0.13,1.0,i
3172.0,3464.0,3015.0,3313.0,3550.0,2896.0,3286.0,4062.0,1.0,9.64,3.29,0.04,0.09,-0.03,1.0,i
3171.0,3458.0,3002.0,3406.0,3535.0,2895.0,3306.0,3987.0,1.02,9.08,3.07,0.2,-0.05,-0.03,1.0,i
3175.0,3449.0,2997.0,3650.0,3536.0,2882.0,3270.0,3898.0,0.63,9.4,2.92,0.28,0.12,-0.01,1.0,i
3173.0,3335.0,3021.0,3865.0,3523.0,2879.0,3262.0,3888.0,1.53,9.9,2.49,0.07,0.06,-0.09,1.0,i
3163.0,3375.0,3008.0,4035.0,3486.0,2874.0,3264.0,3878.0,0.87,9.74,2.33,0.05,-0.11,-0.1,1.0,i
3167.0,3435.0,3015.0,4091.0,3467.0,2880.0,3264.0,3949.0,1.28,9.99,2.35,0.1,0.12,-0.09,1.0,i
3169.0,3510.0,3027.0,3865.0,3495.0,2876.0,3254.0,3851.0,1.26,9.42,2.01,-0.2,-0.13,-0.04,1.0,i
3177.0,3505.0,3017.0,3894.0,3519.0,2890.0,3264.0,3805.0,0.63,9.77,2.06,-0.25,-0.22,0.03,1.0,i
3184.0,3619.0,3013.0,3730.0,3521.0,2898.0,3280.0,3984.0,1.39,9.57,3.0,-0.2,0.08,-0.03,1.0,i
3169.0,3472.0,3022.0,3530.0,3531.0,2912.0,3280.0,4095.0,0.94,9.81,2.83,-0.04,-0.22,-0.07,1.0,i
3175.0,3503.0,2996.0,3347.0,3533.0,2901.0,3267.0,4095.0,0.94,9.81,2.67,-0.04,-0.02,-0.07,1.0,i
3173.0,3440.0,3006.0,3233.0,3518.0,2917.0,3264.0,4095.0,1.26,9.75,2.59,-0.11,0.02,-0.08,1.0,i
3163.0,3432.0,3008.0,3202.0,3524.0,2912.0,3281.0,4095.0,0.85,9.71,2.52,-0.04,-0.06,-0.05,1.0,i
3155.0,3440.0,3011.0,3181.0,3521.0,2905.0,3287.0,4049.0,0.91,9.84,2.46,-0.07,-0.0,-0.06,1.0,i
3162.0,3438.0,3005.0,3159.0,3532.0,2911.0,3290.0,4095.0,1.06,9.8,2.45,-0.08,0.01,-0.06,1.0,i
3167.0,3483.0,3007.0,3133.0,3533.0,2907.0,3276.0,4095.0,1.06,9.62,2.71,-0.05,0.13,-0.04,1.0,i
3167.0,3415.0,3011.0,3157.0,3541.0,2919.0,3282.0,4095.0,1.02,9.78,2.63,-0.04,0.09,-0.08,1.0,i
3168.0,3411.0,3023.0,3232.0,3536.0,2914.0,3278.0,4095.0,1.04,9.78,2.59,-0.02,0.03,-0.12,1.0,i
3164.0,3425.0,3006.0,3317.0,3552.0,2916.0,3280.0,4095.0,1.36,9.5,2.84,0.03,-0.01,-0.29,1.0,i
3169.0,3430.0,3002.0,3343.0,3538.0,2910.0,3271.0,4095.0,0.8,9.81,2.76,-0.08,0.16,0.0,1.0,i
3152.0,3441.0,3008.0,3344.0,3536.0,2915.0,3289.0,4095.0,0.57,9.69,2.32,-0.21,0.11,0.01,1.0,i
3152.0,3422.0,3008.0,3367.0,3536.0,2919.0,3278.0,4095.0,0.88,9.71,2.46,-0.09,-0.02,0.02,1.0,i
3168.0,3409.0,3003.0,3361.0,3522.0,2916.0,3280.0,4095.0,0.92,9.72,2.52,-0.06,0.05,0.09,1.0,i
3173.0,3445.0,3001.0,3343.0,3543.0,2923.0,3281.0,4095.0,1.08,9.75,2.61,-0.12,-0.03,0.0,1.0,i
3161.0,3383.0,3003.0,3249.0,3542.0,2923.0,3286.0,4095.0,1.0,9.74,2.72,-0.08,0.04,0.03,1.0,i
3158.0,3434.0,3006.0,3168.0,3531.0,2923.0,3286.0,4095.0,1.1,9.73,2.76,-0.1,-0.04,-0.03,1.0,i
3158.0,3366.0,3008.0,3091.0,3523.0,2911.0,3282.0,4095.0,1.15,9.72,2.73,-0.1,-0.0,-0.02,1.0,i
3162.0,3389.0,2999.0,3017.0,3535.0,2913.0,3289.0,4095.0,1.08,9.65,2.62,-0.1,-0.03,0.0,1.0,i
3151.0,3363.0,2990.0,2965.0,3541.0,2913.0,3298.0,4095.0,1.15,9.7,2.66,-0.07,0.02,-0.02,1.0,i
3166.0,3395.0,2999.0,2951.0,3551.0,2923.0,3286.0,4095.0,1.07,9.64,2.58,-0.12,-0.04,-0.05,1.0,i
3154.0,3375.0,2995.0,2929.0,3536.0,2914.0,3297.0,4095.0,1.11,9.62,2.96,-0.04,-0.04,-0.04,1.0,i
3157.0,3375.0,2998.0,2933.0,3546.0,2906.0,3310.0,4095.0,1.18,9.55,3.09,-0.06,0.02,-0.05,1.0,i
3152.0,3366.0,3001.0,2921.0,3551.0,2911.0,3295.0,4095.0,1.25,9.65,2.78,0.04,-0.04,-0.05,1.0,i
3169.0,3385.0,3003.0,2905.0,3536.0,2914.0,3286.0,4095.0,1.17,9.6,2.72,-0.08,-0.07,-0.1,1.0,i
3155.0,3440.0,2993.0,2896.0,3546.0,2934.0,3294.0,4095.0,0.88,9.68,2.77,-0.06,-0.04,-0.07,1.0,i
3164.0,3357.0,3009.0,2896.0,3554.0,2928.0,3301.0,4095.0,0.84,9.69,2.71,-0.07,-0.06,-0.11,1.0,i
3145.0,3364.0,2993.0,2894.0,3547.0,2933.0,3296.0,4095.0,0.75,9.57,2.75,-0.03,-0.0,-0.03,1.0,i
3147.0,3365.0,2993.0,2901.0,3556.0,2927.0,3303.0,4095.0,1.05,9.73,2.62,-0.04,-0.05,-0.01,1.0,i
3149.0,3371.0,2989.0,2897.0,3562.0,2928.0,3293.0,4095.0,1.03,9.68,2.73,-0.04,-0.01,0.01,1.0,i
3152.0,3294.0,2991.0,2895.0,3541.0,2917.0,3290.0,4095.0,0.98,9.66,2.69,-0.08,-0.03,-0.03,1.0,i
3165.0,3389.0,2992.0,2896.0,3553.0,2911.0,3289.0,4095.0,1.1,9.65,2.7,-0.04,-0.02,0.04,1.0,i
3157.0,3378.0,2992.0,2883.0,3568.0,2909.0,3296.0,4095.0,1.33,9.83,2.46,-0.11,-0.1,-0.01,1.0,i
3157.0,3378.0,2996.0,2871.0,3566.0,2898.0,3303.0,4095.0,1.35,9.65,2.75,-0.09,0.0,0.03,1.0,i
3167.0,3415.0,2998.0,2880.0,3570.0,2907.0,3287.0,4095.0,1.51,9.68,2.84,-0.05,-0.04,0.0,1.0,i
3146.0,3426.0,3005.0,2896.0,3569.0,2928.0,3274.0,4095.0,1.17,9.72,2.64,-0.05,-0.05,0.05,1.0,i
3146.0,3429.0,2992.0,2919.0,3563.0,2925.0,3255.0,4095.0,1.32,9.67,2.8,-0.15,-0.01,0.08,1.0,i
3147.0,3451.0,2992.0,2931.0,3548.0,2929.0,3247.0,4095.0,1.39,9.63,2.9,0.03,0.06,-0.04,1.0,i
3138.0,3467.0,3009.0,2955.0,3559.0,2928.0,3232.0,4095.0,1.36,9.56,2.6,-0.09,-0.01,-0.01,1.0,i
3136.0,3473.0,2992.0,2960.0,3561.0,2907.0,3235.0,4095.0,1.36,9.64,2.53,-0.18,0.06,0.03,1.0,i
3136.0,3472.0,2992.0,2974.0,3562.0,2895.0,3221.0,4095.0,1.21,9.56,2.76,-0.06,0.02,-0.06,1.0,i
3143.0,3471.0,3006.0,2992.0,3549.0,2884.0,3235.0,4095.0,1.37,9.56,2.77,-0.16,-0.04,-0.06,1.0,i
3138.0,3479.0,2993.0,3022.0,3539.0,2874.0,3235.0,4095.0,1.29,9.67,2.85,-0.05,0.03,-0.03,1.0,i
3136.0,3490.0,2992.0,3047.0,3551.0,2865.0,3216.0,4095.0,1.21,9.79,2.79,-0.07,0.06,-0.03,1.0,i
3125.0,3510.0,3002.0,3043.0,3546.0,2867.0,3237.0,4095.0,1.29,9.64,2.82,-0.02,-0.05,-0.01,1.0,i
3142.0,3502.0,3006.0,3054.0,3557.0,2875.0,3234.0,4095.0,1.16,9.52,2.88,-0.07,0.03,0.01,1.0,i
3152.0,3521.0,3011.0,3066.0,3539.0,2874.0,3243.0,4095.0,1.5,9.66,2.78,0.03,-0.03,-0.02,1.0,i
3139.0,3506.0,3009.0,3071.0,3535.0,2880.0,3244.0,4095.0,1.38,9.75,2.58,0.02,0.01,-0.06,1.0,i
3136.0,3519.0,3001.0,3070.0,3526.0,2879.0,3245.0,4095.0,1.64,9.66,2.57,-0.09,0.02,-0.08,1.0,i
3126.0,3570.0,2999.0,3214.0,3529.0,2874.0,3269.0,4095.0,1.41,10.02,2.64,0.02,0.24,-0.12,1.0,i
3145.0,3637.0,3015.0,3506.0,3523.0,2897.0,3242.0,4095.0,1.35,9.52,2.97,0.19,0.03,-0.14,1.0,i
3143.0,3706.0,3024.0,3665.0,3534.0,2909.0,3227.0,4095.0,1.3,9.64,2.28,0.01,-0.12,0.01,1.0,i
3131.0,3753.0,3014.0,3637.0,3513.0,2910.0,3245.0,4095.0,1.47,9.96,2.21,0.02,-0.13,-0.04,1.0,i
3137.0,3825.0,3015.0,3363.0,3514.0,2879.0,3245.0,4095.0,1.55,9.67,2.75,-0.11,-0.15,-0.06,1.0,i
3127.0,3839.0,3036.0,3298.0,3505.0,2867.0,3232.0,4095.0,0.96,9.64,2.71,-0.09,0.06,0.01,1.0,i
3142.0,3852.0,3043.0,3279.0,3507.0,2847.0,3225.0,4095.0,1.47,9.93,2.47,-0.02,-0.07,-0.05,1.0,i
3137.0,3823.0,3037.0,3280.0,3504.0,2861.0,3217.0,4095.0,1.28,9.6,2.58,-0.12,0.06,-0.03,1.0,i
3131.0,3847.0,3050.0,3321.0,3507.0,2862.0,3219.0,4095.0,1.5,9.77,2.53,-0.04,-0.07,-0.06,1.0,i
3121.0,3865.0,3038.0,3319.0,3483.0,2857.0,3224.0,4095.0,1.14,9.65,2.48,-0.08,0.07,-0.04,1.0,i
3133.0,3915.0,3045.0,3319.0,3495.0,2854.0,3221.0,4095.0,1.47,9.79,2.46,-0.12,-0.1,-0.08,1.0,i
3143.0,3936.0,3024.0,3333.0,3469.0,2845.0,3223.0,4095.0,1.14,9.76,2.6,-0.08,-0.06,-0.04,1.0,i
3126.0,3930.0,3025.0,3344.0,3483.0,2850.0,3221.0,4095.0,1.25,9.69,2.55,-0.06,-0.11,-0.03,1.0,i
3135.0,3933.0,3040.0,3354.0,3485.0,2862.0,3234.0,4095.0,1.61,9.75,2.5,-0.04,-0.25,-0.06,1.0,i
3145.0,3937.0,3054.0,3273.0,3490.0,2857.0,3216.0,4095.0,1.03,9.57,2.77,-0.13,0.15,-0.04,1.0,i
3130.0,3920.0,3054.0,3205.0,3500.0,2854.0,3216.0,4095.0,1.36,9.76,2.54,-0.06,-0.09,-0.05,1.0,i
3138.0,3943.0,3047.0,3200.0,3509.0,2864.0,3216.0,4095.0,1.02,9.65,2.58,-0.06,0.02,-0.01,1.0,i
3130.0,3931.0,3055.0,3205.0,3507.0,2877.0,3233.0,4095.0,1.33,9.65,2.55,-0.01,-0.06,-0.06,1.0,i
3136.0,3920.0,3007.0,3209.0,3511.0,2877.0,3243.0,4095.0,1.45,9.73,2.46,0.01,-0.1,-0.07,1.0,i
3123.0,3939.0,3024.0,3220.0,3503.0,2895.0,3247.0,4095.0,1.39,9.79,2.42,-0.05,-0.06,-0.11,1.0,i
3133.0,3917.0,3017.0,3219.0,3519.0,2885.0,3249.0,4095.0,1.26,9.64,2.65,-0.05,-0.0,-0.02,1.0,i
3129.0,3931.0,3051.0,3193.0,3509.0,2891.0,3249.0,4095.0,1.17,9.74,2.48,-0.04,0.05,-0.04,1.0,i
3135.0,3937.0,3054.0,3211.0,3509.0,2891.0,3277.0,3952.0,1.24,9.67,2.44,-0.04,0.04,-0.03,1.0,i
3127.0,3919.0,3047.0,3216.0,3520.0,2900.0,3254.0,4095.0,1.31,9.61,2.48,-0.07,0.02,-0.02,1.0,i
3136.0,3911.0,3040.0,3211.0,3515.0,2896.0,3263.0,4095.0,1.4,9.76,2.56,-0.05,0.03,-0.04,1.0,i
3141.0,3997.0,3034.0,3202.0,3522.0,2900.0,3254.0,4095.0,1.4,9.77,2.45,-0.01,0.05,-0.04,1.0,i
3131.0,3901.0,3030.0,3211.0,3518.0,2903.0,3269.0,4095.0,1.49,9.79,2.48,0.03,-0.04,-0.15,1.0,i
3129.0,3893.0,3026.0,3217.0,3518.0,2901.0,3263.0,4095.0,0.97,9.82,2.25,-0.05,0.06,-0.02,1.0,i
3135.0,3883.0,3010.0,3221.0,3527.0,2906.0,3264.0,4095.0,1.2,9.85,2.27,-0.07,-0.06,-0.07,1.0,i
3141.0,3873.0,3010.0,3234.0,3518.0,2909.0,3278.0,4095.0,1.14,9.65,2.35,-0.1,-0.07,-0.09,1.0,i
3139.0,3854.0,3003.0,3231.0,3527.0,2899.0,3267.0,4095.0,1.14,9.72,2.41,-0.07,-0.07,-0.1,1.0,i
3135.0,3839.0,3013.0,3242.0,3510.0,2896.0,3275.0,4095.0,1.05,9.77,2.5,-0.06,-0.0,-0.03,1.0,i
3133.0,3822.0,3003.0,3248.0,3521.0,2878.0,3275.0,4095.0,1.26,9.83,2.34,-0.09,-0.09,-0.08,1.0,i
3128.0,3790.0,2997.0,3252.0,3511.0,2881.0,3269.0,4095.0,1.15,9.68,2.35,-0.12,0.02,-0.02,1.0,i
3135.0,3789.0,2999.0,3248.0,3520.0,2896.0,3277.0,4095.0,1.21,9.85,2.35,-0.13,-0.03,-0.05,1.0,i
3137.0,3771.0,3007.0,3248.0,3533.0,2880.0,3279.0,4095.0,1.03,9.72,2.47,-0.1,0.04,-0.01,1.0,i
3152.0,3773.0,3008.0,3257.0,3519.0,2890.0,3280.0,4095.0,1.3,9.73,2.51,-0.09,0.01,-0.01,1.0,i
3130.0,3792.0,3005.0,3251.0,3517.0,2881.0,3280.0,4095.0,1.35,9.7,2.61,-0.06,-0.02,-0.05,1.0,i
3127.0,3778.0,2993.0,3238.0,3531.0,2891.0,3277.0,4095.0,1.23,9.78,2.47,-0.09,-0.05,-0.06,1.0,i
3126.0,3805.0,3005.0,3213.0,3521.0,2897.0,3280.0,4095.0,1.23,9.81,2.57,-0.01,-0.08,-0.14,1.0,i
3141.0,3787.0,3008.0,3193.0,3536.0,2903.0,3295.0,4095.0,1.2,9.69,2.54,0.01,-0.08,-0.06,1.0,i
3129.0,3814.0,3001.0,3155.0,3550.0,2913.0,3291.0,4095.0,1.2,9.79,2.47,-0.0,-0.07,-0.07,1.0,i
3127.0,3792.0,3006.0,3088.0,3536.0,2928.0,3287.0,4095.0,1.38,9.76,2.46,-0.01,0.02,-0.05,1.0,i
3131.0,3827.0,3019.0,3004.0,3559.0,2955.0,3301.0,4095.0,1.05,9.85,2.14,-0.02,-0.08,-0.09,1.0,i
3139.0,3794.0,3008.0,3020.0,3545.0,2947.0,3287.0,4095.0,1.31,9.65,2.58,-0.04,0.06,-0.07,1.0,i
3133.0,3827.0,2995.0,3027.0,3573.0,2988.0,3281.0,4095.0,1.04,9.66,2.42,0.05,0.05,-0.07,1.0,i
3136.0,3845.0,3007.0,3047.0,3583.0,2992.0,3295.0,4095.0,1.11,9.72,2.38,-0.03,0.05,-0.1,1.0,i
3133.0,3821.0,3007.0,3050.0,3581.0,2993.0,3281.0,4095.0,0.95,9.72,2.19,-0.04,0.02,-0.06,1.0,i
3138.0,3744.0,3010.0,3082.0,3569.0,3004.0,3294.0,4095.0,1.17,9.82,2.2,-0.03,-0.01,-0.05,1.0,i
3132.0,3847.0,2997.0,3063.0,3582.0,3005.0,3291.0,4095.0,1.07,9.68,2.38,-0.06,0.09,-0.04,1.0,i
3131.0,3840.0,3014.0,3071.0,3569.0,2999.0,3291.0,4095.0,0.98,9.86,2.3,-0.03,0.03,-0.05,1.0,i
3135.0,3819.0,2999.0,3069.0,3607.0,3003.0,3287.0,4095.0,1.01,9.78,2.26,0.01,0.09,-0.02,1.0,i
3124.0,3843.0,3005.0,3087.0,3600.0,3002.0,3297.0,4095.0,1.21,9.89,2.11,-0.07,0.07,-0.03,1.0,i
3137.0,3843.0,3003.0,3071.0,3579.0,3005.0,3293.0,4095.0,1.08,9.87,2.17,-0.05,0.02,-0.07,1.0,i
3134.0,3831.0,3004.0,3083.0,3607.0,2997.0,3296.0,4095.0,1.07,9.73,2.28,-0.06,-0.06,-0.06,1.0,i
3139.0,3831.0,3017.0,3089.0,3611.0,2992.0,3283.0,4095.0,1.04,9.87,2.19,-0.1,-0.02,-0.04,1.0,i
3131.0,3819.0,3008.0,3055.0,3603.0,2992.0,3282.0,4095.0,1.05,9.77,2.36,-0.06,-0.05,-0.04,1.0,i
3131.0,3850.0,3015.0,3071.0,3599.0,2991.0,3293.0,4095.0,0.95,9.86,2.26,-0.1,-0.03,-0.05,1.0,i
3126.0,3821.0,3003.0,3071.0,3599.0,2986.0,3292.0,4095.0,1.05,9.82,2.28,-0.05,-0.01,-0.02,1.0,i
3116.0,3842.0,2995.0,3039.0,3599.0,2959.0,3294.0,4095.0,1.03,9.84,2.2,-0.07,-0.05,-0.04,1.0,i
3120.0,3792.0,3003.0,3012.0,3597.0,2943.0,3275.0,4095.0,1.13,9.81,2.2,-0.02,-0.1,0.0,1.0,i
3117.0,3883.0,3001.0,2954.0,3583.0,2929.0,3277.0,4095.0,1.13,9.88,2.2,-0.14,-0.17,-0.06,1.0,i
3125.0,3746.0,2997.0,2970.0,3578.0,2918.0,3270.0,4095.0,1.09,9.71,2.34,-0.15,-0.14,-0.0,1.0,i
3091.0,3748.0,3003.0,2985.0,3575.0,2925.0,3255.0,4095.0,1.25,9.78,2.35,-0.11,-0.14,0.01,1.0,i
3107.0,3726.0,2997.0,2999.0,3583.0,2913.0,3248.0,4095.0,1.22,9.79,2.41,-0.11,-0.08,-0.04,1.0,i
3116.0,3737.0,3010.0,2995.0,3568.0,2928.0,3249.0,4095.0,1.12,9.65,2.33,-0.12,-0.03,-0.01,1.0,i
3099.0,3732.0,2991.0,2995.0,3580.0,2923.0,3263.0,4095.0,1.19,9.85,2.38,-0.08,-0.04,-0.04,1.0,i
3102.0,3758.0,3003.0,3003.0,3566.0,2934.0,3263.0,4095.0,1.17,9.73,2.37,-0.09,0.03,-0.02,1.0,i
3102.0,3722.0,3003.0,3008.0,3571.0,2931.0,3266.0,4095.0,1.31,9.75,2.33,-0.1,-0.01,-0.01,1.0,i
3114.0,3741.0,2995.0,2999.0,3583.0,2939.0,3267.0,4095.0,1.13,9.74,2.43,-0.11,0.05,0.02,1.0,i
3113.0,3774.0,2995.0,3012.0,3582.0,2945.0,3264.0,4095.0,1.22,9.81,2.46,-0.09,-0.02,-0.05,1.0,i
3099.0,3723.0,2998.0,2994.0,3582.0,2949.0,3275.0,4095.0,1.17,9.73,2.45,-0.08,0.0,-0.05,1.0,i
3101.0,3713.0,2992.0,2997.0,3598.0,2951.0,3270.0,4095.0,1.26,9.73,2.48,-0.08,0.02,-0.03,1.0,i
3113.0,3707.0,2999.0,3013.0,3583.0,2951.0,3276.0,4095.0,1.26,9.76,2.43,-0.08,0.0,-0.04,1.0,i
3102.0,3677.0,2988.0,3010.0,3583.0,2957.0,3280.0,4095.0,1.18,9.73,2.49,-0.14,-0.03,-0.01,1.0,i
3098.0,3716.0,2986.0,3015.0,3583.0,2960.0,3280.0,4095.0,1.25,9.7,2.65,-0.08,0.02,-0.02,1.0,i
3118.0,3698.0,2997.0,3022.0,3567.0,2947.0,3280.0,4095.0,1.17,9.76,2.55,-0.11,-0.03,0.02,1.0,i
3088.0,3685.0,2997.0,3027.0,3565.0,2935.0,3265.0,4095.0,1.35,9.68,2.67,-0.07,0.06,-0.0,1.0,i
