hall_1,hall_2,hall_3,flex_t,flex_i,flex_m,flex_r,flex_p,accel_x,accel_y,accel_z,gyro_x,gyro_y,gyro_z,hand,sign
2927.0,930.0,2991.0,3313.0,3954.0,3324.0,3654.0,4095.0,0.05,9.72,1.94,-0.09,0.0,-0.01,1.0,i
2931.0,943.0,2992.0,3315.0,3969.0,3333.0,3668.0,4095.0,-0.24,9.94,1.97,0.0,-0.05,-0.13,1.0,i
2938.0,930.0,2983.0,3315.0,3970.0,3331.0,3651.0,4095.0,-0.15,9.84,2.16,-0.13,0.03,-0.01,1.0,i
2929.0,941.0,2992.0,3312.0,3957.0,3328.0,3664.0,4095.0,-0.04,9.93,2.26,-0.08,0.07,-0.01,1.0,i
2926.0,943.0,2985.0,3312.0,3946.0,3328.0,3659.0,4095.0,0.11,9.84,2.24,-0.11,0.02,0.04,1.0,i
2929.0,929.0,2995.0,3314.0,3975.0,3329.0,3667.0,4095.0,0.22,9.87,2.3,-0.12,0.02,0.01,1.0,i
2925.0,933.0,2991.0,3312.0,3958.0,3325.0,3664.0,4095.0,0.09,9.79,2.34,-0.08,-0.01,-0.01,1.0,i
2928.0,934.0,2983.0,3319.0,3959.0,3326.0,3658.0,4095.0,0.26,9.89,2.24,-0.13,0.03,-0.0,1.0,i
2935.0,938.0,3003.0,3315.0,3968.0,3321.0,3663.0,4095.0,0.31,9.78,2.4,-0.06,0.03,-0.05,1.0,i
2930.0,935.0,2997.0,3318.0,3971.0,3328.0,3664.0,4095.0,0.15,9.9,2.35,-0.1,0.02,-0.03,1.0,i
2929.0,932.0,2991.0,3312.0,3958.0,3326.0,3667.0,4095.0,0.17,9.79,2.43,-0.11,0.09,0.03,1.0,i
2928.0,925.0,2991.0,3311.0,3975.0,3329.0,3661.0,4095.0,0.3,9.96,2.32,0.01,0.01,-0.07,1.0,i
2931.0,933.0,2997.0,3314.0,3967.0,3335.0,3665.0,4095.0,0.17,9.83,2.34,-0.08,0.07,-0.02,1.0,i
2926.0,933.0,2989.0,3311.0,3955.0,3324.0,3664.0,4095.0,0.18,9.85,2.43,-0.01,-0.0,-0.07,1.0,i
2931.0,933.0,2992.0,3314.0,3953.0,3319.0,3657.0,4095.0,0.19,9.84,2.36,-0.04,0.04,-0.03,1.0,i
2919.0,931.0,2997.0,3312.0,3968.0,3334.0,3664.0,4095.0,0.21,9.79,2.27,-0.06,0.0,-0.03,1.0,i
2927.0,934.0,2982.0,3310.0,3965.0,3328.0,3664.0,4095.0,0.17,9.85,2.29,-0.05,0.04,-0.06,1.0,i
2928.0,931.0,2997.0,3314.0,3965.0,3332.0,3655.0,4095.0,0.09,9.77,2.32,-0.05,-0.02,-0.05,1.0,i
2941.0,937.0,2995.0,3314.0,3969.0,3329.0,3664.0,4095.0,0.12,9.86,2.28,-0.09,0.03,-0.01,1.0,i
2922.0,934.0,2989.0,3310.0,3955.0,3328.0,3649.0,4095.0,0.16,9.7,2.49,-0.02,-0.05,-0.06,1.0,i
2943.0,918.0,2992.0,3279.0,4003.0,3350.0,3375.0,4095.0,-2.22,7.5,6.46,0.11,0.04,-0.03,1.0,i
2930.0,929.0,2982.0,3274.0,3987.0,3344.0,3376.0,4095.0,-2.32,7.6,6.17,-0.15,0.07,0.12,1.0,i
2941.0,921.0,2986.0,3278.0,3993.0,3345.0,3376.0,4095.0,-1.87,7.45,6.4,0.15,-0.07,-0.13,1.0,i
2928.0,932.0,2997.0,3285.0,4013.0,3354.0,3376.0,4095.0,-2.05,7.72,5.98,-0.19,0.14,0.03,1.0,i
2935.0,939.0,2992.0,3280.0,4004.0,3355.0,3383.0,4095.0,-2.24,7.62,6.13,0.01,-0.0,-0.11,1.0,i
2931.0,922.0,2992.0,3283.0,4003.0,3345.0,3375.0,4095.0,-2.45,7.53,6.31,-0.1,0.04,-0.05,1.0,i
2935.0,924.0,2992.0,3267.0,3997.0,3350.0,3383.0,4095.0,-2.58,7.6,6.2,-0.09,-0.06,-0.07,1.0,i
2935.0,927.0,2992.0,3247.0,3994.0,3344.0,3383.0,4095.0,-2.41,7.39,6.28,-0.19,-0.05,-0.05,1.0,i
2930.0,933.0,2993.0,3248.0,3999.0,3344.0,3377.0,4095.0,-2.3,7.72,6.15,0.15,0.06,-0.16,1.0,i
2940.0,931.0,2994.0,3249.0,3989.0,3356.0,3388.0,4095.0,-2.54,7.67,5.92,-0.15,0.11,0.07,1.0,i
2935.0,933.0,2999.0,3254.0,3997.0,3353.0,3383.0,4095.0,-2.28,7.58,6.14,-0.04,-0.03,-0.05,1.0,i
2938.0,925.0,3002.0,3265.0,3989.0,3361.0,3387.0,4095.0,-2.43,7.64,6.23,-0.06,0.09,-0.02,1.0,i
2928.0,936.0,2991.0,3257.0,3978.0,3355.0,3381.0,4095.0,-2.37,7.63,6.26,-0.0,-0.05,-0.09,1.0,i
2928.0,927.0,2992.0,3271.0,3990.0,3355.0,3383.0,4095.0,-2.39,7.67,6.28,0.01,0.11,-0.04,1.0,i
2938.0,929.0,2996.0,3267.0,3996.0,3360.0,3386.0,4095.0,-2.63,7.59,6.04,-0.08,0.07,0.01,1.0,i
2927.0,925.0,2992.0,3266.0,3984.0,3355.0,3382.0,4095.0,-2.49,7.48,6.18,0.0,-0.02,-0.09,1.0,i
2934.0,923.0,2995.0,3262.0,3981.0,3360.0,3377.0,4095.0,-2.42,7.68,6.14,0.14,0.04,-0.19,1.0,i
2928.0,928.0,2993.0,3265.0,3994.0,3355.0,3377.0,4095.0,-2.61,7.73,5.82,-0.19,0.06,0.06,1.0,i
2933.0,926.0,2987.0,3266.0,3997.0,3362.0,3383.0,4095.0,-2.49,7.43,6.16,-0.11,-0.06,-0.02,1.0,i
2927.0,922.0,2998.0,3259.0,3999.0,3361.0,3387.0,4095.0,-2.61,7.9,5.9,-0.02,-0.04,-0.14,1.0,i
2929.0,928.0,2994.0,3310.0,4009.0,3349.0,3398.0,4095.0,-1.8,9.94,-1.56,-0.19,0.67,0.01,1.0,i
2929.0,921.0,2995.0,3309.0,3987.0,3339.0,3399.0,4095.0,-0.69,10.03,-1.01,-0.07,0.05,0.0,1.0,i
2947.0,929.0,2990.0,3312.0,4007.0,3344.0,3407.0,4095.0,-0.05,9.98,-0.51,-0.22,0.22,0.19,1.0,i
2931.0,917.0,3002.0,3311.0,4001.0,3343.0,3403.0,4095.0,0.12,9.9,-0.19,-0.01,0.03,-0.05,1.0,i
2930.0,930.0,2999.0,3308.0,4005.0,3344.0,3408.0,4095.0,-0.17,10.23,-0.7,-0.07,0.12,-0.01,1.0,i
2933.0,925.0,2990.0,3308.0,3991.0,3343.0,3405.0,4095.0,-0.26,9.95,-0.56,0.01,0.11,-0.08,1.0,i
2930.0,912.0,2992.0,3309.0,4010.0,3343.0,3406.0,4095.0,-0.12,10.18,-0.86,-0.21,0.08,0.09,1.0,i
2935.0,924.0,3001.0,3310.0,4005.0,3344.0,3406.0,4095.0,-0.11,9.95,-0.62,-0.16,0.22,0.01,1.0,i
2934.0,926.0,2998.0,3306.0,4002.0,3335.0,3405.0,4095.0,-0.25,9.95,-0.56,-0.13,0.11,-0.01,1.0,i
2940.0,923.0,3001.0,3308.0,4011.0,3333.0,3403.0,4095.0,0.06,10.0,-0.49,-0.12,0.14,0.06,1.0,i
2934.0,931.0,3001.0,3298.0,4016.0,3338.0,3406.0,4095.0,0.13,10.05,-0.31,-0.06,0.16,-0.03,1.0,i
2944.0,929.0,2995.0,3295.0,4007.0,3328.0,3404.0,4095.0,-0.25,10.04,-0.48,-0.2,0.07,0.07,1.0,i
2933.0,926.0,3001.0,3285.0,3997.0,3322.0,3399.0,4095.0,0.26,10.05,-0.17,-0.07,-0.05,-0.05,1.0,i
2942.0,922.0,3001.0,3298.0,4013.0,3329.0,3409.0,4095.0,0.24,10.11,-0.27,-0.05,0.04,-0.05,1.0,i
2935.0,914.0,3005.0,3296.0,4015.0,3330.0,3411.0,4095.0,0.06,9.97,-0.34,-0.04,0.02,-0.01,1.0,i
2933.0,913.0,3006.0,3298.0,4016.0,3332.0,3399.0,4095.0,0.33,10.17,-0.39,0.02,-0.04,-0.06,1.0,i
2928.0,926.0,3002.0,3290.0,4007.0,3333.0,3408.0,4095.0,0.11,10.06,-0.43,-0.06,0.04,-0.09,1.0,i
2928.0,922.0,2996.0,3269.0,4007.0,3328.0,3398.0,4095.0,-0.45,9.94,-0.49,-0.1,0.12,0.04,1.0,i
2924.0,930.0,2996.0,3259.0,4001.0,3335.0,3403.0,4095.0,-0.08,10.02,-0.43,0.06,-0.07,-0.14,1.0,i
2934.0,932.0,3005.0,3264.0,4007.0,3340.0,3409.0,4095.0,0.12,10.01,-0.5,-0.11,0.1,0.06,1.0,i
2929.0,918.0,3002.0,3299.0,4016.0,3357.0,3430.0,4095.0,2.06,8.92,4.42,-0.21,-0.03,0.13,1.0,i
2923.0,922.0,3005.0,3293.0,4035.0,3360.0,3434.0,4095.0,2.6,9.08,4.24,-0.09,0.06,0.02,1.0,i
2928.0,919.0,2997.0,3295.0,4026.0,3357.0,3433.0,4095.0,1.96,9.01,4.24,-0.16,0.18,-0.0,1.0,i
2927.0,918.0,3003.0,3294.0,4016.0,3361.0,3440.0,4095.0,2.22,8.89,4.57,-0.09,-0.07,-0.04,1.0,i
2939.0,924.0,2995.0,3293.0,4032.0,3367.0,3443.0,4095.0,2.35,8.85,4.56,-0.09,0.06,0.01,1.0,i
2928.0,930.0,2998.0,3291.0,4021.0,3359.0,3440.0,4095.0,2.43,8.95,4.5,-0.06,-0.04,-0.0,1.0,i
2931.0,930.0,3003.0,3297.0,4033.0,3362.0,3445.0,4095.0,2.45,8.82,4.58,-0.11,0.01,-0.0,1.0,i
2933.0,918.0,3011.0,3299.0,4038.0,3361.0,3445.0,4095.0,2.23,8.82,4.62,-0.05,0.01,-0.04,1.0,i
2940.0,925.0,2993.0,3291.0,4031.0,3357.0,3443.0,4095.0,2.51,8.83,4.68,0.01,-0.04,-0.05,1.0,i
2929.0,925.0,2999.0,3299.0,4045.0,3365.0,3440.0,4095.0,2.5,8.94,4.37,0.0,0.02,-0.01,1.0,i
2935.0,926.0,3005.0,3303.0,4035.0,3363.0,3447.0,4095.0,2.4,9.01,4.22,-0.05,-0.02,-0.03,1.0,i
2928.0,925.0,2997.0,3295.0,4031.0,3358.0,3449.0,4095.0,2.27,8.88,4.39,-0.08,-0.0,-0.03,1.0,i
2933.0,919.0,3005.0,3291.0,4029.0,3360.0,3453.0,4095.0,2.21,8.88,4.41,-0.07,0.02,-0.04,1.0,i
2931.0,915.0,3006.0,3293.0,4031.0,3359.0,3447.0,4095.0,2.46,8.93,4.42,-0.03,-0.02,-0.05,1.0,i
2928.0,925.0,2999.0,3302.0,4045.0,3363.0,3457.0,4095.0,2.49,8.88,4.47,-0.06,-0.04,-0.05,1.0,i
2928.0,934.0,2994.0,3293.0,4026.0,3363.0,3454.0,4095.0,2.48,8.86,4.63,-0.1,-0.02,-0.06,1.0,i
2930.0,923.0,3008.0,3302.0,4048.0,3360.0,3454.0,4095.0,2.21,8.87,4.56,-0.06,0.04,-0.05,1.0,i
2929.0,923.0,3002.0,3298.0,4022.0,3369.0,3447.0,4095.0,2.35,8.93,4.41,0.01,0.0,-0.08,1.0,i
2924.0,927.0,3009.0,3299.0,4016.0,3367.0,3451.0,4095.0,2.38,8.99,4.29,-0.04,0.02,-0.02,1.0,i
2938.0,934.0,3011.0,3302.0,4036.0,3362.0,3451.0,4095.0,2.28,8.85,4.41,-0.09,0.0,-0.03,1.0,i
2939.0,931.0,3006.0,3291.0,4030.0,3373.0,3457.0,4095.0,-2.69,9.47,2.5,-0.06,0.19,-0.23,1.0,i
2934.0,923.0,3017.0,3301.0,4043.0,3371.0,3455.0,4095.0,-2.34,9.49,2.37,-0.11,0.03,-0.13,1.0,i
2940.0,927.0,3019.0,3295.0,4011.0,3363.0,3451.0,4095.0,-2.03,9.43,2.61,-0.14,-0.04,-0.11,1.0,i
2928.0,925.0,3011.0,3303.0,4035.0,3373.0,3455.0,4095.0,-1.93,9.4,2.93,-0.14,-0.01,-0.14,1.0,i
2934.0,918.0,3011.0,3305.0,4030.0,3367.0,3458.0,4095.0,-2.1,9.42,2.94,-0.12,0.07,-0.07,1.0,i
2939.0,929.0,3018.0,3303.0,4038.0,3375.0,3455.0,4095.0,-2.2,9.39,2.87,-0.1,0.04,-0.04,1.0,i
2928.0,927.0,3007.0,3297.0,4034.0,3371.0,3455.0,4095.0,-2.15,9.29,3.05,-0.11,0.02,-0.03,1.0,i
2928.0,927.0,3024.0,3307.0,4032.0,3366.0,3453.0,4095.0,-2.14,9.33,3.25,-0.09,-0.01,-0.03,1.0,i
2941.0,930.0,3019.0,3303.0,4041.0,3375.0,3451.0,4095.0,-2.2,9.41,3.03,-0.07,0.07,0.04,1.0,i
2935.0,927.0,3013.0,3297.0,4033.0,3370.0,3459.0,4095.0,-1.78,9.47,2.7,-0.06,0.15,0.06,1.0,i
2932.0,928.0,3012.0,3309.0,4035.0,3362.0,3447.0,4095.0,-1.8,9.41,2.85,-0.07,-0.02,-0.0,1.0,i
2942.0,928.0,3021.0,3306.0,4043.0,3371.0,3458.0,4095.0,-1.7,9.41,3.0,-0.1,-0.07,-0.02,1.0,i
2933.0,931.0,3014.0,3309.0,4031.0,3369.0,3447.0,4095.0,-1.82,9.43,3.11,-0.09,0.01,-0.02,1.0,i
2924.0,930.0,3019.0,3308.0,4030.0,3370.0,3447.0,4095.0,-1.68,9.47,2.93,-0.03,-0.01,-0.01,1.0,i
2933.0,938.0,3022.0,3307.0,4038.0,3373.0,3450.0,4095.0,-1.75,9.46,2.71,-0.05,0.04,-0.04,1.0,i
2935.0,921.0,3012.0,3298.0,4031.0,3371.0,3455.0,4095.0,-1.8,9.42,2.98,-0.06,-0.06,-0.06,1.0,i
2933.0,921.0,3028.0,3308.0,4031.0,3374.0,3455.0,4095.0,-1.86,9.43,3.14,-0.09,0.01,-0.04,1.0,i
2939.0,923.0,3015.0,3310.0,4039.0,3373.0,3450.0,4095.0,-1.92,9.45,2.97,-0.01,0.03,-0.04,1.0,i
2934.0,928.0,3025.0,3303.0,4034.0,3375.0,3458.0,4095.0,-1.85,9.57,2.58,-0.04,0.03,-0.03,1.0,i
2931.0,919.0,3018.0,3310.0,4033.0,3375.0,3453.0,4095.0,-1.88,9.43,2.88,-0.07,-0.02,-0.05,1.0,i
2939.0,924.0,3019.0,3330.0,3994.0,3381.0,3455.0,4095.0,-1.13,9.68,-1.69,-0.08,-0.01,-0.17,1.0,i
2939.0,924.0,3019.0,3330.0,3994.0,3381.0,3455.0,4095.0,-1.13,9.68,-1.69,-0.08,-0.01,-0.17,1.0,i
2928.0,930.0,3021.0,3325.0,3986.0,3378.0,3450.0,4095.0,-1.11,9.89,-1.93,-0.11,0.1,-0.12,1.0,i
2940.0,935.0,3020.0,3335.0,3997.0,3389.0,3462.0,4095.0,-1.16,9.81,-1.7,-0.12,-0.01,-0.05,1.0,i
2944.0,929.0,3023.0,3330.0,3987.0,3378.0,3452.0,4095.0,-0.82,9.83,-1.65,-0.11,0.07,0.0,1.0,i
2935.0,939.0,3024.0,3330.0,4000.0,3383.0,3449.0,4095.0,-1.06,9.68,-1.64,-0.17,0.17,0.07,1.0,i
2928.0,933.0,3021.0,3328.0,4003.0,3389.0,3467.0,4095.0,-0.75,9.86,-1.7,-0.05,0.01,0.02,1.0,i
2929.0,923.0,3025.0,3333.0,4003.0,3395.0,3461.0,4095.0,-0.41,9.85,-1.58,-0.07,0.02,-0.0,1.0,i
2934.0,932.0,3018.0,3335.0,4012.0,3391.0,3467.0,4095.0,-0.44,9.92,-1.69,-0.13,0.07,0.04,1.0,i
2934.0,929.0,3015.0,3333.0,4002.0,3389.0,3458.0,4095.0,-0.5,9.85,-1.57,-0.06,-0.01,-0.06,1.0,i
2930.0,931.0,3018.0,3329.0,3993.0,3386.0,3463.0,4095.0,-0.22,9.81,-1.53,-0.07,0.06,-0.06,1.0,i
2937.0,927.0,3011.0,3334.0,4002.0,3394.0,3462.0,4095.0,-0.62,9.9,-1.61,-0.12,0.04,-0.07,1.0,i
2935.0,932.0,3013.0,3339.0,4005.0,3392.0,3469.0,4095.0,-0.59,9.87,-1.5,-0.08,0.02,-0.08,1.0,i
2928.0,923.0,3012.0,3331.0,3997.0,3391.0,3470.0,4095.0,-0.57,9.82,-1.39,-0.1,0.07,-0.06,1.0,i
2938.0,929.0,3008.0,3330.0,4003.0,3394.0,3472.0,4095.0,-0.63,9.86,-1.55,-0.04,-0.0,-0.06,1.0,i
2934.0,927.0,3021.0,3330.0,4011.0,3395.0,3469.0,4095.0,-0.64,9.94,-1.81,-0.08,0.05,-0.03,1.0,i
2943.0,933.0,3020.0,3331.0,4010.0,3391.0,3465.0,4095.0,-0.62,9.85,-1.53,-0.06,-0.02,-0.03,1.0,i
2928.0,927.0,3009.0,3330.0,4002.0,3402.0,3471.0,4095.0,-0.53,10.01,-1.52,-0.07,-0.02,-0.04,1.0,i
2923.0,923.0,3004.0,3332.0,3996.0,3395.0,3470.0,4095.0,-0.47,9.79,-1.36,-0.05,0.04,-0.01,1.0,i
2928.0,924.0,3002.0,3329.0,4003.0,3392.0,3469.0,4095.0,-0.42,9.95,-1.66,-0.06,0.0,-0.02,1.0,i
2929.0,931.0,3009.0,3322.0,4032.0,3403.0,3502.0,4095.0,3.27,8.16,5.35,-0.05,0.09,-0.1,1.0,i
2933.0,925.0,3011.0,3323.0,4030.0,3399.0,3498.0,4095.0,3.22,8.45,4.85,0.0,0.03,-0.08,1.0,i
2929.0,928.0,3014.0,3328.0,4044.0,3406.0,3492.0,4095.0,3.0,8.3,4.85,-0.03,0.15,-0.06,1.0,i
2933.0,929.0,3007.0,3319.0,4031.0,3398.0,3495.0,4095.0,3.18,8.28,4.99,-0.04,-0.02,-0.04,1.0,i
2926.0,934.0,3007.0,3319.0,4035.0,3395.0,3494.0,4095.0,3.31,8.37,4.85,-0.02,0.02,0.01,1.0,i
2930.0,927.0,3018.0,3324.0,4039.0,3399.0,3495.0,4095.0,3.45,8.33,4.84,-0.02,0.07,-0.0,1.0,i
2934.0,931.0,3024.0,3328.0,4046.0,3408.0,3502.0,4095.0,3.39,8.38,4.7,-0.06,0.02,0.0,1.0,i
2930.0,930.0,2996.0,3318.0,4029.0,3401.0,3493.0,4095.0,3.59,8.37,4.83,-0.01,-0.0,-0.07,1.0,i
2927.0,928.0,3008.0,3324.0,4035.0,3406.0,3505.0,4095.0,3.5,8.36,4.83,-0.06,0.04,-0.06,1.0,i
2933.0,925.0,3018.0,3325.0,4029.0,3405.0,3504.0,4095.0,3.44,8.42,4.78,-0.04,0.04,-0.08,1.0,i
2928.0,925.0,3008.0,3327.0,4042.0,3403.0,3493.0,4095.0,3.0,8.33,4.81,-0.07,0.07,-0.06,1.0,i
2928.0,931.0,3011.0,3322.0,4036.0,3405.0,3498.0,4095.0,3.23,8.41,5.01,-0.01,-0.02,-0.04,1.0,i
2926.0,931.0,3013.0,3326.0,4036.0,3398.0,3495.0,4095.0,3.29,8.53,4.76,-0.03,0.05,-0.04,1.0,i
2928.0,922.0,3020.0,3325.0,4049.0,3399.0,3493.0,4095.0,3.43,8.34,4.86,-0.04,-0.04,-0.04,1.0,i
2932.0,928.0,3011.0,3325.0,4046.0,3405.0,3499.0,4095.0,3.36,8.46,4.75,-0.02,-0.0,-0.07,1.0,i
2929.0,929.0,3022.0,3326.0,4048.0,3407.0,3505.0,4095.0,3.12,8.32,4.81,-0.07,0.02,-0.08,1.0,i
2929.0,927.0,3017.0,3328.0,4046.0,3408.0,3493.0,4095.0,2.94,8.42,4.81,-0.08,0.01,-0.05,1.0,i
2928.0,935.0,3013.0,3319.0,4032.0,3399.0,3505.0,4095.0,3.08,8.46,4.87,-0.04,-0.0,-0.01,1.0,i
2929.0,927.0,3014.0,3325.0,4048.0,3410.0,3509.0,4095.0,3.3,8.49,4.78,-0.02,0.04,-0.02,1.0,i
2933.0,922.0,3020.0,3329.0,4048.0,3406.0,3496.0,4095.0,3.44,8.4,4.83,-0.07,-0.03,-0.02,1.0,i
2928.0,926.0,3017.0,3344.0,4038.0,3395.0,3499.0,4095.0,-2.43,7.85,5.79,-0.05,0.02,0.0,1.0,i
2928.0,927.0,3024.0,3346.0,4047.0,3408.0,3497.0,4095.0,-2.37,7.81,5.81,-0.05,0.02,-0.0,1.0,i
2939.0,934.0,3022.0,3349.0,4041.0,3408.0,3498.0,4095.0,-2.34,7.86,5.86,-0.06,0.01,-0.0,1.0,i
2930.0,922.0,3018.0,3354.0,4032.0,3402.0,3494.0,4095.0,-2.33,7.82,5.81,-0.05,-0.02,-0.02,1.0,i
2933.0,918.0,3012.0,3345.0,4035.0,3404.0,3504.0,4095.0,-2.33,7.85,5.85,-0.04,0.02,-0.04,1.0,i
2929.0,926.0,3019.0,3344.0,4036.0,3407.0,3499.0,4095.0,-2.45,7.85,5.81,-0.04,0.02,-0.04,1.0,i
2931.0,930.0,3018.0,3354.0,4049.0,3414.0,3491.0,4095.0,-2.48,7.81,5.79,-0.03,-0.01,-0.05,1.0,i
2925.0,918.0,3019.0,3354.0,4047.0,3408.0,3494.0,4095.0,-2.56,7.82,5.8,-0.04,0.0,-0.02,1.0,i
2934.0,924.0,3025.0,3357.0,4048.0,3413.0,3502.0,4095.0,-2.62,7.87,5.71,-0.06,-0.02,0.0,1.0,i
2922.0,931.0,3022.0,3347.0,4032.0,3409.0,3500.0,4095.0,-2.46,7.89,5.77,-0.06,-0.04,0.0,1.0,i
2930.0,929.0,3021.0,3355.0,4048.0,3413.0,3505.0,4095.0,-2.45,7.92,5.68,-0.08,0.0,0.03,1.0,i
2926.0,922.0,3015.0,3345.0,4049.0,3410.0,3501.0,4095.0,-2.31,7.93,5.76,-0.06,-0.02,0.0,1.0,i
2928.0,923.0,3020.0,3357.0,4031.0,3409.0,3498.0,4095.0,-2.26,7.83,5.8,-0.08,-0.0,-0.0,1.0,i
2935.0,923.0,3030.0,3356.0,4055.0,3415.0,3507.0,4095.0,-2.21,7.89,5.92,-0.07,-0.02,-0.01,1.0,i
2928.0,926.0,3027.0,3356.0,4043.0,3415.0,3504.0,4095.0,-2.24,7.91,5.9,-0.06,-0.0,-0.03,1.0,i
2941.0,923.0,3013.0,3354.0,4037.0,3408.0,3495.0,4095.0,-2.21,7.92,5.9,-0.05,-0.01,-0.03,1.0,i
2927.0,926.0,3021.0,3356.0,4026.0,3415.0,3503.0,4095.0,-2.32,7.94,5.8,-0.05,0.01,-0.04,1.0,i
2930.0,931.0,3024.0,3353.0,4048.0,3414.0,3503.0,4095.0,-2.24,7.88,5.84,-0.03,0.01,-0.05,1.0,i
2930.0,931.0,3024.0,3362.0,4046.0,3408.0,3503.0,4095.0,-2.24,7.93,5.69,-0.06,0.01,-0.05,1.0,i
2928.0,923.0,3021.0,3357.0,4035.0,3408.0,3503.0,4095.0,-2.33,7.91,5.81,-0.06,-0.02,-0.05,1.0,i
2926.0,918.0,3017.0,3361.0,4049.0,3421.0,3517.0,4095.0,0.96,9.95,-0.08,-0.02,-0.01,-0.07,1.0,i
2928.0,921.0,3014.0,3350.0,4054.0,3423.0,3521.0,4095.0,1.5,9.98,-0.03,-0.02,-0.04,-0.05,1.0,i
2933.0,928.0,3013.0,3361.0,4062.0,3428.0,3519.0,4095.0,1.49,10.01,-0.14,-0.07,0.05,-0.02,1.0,i
2928.0,926.0,3006.0,3356.0,4047.0,3417.0,3520.0,4095.0,1.69,10.04,-0.13,-0.06,-0.01,-0.03,1.0,i
2932.0,918.0,3013.0,3362.0,4057.0,3424.0,3513.0,4095.0,1.72,9.97,-0.09,-0.12,0.06,-0.02,1.0,i
2929.0,913.0,3014.0,3358.0,4050.0,3422.0,3526.0,4095.0,1.81,10.0,0.21,-0.1,0.01,-0.05,1.0,i
2928.0,923.0,3014.0,3366.0,4065.0,3413.0,3518.0,4095.0,1.84,9.97,0.3,-0.09,0.02,-0.05,1.0,i
2928.0,923.0,3019.0,3362.0,4063.0,3426.0,3525.0,4095.0,1.79,10.0,0.35,-0.04,-0.03,-0.07,1.0,i
2934.0,921.0,3013.0,3362.0,4054.0,3424.0,3519.0,4095.0,1.56,10.01,0.17,-0.03,-0.03,-0.04,1.0,i
2931.0,926.0,3017.0,3359.0,4059.0,3423.0,3531.0,4095.0,1.21,10.0,-0.0,-0.05,-0.02,-0.02,1.0,i
2930.0,927.0,3017.0,3354.0,4054.0,3415.0,3524.0,4095.0,1.44,9.98,0.02,-0.03,0.04,-0.01,1.0,i
2939.0,919.0,3015.0,3361.0,4058.0,3423.0,3529.0,4095.0,1.61,10.01,0.04,-0.07,0.01,0.02,1.0,i
2935.0,917.0,3021.0,3364.0,4038.0,3417.0,3520.0,4095.0,1.86,9.99,0.04,-0.06,-0.0,-0.01,1.0,i
2933.0,921.0,3024.0,3361.0,4065.0,3424.0,3527.0,4095.0,1.76,10.03,0.06,-0.09,0.07,-0.03,1.0,i
2935.0,918.0,3019.0,3364.0,4057.0,3416.0,3520.0,4095.0,1.68,10.03,0.15,-0.07,0.0,-0.04,1.0,i
2931.0,922.0,3018.0,3359.0,4053.0,3419.0,3522.0,4095.0,1.66,9.93,0.24,-0.06,0.02,-0.04,1.0,i
2932.0,914.0,3014.0,3357.0,4051.0,3418.0,3516.0,4095.0,1.56,9.92,0.14,-0.05,0.05,-0.02,1.0,i
2934.0,923.0,3014.0,3359.0,4048.0,3418.0,3531.0,4095.0,1.55,9.96,0.11,-0.06,0.01,-0.01,1.0,i
2927.0,921.0,3019.0,3356.0,4047.0,3415.0,3521.0,4095.0,1.64,9.98,0.12,-0.06,-0.02,-0.02,1.0,i
2928.0,926.0,3020.0,3355.0,4058.0,3418.0,3520.0,4095.0,1.71,9.94,0.2,-0.03,0.0,-0.05,1.0,i
2931.0,914.0,3019.0,3355.0,4082.0,3434.0,3536.0,4095.0,1.1,7.98,6.52,0.05,0.09,-0.02,1.0,i
2925.0,922.0,3018.0,3347.0,4060.0,3427.0,3531.0,4095.0,0.79,8.05,5.99,-0.02,0.11,-0.07,1.0,i
2933.0,930.0,3009.0,3351.0,4058.0,3424.0,3536.0,4095.0,0.68,7.98,6.09,-0.06,-0.05,-0.11,1.0,i
2946.0,922.0,3020.0,3357.0,4075.0,3435.0,3523.0,4095.0,0.45,7.91,6.16,-0.12,-0.02,-0.07,1.0,i
2931.0,922.0,3024.0,3355.0,4067.0,3435.0,3531.0,4095.0,0.53,7.95,6.44,-0.1,-0.05,-0.03,1.0,i
2930.0,916.0,3022.0,3351.0,4076.0,3434.0,3536.0,4095.0,0.79,7.96,6.53,-0.08,-0.06,0.01,1.0,i
2929.0,923.0,3015.0,3350.0,4064.0,3423.0,3526.0,4095.0,0.98,7.92,6.46,-0.04,0.01,-0.03,1.0,i
2935.0,928.0,3015.0,3350.0,4062.0,3423.0,3529.0,4095.0,0.96,7.84,6.77,-0.02,0.09,-0.03,1.0,i
2931.0,929.0,3025.0,3351.0,4080.0,3435.0,3522.0,4095.0,0.83,7.85,7.07,-0.02,0.82,0.09,1.0,i
2928.0,917.0,3022.0,3355.0,4071.0,3429.0,3533.0,4095.0,0.23,7.81,6.83,0.04,0.78,0.1,1.0,i
2942.0,917.0,3024.0,3355.0,4080.0,3421.0,3522.0,4095.0,0.2,7.87,6.28,0.16,0.1,-0.03,1.0,i
2934.0,917.0,3014.0,3346.0,4076.0,3430.0,3533.0,4095.0,0.51,8.1,5.94,0.12,-0.05,-0.07,1.0,i
2939.0,921.0,3004.0,3344.0,4063.0,3423.0,3523.0,4095.0,0.41,8.28,5.79,0.09,-0.09,-0.13,1.0,i
2943.0,925.0,3014.0,3359.0,4081.0,3418.0,3521.0,4095.0,0.36,8.17,5.89,0.07,-0.21,-0.11,1.0,i
2931.0,913.0,3015.0,3345.0,4066.0,3427.0,3530.0,4095.0,0.52,8.33,5.91,0.1,-0.14,-0.13,1.0,i
2931.0,926.0,3022.0,3345.0,4077.0,3435.0,3535.0,4095.0,0.36,8.28,5.85,0.06,-0.02,-0.13,1.0,i
2928.0,916.0,3021.0,3355.0,4080.0,3438.0,3532.0,4095.0,0.29,8.31,5.82,0.05,-0.04,-0.14,1.0,i
2925.0,918.0,3018.0,3349.0,4065.0,3431.0,3535.0,4095.0,0.14,8.33,5.54,-0.0,0.01,-0.11,1.0,i
2935.0,915.0,3024.0,3355.0,4079.0,3426.0,3520.0,4095.0,0.15,8.43,5.57,-0.06,-0.07,-0.07,1.0,i
2929.0,918.0,3023.0,3355.0,4076.0,3439.0,3531.0,4095.0,0.16,8.37,5.7,-0.09,-0.01,-0.03,1.0,i
2930.0,927.0,3019.0,3373.0,4069.0,3433.0,3520.0,4095.0,-3.81,8.22,4.29,-0.13,-0.04,-0.05,1.0,i
2928.0,919.0,3011.0,3365.0,4071.0,3434.0,3524.0,4095.0,-3.91,8.18,4.33,-0.13,-0.03,-0.03,1.0,i
2928.0,919.0,3015.0,3364.0,4059.0,3439.0,3536.0,4095.0,-3.9,8.14,4.37,-0.09,-0.03,0.0,1.0,i
2935.0,926.0,3017.0,3371.0,4071.0,3441.0,3535.0,4095.0,-3.83,8.22,4.3,-0.09,-0.02,0.03,1.0,i
2930.0,921.0,3019.0,3368.0,4078.0,3440.0,3533.0,4095.0,-3.68,8.26,4.23,-0.07,-0.02,0.03,1.0,i
2929.0,912.0,3021.0,3371.0,4077.0,3435.0,3522.0,4095.0,-3.6,8.26,4.19,-0.06,0.01,0.01,1.0,i
2933.0,914.0,3017.0,3366.0,4065.0,3440.0,3526.0,4095.0,-3.65,8.25,4.27,-0.08,-0.01,-0.01,1.0,i
2933.0,918.0,3021.0,3371.0,4061.0,3435.0,3523.0,4095.0,-3.62,8.22,4.29,-0.07,0.02,-0.02,1.0,i
2945.0,923.0,3025.0,3375.0,4082.0,3439.0,3526.0,4095.0,-3.84,8.26,4.37,-0.05,0.05,-0.01,1.0,i
2937.0,917.0,3010.0,3374.0,4061.0,3435.0,3533.0,4095.0,-3.87,8.18,4.39,-0.06,-0.03,0.01,1.0,i
2931.0,923.0,3023.0,3373.0,4078.0,3439.0,3523.0,4095.0,-3.68,8.28,4.24,-0.04,-0.01,0.05,1.0,i
2938.0,912.0,3019.0,3374.0,4079.0,3438.0,3534.0,4095.0,-3.46,8.35,4.14,-0.05,-0.01,0.04,1.0,i
2928.0,919.0,3027.0,3369.0,4078.0,3440.0,3531.0,4095.0,-3.46,8.38,4.05,-0.07,0.02,0.03,1.0,i
2939.0,917.0,3021.0,3374.0,4074.0,3440.0,3535.0,4095.0,-3.44,8.32,4.17,-0.1,-0.02,0.01,1.0,i
2930.0,913.0,3018.0,3371.0,4067.0,3435.0,3531.0,4095.0,-3.4,8.35,4.29,-0.1,-0.01,-0.01,1.0,i
2927.0,921.0,3017.0,3371.0,4067.0,3438.0,3529.0,4095.0,-3.39,8.29,4.39,-0.1,0.0,-0.02,1.0,i
2933.0,911.0,3018.0,3371.0,4075.0,3436.0,3534.0,4095.0,-3.4,8.29,4.48,-0.08,-0.02,-0.03,1.0,i
2929.0,915.0,3015.0,3369.0,4058.0,3429.0,3524.0,4095.0,-3.38,8.3,4.48,-0.07,-0.04,-0.02,1.0,i
2935.0,913.0,3022.0,3373.0,4062.0,3429.0,3521.0,4095.0,-3.41,8.35,4.38,-0.05,-0.03,-0.02,1.0,i
2931.0,927.0,3012.0,3365.0,4066.0,3434.0,3527.0,4095.0,-3.38,8.35,4.39,-0.03,-0.0,-0.03,1.0,i
2941.0,912.0,3023.0,3373.0,4075.0,3427.0,3546.0,4095.0,3.64,8.7,3.73,-0.03,-0.01,-0.03,1.0,i
2925.0,907.0,3014.0,3370.0,4080.0,3434.0,3538.0,4095.0,3.9,8.7,3.8,-0.08,-0.01,-0.0,1.0,i
2933.0,930.0,3023.0,3370.0,4079.0,3434.0,3543.0,4095.0,4.02,8.69,3.75,-0.05,0.01,-0.01,1.0,i
2937.0,917.0,3027.0,3370.0,4081.0,3437.0,3546.0,4095.0,4.16,8.7,3.67,-0.06,-0.0,-0.06,1.0,i
2927.0,925.0,3014.0,3365.0,4073.0,3426.0,3542.0,4095.0,4.08,8.72,3.72,-0.08,-0.01,-0.08,1.0,i
2929.0,925.0,3021.0,3375.0,4079.0,3434.0,3537.0,4095.0,3.96,8.69,3.78,-0.06,-0.03,-0.12,1.0,i
2934.0,912.0,3020.0,3366.0,4068.0,3431.0,3543.0,4095.0,3.89,8.66,3.9,-0.07,-0.03,-0.13,1.0,i
2934.0,912.0,3019.0,3374.0,4080.0,3440.0,3543.0,4095.0,3.85,8.77,3.75,-0.05,-0.01,-0.16,1.0,i
2928.0,921.0,3016.0,3375.0,4076.0,3430.0,3538.0,4095.0,3.53,8.74,3.56,-0.07,0.06,-0.12,1.0,i
2937.0,923.0,3024.0,3372.0,4083.0,3433.0,3549.0,4095.0,3.42,8.84,3.52,-0.07,-0.02,-0.1,1.0,i
2928.0,922.0,3009.0,3371.0,4080.0,3442.0,3555.0,4095.0,3.56,8.84,3.61,-0.12,0.01,-0.01,1.0,i
2928.0,929.0,3014.0,3364.0,4068.0,3431.0,3541.0,4095.0,3.7,8.9,3.68,-0.13,0.01,-0.06,1.0,i
2937.0,915.0,3011.0,3373.0,4083.0,3440.0,3536.0,4095.0,3.61,8.61,4.0,-0.21,0.01,-0.06,1.0,i
2931.0,917.0,3028.0,3371.0,4095.0,3440.0,3558.0,4095.0,3.61,8.58,4.22,-0.18,0.03,-0.02,1.0,i
2935.0,913.0,3011.0,3362.0,4063.0,3437.0,3543.0,4095.0,3.75,8.62,4.21,-0.09,-0.01,-0.03,1.0,i
2919.0,918.0,3006.0,3365.0,4073.0,3439.0,3554.0,4095.0,3.83,8.74,4.04,-0.05,-0.02,-0.07,1.0,i
2932.0,914.0,3011.0,3371.0,4085.0,3440.0,3554.0,4095.0,3.68,8.73,3.96,-0.07,0.03,-0.12,1.0,i
2941.0,919.0,3013.0,3370.0,4083.0,3440.0,3552.0,4095.0,3.48,8.63,4.0,-0.1,-0.01,-0.12,1.0,i
2934.0,928.0,3013.0,3363.0,4091.0,3439.0,3540.0,4095.0,3.58,8.67,4.04,-0.07,0.01,-0.06,1.0,i
2934.0,912.0,3008.0,3361.0,4093.0,3440.0,3553.0,4095.0,3.63,8.76,3.89,-0.05,0.01,-0.02,1.0,i
2930.0,901.0,2976.0,3371.0,4022.0,3355.0,3467.0,4095.0,2.39,8.86,4.32,-0.11,0.12,0.01,1.0,i
2929.0,910.0,2983.0,3375.0,4022.0,3359.0,3463.0,4095.0,2.43,9.0,4.19,-0.01,-0.02,-0.04,1.0,i
2928.0,909.0,2991.0,3375.0,4022.0,3361.0,3468.0,4095.0,2.23,8.94,4.21,-0.06,0.03,-0.07,1.0,i
2937.0,915.0,2987.0,3378.0,4047.0,3367.0,3472.0,4095.0,2.21,9.02,4.12,-0.05,0.01,-0.01,1.0,i
2933.0,911.0,2995.0,3377.0,4045.0,3372.0,3475.0,4095.0,2.16,9.0,4.09,-0.13,0.16,0.09,1.0,i
2928.0,906.0,2992.0,3376.0,4030.0,3370.0,3472.0,4095.0,2.51,9.15,4.04,-0.02,-0.07,-0.05,1.0,i
2933.0,900.0,2992.0,3376.0,4043.0,3375.0,3473.0,4095.0,2.44,8.89,4.33,-0.09,0.05,-0.06,1.0,i
2929.0,912.0,2992.0,3376.0,4021.0,3370.0,3472.0,4095.0,2.17,8.86,4.3,-0.08,0.07,-0.05,1.0,i
2928.0,912.0,2997.0,3380.0,4043.0,3373.0,3473.0,4095.0,2.49,9.0,4.16,-0.09,0.11,0.05,1.0,i
2934.0,906.0,2979.0,3381.0,4029.0,3365.0,3469.0,4095.0,2.35,9.11,4.14,-0.08,0.17,0.01,1.0,i
2933.0,912.0,2989.0,3379.0,4048.0,3375.0,3477.0,4095.0,2.49,9.0,4.4,-0.04,-0.06,-0.06,1.0,i
2931.0,912.0,2991.0,3383.0,4037.0,3363.0,3468.0,4095.0,2.37,8.91,4.47,-0.12,0.02,-0.01,1.0,i
2934.0,903.0,2993.0,3377.0,4045.0,3376.0,3475.0,4095.0,2.5,8.89,4.43,0.0,-0.04,-0.09,1.0,i
2938.0,906.0,2995.0,3386.0,4048.0,3375.0,3472.0,4095.0,2.38,9.08,4.09,-0.05,0.02,-0.02,1.0,i
2939.0,906.0,2989.0,3371.0,4042.0,3372.0,3471.0,4095.0,2.32,8.92,4.35,-0.03,0.01,-0.1,1.0,i
2935.0,906.0,2992.0,3383.0,4045.0,3376.0,3479.0,4095.0,2.09,9.01,4.29,-0.06,0.01,-0.08,1.0,i
2939.0,906.0,2994.0,3383.0,4047.0,3375.0,3473.0,4095.0,2.16,8.88,4.35,-0.01,0.01,-0.01,1.0,i
2939.0,907.0,2993.0,3374.0,4043.0,3375.0,3482.0,4095.0,2.48,9.03,4.08,-0.08,0.07,0.03,1.0,i
2933.0,909.0,2997.0,3376.0,4035.0,3375.0,3472.0,4095.0,2.55,9.02,4.24,-0.01,-0.04,-0.07,1.0,i
2928.0,910.0,2990.0,3369.0,4035.0,3375.0,3478.0,4095.0,2.43,8.84,4.59,-0.06,-0.01,-0.09,1.0,i
2928.0,907.0,2992.0,3362.0,4030.0,3377.0,3474.0,4095.0,-2.03,9.86,0.82,0.03,0.13,-0.29,1.0,i
2926.0,901.0,2994.0,3366.0,4033.0,3390.0,3473.0,4095.0,-1.69,10.07,0.79,-0.07,0.04,-0.22,1.0,i
2928.0,900.0,3002.0,3370.0,4021.0,3386.0,3478.0,4095.0,-1.79,9.89,1.3,-0.21,0.33,-0.04,1.0,i
2931.0,907.0,2999.0,3376.0,4038.0,3388.0,3488.0,4095.0,-1.29,9.73,2.06,-0.2,0.01,0.01,1.0,i
2933.0,905.0,2991.0,3379.0,4032.0,3381.0,3477.0,4095.0,-0.88,9.75,2.38,-0.18,0.17,0.03,1.0,i
2930.0,911.0,2993.0,3378.0,4038.0,3387.0,3472.0,4095.0,-0.98,9.73,2.52,-0.15,0.07,0.06,1.0,i
2925.0,896.0,2992.0,3376.0,4043.0,3387.0,3485.0,4095.0,-0.5,9.76,2.41,-0.09,0.05,0.02,1.0,i
2931.0,900.0,2992.0,3374.0,4031.0,3376.0,3479.0,4095.0,-0.62,9.74,2.33,-0.06,0.23,0.03,1.0,i
2931.0,908.0,2994.0,3376.0,4037.0,3385.0,3474.0,4095.0,-0.73,9.79,2.17,-0.03,0.12,-0.04,1.0,i
2938.0,912.0,3007.0,3379.0,4048.0,3392.0,3476.0,4095.0,-0.82,9.77,2.24,-0.1,0.08,-0.04,1.0,i
2925.0,910.0,2989.0,3376.0,4037.0,3381.0,3478.0,4095.0,-1.01,9.8,2.0,-0.06,0.06,-0.01,1.0,i
2938.0,901.0,3001.0,3379.0,4050.0,3392.0,3489.0,4095.0,-0.88,9.91,1.98,-0.02,-0.01,-0.08,1.0,i
2930.0,899.0,2992.0,3376.0,4019.0,3386.0,3475.0,4095.0,-0.73,9.84,2.08,-0.04,0.06,-0.04,1.0,i
2944.0,896.0,2998.0,3378.0,4036.0,3392.0,3484.0,4095.0,-0.81,9.79,2.08,-0.11,0.07,-0.02,1.0,i
2940.0,903.0,2996.0,3374.0,4033.0,3380.0,3481.0,4095.0,-0.91,9.74,2.24,-0.06,-0.0,-0.05,1.0,i
2930.0,904.0,3008.0,3376.0,4051.0,3392.0,3488.0,4095.0,-0.93,9.86,2.0,-0.08,0.09,0.0,1.0,i
2937.0,909.0,2992.0,3383.0,4053.0,3391.0,3490.0,4095.0,-0.92,9.77,2.08,-0.09,-0.01,0.01,1.0,i
2931.0,897.0,2993.0,3378.0,4026.0,3378.0,3475.0,4095.0,-0.56,9.82,2.11,-0.05,-0.03,-0.04,1.0,i
2929.0,902.0,3003.0,3374.0,4043.0,3390.0,3490.0,4095.0,-0.74,9.83,2.12,-0.12,0.03,-0.03,1.0,i
2928.0,909.0,3010.0,3376.0,4045.0,3394.0,3491.0,4095.0,-0.71,9.81,2.04,-0.01,0.02,-0.1,1.0,i
2934.0,901.0,3008.0,3380.0,4059.0,3394.0,3507.0,4095.0,3.88,9.22,2.37,-0.09,0.07,0.03,1.0,i
2939.0,909.0,3002.0,3389.0,4065.0,3402.0,3505.0,4095.0,3.59,9.14,2.42,-0.08,0.01,0.02,1.0,i
2934.0,900.0,2995.0,3381.0,4050.0,3398.0,3501.0,4095.0,3.74,9.07,2.65,-0.08,0.01,-0.01,1.0,i
2939.0,903.0,3002.0,3385.0,4051.0,3395.0,3504.0,4095.0,3.81,9.05,2.72,-0.09,0.04,0.01,1.0,i
2929.0,910.0,2992.0,3373.0,4037.0,3395.0,3501.0,4095.0,3.9,9.08,2.67,-0.09,0.02,0.0,1.0,i
2928.0,901.0,2992.0,3373.0,4048.0,3399.0,3503.0,4095.0,3.96,9.12,2.71,-0.09,0.1,0.01,1.0,i
2929.0,898.0,2995.0,3381.0,4048.0,3399.0,3492.0,4095.0,3.82,9.03,2.83,-0.05,-0.04,-0.04,1.0,i
2919.0,911.0,2992.0,3376.0,4046.0,3397.0,3498.0,4095.0,4.0,9.04,2.88,-0.09,0.01,-0.03,1.0,i
2929.0,910.0,3001.0,3379.0,4048.0,3405.0,3513.0,4095.0,3.87,9.07,2.83,-0.06,0.03,-0.01,1.0,i
2933.0,906.0,2992.0,3376.0,4049.0,3405.0,3506.0,4095.0,3.83,8.99,2.79,-0.1,0.04,0.01,1.0,i
2929.0,907.0,3002.0,3378.0,4052.0,3395.0,3498.0,4095.0,3.87,9.05,2.79,-0.12,0.07,0.05,1.0,i
2939.0,903.0,3008.0,3379.0,4047.0,3399.0,3507.0,4095.0,4.11,8.96,3.01,-0.04,0.02,-0.05,1.0,i
2929.0,903.0,2998.0,3367.0,4035.0,3404.0,3504.0,4095.0,3.97,9.01,2.84,-0.09,0.04,-0.03,1.0,i
2928.0,901.0,2999.0,3374.0,4048.0,3408.0,3510.0,4095.0,3.83,9.04,2.8,-0.06,0.06,-0.03,1.0,i
2928.0,909.0,3008.0,3375.0,4047.0,3408.0,3504.0,4095.0,3.86,8.9,3.07,-0.11,-0.0,0.01,1.0,i
2931.0,901.0,3005.0,3375.0,4054.0,3409.0,3503.0,4095.0,3.94,8.99,3.0,-0.08,-0.01,-0.05,1.0,i
2931.0,906.0,2999.0,3377.0,4069.0,3407.0,3510.0,4095.0,3.89,8.91,3.01,-0.04,0.03,-0.06,1.0,i
2934.0,911.0,3005.0,3376.0,4050.0,3408.0,3504.0,4095.0,4.03,9.08,2.77,-0.06,0.04,-0.0,1.0,i
2931.0,902.0,3003.0,3371.0,4047.0,3403.0,3514.0,4095.0,4.07,8.94,2.92,-0.05,0.02,-0.03,1.0,i
2927.0,911.0,2997.0,3367.0,4041.0,3403.0,3505.0,4095.0,4.35,9.02,2.95,-0.07,0.09,-0.11,1.0,i
2948.0,909.0,3002.0,3377.0,4061.0,3408.0,3522.0,4095.0,1.21,8.54,5.57,-0.16,0.05,-0.07,1.0,i
2929.0,901.0,2998.0,3378.0,4066.0,3408.0,3519.0,4095.0,1.26,8.64,5.4,-0.11,0.08,-0.08,1.0,i
2929.0,904.0,2992.0,3389.0,4065.0,3408.0,3520.0,4095.0,1.3,8.52,5.55,-0.11,0.05,-0.11,1.0,i
2926.0,908.0,3005.0,3378.0,4061.0,3406.0,3522.0,4095.0,0.93,8.51,5.62,-0.14,0.02,-0.1,1.0,i
2929.0,902.0,2999.0,3389.0,4055.0,3407.0,3514.0,4095.0,0.79,8.43,5.84,-0.09,-0.03,-0.1,1.0,i
2928.0,898.0,3009.0,3376.0,4061.0,3403.0,3507.0,4095.0,0.87,8.41,5.93,-0.02,0.0,-0.08,1.0,i
2933.0,894.0,2997.0,3389.0,4067.0,3399.0,3509.0,4095.0,0.74,8.51,5.56,0.01,-0.01,-0.05,1.0,i
2927.0,905.0,2993.0,3388.0,4063.0,3408.0,3529.0,4095.0,1.12,8.54,5.47,0.05,-0.03,-0.07,1.0,i
2922.0,897.0,3008.0,3389.0,4061.0,3403.0,3504.0,4095.0,1.04,8.72,5.18,-0.01,0.04,-0.04,1.0,i
2928.0,897.0,3008.0,3389.0,4067.0,3408.0,3507.0,4095.0,1.07,8.62,5.23,-0.03,0.0,-0.07,1.0,i
2938.0,902.0,3008.0,3386.0,4047.0,3405.0,3519.0,4095.0,0.85,8.63,5.28,-0.09,0.03,-0.06,1.0,i
2931.0,905.0,3007.0,3381.0,4059.0,3406.0,3510.0,4095.0,0.8,8.6,5.37,-0.05,-0.0,-0.07,1.0,i
2929.0,895.0,3003.0,3392.0,4066.0,3410.0,3516.0,4095.0,0.79,8.57,5.46,-0.07,0.02,-0.05,1.0,i
2925.0,901.0,3013.0,3391.0,4059.0,3408.0,3512.0,4095.0,0.75,8.58,5.46,-0.08,0.0,-0.01,1.0,i
2938.0,893.0,3005.0,3382.0,4048.0,3406.0,3511.0,4095.0,0.85,8.56,5.49,-0.07,0.02,0.01,1.0,i
2934.0,910.0,2996.0,3378.0,4063.0,3410.0,3520.0,4095.0,0.89,8.6,5.42,-0.02,0.02,-0.03,1.0,i
2941.0,912.0,2992.0,3386.0,4063.0,3409.0,3520.0,4095.0,0.9,8.55,5.45,-0.1,0.0,-0.01,1.0,i
2934.0,896.0,2995.0,3383.0,4051.0,3411.0,3519.0,4095.0,0.98,8.54,5.53,-0.07,-0.01,-0.02,1.0,i
2934.0,912.0,3008.0,3378.0,4041.0,3407.0,3509.0,4095.0,1.06,8.61,5.47,-0.08,0.0,-0.01,1.0,i
2938.0,903.0,3001.0,3381.0,4048.0,3408.0,3514.0,4095.0,1.06,8.61,5.43,-0.05,0.02,-0.02,1.0,i
2928.0,894.0,3008.0,3394.0,4048.0,3407.0,3518.0,4095.0,0.61,10.1,0.55,0.18,-0.09,-0.15,1.0,i
2932.0,896.0,3003.0,3385.0,4049.0,3407.0,3521.0,4095.0,0.44,10.23,0.3,0.0,-0.01,-0.06,1.0,i
2942.0,904.0,2999.0,3395.0,4043.0,3410.0,3519.0,4095.0,0.38,10.11,0.72,-0.15,0.04,-0.0,1.0,i
2928.0,896.0,3008.0,3397.0,4061.0,3410.0,3519.0,4095.0,0.54,10.09,1.22,-0.22,-0.05,0.0,1.0,i
2933.0,903.0,3009.0,3391.0,4049.0,3408.0,3520.0,4095.0,0.67,9.98,1.67,-0.22,0.1,0.05,1.0,i
2930.0,902.0,3003.0,3393.0,4049.0,3415.0,3525.0,4095.0,0.44,9.83,1.91,-0.22,0.25,0.13,1.0,i
2928.0,897.0,3008.0,3389.0,4045.0,3405.0,3514.0,4095.0,0.94,9.86,2.06,-0.09,-0.05,0.06,1.0,i
2922.0,903.0,3002.0,3395.0,4066.0,3411.0,3523.0,4095.0,1.15,9.87,2.03,-0.13,0.06,0.11,1.0,i
2937.0,896.0,3008.0,3395.0,4059.0,3413.0,3524.0,4095.0,1.35,9.95,1.9,-0.02,0.08,0.0,1.0,i
2928.0,907.0,3005.0,3389.0,4054.0,3412.0,3522.0,4095.0,1.2,9.95,1.67,-0.08,-0.02,-0.06,1.0,i
2931.0,905.0,3007.0,3395.0,4061.0,3412.0,3522.0,4095.0,1.11,9.9,1.8,-0.13,0.01,-0.02,1.0,i
2934.0,902.0,3010.0,3391.0,4049.0,3412.0,3514.0,4095.0,1.02,9.91,1.94,-0.09,0.01,-0.04,1.0,i
2939.0,902.0,3005.0,3391.0,4053.0,3409.0,3515.0,4095.0,0.98,9.81,1.95,-0.08,0.02,-0.05,1.0,i
2931.0,901.0,3008.0,3405.0,4061.0,3417.0,3532.0,4095.0,0.88,9.89,1.76,-0.09,0.04,-0.01,1.0,i
2941.0,895.0,3006.0,3398.0,4048.0,3412.0,3527.0,4095.0,0.94,9.8,1.95,-0.11,0.04,0.02,1.0,i
2925.0,899.0,3008.0,3392.0,4048.0,3409.0,3521.0,4095.0,1.07,9.88,1.99,-0.09,-0.0,-0.01,1.0,i
2935.0,899.0,3002.0,3397.0,4063.0,3413.0,3524.0,4095.0,1.19,9.84,2.11,-0.06,0.04,-0.04,1.0,i
2935.0,898.0,3005.0,3395.0,4043.0,3423.0,3523.0,4095.0,1.13,9.95,1.89,-0.07,0.04,-0.03,1.0,i
2928.0,903.0,3008.0,3395.0,4053.0,3417.0,3522.0,4095.0,1.0,9.91,1.86,-0.09,0.04,-0.01,1.0,i
2938.0,907.0,3003.0,3388.0,4048.0,3416.0,3521.0,4095.0,1.2,9.92,1.98,-0.05,0.04,-0.03,1.0,i
2938.0,896.0,3009.0,3392.0,4052.0,3413.0,3519.0,4095.0,3.86,9.7,1.68,-0.09,0.02,0.12,1.0,i
2935.0,902.0,3023.0,3397.0,4048.0,3411.0,3529.0,4095.0,3.66,9.8,1.71,-0.13,-0.05,-0.09,1.0,i
2939.0,898.0,3007.0,3390.0,4058.0,3422.0,3529.0,4095.0,2.82,9.67,1.78,-0.17,0.04,-0.19,1.0,i
2934.0,905.0,3004.0,3398.0,4061.0,3421.0,3531.0,4095.0,2.25,9.6,1.94,-0.18,-0.12,-0.18,1.0,i
2928.0,903.0,3011.0,3394.0,4061.0,3414.0,3530.0,4095.0,2.3,9.63,2.14,-0.18,-0.02,-0.12,1.0,i
2928.0,902.0,3017.0,3394.0,4057.0,3417.0,3522.0,4095.0,2.17,9.64,2.28,-0.11,-0.0,-0.1,1.0,i
2932.0,897.0,3018.0,3393.0,4049.0,3411.0,3520.0,4095.0,2.06,9.64,2.12,-0.09,0.04,-0.06,1.0,i
2939.0,905.0,3009.0,3395.0,4071.0,3421.0,3536.0,4095.0,2.29,9.68,1.94,-0.11,0.0,-0.01,1.0,i
2932.0,907.0,3013.0,3398.0,4058.0,3414.0,3520.0,4095.0,2.55,9.68,1.98,-0.13,0.03,0.01,1.0,i
2941.0,899.0,3007.0,3395.0,4061.0,3417.0,3532.0,4095.0,2.52,9.63,2.39,-0.11,-0.02,-0.05,1.0,i
2932.0,908.0,3005.0,3394.0,4063.0,3419.0,3533.0,4095.0,2.45,9.57,2.52,-0.08,0.01,-0.06,1.0,i
2931.0,910.0,3019.0,3393.0,4065.0,3418.0,3523.0,4095.0,2.27,9.54,2.44,-0.02,-0.02,-0.03,1.0,i
2928.0,899.0,3007.0,3392.0,4053.0,3414.0,3535.0,4095.0,2.48,9.69,2.21,-0.08,0.0,-0.01,1.0,i
2940.0,910.0,3008.0,3398.0,4062.0,3422.0,3535.0,4095.0,2.39,9.65,2.09,-0.1,0.05,0.02,1.0,i
2934.0,900.0,3008.0,3390.0,4055.0,3412.0,3527.0,4095.0,2.4,9.58,2.18,-0.1,0.03,0.0,1.0,i
2929.0,895.0,3010.0,3391.0,4059.0,3422.0,3538.0,4095.0,2.52,9.66,2.17,-0.08,0.01,-0.02,1.0,i
2943.0,896.0,3005.0,3391.0,4064.0,3427.0,3536.0,4095.0,2.5,9.62,2.31,-0.07,0.01,-0.02,1.0,i
2939.0,909.0,3003.0,3397.0,4075.0,3427.0,3539.0,4095.0,2.29,9.59,2.26,-0.1,0.02,0.02,1.0,i
2934.0,899.0,3011.0,3392.0,4060.0,3425.0,3542.0,4095.0,2.74,9.63,2.35,-0.06,-0.0,-0.01,1.0,i
2932.0,896.0,3007.0,3399.0,4058.0,3415.0,3534.0,4095.0,2.83,9.59,2.45,-0.08,-0.02,-0.05,1.0,i
2933.0,898.0,3015.0,3394.0,4069.0,3427.0,3530.0,4095.0,1.4,9.18,4.02,-0.33,0.04,-0.23,1.0,i
2937.0,893.0,3019.0,3386.0,4055.0,3421.0,3536.0,4095.0,1.41,9.32,3.84,-0.28,0.04,-0.18,1.0,i
2935.0,902.0,3003.0,3392.0,4077.0,3425.0,3539.0,4095.0,1.39,9.27,3.94,-0.26,0.03,-0.15,1.0,i
2934.0,910.0,3015.0,3387.0,4065.0,3423.0,3535.0,4095.0,1.26,9.14,4.26,-0.2,-0.06,-0.12,1.0,i
2943.0,910.0,3005.0,3396.0,4080.0,3431.0,3540.0,4095.0,1.27,9.23,4.15,-0.17,-0.01,-0.09,1.0,i
2941.0,893.0,3010.0,3392.0,4063.0,3425.0,3536.0,4095.0,1.2,9.17,4.35,-0.11,-0.01,-0.05,1.0,i
2931.0,906.0,3012.0,3392.0,4070.0,3426.0,3535.0,4095.0,1.32,9.21,4.15,-0.05,0.03,-0.04,1.0,i
2928.0,899.0,3023.0,3391.0,4071.0,3423.0,3530.0,4095.0,1.52,9.27,4.01,-0.04,0.06,-0.02,1.0,i
2933.0,902.0,3022.0,3385.0,4066.0,3423.0,3537.0,4095.0,1.51,9.34,3.73,-0.07,-0.0,-0.06,1.0,i
2935.0,899.0,3011.0,3389.0,4070.0,3425.0,3541.0,4095.0,1.44,9.23,3.88,-0.09,0.01,-0.03,1.0,i
2927.0,900.0,3006.0,3397.0,4066.0,3435.0,3543.0,4095.0,1.24,9.21,4.0,-0.1,0.01,-0.02,1.0,i
2934.0,904.0,3017.0,3394.0,4051.0,3426.0,3537.0,4095.0,1.45,9.26,4.01,-0.05,-0.02,-0.03,1.0,i
2931.0,899.0,3009.0,3391.0,4069.0,3426.0,3548.0,4095.0,1.45,9.32,3.76,-0.09,0.06,0.01,1.0,i
2931.0,897.0,3018.0,3391.0,4070.0,3427.0,3536.0,4095.0,1.53,9.29,3.92,-0.07,-0.05,-0.05,1.0,i
2939.0,896.0,3010.0,3389.0,4068.0,3430.0,3540.0,4095.0,1.56,9.24,4.0,-0.11,0.05,-0.03,1.0,i
2931.0,909.0,3022.0,3390.0,4063.0,3436.0,3546.0,4095.0,1.46,9.16,4.25,-0.11,0.01,-0.07,1.0,i
2928.0,895.0,3015.0,3390.0,4053.0,3422.0,3539.0,4095.0,1.43,9.21,4.24,-0.06,-0.03,-0.06,1.0,i
2927.0,899.0,3006.0,3392.0,4078.0,3437.0,3546.0,4095.0,1.44,9.24,4.05,-0.04,0.05,-0.03,1.0,i
2928.0,898.0,3019.0,3391.0,4057.0,3423.0,3534.0,4095.0,1.37,9.26,3.85,0.0,0.04,-0.04,1.0,i
2944.0,906.0,3012.0,3391.0,4059.0,3423.0,3539.0,4095.0,1.38,9.32,3.85,-0.07,0.05,-0.03,1.0,i
2933.0,900.0,2993.0,3349.0,4055.0,3440.0,3519.0,4095.0,-2.35,9.76,1.18,-0.17,-0.02,-0.53,1.0,i
2931.0,901.0,2994.0,3358.0,4045.0,3439.0,3509.0,4095.0,-2.59,9.73,1.36,-0.23,-0.08,-0.31,1.0,i
2938.0,899.0,2996.0,3348.0,4043.0,3439.0,3514.0,4095.0,-2.7,9.72,1.48,-0.19,0.08,-0.19,1.0,i
2927.0,906.0,3006.0,3357.0,4034.0,3437.0,3509.0,4095.0,-2.36,9.65,1.72,-0.23,0.05,-0.01,1.0,i
2941.0,899.0,2999.0,3353.0,4035.0,3435.0,3522.0,4095.0,-1.88,9.76,1.84,-0.2,0.11,0.07,1.0,i
2934.0,898.0,2998.0,3363.0,4051.0,3439.0,3522.0,4095.0,-1.87,9.61,1.98,-0.22,0.2,0.15,1.0,i
2929.0,899.0,2999.0,3353.0,4047.0,3431.0,3522.0,4095.0,-1.33,9.78,2.18,-0.2,-0.01,0.15,1.0,i
2930.0,897.0,2999.0,3366.0,4051.0,3437.0,3521.0,4095.0,-1.03,9.68,2.42,-0.19,0.1,0.17,1.0,i
2947.0,903.0,2992.0,3366.0,4045.0,3440.0,3524.0,4095.0,-0.9,9.8,2.32,-0.06,-0.03,0.07,1.0,i
2924.0,912.0,2993.0,3366.0,4055.0,3440.0,3530.0,4095.0,-1.0,9.77,1.96,-0.08,0.09,0.04,1.0,i
2938.0,909.0,2997.0,3366.0,4054.0,3438.0,3529.0,4095.0,-1.0,9.79,1.95,-0.11,-0.01,0.0,1.0,i
2932.0,904.0,3005.0,3362.0,4048.0,3434.0,3520.0,4095.0,-1.05,9.78,2.23,-0.13,0.01,-0.0,1.0,i
2933.0,899.0,2993.0,3373.0,4051.0,3442.0,3520.0,4095.0,-1.09,9.67,2.41,-0.09,0.02,0.01,1.0,i
2927.0,901.0,3002.0,3371.0,4052.0,3440.0,3523.0,4095.0,-0.96,9.75,2.32,-0.06,-0.01,-0.02,1.0,i
2928.0,903.0,3002.0,3373.0,4063.0,3440.0,3524.0,4095.0,-0.94,9.81,2.13,-0.05,0.02,-0.03,1.0,i
2931.0,902.0,3009.0,3373.0,4045.0,3435.0,3522.0,4095.0,-0.99,9.8,2.06,-0.05,0.02,-0.05,1.0,i
2928.0,901.0,3006.0,3373.0,4059.0,3440.0,3527.0,4095.0,-1.02,9.77,2.11,-0.06,0.0,-0.07,1.0,i
2939.0,896.0,3003.0,3372.0,4047.0,3433.0,3522.0,4095.0,-1.2,9.77,2.17,-0.06,0.03,-0.04,1.0,i
2933.0,899.0,3008.0,3373.0,4051.0,3441.0,3521.0,4095.0,-1.16,9.73,2.23,-0.04,-0.02,-0.04,1.0,i
2938.0,900.0,3008.0,3371.0,4051.0,3435.0,3517.0,4095.0,-1.19,9.73,2.21,-0.08,0.06,0.0,1.0,i
2942.0,903.0,3008.0,3379.0,4063.0,3434.0,3521.0,4095.0,0.55,7.46,7.06,-0.05,-0.01,-0.05,1.0,i
2928.0,901.0,3011.0,3387.0,4079.0,3429.0,3523.0,4095.0,0.73,7.51,7.16,-0.04,-0.0,-0.04,1.0,i
2931.0,901.0,3001.0,3385.0,4062.0,3431.0,3534.0,4095.0,0.73,7.63,6.62,-0.13,0.1,-0.01,1.0,i
2928.0,902.0,3007.0,3382.0,4062.0,3429.0,3536.0,4095.0,0.71,7.59,6.82,0.02,-0.05,-0.06,1.0,i
2938.0,899.0,3011.0,3380.0,4055.0,3430.0,3535.0,4095.0,0.73,7.6,6.79,-0.02,0.04,-0.05,1.0,i
2929.0,898.0,3008.0,3387.0,4066.0,3437.0,3536.0,4095.0,0.69,7.53,6.81,-0.0,-0.02,-0.07,1.0,i
2933.0,898.0,3002.0,3383.0,4063.0,3437.0,3540.0,4095.0,0.58,7.61,6.73,-0.04,-0.02,-0.07,1.0,i
2931.0,895.0,2999.0,3381.0,4066.0,3425.0,3533.0,4095.0,0.53,7.62,6.69,-0.07,0.04,-0.02,1.0,i
2930.0,899.0,3007.0,3381.0,4054.0,3433.0,3541.0,4095.0,0.62,7.63,6.85,-0.05,-0.05,-0.04,1.0,i
2931.0,900.0,3007.0,3379.0,4055.0,3429.0,3536.0,4095.0,0.64,7.55,6.9,-0.04,0.05,-0.03,1.0,i
2936.0,908.0,2997.0,3382.0,4057.0,3431.0,3546.0,4095.0,0.57,7.6,6.77,-0.06,-0.06,-0.02,1.0,i
2940.0,901.0,3008.0,3389.0,4070.0,3431.0,3539.0,4095.0,0.93,7.58,6.87,-0.0,0.01,-0.06,1.0,i
2928.0,899.0,3014.0,3387.0,4071.0,3440.0,3546.0,4095.0,0.72,7.54,6.76,-0.08,0.02,-0.08,1.0,i
2943.0,898.0,3010.0,3380.0,4063.0,3431.0,3541.0,4095.0,0.45,7.5,6.72,-0.09,0.05,-0.04,1.0,i
2931.0,890.0,3011.0,3383.0,4080.0,3440.0,3537.0,4095.0,0.69,7.59,6.9,-0.06,-0.02,-0.05,1.0,i
2934.0,899.0,3007.0,3381.0,4051.0,3434.0,3534.0,4095.0,0.59,7.6,6.75,-0.04,0.08,-0.02,1.0,i
2933.0,905.0,3008.0,3390.0,4075.0,3440.0,3547.0,4095.0,0.54,7.55,6.74,-0.06,0.02,-0.03,1.0,i
2923.0,898.0,3004.0,3392.0,4078.0,3438.0,3542.0,4095.0,0.53,7.6,6.74,-0.08,0.02,0.01,1.0,i
2935.0,895.0,3008.0,3378.0,4057.0,3429.0,3538.0,4095.0,0.67,7.57,6.84,-0.07,-0.02,-0.01,1.0,i
2928.0,904.0,3005.0,3387.0,4080.0,3439.0,3545.0,4095.0,0.69,7.57,6.86,-0.07,0.01,-0.04,1.0,i
2926.0,906.0,3002.0,3398.0,4079.0,3429.0,3549.0,4095.0,3.12,8.78,4.3,0.08,-0.03,0.11,1.0,i
2928.0,903.0,3011.0,3392.0,4080.0,3435.0,3552.0,4095.0,3.38,8.78,4.11,0.04,0.01,0.06,1.0,i
2929.0,909.0,3007.0,3393.0,4061.0,3430.0,3542.0,4095.0,3.36,8.83,4.1,-0.02,0.03,0.02,1.0,i
2926.0,896.0,3018.0,3392.0,4070.0,3427.0,3547.0,4095.0,3.3,8.82,4.17,-0.04,0.0,-0.03,1.0,i
2928.0,902.0,3009.0,3395.0,4077.0,3435.0,3547.0,4095.0,3.16,8.75,4.27,-0.06,-0.01,-0.06,1.0,i
2930.0,901.0,3014.0,3399.0,4073.0,3429.0,3548.0,4095.0,2.97,8.75,4.26,-0.07,0.03,-0.05,1.0,i
2943.0,897.0,3013.0,3397.0,4080.0,3439.0,3554.0,4095.0,3.04,8.77,4.32,-0.09,-0.01,-0.08,1.0,i
2933.0,891.0,3008.0,3393.0,4075.0,3438.0,3547.0,4095.0,2.93,8.79,4.33,-0.11,0.03,-0.04,1.0,i
2935.0,897.0,3009.0,3389.0,4070.0,3424.0,3538.0,4095.0,2.93,8.68,4.5,-0.07,0.03,-0.03,1.0,i
2931.0,906.0,3008.0,3401.0,4077.0,3440.0,3553.0,4095.0,2.84,8.7,4.46,-0.11,0.02,-0.01,1.0,i
2931.0,896.0,3011.0,3396.0,4080.0,3439.0,3559.0,4095.0,3.04,8.65,4.53,-0.06,0.0,-0.0,1.0,i
2935.0,911.0,3007.0,3394.0,4059.0,3433.0,3551.0,4095.0,3.1,8.67,4.47,-0.06,0.02,-0.02,1.0,i
2939.0,901.0,3011.0,3394.0,4067.0,3429.0,3545.0,4095.0,3.09,8.65,4.57,-0.09,-0.03,-0.05,1.0,i
2941.0,896.0,3017.0,3389.0,4077.0,3438.0,3567.0,4095.0,3.07,8.73,4.64,-0.02,0.08,-0.02,1.0,i
2919.0,898.0,3015.0,3398.0,4091.0,3434.0,3564.0,4095.0,2.98,8.79,4.42,-0.03,0.01,-0.06,1.0,i
2933.0,897.0,3010.0,3402.0,4074.0,3439.0,3559.0,4095.0,2.98,8.76,4.37,-0.06,0.01,-0.05,1.0,i
2941.0,896.0,3011.0,3391.0,4070.0,3439.0,3561.0,4095.0,3.07,8.62,4.58,-0.04,-0.03,-0.03,1.0,i
2930.0,894.0,3013.0,3392.0,4083.0,3429.0,3547.0,4095.0,3.13,8.79,4.31,-0.07,-0.04,-0.02,1.0,i
2939.0,896.0,3018.0,3395.0,4074.0,3429.0,3549.0,4095.0,3.18,8.79,4.35,-0.05,0.01,-0.06,1.0,i
2930.0,905.0,3008.0,3398.0,4074.0,3438.0,3557.0,4095.0,2.8,8.68,4.45,-0.1,0.04,-0.03,1.0,i
2930.0,899.0,3024.0,3399.0,4080.0,3439.0,3555.0,4095.0,4.59,9.26,1.51,-0.06,-0.02,-0.02,1.0,i
2930.0,899.0,3024.0,3399.0,4080.0,3439.0,3555.0,4095.0,4.59,9.26,1.51,-0.06,-0.02,-0.02,1.0,i
2933.0,906.0,3011.0,3396.0,4078.0,3445.0,3560.0,4095.0,4.42,9.1,1.9,-0.08,-0.0,-0.06,1.0,i
2926.0,896.0,3015.0,3389.0,4069.0,3429.0,3546.0,4095.0,4.14,9.03,2.07,-0.12,0.02,-0.07,1.0,i
2930.0,898.0,3015.0,3392.0,4082.0,3440.0,3567.0,4095.0,4.03,9.04,2.25,-0.12,0.01,-0.04,1.0,i
2921.0,907.0,3021.0,3399.0,4081.0,3440.0,3554.0,4095.0,4.17,9.06,2.29,-0.09,0.02,-0.05,1.0,i
2928.0,897.0,3013.0,3393.0,4074.0,3440.0,3565.0,4095.0,3.97,9.01,2.16,-0.09,0.02,-0.04,1.0,i
2930.0,899.0,3011.0,3396.0,4080.0,3435.0,3553.0,4095.0,4.1,9.03,2.26,-0.06,-0.02,-0.04,1.0,i
2931.0,899.0,3013.0,3396.0,4078.0,3437.0,3553.0,4095.0,3.93,9.0,2.22,-0.09,0.03,0.01,1.0,i
2927.0,897.0,3008.0,3397.0,4067.0,3440.0,3556.0,4095.0,4.17,9.04,2.26,-0.07,-0.02,0.01,1.0,i
2940.0,898.0,3013.0,3389.0,4062.0,3435.0,3557.0,4095.0,4.32,9.06,2.26,-0.06,0.05,0.03,1.0,i
2928.0,898.0,3013.0,3390.0,4082.0,3440.0,3563.0,4095.0,4.31,9.03,2.23,-0.1,0.05,0.01,1.0,i
2934.0,894.0,3012.0,3389.0,4066.0,3434.0,3554.0,4095.0,4.53,8.95,2.33,-0.07,0.0,-0.02,1.0,i
2938.0,903.0,3020.0,3391.0,4067.0,3441.0,3562.0,4095.0,4.38,9.05,2.24,-0.08,0.05,-0.05,1.0,i
2935.0,896.0,3018.0,3394.0,4067.0,3433.0,3551.0,4095.0,4.2,8.93,2.39,-0.07,0.02,-0.06,1.0,i
2927.0,902.0,3007.0,3390.0,4080.0,3435.0,3562.0,4095.0,4.22,8.9,2.46,-0.1,0.0,-0.05,1.0,i
2934.0,893.0,3010.0,3395.0,4080.0,3439.0,3567.0,4095.0,3.96,9.08,2.18,-0.05,0.07,0.0,1.0,i
2933.0,895.0,3007.0,3403.0,4085.0,3440.0,3565.0,4095.0,4.23,8.99,2.33,-0.06,0.02,-0.0,1.0,i
2931.0,896.0,3024.0,3394.0,4074.0,3431.0,3554.0,4095.0,4.32,9.02,2.16,-0.07,0.06,0.02,1.0,i
2935.0,896.0,3019.0,3403.0,4083.0,3439.0,3562.0,4095.0,4.45,8.91,2.35,-0.06,-0.0,-0.01,1.0,i
3022.0,935.0,2993.0,3408.0,4095.0,3271.0,3310.0,4095.0,1.3,9.62,3.0,-0.08,-0.01,-0.06,1.0,i
3025.0,944.0,2998.0,3408.0,4095.0,3277.0,3311.0,4095.0,1.32,9.65,3.1,0.1,0.0,-0.17,1.0,i
3021.0,941.0,2993.0,3406.0,4095.0,3278.0,3311.0,4095.0,0.93,9.65,2.78,-0.18,0.08,0.03,1.0,i
3017.0,944.0,3002.0,3414.0,4095.0,3281.0,3312.0,4095.0,1.22,9.51,2.95,-0.08,-0.05,-0.04,1.0,i
3023.0,938.0,2996.0,3415.0,4095.0,3281.0,3314.0,4095.0,1.27,9.71,2.86,-0.07,0.01,-0.03,1.0,i
3027.0,933.0,2998.0,3419.0,4095.0,3285.0,3316.0,4095.0,1.17,9.63,2.95,-0.08,0.02,-0.0,1.0,i
3025.0,943.0,2997.0,3415.0,4095.0,3275.0,3310.0,4095.0,1.31,9.61,3.06,-0.09,0.04,-0.0,1.0,i
3019.0,937.0,2997.0,3424.0,4095.0,3280.0,3314.0,4095.0,1.31,9.61,3.1,-0.07,0.01,-0.02,1.0,i
3019.0,933.0,2997.0,3423.0,4095.0,3289.0,3325.0,4095.0,1.37,9.65,3.07,-0.05,-0.02,-0.03,1.0,i
3010.0,934.0,2993.0,3419.0,4095.0,3280.0,3321.0,4095.0,1.31,9.63,3.03,-0.07,0.01,-0.02,1.0,i
3022.0,945.0,3001.0,3426.0,4095.0,3283.0,3330.0,4095.0,1.54,9.56,3.19,0.01,-0.05,-0.12,1.0,i
3018.0,944.0,3008.0,3437.0,4095.0,3286.0,3328.0,4095.0,1.09,9.6,2.95,0.03,0.07,-0.11,1.0,i
3023.0,933.0,2999.0,3427.0,4095.0,3284.0,3329.0,4095.0,0.95,9.56,2.98,-0.06,0.04,-0.08,1.0,i
3023.0,945.0,3010.0,3427.0,4095.0,3287.0,3331.0,4095.0,1.08,9.67,2.94,-0.15,0.03,0.05,1.0,i
3018.0,939.0,3002.0,3434.0,4095.0,3293.0,3337.0,4095.0,1.23,9.57,3.14,0.0,0.1,0.0,1.0,i
3019.0,934.0,2994.0,3407.0,4093.0,3283.0,3333.0,4095.0,1.28,9.64,3.07,-0.08,0.02,0.0,1.0,i
3024.0,944.0,2990.0,3407.0,4095.0,3295.0,3339.0,4095.0,1.42,9.65,2.9,-0.02,-0.01,-0.04,1.0,i
3025.0,937.0,3007.0,3412.0,4095.0,3284.0,3337.0,4095.0,1.3,9.65,2.84,-0.15,0.03,0.0,1.0,i
3020.0,945.0,3008.0,3408.0,4095.0,3291.0,3343.0,4095.0,1.12,9.65,2.99,-0.02,-0.03,-0.11,1.0,i
3026.0,944.0,3008.0,3415.0,4095.0,3300.0,3340.0,4095.0,1.11,9.56,3.17,-0.07,0.05,-0.03,1.0,i
3024.0,939.0,3020.0,3440.0,4095.0,3291.0,3358.0,4095.0,-1.78,8.79,4.87,-0.3,-0.01,-0.35,1.0,i
3024.0,939.0,3020.0,3440.0,4095.0,3291.0,3358.0,4095.0,-1.78,8.79,4.87,-0.3,-0.01,-0.35,1.0,i
3019.0,944.0,3019.0,3439.0,4093.0,3289.0,3349.0,4095.0,-1.38,8.96,4.61,-0.25,0.08,-0.18,1.0,i
3018.0,943.0,3017.0,3438.0,4095.0,3295.0,3355.0,4095.0,-1.34,8.87,4.64,-0.25,0.08,-0.12,1.0,i
3014.0,929.0,3023.0,3442.0,4095.0,3300.0,3360.0,4095.0,-1.29,8.81,4.83,-0.23,-0.01,-0.1,1.0,i
3024.0,933.0,3020.0,3441.0,4095.0,3298.0,3363.0,4095.0,-1.21,8.78,4.98,-0.17,0.01,-0.07,1.0,i
3020.0,945.0,3018.0,3443.0,4095.0,3297.0,3365.0,4095.0,-1.29,8.78,4.96,-0.16,0.0,-0.06,1.0,i
3022.0,939.0,3023.0,3442.0,4095.0,3296.0,3363.0,4095.0,-1.28,8.83,4.88,-0.1,0.01,-0.02,1.0,i
3022.0,938.0,3017.0,3447.0,4095.0,3296.0,3361.0,4095.0,-1.21,8.77,4.86,-0.08,-0.01,-0.01,1.0,i
3015.0,942.0,3027.0,3450.0,4095.0,3298.0,3367.0,4095.0,-0.98,8.91,4.74,-0.07,-0.02,-0.03,1.0,i
3018.0,942.0,3007.0,3441.0,4095.0,3286.0,3360.0,4095.0,-0.87,8.79,4.83,0.08,0.06,-0.15,1.0,i
3021.0,928.0,3008.0,3446.0,4095.0,3294.0,3367.0,4095.0,-1.06,8.9,4.68,-0.15,0.07,0.0,1.0,i
3013.0,935.0,3024.0,3442.0,4095.0,3291.0,3366.0,4095.0,-1.1,8.88,4.72,-0.11,-0.04,0.02,1.0,i
3029.0,932.0,3019.0,3451.0,4095.0,3298.0,3365.0,4095.0,-1.06,8.81,4.85,-0.08,-0.05,-0.05,1.0,i
3015.0,940.0,3019.0,3441.0,4095.0,3297.0,3369.0,4095.0,-1.33,8.75,4.92,-0.08,0.06,0.01,1.0,i
3017.0,937.0,3023.0,3444.0,4095.0,3293.0,3374.0,4095.0,-1.14,8.78,4.9,-0.06,-0.04,0.0,1.0,i
3017.0,947.0,3009.0,3449.0,4095.0,3295.0,3369.0,4095.0,-1.03,8.84,4.83,-0.05,0.03,0.01,1.0,i
3024.0,939.0,3024.0,3449.0,4095.0,3296.0,3370.0,4095.0,-0.98,8.87,4.78,-0.04,0.02,-0.0,1.0,i
3023.0,938.0,3024.0,3455.0,4095.0,3295.0,3376.0,4095.0,-0.94,8.81,4.87,-0.06,-0.01,0.01,1.0,i
3024.0,943.0,3019.0,3451.0,4095.0,3290.0,3367.0,4095.0,-0.96,8.96,4.86,-0.07,0.01,0.01,1.0,i
3024.0,935.0,3027.0,3495.0,4095.0,3285.0,3393.0,4095.0,-1.01,6.43,8.58,-0.04,0.05,-0.01,1.0,i
3018.0,927.0,3037.0,3497.0,4095.0,3275.0,3387.0,4095.0,-1.09,6.69,7.72,0.05,0.16,-0.01,1.0,i
3020.0,935.0,3040.0,3503.0,4095.0,3284.0,3394.0,4095.0,-1.08,6.92,7.22,0.07,0.12,-0.01,1.0,i
3022.0,939.0,3033.0,3501.0,4095.0,3282.0,3395.0,4095.0,-1.04,7.02,7.13,0.06,0.01,-0.06,1.0,i
3015.0,934.0,3024.0,3504.0,4095.0,3280.0,3389.0,4095.0,-1.11,7.07,7.03,-0.0,0.06,-0.05,1.0,i
3024.0,931.0,3024.0,3504.0,4095.0,3280.0,3387.0,4095.0,-1.4,7.08,7.02,-0.02,0.08,-0.09,1.0,i
3018.0,944.0,3025.0,3501.0,4095.0,3285.0,3394.0,4095.0,-1.56,6.92,7.19,-0.09,0.03,-0.0,1.0,i
3024.0,941.0,3022.0,3501.0,4095.0,3286.0,3397.0,4095.0,-1.18,6.99,7.35,-0.02,-0.06,-0.01,1.0,i
3018.0,934.0,3023.0,3504.0,4095.0,3295.0,3398.0,4095.0,-1.18,7.04,7.3,-0.03,-0.0,0.03,1.0,i
3015.0,935.0,3020.0,3502.0,4095.0,3283.0,3401.0,4095.0,-1.16,7.03,7.27,0.03,-0.02,-0.01,1.0,i
3023.0,944.0,3017.0,3504.0,4095.0,3289.0,3396.0,4095.0,-1.17,7.07,7.18,0.01,-0.01,0.02,1.0,i
3019.0,943.0,3018.0,3502.0,4095.0,3291.0,3405.0,4095.0,-1.12,7.1,7.21,0.06,-0.0,-0.04,1.0,i
3024.0,936.0,3006.0,3499.0,4095.0,3283.0,3405.0,4095.0,-0.98,7.24,7.06,0.1,-0.05,-0.11,1.0,i
3016.0,929.0,3018.0,3493.0,4095.0,3287.0,3402.0,4095.0,-0.99,7.2,7.06,0.04,0.06,-0.0,1.0,i
3024.0,930.0,3015.0,3493.0,4095.0,3285.0,3403.0,4095.0,-1.21,7.27,6.87,0.04,0.04,-0.03,1.0,i
3014.0,938.0,3010.0,3494.0,4095.0,3283.0,3398.0,4095.0,-1.13,7.25,6.82,-0.02,0.02,0.01,1.0,i
3014.0,937.0,3015.0,3504.0,4095.0,3284.0,3397.0,4095.0,-1.07,7.38,6.82,0.0,-0.0,-0.04,1.0,i
3026.0,927.0,3022.0,3504.0,4095.0,3286.0,3392.0,4095.0,-1.09,7.32,6.78,-0.06,0.01,-0.01,1.0,i
3024.0,934.0,3010.0,3491.0,4095.0,3291.0,3405.0,4095.0,-1.08,7.29,6.89,-0.09,-0.01,-0.0,1.0,i
3023.0,930.0,3008.0,3487.0,4095.0,3281.0,3399.0,4095.0,-1.02,7.35,6.89,-0.05,-0.01,-0.05,1.0,i
3018.0,933.0,3024.0,3492.0,4095.0,3295.0,3409.0,4095.0,2.02,9.28,3.79,-0.08,-0.0,-0.08,1.0,i
3010.0,928.0,3017.0,3495.0,4095.0,3285.0,3409.0,4095.0,1.7,9.28,3.78,-0.09,0.08,-0.05,1.0,i
3024.0,929.0,3029.0,3491.0,4095.0,3292.0,3413.0,4095.0,1.55,9.13,4.02,-0.1,-0.03,-0.04,1.0,i
3027.0,939.0,3030.0,3492.0,4095.0,3295.0,3411.0,4095.0,1.71,9.11,4.36,-0.07,-0.04,-0.01,1.0,i
3023.0,938.0,3031.0,3498.0,4095.0,3293.0,3408.0,4095.0,1.77,9.06,4.3,-0.06,0.03,0.0,1.0,i
3019.0,937.0,3035.0,3488.0,4095.0,3293.0,3417.0,4095.0,1.83,9.14,4.23,-0.01,0.03,-0.0,1.0,i
3024.0,931.0,3029.0,3491.0,4095.0,3295.0,3413.0,4095.0,1.92,9.22,4.0,-0.0,0.03,-0.0,1.0,i
3013.0,923.0,3025.0,3499.0,4095.0,3297.0,3412.0,4095.0,1.99,9.23,3.96,-0.02,0.04,0.0,1.0,i
3017.0,933.0,3027.0,3482.0,4095.0,3295.0,3418.0,4095.0,2.05,9.29,3.8,-0.04,0.03,-0.02,1.0,i
3024.0,934.0,3027.0,3485.0,4095.0,3285.0,3408.0,4095.0,1.94,9.25,3.85,-0.06,0.05,-0.03,1.0,i
3010.0,929.0,3023.0,3482.0,4095.0,3289.0,3408.0,4095.0,1.72,9.12,3.96,-0.1,0.02,-0.01,1.0,i
3014.0,929.0,3029.0,3478.0,4095.0,3286.0,3410.0,4095.0,1.86,9.19,4.1,-0.1,0.01,0.01,1.0,i
3018.0,930.0,3023.0,3489.0,4095.0,3290.0,3409.0,4095.0,1.92,9.22,4.03,-0.06,0.01,-0.0,1.0,i
3013.0,930.0,3027.0,3485.0,4095.0,3287.0,3408.0,4095.0,1.99,9.16,4.12,-0.05,0.02,-0.03,1.0,i
3021.0,933.0,3031.0,3488.0,4095.0,3293.0,3408.0,4095.0,1.91,9.11,4.07,-0.06,-0.01,-0.01,1.0,i
3018.0,935.0,3029.0,3492.0,4095.0,3289.0,3408.0,4095.0,2.07,9.11,4.18,-0.07,-0.03,-0.04,1.0,i
3022.0,927.0,3027.0,3486.0,4095.0,3297.0,3418.0,4095.0,2.03,9.17,4.09,-0.04,-0.03,-0.05,1.0,i
3003.0,929.0,3024.0,3488.0,4095.0,3290.0,3412.0,4095.0,1.86,9.19,4.01,-0.03,0.02,-0.04,1.0,i
3024.0,926.0,3036.0,3489.0,4095.0,3297.0,3413.0,4095.0,1.77,9.09,4.06,-0.05,0.02,-0.06,1.0,i
3014.0,938.0,3028.0,3486.0,4095.0,3290.0,3411.0,4095.0,1.98,9.14,4.07,-0.04,0.01,-0.07,1.0,i
3015.0,923.0,3040.0,3486.0,4095.0,3299.0,3422.0,4095.0,4.6,8.28,4.6,-0.0,0.09,-0.03,1.0,i
3015.0,934.0,3045.0,3491.0,4095.0,3296.0,3426.0,4095.0,4.2,8.28,4.33,-0.06,0.13,-0.07,1.0,i
3017.0,932.0,3036.0,3491.0,4095.0,3305.0,3423.0,4095.0,3.9,8.22,4.47,-0.08,0.0,-0.1,1.0,i
3015.0,929.0,3041.0,3484.0,4095.0,3294.0,3419.0,4095.0,3.81,8.28,4.74,-0.09,-0.05,-0.11,1.0,i
3031.0,938.0,3049.0,3488.0,4095.0,3302.0,3426.0,4095.0,3.7,8.24,4.73,-0.05,0.0,-0.06,1.0,i
3021.0,929.0,3049.0,3485.0,4095.0,3299.0,3426.0,4095.0,3.73,8.21,4.68,-0.04,0.0,-0.05,1.0,i
3021.0,926.0,3031.0,3440.0,4095.0,3300.0,3423.0,4095.0,3.95,8.26,4.55,-0.12,-0.05,-0.03,1.0,i
3023.0,934.0,3043.0,3423.0,4095.0,3303.0,3418.0,4095.0,4.08,8.2,4.7,0.01,0.04,-0.07,1.0,i
3013.0,924.0,3028.0,3431.0,4095.0,3307.0,3421.0,4095.0,3.87,8.38,4.54,-0.11,-0.03,-0.03,1.0,i
3024.0,929.0,3024.0,3442.0,4095.0,3307.0,3420.0,4095.0,3.9,8.18,4.75,-0.06,0.01,-0.04,1.0,i
3019.0,932.0,3019.0,3435.0,4095.0,3310.0,3420.0,4095.0,3.84,8.24,4.75,-0.03,0.0,-0.05,1.0,i
3018.0,930.0,3025.0,3440.0,4095.0,3298.0,3424.0,4095.0,3.9,8.23,4.78,-0.03,0.0,-0.04,1.0,i
3017.0,928.0,3018.0,3446.0,4095.0,3301.0,3420.0,4095.0,3.84,8.25,4.62,0.02,0.0,-0.06,1.0,i
3018.0,927.0,3020.0,3446.0,4095.0,3298.0,3421.0,4095.0,3.96,8.31,4.48,-0.01,-0.02,-0.04,1.0,i
3023.0,933.0,3024.0,3447.0,4095.0,3302.0,3419.0,4095.0,3.99,8.41,4.35,-0.03,-0.03,-0.05,1.0,i
3030.0,927.0,3024.0,3447.0,4095.0,3311.0,3423.0,4095.0,3.9,8.41,4.33,-0.07,0.03,-0.08,1.0,i
3015.0,927.0,3021.0,3443.0,4095.0,3307.0,3426.0,4095.0,3.84,8.22,4.62,-0.11,-0.05,-0.06,1.0,i
3009.0,932.0,3029.0,3447.0,4095.0,3309.0,3422.0,4095.0,3.93,8.29,4.77,-0.06,0.0,-0.04,1.0,i
3021.0,925.0,3029.0,3445.0,4095.0,3300.0,3408.0,4095.0,3.94,8.26,4.71,-0.02,0.05,-0.04,1.0,i
3023.0,928.0,3028.0,3454.0,4095.0,3312.0,3414.0,4095.0,3.86,8.37,4.57,-0.01,0.02,-0.07,1.0,i
3011.0,923.0,3011.0,3377.0,4080.0,3300.0,3413.0,4095.0,0.37,10.0,1.17,-0.14,-0.0,0.04,1.0,i
3015.0,929.0,3023.0,3383.0,4091.0,3311.0,3420.0,4095.0,0.5,10.01,1.33,-0.11,-0.01,0.03,1.0,i
3015.0,923.0,3008.0,3378.0,4080.0,3300.0,3424.0,4095.0,0.61,10.04,1.34,-0.06,0.0,0.01,1.0,i
3023.0,927.0,3024.0,3383.0,4078.0,3303.0,3418.0,4095.0,0.59,10.03,1.33,-0.09,-0.03,0.04,1.0,i
3021.0,926.0,3015.0,3382.0,4079.0,3299.0,3420.0,4095.0,0.62,10.02,1.43,-0.09,0.0,0.03,1.0,i
3019.0,933.0,3019.0,3383.0,4090.0,3303.0,3423.0,4095.0,0.49,10.0,1.41,-0.08,0.03,-0.02,1.0,i
3027.0,928.0,3019.0,3385.0,4093.0,3303.0,3424.0,4095.0,0.52,9.98,1.46,-0.1,0.05,-0.02,1.0,i
3020.0,923.0,3022.0,3383.0,4074.0,3307.0,3428.0,4095.0,0.51,10.02,1.39,-0.06,0.04,-0.01,1.0,i
3013.0,931.0,3017.0,3376.0,4071.0,3298.0,3421.0,4095.0,0.43,10.04,1.19,-0.13,0.05,0.02,1.0,i
3015.0,928.0,3018.0,3383.0,4083.0,3305.0,3427.0,4095.0,0.48,10.05,1.27,-0.1,0.03,-0.0,1.0,i
3018.0,928.0,3022.0,3387.0,4083.0,3294.0,3421.0,4095.0,0.38,9.99,1.24,-0.17,0.18,0.08,1.0,i
3024.0,919.0,3022.0,3385.0,4087.0,3300.0,3427.0,4095.0,0.49,10.04,1.25,-0.18,0.12,0.05,1.0,i
3011.0,928.0,3019.0,3390.0,4073.0,3291.0,3426.0,4095.0,0.94,10.04,1.42,-0.18,0.07,0.03,1.0,i
3024.0,925.0,3023.0,3408.0,4094.0,3273.0,3436.0,4095.0,0.97,10.16,1.31,-0.22,0.19,-0.05,1.0,i
3017.0,923.0,3025.0,3419.0,4088.0,3271.0,3433.0,4095.0,1.28,10.14,1.32,-0.46,0.04,-0.22,1.0,i
3008.0,923.0,3031.0,3421.0,4093.0,3271.0,3443.0,4095.0,0.85,9.77,2.03,-0.57,-0.09,-0.2,1.0,i
3018.0,928.0,3030.0,3415.0,4090.0,3270.0,3431.0,4095.0,0.02,9.64,2.52,-0.29,-0.16,-0.31,1.0,i
3013.0,919.0,3024.0,3410.0,4076.0,3269.0,3438.0,4095.0,-0.5,9.57,2.94,-0.28,0.01,-0.11,1.0,i
3018.0,929.0,3024.0,3423.0,4095.0,3270.0,3440.0,4095.0,-0.76,9.6,3.09,-0.23,0.04,-0.01,1.0,i
2998.0,925.0,3024.0,3414.0,4079.0,3271.0,3440.0,4095.0,-0.1,9.56,3.05,-0.04,-0.07,0.13,1.0,i
3098.0,3294.0,3008.0,3194.0,4095.0,3631.0,3428.0,4095.0,0.15,10.04,2.15,-0.05,0.05,-0.0,1.0,i
3098.0,3286.0,3008.0,3193.0,4095.0,3629.0,3430.0,4095.0,-0.03,9.91,2.22,-0.07,0.06,-0.01,1.0,i
3093.0,3283.0,2999.0,3194.0,4095.0,3623.0,3423.0,4095.0,0.03,9.84,2.22,-0.06,0.02,-0.03,1.0,i
3103.0,3285.0,3003.0,3187.0,4095.0,3632.0,3426.0,4095.0,-0.03,9.83,2.24,-0.04,0.02,-0.05,1.0,i
3093.0,3298.0,3005.0,3196.0,4095.0,3636.0,3423.0,4095.0,-0.06,9.84,2.25,-0.05,0.01,-0.04,1.0,i
3095.0,3279.0,3003.0,3189.0,4095.0,3627.0,3430.0,4095.0,-0.1,9.91,2.1,-0.07,0.02,-0.0,1.0,i
3094.0,3280.0,3003.0,3198.0,4095.0,3621.0,3418.0,4095.0,0.06,9.81,2.23,-0.03,-0.04,-0.05,1.0,i
3093.0,3284.0,3008.0,3191.0,4095.0,3622.0,3427.0,4095.0,0.11,9.95,2.19,-0.04,0.04,-0.05,1.0,i
3099.0,3291.0,3006.0,3194.0,4095.0,3631.0,3425.0,4095.0,-0.09,9.82,2.2,-0.09,0.06,-0.01,1.0,i
3088.0,3282.0,3001.0,3193.0,4095.0,3623.0,3422.0,4095.0,0.11,9.91,2.15,-0.06,-0.03,-0.03,1.0,i
3095.0,3290.0,3005.0,3196.0,4095.0,3633.0,3427.0,4095.0,0.03,9.87,2.21,-0.07,0.03,-0.04,1.0,i
3088.0,3289.0,3004.0,3197.0,4095.0,3621.0,3433.0,4095.0,-0.05,9.85,2.28,-0.07,0.02,-0.03,1.0,i
3093.0,3291.0,3010.0,3199.0,4095.0,3629.0,3433.0,4095.0,0.08,9.86,2.23,-0.07,0.01,-0.05,1.0,i
3087.0,3280.0,2998.0,3198.0,4095.0,3614.0,3423.0,4095.0,0.09,9.91,2.25,-0.04,0.02,-0.05,1.0,i
3088.0,3290.0,3008.0,3197.0,4095.0,3625.0,3436.0,4095.0,0.1,9.89,2.22,-0.05,0.04,-0.05,1.0,i
3094.0,3291.0,3008.0,3201.0,4095.0,3632.0,3429.0,4095.0,-0.01,9.89,2.16,-0.04,-0.02,-0.03,1.0,i
3106.0,3295.0,3008.0,3202.0,4095.0,3627.0,3426.0,4095.0,-0.0,9.81,2.26,-0.09,0.03,-0.01,1.0,i
3097.0,3301.0,3020.0,3200.0,4095.0,3617.0,3425.0,4095.0,-0.0,9.84,2.27,0.01,-0.02,-0.07,1.0,i
3088.0,3283.0,3005.0,3200.0,4095.0,3617.0,3423.0,4095.0,-0.04,9.86,2.19,0.01,-0.02,-0.09,1.0,i
3091.0,3282.0,3007.0,3199.0,4095.0,3613.0,3425.0,4095.0,-0.09,9.9,2.06,-0.07,0.04,-0.0,1.0,i
3088.0,3285.0,3008.0,3211.0,4095.0,3639.0,3449.0,4095.0,3.34,8.88,3.77,-0.07,0.03,-0.04,1.0,i
3088.0,3285.0,3008.0,3211.0,4095.0,3639.0,3449.0,4095.0,3.34,8.88,3.77,-0.07,0.03,-0.04,1.0,i
3083.0,3278.0,3008.0,3200.0,4095.0,3633.0,3445.0,4095.0,3.29,8.9,3.7,-0.03,-0.04,-0.06,1.0,i
3088.0,3283.0,3008.0,3209.0,4095.0,3638.0,3440.0,4095.0,3.29,8.91,3.62,-0.06,0.01,-0.03,1.0,i
3088.0,3275.0,3006.0,3207.0,4095.0,3635.0,3441.0,4095.0,3.37,9.01,3.62,-0.03,-0.04,-0.07,1.0,i
3092.0,3273.0,3008.0,3203.0,4095.0,3632.0,3446.0,4095.0,3.32,8.98,3.61,-0.05,0.03,-0.04,1.0,i
3093.0,3277.0,3011.0,3211.0,4095.0,3639.0,3444.0,4095.0,3.19,8.91,3.64,-0.08,0.01,-0.04,1.0,i
3086.0,3296.0,3013.0,3214.0,4095.0,3633.0,3441.0,4095.0,3.17,9.01,3.62,-0.05,-0.02,-0.05,1.0,i
3088.0,3280.0,3007.0,3206.0,4095.0,3638.0,3447.0,4095.0,3.16,8.96,3.68,-0.05,0.0,-0.05,1.0,i
3089.0,3286.0,3009.0,3206.0,4095.0,3642.0,3449.0,4095.0,3.17,8.96,3.58,-0.06,0.03,-0.02,1.0,i
3095.0,3280.0,3009.0,3210.0,4095.0,3634.0,3439.0,4095.0,3.31,8.99,3.59,-0.05,-0.01,-0.03,1.0,i
3084.0,3281.0,3009.0,3202.0,4095.0,3634.0,3449.0,4095.0,3.23,8.96,3.6,-0.05,0.0,-0.05,1.0,i
3093.0,3286.0,3008.0,3200.0,4095.0,3632.0,3447.0,4095.0,3.23,9.02,3.59,-0.08,0.01,-0.02,1.0,i
3090.0,3277.0,3015.0,3205.0,4095.0,3644.0,3439.0,4095.0,3.26,8.94,3.63,-0.06,-0.02,-0.03,1.0,i
3084.0,3281.0,3008.0,3199.0,4095.0,3632.0,3441.0,4095.0,3.3,9.01,3.63,-0.07,0.0,-0.04,1.0,i
3089.0,3290.0,3005.0,3206.0,4095.0,3628.0,3440.0,4095.0,3.2,9.03,3.62,-0.05,-0.04,-0.03,1.0,i
3099.0,3296.0,3021.0,3201.0,4095.0,3643.0,3445.0,4095.0,3.41,9.03,3.62,-0.04,0.0,-0.05,1.0,i
3071.0,3268.0,3005.0,3200.0,4095.0,3637.0,3443.0,4095.0,3.22,9.05,3.53,-0.07,-0.0,-0.03,1.0,i
3086.0,3280.0,3009.0,3196.0,4095.0,3634.0,3443.0,4095.0,3.24,9.1,3.53,-0.06,-0.01,-0.04,1.0,i
3093.0,3277.0,3003.0,3200.0,4095.0,3643.0,3457.0,4095.0,3.15,9.03,3.61,-0.07,0.04,-0.02,1.0,i
3090.0,3287.0,2998.0,3184.0,4095.0,3632.0,3481.0,4095.0,-2.03,7.41,6.58,-0.06,-0.02,-0.07,1.0,i
3090.0,3287.0,2998.0,3184.0,4095.0,3632.0,3481.0,4095.0,-2.03,7.41,6.58,-0.06,-0.02,-0.07,1.0,i
3090.0,3290.0,3002.0,3185.0,4095.0,3639.0,3486.0,4095.0,-2.2,7.38,6.68,-0.07,0.03,-0.01,1.0,i
3093.0,3280.0,3010.0,3184.0,4095.0,3636.0,3485.0,4095.0,-2.13,7.37,6.6,-0.08,-0.02,-0.0,1.0,i
3088.0,3280.0,3006.0,3183.0,4095.0,3632.0,3480.0,4095.0,-1.99,7.5,6.45,-0.06,-0.0,-0.01,1.0,i
3088.0,3285.0,3001.0,3188.0,4095.0,3635.0,3487.0,4095.0,-1.96,7.49,6.41,-0.02,-0.02,-0.04,1.0,i
3100.0,3290.0,3008.0,3189.0,4095.0,3637.0,3483.0,4095.0,-2.05,7.54,6.33,-0.09,0.02,0.0,1.0,i
3101.0,3285.0,3004.0,3191.0,4095.0,3632.0,3477.0,4095.0,-2.12,7.47,6.36,-0.14,-0.0,0.03,1.0,i
3088.0,3280.0,2997.0,3187.0,4095.0,3633.0,3482.0,4095.0,-1.99,7.33,6.69,-0.03,-0.05,-0.08,1.0,i
3085.0,3280.0,3005.0,3191.0,4095.0,3632.0,3479.0,4095.0,-2.06,7.4,6.62,-0.13,0.03,0.03,1.0,i
3104.0,3292.0,3007.0,3191.0,4095.0,3625.0,3481.0,4095.0,-1.84,7.31,6.65,-0.05,-0.06,-0.03,1.0,i
3091.0,3291.0,3001.0,3198.0,4095.0,3627.0,3477.0,4095.0,-1.87,7.43,6.62,-0.12,0.01,0.02,1.0,i
3085.0,3280.0,2992.0,3191.0,4095.0,3632.0,3481.0,4095.0,-1.91,7.31,6.77,-0.06,-0.04,-0.04,1.0,i
3095.0,3280.0,2997.0,3199.0,4095.0,3636.0,3484.0,4095.0,-1.86,7.39,6.72,-0.04,0.01,-0.04,1.0,i
3087.0,3280.0,2998.0,3193.0,4095.0,3631.0,3485.0,4095.0,-1.87,7.4,6.63,-0.06,-0.02,-0.03,1.0,i
3084.0,3285.0,3008.0,3198.0,4095.0,3623.0,3481.0,4095.0,-1.83,7.5,6.47,-0.13,0.0,0.02,1.0,i
3085.0,3286.0,2998.0,3204.0,4095.0,3634.0,3473.0,4095.0,-1.8,7.36,6.72,0.01,-0.07,-0.09,1.0,i
3098.0,3282.0,3010.0,3202.0,4095.0,3638.0,3485.0,4095.0,-1.97,7.32,6.67,-0.04,0.05,-0.06,1.0,i
3091.0,3268.0,2992.0,3197.0,4095.0,3628.0,3475.0,4095.0,-2.08,7.4,6.57,-0.09,-0.02,-0.0,1.0,i
3091.0,3280.0,2999.0,3206.0,4095.0,3628.0,3483.0,4095.0,-1.86,7.33,6.61,-0.09,0.02,-0.01,1.0,i
3098.0,3296.0,3014.0,3216.0,4095.0,3639.0,3493.0,4095.0,1.4,9.97,1.15,-0.11,0.04,-0.01,1.0,i
3102.0,3284.0,3004.0,3216.0,4095.0,3651.0,3490.0,4095.0,1.44,9.98,1.14,-0.08,0.04,-0.02,1.0,i
3093.0,3295.0,3006.0,3219.0,4095.0,3644.0,3500.0,4095.0,1.6,9.96,1.15,-0.11,0.1,0.0,1.0,i
3093.0,3280.0,3005.0,3213.0,4095.0,3635.0,3492.0,4095.0,1.65,9.97,1.18,-0.07,0.02,-0.04,1.0,i
3093.0,3283.0,3014.0,3216.0,4095.0,3645.0,3501.0,4095.0,1.68,9.94,1.14,-0.09,-0.0,-0.06,1.0,i
3097.0,3286.0,3008.0,3221.0,4095.0,3649.0,3485.0,4095.0,1.37,9.92,1.19,-0.07,0.04,-0.05,1.0,i
3103.0,3281.0,3005.0,3219.0,4095.0,3637.0,3485.0,4095.0,1.4,9.92,1.22,-0.05,0.01,-0.04,1.0,i
3098.0,3273.0,2994.0,3216.0,4095.0,3646.0,3501.0,4095.0,1.47,9.9,1.14,-0.06,0.06,-0.01,1.0,i
3095.0,3280.0,3008.0,3221.0,4095.0,3646.0,3479.0,4095.0,1.53,9.92,1.06,-0.07,0.08,-0.04,1.0,i
3088.0,3280.0,3011.0,3216.0,4095.0,3643.0,3497.0,4095.0,1.63,9.9,1.19,-0.08,0.01,-0.06,1.0,i
3107.0,3290.0,3008.0,3222.0,4095.0,3648.0,3490.0,4095.0,1.5,9.97,1.12,-0.09,0.03,-0.03,1.0,i
3088.0,3276.0,3006.0,3214.0,4095.0,3636.0,3492.0,4095.0,1.38,9.92,1.2,-0.07,-0.0,-0.01,1.0,i
3098.0,3280.0,3017.0,3222.0,4095.0,3650.0,3489.0,4095.0,1.63,9.96,1.22,-0.05,-0.0,-0.07,1.0,i
3091.0,3286.0,3007.0,3223.0,4095.0,3652.0,3483.0,4095.0,1.51,9.96,1.3,-0.05,-0.0,-0.06,1.0,i
3097.0,3277.0,3015.0,3219.0,4095.0,3648.0,3498.0,4095.0,1.49,9.88,1.23,-0.05,0.03,-0.05,1.0,i
3101.0,3283.0,3011.0,3223.0,4095.0,3648.0,3502.0,4095.0,1.52,9.93,1.12,-0.06,-0.0,-0.04,1.0,i
3099.0,3280.0,3018.0,3216.0,4095.0,3648.0,3499.0,4095.0,1.6,9.92,1.13,-0.07,0.01,-0.04,1.0,i
3093.0,3287.0,3014.0,3221.0,4095.0,3650.0,3499.0,4095.0,1.56,9.99,1.07,-0.08,0.04,-0.03,1.0,i
3095.0,3291.0,2999.0,3217.0,4095.0,3633.0,3499.0,4095.0,1.4,9.97,1.09,-0.09,0.01,-0.05,1.0,i
3088.0,3270.0,3003.0,3216.0,4095.0,3643.0,3495.0,4095.0,1.41,9.94,1.19,-0.09,0.04,-0.02,1.0,i
3093.0,3280.0,3013.0,3234.0,4095.0,3646.0,3493.0,4095.0,-1.07,7.18,7.13,-0.12,0.03,-0.03,1.0,i
3090.0,3278.0,3011.0,3234.0,4095.0,3643.0,3501.0,4095.0,-1.15,7.1,7.29,-0.07,0.0,-0.04,1.0,i
3107.0,3283.0,3011.0,3235.0,4095.0,3633.0,3498.0,4095.0,-0.98,7.18,7.18,-0.06,-0.01,-0.03,1.0,i
3095.0,3280.0,3012.0,3238.0,4095.0,3632.0,3498.0,4095.0,-1.01,7.19,7.01,-0.08,0.02,-0.01,1.0,i
3091.0,3284.0,3010.0,3234.0,4095.0,3648.0,3502.0,4095.0,-1.0,7.2,7.07,-0.06,-0.04,-0.04,1.0,i
3095.0,3282.0,3011.0,3237.0,4095.0,3655.0,3489.0,4095.0,-1.01,7.13,7.18,-0.08,0.0,0.01,1.0,i
3089.0,3278.0,3008.0,3233.0,4095.0,3643.0,3493.0,4095.0,-0.99,7.18,7.21,-0.06,-0.01,-0.01,1.0,i
3087.0,3277.0,3008.0,3231.0,4095.0,3647.0,3501.0,4095.0,-1.05,7.12,7.13,-0.02,-0.01,-0.03,1.0,i
3091.0,3287.0,3010.0,3232.0,4095.0,3639.0,3499.0,4095.0,-0.87,7.2,7.02,-0.08,-0.0,0.01,1.0,i
3088.0,3280.0,3007.0,3229.0,4095.0,3646.0,3494.0,4095.0,-0.87,7.22,7.05,-0.04,-0.01,-0.03,1.0,i
3093.0,3269.0,3010.0,3239.0,4095.0,3648.0,3493.0,4095.0,-0.93,7.19,7.09,-0.07,0.0,-0.01,1.0,i
3089.0,3269.0,3010.0,3231.0,4095.0,3648.0,3501.0,4095.0,-0.91,7.03,7.33,0.01,-0.06,-0.06,1.0,i
3094.0,3280.0,3017.0,3239.0,4095.0,3651.0,3499.0,4095.0,-1.0,7.34,7.04,0.14,0.04,-0.07,1.0,i
3083.0,3287.0,3014.0,3235.0,4095.0,3641.0,3498.0,4095.0,-0.93,7.36,6.95,-0.0,-0.02,-0.06,1.0,i
3089.0,3282.0,3006.0,3231.0,4095.0,3653.0,3504.0,4095.0,-0.93,7.2,6.99,-0.1,0.01,0.02,1.0,i
3098.0,3289.0,2994.0,3230.0,4095.0,3655.0,3490.0,4095.0,-0.76,7.37,7.17,0.09,-0.04,-0.11,1.0,i
3089.0,3293.0,2998.0,3219.0,4095.0,3654.0,3495.0,4095.0,-0.95,7.34,6.98,-0.02,0.1,-0.02,1.0,i
3087.0,3277.0,2992.0,3216.0,4095.0,3658.0,3495.0,4095.0,-1.02,7.22,6.92,-0.07,-0.01,-0.03,1.0,i
3091.0,3299.0,2993.0,3223.0,4095.0,3651.0,3487.0,4095.0,-0.8,7.64,6.79,0.09,-0.04,-0.1,1.0,i
3089.0,3291.0,2999.0,3220.0,4095.0,3659.0,3505.0,4095.0,-1.09,7.15,6.89,-0.15,0.07,0.03,1.0,i
3100.0,3286.0,3006.0,3246.0,4095.0,3655.0,3503.0,4095.0,3.39,8.2,5.03,-0.11,0.02,-0.02,1.0,i
3088.0,3287.0,3005.0,3247.0,4095.0,3663.0,3519.0,4095.0,3.3,8.19,5.02,-0.1,0.01,-0.02,1.0,i
3098.0,3284.0,3001.0,3247.0,4095.0,3653.0,3507.0,4095.0,3.34,8.21,5.15,-0.07,-0.01,-0.03,1.0,i
3089.0,3285.0,2993.0,3239.0,4095.0,3661.0,3509.0,4095.0,3.44,8.14,5.18,-0.09,0.02,-0.0,1.0,i
3102.0,3294.0,3010.0,3247.0,4095.0,3663.0,3513.0,4095.0,3.41,8.22,5.15,-0.07,0.01,-0.01,1.0,i
3088.0,3289.0,3009.0,3250.0,4095.0,3651.0,3510.0,4095.0,3.46,8.24,5.05,-0.07,0.04,-0.02,1.0,i
3087.0,3279.0,3008.0,3239.0,4095.0,3653.0,3510.0,4095.0,3.47,8.16,5.07,-0.07,-0.01,-0.02,1.0,i
3089.0,3285.0,2995.0,3243.0,4095.0,3664.0,3517.0,4095.0,3.53,8.18,5.16,-0.06,-0.01,-0.04,1.0,i
3099.0,3280.0,3010.0,3247.0,4095.0,3659.0,3507.0,4095.0,3.57,8.14,5.24,-0.06,-0.03,-0.05,1.0,i
3083.0,3286.0,2999.0,3248.0,4095.0,3650.0,3510.0,4095.0,3.46,8.21,5.17,-0.04,0.01,-0.05,1.0,i
3090.0,3286.0,3007.0,3238.0,4095.0,3664.0,3517.0,4095.0,3.55,8.15,5.19,-0.07,-0.01,-0.02,1.0,i
3083.0,3277.0,3003.0,3249.0,4095.0,3664.0,3509.0,4095.0,3.47,8.2,5.22,-0.07,0.02,-0.02,1.0,i
3089.0,3289.0,2995.0,3239.0,4095.0,3662.0,3510.0,4095.0,3.51,8.28,5.18,-0.01,-0.02,-0.06,1.0,i
3095.0,3303.0,3011.0,3242.0,4095.0,3659.0,3507.0,4095.0,3.47,8.22,5.07,-0.04,0.03,-0.04,1.0,i
3103.0,3280.0,3006.0,3241.0,4095.0,3655.0,3504.0,4095.0,3.61,8.22,5.1,0.0,-0.02,-0.04,1.0,i
3094.0,3283.0,3006.0,3242.0,4095.0,3661.0,3505.0,4095.0,3.45,8.18,5.02,-0.08,0.02,-0.03,1.0,i
3090.0,3268.0,3005.0,3247.0,4095.0,3660.0,3503.0,4095.0,3.51,8.18,5.14,-0.04,-0.03,-0.07,1.0,i
3101.0,3277.0,3005.0,3235.0,4095.0,3666.0,3510.0,4095.0,3.38,8.13,5.06,-0.06,0.02,-0.05,1.0,i
3091.0,3293.0,3005.0,3237.0,4095.0,3664.0,3505.0,4095.0,3.36,8.22,5.06,-0.06,-0.02,-0.04,1.0,i
3099.0,3278.0,3007.0,3246.0,4095.0,3664.0,3506.0,4095.0,3.42,8.19,5.2,-0.08,-0.01,-0.02,1.0,i
3088.0,3295.0,2996.0,3248.0,4095.0,3647.0,3519.0,4095.0,-1.48,9.72,1.11,-0.09,-0.02,-0.02,1.0,i
3088.0,3295.0,2996.0,3248.0,4095.0,3647.0,3519.0,4095.0,-1.48,9.72,1.11,-0.09,-0.02,-0.02,1.0,i
3094.0,3296.0,3007.0,3242.0,4095.0,3646.0,3514.0,4095.0,-1.35,9.96,1.02,-0.07,0.02,-0.03,1.0,i
3095.0,3281.0,2998.0,3247.0,4095.0,3650.0,3513.0,4095.0,-1.62,9.89,1.09,-0.09,0.01,-0.02,1.0,i
3090.0,3281.0,3007.0,3239.0,4095.0,3648.0,3504.0,4095.0,-1.35,9.87,1.2,-0.08,0.03,-0.01,1.0,i
3091.0,3289.0,3001.0,3246.0,4095.0,3644.0,3509.0,4095.0,-1.51,9.87,1.19,-0.08,0.02,0.01,1.0,i
3105.0,3289.0,2997.0,3250.0,4095.0,3657.0,3505.0,4095.0,-1.4,9.92,1.14,-0.06,-0.01,-0.01,1.0,i
3081.0,3277.0,2998.0,3243.0,4095.0,3647.0,3515.0,4095.0,-1.44,9.9,1.14,-0.09,0.06,0.01,1.0,i
3088.0,3291.0,3003.0,3248.0,4095.0,3663.0,3515.0,4095.0,-1.36,9.94,1.14,-0.13,0.03,-0.0,1.0,i
3094.0,3282.0,3009.0,3248.0,4095.0,3657.0,3505.0,4095.0,-1.25,9.78,1.19,-0.13,0.01,-0.03,1.0,i
3091.0,3270.0,2999.0,3243.0,4095.0,3651.0,3504.0,4095.0,-1.35,9.87,1.25,-0.07,-0.02,-0.07,1.0,i
3088.0,3282.0,3007.0,3247.0,4095.0,3664.0,3514.0,4095.0,-1.5,9.9,1.19,-0.11,0.03,-0.02,1.0,i
3099.0,3280.0,3002.0,3248.0,4095.0,3659.0,3518.0,4095.0,-1.45,9.82,1.3,-0.03,-0.02,-0.06,1.0,i
3099.0,3280.0,3005.0,3241.0,4095.0,3664.0,3511.0,4095.0,-1.39,9.91,1.22,-0.13,0.06,0.07,1.0,i
3089.0,3303.0,3009.0,3243.0,4095.0,3653.0,3513.0,4095.0,-1.44,9.84,1.26,-0.05,-0.05,-0.05,1.0,i
3094.0,3299.0,3003.0,3246.0,4095.0,3664.0,3514.0,4095.0,-1.25,9.87,1.37,-0.02,-0.03,-0.07,1.0,i
3104.0,3287.0,3006.0,3248.0,4095.0,3663.0,3521.0,4095.0,-1.41,9.88,1.28,-0.09,0.02,-0.02,1.0,i
3089.0,3280.0,2992.0,3237.0,4095.0,3649.0,3514.0,4095.0,-1.26,9.84,1.33,-0.05,-0.07,-0.02,1.0,i
3093.0,3284.0,3000.0,3248.0,4095.0,3646.0,3510.0,4095.0,-1.18,9.84,1.39,-0.07,0.04,-0.01,1.0,i
3087.0,3299.0,3014.0,3248.0,4095.0,3652.0,3517.0,4095.0,-1.23,9.93,1.23,-0.0,0.0,-0.07,1.0,i
3088.0,3289.0,3005.0,3274.0,4095.0,3653.0,3511.0,4095.0,-4.17,7.75,4.89,0.03,-0.01,0.02,1.0,i
3107.0,3280.0,3010.0,3275.0,4095.0,3664.0,3511.0,4095.0,-3.73,7.81,4.75,-0.02,-0.05,0.02,1.0,i
3090.0,3285.0,3021.0,3277.0,4095.0,3664.0,3522.0,4095.0,-3.58,7.84,4.83,-0.06,-0.01,0.03,1.0,i
3087.0,3278.0,3011.0,3270.0,4095.0,3658.0,3512.0,4095.0,-3.56,7.85,4.92,-0.04,0.01,-0.01,1.0,i
3103.0,3280.0,3006.0,3280.0,4095.0,3664.0,3522.0,4095.0,-3.7,7.78,4.97,-0.08,0.0,-0.01,1.0,i
3093.0,3289.0,3011.0,3279.0,4095.0,3662.0,3518.0,4095.0,-3.46,7.76,5.09,-0.06,-0.0,-0.03,1.0,i
3088.0,3283.0,3013.0,3279.0,4095.0,3658.0,3517.0,4095.0,-3.44,7.79,5.05,-0.08,0.08,-0.07,1.0,i
3088.0,3278.0,3010.0,3278.0,4095.0,3654.0,3520.0,4095.0,-3.79,7.81,5.01,-0.03,0.03,-0.11,1.0,i
3091.0,3279.0,3018.0,3277.0,4095.0,3651.0,3511.0,4095.0,-4.03,7.74,5.02,-0.06,0.08,-0.07,1.0,i
3090.0,3274.0,3008.0,3271.0,4095.0,3646.0,3517.0,4095.0,-4.07,7.76,4.99,-0.04,0.01,-0.03,1.0,i
3084.0,3280.0,3010.0,3280.0,4095.0,3653.0,3519.0,4095.0,-4.03,7.79,4.91,-0.03,0.01,0.0,1.0,i
3083.0,3284.0,3003.0,3281.0,4095.0,3653.0,3514.0,4095.0,-3.94,7.8,4.88,-0.02,0.01,-0.01,1.0,i
3104.0,3279.0,3018.0,3281.0,4095.0,3664.0,3522.0,4095.0,-3.83,7.84,4.84,-0.05,0.05,0.02,1.0,i
3097.0,3280.0,3008.0,3277.0,4095.0,3663.0,3522.0,4095.0,-3.67,7.85,4.78,-0.05,-0.04,-0.0,1.0,i
3090.0,3284.0,3006.0,3279.0,4095.0,3664.0,3525.0,4095.0,-3.57,7.9,4.86,-0.11,0.0,0.02,1.0,i
3102.0,3286.0,3015.0,3280.0,4095.0,3662.0,3519.0,4095.0,-3.56,7.8,5.0,-0.06,0.0,-0.05,1.0,i
3088.0,3280.0,3008.0,3271.0,4095.0,3655.0,3517.0,4095.0,-3.45,7.81,5.1,-0.08,-0.0,-0.07,1.0,i
3083.0,3280.0,3003.0,3280.0,4095.0,3648.0,3513.0,4095.0,-3.76,7.8,5.06,-0.05,0.05,-0.1,1.0,i
3095.0,3279.0,3008.0,3276.0,4095.0,3657.0,3515.0,4095.0,-3.94,7.73,5.06,-0.02,0.0,-0.08,1.0,i
3088.0,3281.0,3011.0,3274.0,4095.0,3659.0,3520.0,4095.0,-3.91,7.78,4.88,-0.04,0.02,-0.05,1.0,i
3089.0,3281.0,3012.0,3279.0,4095.0,3667.0,3522.0,4095.0,1.28,9.96,1.83,-0.02,-0.03,-0.06,1.0,i
3098.0,3277.0,3010.0,3280.0,4095.0,3669.0,3525.0,4095.0,1.12,9.78,1.97,-0.07,0.03,-0.05,1.0,i
3088.0,3280.0,3015.0,3278.0,4095.0,3677.0,3528.0,4095.0,1.15,9.89,2.01,-0.09,0.02,-0.03,1.0,i
3087.0,3278.0,3007.0,3279.0,4095.0,3676.0,3536.0,4095.0,1.07,9.81,2.06,-0.08,0.03,-0.01,1.0,i
3088.0,3283.0,2999.0,3285.0,4095.0,3666.0,3525.0,4095.0,1.27,9.83,2.12,-0.07,-0.0,-0.0,1.0,i
3088.0,3276.0,3010.0,3280.0,4095.0,3670.0,3527.0,4095.0,1.27,9.9,2.03,-0.06,0.02,-0.04,1.0,i
3088.0,3281.0,3015.0,3283.0,4095.0,3678.0,3533.0,4095.0,1.26,9.87,2.0,-0.07,0.0,-0.03,1.0,i
3098.0,3278.0,3019.0,3281.0,4095.0,3664.0,3520.0,4095.0,1.33,9.88,2.09,-0.04,-0.04,-0.05,1.0,i
3093.0,3284.0,3008.0,3281.0,4095.0,3666.0,3525.0,4095.0,1.29,9.84,1.99,-0.08,0.04,-0.04,1.0,i
3095.0,3281.0,3014.0,3282.0,4095.0,3676.0,3531.0,4095.0,1.27,9.81,2.09,-0.07,0.01,-0.03,1.0,i
3097.0,3280.0,3017.0,3284.0,4095.0,3676.0,3534.0,4095.0,1.2,9.84,2.06,-0.08,0.01,-0.04,1.0,i
3107.0,3278.0,3013.0,3282.0,4095.0,3664.0,3522.0,4095.0,1.31,9.84,2.15,-0.06,-0.0,-0.04,1.0,i
3088.0,3277.0,3011.0,3280.0,4095.0,3669.0,3536.0,4095.0,1.3,9.87,2.1,-0.05,-0.0,-0.03,1.0,i
3098.0,3275.0,3020.0,3280.0,4095.0,3680.0,3535.0,4095.0,1.3,9.81,2.17,-0.07,0.02,-0.02,1.0,i
3097.0,3271.0,3013.0,3279.0,4095.0,3666.0,3532.0,4095.0,1.37,9.81,2.15,-0.03,0.0,-0.06,1.0,i
3101.0,3290.0,3013.0,3279.0,4095.0,3680.0,3536.0,4095.0,1.25,9.86,2.01,-0.05,0.07,-0.03,1.0,i
3102.0,3271.0,3008.0,3280.0,4095.0,3675.0,3536.0,4095.0,1.14,9.88,1.94,-0.05,0.0,-0.05,1.0,i
3088.0,3280.0,3018.0,3280.0,4095.0,3679.0,3531.0,4095.0,1.07,9.81,1.99,-0.07,0.03,-0.01,1.0,i
3099.0,3271.0,3005.0,3282.0,4095.0,3666.0,3521.0,4095.0,1.17,9.83,2.05,-0.05,-0.01,-0.03,1.0,i
3090.0,3282.0,3018.0,3282.0,4095.0,3675.0,3529.0,4095.0,1.22,9.83,2.1,-0.05,-0.01,-0.01,1.0,i
3097.0,3296.0,3021.0,3271.0,4095.0,3658.0,3521.0,4095.0,2.27,8.24,5.67,-0.08,0.01,-0.04,1.0,i
3087.0,3280.0,3008.0,3266.0,4095.0,3667.0,3525.0,4095.0,2.18,8.3,5.7,-0.04,0.0,-0.05,1.0,i
3101.0,3285.0,3015.0,3274.0,4095.0,3667.0,3518.0,4095.0,2.12,8.25,5.67,-0.05,0.02,-0.04,1.0,i
3085.0,3271.0,3015.0,3268.0,4095.0,3658.0,3529.0,4095.0,2.16,8.31,5.64,-0.02,0.01,-0.05,1.0,i
3099.0,3287.0,3022.0,3269.0,4095.0,3675.0,3533.0,4095.0,2.15,8.26,5.6,-0.03,0.03,-0.03,1.0,i
3088.0,3270.0,3014.0,3267.0,4095.0,3659.0,3531.0,4095.0,2.2,8.3,5.57,-0.02,-0.01,-0.04,1.0,i
3089.0,3274.0,3024.0,3266.0,4095.0,3665.0,3533.0,4095.0,2.22,8.37,5.55,-0.03,0.02,-0.03,1.0,i
3087.0,3282.0,3009.0,3270.0,4095.0,3666.0,3533.0,4095.0,2.17,8.32,5.58,-0.03,-0.0,-0.03,1.0,i
3101.0,3280.0,3022.0,3271.0,4095.0,3657.0,3520.0,4095.0,2.34,8.31,5.64,-0.04,-0.01,-0.05,1.0,i
3095.0,3280.0,3021.0,3271.0,4095.0,3659.0,3522.0,4095.0,2.18,8.28,5.58,-0.03,-0.0,-0.05,1.0,i
3095.0,3277.0,3024.0,3269.0,4095.0,3651.0,3525.0,4095.0,2.09,8.32,5.49,-0.02,0.01,-0.04,1.0,i
3097.0,3281.0,3024.0,3277.0,4095.0,3668.0,3529.0,4095.0,2.11,8.34,5.43,-0.05,0.01,-0.02,1.0,i
3100.0,3284.0,3020.0,3277.0,4095.0,3655.0,3524.0,4095.0,2.23,8.36,5.37,-0.04,-0.0,-0.05,1.0,i
3091.0,3280.0,3015.0,3275.0,4095.0,3663.0,3531.0,4095.0,2.2,8.39,5.41,-0.1,0.0,-0.03,1.0,i
3089.0,3280.0,3010.0,3271.0,4095.0,3670.0,3529.0,4095.0,2.08,8.35,5.53,-0.08,-0.01,-0.04,1.0,i
3099.0,3280.0,3018.0,3267.0,4095.0,3658.0,3531.0,4095.0,2.08,8.3,5.65,-0.09,0.0,-0.01,1.0,i
3089.0,3267.0,3014.0,3264.0,4095.0,3669.0,3529.0,4095.0,2.15,8.33,5.62,-0.06,-0.01,-0.02,1.0,i
3098.0,3280.0,3013.0,3271.0,4095.0,3665.0,3535.0,4095.0,2.11,8.28,5.58,-0.06,0.01,-0.02,1.0,i
3095.0,3280.0,3015.0,3266.0,4095.0,3665.0,3532.0,4095.0,2.18,8.38,5.52,-0.06,0.0,-0.02,1.0,i
3106.0,3279.0,3005.0,3270.0,4095.0,3656.0,3525.0,4095.0,2.28,8.34,5.55,-0.05,-0.02,-0.05,1.0,i
3100.0,3277.0,3024.0,3270.0,4095.0,3623.0,3494.0,4095.0,-1.56,9.85,1.4,-0.09,0.05,-0.02,1.0,i
3088.0,3280.0,3021.0,3267.0,4095.0,3618.0,3497.0,4095.0,-1.48,9.89,1.41,-0.06,-0.01,-0.02,1.0,i
3085.0,3271.0,3014.0,3256.0,4095.0,3616.0,3489.0,4095.0,-1.37,9.82,1.45,-0.09,0.04,0.01,1.0,i
3083.0,3285.0,3008.0,3259.0,4095.0,3615.0,3489.0,4095.0,-1.24,9.86,1.48,-0.05,-0.02,-0.03,1.0,i
3095.0,3284.0,3013.0,3263.0,4095.0,3621.0,3502.0,4095.0,-1.29,9.86,1.5,-0.07,0.03,-0.02,1.0,i
3095.0,3290.0,3028.0,3266.0,4095.0,3627.0,3495.0,4095.0,-1.38,9.88,1.43,-0.06,0.03,-0.03,1.0,i
3097.0,3282.0,3025.0,3265.0,4095.0,3627.0,3495.0,4095.0,-1.33,9.87,1.38,-0.08,0.02,-0.02,1.0,i
3106.0,3289.0,3024.0,3270.0,4095.0,3628.0,3500.0,4095.0,-1.26,9.87,1.43,-0.08,-0.01,-0.02,1.0,i
3094.0,3270.0,3023.0,3264.0,4095.0,3627.0,3495.0,4095.0,-1.36,9.82,1.62,-0.07,-0.03,-0.02,1.0,i
3089.0,3285.0,3011.0,3263.0,4095.0,3618.0,3494.0,4095.0,-1.27,9.82,1.55,-0.04,0.0,-0.02,1.0,i
3092.0,3283.0,3024.0,3267.0,4095.0,3623.0,3494.0,4095.0,-1.34,9.8,1.42,-0.05,0.01,-0.02,1.0,i
3094.0,3281.0,3028.0,3271.0,4095.0,3626.0,3492.0,4095.0,-1.22,9.88,1.34,-0.06,0.04,-0.04,1.0,i
3092.0,3280.0,3011.0,3263.0,4095.0,3621.0,3491.0,4095.0,-1.41,9.86,1.46,-0.04,-0.01,-0.05,1.0,i
3099.0,3281.0,3024.0,3269.0,4095.0,3615.0,3495.0,4095.0,-1.32,9.81,1.61,-0.07,0.01,-0.01,1.0,i
3082.0,3277.0,3021.0,3267.0,4095.0,3623.0,3494.0,4095.0,-1.26,9.84,1.46,-0.06,0.03,-0.02,1.0,i
3094.0,3280.0,3020.0,3265.0,4095.0,3621.0,3500.0,4095.0,-1.35,9.79,1.5,-0.06,0.01,-0.05,1.0,i
3089.0,3274.0,3014.0,3270.0,4095.0,3617.0,3491.0,4095.0,-1.41,9.84,1.51,-0.05,-0.01,-0.02,1.0,i
3091.0,3286.0,3025.0,3267.0,4095.0,3627.0,3487.0,4095.0,-1.26,9.81,1.54,-0.06,0.01,-0.01,1.0,i
3088.0,3291.0,3024.0,3273.0,4095.0,3619.0,3489.0,4095.0,-1.28,9.83,1.5,-0.05,-0.0,-0.04,1.0,i
3092.0,3280.0,3023.0,3278.0,4095.0,3632.0,3491.0,4095.0,-1.2,9.87,1.43,-0.05,0.0,-0.05,1.0,i
3090.0,3283.0,3014.0,3319.0,4095.0,3636.0,3504.0,4095.0,-2.84,7.47,5.74,-0.09,-0.06,-0.03,1.0,i
3090.0,3283.0,3014.0,3319.0,4095.0,3636.0,3504.0,4095.0,-2.84,7.47,5.74,-0.09,-0.06,-0.03,1.0,i
3098.0,3283.0,3023.0,3326.0,4095.0,3634.0,3508.0,4095.0,-3.2,7.01,6.01,-0.18,-0.17,-0.12,1.0,i
3098.0,3279.0,3024.0,3328.0,4095.0,3633.0,3507.0,4095.0,-3.0,7.28,6.11,-0.08,-0.04,-0.09,1.0,i
3087.0,3279.0,3023.0,3326.0,4095.0,3641.0,3515.0,4095.0,-3.31,7.17,6.33,-0.08,-0.01,-0.1,1.0,i
3097.0,3280.0,3024.0,3329.0,4095.0,3637.0,3506.0,4095.0,-3.46,7.2,6.35,-0.01,-0.02,-0.09,1.0,i
3092.0,3282.0,3024.0,3331.0,4095.0,3639.0,3504.0,4095.0,-3.41,7.12,6.25,-0.04,0.03,-0.04,1.0,i
3088.0,3285.0,3015.0,3327.0,4095.0,3635.0,3512.0,4095.0,-3.55,7.06,6.2,-0.09,-0.02,-0.02,1.0,i
3090.0,3268.0,3021.0,3327.0,4095.0,3645.0,3521.0,4095.0,-3.3,7.21,6.28,-0.01,-0.04,0.03,1.0,i
3100.0,3280.0,3023.0,3327.0,4095.0,3638.0,3511.0,4095.0,-3.21,7.17,6.17,-0.04,0.06,0.09,1.0,i
3085.0,3271.0,3019.0,3328.0,4095.0,3644.0,3518.0,4095.0,-3.14,7.2,6.16,-0.01,0.0,0.02,1.0,i
3093.0,3280.0,3021.0,3327.0,4095.0,3633.0,3519.0,4095.0,-3.02,7.21,6.26,-0.03,-0.01,0.0,1.0,i
3101.0,3278.0,3028.0,3329.0,4095.0,3647.0,3521.0,4095.0,-3.04,7.26,6.26,-0.03,-0.0,-0.0,1.0,i
3099.0,3275.0,3022.0,3335.0,4095.0,3642.0,3509.0,4095.0,-3.07,7.26,6.17,-0.02,0.02,-0.03,1.0,i
3088.0,3269.0,3018.0,3321.0,4095.0,3635.0,3514.0,4095.0,-3.05,7.35,6.08,-0.01,0.0,-0.07,1.0,i
3094.0,3281.0,3019.0,3327.0,4095.0,3638.0,3519.0,4095.0,-3.21,7.32,6.01,-0.03,0.04,-0.06,1.0,i
3089.0,3287.0,3024.0,3334.0,4095.0,3638.0,3513.0,4095.0,-3.35,7.27,5.98,-0.06,-0.01,-0.06,1.0,i
3089.0,3268.0,3023.0,3323.0,4095.0,3632.0,3516.0,4095.0,-3.44,7.26,6.12,-0.07,-0.01,-0.03,1.0,i
3091.0,3271.0,3025.0,3339.0,4095.0,3648.0,3510.0,4095.0,-3.29,7.29,6.05,-0.07,-0.01,-0.0,1.0,i
3089.0,3269.0,3024.0,3324.0,4095.0,3632.0,3508.0,4095.0,-3.19,7.26,6.17,-0.05,-0.06,-0.01,1.0,i
3090.0,3275.0,3007.0,3265.0,4095.0,3677.0,3536.0,4095.0,3.43,8.51,4.57,0.03,-0.01,-0.08,1.0,i
3090.0,3275.0,3007.0,3265.0,4095.0,3677.0,3536.0,4095.0,3.43,8.51,4.57,0.03,-0.01,-0.08,1.0,i
3092.0,3295.0,3012.0,3270.0,4095.0,3661.0,3534.0,4095.0,3.42,8.47,4.42,-0.08,0.04,-0.0,1.0,i
3090.0,3293.0,3008.0,3275.0,4095.0,3677.0,3536.0,4095.0,3.52,8.41,4.46,-0.07,-0.0,-0.02,1.0,i
3084.0,3290.0,3015.0,3266.0,4095.0,3665.0,3538.0,4095.0,3.58,8.51,4.49,-0.13,0.04,-0.01,1.0,i
3088.0,3296.0,3019.0,3276.0,4095.0,3675.0,3531.0,4095.0,3.48,8.45,4.68,-0.11,-0.02,-0.03,1.0,i
3099.0,3282.0,3022.0,3280.0,4095.0,3669.0,3524.0,4095.0,3.45,8.35,4.8,-0.1,0.01,-0.01,1.0,i
3091.0,3282.0,3003.0,3274.0,4095.0,3666.0,3533.0,4095.0,3.53,8.43,4.77,-0.07,0.01,-0.03,1.0,i
3088.0,3279.0,3013.0,3270.0,4095.0,3664.0,3539.0,4095.0,3.57,8.35,4.76,-0.11,0.01,-0.01,1.0,i
3091.0,3274.0,3006.0,3271.0,4095.0,3655.0,3531.0,4095.0,3.56,8.32,4.89,-0.09,0.01,-0.03,1.0,i
3088.0,3283.0,3013.0,3278.0,4095.0,3669.0,3538.0,4095.0,3.5,8.29,4.95,-0.05,-0.01,-0.05,1.0,i
3090.0,3265.0,3007.0,3269.0,4095.0,3665.0,3536.0,4095.0,3.56,8.33,4.82,-0.04,0.02,-0.05,1.0,i
3093.0,3282.0,3017.0,3279.0,4095.0,3665.0,3520.0,4095.0,3.57,8.42,4.66,-0.05,0.01,-0.05,1.0,i
3071.0,3278.0,3013.0,3271.0,4095.0,3657.0,3536.0,4095.0,3.56,8.38,4.69,-0.05,-0.01,-0.04,1.0,i
3094.0,3279.0,3008.0,3275.0,4095.0,3665.0,3536.0,4095.0,3.5,8.38,4.74,-0.03,-0.03,-0.06,1.0,i
3097.0,3291.0,3024.0,3279.0,4095.0,3667.0,3536.0,4095.0,3.45,8.43,4.76,-0.07,0.01,-0.04,1.0,i
3087.0,3280.0,3021.0,3277.0,4095.0,3667.0,3541.0,4095.0,3.35,8.28,4.83,-0.08,-0.06,-0.03,1.0,i
3084.0,3270.0,3007.0,3274.0,4095.0,3658.0,3536.0,4095.0,3.59,8.31,5.01,-0.06,-0.01,-0.02,1.0,i
3089.0,3296.0,3023.0,3275.0,4095.0,3667.0,3536.0,4095.0,3.61,8.4,4.73,0.01,-0.01,-0.04,1.0,i
3089.0,3275.0,3013.0,3276.0,4095.0,3663.0,3530.0,4095.0,3.73,8.44,4.45,-0.03,-0.0,-0.04,1.0,i
3088.0,3278.0,3015.0,3241.0,4095.0,3664.0,3536.0,4095.0,3.64,8.33,4.9,-0.03,-0.0,-0.03,1.0,i
3102.0,3277.0,3012.0,3242.0,4095.0,3673.0,3549.0,4095.0,3.55,8.36,4.88,-0.0,-0.01,-0.08,1.0,i
3090.0,3289.0,3009.0,3247.0,4095.0,3661.0,3538.0,4095.0,3.42,8.35,4.71,-0.1,0.01,0.01,1.0,i
3088.0,3280.0,3010.0,3248.0,4095.0,3664.0,3534.0,4095.0,3.53,8.39,4.85,-0.05,-0.04,-0.06,1.0,i
3104.0,3279.0,3015.0,3248.0,4095.0,3683.0,3549.0,4095.0,3.45,8.37,4.85,-0.09,0.03,-0.0,1.0,i
3083.0,3266.0,3024.0,3239.0,4095.0,3675.0,3549.0,4095.0,3.52,8.3,4.84,-0.08,0.0,-0.01,1.0,i
3099.0,3286.0,3013.0,3238.0,4095.0,3665.0,3539.0,4095.0,3.59,8.33,4.94,-0.06,0.01,-0.02,1.0,i
3085.0,3271.0,3006.0,3238.0,4095.0,3671.0,3540.0,4095.0,3.48,8.3,4.96,-0.06,0.0,-0.04,1.0,i
3091.0,3290.0,3017.0,3245.0,4095.0,3674.0,3550.0,4095.0,3.53,8.24,4.9,-0.07,0.02,-0.02,1.0,i
3089.0,3271.0,3015.0,3243.0,4095.0,3675.0,3550.0,4095.0,3.6,8.3,4.91,-0.06,-0.03,-0.05,1.0,i
3099.0,3283.0,3011.0,3245.0,4095.0,3665.0,3539.0,4095.0,3.48,8.23,4.92,-0.05,0.01,-0.04,1.0,i
3086.0,3282.0,3015.0,3248.0,4095.0,3673.0,3543.0,4095.0,3.55,8.26,4.89,-0.07,-0.02,-0.02,1.0,i
3087.0,3277.0,3012.0,3237.0,4095.0,3666.0,3547.0,4095.0,3.57,8.28,4.93,-0.06,-0.03,-0.05,1.0,i
3089.0,3279.0,3025.0,3234.0,4095.0,3669.0,3557.0,4095.0,3.6,8.26,4.95,-0.06,0.0,-0.04,1.0,i
3088.0,3292.0,3006.0,3238.0,4095.0,3670.0,3551.0,4095.0,3.55,8.28,4.99,-0.05,-0.01,-0.05,1.0,i
3088.0,3285.0,3014.0,3237.0,4095.0,3663.0,3543.0,4095.0,3.5,8.31,4.85,-0.04,0.01,-0.04,1.0,i
3091.0,3274.0,3021.0,3233.0,4095.0,3664.0,3541.0,4095.0,3.53,8.31,4.85,-0.04,-0.03,-0.06,1.0,i
3088.0,3282.0,3007.0,3237.0,4095.0,3666.0,3539.0,4095.0,3.53,8.34,4.88,-0.04,-0.01,-0.06,1.0,i
3091.0,3301.0,3011.0,3247.0,4095.0,3681.0,3541.0,4095.0,3.47,8.28,4.9,-0.03,-0.01,-0.05,1.0,i
3106.0,3283.0,3019.0,3245.0,4095.0,3677.0,3536.0,4095.0,3.52,8.34,4.79,-0.05,-0.01,-0.04,1.0,i
3088.0,3276.0,2999.0,3227.0,4095.0,3665.0,3540.0,4095.0,0.14,6.36,7.94,-0.03,-0.05,-0.01,1.0,i
3090.0,3280.0,2999.0,3220.0,4095.0,3664.0,3549.0,4095.0,0.08,6.46,7.87,-0.08,-0.02,0.02,1.0,i
3082.0,3291.0,2995.0,3229.0,4095.0,3661.0,3534.0,4095.0,0.07,6.38,7.91,-0.04,-0.07,-0.03,1.0,i
3095.0,3282.0,2999.0,3237.0,4095.0,3664.0,3546.0,4095.0,0.15,6.47,7.88,-0.11,0.01,0.02,1.0,i
3087.0,3275.0,3008.0,3242.0,4095.0,3665.0,3543.0,4095.0,0.08,6.48,7.88,-0.04,-0.04,-0.07,1.0,i
3088.0,3292.0,3007.0,3242.0,4095.0,3677.0,3550.0,4095.0,0.01,6.49,7.88,-0.09,0.03,-0.0,1.0,i
3089.0,3286.0,3008.0,3248.0,4095.0,3662.0,3542.0,4095.0,0.04,6.44,7.86,-0.09,-0.03,-0.04,1.0,i
3095.0,3285.0,3003.0,3249.0,4095.0,3663.0,3541.0,4095.0,0.01,6.43,7.98,-0.07,0.01,-0.04,1.0,i
3090.0,3280.0,3008.0,3247.0,4095.0,3674.0,3541.0,4095.0,0.09,6.37,7.96,-0.07,0.0,-0.03,1.0,i
3097.0,3281.0,3013.0,3246.0,4095.0,3664.0,3543.0,4095.0,0.11,6.37,7.91,-0.07,-0.01,-0.04,1.0,i
3088.0,3290.0,2998.0,3243.0,4095.0,3665.0,3548.0,4095.0,0.04,6.36,8.05,-0.07,-0.01,-0.04,1.0,i
3090.0,3283.0,3006.0,3250.0,4095.0,3671.0,3543.0,4095.0,-0.01,6.33,8.15,-0.06,0.01,-0.02,1.0,i
3071.0,3277.0,3006.0,3246.0,4095.0,3665.0,3539.0,4095.0,-0.06,6.29,8.13,-0.0,-0.0,-0.04,1.0,i
3104.0,3280.0,3008.0,3249.0,4095.0,3685.0,3537.0,4095.0,0.06,6.5,7.9,0.0,0.01,-0.02,1.0,i
3095.0,3281.0,2999.0,3254.0,4095.0,3670.0,3535.0,4095.0,0.03,6.5,7.73,-0.05,0.01,-0.01,1.0,i
3093.0,3289.0,3007.0,3250.0,4095.0,3675.0,3540.0,4095.0,0.13,6.44,7.74,-0.08,-0.01,-0.03,1.0,i
3093.0,3273.0,2999.0,3251.0,4095.0,3667.0,3542.0,4095.0,0.04,6.5,7.83,-0.09,-0.01,-0.05,1.0,i
3088.0,3270.0,3002.0,3250.0,4095.0,3664.0,3543.0,4095.0,0.05,6.49,7.93,-0.08,-0.01,-0.04,1.0,i
3097.0,3282.0,3017.0,3253.0,4095.0,3670.0,3537.0,4095.0,0.01,6.43,7.93,-0.11,0.03,0.05,1.0,i
3083.0,3280.0,3003.0,3245.0,4095.0,3664.0,3542.0,4095.0,0.05,6.47,7.96,-0.07,0.04,0.01,1.0,i
3085.0,3278.0,2998.0,3303.0,4095.0,3658.0,3537.0,4095.0,-1.01,9.9,1.49,-0.09,0.03,-0.01,1.0,i
3087.0,3285.0,3018.0,3312.0,4095.0,3659.0,3533.0,4095.0,-1.05,9.89,1.47,-0.07,0.0,-0.01,1.0,i
3107.0,3294.0,3016.0,3312.0,4095.0,3669.0,3539.0,4095.0,-0.9,9.92,1.48,-0.04,-0.02,-0.04,1.0,i
3098.0,3294.0,3017.0,3312.0,4095.0,3667.0,3536.0,4095.0,-0.84,9.89,1.52,-0.07,0.0,-0.02,1.0,i
3093.0,3281.0,3011.0,3317.0,4095.0,3654.0,3533.0,4095.0,-0.79,9.94,1.5,-0.04,-0.02,-0.06,1.0,i
3088.0,3280.0,3019.0,3313.0,4095.0,3664.0,3549.0,4095.0,-0.77,9.92,1.49,-0.08,-0.01,-0.03,1.0,i
3095.0,3290.0,3021.0,3314.0,4095.0,3659.0,3536.0,4095.0,-0.82,9.87,1.52,-0.05,0.01,-0.06,1.0,i
3086.0,3276.0,3005.0,3307.0,4095.0,3662.0,3536.0,4095.0,-0.87,9.96,1.5,-0.05,-0.0,-0.06,1.0,i
3099.0,3281.0,3017.0,3312.0,4095.0,3673.0,3544.0,4095.0,-0.83,9.93,1.51,-0.04,-0.03,-0.05,1.0,i
3091.0,3276.0,3006.0,3313.0,4095.0,3657.0,3533.0,4095.0,-0.91,9.89,1.56,-0.08,-0.02,-0.02,1.0,i
3093.0,3278.0,3023.0,3310.0,4095.0,3665.0,3547.0,4095.0,-0.96,9.9,1.52,-0.08,0.02,-0.02,1.0,i
3071.0,3267.0,3007.0,3312.0,4095.0,3661.0,3543.0,4095.0,-0.81,9.94,1.45,-0.05,0.0,-0.02,1.0,i
3104.0,3281.0,3011.0,3317.0,4095.0,3669.0,3536.0,4095.0,-0.89,9.91,1.55,-0.04,-0.0,-0.05,1.0,i
3092.0,3275.0,3013.0,3312.0,4095.0,3666.0,3546.0,4095.0,-0.6,9.87,1.71,-0.03,-0.08,-0.08,1.0,i
3101.0,3295.0,3010.0,3318.0,4095.0,3651.0,3531.0,4095.0,-0.89,9.9,1.49,0.0,0.03,-0.12,1.0,i
3089.0,3283.0,3015.0,3315.0,4095.0,3664.0,3541.0,4095.0,-1.34,9.95,1.31,-0.08,0.06,-0.04,1.0,i
3095.0,3281.0,3023.0,3312.0,4095.0,3671.0,3547.0,4095.0,-1.09,9.89,1.46,-0.05,-0.03,-0.03,1.0,i
3098.0,3279.0,3018.0,3312.0,4095.0,3664.0,3536.0,4095.0,-0.91,9.92,1.41,-0.09,0.01,0.0,1.0,i
3105.0,3280.0,3009.0,3313.0,4095.0,3659.0,3536.0,4095.0,-0.68,9.96,1.36,-0.08,0.0,-0.03,1.0,i
3089.0,3292.0,3019.0,3313.0,4095.0,3665.0,3536.0,4095.0,-0.72,9.95,1.41,-0.1,-0.01,-0.06,1.0,i
3083.0,3277.0,2994.0,3311.0,4095.0,3651.0,3536.0,4095.0,-3.56,8.38,4.11,0.0,-0.03,-0.07,1.0,i
3088.0,3287.0,2993.0,3307.0,4095.0,3648.0,3535.0,4095.0,-3.58,8.46,3.97,-0.13,0.09,0.05,1.0,i
3095.0,3290.0,2999.0,3313.0,4095.0,3651.0,3536.0,4095.0,-3.61,8.39,4.09,-0.11,-0.05,0.01,1.0,i
3087.0,3297.0,3003.0,3313.0,4095.0,3664.0,3534.0,4095.0,-3.38,8.51,4.06,0.01,-0.03,-0.05,1.0,i
3088.0,3277.0,3008.0,3317.0,4095.0,3663.0,3534.0,4095.0,-3.46,8.39,4.08,-0.1,0.04,0.01,1.0,i
3088.0,3291.0,3007.0,3315.0,4095.0,3663.0,3542.0,4095.0,-3.33,8.39,4.12,-0.03,-0.04,-0.06,1.0,i
3084.0,3295.0,3003.0,3309.0,4095.0,3653.0,3539.0,4095.0,-3.46,8.42,4.06,-0.09,0.03,-0.01,1.0,i
3102.0,3283.0,2999.0,3317.0,4095.0,3664.0,3537.0,4095.0,-3.52,8.35,4.13,-0.04,-0.04,-0.07,1.0,i
3099.0,3279.0,2999.0,3315.0,4095.0,3666.0,3539.0,4095.0,-3.49,8.46,4.07,-0.06,0.01,-0.02,1.0,i
3088.0,3283.0,3015.0,3314.0,4095.0,3664.0,3543.0,4095.0,-3.54,8.4,4.04,-0.07,-0.01,-0.03,1.0,i
3101.0,3285.0,3008.0,3316.0,4095.0,3664.0,3537.0,4095.0,-3.41,8.46,4.06,-0.02,-0.03,-0.06,1.0,i
3085.0,3282.0,2998.0,3312.0,4095.0,3657.0,3537.0,4095.0,-3.46,8.45,4.04,-0.1,0.03,0.01,1.0,i
3086.0,3282.0,3013.0,3311.0,4095.0,3654.0,3536.0,4095.0,-3.48,8.47,4.05,-0.1,-0.01,0.01,1.0,i
3101.0,3280.0,3008.0,3322.0,4095.0,3664.0,3547.0,4095.0,-3.41,8.4,4.23,-0.01,-0.02,-0.07,1.0,i
3091.0,3291.0,3009.0,3316.0,4095.0,3664.0,3536.0,4095.0,-3.45,8.45,4.07,-0.1,0.04,0.0,1.0,i
3089.0,3290.0,2997.0,3315.0,4095.0,3650.0,3535.0,4095.0,-3.44,8.38,4.13,-0.09,-0.0,-0.01,1.0,i
3071.0,3280.0,2998.0,3312.0,4095.0,3651.0,3531.0,4095.0,-3.44,8.37,4.22,-0.04,-0.0,-0.05,1.0,i
3082.0,3276.0,3010.0,3317.0,4095.0,3664.0,3546.0,4095.0,-3.49,8.47,4.07,-0.08,0.02,-0.02,1.0,i
3090.0,3274.0,3007.0,3317.0,4095.0,3665.0,3541.0,4095.0,-3.4,8.46,4.02,-0.05,0.0,-0.02,1.0,i
3088.0,3287.0,3008.0,3313.0,4095.0,3664.0,3543.0,4095.0,-3.43,8.45,4.09,-0.05,0.02,-0.04,1.0,i
3062.0,3379.0,2992.0,3245.0,4095.0,3813.0,3658.0,4095.0,0.86,9.29,4.39,-0.09,0.11,-0.01,1.0,i
3041.0,3374.0,2992.0,3239.0,4095.0,3811.0,3663.0,4095.0,1.14,9.01,4.41,-0.15,0.07,0.08,1.0,i
3056.0,3388.0,2993.0,3247.0,4095.0,3808.0,3659.0,4095.0,1.49,8.63,4.96,-0.1,0.06,0.03,1.0,i
3046.0,3364.0,2992.0,3245.0,4095.0,3810.0,3663.0,4095.0,1.43,9.43,4.46,0.02,0.16,-0.05,1.0,i
3055.0,3371.0,2991.0,3248.0,4095.0,3817.0,3664.0,4095.0,1.41,8.79,4.71,-0.11,0.2,0.07,1.0,i
3053.0,3377.0,2990.0,3253.0,4095.0,3813.0,3664.0,4095.0,1.79,8.93,4.7,-0.04,-0.01,-0.06,1.0,i
3043.0,3367.0,2994.0,3267.0,4095.0,3815.0,3663.0,4095.0,1.71,9.05,4.52,-0.13,0.16,-0.02,1.0,i
3045.0,3378.0,2994.0,3265.0,4095.0,3823.0,3673.0,4095.0,1.37,9.01,4.6,-0.21,0.21,0.01,1.0,i
3049.0,3373.0,2992.0,3270.0,4095.0,3814.0,3664.0,4095.0,1.52,9.06,4.84,0.07,0.06,-0.21,1.0,i
3061.0,3381.0,2992.0,3273.0,4095.0,3815.0,3665.0,4095.0,1.75,9.04,4.87,-0.1,0.14,-0.16,1.0,i
3046.0,3376.0,3007.0,3268.0,4095.0,3793.0,3653.0,4095.0,1.45,8.92,4.86,-0.09,0.33,-0.23,1.0,i
3043.0,3374.0,3005.0,3269.0,4095.0,3796.0,3667.0,4095.0,0.89,8.85,4.82,0.08,0.15,-0.34,1.0,i
3045.0,3385.0,3003.0,3274.0,4095.0,3807.0,3675.0,4095.0,0.4,9.09,4.52,0.05,0.02,-0.2,1.0,i
3051.0,3386.0,2997.0,3277.0,4095.0,3803.0,3664.0,4095.0,0.57,9.07,4.4,-0.05,0.14,-0.07,1.0,i
3044.0,3375.0,3009.0,3270.0,4095.0,3797.0,3670.0,4095.0,0.59,9.23,4.2,0.09,-0.02,-0.19,1.0,i
3042.0,3365.0,2998.0,3278.0,4095.0,3802.0,3664.0,4095.0,0.87,9.11,4.26,0.04,-0.13,-0.21,1.0,i
3056.0,3383.0,2997.0,3275.0,4095.0,3805.0,3671.0,4095.0,0.74,9.34,4.02,-0.0,-0.04,-0.19,1.0,i
3047.0,3383.0,3003.0,3277.0,4095.0,3799.0,3664.0,4095.0,0.97,9.35,3.97,-0.11,0.12,-0.2,1.0,i
3053.0,3373.0,2997.0,3269.0,4095.0,3798.0,3673.0,4095.0,0.84,9.37,3.6,0.01,0.31,-0.45,1.0,i
3061.0,3391.0,3001.0,3273.0,4095.0,3810.0,3666.0,4095.0,0.46,9.21,3.74,-0.34,0.25,-0.39,1.0,i
3200.0,3945.0,3062.0,3152.0,3970.0,3616.0,3480.0,4095.0,-0.89,8.52,5.47,-0.07,0.01,-0.02,1.0,i
3195.0,3952.0,3084.0,3153.0,3974.0,3632.0,3489.0,4095.0,-0.84,8.56,5.42,-0.04,0.0,-0.03,1.0,i
3184.0,3938.0,3085.0,3152.0,3952.0,3621.0,3475.0,4095.0,-0.8,8.52,5.45,-0.07,0.01,-0.02,1.0,i
3184.0,3957.0,3088.0,3152.0,3984.0,3632.0,3493.0,4095.0,-0.76,8.51,5.56,-0.06,0.01,-0.03,1.0,i
3199.0,3937.0,3089.0,3152.0,3961.0,3613.0,3479.0,4095.0,-0.81,8.5,5.48,-0.05,0.0,-0.04,1.0,i
3187.0,3971.0,3101.0,3158.0,3978.0,3632.0,3478.0,4095.0,-0.86,8.51,5.43,-0.05,0.02,-0.04,1.0,i
3195.0,3966.0,3090.0,3157.0,3983.0,3633.0,3491.0,4095.0,-0.93,8.49,5.42,-0.05,-0.0,-0.04,1.0,i
3190.0,3957.0,3088.0,3155.0,3968.0,3614.0,3477.0,4095.0,-0.87,8.57,5.41,-0.04,-0.01,-0.04,1.0,i
3198.0,3946.0,3071.0,3152.0,3973.0,3625.0,3489.0,4095.0,-0.89,8.55,5.34,-0.05,0.0,-0.01,1.0,i
3190.0,3951.0,3088.0,3158.0,3974.0,3631.0,3484.0,4095.0,-0.89,8.6,4.99,-0.1,-0.0,-0.01,1.0,i
3195.0,3948.0,3082.0,3152.0,3961.0,3627.0,3479.0,4095.0,-1.12,8.48,5.14,-0.21,-0.02,0.04,1.0,i
3201.0,3958.0,3090.0,3157.0,3967.0,3616.0,3472.0,4095.0,-1.02,8.36,5.75,-0.23,-0.05,0.07,1.0,i
3193.0,3954.0,3094.0,3151.0,3977.0,3631.0,3479.0,4095.0,-0.66,8.32,6.15,-0.15,-0.03,0.11,1.0,i
3207.0,3960.0,3095.0,3154.0,3963.0,3618.0,3480.0,4095.0,-0.42,8.39,5.88,-0.06,0.02,0.1,1.0,i
3199.0,3967.0,3107.0,3155.0,3983.0,3631.0,3491.0,4095.0,-0.32,8.38,5.52,-0.06,0.01,0.06,1.0,i
3193.0,3963.0,3109.0,3151.0,3966.0,3620.0,3486.0,4095.0,-0.45,8.43,5.5,-0.07,0.06,0.04,1.0,i
3193.0,3963.0,3110.0,3159.0,3961.0,3618.0,3479.0,4095.0,-0.51,8.4,5.64,-0.09,0.0,0.01,1.0,i
3193.0,3959.0,3130.0,3157.0,3982.0,3631.0,3486.0,4095.0,-0.46,8.34,5.83,-0.09,0.01,0.03,1.0,i
3188.0,3967.0,3120.0,3158.0,3968.0,3617.0,3479.0,4095.0,-0.31,8.4,5.86,-0.05,0.01,-0.01,1.0,i
3198.0,3962.0,3134.0,3154.0,3974.0,3629.0,3489.0,4095.0,-0.32,8.43,5.66,-0.03,0.03,-0.03,1.0,i
3196.0,3344.0,3008.0,3287.0,3981.0,3691.0,3495.0,4095.0,-1.62,7.76,6.72,-0.08,0.01,0.05,1.0,i
3194.0,3344.0,3015.0,3287.0,3983.0,3696.0,3499.0,4095.0,-1.2,7.83,6.39,-0.02,-0.05,0.08,1.0,i
3201.0,3347.0,3011.0,3292.0,3994.0,3696.0,3504.0,4095.0,-0.84,8.0,6.2,0.05,-0.05,0.01,1.0,i
3203.0,3366.0,3008.0,3290.0,3984.0,3702.0,3504.0,4095.0,-0.81,7.99,6.15,-0.01,0.01,0.03,1.0,i
3194.0,3365.0,3018.0,3290.0,3982.0,3694.0,3494.0,4095.0,-0.9,8.06,6.11,0.01,-0.05,0.03,1.0,i
3188.0,3374.0,3011.0,3286.0,3983.0,3695.0,3503.0,4095.0,-0.89,8.04,6.05,0.02,-0.02,-0.02,1.0,i
3187.0,3377.0,3014.0,3294.0,3998.0,3690.0,3499.0,4095.0,-0.99,8.05,5.88,0.01,0.02,-0.04,1.0,i
3184.0,3377.0,3017.0,3293.0,3985.0,3696.0,3503.0,4095.0,-1.14,8.14,6.22,0.03,-0.09,-0.02,1.0,i
3193.0,3374.0,3008.0,3296.0,3984.0,3683.0,3498.0,4095.0,-0.51,8.27,6.21,0.11,-0.09,0.07,1.0,i
3193.0,3410.0,3011.0,3293.0,3984.0,3687.0,3504.0,4095.0,-0.28,8.36,5.8,0.15,0.1,-0.05,1.0,i
3193.0,3430.0,3024.0,3302.0,3991.0,3696.0,3499.0,4095.0,-0.66,8.45,5.71,0.19,-0.01,-0.02,1.0,i
3187.0,3437.0,3020.0,3294.0,3984.0,3678.0,3501.0,4095.0,-0.5,8.48,5.38,0.19,-0.03,0.03,1.0,i
3195.0,3534.0,3027.0,3307.0,4001.0,3689.0,3495.0,4095.0,-0.07,8.48,4.91,0.15,0.09,-0.11,1.0,i
3202.0,3538.0,3022.0,3308.0,3991.0,3675.0,3494.0,4095.0,-0.94,8.42,5.15,-0.04,0.1,-0.38,1.0,i
3189.0,3563.0,3021.0,3293.0,3984.0,3676.0,3497.0,4095.0,-1.49,8.24,5.48,-0.1,0.03,-0.32,1.0,i
3186.0,3574.0,3019.0,3301.0,3997.0,3679.0,3504.0,4095.0,-2.07,8.33,5.16,-0.23,-0.02,-0.22,1.0,i
3190.0,3583.0,3026.0,3310.0,3998.0,3696.0,3500.0,4095.0,-2.12,8.27,5.82,-0.17,-0.15,-0.15,1.0,i
3205.0,3578.0,3025.0,3311.0,3989.0,3685.0,3499.0,4095.0,-1.78,8.25,5.98,-0.09,-0.03,0.02,1.0,i
3199.0,3567.0,3024.0,3308.0,4001.0,3671.0,3502.0,4095.0,-1.24,8.27,5.77,-0.03,-0.03,0.05,1.0,i
3195.0,3579.0,3027.0,3309.0,4001.0,3671.0,3502.0,4095.0,-1.05,8.23,5.85,-0.04,-0.02,0.03,1.0,i
3195.0,3493.0,3021.0,3301.0,3996.0,3703.0,3504.0,4095.0,2.67,7.93,5.71,-0.04,0.02,-0.04,1.0,i
3184.0,3513.0,3019.0,3303.0,3984.0,3699.0,3511.0,4095.0,2.57,7.91,5.78,-0.17,0.15,0.04,1.0,i
3198.0,3536.0,3024.0,3312.0,3993.0,3700.0,3506.0,4095.0,2.85,7.87,6.12,-0.06,-0.05,-0.05,1.0,i
3200.0,3531.0,3022.0,3312.0,3984.0,3714.0,3511.0,4095.0,2.77,7.67,6.37,-0.09,0.12,-0.04,1.0,i
3206.0,3536.0,3024.0,3312.0,3999.0,3709.0,3511.0,4095.0,2.74,7.53,6.48,-0.05,0.0,-0.06,1.0,i
3204.0,3547.0,3029.0,3312.0,3998.0,3714.0,3522.0,4095.0,2.9,7.63,6.47,0.01,-0.02,-0.13,1.0,i
3200.0,3558.0,3024.0,3312.0,3983.0,3696.0,3510.0,4095.0,2.72,7.8,6.17,0.04,0.07,-0.16,1.0,i
3184.0,3539.0,3015.0,3299.0,3990.0,3706.0,3520.0,4095.0,2.43,7.8,5.96,-0.01,0.01,-0.1,1.0,i
3186.0,3549.0,3024.0,3306.0,3984.0,3707.0,3507.0,4095.0,2.46,7.98,5.82,0.0,-0.04,-0.1,1.0,i
3189.0,3553.0,3019.0,3309.0,3984.0,3698.0,3511.0,4095.0,2.84,7.99,6.08,0.01,-0.05,-0.14,1.0,i
3206.0,3553.0,3026.0,3307.0,3991.0,3709.0,3523.0,4095.0,2.59,7.78,5.94,-0.04,0.02,-0.12,1.0,i
3194.0,3559.0,3024.0,3309.0,3993.0,3701.0,3517.0,4095.0,2.36,7.96,5.94,-0.08,0.01,-0.09,1.0,i
3205.0,3579.0,3039.0,3313.0,4007.0,3695.0,3511.0,4095.0,2.49,7.98,6.07,-0.01,-0.09,-0.14,1.0,i
3199.0,3568.0,3024.0,3312.0,3987.0,3703.0,3521.0,4095.0,2.48,8.01,6.06,-0.02,0.01,-0.1,1.0,i
3194.0,3580.0,3031.0,3307.0,3985.0,3695.0,3507.0,4095.0,2.49,7.94,6.03,-0.02,-0.06,-0.14,1.0,i
3199.0,3568.0,3039.0,3312.0,3995.0,3712.0,3510.0,4095.0,2.6,8.05,6.06,0.02,-0.05,-0.18,1.0,i
3195.0,3574.0,3027.0,3303.0,3984.0,3709.0,3517.0,4095.0,2.51,7.98,6.07,0.0,-0.07,-0.17,1.0,i
3187.0,3571.0,3030.0,3309.0,3985.0,3706.0,3519.0,4095.0,2.43,8.0,6.01,0.03,-0.11,-0.23,1.0,i
3199.0,3567.0,3029.0,3306.0,3986.0,3700.0,3514.0,4095.0,2.1,8.11,5.81,0.05,-0.06,-0.22,1.0,i
3196.0,3583.0,3041.0,3311.0,3995.0,3710.0,3520.0,4095.0,1.78,8.15,5.6,0.03,0.02,-0.15,1.0,i
