hall_1,hall_2,hall_3,flex_t,flex_i,flex_m,flex_r,flex_p,accel_x,accel_y,accel_z,gyro_x,gyro_y,gyro_z,hand,sign
4095.0,4095.0,2961.0,3421.0,2802.0,1421.0,2779.0,4095.0,-3.03,8.97,4.96,-0.05,-0.11,-0.19,0.0,j
4095.0,4095.0,2948.0,3417.0,2802.0,1417.0,2778.0,4095.0,-3.4,9.04,5.16,-0.33,0.12,-0.23,0.0,j
4095.0,4095.0,2966.0,3429.0,2805.0,1424.0,2793.0,4095.0,-2.92,8.56,5.16,-0.51,-0.55,-0.35,0.0,j
4095.0,4095.0,2959.0,3417.0,2800.0,1418.0,2767.0,4095.0,-0.53,6.46,4.4,-2.14,-2.8,-0.84,0.0,j
4095.0,4095.0,2961.0,3408.0,2812.0,1413.0,2780.0,4095.0,-0.96,5.23,9.15,-2.78,-4.15,-0.53,0.0,j
4095.0,4095.0,2945.0,3265.0,2795.0,1413.0,2775.0,4095.0,4.53,4.6,15.72,-1.81,-5.91,-0.68,0.0,j
4095.0,4095.0,2874.0,3230.0,2707.0,1392.0,2714.0,4095.0,6.75,6.39,13.82,0.26,-5.37,-1.22,0.0,j
4095.0,4095.0,2886.0,3260.0,2707.0,1384.0,2719.0,4095.0,9.83,7.57,7.57,-0.2,-5.3,-2.26,0.0,j
4095.0,4095.0,2903.0,3283.0,2743.0,1394.0,2754.0,4095.0,7.34,8.14,3.03,-0.41,-5.91,-2.28,0.0,j
4095.0,4095.0,2912.0,3269.0,2760.0,1403.0,2751.0,4095.0,6.53,7.35,0.82,-0.73,-3.39,-1.48,0.0,j
4095.0,4095.0,2898.0,3247.0,2762.0,1404.0,2747.0,4095.0,3.11,7.83,0.99,-0.85,-1.5,-1.17,0.0,j
4095.0,4095.0,2916.0,3280.0,2783.0,1410.0,2767.0,4095.0,2.3,8.35,2.5,-0.58,-0.14,-0.53,0.0,j
4095.0,4095.0,2897.0,3291.0,2785.0,1408.0,2754.0,4095.0,0.28,8.85,2.2,-0.12,0.06,-0.25,0.0,j
4095.0,4095.0,2908.0,3301.0,2790.0,1414.0,2771.0,4095.0,1.08,9.28,2.06,0.08,0.1,-0.05,0.0,j
4095.0,4095.0,2910.0,3305.0,2790.0,1414.0,2772.0,4095.0,0.75,9.58,1.57,0.17,-0.12,-0.13,0.0,j
4095.0,4095.0,2898.0,3313.0,2799.0,1414.0,2775.0,4095.0,1.0,9.24,1.36,0.12,-0.02,-0.08,0.0,j
4095.0,4095.0,2902.0,3311.0,2790.0,1408.0,2772.0,4095.0,0.79,8.78,1.57,0.23,-0.01,0.1,0.0,j
4095.0,4095.0,2915.0,3328.0,2800.0,1409.0,2777.0,4095.0,1.92,8.73,1.49,0.49,-0.04,0.26,0.0,j
4095.0,4095.0,2895.0,3306.0,2793.0,1403.0,2767.0,4095.0,2.68,9.08,0.03,0.67,0.23,0.15,0.0,j
4095.0,4095.0,2960.0,3383.0,2834.0,1423.0,2817.0,4095.0,2.98,9.58,-0.24,0.38,0.87,-0.0,0.0,j
4095.0,4095.0,2960.0,3535.0,2833.0,1423.0,2858.0,4095.0,-4.51,8.22,4.55,-0.13,-0.26,-0.2,0.0,j
4095.0,4095.0,2960.0,3493.0,2835.0,1424.0,2860.0,4095.0,-3.82,7.6,5.43,-0.53,-0.36,-0.07,0.0,j
4095.0,4095.0,2955.0,3456.0,2821.0,1421.0,2848.0,4095.0,-2.83,7.29,4.82,-0.99,-2.24,-0.24,0.0,j
4095.0,4095.0,2960.0,3419.0,2823.0,1424.0,2854.0,4095.0,-2.62,6.94,7.45,-2.12,-2.31,-0.13,0.0,j
4095.0,4095.0,2951.0,3441.0,2816.0,1419.0,2858.0,4095.0,-0.55,5.45,12.35,-2.12,-2.32,-0.4,0.0,j
4095.0,4095.0,2953.0,3444.0,2804.0,1397.0,2864.0,4095.0,0.66,4.25,15.63,-1.58,-2.68,-1.17,0.0,j
4095.0,4095.0,2947.0,3393.0,2786.0,1404.0,2849.0,4095.0,2.83,3.89,13.88,-0.91,-4.96,-1.32,0.0,j
4095.0,4095.0,2928.0,3312.0,2755.0,1381.0,2826.0,4095.0,6.91,3.98,11.25,-0.76,-5.83,-2.08,0.0,j
4095.0,4095.0,2923.0,3347.0,2736.0,1378.0,2820.0,4095.0,9.95,5.5,7.7,-0.45,-4.86,-2.18,0.0,j
4095.0,4095.0,2951.0,3429.0,2751.0,1392.0,2842.0,4095.0,9.53,6.47,5.88,-0.62,-3.49,-2.36,0.0,j
4095.0,4095.0,2945.0,3412.0,2763.0,1398.0,2836.0,4095.0,7.94,7.19,3.88,-0.67,-1.48,-2.04,0.0,j
4095.0,4095.0,2941.0,3369.0,2783.0,1406.0,2837.0,4095.0,5.3,7.59,3.8,-0.51,-0.34,-1.73,0.0,j
4095.0,4095.0,2959.0,3382.0,2801.0,1412.0,2854.0,4095.0,2.92,8.07,2.88,-0.16,-0.13,-1.22,0.0,j
4095.0,4095.0,2943.0,3383.0,2805.0,1416.0,2851.0,4095.0,2.31,8.62,3.55,-0.01,-0.03,-0.52,0.0,j
4095.0,4095.0,2949.0,3390.0,2818.0,1413.0,2854.0,4095.0,2.47,9.55,2.99,0.1,-0.05,-0.12,0.0,j
4095.0,4095.0,2959.0,3411.0,2820.0,1417.0,2849.0,4095.0,2.91,9.51,3.27,-0.02,0.11,-0.09,0.0,j
4095.0,4095.0,2955.0,3403.0,2816.0,1419.0,2864.0,4095.0,2.61,9.47,3.4,0.05,0.03,-0.09,0.0,j
4095.0,4095.0,2960.0,3409.0,2831.0,1419.0,2864.0,4095.0,3.21,9.55,3.12,0.11,-0.01,-0.13,0.0,j
4095.0,4095.0,2953.0,3413.0,2826.0,1415.0,2855.0,4095.0,2.83,9.56,2.91,0.01,-0.05,-0.14,0.0,j
4095.0,4095.0,2964.0,3422.0,2829.0,1406.0,2867.0,4095.0,2.88,9.39,3.27,0.01,-0.09,-0.14,0.0,j
4095.0,4095.0,2949.0,3570.0,2858.0,1426.0,2901.0,4095.0,-4.11,8.37,6.07,-0.12,-0.13,-0.19,0.0,j
4095.0,4095.0,2960.0,3567.0,2849.0,1429.0,2897.0,4095.0,-4.05,8.01,6.12,-0.35,-0.34,-0.34,0.0,j
4095.0,4095.0,2971.0,3571.0,2854.0,1424.0,2897.0,4095.0,-4.26,7.65,6.35,-0.69,-0.52,-0.44,0.0,j
4095.0,4095.0,2950.0,3565.0,2849.0,1430.0,2895.0,4095.0,-4.74,7.14,7.78,-1.17,-0.79,-0.05,0.0,j
4095.0,4095.0,2960.0,3515.0,2858.0,1430.0,2902.0,4095.0,-2.52,6.78,9.75,-1.23,-2.42,-0.41,0.0,j
4095.0,4095.0,2949.0,3519.0,2849.0,1430.0,2902.0,4095.0,-2.53,6.06,12.13,-1.2,-2.2,-0.47,0.0,j
4095.0,4095.0,2970.0,3530.0,2842.0,1426.0,2906.0,4095.0,0.27,5.93,13.34,-0.53,-2.14,-0.03,0.0,j
4095.0,4095.0,2970.0,3520.0,2838.0,1424.0,2895.0,4095.0,1.67,5.23,13.12,-0.46,-1.94,-0.4,0.0,j
4095.0,4095.0,2960.0,3527.0,2850.0,1424.0,2901.0,4095.0,3.88,4.88,12.56,-0.45,-1.68,-0.63,0.0,j
4095.0,4095.0,2958.0,3519.0,2837.0,1374.0,2896.0,4095.0,4.67,4.64,12.47,-0.42,-2.39,-1.01,0.0,j
4095.0,4095.0,2955.0,3516.0,2842.0,1423.0,2896.0,4095.0,5.68,5.05,11.39,-0.28,-2.37,-1.08,0.0,j
4095.0,4095.0,2945.0,3498.0,2837.0,1423.0,2894.0,4095.0,6.69,5.25,10.45,-0.08,-1.89,-0.86,0.0,j
4095.0,4095.0,2958.0,3478.0,2835.0,1419.0,2884.0,4095.0,7.87,5.55,8.81,-0.1,-1.74,-1.02,0.0,j
4095.0,4095.0,2960.0,3493.0,2836.0,1424.0,2895.0,4095.0,7.95,5.83,7.84,-0.14,-1.55,-1.02,0.0,j
4095.0,4095.0,2946.0,3498.0,2838.0,1426.0,2893.0,4095.0,7.68,6.42,7.28,-0.12,-1.61,-1.13,0.0,j
4095.0,4095.0,2951.0,3517.0,2842.0,1424.0,2893.0,4095.0,7.74,7.19,5.97,0.01,-1.21,-1.22,0.0,j
4095.0,4095.0,2957.0,3504.0,2834.0,1420.0,2882.0,4095.0,6.3,7.94,5.4,-0.09,-0.95,-1.27,0.0,j
4095.0,4095.0,2945.0,3498.0,2839.0,1424.0,2896.0,4095.0,5.44,8.41,4.74,-0.12,-0.75,-1.2,0.0,j
4095.0,4095.0,2945.0,3509.0,2837.0,1419.0,2880.0,4095.0,4.58,8.79,3.95,-0.22,-0.47,-1.12,0.0,j
4095.0,4095.0,2945.0,3513.0,2854.0,1424.0,2892.0,4095.0,2.03,9.0,4.61,-0.22,-1.13,-1.05,0.0,j
4095.0,4095.0,2955.0,3479.0,2832.0,1403.0,2882.0,4095.0,-3.48,8.67,6.3,-0.66,0.11,0.02,0.0,j
4095.0,4095.0,2960.0,3458.0,2831.0,1438.0,2893.0,4095.0,-2.8,8.55,6.43,-0.96,-0.02,-0.16,0.0,j
4095.0,4095.0,2956.0,3435.0,2826.0,1423.0,2887.0,4095.0,-2.83,7.91,8.11,-1.1,-0.35,-0.52,0.0,j
4095.0,4095.0,2973.0,3420.0,2831.0,1424.0,2898.0,4095.0,-3.71,7.35,9.1,-1.18,-0.09,-0.55,0.0,j
4095.0,4095.0,2961.0,3310.0,2834.0,1424.0,2899.0,4003.0,-4.08,6.61,10.12,-1.21,-0.26,-0.49,0.0,j
4095.0,4095.0,2973.0,3372.0,2832.0,1415.0,2902.0,3899.0,-4.54,5.99,11.0,-0.51,-0.51,-0.76,0.0,j
4095.0,4095.0,2966.0,3370.0,2828.0,1421.0,2896.0,3894.0,-3.62,5.04,11.77,-0.86,-1.59,-1.1,0.0,j
4095.0,4095.0,2973.0,3355.0,2835.0,1424.0,2903.0,3912.0,-2.28,4.37,12.51,-0.71,-1.75,-1.22,0.0,j
4095.0,4095.0,2974.0,3392.0,2837.0,1424.0,2915.0,3843.0,-1.12,3.13,13.87,-0.6,-1.88,-1.5,0.0,j
4095.0,4095.0,2960.0,3409.0,2829.0,1421.0,2917.0,3901.0,-0.58,2.87,14.2,-0.09,-1.59,-1.39,0.0,j
4095.0,4095.0,2961.0,3447.0,2842.0,1422.0,2907.0,3929.0,0.86,3.05,14.02,0.15,-1.53,-1.33,0.0,j
4095.0,4095.0,2957.0,3425.0,2832.0,1421.0,2909.0,3952.0,2.03,3.28,14.07,0.69,-1.61,-1.38,0.0,j
4095.0,4095.0,2961.0,3442.0,2836.0,1388.0,2912.0,4080.0,2.04,4.06,13.33,0.73,-1.56,-1.85,0.0,j
4095.0,4095.0,2958.0,3457.0,2837.0,1424.0,2905.0,4095.0,3.52,4.92,12.69,0.73,-1.35,-1.62,0.0,j
4095.0,4095.0,2950.0,3461.0,2848.0,1424.0,2906.0,4095.0,5.08,6.21,11.14,0.82,-1.21,-1.34,0.0,j
4095.0,4095.0,2947.0,3443.0,2839.0,1417.0,2895.0,4095.0,4.57,7.04,9.67,0.58,-1.13,-1.11,0.0,j
4095.0,4095.0,2942.0,3456.0,2851.0,1421.0,2896.0,4095.0,4.6,7.46,8.46,0.56,-0.61,-0.97,0.0,j
4095.0,4095.0,2945.0,3390.0,2834.0,1415.0,2882.0,4095.0,4.53,8.01,8.01,0.61,-0.4,-0.82,0.0,j
4095.0,4095.0,2958.0,3408.0,2851.0,1425.0,2891.0,4095.0,4.3,8.79,7.19,0.28,-0.54,-0.75,0.0,j
4095.0,4095.0,2958.0,3411.0,2845.0,1418.0,2883.0,4095.0,3.94,9.0,6.79,0.18,-0.84,-0.75,0.0,j
4095.0,4095.0,2960.0,3529.0,2880.0,1441.0,2937.0,4095.0,-3.87,7.62,7.63,-0.66,-0.06,-0.16,0.0,j
4095.0,4095.0,2966.0,3485.0,2877.0,1442.0,2938.0,4095.0,-2.68,6.63,7.91,-1.72,-0.63,0.01,0.0,j
4095.0,4095.0,2962.0,3441.0,2871.0,1443.0,2942.0,4095.0,-2.24,5.07,11.84,-1.83,-1.05,-0.34,0.0,j
4095.0,4095.0,2960.0,3454.0,2871.0,1433.0,2955.0,4095.0,-1.33,4.19,12.67,-1.24,-2.43,-1.17,0.0,j
4095.0,4095.0,2949.0,3440.0,2837.0,1424.0,2954.0,4095.0,1.32,2.66,14.12,-1.82,-3.22,-0.73,0.0,j
4095.0,4095.0,2935.0,3366.0,2815.0,1409.0,2949.0,4095.0,3.95,1.67,15.65,-0.81,-2.84,-1.05,0.0,j
4095.0,4085.0,2916.0,3357.0,2789.0,1405.0,2922.0,4063.0,6.23,2.02,13.41,-0.31,-2.8,-1.33,0.0,j
4095.0,4033.0,2896.0,3334.0,2770.0,1395.0,2901.0,3982.0,6.61,2.97,10.98,-0.49,-2.95,-1.54,0.0,j
4095.0,3919.0,2853.0,3279.0,2731.0,1377.0,2864.0,3737.0,8.98,3.46,9.13,-0.61,-2.72,-1.79,0.0,j
4095.0,4001.0,2893.0,3308.0,2758.0,1405.0,2909.0,3815.0,10.36,4.55,7.04,-0.43,-2.24,-1.73,0.0,j
4095.0,4079.0,2929.0,3367.0,2786.0,1408.0,2948.0,3915.0,8.82,5.36,5.66,-0.4,-1.97,-1.85,0.0,j
4095.0,4095.0,2942.0,3418.0,2800.0,1419.0,2957.0,3981.0,8.3,7.23,4.38,-0.59,-1.55,-1.58,0.0,j
4095.0,4095.0,2954.0,3389.0,2804.0,1414.0,2952.0,4016.0,6.43,7.26,3.32,-0.49,-1.08,-1.61,0.0,j
4095.0,4095.0,2957.0,3355.0,2816.0,1420.0,2956.0,4018.0,4.75,8.12,3.04,-0.26,-0.73,-1.2,0.0,j
4095.0,4095.0,2957.0,3346.0,2831.0,1424.0,2960.0,4051.0,3.29,8.31,3.36,-0.23,0.01,-0.79,0.0,j
4095.0,4095.0,2945.0,3355.0,2828.0,1392.0,2959.0,4070.0,3.08,8.55,3.89,-0.07,0.12,-0.22,0.0,j
4095.0,4095.0,2960.0,3377.0,2844.0,1422.0,2966.0,4095.0,3.41,9.18,3.48,0.09,-0.11,-0.13,0.0,j
4095.0,4095.0,2950.0,3369.0,2831.0,1422.0,2962.0,4095.0,3.72,9.43,3.29,0.08,-0.06,-0.12,0.0,j
4095.0,4095.0,2954.0,3381.0,2836.0,1421.0,2973.0,4095.0,3.57,9.39,3.33,0.03,-0.04,-0.09,0.0,j
4095.0,4095.0,2950.0,3381.0,2832.0,1422.0,2961.0,4095.0,3.71,9.27,3.29,-0.02,-0.05,-0.13,0.0,j
4095.0,4095.0,2960.0,3792.0,2970.0,1469.0,2864.0,4095.0,-1.64,9.34,7.0,0.0,0.06,-0.09,0.0,j
4095.0,4095.0,2967.0,3789.0,2974.0,1444.0,2857.0,4095.0,-1.49,9.43,6.98,-0.08,-0.21,-0.02,0.0,j
4095.0,4095.0,2957.0,3712.0,2963.0,1466.0,2861.0,4095.0,-1.57,9.51,7.57,-0.15,0.18,-0.31,0.0,j
4095.0,4095.0,2960.0,3698.0,2967.0,1475.0,2863.0,4095.0,-1.72,9.07,7.74,-0.1,0.28,-0.15,0.0,j
4095.0,4095.0,2960.0,3690.0,2963.0,1458.0,2863.0,4095.0,-1.34,8.73,6.94,-0.01,0.09,-0.3,0.0,j
4095.0,4095.0,2956.0,3680.0,2961.0,1472.0,2859.0,4095.0,-2.03,8.91,7.16,-0.35,-0.24,-0.15,0.0,j
4095.0,4095.0,2960.0,3689.0,2946.0,1470.0,2866.0,4095.0,-1.48,8.48,7.71,-0.66,-0.79,0.13,0.0,j
4095.0,4095.0,2961.0,3662.0,2922.0,1451.0,2847.0,4095.0,-0.58,8.61,8.14,-0.8,-0.27,-0.03,0.0,j
4095.0,4095.0,2962.0,3664.0,2919.0,1448.0,2859.0,4095.0,-0.96,8.05,9.5,-1.0,0.02,-0.04,0.0,j
4095.0,4095.0,2951.0,3648.0,2916.0,1450.0,2855.0,4095.0,-1.6,7.54,10.86,-0.94,-0.05,0.11,0.0,j
4095.0,4095.0,2953.0,3645.0,2917.0,1458.0,2858.0,4095.0,0.72,6.86,10.73,-0.92,-0.88,0.01,0.0,j
4095.0,4095.0,2957.0,3631.0,2914.0,1451.0,2848.0,4095.0,2.04,6.17,11.05,-0.97,-0.61,-0.39,0.0,j
4095.0,4095.0,2961.0,3642.0,2910.0,1456.0,2859.0,4095.0,1.33,5.36,12.74,-1.03,-0.74,-0.91,0.0,j
4095.0,4095.0,2962.0,3650.0,2927.0,1438.0,2855.0,4095.0,0.89,4.73,13.56,-0.76,-1.3,-1.06,0.0,j
4095.0,4095.0,2960.0,3664.0,2914.0,1449.0,2861.0,4095.0,1.82,4.2,13.68,-0.61,-1.15,-0.78,0.0,j
4095.0,4095.0,2955.0,3649.0,2912.0,1442.0,2858.0,4095.0,2.07,3.86,13.52,-0.4,-0.76,-0.53,0.0,j
4095.0,4095.0,2951.0,3645.0,2904.0,1438.0,2849.0,4095.0,3.0,3.46,13.38,-0.3,-1.28,-0.57,0.0,j
4095.0,4095.0,2944.0,3641.0,2898.0,1450.0,2843.0,4095.0,4.21,3.44,13.43,-0.26,-1.07,-0.54,0.0,j
4095.0,4095.0,2940.0,3597.0,2883.0,1440.0,2835.0,4095.0,5.18,3.55,13.06,-0.12,-0.77,-0.72,0.0,j
4095.0,4095.0,2933.0,3621.0,2879.0,1441.0,2833.0,4095.0,5.25,3.87,12.37,0.07,-1.22,-0.86,0.0,j
4095.0,4095.0,2959.0,3648.0,2928.0,1455.0,2931.0,4095.0,-2.7,8.74,5.95,-0.08,0.09,-0.37,0.0,j
4095.0,4095.0,2959.0,3607.0,2926.0,1453.0,2928.0,4095.0,-2.99,8.79,6.59,-0.55,0.2,-0.01,0.0,j
4095.0,4095.0,2957.0,3631.0,2931.0,1427.0,2931.0,4095.0,-2.56,8.91,7.35,-0.63,0.53,0.1,0.0,j
4095.0,4095.0,2960.0,3611.0,2913.0,1447.0,2927.0,4095.0,-1.93,7.93,7.05,-0.92,-1.66,-0.26,0.0,j
4095.0,4095.0,2957.0,3603.0,2911.0,1456.0,2928.0,4095.0,-0.1,7.43,8.6,-1.59,-3.02,-0.28,0.0,j
4095.0,4095.0,2960.0,3618.0,2907.0,1453.0,2924.0,4095.0,1.12,6.79,11.58,-1.52,-1.22,0.38,0.0,j
4095.0,4095.0,2966.0,3623.0,2909.0,1453.0,2929.0,4095.0,2.65,5.49,12.65,-1.31,-1.64,0.13,0.0,j
4095.0,4095.0,2958.0,3617.0,2886.0,1438.0,2918.0,4095.0,4.43,4.92,12.59,-1.37,-1.37,-0.13,0.0,j
4095.0,4095.0,2959.0,3613.0,2890.0,1446.0,2925.0,4095.0,4.67,3.89,13.53,-1.33,-1.68,-0.7,0.0,j
4095.0,4095.0,2947.0,3613.0,2886.0,1441.0,2918.0,4095.0,6.03,3.69,12.67,-0.66,-3.16,-1.19,0.0,j
4095.0,4095.0,2826.0,3386.0,2743.0,1386.0,2795.0,4095.0,8.26,4.76,10.57,-0.19,-3.68,-1.47,0.0,j
4095.0,4095.0,2879.0,3420.0,2797.0,1413.0,2847.0,4095.0,9.4,5.7,6.03,-0.01,-3.58,-1.46,0.0,j
4095.0,4095.0,2913.0,3466.0,2827.0,1422.0,2867.0,4095.0,8.57,5.9,4.97,-0.47,-1.74,-1.35,0.0,j
4095.0,4095.0,2943.0,3519.0,2858.0,1425.0,2896.0,4095.0,7.57,6.26,4.34,-0.57,-1.46,-1.18,0.0,j
4095.0,4095.0,2935.0,3485.0,2838.0,1424.0,2890.0,4095.0,6.79,7.28,3.09,-0.45,-1.1,-1.07,0.0,j
4095.0,4095.0,2910.0,3456.0,2817.0,1415.0,2877.0,4095.0,5.89,7.79,3.21,-0.42,-0.69,-0.97,0.0,j
4095.0,4095.0,2923.0,3471.0,2834.0,1424.0,2880.0,4095.0,5.01,8.2,2.88,-0.26,-0.52,-0.89,0.0,j
4095.0,4095.0,2949.0,3498.0,2859.0,1429.0,2905.0,4095.0,4.22,8.7,2.83,-0.1,-0.47,-0.77,0.0,j
4095.0,4095.0,2898.0,3434.0,2818.0,1390.0,2867.0,4095.0,2.91,9.43,2.47,-0.1,-0.69,-0.74,0.0,j
4095.0,4095.0,2887.0,3428.0,2809.0,1415.0,2859.0,4095.0,3.81,9.22,2.37,-0.28,-0.62,-0.62,0.0,j
4095.0,4095.0,2928.0,3502.0,2944.0,1470.0,2916.0,4095.0,-2.24,9.6,5.5,-0.22,0.16,-0.16,0.0,j
4095.0,4095.0,2931.0,3501.0,2938.0,1461.0,2907.0,4095.0,-1.33,9.57,5.69,-0.4,0.15,-0.02,0.0,j
4095.0,4095.0,2941.0,3511.0,2940.0,1466.0,2917.0,4095.0,-1.13,9.4,6.58,-0.7,0.4,-0.15,0.0,j
4095.0,4095.0,2928.0,3504.0,2938.0,1461.0,2914.0,4095.0,-1.86,9.15,8.13,-0.57,-0.0,-0.12,0.0,j
4095.0,4095.0,2931.0,3495.0,2939.0,1465.0,2917.0,4095.0,-1.33,8.85,5.68,-0.81,-0.1,-0.34,0.0,j
4095.0,4095.0,2917.0,3482.0,2930.0,1457.0,2899.0,4095.0,-1.56,7.34,8.83,-1.69,0.03,-0.41,0.0,j
4095.0,4095.0,2929.0,3485.0,2928.0,1454.0,2902.0,4095.0,-1.15,5.76,11.77,-1.59,-0.77,-0.97,0.0,j
4095.0,4095.0,2924.0,3489.0,2924.0,1449.0,2906.0,4095.0,-0.81,5.77,12.79,-1.25,-2.2,-1.32,0.0,j
4095.0,4095.0,2924.0,3485.0,2923.0,1456.0,2912.0,4095.0,0.89,4.78,13.48,-1.25,-2.74,-1.14,0.0,j
4095.0,4095.0,2918.0,3462.0,2909.0,1450.0,2902.0,4095.0,2.72,3.85,13.39,-0.99,-2.18,-0.86,0.0,j
4095.0,4095.0,2899.0,3425.0,2882.0,1436.0,2883.0,4095.0,3.95,3.13,14.32,-0.78,-1.89,-1.07,0.0,j
4095.0,4095.0,2907.0,3422.0,2864.0,1427.0,2886.0,4002.0,4.3,3.41,13.82,-0.28,-2.65,-1.2,0.0,j
4095.0,4095.0,2896.0,3396.0,2828.0,1416.0,2861.0,3856.0,6.62,3.95,12.38,-0.08,-3.11,-1.73,0.0,j
4095.0,4095.0,2897.0,3412.0,2827.0,1410.0,2880.0,3906.0,8.01,4.65,10.15,-0.04,-3.06,-1.73,0.0,j
4095.0,4095.0,2915.0,3439.0,2839.0,1424.0,2896.0,3913.0,9.06,5.58,8.53,0.06,-1.98,-1.42,0.0,j
4095.0,4095.0,2923.0,3457.0,2853.0,1385.0,2896.0,3968.0,7.64,6.9,6.76,0.14,-1.93,-1.76,0.0,j
4095.0,4095.0,2915.0,3458.0,2850.0,1421.0,2898.0,4016.0,5.97,7.29,6.19,0.06,-1.02,-1.7,0.0,j
4095.0,4095.0,2930.0,3466.0,2857.0,1434.0,2902.0,4003.0,4.81,8.09,4.69,-0.09,-0.58,-1.32,0.0,j
4095.0,4095.0,2920.0,3453.0,2858.0,1429.0,2882.0,3968.0,3.87,8.73,4.77,-0.25,-0.49,-0.95,0.0,j
4095.0,4095.0,2922.0,3453.0,2862.0,1430.0,2891.0,4005.0,3.38,9.02,4.83,-0.12,-0.5,-0.73,0.0,j
4095.0,4095.0,2938.0,3506.0,2891.0,1447.0,2944.0,4095.0,-1.28,8.34,8.09,0.17,-1.95,-0.39,0.0,j
4095.0,4095.0,2928.0,3491.0,2883.0,1443.0,2940.0,4095.0,-3.31,8.68,7.41,-0.13,0.34,-0.06,0.0,j
4095.0,4095.0,2927.0,3520.0,2891.0,1446.0,2950.0,4095.0,-3.42,8.66,7.69,-0.07,0.14,-0.17,0.0,j
4095.0,4095.0,2922.0,3518.0,2890.0,1438.0,2944.0,4095.0,-3.42,8.8,7.39,0.0,0.28,-0.12,0.0,j
4095.0,4095.0,2924.0,3516.0,2892.0,1441.0,2951.0,4095.0,-3.25,8.68,7.24,-0.22,0.38,-0.1,0.0,j
4095.0,4095.0,2923.0,3511.0,2891.0,1446.0,2953.0,4095.0,-3.85,8.25,6.83,-0.31,-0.28,-0.16,0.0,j
4095.0,4095.0,2921.0,3504.0,2894.0,1446.0,2947.0,4095.0,-2.27,7.81,8.32,-0.68,-1.47,-0.77,0.0,j
4095.0,4095.0,2942.0,3519.0,2897.0,1452.0,2956.0,4095.0,-3.06,7.44,9.75,-0.79,0.28,-0.35,0.0,j
4095.0,4095.0,2934.0,3517.0,2896.0,1445.0,2947.0,4095.0,-3.21,7.1,10.03,-0.5,-0.06,-0.32,0.0,j
4095.0,4095.0,2940.0,3521.0,2898.0,1445.0,2949.0,4095.0,-4.1,7.0,9.88,-0.71,0.3,0.04,0.0,j
4095.0,4095.0,2930.0,3488.0,2887.0,1446.0,2952.0,4095.0,-2.78,6.95,9.36,-1.15,-0.5,0.04,0.0,j
4095.0,4095.0,2945.0,3520.0,2891.0,1447.0,2951.0,4095.0,-2.87,4.83,12.03,-1.17,0.1,-0.15,0.0,j
4095.0,4095.0,2935.0,3501.0,2870.0,1417.0,2954.0,4095.0,-2.77,4.11,12.07,-1.33,-0.57,-0.07,0.0,j
4095.0,4095.0,2947.0,3495.0,2879.0,1438.0,2955.0,4095.0,-2.02,3.25,12.58,-0.82,-0.54,-0.49,0.0,j
4095.0,4095.0,2930.0,3507.0,2870.0,1439.0,2960.0,4095.0,0.16,1.47,13.86,-1.2,-1.8,-1.36,0.0,j
4095.0,4095.0,2942.0,3528.0,2878.0,1428.0,2967.0,4095.0,0.05,1.41,15.66,-0.37,-3.12,-2.06,0.0,j
4095.0,4095.0,2937.0,3491.0,2869.0,1427.0,2960.0,4095.0,3.5,1.52,14.34,0.27,-3.22,-2.16,0.0,j
4095.0,4095.0,2921.0,3485.0,2857.0,1423.0,2943.0,4061.0,4.75,2.78,12.27,0.41,-2.86,-1.9,0.0,j
4095.0,4095.0,2928.0,3499.0,2864.0,1430.0,2941.0,4054.0,7.79,3.22,10.72,0.29,-2.94,-1.86,0.0,j
4095.0,4095.0,2919.0,3498.0,2853.0,1427.0,2937.0,4048.0,8.77,4.86,9.21,0.01,-2.1,-1.45,0.0,j
4095.0,4095.0,2941.0,3563.0,2900.0,1454.0,3007.0,4095.0,-3.73,8.1,8.64,0.01,0.09,-0.04,0.0,j
4095.0,4095.0,2932.0,3557.0,2901.0,1453.0,3008.0,4095.0,-3.37,8.02,7.7,-0.07,-0.02,-0.12,0.0,j
4095.0,4095.0,2947.0,3553.0,2891.0,1406.0,2996.0,4095.0,-3.26,7.53,7.93,-0.79,-0.12,-0.06,0.0,j
4095.0,4095.0,2950.0,3546.0,2895.0,1442.0,3002.0,4095.0,-3.27,6.99,9.18,-0.92,-0.3,-0.41,0.0,j
4095.0,4095.0,2939.0,3555.0,2892.0,1445.0,2996.0,4095.0,-2.71,5.82,10.55,-1.13,-0.43,-0.86,0.0,j
4095.0,4095.0,2955.0,3566.0,2899.0,1453.0,3002.0,4095.0,-3.72,4.53,12.1,-1.26,-0.9,-1.14,0.0,j
4095.0,4095.0,2951.0,3563.0,2897.0,1442.0,2998.0,4095.0,-3.77,3.86,12.65,-1.03,-0.5,-0.73,0.0,j
4095.0,4095.0,2957.0,3572.0,2906.0,1456.0,3014.0,4095.0,-3.48,2.81,13.47,-0.92,-0.4,-0.81,0.0,j
4095.0,4095.0,2946.0,3557.0,2909.0,1455.0,3012.0,4095.0,-3.18,1.92,14.04,-0.55,-0.72,-0.91,0.0,j
4095.0,4095.0,2941.0,3569.0,2909.0,1456.0,3023.0,4095.0,-2.38,1.12,14.19,-0.24,-0.57,-0.95,0.0,j
4095.0,4095.0,2951.0,3566.0,2898.0,1449.0,3010.0,4080.0,-2.28,0.63,14.42,-0.24,-1.45,-1.05,0.0,j
4095.0,4095.0,2947.0,3526.0,2905.0,1447.0,3021.0,4010.0,-0.36,0.62,14.74,0.18,-1.83,-1.62,0.0,j
4095.0,4095.0,2941.0,3549.0,2900.0,1436.0,3019.0,3952.0,1.0,0.93,14.06,0.15,-1.51,-1.49,0.0,j
4095.0,4095.0,2947.0,3534.0,2886.0,1440.0,3014.0,3870.0,2.62,0.94,14.02,0.05,-1.28,-1.43,0.0,j
4095.0,4095.0,2933.0,3527.0,2888.0,1437.0,3015.0,3840.0,3.3,1.49,14.31,0.26,-1.47,-1.54,0.0,j
4095.0,4095.0,2941.0,3514.0,2880.0,1435.0,3004.0,3843.0,5.0,2.49,13.45,0.44,-1.47,-1.45,0.0,j
4095.0,4095.0,2933.0,3545.0,2889.0,1439.0,3011.0,3871.0,5.47,3.23,12.13,0.55,-1.13,-1.32,0.0,j
4095.0,4095.0,2932.0,3541.0,2881.0,1439.0,3011.0,3877.0,5.81,4.1,10.87,0.38,-1.05,-1.23,0.0,j
4095.0,4095.0,2939.0,3559.0,2880.0,1437.0,3017.0,3893.0,6.19,4.96,10.08,0.21,-0.87,-1.07,0.0,j
4095.0,4095.0,2934.0,3551.0,2871.0,1435.0,3004.0,3858.0,6.06,5.65,9.84,0.28,-1.22,-1.05,0.0,j
4095.0,4095.0,2933.0,3567.0,2928.0,1462.0,3047.0,4095.0,-3.91,7.39,8.96,-0.84,-0.42,-0.46,0.0,j
4095.0,4095.0,2928.0,3547.0,2912.0,1456.0,3034.0,4095.0,-3.09,6.3,9.9,-1.18,-0.44,-0.62,0.0,j
4095.0,4095.0,2943.0,3537.0,2919.0,1453.0,3036.0,4095.0,-4.73,4.83,10.61,-1.78,-1.72,-0.62,0.0,j
4095.0,4095.0,2939.0,3491.0,2899.0,1454.0,3049.0,4095.0,0.33,3.85,13.43,-1.52,-1.58,-0.74,0.0,j
4095.0,4095.0,2946.0,3549.0,2901.0,1447.0,3071.0,4095.0,1.04,2.59,15.12,-0.77,-2.19,-1.4,0.0,j
4095.0,4095.0,2930.0,3563.0,2899.0,1450.0,3071.0,4095.0,2.73,2.65,14.46,-0.26,-2.85,-1.68,0.0,j
4095.0,4095.0,2928.0,3558.0,2907.0,1450.0,3071.0,4095.0,5.88,3.18,13.13,-0.23,-2.89,-1.66,0.0,j
4095.0,4095.0,2913.0,3535.0,2866.0,1422.0,3056.0,4095.0,8.15,3.39,12.33,-0.18,-2.25,-1.51,0.0,j
4095.0,4095.0,2934.0,3567.0,2896.0,1437.0,3070.0,4095.0,7.33,4.08,11.17,0.31,-1.39,-1.26,0.0,j
4095.0,4095.0,2931.0,3568.0,2901.0,1450.0,3071.0,4095.0,7.36,5.01,9.62,0.14,-1.27,-1.28,0.0,j
4095.0,4095.0,2941.0,3553.0,2894.0,1442.0,3061.0,4095.0,7.2,5.81,8.2,0.16,-1.65,-1.43,0.0,j
4095.0,4095.0,2941.0,3548.0,2899.0,1442.0,3066.0,4095.0,7.18,6.85,7.12,0.2,-1.99,-1.57,0.0,j
4095.0,4095.0,2930.0,3525.0,2896.0,1443.0,3056.0,4095.0,6.41,7.79,5.59,0.18,-2.32,-1.7,0.0,j
4095.0,4095.0,2933.0,3526.0,2904.0,1446.0,3056.0,4095.0,5.32,8.25,4.4,-0.08,-1.15,-1.3,0.0,j
4095.0,4095.0,2938.0,3504.0,2899.0,1421.0,3047.0,4095.0,4.19,8.65,4.09,-0.17,-0.64,-0.97,0.0,j
4095.0,4095.0,2934.0,3499.0,2899.0,1443.0,3056.0,4095.0,3.64,9.11,3.93,-0.23,0.02,-0.65,0.0,j
4095.0,4095.0,2942.0,3507.0,2896.0,1442.0,3049.0,4095.0,3.61,9.11,4.86,-0.62,1.46,-0.26,0.0,j
4095.0,4095.0,2931.0,3522.0,2907.0,1451.0,3051.0,4095.0,2.42,9.25,6.0,-0.46,1.26,-0.25,0.0,j
4095.0,4095.0,2939.0,3519.0,2896.0,1426.0,3039.0,4095.0,1.96,9.02,6.74,-0.15,0.32,-0.41,0.0,j
4095.0,4095.0,2943.0,3526.0,2907.0,1450.0,3051.0,4095.0,1.96,9.2,6.26,0.08,-0.04,-0.27,0.0,j
4095.0,3925.0,2960.0,3682.0,2912.0,1453.0,2717.0,4095.0,-3.23,9.35,4.89,0.12,0.11,-0.06,0.0,j
4095.0,3918.0,2960.0,3698.0,2910.0,1429.0,2722.0,4095.0,-3.28,9.15,4.08,0.31,0.05,-0.26,0.0,j
4095.0,3926.0,2954.0,3696.0,2908.0,1453.0,2725.0,4095.0,-3.29,8.52,3.48,-0.03,-0.02,-0.22,0.0,j
4095.0,3918.0,2956.0,3701.0,2906.0,1449.0,2716.0,4095.0,-3.4,8.58,3.95,-0.56,-0.48,-0.11,0.0,j
4095.0,3915.0,2953.0,3723.0,2906.0,1445.0,2721.0,4095.0,-2.95,8.25,5.37,-0.92,-0.64,-0.2,0.0,j
4095.0,3921.0,2956.0,3743.0,2897.0,1445.0,2708.0,4095.0,-3.65,8.32,7.08,-1.13,-0.27,-0.26,0.0,j
4095.0,3915.0,2946.0,3664.0,2885.0,1434.0,2704.0,4095.0,-2.19,8.35,7.49,-1.19,-0.5,-0.34,0.0,j
4095.0,3904.0,2939.0,3680.0,2878.0,1440.0,2689.0,4095.0,-2.78,7.73,9.32,-1.41,-0.32,-0.59,0.0,j
4095.0,3887.0,2930.0,3693.0,2886.0,1444.0,2693.0,4095.0,-3.42,5.98,10.87,-1.52,-0.41,-1.26,0.0,j
4095.0,3871.0,2934.0,3693.0,2880.0,1442.0,2688.0,4095.0,-4.66,4.62,12.24,-1.48,-0.65,-1.59,0.0,j
4095.0,3860.0,2930.0,3676.0,2882.0,1445.0,2695.0,4095.0,-5.03,3.25,14.3,-1.0,-1.48,-1.32,0.0,j
4095.0,3852.0,2938.0,3685.0,2871.0,1431.0,2695.0,4095.0,-1.65,2.54,14.11,-0.54,-2.68,-1.48,0.0,j
4095.0,3851.0,2947.0,3677.0,2875.0,1430.0,2705.0,4095.0,1.7,1.88,12.8,-0.29,-2.79,-1.56,0.0,j
4095.0,3842.0,2942.0,3678.0,2860.0,1422.0,2694.0,3953.0,3.31,1.29,14.45,-0.37,-2.19,-1.44,0.0,j
4095.0,3852.0,2950.0,3682.0,2862.0,1431.0,2713.0,3999.0,4.44,1.45,14.16,-0.34,-2.04,-1.56,0.0,j
4095.0,3813.0,2949.0,3567.0,2830.0,1423.0,2699.0,4010.0,5.14,1.31,13.36,-0.3,-2.21,-1.69,0.0,j
4095.0,3739.0,2943.0,3553.0,2800.0,1411.0,2695.0,3822.0,7.85,2.79,11.27,-0.21,-2.53,-2.0,0.0,j
4095.0,3728.0,2945.0,3616.0,2813.0,1392.0,2699.0,3920.0,8.17,4.54,8.95,0.24,-1.7,-1.95,0.0,j
4095.0,3658.0,2917.0,3583.0,2786.0,1398.0,2653.0,3898.0,7.63,5.33,7.55,-0.04,-1.49,-1.57,0.0,j
4095.0,3709.0,2944.0,3632.0,2803.0,1415.0,2679.0,3906.0,8.48,5.93,7.74,-0.01,-0.76,-1.32,0.0,j
4095.0,3779.0,2966.0,3760.0,2877.0,1385.0,2771.0,4095.0,-4.47,8.11,7.1,-0.54,-0.37,-0.29,0.0,j
4095.0,3734.0,2960.0,3730.0,2866.0,1431.0,2769.0,4095.0,-3.31,7.98,7.17,-0.86,-0.63,-0.07,0.0,j
4095.0,3717.0,2955.0,3738.0,2862.0,1447.0,2769.0,4095.0,-2.34,6.88,9.54,-1.42,-1.54,-0.21,0.0,j
4095.0,3678.0,2959.0,3672.0,2851.0,1435.0,2770.0,4095.0,-2.45,6.05,11.32,-1.54,-1.43,-0.53,0.0,j
4095.0,3632.0,2958.0,3664.0,2845.0,1433.0,2781.0,4095.0,-1.72,4.64,12.59,-1.67,-1.55,-0.66,0.0,j
4095.0,3618.0,2957.0,3632.0,2832.0,1421.0,2764.0,4095.0,-1.55,2.75,15.15,-0.89,-1.95,-1.12,0.0,j
4095.0,3608.0,2951.0,3622.0,2841.0,1383.0,2786.0,4095.0,1.71,2.9,14.38,-0.47,-2.31,-0.88,0.0,j
4095.0,3583.0,2958.0,3648.0,2843.0,1423.0,2797.0,4095.0,3.71,2.85,13.5,-0.37,-1.98,-0.96,0.0,j
4095.0,3554.0,2959.0,3554.0,2826.0,1414.0,2761.0,4032.0,4.64,2.82,13.32,-0.56,-2.63,-1.25,0.0,j
4095.0,3536.0,2957.0,3548.0,2831.0,1399.0,2789.0,3954.0,7.35,3.43,11.28,0.11,-3.08,-1.85,0.0,j
4095.0,3515.0,2954.0,3515.0,2817.0,1410.0,2763.0,3954.0,8.24,5.24,9.35,0.01,-2.42,-1.63,0.0,j
4095.0,3498.0,2945.0,3503.0,2831.0,1424.0,2773.0,4031.0,7.58,5.97,8.01,-0.08,-1.52,-1.46,0.0,j
4095.0,3504.0,2943.0,3490.0,2827.0,1420.0,2769.0,4018.0,7.29,6.25,6.76,-0.01,-1.39,-1.48,0.0,j
4095.0,3503.0,2954.0,3503.0,2818.0,1417.0,2774.0,3924.0,6.86,7.14,6.27,-0.15,-0.88,-1.09,0.0,j
4095.0,3487.0,2938.0,3538.0,2829.0,1371.0,2773.0,3965.0,6.55,8.01,5.86,-0.2,-0.59,-1.05,0.0,j
4095.0,3503.0,2957.0,3571.0,2835.0,1408.0,2779.0,3951.0,5.85,8.01,5.46,-0.21,-0.25,-1.09,0.0,j
4095.0,3490.0,2955.0,3583.0,2838.0,1418.0,2791.0,3831.0,5.3,8.15,5.58,-0.26,0.15,-0.72,0.0,j
4095.0,3514.0,2971.0,3597.0,2843.0,1424.0,2787.0,3853.0,4.74,8.36,6.09,-0.03,0.04,-0.65,0.0,j
4095.0,3511.0,2959.0,3551.0,2839.0,1424.0,2781.0,3792.0,3.89,8.61,5.82,0.29,-0.12,-0.8,0.0,j
4095.0,3503.0,2951.0,3562.0,2847.0,1423.0,2780.0,3912.0,3.11,8.95,5.26,0.15,0.13,-0.56,0.0,j
4095.0,3619.0,2959.0,3666.0,2919.0,1456.0,2766.0,4095.0,-2.94,9.45,4.53,0.05,0.33,0.06,0.0,j
4095.0,3658.0,2949.0,3671.0,2917.0,1453.0,2754.0,4095.0,-2.81,9.38,4.5,-0.02,0.4,0.04,0.0,j
4095.0,3645.0,2944.0,3686.0,2914.0,1425.0,2758.0,4095.0,-2.24,9.46,4.77,-0.35,0.38,0.11,0.0,j
4095.0,3643.0,2944.0,3677.0,2912.0,1456.0,2752.0,4095.0,-1.88,9.17,5.35,-0.44,-0.35,-0.28,0.0,j
4095.0,3637.0,2960.0,3687.0,2919.0,1443.0,2763.0,4095.0,-2.82,9.37,4.44,-0.4,-0.51,-0.32,0.0,j
4095.0,3644.0,2943.0,3696.0,2896.0,1454.0,2752.0,4095.0,-2.51,9.02,6.37,-0.82,0.11,-0.24,0.0,j
4095.0,3647.0,2959.0,3736.0,2899.0,1454.0,2751.0,4095.0,-2.74,8.69,7.15,-0.7,0.07,-0.39,0.0,j
4095.0,3639.0,2943.0,3719.0,2896.0,1447.0,2752.0,4095.0,-2.67,8.26,7.53,-0.89,-0.19,-0.56,0.0,j
4095.0,3646.0,2955.0,3749.0,2902.0,1450.0,2755.0,4095.0,-3.3,7.43,9.13,-1.23,-0.1,-0.56,0.0,j
4095.0,3642.0,2950.0,3782.0,2902.0,1442.0,2757.0,4095.0,-4.41,6.98,10.83,-0.85,-0.2,-0.57,0.0,j
4095.0,3641.0,2949.0,3744.0,2899.0,1451.0,2753.0,4095.0,-2.8,6.39,10.5,-1.1,-0.19,-0.3,0.0,j
4095.0,3647.0,2960.0,3763.0,2896.0,1456.0,2754.0,4095.0,-3.67,5.38,11.14,-1.24,-0.58,-0.77,0.0,j
4095.0,3646.0,2945.0,3750.0,2894.0,1454.0,2743.0,4095.0,-3.69,3.8,12.22,-1.53,-1.55,-1.13,0.0,j
4095.0,3666.0,2959.0,3674.0,2882.0,1434.0,2752.0,4095.0,-1.31,1.79,13.98,-1.25,-1.25,-1.49,0.0,j
4095.0,3641.0,2953.0,3739.0,2890.0,1442.0,2755.0,4095.0,-0.29,0.17,15.47,-0.99,-1.17,-1.62,0.0,j
4095.0,3643.0,2965.0,3765.0,2885.0,1424.0,2763.0,4095.0,0.2,0.14,15.06,-0.33,-2.37,-2.02,0.0,j
4095.0,3633.0,2945.0,3671.0,2875.0,1425.0,2757.0,4095.0,2.07,0.61,14.73,0.36,-3.67,-2.7,0.0,j
4095.0,3635.0,2965.0,3568.0,2845.0,1426.0,2743.0,4095.0,5.63,2.26,12.99,1.03,-3.06,-2.64,0.0,j
4095.0,3615.0,2949.0,3634.0,2837.0,1419.0,2735.0,4095.0,7.78,4.75,9.45,0.58,-1.97,-2.08,0.0,j
4095.0,3599.0,2948.0,3624.0,2845.0,1425.0,2745.0,4095.0,7.45,5.76,8.04,0.2,-1.78,-2.0,0.0,j
4095.0,3662.0,2948.0,3719.0,2891.0,1437.0,2774.0,4095.0,-3.17,7.76,8.96,-0.74,-0.32,-0.29,0.0,j
4095.0,3659.0,2947.0,3702.0,2882.0,1437.0,2770.0,4095.0,-2.46,6.94,8.93,-0.92,-0.42,-0.43,0.0,j
4095.0,3664.0,2960.0,3734.0,2889.0,1445.0,2771.0,4095.0,-2.73,6.3,11.12,-1.0,-0.8,-0.73,0.0,j
4095.0,3642.0,2955.0,3718.0,2881.0,1446.0,2775.0,4095.0,-2.79,5.67,12.41,-0.88,-2.23,-1.23,0.0,j
4095.0,3637.0,2950.0,3760.0,2883.0,1443.0,2774.0,4095.0,-0.87,4.34,12.99,-0.69,-2.65,-1.49,0.0,j
4095.0,3643.0,2953.0,3749.0,2877.0,1439.0,2773.0,4095.0,0.16,3.33,14.32,-0.82,-1.22,-1.16,0.0,j
4095.0,3645.0,2954.0,3760.0,2880.0,1436.0,2773.0,4095.0,1.28,3.03,14.61,-0.45,-2.05,-1.42,0.0,j
4095.0,3637.0,2954.0,3730.0,2867.0,1439.0,2775.0,4095.0,1.86,3.13,14.23,-0.14,-1.96,-1.2,0.0,j
4095.0,3664.0,2964.0,3741.0,2880.0,1424.0,2788.0,4095.0,3.52,3.28,13.75,0.09,-1.93,-0.99,0.0,j
4095.0,3643.0,2949.0,3730.0,2865.0,1434.0,2775.0,4095.0,5.23,3.73,13.01,0.41,-1.43,-1.18,0.0,j
4095.0,3648.0,2957.0,3740.0,2881.0,1443.0,2785.0,4095.0,5.53,4.75,11.33,0.54,-1.89,-1.44,0.0,j
4095.0,3629.0,2946.0,3711.0,2864.0,1417.0,2768.0,4095.0,5.95,5.44,9.92,0.47,-1.59,-1.38,0.0,j
4095.0,3632.0,2941.0,3717.0,2867.0,1424.0,2779.0,4095.0,6.4,6.16,8.92,0.51,-1.41,-1.28,0.0,j
4095.0,3635.0,2958.0,3738.0,2880.0,1441.0,2781.0,4095.0,6.08,7.35,7.87,0.36,-0.89,-1.3,0.0,j
4095.0,3626.0,2953.0,3687.0,2869.0,1389.0,2780.0,4095.0,5.4,7.87,6.86,0.31,-0.37,-1.26,0.0,j
4095.0,3663.0,2960.0,3717.0,2879.0,1438.0,2782.0,4095.0,3.9,8.61,6.0,0.13,-0.46,-1.07,0.0,j
4095.0,3623.0,2957.0,3731.0,2879.0,1445.0,2768.0,4095.0,3.63,8.83,6.03,0.08,-0.22,-0.98,0.0,j
4095.0,3649.0,2959.0,3717.0,2886.0,1446.0,2779.0,4095.0,3.01,9.31,6.21,0.14,0.0,-0.87,0.0,j
4095.0,3629.0,2955.0,3707.0,2890.0,1443.0,2777.0,4095.0,2.49,9.55,5.27,0.2,0.36,-0.72,0.0,j
4095.0,3649.0,2966.0,3727.0,2898.0,1454.0,2787.0,4095.0,2.64,9.42,5.29,-0.02,0.46,-0.47,0.0,j
4095.0,3830.0,2969.0,3696.0,2900.0,1426.0,2761.0,4095.0,-3.35,9.08,5.47,0.29,0.18,-0.13,0.0,j
4095.0,3847.0,2947.0,3678.0,2900.0,1442.0,2755.0,4095.0,-2.87,9.27,4.85,-0.02,0.12,0.01,0.0,j
4095.0,3842.0,2964.0,3666.0,2899.0,1441.0,2763.0,4095.0,-2.35,9.61,4.45,-0.71,-0.01,0.28,0.0,j
4095.0,3812.0,2963.0,3701.0,2895.0,1441.0,2751.0,4095.0,-2.6,9.28,5.04,-1.37,-0.09,-0.03,0.0,j
4095.0,3789.0,2956.0,3726.0,2889.0,1456.0,2752.0,4095.0,-2.47,7.83,8.31,-1.68,0.13,-0.04,0.0,j
4095.0,3750.0,2943.0,3703.0,2866.0,1451.0,2753.0,4095.0,-1.81,6.97,10.37,-1.67,-0.37,-0.37,0.0,j
4095.0,3744.0,2960.0,3713.0,2874.0,1443.0,2763.0,4095.0,-2.73,6.64,11.69,-0.99,-0.22,-0.53,0.0,j
4095.0,3705.0,2947.0,3724.0,2880.0,1441.0,2763.0,4095.0,-2.89,5.85,11.94,-1.04,-0.23,-0.52,0.0,j
4095.0,3697.0,2950.0,3696.0,2855.0,1435.0,2764.0,4095.0,-2.74,4.92,12.22,-0.84,-0.14,-0.43,0.0,j
4095.0,3716.0,2951.0,3700.0,2859.0,1434.0,2768.0,4095.0,-1.72,4.03,12.46,-0.63,-0.22,-0.7,0.0,j
4095.0,3701.0,2960.0,3713.0,2858.0,1429.0,2770.0,4095.0,-1.48,3.0,13.71,-0.44,-1.49,-1.74,0.0,j
4095.0,3699.0,2973.0,3729.0,2864.0,1428.0,2784.0,4095.0,-0.83,2.7,14.27,-0.2,-2.49,-2.45,0.0,j
4095.0,3680.0,2955.0,3667.0,2855.0,1406.0,2789.0,4095.0,-0.24,2.83,13.79,0.07,-2.09,-1.9,0.0,j
4095.0,3664.0,2961.0,3681.0,2860.0,1425.0,2798.0,4095.0,2.44,2.07,14.8,0.0,-1.88,-1.82,0.0,j
4095.0,3654.0,2959.0,3709.0,2852.0,1421.0,2783.0,4095.0,3.62,3.28,14.02,0.68,-1.67,-1.6,0.0,j
4095.0,3649.0,2949.0,3734.0,2859.0,1413.0,2787.0,4095.0,4.73,4.56,12.4,0.81,-1.61,-1.58,0.0,j
4095.0,3648.0,2944.0,3692.0,2855.0,1424.0,2782.0,4095.0,5.05,5.72,11.13,0.78,-1.69,-1.61,0.0,j
4095.0,3646.0,2941.0,3668.0,2853.0,1398.0,2775.0,4095.0,5.3,6.87,9.61,0.74,-1.49,-1.58,0.0,j
4095.0,3627.0,2937.0,3664.0,2851.0,1421.0,2769.0,4095.0,4.76,7.56,8.15,0.65,-1.33,-1.51,0.0,j
4095.0,3631.0,2939.0,3668.0,2854.0,1429.0,2766.0,4095.0,3.7,8.16,7.09,0.33,-0.97,-1.18,0.0,j
4095.0,3760.0,2958.0,3788.0,2881.0,1447.0,2773.0,4095.0,-1.91,9.26,6.18,-0.56,0.29,0.09,0.0,j
4095.0,3670.0,2946.0,3729.0,2858.0,1441.0,2769.0,4095.0,-2.87,8.13,7.78,-1.99,0.06,0.47,0.0,j
4095.0,3661.0,2960.0,3698.0,2823.0,1437.0,2770.0,4095.0,-2.08,6.64,10.67,-1.86,-0.22,0.07,0.0,j
4095.0,3606.0,2960.0,3555.0,2816.0,1423.0,2775.0,4095.0,-1.91,6.26,11.51,-1.18,-0.2,-0.43,0.0,j
4095.0,3579.0,2960.0,3551.0,2811.0,1413.0,2799.0,4095.0,-2.1,5.41,12.08,-0.98,-0.13,-0.51,0.0,j
4095.0,3570.0,2962.0,3605.0,2802.0,1410.0,2798.0,4095.0,-2.32,4.41,12.45,-0.73,-0.37,-0.84,0.0,j
4095.0,3563.0,2963.0,3625.0,2810.0,1419.0,2813.0,4095.0,-1.54,3.44,12.92,-1.31,-0.8,-1.07,0.0,j
4095.0,3543.0,2959.0,3606.0,2795.0,1407.0,2803.0,4095.0,-1.22,1.82,14.03,-1.04,-0.54,-1.26,0.0,j
4095.0,3536.0,2962.0,3613.0,2796.0,1383.0,2819.0,4095.0,-0.69,0.74,14.54,-0.41,-1.47,-2.27,0.0,j
4095.0,3545.0,2960.0,3647.0,2804.0,1411.0,2826.0,4027.0,0.96,0.09,15.1,-0.27,-2.17,-3.01,0.0,j
4095.0,3513.0,2962.0,3661.0,2801.0,1406.0,2832.0,4095.0,2.23,0.51,14.69,-0.04,-2.46,-3.21,0.0,j
4095.0,3527.0,2960.0,3660.0,2816.0,1411.0,2827.0,4095.0,4.01,1.78,13.46,0.22,-2.32,-2.49,0.0,j
4095.0,3511.0,2955.0,3662.0,2811.0,1409.0,2822.0,4095.0,5.2,2.74,12.11,-0.03,-2.11,-2.31,0.0,j
4095.0,3514.0,2949.0,3723.0,2817.0,1420.0,2832.0,4095.0,6.56,3.69,11.45,0.15,-1.8,-1.92,0.0,j
4095.0,3503.0,2959.0,3695.0,2802.0,1408.0,2819.0,4095.0,6.78,5.36,10.07,0.89,-1.28,-1.69,0.0,j
4095.0,3491.0,2937.0,3721.0,2805.0,1387.0,2802.0,4095.0,6.44,6.8,8.39,0.43,-1.16,-1.73,0.0,j
4095.0,3479.0,2931.0,3701.0,2803.0,1405.0,2798.0,4095.0,5.73,7.63,7.75,0.27,-0.51,-1.34,0.0,j
4095.0,3501.0,2935.0,3690.0,2821.0,1410.0,2800.0,4095.0,5.11,8.09,7.47,0.63,-0.31,-1.46,0.0,j
4095.0,3486.0,2935.0,3625.0,2814.0,1410.0,2789.0,4095.0,4.41,8.94,6.62,0.65,0.05,-1.23,0.0,j
4095.0,3517.0,2929.0,3655.0,2832.0,1419.0,2788.0,4095.0,2.51,9.15,5.64,0.41,-0.5,-1.04,0.0,j
4095.0,3793.0,2951.0,3649.0,2876.0,1441.0,2757.0,4095.0,-2.44,8.66,6.28,-0.98,0.12,-0.0,0.0,j
4095.0,3776.0,2958.0,3711.0,2879.0,1453.0,2769.0,4095.0,-2.38,6.87,7.8,-1.95,-0.08,-0.5,0.0,j
4095.0,3723.0,2948.0,3709.0,2862.0,1446.0,2768.0,4095.0,-2.73,5.1,11.44,-2.41,-0.55,-0.5,0.0,j
4095.0,3719.0,2949.0,3733.0,2846.0,1437.0,2775.0,4095.0,-2.71,3.09,14.33,-1.71,-0.29,-0.38,0.0,j
4095.0,3712.0,2943.0,3727.0,2836.0,1424.0,2768.0,4095.0,-2.51,3.27,13.96,-0.86,-0.51,-0.71,0.0,j
4095.0,3711.0,2951.0,3737.0,2850.0,1427.0,2793.0,4095.0,-0.85,1.8,13.87,-0.54,-1.15,-1.59,0.0,j
4095.0,3664.0,2957.0,3729.0,2845.0,1422.0,2790.0,4095.0,-0.83,0.82,14.35,-0.87,-2.13,-2.08,0.0,j
4095.0,3651.0,2958.0,3718.0,2839.0,1391.0,2795.0,4095.0,1.85,0.44,14.94,-0.18,-2.15,-2.06,0.0,j
4095.0,3643.0,2951.0,3697.0,2847.0,1424.0,2793.0,4095.0,2.88,0.1,15.77,0.65,-1.83,-2.3,0.0,j
4095.0,3630.0,2928.0,3679.0,2842.0,1420.0,2783.0,4095.0,4.76,2.67,12.82,0.93,-2.16,-1.85,0.0,j
4095.0,3600.0,2923.0,3637.0,2827.0,1391.0,2768.0,4095.0,5.0,4.29,11.27,0.58,-2.29,-1.69,0.0,j
4095.0,3567.0,2906.0,3630.0,2827.0,1414.0,2757.0,4095.0,6.16,4.85,10.28,0.01,-2.53,-1.33,0.0,j
4095.0,3606.0,2928.0,3648.0,2831.0,1424.0,2771.0,4095.0,7.8,5.6,8.8,0.09,-2.4,-1.18,0.0,j
4095.0,3600.0,2925.0,3643.0,2829.0,1414.0,2763.0,4095.0,7.62,6.65,7.19,0.22,-1.84,-1.26,0.0,j
4095.0,3603.0,2926.0,3661.0,2836.0,1421.0,2768.0,4095.0,7.26,7.48,6.31,0.09,-1.33,-1.23,0.0,j
4095.0,3605.0,2929.0,3678.0,2839.0,1421.0,2767.0,4095.0,6.43,7.98,5.41,-0.09,-0.95,-1.17,0.0,j
4095.0,3626.0,2935.0,3690.0,2854.0,1427.0,2789.0,4095.0,5.37,8.37,4.95,-0.04,-0.63,-1.06,0.0,j
4095.0,3619.0,2935.0,3680.0,2853.0,1424.0,2779.0,4095.0,4.51,8.75,4.91,-0.22,-0.09,-0.74,0.0,j
4095.0,3632.0,2945.0,3683.0,2853.0,1425.0,2784.0,4095.0,4.38,8.69,4.92,-0.35,0.28,-0.52,0.0,j
4095.0,3625.0,2939.0,3693.0,2867.0,1435.0,2779.0,4095.0,3.88,8.75,5.22,-0.26,0.1,-0.53,0.0,j
4095.0,3828.0,2947.0,3686.0,2878.0,1441.0,2811.0,4095.0,-3.34,8.39,7.97,-0.22,-0.15,-0.11,0.0,j
4095.0,3822.0,2955.0,3701.0,2886.0,1454.0,2815.0,4095.0,-2.85,8.07,7.74,-0.79,-0.31,0.2,0.0,j
4095.0,3795.0,2953.0,3720.0,2879.0,1439.0,2802.0,4095.0,-2.41,7.15,9.04,-1.05,-0.12,0.02,0.0,j
4095.0,3810.0,2961.0,3751.0,2885.0,1446.0,2805.0,4095.0,-1.66,6.21,9.79,-1.53,-0.35,-0.15,0.0,j
4095.0,3810.0,2961.0,3744.0,2878.0,1451.0,2801.0,4095.0,-2.23,4.88,12.11,-1.84,-0.63,-0.47,0.0,j
4095.0,3799.0,2959.0,3664.0,2860.0,1438.0,2737.0,4095.0,-2.34,3.51,13.69,-1.88,-0.31,-0.31,0.0,j
4095.0,3817.0,2963.0,3633.0,2854.0,1417.0,2743.0,4095.0,-1.98,1.93,14.6,-1.26,-0.33,-0.57,0.0,j
4095.0,3794.0,2958.0,3647.0,2859.0,1429.0,2759.0,4007.0,-1.32,0.42,14.7,-0.73,-0.77,-1.06,0.0,j
4095.0,3814.0,2957.0,3630.0,2859.0,1433.0,2779.0,3798.0,0.85,-0.18,14.75,-0.57,-2.5,-2.56,0.0,j
4095.0,3789.0,2951.0,3633.0,2847.0,1421.0,2782.0,3708.0,2.91,-0.42,14.95,-0.22,-2.78,-3.33,0.0,j
4095.0,3787.0,2959.0,3638.0,2861.0,1431.0,2788.0,3722.0,4.46,0.42,14.37,0.21,-3.06,-3.36,0.0,j
4095.0,3757.0,2931.0,3575.0,2835.0,1423.0,2768.0,3700.0,7.25,2.46,11.63,0.0,-3.01,-3.07,0.0,j
4095.0,3739.0,2941.0,3626.0,2854.0,1429.0,2778.0,3749.0,7.12,4.6,9.8,0.09,-2.57,-3.03,0.0,j
4095.0,3746.0,2950.0,3619.0,2859.0,1387.0,2784.0,3779.0,6.25,6.15,8.82,0.04,-1.55,-2.28,0.0,j
4095.0,3710.0,2950.0,3583.0,2850.0,1421.0,2768.0,3760.0,5.82,7.19,7.61,0.1,-0.65,-1.55,0.0,j
4095.0,3665.0,2928.0,3567.0,2843.0,1424.0,2767.0,3684.0,4.9,8.05,7.2,0.02,-0.6,-1.24,0.0,j
4095.0,3666.0,2925.0,3575.0,2843.0,1417.0,2763.0,3648.0,3.89,8.27,7.63,0.05,-0.29,-0.94,0.0,j
4095.0,3651.0,2937.0,3547.0,2860.0,1425.0,2768.0,3664.0,3.54,8.83,6.76,0.29,-0.17,-0.91,0.0,j
4095.0,3632.0,2938.0,3536.0,2863.0,1409.0,2768.0,3715.0,2.68,9.09,5.95,0.15,0.11,-0.62,0.0,j
4095.0,3655.0,2937.0,3538.0,2863.0,1422.0,2781.0,3754.0,2.39,9.05,5.94,-0.0,0.16,-0.36,0.0,j
4095.0,3699.0,2961.0,3659.0,2881.0,1450.0,2786.0,4095.0,-2.77,7.86,8.38,-0.96,0.06,0.1,0.0,j
4095.0,3675.0,2962.0,3679.0,2871.0,1450.0,2794.0,4095.0,-1.29,5.83,10.23,-1.93,-0.36,0.07,0.0,j
4095.0,3662.0,2960.0,3695.0,2864.0,1438.0,2802.0,4095.0,-0.28,4.8,13.3,-1.2,-2.47,-1.48,0.0,j
4095.0,3639.0,2955.0,3686.0,2857.0,1419.0,2815.0,4095.0,3.16,4.34,13.76,-0.98,-4.3,-2.2,0.0,j
4095.0,3518.0,2896.0,3583.0,2799.0,1402.0,2768.0,4095.0,4.88,4.47,13.02,-0.62,-3.84,-1.92,0.0,j
4095.0,3530.0,2901.0,3579.0,2807.0,1410.0,2779.0,4095.0,6.23,5.11,10.91,-0.37,-3.82,-1.94,0.0,j
4095.0,3520.0,2919.0,3575.0,2822.0,1414.0,2783.0,4036.0,7.81,5.84,8.97,-0.68,-3.5,-1.68,0.0,j
4095.0,3518.0,2929.0,3607.0,2829.0,1424.0,2797.0,4079.0,7.84,6.75,7.58,-0.35,-2.56,-1.53,0.0,j
4095.0,3500.0,2903.0,3597.0,2818.0,1408.0,2783.0,4047.0,7.15,7.61,6.0,-0.51,-2.1,-1.47,0.0,j
4095.0,3513.0,2923.0,3599.0,2832.0,1410.0,2787.0,4035.0,6.91,8.18,4.88,-0.49,-1.84,-1.56,0.0,j
4095.0,3504.0,2907.0,3567.0,2827.0,1423.0,2784.0,4055.0,4.97,8.9,4.17,-0.4,-1.39,-1.56,0.0,j
4095.0,3507.0,2919.0,3582.0,2839.0,1410.0,2786.0,3999.0,3.17,8.22,4.24,-0.38,-0.52,-0.96,0.0,j
4095.0,3535.0,2919.0,3571.0,2849.0,1424.0,2795.0,4095.0,3.02,8.8,4.22,-0.07,-0.21,-0.46,0.0,j
4095.0,3517.0,2923.0,3574.0,2839.0,1426.0,2780.0,4095.0,2.62,9.47,4.0,0.05,0.02,-0.25,0.0,j
4095.0,3523.0,2928.0,3597.0,2851.0,1429.0,2794.0,4095.0,2.58,9.78,4.06,0.03,0.09,-0.23,0.0,j
4095.0,3513.0,2919.0,3583.0,2845.0,1429.0,2790.0,4095.0,2.12,9.48,4.29,-0.03,0.09,-0.13,0.0,j
4095.0,3520.0,2927.0,3582.0,2858.0,1426.0,2800.0,4095.0,2.46,9.54,4.13,0.06,-0.06,-0.07,0.0,j
4095.0,3517.0,2923.0,3583.0,2852.0,1424.0,2798.0,4095.0,2.96,9.7,4.07,0.05,0.02,-0.12,0.0,j
4095.0,3539.0,2942.0,3600.0,2859.0,1430.0,2800.0,4095.0,2.83,9.67,3.97,0.02,-0.04,-0.14,0.0,j
4095.0,3527.0,2926.0,3601.0,2851.0,1431.0,2800.0,4095.0,2.8,9.48,4.13,0.04,0.03,-0.13,0.0,j
4095.0,3701.0,2953.0,3614.0,2882.0,1429.0,2817.0,4095.0,-3.92,8.03,6.36,-0.7,0.19,0.27,0.0,j
4095.0,3701.0,2953.0,3614.0,2882.0,1429.0,2817.0,4095.0,-3.92,8.03,6.36,-0.7,0.19,0.27,0.0,j
4095.0,3706.0,2957.0,3655.0,2885.0,1441.0,2821.0,4095.0,-3.03,7.53,7.29,-1.49,-0.14,-0.02,0.0,j
4095.0,3703.0,2949.0,3694.0,2877.0,1450.0,2827.0,4095.0,-2.55,5.94,9.29,-2.3,0.03,-0.26,0.0,j
4095.0,3713.0,2950.0,3647.0,2878.0,1452.0,2826.0,4095.0,-3.5,4.12,12.2,-2.39,-0.13,-0.6,0.0,j
4095.0,3685.0,2950.0,3682.0,2871.0,1441.0,2816.0,4095.0,-4.62,2.95,14.23,-1.42,-0.76,-0.74,0.0,j
4095.0,3694.0,2957.0,3683.0,2880.0,1441.0,2831.0,4095.0,-1.5,2.13,13.74,-1.17,-2.49,-1.8,0.0,j
4095.0,3671.0,2961.0,3563.0,2866.0,1440.0,2835.0,4095.0,0.47,-0.07,14.87,-1.02,-2.23,-2.45,0.0,j
4095.0,3643.0,2941.0,3582.0,2871.0,1431.0,2833.0,4095.0,1.44,-0.48,14.71,-0.69,-2.07,-2.3,0.0,j
4095.0,3627.0,2934.0,3607.0,2857.0,1427.0,2833.0,4095.0,3.95,-0.7,14.44,-0.45,-2.22,-2.26,0.0,j
4095.0,3643.0,2947.0,3664.0,2864.0,1429.0,2834.0,4095.0,5.98,0.41,12.71,-0.28,-1.98,-1.81,0.0,j
4095.0,3634.0,2949.0,3675.0,2864.0,1437.0,2835.0,4095.0,7.37,1.09,11.53,-0.23,-1.79,-1.59,0.0,j
4095.0,3632.0,2938.0,3661.0,2864.0,1425.0,2831.0,4095.0,8.24,2.38,9.77,-0.12,-1.77,-1.59,0.0,j
4095.0,3637.0,2943.0,3665.0,2862.0,1429.0,2823.0,4095.0,8.35,3.18,8.7,-0.22,-1.2,-1.23,0.0,j
4095.0,3620.0,2930.0,3659.0,2852.0,1433.0,2821.0,4095.0,8.47,3.15,8.16,-0.34,-0.49,-0.58,0.0,j
4095.0,3634.0,2943.0,3678.0,2865.0,1439.0,2838.0,4095.0,9.01,3.17,8.36,-0.25,-0.47,-0.45,0.0,j
4095.0,3600.0,2938.0,3666.0,2857.0,1425.0,2830.0,4095.0,9.1,3.99,7.7,-0.02,-0.56,-0.62,0.0,j
4095.0,3622.0,2939.0,3673.0,2858.0,1429.0,2832.0,4095.0,8.45,4.59,7.22,0.13,-0.86,-0.95,0.0,j
4095.0,3605.0,2937.0,3664.0,2863.0,1430.0,2834.0,4095.0,8.01,5.22,6.15,0.15,-0.3,-0.63,0.0,j
4095.0,3620.0,2944.0,3675.0,2865.0,1431.0,2839.0,4095.0,8.18,4.99,6.47,-0.12,0.03,-0.06,0.0,j
4095.0,3853.0,2953.0,3690.0,2865.0,1437.0,2845.0,4095.0,-3.24,9.29,6.5,0.3,0.27,-0.07,0.0,j
4095.0,3860.0,2954.0,3664.0,2869.0,1440.0,2851.0,4095.0,-2.22,9.18,5.46,0.22,0.37,-0.06,0.0,j
4095.0,3829.0,2961.0,3655.0,2871.0,1449.0,2851.0,4095.0,-1.9,8.66,5.2,-0.4,0.01,-0.28,0.0,j
4095.0,3844.0,2959.0,3693.0,2879.0,1449.0,2851.0,4095.0,-2.99,8.78,5.85,-0.6,-0.35,-0.68,0.0,j
4095.0,3825.0,2957.0,3680.0,2881.0,1446.0,2851.0,4095.0,-3.12,8.07,7.26,-1.02,-0.31,-0.66,0.0,j
4095.0,3852.0,2966.0,3711.0,2880.0,1451.0,2843.0,4095.0,-4.89,7.18,9.03,-1.28,-0.33,-0.89,0.0,j
4095.0,3843.0,2951.0,3713.0,2886.0,1451.0,2839.0,4095.0,-3.73,6.81,9.75,-1.18,-0.23,-0.43,0.0,j
4095.0,3854.0,2960.0,3712.0,2878.0,1435.0,2843.0,4095.0,-4.1,5.82,10.53,-0.95,-0.19,-0.79,0.0,j
4095.0,3863.0,2956.0,3728.0,2884.0,1439.0,2849.0,4095.0,-4.6,5.25,11.15,-0.91,-0.59,-1.03,0.0,j
4095.0,3831.0,2951.0,3741.0,2885.0,1447.0,2855.0,4095.0,-3.22,3.42,12.4,-1.05,-0.85,-1.14,0.0,j
4095.0,3831.0,2961.0,3751.0,2886.0,1445.0,2855.0,4095.0,-2.83,2.16,13.52,-0.89,-0.16,-1.06,0.0,j
4095.0,3855.0,2960.0,3741.0,2878.0,1441.0,2855.0,4095.0,-3.43,1.58,13.17,-0.47,-0.5,-1.3,0.0,j
4095.0,3854.0,2962.0,3774.0,2889.0,1445.0,2862.0,4095.0,-3.42,0.12,14.3,-0.5,-1.6,-1.81,0.0,j
4095.0,3888.0,2950.0,3761.0,2878.0,1441.0,2857.0,4095.0,-1.42,-0.66,14.78,-0.31,-1.97,-1.93,0.0,j
4095.0,3904.0,2962.0,3760.0,2889.0,1443.0,2862.0,4095.0,0.13,-0.94,15.21,-0.01,-1.96,-2.14,0.0,j
4095.0,3907.0,2947.0,3739.0,2882.0,1435.0,2851.0,4095.0,2.02,-0.74,14.73,0.24,-2.1,-2.07,0.0,j
4095.0,3905.0,2959.0,3718.0,2880.0,1441.0,2843.0,4095.0,3.71,-0.09,13.67,0.17,-2.24,-2.0,0.0,j
4095.0,3931.0,2957.0,3694.0,2871.0,1433.0,2827.0,4095.0,5.77,0.8,12.38,-0.13,-1.99,-1.54,0.0,j
4095.0,3927.0,2953.0,3685.0,2875.0,1433.0,2823.0,4095.0,7.3,1.47,11.6,-0.28,-1.16,-0.92,0.0,j
4095.0,3939.0,2958.0,3670.0,2866.0,1435.0,2832.0,4095.0,8.3,2.15,10.81,-0.1,-1.27,-1.01,0.0,j
4095.0,4043.0,2965.0,3651.0,2896.0,1435.0,2799.0,4095.0,-2.87,9.31,5.21,-0.26,0.32,0.03,0.0,j
4095.0,4038.0,2960.0,3660.0,2895.0,1451.0,2803.0,4095.0,-2.57,9.16,5.56,-0.37,0.17,-0.08,0.0,j
4095.0,4011.0,2959.0,3653.0,2890.0,1450.0,2811.0,4095.0,-2.46,9.25,5.49,-0.59,-0.14,-0.3,0.0,j
4095.0,4021.0,2958.0,3667.0,2893.0,1447.0,2817.0,4095.0,-3.01,8.76,6.42,-1.07,-0.02,-0.27,0.0,j
4095.0,3979.0,2955.0,3669.0,2880.0,1447.0,2811.0,4095.0,-2.19,7.56,7.8,-1.53,-0.01,-0.41,0.0,j
4095.0,3988.0,2969.0,3696.0,2890.0,1441.0,2825.0,4095.0,-3.17,6.52,9.91,-1.52,-0.02,-0.83,0.0,j
4095.0,3973.0,2953.0,3714.0,2886.0,1433.0,2813.0,4095.0,-4.0,5.87,10.95,-1.19,-0.0,-0.84,0.0,j
4095.0,3980.0,2958.0,3700.0,2895.0,1444.0,2816.0,4095.0,-4.03,5.18,11.12,-0.96,-0.27,-0.75,0.0,j
4095.0,3984.0,2951.0,3677.0,2887.0,1444.0,2818.0,4095.0,-4.51,3.9,12.19,-0.87,-0.62,-0.9,0.0,j
4095.0,3995.0,2969.0,3654.0,2890.0,1446.0,2822.0,4095.0,-4.4,2.8,12.83,-1.16,-0.5,-0.65,0.0,j
4095.0,3975.0,2951.0,3645.0,2890.0,1428.0,2827.0,4095.0,-2.57,1.11,14.43,-1.09,-1.58,-1.39,0.0,j
4095.0,3993.0,2973.0,3674.0,2891.0,1441.0,2832.0,4095.0,-1.52,0.49,13.97,-0.57,-1.08,-1.37,0.0,j
4095.0,3999.0,2958.0,3671.0,2880.0,1440.0,2836.0,4095.0,-1.73,-0.4,14.43,-0.55,-0.54,-1.11,0.0,j
4095.0,4002.0,2969.0,3675.0,2880.0,1438.0,2833.0,4095.0,-0.98,-1.13,15.01,-0.38,-0.99,-1.27,0.0,j
4095.0,3983.0,2961.0,3677.0,2894.0,1424.0,2839.0,4095.0,0.8,-1.17,14.36,-0.07,-1.16,-1.33,0.0,j
4095.0,3967.0,2965.0,3678.0,2889.0,1441.0,2829.0,4095.0,2.15,-1.29,14.49,0.07,-1.12,-1.57,0.0,j
4095.0,3969.0,2967.0,3664.0,2896.0,1441.0,2832.0,4095.0,3.0,-0.77,14.02,0.28,-0.88,-1.59,0.0,j
4095.0,3989.0,2957.0,3694.0,2882.0,1443.0,2831.0,4095.0,4.09,-0.1,14.37,0.4,-1.73,-2.05,0.0,j
4095.0,3989.0,2954.0,3691.0,2896.0,1443.0,2830.0,4095.0,5.5,1.41,12.76,0.4,-1.85,-1.89,0.0,j
4095.0,3981.0,2950.0,3663.0,2877.0,1427.0,2823.0,4095.0,6.44,2.52,11.89,0.26,-1.59,-1.65,0.0,j
4095.0,4095.0,2965.0,3682.0,2909.0,1450.0,2839.0,4095.0,-3.79,8.3,7.87,0.02,0.04,-0.09,0.0,j
4095.0,4095.0,2965.0,3691.0,2914.0,1452.0,2835.0,4095.0,-3.44,8.2,6.88,-0.12,-0.3,-0.21,0.0,j
4095.0,4095.0,2964.0,3695.0,2910.0,1455.0,2842.0,4095.0,-3.71,7.82,5.77,-0.73,-1.27,-0.43,0.0,j
4095.0,4095.0,2955.0,3686.0,2898.0,1442.0,2834.0,4095.0,-1.35,6.24,7.61,-1.7,-3.73,-1.09,0.0,j
4095.0,4095.0,2969.0,3645.0,2887.0,1440.0,2815.0,4095.0,2.77,2.49,11.7,-2.45,-2.46,-0.74,0.0,j
4095.0,4095.0,2958.0,3642.0,2887.0,1437.0,2821.0,4095.0,4.4,2.2,15.38,-1.91,-2.12,-0.62,0.0,j
4095.0,4094.0,2955.0,3655.0,2890.0,1431.0,2817.0,4095.0,5.56,2.31,16.08,-1.45,-3.19,-1.56,0.0,j
4095.0,3997.0,2934.0,3583.0,2857.0,1424.0,2800.0,4095.0,6.22,2.35,14.05,0.17,-3.91,-1.72,0.0,j
4095.0,3838.0,2882.0,3467.0,2800.0,1399.0,2734.0,4073.0,8.82,4.33,8.15,-0.22,-4.57,-2.51,0.0,j
4095.0,3809.0,2871.0,3452.0,2768.0,1392.0,2726.0,4095.0,10.56,6.0,4.46,-0.92,-3.4,-2.19,0.0,j
4095.0,3917.0,2922.0,3541.0,2830.0,1424.0,2789.0,4095.0,9.84,6.36,3.88,-1.36,-1.45,-1.72,0.0,j
4095.0,3977.0,2944.0,3568.0,2863.0,1440.0,2815.0,4095.0,7.21,6.55,4.78,-0.95,-0.38,-1.68,0.0,j
4095.0,3984.0,2951.0,3571.0,2858.0,1435.0,2817.0,4095.0,4.64,7.46,4.18,-0.61,-0.14,-1.43,0.0,j
4095.0,4005.0,2960.0,3583.0,2869.0,1440.0,2837.0,4095.0,2.89,7.7,4.77,-0.34,0.7,-0.55,0.0,j
4095.0,3984.0,2944.0,3600.0,2875.0,1399.0,2834.0,4095.0,3.38,8.57,4.87,0.09,-0.01,-0.26,0.0,j
4095.0,4002.0,2947.0,3609.0,2883.0,1437.0,2849.0,4095.0,3.91,9.18,4.57,0.16,-0.08,-0.01,0.0,j
4095.0,4002.0,2951.0,3618.0,2877.0,1439.0,2839.0,4095.0,4.26,9.4,4.43,0.07,-0.05,-0.09,0.0,j
4095.0,3988.0,2961.0,3623.0,2879.0,1440.0,2849.0,4095.0,4.26,9.11,4.56,0.02,0.21,-0.01,0.0,j
4095.0,3987.0,2957.0,3626.0,2884.0,1439.0,2843.0,4095.0,4.29,8.95,4.67,0.03,-0.03,-0.06,0.0,j
4095.0,3997.0,2956.0,3631.0,2882.0,1443.0,2847.0,4095.0,4.36,8.99,4.69,-0.03,0.03,-0.05,0.0,j
4095.0,4062.0,2951.0,3707.0,2880.0,1421.0,2882.0,4095.0,-3.63,7.89,7.91,-0.41,-0.11,-0.22,0.0,j
4095.0,4033.0,2963.0,3633.0,2881.0,1447.0,2832.0,4095.0,-3.89,7.41,7.59,-1.39,-0.35,-0.15,0.0,j
4095.0,4031.0,2960.0,3629.0,2864.0,1445.0,2802.0,4095.0,-2.29,5.43,9.23,-2.22,-0.54,-0.41,0.0,j
4095.0,4047.0,2967.0,3630.0,2869.0,1442.0,2815.0,4095.0,-2.09,3.33,12.37,-2.05,-1.65,-1.81,0.0,j
4095.0,4020.0,2955.0,3601.0,2875.0,1438.0,2825.0,4095.0,-1.5,0.74,15.19,-2.04,-2.5,-2.31,0.0,j
4095.0,3984.0,2958.0,3635.0,2874.0,1435.0,2839.0,4095.0,1.34,-0.43,15.29,-1.19,-2.37,-1.8,0.0,j
4095.0,3957.0,2974.0,3632.0,2859.0,1434.0,2853.0,4095.0,3.78,-1.27,14.63,-0.92,-2.25,-2.22,0.0,j
4095.0,3910.0,2961.0,3631.0,2869.0,1425.0,2857.0,4095.0,5.1,-1.36,14.34,-0.35,-2.38,-2.44,0.0,j
4095.0,3909.0,2951.0,3634.0,2881.0,1444.0,2850.0,4095.0,7.64,0.23,12.24,0.13,-2.76,-2.59,0.0,j
4095.0,3887.0,2946.0,3637.0,2866.0,1424.0,2843.0,4095.0,8.88,2.13,9.09,0.09,-2.56,-2.36,0.0,j
4095.0,3884.0,2951.0,3645.0,2869.0,1438.0,2851.0,4095.0,8.57,2.81,8.56,-0.15,-0.9,-1.07,0.0,j
4095.0,3863.0,2945.0,3648.0,2864.0,1438.0,2841.0,4095.0,8.41,2.92,8.27,-0.15,-0.06,-0.25,0.0,j
4095.0,3873.0,2954.0,3652.0,2875.0,1439.0,2848.0,4095.0,8.96,3.72,7.47,-0.0,-0.25,-0.26,0.0,j
4095.0,3873.0,2950.0,3649.0,2865.0,1427.0,2857.0,4095.0,8.82,3.96,7.67,0.07,-0.31,-0.42,0.0,j
4095.0,3890.0,2955.0,3679.0,2864.0,1434.0,2857.0,4095.0,8.76,4.46,6.9,0.28,-0.41,-0.69,0.0,j
4095.0,3855.0,2956.0,3664.0,2861.0,1424.0,2853.0,4095.0,8.53,5.04,6.18,0.04,-0.25,-0.59,0.0,j
4095.0,3841.0,2945.0,3662.0,2860.0,1431.0,2850.0,4095.0,7.93,4.91,6.5,-0.16,0.11,-0.24,0.0,j
4095.0,3885.0,2959.0,3664.0,2863.0,1433.0,2859.0,4095.0,8.16,4.98,6.79,-0.09,-0.13,-0.22,0.0,j
4095.0,3857.0,2950.0,3662.0,2855.0,1428.0,2853.0,4095.0,8.49,5.19,6.51,-0.04,-0.06,-0.21,0.0,j
4095.0,3871.0,2954.0,3665.0,2862.0,1427.0,2859.0,4095.0,9.05,5.41,6.34,0.01,-0.02,-0.35,0.0,j
4095.0,3995.0,2946.0,3313.0,2944.0,1461.0,2762.0,4095.0,-3.73,9.18,5.77,0.1,-0.11,-0.4,0.0,j
4095.0,4015.0,2960.0,3341.0,2954.0,1461.0,2770.0,4095.0,-3.75,8.94,5.09,-0.71,-0.14,0.15,0.0,j
4095.0,3971.0,2960.0,3293.0,2949.0,1459.0,2783.0,4095.0,-2.6,7.01,5.3,-1.99,-0.47,-0.46,0.0,j
4095.0,3993.0,2958.0,3339.0,2946.0,1430.0,2778.0,4095.0,-2.83,5.81,10.09,-2.51,-0.84,-0.57,0.0,j
4095.0,3978.0,2947.0,3362.0,2942.0,1458.0,2772.0,4095.0,-2.75,4.37,12.56,-2.58,-0.14,-0.37,0.0,j
4095.0,4001.0,2960.0,3340.0,2943.0,1461.0,2771.0,4095.0,-2.47,2.05,14.25,-1.75,-1.58,-1.63,0.0,j
4095.0,4007.0,2960.0,3349.0,2947.0,1462.0,2789.0,4095.0,0.55,0.25,16.44,-0.97,-2.82,-2.25,0.0,j
4095.0,3979.0,2946.0,3353.0,2943.0,1457.0,2787.0,4095.0,3.03,1.29,15.19,0.0,-3.73,-2.92,0.0,j
4095.0,3963.0,2959.0,3358.0,2951.0,1445.0,2774.0,4095.0,4.66,2.66,11.19,0.15,-4.69,-2.94,0.0,j
4095.0,3931.0,2956.0,3344.0,2929.0,1456.0,2774.0,4095.0,9.46,4.22,9.43,0.12,-3.81,-1.91,0.0,j
4095.0,3908.0,2937.0,3350.0,2933.0,1456.0,2789.0,4095.0,10.08,5.75,7.78,0.02,-2.55,-2.11,0.0,j
4095.0,3916.0,2949.0,3345.0,2928.0,1456.0,2774.0,4095.0,9.18,6.76,6.23,-0.19,-2.22,-2.56,0.0,j
4095.0,3936.0,2948.0,3312.0,2927.0,1456.0,2786.0,4095.0,6.32,8.24,4.53,0.07,-1.76,-2.77,0.0,j
4095.0,3910.0,2946.0,3305.0,2942.0,1459.0,2789.0,4095.0,3.01,8.5,4.07,-0.57,-0.54,-1.62,0.0,j
4095.0,3909.0,2947.0,3324.0,2953.0,1465.0,2803.0,4095.0,2.15,8.31,4.74,-0.44,0.37,-0.64,0.0,j
4095.0,3920.0,2942.0,3322.0,2940.0,1456.0,2805.0,4095.0,2.59,9.39,4.64,-0.01,0.07,-0.58,0.0,j
4095.0,3915.0,2959.0,3339.0,2955.0,1463.0,2805.0,4095.0,1.67,10.01,4.92,-0.13,-0.05,-0.62,0.0,j
4095.0,3920.0,2956.0,3341.0,2950.0,1467.0,2811.0,4095.0,0.75,9.1,5.53,-0.23,0.03,-0.28,0.0,j
4095.0,3904.0,2946.0,3333.0,2945.0,1467.0,2805.0,4095.0,1.41,9.33,5.26,0.08,-0.12,-0.04,0.0,j
4095.0,3943.0,2958.0,3345.0,2945.0,1468.0,2805.0,4095.0,1.89,9.67,5.06,0.18,0.01,-0.02,0.0,j
4095.0,3888.0,2971.0,3441.0,2960.0,1473.0,2896.0,4095.0,-1.92,9.27,6.57,-0.18,0.22,-0.2,0.0,j
4095.0,3877.0,2960.0,3440.0,2967.0,1471.0,2916.0,4095.0,-2.73,9.25,6.1,-0.25,0.01,-0.29,0.0,j
4095.0,3850.0,2947.0,3449.0,2957.0,1438.0,2902.0,4095.0,-2.34,8.83,6.42,-1.05,-0.01,0.18,0.0,j
4095.0,3802.0,2959.0,3462.0,2943.0,1470.0,2902.0,4095.0,-1.7,7.68,7.4,-1.6,0.21,-0.08,0.0,j
4095.0,3766.0,2960.0,3466.0,2943.0,1472.0,2891.0,4095.0,-1.91,6.38,10.57,-1.97,-0.08,-0.45,0.0,j
4095.0,3757.0,2950.0,3463.0,2941.0,1467.0,2887.0,4095.0,-2.42,5.46,11.84,-1.64,-0.74,-0.72,0.0,j
4095.0,3728.0,2954.0,3482.0,2949.0,1449.0,2896.0,4095.0,-1.41,4.43,12.1,-1.35,-1.21,-1.06,0.0,j
4095.0,3751.0,2954.0,3498.0,2961.0,1472.0,2905.0,4095.0,-1.61,2.88,15.04,-1.15,-1.9,-1.3,0.0,j
4095.0,3731.0,2954.0,3463.0,2954.0,1465.0,2893.0,4095.0,1.83,1.95,14.19,-0.88,-3.17,-1.49,0.0,j
4095.0,3771.0,2963.0,3405.0,2954.0,1467.0,2891.0,4095.0,4.11,2.28,13.25,-0.26,-2.68,-1.33,0.0,j
4095.0,3738.0,2960.0,3382.0,2947.0,1459.0,2874.0,4095.0,5.73,2.01,12.9,-0.63,-2.4,-1.56,0.0,j
4095.0,3743.0,2960.0,3377.0,2950.0,1459.0,2874.0,4095.0,6.91,2.7,10.52,-0.66,-3.3,-2.06,0.0,j
4095.0,3722.0,2945.0,3372.0,2947.0,1467.0,2871.0,4095.0,8.54,3.45,9.84,-0.66,-3.34,-2.02,0.0,j
4095.0,3701.0,2955.0,3390.0,2934.0,1465.0,2864.0,4095.0,10.25,4.67,7.52,-0.48,-2.7,-2.25,0.0,j
4095.0,3644.0,2960.0,3419.0,2928.0,1456.0,2882.0,4095.0,7.83,6.58,4.9,-0.4,-2.41,-2.16,0.0,j
4095.0,3623.0,2957.0,3402.0,2928.0,1450.0,2882.0,4095.0,7.62,7.45,4.78,-0.45,-1.7,-1.7,0.0,j
4095.0,3619.0,2945.0,3334.0,2928.0,1462.0,2896.0,4095.0,6.58,8.13,3.73,-0.44,-1.14,-1.81,0.0,j
4095.0,3602.0,2949.0,3359.0,2943.0,1463.0,2897.0,4095.0,4.46,8.53,3.63,-0.31,0.36,-1.58,0.0,j
4095.0,3629.0,2963.0,3408.0,2959.0,1424.0,2906.0,4095.0,2.09,8.79,4.12,-0.51,0.14,-1.14,0.0,j
4095.0,3609.0,2960.0,3425.0,2955.0,1445.0,2908.0,4095.0,1.94,9.18,4.89,-0.31,0.08,-0.82,0.0,j
4095.0,3634.0,2948.0,3516.0,3001.0,1490.0,2954.0,4095.0,-3.25,8.59,5.9,-0.6,-0.1,-0.1,0.0,j
4095.0,3630.0,2955.0,3519.0,2989.0,1493.0,2960.0,4095.0,-2.43,6.89,7.3,-1.66,-0.18,0.02,0.0,j
4095.0,3578.0,2950.0,3530.0,2982.0,1488.0,2945.0,4095.0,-1.94,5.71,9.18,-2.51,-1.88,-0.86,0.0,j
4095.0,3583.0,2955.0,3516.0,2983.0,1488.0,2934.0,4095.0,-2.39,4.48,12.56,-2.61,-2.96,-1.13,0.0,j
4095.0,3581.0,2941.0,3514.0,2963.0,1425.0,2933.0,4095.0,0.42,2.13,15.02,-1.68,-1.48,-0.45,0.0,j
4095.0,3601.0,2960.0,3520.0,2975.0,1466.0,2944.0,4095.0,3.46,1.67,14.7,-1.24,-2.7,-1.41,0.0,j
4095.0,3561.0,2949.0,3501.0,2955.0,1467.0,2931.0,4095.0,7.05,1.37,14.06,-0.51,-2.96,-2.22,0.0,j
4095.0,3536.0,2929.0,3473.0,2935.0,1456.0,2925.0,4095.0,6.95,1.63,12.43,-0.64,-3.71,-2.32,0.0,j
4095.0,3517.0,2925.0,3462.0,2928.0,1455.0,2914.0,4095.0,7.77,2.9,10.14,-0.51,-3.54,-2.61,0.0,j
4095.0,3509.0,2932.0,3475.0,2939.0,1457.0,2928.0,4095.0,8.6,4.75,7.26,-0.16,-3.26,-2.29,0.0,j
4095.0,3531.0,2945.0,3479.0,2928.0,1456.0,2922.0,4095.0,8.23,6.21,5.18,-0.34,-2.09,-1.71,0.0,j
4095.0,3536.0,2958.0,3494.0,2935.0,1463.0,2943.0,4095.0,7.78,6.99,4.13,-0.33,-1.17,-1.29,0.0,j
4095.0,3526.0,2943.0,3408.0,2928.0,1438.0,2943.0,4095.0,7.22,7.84,3.18,-0.31,-0.7,-1.19,0.0,j
4095.0,3527.0,2947.0,3431.0,2937.0,1462.0,2945.0,4095.0,6.04,8.37,3.67,-0.27,0.3,-1.01,0.0,j
4095.0,3549.0,2954.0,3437.0,2943.0,1464.0,2950.0,4095.0,4.02,8.87,3.3,-0.34,-0.12,-1.11,0.0,j
4095.0,3540.0,2949.0,3447.0,2957.0,1468.0,2944.0,4095.0,3.42,8.85,4.24,-0.33,0.39,-0.88,0.0,j
4095.0,3545.0,2949.0,3470.0,2965.0,1435.0,2943.0,4095.0,3.45,9.97,4.07,-0.12,0.01,-1.06,0.0,j
4095.0,3551.0,2947.0,3455.0,2962.0,1465.0,2945.0,4095.0,1.84,9.35,4.43,-0.47,0.11,-0.96,0.0,j
4095.0,3552.0,2956.0,3472.0,2971.0,1474.0,2953.0,4095.0,0.66,8.19,5.3,-0.42,0.21,-0.53,0.0,j
4095.0,3549.0,2947.0,3462.0,2971.0,1473.0,2960.0,4095.0,0.96,8.67,5.79,0.08,-0.01,-0.03,0.0,j
4095.0,3626.0,2944.0,3472.0,2992.0,1488.0,2998.0,4095.0,-3.97,8.36,5.74,-1.38,-0.3,0.33,0.0,j
4095.0,3621.0,2943.0,3501.0,2975.0,1483.0,2976.0,4095.0,-2.37,6.68,7.54,-2.41,-0.38,0.54,0.0,j
4095.0,3601.0,2961.0,3482.0,2992.0,1488.0,2998.0,4095.0,-2.21,4.7,11.52,-2.83,-0.46,-0.21,0.0,j
4095.0,3583.0,2954.0,3504.0,2987.0,1488.0,2993.0,4095.0,-0.94,3.36,14.8,-2.09,-2.52,-1.44,0.0,j
4095.0,3600.0,2953.0,3539.0,2999.0,1483.0,3011.0,4095.0,1.65,2.37,15.08,-0.73,-2.41,-1.56,0.0,j
4095.0,3583.0,2943.0,3519.0,2992.0,1462.0,3005.0,4095.0,2.46,1.39,13.07,-0.52,-3.89,-2.05,0.0,j
4095.0,3567.0,2954.0,3541.0,2995.0,1475.0,2994.0,4095.0,7.04,3.21,12.42,-0.49,-4.7,-2.33,0.0,j
4095.0,3569.0,2951.0,3519.0,2994.0,1475.0,2991.0,4095.0,8.74,4.77,8.19,-0.31,-3.75,-2.2,0.0,j
4095.0,3570.0,2960.0,3527.0,2992.0,1473.0,3001.0,4095.0,8.91,5.51,6.43,-0.75,-2.37,-1.29,0.0,j
4095.0,3557.0,2946.0,3501.0,2964.0,1472.0,2994.0,4095.0,8.86,6.36,4.56,-0.5,-2.26,-1.44,0.0,j
4095.0,3493.0,2901.0,3429.0,2933.0,1450.0,2961.0,4095.0,7.56,6.96,3.23,-0.58,-1.94,-1.38,0.0,j
4095.0,3462.0,2896.0,3404.0,2923.0,1454.0,2958.0,4095.0,6.67,7.88,2.23,-0.57,-1.25,-1.07,0.0,j
4095.0,3475.0,2897.0,3378.0,2907.0,1455.0,2953.0,4095.0,5.96,8.27,2.23,-0.51,-0.73,-0.91,0.0,j
4095.0,3506.0,2905.0,3381.0,2928.0,1455.0,2960.0,4095.0,4.9,8.73,2.04,-0.52,-0.56,-0.89,0.0,j
4095.0,3490.0,2917.0,3383.0,2917.0,1454.0,2960.0,4095.0,4.16,8.94,2.48,-0.51,-0.02,-0.66,0.0,j
4095.0,3489.0,2911.0,3393.0,2928.0,1439.0,2963.0,4095.0,3.64,9.29,2.81,-0.51,-0.01,-0.88,0.0,j
4095.0,3489.0,2902.0,3392.0,2928.0,1455.0,2958.0,4095.0,2.68,9.35,3.75,-0.5,-0.0,-0.88,0.0,j
4095.0,3504.0,2903.0,3395.0,2938.0,1456.0,2966.0,4095.0,1.78,9.2,3.83,-0.42,0.08,-0.92,0.0,j
4095.0,3493.0,2905.0,3381.0,2930.0,1457.0,2955.0,4095.0,1.83,9.46,3.52,-0.47,0.55,-0.86,0.0,j
4095.0,3501.0,2899.0,3379.0,2933.0,1463.0,2960.0,4095.0,-0.71,9.38,5.2,-0.75,0.77,-0.51,0.0,j
4095.0,3639.0,2938.0,3352.0,2979.0,1474.0,3056.0,4095.0,-4.9,7.64,7.34,-0.64,-0.37,0.43,0.0,j
4095.0,3610.0,2945.0,3423.0,2969.0,1482.0,3037.0,4095.0,-1.9,7.26,9.05,-0.95,-1.74,0.08,0.0,j
4095.0,3625.0,2954.0,3440.0,2971.0,1473.0,3025.0,4095.0,-1.36,6.76,11.19,-1.46,0.45,0.33,0.0,j
4095.0,3632.0,2950.0,3451.0,2970.0,1473.0,3009.0,4095.0,-1.84,5.83,12.94,-1.12,0.73,0.32,0.0,j
4095.0,3643.0,2945.0,3472.0,2981.0,1467.0,3023.0,4095.0,-1.93,5.8,13.0,-0.33,0.19,0.04,0.0,j
4095.0,3642.0,2933.0,3449.0,2964.0,1474.0,2995.0,4095.0,-0.64,5.35,9.67,-0.69,-0.41,-0.25,0.0,j
4095.0,3637.0,2939.0,3415.0,2960.0,1475.0,2996.0,4095.0,-1.92,2.8,11.6,-2.42,-0.61,-0.14,0.0,j
4095.0,3633.0,2942.0,3477.0,2959.0,1462.0,3002.0,4095.0,0.89,0.13,16.08,-2.15,-3.4,-2.19,0.0,j
4095.0,3568.0,2927.0,3450.0,2931.0,1462.0,2992.0,4095.0,5.32,-0.13,14.73,-0.97,-3.94,-3.19,0.0,j
4095.0,3556.0,2931.0,3439.0,2917.0,1451.0,2985.0,4095.0,8.13,1.2,12.41,-0.67,-3.3,-1.88,0.0,j
4095.0,3554.0,2931.0,3415.0,2922.0,1449.0,2997.0,4095.0,9.38,2.45,9.05,-0.38,-3.04,-2.14,0.0,j
4095.0,3520.0,2928.0,3391.0,2896.0,1442.0,2961.0,4095.0,9.54,3.87,6.14,-0.45,-2.48,-1.74,0.0,j
4095.0,3507.0,2928.0,3390.0,2898.0,1433.0,2965.0,4095.0,8.99,5.32,4.5,-0.26,-2.03,-1.52,0.0,j
4095.0,3531.0,2944.0,3385.0,2899.0,1448.0,2975.0,4095.0,8.03,6.08,2.84,-0.33,-1.83,-1.34,0.0,j
4095.0,3530.0,2931.0,3370.0,2897.0,1429.0,2977.0,4095.0,7.72,6.75,2.51,-0.3,-1.13,-1.06,0.0,j
4095.0,3519.0,2928.0,3366.0,2903.0,1452.0,2966.0,4095.0,6.64,7.41,1.64,-0.32,-0.75,-0.96,0.0,j
4095.0,3504.0,2919.0,3333.0,2896.0,1449.0,2952.0,4095.0,5.94,8.05,1.44,-0.43,-0.45,-0.67,0.0,j
4095.0,3474.0,2901.0,3318.0,2885.0,1440.0,2937.0,4095.0,6.1,8.41,1.84,-0.43,0.03,-0.83,0.0,j
4095.0,3503.0,2903.0,3309.0,2891.0,1442.0,2931.0,4095.0,4.28,9.0,1.94,-0.58,0.02,-1.07,0.0,j
4095.0,3493.0,2908.0,3293.0,2894.0,1445.0,2931.0,4095.0,3.39,8.92,2.71,-0.66,0.01,-1.01,0.0,j
4095.0,3607.0,2928.0,3411.0,2981.0,1488.0,2975.0,4095.0,-2.83,8.25,7.39,-1.35,-0.2,0.26,0.0,j
4095.0,3603.0,2929.0,3394.0,2967.0,1455.0,2965.0,4095.0,-2.11,6.02,9.43,-1.62,0.02,-0.05,0.0,j
4095.0,3600.0,2928.0,3347.0,2960.0,1472.0,2923.0,4095.0,-2.18,5.38,11.0,-1.76,-0.27,-0.22,0.0,j
4095.0,3605.0,2945.0,3333.0,2967.0,1465.0,2948.0,4095.0,-2.17,4.65,12.53,-1.43,-0.33,-0.36,0.0,j
4095.0,3598.0,2922.0,3281.0,2959.0,1472.0,2959.0,4095.0,-0.8,1.73,14.15,-1.96,-1.68,-1.83,0.0,j
4095.0,3610.0,2943.0,3316.0,2979.0,1471.0,2977.0,4095.0,0.39,0.01,15.85,-1.02,-2.02,-1.83,0.0,j
4095.0,3549.0,2901.0,3280.0,2930.0,1436.0,2950.0,4095.0,2.54,0.2,14.3,-0.79,-2.89,-1.99,0.0,j
4095.0,3553.0,2914.0,3293.0,2921.0,1443.0,2955.0,4095.0,5.08,0.23,14.37,-0.52,-2.75,-2.01,0.0,j
4095.0,3635.0,2960.0,3344.0,2957.0,1460.0,2992.0,4095.0,6.61,0.68,12.16,-0.38,-1.88,-1.6,0.0,j
4095.0,3565.0,2927.0,3312.0,2926.0,1405.0,2954.0,4095.0,8.2,1.8,10.1,-0.5,-1.88,-1.81,0.0,j
4095.0,3603.0,2934.0,3343.0,2938.0,1460.0,2974.0,4095.0,9.6,2.55,9.45,-0.44,-1.36,-1.57,0.0,j
4095.0,3611.0,2931.0,3339.0,2935.0,1460.0,2972.0,4095.0,9.47,3.29,8.42,-0.38,-1.27,-1.86,0.0,j
4095.0,3460.0,2862.0,3237.0,2846.0,1423.0,2880.0,4095.0,8.14,4.08,7.36,-0.33,-1.58,-2.01,0.0,j
4095.0,3525.0,2911.0,3323.0,2903.0,1450.0,2947.0,4095.0,8.45,5.28,6.44,0.05,-0.89,-1.59,0.0,j
4095.0,3549.0,2928.0,3338.0,2900.0,1453.0,2943.0,4095.0,7.64,6.79,5.46,0.18,-0.89,-1.56,0.0,j
4095.0,3481.0,2881.0,3282.0,2870.0,1402.0,2886.0,4095.0,6.87,7.75,5.03,-0.08,-0.18,-1.21,0.0,j
4095.0,3488.0,2895.0,3279.0,2873.0,1437.0,2907.0,4095.0,6.19,8.38,4.5,-0.12,-0.21,-1.32,0.0,j
4095.0,3479.0,2891.0,3280.0,2873.0,1431.0,2909.0,4095.0,4.42,8.56,5.31,-0.22,0.04,-1.35,0.0,j
4095.0,3503.0,2896.0,3277.0,2883.0,1425.0,2919.0,4095.0,2.87,8.92,5.43,-0.08,-0.08,-1.17,0.0,j
4095.0,3491.0,2887.0,3279.0,2896.0,1440.0,2932.0,4095.0,2.07,9.37,5.03,0.01,-0.03,-0.88,0.0,j
4095.0,3763.0,2958.0,3430.0,3088.0,1517.0,2959.0,4095.0,-3.78,8.42,7.18,-0.27,-0.23,-0.16,0.0,j
4095.0,3761.0,2957.0,3458.0,3088.0,1507.0,2960.0,4095.0,-3.38,8.83,6.32,-1.0,0.2,0.68,0.0,j
4095.0,3871.0,2939.0,3491.0,3083.0,1517.0,2951.0,4095.0,-2.13,7.73,8.2,-2.15,-0.38,0.43,0.0,j
4095.0,3903.0,2962.0,3561.0,3071.0,1524.0,2961.0,4095.0,-2.57,6.39,10.0,-2.09,-0.3,0.27,0.0,j
4095.0,3921.0,2954.0,3568.0,3051.0,1514.0,2955.0,4095.0,-0.09,5.24,11.59,-2.39,-0.85,-0.19,0.0,j
4095.0,4026.0,2950.0,3632.0,3060.0,1520.0,2990.0,4095.0,-0.99,3.01,14.24,-1.72,-2.56,-1.09,0.0,j
4095.0,3962.0,2932.0,3598.0,3020.0,1497.0,2961.0,4095.0,4.05,2.76,14.02,-1.06,-3.01,-1.29,0.0,j
4095.0,3920.0,2944.0,3542.0,2993.0,1488.0,2969.0,4095.0,6.19,2.2,12.59,-1.04,-2.53,-1.41,0.0,j
4095.0,3914.0,2938.0,3557.0,2992.0,1424.0,2961.0,4095.0,7.03,1.73,12.88,-0.82,-1.9,-1.07,0.0,j
4095.0,3858.0,2928.0,3490.0,2955.0,1466.0,2940.0,4095.0,8.17,2.48,11.11,-0.45,-2.93,-1.97,0.0,j
4095.0,3870.0,2907.0,3461.0,2940.0,1456.0,2924.0,4095.0,9.83,3.59,8.97,-0.24,-2.49,-1.9,0.0,j
4095.0,3934.0,2915.0,3472.0,2939.0,1456.0,2913.0,4095.0,9.03,4.98,6.59,-0.01,-2.64,-2.13,0.0,j
4095.0,3919.0,2862.0,3383.0,2873.0,1429.0,2826.0,4095.0,8.39,6.72,4.62,-0.18,-2.19,-1.72,0.0,j
4095.0,3980.0,2861.0,3385.0,2885.0,1443.0,2834.0,4095.0,7.48,7.69,3.89,-0.29,-1.56,-1.5,0.0,j
4095.0,4016.0,2879.0,3369.0,2896.0,1439.0,2850.0,4095.0,6.66,8.11,3.37,-0.45,-1.02,-1.36,0.0,j
4095.0,4027.0,2879.0,3344.0,2907.0,1429.0,2846.0,4095.0,5.31,8.43,3.48,-0.43,-0.53,-1.13,0.0,j
4095.0,3986.0,2850.0,3334.0,2891.0,1446.0,2829.0,4095.0,4.3,8.98,3.58,-0.37,-0.22,-0.95,0.0,j
4095.0,3963.0,2836.0,3328.0,2885.0,1429.0,2811.0,4095.0,3.32,9.31,4.07,-0.39,0.15,-0.8,0.0,j
4095.0,3970.0,2850.0,3344.0,2899.0,1449.0,2834.0,4095.0,2.59,9.33,4.56,-0.34,-0.02,-0.84,0.0,j
4095.0,3936.0,2839.0,3337.0,2896.0,1441.0,2821.0,4095.0,1.8,8.98,4.72,-0.24,0.2,-0.59,0.0,j
4095.0,4095.0,2901.0,3433.0,3008.0,1486.0,2948.0,4095.0,-3.77,7.66,8.76,-0.04,-0.12,-0.19,0.0,j
4095.0,4095.0,2895.0,3421.0,3018.0,1487.0,2943.0,4095.0,-3.46,7.88,8.45,-0.15,-0.12,-0.18,0.0,j
4095.0,4095.0,2897.0,3430.0,3019.0,1486.0,2943.0,4095.0,-3.87,7.88,9.27,-0.21,-0.07,-0.2,0.0,j
4095.0,4095.0,2906.0,3439.0,3014.0,1472.0,2957.0,4095.0,-3.82,7.81,9.52,0.14,-0.05,-0.19,0.0,j
4095.0,4095.0,2903.0,3437.0,3014.0,1488.0,2945.0,4095.0,-3.84,7.74,8.77,0.2,0.04,-0.19,0.0,j
4095.0,4095.0,2917.0,3434.0,3021.0,1491.0,2937.0,4095.0,-3.65,7.67,7.5,-0.19,-0.2,-0.12,0.0,j
4095.0,4095.0,2908.0,3430.0,3006.0,1488.0,2928.0,4095.0,-3.28,7.05,8.82,-0.83,-0.72,-0.29,0.0,j
4095.0,4094.0,2906.0,3440.0,3001.0,1488.0,2928.0,4095.0,-1.89,6.13,9.84,-1.17,-1.69,-0.7,0.0,j
4095.0,4095.0,2890.0,3441.0,2995.0,1475.0,2929.0,4095.0,-1.35,4.91,11.74,-1.63,-2.12,-0.93,0.0,j
4095.0,4048.0,2881.0,3407.0,2967.0,1475.0,2903.0,4095.0,-0.38,3.87,13.63,-1.45,-2.17,-0.64,0.0,j
4095.0,4069.0,2896.0,3440.0,2972.0,1478.0,2918.0,4095.0,1.9,2.55,13.86,-1.36,-1.35,-0.63,0.0,j
4095.0,4064.0,2877.0,3449.0,2960.0,1472.0,2913.0,4095.0,2.47,1.01,15.47,-1.1,-0.89,-0.77,0.0,j
4095.0,4058.0,2891.0,3437.0,2958.0,1465.0,2909.0,4095.0,3.47,0.93,14.79,-0.49,-1.82,-1.41,0.0,j
4095.0,4023.0,2880.0,3429.0,2959.0,1450.0,2896.0,4095.0,4.87,1.39,13.39,0.03,-2.31,-1.67,0.0,j
4095.0,3949.0,2845.0,3367.0,2911.0,1447.0,2861.0,4095.0,6.06,2.38,11.93,-0.14,-1.66,-1.4,0.0,j
4095.0,3915.0,2834.0,3348.0,2879.0,1431.0,2838.0,4095.0,7.95,2.81,10.64,0.05,-1.73,-1.44,0.0,j
4095.0,3966.0,2854.0,3379.0,2896.0,1430.0,2857.0,4095.0,8.32,3.67,8.94,-0.1,-1.92,-1.42,0.0,j
4095.0,3929.0,2837.0,3376.0,2892.0,1443.0,2863.0,4095.0,8.44,4.62,7.61,-0.07,-1.5,-1.29,0.0,j
4095.0,4023.0,2886.0,3413.0,2914.0,1450.0,2893.0,4095.0,8.61,5.49,6.38,0.0,-1.36,-1.41,0.0,j
4095.0,4041.0,2896.0,3430.0,2929.0,1456.0,2911.0,4095.0,7.67,6.31,5.13,-0.13,-1.24,-1.36,0.0,j
4095.0,3973.0,2897.0,3411.0,2978.0,1472.0,2972.0,4095.0,-3.66,8.49,7.29,-0.24,0.02,0.07,0.0,j
4095.0,3954.0,2918.0,3422.0,2977.0,1466.0,2978.0,4095.0,-3.37,8.39,7.66,-0.54,0.19,0.3,0.0,j
4095.0,3909.0,2911.0,3459.0,2973.0,1469.0,2967.0,4095.0,-2.72,7.8,8.42,-0.86,-0.0,0.35,0.0,j
4095.0,3893.0,2912.0,3473.0,2979.0,1485.0,2981.0,4095.0,-2.47,7.25,9.13,-1.1,-0.19,-0.01,0.0,j
4095.0,3857.0,2910.0,3431.0,2963.0,1477.0,2967.0,4095.0,-2.21,6.71,10.53,-1.04,-0.34,-0.19,0.0,j
4095.0,3887.0,2899.0,3474.0,2976.0,1479.0,2960.0,4095.0,-2.1,6.25,11.62,-0.96,-0.27,-0.34,0.0,j
4095.0,3842.0,2892.0,3455.0,2957.0,1470.0,2943.0,4095.0,-2.68,5.18,12.63,-0.77,-0.49,-0.54,0.0,j
4095.0,3879.0,2907.0,3479.0,2971.0,1474.0,2949.0,4095.0,-1.15,4.66,11.87,-0.76,-1.43,-0.96,0.0,j
4095.0,3849.0,2887.0,3421.0,2954.0,1470.0,2931.0,4095.0,-1.34,3.24,12.89,-1.37,-1.14,-0.88,0.0,j
4095.0,3889.0,2901.0,3392.0,2946.0,1466.0,2945.0,4095.0,0.1,1.25,14.92,-1.94,-1.33,-0.4,0.0,j
4095.0,3861.0,2903.0,3377.0,2943.0,1457.0,2966.0,4095.0,2.37,0.53,14.83,-0.68,-1.45,-1.26,0.0,j
4095.0,3851.0,2911.0,3413.0,2944.0,1453.0,2965.0,4095.0,2.51,0.23,14.41,-0.53,-1.16,-1.18,0.0,j
4095.0,3785.0,2882.0,3377.0,2912.0,1442.0,2948.0,4095.0,4.16,0.35,13.51,-0.32,-1.43,-1.39,0.0,j
4095.0,3738.0,2878.0,3348.0,2905.0,1451.0,2930.0,4095.0,5.69,0.55,12.64,-0.55,-1.98,-1.52,0.0,j
4095.0,3664.0,2842.0,3275.0,2867.0,1429.0,2904.0,4095.0,8.86,0.92,11.09,-0.1,-1.68,-1.43,0.0,j
4095.0,3618.0,2819.0,3305.0,2836.0,1421.0,2874.0,4095.0,8.86,1.87,9.83,-0.19,-1.55,-1.13,0.0,j
4095.0,3627.0,2829.0,3327.0,2854.0,1426.0,2890.0,4095.0,9.44,3.02,7.91,-0.08,-1.73,-1.4,0.0,j
4095.0,3610.0,2815.0,3313.0,2843.0,1424.0,2886.0,4095.0,9.51,3.83,6.59,-0.26,-1.39,-1.26,0.0,j
4095.0,3728.0,2889.0,3410.0,2905.0,1437.0,2949.0,4095.0,9.26,4.33,5.71,-0.27,-1.31,-1.1,0.0,j
4095.0,3700.0,2866.0,3377.0,2877.0,1439.0,2946.0,4095.0,8.91,5.35,4.75,-0.28,-1.26,-1.09,0.0,j
4095.0,4033.0,2917.0,3461.0,2992.0,1484.0,2990.0,4095.0,-2.47,7.48,10.42,-0.5,0.07,-0.14,0.0,j
4095.0,4054.0,2926.0,3485.0,2991.0,1456.0,2994.0,4095.0,-2.38,7.27,10.56,-0.33,0.14,-0.17,0.0,j
4095.0,3991.0,2901.0,3458.0,2973.0,1472.0,2975.0,4095.0,-2.7,6.98,10.19,-0.44,-0.14,-0.23,0.0,j
4095.0,3934.0,2885.0,3440.0,2957.0,1467.0,2954.0,4095.0,-1.91,6.56,10.76,-0.82,-0.12,-0.12,0.0,j
4095.0,3933.0,2879.0,3398.0,2937.0,1462.0,2947.0,4095.0,-2.54,5.92,11.56,-0.79,-0.02,-0.23,0.0,j
4095.0,3946.0,2891.0,3429.0,2946.0,1453.0,2957.0,4095.0,-2.52,5.4,12.06,-0.63,-0.14,-0.25,0.0,j
4095.0,3917.0,2885.0,3428.0,2939.0,1437.0,2950.0,4095.0,-1.47,4.77,12.41,-0.73,-0.21,-0.2,0.0,j
4095.0,3926.0,2878.0,3439.0,2944.0,1458.0,2960.0,4095.0,-1.71,4.07,12.9,-0.75,-0.18,-0.7,0.0,j
4095.0,3888.0,2873.0,3419.0,2929.0,1454.0,2949.0,4095.0,-3.21,3.63,12.66,-0.83,-0.1,-0.52,0.0,j
4095.0,3860.0,2864.0,3407.0,2915.0,1449.0,2938.0,4095.0,-2.35,2.23,14.04,-0.83,-0.37,-0.38,0.0,j
4095.0,3886.0,2878.0,3423.0,2932.0,1456.0,2950.0,4095.0,-1.18,1.35,14.57,-0.82,-1.18,-0.75,0.0,j
4095.0,3884.0,2883.0,3408.0,2928.0,1453.0,2954.0,4095.0,-0.19,0.87,14.49,-0.29,-0.73,-0.89,0.0,j
4095.0,3857.0,2885.0,3411.0,2944.0,1412.0,2961.0,4095.0,1.15,0.12,14.43,-0.5,-1.95,-1.35,0.0,j
4095.0,3845.0,2880.0,3397.0,2927.0,1449.0,2959.0,4095.0,2.32,0.53,14.82,-0.19,-2.62,-1.6,0.0,j
4095.0,3794.0,2869.0,3306.0,2912.0,1446.0,2941.0,4095.0,4.59,0.95,13.62,0.23,-2.32,-1.45,0.0,j
4095.0,3773.0,2862.0,3347.0,2897.0,1431.0,2915.0,4095.0,6.34,2.21,11.89,0.36,-2.55,-1.93,0.0,j
4095.0,3770.0,2863.0,3361.0,2889.0,1440.0,2915.0,4095.0,7.19,3.16,10.5,0.21,-2.42,-1.61,0.0,j
4095.0,3702.0,2822.0,3330.0,2864.0,1433.0,2896.0,4095.0,7.85,4.27,8.76,-0.18,-1.92,-1.24,0.0,j
4095.0,3696.0,2826.0,3333.0,2864.0,1431.0,2903.0,4095.0,8.71,4.87,7.46,-0.12,-2.31,-1.43,0.0,j
4095.0,3781.0,2875.0,3397.0,2909.0,1453.0,2943.0,4095.0,9.08,5.93,6.06,-0.34,-1.9,-1.37,0.0,j
4095.0,3842.0,2896.0,3478.0,2977.0,1468.0,2995.0,4095.0,-3.15,8.03,8.52,-0.16,-0.06,0.04,0.0,j
4095.0,3824.0,2887.0,3472.0,2969.0,1469.0,2992.0,4095.0,-3.11,7.61,8.28,-0.54,-0.22,0.05,0.0,j
4095.0,3737.0,2835.0,3410.0,2927.0,1431.0,2952.0,4095.0,-2.36,7.21,9.0,-1.01,-0.67,0.07,0.0,j
4095.0,3810.0,2874.0,3462.0,2951.0,1465.0,2979.0,4095.0,-2.3,5.93,11.31,-1.55,-0.63,-0.15,0.0,j
4095.0,3827.0,2887.0,3476.0,2960.0,1457.0,2979.0,4095.0,-1.59,5.3,12.48,-1.71,0.11,0.26,0.0,j
4095.0,3824.0,2866.0,3471.0,2957.0,1471.0,2980.0,4095.0,0.03,4.38,12.62,-1.24,-0.1,-0.33,0.0,j
4095.0,3834.0,2878.0,3487.0,2960.0,1467.0,2983.0,4095.0,-0.2,2.34,13.83,-1.3,-1.14,-0.9,0.0,j
4095.0,3851.0,2875.0,3467.0,2956.0,1468.0,2975.0,4095.0,0.27,0.34,16.12,-1.28,-1.09,-1.13,0.0,j
4095.0,3852.0,2865.0,3473.0,2965.0,1470.0,2980.0,4095.0,2.69,0.59,15.22,-0.74,-2.1,-1.64,0.0,j
4095.0,3821.0,2853.0,3440.0,2935.0,1456.0,2947.0,4095.0,3.03,1.88,12.97,0.36,-3.23,-1.7,0.0,j
4095.0,3838.0,2872.0,3440.0,2960.0,1466.0,2960.0,4095.0,3.83,1.47,11.57,0.38,-2.84,-1.71,0.0,j
4095.0,3785.0,2829.0,3351.0,2892.0,1442.0,2904.0,4095.0,7.9,2.57,10.82,-0.65,-1.43,-1.14,0.0,j
4095.0,3836.0,2864.0,3393.0,2915.0,1457.0,2927.0,4095.0,8.94,3.62,9.44,-0.92,-1.49,-1.09,0.0,j
4095.0,3891.0,2894.0,3474.0,2959.0,1470.0,2960.0,4095.0,7.2,4.39,7.38,-0.63,-1.97,-0.84,0.0,j
4095.0,4010.0,2946.0,3531.0,2995.0,1489.0,3029.0,4095.0,9.33,2.49,7.65,-0.37,-0.51,-0.4,0.0,j
4095.0,3984.0,2943.0,3500.0,2992.0,1473.0,3027.0,4095.0,9.57,5.0,5.27,-0.1,-0.47,-0.48,0.0,j
4095.0,3985.0,2952.0,3521.0,3007.0,1488.0,3047.0,4095.0,8.71,3.14,6.13,-0.05,-0.5,-0.87,0.0,j
4095.0,3978.0,2945.0,3485.0,3001.0,1457.0,3037.0,4095.0,8.71,6.37,3.5,0.18,-0.68,-0.8,0.0,j
4095.0,3967.0,2942.0,3493.0,3009.0,1485.0,3044.0,4095.0,8.49,4.95,4.32,-0.03,-0.28,-0.87,0.0,j
4095.0,3967.0,2934.0,3458.0,2992.0,1479.0,3045.0,4095.0,9.14,6.65,2.94,0.01,-0.8,-0.86,0.0,j
4095.0,4095.0,2946.0,3427.0,3056.0,1503.0,3118.0,4095.0,-3.08,8.79,7.46,-0.01,-0.01,-0.11,0.0,j
4095.0,4095.0,2939.0,3373.0,3021.0,1504.0,3051.0,4095.0,-3.68,8.22,7.9,-1.37,0.07,0.53,0.0,j
4095.0,4095.0,2958.0,3408.0,3023.0,1498.0,3031.0,4095.0,-1.97,7.93,8.83,-1.52,0.02,0.78,0.0,j
4095.0,4095.0,2942.0,3404.0,3006.0,1499.0,3037.0,4095.0,-1.36,6.31,11.06,-1.73,-0.16,0.29,0.0,j
4095.0,4095.0,2949.0,3355.0,3003.0,1495.0,3040.0,4095.0,-0.96,5.16,12.36,-1.3,-0.05,-0.11,0.0,j
4095.0,4095.0,2959.0,3375.0,2988.0,1481.0,3014.0,4095.0,-1.48,3.42,12.58,-1.47,0.16,-0.49,0.0,j
4095.0,4095.0,2951.0,3312.0,2989.0,1483.0,3008.0,4095.0,-1.33,2.29,13.51,-1.37,-0.82,-1.6,0.0,j
4095.0,4095.0,2951.0,3315.0,3024.0,1493.0,3029.0,4095.0,0.45,0.66,14.47,-1.71,-2.66,-2.36,0.0,j
4095.0,4095.0,2954.0,3347.0,3040.0,1493.0,3056.0,4095.0,3.41,-0.49,14.24,-1.02,-2.84,-2.76,0.0,j
4095.0,4095.0,2959.0,3367.0,3056.0,1503.0,3066.0,4095.0,6.56,0.1,12.54,-0.78,-2.58,-2.36,0.0,j
4095.0,4095.0,2949.0,3373.0,3055.0,1506.0,3057.0,4095.0,7.95,0.69,10.94,-0.78,-1.93,-1.92,0.0,j
4095.0,4095.0,2958.0,3386.0,3056.0,1503.0,3056.0,4095.0,8.73,1.54,9.72,-0.52,-2.03,-1.74,0.0,j
4095.0,4095.0,2939.0,3367.0,3033.0,1497.0,3021.0,4095.0,9.6,2.98,7.55,-0.2,-1.72,-1.59,0.0,j
4095.0,4095.0,2960.0,3338.0,3024.0,1489.0,2992.0,4095.0,9.61,3.8,6.35,-0.2,-1.06,-1.12,0.0,j
4095.0,4095.0,2943.0,3318.0,3005.0,1488.0,2958.0,4094.0,9.09,4.75,5.58,-0.5,-1.39,-1.28,0.0,j
4095.0,4095.0,2951.0,3311.0,2966.0,1479.0,2935.0,4095.0,8.54,5.52,4.74,-0.26,-0.95,-1.0,0.0,j
4095.0,4095.0,2954.0,3297.0,2979.0,1467.0,2946.0,4095.0,8.32,5.98,4.26,-0.14,-0.55,-0.81,0.0,j
4095.0,4095.0,2944.0,3282.0,2967.0,1471.0,2935.0,4095.0,7.81,6.73,3.84,-0.08,-0.44,-0.91,0.0,j
4095.0,4095.0,2949.0,3261.0,2961.0,1471.0,2914.0,4095.0,6.88,7.23,3.45,-0.02,-0.46,-1.01,0.0,j
4095.0,4095.0,2944.0,3243.0,2928.0,1458.0,2904.0,4095.0,6.16,7.83,3.31,0.26,-0.42,-1.23,0.0,j
4095.0,4095.0,2966.0,3457.0,2961.0,1470.0,2891.0,4095.0,-3.06,9.4,4.1,-0.41,-0.07,-0.13,0.0,j
4095.0,4095.0,2953.0,3472.0,2947.0,1456.0,2864.0,4095.0,-3.05,8.64,5.35,-1.1,0.13,-0.06,0.0,j
4095.0,4095.0,2955.0,3549.0,2955.0,1472.0,2850.0,4095.0,-3.05,8.15,6.61,-1.05,-0.01,-0.21,0.0,j
4095.0,4095.0,2949.0,3532.0,2948.0,1472.0,2862.0,4095.0,-3.53,7.91,7.7,-1.29,0.03,-0.15,0.0,j
4095.0,4095.0,2957.0,3537.0,2959.0,1417.0,2874.0,4095.0,-3.16,6.98,9.07,-1.35,-0.19,-0.27,0.0,j
4095.0,4095.0,2963.0,3546.0,2960.0,1461.0,2861.0,4095.0,-2.28,5.88,10.57,-1.65,-1.26,-0.79,0.0,j
4095.0,4095.0,2948.0,3537.0,2956.0,1465.0,2864.0,4095.0,-1.64,4.4,11.66,-1.61,-1.76,-1.26,0.0,j
4095.0,4095.0,2960.0,3502.0,2956.0,1467.0,2873.0,4095.0,-1.13,2.35,15.5,-1.74,-2.58,-1.58,0.0,j
4095.0,4095.0,2946.0,3468.0,2935.0,1459.0,2862.0,4095.0,1.55,1.69,14.4,-1.11,-2.36,-0.97,0.0,j
4095.0,4095.0,2960.0,3455.0,2933.0,1456.0,2850.0,4095.0,3.59,0.91,14.22,-0.69,-2.32,-1.01,0.0,j
4095.0,4095.0,2951.0,3421.0,2908.0,1447.0,2809.0,4058.0,7.95,1.46,11.81,-0.78,-3.05,-2.17,0.0,j
4095.0,4095.0,2961.0,3365.0,2901.0,1442.0,2774.0,4067.0,8.45,2.19,11.51,-0.66,-3.52,-3.0,0.0,j
4095.0,4095.0,2925.0,3389.0,2868.0,1431.0,2781.0,4095.0,10.68,3.73,8.96,-0.51,-2.15,-2.08,0.0,j
4095.0,4095.0,2929.0,3413.0,2865.0,1415.0,2768.0,4095.0,9.28,4.44,7.91,-0.53,-1.59,-1.71,0.0,j
4095.0,4095.0,2928.0,3438.0,2878.0,1443.0,2805.0,4095.0,8.86,5.74,6.27,-0.32,-1.13,-1.52,0.0,j
4095.0,4095.0,2954.0,3472.0,2893.0,1446.0,2815.0,4069.0,8.17,6.57,5.65,-0.25,-0.33,-1.31,0.0,j
4095.0,4095.0,2933.0,3418.0,2896.0,1451.0,2831.0,4095.0,6.34,7.3,5.47,-0.1,0.11,-1.07,0.0,j
4095.0,4095.0,2951.0,3430.0,2906.0,1452.0,2832.0,4057.0,6.09,7.59,5.86,-0.23,0.21,-0.79,0.0,j
4095.0,4095.0,2943.0,3472.0,2917.0,1450.0,2850.0,4064.0,5.78,7.76,6.12,0.05,0.43,-0.71,0.0,j
4095.0,4095.0,2946.0,3473.0,2912.0,1442.0,2847.0,3999.0,4.96,8.28,5.72,0.28,0.26,-0.82,0.0,j
4095.0,4095.0,2947.0,3643.0,2969.0,1450.0,2927.0,4095.0,-3.59,8.96,6.26,-0.25,-0.09,-0.08,0.0,j
4095.0,4095.0,2959.0,3599.0,2962.0,1470.0,2928.0,4095.0,-3.34,8.69,6.7,-0.33,-0.06,0.19,0.0,j
4095.0,4095.0,2960.0,3613.0,2976.0,1457.0,2943.0,4095.0,-2.83,8.52,6.65,-0.43,0.0,-0.18,0.0,j
4095.0,4095.0,2971.0,3615.0,2973.0,1471.0,2945.0,4095.0,-3.18,7.83,7.26,-0.97,-0.22,-0.17,0.0,j
4095.0,4095.0,2956.0,3619.0,2960.0,1463.0,2945.0,4095.0,-3.52,6.45,8.08,-1.24,-0.0,-0.09,0.0,j
4095.0,4095.0,2957.0,3630.0,2965.0,1475.0,2955.0,4092.0,-3.34,6.78,10.15,-1.76,-1.18,0.08,0.0,j
4095.0,4095.0,2955.0,3631.0,2951.0,1474.0,2947.0,3965.0,-0.97,5.99,12.12,-1.78,-0.39,0.01,0.0,j
4095.0,4095.0,2955.0,3654.0,2958.0,1475.0,2960.0,3952.0,-1.13,4.69,13.9,-1.38,-0.28,-0.29,0.0,j
4095.0,4095.0,2953.0,3661.0,2950.0,1467.0,2950.0,4030.0,-0.71,3.98,13.06,-0.87,-0.68,-0.59,0.0,j
4095.0,4095.0,2949.0,3683.0,2954.0,1474.0,2948.0,4095.0,-0.4,3.32,13.9,-0.84,-1.77,-1.1,0.0,j
4095.0,4095.0,2954.0,3677.0,2935.0,1469.0,2941.0,4095.0,1.04,2.16,14.81,-0.61,-1.13,-0.84,0.0,j
4095.0,4095.0,2957.0,3728.0,2948.0,1470.0,2949.0,4095.0,0.52,2.03,14.16,-0.43,0.08,-0.56,0.0,j
4095.0,4095.0,2950.0,3717.0,2943.0,1463.0,2944.0,4095.0,1.78,1.63,14.36,-0.19,-1.5,-1.1,0.0,j
4095.0,4095.0,2960.0,3729.0,2949.0,1471.0,2959.0,4095.0,3.2,1.86,14.39,0.03,-1.81,-1.31,0.0,j
4095.0,4095.0,2948.0,3700.0,2943.0,1469.0,2942.0,4095.0,5.27,2.32,13.21,0.48,-1.66,-1.36,0.0,j
4095.0,4095.0,2949.0,3694.0,2939.0,1465.0,2942.0,4095.0,5.97,3.44,12.07,0.42,-1.78,-1.39,0.0,j
4095.0,4095.0,2955.0,3696.0,2955.0,1472.0,2949.0,4095.0,6.97,4.56,11.03,0.41,-2.01,-1.4,0.0,j
4095.0,4095.0,2950.0,3684.0,2940.0,1467.0,2943.0,4011.0,6.79,5.76,9.23,0.13,-1.99,-1.26,0.0,j
4095.0,4095.0,2957.0,3706.0,2944.0,1469.0,2949.0,4053.0,6.38,6.35,8.41,0.09,-1.52,-1.21,0.0,j
4095.0,4095.0,2949.0,3678.0,2929.0,1458.0,2932.0,4014.0,7.32,7.16,7.21,0.0,-1.22,-1.1,0.0,j
4095.0,4095.0,2959.0,3783.0,2983.0,1477.0,2961.0,4095.0,-3.15,8.46,6.85,-0.52,-0.16,-0.12,0.0,j
4095.0,4095.0,2960.0,3814.0,2992.0,1488.0,2960.0,4095.0,-3.53,8.15,7.51,-1.6,-0.02,0.36,0.0,j
4095.0,4095.0,2946.0,3807.0,2970.0,1437.0,2959.0,4095.0,-2.25,6.75,9.54,-2.52,0.3,0.96,0.0,j
4095.0,4095.0,2960.0,3807.0,2960.0,1481.0,2983.0,4095.0,-1.01,4.68,12.5,-2.25,-0.23,-0.12,0.0,j
4095.0,4095.0,2951.0,3771.0,2950.0,1462.0,2994.0,4095.0,-0.81,3.27,14.82,-1.2,-1.87,-1.51,0.0,j
4095.0,4095.0,2953.0,3794.0,2954.0,1445.0,3014.0,4095.0,0.32,3.56,14.34,-1.09,-3.25,-1.95,0.0,j
4095.0,4095.0,2950.0,3715.0,2944.0,1456.0,3034.0,4095.0,2.43,2.41,14.05,-0.69,-3.05,-2.17,0.0,j
4095.0,4095.0,2954.0,3747.0,2933.0,1457.0,3037.0,4095.0,5.57,2.62,12.31,-0.49,-2.11,-1.39,0.0,j
4095.0,4095.0,2945.0,3728.0,2913.0,1460.0,3038.0,4095.0,7.54,2.77,11.58,-0.77,-2.05,-1.35,0.0,j
4095.0,4095.0,2962.0,3759.0,2923.0,1459.0,3057.0,4095.0,8.57,3.59,10.55,-0.15,-2.02,-1.9,0.0,j
4095.0,4095.0,2954.0,3729.0,2919.0,1452.0,3053.0,4095.0,7.93,5.22,8.48,0.1,-2.11,-2.16,0.0,j
4095.0,4095.0,2955.0,3730.0,2923.0,1449.0,3057.0,4095.0,7.44,5.94,7.47,-0.2,-1.41,-1.64,0.0,j
4095.0,4095.0,2965.0,3761.0,2923.0,1456.0,3061.0,4095.0,6.88,6.99,5.75,-0.13,-1.24,-1.44,0.0,j
4095.0,4095.0,2945.0,3778.0,2918.0,1456.0,3056.0,4095.0,6.16,7.71,5.16,-0.03,-1.21,-1.37,0.0,j
4095.0,4095.0,2955.0,3789.0,2928.0,1457.0,3056.0,4095.0,5.27,8.48,4.19,-0.01,-0.79,-1.08,0.0,j
4095.0,4095.0,2951.0,3745.0,2931.0,1459.0,3054.0,4095.0,4.99,9.05,4.38,-0.11,-0.28,-0.84,0.0,j
4095.0,4095.0,2960.0,3755.0,2934.0,1463.0,3047.0,4095.0,3.98,9.14,4.51,-0.12,-0.26,-0.82,0.0,j
4095.0,4095.0,2959.0,3742.0,2930.0,1458.0,3039.0,4095.0,3.26,9.45,4.39,-0.13,-0.13,-0.78,0.0,j
4095.0,4095.0,2950.0,3722.0,2951.0,1471.0,3046.0,4095.0,2.94,9.35,4.49,-0.27,0.08,-0.55,0.0,j
4095.0,4095.0,2944.0,3727.0,2953.0,1449.0,3048.0,4095.0,2.33,9.3,4.49,-0.31,0.72,-0.25,0.0,j
4095.0,4095.0,2962.0,3769.0,2999.0,1481.0,3050.0,4095.0,-2.63,7.85,8.92,-0.61,0.27,0.03,0.0,j
4095.0,4095.0,2943.0,3759.0,3002.0,1485.0,3051.0,4095.0,-2.91,7.75,8.98,-0.64,0.5,0.22,0.0,j
4095.0,4095.0,2966.0,3765.0,3007.0,1451.0,3063.0,4095.0,-2.17,7.24,9.0,-0.79,0.07,0.07,0.0,j
4095.0,4095.0,2947.0,3763.0,3005.0,1478.0,3050.0,4095.0,-1.56,6.62,10.81,-1.03,-0.99,-0.32,0.0,j
4095.0,4095.0,2965.0,3787.0,3001.0,1487.0,3042.0,4095.0,-2.32,6.29,11.57,-1.26,-0.88,0.1,0.0,j
4095.0,4095.0,2939.0,3737.0,2977.0,1470.0,3033.0,4095.0,-0.12,5.08,12.4,-1.49,-1.51,0.05,0.0,j
4095.0,4095.0,2955.0,3728.0,2978.0,1473.0,3041.0,4095.0,0.39,3.96,13.81,-1.17,-1.08,-0.16,0.0,j
4095.0,4095.0,2957.0,3683.0,2967.0,1471.0,3043.0,4095.0,1.53,3.4,13.69,-0.67,-0.62,0.05,0.0,j
4095.0,4095.0,2960.0,3763.0,2960.0,1471.0,3055.0,4095.0,2.97,2.68,13.64,-0.74,-0.89,-0.51,0.0,j
4095.0,4095.0,2955.0,3728.0,2935.0,1459.0,3035.0,4095.0,3.6,1.87,13.97,-0.29,-0.62,-0.39,0.0,j
4095.0,4095.0,2955.0,3759.0,2944.0,1461.0,3035.0,4095.0,3.2,1.84,13.52,-0.56,-0.47,-0.21,0.0,j
4095.0,4095.0,2956.0,3756.0,2931.0,1456.0,3034.0,4095.0,4.14,1.34,13.61,-0.48,-1.23,-0.72,0.0,j
4095.0,4095.0,2949.0,3744.0,2928.0,1456.0,3022.0,4095.0,5.13,1.2,13.18,-0.42,-0.86,-0.66,0.0,j
4095.0,4095.0,2951.0,3734.0,2917.0,1454.0,3023.0,4095.0,5.94,0.7,12.62,-0.38,-0.84,-0.59,0.0,j
4095.0,4095.0,2953.0,3711.0,2905.0,1456.0,3024.0,4095.0,6.4,1.03,12.21,-0.49,-1.44,-1.04,0.0,j
4095.0,4095.0,2948.0,3665.0,2907.0,1441.0,3022.0,4095.0,7.57,1.75,10.89,-0.1,-2.14,-1.6,0.0,j
4095.0,4095.0,2950.0,3635.0,2884.0,1442.0,3011.0,4095.0,9.94,3.04,8.5,-0.15,-2.72,-1.74,0.0,j
4095.0,4095.0,2945.0,3664.0,2880.0,1442.0,3031.0,4095.0,9.08,4.02,7.38,-0.31,-1.87,-1.45,0.0,j
4095.0,4071.0,2951.0,3654.0,2880.0,1439.0,3041.0,4095.0,8.94,4.81,5.96,-0.28,-1.8,-1.42,0.0,j
4095.0,4057.0,2947.0,3632.0,2870.0,1441.0,3042.0,4095.0,8.25,5.71,4.82,-0.09,-1.21,-1.17,0.0,j
4095.0,4095.0,2951.0,3422.0,2935.0,1458.0,2979.0,4095.0,-3.54,9.0,6.1,0.0,0.01,-0.1,0.0,j
4095.0,4095.0,2965.0,3440.0,2946.0,1466.0,2986.0,4095.0,-3.35,9.11,5.66,-0.19,-0.01,0.1,0.0,j
4095.0,4095.0,2959.0,3435.0,2928.0,1454.0,2983.0,4095.0,-2.82,9.19,6.12,-0.72,0.09,0.37,0.0,j
4095.0,4095.0,2960.0,3495.0,2922.0,1458.0,2991.0,4095.0,-2.35,8.49,7.75,-0.66,-0.34,-0.04,0.0,j
4095.0,4095.0,2960.0,3491.0,2928.0,1444.0,2992.0,4095.0,-2.73,8.37,6.89,-1.12,0.15,0.24,0.0,j
4095.0,4095.0,2954.0,3517.0,2903.0,1447.0,2960.0,4095.0,-1.76,7.49,8.89,-1.86,-0.01,0.44,0.0,j
4095.0,4095.0,2960.0,3531.0,2907.0,1449.0,2980.0,4095.0,-1.62,6.22,10.93,-2.12,0.05,0.25,0.0,j
4095.0,4095.0,2966.0,3472.0,2895.0,1455.0,2983.0,4095.0,-0.09,4.67,12.73,-1.56,-0.26,-0.21,0.0,j
4095.0,4095.0,2961.0,3519.0,2911.0,1455.0,2994.0,4095.0,-0.81,3.68,13.75,-1.37,-1.72,-1.23,0.0,j
4095.0,4095.0,2960.0,3518.0,2900.0,1454.0,2992.0,4095.0,0.78,2.99,14.04,-1.16,-1.37,-0.88,0.0,j
4095.0,4095.0,2969.0,3487.0,2909.0,1454.0,2996.0,4095.0,2.42,1.14,14.84,-1.03,-1.23,-1.12,0.0,j
4095.0,4095.0,2959.0,3446.0,2905.0,1447.0,2993.0,4095.0,3.41,1.0,14.2,-0.75,-1.62,-1.54,0.0,j
4095.0,4095.0,2973.0,3531.0,2891.0,1444.0,2969.0,4003.0,4.8,0.87,13.64,-0.46,-1.68,-1.74,0.0,j
4095.0,4095.0,2963.0,3571.0,2875.0,1440.0,2961.0,3945.0,5.73,1.45,13.21,-0.26,-1.94,-1.67,0.0,j
4095.0,4095.0,2960.0,3569.0,2859.0,1439.0,2961.0,3856.0,6.78,2.37,11.98,-0.08,-2.38,-1.64,0.0,j
4095.0,4095.0,2962.0,3581.0,2870.0,1431.0,2961.0,3858.0,7.92,3.6,10.03,-0.01,-2.21,-1.57,0.0,j
4095.0,4095.0,2958.0,3559.0,2850.0,1405.0,2957.0,3867.0,8.65,4.51,8.34,-0.07,-1.96,-1.5,0.0,j
4095.0,4095.0,2960.0,3557.0,2850.0,1421.0,2971.0,3951.0,9.1,5.4,7.09,-0.04,-1.4,-1.31,0.0,j
4095.0,4095.0,2959.0,3564.0,2842.0,1427.0,2967.0,3938.0,8.15,6.34,5.62,-0.13,-1.36,-1.37,0.0,j
4095.0,4095.0,2973.0,3558.0,2843.0,1397.0,2977.0,3938.0,7.48,6.99,4.85,-0.07,-0.81,-1.35,0.0,j
4095.0,4095.0,2959.0,3642.0,2955.0,1470.0,3092.0,4095.0,-3.24,8.17,7.67,-0.2,-0.25,-0.13,0.0,j
4095.0,4095.0,2960.0,3655.0,2960.0,1472.0,3088.0,4095.0,-2.38,8.62,9.37,-0.33,-0.46,-0.03,0.0,j
4095.0,4095.0,2960.0,3636.0,2951.0,1466.0,3083.0,4095.0,-2.93,8.59,8.08,-0.03,-0.02,-0.14,0.0,j
4095.0,4095.0,2955.0,3651.0,2957.0,1469.0,3071.0,4095.0,-2.43,8.77,8.45,-0.62,-0.6,0.29,0.0,j
4095.0,4095.0,2960.0,3655.0,2941.0,1477.0,3055.0,4095.0,-1.14,7.18,10.1,-1.13,-1.64,-0.28,0.0,j
4095.0,4095.0,2945.0,3639.0,2933.0,1467.0,3047.0,4095.0,-1.64,7.87,9.95,-0.96,0.13,0.4,0.0,j
4095.0,4095.0,2969.0,3647.0,2941.0,1456.0,3045.0,4095.0,-0.53,6.42,11.11,-1.15,-0.04,0.24,0.0,j
4095.0,4095.0,2955.0,3666.0,2945.0,1456.0,3056.0,4095.0,-0.55,5.53,12.26,-0.98,0.14,0.22,0.0,j
4095.0,4095.0,2962.0,3583.0,2931.0,1465.0,3062.0,4095.0,0.55,4.2,13.16,-1.15,-0.01,0.05,0.0,j
4095.0,4095.0,2951.0,3646.0,2940.0,1459.0,3065.0,4095.0,0.49,3.73,13.0,-1.03,-1.55,-1.05,0.0,j
4095.0,4095.0,2974.0,3671.0,2943.0,1456.0,3066.0,4095.0,1.69,2.77,13.85,-0.8,-1.69,-0.98,0.0,j
4095.0,4095.0,2962.0,3691.0,2937.0,1456.0,3045.0,4095.0,2.9,2.76,12.61,-0.61,-1.72,-0.74,0.0,j
4095.0,4095.0,2963.0,3698.0,2939.0,1461.0,3037.0,4095.0,4.7,1.48,13.57,-1.0,-0.99,-0.68,0.0,j
4095.0,4095.0,2952.0,3657.0,2927.0,1456.0,3024.0,4095.0,5.34,1.19,13.85,-0.72,-1.06,-0.61,0.0,j
4095.0,4095.0,2970.0,3726.0,2925.0,1450.0,3041.0,4095.0,5.42,1.23,13.3,-0.43,-1.43,-1.01,0.0,j
4095.0,4095.0,2958.0,3722.0,2912.0,1452.0,3045.0,4095.0,7.4,1.46,12.26,-0.35,-2.17,-1.73,0.0,j
4095.0,4095.0,2960.0,3695.0,2879.0,1435.0,3027.0,4095.0,8.61,3.01,9.45,0.1,-3.1,-2.26,0.0,j
4095.0,4095.0,2947.0,3703.0,2875.0,1439.0,3051.0,4095.0,8.95,4.59,6.68,-0.21,-2.37,-2.01,0.0,j
4095.0,4095.0,2947.0,3667.0,2864.0,1407.0,3053.0,4095.0,8.68,5.67,5.72,-0.16,-1.85,-1.7,0.0,j
4095.0,4095.0,2953.0,3652.0,2876.0,1430.0,3055.0,4095.0,7.76,6.64,4.12,-0.2,-1.09,-1.27,0.0,j
4095.0,4095.0,2961.0,3287.0,2823.0,1422.0,3110.0,4095.0,-1.41,9.88,5.37,0.14,0.09,-0.3,0.0,j
4095.0,4095.0,2943.0,3267.0,2804.0,1421.0,3111.0,4095.0,-0.81,9.57,3.79,-0.68,-0.18,-0.11,0.0,j
4095.0,4095.0,2947.0,3315.0,2826.0,1424.0,3123.0,4095.0,-0.86,8.8,5.76,-1.94,0.34,0.55,0.0,j
4095.0,4095.0,2949.0,3331.0,2841.0,1431.0,3174.0,4095.0,-0.11,7.07,11.04,-2.46,-0.14,0.2,0.0,j
4095.0,4095.0,2954.0,3481.0,2863.0,1439.0,3195.0,4095.0,0.17,6.01,11.65,-1.69,-0.11,-0.43,0.0,j
4095.0,4095.0,2945.0,3500.0,2866.0,1446.0,3189.0,4095.0,0.92,4.88,12.63,-2.54,-1.68,-0.67,0.0,j
4095.0,4095.0,2953.0,3405.0,2880.0,1448.0,3222.0,4095.0,2.1,1.99,14.62,-2.05,-0.03,-0.25,0.0,j
4095.0,4095.0,2965.0,3398.0,2880.0,1439.0,3221.0,4095.0,2.55,0.12,14.77,-1.61,-1.24,-1.13,0.0,j
4095.0,4095.0,2950.0,3410.0,2894.0,1443.0,3232.0,4095.0,3.49,0.35,14.34,-1.32,-2.53,-2.07,0.0,j
4095.0,4095.0,2960.0,3440.0,2901.0,1445.0,3270.0,4095.0,6.19,0.12,12.87,-1.26,-2.68,-2.0,0.0,j
4095.0,4095.0,2953.0,3444.0,2902.0,1424.0,3283.0,4095.0,7.81,0.33,10.74,-1.17,-2.58,-2.27,0.0,j
4095.0,4095.0,2961.0,3447.0,2903.0,1446.0,3312.0,4095.0,9.7,1.56,8.61,-1.12,-3.01,-2.76,0.0,j
4095.0,4083.0,2944.0,3443.0,2896.0,1447.0,3309.0,4095.0,10.08,3.62,5.26,-0.81,-2.53,-2.01,0.0,j
4095.0,4095.0,2943.0,3431.0,2896.0,1415.0,3304.0,4095.0,9.53,4.85,4.14,-0.85,-1.59,-1.25,0.0,j
4095.0,4079.0,2942.0,3442.0,2880.0,1438.0,3270.0,4095.0,8.6,5.39,3.89,-0.56,-1.4,-1.42,0.0,j
4095.0,4073.0,2960.0,3419.0,2875.0,1437.0,3248.0,4095.0,8.27,6.53,2.77,-0.66,-1.4,-1.43,0.0,j
4095.0,4075.0,2941.0,3334.0,2864.0,1436.0,3219.0,4095.0,6.87,7.44,2.59,-0.51,-0.49,-1.27,0.0,j
4095.0,4031.0,2959.0,3385.0,2866.0,1439.0,3216.0,4095.0,5.76,8.33,2.76,-0.54,-0.05,-1.09,0.0,j
4095.0,3979.0,2943.0,3375.0,2864.0,1429.0,3207.0,4095.0,4.39,8.62,2.99,-0.71,-0.02,-1.05,0.0,j
4095.0,3965.0,2943.0,3413.0,2865.0,1437.0,3184.0,4095.0,4.05,8.55,4.26,-0.51,0.08,-0.99,0.0,j
4095.0,4095.0,2946.0,3533.0,2923.0,1463.0,3228.0,4095.0,-2.77,7.75,7.32,-0.89,0.13,0.53,0.0,j
4095.0,4095.0,2960.0,3583.0,2928.0,1475.0,3216.0,4095.0,-2.2,7.7,7.15,-1.77,-0.23,0.65,0.0,j
4095.0,4095.0,2965.0,3637.0,2926.0,1474.0,3229.0,4095.0,-0.66,5.4,8.72,-2.75,-0.13,0.32,0.0,j
4095.0,4095.0,2961.0,3595.0,2939.0,1471.0,3250.0,4095.0,-1.19,2.98,14.24,-1.92,-0.8,-1.18,0.0,j
4095.0,4095.0,2963.0,3610.0,2943.0,1472.0,3265.0,4095.0,0.95,2.56,15.69,-1.35,-2.29,-1.6,0.0,j
4095.0,4095.0,2963.0,3634.0,2943.0,1463.0,3274.0,4095.0,2.23,2.32,15.04,-0.93,-3.43,-2.5,0.0,j
4095.0,4095.0,2960.0,3568.0,2933.0,1459.0,3281.0,4095.0,4.3,2.75,14.4,-0.43,-3.57,-2.66,0.0,j
4095.0,4095.0,2951.0,3598.0,2928.0,1464.0,3267.0,4095.0,6.69,3.12,12.61,-0.28,-3.41,-2.4,0.0,j
4095.0,4095.0,2960.0,3626.0,2926.0,1459.0,3257.0,4095.0,8.68,4.73,9.76,-0.02,-3.19,-2.15,0.0,j
4095.0,4095.0,2939.0,3632.0,2917.0,1421.0,3260.0,4095.0,8.63,6.0,7.83,-0.27,-2.74,-2.05,0.0,j
4095.0,4095.0,2942.0,3571.0,2925.0,1455.0,3265.0,4095.0,7.58,7.04,5.92,0.06,-2.6,-1.91,0.0,j
4095.0,4095.0,2944.0,3489.0,2918.0,1455.0,3249.0,4095.0,6.4,7.75,4.12,0.03,-1.2,-1.37,0.0,j
4095.0,4095.0,2960.0,3528.0,2934.0,1463.0,3262.0,4095.0,4.88,8.25,3.72,-0.21,-0.55,-0.91,0.0,j
4095.0,4095.0,2955.0,3509.0,2928.0,1465.0,3233.0,4095.0,3.99,8.6,4.05,-0.23,-0.03,-0.53,0.0,j
4095.0,4095.0,2949.0,3503.0,2932.0,1459.0,3233.0,4095.0,3.73,8.85,4.14,-0.11,0.03,-0.42,0.0,j
4095.0,4095.0,2960.0,3506.0,2933.0,1456.0,3242.0,4095.0,3.71,9.0,4.25,0.04,0.08,-0.32,0.0,j
4095.0,4095.0,2957.0,3485.0,2935.0,1444.0,3248.0,4095.0,3.85,9.27,3.8,0.05,-0.11,-0.37,0.0,j
4095.0,4095.0,2960.0,3503.0,2939.0,1456.0,3273.0,4095.0,4.02,9.31,4.05,-0.02,0.49,-0.17,0.0,j
4095.0,4095.0,2951.0,3511.0,2941.0,1458.0,3263.0,4095.0,4.64,9.54,3.84,-0.11,1.79,-0.09,0.0,j
4095.0,4095.0,2957.0,3599.0,2945.0,1470.0,3261.0,4095.0,2.75,9.29,5.12,-0.98,4.07,0.97,0.0,j
4095.0,4095.0,2947.0,3569.0,2922.0,1456.0,3268.0,4095.0,-3.75,9.05,4.98,-0.16,-0.06,0.04,0.0,j
4095.0,4095.0,2960.0,3627.0,2937.0,1463.0,3277.0,4095.0,-3.24,8.88,4.39,-0.69,-0.59,0.06,0.0,j
4095.0,4095.0,2950.0,3638.0,2928.0,1471.0,3276.0,4095.0,-2.81,7.79,5.87,-1.94,-0.34,0.75,0.0,j
4095.0,4095.0,2949.0,3632.0,2937.0,1467.0,3275.0,4095.0,-0.71,6.11,10.58,-2.17,-1.02,0.27,0.0,j
4095.0,4095.0,2960.0,3639.0,2933.0,1465.0,3276.0,4095.0,2.0,6.49,12.64,-1.69,-3.29,-0.71,0.0,j
4095.0,4095.0,2944.0,3671.0,2927.0,1456.0,3248.0,4095.0,3.83,5.44,13.36,-1.38,-3.81,-0.96,0.0,j
4095.0,4095.0,2955.0,3655.0,2917.0,1461.0,3246.0,4095.0,5.43,4.65,13.46,-0.96,-3.33,-1.16,0.0,j
4095.0,4095.0,2943.0,3659.0,2913.0,1456.0,3226.0,4095.0,7.08,4.91,12.3,-1.0,-3.1,-1.24,0.0,j
4095.0,4095.0,2947.0,3664.0,2921.0,1458.0,3248.0,4095.0,7.71,5.86,9.17,-0.36,-4.21,-2.02,0.0,j
4095.0,4095.0,2951.0,3600.0,2897.0,1447.0,3230.0,4095.0,7.75,6.71,6.64,0.05,-3.98,-1.9,0.0,j
4095.0,4095.0,2958.0,3538.0,2897.0,1451.0,3225.0,4095.0,6.65,8.1,3.14,-0.15,-2.59,-1.49,0.0,j
4095.0,4095.0,2948.0,3468.0,2893.0,1451.0,3214.0,4095.0,5.61,8.62,2.77,-0.44,-1.05,-1.16,0.0,j
4095.0,4095.0,2953.0,3457.0,2897.0,1453.0,3206.0,4095.0,4.63,8.66,2.9,-0.63,-0.4,-1.02,0.0,j
4095.0,4095.0,2945.0,3424.0,2897.0,1424.0,3195.0,4095.0,3.49,8.89,3.85,-0.57,0.41,-0.83,0.0,j
4095.0,4095.0,2958.0,3423.0,2903.0,1453.0,3200.0,4095.0,2.59,8.95,4.44,-0.33,0.18,-0.75,0.0,j
4095.0,4095.0,2945.0,3426.0,2908.0,1438.0,3199.0,4095.0,2.24,8.7,4.61,-0.15,0.35,-0.35,0.0,j
4095.0,4095.0,2942.0,3426.0,2907.0,1447.0,3205.0,4095.0,2.42,9.1,4.6,0.09,0.08,-0.03,0.0,j
4095.0,4095.0,2943.0,3440.0,2914.0,1455.0,3219.0,4095.0,2.78,9.63,4.45,0.19,0.02,-0.09,0.0,j
4095.0,4095.0,2940.0,3440.0,2911.0,1447.0,3216.0,4095.0,2.54,9.5,4.66,0.22,0.09,0.06,0.0,j
4095.0,4095.0,2955.0,3459.0,2913.0,1456.0,3223.0,4095.0,2.99,9.84,3.9,0.16,-0.01,-0.15,0.0,j
4095.0,3120.0,2959.0,3607.0,2992.0,1487.0,2875.0,4095.0,-2.92,7.23,10.03,-0.8,-0.07,-0.2,0.0,j
4095.0,3120.0,2961.0,3617.0,2989.0,1488.0,2881.0,4095.0,-2.89,6.46,9.92,-0.99,-0.07,-0.21,0.0,j
4095.0,3127.0,2962.0,3617.0,2988.0,1490.0,2891.0,4095.0,-3.31,5.32,11.5,-1.39,-0.55,-0.44,0.0,j
4095.0,3120.0,2951.0,3519.0,2969.0,1484.0,2883.0,4095.0,-1.53,3.77,12.68,-1.7,-1.22,-0.59,0.0,j
4095.0,3120.0,2966.0,3629.0,2967.0,1481.0,2899.0,4095.0,-0.74,2.14,13.96,-1.41,-1.08,-1.06,0.0,j
4095.0,3114.0,2962.0,3644.0,2960.0,1475.0,2880.0,4095.0,-0.85,1.94,13.7,-1.4,-1.81,-1.49,0.0,j
4095.0,3120.0,2960.0,3667.0,2963.0,1479.0,2923.0,4095.0,1.7,-0.81,15.85,-1.05,-1.35,-1.48,0.0,j
4095.0,3117.0,2958.0,3651.0,2965.0,1476.0,2931.0,4095.0,3.4,-0.38,14.49,-0.18,-1.03,-1.7,0.0,j
4095.0,3108.0,2960.0,3637.0,2959.0,1479.0,2934.0,4095.0,3.86,-0.11,13.27,-0.42,-0.38,-1.54,0.0,j
4095.0,3122.0,2960.0,3667.0,2951.0,1478.0,2944.0,4095.0,4.53,-0.14,13.4,-0.45,-0.85,-1.66,0.0,j
4095.0,3120.0,2958.0,3677.0,2953.0,1456.0,2931.0,4095.0,5.76,-0.13,13.15,-0.18,-1.19,-1.68,0.0,j
4095.0,3131.0,2954.0,3679.0,2958.0,1472.0,2927.0,4095.0,6.94,0.98,12.01,0.02,-1.41,-1.65,0.0,j
4095.0,3132.0,2944.0,3653.0,2946.0,1467.0,2919.0,4095.0,8.47,2.27,10.72,0.1,-1.25,-1.58,0.0,j
4095.0,3129.0,2954.0,3679.0,2957.0,1464.0,2928.0,4095.0,8.24,3.27,9.99,0.14,-1.23,-1.7,0.0,j
4095.0,3113.0,2958.0,3686.0,2946.0,1464.0,2929.0,4095.0,8.05,4.56,8.61,0.3,-0.99,-1.66,0.0,j
4095.0,3133.0,2960.0,3686.0,2953.0,1460.0,2944.0,4095.0,7.56,5.73,7.81,0.25,-0.58,-1.38,0.0,j
4095.0,3120.0,2953.0,3655.0,2945.0,1467.0,2945.0,4095.0,6.62,6.34,7.25,0.21,-0.53,-1.43,0.0,j
4095.0,3136.0,2964.0,3681.0,2957.0,1467.0,2942.0,4095.0,5.39,7.07,6.28,0.09,-0.31,-0.93,0.0,j
4095.0,3127.0,2944.0,3659.0,2959.0,1463.0,2950.0,4095.0,4.93,7.29,6.59,0.15,-0.44,-0.55,0.0,j
4095.0,3120.0,2956.0,3694.0,2966.0,1473.0,2951.0,4095.0,5.25,7.42,6.58,0.33,-0.37,-0.34,0.0,j
4095.0,3142.0,2960.0,3583.0,3001.0,1460.0,2990.0,4095.0,-2.94,8.96,7.1,-0.2,0.0,-0.08,0.0,j
4095.0,3147.0,2958.0,3616.0,3001.0,1483.0,2987.0,4095.0,-2.66,8.8,6.45,-0.45,0.29,-0.01,0.0,j
4095.0,3152.0,2959.0,3567.0,2983.0,1481.0,2989.0,4095.0,-2.55,8.15,6.91,-1.03,-0.36,-0.08,0.0,j
4095.0,3152.0,2966.0,3579.0,2977.0,1472.0,2985.0,4095.0,-1.75,7.21,9.11,-2.4,-1.55,0.33,0.0,j
4095.0,3138.0,2951.0,3568.0,2961.0,1471.0,2992.0,4095.0,-1.3,6.02,11.69,-1.71,-1.63,-0.65,0.0,j
4095.0,3146.0,2963.0,3603.0,2967.0,1469.0,2995.0,4095.0,0.5,4.17,13.02,-1.83,-1.17,-0.11,0.0,j
4095.0,3130.0,2959.0,3573.0,2958.0,1468.0,3006.0,4095.0,2.12,2.95,13.86,-1.38,-0.33,0.37,0.0,j
4095.0,3123.0,2955.0,3602.0,2963.0,1473.0,3018.0,4095.0,1.92,2.75,14.37,-1.2,-1.63,-0.88,0.0,j
4095.0,3120.0,2958.0,3563.0,2960.0,1457.0,3017.0,4095.0,3.21,1.06,14.65,-1.0,-1.77,-1.13,0.0,j
4095.0,3116.0,2959.0,3548.0,2975.0,1456.0,3035.0,4095.0,5.33,0.91,13.94,-0.48,-1.49,-0.93,0.0,j
4095.0,3126.0,2958.0,3562.0,2967.0,1472.0,3055.0,4095.0,6.26,1.11,13.14,-0.15,-1.44,-1.14,0.0,j
4095.0,3129.0,2941.0,3555.0,2967.0,1441.0,3047.0,4095.0,6.71,1.45,12.06,-0.35,-1.89,-1.5,0.0,j
4095.0,3123.0,2949.0,3519.0,2963.0,1459.0,3046.0,4095.0,7.74,2.5,10.01,-0.1,-2.47,-1.71,0.0,j
4095.0,3115.0,2934.0,3517.0,2954.0,1459.0,3046.0,4095.0,9.21,4.12,7.87,-0.15,-1.77,-1.33,0.0,j
4095.0,3107.0,2944.0,3552.0,2950.0,1471.0,3045.0,4095.0,8.91,4.92,6.52,-0.35,-1.68,-1.53,0.0,j
4095.0,3117.0,2935.0,3554.0,2944.0,1442.0,3035.0,4095.0,8.15,6.0,5.08,-0.26,-2.21,-1.69,0.0,j
4095.0,3120.0,2954.0,3523.0,2945.0,1457.0,3046.0,4095.0,7.3,7.09,3.98,-0.33,-1.51,-1.43,0.0,j
4095.0,3120.0,2944.0,3522.0,2935.0,1431.0,3056.0,4095.0,6.67,7.75,3.97,-0.45,-0.59,-1.15,0.0,j
4095.0,3120.0,2950.0,3514.0,2943.0,1462.0,3046.0,4095.0,5.45,8.12,3.46,-0.3,-0.68,-1.18,0.0,j
4095.0,3099.0,2938.0,3490.0,2945.0,1456.0,3035.0,4095.0,4.53,8.29,3.28,-0.29,-0.66,-1.05,0.0,j
4095.0,3167.0,2960.0,3583.0,3024.0,1510.0,3034.0,4095.0,-3.33,6.68,6.79,-2.62,-0.15,0.98,0.0,j
4095.0,3149.0,2946.0,3638.0,3011.0,1501.0,3003.0,4095.0,-1.63,4.22,11.46,-2.83,0.45,0.72,0.0,j
4095.0,3158.0,2963.0,3687.0,3013.0,1482.0,3011.0,4095.0,-0.48,2.89,13.63,-1.97,-0.82,-0.76,0.0,j
4095.0,3142.0,2960.0,3680.0,3012.0,1488.0,3024.0,4095.0,0.76,1.57,15.14,-1.62,-2.1,-2.04,0.0,j
4095.0,3142.0,2967.0,3690.0,3015.0,1489.0,3028.0,4095.0,1.9,0.51,16.0,-1.16,-2.69,-2.21,0.0,j
4095.0,3136.0,2953.0,3677.0,3011.0,1488.0,3038.0,4095.0,5.26,0.61,14.56,-0.11,-3.19,-2.51,0.0,j
4095.0,3125.0,2961.0,3619.0,2993.0,1488.0,3045.0,4095.0,6.7,1.86,12.56,0.13,-3.47,-2.75,0.0,j
4095.0,3119.0,2962.0,3565.0,2990.0,1487.0,3038.0,4095.0,7.56,3.4,11.43,-0.06,-2.37,-2.22,0.0,j
4095.0,3120.0,2971.0,3548.0,2992.0,1483.0,3051.0,4095.0,8.51,5.25,8.96,0.15,-2.03,-2.1,0.0,j
4095.0,3113.0,2948.0,3539.0,2988.0,1482.0,3059.0,4095.0,7.96,6.22,8.57,-0.37,-0.98,-1.74,0.0,j
4095.0,3119.0,2954.0,3558.0,2993.0,1486.0,3061.0,4095.0,6.73,6.93,7.39,-0.15,-0.75,-1.89,0.0,j
4095.0,3127.0,2963.0,3565.0,2995.0,1475.0,3055.0,4095.0,5.02,7.59,6.77,0.17,-0.64,-1.83,0.0,j
4095.0,3119.0,2955.0,3511.0,2989.0,1481.0,3034.0,4095.0,3.74,8.13,5.71,0.13,-0.41,-1.42,0.0,j
4095.0,3111.0,2951.0,3506.0,3003.0,1458.0,3047.0,4095.0,2.87,8.6,5.14,0.22,-0.27,-0.85,0.0,j
4095.0,3121.0,2959.0,3497.0,3002.0,1477.0,3039.0,4095.0,1.96,8.88,4.83,0.09,-0.03,-0.49,0.0,j
4095.0,3113.0,2955.0,3504.0,3021.0,1488.0,3056.0,4095.0,2.22,9.16,5.42,0.05,-0.05,-0.04,0.0,j
4095.0,3104.0,2957.0,3509.0,3003.0,1488.0,3051.0,4095.0,2.4,9.8,4.96,0.18,-0.03,-0.15,0.0,j
4095.0,3125.0,2969.0,3524.0,3009.0,1487.0,3057.0,4095.0,2.53,9.77,4.93,0.06,-0.03,-0.12,0.0,j
4095.0,3121.0,2941.0,3515.0,3008.0,1453.0,3057.0,4095.0,2.44,9.65,5.0,0.02,-0.03,-0.09,0.0,j
4095.0,3116.0,2949.0,3525.0,3012.0,1488.0,3069.0,4095.0,2.5,9.65,5.02,0.06,-0.04,-0.12,0.0,j
4095.0,3136.0,2947.0,3631.0,3023.0,1488.0,3071.0,4095.0,-3.51,8.53,6.59,-0.13,0.24,0.21,0.0,j
4095.0,3137.0,2961.0,3632.0,3024.0,1493.0,3085.0,4095.0,-2.87,8.42,5.09,-1.4,-0.47,0.52,0.0,j
4095.0,3131.0,2949.0,3632.0,3007.0,1497.0,3055.0,4095.0,-2.52,6.24,8.49,-2.66,-0.62,0.19,0.0,j
4095.0,3136.0,2960.0,3643.0,2994.0,1492.0,3070.0,4095.0,-1.41,3.49,12.14,-2.72,-0.61,-0.48,0.0,j
4095.0,3105.0,2943.0,3642.0,2991.0,1483.0,3097.0,4095.0,-0.48,1.57,15.38,-2.61,-2.6,-1.73,0.0,j
4095.0,3092.0,2961.0,3666.0,2950.0,1467.0,3132.0,4095.0,2.92,-0.84,16.6,-1.92,-2.34,-1.88,0.0,j
4095.0,3082.0,2959.0,3628.0,2935.0,1458.0,3188.0,4095.0,4.43,-1.02,15.52,-1.07,-2.51,-2.33,0.0,j
4095.0,3055.0,2950.0,3568.0,2925.0,1456.0,3197.0,4095.0,7.43,0.51,11.68,-0.68,-2.96,-2.86,0.0,j
4095.0,3071.0,2953.0,3579.0,2930.0,1430.0,3207.0,4095.0,8.27,1.39,10.66,-0.77,-3.1,-2.9,0.0,j
4095.0,3056.0,2946.0,3543.0,2907.0,1433.0,3184.0,4095.0,9.47,3.78,7.09,-0.11,-3.3,-2.55,0.0,j
4095.0,3055.0,2947.0,3563.0,2896.0,1438.0,3200.0,4095.0,10.32,5.52,4.36,-0.08,-2.11,-1.71,0.0,j
4095.0,3047.0,2935.0,3558.0,2877.0,1440.0,3181.0,4095.0,8.77,6.37,3.59,-0.17,-0.93,-1.35,0.0,j
4095.0,3060.0,2955.0,3543.0,2886.0,1439.0,3187.0,4095.0,7.02,7.38,2.86,-0.14,-0.66,-1.45,0.0,j
4095.0,3051.0,2934.0,3518.0,2888.0,1442.0,3181.0,4095.0,4.92,7.66,2.48,-0.23,-0.26,-1.18,0.0,j
4095.0,3059.0,2950.0,3518.0,2910.0,1449.0,3184.0,4095.0,4.08,7.54,3.37,-0.21,0.41,-0.27,0.0,j
4095.0,3062.0,2935.0,3518.0,2896.0,1437.0,3183.0,4095.0,4.75,8.24,3.22,0.05,-0.04,-0.09,0.0,j
4095.0,3071.0,2960.0,3536.0,2909.0,1455.0,3183.0,4095.0,5.19,8.8,3.11,0.12,-0.03,-0.14,0.0,j
4095.0,3071.0,2949.0,3538.0,2905.0,1456.0,3184.0,4095.0,5.06,8.65,3.13,0.05,0.12,-0.12,0.0,j
4095.0,3067.0,2955.0,3536.0,2906.0,1455.0,3184.0,4095.0,4.94,8.6,3.06,0.04,0.07,-0.17,0.0,j
4095.0,3083.0,2953.0,3535.0,2911.0,1456.0,3193.0,4095.0,4.99,8.49,3.19,0.03,-0.02,-0.12,0.0,j
