hall_1,hall_2,hall_3,flex_t,flex_i,flex_m,flex_r,flex_p,accel_x,accel_y,accel_z,gyro_x,gyro_y,gyro_z,hand,sign
3795.0,880.0,3031.0,2624.0,4095.0,3759.0,3328.0,4095.0,3.29,10.4,-2.08,-0.35,-0.14,-0.12,1.0,j
3813.0,884.0,3028.0,2608.0,4095.0,3727.0,3306.0,4095.0,3.66,8.51,-3.71,-2.04,0.14,-0.26,1.0,j
3809.0,889.0,3030.0,2608.0,4095.0,3728.0,3315.0,4095.0,0.4,4.69,0.07,-4.59,2.78,0.27,1.0,j
3765.0,882.0,2998.0,2395.0,4095.0,3643.0,3273.0,4095.0,-4.29,1.74,6.74,-5.02,4.33,0.41,1.0,j
3755.0,891.0,3006.0,2526.0,4095.0,3629.0,3258.0,3987.0,-10.97,-1.3,10.03,-4.09,4.74,0.8,1.0,j
3793.0,883.0,3037.0,2559.0,4095.0,3669.0,3280.0,4087.0,-13.12,0.61,4.64,-2.85,6.15,1.31,1.0,j
3809.0,883.0,3038.0,2559.0,4095.0,3729.0,3298.0,4095.0,-16.6,0.4,3.43,-2.14,3.62,1.93,1.0,j
3803.0,890.0,3030.0,2582.0,4095.0,3728.0,3296.0,4095.0,-12.28,1.57,0.21,-1.19,0.57,2.93,1.0,j
3815.0,887.0,3037.0,2559.0,4095.0,3699.0,3307.0,3741.0,-7.66,4.04,-0.03,-0.56,-0.08,2.83,1.0,j
3803.0,887.0,3034.0,2559.0,4095.0,3694.0,3313.0,4095.0,-5.02,5.76,0.61,-0.37,-0.31,2.09,1.0,j
3810.0,879.0,3031.0,2598.0,4095.0,3682.0,3321.0,4095.0,-1.93,6.76,0.17,-0.26,-0.4,0.93,1.0,j
3819.0,885.0,3029.0,2608.0,4095.0,3699.0,3337.0,4095.0,-2.46,8.49,0.57,-0.16,-0.06,0.15,1.0,j
3818.0,886.0,3030.0,2614.0,4095.0,3690.0,3323.0,4095.0,-3.59,9.1,0.68,-0.1,0.04,-0.11,1.0,j
3821.0,887.0,3045.0,2626.0,4095.0,3701.0,3344.0,4095.0,-3.97,9.28,1.07,-0.11,-0.0,-0.07,1.0,j
3799.0,882.0,3027.0,2623.0,4095.0,3698.0,3334.0,4095.0,-3.64,8.95,1.02,-0.02,-0.01,-0.04,1.0,j
3838.0,883.0,3026.0,2633.0,4095.0,3702.0,3354.0,4095.0,-3.82,8.99,0.79,0.02,-0.0,-0.13,1.0,j
3817.0,882.0,3027.0,2630.0,4095.0,3696.0,3333.0,4095.0,-4.34,9.33,0.41,0.04,-0.11,-0.04,1.0,j
3824.0,887.0,3042.0,2635.0,4095.0,3702.0,3343.0,4095.0,-3.7,8.92,0.18,-0.03,-0.19,-0.04,1.0,j
3803.0,883.0,3034.0,2636.0,4095.0,3708.0,3341.0,4095.0,-3.85,9.11,0.5,-0.07,-0.15,-0.09,1.0,j
3813.0,882.0,3037.0,2639.0,4095.0,3699.0,3342.0,4095.0,-4.2,9.23,0.78,-0.1,-0.03,-0.01,1.0,j
3879.0,896.0,3033.0,2668.0,4095.0,3775.0,3370.0,4095.0,2.79,9.66,-1.86,-0.1,-0.05,0.08,1.0,j
3841.0,883.0,3025.0,2663.0,4095.0,3757.0,3350.0,4095.0,3.27,9.42,-2.27,-0.35,-0.25,0.27,1.0,j
3856.0,890.0,3038.0,2674.0,4095.0,3751.0,3356.0,4095.0,3.29,8.96,-2.13,-0.81,-0.13,0.43,1.0,j
3852.0,886.0,3026.0,2645.0,4095.0,3759.0,3365.0,4095.0,3.43,8.22,-0.76,-1.62,0.4,0.68,1.0,j
3857.0,885.0,3043.0,2636.0,4095.0,3770.0,3359.0,4095.0,3.91,7.34,1.52,-2.48,1.1,1.1,1.0,j
3839.0,883.0,3027.0,2582.0,4095.0,3755.0,3346.0,3127.0,3.88,4.87,6.27,-3.26,2.12,1.03,1.0,j
3846.0,887.0,3022.0,2592.0,4095.0,3745.0,3338.0,3824.0,2.21,2.28,10.81,-2.63,2.01,0.62,1.0,j
3839.0,891.0,3023.0,2546.0,4095.0,3743.0,3331.0,3999.0,0.41,1.8,11.19,-2.1,2.17,0.5,1.0,j
3863.0,881.0,3036.0,2591.0,4095.0,3763.0,3332.0,4038.0,-3.16,-0.2,12.14,-1.55,2.64,1.01,1.0,j
3851.0,883.0,3031.0,2481.0,4095.0,3747.0,3327.0,4095.0,-5.37,0.34,9.98,-0.75,3.64,2.01,1.0,j
3842.0,886.0,3039.0,2590.0,4095.0,3718.0,3319.0,4095.0,-8.56,1.59,6.28,-0.69,5.13,2.12,1.0,j
3837.0,880.0,3045.0,2621.0,4095.0,3728.0,3333.0,4095.0,-11.11,2.29,3.17,-0.59,2.79,1.97,1.0,j
3833.0,891.0,3021.0,2608.0,4095.0,3715.0,3331.0,4095.0,-9.99,4.26,0.97,-0.71,2.16,2.41,1.0,j
3835.0,884.0,3036.0,2621.0,4095.0,3733.0,3341.0,4095.0,-7.96,5.63,0.01,-0.74,0.9,2.32,1.0,j
3827.0,881.0,3041.0,2609.0,4095.0,3739.0,3344.0,4095.0,-4.83,7.0,0.94,-0.52,-0.04,1.83,1.0,j
3835.0,881.0,3038.0,2594.0,4095.0,3729.0,3351.0,4095.0,-3.44,7.61,-0.03,-0.29,0.13,1.36,1.0,j
3840.0,886.0,3026.0,2607.0,4095.0,3722.0,3346.0,4095.0,-1.26,8.33,0.61,-0.37,-0.15,0.71,1.0,j
3865.0,885.0,3040.0,2615.0,4095.0,3740.0,3389.0,4095.0,-1.76,9.23,1.3,-0.22,-0.12,-0.19,1.0,j
3843.0,877.0,3024.0,2627.0,4095.0,3735.0,3363.0,4095.0,-3.25,9.33,0.89,0.0,-0.0,-0.22,1.0,j
3867.0,886.0,3039.0,2638.0,4095.0,3738.0,3374.0,4095.0,-3.11,9.61,0.4,-0.02,0.02,-0.07,1.0,j
3889.0,893.0,3041.0,2676.0,4095.0,3766.0,3408.0,4095.0,3.04,9.52,-1.58,-0.22,0.18,-0.03,1.0,j
3884.0,892.0,3045.0,2689.0,4095.0,3776.0,3406.0,3888.0,2.57,9.09,-2.31,-0.82,0.09,0.04,1.0,j
3882.0,891.0,3046.0,2686.0,4095.0,3760.0,3394.0,4095.0,2.96,9.1,-1.04,-1.47,0.13,0.37,1.0,j
3874.0,892.0,3051.0,2677.0,4095.0,3792.0,3408.0,4095.0,3.22,7.79,1.98,-2.56,1.81,0.49,1.0,j
3873.0,887.0,3037.0,2615.0,4095.0,3783.0,3381.0,4095.0,2.15,6.77,6.14,-2.54,1.69,0.38,1.0,j
3893.0,895.0,3049.0,2658.0,4095.0,3801.0,3405.0,4095.0,1.32,5.28,9.05,-2.31,2.04,0.45,1.0,j
3874.0,888.0,3040.0,2624.0,4095.0,3761.0,3362.0,4095.0,-0.76,3.95,9.61,-2.13,2.68,0.63,1.0,j
3856.0,880.0,3035.0,2556.0,4095.0,3773.0,3362.0,4095.0,-2.9,2.16,10.59,-1.72,2.67,0.74,1.0,j
3853.0,880.0,3033.0,2559.0,4095.0,3750.0,3345.0,4095.0,-5.26,1.3,10.7,-1.04,2.75,1.3,1.0,j
3866.0,883.0,3039.0,2426.0,4095.0,3700.0,3342.0,4095.0,-8.33,2.04,5.82,-1.01,4.25,1.3,1.0,j
3818.0,883.0,3038.0,2463.0,4095.0,3713.0,3340.0,4095.0,-10.88,2.69,4.81,-0.77,2.98,1.39,1.0,j
3836.0,885.0,3034.0,2470.0,4095.0,3696.0,3343.0,4095.0,-11.66,3.27,1.93,-0.74,2.65,2.04,1.0,j
3856.0,883.0,3037.0,2609.0,4095.0,3713.0,3356.0,4095.0,-9.46,4.75,0.23,-0.79,1.49,2.29,1.0,j
3855.0,886.0,3036.0,2416.0,4095.0,3730.0,3353.0,4095.0,-6.63,6.3,-0.12,-0.68,0.97,2.44,1.0,j
3866.0,891.0,3045.0,2634.0,4095.0,3777.0,3386.0,4095.0,-3.29,7.6,-0.56,-0.36,0.35,1.99,1.0,j
3867.0,883.0,3051.0,2602.0,4095.0,3779.0,3387.0,3473.0,-0.23,8.38,-0.43,-0.49,-0.14,0.98,1.0,j
3902.0,886.0,3053.0,2629.0,4095.0,3779.0,3396.0,3054.0,-0.71,9.04,0.36,-0.31,0.0,0.06,1.0,j
3879.0,890.0,3045.0,2641.0,4095.0,3772.0,3393.0,3136.0,-2.24,9.43,0.85,-0.13,-0.01,-0.17,1.0,j
3881.0,890.0,3056.0,2653.0,4095.0,3789.0,3401.0,3183.0,-2.13,9.91,0.08,0.02,0.0,-0.11,1.0,j
3888.0,885.0,3043.0,2643.0,4095.0,3772.0,3398.0,3163.0,-2.15,9.65,-0.18,-0.07,-0.06,-0.1,1.0,j
3943.0,891.0,3051.0,2666.0,4095.0,3823.0,3411.0,3143.0,3.68,9.16,-0.14,-0.53,-1.52,-0.37,1.0,j
3933.0,889.0,3049.0,2654.0,4095.0,3830.0,3411.0,4095.0,3.9,8.86,-0.26,-1.12,-0.41,0.11,1.0,j
3931.0,894.0,3058.0,2639.0,4095.0,3818.0,3411.0,4095.0,3.44,7.58,-0.16,-2.24,0.85,0.5,1.0,j
3934.0,896.0,3045.0,2622.0,4095.0,3780.0,3417.0,4051.0,3.43,4.79,2.33,-4.48,2.53,1.19,1.0,j
3930.0,882.0,3056.0,2599.0,4095.0,3797.0,3411.0,4062.0,-2.33,-1.07,10.97,-4.04,2.81,1.83,1.0,j
3891.0,883.0,3041.0,2598.0,4095.0,3761.0,3379.0,4095.0,-7.35,-0.63,11.03,-2.32,5.19,3.07,1.0,j
3879.0,890.0,3053.0,2421.0,4095.0,3728.0,3367.0,3905.0,-8.33,0.11,9.33,-1.58,5.86,3.43,1.0,j
3899.0,896.0,3060.0,2601.0,4095.0,3731.0,3365.0,2073.0,-14.41,1.8,3.31,-1.45,3.65,2.9,1.0,j
3869.0,901.0,3042.0,2530.0,4095.0,3737.0,3353.0,4095.0,-12.89,3.22,0.92,-0.94,1.42,3.07,1.0,j
3888.0,896.0,3044.0,2635.0,4095.0,3775.0,3375.0,4095.0,-6.81,5.16,-0.53,-0.94,0.07,3.13,1.0,j
3894.0,901.0,3046.0,2629.0,4095.0,3750.0,3369.0,4095.0,-2.63,5.52,0.81,-0.72,0.1,2.17,1.0,j
3917.0,907.0,3040.0,2592.0,4095.0,3785.0,3395.0,3933.0,-0.4,7.38,0.59,-0.13,0.07,0.79,1.0,j
3920.0,902.0,3038.0,2656.0,4095.0,3781.0,3392.0,3154.0,-1.43,9.34,-0.08,0.16,0.05,0.07,1.0,j
3911.0,901.0,3045.0,2657.0,4095.0,3806.0,3407.0,3239.0,-2.13,9.92,0.03,0.04,-0.02,-0.21,1.0,j
3915.0,908.0,3042.0,2665.0,4095.0,3792.0,3388.0,3184.0,-2.34,9.88,-0.29,-0.05,-0.06,-0.17,1.0,j
3927.0,900.0,3049.0,2666.0,4095.0,3781.0,3402.0,3149.0,-2.41,9.62,-0.12,-0.14,0.02,-0.11,1.0,j
3900.0,911.0,3035.0,2669.0,4095.0,3791.0,3414.0,3152.0,-2.65,9.55,0.01,-0.08,-0.11,-0.15,1.0,j
3919.0,895.0,3040.0,2674.0,4095.0,3792.0,3388.0,3136.0,-2.64,9.67,-0.09,-0.07,-0.05,-0.11,1.0,j
3922.0,905.0,3046.0,2681.0,4095.0,3813.0,3403.0,3104.0,-2.83,9.72,0.0,-0.08,-0.15,-0.14,1.0,j
3909.0,912.0,3037.0,2671.0,4095.0,3795.0,3399.0,3124.0,-2.84,9.62,0.16,-0.11,-0.08,-0.06,1.0,j
3901.0,903.0,3029.0,2682.0,4095.0,3762.0,3367.0,4095.0,3.88,9.12,3.1,0.53,-2.43,-0.79,1.0,j
3920.0,906.0,3024.0,2672.0,4095.0,3787.0,3395.0,4095.0,4.13,8.67,1.35,0.4,-1.04,-0.21,1.0,j
3911.0,916.0,3023.0,2676.0,4095.0,3767.0,3376.0,4027.0,4.35,9.0,-0.15,0.15,-0.93,-0.32,1.0,j
3955.0,913.0,3042.0,2665.0,4095.0,3852.0,3408.0,4095.0,4.28,9.2,-1.82,-0.86,-0.43,-0.17,1.0,j
3984.0,903.0,3042.0,2559.0,4095.0,3792.0,3421.0,4095.0,5.38,8.09,-2.45,-3.16,2.35,0.4,1.0,j
4033.0,912.0,3045.0,2624.0,4095.0,3840.0,3421.0,4095.0,1.01,2.97,2.63,-5.28,3.88,1.24,1.0,j
4003.0,896.0,3035.0,2608.0,4095.0,3839.0,3421.0,2876.0,-5.2,-2.59,12.84,-3.28,4.21,0.95,1.0,j
4003.0,909.0,3055.0,2669.0,4095.0,3834.0,3417.0,4095.0,-9.05,0.71,9.5,-1.42,4.57,1.01,1.0,j
3968.0,907.0,3053.0,2591.0,4095.0,3771.0,3378.0,4033.0,-11.26,0.35,8.43,-1.24,3.98,2.81,1.0,j
3952.0,905.0,3047.0,2638.0,4095.0,3775.0,3381.0,4095.0,-13.42,2.97,1.57,-1.16,3.6,1.86,1.0,j
3943.0,902.0,3041.0,2641.0,4095.0,3773.0,3376.0,4095.0,-13.05,3.53,-0.43,-1.37,2.32,2.54,1.0,j
3965.0,899.0,3050.0,2672.0,4095.0,3799.0,3391.0,4095.0,-10.35,5.15,-1.77,-1.39,1.16,3.07,1.0,j
3974.0,910.0,3031.0,2590.0,4095.0,3835.0,3415.0,3872.0,-4.29,5.83,-0.22,-1.15,0.2,2.96,1.0,j
3973.0,912.0,3037.0,2654.0,4095.0,3837.0,3415.0,4095.0,-0.34,7.32,0.65,-0.78,0.25,1.63,1.0,j
3995.0,906.0,3046.0,2662.0,4095.0,3856.0,3435.0,3940.0,0.03,8.86,0.33,-0.13,-0.16,-0.12,1.0,j
3983.0,901.0,3035.0,2660.0,4095.0,3833.0,3425.0,4030.0,-1.44,9.92,0.53,0.02,-0.17,-0.33,1.0,j
4005.0,907.0,3052.0,2672.0,4095.0,3858.0,3440.0,4021.0,-1.27,10.1,0.28,-0.13,-0.12,-0.23,1.0,j
3991.0,900.0,3035.0,2679.0,4095.0,3825.0,3426.0,3997.0,-1.7,9.77,0.48,-0.11,-0.1,-0.14,1.0,j
3986.0,897.0,3056.0,2688.0,4095.0,3861.0,3439.0,4095.0,-1.53,9.84,0.22,-0.08,-0.13,-0.13,1.0,j
3984.0,911.0,3042.0,2687.0,4095.0,3842.0,3435.0,3952.0,-1.73,9.87,0.78,-0.12,0.0,-0.06,1.0,j
3990.0,911.0,3046.0,2700.0,4095.0,3827.0,3435.0,3906.0,3.87,9.32,1.31,-0.05,-0.04,-0.02,1.0,j
4006.0,915.0,3045.0,2704.0,4095.0,3841.0,3455.0,3538.0,3.81,9.38,1.18,-0.08,0.03,-0.01,1.0,j
4015.0,913.0,3045.0,2699.0,4095.0,3839.0,3440.0,3953.0,3.89,9.53,1.13,-0.1,0.0,-0.08,1.0,j
4022.0,911.0,3056.0,2704.0,4095.0,3855.0,3454.0,4043.0,3.89,9.31,1.39,-0.07,-0.03,-0.01,1.0,j
3999.0,899.0,3056.0,2704.0,4095.0,3843.0,3431.0,4046.0,4.03,9.2,1.3,-0.05,-0.0,-0.03,1.0,j
4014.0,906.0,3047.0,2709.0,4095.0,3839.0,3460.0,4095.0,3.82,9.3,1.08,-0.1,-0.03,0.04,1.0,j
4001.0,911.0,3043.0,2695.0,4095.0,3833.0,3443.0,3925.0,4.12,9.23,-0.65,-0.65,-0.18,-0.1,1.0,j
4006.0,905.0,3055.0,2710.0,4095.0,3853.0,3445.0,4095.0,3.0,7.05,-2.31,-2.22,0.58,0.21,1.0,j
4018.0,912.0,3057.0,2693.0,4095.0,3855.0,3438.0,3778.0,-1.42,3.71,1.98,-5.39,5.14,1.14,1.0,j
3969.0,901.0,3056.0,2622.0,4095.0,3814.0,3413.0,4095.0,-8.38,0.64,13.14,-2.53,7.43,1.64,1.0,j
3926.0,893.0,3067.0,2674.0,4095.0,3773.0,3376.0,2027.0,-11.73,6.13,2.01,-1.69,8.73,2.17,1.0,j
3935.0,900.0,3057.0,2599.0,4095.0,3780.0,3376.0,4095.0,-13.22,5.32,-0.44,-1.81,3.89,1.77,1.0,j
3952.0,899.0,3058.0,2641.0,4095.0,3807.0,3398.0,4095.0,-11.15,5.23,-0.42,-1.69,2.42,2.67,1.0,j
3949.0,891.0,3050.0,2639.0,4095.0,3807.0,3404.0,4095.0,-5.43,5.66,-1.23,-1.69,0.67,2.75,1.0,j
3999.0,903.0,3049.0,2626.0,4095.0,3826.0,3425.0,4095.0,0.54,6.75,0.41,-0.78,0.02,1.36,1.0,j
3969.0,900.0,3044.0,2671.0,4095.0,3826.0,3418.0,4095.0,-0.62,8.62,0.66,-0.16,-0.14,-0.15,1.0,j
4011.0,901.0,3056.0,2675.0,4095.0,3824.0,3415.0,4095.0,-2.02,9.97,-0.48,0.16,0.05,-0.2,1.0,j
3968.0,898.0,3044.0,2670.0,4095.0,3828.0,3424.0,4095.0,-1.95,9.81,-0.59,-0.11,-0.09,-0.16,1.0,j
4000.0,897.0,3041.0,2681.0,4095.0,3839.0,3440.0,4095.0,-2.7,9.65,-0.04,-0.06,-0.12,-0.22,1.0,j
3966.0,906.0,3037.0,2676.0,4095.0,3824.0,3426.0,4095.0,-2.85,9.27,-0.19,0.01,-0.4,-0.11,1.0,j
4031.0,901.0,3051.0,2710.0,4095.0,3814.0,3457.0,4095.0,3.9,9.39,-0.21,0.35,-1.08,-0.06,1.0,j
3985.0,899.0,3031.0,2688.0,4095.0,3796.0,3449.0,4095.0,3.24,9.07,-2.34,-0.98,-0.45,-0.02,1.0,j
4023.0,900.0,3054.0,2662.0,4095.0,3823.0,3467.0,4095.0,4.42,7.37,-1.22,-2.17,0.71,0.62,1.0,j
4015.0,901.0,3040.0,2689.0,4095.0,3851.0,3459.0,3983.0,2.77,4.14,3.16,-4.09,2.8,1.61,1.0,j
4026.0,895.0,3050.0,2714.0,4095.0,3824.0,3456.0,3771.0,0.75,-0.06,9.33,-3.72,2.46,1.31,1.0,j
4017.0,895.0,3038.0,2737.0,4095.0,3796.0,3435.0,3666.0,-1.4,-3.67,14.43,-2.46,2.19,1.19,1.0,j
4010.0,902.0,3046.0,2713.0,4095.0,3763.0,3440.0,3833.0,-4.57,-2.49,10.59,-1.34,2.49,1.13,1.0,j
3999.0,886.0,3046.0,2671.0,4095.0,3771.0,3462.0,4095.0,-5.65,-1.37,8.39,-0.61,3.82,2.34,1.0,j
4018.0,888.0,3029.0,2711.0,4095.0,3729.0,3453.0,3839.0,-8.2,0.32,7.71,-1.47,4.47,3.87,1.0,j
3979.0,889.0,3037.0,2635.0,4095.0,3728.0,3429.0,2100.0,-10.96,3.29,3.27,-1.39,6.33,3.93,1.0,j
3981.0,891.0,3040.0,2699.0,4095.0,3732.0,3411.0,4095.0,-10.63,5.41,-2.31,-0.88,0.4,2.67,1.0,j
4002.0,889.0,3034.0,2685.0,4095.0,3776.0,3424.0,4095.0,-6.85,6.43,-1.87,-1.02,0.64,3.03,1.0,j
3985.0,891.0,3037.0,2674.0,4095.0,3792.0,3434.0,4095.0,-2.68,7.4,-0.59,-0.84,-0.24,2.4,1.0,j
4017.0,899.0,3047.0,2643.0,4095.0,3795.0,3451.0,4095.0,1.1,7.58,0.26,-0.59,0.1,1.29,1.0,j
4029.0,896.0,3039.0,2641.0,4095.0,3809.0,3447.0,4095.0,0.68,8.41,1.36,-0.33,-0.02,0.19,1.0,j
4023.0,894.0,3047.0,2650.0,4095.0,3840.0,3472.0,4095.0,0.14,9.91,0.81,0.06,-0.09,-0.27,1.0,j
4016.0,895.0,3035.0,2643.0,4095.0,3815.0,3454.0,4095.0,0.06,10.29,0.31,0.02,0.05,-0.18,1.0,j
4042.0,893.0,3043.0,2671.0,4095.0,3842.0,3472.0,4095.0,-0.9,10.02,0.67,-0.11,-0.17,-0.24,1.0,j
4055.0,897.0,3051.0,2676.0,4095.0,3822.0,3470.0,4095.0,-0.5,9.91,0.52,-0.11,-0.1,-0.19,1.0,j
4027.0,895.0,3043.0,2672.0,4095.0,3814.0,3467.0,4095.0,-1.15,10.03,0.64,-0.16,-0.13,-0.16,1.0,j
4032.0,881.0,3044.0,2699.0,4095.0,3809.0,3456.0,4095.0,-2.77,9.45,2.37,-0.09,-2.27,-0.33,1.0,j
3990.0,887.0,3038.0,2704.0,4095.0,3823.0,3440.0,4095.0,-3.49,9.85,3.59,-0.39,-4.56,-0.44,1.0,j
3998.0,886.0,3024.0,2703.0,4095.0,3779.0,3412.0,4095.0,-0.53,11.01,1.48,-0.7,-8.73,-1.17,1.0,j
4021.0,898.0,3044.0,2679.0,4095.0,3801.0,3443.0,4095.0,7.54,10.02,0.19,-1.3,-8.73,-1.73,1.0,j
4040.0,903.0,3039.0,2629.0,4095.0,3814.0,3454.0,3987.0,4.21,4.63,-0.38,-2.6,-3.9,0.06,1.0,j
4066.0,896.0,3035.0,2674.0,4095.0,3823.0,3459.0,4095.0,3.04,1.2,2.1,-4.65,1.59,2.77,1.0,j
4029.0,886.0,3052.0,2726.0,4095.0,3790.0,3440.0,4095.0,3.87,-4.24,9.01,-4.18,1.47,2.43,1.0,j
4069.0,880.0,3051.0,2750.0,4095.0,3776.0,3446.0,4095.0,0.85,-7.0,15.43,-2.2,3.08,2.5,1.0,j
4061.0,880.0,3046.0,2756.0,4095.0,3774.0,3449.0,4095.0,-2.37,-4.21,10.29,-0.44,3.67,2.39,1.0,j
4063.0,887.0,3054.0,2758.0,4095.0,3789.0,3467.0,4095.0,-5.98,-1.79,6.7,-1.54,3.72,3.58,1.0,j
4022.0,880.0,3046.0,2657.0,4095.0,3738.0,3428.0,2741.0,-9.61,-0.46,6.32,-0.43,4.84,5.31,1.0,j
4016.0,878.0,3036.0,2691.0,4095.0,3760.0,3430.0,4095.0,-13.34,3.88,0.4,-1.03,4.25,4.19,1.0,j
3984.0,880.0,3035.0,2704.0,4095.0,3773.0,3424.0,4095.0,-7.63,4.51,-1.62,-1.56,0.92,2.53,1.0,j
3997.0,883.0,3043.0,2747.0,4095.0,3783.0,3444.0,4095.0,-1.17,5.06,-0.23,-0.94,-0.09,0.95,1.0,j
4017.0,887.0,3041.0,2751.0,4095.0,3799.0,3447.0,4049.0,-4.94,8.4,-1.55,-0.21,0.09,0.32,1.0,j
3989.0,876.0,3035.0,2737.0,4095.0,3790.0,3442.0,3827.0,-4.27,8.67,-1.25,-0.22,0.03,0.31,1.0,j
4021.0,880.0,3051.0,2766.0,4095.0,3811.0,3451.0,3981.0,-4.59,8.48,-1.25,-0.4,-0.1,0.08,1.0,j
4003.0,881.0,3039.0,2756.0,4095.0,3789.0,3440.0,4095.0,-3.98,8.78,-1.03,-0.09,-0.08,-0.02,1.0,j
4000.0,882.0,3042.0,2766.0,4095.0,3804.0,3449.0,4095.0,-4.33,8.81,-1.12,-0.03,-0.07,-0.01,1.0,j
3989.0,886.0,3041.0,2761.0,4095.0,3806.0,3449.0,4095.0,-4.41,8.67,-0.89,-0.08,-0.07,-0.06,1.0,j
4087.0,912.0,3040.0,2711.0,4095.0,3846.0,3493.0,4095.0,4.06,9.45,0.58,-0.18,-0.71,-0.15,1.0,j
4095.0,903.0,3056.0,2662.0,4095.0,3853.0,3487.0,4095.0,4.09,8.34,-0.18,-1.07,-0.76,-0.03,1.0,j
4095.0,912.0,3041.0,2590.0,4095.0,3829.0,3485.0,3906.0,3.42,6.28,-0.46,-2.52,-0.57,0.85,1.0,j
4095.0,895.0,3062.0,2667.0,4095.0,3821.0,3501.0,4095.0,3.58,4.21,3.8,-3.2,0.7,1.53,1.0,j
4095.0,897.0,3051.0,2693.0,4095.0,3819.0,3487.0,4095.0,2.8,1.44,10.15,-3.33,3.48,2.33,1.0,j
4095.0,887.0,3060.0,2710.0,4095.0,3821.0,3502.0,4095.0,1.52,0.03,11.83,-1.61,2.82,1.67,1.0,j
4095.0,882.0,3047.0,2715.0,4095.0,3780.0,3477.0,4063.0,-5.35,4.26,12.95,-0.35,2.45,2.13,1.0,j
4095.0,879.0,3045.0,2738.0,4095.0,3777.0,3482.0,4095.0,-3.1,-0.39,9.67,-0.72,3.14,2.22,1.0,j
4092.0,880.0,3051.0,2683.0,4095.0,3777.0,3470.0,2994.0,-5.78,-1.38,9.93,-0.31,3.47,4.13,1.0,j
4044.0,880.0,3051.0,2755.0,4095.0,3742.0,3456.0,3142.0,-10.12,3.4,6.88,1.06,5.02,3.8,1.0,j
4049.0,881.0,3043.0,2688.0,4095.0,3790.0,3465.0,4095.0,-8.84,6.67,1.36,0.09,2.6,2.89,1.0,j
4038.0,886.0,3040.0,2682.0,4095.0,3792.0,3461.0,4095.0,-5.77,6.53,-0.38,-0.69,0.93,2.01,1.0,j
4079.0,884.0,3047.0,2688.0,4095.0,3797.0,3473.0,4095.0,-3.4,6.95,-0.02,-0.47,-0.07,0.57,1.0,j
4059.0,887.0,3041.0,2710.0,4095.0,3789.0,3475.0,4095.0,-4.79,7.88,0.04,-0.12,0.42,0.22,1.0,j
4082.0,880.0,3053.0,2730.0,4095.0,3818.0,3477.0,4095.0,-4.59,8.4,0.05,-0.11,-0.15,-0.15,1.0,j
4063.0,883.0,3041.0,2743.0,4095.0,3810.0,3474.0,4095.0,-4.87,8.5,0.08,-0.01,-0.01,-0.16,1.0,j
4074.0,880.0,3055.0,2751.0,4095.0,3826.0,3500.0,4095.0,-4.8,8.74,-0.31,0.03,-0.22,-0.16,1.0,j
4083.0,891.0,3051.0,2752.0,4095.0,3805.0,3473.0,4095.0,-5.01,8.66,-0.12,-0.01,-0.21,-0.23,1.0,j
4084.0,887.0,3041.0,2743.0,4095.0,3806.0,3512.0,4095.0,-4.99,8.61,0.06,0.01,-0.13,-0.1,1.0,j
4084.0,886.0,3046.0,2755.0,4095.0,3814.0,3486.0,4095.0,-4.79,8.49,0.12,-0.0,0.07,-0.07,1.0,j
4048.0,885.0,3024.0,2743.0,4095.0,3792.0,3441.0,4032.0,-3.43,8.72,5.62,0.63,-6.42,-0.61,1.0,j
4093.0,889.0,3024.0,2789.0,4095.0,3831.0,3474.0,4095.0,2.08,7.99,5.56,0.09,-6.83,-0.69,1.0,j
4095.0,907.0,3025.0,2725.0,4095.0,3815.0,3485.0,4095.0,3.93,8.24,3.84,1.49,-5.12,-2.32,1.0,j
4095.0,938.0,3039.0,2751.0,4095.0,3882.0,3509.0,4095.0,1.54,8.75,0.39,1.67,-1.61,-1.29,1.0,j
4095.0,939.0,3039.0,2819.0,4095.0,3888.0,3525.0,4095.0,-0.65,8.26,-1.73,0.5,-1.37,-0.89,1.0,j
4095.0,925.0,3033.0,2783.0,4095.0,3843.0,3507.0,4095.0,0.01,8.65,-1.94,-1.2,-0.35,0.83,1.0,j
4095.0,921.0,3040.0,2678.0,4095.0,3878.0,3519.0,4067.0,1.39,7.57,-0.68,-2.72,0.86,0.66,1.0,j
4095.0,919.0,3033.0,2702.0,4095.0,3858.0,3494.0,4048.0,1.77,5.22,1.69,-3.58,1.39,2.6,1.0,j
4095.0,901.0,3030.0,2743.0,4095.0,3872.0,3497.0,4095.0,4.13,1.06,5.57,-4.72,1.54,3.03,1.0,j
4095.0,901.0,3040.0,2759.0,4095.0,3835.0,3504.0,4095.0,0.86,-5.07,8.91,-5.25,3.51,2.97,1.0,j
4095.0,883.0,3052.0,2794.0,4095.0,3854.0,3505.0,4095.0,-2.8,-6.19,8.55,-3.76,5.1,2.83,1.0,j
4095.0,891.0,3047.0,2786.0,4095.0,3870.0,3486.0,3295.0,-9.57,-8.54,9.1,-2.24,4.32,4.18,1.0,j
4048.0,863.0,3040.0,2752.0,4095.0,3920.0,3504.0,2070.0,-12.03,-3.46,3.02,-1.07,4.53,4.89,1.0,j
4061.0,885.0,3027.0,2697.0,4095.0,3921.0,3486.0,4095.0,-10.71,0.17,-1.29,-0.81,-0.02,3.3,1.0,j
4085.0,886.0,3042.0,2721.0,4095.0,3925.0,3471.0,4095.0,-9.09,2.7,-3.08,-1.03,0.94,3.94,1.0,j
4087.0,882.0,3040.0,2706.0,4095.0,3890.0,3485.0,4095.0,-5.26,4.96,-1.34,-1.01,0.17,2.78,1.0,j
4094.0,883.0,3033.0,2674.0,4095.0,3856.0,3471.0,4095.0,-2.92,6.65,-0.46,-0.39,0.62,1.59,1.0,j
4095.0,889.0,3040.0,2704.0,4095.0,3882.0,3485.0,4095.0,-2.8,8.32,-0.96,0.05,0.23,0.43,1.0,j
4095.0,891.0,3031.0,2697.0,4095.0,3871.0,3483.0,4095.0,-3.79,9.05,-1.39,-0.23,-0.03,-0.0,1.0,j
4095.0,885.0,3034.0,2703.0,4095.0,3877.0,3501.0,4095.0,-2.86,9.27,-1.31,-0.11,-0.15,-0.11,1.0,j
4095.0,942.0,3046.0,2733.0,4095.0,3902.0,3541.0,4095.0,1.95,9.53,-0.87,0.16,-0.11,-0.28,1.0,j
4095.0,955.0,3050.0,2758.0,4095.0,3910.0,3559.0,4095.0,2.25,9.63,-0.43,-0.21,0.2,0.23,1.0,j
4095.0,942.0,3041.0,2748.0,4095.0,3898.0,3548.0,4095.0,2.58,8.91,-1.6,-1.15,0.57,0.31,1.0,j
4095.0,940.0,3053.0,2704.0,4095.0,3898.0,3539.0,3841.0,1.29,5.96,-1.01,-3.41,2.69,1.72,1.0,j
4095.0,913.0,3047.0,2650.0,4095.0,3878.0,3550.0,4086.0,2.55,1.83,6.87,-5.27,3.05,2.16,1.0,j
4095.0,893.0,3053.0,2747.0,4095.0,3862.0,3503.0,4081.0,-3.25,-1.59,12.48,-4.22,5.0,2.34,1.0,j
4094.0,873.0,3051.0,2658.0,4095.0,3836.0,3522.0,3853.0,-4.54,-1.89,13.92,-1.43,3.56,3.0,1.0,j
4027.0,868.0,3034.0,2640.0,4095.0,3843.0,3504.0,4095.0,-7.53,-0.81,9.15,-0.39,4.33,2.27,1.0,j
4070.0,880.0,3043.0,2707.0,4095.0,3840.0,3505.0,4095.0,-10.04,1.38,3.48,-1.14,2.13,1.49,1.0,j
4055.0,880.0,3040.0,2687.0,4095.0,3859.0,3502.0,4095.0,-11.1,1.74,2.3,-0.85,1.85,1.53,1.0,j
4089.0,881.0,3039.0,2704.0,4095.0,3874.0,3511.0,4095.0,-10.51,3.36,-0.69,-0.57,1.21,2.05,1.0,j
4058.0,883.0,3044.0,2705.0,4095.0,3858.0,3493.0,4095.0,-8.85,5.19,-2.01,-0.62,0.72,2.16,1.0,j
4095.0,880.0,3046.0,2711.0,4095.0,3849.0,3501.0,4095.0,-6.58,6.32,-1.56,-0.62,0.29,2.0,1.0,j
4095.0,897.0,3033.0,2683.0,4095.0,3871.0,3504.0,4095.0,-3.22,6.61,-0.97,-0.31,0.24,1.46,1.0,j
4095.0,906.0,3039.0,2694.0,4095.0,3888.0,3522.0,4095.0,-2.64,7.89,-0.29,-0.01,0.2,0.59,1.0,j
4095.0,919.0,3042.0,2707.0,4095.0,3904.0,3533.0,4095.0,-3.14,9.21,-1.77,0.07,0.01,-0.01,1.0,j
4095.0,911.0,3037.0,2704.0,4095.0,3890.0,3509.0,4095.0,-3.25,9.27,-1.33,-0.09,-0.16,-0.13,1.0,j
4095.0,912.0,3041.0,2714.0,4095.0,3899.0,3527.0,4095.0,-3.3,9.24,-1.15,-0.11,-0.15,-0.14,1.0,j
4095.0,912.0,3035.0,2725.0,4095.0,3898.0,3521.0,4095.0,-3.34,9.25,-0.98,-0.06,-0.02,-0.06,1.0,j
4095.0,901.0,3045.0,2729.0,4095.0,3910.0,3536.0,4095.0,-3.41,9.15,-0.98,-0.06,-0.12,-0.11,1.0,j
4095.0,945.0,3056.0,2732.0,4095.0,3885.0,3546.0,4095.0,3.14,9.4,-1.81,0.15,-0.07,-0.1,1.0,j
4095.0,946.0,3041.0,2709.0,4095.0,3860.0,3536.0,4095.0,3.19,9.29,-2.07,-0.36,0.08,0.12,1.0,j
4095.0,950.0,3048.0,2715.0,4095.0,3888.0,3552.0,4095.0,1.94,9.17,-1.82,-1.22,-0.56,0.38,1.0,j
4095.0,953.0,3039.0,2674.0,4095.0,3863.0,3535.0,4095.0,2.93,7.71,0.73,-1.33,-0.19,1.11,1.0,j
4095.0,944.0,3043.0,2677.0,4095.0,3892.0,3554.0,4095.0,5.31,6.73,3.35,-1.71,0.28,1.71,1.0,j
4095.0,945.0,3050.0,2629.0,4095.0,3888.0,3538.0,4004.0,7.07,6.01,4.9,-1.56,1.82,1.72,1.0,j
4095.0,952.0,3053.0,2656.0,4095.0,3910.0,3549.0,4087.0,6.63,4.17,7.04,-1.88,2.13,1.85,1.0,j
4095.0,939.0,3036.0,2703.0,4095.0,3907.0,3561.0,4011.0,6.06,1.74,9.28,-1.6,1.82,1.61,1.0,j
4095.0,938.0,3024.0,2699.0,4095.0,3871.0,3537.0,3910.0,5.0,0.56,10.02,-1.39,1.75,1.27,1.0,j
4095.0,938.0,3036.0,2753.0,4095.0,3886.0,3563.0,4095.0,1.88,-1.28,10.44,-1.25,1.68,1.16,1.0,j
4095.0,931.0,3047.0,2762.0,4095.0,3902.0,3554.0,4095.0,0.06,-1.8,11.33,-1.05,2.08,1.48,1.0,j
4095.0,922.0,3041.0,2767.0,4095.0,3919.0,3547.0,4095.0,-1.73,-2.1,11.29,-0.4,2.5,1.95,1.0,j
4095.0,886.0,3037.0,2749.0,4095.0,3823.0,3504.0,4039.0,-4.48,-1.22,9.33,-0.1,3.15,2.74,1.0,j
4095.0,880.0,3049.0,2740.0,4095.0,3825.0,3504.0,2107.0,-10.41,0.36,5.53,-0.36,2.77,1.58,1.0,j
4095.0,889.0,3037.0,2706.0,4095.0,3833.0,3513.0,4095.0,-9.95,1.46,4.93,-0.45,1.89,2.0,1.0,j
4095.0,886.0,3035.0,2702.0,4095.0,3884.0,3525.0,4095.0,-9.69,3.13,2.05,-0.51,2.15,2.29,1.0,j
4095.0,882.0,3037.0,2687.0,4095.0,3837.0,3523.0,4095.0,-8.95,4.9,0.46,-0.67,1.42,2.32,1.0,j
4095.0,893.0,3030.0,2697.0,4095.0,3847.0,3521.0,4095.0,-7.9,6.2,0.83,-0.7,0.59,2.25,1.0,j
4095.0,903.0,3037.0,2738.0,4095.0,3840.0,3527.0,4095.0,-5.41,7.5,1.12,-0.38,0.23,2.05,1.0,j
4095.0,902.0,3026.0,2721.0,4095.0,3855.0,3535.0,4095.0,-2.17,7.93,0.39,-0.33,0.25,1.39,1.0,j
4095.0,954.0,3036.0,2732.0,4095.0,3809.0,3554.0,4095.0,3.85,8.4,1.91,-1.27,0.8,0.67,1.0,j
4095.0,946.0,3040.0,2747.0,4095.0,3857.0,3557.0,4095.0,3.27,7.32,3.47,-1.86,1.26,1.15,1.0,j
4095.0,947.0,3041.0,2726.0,4095.0,3849.0,3559.0,3867.0,3.8,5.59,6.67,-2.42,1.8,1.39,1.0,j
4095.0,935.0,3034.0,2717.0,4095.0,3822.0,3542.0,4086.0,3.32,3.33,9.49,-2.32,1.71,1.14,1.0,j
4095.0,927.0,3041.0,2756.0,4095.0,3827.0,3553.0,4035.0,1.79,1.33,10.65,-1.89,1.95,1.1,1.0,j
4095.0,917.0,3029.0,2768.0,4095.0,3835.0,3554.0,4095.0,-1.14,-0.24,10.77,-1.74,2.29,1.43,1.0,j
4095.0,909.0,3047.0,2769.0,4095.0,3847.0,3542.0,4078.0,-3.45,-1.39,10.82,-1.13,2.45,1.61,1.0,j
4095.0,889.0,3027.0,2766.0,4095.0,3767.0,3517.0,3854.0,-4.98,-1.18,10.62,-0.74,2.2,1.99,1.0,j
4095.0,882.0,3021.0,2737.0,4095.0,3781.0,3536.0,2011.0,-8.73,-0.21,8.36,-0.28,2.22,1.59,1.0,j
4095.0,875.0,3039.0,2736.0,4095.0,3763.0,3520.0,2117.0,-7.99,1.09,5.83,-0.29,1.66,1.58,1.0,j
4095.0,880.0,3034.0,2753.0,4095.0,3784.0,3545.0,4095.0,-8.45,1.77,3.45,-0.65,1.96,1.56,1.0,j
4095.0,887.0,3021.0,2765.0,4095.0,3753.0,3536.0,4095.0,-9.1,2.76,2.5,-0.69,1.77,1.56,1.0,j
4095.0,880.0,3042.0,2763.0,4095.0,3770.0,3539.0,4095.0,-8.97,4.2,0.51,-0.64,1.25,1.35,1.0,j
4095.0,881.0,3032.0,2731.0,4095.0,3760.0,3515.0,4095.0,-8.74,5.49,-0.04,-0.77,0.82,1.21,1.0,j
4095.0,885.0,3031.0,2716.0,4095.0,3775.0,3510.0,4095.0,-7.57,6.14,0.54,-0.72,0.05,1.02,1.0,j
4095.0,893.0,3031.0,2766.0,4095.0,3795.0,3521.0,4095.0,-6.66,6.83,0.82,-0.38,0.12,1.07,1.0,j
4095.0,903.0,3029.0,2725.0,4095.0,3787.0,3509.0,4095.0,-5.44,7.81,0.27,-0.4,0.2,1.05,1.0,j
4095.0,895.0,3034.0,2682.0,4095.0,3824.0,3525.0,4095.0,-4.91,8.79,1.01,-0.52,-0.12,0.88,1.0,j
4095.0,912.0,3035.0,2690.0,4095.0,3806.0,3520.0,4095.0,-3.45,8.64,2.19,-0.51,-0.12,0.98,1.0,j
4095.0,919.0,3038.0,2681.0,4095.0,3841.0,3543.0,4095.0,-2.17,8.45,2.1,-0.33,0.29,0.7,1.0,j
3216.0,1467.0,3026.0,2559.0,4005.0,3071.0,3089.0,4095.0,1.7,10.06,-0.62,-0.5,0.14,0.02,1.0,j
3223.0,1435.0,3038.0,2549.0,4011.0,3071.0,3094.0,4095.0,2.2,9.36,-1.22,-1.17,0.48,0.12,1.0,j
3221.0,1394.0,3023.0,2531.0,3984.0,3055.0,3091.0,4095.0,2.13,7.46,-0.2,-2.47,1.55,0.41,1.0,j
3231.0,1370.0,3029.0,2534.0,4017.0,3068.0,3088.0,4095.0,1.83,4.26,6.18,-3.7,1.78,1.2,1.0,j
3204.0,1323.0,3025.0,2545.0,4016.0,3088.0,3061.0,4095.0,1.14,2.93,10.93,-3.02,1.44,0.86,1.0,j
3230.0,1287.0,3027.0,2549.0,4041.0,3094.0,3068.0,4095.0,-1.06,1.54,11.32,-2.82,2.5,1.01,1.0,j
3222.0,1242.0,3031.0,2547.0,4017.0,3089.0,3056.0,4095.0,-3.76,0.11,11.71,-2.15,2.65,1.12,1.0,j
3233.0,1171.0,3038.0,2446.0,4021.0,3099.0,3061.0,4095.0,-6.76,-0.26,10.41,-1.43,3.54,1.82,1.0,j
3217.0,1143.0,3034.0,2547.0,3935.0,3091.0,3039.0,4095.0,-9.15,0.35,6.82,-0.87,3.3,1.79,1.0,j
3221.0,1099.0,3037.0,2559.0,3975.0,3105.0,3057.0,4095.0,-10.36,0.89,4.17,-0.38,1.61,1.7,1.0,j
3233.0,1070.0,3039.0,2542.0,3995.0,3102.0,3056.0,4095.0,-9.61,2.16,2.23,-0.1,1.05,1.89,1.0,j
3221.0,1051.0,3037.0,2554.0,3961.0,3095.0,3058.0,4095.0,-8.09,3.62,1.87,0.02,0.52,1.83,1.0,j
3232.0,1040.0,3044.0,2558.0,4010.0,3104.0,3071.0,4095.0,-7.32,5.56,1.32,0.2,0.01,1.57,1.0,j
3217.0,1038.0,3035.0,2523.0,3981.0,3095.0,3062.0,4095.0,-6.28,6.9,1.53,0.2,-0.72,1.16,1.0,j
3234.0,1046.0,3040.0,2559.0,4016.0,3104.0,3071.0,4095.0,-4.88,7.42,1.46,0.26,-0.76,0.74,1.0,j
3220.0,1051.0,3039.0,2551.0,4048.0,3094.0,3071.0,4095.0,-4.28,8.14,1.32,0.22,-0.7,0.35,1.0,j
3242.0,1057.0,3047.0,2559.0,4026.0,3093.0,3084.0,4095.0,-4.36,8.47,1.3,0.07,-0.24,0.19,1.0,j
3218.0,1049.0,3038.0,2541.0,4027.0,3088.0,3067.0,4095.0,-4.05,8.89,1.53,0.0,-0.23,0.18,1.0,j
3234.0,1050.0,3036.0,2559.0,4030.0,3088.0,3071.0,4095.0,-4.08,8.94,1.66,-0.11,-0.04,0.26,1.0,j
3227.0,1041.0,3044.0,2554.0,4026.0,3088.0,3085.0,4095.0,-3.93,9.0,2.17,-0.2,-0.11,0.29,1.0,j
3229.0,1520.0,3023.0,2559.0,4095.0,3155.0,3146.0,3975.0,3.11,9.12,-0.48,-0.22,-0.2,-0.2,1.0,j
3244.0,1514.0,3024.0,2559.0,4095.0,3163.0,3150.0,4035.0,2.81,8.95,-0.79,-0.75,0.53,0.13,1.0,j
3232.0,1502.0,3035.0,2557.0,4095.0,3158.0,3143.0,3725.0,1.67,7.99,0.24,-2.18,2.29,0.93,1.0,j
3245.0,1502.0,3035.0,2559.0,4095.0,3157.0,3147.0,3644.0,2.26,6.96,3.69,-2.4,1.49,1.13,1.0,j
3219.0,1472.0,3011.0,2535.0,4095.0,3135.0,3123.0,3635.0,2.49,4.79,8.03,-2.72,1.93,1.23,1.0,j
3234.0,1439.0,3028.0,2594.0,4095.0,3169.0,3133.0,3815.0,2.24,3.01,9.67,-2.47,2.62,1.42,1.0,j
3231.0,1394.0,3026.0,2599.0,4095.0,3172.0,3126.0,4095.0,-0.5,0.79,12.05,-2.46,3.44,1.84,1.0,j
3239.0,1296.0,3034.0,2528.0,4095.0,3169.0,3122.0,3973.0,-3.88,-0.88,12.06,-1.38,2.97,1.89,1.0,j
3243.0,1085.0,3039.0,2530.0,4037.0,3161.0,3103.0,4095.0,-6.39,-0.28,8.95,-1.01,4.79,2.47,1.0,j
3237.0,1035.0,3039.0,2544.0,4035.0,3151.0,3093.0,4095.0,-11.02,0.96,4.72,-0.94,2.47,1.52,1.0,j
3242.0,1040.0,3041.0,2544.0,4095.0,3165.0,3120.0,4095.0,-10.11,2.15,2.77,-0.69,1.04,1.61,1.0,j
3243.0,1042.0,3037.0,2537.0,4047.0,3154.0,3113.0,4095.0,-9.99,3.41,1.73,-0.46,0.86,1.86,1.0,j
3233.0,1042.0,3030.0,2543.0,4095.0,3162.0,3124.0,4095.0,-9.14,4.81,1.3,-0.32,0.38,2.01,1.0,j
3225.0,1041.0,3028.0,2545.0,4080.0,3152.0,3109.0,4095.0,-7.11,6.38,0.91,-0.21,0.02,2.15,1.0,j
3239.0,1080.0,3035.0,2550.0,4095.0,3153.0,3121.0,4095.0,-3.98,7.47,0.51,-0.1,0.27,1.89,1.0,j
3237.0,1104.0,3039.0,2512.0,4095.0,3151.0,3122.0,4095.0,-3.1,8.45,0.64,-0.34,0.45,1.36,1.0,j
3254.0,1136.0,3037.0,2543.0,4095.0,3152.0,3139.0,4095.0,-1.85,8.77,1.13,-0.09,-0.06,0.59,1.0,j
3247.0,1166.0,3038.0,2559.0,4095.0,3152.0,3135.0,4095.0,-2.08,8.95,0.55,-0.16,0.05,0.07,1.0,j
3243.0,1185.0,3049.0,2587.0,4095.0,3162.0,3147.0,4095.0,-2.49,9.1,1.34,-0.07,-0.14,-0.21,1.0,j
3243.0,1183.0,3035.0,2587.0,4095.0,3154.0,3149.0,4095.0,-2.5,9.57,1.13,0.04,-0.02,-0.23,1.0,j
3275.0,1619.0,3045.0,2653.0,4095.0,3186.0,3187.0,3810.0,2.53,9.47,-1.82,-0.27,0.0,-0.08,1.0,j
3249.0,1613.0,3039.0,2644.0,4095.0,3173.0,3175.0,3903.0,2.57,9.33,-2.22,-1.14,0.14,0.28,1.0,j
3255.0,1612.0,3044.0,2526.0,4095.0,3200.0,3198.0,3648.0,1.95,8.64,-0.27,-2.72,3.15,0.41,1.0,j
3220.0,1562.0,3027.0,2513.0,4095.0,3182.0,3169.0,4095.0,1.41,7.54,4.09,-2.51,1.66,0.49,1.0,j
3234.0,1511.0,3026.0,2546.0,4095.0,3175.0,3169.0,4048.0,0.84,5.81,6.6,-2.84,1.64,0.56,1.0,j
3234.0,1415.0,3027.0,2559.0,4095.0,3171.0,3152.0,4095.0,0.3,3.61,9.76,-2.81,2.1,0.64,1.0,j
3241.0,1291.0,3035.0,2559.0,4095.0,3190.0,3167.0,4095.0,-2.14,0.89,9.95,-2.36,2.19,0.74,1.0,j
3267.0,1209.0,3027.0,2614.0,4095.0,3197.0,3157.0,4095.0,-3.88,-0.08,10.65,-1.75,2.72,1.44,1.0,j
3245.0,1072.0,3039.0,2502.0,4095.0,3183.0,3136.0,1845.0,-5.7,-0.59,11.25,-0.9,2.83,2.2,1.0,j
3248.0,1052.0,3038.0,2607.0,4095.0,3198.0,3152.0,4095.0,-8.49,0.27,8.17,-0.51,2.14,1.42,1.0,j
3249.0,1069.0,3024.0,2614.0,4095.0,3184.0,3150.0,4095.0,-8.95,2.36,3.59,-0.1,2.7,1.6,1.0,j
3247.0,1065.0,3028.0,2624.0,4095.0,3194.0,3147.0,4095.0,-10.92,3.5,1.52,-0.72,2.26,1.82,1.0,j
3235.0,1077.0,3026.0,2609.0,4095.0,3175.0,3151.0,4095.0,-10.95,4.09,1.21,-0.68,0.68,2.12,1.0,j
3251.0,1120.0,3036.0,2586.0,4095.0,3198.0,3165.0,4095.0,-6.92,6.07,0.96,-0.48,0.04,2.62,1.0,j
3248.0,1189.0,3031.0,2519.0,4095.0,3201.0,3179.0,4095.0,-4.2,7.41,1.07,-0.41,0.05,2.06,1.0,j
3264.0,1267.0,3047.0,2597.0,4095.0,3214.0,3187.0,3611.0,-3.08,8.39,1.38,-0.22,0.28,1.4,1.0,j
3253.0,1287.0,3031.0,2592.0,4095.0,3212.0,3191.0,3569.0,-2.43,8.72,1.18,-0.15,0.03,0.62,1.0,j
3270.0,1316.0,3055.0,2599.0,4095.0,3212.0,3197.0,3519.0,-1.52,8.93,0.87,-0.18,-0.11,0.05,1.0,j
3263.0,1323.0,3041.0,2597.0,4095.0,3222.0,3216.0,4095.0,-1.97,9.22,1.65,-0.13,-0.14,-0.21,1.0,j
3261.0,1339.0,3049.0,2611.0,4095.0,3219.0,3190.0,4095.0,-2.24,9.53,1.65,0.07,-0.09,-0.28,1.0,j
3281.0,1610.0,3047.0,2627.0,4095.0,3233.0,3235.0,4095.0,2.24,8.26,-0.88,-1.34,0.01,0.48,1.0,j
3261.0,1613.0,3041.0,2599.0,4095.0,3209.0,3238.0,4095.0,3.84,7.45,1.16,-1.82,0.79,1.28,1.0,j
3284.0,1611.0,3053.0,2559.0,4095.0,3211.0,3239.0,4095.0,5.42,5.53,4.51,-2.68,1.98,2.12,1.0,j
3274.0,1591.0,3035.0,2559.0,4095.0,3221.0,3229.0,4095.0,3.87,2.43,9.37,-3.03,3.12,2.07,1.0,j
3261.0,1529.0,3047.0,2608.0,4095.0,3236.0,3234.0,4095.0,1.45,0.2,12.87,-2.19,3.03,1.79,1.0,j
3263.0,1457.0,3049.0,2635.0,4095.0,3243.0,3225.0,4095.0,-2.12,-0.35,11.59,-1.53,3.51,2.07,1.0,j
3299.0,1226.0,3056.0,2449.0,4095.0,3225.0,3190.0,4095.0,-3.21,0.41,10.36,-0.56,4.29,2.86,1.0,j
3291.0,1159.0,3055.0,2544.0,4095.0,3230.0,3189.0,4095.0,-11.23,1.68,5.99,-0.94,2.72,1.5,1.0,j
3265.0,1139.0,3037.0,2559.0,4095.0,3230.0,3187.0,4095.0,-9.82,1.94,3.65,-0.88,2.31,2.04,1.0,j
3260.0,1136.0,3052.0,2559.0,4095.0,3236.0,3200.0,4095.0,-10.36,3.43,1.55,-0.74,1.86,2.04,1.0,j
3280.0,1142.0,3047.0,2535.0,4095.0,3219.0,3198.0,4095.0,-9.36,4.93,0.62,-0.67,0.81,2.0,1.0,j
3280.0,1150.0,3044.0,2559.0,4095.0,3230.0,3202.0,4095.0,-7.85,6.13,0.58,-0.7,0.26,2.13,1.0,j
3278.0,1183.0,3047.0,2559.0,4095.0,3218.0,3201.0,3778.0,-5.4,6.92,1.26,-0.43,0.3,1.98,1.0,j
3265.0,1242.0,3047.0,2596.0,4095.0,3233.0,3239.0,4095.0,-2.78,7.69,0.52,-0.25,0.34,1.22,1.0,j
3270.0,1281.0,3046.0,2599.0,4095.0,3234.0,3219.0,4095.0,-1.87,7.93,0.21,-0.16,0.17,0.26,1.0,j
3289.0,1282.0,3071.0,2625.0,4095.0,3238.0,3227.0,4095.0,-2.78,8.95,0.94,-0.13,-0.04,-0.13,1.0,j
3265.0,1287.0,3046.0,2625.0,4095.0,3246.0,3223.0,4095.0,-3.14,9.43,0.83,0.01,-0.0,-0.23,1.0,j
3273.0,1291.0,3061.0,2640.0,4095.0,3249.0,3241.0,4095.0,-3.34,9.39,0.75,0.01,-0.08,-0.22,1.0,j
3268.0,1289.0,3038.0,2641.0,4095.0,3238.0,3233.0,4095.0,-3.43,9.23,0.64,-0.0,-0.04,-0.29,1.0,j
3274.0,1281.0,3056.0,2639.0,4095.0,3233.0,3222.0,4095.0,-3.99,9.17,0.72,-0.09,-0.25,-0.32,1.0,j
3307.0,1593.0,3070.0,2640.0,4095.0,3265.0,3265.0,4095.0,2.69,9.26,0.0,-0.6,0.01,0.19,1.0,j
3295.0,1579.0,3055.0,2601.0,4095.0,3251.0,3250.0,4095.0,2.14,8.63,1.31,-1.16,0.49,0.73,1.0,j
3296.0,1582.0,3050.0,2593.0,4095.0,3254.0,3271.0,4095.0,4.16,8.68,1.72,-1.13,0.35,0.34,1.0,j
3291.0,1557.0,3053.0,2608.0,4095.0,3267.0,3259.0,4095.0,2.52,7.4,3.5,-1.35,0.3,0.67,1.0,j
3299.0,1557.0,3057.0,2627.0,4095.0,3247.0,3264.0,4095.0,3.69,6.26,5.59,-1.36,0.04,1.07,1.0,j
3289.0,1535.0,3056.0,2638.0,4095.0,3253.0,3275.0,4095.0,5.82,5.98,5.96,-1.01,0.4,1.08,1.0,j
3285.0,1533.0,3054.0,2635.0,4095.0,3248.0,3266.0,4095.0,6.06,4.92,7.64,-0.88,0.34,0.87,1.0,j
3301.0,1534.0,3059.0,2639.0,4095.0,3255.0,3271.0,4095.0,5.9,4.44,8.02,-0.78,2.04,1.11,1.0,j
3279.0,1499.0,3039.0,2643.0,4095.0,3235.0,3235.0,4095.0,2.78,2.52,10.07,-0.87,3.77,1.77,1.0,j
3269.0,1475.0,3034.0,2618.0,4095.0,3254.0,3247.0,4095.0,0.95,1.82,11.01,-0.23,3.56,1.62,1.0,j
3283.0,1493.0,3052.0,2603.0,4095.0,3276.0,3251.0,4095.0,-2.06,2.07,9.24,-0.73,3.89,1.07,1.0,j
3297.0,1312.0,3045.0,2653.0,4095.0,3263.0,3230.0,4095.0,-5.99,2.78,7.22,-0.61,4.46,2.4,1.0,j
3296.0,1216.0,3035.0,2645.0,4095.0,3246.0,3201.0,4095.0,-11.27,3.16,4.45,-0.55,3.56,1.26,1.0,j
3300.0,1189.0,3051.0,2628.0,4095.0,3265.0,3227.0,4095.0,-11.31,3.93,3.03,-0.58,3.21,1.91,1.0,j
3287.0,1199.0,3051.0,2626.0,4095.0,3263.0,3221.0,4095.0,-9.57,4.89,-0.02,-0.63,1.72,2.15,1.0,j
3305.0,1259.0,3062.0,2621.0,4095.0,3254.0,3261.0,4095.0,-6.44,6.73,0.04,-0.94,0.88,1.89,1.0,j
3291.0,1317.0,3056.0,2627.0,4095.0,3264.0,3241.0,4095.0,-5.99,7.95,0.69,-0.79,0.75,1.56,1.0,j
3290.0,1377.0,3040.0,2607.0,4095.0,3259.0,3241.0,4095.0,-3.06,8.09,0.72,-0.6,0.1,1.38,1.0,j
3291.0,1446.0,3043.0,2605.0,4095.0,3279.0,3262.0,4095.0,-0.67,8.14,0.5,-0.19,0.13,0.28,1.0,j
3299.0,1449.0,3044.0,2614.0,4095.0,3266.0,3255.0,4095.0,-2.55,9.02,0.16,-0.1,0.08,-0.2,1.0,j
3305.0,1631.0,3047.0,2586.0,4095.0,3285.0,3274.0,4095.0,4.31,9.66,-0.74,-0.68,0.22,-0.06,1.0,j
3297.0,1662.0,3046.0,2590.0,4095.0,3296.0,3294.0,4095.0,3.42,8.92,-0.0,-1.28,1.21,0.32,1.0,j
3303.0,1655.0,3049.0,2602.0,4095.0,3316.0,3294.0,4095.0,3.14,7.99,1.31,-1.45,0.2,0.38,1.0,j
3317.0,1648.0,3055.0,2615.0,4095.0,3292.0,3283.0,4095.0,3.56,6.47,3.74,-2.19,0.94,0.83,1.0,j
3307.0,1629.0,3046.0,2619.0,4095.0,3282.0,3281.0,4095.0,2.99,4.64,6.85,-2.56,1.91,1.18,1.0,j
3310.0,1584.0,3057.0,2642.0,4095.0,3280.0,3282.0,4095.0,1.87,1.67,9.64,-2.69,2.96,1.7,1.0,j
3261.0,1513.0,3023.0,2638.0,4095.0,3265.0,3248.0,4095.0,0.65,0.3,10.72,-2.11,2.66,1.25,1.0,j
3281.0,1438.0,3027.0,2637.0,4095.0,3267.0,3241.0,3968.0,-0.45,-0.96,11.64,-1.4,1.81,1.12,1.0,j
3297.0,1281.0,3022.0,2626.0,4095.0,3262.0,3218.0,4031.0,-2.99,-1.82,11.5,-0.75,2.64,1.42,1.0,j
3295.0,1130.0,3034.0,2535.0,4095.0,3251.0,3211.0,1895.0,-9.28,-1.63,8.02,-0.72,2.89,1.4,1.0,j
3303.0,1123.0,3040.0,2634.0,4095.0,3274.0,3228.0,2055.0,-9.55,-0.57,6.13,-0.7,2.21,1.31,1.0,j
3286.0,1110.0,3026.0,2643.0,4095.0,3259.0,3218.0,4095.0,-10.18,0.62,3.48,-0.76,2.21,1.44,1.0,j
3282.0,1101.0,3025.0,2642.0,4095.0,3268.0,3219.0,4095.0,-10.94,1.5,2.38,-0.83,1.58,1.53,1.0,j
3274.0,1119.0,3017.0,2626.0,4095.0,3238.0,3197.0,3806.0,-10.52,3.25,1.11,-0.65,1.14,1.78,1.0,j
3269.0,1146.0,3015.0,2626.0,4095.0,3231.0,3201.0,3475.0,-9.06,4.86,0.35,-0.48,0.54,1.93,1.0,j
3273.0,1168.0,3013.0,2559.0,4095.0,3239.0,3201.0,3568.0,-7.72,5.98,0.28,-0.35,-0.2,1.98,1.0,j
3312.0,1219.0,3045.0,2645.0,4095.0,3273.0,3248.0,3567.0,-5.46,6.96,1.12,-0.15,-0.42,2.01,1.0,j
3303.0,1286.0,3053.0,2651.0,4095.0,3299.0,3263.0,4095.0,-3.22,7.81,1.76,0.1,-0.24,1.62,1.0,j
3307.0,1361.0,3042.0,2630.0,4095.0,3290.0,3264.0,4095.0,-1.36,8.86,0.83,0.09,0.28,1.25,1.0,j
3325.0,1436.0,3046.0,2626.0,4095.0,3311.0,3287.0,4095.0,-1.05,9.37,0.57,-0.08,0.34,0.47,1.0,j
3309.0,1522.0,3042.0,2647.0,4095.0,3280.0,3273.0,4095.0,2.59,8.93,2.37,0.84,-1.99,-0.66,1.0,j
3328.0,1569.0,3043.0,2640.0,4095.0,3301.0,3293.0,4095.0,2.86,9.04,-0.26,0.3,-0.94,-0.25,1.0,j
3312.0,1555.0,3039.0,2663.0,4095.0,3300.0,3283.0,4095.0,1.96,8.48,-1.53,-0.87,-0.77,-0.22,1.0,j
3313.0,1579.0,3038.0,2673.0,4095.0,3312.0,3294.0,4095.0,2.45,8.25,1.41,-1.1,-0.99,-0.28,1.0,j
3317.0,1572.0,3031.0,2661.0,4095.0,3307.0,3284.0,4095.0,2.98,7.74,3.26,-1.51,0.03,0.19,1.0,j
3318.0,1571.0,3029.0,2661.0,4095.0,3319.0,3300.0,4095.0,2.85,7.83,4.11,-1.78,1.0,1.0,1.0,j
3308.0,1567.0,3037.0,2660.0,4095.0,3315.0,3292.0,4095.0,4.62,7.54,6.28,-2.46,3.08,1.27,1.0,j
3312.0,1514.0,3038.0,2661.0,4095.0,3311.0,3280.0,4095.0,-0.01,4.3,9.31,-1.93,2.42,0.75,1.0,j
3313.0,1456.0,3030.0,2684.0,4095.0,3309.0,3271.0,4095.0,-2.15,2.11,10.55,-1.52,1.12,0.93,1.0,j
3281.0,1458.0,3012.0,2679.0,4095.0,3281.0,3246.0,4095.0,-0.44,1.36,10.57,-1.78,1.75,1.41,1.0,j
3307.0,1422.0,3019.0,2652.0,4095.0,3293.0,3257.0,4095.0,-4.1,0.11,10.0,-1.62,3.15,1.62,1.0,j
3290.0,1296.0,3013.0,2517.0,4095.0,3269.0,3216.0,4095.0,-6.1,1.68,7.76,-1.11,5.11,1.73,1.0,j
3310.0,1280.0,3030.0,2610.0,4095.0,3283.0,3229.0,4095.0,-10.27,2.17,4.18,-1.14,2.95,1.18,1.0,j
3295.0,1248.0,3024.0,2638.0,4095.0,3285.0,3216.0,4095.0,-12.04,3.12,1.81,-0.84,2.39,1.99,1.0,j
3282.0,1261.0,3019.0,2622.0,4095.0,3280.0,3232.0,4095.0,-10.38,4.69,0.38,-0.87,1.26,2.6,1.0,j
3297.0,1321.0,3032.0,2624.0,4095.0,3284.0,3247.0,4095.0,-6.71,5.73,-0.65,-0.77,0.46,2.74,1.0,j
3307.0,1413.0,3035.0,2640.0,4095.0,3319.0,3277.0,4095.0,-2.85,7.21,-0.01,-0.85,0.08,1.81,1.0,j
3311.0,1429.0,3035.0,2642.0,4095.0,3314.0,3277.0,4095.0,-2.2,8.04,1.01,-0.32,0.25,0.85,1.0,j
3313.0,1460.0,3043.0,2649.0,4095.0,3323.0,3286.0,4095.0,-2.38,8.7,-0.08,-0.05,-0.07,0.07,1.0,j
3319.0,1449.0,3039.0,2656.0,4095.0,3315.0,3291.0,4095.0,-2.49,8.36,-0.01,-0.02,-0.89,-0.4,1.0,j
3249.0,2646.0,3030.0,2586.0,4095.0,3395.0,3174.0,4095.0,3.45,9.3,0.66,-0.73,0.51,0.32,1.0,j
3266.0,2665.0,3035.0,2593.0,4095.0,3391.0,3192.0,4095.0,2.91,8.5,0.77,-1.41,0.95,0.16,1.0,j
3257.0,2655.0,3036.0,2595.0,4095.0,3412.0,3184.0,4095.0,2.96,7.47,3.36,-1.79,0.82,0.2,1.0,j
3267.0,2663.0,3044.0,2598.0,4095.0,3427.0,3181.0,4095.0,2.34,6.71,5.9,-2.18,2.08,0.66,1.0,j
3248.0,2656.0,3022.0,2609.0,4095.0,3415.0,3178.0,4095.0,-0.31,4.58,8.67,-2.68,3.25,0.95,1.0,j
3265.0,2698.0,3041.0,2626.0,4095.0,3435.0,3168.0,3641.0,-3.01,2.64,9.72,-2.53,3.12,0.68,1.0,j
3258.0,2749.0,3053.0,2543.0,4095.0,3442.0,3169.0,4095.0,-7.39,-0.01,10.11,-2.47,2.83,1.16,1.0,j
3278.0,2822.0,3056.0,2485.0,4095.0,3447.0,3162.0,4095.0,-8.09,-0.69,9.23,-1.99,2.65,1.48,1.0,j
3253.0,2925.0,3055.0,2559.0,4095.0,3408.0,3135.0,4095.0,-8.98,-0.3,7.3,-1.41,3.01,1.58,1.0,j
3266.0,2928.0,3042.0,2624.0,4095.0,3426.0,3151.0,4095.0,-10.53,1.17,2.77,-1.0,1.93,0.93,1.0,j
3261.0,2913.0,3046.0,2608.0,4095.0,3419.0,3147.0,4095.0,-10.8,1.9,1.76,-0.93,1.8,1.36,1.0,j
3264.0,2863.0,3046.0,2623.0,4095.0,3442.0,3155.0,4095.0,-10.24,3.08,0.08,-0.74,1.37,1.87,1.0,j
3255.0,2801.0,3044.0,2586.0,4095.0,3429.0,3169.0,4095.0,-9.84,4.6,-0.24,-0.44,0.42,2.13,1.0,j
3263.0,2789.0,3055.0,2559.0,4095.0,3474.0,3167.0,4095.0,-6.9,6.1,-0.62,-0.12,-0.05,2.24,1.0,j
3265.0,2768.0,3054.0,2543.0,4095.0,3439.0,3184.0,4095.0,-3.88,7.17,-1.19,-0.13,-0.14,1.89,1.0,j
3269.0,2750.0,3041.0,2535.0,4095.0,3450.0,3184.0,4095.0,-2.05,8.44,-0.35,-0.17,-0.2,0.82,1.0,j
3269.0,2750.0,3047.0,2551.0,4095.0,3463.0,3198.0,4095.0,-2.3,8.98,-0.23,-0.21,-0.01,-0.04,1.0,j
3249.0,2752.0,3042.0,2559.0,4095.0,3454.0,3193.0,4095.0,-3.38,8.93,-0.08,-0.17,0.09,-0.17,1.0,j
3265.0,2752.0,3046.0,2586.0,4095.0,3469.0,3197.0,4095.0,-3.03,9.02,-0.27,-0.07,0.12,-0.24,1.0,j
3249.0,2752.0,3051.0,2594.0,4095.0,3462.0,3200.0,4095.0,-3.56,8.0,0.77,0.05,-0.13,-0.73,1.0,j
3299.0,2832.0,3045.0,2538.0,4095.0,3581.0,3270.0,4095.0,3.43,5.39,5.7,-2.52,0.9,0.82,1.0,j
3286.0,2845.0,3055.0,2540.0,4095.0,3561.0,3265.0,4095.0,3.59,2.09,10.87,-2.32,1.18,1.52,1.0,j
3302.0,2836.0,3052.0,2553.0,4095.0,3616.0,3280.0,4095.0,2.27,1.75,10.8,-1.6,2.09,1.6,1.0,j
3261.0,2814.0,3035.0,2545.0,4095.0,3558.0,3239.0,4095.0,0.86,0.8,10.9,-1.24,2.11,1.42,1.0,j
3238.0,2799.0,3012.0,2527.0,4095.0,3527.0,3213.0,2987.0,-3.14,-1.69,11.94,-1.3,2.71,2.08,1.0,j
3306.0,2902.0,3063.0,2594.0,4095.0,3599.0,3245.0,4095.0,-3.95,1.42,8.07,-0.32,3.69,2.89,1.0,j
3291.0,2943.0,3050.0,2583.0,4095.0,3565.0,3229.0,4095.0,-5.8,1.08,8.92,-1.13,3.49,2.84,1.0,j
3297.0,2979.0,3071.0,2617.0,4095.0,3536.0,3215.0,3852.0,-8.8,1.12,7.53,-0.96,3.51,1.94,1.0,j
3285.0,2947.0,3062.0,2585.0,4095.0,3527.0,3218.0,4095.0,-10.34,1.85,5.67,-0.06,1.96,2.19,1.0,j
3301.0,2941.0,3061.0,2597.0,4095.0,3521.0,3236.0,4095.0,-8.89,4.35,2.96,-0.02,1.49,2.31,1.0,j
3282.0,2905.0,3045.0,2615.0,4095.0,3511.0,3237.0,4095.0,-7.06,5.97,1.23,-0.3,0.53,2.01,1.0,j
3294.0,2891.0,3063.0,2624.0,4095.0,3523.0,3244.0,4095.0,-4.58,7.33,1.1,-0.64,0.33,1.67,1.0,j
3295.0,2885.0,3049.0,2613.0,4095.0,3511.0,3248.0,4095.0,-3.82,7.44,1.75,-0.41,0.05,0.83,1.0,j
3310.0,2893.0,3066.0,2631.0,4095.0,3518.0,3253.0,4095.0,-3.52,7.93,2.15,-0.2,-0.15,0.42,1.0,j
3277.0,2886.0,3056.0,2650.0,4095.0,3519.0,3244.0,4095.0,-3.6,8.22,2.31,0.02,-0.7,-0.05,1.0,j
3305.0,2894.0,3065.0,2640.0,4095.0,3516.0,3241.0,4095.0,-3.28,8.38,2.32,-0.1,-0.49,-0.23,1.0,j
3285.0,2896.0,3071.0,2655.0,4095.0,3523.0,3254.0,4095.0,-3.68,8.74,2.95,-0.0,-0.27,-0.37,1.0,j
3295.0,2881.0,3046.0,2662.0,4095.0,3510.0,3246.0,4095.0,-3.86,8.37,2.3,-0.03,-0.66,-0.58,1.0,j
3280.0,2873.0,3052.0,2672.0,4095.0,3522.0,3252.0,4095.0,-3.6,8.01,2.07,-0.49,-2.46,-1.12,1.0,j
3270.0,2865.0,3047.0,2637.0,4095.0,3486.0,3218.0,4081.0,-3.51,6.44,5.51,-1.13,-2.39,-1.19,1.0,j
3325.0,2902.0,3049.0,2629.0,4095.0,3543.0,3282.0,3890.0,3.49,6.45,3.24,-1.63,1.02,0.78,1.0,j
3329.0,2928.0,3071.0,2663.0,4095.0,3569.0,3299.0,4095.0,4.63,4.46,5.8,-2.61,1.54,0.86,1.0,j
3299.0,2960.0,3039.0,2639.0,4095.0,3548.0,3281.0,4095.0,0.56,0.62,10.85,-3.29,3.45,1.36,1.0,j
3311.0,2992.0,3053.0,2691.0,4095.0,3559.0,3280.0,4095.0,-4.43,-0.55,13.02,-2.42,3.85,1.89,1.0,j
3303.0,3020.0,3054.0,2672.0,4095.0,3519.0,3239.0,3297.0,-6.12,-0.86,9.59,-2.0,4.6,2.4,1.0,j
3293.0,3221.0,3061.0,2647.0,4095.0,3452.0,3209.0,3358.0,-7.42,-0.83,6.13,-1.79,4.95,2.41,1.0,j
3293.0,3146.0,3040.0,2666.0,4095.0,3453.0,3206.0,3821.0,-11.95,0.05,2.44,-0.97,1.43,1.25,1.0,j
3287.0,3117.0,3032.0,2658.0,4095.0,3457.0,3216.0,4095.0,-11.03,1.39,1.14,-0.74,1.42,1.95,1.0,j
3301.0,3091.0,3043.0,2629.0,4095.0,3471.0,3225.0,4095.0,-9.66,3.17,0.02,-0.59,0.87,2.26,1.0,j
3285.0,3037.0,3039.0,2585.0,4095.0,3459.0,3217.0,4095.0,-8.52,5.74,-1.21,-0.33,0.77,2.25,1.0,j
3280.0,3015.0,3037.0,2593.0,4095.0,3467.0,3218.0,4095.0,-6.7,6.71,-0.64,-0.72,-0.01,2.1,1.0,j
3285.0,2967.0,3035.0,2600.0,4095.0,3459.0,3242.0,4095.0,-3.33,6.87,-0.09,-0.81,0.02,1.12,1.0,j
3311.0,2966.0,3056.0,2608.0,4095.0,3504.0,3270.0,4095.0,-2.79,7.74,0.5,-0.44,-0.07,0.31,1.0,j
3296.0,2977.0,3056.0,2635.0,4095.0,3493.0,3259.0,4095.0,-3.9,8.53,0.82,-0.12,-0.18,-0.11,1.0,j
3317.0,2975.0,3056.0,2662.0,4095.0,3507.0,3275.0,4095.0,-3.95,9.2,0.57,-0.05,-0.1,-0.07,1.0,j
3309.0,2981.0,3056.0,2655.0,4095.0,3487.0,3266.0,4095.0,-3.58,9.05,0.83,-0.09,-0.08,-0.05,1.0,j
3312.0,2993.0,3055.0,2668.0,4095.0,3503.0,3275.0,4095.0,-3.81,8.76,0.67,-0.05,-0.09,-0.15,1.0,j
3312.0,2977.0,3056.0,2672.0,4095.0,3499.0,3271.0,4095.0,-4.27,8.95,0.55,0.04,-0.34,-0.15,1.0,j
3309.0,2992.0,3052.0,2682.0,4095.0,3499.0,3271.0,4095.0,-4.19,9.12,0.47,0.06,-0.79,-0.12,1.0,j
3308.0,3003.0,3051.0,2668.0,4095.0,3503.0,3274.0,4095.0,-3.34,8.62,1.26,-0.25,-1.28,-0.34,1.0,j
3315.0,2922.0,3038.0,2645.0,4095.0,3539.0,3312.0,4095.0,3.43,7.5,2.71,-1.4,0.65,0.02,1.0,j
3331.0,2935.0,3055.0,2651.0,4095.0,3559.0,3319.0,3916.0,3.46,6.97,3.53,-1.92,1.24,0.23,1.0,j
3311.0,2926.0,3047.0,2644.0,4095.0,3526.0,3310.0,4064.0,2.29,4.83,6.24,-2.64,2.43,0.14,1.0,j
3317.0,2945.0,3049.0,2688.0,4095.0,3530.0,3312.0,4095.0,-1.95,1.92,9.9,-2.39,3.28,0.95,1.0,j
3232.0,2961.0,2990.0,2630.0,4095.0,3421.0,3216.0,3577.0,-3.88,1.51,8.09,-1.65,4.1,1.56,1.0,j
3267.0,3063.0,3011.0,2623.0,4095.0,3446.0,3216.0,4061.0,-7.28,1.58,5.31,-1.91,5.41,1.36,1.0,j
3295.0,3056.0,3029.0,2615.0,4095.0,3503.0,3229.0,3969.0,-10.56,0.4,2.98,-1.85,3.73,0.4,1.0,j
3254.0,3019.0,3005.0,2615.0,4095.0,3442.0,3222.0,3546.0,-13.28,0.39,0.43,-1.96,2.44,0.46,1.0,j
3232.0,2992.0,2986.0,2619.0,4095.0,3409.0,3201.0,3721.0,-13.84,1.28,-0.22,-1.65,1.16,1.21,1.0,j
3259.0,2988.0,3008.0,2608.0,4095.0,3436.0,3218.0,3728.0,-11.09,3.31,-1.19,-1.3,0.56,2.48,1.0,j
3263.0,2953.0,3012.0,2620.0,4095.0,3470.0,3248.0,4095.0,-8.15,4.6,-0.81,-1.26,-0.38,2.66,1.0,j
3281.0,2961.0,3026.0,2623.0,4095.0,3495.0,3270.0,4095.0,-5.01,5.71,0.58,-0.86,-0.66,1.8,1.0,j
3311.0,2944.0,3051.0,2610.0,4095.0,3522.0,3282.0,4095.0,-2.39,6.94,1.08,-0.19,-0.25,0.83,1.0,j
3286.0,2937.0,3035.0,2627.0,4095.0,3511.0,3273.0,4095.0,-2.97,7.83,0.37,0.07,-0.02,0.09,1.0,j
3303.0,2935.0,3037.0,2645.0,4095.0,3517.0,3280.0,4095.0,-4.15,8.65,0.69,0.04,-0.16,-0.28,1.0,j
3283.0,2942.0,3035.0,2655.0,4095.0,3504.0,3280.0,4095.0,-4.55,9.04,0.55,0.07,-0.15,-0.07,1.0,j
3290.0,2933.0,3039.0,2661.0,4095.0,3507.0,3280.0,4095.0,-4.1,9.1,0.65,-0.09,-0.16,-0.04,1.0,j
3297.0,2946.0,3042.0,2669.0,4095.0,3533.0,3295.0,4095.0,-4.24,8.71,1.12,-0.05,0.02,-0.1,1.0,j
3299.0,2937.0,3031.0,2668.0,4095.0,3519.0,3283.0,4095.0,-4.56,8.63,0.74,0.06,-0.03,0.05,1.0,j
3290.0,2935.0,3046.0,2673.0,4095.0,3533.0,3293.0,4095.0,-3.37,8.96,0.35,0.05,0.08,-0.13,1.0,j
3318.0,2929.0,3056.0,2689.0,4095.0,3539.0,3343.0,4095.0,2.79,5.94,3.31,-2.74,1.6,0.83,1.0,j
3309.0,2924.0,3052.0,2687.0,4095.0,3550.0,3337.0,4095.0,3.88,3.41,9.17,-2.57,1.4,0.86,1.0,j
3311.0,2960.0,3042.0,2689.0,4095.0,3557.0,3312.0,4095.0,-0.06,1.11,11.67,-3.1,4.17,1.66,1.0,j
3210.0,2960.0,2965.0,2537.0,4095.0,3408.0,3182.0,3310.0,-2.41,-0.52,12.56,-1.84,3.26,1.5,1.0,j
3239.0,3021.0,2995.0,2558.0,4095.0,3440.0,3201.0,4095.0,-6.58,-0.03,8.15,-2.05,4.55,1.92,1.0,j
3230.0,3023.0,2976.0,2556.0,4095.0,3417.0,3185.0,4095.0,-9.94,1.36,3.52,-1.61,4.32,1.41,1.0,j
3216.0,2978.0,2960.0,2544.0,4095.0,3389.0,3168.0,3970.0,-12.24,1.07,2.16,-1.93,2.86,1.7,1.0,j
3219.0,2958.0,2972.0,2556.0,4095.0,3425.0,3187.0,4095.0,-12.73,2.16,0.31,-1.44,1.78,2.57,1.0,j
3287.0,2954.0,3024.0,2487.0,4095.0,3499.0,3242.0,3978.0,-9.25,4.32,-1.11,-1.05,0.47,3.06,1.0,j
3320.0,2950.0,3045.0,2622.0,4095.0,3539.0,3292.0,4095.0,-4.56,5.83,0.22,-0.91,-0.3,2.19,1.0,j
3319.0,2941.0,3041.0,2640.0,4095.0,3548.0,3311.0,4095.0,-2.15,6.79,0.88,-0.55,-0.21,1.08,1.0,j
3331.0,2939.0,3051.0,2652.0,4095.0,3583.0,3319.0,4095.0,-2.07,7.99,0.82,-0.02,-0.0,0.15,1.0,j
3330.0,2954.0,3051.0,2661.0,4095.0,3562.0,3312.0,4095.0,-3.26,9.06,0.48,0.07,0.03,-0.22,1.0,j
3327.0,2941.0,3041.0,2674.0,4095.0,3579.0,3317.0,4095.0,-4.1,9.57,-0.06,0.09,0.09,-0.14,1.0,j
3329.0,2960.0,3059.0,2679.0,4095.0,3583.0,3331.0,4095.0,-3.8,9.27,-0.14,-0.1,-0.07,-0.08,1.0,j
3322.0,2946.0,3042.0,2692.0,4095.0,3569.0,3324.0,4095.0,-3.69,9.11,0.14,-0.11,-0.04,-0.05,1.0,j
3335.0,2962.0,3053.0,2683.0,4095.0,3581.0,3338.0,4095.0,-3.76,9.14,0.16,-0.07,-0.06,-0.06,1.0,j
3319.0,2947.0,3051.0,2684.0,4095.0,3578.0,3314.0,4095.0,-3.83,9.13,0.04,-0.11,-0.0,-0.08,1.0,j
3335.0,2947.0,3056.0,2688.0,4095.0,3583.0,3332.0,4095.0,-3.62,8.25,0.74,-0.04,-0.3,-0.31,1.0,j
3335.0,2960.0,3047.0,2700.0,4095.0,3567.0,3322.0,4095.0,-2.62,7.33,0.36,0.35,-0.38,-0.86,1.0,j
3349.0,3017.0,3039.0,2750.0,4095.0,3573.0,3344.0,3792.0,4.49,10.3,-1.0,0.03,0.02,-0.02,1.0,j
3345.0,3022.0,3041.0,2743.0,4095.0,3541.0,3328.0,4095.0,4.04,9.63,-0.85,0.02,-0.2,-0.12,1.0,j
3348.0,3030.0,3031.0,2749.0,4095.0,3571.0,3342.0,4091.0,3.86,9.34,-1.76,-0.11,-0.29,0.03,1.0,j
3344.0,3015.0,3029.0,2739.0,4095.0,3568.0,3333.0,4095.0,2.78,8.69,-2.09,-0.97,-0.15,0.31,1.0,j
3343.0,3011.0,3041.0,2720.0,4095.0,3567.0,3341.0,4095.0,2.67,7.65,-0.92,-1.92,0.15,0.98,1.0,j
3350.0,3008.0,3050.0,2650.0,4095.0,3583.0,3344.0,4095.0,3.49,5.61,1.85,-2.9,0.96,1.74,1.0,j
3347.0,2993.0,3031.0,2637.0,4095.0,3600.0,3336.0,4095.0,6.09,3.16,6.19,-3.25,1.35,1.72,1.0,j
3353.0,2986.0,3038.0,2655.0,4095.0,3632.0,3350.0,4095.0,6.91,0.24,9.32,-3.55,1.78,1.45,1.0,j
3323.0,2989.0,3034.0,2689.0,4095.0,3605.0,3326.0,4095.0,2.37,-2.88,9.46,-2.9,2.42,1.23,1.0,j
3351.0,2992.0,3050.0,2710.0,4095.0,3632.0,3340.0,4095.0,-0.71,-4.07,9.16,-2.46,3.12,1.45,1.0,j
3331.0,3025.0,3027.0,2637.0,4095.0,3573.0,3284.0,3937.0,-2.54,-7.98,10.41,-2.54,2.24,2.34,1.0,j
3361.0,3232.0,3041.0,2640.0,4095.0,3573.0,3293.0,3695.0,-6.79,-7.51,6.64,-2.18,4.53,3.64,1.0,j
3361.0,3126.0,3037.0,2621.0,4095.0,3543.0,3280.0,4095.0,-10.02,-5.18,2.36,-1.15,0.34,1.92,1.0,j
3350.0,3050.0,3054.0,2694.0,4095.0,3569.0,3296.0,3984.0,-9.54,-2.82,1.21,-0.75,0.94,2.11,1.0,j
3356.0,3002.0,3044.0,2658.0,4095.0,3558.0,3281.0,3120.0,-9.41,-0.26,-0.35,-0.76,1.02,2.28,1.0,j
3383.0,2974.0,3051.0,2643.0,4095.0,3583.0,3301.0,4069.0,-8.41,1.12,-1.07,-0.92,0.42,1.63,1.0,j
3359.0,2937.0,3045.0,2634.0,4095.0,3579.0,3301.0,3734.0,-9.01,2.64,-0.66,-0.62,0.51,1.18,1.0,j
3365.0,2930.0,3047.0,2608.0,4095.0,3583.0,3307.0,3567.0,-9.27,4.55,-1.08,-0.25,0.33,1.53,1.0,j
3371.0,2938.0,3050.0,2606.0,4095.0,3614.0,3327.0,3539.0,-7.7,5.68,-0.89,-0.22,-0.02,1.68,1.0,j
3366.0,2944.0,3043.0,2617.0,4095.0,3583.0,3333.0,3927.0,-6.22,6.66,-1.36,-0.04,-0.08,1.68,1.0,j
3371.0,2920.0,3046.0,2645.0,4095.0,3687.0,3390.0,4095.0,3.5,8.67,0.98,-1.27,0.08,0.39,1.0,j
3377.0,2933.0,3057.0,2641.0,4095.0,3696.0,3402.0,4095.0,3.25,7.08,2.67,-1.76,-0.43,0.69,1.0,j
3360.0,2915.0,3051.0,2637.0,4095.0,3688.0,3388.0,2923.0,3.34,4.98,4.41,-2.24,-0.22,0.81,1.0,j
3382.0,2896.0,3054.0,2606.0,4095.0,3665.0,3383.0,3455.0,6.45,4.41,5.52,-2.1,0.93,1.97,1.0,j
3381.0,2879.0,3043.0,2645.0,4095.0,3696.0,3407.0,3471.0,5.91,0.04,9.96,-3.21,2.48,2.39,1.0,j
3372.0,2883.0,3040.0,2653.0,4095.0,3645.0,3365.0,3615.0,0.53,-3.24,11.53,-2.24,2.7,2.06,1.0,j
3384.0,2913.0,3049.0,2691.0,4095.0,3690.0,3391.0,3903.0,-0.61,-3.75,10.79,-1.26,3.12,2.02,1.0,j
3385.0,3007.0,3055.0,2693.0,4095.0,3662.0,3355.0,3803.0,-3.39,-4.37,10.65,-0.69,3.02,2.74,1.0,j
3376.0,3088.0,3063.0,2687.0,4095.0,3644.0,3342.0,3008.0,-7.78,-2.93,7.4,-0.56,3.49,1.69,1.0,j
3353.0,3043.0,3056.0,2643.0,4095.0,3643.0,3339.0,3646.0,-8.46,-1.89,5.33,-0.66,1.89,1.36,1.0,j
3393.0,3056.0,3058.0,2689.0,4095.0,3663.0,3356.0,3765.0,-9.48,-1.06,3.23,-0.89,1.84,1.4,1.0,j
3367.0,3030.0,3054.0,2685.0,4095.0,3649.0,3348.0,3871.0,-9.53,-0.24,1.85,-0.69,1.9,1.66,1.0,j
3379.0,3026.0,3054.0,2704.0,4095.0,3648.0,3357.0,3921.0,-12.09,1.7,-0.67,-1.06,1.56,1.28,1.0,j
3367.0,2987.0,3053.0,2615.0,4095.0,3650.0,3341.0,3626.0,-10.0,3.49,-1.35,-0.51,0.6,1.92,1.0,j
3378.0,2961.0,3054.0,2647.0,4095.0,3666.0,3358.0,3626.0,-7.82,4.67,-1.67,-0.48,0.03,2.19,1.0,j
3398.0,2955.0,3063.0,2642.0,4095.0,3673.0,3376.0,4095.0,-6.09,6.49,-1.42,-0.36,-0.09,1.74,1.0,j
3392.0,2945.0,3056.0,2624.0,4095.0,3680.0,3380.0,4095.0,-4.43,7.76,-1.34,-0.44,0.04,1.08,1.0,j
3391.0,2962.0,3058.0,2635.0,4095.0,3691.0,3387.0,4095.0,-4.15,8.15,-0.75,-0.47,-0.02,0.38,1.0,j
3376.0,2955.0,3065.0,2637.0,4095.0,3690.0,3386.0,4095.0,-4.36,8.12,-0.08,-0.22,-0.07,0.04,1.0,j
3377.0,2958.0,3056.0,2624.0,4095.0,3699.0,3399.0,4095.0,-4.14,8.31,-0.42,-0.06,-0.02,-0.1,1.0,j
3439.0,3031.0,3052.0,2769.0,4095.0,3815.0,3471.0,4095.0,2.85,9.44,2.57,-0.95,0.38,0.49,1.0,j
3440.0,3026.0,3037.0,2762.0,4095.0,3816.0,3463.0,4095.0,4.65,8.15,4.46,-1.01,-0.2,0.09,1.0,j
3437.0,3024.0,3049.0,2768.0,4095.0,3817.0,3456.0,4095.0,3.69,7.47,4.7,-1.2,0.57,-0.08,1.0,j
3411.0,3019.0,3037.0,2755.0,4095.0,3787.0,3441.0,4095.0,2.48,6.29,6.25,-1.33,0.37,0.04,1.0,j
3407.0,3007.0,3031.0,2747.0,4095.0,3787.0,3442.0,3696.0,2.31,5.25,7.67,-1.57,0.77,0.26,1.0,j
3382.0,2997.0,3019.0,2743.0,4095.0,3722.0,3403.0,3861.0,2.16,3.95,9.77,-1.45,1.14,0.47,1.0,j
3401.0,3019.0,3018.0,2750.0,4095.0,3771.0,3425.0,3903.0,1.25,3.94,9.67,-1.24,0.9,0.48,1.0,j
3411.0,3046.0,3026.0,2755.0,4095.0,3787.0,3429.0,3722.0,1.1,2.38,10.22,-1.35,0.73,0.51,1.0,j
3433.0,3056.0,3041.0,2766.0,4095.0,3797.0,3440.0,4095.0,-0.74,0.83,10.39,-1.42,1.31,0.73,1.0,j
3434.0,3066.0,3040.0,2774.0,4095.0,3769.0,3412.0,3977.0,-2.92,-0.16,10.53,-1.05,1.74,0.92,1.0,j
3367.0,3086.0,2992.0,2717.0,4095.0,3650.0,3332.0,3728.0,-4.49,-0.21,9.42,-0.73,2.5,1.26,1.0,j
3373.0,3127.0,3008.0,2710.0,4095.0,3649.0,3329.0,2878.0,-7.13,-0.25,7.86,-0.62,1.9,0.61,1.0,j
3378.0,3124.0,3010.0,2720.0,4095.0,3648.0,3343.0,2879.0,-7.71,-0.14,5.24,-0.9,1.34,0.3,1.0,j
3374.0,3123.0,3007.0,2642.0,4095.0,3633.0,3332.0,2870.0,-8.29,-0.6,4.54,-1.14,1.45,0.24,1.0,j
3376.0,3110.0,3001.0,2698.0,4095.0,3638.0,3333.0,1572.0,-10.44,-1.21,3.62,-1.36,2.02,0.52,1.0,j
3373.0,3118.0,3003.0,2710.0,4095.0,3642.0,3339.0,2957.0,-11.18,-0.61,1.94,-1.05,1.38,0.83,1.0,j
3367.0,3067.0,2999.0,2688.0,4095.0,3632.0,3341.0,3219.0,-10.09,0.65,0.58,-0.86,1.08,1.06,1.0,j
3371.0,3056.0,3004.0,2699.0,4095.0,3644.0,3339.0,3677.0,-9.63,1.65,-0.47,-0.68,0.74,1.28,1.0,j
3362.0,3045.0,2992.0,2677.0,4095.0,3643.0,3332.0,3967.0,-8.92,2.75,-0.96,-0.56,0.58,1.39,1.0,j
3376.0,3026.0,2994.0,2686.0,4095.0,3634.0,3330.0,4095.0,-8.0,4.29,-1.34,-0.61,0.25,1.06,1.0,j
3472.0,3046.0,3056.0,2737.0,4095.0,3759.0,3443.0,3600.0,4.4,9.18,1.27,-0.31,-0.04,-0.1,1.0,j
3471.0,3052.0,3043.0,2710.0,4095.0,3748.0,3441.0,4095.0,3.35,8.51,-0.18,-1.55,-0.17,-0.01,1.0,j
3483.0,3056.0,3062.0,2675.0,4095.0,3759.0,3438.0,4018.0,3.49,6.35,2.34,-2.83,1.26,0.44,1.0,j
3453.0,3058.0,3046.0,2704.0,4095.0,3774.0,3435.0,4095.0,1.26,3.25,7.36,-4.12,3.31,0.49,1.0,j
3425.0,3071.0,3036.0,2688.0,4095.0,3715.0,3376.0,4095.0,-3.43,0.32,9.72,-3.2,3.3,0.47,1.0,j
3427.0,3158.0,3034.0,2598.0,4095.0,3703.0,3364.0,3223.0,-5.65,-0.33,7.82,-2.57,4.3,1.24,1.0,j
3440.0,3138.0,3037.0,2686.0,4095.0,3700.0,3362.0,1821.0,-9.89,-0.83,5.5,-1.53,2.5,0.33,1.0,j
3440.0,3121.0,3027.0,2691.0,4095.0,3713.0,3377.0,3803.0,-11.5,-1.61,4.83,-1.85,2.59,0.97,1.0,j
3415.0,3106.0,3018.0,2672.0,4095.0,3696.0,3369.0,3856.0,-11.81,-0.51,1.83,-1.38,1.98,1.1,1.0,j
3421.0,3090.0,3033.0,2691.0,4095.0,3700.0,3371.0,3987.0,-11.34,0.48,0.42,-1.37,1.03,1.37,1.0,j
3417.0,3051.0,3010.0,2667.0,4095.0,3651.0,3351.0,3886.0,-10.58,1.82,0.06,-0.78,0.27,1.91,1.0,j
3425.0,3040.0,3023.0,2662.0,4095.0,3686.0,3369.0,3839.0,-9.33,3.62,-0.77,-0.53,-0.11,2.25,1.0,j
3425.0,3040.0,3033.0,2667.0,4095.0,3687.0,3364.0,4095.0,-7.73,5.86,-0.55,-0.48,-0.26,2.69,1.0,j
3461.0,3045.0,3043.0,2677.0,4095.0,3741.0,3411.0,4095.0,-4.58,6.58,0.59,-0.51,-0.24,2.26,1.0,j
3472.0,3045.0,3041.0,2689.0,4095.0,3741.0,3415.0,4095.0,-2.15,7.93,0.86,-0.22,0.11,1.27,1.0,j
3472.0,3038.0,3059.0,2678.0,4095.0,3782.0,3440.0,4095.0,-2.35,8.5,0.91,-0.06,0.21,0.29,1.0,j
3475.0,3046.0,3042.0,2684.0,4095.0,3767.0,3441.0,4095.0,-2.74,9.19,0.92,0.03,0.08,-0.12,1.0,j
3475.0,3046.0,3053.0,2682.0,4095.0,3760.0,3438.0,4095.0,-3.16,9.77,0.19,0.06,0.07,-0.2,1.0,j
3473.0,3057.0,3064.0,2679.0,4095.0,3777.0,3442.0,4095.0,-3.33,9.51,0.48,-0.08,-0.02,-0.1,1.0,j
3469.0,3043.0,3054.0,2677.0,4095.0,3754.0,3424.0,4095.0,-2.93,9.25,0.52,-0.07,0.05,-0.1,1.0,j
3477.0,3007.0,3050.0,2704.0,4095.0,3741.0,3448.0,3063.0,4.36,8.82,1.61,-0.76,-0.41,-0.01,1.0,j
3502.0,3030.0,3056.0,2718.0,4095.0,3762.0,3459.0,3088.0,3.95,8.03,2.49,-1.22,0.07,0.18,1.0,j
3499.0,3024.0,3044.0,2693.0,4095.0,3754.0,3442.0,3087.0,4.8,7.57,3.51,-1.4,0.71,0.36,1.0,j
3497.0,3039.0,3056.0,2677.0,4095.0,3788.0,3459.0,3038.0,3.62,6.0,5.71,-2.31,2.37,0.66,1.0,j
3501.0,3031.0,3059.0,2710.0,4095.0,3805.0,3463.0,4095.0,0.07,4.04,7.63,-2.31,2.65,0.69,1.0,j
3341.0,2939.0,2959.0,2641.0,4095.0,3621.0,3334.0,4095.0,-2.11,2.02,8.77,-2.66,2.7,1.27,1.0,j
3378.0,2992.0,2983.0,2671.0,4095.0,3642.0,3333.0,3801.0,-2.91,-0.74,11.27,-2.53,1.96,1.61,1.0,j
3441.0,3069.0,3009.0,2683.0,4095.0,3677.0,3365.0,3417.0,-5.11,-1.84,9.49,-1.95,2.82,1.68,1.0,j
3456.0,3101.0,3029.0,2709.0,4095.0,3709.0,3382.0,3503.0,-7.86,-2.1,8.58,-1.72,3.72,1.63,1.0,j
3440.0,3086.0,3020.0,2734.0,4095.0,3697.0,3389.0,3694.0,-10.25,-1.56,5.83,-1.14,3.23,1.77,1.0,j
3451.0,3067.0,3028.0,2726.0,4095.0,3709.0,3395.0,3827.0,-11.14,-0.18,2.57,-1.03,2.31,1.77,1.0,j
3449.0,3053.0,3008.0,2695.0,4095.0,3695.0,3383.0,3863.0,-10.29,1.01,1.16,-0.92,1.27,2.02,1.0,j
3328.0,2951.0,2928.0,2622.0,4095.0,3553.0,3279.0,4090.0,-9.6,2.86,0.68,-0.73,0.72,2.36,1.0,j
3325.0,2950.0,2948.0,2627.0,4095.0,3563.0,3287.0,3669.0,-8.02,4.86,0.22,-0.55,0.26,2.5,1.0,j
3425.0,3010.0,3003.0,2667.0,4095.0,3696.0,3379.0,4095.0,-5.58,6.32,0.41,-0.47,-0.29,1.97,1.0,j
3443.0,3008.0,3014.0,2672.0,4095.0,3729.0,3397.0,4095.0,-3.17,7.4,0.38,-0.33,-0.07,0.93,1.0,j
3447.0,3019.0,3012.0,2677.0,4095.0,3711.0,3381.0,4095.0,-4.37,8.16,0.74,-0.21,0.04,0.17,1.0,j
3467.0,3029.0,3027.0,2696.0,4095.0,3728.0,3397.0,4095.0,-4.25,8.55,0.33,-0.07,-0.03,0.03,1.0,j
3446.0,3030.0,3024.0,2691.0,4095.0,3724.0,3391.0,4095.0,-4.51,8.8,0.74,-0.11,-0.1,-0.05,1.0,j
3462.0,3027.0,3026.0,2695.0,4095.0,3738.0,3408.0,4095.0,-4.29,8.95,0.68,-0.12,-0.07,-0.04,1.0,j
3475.0,3012.0,3043.0,2758.0,4095.0,3741.0,3441.0,4095.0,3.45,9.85,0.25,-0.15,-0.04,-0.07,1.0,j
3494.0,3011.0,3056.0,2752.0,4095.0,3748.0,3452.0,4095.0,2.97,9.35,0.19,-0.76,0.23,-0.04,1.0,j
3500.0,3025.0,3067.0,2737.0,4095.0,3744.0,3440.0,4095.0,2.82,8.69,2.29,-1.34,0.58,0.24,1.0,j
3501.0,3024.0,3061.0,2722.0,4095.0,3753.0,3438.0,4095.0,3.39,8.31,4.02,-1.21,0.32,0.25,1.0,j
3504.0,3015.0,3065.0,2715.0,4095.0,3766.0,3451.0,4095.0,3.99,7.76,5.24,-1.29,0.44,0.24,1.0,j
3495.0,3033.0,3053.0,2719.0,4095.0,3760.0,3442.0,4095.0,2.42,6.58,6.0,-1.67,0.92,0.4,1.0,j
3495.0,3034.0,3069.0,2727.0,4095.0,3783.0,3451.0,4095.0,2.43,5.0,8.49,-1.7,1.17,0.43,1.0,j
3415.0,2983.0,3003.0,2681.0,4095.0,3682.0,3389.0,4095.0,0.25,3.92,9.27,-1.66,2.78,0.71,1.0,j
3354.0,2962.0,2960.0,2651.0,4095.0,3616.0,3316.0,3705.0,-2.63,2.46,9.73,-1.62,3.39,1.35,1.0,j
3316.0,2959.0,2937.0,2641.0,4095.0,3536.0,3266.0,3462.0,-4.37,1.99,9.73,-1.47,3.18,1.67,1.0,j
3326.0,2978.0,2935.0,2605.0,4095.0,3535.0,3264.0,1271.0,-5.55,1.63,7.52,-0.7,3.51,0.88,1.0,j
3343.0,2995.0,2945.0,2630.0,4095.0,3546.0,3275.0,1267.0,-9.06,1.11,4.89,-0.98,1.85,0.21,1.0,j
3363.0,3003.0,2950.0,2640.0,4095.0,3563.0,3295.0,1472.0,-9.28,1.22,3.81,-0.89,1.87,0.42,1.0,j
3349.0,2988.0,2954.0,2640.0,4095.0,3568.0,3287.0,3043.0,-10.25,1.91,1.93,-0.9,2.08,0.9,1.0,j
3357.0,2967.0,2959.0,2640.0,4095.0,3568.0,3304.0,3569.0,-10.72,2.74,0.51,-0.87,1.62,1.19,1.0,j
3376.0,2966.0,2967.0,2640.0,4095.0,3600.0,3314.0,3760.0,-9.94,3.71,-0.46,-0.8,1.0,1.45,1.0,j
3377.0,2951.0,2973.0,2661.0,4095.0,3605.0,3331.0,3679.0,-8.67,4.7,-0.73,-0.46,0.38,1.61,1.0,j
3439.0,2977.0,3011.0,2675.0,4095.0,3674.0,3378.0,3718.0,-7.09,6.09,-1.31,-0.25,-0.12,1.49,1.0,j
3459.0,2981.0,3019.0,2689.0,4095.0,3691.0,3391.0,3632.0,-5.15,7.44,-1.09,-0.41,0.08,1.34,1.0,j
3483.0,2987.0,3035.0,2725.0,4095.0,3722.0,3418.0,4095.0,-4.22,7.67,-0.57,-0.43,0.11,0.79,1.0,j
3511.0,3008.0,3047.0,2740.0,4095.0,3747.0,3454.0,4095.0,4.08,6.51,5.4,-1.1,0.14,0.42,1.0,j
3499.0,3010.0,3039.0,2731.0,4095.0,3718.0,3427.0,4095.0,2.64,4.75,5.42,-1.34,0.78,1.39,1.0,j
3498.0,3008.0,3005.0,2709.0,4095.0,3729.0,3440.0,3853.0,4.11,2.26,7.67,-2.03,1.74,1.95,1.0,j
3491.0,3007.0,2992.0,2714.0,4095.0,3756.0,3430.0,3382.0,3.29,-0.88,12.49,-2.26,2.8,2.31,1.0,j
3543.0,3033.0,3019.0,2741.0,4095.0,3803.0,3459.0,3839.0,1.12,-1.4,12.36,-1.24,2.9,1.82,1.0,j
3511.0,3059.0,2992.0,2719.0,4095.0,3762.0,3410.0,2992.0,-3.73,-1.57,9.27,-1.3,4.04,2.73,1.0,j
3500.0,3136.0,2992.0,2747.0,4095.0,3790.0,3415.0,1837.0,-9.27,-1.05,5.93,-0.43,4.15,1.67,1.0,j
3499.0,3120.0,2983.0,2752.0,4095.0,3779.0,3415.0,2038.0,-9.65,-0.66,4.85,-0.69,2.2,1.45,1.0,j
3497.0,3106.0,2978.0,2763.0,4095.0,3769.0,3409.0,2033.0,-9.61,0.7,2.64,-0.81,1.98,1.42,1.0,j
3502.0,3085.0,2992.0,2751.0,4095.0,3772.0,3415.0,2069.0,-10.04,1.89,1.4,-0.44,1.32,1.47,1.0,j
3419.0,3015.0,2929.0,2686.0,4095.0,3649.0,3328.0,3902.0,-9.34,3.53,0.23,-0.41,0.78,1.7,1.0,j
3438.0,3029.0,2951.0,2689.0,4095.0,3699.0,3355.0,3949.0,-7.92,5.15,-0.1,-0.33,0.27,1.58,1.0,j
3456.0,3037.0,2953.0,2702.0,4095.0,3712.0,3382.0,3695.0,-7.73,5.87,0.26,-0.31,-0.0,1.34,1.0,j
3483.0,3050.0,2983.0,2721.0,4095.0,3748.0,3389.0,4048.0,-6.72,6.63,0.47,-0.03,-0.11,1.44,1.0,j
3507.0,3063.0,2991.0,2721.0,4095.0,3775.0,3411.0,4035.0,-5.06,8.06,0.49,-0.0,-0.23,1.32,1.0,j
3531.0,3086.0,3008.0,2692.0,4095.0,3813.0,3439.0,4095.0,-3.39,8.65,0.28,-0.06,-0.14,0.89,1.0,j
3517.0,3100.0,2999.0,2667.0,4095.0,3787.0,3430.0,4095.0,-3.09,9.01,0.27,-0.11,0.0,0.55,1.0,j
3550.0,3117.0,3019.0,2665.0,4095.0,3814.0,3454.0,4095.0,-2.28,8.86,0.79,-0.1,-0.19,0.16,1.0,j
3541.0,3104.0,3014.0,2692.0,4095.0,3807.0,3456.0,4095.0,-3.02,8.82,0.25,0.06,-0.01,-0.2,1.0,j
3533.0,3104.0,3024.0,2703.0,4095.0,3824.0,3457.0,4095.0,-2.98,9.49,0.39,0.09,-0.03,-0.15,1.0,j
3572.0,3247.0,3024.0,2810.0,4095.0,3824.0,3514.0,4095.0,3.45,9.41,1.26,-0.39,-0.07,-0.01,1.0,j
3554.0,3250.0,3024.0,2800.0,4095.0,3820.0,3491.0,4095.0,3.63,9.3,1.81,-0.93,-0.13,0.05,1.0,j
3552.0,3261.0,3027.0,2755.0,4095.0,3830.0,3516.0,4095.0,3.92,8.8,3.27,-0.93,0.38,0.17,1.0,j
3545.0,3277.0,3021.0,2761.0,4095.0,3812.0,3501.0,4095.0,2.89,8.05,4.18,-1.1,0.14,0.18,1.0,j
3557.0,3327.0,3035.0,2753.0,4095.0,3826.0,3506.0,4095.0,3.74,7.59,4.64,-1.17,-0.48,0.2,1.0,j
3563.0,3403.0,3019.0,2717.0,4095.0,3826.0,3526.0,4095.0,3.28,6.29,5.26,-1.66,0.79,0.5,1.0,j
3565.0,3443.0,3018.0,2751.0,4095.0,3841.0,3510.0,3958.0,0.9,4.23,7.41,-2.36,2.5,1.2,1.0,j
3472.0,3392.0,2958.0,2710.0,4095.0,3718.0,3426.0,3856.0,-0.62,1.9,10.71,-2.29,2.56,1.34,1.0,j
3373.0,3305.0,2905.0,2640.0,4095.0,3600.0,3333.0,3920.0,-0.64,1.43,10.96,-1.01,2.73,1.15,1.0,j
3367.0,3359.0,2890.0,2686.0,4095.0,3630.0,3348.0,3744.0,-3.04,1.74,8.4,-0.37,3.67,1.61,1.0,j
3421.0,3495.0,2927.0,2715.0,4095.0,3653.0,3338.0,1535.0,-7.19,1.13,7.35,-1.3,4.54,1.92,1.0,j
3463.0,3532.0,2957.0,2768.0,4095.0,3673.0,3367.0,1580.0,-10.0,1.09,4.59,-1.37,2.91,1.1,1.0,j
3463.0,3535.0,2949.0,2767.0,4095.0,3670.0,3369.0,1927.0,-10.86,1.2,3.05,-1.19,1.66,0.67,1.0,j
3466.0,3523.0,2966.0,2777.0,4095.0,3686.0,3378.0,1969.0,-10.4,2.15,1.88,-0.73,1.12,0.85,1.0,j
3412.0,3471.0,2930.0,2741.0,4095.0,3632.0,3340.0,1955.0,-10.04,3.79,1.62,-0.45,0.12,1.18,1.0,j
3429.0,3456.0,2941.0,2752.0,4095.0,3675.0,3356.0,1955.0,-8.44,4.49,0.36,-0.18,0.4,1.3,1.0,j
3437.0,3456.0,2943.0,2717.0,4095.0,3657.0,3363.0,3344.0,-8.03,5.58,0.05,-0.11,0.66,1.6,1.0,j
3485.0,3495.0,2979.0,2743.0,4095.0,3755.0,3428.0,3523.0,-6.35,6.28,-0.19,0.03,0.2,1.32,1.0,j
3535.0,3519.0,2993.0,2761.0,4095.0,3777.0,3455.0,3841.0,-5.32,7.27,-0.53,-0.14,0.21,0.7,1.0,j
3536.0,3559.0,2995.0,2768.0,4095.0,3791.0,3477.0,4095.0,-5.33,8.02,-0.71,-0.03,-0.04,0.26,1.0,j
3575.0,3963.0,3030.0,2633.0,4095.0,3823.0,3472.0,4095.0,3.0,8.2,3.14,-1.39,0.95,0.29,1.0,j
3555.0,3949.0,3024.0,2643.0,4095.0,3819.0,3481.0,4095.0,1.69,6.77,4.73,-1.85,0.86,0.52,1.0,j
3554.0,3922.0,3017.0,2653.0,4095.0,3824.0,3472.0,4095.0,1.29,5.01,7.0,-2.15,1.33,0.85,1.0,j
3578.0,3963.0,3026.0,2661.0,4095.0,3830.0,3489.0,4095.0,0.93,3.1,9.11,-2.12,1.69,0.97,1.0,j
3547.0,3964.0,3024.0,2675.0,4095.0,3847.0,3479.0,4095.0,-1.7,1.55,10.14,-1.95,2.72,1.21,1.0,j
3427.0,3838.0,2948.0,2615.0,4095.0,3662.0,3344.0,4095.0,-3.15,-0.45,11.67,-1.42,2.11,1.71,1.0,j
3440.0,3888.0,2950.0,2384.0,4095.0,3657.0,3324.0,1795.0,-4.39,-0.9,10.93,-1.01,2.03,1.38,1.0,j
3412.0,3849.0,2942.0,2529.0,4095.0,3643.0,3312.0,1830.0,-6.0,-0.06,8.24,-0.84,1.56,0.83,1.0,j
3410.0,3856.0,2928.0,2459.0,4095.0,3656.0,3322.0,1650.0,-7.32,-0.23,5.57,-1.35,2.14,0.84,1.0,j
3428.0,3871.0,2944.0,2556.0,4095.0,3653.0,3329.0,1797.0,-9.38,-0.52,4.17,-1.2,2.05,0.81,1.0,j
3371.0,3803.0,2906.0,2546.0,4095.0,3583.0,3294.0,1873.0,-11.19,-0.08,3.84,-1.01,1.82,1.36,1.0,j
3391.0,3813.0,2928.0,2522.0,4095.0,3637.0,3312.0,2089.0,-10.81,1.53,2.09,-0.71,1.08,1.49,1.0,j
3401.0,3811.0,2926.0,2559.0,4095.0,3632.0,3307.0,3782.0,-10.09,3.13,0.96,-0.34,0.78,2.04,1.0,j
3445.0,3868.0,2969.0,2554.0,4095.0,3683.0,3347.0,4095.0,-8.61,4.72,0.43,-0.28,-0.23,2.17,1.0,j
3473.0,3877.0,2983.0,2602.0,4095.0,3715.0,3377.0,4095.0,-5.99,6.01,0.64,-0.33,-0.34,1.76,1.0,j
3504.0,3899.0,3003.0,2612.0,4095.0,3761.0,3429.0,4095.0,-3.0,6.84,0.77,-0.09,-0.02,1.12,1.0,j
3519.0,3907.0,3001.0,2637.0,4095.0,3792.0,3439.0,4095.0,-4.04,7.92,1.21,-0.06,0.1,0.15,1.0,j
3514.0,3923.0,2998.0,2648.0,4095.0,3792.0,3444.0,4095.0,-5.43,8.53,0.5,-0.01,-0.03,-0.16,1.0,j
3533.0,3936.0,3023.0,2666.0,4095.0,3798.0,3457.0,4095.0,-4.78,8.29,0.83,-0.04,-0.12,-0.13,1.0,j
3535.0,3920.0,3011.0,2663.0,4095.0,3797.0,3455.0,4095.0,-5.0,8.39,0.85,-0.02,-0.05,-0.09,1.0,j
3614.0,4013.0,3009.0,2784.0,4095.0,3851.0,3510.0,4095.0,3.47,9.23,3.44,-0.22,-0.42,0.06,1.0,j
3599.0,4017.0,3017.0,2786.0,4095.0,3844.0,3486.0,4095.0,3.4,8.9,3.46,-0.19,-0.27,0.01,1.0,j
3605.0,3994.0,3013.0,2785.0,4095.0,3855.0,3504.0,4095.0,3.22,9.04,2.47,-0.45,0.02,-0.02,1.0,j
3597.0,4013.0,3023.0,2786.0,4095.0,3834.0,3491.0,4095.0,3.98,8.62,3.73,-0.97,-0.3,0.04,1.0,j
3605.0,4018.0,3024.0,2786.0,4095.0,3861.0,3503.0,4095.0,2.98,7.93,4.04,-1.24,0.46,0.12,1.0,j
3600.0,4002.0,3012.0,2772.0,4095.0,3839.0,3499.0,4095.0,1.88,6.34,4.47,-2.02,0.87,0.39,1.0,j
3600.0,4023.0,3019.0,2774.0,4095.0,3860.0,3491.0,4095.0,0.45,4.0,6.66,-2.69,2.61,0.72,1.0,j
3475.0,3888.0,2937.0,2715.0,4095.0,3679.0,3358.0,4095.0,-2.31,1.35,8.95,-2.86,4.41,1.15,1.0,j
3489.0,3920.0,2959.0,2681.0,4095.0,3687.0,3350.0,1867.0,-6.86,0.9,8.35,-2.16,5.0,1.93,1.0,j
3395.0,3830.0,2897.0,2586.0,4095.0,3568.0,3265.0,1809.0,-11.21,0.02,7.02,-2.32,5.18,1.8,1.0,j
3381.0,3819.0,2883.0,2601.0,4095.0,3567.0,3280.0,1937.0,-13.6,1.2,4.65,-1.45,3.02,2.12,1.0,j
3443.0,3893.0,2935.0,2624.0,4095.0,3643.0,3334.0,3739.0,-11.97,2.44,1.14,-1.29,1.36,3.19,1.0,j
3506.0,3919.0,2957.0,2635.0,4095.0,3691.0,3385.0,4095.0,-6.74,4.4,0.54,-0.96,0.28,3.06,1.0,j
3536.0,3952.0,2992.0,2674.0,4095.0,3755.0,3424.0,4095.0,-3.25,5.54,1.05,-0.36,-0.13,1.77,1.0,j
3557.0,3954.0,2979.0,2661.0,4095.0,3756.0,3430.0,4095.0,-3.27,7.72,0.48,0.06,0.11,0.37,1.0,j
3563.0,3975.0,2990.0,2694.0,4095.0,3795.0,3463.0,4095.0,-4.93,8.79,0.18,0.09,0.04,0.03,1.0,j
3553.0,3965.0,2993.0,2690.0,4095.0,3782.0,3447.0,4095.0,-4.05,9.1,0.11,-0.03,0.0,0.01,1.0,j
3554.0,3979.0,2992.0,2691.0,4095.0,3787.0,3447.0,4095.0,-4.29,9.11,0.17,-0.06,-0.09,-0.07,1.0,j
3566.0,3954.0,2986.0,2688.0,4095.0,3762.0,3447.0,4095.0,-4.53,8.91,0.33,-0.09,-0.12,0.03,1.0,j
3568.0,3982.0,3005.0,2697.0,4095.0,3774.0,3456.0,4095.0,-3.84,8.8,0.33,-0.05,0.01,-0.02,1.0,j
3617.0,3951.0,3021.0,2816.0,4095.0,3827.0,3502.0,4095.0,4.14,9.27,0.91,-0.04,-0.05,-0.15,1.0,j
3613.0,3947.0,3014.0,2807.0,4095.0,3861.0,3521.0,3696.0,4.24,9.51,0.22,-0.21,-0.04,-0.01,1.0,j
3608.0,3973.0,3006.0,2779.0,4095.0,3840.0,3507.0,4095.0,3.19,8.56,0.1,-1.25,-0.46,0.56,1.0,j
3618.0,3974.0,3013.0,2673.0,4095.0,3855.0,3503.0,4095.0,4.31,7.58,1.37,-1.69,0.09,0.8,1.0,j
3641.0,3969.0,3007.0,2704.0,4095.0,3894.0,3522.0,3671.0,3.97,5.3,4.12,-2.57,1.58,1.57,1.0,j
3627.0,3969.0,3013.0,2704.0,4095.0,3881.0,3515.0,3781.0,4.87,2.95,8.0,-2.35,1.66,1.45,1.0,j
3643.0,4009.0,3017.0,2681.0,4095.0,3909.0,3534.0,4095.0,3.88,1.18,10.46,-1.83,2.13,1.38,1.0,j
3536.0,3879.0,2957.0,2682.0,4095.0,3786.0,3437.0,4095.0,2.22,-0.56,10.32,-1.41,2.31,1.46,1.0,j
3536.0,3905.0,2979.0,2674.0,4095.0,3819.0,3466.0,4095.0,0.0,-2.67,10.62,-1.85,2.47,2.01,1.0,j
3605.0,3998.0,3011.0,2713.0,4095.0,3859.0,3472.0,3649.0,-3.58,-4.18,13.28,-1.04,2.75,3.68,1.0,j
3602.0,4027.0,3007.0,2758.0,4095.0,3843.0,3463.0,3337.0,-8.56,-0.7,7.07,0.26,3.51,2.45,1.0,j
3583.0,3997.0,2992.0,2759.0,4095.0,3835.0,3455.0,3472.0,-9.21,0.8,4.77,-0.66,2.23,2.18,1.0,j
3527.0,3924.0,2960.0,2711.0,4095.0,3775.0,3407.0,3411.0,-11.1,2.31,3.03,-0.53,1.9,2.69,1.0,j
3495.0,3862.0,2943.0,2624.0,4095.0,3696.0,3375.0,3325.0,-9.44,4.33,1.41,-0.48,1.13,2.97,1.0,j
3479.0,3840.0,2926.0,2608.0,4095.0,3696.0,3366.0,4095.0,-7.01,5.87,1.24,-0.65,0.64,2.97,1.0,j
3579.0,3978.0,2992.0,2625.0,4095.0,3849.0,3471.0,4095.0,-3.12,6.88,0.74,-0.38,0.16,1.66,1.0,j
3611.0,4000.0,2996.0,2656.0,4095.0,3886.0,3499.0,4095.0,-2.49,7.77,1.05,-0.26,-0.04,0.42,1.0,j
3611.0,3991.0,3004.0,2667.0,4095.0,3895.0,3501.0,4095.0,-3.35,8.53,1.34,0.04,0.08,-0.2,1.0,j
3603.0,3977.0,3009.0,2689.0,4095.0,3888.0,3503.0,4095.0,-4.01,9.59,1.02,0.13,-0.07,-0.13,1.0,j
3615.0,3995.0,3019.0,2700.0,4095.0,3901.0,3495.0,4095.0,-3.67,9.29,0.88,-0.03,-0.11,-0.05,1.0,j
3671.0,3936.0,3027.0,2775.0,4095.0,3889.0,3539.0,4095.0,4.65,8.96,0.74,-0.58,-0.17,0.02,1.0,j
3674.0,3955.0,3022.0,2768.0,4095.0,3887.0,3525.0,4095.0,4.46,8.61,1.31,-0.94,0.02,0.16,1.0,j
3696.0,3965.0,3023.0,2745.0,4095.0,3890.0,3537.0,4095.0,3.91,7.72,2.28,-1.44,0.32,0.37,1.0,j
3653.0,3930.0,3013.0,2733.0,4095.0,3873.0,3538.0,4095.0,4.45,6.92,3.36,-1.55,-0.41,0.53,1.0,j
3691.0,3958.0,3017.0,2673.0,4095.0,3909.0,3554.0,3458.0,4.9,5.54,5.61,-1.7,-0.07,0.82,1.0,j
3675.0,3947.0,3024.0,2714.0,4095.0,3906.0,3540.0,3393.0,4.19,3.13,8.31,-1.99,2.16,1.91,1.0,j
3666.0,3955.0,3019.0,2724.0,4095.0,3933.0,3558.0,3471.0,3.15,0.83,10.76,-1.48,2.47,2.15,1.0,j
3678.0,3943.0,3013.0,2733.0,4095.0,3931.0,3565.0,3440.0,2.03,0.03,11.2,-0.93,2.24,1.86,1.0,j
3583.0,3860.0,2971.0,2695.0,4095.0,3823.0,3470.0,3337.0,-0.26,-0.62,10.72,-0.73,2.85,2.08,1.0,j
3455.0,3750.0,2899.0,2674.0,4095.0,3659.0,3348.0,2875.0,-1.92,-0.43,10.6,-0.52,4.02,3.38,1.0,j
3373.0,3672.0,2845.0,2645.0,4095.0,3555.0,3274.0,2830.0,-8.23,0.79,8.61,-0.37,3.27,2.17,1.0,j
3455.0,3760.0,2895.0,2685.0,4095.0,3651.0,3344.0,2973.0,-9.71,1.59,7.26,-0.3,2.59,2.72,1.0,j
3472.0,3781.0,2902.0,2677.0,4095.0,3667.0,3358.0,3085.0,-8.67,4.03,3.91,-0.27,1.87,2.58,1.0,j
3536.0,3857.0,2948.0,2689.0,4095.0,3760.0,3424.0,3119.0,-7.47,5.37,2.63,-0.41,1.18,2.12,1.0,j
3484.0,3792.0,2925.0,2685.0,4095.0,3710.0,3376.0,3198.0,-6.63,6.64,2.78,-0.14,0.01,1.84,1.0,j
3579.0,3886.0,2987.0,2684.0,4095.0,3845.0,3481.0,3265.0,-3.86,7.96,1.39,0.16,0.17,1.16,1.0,j
3583.0,3911.0,2977.0,2657.0,4095.0,3821.0,3469.0,3272.0,-2.86,8.33,0.22,-0.12,-0.19,0.45,1.0,j
3601.0,3886.0,2979.0,2691.0,4095.0,3865.0,3488.0,3294.0,-2.94,8.33,1.34,-0.07,-0.11,0.02,1.0,j
3600.0,3926.0,2987.0,2709.0,4095.0,3856.0,3493.0,3341.0,-3.39,9.2,1.29,0.08,0.01,-0.08,1.0,j
3628.0,3924.0,3004.0,2729.0,4095.0,3908.0,3519.0,3317.0,-3.67,9.44,1.07,-0.01,-0.0,-0.08,1.0,j
3712.0,3938.0,3024.0,2765.0,4095.0,3913.0,3547.0,4095.0,4.52,8.96,0.66,0.05,-0.44,-0.15,1.0,j
3714.0,3926.0,3022.0,2782.0,4095.0,3947.0,3583.0,4095.0,4.28,8.56,0.36,-0.52,-0.28,-0.07,1.0,j
3698.0,3946.0,3028.0,2735.0,4095.0,3934.0,3574.0,4095.0,5.16,8.49,0.6,-1.22,-0.08,0.11,1.0,j
3719.0,3953.0,3019.0,2737.0,4095.0,3951.0,3565.0,3763.0,3.77,7.61,1.31,-1.99,0.8,0.31,1.0,j
3727.0,3955.0,3027.0,2723.0,4095.0,3983.0,3568.0,3476.0,2.7,5.24,4.05,-2.64,2.19,1.18,1.0,j
3638.0,3839.0,2973.0,2688.0,4095.0,3871.0,3491.0,4007.0,2.32,1.81,9.19,-3.35,2.22,1.66,1.0,j
3654.0,3869.0,2987.0,2705.0,4095.0,3894.0,3527.0,3130.0,1.73,-1.36,12.82,-2.67,1.32,1.29,1.0,j
3663.0,3879.0,2971.0,2722.0,4095.0,3907.0,3503.0,4095.0,-1.07,-3.25,13.28,-1.95,2.15,1.96,1.0,j
3705.0,3973.0,2995.0,2755.0,4095.0,3904.0,3519.0,3856.0,-3.17,-2.93,9.46,-1.44,3.54,2.22,1.0,j
3686.0,3961.0,3005.0,2768.0,4095.0,3923.0,3530.0,3831.0,-6.83,-2.33,7.96,-0.84,3.07,1.96,1.0,j
3694.0,3987.0,3005.0,2767.0,4095.0,3910.0,3534.0,3947.0,-10.02,-1.19,5.34,-1.05,3.16,2.43,1.0,j
3659.0,3931.0,2978.0,2765.0,4095.0,3859.0,3487.0,3794.0,-10.92,0.13,2.97,-1.29,1.64,2.16,1.0,j
3503.0,3740.0,2901.0,2674.0,4095.0,3699.0,3370.0,3613.0,-10.03,1.83,1.47,-0.93,1.21,2.14,1.0,j
3451.0,3709.0,2880.0,2655.0,4095.0,3650.0,3341.0,4095.0,-9.45,3.89,0.64,-0.71,0.37,1.93,1.0,j
3467.0,3691.0,2875.0,2650.0,4095.0,3648.0,3331.0,4095.0,-7.98,5.6,1.03,-0.49,-0.24,2.02,1.0,j
3565.0,3797.0,2934.0,2666.0,4095.0,3776.0,3425.0,4095.0,-6.0,6.72,1.21,-0.3,-0.26,1.9,1.0,j
3652.0,3888.0,2992.0,2705.0,4095.0,3881.0,3494.0,4095.0,-3.01,7.28,1.05,-0.1,-0.26,1.33,1.0,j
3702.0,3927.0,3015.0,2681.0,4095.0,3937.0,3539.0,4095.0,-2.34,7.84,1.0,0.07,-0.04,0.5,1.0,j
3707.0,3938.0,3010.0,2695.0,4095.0,3942.0,3523.0,4095.0,-3.23,9.11,0.67,0.09,0.06,-0.05,1.0,j
3701.0,3945.0,3015.0,2704.0,4095.0,3967.0,3547.0,4095.0,-3.49,9.34,0.93,-0.03,-0.11,-0.21,1.0,j
3744.0,3968.0,3025.0,2798.0,4095.0,3870.0,3557.0,2774.0,4.47,9.15,0.07,-0.75,0.11,0.11,1.0,j
3698.0,3931.0,3005.0,2735.0,4095.0,3857.0,3533.0,2750.0,2.96,6.69,-0.89,-2.48,0.08,0.87,1.0,j
3731.0,3952.0,3008.0,2710.0,4095.0,3920.0,3554.0,3394.0,3.27,2.5,4.46,-4.1,2.74,2.52,1.0,j
3646.0,3856.0,2962.0,2694.0,4095.0,3824.0,3469.0,4095.0,-0.93,-3.39,12.28,-3.76,3.93,2.76,1.0,j
3714.0,3987.0,3008.0,2760.0,4095.0,3899.0,3522.0,3260.0,-5.38,-3.22,12.3,-2.05,4.78,3.89,1.0,j
3690.0,4003.0,2997.0,2737.0,4095.0,3849.0,3465.0,1449.0,-13.52,-1.4,7.56,-1.63,6.54,3.4,1.0,j
3615.0,3927.0,2959.0,2661.0,4095.0,3759.0,3417.0,2721.0,-16.25,-0.23,4.62,-1.21,2.48,3.06,1.0,j
3455.0,3729.0,2883.0,2619.0,4095.0,3622.0,3312.0,2431.0,-12.22,1.13,0.58,-1.03,0.98,3.99,1.0,j
3475.0,3745.0,2878.0,2597.0,4095.0,3617.0,3322.0,2899.0,-5.43,3.24,0.2,-0.81,-0.1,3.39,1.0,j
3664.0,3954.0,2995.0,2692.0,4095.0,3864.0,3504.0,3163.0,-2.48,5.18,1.02,-0.2,-0.19,1.66,1.0,j
3665.0,3952.0,3003.0,2715.0,4095.0,3861.0,3493.0,3215.0,-3.2,8.02,1.06,0.1,-0.02,0.19,1.0,j
3625.0,3903.0,2976.0,2695.0,4095.0,3814.0,3472.0,3230.0,-3.77,9.12,0.44,0.02,-0.09,-0.15,1.0,j
3615.0,3895.0,2960.0,2686.0,4095.0,3815.0,3455.0,3223.0,-3.98,9.15,0.69,-0.05,-0.01,-0.08,1.0,j
3646.0,3925.0,2971.0,2686.0,4095.0,3819.0,3466.0,3302.0,-3.78,9.07,0.86,-0.05,-0.07,-0.07,1.0,j
3627.0,3905.0,2964.0,2689.0,4095.0,3807.0,3470.0,3311.0,-4.15,8.98,0.75,-0.06,0.01,-0.09,1.0,j
3653.0,3926.0,2985.0,2694.0,4095.0,3830.0,3467.0,4095.0,-4.12,8.97,0.66,-0.09,-0.0,-0.0,1.0,j
3635.0,3909.0,2978.0,2690.0,4095.0,3811.0,3458.0,4095.0,-3.9,8.98,0.82,-0.07,-0.08,-0.07,1.0,j
3642.0,3920.0,2979.0,2695.0,4095.0,3823.0,3473.0,4095.0,-4.09,8.84,1.08,-0.04,-0.05,-0.12,1.0,j
3632.0,3895.0,2974.0,2694.0,4095.0,3818.0,3463.0,4095.0,-4.14,8.94,0.73,0.01,-0.07,-0.2,1.0,j
3568.0,3850.0,2946.0,2670.0,4095.0,3759.0,3421.0,4095.0,-4.55,8.89,0.62,-0.05,-0.11,-0.27,1.0,j
3745.0,3857.0,3013.0,2848.0,4095.0,3910.0,3536.0,4095.0,3.79,9.01,-1.15,-0.64,-0.6,-0.11,1.0,j
3743.0,3932.0,3024.0,2767.0,4095.0,3919.0,3533.0,4095.0,3.05,7.0,-1.23,-2.48,0.57,0.53,1.0,j
3730.0,3977.0,2995.0,2731.0,4095.0,3930.0,3533.0,4095.0,0.12,2.9,1.87,-5.0,4.07,1.96,1.0,j
3696.0,3975.0,2995.0,2736.0,4095.0,3888.0,3470.0,1984.0,-5.68,-3.6,12.43,-3.52,5.94,3.36,1.0,j
3606.0,3939.0,2960.0,2688.0,4095.0,3760.0,3398.0,2115.0,-16.1,-1.37,9.21,-2.28,6.4,2.2,1.0,j
3616.0,3990.0,2991.0,2676.0,4095.0,3794.0,3413.0,3026.0,-12.6,1.29,5.92,-1.96,4.1,2.83,1.0,j
3557.0,3903.0,2942.0,2638.0,4095.0,3718.0,3376.0,3722.0,-10.71,1.78,3.48,-1.79,3.08,2.37,1.0,j
3533.0,3874.0,2923.0,2615.0,4095.0,3681.0,3340.0,3940.0,-12.2,2.56,2.5,-1.19,0.94,2.24,1.0,j
3472.0,3814.0,2906.0,2612.0,4095.0,3617.0,3314.0,4095.0,-8.74,4.61,0.58,-0.34,0.76,2.88,1.0,j
3676.0,4025.0,3018.0,2720.0,4095.0,3847.0,3479.0,4095.0,-4.93,6.5,-0.31,-0.4,0.2,2.26,1.0,j
3695.0,4028.0,3010.0,2660.0,4095.0,3888.0,3504.0,4095.0,-2.89,7.0,0.13,-0.12,-0.08,1.4,1.0,j
3727.0,4031.0,3024.0,2672.0,4095.0,3889.0,3508.0,4095.0,-1.97,8.55,0.16,-0.04,-0.12,0.29,1.0,j
3712.0,4053.0,3025.0,2698.0,4095.0,3895.0,3519.0,4095.0,-2.79,9.18,0.4,-0.04,-0.12,-0.08,1.0,j
3725.0,4057.0,3011.0,2694.0,4095.0,3886.0,3511.0,4095.0,-2.77,9.68,0.37,0.0,-0.07,-0.25,1.0,j
3709.0,4052.0,3025.0,2713.0,4095.0,3922.0,3539.0,4095.0,-3.47,9.51,0.27,-0.05,-0.05,-0.16,1.0,j
3705.0,4035.0,3023.0,2703.0,4095.0,3903.0,3531.0,4095.0,-3.06,9.28,0.53,-0.11,0.01,-0.07,1.0,j
3747.0,4048.0,3033.0,2726.0,4095.0,3910.0,3536.0,4095.0,-3.39,9.28,0.49,-0.03,0.02,-0.1,1.0,j
3712.0,4048.0,3015.0,2716.0,4095.0,3895.0,3535.0,4095.0,-3.54,9.39,0.28,-0.04,-0.01,-0.08,1.0,j
3714.0,4052.0,3029.0,2733.0,4095.0,3910.0,3537.0,4095.0,-3.48,9.39,0.29,-0.07,0.05,-0.0,1.0,j
3707.0,4047.0,3031.0,2737.0,4095.0,3914.0,3538.0,4095.0,-3.02,9.3,0.4,-0.07,-0.1,-0.12,1.0,j
3709.0,3947.0,3007.0,2770.0,4095.0,3839.0,3530.0,2208.0,3.48,9.13,-0.34,-0.56,0.32,0.27,1.0,j
3723.0,3947.0,3011.0,2759.0,4095.0,3826.0,3510.0,2239.0,3.96,8.85,-0.99,-1.19,0.25,0.3,1.0,j
3723.0,3959.0,3023.0,2709.0,4095.0,3851.0,3536.0,3149.0,3.5,6.2,-1.58,-3.26,1.7,0.9,1.0,j
3729.0,3967.0,3009.0,2743.0,4095.0,3905.0,3549.0,4095.0,-2.99,-2.29,7.66,-6.0,4.1,3.0,1.0,j
3551.0,3857.0,2943.0,2559.0,4095.0,3724.0,3378.0,2483.0,-5.51,-2.89,19.63,-2.18,5.14,4.83,1.0,j
3548.0,3859.0,2926.0,2694.0,4095.0,3713.0,3382.0,1987.0,-11.65,-0.22,11.5,-1.26,3.23,2.54,1.0,j
3483.0,3793.0,2896.0,2647.0,4095.0,3655.0,3338.0,1884.0,-10.55,1.57,6.33,-0.92,2.68,2.85,1.0,j
3525.0,3831.0,2918.0,2640.0,4095.0,3703.0,3370.0,2398.0,-10.39,3.45,2.86,-0.62,2.23,2.94,1.0,j
3599.0,3908.0,2954.0,2608.0,4095.0,3774.0,3430.0,3307.0,-8.37,5.36,1.89,-0.66,1.18,2.9,1.0,j
3670.0,3959.0,3007.0,2688.0,4095.0,3851.0,3495.0,3423.0,-3.74,6.57,1.11,-0.39,0.04,1.79,1.0,j
3681.0,3947.0,3002.0,2647.0,4095.0,3865.0,3516.0,3891.0,-1.36,7.38,0.06,-0.14,-0.21,0.71,1.0,j
3706.0,3977.0,3009.0,2687.0,4095.0,3873.0,3514.0,4095.0,-2.96,8.74,0.16,0.09,-0.02,-0.18,1.0,j
3695.0,3947.0,2995.0,2704.0,4095.0,3863.0,3511.0,4095.0,-3.75,9.34,0.96,-0.01,-0.29,-0.34,1.0,j
3691.0,3969.0,3016.0,2725.0,4095.0,3879.0,3521.0,4095.0,-3.48,9.23,0.7,0.01,-0.04,-0.12,1.0,j
3671.0,3951.0,3006.0,2719.0,4095.0,3898.0,3520.0,4095.0,-3.7,9.16,0.51,-0.01,-0.2,-0.19,1.0,j
3696.0,3963.0,3002.0,2735.0,4095.0,3885.0,3523.0,4095.0,-4.15,9.26,1.05,-0.11,-0.18,-0.15,1.0,j
3701.0,3988.0,3005.0,2741.0,4095.0,3903.0,3536.0,4095.0,-4.22,9.17,0.88,-0.06,-0.07,0.01,1.0,j
3683.0,3950.0,2997.0,2733.0,4095.0,3883.0,3522.0,4095.0,-3.46,9.06,0.86,-0.05,-0.05,0.11,1.0,j
3687.0,3959.0,3006.0,2737.0,4095.0,3902.0,3538.0,4095.0,-3.47,9.05,0.84,-0.08,-0.01,-0.11,1.0,j
3696.0,3958.0,3008.0,2747.0,4095.0,3893.0,3531.0,4095.0,-4.16,9.54,1.46,0.01,-0.39,-0.16,1.0,j
3767.0,3930.0,3030.0,2731.0,4095.0,3925.0,3579.0,4053.0,4.53,8.99,1.08,-0.73,0.06,-0.11,1.0,j
3755.0,3963.0,3024.0,2761.0,4095.0,3911.0,3568.0,4081.0,3.79,8.46,1.34,-1.24,0.16,0.03,1.0,j
3767.0,3937.0,3023.0,2747.0,4095.0,3913.0,3577.0,3944.0,3.72,7.04,2.41,-2.02,0.42,0.58,1.0,j
3763.0,3951.0,3024.0,2706.0,4095.0,3920.0,3600.0,3025.0,4.03,5.24,5.41,-2.26,0.54,0.8,1.0,j
3766.0,3917.0,3015.0,2714.0,4095.0,3934.0,3583.0,4095.0,4.56,2.96,9.76,-1.87,0.53,0.59,1.0,j
3773.0,3933.0,3024.0,2764.0,4095.0,3953.0,3600.0,4095.0,2.78,1.81,10.3,-1.72,1.52,1.12,1.0,j
3754.0,3933.0,3020.0,2768.0,4095.0,3934.0,3575.0,4095.0,0.88,-0.09,11.99,-1.36,1.77,1.69,1.0,j
3767.0,3935.0,3018.0,2774.0,4095.0,3954.0,3598.0,4095.0,-1.07,-0.85,12.7,-0.4,2.65,2.61,1.0,j
3718.0,3941.0,2995.0,2747.0,4095.0,3860.0,3526.0,2906.0,-3.64,0.73,10.31,-0.33,4.88,3.72,1.0,j
3714.0,3979.0,3006.0,2804.0,4095.0,3881.0,3547.0,2725.0,-8.15,2.61,6.96,-0.01,4.36,2.65,1.0,j
3712.0,3966.0,3001.0,2805.0,4095.0,3866.0,3530.0,2801.0,-9.24,3.23,5.4,-0.42,3.26,2.17,1.0,j
3649.0,3913.0,2970.0,2768.0,4095.0,3791.0,3477.0,2528.0,-8.94,4.6,2.78,-0.4,1.85,1.48,1.0,j
3682.0,3911.0,2995.0,2753.0,4095.0,3835.0,3509.0,2517.0,-8.44,5.62,1.25,-0.34,1.15,1.28,1.0,j
3695.0,3931.0,2991.0,2781.0,4095.0,3852.0,3514.0,3945.0,-7.08,6.62,1.13,-0.35,0.17,0.95,1.0,j
3685.0,3929.0,2993.0,2778.0,4095.0,3861.0,3531.0,3760.0,-6.22,7.3,1.49,-0.24,0.15,1.09,1.0,j
3682.0,3895.0,2980.0,2738.0,4095.0,3831.0,3516.0,3541.0,-4.74,7.81,1.37,-0.02,0.27,1.03,1.0,j
3677.0,3906.0,2985.0,2748.0,4095.0,3862.0,3527.0,3788.0,-3.32,8.34,0.91,-0.1,-0.04,0.53,1.0,j
3677.0,3873.0,2972.0,2762.0,4095.0,3849.0,3515.0,3823.0,-3.76,8.72,0.67,-0.1,-0.03,0.09,1.0,j
3691.0,3898.0,2977.0,2768.0,4095.0,3830.0,3521.0,4095.0,-3.98,8.97,0.68,-0.08,0.17,0.06,1.0,j
3676.0,3869.0,2976.0,2772.0,4095.0,3846.0,3521.0,4095.0,-3.83,9.12,1.35,-0.01,-0.13,0.11,1.0,j
3741.0,3911.0,3017.0,2768.0,4095.0,3857.0,3573.0,3885.0,4.26,9.83,0.92,-0.52,0.32,-0.25,1.0,j
3751.0,3954.0,3016.0,2803.0,4095.0,3862.0,3583.0,3474.0,3.29,8.9,1.61,-1.36,0.45,-0.2,1.0,j
3743.0,3939.0,3008.0,2799.0,4095.0,3888.0,3573.0,3858.0,2.73,7.9,2.54,-1.71,-0.13,0.08,1.0,j
3735.0,3966.0,3008.0,2795.0,4095.0,3885.0,3567.0,4062.0,3.3,6.19,4.23,-2.68,0.24,0.39,1.0,j
3728.0,3975.0,2994.0,2800.0,4095.0,3879.0,3562.0,4095.0,0.82,1.94,9.58,-3.18,1.85,1.39,1.0,j
3749.0,3983.0,2990.0,2821.0,4095.0,3904.0,3550.0,4095.0,-1.0,0.14,11.92,-2.34,2.6,1.96,1.0,j
3717.0,4007.0,2981.0,2791.0,4095.0,3883.0,3537.0,3085.0,-2.23,-1.3,10.9,-2.23,2.5,2.14,1.0,j
3553.0,3879.0,2896.0,2608.0,4095.0,3696.0,3363.0,3455.0,-5.76,-2.79,10.12,-2.34,3.41,3.46,1.0,j
3557.0,3913.0,2901.0,2624.0,4095.0,3685.0,3369.0,1842.0,-8.57,-1.7,10.03,-1.73,2.39,1.78,1.0,j
3501.0,3825.0,2870.0,2635.0,4095.0,3615.0,3328.0,3934.0,-9.82,-0.14,4.36,-1.57,3.18,1.78,1.0,j
3484.0,3814.0,2874.0,2629.0,4095.0,3623.0,3315.0,3979.0,-12.33,0.79,3.38,-0.98,1.31,1.81,1.0,j
3482.0,3790.0,2871.0,2559.0,4095.0,3600.0,3317.0,4095.0,-10.41,2.47,1.01,-0.83,1.0,2.51,1.0,j
3475.0,3787.0,2880.0,2592.0,4095.0,3648.0,3344.0,4095.0,-9.86,4.58,0.16,-0.48,0.58,2.77,1.0,j
3537.0,3828.0,2915.0,2631.0,4095.0,3676.0,3363.0,4095.0,-6.42,6.52,0.51,-0.31,-0.52,2.47,1.0,j
3702.0,3989.0,3003.0,2637.0,4095.0,3851.0,3503.0,4095.0,-2.84,7.01,0.43,-0.25,0.17,1.79,1.0,j
3690.0,4013.0,3012.0,2672.0,4095.0,3861.0,3503.0,4095.0,-1.79,8.27,0.93,-0.02,0.08,0.63,1.0,j
3707.0,4009.0,3015.0,2688.0,4095.0,3892.0,3510.0,4095.0,-2.45,9.17,0.73,-0.02,0.02,0.08,1.0,j
3712.0,4017.0,3010.0,2704.0,4095.0,3871.0,3514.0,4095.0,-2.77,9.45,0.91,0.01,-0.18,-0.27,1.0,j
3709.0,4009.0,3006.0,2707.0,4095.0,3871.0,3509.0,4095.0,-3.29,9.76,0.5,-0.05,-0.02,-0.18,1.0,j
3727.0,4016.0,3007.0,2713.0,4095.0,3862.0,3516.0,4095.0,-2.99,9.43,0.86,-0.14,-0.05,-0.06,1.0,j
3726.0,3981.0,3019.0,2882.0,4095.0,3850.0,3538.0,4095.0,4.58,9.16,1.71,-0.34,0.0,-0.09,1.0,j
3734.0,3984.0,3008.0,2799.0,4095.0,3830.0,3531.0,4095.0,3.91,8.88,0.81,-1.0,-0.15,0.01,1.0,j
3750.0,3966.0,3007.0,2688.0,4095.0,3860.0,3547.0,4095.0,3.26,7.4,1.19,-2.24,1.23,0.88,1.0,j
3764.0,3929.0,2998.0,2635.0,4095.0,3926.0,3582.0,4095.0,3.86,3.05,5.36,-4.17,1.87,2.42,1.0,j
3761.0,3942.0,3009.0,2734.0,4095.0,3960.0,3599.0,4095.0,4.48,-0.67,10.5,-3.23,1.83,2.28,1.0,j
3750.0,3917.0,3002.0,2778.0,4095.0,3947.0,3583.0,4095.0,0.94,-3.0,10.71,-2.84,2.67,2.01,1.0,j
3753.0,3956.0,3001.0,2799.0,4095.0,3905.0,3583.0,4095.0,-3.79,-4.81,10.93,-1.57,3.78,3.9,1.0,j
3729.0,3923.0,2985.0,2789.0,4095.0,3845.0,3523.0,4095.0,-7.42,-1.72,6.57,-0.65,4.78,3.54,1.0,j
3735.0,3920.0,3001.0,2800.0,4095.0,3879.0,3561.0,4095.0,-9.16,-0.82,4.64,-0.92,1.87,1.94,1.0,j
3534.0,3731.0,2896.0,2719.0,4095.0,3678.0,3401.0,3869.0,-10.76,-0.37,3.23,-0.78,1.95,1.88,1.0,j
3542.0,3731.0,2897.0,2710.0,4095.0,3694.0,3393.0,4095.0,-10.73,1.78,0.81,-0.75,1.09,1.78,1.0,j
3568.0,3745.0,2919.0,2721.0,4095.0,3723.0,3425.0,4095.0,-10.51,3.02,0.94,-0.62,-0.06,1.87,1.0,j
3561.0,3737.0,2902.0,2678.0,4095.0,3709.0,3415.0,3051.0,-8.96,4.16,1.59,-0.25,-0.55,2.17,1.0,j
3568.0,3745.0,2919.0,2694.0,4095.0,3755.0,3446.0,4095.0,-5.68,6.44,1.3,0.02,-0.08,2.21,1.0,j
3727.0,3895.0,2992.0,2747.0,4095.0,3902.0,3566.0,4095.0,-3.4,7.17,0.48,-0.14,0.26,1.63,1.0,j
3783.0,3920.0,3014.0,2756.0,4095.0,3951.0,3583.0,4095.0,-2.99,8.09,1.02,0.26,0.19,0.56,1.0,j
3747.0,3921.0,3010.0,2746.0,4095.0,3949.0,3567.0,4095.0,-3.84,9.12,0.03,0.2,0.01,0.06,1.0,j
3800.0,3920.0,3006.0,2748.0,4095.0,3950.0,3600.0,4095.0,-3.28,9.09,0.82,-0.02,-0.21,-0.15,1.0,j
3759.0,3900.0,3003.0,2766.0,4095.0,3945.0,3603.0,4095.0,-3.73,9.54,0.78,-0.07,-0.14,-0.15,1.0,j
3786.0,3937.0,3018.0,2784.0,4095.0,3963.0,3606.0,4095.0,-3.58,9.43,0.61,-0.13,-0.14,-0.02,1.0,j
3792.0,3809.0,3006.0,2830.0,4095.0,3921.0,3631.0,3632.0,3.37,7.85,2.03,-1.43,0.15,0.32,1.0,j
3824.0,3815.0,3006.0,2799.0,4095.0,3950.0,3633.0,3563.0,3.02,6.01,3.81,-2.24,0.68,1.14,1.0,j
3817.0,3814.0,3009.0,2810.0,4095.0,3984.0,3650.0,4095.0,3.84,3.5,7.64,-2.4,0.8,1.52,1.0,j
3726.0,3728.0,2961.0,2768.0,4095.0,3888.0,3568.0,4095.0,2.32,0.95,10.75,-2.29,2.42,1.79,1.0,j
3659.0,3683.0,2937.0,2765.0,4095.0,3824.0,3517.0,4095.0,0.85,-0.43,11.97,-1.09,2.24,1.38,1.0,j
3683.0,3717.0,2940.0,2825.0,4095.0,3824.0,3505.0,3910.0,-0.64,-0.65,10.69,-0.84,3.04,2.09,1.0,j
3635.0,3732.0,2935.0,2804.0,4095.0,3759.0,3456.0,3311.0,-5.66,-1.0,9.57,-1.11,4.56,3.5,1.0,j
3619.0,3728.0,2916.0,2811.0,4095.0,3761.0,3463.0,1907.0,-9.62,0.57,6.04,-0.82,2.51,1.4,1.0,j
3650.0,3767.0,2947.0,2859.0,4095.0,3819.0,3490.0,2003.0,-10.4,0.53,4.68,-1.09,2.37,1.69,1.0,j
3652.0,3760.0,2933.0,2832.0,4095.0,3786.0,3479.0,3600.0,-10.81,1.73,2.83,-0.45,1.81,1.88,1.0,j
3630.0,3701.0,2923.0,2811.0,4095.0,3777.0,3475.0,3728.0,-10.49,3.65,0.74,-0.43,1.19,2.14,1.0,j
3583.0,3695.0,2914.0,2781.0,4095.0,3728.0,3440.0,3573.0,-7.76,5.82,0.53,-0.29,0.46,2.4,1.0,j
3674.0,3785.0,2960.0,2783.0,4095.0,3847.0,3533.0,3934.0,-4.83,6.68,-0.19,-0.19,-0.02,2.11,1.0,j
3771.0,3853.0,3003.0,2832.0,4095.0,3952.0,3614.0,4095.0,-2.19,7.64,0.1,-0.18,-0.42,1.16,1.0,j
3749.0,3838.0,2991.0,2832.0,4095.0,3949.0,3600.0,4095.0,-2.07,9.03,0.72,-0.03,-0.09,0.18,1.0,j
3766.0,3826.0,2996.0,2852.0,4095.0,3953.0,3610.0,4095.0,-3.76,9.22,0.71,-0.01,-0.14,-0.24,1.0,j
3760.0,3840.0,2993.0,2863.0,4095.0,3943.0,3616.0,4095.0,-3.62,8.91,0.49,0.03,-0.27,-0.3,1.0,j
3771.0,3855.0,2999.0,2873.0,4095.0,3951.0,3617.0,4095.0,-4.03,8.83,0.61,0.19,-0.16,-0.26,1.0,j
3763.0,3853.0,2997.0,2875.0,4095.0,3941.0,3611.0,4095.0,-4.07,8.92,-0.15,0.23,-0.03,-0.22,1.0,j
3750.0,3841.0,2987.0,2871.0,4095.0,3933.0,3600.0,4095.0,-4.72,8.64,0.18,0.17,-0.54,-0.33,1.0,j
3750.0,3904.0,3007.0,2746.0,4095.0,3894.0,3573.0,4095.0,2.7,9.5,2.95,-0.29,-0.29,0.08,1.0,j
3780.0,3929.0,3019.0,2742.0,4095.0,3914.0,3582.0,4095.0,3.15,9.16,2.88,-0.65,-0.03,0.11,1.0,j
3753.0,3911.0,3003.0,2736.0,4095.0,3888.0,3569.0,4095.0,2.72,8.37,3.37,-1.32,0.59,0.26,1.0,j
3773.0,3926.0,3017.0,2736.0,4095.0,3899.0,3562.0,4095.0,1.66,6.99,3.91,-1.97,1.44,0.38,1.0,j
3760.0,3932.0,3014.0,2757.0,4095.0,3930.0,3575.0,4095.0,0.41,4.11,8.1,-3.01,2.01,0.63,1.0,j
3746.0,3922.0,2995.0,2767.0,4095.0,3920.0,3559.0,4095.0,-1.36,1.53,10.16,-2.38,1.03,0.46,1.0,j
3773.0,3955.0,3006.0,2733.0,4095.0,3927.0,3561.0,4095.0,-3.11,0.32,10.87,-1.79,2.62,1.43,1.0,j
3727.0,3951.0,2997.0,2720.0,4095.0,3920.0,3539.0,3905.0,-5.97,0.38,8.28,-1.53,3.7,1.89,1.0,j
3753.0,3975.0,3004.0,2735.0,4095.0,3925.0,3539.0,2015.0,-9.61,-0.5,7.33,-2.04,3.13,1.56,1.0,j
3727.0,3952.0,2997.0,2719.0,4095.0,3907.0,3554.0,2103.0,-10.28,-0.3,6.11,-1.5,1.67,1.19,1.0,j
3746.0,3966.0,2999.0,2727.0,4095.0,3920.0,3553.0,4095.0,-10.45,0.99,4.46,-0.97,1.58,1.67,1.0,j
3733.0,3935.0,2995.0,2736.0,4095.0,3898.0,3559.0,4095.0,-9.86,2.23,2.83,-0.37,0.71,1.64,1.0,j
3739.0,3918.0,3008.0,2734.0,4095.0,3920.0,3574.0,4095.0,-8.31,3.78,1.09,-0.22,0.32,1.5,1.0,j
3728.0,3917.0,2998.0,2719.0,4095.0,3920.0,3583.0,4095.0,-8.32,5.17,1.17,-0.15,0.47,1.6,1.0,j
3754.0,3943.0,3018.0,2731.0,4095.0,3937.0,3583.0,4095.0,-7.54,6.48,1.46,0.05,-0.56,1.65,1.0,j
3759.0,3908.0,3008.0,2767.0,4095.0,3952.0,3600.0,4095.0,-4.75,7.99,1.4,0.09,0.04,1.75,1.0,j
3710.0,3855.0,2992.0,2706.0,4095.0,3901.0,3559.0,4063.0,-2.84,8.32,0.84,-0.03,-0.19,1.1,1.0,j
3743.0,3888.0,2994.0,2727.0,4095.0,3921.0,3583.0,4095.0,-2.33,8.85,1.08,-0.06,-0.18,0.54,1.0,j
3739.0,3874.0,2994.0,2743.0,4095.0,3910.0,3581.0,4095.0,-2.31,9.23,1.56,0.01,-0.12,0.26,1.0,j
3738.0,3874.0,3003.0,2752.0,4095.0,3919.0,3583.0,4095.0,-2.12,9.5,1.14,-0.05,-0.01,0.02,1.0,j
3799.0,3890.0,3019.0,2822.0,4095.0,3938.0,3632.0,4095.0,3.71,8.88,2.42,-1.01,0.06,0.13,1.0,j
3785.0,3867.0,3021.0,2763.0,4095.0,3937.0,3621.0,3679.0,3.65,7.61,3.54,-1.75,0.54,0.57,1.0,j
3787.0,3874.0,3019.0,2735.0,4095.0,3979.0,3639.0,3497.0,3.43,6.04,6.04,-2.04,1.63,1.02,1.0,j
3792.0,3871.0,3005.0,2768.0,4095.0,3957.0,3626.0,4032.0,2.49,4.08,9.43,-1.81,2.56,1.1,1.0,j
3786.0,3861.0,3015.0,2793.0,4095.0,3971.0,3638.0,4095.0,-0.78,3.7,8.87,-1.13,3.31,0.85,1.0,j
3767.0,3877.0,3003.0,2787.0,4095.0,3955.0,3609.0,4095.0,-3.33,2.8,8.34,-0.91,3.09,1.52,1.0,j
3762.0,3903.0,3008.0,2813.0,4095.0,3907.0,3583.0,4095.0,-6.4,2.4,7.76,-1.28,4.29,1.52,1.0,j
3760.0,3890.0,2992.0,2813.0,4095.0,3919.0,3575.0,4095.0,-7.65,2.2,6.33,-1.43,3.13,0.74,1.0,j
3760.0,3893.0,3010.0,2816.0,4095.0,3920.0,3571.0,2004.0,-9.28,1.68,4.2,-1.35,3.32,0.67,1.0,j
3479.0,3610.0,2862.0,2683.0,4095.0,3614.0,3347.0,1968.0,-10.55,2.15,2.34,-1.02,2.74,1.01,1.0,j
3573.0,3679.0,2902.0,2693.0,4095.0,3683.0,3408.0,4095.0,-9.67,3.87,-0.85,-0.73,2.39,1.25,1.0,j
3568.0,3686.0,2911.0,2704.0,4095.0,3727.0,3440.0,4095.0,-9.05,4.62,-1.52,-0.61,0.9,1.35,1.0,j
3626.0,3741.0,2923.0,2688.0,4095.0,3732.0,3449.0,4095.0,-7.02,5.75,-1.61,-0.46,0.21,1.28,1.0,j
3728.0,3839.0,2983.0,2753.0,4095.0,3863.0,3546.0,4095.0,-6.73,6.35,-1.4,-0.48,0.01,0.64,1.0,j
3763.0,3859.0,3008.0,2781.0,4095.0,3920.0,3583.0,4095.0,-6.33,7.06,-1.08,-0.2,-0.2,0.64,1.0,j
3779.0,3888.0,3019.0,2796.0,4095.0,3940.0,3613.0,4086.0,-5.58,7.98,-1.45,-0.23,-0.26,0.56,1.0,j
3760.0,3870.0,3004.0,2793.0,4095.0,3926.0,3607.0,4004.0,-5.07,8.42,-0.79,-0.31,-0.41,0.54,1.0,j
3792.0,3892.0,3022.0,2794.0,4095.0,3942.0,3617.0,4095.0,-4.54,8.3,0.06,-0.23,-0.32,0.56,1.0,j
3760.0,3854.0,3008.0,2785.0,4095.0,3935.0,3613.0,4095.0,-4.09,8.72,-0.69,-0.15,-0.22,0.6,1.0,j
3782.0,3898.0,3022.0,2797.0,4095.0,3941.0,3613.0,4095.0,-3.71,9.22,0.07,-0.19,-0.3,0.34,1.0,j
3770.0,3851.0,3013.0,2829.0,4095.0,3900.0,3615.0,4095.0,3.64,9.01,1.75,0.29,-0.32,-0.34,1.0,j
3787.0,3893.0,3011.0,2855.0,4095.0,3919.0,3635.0,4095.0,2.57,8.09,2.15,-0.8,-0.37,0.04,1.0,j
3779.0,3871.0,3008.0,2794.0,4095.0,3949.0,3645.0,4095.0,4.11,7.95,2.22,-0.68,0.1,0.01,1.0,j
3801.0,3883.0,3018.0,2800.0,4095.0,3954.0,3643.0,4095.0,4.28,8.4,2.82,-1.11,0.23,0.13,1.0,j
3803.0,3856.0,3019.0,2794.0,4095.0,3952.0,3647.0,4095.0,4.89,8.25,4.2,-1.46,0.82,0.39,1.0,j
3802.0,3901.0,3018.0,2822.0,4095.0,3981.0,3639.0,4095.0,1.85,5.88,6.54,-2.32,3.0,1.31,1.0,j
3786.0,3887.0,3003.0,2799.0,4095.0,3972.0,3635.0,4095.0,-0.63,3.11,8.83,-2.37,2.9,1.34,1.0,j
3792.0,3887.0,3005.0,2788.0,4095.0,3947.0,3631.0,4095.0,-2.09,1.58,9.4,-1.94,2.39,1.06,1.0,j
3549.0,3696.0,2882.0,2684.0,4095.0,3663.0,3377.0,4095.0,-4.35,0.03,9.77,-1.98,3.19,1.49,1.0,j
3485.0,3662.0,2870.0,2473.0,4095.0,3600.0,3326.0,2166.0,-7.97,-0.59,8.49,-1.55,3.51,1.28,1.0,j
3564.0,3745.0,2896.0,2640.0,4095.0,3664.0,3380.0,2414.0,-9.73,-0.96,7.72,-1.16,1.94,1.17,1.0,j
3570.0,3741.0,2901.0,2656.0,4095.0,3666.0,3379.0,2559.0,-9.17,0.41,4.84,-0.99,1.57,1.14,1.0,j
3569.0,3737.0,2897.0,2676.0,4095.0,3690.0,3392.0,2613.0,-9.5,0.84,3.2,-1.1,1.48,1.15,1.0,j
3517.0,3690.0,2886.0,2643.0,4095.0,3659.0,3375.0,2640.0,-10.35,1.77,2.99,-0.72,1.23,1.6,1.0,j
3599.0,3766.0,2911.0,2634.0,4095.0,3721.0,3430.0,2559.0,-9.21,3.44,2.1,-0.0,0.9,2.22,1.0,j
3625.0,3792.0,2944.0,2673.0,4095.0,3787.0,3465.0,4095.0,-8.43,5.62,0.42,-0.08,0.4,2.09,1.0,j
3691.0,3834.0,2970.0,2704.0,4095.0,3819.0,3493.0,4095.0,-6.32,6.85,0.42,-0.18,-0.2,1.84,1.0,j
3731.0,3898.0,2992.0,2716.0,4095.0,3906.0,3548.0,4095.0,-4.14,8.15,0.58,-0.22,-0.19,1.41,1.0,j
3776.0,3909.0,3008.0,2719.0,4095.0,3946.0,3583.0,4095.0,-2.5,8.56,0.8,-0.3,-0.11,0.78,1.0,j
3760.0,3890.0,3007.0,2721.0,4095.0,3943.0,3581.0,4095.0,-2.88,8.73,1.56,-0.19,0.03,0.27,1.0,j
3809.0,3968.0,3024.0,2829.0,4095.0,3952.0,3603.0,4095.0,4.3,9.07,2.55,-0.15,-0.05,-0.17,1.0,j
3779.0,3921.0,3008.0,2788.0,4095.0,3936.0,3596.0,4095.0,3.84,8.85,2.02,-0.49,0.02,-0.01,1.0,j
3804.0,3947.0,3020.0,2784.0,4095.0,3950.0,3612.0,4095.0,3.99,8.61,2.3,-0.93,0.03,0.14,1.0,j
3774.0,3915.0,3011.0,2782.0,4095.0,3946.0,3598.0,4095.0,3.61,7.67,2.94,-1.44,0.19,0.31,1.0,j
3791.0,3938.0,3018.0,2734.0,4095.0,3955.0,3601.0,4095.0,4.63,6.36,4.89,-2.09,1.51,0.62,1.0,j
3777.0,3921.0,3005.0,2768.0,4095.0,3959.0,3610.0,4095.0,2.09,3.56,8.66,-2.68,2.9,1.11,1.0,j
3775.0,3952.0,3003.0,2788.0,4095.0,3963.0,3606.0,4095.0,-0.77,1.4,10.5,-1.92,2.48,1.08,1.0,j
3760.0,3950.0,2994.0,2756.0,4095.0,3919.0,3577.0,4095.0,-3.48,-0.01,9.87,-1.56,3.3,1.8,1.0,j
3536.0,3756.0,2893.0,2608.0,4095.0,3636.0,3358.0,3550.0,-7.77,0.17,10.42,-1.08,4.27,1.98,1.0,j
3548.0,3766.0,2909.0,2634.0,4095.0,3687.0,3395.0,2009.0,-9.61,1.19,6.23,-1.28,2.96,1.45,1.0,j
3538.0,3735.0,2890.0,2631.0,4095.0,3666.0,3388.0,2031.0,-9.84,2.05,3.5,-0.98,2.69,1.34,1.0,j
3573.0,3781.0,2915.0,2656.0,4095.0,3698.0,3412.0,4051.0,-10.89,2.98,2.6,-0.71,1.79,1.74,1.0,j
3598.0,3798.0,2928.0,2658.0,4095.0,3732.0,3438.0,4095.0,-10.1,4.69,0.59,-0.39,1.03,2.23,1.0,j
3665.0,3856.0,2964.0,2677.0,4095.0,3807.0,3497.0,3966.0,-7.91,6.26,-0.74,-0.4,0.27,2.39,1.0,j
3705.0,3877.0,2993.0,2695.0,4095.0,3865.0,3535.0,4095.0,-3.96,7.43,0.21,-0.44,-0.26,1.93,1.0,j
3764.0,3923.0,3015.0,2675.0,4095.0,3934.0,3571.0,4095.0,-1.67,7.86,0.66,-0.51,0.15,0.97,1.0,j
3734.0,3886.0,3008.0,2677.0,4095.0,3901.0,3572.0,4095.0,-2.83,8.38,1.02,-0.18,0.04,-0.11,1.0,j
3718.0,3898.0,3015.0,2711.0,4095.0,3907.0,3577.0,4095.0,-3.71,9.16,0.55,0.06,-0.0,-0.38,1.0,j
3733.0,3911.0,3009.0,2721.0,4095.0,3905.0,3583.0,4095.0,-4.24,9.33,0.43,-0.08,-0.25,-0.18,1.0,j
3747.0,3921.0,3024.0,2741.0,4095.0,3944.0,3612.0,4095.0,-3.89,9.04,0.37,-0.15,-0.46,-0.23,1.0,j
3815.0,3888.0,3018.0,2781.0,4095.0,3921.0,3626.0,4095.0,4.27,9.15,1.73,-0.06,0.02,-0.16,1.0,j
3799.0,3867.0,3014.0,2781.0,4095.0,3914.0,3618.0,4095.0,3.53,8.67,1.88,-0.74,0.36,0.06,1.0,j
3792.0,3870.0,3022.0,2790.0,4095.0,3921.0,3639.0,4095.0,4.01,7.66,2.95,-1.12,-0.59,-0.16,1.0,j
3794.0,3885.0,3006.0,2775.0,4095.0,3911.0,3621.0,4095.0,2.66,6.89,3.51,-1.76,0.14,0.52,1.0,j
3806.0,3875.0,3010.0,2758.0,4095.0,3968.0,3657.0,4043.0,2.84,4.73,6.34,-2.47,2.41,1.83,1.0,j
3777.0,3872.0,3008.0,2779.0,4095.0,3952.0,3625.0,4095.0,0.93,1.84,11.81,-2.27,4.49,2.32,1.0,j
3621.0,3725.0,2919.0,2720.0,4095.0,3773.0,3474.0,4095.0,-3.18,0.59,12.15,-1.5,4.35,2.82,1.0,j
3561.0,3706.0,2897.0,2656.0,4095.0,3691.0,3410.0,4095.0,-4.04,1.68,8.0,-1.02,4.67,1.96,1.0,j
3583.0,3729.0,2903.0,2667.0,4095.0,3702.0,3437.0,4095.0,-6.84,1.46,6.95,-0.82,2.87,1.28,1.0,j
3607.0,3744.0,2919.0,2683.0,4095.0,3714.0,3439.0,1882.0,-10.15,2.46,4.63,-0.5,3.48,1.57,1.0,j
3619.0,3763.0,2927.0,2693.0,4095.0,3728.0,3450.0,1962.0,-10.8,3.03,3.53,-0.55,1.55,1.89,1.0,j
3637.0,3769.0,2934.0,2685.0,4095.0,3757.0,3469.0,4095.0,-8.92,4.94,2.2,-0.13,0.82,2.11,1.0,j
3623.0,3763.0,2929.0,2681.0,4095.0,3766.0,3472.0,4095.0,-7.25,6.29,0.43,-0.02,0.37,1.95,1.0,j
3697.0,3835.0,2974.0,2734.0,4095.0,3850.0,3553.0,4095.0,-4.86,7.46,0.31,-0.18,-0.32,1.52,1.0,j
3726.0,3856.0,2981.0,2719.0,4095.0,3856.0,3561.0,4095.0,-3.25,8.17,0.78,-0.14,-0.23,0.8,1.0,j
3753.0,3889.0,3001.0,2735.0,4095.0,3905.0,3600.0,4095.0,-3.07,9.05,0.93,-0.05,-0.22,0.54,1.0,j
3734.0,3842.0,2983.0,2721.0,4095.0,3890.0,3581.0,4095.0,-2.44,9.43,0.73,0.0,-0.18,0.25,1.0,j
3734.0,3866.0,2992.0,2709.0,4095.0,3889.0,3578.0,4053.0,-2.14,9.0,1.3,-0.13,-0.17,-0.09,1.0,j
3747.0,3873.0,2992.0,2731.0,4095.0,3894.0,3583.0,4095.0,-2.99,9.19,1.34,0.03,0.1,-0.11,1.0,j
3761.0,3887.0,2993.0,2748.0,4095.0,3918.0,3611.0,4095.0,-3.22,9.47,0.95,0.07,-0.02,-0.06,1.0,j
