hall_1,hall_2,hall_3,flex_t,flex_i,flex_m,flex_r,flex_p,accel_x,accel_y,accel_z,gyro_x,gyro_y,gyro_z,hand,sign
4095.0,3643.0,2928.0,3330.0,3071.0,2791.0,2995.0,4095.0,-2.6,8.89,1.76,-0.11,0.03,-0.07,0.0,j
4095.0,3632.0,2917.0,3270.0,3071.0,2773.0,2989.0,4095.0,-1.86,7.59,0.81,-0.42,0.1,0.1,0.0,j
4095.0,3644.0,2934.0,3243.0,3090.0,2783.0,2985.0,4095.0,-0.51,8.18,2.58,-1.84,-3.17,-0.8,0.0,j
4095.0,3630.0,2928.0,3223.0,3071.0,2767.0,2954.0,4095.0,-2.37,7.69,6.08,-2.69,-2.18,-1.01,0.0,j
4095.0,3650.0,2930.0,3238.0,3085.0,2785.0,2970.0,4095.0,-3.19,6.73,10.39,-2.54,-2.03,-1.01,0.0,j
4095.0,3658.0,2930.0,3232.0,3095.0,2791.0,2973.0,4095.0,-1.9,5.4,13.68,-2.05,-2.32,-0.7,0.0,j
4095.0,3680.0,2928.0,3223.0,3093.0,2778.0,2956.0,4095.0,1.76,4.18,13.98,-1.69,-3.37,-1.06,0.0,j
4095.0,3676.0,2941.0,3201.0,3107.0,2783.0,2961.0,4095.0,4.45,3.0,14.67,-1.32,-3.95,-1.8,0.0,j
4095.0,3664.0,2932.0,3152.0,3105.0,2800.0,2975.0,4095.0,9.19,3.25,12.3,-0.92,-4.88,-2.45,0.0,j
4095.0,3684.0,2933.0,3249.0,3108.0,2818.0,2995.0,4095.0,8.86,4.36,10.71,-0.35,-4.67,-2.42,0.0,j
4095.0,3684.0,2927.0,3220.0,3119.0,2815.0,2994.0,4095.0,9.85,6.09,6.66,0.18,-1.77,-1.95,0.0,j
4095.0,3703.0,2937.0,3250.0,3142.0,2834.0,3023.0,4095.0,8.24,6.54,4.81,0.11,-0.52,-2.17,0.0,j
4095.0,3705.0,2922.0,3216.0,3135.0,2832.0,3022.0,4095.0,5.62,7.5,4.56,0.09,-0.68,-2.22,0.0,j
4095.0,3713.0,2926.0,3243.0,3141.0,2849.0,3046.0,4095.0,3.84,8.12,4.67,-0.19,-0.57,-1.97,0.0,j
4095.0,3693.0,2921.0,3243.0,3142.0,2855.0,3051.0,4095.0,2.15,8.18,4.86,-0.28,-0.2,-1.07,0.0,j
4095.0,3703.0,2943.0,3255.0,3152.0,2850.0,3053.0,4095.0,1.6,9.01,4.89,-0.01,-0.07,-0.55,0.0,j
4095.0,3716.0,2915.0,3258.0,3150.0,2850.0,3049.0,4095.0,1.71,9.18,4.91,0.02,0.16,-0.19,0.0,j
4095.0,3702.0,2928.0,3264.0,3146.0,2856.0,3056.0,4095.0,1.92,9.57,4.74,0.04,0.1,0.01,0.0,j
4095.0,3728.0,2928.0,3273.0,3153.0,2862.0,3062.0,4095.0,2.01,10.04,4.45,0.07,0.02,-0.08,0.0,j
4095.0,3685.0,2924.0,3274.0,3149.0,2858.0,3059.0,4095.0,1.91,9.82,4.46,0.03,-0.02,-0.15,0.0,j
4095.0,3664.0,2926.0,3433.0,3170.0,2856.0,3099.0,4095.0,-4.25,7.93,4.4,-0.96,-0.47,0.06,0.0,j
4095.0,3661.0,2924.0,3262.0,3149.0,2822.0,3068.0,4095.0,-3.1,7.27,5.25,-2.3,-0.31,0.15,0.0,j
4095.0,3664.0,2928.0,3325.0,3158.0,2825.0,3065.0,4095.0,-3.57,5.75,8.78,-2.1,-0.64,-0.95,0.0,j
4095.0,3659.0,2922.0,3286.0,3145.0,2819.0,3063.0,4095.0,-4.4,4.17,12.84,-1.88,-2.05,-1.7,0.0,j
4095.0,3663.0,2929.0,3234.0,3153.0,2816.0,3063.0,4095.0,-2.73,2.0,15.87,-1.28,-2.58,-1.66,0.0,j
4095.0,3654.0,2923.0,3216.0,3148.0,2807.0,3055.0,4095.0,-0.92,1.72,15.22,-0.78,-2.69,-1.47,0.0,j
4095.0,3664.0,2932.0,3157.0,3126.0,2801.0,3051.0,4095.0,2.19,1.64,14.11,-0.14,-1.96,-1.39,0.0,j
4095.0,3647.0,2930.0,3090.0,3133.0,2805.0,3053.0,4095.0,4.05,1.21,13.63,-0.17,-1.51,-2.22,0.0,j
4095.0,3638.0,2930.0,3146.0,3123.0,2791.0,3043.0,4095.0,5.21,1.86,13.78,0.82,-1.78,-2.15,0.0,j
4095.0,3667.0,2930.0,3195.0,3120.0,2782.0,3021.0,4095.0,5.13,4.78,10.76,0.24,-2.62,-2.6,0.0,j
4095.0,3646.0,2923.0,3195.0,3124.0,2782.0,3030.0,4095.0,6.32,5.2,11.2,-0.22,-1.88,-2.14,0.0,j
4095.0,3673.0,2939.0,3213.0,3138.0,2796.0,3047.0,4095.0,7.21,6.04,10.4,0.62,-0.83,-1.77,0.0,j
4095.0,3680.0,2928.0,3210.0,3139.0,2793.0,3051.0,4095.0,6.65,6.76,9.29,1.43,-0.15,-2.08,0.0,j
4095.0,3701.0,2928.0,3216.0,3141.0,2816.0,3084.0,4095.0,4.23,8.22,5.86,1.37,-0.61,-2.07,0.0,j
4095.0,3678.0,2928.0,3233.0,3139.0,2827.0,3089.0,4095.0,2.48,8.79,4.92,0.52,-0.61,-1.62,0.0,j
4095.0,3671.0,2929.0,3243.0,3155.0,2847.0,3108.0,4095.0,0.89,8.52,3.31,0.12,-0.2,-1.04,0.0,j
4095.0,3669.0,2923.0,3239.0,3162.0,2851.0,3109.0,4095.0,-0.18,9.32,4.51,0.01,-0.07,-0.18,0.0,j
4095.0,3679.0,2933.0,3253.0,3174.0,2864.0,3122.0,4095.0,0.62,9.84,4.52,0.01,-0.03,-0.03,0.0,j
4095.0,3667.0,2928.0,3264.0,3195.0,2871.0,3123.0,4095.0,0.64,9.93,4.69,0.05,-0.11,-0.17,0.0,j
4095.0,3684.0,2923.0,3258.0,3169.0,2863.0,3120.0,4095.0,0.85,9.86,4.44,-0.02,0.09,-0.14,0.0,j
4095.0,3639.0,2930.0,3440.0,3166.0,2855.0,3125.0,4095.0,-2.73,9.11,5.86,-0.22,0.15,-0.02,0.0,j
4095.0,3649.0,2925.0,3472.0,3169.0,2853.0,3125.0,4095.0,-2.83,9.06,5.41,-0.73,0.06,0.23,0.0,j
4095.0,3629.0,2919.0,3355.0,3152.0,2823.0,3109.0,4095.0,-2.13,8.15,5.23,-1.9,0.16,0.24,0.0,j
4095.0,3648.0,2935.0,3291.0,3162.0,2797.0,3095.0,4095.0,-1.78,6.87,10.06,-3.26,0.61,0.54,0.0,j
4095.0,3671.0,2928.0,3248.0,3152.0,2767.0,3089.0,4095.0,-1.18,4.93,13.37,-2.55,0.24,0.16,0.0,j
4095.0,3666.0,2928.0,3269.0,3183.0,2774.0,3130.0,3969.0,-0.26,2.28,14.19,-1.46,-0.39,-1.02,0.0,j
4095.0,3671.0,2924.0,3215.0,3178.0,2755.0,3137.0,3842.0,-1.5,2.87,14.69,-1.77,-1.84,-1.85,0.0,j
4095.0,3658.0,2944.0,3094.0,3183.0,2746.0,3147.0,3805.0,0.25,-0.03,13.46,-1.73,-1.56,-1.29,0.0,j
4095.0,3648.0,2928.0,3173.0,3207.0,2720.0,3153.0,3857.0,3.36,-0.96,14.1,-0.65,-2.46,-2.62,0.0,j
4095.0,3660.0,2928.0,3243.0,3226.0,2736.0,3184.0,3870.0,6.29,0.21,13.37,-0.62,-2.8,-2.56,0.0,j
4095.0,3647.0,2923.0,3232.0,3222.0,2745.0,3186.0,3637.0,7.64,-0.1,12.48,-1.13,-2.2,-1.88,0.0,j
4095.0,3645.0,2935.0,3247.0,3239.0,2751.0,3195.0,3664.0,8.7,1.78,9.74,-0.23,-2.52,-2.6,0.0,j
4095.0,3651.0,2931.0,3245.0,3248.0,2756.0,3185.0,3712.0,9.27,3.6,8.13,0.33,-2.41,-2.52,0.0,j
4095.0,3632.0,2928.0,3223.0,3238.0,2750.0,3165.0,3776.0,8.86,5.7,5.75,-0.07,-2.06,-2.18,0.0,j
4095.0,3646.0,2930.0,3217.0,3233.0,2767.0,3163.0,3787.0,7.34,7.44,4.52,-0.08,-2.17,-2.3,0.0,j
4095.0,3664.0,2925.0,3183.0,3200.0,2763.0,3131.0,3754.0,6.66,8.95,3.24,-0.13,-1.1,-1.86,0.0,j
4095.0,3673.0,2933.0,3195.0,3184.0,2770.0,3107.0,4048.0,4.81,9.17,2.97,-0.06,-0.43,-1.66,0.0,j
4095.0,3663.0,2928.0,3248.0,3172.0,2782.0,3086.0,4095.0,2.06,8.98,2.68,-0.2,-0.44,-1.69,0.0,j
4095.0,3690.0,2921.0,3239.0,3181.0,2807.0,3103.0,4095.0,0.78,8.64,3.29,-0.3,-0.08,-0.73,0.0,j
4095.0,3667.0,2922.0,3248.0,3183.0,2807.0,3101.0,4095.0,0.9,9.0,3.77,-0.14,0.06,-0.21,0.0,j
4095.0,3638.0,2918.0,3410.0,3152.0,2833.0,3148.0,4095.0,-4.35,8.72,5.56,-0.33,0.16,0.02,0.0,j
4095.0,3583.0,2915.0,3366.0,3159.0,2847.0,3158.0,4095.0,-2.8,8.04,4.06,-1.84,-0.44,0.99,0.0,j
4095.0,3575.0,2928.0,3380.0,3151.0,2807.0,3138.0,4095.0,-0.58,6.96,7.07,-2.87,-0.5,0.45,0.0,j
4095.0,3577.0,2919.0,3354.0,3153.0,2809.0,3143.0,4095.0,0.56,5.27,11.45,-2.95,-2.22,-0.38,0.0,j
4095.0,3569.0,2927.0,3327.0,3152.0,2811.0,3141.0,4095.0,2.39,3.25,14.14,-2.38,-2.18,-0.39,0.0,j
4095.0,3566.0,2925.0,3257.0,3152.0,2796.0,3140.0,4095.0,3.8,1.18,15.9,-2.5,-2.56,-1.3,0.0,j
4095.0,3583.0,2928.0,3262.0,3165.0,2798.0,3152.0,4095.0,6.32,1.94,13.49,-0.66,-2.59,-2.04,0.0,j
4095.0,3558.0,2931.0,3269.0,3158.0,2782.0,3146.0,4095.0,7.35,3.06,11.44,-0.1,-3.36,-2.8,0.0,j
4095.0,3557.0,2928.0,3283.0,3163.0,2800.0,3157.0,4095.0,9.34,5.37,7.71,-0.18,-3.86,-2.86,0.0,j
4095.0,3557.0,2918.0,3309.0,3151.0,2799.0,3149.0,4095.0,8.95,7.52,4.9,-0.22,-3.2,-2.55,0.0,j
4095.0,3552.0,2915.0,3267.0,3155.0,2810.0,3134.0,4095.0,7.08,8.25,3.5,-0.64,-1.33,-1.91,0.0,j
4095.0,3571.0,2922.0,3296.0,3139.0,2814.0,3120.0,4095.0,4.88,8.38,3.44,-0.67,-0.85,-1.7,0.0,j
4095.0,3573.0,2931.0,3312.0,3152.0,2827.0,3131.0,4095.0,2.7,8.32,3.77,-0.56,-0.49,-1.35,0.0,j
4095.0,3573.0,2923.0,3311.0,3153.0,2832.0,3127.0,4095.0,1.06,8.43,4.13,-0.38,-0.07,-0.82,0.0,j
4095.0,3583.0,2928.0,3318.0,3174.0,2846.0,3136.0,4095.0,0.86,8.41,4.24,-0.02,-0.09,-0.38,0.0,j
4095.0,3557.0,2921.0,3313.0,3169.0,2847.0,3125.0,4095.0,1.5,9.5,4.39,0.19,-0.03,0.02,0.0,j
4095.0,3564.0,2923.0,3319.0,3167.0,2835.0,3125.0,4095.0,1.47,10.1,3.57,0.12,-0.12,-0.11,0.0,j
4095.0,3582.0,2933.0,3328.0,3171.0,2845.0,3139.0,4095.0,1.44,9.99,3.63,0.06,0.04,-0.14,0.0,j
4095.0,3579.0,2912.0,3317.0,3168.0,2845.0,3131.0,4095.0,1.51,9.72,3.84,0.01,0.05,-0.13,0.0,j
4095.0,3570.0,2921.0,3336.0,3180.0,2850.0,3138.0,4095.0,1.51,9.79,3.65,0.04,0.01,-0.07,0.0,j
4095.0,3600.0,2934.0,3409.0,3199.0,2839.0,3173.0,4095.0,-2.12,8.07,3.7,-1.16,-0.67,0.19,0.0,j
4095.0,3583.0,2928.0,3356.0,3181.0,2842.0,3159.0,4095.0,0.04,6.04,5.64,-3.59,-0.31,0.57,0.0,j
4095.0,3619.0,2927.0,3340.0,3161.0,2826.0,3153.0,4095.0,2.27,2.35,12.09,-3.69,-0.95,-0.84,0.0,j
4095.0,3615.0,2919.0,3225.0,3153.0,2829.0,3155.0,4095.0,1.26,-1.84,17.65,-2.93,-1.32,-0.51,0.0,j
4095.0,3632.0,2929.0,3233.0,3143.0,2810.0,3163.0,4095.0,2.93,-1.57,16.5,-1.32,-2.56,-2.08,0.0,j
4095.0,3628.0,2926.0,3055.0,3152.0,2768.0,3161.0,4095.0,5.29,0.24,14.5,-1.35,-3.64,-2.97,0.0,j
4095.0,3563.0,2941.0,3173.0,3173.0,2778.0,3197.0,4095.0,6.45,1.51,11.19,-0.7,-3.45,-1.79,0.0,j
4095.0,3550.0,2933.0,3209.0,3179.0,2783.0,3197.0,4095.0,10.23,1.33,7.68,-1.38,-2.73,-1.6,0.0,j
4095.0,3542.0,2933.0,3163.0,3169.0,2787.0,3190.0,4095.0,11.3,2.72,5.24,-0.32,-2.87,-2.03,0.0,j
4095.0,3547.0,2928.0,3152.0,3158.0,2768.0,3143.0,4095.0,9.28,5.0,2.6,-1.03,-3.01,-2.62,0.0,j
4095.0,3552.0,2921.0,3210.0,3156.0,2768.0,3120.0,4095.0,9.05,6.15,2.03,-0.98,-2.09,-1.86,0.0,j
4095.0,3568.0,2929.0,3233.0,3158.0,2774.0,3107.0,4095.0,8.02,6.77,1.06,-0.76,-1.12,-1.65,0.0,j
4095.0,3572.0,2937.0,3198.0,3149.0,2774.0,3083.0,4095.0,6.5,7.83,1.23,-0.79,-0.36,-1.42,0.0,j
4095.0,3579.0,2934.0,3248.0,3154.0,2791.0,3104.0,4095.0,4.02,7.66,1.82,-0.64,-0.31,-1.82,0.0,j
4095.0,3582.0,2914.0,3235.0,3157.0,2803.0,3109.0,4095.0,1.28,7.92,2.56,-0.7,0.35,-0.96,0.0,j
4095.0,3597.0,2944.0,3255.0,3171.0,2816.0,3110.0,4095.0,0.99,8.41,3.07,-0.43,0.25,-0.27,0.0,j
4095.0,3577.0,2932.0,3268.0,3165.0,2809.0,3107.0,4095.0,1.35,9.18,3.63,-0.07,0.17,-0.15,0.0,j
4095.0,3602.0,2931.0,3275.0,3179.0,2818.0,3115.0,4095.0,1.22,10.01,3.2,0.15,0.01,-0.09,0.0,j
4095.0,3598.0,2928.0,3269.0,3165.0,2813.0,3107.0,4095.0,1.86,10.01,3.0,0.04,0.06,-0.13,0.0,j
4095.0,3583.0,2938.0,3295.0,3167.0,2815.0,3111.0,4095.0,1.64,9.54,3.36,-0.03,0.04,-0.09,0.0,j
4095.0,3636.0,2925.0,3373.0,3195.0,2839.0,3170.0,4095.0,-3.6,9.07,4.74,-0.25,0.2,0.07,0.0,j
4095.0,3632.0,2928.0,3344.0,3185.0,2837.0,3170.0,4095.0,-3.04,8.27,2.62,-1.68,-0.99,0.33,0.0,j
4095.0,3636.0,2931.0,3329.0,3170.0,2825.0,3148.0,4095.0,-2.01,5.0,6.96,-4.45,-1.47,1.35,0.0,j
4095.0,3632.0,2935.0,3289.0,3153.0,2815.0,3153.0,4095.0,3.57,0.82,14.07,-2.99,-1.71,-0.15,0.0,j
4095.0,3583.0,2923.0,3141.0,3146.0,2778.0,3150.0,4095.0,5.02,0.26,16.77,-2.22,-3.25,-1.49,0.0,j
4095.0,3597.0,2931.0,3105.0,3167.0,2759.0,3170.0,4095.0,9.44,1.41,13.52,-1.44,-2.72,-1.98,0.0,j
4095.0,3573.0,2928.0,3214.0,3184.0,2770.0,3168.0,4095.0,9.84,2.18,10.72,-1.44,-4.01,-2.85,0.0,j
4095.0,3568.0,2928.0,3287.0,3186.0,2786.0,3165.0,4095.0,11.13,4.18,7.79,-0.52,-3.97,-2.66,0.0,j
4095.0,3583.0,2927.0,3266.0,3157.0,2769.0,3113.0,4095.0,10.38,6.29,3.22,-0.38,-4.59,-2.48,0.0,j
4095.0,3579.0,2928.0,3275.0,3159.0,2800.0,3121.0,4095.0,8.84,7.36,2.29,-1.01,-1.87,-1.78,0.0,j
4095.0,3580.0,2913.0,3236.0,3159.0,2803.0,3119.0,4095.0,6.79,7.41,2.48,-0.97,-0.66,-1.59,0.0,j
4095.0,3600.0,2923.0,3254.0,3170.0,2817.0,3134.0,4095.0,3.96,7.29,2.56,-0.6,-0.38,-1.45,0.0,j
4095.0,3583.0,2934.0,3278.0,3171.0,2811.0,3135.0,4095.0,2.38,7.54,3.05,-0.22,0.49,-0.9,0.0,j
4095.0,3599.0,2933.0,3281.0,3175.0,2815.0,3139.0,4095.0,1.16,9.01,3.01,-0.05,0.13,-0.36,0.0,j
4095.0,3604.0,2939.0,3293.0,3174.0,2828.0,3136.0,4095.0,1.41,9.78,2.54,0.07,-0.1,-0.28,0.0,j
4095.0,3583.0,2919.0,3298.0,3175.0,2827.0,3131.0,4095.0,1.56,9.62,2.65,-0.0,0.09,-0.2,0.0,j
4095.0,3607.0,2931.0,3307.0,3178.0,2830.0,3142.0,4095.0,1.52,9.64,2.64,-0.04,0.03,-0.12,0.0,j
4095.0,3583.0,2928.0,3299.0,3179.0,2832.0,3132.0,4095.0,1.98,9.61,2.91,-0.05,0.04,-0.1,0.0,j
4095.0,3583.0,2933.0,3301.0,3180.0,2834.0,3142.0,4095.0,1.93,9.81,2.82,0.03,-0.04,-0.12,0.0,j
4095.0,3583.0,2928.0,3299.0,3174.0,2831.0,3141.0,4095.0,1.88,9.82,2.55,-0.02,-0.04,-0.15,0.0,j
4095.0,3626.0,2928.0,3391.0,3190.0,2807.0,3152.0,4095.0,-1.1,9.46,6.15,0.73,0.19,-0.47,0.0,j
4095.0,3607.0,2933.0,3391.0,3183.0,2807.0,3152.0,4095.0,-1.46,9.38,6.47,0.14,-0.01,-0.18,0.0,j
4095.0,3613.0,2927.0,3406.0,3196.0,2826.0,3164.0,4095.0,-1.26,9.4,6.64,0.04,-0.18,-0.28,0.0,j
4095.0,3619.0,2926.0,3399.0,3195.0,2804.0,3152.0,4095.0,-1.33,9.39,6.98,0.09,-0.12,-0.22,0.0,j
4095.0,3612.0,2919.0,3408.0,3199.0,2818.0,3159.0,4095.0,-1.54,9.51,6.42,0.14,-0.0,-0.23,0.0,j
4095.0,3610.0,2919.0,3403.0,3184.0,2812.0,3155.0,4095.0,-1.62,9.46,5.78,0.02,0.03,-0.2,0.0,j
4095.0,3601.0,2922.0,3405.0,3185.0,2813.0,3153.0,4095.0,-2.78,9.62,3.22,-0.93,0.32,0.4,0.0,j
4095.0,3606.0,2917.0,3340.0,3194.0,2829.0,3159.0,4095.0,-1.01,6.53,5.32,-3.28,0.36,1.15,0.0,j
4095.0,3631.0,2915.0,3366.0,3184.0,2822.0,3162.0,4095.0,0.68,4.48,10.5,-3.39,-0.83,0.14,0.0,j
4095.0,3641.0,2923.0,3363.0,3187.0,2814.0,3166.0,4095.0,4.69,1.98,14.35,-3.0,-2.97,-1.2,0.0,j
4095.0,3627.0,2930.0,3134.0,3176.0,2789.0,3141.0,4095.0,6.88,1.22,14.74,-2.39,-4.66,-1.61,0.0,j
4095.0,3620.0,2942.0,3045.0,3190.0,2811.0,3174.0,4095.0,10.44,2.58,9.99,-1.63,-3.94,-1.29,0.0,j
4095.0,3632.0,2928.0,3129.0,3190.0,2816.0,3166.0,4095.0,11.27,3.45,6.04,-1.83,-3.72,-2.07,0.0,j
4095.0,3695.0,2922.0,3235.0,3201.0,2818.0,3152.0,4095.0,11.19,5.25,3.82,-0.96,-4.29,-2.73,0.0,j
4095.0,3707.0,2928.0,3270.0,3195.0,2811.0,3127.0,4095.0,8.84,7.25,1.92,-0.57,-2.22,-2.25,0.0,j
4095.0,3743.0,2927.0,3310.0,3191.0,2815.0,3122.0,4095.0,6.56,7.58,1.73,-1.06,-0.24,-1.31,0.0,j
4095.0,3774.0,2921.0,3286.0,3178.0,2823.0,3119.0,4095.0,4.3,7.81,2.4,-0.75,-0.37,-1.41,0.0,j
4095.0,3778.0,2930.0,3294.0,3181.0,2835.0,3133.0,4095.0,2.56,7.71,3.17,-0.54,0.11,-1.12,0.0,j
4095.0,3767.0,2927.0,3312.0,3190.0,2847.0,3141.0,4095.0,2.11,8.5,3.47,0.01,0.09,-0.82,0.0,j
4095.0,3767.0,2905.0,3317.0,3190.0,2844.0,3133.0,4095.0,1.65,8.86,3.69,-0.07,-0.06,-0.24,0.0,j
4095.0,3879.0,2919.0,3413.0,3214.0,2862.0,3201.0,4095.0,-3.98,9.43,4.05,-0.66,0.01,0.39,0.0,j
4095.0,3843.0,2928.0,3396.0,3200.0,2849.0,3187.0,4095.0,-2.33,8.48,4.68,-2.0,-0.22,0.86,0.0,j
4095.0,3869.0,2934.0,3406.0,3201.0,2837.0,3186.0,4095.0,-1.49,6.5,7.42,-2.64,0.05,0.64,0.0,j
4095.0,3839.0,2916.0,3346.0,3190.0,2832.0,3190.0,4095.0,-1.02,5.62,10.64,-2.21,-0.61,-0.17,0.0,j
4095.0,3901.0,2928.0,3365.0,3189.0,2843.0,3195.0,4095.0,-0.37,4.18,13.43,-2.68,-1.99,-0.56,0.0,j
4095.0,3901.0,2921.0,3301.0,3166.0,2811.0,3170.0,4005.0,5.68,1.92,14.3,-1.69,-3.17,-1.7,0.0,j
4095.0,3934.0,2927.0,3141.0,3168.0,2797.0,3161.0,3902.0,6.22,1.96,14.11,-1.18,-4.02,-2.32,0.0,j
4095.0,3895.0,2928.0,3152.0,3156.0,2782.0,3152.0,3998.0,7.23,3.04,11.66,-0.53,-3.52,-1.25,0.0,j
4095.0,3888.0,2936.0,3241.0,3165.0,2796.0,3154.0,4044.0,10.26,3.51,7.14,-0.84,-3.24,-1.53,0.0,j
4095.0,3888.0,2923.0,3266.0,3168.0,2800.0,3153.0,4016.0,9.98,4.76,5.36,-0.91,-3.03,-1.6,0.0,j
4095.0,3899.0,2922.0,3266.0,3164.0,2798.0,3137.0,4068.0,9.14,5.5,3.65,-0.46,-1.87,-1.2,0.0,j
4095.0,3918.0,2941.0,3278.0,3171.0,2787.0,3132.0,4095.0,8.21,6.72,1.9,-0.47,-1.67,-1.23,0.0,j
4095.0,3905.0,2929.0,3298.0,3159.0,2790.0,3116.0,4095.0,7.74,7.41,1.66,-0.55,-0.96,-1.1,0.0,j
4095.0,3937.0,2931.0,3309.0,3174.0,2810.0,3127.0,4095.0,6.58,8.1,1.75,-0.59,-0.85,-1.23,0.0,j
4095.0,3941.0,2925.0,3326.0,3167.0,2807.0,3121.0,4095.0,4.63,8.57,1.82,-0.67,-0.8,-1.42,0.0,j
4095.0,3959.0,2935.0,3344.0,3180.0,2820.0,3139.0,4095.0,3.71,8.98,2.37,-0.79,0.01,-0.98,0.0,j
4095.0,3937.0,2918.0,3337.0,3179.0,2823.0,3135.0,4095.0,3.08,8.97,3.29,-0.54,0.08,-0.89,0.0,j
4095.0,3953.0,2922.0,3317.0,3184.0,2833.0,3145.0,4095.0,1.26,8.54,3.75,-0.52,0.31,-0.51,0.0,j
4095.0,3953.0,2916.0,3323.0,3184.0,2827.0,3139.0,4095.0,1.49,9.02,4.64,-0.27,0.37,-0.13,0.0,j
4095.0,3963.0,2931.0,3343.0,3195.0,2833.0,3149.0,4095.0,1.54,9.5,4.65,-0.05,-0.1,-0.24,0.0,j
4095.0,4095.0,2923.0,3329.0,3191.0,2870.0,3198.0,4095.0,-2.85,9.97,4.55,-0.13,0.89,0.35,0.0,j
4095.0,4095.0,2933.0,3297.0,3180.0,2864.0,3210.0,4095.0,-1.0,8.93,3.68,-2.42,0.05,1.21,0.0,j
4095.0,4095.0,2927.0,3284.0,3175.0,2867.0,3191.0,4095.0,-0.37,5.99,6.91,-3.51,1.03,0.74,0.0,j
4095.0,4095.0,2928.0,3202.0,3165.0,2809.0,3184.0,4095.0,0.15,18.15,14.28,-2.93,-1.59,1.25,0.0,j
4095.0,4095.0,2915.0,3306.0,3181.0,2843.0,3189.0,4095.0,-1.02,4.42,10.19,-0.78,-0.51,-0.54,0.0,j
4095.0,4095.0,2925.0,3313.0,3198.0,2868.0,3213.0,4095.0,0.59,1.28,13.24,-1.71,-0.84,-0.26,0.0,j
4095.0,4095.0,2924.0,3034.0,3178.0,2833.0,3213.0,4095.0,0.78,0.18,14.9,-2.23,-0.75,-0.98,0.0,j
4095.0,4095.0,2929.0,3121.0,3187.0,2821.0,3217.0,4095.0,3.27,-1.34,15.18,-1.62,-1.87,-1.57,0.0,j
4095.0,4095.0,2927.0,3099.0,3186.0,2800.0,3237.0,4095.0,5.56,-0.56,13.77,-0.61,-2.4,-2.17,0.0,j
4095.0,4095.0,2931.0,3210.0,3191.0,2816.0,3253.0,4095.0,7.26,0.03,12.58,-0.49,-1.87,-1.74,0.0,j
4095.0,4095.0,2928.0,3179.0,3200.0,2821.0,3253.0,4095.0,8.22,0.64,11.32,-0.39,-1.08,-1.2,0.0,j
4095.0,4095.0,2924.0,3184.0,3199.0,2823.0,3261.0,4095.0,8.88,1.04,10.33,-0.36,-0.99,-1.43,0.0,j
4095.0,4095.0,2927.0,3197.0,3216.0,2830.0,3273.0,4095.0,8.71,1.81,9.63,-0.59,-1.56,-1.56,0.0,j
4095.0,4095.0,2919.0,3159.0,3202.0,2822.0,3253.0,4095.0,9.45,2.72,8.72,-1.16,-1.2,-1.29,0.0,j
4095.0,4095.0,2929.0,3101.0,3203.0,2830.0,3245.0,4095.0,10.29,3.51,6.27,-1.24,-1.54,-1.42,0.0,j
4095.0,4095.0,2928.0,3127.0,3200.0,2817.0,3235.0,4095.0,9.62,3.99,6.33,-0.85,-0.63,-1.08,0.0,j
4095.0,4095.0,2928.0,3145.0,3207.0,2821.0,3238.0,4095.0,8.61,4.71,6.32,-0.19,-0.51,-1.37,0.0,j
4095.0,4095.0,2917.0,3118.0,3210.0,2815.0,3216.0,4095.0,8.08,5.75,5.62,0.05,-1.08,-1.69,0.0,j
4095.0,4095.0,2945.0,3203.0,3204.0,2814.0,3186.0,4095.0,7.05,7.05,3.97,0.43,-0.73,-1.84,0.0,j
4095.0,4095.0,2926.0,3245.0,3194.0,2800.0,3149.0,4095.0,5.04,8.28,2.73,0.01,-0.91,-1.92,0.0,j
4095.0,4095.0,2924.0,3351.0,3205.0,2819.0,3184.0,4095.0,-3.37,8.43,3.59,-0.77,-0.65,-0.07,0.0,j
4095.0,4095.0,2933.0,3376.0,3210.0,2827.0,3200.0,4095.0,-1.58,7.27,7.03,-2.65,-2.85,0.35,0.0,j
4095.0,4095.0,2929.0,3339.0,3199.0,2813.0,3189.0,4095.0,-0.33,6.05,10.53,-2.31,-0.71,0.26,0.0,j
4095.0,4095.0,2931.0,3343.0,3204.0,2811.0,3200.0,4095.0,-0.24,5.4,12.9,-2.26,-0.59,-0.08,0.0,j
4095.0,4095.0,2923.0,3333.0,3199.0,2769.0,3149.0,4095.0,1.73,2.82,13.42,-1.99,-1.7,-1.08,0.0,j
4095.0,4095.0,2935.0,3315.0,3213.0,2781.0,3180.0,4095.0,4.04,0.69,15.66,-1.47,-1.7,-0.96,0.0,j
4095.0,4095.0,2919.0,3304.0,3216.0,2787.0,3180.0,4095.0,4.51,0.98,13.98,-0.9,-1.95,-0.91,0.0,j
4095.0,4095.0,2928.0,3280.0,3218.0,2800.0,3184.0,4095.0,7.6,1.03,12.19,-0.82,-2.82,-1.33,0.0,j
4095.0,4095.0,2918.0,3307.0,3221.0,2803.0,3189.0,4095.0,8.89,0.98,10.3,-0.55,-2.12,-1.16,0.0,j
4095.0,4095.0,2923.0,3298.0,3216.0,2816.0,3201.0,4095.0,9.1,1.69,7.5,-0.79,-1.65,-0.82,0.0,j
4095.0,4071.0,2923.0,3295.0,3217.0,2815.0,3191.0,4095.0,10.05,1.85,6.39,-0.64,-1.6,-0.92,0.0,j
4095.0,4074.0,2919.0,3284.0,3216.0,2814.0,3185.0,4095.0,10.66,2.62,5.32,-0.58,-1.41,-0.95,0.0,j
4095.0,4061.0,2928.0,3283.0,3223.0,2821.0,3181.0,4095.0,10.17,3.74,3.67,-0.53,-1.77,-1.21,0.0,j
4095.0,4062.0,2917.0,3280.0,3211.0,2804.0,3167.0,4095.0,10.0,4.51,2.78,-0.66,-1.06,-1.2,0.0,j
4095.0,4061.0,2928.0,3250.0,3210.0,2801.0,3152.0,4095.0,9.09,6.11,2.3,-0.5,-1.07,-1.55,0.0,j
4095.0,4060.0,2921.0,3230.0,3207.0,2800.0,3131.0,4095.0,7.11,6.47,1.66,-0.36,-0.96,-2.04,0.0,j
4095.0,4080.0,2928.0,3245.0,3210.0,2801.0,3117.0,4095.0,4.83,7.29,1.54,-0.44,-0.86,-1.73,0.0,j
4095.0,4095.0,2922.0,3246.0,3202.0,2794.0,3104.0,4095.0,4.02,7.98,1.65,-0.46,-0.51,-1.16,0.0,j
4095.0,4095.0,2938.0,3259.0,3209.0,2794.0,3110.0,4095.0,3.08,8.19,2.19,-0.53,0.08,-0.56,0.0,j
4095.0,4095.0,2931.0,3260.0,3213.0,2792.0,3110.0,4095.0,2.38,8.6,2.89,-0.28,-0.02,-0.26,0.0,j
4095.0,3299.0,2929.0,3283.0,2945.0,2649.0,2779.0,4095.0,-3.53,9.02,2.89,0.04,0.73,-0.09,0.0,j
4095.0,3297.0,2935.0,3280.0,2955.0,2651.0,2779.0,4095.0,-3.82,8.69,2.57,-0.45,0.78,0.27,0.0,j
4095.0,3302.0,2941.0,3263.0,2951.0,2646.0,2779.0,4095.0,-2.47,8.38,3.26,-1.21,0.21,0.34,0.0,j
4095.0,3289.0,2935.0,3185.0,2943.0,2631.0,2771.0,4095.0,-2.42,8.57,4.98,-1.88,-0.51,0.18,0.0,j
4095.0,3302.0,2928.0,3237.0,2947.0,2637.0,2781.0,4095.0,-2.61,8.62,7.69,-1.97,-0.97,-0.15,0.0,j
4095.0,3281.0,2928.0,3238.0,2938.0,2625.0,2768.0,4095.0,-0.22,7.74,10.23,-1.86,-1.5,-0.41,0.0,j
4095.0,3287.0,2935.0,3239.0,2946.0,2627.0,2766.0,4095.0,-0.67,6.5,11.82,-1.75,-1.01,-0.41,0.0,j
4095.0,3283.0,2929.0,3219.0,2929.0,2622.0,2762.0,4095.0,0.2,5.04,12.95,-1.52,-1.15,-0.16,0.0,j
4095.0,3276.0,2931.0,3184.0,2933.0,2607.0,2786.0,4095.0,1.05,3.65,14.05,-1.62,-1.41,-0.38,0.0,j
4095.0,3269.0,2935.0,3157.0,2932.0,2603.0,2791.0,4095.0,3.02,2.74,13.81,-1.11,-1.7,-0.71,0.0,j
4095.0,3270.0,2942.0,3159.0,2940.0,2603.0,2800.0,4095.0,3.52,2.7,13.67,-0.74,-2.1,-1.07,0.0,j
4095.0,3260.0,2927.0,3237.0,2927.0,2602.0,2800.0,4095.0,4.58,2.54,13.31,-0.33,-0.87,-1.11,0.0,j
4095.0,3266.0,2939.0,3246.0,2930.0,2606.0,2800.0,4095.0,4.98,2.15,12.89,-0.39,-1.21,-1.24,0.0,j
4095.0,3256.0,2928.0,3244.0,2942.0,2613.0,2800.0,4095.0,6.54,2.41,11.9,-0.08,-1.83,-1.3,0.0,j
4095.0,3278.0,2944.0,3237.0,2930.0,2613.0,2805.0,4095.0,7.84,2.95,11.7,-0.06,-2.07,-1.58,0.0,j
4095.0,3281.0,2943.0,3239.0,2928.0,2615.0,2800.0,4095.0,9.47,4.47,9.26,0.18,-2.01,-1.74,0.0,j
4095.0,3269.0,2935.0,3232.0,2927.0,2608.0,2786.0,4095.0,9.02,5.89,7.41,0.17,-2.01,-2.03,0.0,j
4095.0,3280.0,2935.0,3248.0,2937.0,2615.0,2781.0,4095.0,7.85,6.95,5.05,-0.02,-2.2,-2.07,0.0,j
4095.0,3287.0,2933.0,3213.0,2932.0,2615.0,2765.0,4095.0,5.98,7.57,3.75,-0.28,-2.01,-1.79,0.0,j
4095.0,3292.0,2937.0,3235.0,2942.0,2624.0,2773.0,4095.0,4.68,8.05,4.14,-0.44,-0.99,-1.12,0.0,j
4095.0,3337.0,2929.0,3301.0,2991.0,2678.0,2826.0,4095.0,-4.01,9.15,3.38,-0.06,0.28,0.03,0.0,j
4095.0,3335.0,2941.0,3303.0,2991.0,2673.0,2816.0,4095.0,-3.52,8.99,3.53,-0.2,0.16,0.04,0.0,j
4095.0,3335.0,2934.0,3287.0,2992.0,2668.0,2822.0,4095.0,-2.81,9.2,2.21,-0.95,0.06,0.32,0.0,j
4095.0,3317.0,2935.0,3285.0,2976.0,2641.0,2797.0,4095.0,-2.23,8.03,3.9,-2.01,-0.08,0.38,0.0,j
4095.0,3342.0,2928.0,3230.0,2982.0,2640.0,2800.0,4095.0,-2.15,7.68,7.79,-2.39,-0.12,0.08,0.0,j
4095.0,3339.0,2936.0,3253.0,2975.0,2635.0,2800.0,4095.0,-0.84,6.13,10.62,-2.13,0.06,-0.4,0.0,j
4095.0,3348.0,2942.0,3222.0,2981.0,2637.0,2805.0,3976.0,-1.52,4.53,12.81,-2.73,0.29,-0.53,0.0,j
4095.0,3345.0,2941.0,3184.0,2975.0,2627.0,2800.0,3913.0,-1.96,3.52,14.32,-1.72,-0.53,-0.88,0.0,j
4095.0,3344.0,2938.0,3207.0,2979.0,2636.0,2814.0,3830.0,-1.34,2.51,15.05,-0.75,-1.21,-1.59,0.0,j
4095.0,3350.0,2939.0,3207.0,2975.0,2627.0,2817.0,3815.0,-0.42,1.76,14.34,-0.79,-1.34,-1.72,0.0,j
4095.0,3335.0,2939.0,3197.0,2969.0,2626.0,2811.0,3801.0,0.67,0.52,15.2,-0.61,-1.75,-1.62,0.0,j
4095.0,3335.0,2941.0,3191.0,2970.0,2611.0,2807.0,3795.0,2.03,0.45,14.89,-0.53,-1.97,-1.67,0.0,j
4095.0,3331.0,2944.0,3153.0,2955.0,2601.0,2805.0,3829.0,4.17,0.91,13.59,-0.04,-1.83,-1.56,0.0,j
4095.0,3334.0,2944.0,3124.0,2959.0,2599.0,2800.0,3871.0,5.37,1.75,12.39,-0.03,-1.72,-1.51,0.0,j
4095.0,3327.0,2940.0,3113.0,2951.0,2602.0,2799.0,3887.0,6.98,2.34,11.53,-0.08,-2.41,-1.77,0.0,j
4095.0,3323.0,2939.0,3115.0,2954.0,2608.0,2815.0,3943.0,8.28,3.19,10.44,0.03,-2.5,-2.17,0.0,j
4095.0,3310.0,2922.0,3071.0,2940.0,2613.0,2795.0,4095.0,8.93,4.79,8.92,0.21,-2.11,-2.19,0.0,j
4095.0,3334.0,2948.0,3105.0,2931.0,2611.0,2788.0,4095.0,9.48,7.63,6.23,0.54,-1.01,-2.0,0.0,j
4095.0,3339.0,2935.0,3088.0,2928.0,2606.0,2785.0,4095.0,6.34,7.34,5.11,0.39,-0.48,-1.89,0.0,j
4095.0,3342.0,2944.0,3088.0,2934.0,2612.0,2782.0,4095.0,4.88,8.43,4.06,0.08,-1.33,-1.75,0.0,j
4095.0,3351.0,2933.0,3184.0,2953.0,2639.0,2838.0,4095.0,-3.67,8.42,-0.01,-0.98,-0.02,0.46,0.0,j
4095.0,3344.0,2935.0,3216.0,2962.0,2656.0,2851.0,4095.0,-1.47,6.95,2.66,-2.71,-2.32,0.5,0.0,j
4095.0,3339.0,2933.0,3182.0,2965.0,2659.0,2836.0,4095.0,-0.04,5.78,7.39,-3.66,-3.2,1.01,0.0,j
4095.0,3343.0,2931.0,3209.0,2969.0,2663.0,2855.0,4095.0,3.85,5.28,11.53,-2.63,-3.76,0.08,0.0,j
4095.0,3332.0,2931.0,3213.0,2955.0,2640.0,2840.0,4095.0,9.18,4.42,11.28,-2.35,-4.64,-0.66,0.0,j
4095.0,3346.0,2938.0,3198.0,2960.0,2651.0,2846.0,4095.0,9.79,3.24,13.74,-2.23,-4.38,-1.17,0.0,j
4095.0,3323.0,2933.0,3195.0,2959.0,2653.0,2846.0,4095.0,12.12,5.27,8.21,-1.22,-4.32,-1.51,0.0,j
4095.0,3340.0,2933.0,3203.0,2960.0,2645.0,2853.0,4064.0,11.69,7.07,5.86,-0.98,-3.8,-1.94,0.0,j
4095.0,3331.0,2928.0,3229.0,2953.0,2658.0,2848.0,4095.0,8.9,7.3,2.96,-0.84,-3.31,-2.56,0.0,j
4095.0,3334.0,2933.0,3213.0,2957.0,2657.0,2846.0,4095.0,5.59,6.82,2.21,-0.8,-1.5,-2.05,0.0,j
4095.0,3335.0,2928.0,3191.0,2962.0,2666.0,2847.0,4095.0,3.8,6.78,3.11,-0.78,-0.27,-1.37,0.0,j
4095.0,3338.0,2928.0,3186.0,2960.0,2673.0,2842.0,4095.0,2.66,8.02,3.51,-0.12,-0.02,-0.68,0.0,j
4095.0,3344.0,2932.0,3194.0,2974.0,2683.0,2854.0,4095.0,2.07,9.15,2.96,-0.05,0.08,-0.26,0.0,j
4095.0,3327.0,2927.0,3195.0,2961.0,2673.0,2849.0,4095.0,2.49,9.57,3.52,0.02,0.2,-0.1,0.0,j
4095.0,3338.0,2934.0,3205.0,2971.0,2682.0,2852.0,4095.0,2.08,9.65,3.49,0.07,0.23,-0.12,0.0,j
4095.0,3342.0,2930.0,3203.0,2967.0,2685.0,2850.0,4095.0,2.67,9.66,3.26,0.08,0.08,-0.1,0.0,j
4095.0,3343.0,2939.0,3216.0,2978.0,2688.0,2854.0,4095.0,2.75,9.55,3.5,-0.01,0.13,-0.14,0.0,j
4095.0,3328.0,2928.0,3205.0,2965.0,2686.0,2853.0,4095.0,2.52,9.38,3.56,0.08,0.38,-0.14,0.0,j
4095.0,3358.0,2941.0,3215.0,2975.0,2682.0,2849.0,4095.0,2.48,9.53,3.29,0.17,-0.2,-0.19,0.0,j
4095.0,3346.0,2924.0,3212.0,2969.0,2688.0,2854.0,4095.0,2.66,9.61,3.24,0.04,0.24,-0.15,0.0,j
4095.0,3346.0,2928.0,3195.0,2975.0,2689.0,2861.0,4095.0,4.1,10.33,0.52,-0.55,3.51,-0.6,0.0,j
4095.0,3345.0,2938.0,3233.0,2960.0,2662.0,2855.0,4095.0,2.06,9.93,-0.28,-0.85,8.73,-0.31,0.0,j
4095.0,3346.0,2928.0,3259.0,2960.0,2654.0,2851.0,4095.0,1.67,9.06,-1.89,-0.62,8.73,-1.61,0.0,j
4095.0,3347.0,2928.0,3249.0,2922.0,2658.0,2853.0,4095.0,-7.67,7.82,2.83,0.6,2.58,-1.34,0.0,j
4095.0,3367.0,2928.0,3281.0,2925.0,2669.0,2864.0,4095.0,-3.69,9.14,3.12,-0.83,0.57,0.09,0.0,j
4095.0,3339.0,2939.0,3303.0,2926.0,2672.0,2834.0,4095.0,-1.22,9.18,2.27,-1.78,1.22,1.74,0.0,j
4095.0,3403.0,2929.0,3201.0,2945.0,2637.0,2815.0,4095.0,-0.83,6.81,5.54,-4.45,0.36,1.39,0.0,j
4095.0,3408.0,2934.0,2944.0,2911.0,2605.0,2848.0,4095.0,-0.03,2.7,11.56,-4.57,0.77,0.32,0.0,j
4095.0,3421.0,2928.0,3184.0,2895.0,2603.0,2893.0,4095.0,1.46,-0.9,15.25,-3.6,-1.88,-2.41,0.0,j
4095.0,3388.0,2928.0,3282.0,2886.0,2597.0,2940.0,4095.0,4.06,-1.84,14.25,-3.16,-3.21,-3.44,0.0,j
4095.0,3354.0,2935.0,3338.0,2896.0,2656.0,2979.0,4095.0,7.63,-3.83,13.16,-2.78,-3.66,-3.65,0.0,j
4095.0,3345.0,2939.0,3325.0,2906.0,2699.0,3006.0,4095.0,10.75,-2.02,9.91,-0.79,-3.14,-3.49,0.0,j
4095.0,3339.0,2925.0,3245.0,2896.0,2683.0,2961.0,4095.0,10.07,2.8,6.52,0.47,-3.39,-4.38,0.0,j
4095.0,3350.0,2931.0,3265.0,2905.0,2683.0,2889.0,4095.0,9.77,6.64,1.85,-0.05,-4.45,-3.8,0.0,j
4095.0,3349.0,2927.0,3273.0,2908.0,2641.0,2825.0,4095.0,7.07,7.8,1.17,-0.1,-1.07,-2.4,0.0,j
4095.0,3383.0,2932.0,3324.0,2928.0,2629.0,2823.0,4095.0,3.41,8.03,0.01,-0.77,-0.23,-1.91,0.0,j
4095.0,3376.0,2922.0,3338.0,2943.0,2642.0,2832.0,4095.0,1.47,7.7,2.24,-0.98,0.29,-0.92,0.0,j
4095.0,3387.0,2949.0,3377.0,2955.0,2673.0,2838.0,4095.0,0.98,8.28,3.31,-0.37,0.21,-0.52,0.0,j
4095.0,3375.0,2930.0,3377.0,2961.0,2671.0,2831.0,4095.0,1.05,9.38,3.22,-0.03,0.1,-0.13,0.0,j
4095.0,3386.0,2928.0,3388.0,2974.0,2674.0,2832.0,4095.0,0.96,9.77,3.02,-0.01,0.01,-0.11,0.0,j
4095.0,3387.0,2933.0,3426.0,2992.0,2677.0,2903.0,4095.0,-3.14,8.32,1.29,-1.14,0.33,0.58,0.0,j
4095.0,3386.0,2927.0,3379.0,2976.0,2667.0,2895.0,4095.0,-1.3,7.15,2.49,-2.84,-0.28,1.11,0.0,j
4095.0,3379.0,2928.0,3346.0,2959.0,2646.0,2879.0,4095.0,-0.63,6.47,7.23,-4.5,-1.36,1.08,0.0,j
4095.0,3390.0,2928.0,3280.0,2935.0,2631.0,2882.0,4095.0,0.93,4.05,12.35,-3.54,-1.91,-0.32,0.0,j
4095.0,3357.0,2933.0,3266.0,2916.0,2601.0,2875.0,4094.0,6.58,0.4,15.35,-2.87,-5.58,-1.74,0.0,j
4095.0,3325.0,2928.0,3203.0,2891.0,2630.0,2895.0,3847.0,10.45,2.25,12.43,-0.95,-5.19,-1.96,0.0,j
4095.0,3326.0,2938.0,3226.0,2895.0,2637.0,2915.0,3901.0,11.55,3.93,5.32,-1.6,-5.31,-1.74,0.0,j
4095.0,3312.0,2946.0,3213.0,2895.0,2637.0,2895.0,3981.0,9.64,3.95,2.3,-1.09,-4.18,-1.07,0.0,j
4095.0,3319.0,2951.0,3245.0,2893.0,2633.0,2859.0,4095.0,8.77,5.32,-1.02,-1.03,-3.75,-0.93,0.0,j
4095.0,3344.0,2938.0,3235.0,2915.0,2640.0,2832.0,4095.0,8.2,6.79,-2.62,-1.1,-1.32,-0.71,0.0,j
4095.0,3337.0,2929.0,3263.0,2928.0,2655.0,2858.0,4095.0,6.31,7.43,-2.3,-1.09,-1.13,-1.07,0.0,j
4095.0,3344.0,2942.0,3277.0,2941.0,2669.0,2869.0,4095.0,4.82,7.76,-1.01,-1.31,-0.19,-1.13,0.0,j
4095.0,3360.0,2933.0,3267.0,2939.0,2668.0,2868.0,4095.0,2.61,7.51,0.2,-1.28,0.11,-1.33,0.0,j
4095.0,3367.0,2941.0,3266.0,2957.0,2677.0,2881.0,4095.0,1.03,7.84,1.56,-1.12,0.27,-0.88,0.0,j
4095.0,3351.0,2935.0,3289.0,2959.0,2679.0,2889.0,4095.0,-0.19,8.26,4.35,-0.89,0.2,-0.23,0.0,j
4095.0,3371.0,2942.0,3312.0,2973.0,2683.0,2886.0,4095.0,0.34,9.44,4.56,-0.14,0.15,-0.25,0.0,j
4095.0,3360.0,2933.0,3315.0,2975.0,2686.0,2887.0,4095.0,1.09,9.77,4.13,0.03,-0.01,-0.13,0.0,j
4095.0,3353.0,2928.0,3327.0,2979.0,2695.0,2892.0,4095.0,1.01,9.79,3.73,0.07,-0.05,-0.04,0.0,j
4095.0,3349.0,2926.0,3328.0,2976.0,2688.0,2889.0,4095.0,1.41,9.98,3.25,0.09,0.25,-0.15,0.0,j
4095.0,3359.0,2944.0,3331.0,2980.0,2689.0,2896.0,4095.0,1.86,10.14,3.56,-0.08,0.69,-0.12,0.0,j
4095.0,3408.0,2928.0,3440.0,3015.0,2702.0,2929.0,4095.0,-4.17,8.81,2.13,-0.12,0.22,-0.14,0.0,j
4095.0,3395.0,2933.0,3434.0,3011.0,2693.0,2928.0,4095.0,-2.92,8.2,1.28,-0.96,0.12,0.37,0.0,j
4095.0,3399.0,2940.0,3413.0,3023.0,2698.0,2932.0,4095.0,-3.85,8.09,2.66,-1.91,-0.55,0.57,0.0,j
4095.0,3386.0,2929.0,3452.0,3009.0,2683.0,2930.0,4095.0,-2.54,7.71,6.07,-2.82,-1.22,1.02,0.0,j
4095.0,3379.0,2919.0,3403.0,2992.0,2659.0,2923.0,4012.0,-0.56,7.04,10.99,-2.14,-0.36,0.55,0.0,j
4095.0,3369.0,2938.0,3380.0,2971.0,2651.0,2911.0,3876.0,1.87,6.05,11.68,-2.09,-0.98,0.59,0.0,j
4095.0,3361.0,2933.0,3349.0,2935.0,2603.0,2877.0,3959.0,4.01,5.41,12.77,-1.41,-2.29,-0.28,0.0,j
4095.0,3365.0,2943.0,3389.0,2901.0,2606.0,2858.0,3995.0,6.12,4.94,12.17,-1.2,-1.85,-0.32,0.0,j
4095.0,3348.0,2939.0,3357.0,2899.0,2608.0,2865.0,3935.0,7.96,5.37,10.99,-0.89,-2.57,0.01,0.0,j
4095.0,3339.0,2933.0,3294.0,2902.0,2630.0,2877.0,3920.0,8.59,3.82,6.8,-1.22,-3.9,-0.48,0.0,j
4095.0,3342.0,2939.0,3259.0,2913.0,2640.0,2882.0,4017.0,8.73,3.93,2.7,-1.16,-4.22,-0.9,0.0,j
4095.0,3345.0,2933.0,3263.0,2927.0,2650.0,2887.0,4095.0,9.98,5.02,0.65,-0.87,-3.91,-0.7,0.0,j
4095.0,3328.0,2925.0,3223.0,2928.0,2634.0,2866.0,4095.0,8.33,6.51,-2.03,-0.82,-3.48,-1.03,0.0,j
4095.0,3345.0,2935.0,3178.0,2946.0,2640.0,2861.0,4095.0,7.34,6.7,-2.19,-1.21,-1.1,-0.73,0.0,j
4095.0,3344.0,2927.0,3175.0,2958.0,2641.0,2839.0,4095.0,6.32,7.55,-1.54,-1.42,-0.76,-1.14,0.0,j
4095.0,3363.0,2939.0,3197.0,2965.0,2651.0,2853.0,4095.0,4.11,7.96,0.06,-1.69,-0.23,-1.21,0.0,j
4095.0,3374.0,2946.0,3197.0,2983.0,2672.0,2864.0,4095.0,2.32,7.82,2.39,-1.64,0.65,-0.97,0.0,j
4095.0,3366.0,2929.0,3202.0,2978.0,2673.0,2864.0,4095.0,0.68,7.5,3.88,-0.99,0.56,-0.68,0.0,j
4095.0,3361.0,2928.0,3221.0,2990.0,2687.0,2874.0,4095.0,0.63,8.31,5.01,-0.33,0.29,-0.16,0.0,j
4095.0,3366.0,2918.0,3230.0,2990.0,2679.0,2873.0,4095.0,1.36,9.76,4.53,0.04,-0.07,0.03,0.0,j
4095.0,3382.0,2925.0,3360.0,3009.0,2684.0,2919.0,4095.0,-2.94,8.61,0.98,-0.68,0.23,0.23,0.0,j
4095.0,3392.0,2927.0,3355.0,3019.0,2690.0,2923.0,4095.0,-2.67,8.31,0.93,-2.48,-0.67,0.75,0.0,j
4095.0,3399.0,2934.0,3198.0,2986.0,2675.0,2896.0,4095.0,-0.97,6.9,7.67,-3.85,-1.16,1.56,0.0,j
4095.0,3408.0,2933.0,3298.0,2973.0,2644.0,2910.0,4095.0,1.24,5.35,11.32,-3.48,0.06,0.47,0.0,j
4095.0,3408.0,2925.0,3247.0,2952.0,2623.0,2905.0,4095.0,0.59,1.64,14.98,-3.74,-0.68,-0.69,0.0,j
4095.0,3443.0,2941.0,2986.0,2921.0,2621.0,2929.0,4015.0,3.34,-2.33,18.84,-1.96,-1.74,-0.5,0.0,j
4095.0,3451.0,2928.0,3203.0,2912.0,2613.0,2928.0,4010.0,5.26,-0.91,15.51,-1.06,-2.78,-2.2,0.0,j
4095.0,3443.0,2943.0,3211.0,2918.0,2619.0,2921.0,3951.0,6.51,0.9,10.71,-1.05,-3.28,-2.63,0.0,j
4095.0,3425.0,2935.0,3197.0,2925.0,2638.0,2935.0,3968.0,8.51,0.95,9.16,-1.6,-3.11,-2.08,0.0,j
4095.0,3411.0,2929.0,3200.0,2922.0,2650.0,2930.0,3969.0,10.05,2.55,6.98,-1.49,-2.93,-2.13,0.0,j
4095.0,3440.0,2945.0,3181.0,2919.0,2644.0,2923.0,4095.0,10.67,3.73,4.64,-1.33,-3.84,-2.53,0.0,j
4095.0,3418.0,2935.0,3181.0,2911.0,2655.0,2877.0,4095.0,9.36,6.06,2.82,-1.03,-3.26,-2.58,0.0,j
4095.0,3434.0,2932.0,3223.0,2930.0,2661.0,2853.0,4095.0,8.63,6.95,1.04,-0.7,-0.99,-1.76,0.0,j
4095.0,3440.0,2934.0,3230.0,2928.0,2655.0,2848.0,4095.0,7.54,10.8,0.34,-1.34,-0.96,-2.23,0.0,j
4095.0,3470.0,2938.0,3258.0,2958.0,2670.0,2850.0,4095.0,3.91,9.4,0.81,-1.23,0.13,-1.63,0.0,j
4095.0,3447.0,2918.0,3260.0,2960.0,2681.0,2866.0,4095.0,1.51,7.9,2.99,-1.36,0.7,-1.1,0.0,j
4095.0,3482.0,2940.0,3244.0,2982.0,2701.0,2866.0,4095.0,-0.13,7.43,4.6,-0.92,0.36,-0.43,0.0,j
4095.0,3504.0,2928.0,3239.0,2990.0,2706.0,2848.0,4095.0,0.51,8.92,5.49,-0.24,0.34,-0.16,0.0,j
4095.0,3533.0,2927.0,3246.0,2992.0,2711.0,2863.0,4095.0,0.38,9.88,5.16,0.02,-0.04,-0.15,0.0,j
4095.0,3521.0,2928.0,3255.0,2992.0,2719.0,2870.0,4095.0,0.85,10.0,5.2,0.05,0.04,-0.02,0.0,j
4095.0,3536.0,2926.0,3276.0,2983.0,2690.0,2880.0,4095.0,-1.62,7.33,2.97,-2.6,-0.32,0.75,0.0,j
4095.0,3557.0,2944.0,3250.0,2976.0,2683.0,2869.0,4095.0,-1.32,5.8,8.24,-4.13,0.08,0.78,0.0,j
4095.0,3568.0,2928.0,3270.0,2971.0,2683.0,2858.0,4095.0,-0.6,4.01,13.96,-2.63,-0.48,-0.54,0.0,j
4095.0,3595.0,2937.0,3295.0,2978.0,2682.0,2884.0,4095.0,1.14,3.0,15.11,-2.69,-2.44,-1.03,0.0,j
4095.0,3581.0,2928.0,3257.0,2957.0,2652.0,2821.0,4095.0,2.88,0.95,15.71,-1.67,-2.83,-1.73,0.0,j
4095.0,3610.0,2928.0,3280.0,2953.0,2645.0,2814.0,4095.0,4.89,0.93,13.86,-0.48,-2.54,-1.66,0.0,j
4095.0,3612.0,2930.0,3269.0,2942.0,2627.0,2804.0,4095.0,6.65,1.58,11.59,-0.52,-2.5,-1.71,0.0,j
4095.0,3609.0,2939.0,3269.0,2958.0,2634.0,2816.0,4095.0,8.02,1.47,11.11,-0.87,-2.46,-2.1,0.0,j
4095.0,3598.0,2929.0,3250.0,2955.0,2640.0,2821.0,4095.0,9.21,2.04,8.8,-0.7,-2.78,-1.8,0.0,j
4095.0,3600.0,2946.0,3241.0,2965.0,2647.0,2819.0,4095.0,10.19,2.94,7.36,-0.64,-2.22,-1.35,0.0,j
4095.0,3583.0,2927.0,3227.0,2957.0,2640.0,2809.0,4095.0,9.78,4.2,4.18,-0.34,-2.44,-1.34,0.0,j
4095.0,3583.0,2928.0,3203.0,2947.0,2640.0,2800.0,4095.0,8.79,5.3,3.92,-0.23,-1.59,-1.03,0.0,j
4095.0,3606.0,2928.0,3205.0,2950.0,2655.0,2800.0,4095.0,8.49,6.31,1.77,-0.17,-1.78,-1.25,0.0,j
4095.0,3583.0,2928.0,3217.0,2945.0,2652.0,2797.0,4095.0,7.65,7.32,0.31,-0.55,-1.23,-1.16,0.0,j
4095.0,3609.0,2935.0,3282.0,2958.0,2661.0,2800.0,4095.0,6.73,8.24,0.19,-0.88,-0.43,-1.34,0.0,j
4095.0,3600.0,2926.0,3280.0,2961.0,2673.0,2807.0,4095.0,5.42,8.6,1.45,-1.18,0.31,-1.47,0.0,j
4095.0,3604.0,2928.0,3260.0,2965.0,2683.0,2816.0,4095.0,2.23,7.81,2.5,-1.19,0.1,-1.57,0.0,j
4095.0,3619.0,2928.0,3265.0,2960.0,2675.0,2819.0,4095.0,0.49,7.08,4.81,-0.7,0.75,-0.67,0.0,j
4095.0,3623.0,2939.0,3280.0,2976.0,2689.0,2830.0,4095.0,1.51,8.76,4.88,-0.18,0.22,-0.14,0.0,j
4095.0,3598.0,2927.0,3289.0,2975.0,2690.0,2827.0,4095.0,2.01,10.1,4.64,0.29,0.02,-0.15,0.0,j
4095.0,3601.0,2927.0,3312.0,3032.0,2715.0,2907.0,4095.0,-3.38,8.22,2.4,-1.05,0.19,0.72,0.0,j
4095.0,3595.0,2928.0,3289.0,3026.0,2714.0,2897.0,4095.0,-2.75,7.84,4.15,-2.5,-1.12,0.89,0.0,j
4095.0,3605.0,2931.0,3190.0,2995.0,2683.0,2896.0,4095.0,-0.73,6.58,9.39,-2.74,-1.25,0.96,0.0,j
4095.0,3599.0,2935.0,3254.0,2966.0,2663.0,2891.0,4095.0,2.53,6.07,11.64,-2.58,-0.8,0.63,0.0,j
4095.0,3563.0,2928.0,3248.0,2953.0,2645.0,2880.0,4095.0,3.09,4.42,13.5,-2.0,-1.1,-0.0,0.0,j
4095.0,3580.0,2935.0,3136.0,2955.0,2645.0,2889.0,4095.0,3.33,2.44,14.29,-1.56,-1.04,-0.18,0.0,j
4095.0,3566.0,2927.0,3097.0,2935.0,2635.0,2886.0,4095.0,5.88,2.32,12.5,-1.08,-3.16,-1.29,0.0,j
4095.0,3542.0,2941.0,3050.0,2928.0,2631.0,2896.0,4095.0,7.85,1.97,11.87,-0.96,-2.19,-1.36,0.0,j
4095.0,3531.0,2930.0,3202.0,2927.0,2637.0,2891.0,4095.0,9.16,2.72,9.47,-0.84,-2.47,-1.22,0.0,j
4095.0,3537.0,2931.0,3211.0,2931.0,2651.0,2900.0,4095.0,9.38,3.14,7.26,-1.05,-2.55,-1.13,0.0,j
4095.0,3535.0,2938.0,3182.0,2929.0,2640.0,2886.0,4095.0,10.46,3.5,5.43,-0.9,-3.02,-1.42,0.0,j
4095.0,3525.0,2939.0,3153.0,2933.0,2645.0,2871.0,4095.0,10.22,4.9,3.22,-0.79,-2.73,-1.28,0.0,j
4095.0,3536.0,2942.0,3135.0,2926.0,2630.0,2851.0,4095.0,8.94,6.39,0.93,-0.92,-1.63,-1.36,0.0,j
4095.0,3543.0,2931.0,3231.0,2932.0,2646.0,2853.0,4095.0,7.52,6.91,0.24,-1.04,-1.48,-1.32,0.0,j
4095.0,3539.0,2927.0,3245.0,2930.0,2643.0,2850.0,4095.0,5.74,7.38,1.41,-1.01,-0.87,-1.03,0.0,j
4095.0,3563.0,2928.0,3245.0,2944.0,2667.0,2843.0,4095.0,4.87,8.49,1.3,-0.84,-0.62,-1.27,0.0,j
4095.0,3581.0,2935.0,3252.0,2957.0,2681.0,2851.0,4095.0,3.5,9.07,1.89,-0.88,-0.38,-1.22,0.0,j
4095.0,3575.0,2928.0,3249.0,2960.0,2683.0,2854.0,4095.0,2.2,8.95,2.94,-1.01,0.14,-0.98,0.0,j
4095.0,3583.0,2928.0,3261.0,2971.0,2687.0,2863.0,4095.0,0.99,8.83,4.18,-0.94,0.3,-0.62,0.0,j
4095.0,3583.0,2933.0,3274.0,2970.0,2690.0,2866.0,4095.0,0.16,8.6,5.95,-0.45,0.41,-0.23,0.0,j
4095.0,3583.0,2928.0,3389.0,2979.0,2683.0,2917.0,4095.0,-4.13,9.65,3.38,-0.71,0.27,0.27,0.0,j
4095.0,3583.0,2942.0,3267.0,2989.0,2677.0,2896.0,4095.0,-2.7,7.58,5.72,-2.41,0.42,1.19,0.0,j
4095.0,3582.0,2924.0,3234.0,2976.0,2669.0,2893.0,4095.0,-0.35,6.68,9.0,-2.62,0.07,0.56,0.0,j
4095.0,3623.0,2928.0,3253.0,2960.0,2659.0,2911.0,4095.0,-0.44,5.35,11.6,-3.25,-0.82,-0.03,0.0,j
4095.0,3639.0,2931.0,3127.0,2955.0,2635.0,2877.0,4095.0,0.45,3.3,14.23,-1.88,-0.49,-1.02,0.0,j
4095.0,3665.0,2931.0,3157.0,2960.0,2626.0,2867.0,4095.0,1.41,2.15,14.45,-1.57,-1.49,-1.36,0.0,j
4095.0,3639.0,2937.0,3181.0,2963.0,2638.0,2889.0,4095.0,3.02,1.12,14.69,-1.02,-2.14,-1.82,0.0,j
4095.0,3678.0,2928.0,3145.0,2944.0,2628.0,2875.0,4095.0,4.94,0.75,14.82,-0.64,-2.3,-2.06,0.0,j
4095.0,3673.0,2939.0,3171.0,2955.0,2631.0,2886.0,4095.0,6.7,2.34,12.22,-0.15,-2.27,-1.74,0.0,j
4095.0,3644.0,2932.0,3216.0,2963.0,2623.0,2880.0,4095.0,7.16,2.4,11.69,-0.49,-2.54,-1.85,0.0,j
4095.0,3643.0,2941.0,3255.0,2960.0,2621.0,2889.0,4095.0,7.37,3.99,8.78,-0.48,-3.44,-1.79,0.0,j
4095.0,3626.0,2941.0,3243.0,2950.0,2617.0,2875.0,4095.0,9.49,5.04,5.99,-0.39,-2.96,-1.69,0.0,j
4095.0,3631.0,2937.0,3280.0,2947.0,2626.0,2885.0,4095.0,9.22,6.23,4.08,-0.67,-2.71,-1.76,0.0,j
4095.0,3611.0,2925.0,3265.0,2947.0,2623.0,2877.0,4095.0,8.15,6.7,3.26,-0.78,-1.47,-1.31,0.0,j
4095.0,3632.0,2943.0,3262.0,2949.0,2624.0,2869.0,4095.0,6.93,7.55,2.56,-0.49,-0.87,-0.94,0.0,j
4095.0,3623.0,2923.0,3239.0,2943.0,2625.0,2863.0,4095.0,5.96,8.22,2.78,-0.54,-0.54,-1.0,0.0,j
4095.0,3645.0,2937.0,3245.0,2960.0,2640.0,2859.0,4095.0,4.69,8.59,3.06,-0.52,-0.49,-1.06,0.0,j
4095.0,3648.0,2938.0,3349.0,2961.0,2640.0,2848.0,4095.0,3.76,8.77,2.92,-0.45,-0.53,-0.92,0.0,j
4095.0,3649.0,2939.0,3344.0,2961.0,2640.0,2847.0,4095.0,2.86,9.0,3.32,-0.49,-0.27,-0.8,0.0,j
4095.0,3651.0,2928.0,3353.0,2966.0,2654.0,2853.0,4095.0,2.65,9.01,4.02,-0.43,-0.11,-0.5,0.0,j
4095.0,941.0,2925.0,3168.0,3056.0,2681.0,3003.0,4095.0,-2.27,9.48,5.69,0.0,-0.03,-0.08,0.0,j
4095.0,947.0,2928.0,3197.0,3059.0,2701.0,3017.0,4095.0,-2.63,10.35,4.99,-0.45,0.44,0.33,0.0,j
4095.0,947.0,2923.0,3234.0,3062.0,2704.0,3024.0,4095.0,-2.98,9.28,6.18,-0.64,0.2,-0.34,0.0,j
4095.0,956.0,2929.0,3266.0,3063.0,2714.0,3033.0,4095.0,-2.32,7.32,6.8,-1.07,0.19,-0.16,0.0,j
4095.0,946.0,2925.0,3258.0,3058.0,2719.0,3026.0,4095.0,-2.04,7.41,7.18,-1.64,-0.41,-0.08,0.0,j
4095.0,958.0,2928.0,3266.0,3056.0,2700.0,3028.0,4095.0,0.03,6.69,9.54,-2.09,-2.09,-0.19,0.0,j
4095.0,963.0,2932.0,3179.0,3045.0,2685.0,3009.0,4095.0,2.73,5.51,11.35,-2.38,-1.55,-0.83,0.0,j
4095.0,965.0,2923.0,3201.0,3040.0,2660.0,2997.0,4095.0,1.76,3.82,14.99,-1.76,-1.48,-0.68,0.0,j
4095.0,960.0,2935.0,3203.0,3043.0,2669.0,3003.0,4095.0,2.73,3.31,15.05,-1.0,-2.76,-1.38,0.0,j
4095.0,973.0,2926.0,3199.0,3045.0,2654.0,2999.0,4095.0,6.0,2.94,13.97,-0.6,-3.07,-1.59,0.0,j
4095.0,986.0,2933.0,3234.0,3057.0,2669.0,3019.0,4095.0,8.82,4.08,12.08,-0.26,-3.91,-2.14,0.0,j
4095.0,961.0,2918.0,3232.0,3057.0,2670.0,3020.0,4095.0,8.22,5.16,9.36,-0.52,-2.53,-2.12,0.0,j
4095.0,969.0,2939.0,3237.0,3071.0,2675.0,3027.0,4095.0,7.15,5.85,7.99,-0.17,-2.19,-2.09,0.0,j
4095.0,971.0,2928.0,3317.0,3082.0,2677.0,3024.0,4095.0,7.0,7.33,6.28,0.07,-2.22,-2.02,0.0,j
4095.0,953.0,2926.0,3296.0,3067.0,2694.0,3025.0,4095.0,5.37,8.44,4.7,-0.16,-1.6,-1.65,0.0,j
4095.0,951.0,2934.0,3230.0,3089.0,2693.0,3023.0,4095.0,4.8,8.85,3.97,-0.26,-1.36,-1.58,0.0,j
4095.0,944.0,2935.0,3241.0,3100.0,2704.0,3026.0,4095.0,3.22,8.8,3.56,-0.35,-1.11,-1.59,0.0,j
4095.0,944.0,2926.0,3234.0,3099.0,2709.0,3032.0,4095.0,0.72,8.01,3.49,-0.42,-0.12,-0.92,0.0,j
4095.0,945.0,2928.0,3253.0,3101.0,2713.0,3033.0,4095.0,0.2,8.75,4.72,-0.12,0.2,-0.15,0.0,j
4095.0,939.0,2921.0,3280.0,3117.0,2719.0,3046.0,4095.0,1.41,9.85,4.86,0.12,-0.03,-0.05,0.0,j
4095.0,963.0,2937.0,3283.0,3063.0,2625.0,3225.0,4095.0,-1.23,7.37,7.76,-3.25,-0.22,0.79,0.0,j
4095.0,955.0,2928.0,3285.0,3056.0,2610.0,3242.0,4095.0,-0.76,5.16,11.37,-3.06,0.24,0.05,0.0,j
4095.0,934.0,2938.0,3340.0,3067.0,2602.0,3269.0,4095.0,0.53,2.27,15.29,-2.66,-0.98,-0.96,0.0,j
4095.0,946.0,2919.0,3312.0,3056.0,2591.0,3297.0,4051.0,1.8,1.01,15.03,-1.75,-2.97,-2.78,0.0,j
4095.0,960.0,2932.0,3361.0,3069.0,2559.0,3312.0,4092.0,5.58,0.3,14.39,-1.64,-3.9,-3.67,0.0,j
4095.0,974.0,2939.0,3329.0,3083.0,2559.0,3316.0,3969.0,7.11,1.05,12.72,-0.83,-3.45,-2.59,0.0,j
4095.0,973.0,2928.0,3309.0,3089.0,2559.0,3313.0,3959.0,9.14,2.31,10.36,-0.06,-2.26,-1.92,0.0,j
4095.0,976.0,2931.0,3290.0,3103.0,2559.0,3296.0,4058.0,9.48,4.3,7.57,-0.34,-3.63,-2.51,0.0,j
4095.0,971.0,2923.0,3313.0,3099.0,2559.0,3227.0,4095.0,9.11,5.74,4.74,-1.66,-2.79,-2.54,0.0,j
4095.0,963.0,2932.0,3333.0,3101.0,2594.0,3201.0,4095.0,8.32,6.97,4.76,-0.68,-1.67,-1.93,0.0,j
4095.0,964.0,2930.0,3312.0,3088.0,2603.0,3177.0,4095.0,6.12,7.91,4.08,-0.44,-0.75,-1.97,0.0,j
4095.0,958.0,2928.0,3317.0,3093.0,2614.0,3174.0,4095.0,4.32,7.85,3.81,-0.33,0.22,-1.6,0.0,j
4095.0,944.0,2915.0,3349.0,3088.0,2624.0,3159.0,4095.0,2.23,8.23,4.01,-0.46,0.52,-1.07,0.0,j
4095.0,950.0,2919.0,3376.0,3099.0,2633.0,3172.0,4095.0,1.77,8.86,4.47,-0.25,0.38,-0.52,0.0,j
4095.0,960.0,2927.0,3376.0,3106.0,2634.0,3152.0,4095.0,1.73,9.45,5.13,-0.14,0.21,-0.33,0.0,j
4095.0,945.0,2925.0,3387.0,3114.0,2639.0,3167.0,4095.0,1.59,9.57,5.05,-0.18,0.23,-0.1,0.0,j
4095.0,959.0,2921.0,3392.0,3120.0,2641.0,3163.0,4095.0,1.77,9.65,5.18,-0.03,-0.03,-0.13,0.0,j
4095.0,944.0,2924.0,3408.0,3127.0,2649.0,3165.0,4095.0,1.89,9.74,5.11,0.05,0.06,-0.14,0.0,j
4095.0,962.0,2935.0,3403.0,3118.0,2647.0,3167.0,4095.0,2.19,9.82,5.19,0.05,0.17,-0.12,0.0,j
4095.0,960.0,2925.0,3380.0,3118.0,2642.0,3152.0,4095.0,1.98,9.8,5.25,-0.02,0.41,-0.09,0.0,j
4095.0,4063.0,2943.0,3139.0,2725.0,2407.0,2693.0,4095.0,-2.2,8.03,3.05,-1.92,-0.09,0.53,0.0,j
4095.0,4038.0,2931.0,3162.0,2694.0,2381.0,2689.0,4095.0,-2.35,6.47,6.44,-2.53,-0.76,-0.51,0.0,j
4095.0,4075.0,2942.0,3202.0,2707.0,2378.0,2702.0,4095.0,-1.14,5.75,10.28,-2.47,-2.74,-1.0,0.0,j
4095.0,4084.0,2935.0,3248.0,2707.0,2384.0,2704.0,4095.0,1.53,3.75,13.27,-2.22,-2.93,-1.16,0.0,j
4095.0,4082.0,2931.0,3280.0,2721.0,2395.0,2705.0,4095.0,2.75,2.76,15.36,-1.48,-2.72,-0.7,0.0,j
4095.0,4095.0,2930.0,3267.0,2731.0,2393.0,2704.0,4095.0,5.39,2.93,13.8,-0.75,-3.88,-1.46,0.0,j
4095.0,4059.0,2937.0,3187.0,2706.0,2391.0,2697.0,4095.0,6.3,3.23,12.32,-0.48,-3.7,-2.01,0.0,j
4095.0,4085.0,2942.0,3248.0,2705.0,2396.0,2706.0,4095.0,9.78,3.88,9.82,-0.29,-2.65,-1.44,0.0,j
4095.0,4050.0,2941.0,3274.0,2699.0,2384.0,2707.0,4095.0,9.75,4.58,7.64,-0.43,-3.31,-1.58,0.0,j
4095.0,4059.0,2928.0,3263.0,2682.0,2377.0,2709.0,4095.0,10.18,6.02,4.47,-0.45,-3.02,-1.67,0.0,j
4095.0,4047.0,2938.0,3264.0,2690.0,2378.0,2704.0,4095.0,7.88,7.08,1.94,-0.34,-1.98,-1.71,0.0,j
4095.0,4092.0,2937.0,3233.0,2701.0,2382.0,2704.0,4095.0,6.32,7.91,1.2,-0.56,-0.61,-1.43,0.0,j
4095.0,4085.0,2930.0,3248.0,2700.0,2355.0,2673.0,4095.0,4.72,8.77,1.75,-1.28,-0.26,-1.57,0.0,j
4095.0,4087.0,2937.0,3275.0,2713.0,2363.0,2678.0,4095.0,3.12,8.69,3.45,-1.18,0.21,-1.1,0.0,j
4095.0,4089.0,2928.0,3294.0,2725.0,2367.0,2689.0,4095.0,1.72,7.96,5.04,-0.69,0.37,-0.83,0.0,j
4095.0,4095.0,2930.0,3311.0,2738.0,2381.0,2694.0,4095.0,1.08,8.38,5.38,-0.09,0.05,-0.44,0.0,j
4095.0,4075.0,2931.0,3312.0,2736.0,2381.0,2693.0,4095.0,1.68,9.28,5.4,0.21,0.15,-0.03,0.0,j
4095.0,4093.0,2934.0,3306.0,2738.0,2381.0,2702.0,4095.0,2.1,9.9,4.88,0.21,0.05,-0.06,0.0,j
4095.0,4095.0,2937.0,3309.0,2745.0,2383.0,2704.0,4095.0,2.07,9.81,4.61,0.02,0.14,-0.09,0.0,j
4095.0,4095.0,2929.0,3311.0,2742.0,2381.0,2703.0,4095.0,2.15,9.69,4.79,-0.03,0.21,-0.1,0.0,j
4095.0,4095.0,2928.0,3293.0,2816.0,2400.0,2701.0,4095.0,-4.0,7.58,4.19,-1.44,-0.7,0.34,0.0,j
4095.0,4095.0,2933.0,3284.0,2816.0,2416.0,2707.0,4095.0,-2.83,5.7,8.52,-3.61,-1.61,1.15,0.0,j
4095.0,4095.0,2930.0,3312.0,2789.0,2403.0,2721.0,4095.0,0.74,4.49,12.61,-2.35,-2.09,-0.38,0.0,j
4095.0,4095.0,2937.0,3306.0,2774.0,2411.0,2729.0,4095.0,1.99,2.71,14.58,-2.21,-3.48,-0.94,0.0,j
4095.0,4095.0,2938.0,3251.0,2736.0,2384.0,2707.0,4095.0,7.82,1.75,13.7,-0.93,-4.04,-1.61,0.0,j
4095.0,4095.0,2943.0,3216.0,2729.0,2391.0,2706.0,4095.0,9.73,3.27,9.41,-0.44,-5.44,-1.97,0.0,j
4095.0,4075.0,2941.0,3248.0,2715.0,2385.0,2705.0,4095.0,11.36,4.78,5.47,-0.52,-3.26,-1.32,0.0,j
4095.0,4080.0,2944.0,3283.0,2727.0,2399.0,2709.0,4095.0,10.16,5.0,3.35,-1.11,-3.18,-1.65,0.0,j
4095.0,4057.0,2935.0,3254.0,2715.0,2397.0,2699.0,4095.0,9.37,6.02,1.91,-0.76,-2.22,-1.6,0.0,j
4095.0,4074.0,2930.0,3239.0,2731.0,2394.0,2682.0,4095.0,6.9,7.34,1.07,-0.74,-2.17,-1.43,0.0,j
4095.0,4095.0,2939.0,3249.0,2746.0,2398.0,2689.0,4095.0,5.66,8.11,1.14,-0.72,-1.18,-1.08,0.0,j
4095.0,4095.0,2918.0,3270.0,2750.0,2386.0,2677.0,4095.0,4.6,8.54,1.14,-0.75,-0.33,-1.19,0.0,j
4095.0,4095.0,2938.0,3326.0,2766.0,2397.0,2689.0,4095.0,3.17,9.03,1.54,-0.78,0.17,-1.28,0.0,j
4095.0,4095.0,2923.0,3255.0,2771.0,2406.0,2687.0,4095.0,0.58,8.14,2.38,-0.4,0.29,-1.38,0.0,j
4095.0,4095.0,2943.0,3310.0,2783.0,2410.0,2688.0,4095.0,0.06,8.8,2.72,-0.57,0.37,-0.74,0.0,j
4095.0,4095.0,2925.0,3310.0,2783.0,2421.0,2699.0,4095.0,-0.55,8.81,4.06,-0.36,0.18,-0.17,0.0,j
4095.0,4095.0,2923.0,3285.0,2800.0,2431.0,2705.0,4095.0,0.08,9.73,4.2,-0.08,0.06,-0.11,0.0,j
4095.0,4095.0,2928.0,3327.0,2798.0,2432.0,2704.0,4095.0,0.23,10.11,3.88,0.01,0.04,-0.15,0.0,j
4095.0,4095.0,2944.0,3341.0,2799.0,2433.0,2707.0,4095.0,0.24,9.86,3.98,0.01,0.12,-0.11,0.0,j
4095.0,4095.0,2930.0,3329.0,2800.0,2429.0,2705.0,4095.0,0.61,9.79,4.1,0.15,0.04,-0.15,0.0,j
4095.0,4095.0,2932.0,3335.0,2785.0,2410.0,2712.0,4095.0,-3.5,6.69,5.45,-2.32,-2.04,0.86,0.0,j
4095.0,4095.0,2933.0,3268.0,2771.0,2405.0,2719.0,4017.0,0.13,5.45,9.5,-2.85,-1.87,0.74,0.0,j
4095.0,4095.0,2933.0,3324.0,2758.0,2413.0,2731.0,4074.0,3.37,4.01,13.6,-2.52,-3.2,0.08,0.0,j
4095.0,4095.0,2935.0,3338.0,2745.0,2412.0,2731.0,4013.0,6.69,3.46,13.66,-0.95,-2.46,-0.52,0.0,j
4095.0,4095.0,2943.0,3344.0,2754.0,2412.0,2731.0,4049.0,7.17,2.92,13.09,-1.24,-2.58,-1.17,0.0,j
4095.0,4095.0,2927.0,3325.0,2752.0,2409.0,2713.0,4006.0,7.84,3.03,10.85,-0.79,-3.55,-1.6,0.0,j
4095.0,4095.0,2945.0,3330.0,2768.0,2421.0,2721.0,3913.0,8.99,3.87,7.61,-0.69,-2.75,-1.15,0.0,j
4095.0,4095.0,2946.0,3292.0,2762.0,2419.0,2725.0,3911.0,10.15,4.23,6.54,-0.74,-2.45,-1.14,0.0,j
4095.0,4095.0,2935.0,3294.0,2758.0,2427.0,2735.0,4041.0,9.85,5.67,4.03,-0.21,-3.65,-1.69,0.0,j
4095.0,4095.0,2929.0,3287.0,2753.0,2423.0,2734.0,4095.0,9.86,6.72,1.33,-0.31,-2.09,-1.61,0.0,j
4095.0,4095.0,2941.0,3282.0,2765.0,2430.0,2730.0,4095.0,7.78,7.57,0.62,-0.57,-1.19,-1.8,0.0,j
4095.0,4095.0,2925.0,3312.0,2771.0,2427.0,2726.0,4095.0,5.02,7.69,0.34,-0.92,-0.5,-2.11,0.0,j
4095.0,4095.0,2939.0,3317.0,2785.0,2435.0,2736.0,4095.0,2.63,7.87,1.91,-1.24,1.0,-1.4,0.0,j
4095.0,4095.0,2942.0,3315.0,2800.0,2446.0,2739.0,4095.0,0.92,8.27,3.94,-0.72,0.53,-1.07,0.0,j
4095.0,4095.0,2936.0,3322.0,2799.0,2445.0,2739.0,4095.0,0.29,8.79,4.55,-0.16,0.03,-0.68,0.0,j
4095.0,4095.0,2945.0,3335.0,2800.0,2443.0,2740.0,4095.0,0.57,9.36,4.09,0.05,-0.08,-0.14,0.0,j
4095.0,4095.0,2931.0,3328.0,2801.0,2446.0,2741.0,4095.0,1.39,10.01,3.77,0.01,-0.06,-0.07,0.0,j
4095.0,4095.0,2931.0,3347.0,2806.0,2447.0,2745.0,4095.0,0.76,9.88,3.55,-0.0,0.08,-0.1,0.0,j
4095.0,4095.0,2928.0,3331.0,2809.0,2448.0,2749.0,4095.0,1.87,9.69,3.86,-0.05,0.23,-0.03,0.0,j
4095.0,4095.0,2944.0,3319.0,2807.0,2455.0,2754.0,4095.0,5.4,10.21,3.98,-0.55,2.33,0.98,0.0,j
4095.0,4095.0,2931.0,3351.0,2848.0,2457.0,2759.0,4095.0,-3.56,7.32,4.61,-2.48,0.34,0.42,0.0,j
4095.0,4095.0,2935.0,3285.0,2839.0,2418.0,2759.0,4095.0,-2.89,4.89,10.13,-2.81,-0.09,-0.21,0.0,j
4095.0,4095.0,2928.0,3312.0,2842.0,2419.0,2768.0,4095.0,-2.93,3.78,13.37,-2.05,-0.29,-0.68,0.0,j
4095.0,4095.0,2928.0,3340.0,2848.0,2433.0,2793.0,4095.0,-2.49,3.06,14.34,-1.49,-0.53,-0.88,0.0,j
4095.0,4095.0,2941.0,3355.0,2843.0,2441.0,2794.0,4095.0,-3.23,2.09,14.08,-1.06,-1.31,-1.65,0.0,j
4095.0,4095.0,2932.0,3376.0,2853.0,2461.0,2805.0,4095.0,0.17,-0.18,15.48,-0.76,-2.47,-2.65,0.0,j
4095.0,4095.0,2949.0,3333.0,2854.0,2457.0,2807.0,4095.0,1.67,0.05,15.16,-0.42,-2.66,-2.44,0.0,j
4095.0,4095.0,2935.0,3312.0,2835.0,2445.0,2784.0,4011.0,3.75,0.46,14.4,0.32,-2.64,-1.94,0.0,j
4095.0,4095.0,2945.0,3291.0,2798.0,2430.0,2768.0,3901.0,7.87,2.09,12.38,0.56,-2.97,-2.13,0.0,j
4095.0,4095.0,2938.0,3248.0,2774.0,2419.0,2763.0,3933.0,8.05,4.07,9.79,0.07,-3.01,-2.12,0.0,j
4095.0,4095.0,2939.0,3186.0,2766.0,2398.0,2747.0,4009.0,9.92,4.95,8.08,-0.32,-2.26,-1.56,0.0,j
4095.0,4095.0,2935.0,3185.0,2757.0,2407.0,2753.0,4048.0,8.49,5.66,6.79,-0.2,-1.84,-1.69,0.0,j
4095.0,4095.0,2934.0,3283.0,2780.0,2418.0,2770.0,4001.0,7.82,7.08,4.66,-0.04,-1.4,-1.63,0.0,j
4095.0,4095.0,2939.0,3311.0,2767.0,2423.0,2768.0,3972.0,6.17,7.84,3.37,0.08,-1.58,-1.92,0.0,j
4095.0,4095.0,2934.0,3297.0,2777.0,2439.0,2774.0,4062.0,4.41,8.61,2.97,-0.3,-0.83,-1.71,0.0,j
4095.0,4095.0,2926.0,3269.0,2783.0,2444.0,2773.0,4067.0,2.58,8.63,3.59,-0.51,-0.34,-1.1,0.0,j
4095.0,4095.0,2930.0,3279.0,2787.0,2448.0,2780.0,4089.0,1.8,8.23,4.05,-0.3,0.26,-0.46,0.0,j
4095.0,4095.0,2935.0,3280.0,2786.0,2439.0,2775.0,4084.0,1.93,9.01,4.02,0.01,0.09,-0.14,0.0,j
4095.0,4095.0,2929.0,3286.0,2799.0,2447.0,2772.0,4083.0,1.82,9.68,3.83,0.16,-0.01,-0.05,0.0,j
4095.0,4095.0,2933.0,3306.0,2800.0,2448.0,2774.0,4095.0,2.51,9.96,3.58,0.07,0.0,-0.05,0.0,j
4095.0,4095.0,2939.0,3363.0,2854.0,2478.0,2798.0,4095.0,-3.42,7.06,4.22,-1.97,-0.35,0.1,0.0,j
4095.0,4095.0,2930.0,3330.0,2842.0,2465.0,2791.0,4095.0,-1.13,4.93,7.58,-3.22,-1.61,-0.02,0.0,j
4095.0,4095.0,2934.0,3297.0,2830.0,2474.0,2804.0,3824.0,-1.88,2.9,13.26,-3.01,-2.93,-0.83,0.0,j
4095.0,4095.0,2935.0,3248.0,2757.0,2438.0,2796.0,3856.0,5.66,0.95,16.45,-1.23,-4.96,-1.26,0.0,j
4095.0,4095.0,2935.0,3246.0,2727.0,2438.0,2789.0,3974.0,5.92,2.96,13.68,-0.56,-4.55,-1.55,0.0,j
4095.0,4095.0,2931.0,3204.0,2710.0,2431.0,2793.0,3996.0,8.28,3.74,8.15,-0.7,-4.81,-1.62,0.0,j
4095.0,4095.0,2945.0,3172.0,2705.0,2437.0,2787.0,4048.0,10.03,4.77,6.27,-1.38,-3.89,-1.66,0.0,j
4095.0,4095.0,2939.0,3186.0,2705.0,2453.0,2782.0,4095.0,11.05,5.47,5.48,-0.71,-2.99,-1.83,0.0,j
4095.0,4095.0,2939.0,3197.0,2714.0,2455.0,2768.0,4095.0,8.93,6.46,2.81,-0.73,-2.57,-1.89,0.0,j
4095.0,4095.0,2943.0,3203.0,2711.0,2451.0,2759.0,4095.0,7.12,7.24,0.96,-0.78,-1.29,-1.48,0.0,j
4095.0,4095.0,2938.0,3236.0,2727.0,2446.0,2758.0,4095.0,6.25,7.53,1.76,-0.78,-0.79,-1.84,0.0,j
4095.0,4095.0,2932.0,3280.0,2749.0,2448.0,2753.0,4095.0,2.71,6.97,2.32,-0.65,-0.13,-1.45,0.0,j
4095.0,4095.0,2930.0,3267.0,2755.0,2427.0,2741.0,4095.0,1.69,7.89,2.68,-0.25,0.27,-0.71,0.0,j
4095.0,4095.0,2944.0,3280.0,2769.0,2437.0,2751.0,4095.0,1.51,8.84,2.44,0.05,0.34,-0.31,0.0,j
4095.0,4095.0,2928.0,3279.0,2768.0,2430.0,2742.0,4095.0,0.94,9.79,2.57,0.07,0.24,-0.17,0.0,j
4095.0,4095.0,2941.0,3297.0,2769.0,2436.0,2751.0,4095.0,1.64,9.87,2.68,-0.03,0.11,-0.11,0.0,j
4095.0,4095.0,2937.0,3291.0,2763.0,2433.0,2753.0,4095.0,2.27,9.45,3.16,-0.03,0.15,-0.11,0.0,j
4095.0,4095.0,2943.0,3310.0,2774.0,2446.0,2763.0,4095.0,2.35,9.45,2.85,0.02,0.06,-0.03,0.0,j
4095.0,4095.0,2927.0,3292.0,2770.0,2447.0,2755.0,4095.0,2.75,9.74,2.83,0.03,0.01,-0.15,0.0,j
4095.0,4095.0,2932.0,3329.0,2780.0,2462.0,2767.0,4095.0,3.0,9.8,2.43,-0.09,0.06,-0.3,0.0,j
4095.0,4095.0,2941.0,3318.0,2843.0,2451.0,2777.0,4095.0,-4.29,8.44,4.03,0.1,-0.04,-0.17,0.0,j
4095.0,4095.0,2937.0,3342.0,2859.0,2469.0,2800.0,4095.0,-3.5,8.5,3.93,-0.84,-1.01,0.02,0.0,j
4095.0,4095.0,2931.0,3355.0,2858.0,2478.0,2789.0,4095.0,-4.47,8.87,6.12,-1.39,-1.31,0.8,0.0,j
4095.0,4095.0,2945.0,3319.0,2831.0,2485.0,2822.0,4095.0,0.29,8.19,8.27,-1.14,-2.38,0.79,0.0,j
4095.0,4095.0,2931.0,3319.0,2804.0,2470.0,2822.0,4095.0,0.54,8.43,7.91,-1.48,1.05,1.03,0.0,j
4095.0,4095.0,2945.0,3314.0,2806.0,2458.0,2817.0,4095.0,-1.46,6.89,10.31,-1.57,1.0,0.01,0.0,j
4095.0,4095.0,2944.0,3326.0,2812.0,2459.0,2824.0,4095.0,0.98,5.45,12.19,-2.33,-2.08,-0.14,0.0,j
4095.0,4095.0,2934.0,3326.0,2800.0,2471.0,2832.0,4095.0,4.83,3.73,12.04,-1.56,-2.08,-0.84,0.0,j
4095.0,4095.0,2942.0,3346.0,2814.0,2478.0,2852.0,4095.0,3.62,3.17,14.75,-1.31,-2.76,-1.6,0.0,j
4095.0,4095.0,2929.0,3337.0,2802.0,2479.0,2833.0,4095.0,6.09,3.59,13.04,0.32,-4.07,-1.55,0.0,j
4095.0,4095.0,2942.0,3311.0,2801.0,2473.0,2833.0,4095.0,8.01,5.31,9.32,0.2,-5.07,-1.77,0.0,j
4095.0,4095.0,2927.0,3319.0,2789.0,2473.0,2843.0,4095.0,8.99,6.21,7.21,-0.3,-2.93,-1.47,0.0,j
4095.0,4095.0,2944.0,3354.0,2789.0,2480.0,2837.0,4095.0,8.27,6.68,4.92,-0.42,-2.84,-1.05,0.0,j
4095.0,4095.0,2919.0,3363.0,2786.0,2476.0,2832.0,4095.0,7.6,7.21,2.95,-0.53,-2.03,-1.05,0.0,j
4095.0,4095.0,2928.0,3376.0,2796.0,2478.0,2831.0,4095.0,6.46,7.77,1.96,-0.46,-1.31,-1.01,0.0,j
4095.0,4095.0,2937.0,3328.0,2796.0,2478.0,2817.0,4095.0,4.99,7.83,2.1,-0.21,-0.43,-1.19,0.0,j
4095.0,4095.0,2932.0,3346.0,2800.0,2480.0,2814.0,4095.0,3.54,8.61,1.79,-0.25,-0.45,-1.15,0.0,j
4095.0,4095.0,2937.0,3353.0,2809.0,2477.0,2819.0,4095.0,3.44,9.02,1.98,-0.37,-0.04,-0.88,0.0,j
4095.0,4095.0,2931.0,3367.0,2813.0,2478.0,2827.0,4095.0,2.74,8.44,2.22,-0.4,0.7,-0.44,0.0,j
4095.0,4095.0,2941.0,3392.0,2830.0,2485.0,2822.0,4095.0,1.91,9.44,3.62,-0.38,1.01,-0.02,0.0,j
4095.0,4095.0,2939.0,3454.0,2832.0,2474.0,2827.0,4095.0,-3.58,7.47,5.61,-1.64,-0.18,0.13,0.0,j
4095.0,4095.0,2928.0,3340.0,2806.0,2448.0,2817.0,4095.0,-1.94,5.75,7.81,-2.81,-0.51,-0.16,0.0,j
4095.0,4095.0,2943.0,3321.0,2800.0,2450.0,2833.0,4095.0,-3.85,4.18,11.24,-2.56,-0.38,-0.85,0.0,j
4095.0,4095.0,2928.0,3332.0,2800.0,2453.0,2834.0,4095.0,-3.21,2.99,14.06,-1.94,-0.72,-1.04,0.0,j
4095.0,4095.0,2943.0,3347.0,2816.0,2466.0,2850.0,4095.0,-3.13,0.76,16.07,-1.22,-1.73,-1.77,0.0,j
4095.0,4095.0,2935.0,3349.0,2813.0,2471.0,2844.0,4095.0,-2.5,0.97,15.66,-0.36,-1.88,-1.49,0.0,j
4095.0,4095.0,2930.0,3364.0,2826.0,2480.0,2850.0,4095.0,0.69,0.74,14.74,-0.06,-2.49,-1.76,0.0,j
4095.0,4095.0,2935.0,3332.0,2816.0,2471.0,2850.0,4095.0,3.66,1.05,13.66,0.0,-3.52,-2.65,0.0,j
4095.0,4095.0,2950.0,3317.0,2795.0,2462.0,2835.0,4095.0,6.98,2.72,11.79,0.44,-3.31,-2.32,0.0,j
4095.0,4095.0,2927.0,3319.0,2783.0,2464.0,2832.0,4095.0,8.48,3.67,10.92,-0.08,-1.95,-1.7,0.0,j
4095.0,4095.0,2943.0,3350.0,2785.0,2467.0,2832.0,4095.0,8.84,4.71,9.6,0.02,-2.3,-1.81,0.0,j
4095.0,4095.0,2939.0,3328.0,2783.0,2473.0,2834.0,4095.0,9.0,6.11,6.98,0.08,-1.94,-1.88,0.0,j
4095.0,4095.0,2926.0,3322.0,2769.0,2467.0,2813.0,4095.0,7.27,6.93,5.9,-0.18,-1.18,-1.7,0.0,j
4095.0,4095.0,2935.0,3378.0,2783.0,2478.0,2816.0,4095.0,6.05,8.13,4.3,-0.11,-1.29,-1.72,0.0,j
4095.0,4095.0,2930.0,3375.0,2782.0,2464.0,2818.0,4095.0,4.25,8.25,3.77,-0.18,-0.85,-1.66,0.0,j
4095.0,4095.0,2935.0,3397.0,2801.0,2474.0,2825.0,4095.0,2.76,8.5,3.98,-0.29,0.09,-0.78,0.0,j
4095.0,4095.0,2923.0,3392.0,2800.0,2478.0,2827.0,4095.0,2.17,9.11,4.21,-0.1,-0.21,-0.39,0.0,j
4095.0,4095.0,2941.0,3403.0,2808.0,2485.0,2832.0,4095.0,3.15,9.61,4.15,-0.01,-0.17,-0.25,0.0,j
4095.0,4095.0,2929.0,3394.0,2800.0,2476.0,2827.0,4095.0,2.99,9.58,4.5,-0.13,0.25,-0.23,0.0,j
4095.0,4095.0,2954.0,3409.0,2809.0,2482.0,2836.0,4095.0,3.13,9.62,4.38,-0.12,0.52,-0.26,0.0,j
4095.0,4095.0,2928.0,3533.0,2859.0,2502.0,2883.0,4095.0,-4.03,8.27,5.6,-0.86,0.12,0.04,0.0,j
4095.0,4095.0,2935.0,3532.0,2864.0,2512.0,2869.0,4095.0,-3.78,7.12,7.11,-1.56,-1.7,0.35,0.0,j
4095.0,4095.0,2928.0,3510.0,2854.0,2513.0,2864.0,4095.0,-1.87,7.02,8.96,-1.64,-1.67,0.34,0.0,j
4095.0,4095.0,2937.0,3513.0,2851.0,2519.0,2864.0,4095.0,0.95,6.36,10.51,-1.88,-2.32,0.18,0.0,j
4095.0,4095.0,2928.0,3409.0,2823.0,2509.0,2871.0,4095.0,2.44,4.66,12.78,-2.1,-2.81,-0.05,0.0,j
4095.0,4095.0,2941.0,3461.0,2822.0,2512.0,2881.0,4095.0,6.28,2.7,13.09,-1.83,-2.86,-0.35,0.0,j
4095.0,4095.0,2933.0,3411.0,2802.0,2495.0,2880.0,4095.0,8.38,2.39,13.93,-1.3,-3.56,-1.41,0.0,j
4095.0,4095.0,2945.0,3402.0,2799.0,2497.0,2875.0,4095.0,8.99,3.09,10.64,-0.29,-2.65,-1.28,0.0,j
4095.0,4095.0,2927.0,3411.0,2795.0,2498.0,2877.0,4095.0,8.5,3.05,9.61,-0.47,-2.56,-1.38,0.0,j
4095.0,4095.0,2933.0,3370.0,2774.0,2499.0,2880.0,4095.0,8.53,4.11,5.34,0.1,-3.53,-1.38,0.0,j
4095.0,4095.0,2929.0,3310.0,2759.0,2487.0,2864.0,4095.0,9.18,5.85,2.83,-0.03,-2.69,-0.94,0.0,j
4095.0,4095.0,2927.0,3271.0,2748.0,2482.0,2857.0,4095.0,8.75,7.01,1.3,-0.27,-1.37,-0.79,0.0,j
4095.0,4095.0,2928.0,3313.0,2752.0,2486.0,2862.0,4095.0,7.56,7.44,0.58,-0.52,-1.22,-1.07,0.0,j
4095.0,4095.0,2935.0,3319.0,2763.0,2480.0,2846.0,4095.0,5.45,7.04,0.68,-0.8,-0.75,-0.91,0.0,j
4095.0,4095.0,2944.0,3338.0,2768.0,2474.0,2830.0,4095.0,6.06,8.34,1.28,-0.55,-0.69,-0.88,0.0,j
4095.0,4095.0,2925.0,3302.0,2752.0,2448.0,2807.0,4095.0,4.97,8.83,1.69,-1.01,0.1,-0.92,0.0,j
4095.0,4095.0,2929.0,3321.0,2763.0,2457.0,2812.0,4095.0,3.68,8.43,3.02,-0.92,0.79,-0.96,0.0,j
4095.0,4095.0,2924.0,3317.0,2759.0,2459.0,2817.0,4095.0,3.82,9.67,3.36,-0.52,0.39,-1.45,0.0,j
4095.0,4095.0,2930.0,3339.0,2771.0,2463.0,2826.0,4095.0,0.95,8.7,4.23,-0.68,0.7,-1.37,0.0,j
4095.0,4095.0,2929.0,3337.0,2775.0,2470.0,2831.0,4095.0,-1.23,8.98,5.28,-0.21,0.33,-0.74,0.0,j
4095.0,4095.0,2931.0,3281.0,2829.0,2461.0,2559.0,4095.0,-1.97,8.83,4.47,-0.79,-0.15,-0.32,0.0,j
4095.0,4095.0,2938.0,3287.0,2833.0,2460.0,2559.0,4095.0,-3.76,7.44,4.87,-1.81,-0.91,-0.51,0.0,j
4095.0,4095.0,2943.0,3280.0,2817.0,2433.0,2559.0,4095.0,-1.23,7.54,8.39,-2.53,-0.57,-0.19,0.0,j
4095.0,4095.0,2943.0,3296.0,2819.0,2439.0,2559.0,4095.0,-2.68,5.75,13.15,-2.14,-1.04,-1.23,0.0,j
4095.0,4095.0,2931.0,3274.0,2831.0,2449.0,2591.0,4095.0,-2.3,4.52,13.86,-1.48,-0.62,-0.99,0.0,j
4095.0,4095.0,2935.0,3280.0,2817.0,2446.0,2590.0,4095.0,-1.13,2.82,14.14,-1.39,-1.13,-1.18,0.0,j
4095.0,4095.0,2935.0,3266.0,2815.0,2442.0,2590.0,4095.0,-0.57,1.59,14.79,-1.22,-1.2,-1.67,0.0,j
4095.0,4095.0,2930.0,3280.0,2822.0,2451.0,2595.0,4095.0,1.07,-0.15,14.91,-0.75,-1.63,-2.32,0.0,j
4095.0,4095.0,2951.0,3281.0,2823.0,2439.0,2586.0,4095.0,1.66,-0.21,15.81,-0.17,-2.99,-2.93,0.0,j
4095.0,4095.0,2955.0,3244.0,2799.0,2420.0,2581.0,4095.0,3.96,1.1,14.04,0.42,-3.61,-2.97,0.0,j
4095.0,4095.0,2935.0,3139.0,2757.0,2391.0,2559.0,4095.0,8.25,2.69,11.48,0.54,-3.57,-2.08,0.0,j
4095.0,4095.0,2936.0,3273.0,2752.0,2395.0,2559.0,4095.0,8.03,4.31,8.85,0.35,-1.89,-1.84,0.0,j
4095.0,4095.0,2934.0,3287.0,2756.0,2401.0,2559.0,4038.0,8.17,6.21,6.81,0.46,-1.95,-1.94,0.0,j
4095.0,4095.0,2937.0,3281.0,2754.0,2409.0,2587.0,3978.0,6.56,8.09,4.77,0.09,-1.62,-1.98,0.0,j
4095.0,4095.0,2935.0,3247.0,2757.0,2411.0,2582.0,3994.0,5.16,8.44,4.2,-0.37,-1.14,-1.65,0.0,j
4095.0,4095.0,2935.0,3282.0,2759.0,2421.0,2595.0,4077.0,4.13,8.92,4.31,-0.39,-0.58,-1.34,0.0,j
4095.0,4095.0,2937.0,3285.0,2768.0,2417.0,2594.0,4095.0,3.09,8.98,4.52,-0.68,-0.2,-0.68,0.0,j
4095.0,4095.0,2946.0,3301.0,2782.0,2425.0,2597.0,4095.0,2.78,8.51,4.25,-0.35,0.14,-0.4,0.0,j
4095.0,4095.0,2945.0,3305.0,2785.0,2432.0,2606.0,4095.0,1.92,8.68,4.98,-0.05,0.01,-0.26,0.0,j
4095.0,4095.0,2928.0,3312.0,2783.0,2429.0,2602.0,4095.0,2.74,9.27,5.41,0.2,0.18,0.12,0.0,j
4095.0,4095.0,2935.0,3333.0,2859.0,2465.0,2639.0,4095.0,-2.42,7.71,3.69,-1.99,-0.26,-0.16,0.0,j
4095.0,4095.0,2935.0,3322.0,2837.0,2455.0,2625.0,4095.0,-3.09,7.24,8.04,-2.7,0.52,0.21,0.0,j
4095.0,4095.0,2946.0,3350.0,2829.0,2453.0,2625.0,4095.0,-3.08,5.44,11.24,-2.28,-0.29,-0.48,0.0,j
4095.0,4095.0,2944.0,3347.0,2825.0,2448.0,2635.0,4095.0,-3.12,4.03,14.38,-1.57,-0.77,-0.94,0.0,j
4095.0,4095.0,2941.0,3326.0,2806.0,2443.0,2635.0,4095.0,-1.7,3.7,13.64,-0.96,-0.26,-0.82,0.0,j
4095.0,4095.0,2943.0,3389.0,2786.0,2431.0,2639.0,4095.0,-3.33,1.38,14.42,-1.07,0.05,-1.04,0.0,j
4095.0,4095.0,2948.0,3378.0,2768.0,2432.0,2640.0,4095.0,-2.45,0.79,14.66,-0.89,-3.07,-2.41,0.0,j
4095.0,4095.0,2942.0,3350.0,2755.0,2387.0,2631.0,4095.0,1.37,-0.99,15.48,-0.48,-2.59,-2.39,0.0,j
4095.0,4095.0,2950.0,3338.0,2749.0,2394.0,2628.0,4095.0,3.16,-0.0,15.24,0.15,-2.14,-2.13,0.0,j
4095.0,4095.0,2958.0,3322.0,2733.0,2385.0,2620.0,4095.0,5.35,1.0,12.92,0.3,-2.52,-2.43,0.0,j
4095.0,4095.0,2934.0,3313.0,2729.0,2391.0,2624.0,4095.0,7.52,2.58,11.21,0.19,-2.74,-2.16,0.0,j
4095.0,4095.0,2941.0,3344.0,2736.0,2403.0,2624.0,4095.0,8.53,4.6,8.41,0.08,-2.43,-1.98,0.0,j
4095.0,4095.0,2953.0,3363.0,2730.0,2402.0,2621.0,4095.0,8.17,5.92,6.76,-0.17,-3.83,-2.71,0.0,j
4095.0,4095.0,2946.0,3367.0,2735.0,2407.0,2627.0,4095.0,6.76,7.71,4.55,0.21,-2.92,-2.35,0.0,j
4095.0,4095.0,2938.0,3311.0,2736.0,2417.0,2618.0,4095.0,4.81,8.71,2.89,-0.13,-0.86,-1.6,0.0,j
4095.0,4095.0,2943.0,3307.0,2753.0,2423.0,2624.0,4095.0,2.83,8.49,3.09,-0.21,-0.24,-1.15,0.0,j
4095.0,4095.0,2939.0,3318.0,2761.0,2419.0,2619.0,4095.0,2.8,8.92,2.83,-0.16,-0.29,-0.68,0.0,j
4095.0,4095.0,2941.0,3339.0,2766.0,2431.0,2630.0,4095.0,2.43,8.93,3.13,-0.23,0.02,-0.27,0.0,j
4095.0,4095.0,2947.0,3351.0,2768.0,2432.0,2631.0,4095.0,2.17,9.13,3.95,-0.21,0.03,0.06,0.0,j
4095.0,4095.0,2934.0,3371.0,2783.0,2436.0,2638.0,4095.0,3.39,10.06,3.19,0.02,-0.15,-0.04,0.0,j
4095.0,4095.0,2931.0,3396.0,2813.0,2450.0,2646.0,4095.0,-3.47,7.64,6.9,-1.29,-0.54,-0.05,0.0,j
4095.0,4095.0,2940.0,3417.0,2813.0,2449.0,2645.0,4095.0,-2.72,7.34,8.24,-1.76,-0.38,-0.07,0.0,j
4095.0,4095.0,2944.0,3379.0,2787.0,2429.0,2657.0,4095.0,-3.17,6.17,9.97,-2.59,-0.08,-0.27,0.0,j
4095.0,4095.0,2935.0,3409.0,2803.0,2443.0,2679.0,4095.0,-3.88,4.25,12.64,-1.54,-0.8,-1.08,0.0,j
4095.0,4095.0,2939.0,3423.0,2801.0,2446.0,2675.0,4095.0,-3.06,2.28,14.96,-1.37,-2.08,-1.65,0.0,j
4095.0,4095.0,2941.0,3440.0,2815.0,2455.0,2690.0,4095.0,-0.36,1.67,15.56,-0.43,-2.77,-1.77,0.0,j
4095.0,4095.0,2931.0,3423.0,2806.0,2448.0,2678.0,4095.0,2.02,2.05,15.11,-0.47,-2.92,-1.83,0.0,j
4095.0,4095.0,2933.0,3401.0,2802.0,2448.0,2678.0,4095.0,4.59,2.6,13.02,0.02,-2.78,-1.94,0.0,j
4095.0,4095.0,2933.0,3395.0,2786.0,2437.0,2675.0,4095.0,6.08,2.43,12.72,-0.04,-2.62,-1.94,0.0,j
4095.0,4095.0,2942.0,3398.0,2778.0,2445.0,2679.0,4095.0,6.72,3.29,11.98,0.13,-1.91,-1.78,0.0,j
4095.0,4095.0,2933.0,3406.0,2770.0,2443.0,2681.0,4095.0,7.18,4.3,10.68,0.27,-2.52,-1.94,0.0,j
4095.0,4095.0,2933.0,3395.0,2770.0,2445.0,2679.0,4095.0,7.18,6.62,7.69,0.46,-3.2,-2.19,0.0,j
4095.0,4095.0,2937.0,3327.0,2768.0,2446.0,2677.0,4095.0,6.88,7.92,4.13,0.3,-2.5,-1.93,0.0,j
4095.0,4095.0,2933.0,3314.0,2769.0,2443.0,2673.0,4095.0,4.95,8.64,2.9,-0.16,-1.29,-1.55,0.0,j
4095.0,4095.0,2929.0,3303.0,2779.0,2446.0,2678.0,4095.0,3.48,8.76,3.07,-0.28,-0.59,-1.03,0.0,j
4095.0,4095.0,2937.0,3343.0,2782.0,2448.0,2669.0,4095.0,2.56,9.1,3.26,-0.26,-0.23,-0.7,0.0,j
4095.0,4095.0,2933.0,3360.0,2791.0,2458.0,2680.0,4095.0,2.6,8.94,3.45,-0.2,0.02,-0.38,0.0,j
4095.0,4095.0,2928.0,3344.0,2785.0,2457.0,2678.0,4095.0,2.1,8.93,3.74,-0.0,-0.05,-0.15,0.0,j
4095.0,4095.0,2943.0,3360.0,2793.0,2465.0,2679.0,4095.0,2.91,9.46,3.72,0.21,0.2,0.05,0.0,j
4095.0,4095.0,2931.0,3358.0,2795.0,2459.0,2676.0,4095.0,3.32,9.73,3.14,0.22,0.07,-0.18,0.0,j
4095.0,4095.0,2929.0,3334.0,2830.0,2483.0,2735.0,4095.0,-2.99,9.2,2.67,-0.98,0.87,0.56,0.0,j
4095.0,4095.0,2940.0,3393.0,2811.0,2480.0,2731.0,4095.0,-1.36,8.53,3.91,-1.78,0.03,0.34,0.0,j
4095.0,4095.0,2933.0,3362.0,2801.0,2466.0,2722.0,4095.0,-1.13,7.6,7.16,-2.21,-0.49,-0.02,0.0,j
4095.0,4095.0,2925.0,3399.0,2800.0,2453.0,2731.0,4095.0,-0.66,6.43,9.84,-2.3,-0.95,-0.57,0.0,j
4095.0,4095.0,2937.0,3419.0,2797.0,2451.0,2726.0,4095.0,-0.68,4.91,11.64,-2.62,-1.77,-0.91,0.0,j
4095.0,4095.0,2925.0,3413.0,2777.0,2447.0,2718.0,4095.0,1.85,2.38,15.19,-2.3,-1.74,-1.35,0.0,j
4095.0,4095.0,2950.0,3436.0,2784.0,2464.0,2735.0,4095.0,2.92,1.57,15.23,-1.32,-2.23,-1.47,0.0,j
4095.0,4095.0,2928.0,3426.0,2782.0,2448.0,2725.0,4095.0,4.93,1.75,13.47,-0.62,-2.99,-1.89,0.0,j
4095.0,4095.0,2933.0,3403.0,2785.0,2451.0,2736.0,4095.0,6.96,2.08,11.87,-0.52,-3.95,-2.35,0.0,j
4095.0,4095.0,2928.0,3383.0,2763.0,2447.0,2733.0,4095.0,10.68,3.48,9.04,-0.64,-4.11,-2.17,0.0,j
4095.0,4095.0,2932.0,3396.0,2763.0,2448.0,2732.0,4095.0,10.75,4.65,5.94,-0.64,-2.77,-1.98,0.0,j
4095.0,4095.0,2955.0,3405.0,2772.0,2459.0,2736.0,4095.0,8.8,5.88,4.64,-0.59,-2.36,-1.84,0.0,j
4095.0,4095.0,2927.0,3376.0,2768.0,2459.0,2714.0,4095.0,8.76,7.11,4.16,-0.61,-1.37,-1.35,0.0,j
4095.0,4095.0,2943.0,3357.0,2770.0,2467.0,2717.0,4095.0,6.8,7.54,3.61,-0.4,-0.79,-1.42,0.0,j
4095.0,4095.0,2931.0,3402.0,2772.0,2459.0,2701.0,4095.0,4.92,8.2,3.3,-0.46,-0.55,-1.46,0.0,j
4095.0,4095.0,2934.0,3414.0,2783.0,2451.0,2700.0,4095.0,3.62,8.64,3.87,-0.55,-0.01,-1.09,0.0,j
4095.0,4095.0,2928.0,3415.0,2797.0,2461.0,2688.0,4095.0,2.97,8.86,4.38,-0.23,-0.08,-0.77,0.0,j
4095.0,4095.0,2947.0,3422.0,2800.0,2468.0,2704.0,4095.0,2.97,8.91,4.55,-0.17,0.21,-0.42,0.0,j
4095.0,4095.0,2927.0,3415.0,2803.0,2474.0,2702.0,4095.0,2.55,9.23,5.11,-0.05,0.23,-0.27,0.0,j
4095.0,4095.0,2952.0,3434.0,2805.0,2473.0,2704.0,4095.0,2.12,9.49,4.61,0.04,0.04,-0.23,0.0,j
4095.0,4095.0,2935.0,3440.0,2822.0,2497.0,2757.0,4095.0,0.54,0.8,15.22,-0.16,-2.7,-1.61,0.0,j
4095.0,4095.0,2943.0,3434.0,2803.0,2483.0,2753.0,4095.0,3.47,0.23,13.44,-0.0,-2.16,-1.8,0.0,j
4095.0,4095.0,2941.0,3440.0,2806.0,2487.0,2770.0,4095.0,5.02,0.23,12.28,-0.11,-2.43,-1.66,0.0,j
4095.0,4095.0,2934.0,3379.0,2768.0,2467.0,2761.0,4095.0,7.84,0.55,12.26,-0.82,-2.4,-1.97,0.0,j
4095.0,4095.0,2957.0,3410.0,2780.0,2490.0,2768.0,4095.0,9.26,1.8,10.84,-0.31,-2.05,-1.72,0.0,j
4095.0,4095.0,2944.0,3418.0,2774.0,2486.0,2768.0,4095.0,8.86,2.88,9.74,-0.37,-2.15,-2.01,0.0,j
4095.0,4095.0,2935.0,3405.0,2773.0,2475.0,2759.0,4095.0,9.08,4.33,8.1,-0.26,-2.19,-1.96,0.0,j
4095.0,4095.0,2928.0,3392.0,2768.0,2485.0,2752.0,4095.0,8.84,5.94,5.49,-0.11,-2.4,-1.87,0.0,j
4095.0,4095.0,2928.0,3364.0,2766.0,2480.0,2731.0,4095.0,7.1,6.93,3.47,0.01,-1.71,-1.74,0.0,j
4095.0,4095.0,2939.0,3370.0,2772.0,2482.0,2733.0,4095.0,5.83,7.95,2.63,-0.27,-1.17,-1.35,0.0,j
4095.0,4095.0,2937.0,3361.0,2775.0,2480.0,2711.0,4095.0,4.66,8.89,2.42,-0.38,-0.5,-1.08,0.0,j
4095.0,4095.0,2943.0,3387.0,2795.0,2487.0,2719.0,4095.0,3.58,9.13,2.94,-0.65,0.01,-0.9,0.0,j
4095.0,4095.0,2935.0,3403.0,2794.0,2489.0,2711.0,4095.0,2.33,8.82,3.38,-0.33,0.05,-1.11,0.0,j
4095.0,4095.0,2942.0,3408.0,2807.0,2497.0,2710.0,4095.0,1.44,8.86,3.31,-0.2,-0.14,-0.82,0.0,j
4095.0,4095.0,2929.0,3378.0,2805.0,2495.0,2718.0,4095.0,1.24,8.79,3.89,-0.07,0.24,-0.24,0.0,j
4095.0,4095.0,2951.0,3408.0,2810.0,2501.0,2719.0,4095.0,1.42,9.67,4.24,0.17,0.22,0.01,0.0,j
4095.0,4095.0,2935.0,3395.0,2810.0,2502.0,2717.0,4095.0,1.77,10.07,3.46,0.11,0.13,-0.12,0.0,j
4095.0,4095.0,2942.0,3410.0,2800.0,2494.0,2707.0,4095.0,2.06,9.89,3.52,-0.0,0.12,-0.21,0.0,j
4095.0,4095.0,2944.0,3425.0,2817.0,2503.0,2719.0,4095.0,1.65,9.81,3.59,-0.03,0.12,-0.24,0.0,j
4095.0,4095.0,2933.0,3419.0,2810.0,2499.0,2720.0,4095.0,1.27,9.82,3.78,-0.05,0.09,-0.18,0.0,j
4095.0,4095.0,2935.0,3297.0,2855.0,2491.0,2768.0,4095.0,-2.05,9.23,2.85,-0.76,0.13,0.07,0.0,j
4095.0,4095.0,2940.0,3342.0,2845.0,2490.0,2752.0,4095.0,-2.41,8.02,3.68,-2.66,0.28,0.22,0.0,j
4095.0,4095.0,2937.0,3370.0,2838.0,2479.0,2763.0,4095.0,-1.82,7.12,8.17,-3.16,-0.34,0.15,0.0,j
4095.0,4095.0,2930.0,3396.0,2832.0,2479.0,2770.0,4095.0,-1.61,5.49,11.69,-1.96,-0.07,-0.73,0.0,j
4095.0,4095.0,2935.0,3321.0,2832.0,2480.0,2784.0,4095.0,-0.82,3.5,12.81,-2.67,-1.13,-1.28,0.0,j
4095.0,4095.0,2926.0,3418.0,2815.0,2479.0,2793.0,4095.0,-2.4,0.64,15.99,-1.66,-0.86,-2.03,0.0,j
4095.0,4095.0,2928.0,3434.0,2835.0,2493.0,2802.0,4095.0,-0.46,-0.08,15.5,-1.27,-1.73,-2.17,0.0,j
4095.0,4095.0,2941.0,3390.0,2827.0,2497.0,2802.0,4095.0,1.75,-0.81,14.93,-0.79,-2.24,-2.47,0.0,j
4095.0,4095.0,2941.0,3376.0,2802.0,2480.0,2799.0,4095.0,3.69,-0.78,14.45,-0.44,-2.22,-2.49,0.0,j
4095.0,4095.0,2942.0,3381.0,2772.0,2464.0,2802.0,4095.0,6.62,0.47,13.62,0.13,-2.8,-2.57,0.0,j
4095.0,4095.0,2941.0,3381.0,2766.0,2458.0,2800.0,4095.0,8.45,2.21,11.84,0.58,-2.44,-2.31,0.0,j
4095.0,4095.0,2934.0,3405.0,2753.0,2476.0,2805.0,4095.0,8.62,3.96,9.54,0.57,-2.71,-2.86,0.0,j
4095.0,4095.0,2939.0,3343.0,2749.0,2476.0,2783.0,4095.0,8.21,6.12,7.04,-0.12,-2.51,-2.47,0.0,j
4095.0,4095.0,2939.0,3359.0,2756.0,2477.0,2781.0,4095.0,7.0,7.46,5.2,0.08,-2.25,-2.29,0.0,j
4095.0,4095.0,2928.0,3362.0,2757.0,2471.0,2752.0,4095.0,5.03,8.43,4.01,-0.2,-1.3,-1.74,0.0,j
4095.0,4095.0,2930.0,3383.0,2777.0,2470.0,2746.0,4095.0,3.7,8.85,3.65,-0.23,-0.92,-1.53,0.0,j
4095.0,4095.0,2935.0,3393.0,2789.0,2466.0,2739.0,4095.0,2.65,8.79,3.75,-0.28,-0.31,-1.18,0.0,j
4095.0,4095.0,2938.0,3414.0,2803.0,2480.0,2743.0,4095.0,1.9,9.03,4.22,-0.16,-0.09,-0.63,0.0,j
4095.0,4095.0,2939.0,3417.0,2802.0,2475.0,2737.0,4095.0,1.04,9.19,4.32,-0.1,0.06,-0.29,0.0,j
4095.0,4095.0,2932.0,3440.0,2811.0,2487.0,2740.0,4095.0,1.11,9.45,4.54,0.07,0.13,-0.01,0.0,j
4095.0,4095.0,2937.0,3466.0,2893.0,2523.0,2813.0,4095.0,-2.26,9.22,4.93,-1.09,0.29,0.21,0.0,j
4095.0,4095.0,2928.0,3461.0,2885.0,2512.0,2795.0,4095.0,-2.08,7.67,6.6,-1.94,0.21,0.34,0.0,j
4095.0,4095.0,2935.0,3466.0,2853.0,2495.0,2789.0,4095.0,-1.25,6.82,9.02,-2.77,0.09,0.25,0.0,j
4095.0,4095.0,2938.0,3423.0,2831.0,2487.0,2779.0,4095.0,-0.97,4.38,12.44,-2.76,-0.09,-0.48,0.0,j
4095.0,4095.0,2939.0,3413.0,2827.0,2498.0,2769.0,4095.0,-0.75,1.96,14.54,-2.06,-1.57,-1.74,0.0,j
4095.0,4095.0,2930.0,3414.0,2832.0,2507.0,2793.0,4095.0,0.28,0.9,14.94,-1.14,-2.41,-2.48,0.0,j
4095.0,4095.0,2951.0,3419.0,2835.0,2512.0,2805.0,4095.0,1.7,0.05,15.96,-0.88,-2.73,-2.63,0.0,j
4095.0,4095.0,2927.0,3381.0,2813.0,2493.0,2794.0,4095.0,4.26,0.93,14.0,-0.3,-2.13,-2.19,0.0,j
4095.0,4095.0,2951.0,3399.0,2814.0,2481.0,2801.0,4095.0,5.95,1.85,12.38,-0.06,-2.06,-1.87,0.0,j
4095.0,4095.0,2928.0,3408.0,2813.0,2487.0,2803.0,4095.0,7.97,2.8,11.14,-0.08,-2.29,-1.93,0.0,j
4095.0,4095.0,2942.0,3429.0,2797.0,2497.0,2800.0,4095.0,8.56,4.04,9.43,-0.33,-2.49,-2.08,0.0,j
4095.0,4095.0,2950.0,3437.0,2797.0,2510.0,2797.0,4095.0,8.43,5.15,7.49,-0.43,-2.56,-2.12,0.0,j
4095.0,4095.0,2933.0,3424.0,2799.0,2510.0,2790.0,4095.0,8.42,6.81,5.91,-0.32,-2.22,-2.03,0.0,j
4095.0,4095.0,2933.0,3423.0,2807.0,2511.0,2791.0,4095.0,7.44,8.56,4.36,-0.39,-1.68,-1.93,0.0,j
4095.0,4095.0,2928.0,3394.0,2800.0,2507.0,2787.0,4095.0,5.23,8.32,4.37,-0.78,-0.11,-1.53,0.0,j
4095.0,4095.0,2928.0,3389.0,2829.0,2512.0,2793.0,4095.0,2.92,7.99,4.43,-0.48,0.02,-1.58,0.0,j
4095.0,4095.0,2930.0,3376.0,2828.0,2507.0,2789.0,4095.0,1.49,8.06,5.35,-0.36,0.25,-0.86,0.0,j
4095.0,4095.0,2943.0,3391.0,2839.0,2515.0,2792.0,4095.0,1.5,8.79,6.16,-0.2,0.19,-0.31,0.0,j
4095.0,4095.0,2941.0,3386.0,2832.0,2518.0,2788.0,4095.0,1.87,9.61,6.01,-0.04,0.19,-0.12,0.0,j
4095.0,4095.0,2939.0,3398.0,2848.0,2529.0,2795.0,4095.0,1.76,9.73,5.84,-0.04,-0.05,-0.16,0.0,j
4095.0,4095.0,2933.0,3347.0,2800.0,2458.0,2759.0,4095.0,-1.55,2.07,12.83,-2.56,-0.03,-0.49,0.0,j
4095.0,4095.0,2943.0,3376.0,2811.0,2474.0,2772.0,4095.0,-2.2,0.15,15.18,-1.43,-2.14,-2.56,0.0,j
4095.0,4095.0,2928.0,3379.0,2823.0,2492.0,2771.0,4095.0,0.6,-1.03,15.28,-0.92,-3.1,-2.86,0.0,j
4095.0,4095.0,2940.0,3380.0,2800.0,2480.0,2755.0,4095.0,6.78,-1.14,14.46,0.25,-2.44,-2.68,0.0,j
4095.0,4095.0,2937.0,3377.0,2799.0,2480.0,2763.0,4095.0,8.19,0.62,12.82,0.32,-2.25,-2.57,0.0,j
4095.0,4095.0,2956.0,3376.0,2802.0,2489.0,2757.0,4095.0,7.69,2.6,10.34,0.13,-2.54,-2.26,0.0,j
4095.0,4095.0,2935.0,3355.0,2799.0,2486.0,2756.0,4095.0,8.76,3.32,9.25,-0.45,-1.85,-1.6,0.0,j
4095.0,4095.0,2935.0,3366.0,2801.0,2485.0,2752.0,4095.0,8.8,4.28,8.08,-0.1,-1.53,-1.33,0.0,j
4095.0,4095.0,2942.0,3370.0,2783.0,2480.0,2737.0,4079.0,8.76,5.45,6.33,-0.03,-1.59,-1.25,0.0,j
4095.0,4095.0,2939.0,3357.0,2786.0,2486.0,2746.0,4035.0,7.99,6.29,5.41,-0.1,-1.5,-1.33,0.0,j
4095.0,4095.0,2938.0,3363.0,2774.0,2481.0,2736.0,4048.0,7.3,7.4,4.42,-0.05,-1.42,-1.41,0.0,j
4095.0,4095.0,2939.0,3357.0,2799.0,2483.0,2741.0,4095.0,6.26,8.19,3.18,-0.09,-1.19,-1.27,0.0,j
4095.0,4095.0,2929.0,3337.0,2775.0,2480.0,2736.0,4095.0,5.54,8.74,2.87,-0.45,-0.72,-1.27,0.0,j
4095.0,4095.0,2941.0,3344.0,2782.0,2485.0,2748.0,4095.0,4.47,8.53,3.23,-0.62,-0.07,-1.17,0.0,j
4095.0,4095.0,2935.0,3360.0,2791.0,2485.0,2750.0,4095.0,3.04,8.4,4.0,-0.55,0.14,-0.86,0.0,j
4095.0,4095.0,2935.0,3363.0,2798.0,2489.0,2753.0,4095.0,2.27,8.73,4.58,-0.37,0.4,-0.46,0.0,j
4095.0,4095.0,2938.0,3408.0,2799.0,2494.0,2759.0,4095.0,2.13,9.2,5.17,-0.16,0.38,-0.19,0.0,j
4095.0,4095.0,2931.0,3399.0,2795.0,2491.0,2762.0,4095.0,2.13,9.59,5.17,-0.0,0.24,-0.18,0.0,j
4095.0,4095.0,2938.0,3419.0,2801.0,2496.0,2766.0,4095.0,2.52,9.7,4.98,-0.09,0.85,0.02,0.0,j
4095.0,4095.0,2938.0,3410.0,2801.0,2494.0,2766.0,4095.0,3.24,9.74,5.48,-0.28,2.2,0.34,0.0,j
4095.0,4095.0,2933.0,3391.0,2812.0,2499.0,2799.0,4095.0,-2.98,9.04,4.65,-1.32,0.4,0.22,0.0,j
4095.0,4095.0,2933.0,3399.0,2799.0,2488.0,2785.0,4095.0,-2.52,7.23,4.82,-2.48,0.02,0.34,0.0,j
4095.0,4095.0,2936.0,3424.0,2794.0,2493.0,2802.0,4095.0,-1.08,4.84,9.91,-3.68,-0.77,0.03,0.0,j
4095.0,4095.0,2938.0,3408.0,2796.0,2498.0,2813.0,4095.0,-0.58,2.53,13.92,-2.22,-1.43,-1.24,0.0,j
4095.0,4095.0,2930.0,3413.0,2786.0,2509.0,2814.0,4095.0,1.59,0.38,15.46,-2.15,-1.71,-1.82,0.0,j
4095.0,4095.0,2937.0,3441.0,2809.0,2519.0,2833.0,4095.0,1.97,-1.24,16.86,-1.21,-1.55,-2.09,0.0,j
4095.0,4095.0,2943.0,3418.0,2805.0,2512.0,2832.0,4095.0,4.11,-0.6,14.79,-0.49,-1.99,-2.3,0.0,j
4095.0,4095.0,2944.0,3376.0,2806.0,2516.0,2847.0,4095.0,4.94,-0.25,14.5,-0.44,-2.52,-2.6,0.0,j
4095.0,4095.0,2933.0,3423.0,2800.0,2509.0,2837.0,4095.0,6.98,1.21,12.56,0.25,-3.12,-2.84,0.0,j
4095.0,4095.0,2931.0,3433.0,2796.0,2516.0,2833.0,4095.0,8.68,3.29,9.67,0.22,-3.08,-2.92,0.0,j
4095.0,4095.0,2935.0,3374.0,2786.0,2517.0,2826.0,4095.0,8.4,5.88,7.69,0.1,-3.49,-3.15,0.0,j
4095.0,4095.0,2933.0,3366.0,2780.0,2517.0,2818.0,4095.0,7.94,8.41,4.02,0.18,-3.08,-2.98,0.0,j
4095.0,4095.0,2933.0,3381.0,2785.0,2501.0,2804.0,4095.0,3.83,8.47,2.47,-0.26,-0.35,-2.04,0.0,j
4095.0,4095.0,2934.0,3408.0,2809.0,2480.0,2804.0,4095.0,1.95,7.81,2.32,-0.29,0.44,-1.3,0.0,j
4095.0,4095.0,2929.0,3432.0,2815.0,2496.0,2804.0,4095.0,1.88,9.18,3.83,-0.57,1.09,-0.35,0.0,j
4095.0,4095.0,2943.0,3449.0,2829.0,2511.0,2806.0,4095.0,1.54,9.67,4.3,-0.31,2.23,-0.44,0.0,j
4095.0,4095.0,2942.0,3445.0,2829.0,2506.0,2811.0,4095.0,1.31,9.4,4.63,-0.72,4.2,0.36,0.0,j
4095.0,4095.0,2933.0,3454.0,2832.0,2503.0,2819.0,4095.0,0.76,9.56,7.08,-1.13,6.07,0.71,0.0,j
4095.0,4095.0,2945.0,3456.0,2832.0,2498.0,2818.0,4095.0,-2.11,10.25,2.35,-1.22,8.73,1.01,0.0,j
4095.0,4095.0,2935.0,3426.0,2833.0,2495.0,2825.0,4095.0,-4.3,8.03,7.46,-0.89,4.24,0.55,0.0,j
4095.0,4095.0,2930.0,3472.0,2817.0,2499.0,2801.0,4095.0,-2.87,7.76,5.11,-2.85,-0.16,0.44,0.0,j
4095.0,4095.0,2942.0,3411.0,2813.0,2495.0,2812.0,4095.0,-2.47,5.43,9.14,-3.85,0.55,0.67,0.0,j
4095.0,4095.0,2928.0,3440.0,2799.0,2506.0,2829.0,4095.0,-1.15,2.96,14.28,-2.87,0.13,-0.42,0.0,j
4095.0,4095.0,2943.0,3439.0,2806.0,2515.0,2846.0,4095.0,-0.35,0.87,15.37,-2.1,-2.21,-2.35,0.0,j
4095.0,4095.0,2935.0,3507.0,2818.0,2523.0,2877.0,4095.0,1.84,-1.17,17.08,-0.86,-1.66,-2.98,0.0,j
4095.0,4095.0,2932.0,3566.0,2833.0,2540.0,2886.0,4095.0,0.15,0.52,14.53,0.15,-1.02,-2.09,0.0,j
4095.0,4095.0,2944.0,3557.0,2834.0,2544.0,2881.0,4095.0,1.64,0.05,14.63,-0.25,-1.91,-2.37,0.0,j
4095.0,4095.0,2937.0,3554.0,2839.0,2545.0,2885.0,4095.0,4.08,0.36,14.68,-0.3,-2.75,-2.69,0.0,j
4095.0,4095.0,2932.0,3547.0,2834.0,2534.0,2873.0,4095.0,7.25,1.91,12.32,0.76,-3.11,-2.7,0.0,j
4095.0,4095.0,2954.0,3518.0,2802.0,2530.0,2860.0,4095.0,8.03,4.35,9.66,0.52,-2.99,-2.8,0.0,j
4095.0,4095.0,2941.0,3423.0,2771.0,2513.0,2827.0,4095.0,7.01,6.48,6.81,0.48,-3.11,-2.71,0.0,j
4095.0,4095.0,2943.0,3363.0,2767.0,2511.0,2804.0,4095.0,5.81,8.12,4.06,0.32,-2.05,-1.87,0.0,j
4095.0,4095.0,2946.0,3365.0,2765.0,2490.0,2785.0,4095.0,5.05,8.72,3.51,-0.02,-0.6,-1.36,0.0,j
4095.0,4095.0,2938.0,3376.0,2767.0,2475.0,2768.0,4095.0,3.7,8.91,2.85,-0.29,0.09,-1.15,0.0,j
4095.0,4095.0,2938.0,3389.0,2779.0,2496.0,2787.0,4095.0,2.69,9.3,3.64,-0.45,0.72,-0.8,0.0,j
4095.0,4095.0,2938.0,3427.0,2779.0,2487.0,2788.0,4095.0,2.6,9.4,3.04,-0.69,1.84,-0.66,0.0,j
4095.0,4095.0,2942.0,3456.0,2794.0,2497.0,2802.0,4095.0,0.06,9.66,6.02,-0.9,2.89,-0.1,0.0,j
4095.0,4095.0,2943.0,3431.0,2795.0,2506.0,2804.0,4095.0,0.32,9.28,7.27,-0.44,1.01,-0.56,0.0,j
4095.0,4095.0,2944.0,3445.0,2805.0,2512.0,2820.0,4095.0,-0.59,9.23,7.32,-0.36,2.31,-0.34,0.0,j
4095.0,4095.0,2941.0,3458.0,2802.0,2508.0,2822.0,4095.0,-1.96,9.42,6.37,-0.55,3.86,0.13,0.0,j
4095.0,4095.0,2944.0,3415.0,2810.0,2506.0,2832.0,4095.0,-3.24,9.17,2.49,-0.88,0.36,0.15,0.0,j
4095.0,4095.0,2925.0,3440.0,2795.0,2506.0,2830.0,4095.0,-3.39,7.22,5.74,-2.28,-0.34,0.03,0.0,j
4095.0,4095.0,2929.0,3440.0,2799.0,2515.0,2832.0,4095.0,-3.34,6.62,9.83,-2.15,-0.08,0.17,0.0,j
4095.0,4095.0,2931.0,3435.0,2797.0,2513.0,2830.0,4095.0,-2.64,6.08,10.82,-1.76,-0.31,-0.08,0.0,j
4095.0,4095.0,2924.0,3423.0,2782.0,2500.0,2818.0,4095.0,-2.38,4.86,10.1,-3.01,-0.78,-0.35,0.0,j
4095.0,4095.0,2939.0,3452.0,2775.0,2501.0,2818.0,4095.0,-2.36,0.13,15.78,-2.11,-0.95,-1.29,0.0,j
4095.0,4095.0,2929.0,3445.0,2792.0,2515.0,2831.0,4095.0,0.01,-0.93,16.66,-0.9,-2.8,-2.98,0.0,j
4095.0,4095.0,2933.0,3422.0,2796.0,2522.0,2846.0,4095.0,2.15,-0.67,15.29,-0.37,-3.32,-3.1,0.0,j
4095.0,4095.0,2935.0,3414.0,2778.0,2518.0,2847.0,4095.0,4.6,0.31,11.76,-0.5,-2.98,-2.16,0.0,j
4095.0,4095.0,2942.0,3409.0,2777.0,2503.0,2842.0,4095.0,8.18,0.56,11.82,-0.19,-2.74,-2.4,0.0,j
4095.0,4095.0,2942.0,3466.0,2759.0,2511.0,2838.0,4095.0,9.81,3.05,8.14,0.19,-3.94,-2.39,0.0,j
4095.0,4095.0,2938.0,3469.0,2747.0,2512.0,2813.0,4095.0,9.39,4.79,4.74,0.01,-2.84,-1.86,0.0,j
4095.0,4095.0,2937.0,3431.0,2736.0,2500.0,2790.0,4095.0,8.65,6.26,2.87,-0.21,-1.62,-1.54,0.0,j
4095.0,4095.0,2942.0,3426.0,2738.0,2485.0,2768.0,4095.0,7.27,7.69,1.3,-0.33,-1.41,-1.6,0.0,j
4095.0,4095.0,2929.0,3289.0,2710.0,2429.0,2733.0,4095.0,6.24,8.2,0.23,-0.57,-0.57,-1.5,0.0,j
4095.0,4095.0,2941.0,3309.0,2725.0,2429.0,2723.0,4095.0,4.24,8.46,2.04,-0.9,-0.14,-1.52,0.0,j
4095.0,4095.0,2931.0,3303.0,2729.0,2433.0,2725.0,4095.0,2.38,7.89,3.25,-0.66,0.07,-1.23,0.0,j
4095.0,4095.0,2935.0,3328.0,2746.0,2438.0,2731.0,4095.0,1.64,7.86,3.7,-0.26,0.17,-0.5,0.0,j
4095.0,4095.0,2931.0,3351.0,2759.0,2448.0,2738.0,4095.0,1.58,9.06,3.08,0.2,-0.0,-0.27,0.0,j
4095.0,4095.0,2928.0,3353.0,2752.0,2448.0,2738.0,4095.0,1.75,9.85,2.74,0.27,0.0,-0.1,0.0,j
4095.0,4095.0,2939.0,3395.0,2886.0,2534.0,2851.0,4095.0,-4.32,9.09,5.73,-0.16,-0.08,-0.15,0.0,j
4095.0,4095.0,2928.0,3403.0,2864.0,2519.0,2827.0,4095.0,-3.7,8.2,7.13,-1.41,0.17,0.62,0.0,j
4095.0,4095.0,2929.0,3408.0,2846.0,2512.0,2817.0,4095.0,-2.67,7.71,8.54,-1.68,0.18,0.42,0.0,j
4095.0,4095.0,2929.0,3369.0,2829.0,2492.0,2818.0,4095.0,-3.26,7.52,10.74,-1.41,0.35,0.17,0.0,j
4095.0,4095.0,2944.0,3387.0,2848.0,2493.0,2825.0,4095.0,-2.61,6.15,10.91,-1.11,0.08,-0.08,0.0,j
4095.0,4095.0,2926.0,3370.0,2826.0,2490.0,2830.0,4095.0,-1.64,4.71,10.35,-1.4,-0.35,-0.42,0.0,j
4095.0,4095.0,2939.0,3408.0,2831.0,2497.0,2845.0,4095.0,-1.04,2.83,12.18,-2.09,-1.3,-1.32,0.0,j
4095.0,4095.0,2945.0,3443.0,2816.0,2489.0,2839.0,4095.0,1.98,0.5,16.75,-2.23,-3.85,-2.59,0.0,j
4095.0,4095.0,2935.0,3379.0,2811.0,2492.0,2836.0,4095.0,3.81,0.05,16.06,-0.79,-4.08,-3.8,0.0,j
4095.0,4095.0,2940.0,3411.0,2787.0,2495.0,2833.0,4095.0,7.75,2.29,11.82,0.22,-4.26,-2.32,0.0,j
4095.0,4095.0,2941.0,3488.0,2768.0,2488.0,2819.0,4095.0,8.34,3.73,9.55,-0.18,-2.22,-1.56,0.0,j
4095.0,4095.0,2935.0,3475.0,2767.0,2496.0,2819.0,4095.0,9.1,4.53,7.6,-0.5,-2.69,-1.8,0.0,j
4095.0,4095.0,2941.0,3441.0,2752.0,2487.0,2811.0,4095.0,8.7,6.33,5.09,-0.2,-3.01,-2.27,0.0,j
4095.0,4095.0,2941.0,3394.0,2748.0,2483.0,2805.0,4095.0,8.18,8.27,2.46,-0.23,-2.62,-2.49,0.0,j
4095.0,4095.0,2934.0,3425.0,2767.0,2480.0,2799.0,4095.0,4.83,8.37,1.34,-1.19,-0.57,-2.01,0.0,j
4095.0,4095.0,2931.0,3434.0,2791.0,2487.0,2806.0,4095.0,2.94,7.94,2.91,-0.82,0.08,-1.17,0.0,j
4095.0,4095.0,2938.0,3440.0,2801.0,2496.0,2813.0,4095.0,1.59,7.93,3.85,-0.41,0.27,-0.63,0.0,j
4095.0,4095.0,2938.0,3467.0,2816.0,2508.0,2814.0,4095.0,1.61,8.83,4.37,0.04,0.13,-0.22,0.0,j
4095.0,4095.0,2943.0,3452.0,2814.0,2498.0,2807.0,4095.0,1.67,9.82,3.9,0.22,-0.03,-0.11,0.0,j
4095.0,4095.0,2935.0,3466.0,2817.0,2508.0,2817.0,4095.0,2.36,10.07,3.09,0.1,0.03,-0.12,0.0,j
4095.0,4095.0,2928.0,3343.0,2865.0,2512.0,2887.0,4095.0,-3.97,8.82,3.11,0.43,-0.19,-0.09,0.0,j
4095.0,4095.0,2935.0,3360.0,2869.0,2528.0,2901.0,4095.0,-3.73,9.27,2.22,-1.1,0.17,0.47,0.0,j
4095.0,4095.0,2929.0,3361.0,2861.0,2528.0,2862.0,4095.0,-2.14,7.46,5.05,-2.95,-1.18,1.38,0.0,j
4095.0,4095.0,2940.0,3373.0,2832.0,2512.0,2863.0,4095.0,-0.88,5.68,8.76,-2.83,-0.82,-0.05,0.0,j
4095.0,4095.0,2926.0,3397.0,2837.0,2522.0,2871.0,4095.0,0.49,3.65,12.54,-3.29,-2.6,-1.39,0.0,j
4095.0,4095.0,2939.0,3359.0,2810.0,2528.0,2850.0,4095.0,4.21,0.88,15.83,-2.18,-2.8,-1.75,0.0,j
4095.0,4095.0,2944.0,3348.0,2784.0,2556.0,2841.0,4095.0,8.12,1.22,14.58,-0.7,-2.56,-1.3,0.0,j
4095.0,4095.0,2918.0,3376.0,2777.0,2548.0,2848.0,4095.0,8.88,2.14,12.41,-0.66,-2.25,-1.19,0.0,j
4095.0,4095.0,2928.0,3385.0,2795.0,2550.0,2831.0,4095.0,8.55,1.92,11.42,-0.56,-2.62,-1.52,0.0,j
4095.0,4095.0,2930.0,3395.0,2793.0,2558.0,2837.0,4095.0,8.92,2.88,8.11,-0.4,-4.22,-1.96,0.0,j
4095.0,4095.0,2928.0,3355.0,2777.0,2559.0,2823.0,4095.0,9.51,4.32,5.03,-0.62,-3.75,-1.59,0.0,j
4095.0,4095.0,2929.0,3358.0,2773.0,2559.0,2842.0,4095.0,7.58,5.83,2.57,-0.12,-2.6,-1.44,0.0,j
4095.0,4095.0,2927.0,3347.0,2753.0,2541.0,2809.0,4095.0,7.91,7.02,-0.18,-0.63,-1.33,-0.99,0.0,j
4095.0,4095.0,2930.0,3376.0,2771.0,2544.0,2831.0,4095.0,6.03,6.73,0.45,-0.53,-0.59,-0.8,0.0,j
4095.0,4095.0,2919.0,3389.0,2773.0,2537.0,2828.0,4095.0,5.66,7.23,0.45,-0.49,-0.2,-0.75,0.0,j
4095.0,4095.0,2933.0,3391.0,2775.0,2535.0,2825.0,4095.0,4.55,7.69,0.62,-0.5,-0.08,-0.68,0.0,j
4095.0,4095.0,2934.0,3397.0,2777.0,2535.0,2819.0,4095.0,4.2,8.3,1.07,-0.3,0.0,-0.5,0.0,j
4095.0,4095.0,2928.0,3395.0,2779.0,2542.0,2834.0,4095.0,4.17,8.65,1.42,-0.32,0.04,-0.46,0.0,j
4095.0,4095.0,2928.0,3398.0,2782.0,2537.0,2828.0,4095.0,4.19,8.89,2.15,-0.31,0.05,-0.45,0.0,j
4095.0,4095.0,2928.0,3407.0,2784.0,2539.0,2833.0,4095.0,3.64,8.86,2.12,-0.22,-0.17,-0.61,0.0,j
4095.0,4095.0,2930.0,3467.0,2869.0,2517.0,2864.0,4095.0,-2.75,7.51,3.77,-2.29,-0.84,0.48,0.0,j
4095.0,4095.0,2926.0,3486.0,2847.0,2519.0,2847.0,4095.0,-2.38,4.76,9.17,-3.24,-0.47,-0.08,0.0,j
4095.0,4095.0,2926.0,3445.0,2848.0,2533.0,2866.0,4095.0,-1.12,3.53,13.17,-2.89,-1.79,-0.69,0.0,j
4095.0,4095.0,2928.0,3380.0,2811.0,2531.0,2834.0,4095.0,1.04,0.93,15.42,-2.76,-1.37,-0.55,0.0,j
4095.0,4095.0,2941.0,3407.0,2813.0,2554.0,2843.0,4095.0,0.98,-0.63,16.42,-1.31,-1.19,-1.05,0.0,j
4095.0,4095.0,2939.0,3392.0,2814.0,2555.0,2849.0,4095.0,3.67,-1.03,15.16,-0.68,-2.73,-2.39,0.0,j
4095.0,4095.0,2933.0,3440.0,2821.0,2559.0,2832.0,4095.0,5.35,-0.08,13.25,0.07,-3.34,-2.92,0.0,j
4095.0,4095.0,2941.0,3451.0,2815.0,2559.0,2839.0,4095.0,8.99,1.1,11.33,-0.41,-3.12,-2.08,0.0,j
4095.0,4095.0,2934.0,3420.0,2797.0,2559.0,2833.0,4095.0,10.44,2.63,8.59,-0.52,-3.4,-2.27,0.0,j
4095.0,4095.0,2929.0,3439.0,2785.0,2559.0,2799.0,4095.0,9.39,4.62,5.46,-0.6,-3.04,-2.26,0.0,j
4095.0,4095.0,2928.0,3427.0,2765.0,2544.0,2789.0,4095.0,8.17,6.48,3.16,-0.54,-2.98,-2.36,0.0,j
4095.0,4095.0,2942.0,3407.0,2768.0,2537.0,2783.0,4095.0,7.78,7.67,1.25,-0.79,-1.71,-1.67,0.0,j
4095.0,4095.0,2919.0,3392.0,2773.0,2526.0,2786.0,4095.0,5.64,8.19,1.03,-0.69,-0.65,-1.48,0.0,j
4095.0,4095.0,2931.0,3423.0,2799.0,2533.0,2800.0,4095.0,2.86,7.64,1.94,-0.79,0.09,-1.02,0.0,j
4095.0,4095.0,2934.0,3440.0,2807.0,2527.0,2805.0,4095.0,2.56,7.85,3.48,-0.35,0.21,-0.07,0.0,j
4095.0,4095.0,2928.0,3463.0,2816.0,2525.0,2816.0,4095.0,2.62,9.59,3.48,0.11,0.06,-0.26,0.0,j
4095.0,4095.0,2929.0,3470.0,2817.0,2531.0,2816.0,4095.0,2.78,9.62,2.9,0.18,0.23,-0.15,0.0,j
4095.0,4095.0,2928.0,3473.0,2827.0,2537.0,2823.0,4095.0,3.2,9.47,2.62,0.16,0.19,-0.14,0.0,j
4095.0,4095.0,2931.0,3472.0,2820.0,2536.0,2823.0,4095.0,2.89,9.23,3.06,0.05,0.33,-0.08,0.0,j
4095.0,4095.0,2933.0,3469.0,2821.0,2533.0,2828.0,4095.0,2.94,9.56,3.29,0.13,0.13,-0.22,0.0,j
4095.0,4095.0,2939.0,3503.0,2911.0,2526.0,2873.0,4095.0,-3.36,6.77,4.27,-3.15,-1.5,0.77,0.0,j
4095.0,4095.0,2928.0,3462.0,2889.0,2483.0,2849.0,4095.0,-2.42,4.29,10.2,-3.72,-0.33,-0.03,0.0,j
4095.0,4095.0,2943.0,3477.0,2891.0,2478.0,2854.0,4095.0,-2.3,1.97,13.6,-2.64,-0.5,-0.79,0.0,j
4095.0,4095.0,2927.0,3527.0,2877.0,2490.0,2858.0,4095.0,-0.74,-0.48,16.14,-1.79,-1.83,-1.81,0.0,j
4095.0,4095.0,2939.0,3521.0,2878.0,2497.0,2855.0,4095.0,2.89,-1.42,15.68,-0.49,-2.54,-2.95,0.0,j
4095.0,4095.0,2935.0,3503.0,2864.0,2496.0,2838.0,4095.0,2.65,-0.1,15.01,-0.43,-2.68,-2.79,0.0,j
4095.0,4095.0,2941.0,3487.0,2853.0,2513.0,2836.0,4095.0,5.32,0.37,14.84,-0.2,-2.73,-2.36,0.0,j
4095.0,4095.0,2943.0,3517.0,2843.0,2512.0,2831.0,4091.0,7.96,2.15,11.01,0.22,-3.13,-2.18,0.0,j
4095.0,4095.0,2939.0,3530.0,2837.0,2514.0,2835.0,4095.0,8.44,3.97,8.57,-0.26,-3.55,-2.47,0.0,j
4095.0,4095.0,2946.0,3535.0,2838.0,2515.0,2818.0,4095.0,8.43,5.51,6.25,-0.18,-3.78,-2.76,0.0,j
4095.0,4095.0,2934.0,3476.0,2823.0,2521.0,2806.0,4095.0,7.98,7.42,3.75,-0.27,-2.49,-2.16,0.0,j
4095.0,4095.0,2941.0,3418.0,2831.0,2519.0,2823.0,4095.0,6.88,8.29,2.04,-0.44,-1.5,-2.18,0.0,j
4095.0,4095.0,2933.0,3440.0,2833.0,2512.0,2822.0,4095.0,3.63,7.54,2.1,-0.61,0.25,-2.32,0.0,j
4095.0,4095.0,2937.0,3467.0,2861.0,2519.0,2832.0,4095.0,0.51,7.86,3.15,-0.47,0.14,-1.26,0.0,j
4095.0,4095.0,2931.0,3478.0,2853.0,2516.0,2833.0,4095.0,0.7,8.65,4.07,-0.16,0.22,-0.37,0.0,j
4095.0,4095.0,2934.0,3503.0,2869.0,2528.0,2855.0,4095.0,1.09,9.6,3.87,0.04,0.08,-0.08,0.0,j
4095.0,4095.0,2931.0,3490.0,2864.0,2521.0,2848.0,4095.0,1.36,9.94,3.58,0.1,0.06,-0.1,0.0,j
4095.0,4095.0,2924.0,3499.0,2869.0,2533.0,2863.0,4095.0,1.25,9.82,3.41,-0.03,0.05,-0.09,0.0,j
4095.0,4095.0,2927.0,3497.0,2858.0,2519.0,2848.0,4095.0,1.24,9.75,3.59,-0.01,0.08,-0.14,0.0,j
4095.0,4095.0,2931.0,3502.0,2870.0,2531.0,2862.0,4095.0,1.18,9.83,3.51,-0.0,0.06,-0.07,0.0,j
4095.0,4095.0,2942.0,3571.0,2893.0,2550.0,2911.0,4095.0,-4.14,7.8,8.48,-0.22,-0.09,0.05,0.0,j
4095.0,4095.0,2937.0,3573.0,2894.0,2555.0,2925.0,4095.0,-4.0,7.95,8.57,-0.29,-0.41,-0.11,0.0,j
4095.0,4095.0,2922.0,3578.0,2896.0,2550.0,2918.0,4095.0,-3.81,7.6,9.85,-0.31,0.3,-0.14,0.0,j
4095.0,4095.0,2938.0,3573.0,2886.0,2554.0,2915.0,4095.0,-3.81,7.31,8.47,-0.18,-0.58,-0.23,0.0,j
4095.0,4095.0,2930.0,3573.0,2881.0,2549.0,2903.0,4095.0,-1.83,6.62,7.69,-0.91,-0.42,-0.16,0.0,j
4095.0,4095.0,2938.0,3598.0,2882.0,2559.0,2914.0,4095.0,-3.07,4.97,10.73,-1.95,-0.66,-0.64,0.0,j
4095.0,4095.0,2919.0,3583.0,2881.0,2553.0,2903.0,4095.0,-3.86,3.59,13.33,-2.09,-1.53,-0.74,0.0,j
4095.0,4095.0,2948.0,3576.0,2892.0,2554.0,2908.0,4095.0,-1.63,2.22,14.67,-1.43,-1.7,-0.39,0.0,j
4095.0,4095.0,2924.0,3583.0,2891.0,2559.0,2894.0,4095.0,1.98,1.03,15.85,-0.86,-1.94,-1.01,0.0,j
4095.0,4095.0,2935.0,3599.0,2894.0,2559.0,2896.0,4095.0,3.02,0.89,15.4,-0.3,-2.39,-1.54,0.0,j
4095.0,4095.0,2926.0,3536.0,2881.0,2554.0,2864.0,4095.0,4.81,1.82,14.3,0.19,-3.46,-2.19,0.0,j
4095.0,4095.0,2935.0,3515.0,2883.0,2559.0,2832.0,4095.0,6.57,3.09,12.56,0.48,-3.85,-2.42,0.0,j
4095.0,4095.0,2938.0,3535.0,2864.0,2581.0,2861.0,4095.0,8.77,5.4,7.54,-0.09,-4.64,-2.16,0.0,j
4095.0,4095.0,2933.0,3540.0,2850.0,2581.0,2863.0,4095.0,9.3,5.71,4.95,-0.76,-4.42,-2.21,0.0,j
4095.0,4095.0,2928.0,3520.0,2866.0,2559.0,2865.0,4095.0,7.13,6.93,1.3,-0.36,-3.4,-2.05,0.0,j
4095.0,4095.0,2925.0,3520.0,2863.0,2537.0,2882.0,4095.0,4.71,7.74,0.45,-0.68,-0.89,-1.58,0.0,j
4095.0,4095.0,2933.0,3549.0,2885.0,2558.0,2898.0,4095.0,2.73,7.69,1.8,-0.81,-0.03,-0.89,0.0,j
4095.0,4095.0,2925.0,3561.0,2893.0,2555.0,2901.0,4095.0,1.76,8.29,3.12,-0.48,0.34,-0.19,0.0,j
4095.0,4095.0,2935.0,3563.0,2896.0,2559.0,2918.0,4095.0,3.02,9.47,3.0,0.07,0.07,-0.14,0.0,j
4095.0,4095.0,2930.0,3567.0,2896.0,2559.0,2917.0,4095.0,3.28,9.77,2.54,0.05,0.2,-0.24,0.0,j
4095.0,4095.0,2929.0,3577.0,2876.0,2534.0,2912.0,4095.0,-2.5,7.98,4.21,-1.52,0.26,-0.02,0.0,j
4095.0,4095.0,2940.0,3583.0,2875.0,2540.0,2919.0,4095.0,-1.22,4.93,6.3,-3.31,-1.16,-0.79,0.0,j
4095.0,4095.0,2927.0,3583.0,2873.0,2551.0,2914.0,4095.0,-0.48,1.53,13.85,-3.28,-2.89,-2.13,0.0,j
4095.0,4087.0,2928.0,3583.0,2883.0,2559.0,2915.0,4095.0,0.75,0.82,17.94,-1.47,-3.77,-1.88,0.0,j
4095.0,4095.0,2930.0,3541.0,2870.0,2559.0,2877.0,4095.0,4.87,2.4,13.9,-0.08,-5.62,-2.48,0.0,j
4095.0,4095.0,2928.0,3493.0,2832.0,2559.0,2852.0,4095.0,7.58,4.13,8.88,-0.08,-6.98,-3.29,0.0,j
4095.0,4095.0,2921.0,3494.0,2799.0,2547.0,2835.0,4095.0,11.13,5.28,4.28,-0.94,-4.19,-1.57,0.0,j
4095.0,4095.0,2935.0,3483.0,2798.0,2545.0,2839.0,4095.0,9.74,6.26,3.27,-1.02,-2.41,-1.58,0.0,j
4095.0,4095.0,2934.0,3479.0,2796.0,2527.0,2843.0,4095.0,6.69,7.26,1.64,-0.85,-2.06,-1.77,0.0,j
4095.0,4095.0,2933.0,3495.0,2800.0,2517.0,2832.0,4095.0,5.65,7.89,1.4,-1.18,-0.39,-1.31,0.0,j
4095.0,4095.0,2929.0,3499.0,2799.0,2512.0,2838.0,4095.0,4.19,8.08,3.18,-1.02,0.16,-1.25,0.0,j
4095.0,4095.0,2932.0,3502.0,2800.0,2507.0,2860.0,4095.0,2.11,8.42,3.39,-0.64,0.11,-1.05,0.0,j
4095.0,4095.0,2939.0,3521.0,2818.0,2512.0,2869.0,4095.0,1.39,8.57,3.68,-0.33,0.13,-0.59,0.0,j
4095.0,4095.0,2929.0,3531.0,2819.0,2512.0,2864.0,4095.0,0.78,8.81,4.24,0.05,0.03,-0.17,0.0,j
4095.0,4095.0,2935.0,3542.0,2829.0,2523.0,2877.0,4095.0,1.71,9.89,3.72,0.24,0.02,-0.1,0.0,j
4095.0,4095.0,2942.0,3534.0,2829.0,2517.0,2871.0,4095.0,2.04,10.1,3.69,0.06,0.03,-0.13,0.0,j
4095.0,4095.0,2930.0,3541.0,2830.0,2523.0,2882.0,4095.0,1.79,9.67,3.77,0.02,0.01,-0.14,0.0,j
4095.0,4095.0,2941.0,3539.0,2831.0,2514.0,2879.0,4095.0,2.02,9.71,3.66,0.1,0.05,-0.15,0.0,j
4095.0,4095.0,2941.0,3541.0,2837.0,2527.0,2881.0,4095.0,1.91,9.68,3.48,0.08,0.2,-0.08,0.0,j
4095.0,4095.0,2928.0,3540.0,2827.0,2518.0,2879.0,4095.0,3.37,9.91,2.88,-0.07,0.55,-0.04,0.0,j
4095.0,3626.0,2943.0,3445.0,2928.0,2527.0,2845.0,4095.0,-3.16,5.42,0.86,-3.13,-0.45,0.68,0.0,j
4095.0,3535.0,2935.0,3503.0,2903.0,2518.0,2865.0,4095.0,0.55,1.9,12.5,-4.63,-4.24,-0.1,0.0,j
4095.0,2881.0,2943.0,3450.0,2819.0,2509.0,2778.0,4095.0,10.6,3.19,14.8,-1.71,-7.33,-1.73,0.0,j
4095.0,2852.0,2925.0,3455.0,2793.0,2530.0,2768.0,4095.0,10.96,5.89,8.68,-0.56,-8.73,-1.39,0.0,j
4095.0,2670.0,2919.0,3453.0,2794.0,2521.0,2774.0,4095.0,11.66,6.82,4.47,-1.01,-5.21,-1.44,0.0,j
4095.0,2598.0,2933.0,3379.0,2781.0,2489.0,2786.0,4095.0,10.01,7.05,0.62,-1.07,-4.63,-1.48,0.0,j
4095.0,2487.0,2929.0,3403.0,2783.0,2486.0,2795.0,4095.0,7.57,7.95,-0.52,-1.15,-2.39,-1.49,0.0,j
4095.0,2340.0,2935.0,3457.0,2807.0,2496.0,2818.0,4095.0,4.59,7.91,-0.06,-1.41,-0.54,-1.15,0.0,j
4095.0,2287.0,2929.0,3493.0,2829.0,2498.0,2827.0,4095.0,3.09,8.21,2.52,-1.04,-0.07,-1.18,0.0,j
4095.0,2133.0,2930.0,3490.0,2830.0,2505.0,2831.0,4095.0,1.94,8.02,2.06,-0.57,-0.08,-1.03,0.0,j
4095.0,2116.0,2928.0,3509.0,2832.0,2511.0,2839.0,4095.0,0.57,8.05,2.86,-0.39,0.22,-0.47,0.0,j
4095.0,2086.0,2947.0,3527.0,2846.0,2517.0,2847.0,4095.0,0.83,9.19,3.54,0.02,0.18,-0.06,0.0,j
4095.0,2063.0,2928.0,3523.0,2847.0,2513.0,2839.0,4095.0,0.82,9.94,3.11,0.18,0.08,-0.19,0.0,j
4095.0,2062.0,2929.0,3526.0,2847.0,2513.0,2847.0,4095.0,1.01,9.92,2.89,0.02,0.05,-0.13,0.0,j
4095.0,2032.0,2939.0,3534.0,2850.0,2516.0,2845.0,4095.0,1.2,9.67,3.16,-0.02,0.06,-0.14,0.0,j
4095.0,2046.0,2931.0,3542.0,2858.0,2519.0,2853.0,4095.0,0.85,9.66,3.07,0.06,0.01,-0.18,0.0,j
4095.0,2055.0,2938.0,3536.0,2850.0,2522.0,2854.0,4095.0,1.0,9.81,3.0,0.09,-0.02,-0.16,0.0,j
4095.0,2038.0,2930.0,3520.0,2845.0,2512.0,2853.0,4095.0,0.97,9.79,2.86,0.01,0.04,-0.12,0.0,j
4095.0,2035.0,2949.0,3538.0,2853.0,2514.0,2847.0,4095.0,1.21,9.82,2.98,0.02,0.0,-0.16,0.0,j
4095.0,2029.0,2935.0,3532.0,2849.0,2515.0,2850.0,4095.0,1.34,9.82,2.83,0.04,-0.01,-0.15,0.0,j
4095.0,1502.0,2931.0,3466.0,2869.0,2509.0,2895.0,4095.0,-4.21,8.22,5.12,-1.38,-0.04,0.57,0.0,j
4095.0,1876.0,2935.0,3515.0,2861.0,2504.0,2883.0,4095.0,-3.46,7.41,6.76,-2.43,0.18,0.25,0.0,j
4095.0,2089.0,2927.0,3509.0,2845.0,2499.0,2871.0,4095.0,-3.83,5.61,10.06,-2.36,0.26,-0.13,0.0,j
4095.0,2166.0,2923.0,3533.0,2858.0,2518.0,2890.0,4095.0,-3.63,5.0,11.45,-1.51,-0.4,-0.48,0.0,j
4095.0,2251.0,2930.0,3538.0,2857.0,2525.0,2887.0,4095.0,-2.41,3.13,12.63,-1.51,-0.71,-0.79,0.0,j
4095.0,2325.0,2931.0,3510.0,2864.0,2528.0,2886.0,4095.0,-2.24,1.59,14.25,-1.74,-1.63,-1.6,0.0,j
4095.0,2442.0,2933.0,3471.0,2851.0,2523.0,2874.0,4095.0,-0.85,0.04,16.07,-1.06,-2.24,-1.92,0.0,j
4095.0,2679.0,2939.0,3447.0,2833.0,2531.0,2850.0,4095.0,1.86,-0.37,15.05,-0.6,-2.25,-1.62,0.0,j
4095.0,2741.0,2942.0,3440.0,2834.0,2542.0,2836.0,4095.0,3.56,-0.6,14.41,-0.29,-2.35,-1.94,0.0,j
4095.0,2762.0,2940.0,3440.0,2807.0,2530.0,2804.0,4095.0,5.98,0.34,13.19,0.04,-2.75,-2.47,0.0,j
4095.0,2788.0,2929.0,3447.0,2817.0,2544.0,2832.0,4095.0,8.66,1.69,11.33,-0.18,-3.61,-2.76,0.0,j
4095.0,2717.0,2928.0,3467.0,2791.0,2542.0,2815.0,4095.0,10.82,5.28,7.58,-0.33,-3.56,-2.85,0.0,j
4095.0,2670.0,2941.0,3458.0,2786.0,2541.0,2818.0,4095.0,9.71,5.79,5.79,-0.5,-2.64,-2.6,0.0,j
4095.0,2628.0,2939.0,3472.0,2798.0,2522.0,2818.0,4095.0,7.75,7.46,4.3,-0.54,-1.49,-2.36,0.0,j
4095.0,2549.0,2937.0,3425.0,2811.0,2518.0,2841.0,4095.0,5.09,7.99,3.99,-0.35,-1.1,-2.08,0.0,j
4095.0,2390.0,2927.0,3422.0,2816.0,2493.0,2843.0,4095.0,2.86,8.36,3.7,-0.24,-0.83,-1.77,0.0,j
4095.0,2325.0,2928.0,3447.0,2830.0,2500.0,2849.0,4095.0,1.41,8.22,3.65,-0.11,0.06,-1.0,0.0,j
4095.0,2246.0,2919.0,3441.0,2832.0,2507.0,2847.0,4095.0,0.9,8.86,3.83,-0.04,0.15,-0.38,0.0,j
4095.0,2242.0,2943.0,3464.0,2834.0,2505.0,2855.0,4095.0,1.07,9.7,4.11,0.03,-0.05,-0.12,0.0,j
4095.0,2236.0,2923.0,3456.0,2835.0,2512.0,2858.0,4095.0,1.49,9.99,4.21,0.04,0.04,-0.14,0.0,j
4095.0,1535.0,2928.0,3506.0,2927.0,2543.0,2959.0,4095.0,-3.42,7.25,3.9,-1.91,-0.64,-0.22,0.0,j
4095.0,1841.0,2934.0,3531.0,2918.0,2527.0,2950.0,4095.0,-2.24,5.29,9.49,-2.81,-2.19,-0.49,0.0,j
4095.0,2029.0,2938.0,3569.0,2917.0,2532.0,2945.0,4095.0,-0.8,3.55,14.22,-2.41,-1.78,-0.47,0.0,j
4095.0,2122.0,2934.0,3526.0,2907.0,2527.0,2930.0,4095.0,0.9,2.65,16.03,-1.79,-1.59,-0.51,0.0,j
4095.0,2255.0,2940.0,3533.0,2902.0,2517.0,2898.0,4095.0,2.73,2.19,15.44,-1.11,-1.97,-1.12,0.0,j
4095.0,2405.0,2942.0,3503.0,2881.0,2521.0,2883.0,4095.0,4.16,1.18,15.08,-0.7,-2.75,-1.62,0.0,j
4095.0,2480.0,2935.0,3508.0,2858.0,2517.0,2847.0,4095.0,4.96,1.3,13.5,0.05,-3.49,-1.97,0.0,j
4095.0,2512.0,2930.0,3496.0,2843.0,2519.0,2845.0,4095.0,8.53,2.55,10.48,0.29,-3.56,-1.68,0.0,j
4095.0,2591.0,2933.0,3514.0,2845.0,2523.0,2854.0,4095.0,10.04,4.08,7.01,-0.15,-3.42,-1.38,0.0,j
4095.0,2627.0,2932.0,3503.0,2833.0,2497.0,2847.0,4095.0,9.39,5.15,4.18,-0.45,-3.3,-1.35,0.0,j
4095.0,2559.0,2927.0,3471.0,2832.0,2494.0,2840.0,4095.0,8.76,6.11,2.02,-0.36,-2.74,-1.33,0.0,j
4095.0,2535.0,2928.0,3467.0,2822.0,2485.0,2838.0,4095.0,6.91,6.8,0.46,-0.48,-1.89,-1.23,0.0,j
4095.0,2480.0,2935.0,3475.0,2822.0,2473.0,2832.0,4095.0,6.42,7.46,0.17,-0.63,-0.88,-0.98,0.0,j
4095.0,2363.0,2934.0,3482.0,2832.0,2480.0,2841.0,4095.0,5.07,7.55,0.32,-0.73,-0.15,-0.94,0.0,j
4095.0,2306.0,2935.0,3481.0,2833.0,2481.0,2846.0,4095.0,4.2,8.15,1.28,-0.69,0.03,-0.72,0.0,j
4095.0,2257.0,2945.0,3501.0,2845.0,2486.0,2855.0,4095.0,3.91,8.99,1.82,-0.64,0.18,-0.79,0.0,j
4095.0,2239.0,2926.0,3494.0,2838.0,2481.0,2851.0,4095.0,4.05,9.32,2.59,-0.61,0.48,-0.93,0.0,j
4095.0,2230.0,2939.0,3503.0,2850.0,2497.0,2870.0,4095.0,1.48,8.89,2.8,-0.6,0.48,-1.05,0.0,j
4095.0,2192.0,2934.0,3507.0,2851.0,2496.0,2871.0,4095.0,0.03,8.6,4.12,-0.38,0.57,-0.61,0.0,j
4095.0,2180.0,2945.0,3531.0,2862.0,2499.0,2874.0,4095.0,0.67,9.48,4.61,0.04,0.1,-0.12,0.0,j
