hall_1,hall_2,hall_3,flex_t,flex_i,flex_m,flex_r,flex_p,accel_x,accel_y,accel_z,gyro_x,gyro_y,gyro_z,hand,sign
3916.0,945.0,2923.0,3283.0,2133.0,2336.0,2525.0,4095.0,-3.68,8.81,5.87,-0.03,0.08,-0.19,0.0,j
3921.0,947.0,2915.0,3280.0,2133.0,2323.0,2522.0,4095.0,-3.49,9.05,5.93,-0.05,0.05,-0.19,0.0,j
3920.0,944.0,2924.0,3287.0,2128.0,2330.0,2534.0,4095.0,-4.7,8.82,5.32,-0.31,0.15,-0.19,0.0,j
3954.0,955.0,2921.0,3259.0,2082.0,2295.0,2498.0,4095.0,-6.78,8.17,3.06,-2.76,0.56,3.12,0.0,j
4020.0,964.0,2913.0,3149.0,1994.0,2240.0,2466.0,3784.0,-1.63,-0.26,7.82,-6.2,0.37,4.0,0.0,j
4027.0,997.0,2928.0,3232.0,2039.0,2241.0,2443.0,4095.0,11.87,-5.35,4.79,-6.84,-7.9,-0.06,0.0,j
4041.0,998.0,2927.0,3191.0,2039.0,2256.0,2450.0,4095.0,28.76,-0.57,4.03,-2.76,-8.73,-4.12,0.0,j
4079.0,991.0,2915.0,3179.0,2033.0,2272.0,2399.0,4095.0,4.48,4.17,3.58,-1.45,-0.29,-3.88,0.0,j
4054.0,990.0,2927.0,3184.0,2064.0,2288.0,2422.0,4095.0,2.74,5.76,2.47,0.03,-0.23,-1.9,0.0,j
4035.0,981.0,2928.0,3202.0,2063.0,2290.0,2438.0,4095.0,4.99,6.42,2.08,0.2,0.21,0.23,0.0,j
4033.0,967.0,2917.0,3206.0,2064.0,2287.0,2445.0,4095.0,6.36,7.49,-0.44,0.24,-0.0,0.09,0.0,j
4039.0,977.0,2932.0,3216.0,2079.0,2291.0,2444.0,4095.0,5.49,7.33,0.17,0.08,0.1,-0.15,0.0,j
4016.0,974.0,2929.0,3221.0,2097.0,2278.0,2428.0,4095.0,5.95,7.01,0.28,0.01,0.03,-0.18,0.0,j
4022.0,977.0,2913.0,3235.0,2112.0,2290.0,2441.0,4095.0,5.84,7.23,0.42,-0.0,-0.02,-0.17,0.0,j
4037.0,975.0,2926.0,3233.0,2123.0,2271.0,2439.0,4095.0,5.93,7.07,0.57,-0.02,-0.03,-0.13,0.0,j
4023.0,979.0,2922.0,3246.0,2119.0,2287.0,2446.0,4095.0,6.21,7.12,0.41,-0.03,-0.1,-0.17,0.0,j
4032.0,975.0,2915.0,3248.0,2128.0,2288.0,2437.0,4095.0,5.66,7.02,0.26,-0.0,-0.1,-0.14,0.0,j
4037.0,970.0,2917.0,3240.0,2127.0,2262.0,2446.0,4095.0,6.06,7.02,0.4,0.09,-0.13,-0.19,0.0,j
4009.0,963.0,2930.0,3250.0,2128.0,2275.0,2447.0,4095.0,6.02,7.2,0.16,0.0,-0.09,-0.19,0.0,j
4035.0,976.0,2928.0,3262.0,2128.0,2277.0,2438.0,4095.0,5.87,7.06,0.52,-0.04,-0.01,-0.15,0.0,j
3986.0,962.0,2927.0,3235.0,2164.0,2305.0,2481.0,4095.0,-5.0,8.13,6.16,-0.09,0.26,-0.06,0.0,j
3998.0,971.0,2928.0,3239.0,2160.0,2289.0,2493.0,4095.0,-6.32,6.46,2.02,-0.92,-0.1,0.32,0.0,j
4022.0,969.0,2930.0,3200.0,2106.0,2286.0,2434.0,4095.0,-5.81,-0.84,2.4,-5.81,-2.46,5.52,0.0,j
4014.0,995.0,2929.0,3146.0,2056.0,2256.0,2435.0,4095.0,22.14,-7.91,1.42,-7.72,-8.73,1.93,0.0,j
3997.0,993.0,2923.0,3145.0,1971.0,2297.0,2451.0,4095.0,20.07,1.87,4.72,-0.9,-1.5,-0.59,0.0,j
4004.0,971.0,2927.0,3137.0,2092.0,2294.0,2463.0,4095.0,7.64,2.43,3.07,-0.04,-0.6,-2.05,0.0,j
4003.0,967.0,2928.0,3130.0,2095.0,2306.0,2468.0,4095.0,7.19,3.34,2.47,0.09,-0.12,-0.91,0.0,j
3989.0,965.0,2928.0,3152.0,2094.0,2304.0,2468.0,4095.0,8.29,3.45,1.76,0.45,-0.21,-0.42,0.0,j
3984.0,955.0,2927.0,3153.0,2087.0,2302.0,2461.0,4095.0,9.12,3.87,1.09,0.14,-0.08,-0.19,0.0,j
3972.0,967.0,2931.0,3157.0,2067.0,2311.0,2469.0,4095.0,9.11,3.88,0.55,0.06,0.1,-0.16,0.0,j
3978.0,974.0,2928.0,3167.0,2054.0,2313.0,2471.0,4095.0,8.5,3.79,1.47,0.02,0.01,-0.19,0.0,j
3977.0,971.0,2928.0,3186.0,2063.0,2297.0,2464.0,4095.0,8.84,4.02,1.06,0.02,-0.04,-0.15,0.0,j
3972.0,962.0,2934.0,3189.0,2031.0,2310.0,2465.0,4095.0,8.61,4.02,1.1,-0.02,-0.1,-0.13,0.0,j
3984.0,963.0,2931.0,3173.0,2046.0,2300.0,2467.0,4095.0,8.65,3.97,0.54,-0.04,-0.09,-0.11,0.0,j
3977.0,969.0,2931.0,3190.0,2030.0,2288.0,2465.0,4095.0,8.49,3.86,1.1,0.03,-0.12,-0.15,0.0,j
3958.0,972.0,2926.0,3158.0,2096.0,2278.0,2475.0,4095.0,8.66,3.91,0.83,-0.01,-0.04,-0.12,0.0,j
3955.0,972.0,2926.0,3125.0,2106.0,2281.0,2477.0,4095.0,8.67,3.87,0.88,0.0,-0.03,-0.15,0.0,j
3984.0,969.0,2926.0,3120.0,2106.0,2286.0,2469.0,4095.0,8.68,3.86,0.92,0.04,0.05,-0.17,0.0,j
3965.0,959.0,2928.0,3106.0,2112.0,2279.0,2477.0,4095.0,8.37,3.81,0.78,-0.02,0.02,-0.1,0.0,j
3962.0,969.0,2928.0,3169.0,2112.0,2284.0,2482.0,4095.0,8.79,3.91,0.72,-0.07,-0.08,-0.14,0.0,j
3984.0,974.0,2917.0,3184.0,2165.0,2305.0,2496.0,4095.0,-4.96,8.34,6.44,0.08,0.13,-0.24,0.0,j
4022.0,962.0,2928.0,3194.0,2175.0,2317.0,2495.0,4095.0,-5.45,8.11,5.07,0.02,0.04,-0.08,0.0,j
4030.0,969.0,2918.0,3156.0,2078.0,2287.0,2508.0,4095.0,-7.6,5.59,0.06,-3.17,-0.38,4.68,0.0,j
4016.0,994.0,2915.0,3071.0,2055.0,2245.0,2458.0,4095.0,3.19,-3.7,4.3,-7.08,-4.88,3.19,0.0,j
3984.0,985.0,2932.0,3262.0,2115.0,2256.0,2512.0,4095.0,21.4,-7.54,7.94,-5.41,-8.73,0.24,0.0,j
3984.0,959.0,2928.0,3253.0,2099.0,2287.0,2481.0,4095.0,22.66,2.33,1.75,-1.22,-6.11,-4.03,0.0,j
3998.0,964.0,2921.0,3097.0,2126.0,2283.0,2454.0,4095.0,5.24,3.61,1.08,-1.23,-0.39,-2.5,0.0,j
4016.0,946.0,2928.0,3147.0,2131.0,2289.0,2486.0,4095.0,4.77,4.81,1.84,-0.33,-0.13,-0.66,0.0,j
4019.0,962.0,2918.0,3184.0,2146.0,2294.0,2499.0,4095.0,6.51,6.0,-0.55,0.08,-0.15,0.0,0.0,j
3996.0,945.0,2938.0,3174.0,2150.0,2295.0,2503.0,4095.0,6.4,6.29,-0.78,0.05,-0.02,-0.0,0.0,j
4010.0,959.0,2930.0,3184.0,2145.0,2295.0,2491.0,4095.0,6.46,6.02,-0.38,0.07,0.04,-0.1,0.0,j
4013.0,950.0,2930.0,3203.0,2154.0,2303.0,2504.0,4095.0,6.51,6.04,-0.5,-0.01,0.04,-0.09,0.0,j
3987.0,959.0,2926.0,3187.0,2150.0,2293.0,2501.0,4095.0,6.41,6.0,-0.35,-0.01,0.07,-0.12,0.0,j
3996.0,944.0,2918.0,3186.0,2151.0,2306.0,2499.0,4095.0,6.5,5.99,-0.46,-0.0,0.04,-0.13,0.0,j
4007.0,958.0,2919.0,3198.0,2160.0,2302.0,2506.0,4095.0,6.66,5.89,-0.26,0.06,-0.01,-0.18,0.0,j
4019.0,959.0,2919.0,3211.0,2162.0,2306.0,2505.0,4095.0,6.58,6.0,-0.48,0.03,-0.02,-0.16,0.0,j
4014.0,949.0,2927.0,3199.0,2161.0,2313.0,2508.0,4095.0,6.74,5.98,-0.39,0.04,0.04,-0.15,0.0,j
3993.0,961.0,2931.0,3211.0,2160.0,2318.0,2505.0,4095.0,6.39,6.14,-0.28,0.01,0.01,-0.19,0.0,j
3998.0,963.0,2934.0,3207.0,2157.0,2307.0,2509.0,4095.0,6.75,6.07,-0.38,-0.02,-0.07,-0.17,0.0,j
3997.0,966.0,2925.0,3199.0,2160.0,2308.0,2507.0,4095.0,6.6,6.04,-0.34,-0.0,-0.05,-0.13,0.0,j
4002.0,971.0,2923.0,3239.0,2194.0,2335.0,2533.0,4095.0,-4.02,8.53,5.56,0.09,-0.01,-0.15,0.0,j
4016.0,976.0,2919.0,3242.0,2192.0,2343.0,2535.0,4095.0,-4.5,8.46,5.35,-0.06,0.16,-0.02,0.0,j
3995.0,972.0,2929.0,3228.0,2192.0,2339.0,2534.0,4095.0,-7.22,7.5,3.02,-0.91,0.27,0.84,0.0,j
4009.0,1007.0,2914.0,3142.0,2126.0,2317.0,2495.0,4095.0,-5.54,-0.51,2.8,-4.09,-1.68,5.28,0.0,j
3975.0,1002.0,2925.0,3293.0,2142.0,2283.0,2539.0,4095.0,12.97,-3.58,4.86,-7.07,-8.73,1.33,0.0,j
3965.0,987.0,2929.0,3281.0,2115.0,2307.0,2533.0,4095.0,19.49,4.18,0.32,-0.86,-3.98,-1.39,0.0,j
3990.0,967.0,2930.0,3180.0,2130.0,2319.0,2493.0,4095.0,7.69,4.99,0.78,-1.13,-1.05,-2.16,0.0,j
3990.0,973.0,2931.0,3196.0,2146.0,2327.0,2513.0,4095.0,5.65,5.35,2.39,-0.39,0.46,-0.6,0.0,j
3987.0,969.0,2922.0,3214.0,2158.0,2321.0,2512.0,4095.0,6.63,6.12,0.67,0.13,0.18,-0.1,0.0,j
4000.0,969.0,2922.0,3221.0,2160.0,2322.0,2515.0,4095.0,6.83,6.64,0.03,-0.05,0.09,-0.03,0.0,j
4005.0,974.0,2932.0,3233.0,2159.0,2325.0,2518.0,4095.0,6.76,6.45,0.39,0.02,0.11,-0.18,0.0,j
3998.0,961.0,2929.0,3225.0,2157.0,2336.0,2519.0,4095.0,6.17,6.48,0.2,0.03,0.04,-0.08,0.0,j
3999.0,971.0,2925.0,3232.0,2161.0,2321.0,2517.0,4095.0,6.44,6.26,0.38,-0.03,-0.11,-0.08,0.0,j
4001.0,965.0,2937.0,3232.0,2173.0,2323.0,2522.0,4095.0,6.59,6.46,0.18,0.02,-0.1,-0.12,0.0,j
3985.0,975.0,2923.0,3239.0,2162.0,2323.0,2522.0,4095.0,6.79,6.34,0.12,-0.08,-0.1,-0.2,0.0,j
3998.0,962.0,2922.0,3250.0,2165.0,2321.0,2535.0,4095.0,6.78,6.39,0.62,-0.11,0.06,-0.11,0.0,j
3996.0,975.0,2931.0,3247.0,2160.0,2333.0,2529.0,4095.0,7.59,6.2,-0.34,0.07,-0.14,-0.07,0.0,j
3979.0,971.0,2923.0,3247.0,2176.0,2320.0,2523.0,4095.0,6.79,6.32,0.39,-0.01,-0.07,-0.24,0.0,j
3995.0,960.0,2929.0,3253.0,2176.0,2339.0,2528.0,4095.0,6.66,6.35,0.46,-0.03,-0.05,-0.18,0.0,j
4006.0,959.0,2926.0,3254.0,2172.0,2320.0,2529.0,4095.0,7.03,6.32,0.51,-0.04,-0.09,-0.18,0.0,j
4065.0,973.0,2925.0,3226.0,2165.0,2315.0,2512.0,4095.0,-4.35,8.75,5.64,0.02,0.05,-0.1,0.0,j
4044.0,978.0,2928.0,3252.0,2165.0,2320.0,2516.0,4095.0,-4.51,8.37,5.43,-0.06,0.02,-0.15,0.0,j
4066.0,970.0,2917.0,3255.0,2171.0,2322.0,2525.0,4095.0,-4.47,8.26,6.31,-0.04,-0.06,-0.27,0.0,j
4042.0,971.0,2923.0,3255.0,2175.0,2333.0,2527.0,4095.0,-6.05,8.07,4.54,-0.28,0.08,0.08,0.0,j
4057.0,976.0,2913.0,3206.0,2151.0,2317.0,2519.0,4095.0,-6.66,4.47,-0.17,-3.03,-0.45,3.0,0.0,j
4021.0,990.0,2923.0,3219.0,2134.0,2293.0,2499.0,4095.0,-2.2,-2.07,6.19,-5.98,-5.02,4.18,0.0,j
3996.0,979.0,2915.0,3246.0,1920.0,2288.0,2545.0,4095.0,22.61,-6.85,1.58,-6.02,-8.73,0.83,0.0,j
3989.0,972.0,2928.0,3344.0,2145.0,2309.0,2578.0,4095.0,19.72,0.63,1.09,-2.38,-5.0,-2.35,0.0,j
4014.0,965.0,2919.0,3236.0,2180.0,2310.0,2531.0,4095.0,8.67,3.05,0.98,-1.36,-1.68,-2.86,0.0,j
4017.0,963.0,2924.0,3237.0,2170.0,2320.0,2545.0,4095.0,6.58,4.03,2.55,-0.05,-0.24,-1.16,0.0,j
3989.0,949.0,2926.0,3247.0,2181.0,2332.0,2542.0,4095.0,7.49,4.28,0.86,-0.06,-0.37,-0.6,0.0,j
4011.0,957.0,2932.0,3260.0,2178.0,2329.0,2544.0,4095.0,7.45,5.13,0.18,0.07,-0.34,-0.31,0.0,j
4018.0,955.0,2921.0,3255.0,2189.0,2323.0,2545.0,4095.0,7.67,5.26,-0.18,0.04,-0.03,-0.09,0.0,j
3990.0,967.0,2924.0,3264.0,2192.0,2323.0,2555.0,4095.0,7.37,5.1,0.14,0.09,0.02,-0.03,0.0,j
4003.0,960.0,2931.0,3266.0,2193.0,2323.0,2555.0,4095.0,7.62,5.12,-0.03,0.1,-0.02,-0.16,0.0,j
3990.0,959.0,2927.0,3280.0,2203.0,2326.0,2545.0,4095.0,7.54,4.99,0.14,0.07,0.03,-0.08,0.0,j
3999.0,950.0,2927.0,3275.0,2195.0,2324.0,2546.0,4095.0,7.7,5.12,-0.15,0.02,0.04,-0.1,0.0,j
4002.0,964.0,2926.0,3277.0,2197.0,2326.0,2556.0,4095.0,7.63,5.19,-0.37,0.04,-0.03,-0.18,0.0,j
4003.0,965.0,2928.0,3279.0,2206.0,2328.0,2558.0,4095.0,7.28,5.15,0.11,-0.04,0.01,-0.12,0.0,j
3982.0,962.0,2928.0,3291.0,2210.0,2330.0,2557.0,4095.0,7.29,5.21,-0.12,-0.01,-0.06,-0.14,0.0,j
4079.0,971.0,2923.0,3235.0,2186.0,2321.0,2523.0,4095.0,-4.35,8.87,6.04,0.19,-0.07,-0.28,0.0,j
4055.0,966.0,2913.0,3238.0,2166.0,2320.0,2533.0,4095.0,-7.3,7.85,1.71,-1.32,0.02,0.83,0.0,j
4057.0,976.0,2935.0,3193.0,2203.0,2282.0,2499.0,4095.0,-0.36,-2.0,0.4,-6.81,-4.83,4.96,0.0,j
3993.0,983.0,2937.0,3316.0,2201.0,2253.0,2559.0,4095.0,20.85,-7.75,1.69,-7.11,-8.73,0.19,0.0,j
4016.0,973.0,2923.0,3314.0,2200.0,2283.0,2527.0,4095.0,19.58,4.24,0.3,-0.82,-5.14,-4.29,0.0,j
4046.0,962.0,2928.0,3271.0,2170.0,2294.0,2510.0,4095.0,5.52,5.07,2.59,-1.29,-0.53,-1.9,0.0,j
4037.0,953.0,2927.0,3280.0,2185.0,2314.0,2534.0,4095.0,5.06,5.85,2.11,-0.32,-0.17,-0.81,0.0,j
4042.0,958.0,2927.0,3292.0,2197.0,2321.0,2544.0,4095.0,6.07,6.6,0.23,0.04,-0.2,-0.15,0.0,j
4030.0,969.0,2928.0,3294.0,2191.0,2317.0,2540.0,4095.0,6.3,6.78,-0.19,0.06,-0.05,-0.05,0.0,j
4047.0,961.0,2917.0,3295.0,2194.0,2318.0,2543.0,4095.0,6.19,6.67,-0.14,0.02,0.01,-0.09,0.0,j
4029.0,958.0,2926.0,3307.0,2195.0,2321.0,2541.0,4095.0,6.12,6.62,-0.07,-0.01,-0.02,-0.19,0.0,j
4034.0,954.0,2931.0,3298.0,2192.0,2311.0,2544.0,4095.0,6.11,6.62,0.1,-0.01,0.04,-0.12,0.0,j
4048.0,960.0,2918.0,3300.0,2199.0,2320.0,2543.0,4095.0,6.09,6.58,0.01,0.02,-0.0,-0.11,0.0,j
4028.0,960.0,2921.0,3306.0,2199.0,2320.0,2545.0,4095.0,6.13,6.65,-0.48,-0.04,-0.04,-0.12,0.0,j
4017.0,961.0,2927.0,3302.0,2200.0,2321.0,2544.0,4095.0,6.13,6.48,0.03,0.05,0.01,-0.13,0.0,j
4019.0,962.0,2921.0,3287.0,2203.0,2336.0,2545.0,4095.0,6.46,6.55,-0.28,0.01,-0.03,-0.19,0.0,j
4025.0,963.0,2928.0,3301.0,2197.0,2329.0,2554.0,4095.0,6.3,6.79,-0.68,0.1,0.02,-0.18,0.0,j
4006.0,961.0,2915.0,3295.0,2192.0,2321.0,2548.0,4095.0,6.22,6.67,-0.11,0.03,0.08,-0.2,0.0,j
4022.0,953.0,2931.0,3312.0,2203.0,2325.0,2551.0,4095.0,6.12,6.6,0.06,0.02,0.02,-0.23,0.0,j
4043.0,955.0,2918.0,3297.0,2197.0,2331.0,2559.0,4095.0,6.2,6.91,-0.0,-0.06,-0.07,-0.23,0.0,j
4081.0,972.0,2932.0,3246.0,2192.0,2335.0,2525.0,4095.0,-4.47,8.65,6.23,0.1,-0.04,-0.15,0.0,j
4093.0,976.0,2924.0,3264.0,2189.0,2334.0,2517.0,4095.0,-4.34,8.56,5.8,0.04,-0.0,-0.13,0.0,j
4054.0,976.0,2918.0,3270.0,2236.0,2348.0,2513.0,4095.0,-5.47,7.77,2.32,-0.59,-0.1,0.04,0.0,j
4079.0,959.0,2928.0,3275.0,2173.0,2320.0,2502.0,4095.0,-5.78,3.05,-1.41,-4.98,-1.12,3.43,0.0,j
4043.0,974.0,2934.0,3308.0,2176.0,2297.0,2519.0,4095.0,7.47,-7.03,8.12,-6.82,-8.73,2.8,0.0,j
4038.0,970.0,2938.0,3355.0,2180.0,2323.0,2545.0,4095.0,26.97,-1.97,2.52,-3.18,-8.73,-1.15,0.0,j
4034.0,962.0,2927.0,3283.0,2182.0,2320.0,2525.0,4095.0,12.93,3.03,1.23,-0.97,-2.78,-3.65,0.0,j
4062.0,955.0,2926.0,3289.0,2171.0,2318.0,2525.0,4095.0,5.94,3.86,1.94,-0.33,0.16,-1.49,0.0,j
4026.0,958.0,2928.0,3304.0,2185.0,2331.0,2534.0,4095.0,6.52,4.75,0.7,0.06,-0.03,-0.6,0.0,j
4031.0,949.0,2919.0,3298.0,2181.0,2321.0,2535.0,4095.0,6.71,5.28,-0.05,0.18,-0.08,-0.22,0.0,j
4047.0,951.0,2921.0,3313.0,2192.0,2330.0,2535.0,4095.0,7.29,4.95,-0.8,0.2,0.01,-0.05,0.0,j
4037.0,951.0,2915.0,3313.0,2198.0,2329.0,2546.0,4095.0,7.15,5.2,-0.28,0.05,-0.03,-0.13,0.0,j
4023.0,944.0,2925.0,3319.0,2206.0,2333.0,2547.0,4095.0,7.27,5.33,-0.95,-0.0,-0.12,-0.2,0.0,j
4013.0,953.0,2926.0,3322.0,2197.0,2320.0,2555.0,4095.0,6.78,5.23,-0.96,0.03,-0.01,-0.1,0.0,j
4022.0,941.0,2927.0,3341.0,2207.0,2326.0,2539.0,4095.0,7.02,5.17,-0.68,0.02,0.04,-0.08,0.0,j
4039.0,948.0,2916.0,3334.0,2206.0,2322.0,2549.0,4095.0,7.41,5.1,-0.59,-0.05,0.05,-0.11,0.0,j
4029.0,957.0,2927.0,3330.0,2213.0,2324.0,2551.0,4095.0,7.1,5.01,-0.53,-0.05,-0.03,-0.19,0.0,j
4030.0,938.0,2926.0,3334.0,2210.0,2325.0,2548.0,4095.0,7.22,5.11,-0.68,-0.04,-0.07,-0.18,0.0,j
4022.0,948.0,2934.0,3327.0,2215.0,2320.0,2547.0,4095.0,7.27,5.04,-0.39,-0.03,-0.07,-0.17,0.0,j
4035.0,931.0,2928.0,3333.0,2213.0,2318.0,2544.0,4095.0,7.13,5.19,-0.43,0.01,-0.06,-0.19,0.0,j
4055.0,946.0,2928.0,3331.0,2222.0,2327.0,2554.0,4095.0,7.4,5.26,-0.9,0.0,-0.03,-0.15,0.0,j
4039.0,944.0,2925.0,3328.0,2220.0,2311.0,2545.0,4095.0,8.86,5.25,-1.29,-0.06,0.31,-0.21,0.0,j
4042.0,939.0,2917.0,3259.0,2143.0,2321.0,2541.0,4095.0,18.51,2.48,-9.49,1.62,8.73,-5.06,0.0,j
4011.0,942.0,2927.0,3138.0,2192.0,2340.0,2527.0,4095.0,-7.84,4.51,1.04,0.8,3.98,-3.97,0.0,j
4037.0,963.0,2925.0,3205.0,2205.0,2352.0,2535.0,4095.0,-8.23,3.91,5.12,-2.08,-0.09,2.5,0.0,j
4067.0,963.0,2921.0,3347.0,2119.0,2238.0,2510.0,4095.0,6.88,-6.9,7.13,-8.73,-5.22,5.56,0.0,j
4016.0,961.0,2928.0,3470.0,2130.0,2288.0,2538.0,4095.0,27.22,-4.12,-0.37,-5.0,-8.73,-1.94,0.0,j
4021.0,951.0,2942.0,3401.0,2176.0,2305.0,2519.0,4095.0,14.16,0.88,1.96,-1.42,-2.97,-3.87,0.0,j
4006.0,943.0,2924.0,3295.0,2202.0,2320.0,2497.0,4095.0,5.59,2.64,5.1,-0.76,-0.13,-1.63,0.0,j
4019.0,931.0,2929.0,3288.0,2220.0,2329.0,2512.0,4095.0,7.17,4.54,0.95,-0.07,-0.4,-0.52,0.0,j
4017.0,942.0,2928.0,3288.0,2217.0,2319.0,2511.0,4095.0,7.28,5.51,1.06,0.06,-0.25,-0.25,0.0,j
4014.0,939.0,2927.0,3302.0,2215.0,2320.0,2521.0,4095.0,7.66,5.5,0.62,0.02,-0.18,-0.18,0.0,j
4019.0,931.0,2925.0,3322.0,2223.0,2333.0,2528.0,4095.0,7.43,5.45,0.46,0.05,-0.08,-0.1,0.0,j
3999.0,930.0,2928.0,3310.0,2223.0,2333.0,2537.0,4095.0,7.58,5.47,0.44,0.04,-0.08,-0.08,0.0,j
4012.0,928.0,2931.0,3312.0,2229.0,2321.0,2529.0,4095.0,7.81,5.21,0.59,0.02,-0.06,-0.13,0.0,j
4016.0,933.0,2941.0,3330.0,2235.0,2325.0,2542.0,4095.0,7.81,5.11,0.56,-0.01,-0.09,-0.16,0.0,j
4003.0,931.0,2943.0,3328.0,2225.0,2329.0,2544.0,4095.0,7.95,5.25,0.43,0.03,-0.11,-0.15,0.0,j
3989.0,942.0,2927.0,3327.0,2231.0,2320.0,2551.0,4095.0,7.86,5.23,0.53,0.04,0.01,-0.17,0.0,j
3987.0,942.0,2927.0,3335.0,2225.0,2337.0,2542.0,4095.0,7.38,5.16,0.44,0.03,-0.03,-0.14,0.0,j
3988.0,943.0,2919.0,3328.0,2235.0,2337.0,2547.0,4095.0,8.04,5.2,0.4,0.06,-0.04,-0.1,0.0,j
4001.0,944.0,2928.0,3338.0,2241.0,2339.0,2546.0,4095.0,8.28,5.17,0.43,0.0,0.03,-0.14,0.0,j
4011.0,931.0,2935.0,3349.0,2240.0,2326.0,2547.0,4095.0,7.83,5.29,0.46,0.01,0.13,-0.18,0.0,j
4016.0,922.0,2940.0,3345.0,2219.0,2327.0,2549.0,4095.0,18.98,5.4,-0.29,0.98,5.27,-0.54,0.0,j
4051.0,933.0,2913.0,3243.0,2113.0,2333.0,2502.0,4095.0,5.64,4.21,4.05,2.74,8.73,-4.27,0.0,j
4041.0,946.0,2918.0,3183.0,2171.0,2322.0,2516.0,4095.0,-1.61,6.82,5.64,1.84,2.76,-2.24,0.0,j
4055.0,949.0,2928.0,3199.0,2187.0,2337.0,2530.0,4095.0,-3.34,6.82,4.08,0.73,0.01,-0.79,0.0,j
4065.0,944.0,2923.0,3221.0,2192.0,2355.0,2531.0,4095.0,-4.37,7.58,6.62,0.19,-0.16,-0.34,0.0,j
4071.0,956.0,2925.0,3222.0,2205.0,2352.0,2531.0,4095.0,-4.64,8.08,6.77,0.15,-0.19,-0.27,0.0,j
4060.0,944.0,2926.0,3241.0,2199.0,2347.0,2543.0,4095.0,-5.33,8.15,6.11,-0.02,-0.03,-0.15,0.0,j
4054.0,944.0,2926.0,3203.0,2206.0,2334.0,2512.0,4095.0,-4.38,7.1,0.46,0.91,-1.9,0.77,0.0,j
4048.0,948.0,2927.0,3247.0,2180.0,2330.0,2509.0,4095.0,-2.32,-0.11,1.64,-5.95,-2.97,6.37,0.0,j
4023.0,957.0,2928.0,3344.0,2206.0,2303.0,2544.0,4095.0,12.06,-5.78,-4.39,-6.78,-8.73,3.29,0.0,j
3999.0,956.0,2928.0,3382.0,2149.0,2326.0,2545.0,4095.0,26.52,1.94,-4.4,-1.25,-2.98,-0.65,0.0,j
4019.0,944.0,2937.0,3364.0,2192.0,2320.0,2533.0,4095.0,9.22,3.2,1.41,-1.19,-0.11,-1.94,0.0,j
4036.0,949.0,2925.0,3353.0,2217.0,2324.0,2538.0,4095.0,6.93,3.52,1.09,-0.42,0.24,-0.81,0.0,j
4016.0,947.0,2924.0,3354.0,2221.0,2327.0,2541.0,4095.0,7.01,4.15,0.94,-0.17,0.13,-0.31,0.0,j
4026.0,951.0,2934.0,3349.0,2223.0,2320.0,2544.0,4095.0,7.38,4.87,-0.15,0.31,0.23,-0.17,0.0,j
4019.0,944.0,2923.0,3347.0,2231.0,2340.0,2551.0,4095.0,7.91,5.27,-1.13,0.09,0.51,-0.01,0.0,j
4037.0,949.0,2921.0,3361.0,2224.0,2346.0,2544.0,4095.0,7.59,4.61,0.09,0.05,0.23,-0.07,0.0,j
4018.0,953.0,2928.0,3359.0,2224.0,2351.0,2544.0,4095.0,7.64,4.68,-0.31,-0.01,0.09,-0.18,0.0,j
4045.0,947.0,2928.0,3364.0,2238.0,2339.0,2547.0,4095.0,7.45,4.79,0.12,0.01,0.01,-0.18,0.0,j
4023.0,942.0,2924.0,3362.0,2233.0,2343.0,2549.0,4095.0,7.53,4.8,-0.31,-0.0,0.0,-0.15,0.0,j
4018.0,942.0,2928.0,3361.0,2229.0,2336.0,2546.0,4095.0,7.93,4.75,-0.42,-0.01,0.01,-0.16,0.0,j
4016.0,945.0,2919.0,3361.0,2240.0,2347.0,2555.0,4095.0,7.53,4.59,0.46,0.04,-0.03,-0.13,0.0,j
4035.0,945.0,2928.0,3363.0,2240.0,2339.0,2550.0,4095.0,8.01,4.77,-0.05,0.04,-0.08,-0.17,0.0,j
4039.0,939.0,2938.0,3376.0,2229.0,2323.0,2547.0,4095.0,7.84,5.02,0.03,0.0,-0.27,-0.26,0.0,j
4014.0,949.0,2930.0,3375.0,2247.0,2338.0,2545.0,4095.0,7.9,4.88,-0.28,-0.11,-0.08,-0.26,0.0,j
4039.0,934.0,2932.0,3376.0,2235.0,2335.0,2546.0,4095.0,7.73,5.06,-0.42,-0.01,0.1,-0.23,0.0,j
4029.0,944.0,2928.0,3378.0,2239.0,2336.0,2554.0,4095.0,8.1,5.31,0.61,0.06,0.07,-0.36,0.0,j
4015.0,934.0,2923.0,3383.0,2228.0,2330.0,2554.0,4095.0,14.85,6.1,-1.07,0.21,1.79,-0.56,0.0,j
4094.0,929.0,2922.0,3403.0,2164.0,2299.0,2559.0,4095.0,12.56,3.07,-7.47,0.99,8.73,-3.41,0.0,j
4050.0,967.0,2919.0,3173.0,2161.0,2314.0,2512.0,4095.0,-11.78,4.5,2.73,2.65,5.77,-4.33,0.0,j
4032.0,965.0,2921.0,3323.0,2218.0,2329.0,2540.0,4095.0,-7.91,6.38,2.78,0.58,1.11,-0.85,0.0,j
4048.0,975.0,2913.0,3323.0,2231.0,2343.0,2546.0,4095.0,-5.42,7.87,5.77,-0.13,-0.14,-0.05,0.0,j
4037.0,976.0,2925.0,3276.0,2238.0,2340.0,2553.0,4095.0,-5.1,8.32,5.65,-0.23,-0.08,-0.02,0.0,j
4047.0,980.0,2917.0,3298.0,2229.0,2337.0,2554.0,4095.0,-4.84,8.29,5.78,-0.11,-0.12,-0.05,0.0,j
4058.0,963.0,2923.0,3301.0,2229.0,2345.0,2548.0,4095.0,-4.82,8.35,6.07,-0.06,-0.07,-0.07,0.0,j
4048.0,978.0,2925.0,3292.0,2241.0,2337.0,2555.0,4095.0,-5.07,8.37,5.99,-0.03,-0.05,-0.18,0.0,j
4052.0,977.0,2928.0,3299.0,2240.0,2346.0,2559.0,4095.0,-5.16,8.28,5.3,-0.22,0.08,-0.13,0.0,j
4048.0,967.0,2925.0,3253.0,2176.0,2346.0,2547.0,4095.0,-7.55,7.47,1.66,-1.43,-0.23,1.04,0.0,j
4062.0,971.0,2924.0,3217.0,2198.0,2298.0,2528.0,4095.0,-3.3,-0.1,3.14,-5.69,-4.59,4.3,0.0,j
4026.0,960.0,2934.0,3376.0,2014.0,2279.0,2558.0,4095.0,14.51,-5.97,2.66,-5.64,-8.73,1.99,0.0,j
4017.0,967.0,2931.0,3408.0,2186.0,2313.0,2559.0,4095.0,22.21,1.73,0.43,-1.11,-4.36,-1.11,0.0,j
4037.0,966.0,2927.0,3355.0,2224.0,2319.0,2554.0,4095.0,11.33,4.28,0.3,-0.98,-0.5,-2.05,0.0,j
4023.0,945.0,2929.0,3326.0,2211.0,2321.0,2559.0,4095.0,6.28,3.93,1.22,-0.27,0.26,-0.93,0.0,j
4045.0,959.0,2926.0,3342.0,2225.0,2321.0,2558.0,4095.0,6.95,4.53,1.06,0.07,-0.06,-0.33,0.0,j
4043.0,947.0,2914.0,3337.0,2227.0,2333.0,2559.0,4095.0,7.65,4.95,0.16,0.09,-0.07,-0.11,0.0,j
4045.0,958.0,2926.0,3349.0,2241.0,2331.0,2559.0,4095.0,7.86,4.95,0.3,0.07,0.02,-0.12,0.0,j
4042.0,943.0,2923.0,3347.0,2235.0,2331.0,2559.0,4095.0,7.57,4.92,0.27,-0.01,-0.07,-0.19,0.0,j
4048.0,965.0,2926.0,3348.0,2240.0,2330.0,2559.0,4095.0,7.7,4.99,0.19,0.01,-0.02,-0.16,0.0,j
4027.0,952.0,2928.0,3358.0,2246.0,2334.0,2559.0,4095.0,7.71,5.04,0.04,0.01,-0.05,-0.19,0.0,j
4028.0,945.0,2930.0,3350.0,2241.0,2337.0,2559.0,4095.0,7.76,5.12,0.15,0.03,0.02,-0.17,0.0,j
4021.0,947.0,2929.0,3350.0,2242.0,2345.0,2559.0,4095.0,7.54,5.06,0.14,0.03,0.02,-0.17,0.0,j
4046.0,948.0,2928.0,3344.0,2253.0,2343.0,2559.0,4095.0,7.7,4.99,0.16,0.0,-0.01,-0.14,0.0,j
4025.0,951.0,2928.0,3362.0,2250.0,2330.0,2559.0,4095.0,7.53,4.93,0.29,-0.01,-0.03,-0.13,0.0,j
4035.0,944.0,2921.0,3359.0,2245.0,2337.0,2587.0,4095.0,7.76,4.97,0.05,-0.02,-0.05,-0.1,0.0,j
4016.0,944.0,2938.0,3353.0,2247.0,2337.0,2559.0,4095.0,7.86,4.94,-0.08,-0.0,-0.03,-0.11,0.0,j
4032.0,953.0,2924.0,3350.0,2256.0,2337.0,2559.0,4095.0,7.78,4.9,0.4,-0.01,-0.07,-0.18,0.0,j
4016.0,949.0,2926.0,3344.0,2254.0,2326.0,2559.0,4095.0,7.61,4.97,0.19,-0.01,-0.01,-0.14,0.0,j
4018.0,950.0,2921.0,3344.0,2250.0,2329.0,2559.0,4095.0,7.72,4.91,-0.12,-0.0,-0.04,-0.16,0.0,j
4058.0,945.0,2921.0,3287.0,2236.0,2369.0,2581.0,4095.0,-4.41,8.3,6.4,-0.08,0.02,-0.09,0.0,j
4058.0,944.0,2933.0,3284.0,2241.0,2363.0,2559.0,4095.0,-6.17,7.38,3.32,-0.58,-0.04,0.88,0.0,j
4063.0,943.0,2923.0,3275.0,2250.0,2344.0,2559.0,4095.0,-2.74,4.68,0.73,-3.87,-0.68,2.41,0.0,j
4095.0,960.0,2926.0,3309.0,2202.0,2321.0,2547.0,4095.0,-0.19,-3.73,9.69,-6.99,-5.12,2.47,0.0,j
4032.0,953.0,2928.0,3372.0,2208.0,2329.0,2587.0,4095.0,24.25,-8.69,5.07,-5.34,-8.73,0.25,0.0,j
4035.0,945.0,2928.0,3319.0,2206.0,2352.0,2579.0,4095.0,18.99,2.12,-1.68,-1.59,-4.17,-3.01,0.0,j
4065.0,943.0,2929.0,3248.0,2227.0,2365.0,2559.0,4095.0,7.6,2.53,1.67,-0.97,-0.11,-1.84,0.0,j
4046.0,939.0,2932.0,3271.0,2231.0,2368.0,2587.0,4095.0,6.27,3.38,1.39,-0.37,-0.03,-0.82,0.0,j
4047.0,941.0,2923.0,3285.0,2240.0,2363.0,2559.0,4095.0,6.71,4.4,0.53,0.05,-0.08,-0.25,0.0,j
4047.0,935.0,2918.0,3299.0,2237.0,2367.0,2583.0,4095.0,7.52,4.7,-0.83,0.03,-0.19,-0.13,0.0,j
4048.0,938.0,2915.0,3287.0,2231.0,2357.0,2581.0,4095.0,7.48,4.59,-1.14,0.04,-0.1,-0.17,0.0,j
4048.0,949.0,2928.0,3311.0,2234.0,2367.0,2581.0,4095.0,7.59,4.46,-0.4,-0.01,-0.02,-0.13,0.0,j
4051.0,934.0,2923.0,3326.0,2238.0,2382.0,2590.0,4095.0,7.66,4.53,-1.02,0.1,-0.04,-0.13,0.0,j
4058.0,954.0,2928.0,3321.0,2246.0,2369.0,2589.0,4095.0,7.48,4.54,-0.49,0.0,-0.07,-0.21,0.0,j
4051.0,944.0,2918.0,3312.0,2245.0,2373.0,2587.0,4095.0,7.52,4.54,-0.82,-0.01,-0.06,-0.14,0.0,j
4054.0,939.0,2925.0,3322.0,2246.0,2370.0,2589.0,4095.0,7.58,4.39,-0.84,0.07,-0.04,-0.18,0.0,j
4042.0,944.0,2930.0,3329.0,2240.0,2377.0,2587.0,4095.0,7.47,4.48,-0.67,0.06,-0.04,-0.15,0.0,j
4032.0,937.0,2932.0,3327.0,2245.0,2371.0,2592.0,4095.0,7.64,4.47,-0.86,-0.02,-0.01,-0.16,0.0,j
4043.0,935.0,2923.0,3339.0,2245.0,2370.0,2583.0,4095.0,7.45,4.41,-0.62,-0.0,0.0,-0.17,0.0,j
4048.0,943.0,2927.0,3344.0,2240.0,2373.0,2559.0,4095.0,7.55,4.48,-0.6,0.04,-0.04,-0.21,0.0,j
4076.0,965.0,2923.0,3313.0,2234.0,2383.0,2559.0,4095.0,-4.78,8.78,5.5,-0.08,-0.1,-0.08,0.0,j
4080.0,963.0,2914.0,3317.0,2224.0,2369.0,2559.0,4095.0,-5.31,7.92,4.23,-0.5,0.06,0.59,0.0,j
4093.0,966.0,2914.0,3331.0,2224.0,2367.0,2559.0,4095.0,-3.77,4.95,3.37,-2.49,0.03,2.72,0.0,j
4080.0,967.0,2925.0,3353.0,2193.0,2327.0,2534.0,4095.0,-5.63,-0.88,7.09,-7.04,-4.07,2.59,0.0,j
4018.0,954.0,2925.0,3486.0,2219.0,2321.0,2602.0,4095.0,25.46,-5.38,4.6,-5.91,-8.73,-1.9,0.0,j
4038.0,953.0,2928.0,3392.0,2191.0,2375.0,2595.0,4095.0,13.41,4.88,1.73,-1.01,-3.22,-2.44,0.0,j
4045.0,971.0,2928.0,3358.0,2245.0,2371.0,2604.0,4095.0,5.93,4.3,1.39,-0.53,-0.0,-1.2,0.0,j
4031.0,970.0,2926.0,3371.0,2248.0,2373.0,2603.0,4095.0,6.34,4.47,1.51,-0.06,0.04,-0.36,0.0,j
4044.0,959.0,2927.0,3365.0,2253.0,2384.0,2603.0,4095.0,7.26,5.31,0.66,0.14,-0.16,-0.18,0.0,j
4039.0,961.0,2932.0,3390.0,2255.0,2381.0,2610.0,4095.0,8.04,5.17,0.07,-0.01,-0.1,-0.14,0.0,j
4039.0,965.0,2927.0,3376.0,2263.0,2393.0,2605.0,4095.0,7.93,5.04,0.35,-0.03,0.05,-0.17,0.0,j
4023.0,960.0,2915.0,3392.0,2256.0,2389.0,2605.0,4095.0,7.73,4.98,0.74,-0.05,0.05,-0.12,0.0,j
4015.0,969.0,2930.0,3381.0,2265.0,2383.0,2595.0,4095.0,7.87,5.24,0.45,-0.03,-0.07,-0.2,0.0,j
4045.0,959.0,2928.0,3391.0,2258.0,2393.0,2597.0,4095.0,7.68,5.2,0.93,0.03,-0.05,-0.15,0.0,j
4026.0,964.0,2928.0,3405.0,2258.0,2380.0,2599.0,4095.0,7.96,5.15,0.96,-0.05,0.04,-0.09,0.0,j
4034.0,966.0,2933.0,3378.0,2256.0,2390.0,2597.0,4095.0,8.03,5.06,0.63,-0.08,0.06,-0.12,0.0,j
4027.0,962.0,2931.0,3392.0,2256.0,2396.0,2602.0,4095.0,7.84,5.07,0.68,-0.04,0.07,-0.19,0.0,j
4016.0,953.0,2919.0,3389.0,2258.0,2384.0,2593.0,4095.0,7.99,5.12,0.6,0.07,-0.05,-0.1,0.0,j
4018.0,958.0,2926.0,3393.0,2257.0,2394.0,2603.0,4095.0,7.84,5.12,1.08,-0.02,0.04,-0.13,0.0,j
4026.0,962.0,2929.0,3405.0,2261.0,2391.0,2601.0,4095.0,7.77,5.21,0.72,0.01,0.02,-0.16,0.0,j
4059.0,917.0,2927.0,3397.0,2243.0,2387.0,2582.0,4095.0,-4.97,8.22,6.5,0.02,0.03,-0.05,0.0,j
4083.0,919.0,2919.0,3244.0,2234.0,2391.0,2581.0,4095.0,-5.33,6.93,3.11,-1.39,-0.39,1.82,0.0,j
4065.0,917.0,2922.0,3200.0,2198.0,2351.0,2546.0,4095.0,-2.68,1.87,0.91,-4.6,-4.83,6.18,0.0,j
4011.0,941.0,2931.0,3309.0,2099.0,2320.0,2606.0,4095.0,14.81,-1.95,4.33,-5.62,-8.73,1.34,0.0,j
4028.0,929.0,2918.0,3334.0,2230.0,2336.0,2559.0,4095.0,17.4,4.47,-0.48,-1.75,-4.04,-1.85,0.0,j
4043.0,928.0,2926.0,3234.0,2221.0,2359.0,2555.0,4095.0,7.33,5.28,1.92,-1.02,-0.52,-1.98,0.0,j
4077.0,940.0,2929.0,3278.0,2240.0,2363.0,2559.0,4095.0,5.75,5.11,2.18,-0.18,-0.02,-0.83,0.0,j
4050.0,928.0,2938.0,3279.0,2240.0,2384.0,2559.0,4095.0,6.8,5.99,0.66,0.11,-0.07,-0.24,0.0,j
4048.0,932.0,2928.0,3275.0,2241.0,2371.0,2559.0,4095.0,6.88,6.34,0.16,0.07,0.1,-0.12,0.0,j
4055.0,927.0,2918.0,3263.0,2245.0,2383.0,2559.0,4095.0,6.73,6.5,0.26,0.04,0.09,-0.2,0.0,j
4057.0,929.0,2922.0,3277.0,2243.0,2369.0,2559.0,4095.0,5.89,6.56,0.03,-0.02,0.48,0.01,0.0,j
4038.0,937.0,2934.0,3275.0,2259.0,2380.0,2559.0,4095.0,6.68,6.54,0.86,0.03,0.09,-0.14,0.0,j
4048.0,937.0,2928.0,3274.0,2251.0,2384.0,2579.0,4095.0,6.52,6.57,0.25,-0.02,0.08,-0.08,0.0,j
4048.0,937.0,2928.0,3295.0,2253.0,2372.0,2587.0,4095.0,6.74,6.43,0.64,-0.07,0.17,-0.04,0.0,j
4047.0,935.0,2933.0,3292.0,2252.0,2384.0,2583.0,4095.0,6.88,6.49,0.4,-0.03,0.03,-0.14,0.0,j
4053.0,927.0,2915.0,3301.0,2254.0,2369.0,2591.0,4095.0,6.9,6.42,0.65,-0.0,-0.07,-0.17,0.0,j
4048.0,924.0,2926.0,3297.0,2255.0,2369.0,2579.0,4095.0,6.59,6.55,0.63,-0.03,0.0,-0.16,0.0,j
4045.0,925.0,2928.0,3287.0,2258.0,2379.0,2587.0,4095.0,6.69,6.43,0.71,-0.1,-0.11,-0.16,0.0,j
4050.0,944.0,2926.0,3295.0,2265.0,2371.0,2593.0,4095.0,6.98,6.41,0.65,-0.03,-0.06,-0.17,0.0,j
4055.0,939.0,2919.0,3295.0,2253.0,2369.0,2559.0,4095.0,6.95,6.77,0.43,-0.22,-0.21,-0.22,0.0,j
4095.0,918.0,2917.0,3247.0,2213.0,2379.0,2554.0,4095.0,-4.78,8.32,4.96,-0.12,0.0,-0.02,0.0,j
4095.0,928.0,2918.0,3279.0,2237.0,2371.0,2559.0,4095.0,-6.1,6.57,0.21,-2.12,-0.33,1.75,0.0,j
4095.0,915.0,2931.0,3216.0,2207.0,2319.0,2555.0,4095.0,-2.86,-2.25,6.06,-6.97,-1.05,3.85,0.0,j
4071.0,915.0,2928.0,3362.0,2207.0,2321.0,2579.0,4095.0,21.11,-6.84,9.21,-6.3,-8.73,-0.32,0.0,j
4084.0,921.0,2933.0,3315.0,2227.0,2353.0,2593.0,4095.0,19.97,1.96,4.03,-1.45,-4.17,-2.34,0.0,j
4066.0,923.0,2923.0,3333.0,2231.0,2368.0,2592.0,4095.0,7.98,3.31,2.42,-0.45,-0.5,-2.08,0.0,j
4051.0,927.0,2915.0,3302.0,2241.0,2383.0,2604.0,4095.0,6.72,4.49,2.08,-0.17,-0.17,-0.86,0.0,j
4064.0,936.0,2927.0,3321.0,2239.0,2374.0,2607.0,4095.0,7.22,5.26,1.38,0.18,-0.23,-0.34,0.0,j
4077.0,918.0,2919.0,3327.0,2245.0,2370.0,2608.0,4095.0,8.0,5.51,0.57,0.09,-0.13,-0.1,0.0,j
4066.0,918.0,2937.0,3326.0,2246.0,2374.0,2608.0,4095.0,8.21,4.92,0.44,0.03,0.06,-0.02,0.0,j
4069.0,930.0,2928.0,3344.0,2255.0,2377.0,2608.0,4095.0,7.96,4.94,0.77,0.02,0.07,-0.2,0.0,j
4043.0,929.0,2926.0,3339.0,2256.0,2379.0,2610.0,4095.0,8.0,4.95,0.76,0.04,0.04,-0.17,0.0,j
4048.0,926.0,2923.0,3342.0,2255.0,2371.0,2610.0,4095.0,7.95,4.96,0.83,0.01,0.1,-0.14,0.0,j
4045.0,922.0,2926.0,3342.0,2253.0,2369.0,2619.0,4095.0,7.86,5.08,0.83,0.04,0.11,-0.16,0.0,j
4043.0,930.0,2933.0,3349.0,2250.0,2383.0,2618.0,4095.0,7.9,5.02,0.8,0.0,0.03,-0.13,0.0,j
4052.0,924.0,2927.0,3344.0,2242.0,2373.0,2611.0,4095.0,7.87,5.11,0.83,0.01,0.01,-0.17,0.0,j
4037.0,926.0,2924.0,3344.0,2255.0,2377.0,2615.0,4095.0,7.81,5.16,0.93,0.01,-0.02,-0.17,0.0,j
4061.0,930.0,2917.0,3349.0,2253.0,2374.0,2615.0,4095.0,8.02,5.13,0.7,0.05,0.01,-0.16,0.0,j
4039.0,923.0,2929.0,3351.0,2256.0,2370.0,2624.0,4095.0,7.78,5.19,0.81,-0.03,0.0,-0.14,0.0,j
4057.0,937.0,2923.0,3367.0,2254.0,2379.0,2620.0,4095.0,7.87,5.09,0.81,0.04,0.01,-0.14,0.0,j
4078.0,909.0,2928.0,3361.0,2227.0,2389.0,2582.0,4095.0,-4.88,8.22,5.49,-0.11,0.03,-0.12,0.0,j
4049.0,918.0,2915.0,3353.0,2236.0,2394.0,2595.0,4095.0,-5.55,7.6,2.2,-0.56,-0.31,-0.26,0.0,j
4062.0,927.0,2916.0,3184.0,2222.0,2370.0,2603.0,4095.0,-5.64,3.72,0.27,-4.68,-1.69,5.09,0.0,j
4048.0,958.0,2928.0,3324.0,2202.0,2325.0,2559.0,4095.0,5.25,-1.69,4.75,-6.59,-8.49,2.96,0.0,j
4054.0,943.0,2931.0,3342.0,2224.0,2352.0,2610.0,4095.0,28.1,1.3,-1.25,-1.84,-8.73,-1.62,0.0,j
4051.0,942.0,2921.0,3314.0,2261.0,2371.0,2602.0,4095.0,12.23,3.57,3.11,-0.55,-1.33,-2.31,0.0,j
4067.0,944.0,2919.0,3356.0,2278.0,2379.0,2613.0,4095.0,6.17,4.22,2.46,-0.18,-0.14,-0.85,0.0,j
4058.0,950.0,2928.0,3362.0,2275.0,2369.0,2615.0,4095.0,8.01,4.67,1.83,0.2,-0.1,-0.42,0.0,j
4041.0,954.0,2918.0,3359.0,2272.0,2378.0,2613.0,4095.0,8.75,5.0,0.93,0.15,-0.04,-0.24,0.0,j
4048.0,942.0,2932.0,3365.0,2269.0,2373.0,2615.0,4095.0,7.67,4.85,1.3,0.08,0.07,-0.11,0.0,j
4058.0,939.0,2937.0,3361.0,2283.0,2375.0,2614.0,4095.0,8.62,4.8,1.19,0.03,0.04,-0.13,0.0,j
4048.0,953.0,2921.0,3376.0,2283.0,2383.0,2608.0,4095.0,7.93,4.93,0.85,-0.01,0.07,-0.13,0.0,j
4048.0,955.0,2930.0,3367.0,2275.0,2384.0,2612.0,4095.0,8.44,4.83,0.64,0.01,-0.06,-0.13,0.0,j
4066.0,945.0,2923.0,3382.0,2285.0,2382.0,2613.0,4095.0,8.2,4.77,1.05,0.03,-0.09,-0.2,0.0,j
4054.0,954.0,2928.0,3382.0,2285.0,2371.0,2614.0,4095.0,8.08,4.67,1.75,0.01,-0.04,-0.1,0.0,j
4054.0,959.0,2928.0,3391.0,2288.0,2382.0,2610.0,4095.0,8.43,4.65,0.95,-0.0,-0.04,-0.14,0.0,j
4077.0,944.0,2912.0,3386.0,2288.0,2384.0,2619.0,4095.0,8.13,4.8,0.86,0.08,-0.0,-0.17,0.0,j
4039.0,941.0,2929.0,3370.0,2282.0,2369.0,2621.0,4095.0,8.47,4.57,1.01,-0.03,-0.05,-0.13,0.0,j
4048.0,951.0,2930.0,3376.0,2285.0,2384.0,2622.0,4095.0,8.56,4.63,0.92,0.01,-0.03,-0.2,0.0,j
4063.0,954.0,2927.0,3383.0,2284.0,2382.0,2615.0,4095.0,8.15,4.72,1.21,-0.0,-0.03,-0.2,0.0,j
4063.0,939.0,2925.0,3280.0,2241.0,2391.0,2608.0,4095.0,-5.88,7.72,4.71,-0.2,0.31,0.3,0.0,j
4065.0,927.0,2914.0,3289.0,2214.0,2323.0,2591.0,4095.0,-5.07,0.92,-3.6,-6.72,1.4,5.71,0.0,j
3986.0,933.0,2923.0,3484.0,2112.0,2298.0,2641.0,4095.0,9.15,-4.81,8.23,-6.38,-8.3,1.12,0.0,j
3943.0,932.0,2935.0,3463.0,2096.0,2327.0,2699.0,4095.0,23.4,-1.86,2.33,-4.01,-8.73,-1.86,0.0,j
3927.0,933.0,2935.0,3446.0,2166.0,2352.0,2675.0,4095.0,12.37,2.2,2.94,-0.59,-1.54,-1.6,0.0,j
3926.0,928.0,2928.0,3425.0,2161.0,2351.0,2672.0,4095.0,7.54,2.52,2.21,-0.19,-0.16,-0.96,0.0,j
3923.0,934.0,2934.0,3402.0,2156.0,2349.0,2679.0,4095.0,8.31,2.68,1.85,0.16,0.03,-0.34,0.0,j
3931.0,920.0,2929.0,3413.0,2132.0,2354.0,2679.0,4095.0,9.09,2.69,1.61,0.14,-0.06,-0.14,0.0,j
3920.0,922.0,2935.0,3417.0,2133.0,2354.0,2672.0,4095.0,9.34,2.67,1.37,0.03,0.04,-0.1,0.0,j
3921.0,926.0,2924.0,3414.0,2171.0,2366.0,2672.0,4095.0,9.18,2.65,1.54,0.04,0.04,-0.16,0.0,j
3932.0,924.0,2927.0,3415.0,2207.0,2374.0,2672.0,4095.0,9.07,2.7,1.72,-0.03,-0.05,-0.16,0.0,j
3925.0,938.0,2938.0,3418.0,2226.0,2357.0,2678.0,4095.0,9.46,2.73,1.28,-0.05,-0.02,-0.13,0.0,j
3920.0,919.0,2929.0,3413.0,2233.0,2373.0,2672.0,4095.0,9.45,2.6,1.43,0.02,0.07,-0.15,0.0,j
3946.0,928.0,2933.0,3417.0,2227.0,2357.0,2672.0,4095.0,9.3,2.63,1.79,-0.0,0.05,-0.19,0.0,j
3923.0,925.0,2928.0,3414.0,2229.0,2359.0,2672.0,4095.0,9.08,2.72,1.67,0.02,-0.03,-0.18,0.0,j
3939.0,939.0,2929.0,3414.0,2243.0,2366.0,2667.0,4095.0,9.47,2.59,1.5,-0.01,0.02,-0.16,0.0,j
3919.0,933.0,2926.0,3424.0,2246.0,2373.0,2678.0,4095.0,9.49,2.69,1.66,0.03,0.03,-0.17,0.0,j
3938.0,934.0,2928.0,3407.0,2231.0,2381.0,2682.0,4095.0,9.16,2.84,1.73,0.12,0.03,-0.25,0.0,j
3919.0,929.0,2917.0,3408.0,2231.0,2375.0,2689.0,4095.0,9.25,2.76,1.81,0.04,-0.01,-0.21,0.0,j
3943.0,944.0,2927.0,3408.0,2234.0,2377.0,2682.0,4095.0,9.3,2.78,1.43,0.15,0.0,-0.15,0.0,j
4082.0,961.0,2931.0,3303.0,2233.0,2373.0,2590.0,4095.0,-5.86,7.75,4.96,-0.24,-0.06,-0.04,0.0,j
4063.0,954.0,2928.0,3307.0,2227.0,2341.0,2577.0,4095.0,-5.35,4.76,1.55,-2.35,-0.77,1.21,0.0,j
4059.0,970.0,2918.0,3271.0,2204.0,2311.0,2559.0,4095.0,-6.0,-1.3,5.88,-6.32,-3.34,3.72,0.0,j
4021.0,954.0,2925.0,3440.0,2197.0,2320.0,2590.0,4095.0,18.52,-6.47,11.29,-5.3,-8.73,0.35,0.0,j
4021.0,961.0,2915.0,3409.0,2245.0,2342.0,2613.0,4095.0,20.24,0.55,3.07,-1.52,-3.48,-1.55,0.0,j
4042.0,971.0,2925.0,3426.0,2259.0,2349.0,2621.0,4095.0,9.65,1.71,3.08,-0.74,-0.69,-1.36,0.0,j
4022.0,959.0,2920.0,3439.0,2263.0,2357.0,2627.0,4095.0,8.52,2.27,2.24,-0.17,-0.1,-0.52,0.0,j
4025.0,961.0,2923.0,3440.0,2266.0,2352.0,2625.0,4095.0,9.41,2.73,1.98,0.05,-0.04,-0.28,0.0,j
4018.0,969.0,2930.0,3431.0,2259.0,2350.0,2623.0,4095.0,9.01,3.02,1.1,-0.02,-0.06,-0.17,0.0,j
4034.0,951.0,2931.0,3438.0,2265.0,2359.0,2637.0,4095.0,8.97,2.93,1.49,-0.03,-0.02,-0.13,0.0,j
4009.0,963.0,2933.0,3440.0,2263.0,2363.0,2628.0,4095.0,9.51,3.08,1.13,0.01,0.03,-0.16,0.0,j
4009.0,967.0,2935.0,3443.0,2266.0,2361.0,2629.0,4095.0,9.06,3.07,1.2,-0.02,0.0,-0.12,0.0,j
4007.0,960.0,2925.0,3447.0,2261.0,2361.0,2634.0,4095.0,8.92,3.07,1.36,-0.01,-0.01,-0.16,0.0,j
4033.0,965.0,2929.0,3451.0,2271.0,2364.0,2640.0,4095.0,9.13,3.15,1.43,-0.05,-0.07,-0.13,0.0,j
4022.0,966.0,2927.0,3440.0,2267.0,2358.0,2635.0,4095.0,9.09,2.84,1.48,-0.02,-0.0,-0.12,0.0,j
4012.0,971.0,2929.0,3453.0,2256.0,2370.0,2634.0,4095.0,9.23,3.0,1.36,0.02,-0.01,-0.19,0.0,j
4027.0,967.0,2938.0,3454.0,2258.0,2355.0,2638.0,4095.0,9.0,2.97,1.46,0.02,0.0,-0.18,0.0,j
4016.0,961.0,2935.0,3461.0,2254.0,2357.0,2643.0,4095.0,9.05,3.02,1.48,-0.01,-0.01,-0.15,0.0,j
4007.0,970.0,2931.0,3463.0,2250.0,2356.0,2644.0,4095.0,9.13,3.06,1.38,0.01,-0.0,-0.16,0.0,j
4015.0,975.0,2939.0,3458.0,2239.0,2363.0,2640.0,4095.0,8.94,3.12,1.39,-0.0,-0.06,-0.13,0.0,j
4044.0,912.0,2927.0,3429.0,2261.0,2416.0,2633.0,4095.0,-5.23,8.5,4.91,0.09,0.04,-0.21,0.0,j
4019.0,912.0,2928.0,3443.0,2267.0,2418.0,2641.0,4095.0,-6.23,7.54,3.36,0.02,-0.59,0.02,0.0,j
4015.0,905.0,2921.0,3285.0,2261.0,2413.0,2639.0,4095.0,-7.49,5.85,2.59,-2.17,-0.88,2.99,0.0,j
4006.0,928.0,2928.0,3423.0,2235.0,2320.0,2614.0,4095.0,-2.39,-4.74,5.0,-8.73,-3.29,5.56,0.0,j
3971.0,926.0,2928.0,3479.0,2158.0,2350.0,2657.0,4095.0,21.59,-5.53,6.24,-5.08,-8.73,-0.36,0.0,j
3979.0,935.0,2932.0,3475.0,2225.0,2352.0,2642.0,4095.0,15.46,2.15,4.69,-0.78,-2.12,-1.17,0.0,j
4019.0,927.0,2925.0,3496.0,2229.0,2359.0,2654.0,4095.0,8.5,2.29,2.45,-0.27,-0.41,-0.85,0.0,j
3993.0,929.0,2929.0,3501.0,2237.0,2368.0,2653.0,4095.0,9.06,2.26,2.88,-0.14,-0.16,-0.25,0.0,j
3984.0,929.0,2928.0,3501.0,2247.0,2368.0,2655.0,4095.0,8.89,2.44,2.51,-0.07,-0.22,-0.21,0.0,j
3984.0,929.0,2929.0,3505.0,2252.0,2375.0,2659.0,4095.0,9.97,2.13,2.28,0.01,-0.12,-0.09,0.0,j
3986.0,934.0,2929.0,3504.0,2254.0,2368.0,2650.0,4095.0,9.89,2.35,1.81,0.03,-0.05,-0.18,0.0,j
3984.0,929.0,2917.0,3499.0,2259.0,2370.0,2652.0,4095.0,9.06,2.28,2.72,0.1,0.01,-0.14,0.0,j
4002.0,926.0,2925.0,3504.0,2257.0,2365.0,2653.0,4095.0,9.82,2.27,1.31,-0.01,-0.08,-0.06,0.0,j
4000.0,931.0,2930.0,3517.0,2256.0,2370.0,2657.0,4095.0,9.38,2.44,1.8,0.0,-0.05,-0.2,0.0,j
3981.0,931.0,2927.0,3510.0,2259.0,2373.0,2665.0,4095.0,9.56,2.33,2.09,-0.05,-0.0,-0.14,0.0,j
3977.0,927.0,2927.0,3511.0,2260.0,2369.0,2656.0,4095.0,9.62,2.28,2.07,-0.04,-0.01,-0.19,0.0,j
3986.0,935.0,2927.0,3504.0,2260.0,2378.0,2659.0,4095.0,9.31,2.24,1.89,-0.05,-0.04,-0.18,0.0,j
4014.0,938.0,2930.0,3507.0,2272.0,2359.0,2667.0,4095.0,9.74,2.32,2.16,0.03,-0.0,-0.13,0.0,j
3975.0,944.0,2928.0,3518.0,2287.0,2369.0,2663.0,4095.0,9.34,2.28,2.31,-0.02,-0.08,-0.24,0.0,j
3955.0,933.0,2928.0,3495.0,2283.0,2369.0,2670.0,4095.0,9.65,2.06,2.31,0.13,-0.2,-0.23,0.0,j
4095.0,912.0,2918.0,3340.0,2230.0,2373.0,2599.0,4095.0,-4.84,8.32,6.51,-0.15,0.19,0.03,0.0,j
4075.0,909.0,2918.0,3357.0,2229.0,2375.0,2605.0,4095.0,-5.43,7.93,4.78,-0.83,0.16,0.5,0.0,j
4095.0,923.0,2923.0,3347.0,2247.0,2329.0,2608.0,4095.0,-7.19,4.37,3.33,-4.85,-1.05,4.22,0.0,j
4065.0,940.0,2928.0,3504.0,2239.0,2303.0,2620.0,4095.0,5.72,-1.25,9.53,-4.92,-4.15,1.83,0.0,j
4066.0,935.0,2928.0,3568.0,2242.0,2319.0,2640.0,4095.0,16.87,-3.51,6.07,-4.48,-8.72,-1.69,0.0,j
4031.0,922.0,2928.0,3502.0,2257.0,2331.0,2629.0,4095.0,14.48,0.89,4.68,-1.11,-2.58,-2.32,0.0,j
4047.0,922.0,2937.0,3465.0,2251.0,2355.0,2629.0,4095.0,9.09,2.76,3.36,-0.3,0.05,-1.33,0.0,j
4031.0,925.0,2934.0,3461.0,2261.0,2368.0,2631.0,4095.0,7.98,3.5,2.94,-0.18,0.26,-0.39,0.0,j
4032.0,914.0,2927.0,3469.0,2259.0,2352.0,2630.0,4095.0,9.43,3.55,2.6,0.01,0.04,-0.19,0.0,j
4043.0,934.0,2928.0,3491.0,2272.0,2363.0,2625.0,4095.0,9.17,3.79,2.16,0.16,0.16,-0.18,0.0,j
4051.0,922.0,2920.0,3472.0,2272.0,2352.0,2629.0,4095.0,9.06,3.57,2.52,0.1,0.11,-0.08,0.0,j
4059.0,912.0,2917.0,3489.0,2281.0,2358.0,2639.0,4095.0,9.25,3.84,2.11,0.03,-0.03,-0.11,0.0,j
4048.0,928.0,2933.0,3483.0,2286.0,2353.0,2638.0,4095.0,9.16,3.62,2.26,-0.01,-0.04,-0.13,0.0,j
4046.0,923.0,2931.0,3504.0,2282.0,2361.0,2640.0,4095.0,9.1,3.75,2.33,-0.01,-0.03,-0.18,0.0,j
4042.0,930.0,2937.0,3490.0,2279.0,2365.0,2640.0,4095.0,9.06,3.98,1.92,-0.04,-0.03,-0.18,0.0,j
4047.0,933.0,2928.0,3495.0,2285.0,2373.0,2640.0,4095.0,9.24,3.83,2.14,-0.01,-0.03,-0.17,0.0,j
4043.0,929.0,2934.0,3504.0,2277.0,2371.0,2639.0,4095.0,9.13,3.73,2.2,-0.06,-0.06,-0.16,0.0,j
4052.0,917.0,2928.0,3503.0,2283.0,2367.0,2653.0,4095.0,9.2,3.62,2.26,-0.03,-0.02,-0.16,0.0,j
4035.0,918.0,2920.0,3494.0,2279.0,2366.0,2643.0,4095.0,9.04,3.94,2.07,-0.0,0.01,-0.17,0.0,j
4023.0,934.0,2923.0,3494.0,2277.0,2370.0,2654.0,4095.0,9.21,3.75,1.97,-0.01,0.01,-0.1,0.0,j
4095.0,919.0,2922.0,3447.0,2253.0,2416.0,2621.0,4095.0,-4.68,8.54,6.54,-0.04,0.13,-0.32,0.0,j
4095.0,917.0,2928.0,3300.0,2270.0,2389.0,2615.0,4095.0,-6.8,7.86,1.87,-2.09,0.5,1.78,0.0,j
4095.0,927.0,2923.0,3359.0,2221.0,2338.0,2621.0,4095.0,-1.85,0.53,4.29,-6.58,-3.42,3.46,0.0,j
4065.0,917.0,2924.0,3472.0,2219.0,2319.0,2665.0,4095.0,15.61,-7.27,5.48,-7.19,-8.73,0.71,0.0,j
4043.0,923.0,2925.0,3486.0,2230.0,2355.0,2676.0,4095.0,22.99,-0.38,4.25,-1.21,-4.25,-1.99,0.0,j
4059.0,923.0,2926.0,3405.0,2243.0,2379.0,2649.0,4095.0,8.8,2.11,1.94,-0.8,-0.52,-2.23,0.0,j
4055.0,928.0,2928.0,3440.0,2256.0,2381.0,2652.0,4095.0,6.78,3.4,3.03,-0.18,0.28,-0.63,0.0,j
4057.0,912.0,2928.0,3446.0,2266.0,2381.0,2658.0,4095.0,8.75,3.93,2.31,0.01,0.07,-0.18,0.0,j
4063.0,938.0,2927.0,3439.0,2279.0,2391.0,2659.0,4095.0,9.2,4.01,1.17,-0.06,0.08,-0.04,0.0,j
4039.0,927.0,2928.0,3458.0,2272.0,2397.0,2673.0,4095.0,8.97,3.9,1.29,-0.05,0.07,-0.1,0.0,j
4077.0,926.0,2925.0,3467.0,2277.0,2387.0,2679.0,4095.0,8.86,3.86,1.52,-0.12,-0.15,-0.24,0.0,j
4051.0,924.0,2937.0,3447.0,2285.0,2401.0,2674.0,4095.0,8.97,3.76,1.87,0.05,-0.06,-0.22,0.0,j
4033.0,926.0,2923.0,3463.0,2287.0,2399.0,2673.0,4095.0,8.89,3.93,1.92,-0.03,0.03,-0.15,0.0,j
4048.0,931.0,2928.0,3466.0,2287.0,2398.0,2677.0,4095.0,8.93,3.98,1.6,0.02,-0.01,-0.15,0.0,j
4058.0,920.0,2928.0,3479.0,2288.0,2386.0,2671.0,4095.0,8.87,3.96,1.7,-0.05,-0.12,-0.14,0.0,j
4062.0,938.0,2927.0,3469.0,2285.0,2387.0,2675.0,4095.0,9.13,3.9,1.6,-0.01,-0.07,-0.17,0.0,j
4039.0,934.0,2928.0,3462.0,2288.0,2387.0,2673.0,4095.0,9.02,3.98,1.47,-0.03,-0.0,-0.18,0.0,j
4049.0,922.0,2931.0,3467.0,2286.0,2395.0,2672.0,4095.0,8.82,4.13,1.61,-0.1,-0.01,-0.22,0.0,j
4033.0,925.0,2928.0,3479.0,2289.0,2397.0,2678.0,4095.0,8.74,4.13,1.63,-0.05,-0.04,-0.18,0.0,j
4048.0,934.0,2923.0,3469.0,2278.0,2402.0,2679.0,4095.0,9.14,4.14,1.47,-0.04,0.05,-0.16,0.0,j
4095.0,914.0,2917.0,3341.0,2256.0,2395.0,2638.0,4095.0,-5.43,8.14,6.55,0.0,-0.05,-0.09,0.0,j
4095.0,915.0,2919.0,3287.0,2258.0,2397.0,2642.0,4095.0,-5.77,6.73,2.14,-1.53,0.48,1.65,0.0,j
4095.0,917.0,2928.0,3361.0,2268.0,2352.0,2622.0,4095.0,-0.06,1.18,3.3,-5.56,-0.27,3.39,0.0,j
4080.0,919.0,2923.0,3440.0,2254.0,2367.0,2647.0,4095.0,6.42,-1.5,13.75,-6.45,-8.73,-0.08,0.0,j
4048.0,924.0,2935.0,3455.0,2253.0,2403.0,2675.0,4095.0,22.57,-1.03,6.85,-3.35,-8.73,-2.38,0.0,j
4065.0,944.0,2929.0,3378.0,2249.0,2407.0,2640.0,4095.0,10.66,2.41,2.45,-0.67,-2.0,-2.49,0.0,j
4043.0,940.0,2928.0,3351.0,2257.0,2425.0,2654.0,4095.0,7.23,3.93,1.86,-0.27,-0.11,-0.98,0.0,j
4053.0,941.0,2933.0,3379.0,2259.0,2431.0,2656.0,4095.0,7.3,4.49,1.78,0.02,-0.09,-0.53,0.0,j
4059.0,940.0,2919.0,3376.0,2262.0,2429.0,2652.0,4095.0,7.85,4.83,1.25,0.1,-0.02,-0.14,0.0,j
4048.0,931.0,2927.0,3392.0,2270.0,2421.0,2658.0,4095.0,8.21,4.63,1.06,0.12,-0.01,-0.14,0.0,j
4050.0,950.0,2929.0,3389.0,2270.0,2439.0,2657.0,4095.0,8.48,4.55,1.2,-0.04,-0.13,-0.14,0.0,j
4048.0,940.0,2925.0,3402.0,2277.0,2438.0,2653.0,4095.0,8.02,4.77,1.32,-0.03,-0.11,-0.21,0.0,j
4039.0,943.0,2928.0,3406.0,2279.0,2434.0,2657.0,4095.0,8.58,4.4,0.99,-0.04,0.04,-0.16,0.0,j
4034.0,942.0,2927.0,3408.0,2274.0,2432.0,2669.0,4095.0,8.21,4.79,1.24,-0.01,0.04,-0.19,0.0,j
4042.0,935.0,2928.0,3408.0,2269.0,2427.0,2666.0,4095.0,8.3,4.63,1.29,-0.03,0.05,-0.15,0.0,j
4048.0,938.0,2933.0,3399.0,2263.0,2427.0,2667.0,4095.0,8.34,4.65,1.26,-0.02,0.11,-0.13,0.0,j
4041.0,944.0,2917.0,3399.0,2271.0,2438.0,2659.0,4095.0,8.2,4.66,1.36,-0.05,-0.1,-0.15,0.0,j
4063.0,935.0,2941.0,3413.0,2272.0,2426.0,2669.0,4095.0,8.31,4.68,1.54,-0.04,-0.13,-0.14,0.0,j
4023.0,931.0,2933.0,3423.0,2281.0,2437.0,2670.0,4095.0,8.69,4.75,0.8,-0.07,-0.04,-0.14,0.0,j
4046.0,940.0,2929.0,3411.0,2273.0,2435.0,2663.0,4095.0,8.36,4.65,1.4,-0.04,-0.05,-0.22,0.0,j
4087.0,927.0,2919.0,3328.0,2254.0,2362.0,2626.0,4095.0,-6.35,7.51,4.05,-0.62,-0.21,0.68,0.0,j
4095.0,919.0,2917.0,3363.0,2261.0,2326.0,2609.0,4095.0,-9.54,1.86,1.27,-5.97,-3.0,5.18,0.0,j
4073.0,934.0,2923.0,3429.0,2182.0,2325.0,2619.0,4095.0,14.26,-7.19,3.14,-7.36,-8.73,3.0,0.0,j
4031.0,944.0,2924.0,3467.0,2170.0,2349.0,2658.0,4095.0,24.19,-0.5,1.39,-1.22,-3.18,-0.75,0.0,j
4016.0,965.0,2922.0,3426.0,2281.0,2352.0,2643.0,4095.0,10.94,1.98,2.18,-0.47,-1.17,-2.3,0.0,j
4021.0,949.0,2934.0,3415.0,2280.0,2363.0,2639.0,4095.0,7.74,2.65,2.51,-0.33,0.04,-0.95,0.0,j
4013.0,959.0,2928.0,3397.0,2286.0,2368.0,2640.0,4095.0,8.5,3.36,1.96,-0.15,0.0,-0.34,0.0,j
4018.0,950.0,2934.0,3399.0,2289.0,2377.0,2655.0,4095.0,8.91,3.4,1.55,-0.01,0.03,-0.08,0.0,j
4016.0,943.0,2928.0,3417.0,2290.0,2369.0,2651.0,4095.0,9.11,3.53,1.32,0.01,0.05,-0.11,0.0,j
4033.0,963.0,2929.0,3411.0,2294.0,2368.0,2657.0,4095.0,9.12,3.55,1.51,-0.04,0.16,-0.12,0.0,j
4025.0,951.0,2935.0,3427.0,2288.0,2377.0,2652.0,4095.0,9.07,3.54,1.34,0.02,0.03,-0.22,0.0,j
4023.0,956.0,2927.0,3430.0,2299.0,2379.0,2656.0,4095.0,8.66,3.57,1.74,-0.01,0.01,-0.19,0.0,j
4031.0,959.0,2929.0,3426.0,2288.0,2382.0,2650.0,4095.0,8.91,3.63,1.61,-0.02,-0.03,-0.11,0.0,j
4034.0,949.0,2926.0,3436.0,2290.0,2377.0,2659.0,4095.0,9.01,3.62,1.61,0.01,0.01,-0.11,0.0,j
4031.0,951.0,2928.0,3440.0,2290.0,2384.0,2657.0,4095.0,9.08,3.62,1.5,-0.04,0.02,-0.12,0.0,j
4021.0,960.0,2930.0,3447.0,2298.0,2384.0,2653.0,4095.0,9.05,3.62,1.4,-0.01,-0.04,-0.16,0.0,j
4049.0,945.0,2928.0,3459.0,2288.0,2384.0,2662.0,4095.0,8.8,3.68,1.71,0.02,0.01,-0.17,0.0,j
4007.0,944.0,2938.0,3455.0,2290.0,2389.0,2672.0,4095.0,9.38,3.35,1.01,0.06,-0.17,-0.13,0.0,j
4015.0,955.0,2928.0,3462.0,2287.0,2387.0,2660.0,4095.0,9.05,3.65,1.71,-0.01,-0.07,-0.2,0.0,j
4014.0,963.0,2938.0,3467.0,2294.0,2385.0,2672.0,4095.0,9.13,3.72,1.14,-0.07,0.01,-0.22,0.0,j
4077.0,925.0,2925.0,3344.0,2273.0,2412.0,2624.0,4095.0,-5.19,8.27,5.69,-0.14,0.06,0.02,0.0,j
4075.0,912.0,2922.0,3326.0,2283.0,2414.0,2636.0,4095.0,-5.72,7.92,1.97,-1.18,-0.14,0.25,0.0,j
4093.0,912.0,2923.0,3328.0,2256.0,2362.0,2639.0,4095.0,-3.95,0.99,2.65,-6.4,0.05,3.61,0.0,j
4078.0,937.0,2930.0,3488.0,2273.0,2363.0,2657.0,4095.0,14.03,-7.17,9.94,-6.74,-8.73,0.33,0.0,j
4045.0,937.0,2921.0,3450.0,2290.0,2382.0,2685.0,4095.0,21.18,-1.48,6.1,-1.16,-4.39,-1.25,0.0,j
4049.0,932.0,2932.0,3443.0,2298.0,2397.0,2682.0,4095.0,10.26,1.14,3.31,-0.34,-1.41,-1.86,0.0,j
4053.0,919.0,2929.0,3451.0,2298.0,2407.0,2674.0,4095.0,8.7,2.65,2.98,-0.09,-0.33,-1.07,0.0,j
4027.0,940.0,2927.0,3446.0,2303.0,2399.0,2672.0,4095.0,8.73,3.06,2.66,0.04,-0.13,-0.34,0.0,j
4035.0,925.0,2928.0,3463.0,2305.0,2407.0,2672.0,4095.0,9.38,3.3,2.12,0.27,-0.03,-0.06,0.0,j
4028.0,938.0,2928.0,3462.0,2305.0,2406.0,2665.0,4095.0,10.23,3.01,0.77,0.03,0.0,-0.14,0.0,j
4019.0,930.0,2931.0,3444.0,2299.0,2403.0,2672.0,4095.0,9.41,3.1,1.63,-0.01,0.07,-0.25,0.0,j
4021.0,931.0,2927.0,3456.0,2305.0,2401.0,2672.0,4095.0,9.21,3.13,1.62,-0.04,0.09,-0.18,0.0,j
4048.0,933.0,2928.0,3462.0,2315.0,2403.0,2674.0,4095.0,9.07,3.09,1.43,0.0,0.08,-0.19,0.0,j
4023.0,926.0,2929.0,3463.0,2304.0,2403.0,2679.0,4095.0,9.24,3.11,1.82,-0.04,0.03,-0.15,0.0,j
4037.0,919.0,2930.0,3471.0,2307.0,2399.0,2676.0,4095.0,9.08,3.25,1.62,0.01,0.03,-0.16,0.0,j
4034.0,925.0,2931.0,3472.0,2314.0,2405.0,2679.0,4095.0,9.32,3.14,1.66,-0.03,-0.01,-0.13,0.0,j
4045.0,928.0,2928.0,3468.0,2317.0,2408.0,2678.0,4095.0,9.1,3.14,1.85,0.02,0.03,-0.15,0.0,j
4026.0,927.0,2931.0,3479.0,2301.0,2395.0,2683.0,4095.0,9.29,3.2,1.76,0.02,-0.02,-0.16,0.0,j
4029.0,922.0,2929.0,3472.0,2310.0,2393.0,2687.0,4095.0,9.2,3.31,1.58,0.04,-0.02,-0.15,0.0,j
4032.0,926.0,2929.0,3471.0,2307.0,2401.0,2679.0,4095.0,9.27,3.31,1.83,-0.03,0.01,-0.12,0.0,j
4089.0,898.0,2918.0,3347.0,2264.0,2409.0,2629.0,4095.0,-4.83,8.2,6.45,-0.07,0.06,-0.04,0.0,j
4095.0,918.0,2928.0,3357.0,2278.0,2405.0,2633.0,4095.0,-5.51,8.17,5.16,-0.5,0.19,0.34,0.0,j
4095.0,912.0,2916.0,3361.0,2245.0,2374.0,2639.0,4095.0,-10.13,5.06,-1.23,-3.99,-1.06,3.96,0.0,j
4081.0,934.0,2928.0,3487.0,2289.0,2359.0,2634.0,4095.0,6.16,-9.06,10.73,-7.82,-6.4,3.26,0.0,j
4067.0,923.0,2930.0,3369.0,2278.0,2375.0,2688.0,4034.0,28.68,-4.75,-0.02,-4.7,-8.73,-1.51,0.0,j
4074.0,927.0,2926.0,3418.0,2290.0,2383.0,2665.0,4095.0,14.6,1.02,3.01,-1.02,-1.9,-2.28,0.0,j
4048.0,928.0,2927.0,3467.0,2303.0,2393.0,2667.0,4095.0,8.49,1.82,3.23,-0.37,-0.07,-1.25,0.0,j
4032.0,918.0,2928.0,3465.0,2307.0,2406.0,2674.0,4095.0,7.76,2.9,2.94,-0.15,-0.17,-0.53,0.0,j
4046.0,935.0,2928.0,3472.0,2304.0,2410.0,2677.0,4095.0,9.27,3.21,2.24,-0.12,-0.06,-0.2,0.0,j
4033.0,926.0,2935.0,3467.0,2305.0,2416.0,2677.0,4095.0,9.17,2.95,2.08,-0.1,-0.07,-0.16,0.0,j
4059.0,934.0,2928.0,3474.0,2300.0,2398.0,2683.0,4095.0,9.56,3.07,1.7,0.01,-0.09,-0.18,0.0,j
4049.0,923.0,2939.0,3473.0,2302.0,2400.0,2687.0,4095.0,9.18,3.2,1.6,0.06,-0.1,-0.24,0.0,j
4046.0,929.0,2930.0,3471.0,2317.0,2401.0,2686.0,4095.0,9.47,3.03,1.88,0.02,0.02,-0.19,0.0,j
4045.0,939.0,2927.0,3465.0,2314.0,2411.0,2688.0,4095.0,9.39,3.19,1.44,0.02,0.07,-0.2,0.0,j
4055.0,926.0,2929.0,3470.0,2317.0,2402.0,2691.0,4095.0,9.1,3.26,2.45,-0.04,0.07,-0.2,0.0,j
4029.0,921.0,2939.0,3474.0,2306.0,2410.0,2686.0,4095.0,9.16,3.28,1.92,-0.09,-0.0,-0.19,0.0,j
4022.0,933.0,2943.0,3464.0,2320.0,2400.0,2689.0,4095.0,9.12,3.33,2.18,-0.0,-0.04,-0.16,0.0,j
4047.0,925.0,2925.0,3463.0,2307.0,2401.0,2691.0,4095.0,9.41,3.27,2.29,0.2,0.11,-0.22,0.0,j
4027.0,930.0,2937.0,3466.0,2311.0,2397.0,2693.0,4095.0,9.4,3.32,1.88,0.11,-0.02,-0.21,0.0,j
4015.0,931.0,2925.0,3455.0,2306.0,2394.0,2684.0,4095.0,9.15,3.42,1.97,-0.03,-0.1,-0.18,0.0,j
4091.0,948.0,2923.0,3421.0,2224.0,2413.0,2629.0,4095.0,-5.97,7.55,2.4,-0.19,-0.03,0.13,0.0,j
4085.0,914.0,2919.0,3313.0,2239.0,2391.0,2622.0,4095.0,-5.09,5.12,0.15,-4.1,-0.87,4.34,0.0,j
4048.0,934.0,2916.0,3365.0,2224.0,2335.0,2639.0,4095.0,3.25,-2.72,11.19,-6.98,-6.79,2.69,0.0,j
4048.0,931.0,2928.0,3478.0,2193.0,2343.0,2711.0,4095.0,22.13,-5.35,5.95,-4.11,-8.73,-0.41,0.0,j
4047.0,947.0,2923.0,3408.0,2246.0,2383.0,2711.0,4095.0,14.05,1.61,2.83,-1.12,-2.41,-1.7,0.0,j
4031.0,950.0,2935.0,3440.0,2291.0,2384.0,2715.0,4095.0,8.44,2.17,3.14,-0.46,-0.33,-1.03,0.0,j
4045.0,944.0,2928.0,3489.0,2298.0,2401.0,2710.0,4095.0,8.74,2.55,2.92,-0.16,-0.1,-0.43,0.0,j
4038.0,939.0,2935.0,3488.0,2304.0,2401.0,2720.0,4095.0,9.54,2.83,2.52,-0.04,-0.06,-0.25,0.0,j
4023.0,943.0,2931.0,3489.0,2290.0,2402.0,2720.0,4095.0,9.34,2.91,1.95,-0.01,0.02,-0.16,0.0,j
4032.0,950.0,2927.0,3478.0,2298.0,2402.0,2724.0,4095.0,9.15,3.04,1.95,0.01,-0.05,-0.18,0.0,j
4035.0,946.0,2930.0,3497.0,2302.0,2413.0,2727.0,4095.0,9.28,3.0,1.94,0.06,0.02,-0.13,0.0,j
4016.0,938.0,2928.0,3481.0,2304.0,2390.0,2725.0,4095.0,9.38,2.92,2.42,0.02,0.01,-0.15,0.0,j
4031.0,944.0,2929.0,3489.0,2303.0,2405.0,2727.0,4095.0,9.42,2.92,2.0,-0.03,-0.05,-0.16,0.0,j
4007.0,944.0,2939.0,3502.0,2301.0,2400.0,2719.0,4095.0,9.26,3.01,1.84,0.05,0.03,-0.19,0.0,j
4016.0,947.0,2928.0,3502.0,2306.0,2407.0,2726.0,4095.0,9.23,3.0,2.21,0.02,0.03,-0.18,0.0,j
4038.0,947.0,2927.0,3502.0,2307.0,2400.0,2725.0,4095.0,9.18,3.08,2.33,0.03,0.01,-0.18,0.0,j
4018.0,946.0,2928.0,3504.0,2297.0,2410.0,2723.0,4095.0,9.42,3.0,1.86,0.01,-0.03,-0.16,0.0,j
4021.0,940.0,2929.0,3511.0,2297.0,2401.0,2714.0,4095.0,9.32,3.06,2.14,0.03,-0.02,-0.15,0.0,j
4031.0,951.0,2941.0,3511.0,2301.0,2398.0,2720.0,4095.0,9.29,3.09,2.17,-0.0,-0.03,-0.16,0.0,j
4039.0,942.0,2925.0,3516.0,2309.0,2414.0,2729.0,4095.0,9.51,3.08,1.96,0.02,-0.05,-0.16,0.0,j
4067.0,944.0,2928.0,3447.0,2263.0,2443.0,2633.0,4095.0,-5.8,8.39,6.18,-0.37,0.11,0.32,0.0,j
4095.0,944.0,2924.0,3398.0,2253.0,2337.0,2626.0,4095.0,-5.42,4.02,1.69,-5.52,-0.95,4.86,0.0,j
4071.0,951.0,2922.0,3513.0,2245.0,2327.0,2656.0,4095.0,5.81,-1.81,6.78,-6.31,-5.0,1.39,0.0,j
4027.0,955.0,2928.0,3652.0,2240.0,2350.0,2685.0,4095.0,20.82,-5.97,6.91,-4.9,-8.73,-1.94,0.0,j
4016.0,963.0,2933.0,3634.0,2282.0,2382.0,2709.0,4095.0,12.93,0.38,4.12,-0.31,-1.38,-1.64,0.0,j
4019.0,965.0,2929.0,3600.0,2279.0,2394.0,2700.0,4095.0,9.25,1.43,3.34,-0.1,0.06,-1.08,0.0,j
4023.0,979.0,2931.0,3562.0,2288.0,2395.0,2691.0,4095.0,8.26,2.09,3.6,0.06,0.06,-0.58,0.0,j
4011.0,962.0,2930.0,3554.0,2289.0,2399.0,2705.0,4095.0,9.58,2.17,2.94,0.03,-0.13,-0.19,0.0,j
4014.0,965.0,2933.0,3555.0,2301.0,2397.0,2701.0,4095.0,10.01,2.23,2.52,0.02,-0.11,-0.12,0.0,j
4018.0,973.0,2933.0,3534.0,2290.0,2407.0,2699.0,4095.0,9.73,2.24,2.59,0.1,-0.08,-0.17,0.0,j
3997.0,963.0,2943.0,3526.0,2289.0,2411.0,2697.0,4095.0,9.69,2.4,2.23,0.04,0.08,-0.15,0.0,j
3991.0,963.0,2928.0,3524.0,2295.0,2404.0,2698.0,4095.0,9.63,2.49,2.42,-0.07,0.01,-0.18,0.0,j
4015.0,976.0,2931.0,3546.0,2297.0,2407.0,2704.0,4095.0,9.75,2.19,2.73,-0.03,0.05,-0.15,0.0,j
4013.0,972.0,2928.0,3555.0,2289.0,2413.0,2695.0,4095.0,9.51,2.39,2.72,-0.07,0.01,-0.2,0.0,j
4016.0,976.0,2929.0,3554.0,2291.0,2413.0,2700.0,4095.0,9.74,2.32,2.93,-0.06,0.02,-0.17,0.0,j
4003.0,963.0,2939.0,3568.0,2288.0,2419.0,2702.0,4095.0,10.08,2.44,2.13,-0.01,0.08,-0.23,0.0,j
3982.0,971.0,2929.0,3563.0,2289.0,2412.0,2694.0,4095.0,9.49,2.63,2.82,-0.11,-0.02,-0.22,0.0,j
4019.0,977.0,2928.0,3559.0,2286.0,2411.0,2697.0,4095.0,9.54,2.74,3.01,-0.1,-0.02,-0.2,0.0,j
4002.0,972.0,2935.0,3547.0,2286.0,2402.0,2698.0,4095.0,9.31,2.76,2.91,-0.03,-0.07,-0.18,0.0,j
4012.0,973.0,2928.0,3536.0,2295.0,2416.0,2699.0,4095.0,9.51,2.68,2.79,0.02,-0.06,-0.11,0.0,j
4091.0,1259.0,2926.0,3425.0,2308.0,2451.0,2651.0,4095.0,-4.32,8.71,7.59,-0.03,0.06,-0.19,0.0,j
4080.0,1200.0,2929.0,3402.0,2305.0,2443.0,2640.0,4095.0,-5.36,6.18,3.65,-0.69,0.11,0.66,0.0,j
4074.0,922.0,2925.0,3280.0,2303.0,2393.0,2634.0,4095.0,-5.53,-1.12,1.93,-6.81,-1.48,6.81,0.0,j
4047.0,929.0,2932.0,3357.0,2283.0,2381.0,2672.0,4095.0,19.29,-4.05,0.68,-6.72,-8.73,2.53,0.0,j
4054.0,929.0,2929.0,3399.0,2251.0,2401.0,2698.0,4095.0,18.51,1.33,1.14,-1.04,-1.31,-0.48,0.0,j
4007.0,941.0,2927.0,3436.0,2279.0,2409.0,2704.0,4095.0,9.1,2.22,1.46,-0.08,0.6,-0.86,0.0,j
4038.0,931.0,2925.0,3441.0,2292.0,2411.0,2708.0,4095.0,8.27,2.21,2.74,-0.08,0.14,-0.49,0.0,j
4016.0,934.0,2937.0,3440.0,2297.0,2413.0,2705.0,4095.0,9.01,2.67,2.47,-0.02,0.09,-0.2,0.0,j
4030.0,943.0,2935.0,3450.0,2292.0,2405.0,2705.0,4095.0,9.68,2.61,1.59,-0.05,0.01,-0.12,0.0,j
4021.0,937.0,2926.0,3454.0,2302.0,2415.0,2709.0,4095.0,9.36,2.41,2.09,0.05,0.09,-0.15,0.0,j
4016.0,944.0,2919.0,3458.0,2307.0,2416.0,2704.0,4095.0,9.56,2.71,1.63,-0.02,0.04,-0.18,0.0,j
4016.0,946.0,2923.0,3445.0,2311.0,2407.0,2706.0,4095.0,9.19,2.68,2.02,0.05,-0.02,-0.16,0.0,j
4008.0,930.0,2925.0,3451.0,2311.0,2416.0,2705.0,4095.0,9.61,2.59,1.75,-0.04,0.0,-0.14,0.0,j
4029.0,930.0,2928.0,3447.0,2320.0,2418.0,2711.0,4095.0,9.46,2.68,1.81,0.02,0.01,-0.19,0.0,j
4030.0,942.0,2931.0,3451.0,2320.0,2416.0,2708.0,4095.0,9.22,2.84,1.92,-0.01,0.05,-0.19,0.0,j
4025.0,931.0,2922.0,3463.0,2321.0,2403.0,2717.0,4095.0,9.15,2.9,1.97,0.03,0.06,-0.18,0.0,j
4016.0,933.0,2928.0,3472.0,2321.0,2412.0,2704.0,4095.0,9.39,2.82,2.05,-0.06,-0.01,-0.16,0.0,j
4016.0,944.0,2931.0,3486.0,2320.0,2410.0,2703.0,4095.0,9.45,2.83,1.67,-0.03,-0.0,-0.18,0.0,j
4026.0,947.0,2928.0,3494.0,2315.0,2410.0,2709.0,4095.0,9.48,2.72,1.98,-0.0,0.05,-0.16,0.0,j
4016.0,938.0,2943.0,3489.0,2327.0,2414.0,2709.0,4095.0,9.49,2.89,1.91,-0.02,0.03,-0.18,0.0,j
4049.0,1057.0,2915.0,3287.0,2304.0,2443.0,2686.0,4095.0,-3.59,8.76,5.96,0.02,0.06,-0.17,0.0,j
4080.0,975.0,2928.0,3285.0,2302.0,2432.0,2672.0,4095.0,-4.54,5.87,3.05,-1.4,-0.6,0.78,0.0,j
4037.0,943.0,2928.0,3322.0,2282.0,2412.0,2675.0,4095.0,-1.9,0.94,3.6,-5.75,-4.42,5.31,0.0,j
3990.0,947.0,2932.0,3330.0,2163.0,2384.0,2734.0,4095.0,16.7,-5.7,4.21,-5.37,-8.73,1.32,0.0,j
4000.0,947.0,2939.0,3387.0,2288.0,2400.0,2754.0,4095.0,16.95,1.68,0.99,-0.93,-1.87,-0.19,0.0,j
3994.0,962.0,2926.0,3440.0,2271.0,2413.0,2759.0,4095.0,9.01,1.96,2.64,-0.34,-0.05,-1.18,0.0,j
3973.0,949.0,2931.0,3472.0,2278.0,2422.0,2767.0,4095.0,8.1,1.94,2.89,-0.21,0.12,-0.46,0.0,j
3971.0,954.0,2929.0,3472.0,2288.0,2416.0,2766.0,4095.0,9.24,2.07,2.43,-0.06,-0.1,-0.16,0.0,j
3975.0,953.0,2928.0,3477.0,2290.0,2409.0,2758.0,4095.0,9.34,2.69,2.0,-0.02,-0.07,-0.1,0.0,j
3994.0,946.0,2928.0,3494.0,2286.0,2420.0,2761.0,4095.0,9.89,2.57,1.89,0.06,-0.08,-0.28,0.0,j
3989.0,947.0,2929.0,3483.0,2294.0,2428.0,2773.0,4095.0,9.54,2.48,2.21,0.01,-0.01,-0.2,0.0,j
3970.0,953.0,2930.0,3491.0,2288.0,2416.0,2767.0,4095.0,9.45,2.63,2.03,0.03,-0.0,-0.23,0.0,j
3983.0,944.0,2928.0,3511.0,2291.0,2419.0,2767.0,4095.0,9.46,2.67,2.09,0.03,0.02,-0.2,0.0,j
3993.0,961.0,2925.0,3523.0,2303.0,2423.0,2765.0,4095.0,9.56,2.69,2.05,0.04,0.03,-0.21,0.0,j
3997.0,959.0,2927.0,3519.0,2305.0,2417.0,2768.0,4095.0,9.53,2.67,2.12,-0.03,0.03,-0.14,0.0,j
3982.0,970.0,2923.0,3536.0,2310.0,2416.0,2766.0,4095.0,9.5,2.66,2.48,-0.02,-0.06,-0.25,0.0,j
3985.0,946.0,2928.0,3534.0,2305.0,2419.0,2767.0,4095.0,9.6,2.68,2.36,-0.0,0.0,-0.2,0.0,j
3994.0,948.0,2927.0,3536.0,2299.0,2417.0,2767.0,4095.0,9.74,2.71,1.96,0.02,-0.02,-0.21,0.0,j
4003.0,961.0,2937.0,3525.0,2317.0,2421.0,2770.0,4095.0,9.43,2.76,2.34,0.02,0.05,-0.2,0.0,j
3987.0,960.0,2929.0,3536.0,2329.0,2423.0,2759.0,4095.0,9.31,2.98,2.24,-0.0,0.02,-0.21,0.0,j
4047.0,930.0,2923.0,3413.0,2304.0,2448.0,2629.0,4095.0,-4.32,8.7,6.75,0.12,-0.26,-0.11,0.0,j
4061.0,923.0,2921.0,3412.0,2310.0,2442.0,2608.0,4095.0,-6.19,8.32,4.74,-0.3,0.07,0.5,0.0,j
4095.0,921.0,2931.0,3376.0,2239.0,2357.0,2618.0,4095.0,-7.89,5.34,4.03,-4.77,1.39,4.73,0.0,j
4083.0,945.0,2928.0,3392.0,2267.0,2308.0,2654.0,4095.0,6.44,-2.66,8.39,-7.11,-3.84,2.08,0.0,j
4054.0,960.0,2931.0,3673.0,2285.0,2323.0,2672.0,4095.0,14.31,-6.36,8.83,-6.01,-8.55,-1.6,0.0,j
4027.0,948.0,2928.0,3535.0,2273.0,2366.0,2691.0,4095.0,18.03,-0.56,1.59,-0.56,-2.28,-1.21,0.0,j
4016.0,955.0,2932.0,3472.0,2277.0,2371.0,2689.0,4095.0,10.09,1.09,2.11,-0.24,0.24,-0.94,0.0,j
4011.0,934.0,2929.0,3454.0,2275.0,2373.0,2688.0,4095.0,8.64,1.35,2.86,-0.23,0.09,-0.52,0.0,j
3984.0,935.0,2929.0,3456.0,2278.0,2386.0,2691.0,4095.0,9.65,1.44,3.02,-0.14,-0.06,-0.29,0.0,j
4009.0,923.0,2934.0,3438.0,2277.0,2386.0,2678.0,4095.0,9.65,1.72,2.77,-0.04,-0.07,-0.18,0.0,j
3991.0,930.0,2929.0,3450.0,2291.0,2394.0,2693.0,4095.0,9.84,1.78,2.43,-0.03,0.01,-0.1,0.0,j
4000.0,939.0,2927.0,3473.0,2289.0,2407.0,2699.0,4095.0,9.48,1.99,2.16,0.01,0.04,-0.11,0.0,j
3986.0,943.0,2935.0,3471.0,2289.0,2397.0,2693.0,4095.0,9.58,1.83,2.19,-0.02,-0.02,-0.14,0.0,j
3984.0,935.0,2928.0,3485.0,2293.0,2394.0,2688.0,4095.0,9.65,1.9,2.22,-0.03,0.03,-0.14,0.0,j
3997.0,937.0,2928.0,3472.0,2303.0,2398.0,2693.0,4095.0,9.49,1.99,1.94,-0.05,0.06,-0.13,0.0,j
3966.0,922.0,2933.0,3482.0,2311.0,2406.0,2690.0,4095.0,9.55,1.93,2.37,-0.08,0.01,-0.18,0.0,j
3983.0,929.0,2937.0,3471.0,2308.0,2410.0,2697.0,4095.0,9.83,2.06,2.19,-0.08,0.02,-0.19,0.0,j
3970.0,926.0,2921.0,3471.0,2318.0,2406.0,2689.0,4095.0,9.61,1.94,2.38,-0.07,-0.01,-0.13,0.0,j
3958.0,922.0,2922.0,3473.0,2316.0,2401.0,2699.0,4095.0,9.79,2.01,2.29,-0.0,-0.09,-0.19,0.0,j
3955.0,929.0,2928.0,3479.0,2318.0,2402.0,2694.0,4095.0,9.67,2.09,2.41,-0.05,-0.02,-0.18,0.0,j
