hall_1,hall_2,hall_3,flex_t,flex_i,flex_m,flex_r,flex_p,accel_x,accel_y,accel_z,gyro_x,gyro_y,gyro_z,sign
1555.0,3731.0,3221.0,2767.0,3025.0,3254.0,2487.0,4095.0,2.83,8.92,2.08,-0.09,-0.06,0.08,j
1553.0,3738.0,3216.0,2735.0,3021.0,3258.0,2503.0,4095.0,2.83,9.07,2.12,0.1,0.0,0.05,j
1562.0,3730.0,3235.0,2737.0,3035.0,3248.0,2479.0,4095.0,2.94,9.02,1.85,-0.07,-0.12,0.07,j
1552.0,3729.0,3215.0,2746.0,3035.0,3249.0,2491.0,4095.0,3.34,8.82,1.95,0.07,0.01,0.15,j
1533.0,3718.0,3207.0,2736.0,3021.0,3249.0,2480.0,4095.0,3.37,9.06,1.2,-0.19,-0.06,0.11,j
1503.0,3698.0,3191.0,2721.0,3006.0,3234.0,2456.0,4095.0,4.92,8.78,2.13,-0.3,-0.28,0.26,j
1507.0,3673.0,3190.0,2732.0,2993.0,3193.0,2451.0,4095.0,7.34,8.57,1.86,-0.47,0.06,-0.73,j
1459.0,3628.0,3126.0,2870.0,2951.0,3239.0,2382.0,4095.0,6.83,8.03,0.2,-1.2,-0.39,-2.55,j
1722.0,3583.0,3132.0,2795.0,3034.0,3103.0,2387.0,4095.0,8.23,6.09,-1.27,-3.04,-0.76,-6.18,j
1607.0,3559.0,3143.0,2782.0,3033.0,3110.0,2418.0,4095.0,-0.47,0.33,-3.53,-5.65,-0.3,-6.61,j
1594.0,3554.0,3139.0,2903.0,2915.0,3071.0,2393.0,4095.0,-3.9,-3.94,-1.54,-7.73,1.89,-5.11,j
1599.0,3751.0,3114.0,3059.0,2988.0,3062.0,2384.0,4095.0,-10.51,-10.88,-1.64,-8.43,4.32,-3.37,j
1499.0,3959.0,3094.0,2752.0,2948.0,3051.0,2384.0,4095.0,-17.82,-14.88,1.78,-7.67,3.85,-0.61,j
1611.0,4095.0,3104.0,2790.0,3053.0,3082.0,2370.0,4095.0,-29.54,-14.39,3.3,-3.37,0.67,4.98,j
4063.0,4095.0,3082.0,2598.0,2903.0,3028.0,2267.0,4095.0,-21.75,-6.6,2.56,-2.46,2.75,8.05,j
1625.0,4095.0,3129.0,2786.0,3017.0,3139.0,2371.0,4095.0,-10.34,-6.53,3.78,0.16,-3.91,8.73,j
1587.0,4095.0,3138.0,2640.0,2910.0,3170.0,2363.0,4095.0,-2.75,1.46,1.66,1.53,-1.99,7.36,j
1585.0,4021.0,3055.0,2649.0,2922.0,3151.0,2367.0,4095.0,0.04,7.73,-0.15,0.6,-0.96,4.59,j
1510.0,4041.0,3123.0,2649.0,2919.0,3159.0,2357.0,4095.0,5.17,3.83,4.25,-0.38,-1.3,2.4,j
1507.0,4014.0,3118.0,2581.0,2847.0,3152.0,2370.0,4095.0,1.42,5.94,4.49,0.25,-0.27,0.83,j
1494.0,3891.0,3081.0,2886.0,3021.0,3114.0,2401.0,4095.0,3.05,8.59,3.31,-0.07,-0.09,0.03,j
1509.0,3908.0,3088.0,2777.0,3023.0,3107.0,2407.0,4095.0,3.66,8.39,3.46,-0.02,0.01,0.16,j
1515.0,3888.0,3081.0,2806.0,3035.0,3126.0,2416.0,4095.0,3.65,8.34,2.97,-0.05,-0.26,0.09,j
1517.0,3901.0,3088.0,2781.0,3037.0,3130.0,2416.0,4095.0,4.41,8.41,2.38,-0.28,-0.19,-0.14,j
1526.0,3872.0,3098.0,2768.0,3031.0,3121.0,2419.0,4095.0,4.89,8.45,1.82,-0.85,-0.25,-0.84,j
1488.0,3755.0,2961.0,2881.0,3009.0,3083.0,2377.0,4095.0,5.71,8.72,1.99,-1.58,-0.39,-2.29,j
1933.0,3787.0,3024.0,2838.0,3049.0,3143.0,2487.0,4095.0,5.14,6.78,0.21,-4.09,-0.44,-4.3,j
1720.0,3775.0,3183.0,3120.0,3152.0,3740.0,2852.0,4095.0,3.23,2.85,1.4,-5.68,-0.26,-3.92,j
1780.0,4095.0,3101.0,3203.0,3195.0,3146.0,2672.0,4095.0,-3.05,0.05,1.95,-6.91,3.63,-3.2,j
1871.0,4095.0,3089.0,2789.0,2955.0,3115.0,2782.0,4095.0,-6.05,-3.66,2.48,-7.47,3.65,-0.77,j
1688.0,4095.0,3061.0,2789.0,2925.0,3335.0,2799.0,4095.0,-12.83,-8.88,0.58,-8.32,4.59,1.67,j
1502.0,4095.0,3277.0,2863.0,2960.0,3323.0,3137.0,4095.0,-17.64,-11.62,4.26,-6.0,4.07,4.37,j
1380.0,4095.0,3060.0,2809.0,2918.0,3209.0,2476.0,4095.0,-15.11,-5.37,1.14,-3.2,4.02,4.85,j
1361.0,4095.0,3050.0,2743.0,2884.0,3308.0,2544.0,4095.0,-12.33,-1.89,0.05,-2.18,1.7,3.75,j
1968.0,4095.0,3029.0,2826.0,2941.0,3141.0,2498.0,4095.0,-10.93,0.02,0.5,-0.88,1.23,3.44,j
1354.0,4095.0,3017.0,2837.0,2957.0,3161.0,2484.0,4095.0,-8.2,1.6,-1.37,-0.08,-0.45,1.1,j
1343.0,4095.0,3005.0,2843.0,2960.0,3138.0,2479.0,4095.0,-8.63,1.9,-0.77,-0.26,-0.42,0.44,j
1343.0,4095.0,2999.0,2831.0,2970.0,3115.0,2466.0,4095.0,-7.78,2.44,-0.79,0.4,-0.92,-0.42,j
3890.0,4095.0,2979.0,2769.0,2942.0,3105.0,2457.0,4095.0,-9.15,2.65,-0.74,0.06,-0.12,-0.13,j
1338.0,4095.0,2998.0,2758.0,2917.0,3117.0,2473.0,4095.0,-9.06,3.11,-1.52,0.3,-0.35,-0.0,j
1300.0,4095.0,3035.0,2615.0,2863.0,3033.0,2400.0,4095.0,4.22,7.78,3.62,-0.09,0.01,0.1,j
1322.0,4095.0,3056.0,2631.0,2879.0,3053.0,2415.0,4095.0,4.59,7.77,3.45,-0.09,-0.04,0.07,j
1412.0,4095.0,3110.0,2687.0,2927.0,3116.0,2473.0,4095.0,4.81,7.76,3.18,-0.07,-0.0,0.02,j
1456.0,4095.0,3146.0,2714.0,2960.0,3148.0,2505.0,4095.0,5.39,7.76,2.93,-0.22,-0.07,-0.07,j
1488.0,4095.0,3167.0,2717.0,2961.0,3159.0,2513.0,4095.0,7.19,8.19,1.59,-1.02,0.18,-0.83,j
1503.0,4095.0,3171.0,2669.0,2928.0,3134.0,2434.0,4095.0,7.78,7.61,-0.88,-3.31,-0.26,-3.38,j
1862.0,4095.0,3234.0,2914.0,3035.0,3171.0,2582.0,4095.0,5.97,3.3,-2.18,-6.94,1.82,-4.85,j
1777.0,4095.0,3130.0,2783.0,2959.0,3061.0,2484.0,4095.0,-1.22,-1.59,-1.91,-8.73,5.08,-3.32,j
2494.0,4095.0,3107.0,3178.0,3321.0,3100.0,2549.0,4095.0,-8.98,-7.37,-3.71,-8.73,6.18,-1.17,j
1370.0,4095.0,3106.0,2736.0,2977.0,3136.0,2522.0,4095.0,-25.32,-16.11,-0.7,-7.61,5.35,2.82,j
1454.0,4095.0,3090.0,2706.0,2885.0,3141.0,2494.0,4095.0,-24.76,-12.62,7.68,-3.5,0.51,6.77,j
2559.0,4095.0,3039.0,2691.0,2930.0,3166.0,2429.0,4095.0,-13.62,-7.06,8.2,1.4,-0.44,8.73,j
1483.0,4095.0,3051.0,2613.0,2850.0,3233.0,2398.0,4095.0,-0.3,-0.38,-1.31,1.71,-2.6,7.59,j
1490.0,4095.0,3066.0,2703.0,2937.0,3153.0,2415.0,4095.0,0.35,3.45,3.06,0.04,0.92,4.17,j
1486.0,4095.0,3071.0,2719.0,2953.0,3187.0,2436.0,4095.0,-0.56,4.98,7.34,-0.08,-0.14,1.67,j
1477.0,4095.0,3061.0,2711.0,2966.0,3152.0,2423.0,4095.0,-0.41,6.84,3.54,0.47,-0.61,0.29,j
1437.0,4095.0,3038.0,2721.0,2992.0,3143.0,2415.0,4095.0,-3.34,7.1,2.52,0.19,-0.03,-0.63,j
1422.0,4095.0,3043.0,2723.0,2987.0,3142.0,2425.0,4095.0,-6.43,8.06,2.34,0.1,-0.21,-0.41,j
1488.0,4095.0,3083.0,2768.0,3039.0,3187.0,2475.0,4095.0,-4.92,8.33,1.52,0.3,-0.19,-0.1,j
1501.0,4095.0,3090.0,2768.0,3046.0,3207.0,2483.0,4095.0,-4.05,8.17,2.05,0.04,-0.07,-0.27,j
1489.0,3790.0,3197.0,2858.0,3093.0,3377.0,2763.0,4095.0,2.82,7.87,4.58,-0.05,0.07,0.06,j
1448.0,3759.0,3170.0,2841.0,3071.0,3345.0,2737.0,4095.0,2.58,7.73,3.67,-0.05,-0.05,-0.07,j
1454.0,3745.0,3186.0,2853.0,3060.0,3350.0,2739.0,4095.0,2.8,7.77,3.64,-0.37,-0.31,-0.17,j
1424.0,3667.0,3174.0,2820.0,3056.0,3337.0,2711.0,4095.0,4.24,8.34,3.29,-0.63,-0.4,-0.53,j
1378.0,3521.0,3170.0,2711.0,3008.0,3278.0,2666.0,4095.0,7.24,8.99,1.71,-1.88,-1.08,-3.17,j
1535.0,3559.0,3280.0,2811.0,3115.0,3378.0,2736.0,4095.0,4.26,3.96,-1.91,-5.08,-0.38,-5.73,j
2247.0,3534.0,3259.0,2741.0,2938.0,3321.0,2755.0,4095.0,4.06,-1.45,-0.88,-8.73,2.48,-5.13,j
1404.0,2321.0,3115.0,2867.0,2954.0,3107.0,2597.0,4095.0,-10.47,-7.97,-2.75,-8.73,6.21,-0.98,j
4095.0,2160.0,3104.0,2797.0,2817.0,3163.0,2624.0,4095.0,-23.73,-15.17,-1.75,-8.73,5.41,4.5,j
2971.0,2144.0,3039.0,2800.0,2871.0,3171.0,2609.0,4095.0,-26.51,-11.54,5.1,-3.99,3.45,6.72,j
1527.0,2193.0,3056.0,2802.0,2974.0,3245.0,2534.0,4095.0,-13.13,-4.83,6.44,0.6,-0.33,8.17,j
1456.0,2202.0,3047.0,2657.0,2855.0,3217.0,2610.0,4095.0,-2.76,3.44,-2.26,0.43,1.18,5.25,j
1318.0,2197.0,3051.0,2675.0,2861.0,3222.0,2667.0,4095.0,-3.42,4.9,0.59,-0.36,-0.51,1.59,j
1328.0,2193.0,3045.0,2771.0,2963.0,3222.0,2610.0,4095.0,-6.18,4.22,3.35,-0.17,-0.16,0.33,j
1360.0,2197.0,3070.0,2739.0,2946.0,3216.0,2557.0,4095.0,-5.79,5.46,1.26,0.24,-0.53,0.04,j
1343.0,2192.0,3063.0,2763.0,2992.0,3216.0,2772.0,4095.0,-7.97,5.6,0.58,0.21,-0.11,-0.13,j
1345.0,2193.0,3059.0,2763.0,3002.0,3225.0,2551.0,4095.0,-8.13,6.16,-0.05,0.27,-0.12,-0.0,j
1345.0,2195.0,3071.0,2741.0,2997.0,3231.0,2522.0,4095.0,-7.89,6.62,-0.49,0.24,-0.29,0.13,j
1344.0,2194.0,3085.0,2739.0,3007.0,3219.0,2512.0,4095.0,-7.2,6.34,-0.21,0.08,0.01,0.0,j
1335.0,2185.0,3081.0,2674.0,2951.0,3216.0,2517.0,4095.0,-6.75,6.1,-0.24,0.12,0.02,-0.21,j
1504.0,2352.0,3344.0,2736.0,3031.0,3354.0,2637.0,4095.0,5.1,6.79,4.74,0.0,-0.09,0.01,j
1477.0,2332.0,3317.0,2715.0,3008.0,3344.0,2619.0,4095.0,4.82,6.73,4.42,-0.11,-0.06,-0.03,j
1450.0,2299.0,3312.0,2710.0,2990.0,3318.0,2606.0,4095.0,5.01,6.73,4.49,0.0,0.18,0.01,j
1393.0,2277.0,3280.0,2670.0,2968.0,3290.0,2559.0,4095.0,6.39,6.72,4.43,-0.14,0.15,-0.12,j
1400.0,2275.0,3289.0,2641.0,2932.0,3268.0,2589.0,4095.0,10.21,7.86,2.7,-0.77,0.18,-1.88,j
1429.0,2305.0,3297.0,2659.0,2928.0,3279.0,2656.0,4095.0,10.09,5.13,-2.24,-3.72,0.17,-4.78,j
2047.0,2275.0,3271.0,2639.0,2927.0,3239.0,2637.0,4095.0,2.98,-0.62,-7.75,-8.18,3.95,-5.32,j
1488.0,2243.0,3234.0,2757.0,2945.0,3211.0,2677.0,4095.0,-8.64,-7.03,-7.98,-8.73,8.31,-1.78,j
1309.0,2129.0,3181.0,2848.0,2907.0,3143.0,2609.0,4095.0,-29.77,-16.15,-1.65,-8.73,6.62,3.5,j
1519.0,2147.0,3139.0,2944.0,2907.0,3193.0,2595.0,4095.0,-29.08,-12.87,6.1,-4.43,1.52,6.12,j
1274.0,2135.0,3115.0,2959.0,2951.0,3251.0,2589.0,4095.0,-12.39,-7.14,6.67,-1.13,0.69,8.65,j
1263.0,2125.0,3119.0,2864.0,2916.0,3386.0,2579.0,4095.0,-0.6,0.36,1.79,-0.11,-1.14,4.05,j
1303.0,2103.0,3110.0,2855.0,2919.0,3361.0,2559.0,4095.0,-5.07,1.93,3.08,-0.22,0.51,1.36,j
1296.0,2103.0,3093.0,2715.0,2797.0,3387.0,2543.0,4095.0,-7.82,2.32,3.3,0.26,-0.87,0.13,j
1296.0,2110.0,3091.0,2838.0,2942.0,3407.0,2548.0,4095.0,-8.74,4.22,0.92,0.5,-0.36,0.39,j
1328.0,2110.0,3106.0,2883.0,2983.0,3451.0,2581.0,4095.0,-7.78,4.79,1.2,0.13,0.13,0.24,j
1316.0,2110.0,3099.0,2831.0,2947.0,3504.0,2559.0,4095.0,-7.53,4.92,1.64,0.18,-0.2,0.09,j
1318.0,2097.0,3099.0,2864.0,2997.0,3500.0,2547.0,4095.0,-7.75,5.18,1.35,0.23,0.06,-0.03,j
1328.0,2096.0,3091.0,2890.0,3035.0,3495.0,2544.0,4095.0,-8.02,5.37,1.17,0.09,-0.1,-0.06,j
1314.0,2087.0,3091.0,2830.0,2969.0,3490.0,2537.0,4095.0,-7.94,5.28,1.46,-0.06,-0.1,-0.08,j
1350.0,2134.0,3133.0,2719.0,2945.0,3156.0,2515.0,4095.0,4.47,7.07,4.74,-0.02,-0.05,-0.0,j
1351.0,2131.0,3145.0,2736.0,2955.0,3165.0,2524.0,4095.0,3.93,6.77,4.67,0.02,-0.08,0.09,j
1350.0,2135.0,3132.0,2725.0,2939.0,3172.0,2526.0,4095.0,4.72,6.94,4.24,0.05,-0.37,0.11,j
1347.0,2137.0,3133.0,2721.0,2947.0,3151.0,2523.0,4095.0,5.95,6.82,3.62,-0.21,-0.19,-0.09,j
1328.0,2129.0,3122.0,2650.0,2899.0,3133.0,2493.0,4095.0,9.16,7.78,1.74,-0.9,0.45,-0.98,j
1350.0,2160.0,3131.0,2559.0,2853.0,3146.0,2495.0,4095.0,12.29,6.72,-2.11,-3.55,1.19,-4.57,j
1309.0,2178.0,3146.0,2559.0,2858.0,3122.0,2500.0,4095.0,2.88,-0.2,-7.0,-8.13,3.48,-6.13,j
1210.0,2122.0,3091.0,2615.0,2821.0,3049.0,2484.0,4095.0,-5.49,-8.45,-7.18,-8.73,5.04,-4.1,j
1283.0,2150.0,3135.0,2797.0,2832.0,3055.0,2556.0,4095.0,-16.84,-16.94,-6.6,-8.73,4.96,-0.78,j
2218.0,2164.0,3120.0,2890.0,2865.0,3067.0,2559.0,4095.0,-23.89,-17.96,2.92,-6.61,2.67,3.29,j
1691.0,2224.0,3123.0,2925.0,2924.0,3141.0,2539.0,4095.0,-23.44,-13.8,4.73,-1.94,-0.73,6.13,j
4095.0,2218.0,3108.0,2730.0,2877.0,3152.0,2619.0,4095.0,-14.29,-7.34,2.77,0.85,-1.04,8.18,j
1488.0,2240.0,3112.0,2739.0,2919.0,3219.0,2499.0,4095.0,-6.48,-3.19,1.02,1.1,-0.86,6.68,j
1425.0,2253.0,3117.0,2777.0,2967.0,3351.0,2511.0,4095.0,-3.84,0.48,2.83,0.19,-1.4,3.5,j
1513.0,2261.0,3127.0,2805.0,3006.0,3280.0,2526.0,4095.0,-3.91,2.79,5.03,0.7,-0.36,1.94,j
1458.0,2266.0,3127.0,2831.0,3034.0,3203.0,2523.0,4095.0,-3.91,4.96,2.99,0.61,-0.19,0.9,j
1456.0,2271.0,3127.0,2778.0,2967.0,3209.0,2526.0,4095.0,-6.23,6.13,2.24,0.32,-0.22,0.16,j
1421.0,2268.0,3121.0,2802.0,3021.0,3201.0,2527.0,4095.0,-6.03,6.68,2.42,0.16,0.14,-0.08,j
1420.0,2257.0,3123.0,2752.0,2962.0,3203.0,2531.0,4095.0,-6.17,6.9,2.0,0.18,-0.19,-0.16,j
1421.0,2271.0,3122.0,2765.0,2988.0,3204.0,2539.0,4095.0,-6.71,6.72,2.2,-0.01,0.07,-0.18,j
1222.0,2269.0,3161.0,2651.0,2820.0,3168.0,2543.0,4095.0,4.05,7.38,4.37,0.07,0.7,0.13,j
1150.0,2243.0,3051.0,2629.0,2785.0,3184.0,2530.0,4095.0,3.95,7.81,4.01,0.0,0.25,-0.02,j
1133.0,2240.0,3152.0,2627.0,2795.0,3159.0,2519.0,4095.0,3.83,7.12,4.91,-0.07,0.03,-0.01,j
1156.0,2254.0,3163.0,2639.0,2803.0,3168.0,2535.0,4095.0,4.33,7.83,4.46,0.13,0.1,0.1,j
1152.0,2251.0,3147.0,2633.0,2801.0,3150.0,2531.0,4095.0,4.53,7.15,4.36,-0.2,-0.25,-0.22,j
1149.0,2253.0,3143.0,2627.0,2791.0,3151.0,2533.0,4095.0,5.19,6.37,3.78,-0.18,-0.22,-0.25,j
1141.0,2256.0,3119.0,2608.0,2768.0,3141.0,2533.0,4095.0,7.13,6.83,1.99,-0.9,0.14,-1.14,j
1160.0,2285.0,3143.0,2814.0,2763.0,3142.0,2518.0,4095.0,8.65,5.64,-0.09,-2.67,0.36,-4.41,j
1386.0,2289.0,3153.0,2512.0,2800.0,3157.0,2515.0,4095.0,-0.22,1.52,-1.87,-5.43,2.17,-5.39,j
1210.0,2297.0,3124.0,2554.0,2801.0,3120.0,2541.0,4095.0,-3.36,-1.27,1.37,-7.23,3.88,-3.89,j
1258.0,2291.0,3150.0,2641.0,2823.0,3120.0,2649.0,4095.0,-13.16,-6.82,3.84,-6.3,4.16,-1.46,j
4095.0,2262.0,3120.0,2702.0,2834.0,3071.0,2834.0,4095.0,-13.35,-6.49,6.34,-4.91,3.16,0.29,j
3813.0,2327.0,3169.0,2771.0,2878.0,3147.0,2606.0,4095.0,-13.09,-5.76,3.51,-4.15,3.74,1.96,j
3472.0,2343.0,3183.0,2790.0,2897.0,3157.0,2606.0,4095.0,-17.07,-5.54,1.45,-3.81,3.03,3.55,j
2277.0,2361.0,3171.0,2891.0,2996.0,3196.0,2656.0,4095.0,-17.67,-4.96,1.61,-2.21,1.14,3.84,j
4095.0,2363.0,3151.0,2814.0,2922.0,3200.0,3005.0,4095.0,-13.93,-2.3,0.73,-1.26,0.26,4.83,j
2685.0,2352.0,3152.0,2765.0,2897.0,3216.0,2614.0,4095.0,-10.66,0.4,0.49,-0.49,-0.5,4.81,j
1728.0,2352.0,3150.0,2734.0,2879.0,3219.0,2551.0,4095.0,-6.88,2.95,0.45,-0.0,-0.87,3.76,j
1395.0,2358.0,3140.0,2736.0,2899.0,3214.0,2549.0,4095.0,-3.29,4.01,2.5,-0.1,-1.12,2.03,j
1424.0,2353.0,3142.0,2742.0,2902.0,3216.0,2544.0,4095.0,-3.6,4.71,2.86,0.11,-0.98,0.67,j
1246.0,2321.0,3135.0,2852.0,2960.0,3175.0,2525.0,4095.0,3.9,7.58,4.18,-0.04,-0.04,-0.02,j
1236.0,2305.0,3120.0,2865.0,2954.0,3163.0,2519.0,4095.0,4.08,7.54,4.34,-0.07,-0.03,0.02,j
1238.0,2319.0,3134.0,2880.0,2953.0,3169.0,2525.0,4095.0,4.33,7.52,4.21,-0.08,-0.01,0.02,j
1239.0,2315.0,3125.0,2877.0,2959.0,3167.0,2523.0,4095.0,4.33,7.47,3.98,-0.08,-0.03,-0.05,j
1239.0,2323.0,3135.0,2880.0,2965.0,3164.0,2529.0,4095.0,4.55,7.62,3.54,-0.52,-0.12,-0.22,j
1235.0,2320.0,3138.0,2841.0,2935.0,3150.0,2523.0,4095.0,4.7,7.3,4.28,-0.77,-0.15,-0.47,j
1237.0,2320.0,3137.0,2797.0,2915.0,3132.0,2498.0,4095.0,6.54,8.99,4.07,-1.36,-0.29,-1.81,j
1287.0,2289.0,3083.0,2608.0,2935.0,3069.0,2447.0,4095.0,6.9,7.37,2.12,-3.66,-0.25,-4.69,j
1511.0,2301.0,3065.0,2608.0,2896.0,3071.0,2510.0,4095.0,0.92,3.32,0.99,-7.1,4.95,-3.86,j
1617.0,2423.0,3120.0,2788.0,2960.0,3163.0,2727.0,4095.0,-10.16,-0.73,-0.28,-8.73,8.73,1.41,j
1408.0,2480.0,3122.0,2897.0,3032.0,3219.0,3425.0,4095.0,-19.39,-8.69,6.93,-6.8,7.02,8.73,j
1393.0,2508.0,3107.0,2690.0,2949.0,3253.0,2645.0,4095.0,-12.94,-3.73,13.32,-0.82,3.27,8.73,j
1461.0,2529.0,3143.0,2587.0,2911.0,3295.0,2653.0,4095.0,4.04,5.11,0.91,2.45,-0.7,3.42,j
1764.0,2559.0,3184.0,2704.0,3038.0,3328.0,2695.0,4095.0,-4.92,7.2,0.84,0.22,-0.52,-0.41,j
1215.0,2743.0,3351.0,2542.0,2847.0,3491.0,2864.0,4095.0,-8.43,5.64,3.32,0.32,-0.23,-0.13,j
1348.0,2515.0,3143.0,2593.0,2883.0,3296.0,2658.0,4095.0,-5.97,7.03,2.27,0.2,-0.35,0.01,j
1347.0,2485.0,3133.0,2591.0,2865.0,3275.0,2624.0,4095.0,-6.99,6.64,2.95,0.17,-0.12,0.05,j
1342.0,2464.0,3115.0,2617.0,2884.0,3257.0,2608.0,4095.0,-5.97,6.75,1.94,0.17,-0.06,0.27,j
1274.0,2554.0,3182.0,2581.0,2851.0,3330.0,2694.0,4095.0,-5.43,6.7,1.94,0.06,-0.2,0.13,j
1264.0,2484.0,3127.0,2608.0,2880.0,3280.0,2634.0,4095.0,-5.96,6.66,2.27,0.0,-0.04,-0.0,j
1600.0,2533.0,3232.0,2877.0,3088.0,3282.0,2559.0,4095.0,4.3,7.49,3.35,-0.11,-0.05,0.04,j
1605.0,2539.0,3237.0,2882.0,3092.0,3280.0,2583.0,4095.0,4.89,7.13,3.9,-0.12,-0.04,0.1,j
1598.0,2537.0,3233.0,2882.0,3093.0,3280.0,2587.0,4095.0,5.32,7.2,3.2,-0.11,-0.04,0.04,j
1485.0,2459.0,3162.0,2811.0,3015.0,3216.0,2511.0,4095.0,7.37,6.83,1.89,-0.04,0.1,-0.18,j
1403.0,2350.0,3037.0,2910.0,2880.0,3069.0,2422.0,4095.0,7.64,6.51,0.12,-0.8,0.6,-0.73,j
1415.0,2384.0,3047.0,2622.0,2881.0,3063.0,2295.0,4095.0,7.9,6.51,1.32,-2.6,0.33,-2.94,j
1392.0,2373.0,3042.0,2705.0,2832.0,3059.0,2443.0,4095.0,5.46,3.29,1.98,-4.75,1.31,-4.94,j
1360.0,2366.0,3047.0,2655.0,2890.0,3049.0,2474.0,4095.0,-0.67,-1.82,2.56,-6.5,1.91,-4.53,j
1424.0,2384.0,3060.0,2695.0,2921.0,3060.0,2535.0,4095.0,-4.29,-4.52,2.01,-6.18,3.19,-2.82,j
1935.0,2383.0,3063.0,2629.0,2833.0,3047.0,2528.0,4095.0,-7.76,-7.8,1.86,-6.82,3.67,-1.87,j
1475.0,2357.0,3055.0,2623.0,2802.0,3037.0,2539.0,4095.0,-11.98,-10.02,2.11,-6.1,3.26,0.41,j
1245.0,2367.0,3058.0,2595.0,2773.0,3039.0,2529.0,4095.0,-16.26,-10.93,2.02,-4.64,2.6,2.37,j
1715.0,2373.0,3053.0,2549.0,2719.0,3056.0,2527.0,4095.0,-16.34,-9.87,3.71,-3.57,1.89,4.08,j
4095.0,2384.0,3041.0,2689.0,2870.0,3090.0,2531.0,4095.0,-17.87,-7.77,1.29,-1.88,0.44,5.24,j
4095.0,2399.0,3066.0,2704.0,2911.0,3145.0,2554.0,4095.0,-13.95,-5.04,0.74,-0.68,-0.22,6.56,j
1511.0,2405.0,3059.0,2656.0,2865.0,3159.0,2550.0,4095.0,-11.75,-1.96,0.74,-0.15,-1.35,5.86,j
1261.0,2415.0,3085.0,2642.0,2864.0,3189.0,2529.0,4095.0,-5.4,0.03,2.62,0.28,-1.7,4.81,j
1293.0,2416.0,3088.0,2626.0,2851.0,3169.0,2528.0,4095.0,-2.02,3.59,2.3,0.52,-1.44,2.54,j
1312.0,2430.0,3061.0,2672.0,2902.0,3162.0,2544.0,4095.0,-1.95,5.55,1.82,0.21,-0.62,1.2,j
1310.0,2418.0,3071.0,2631.0,2865.0,3175.0,2528.0,4095.0,-3.02,6.88,1.74,0.01,-0.26,0.2,j
1424.0,2406.0,3091.0,2737.0,2983.0,3152.0,2527.0,4095.0,4.49,7.23,4.88,-0.21,-0.11,0.02,j
1420.0,2401.0,3087.0,2731.0,2989.0,3146.0,2508.0,4095.0,4.24,7.23,4.75,-0.07,0.13,-0.02,j
1414.0,2399.0,3087.0,2743.0,2992.0,3138.0,2518.0,4095.0,4.88,7.32,4.26,-0.18,0.1,-0.07,j
1418.0,2397.0,3081.0,2757.0,2999.0,3139.0,2538.0,4095.0,6.11,8.06,4.25,-0.52,0.32,-0.91,j
1455.0,2391.0,3058.0,2688.0,2983.0,3091.0,2425.0,4095.0,5.02,7.55,3.0,-1.85,-0.02,-2.95,j
1434.0,2403.0,2905.0,2676.0,2964.0,3070.0,2471.0,4095.0,4.78,6.37,2.35,-3.89,0.64,-3.49,j
4095.0,2417.0,3054.0,2667.0,2919.0,3117.0,2510.0,4095.0,0.53,4.06,-0.1,-6.96,6.09,-2.24,j
1601.0,2589.0,3195.0,2923.0,3057.0,3262.0,2685.0,4095.0,-8.63,-1.68,0.92,-8.66,7.31,0.64,j
1754.0,2607.0,3184.0,3047.0,3222.0,3269.0,2720.0,4095.0,-23.83,-8.66,3.6,-6.77,6.94,7.2,j
1454.0,2489.0,3071.0,2637.0,2830.0,3266.0,2769.0,4095.0,-14.44,-1.59,7.43,-1.9,3.86,5.2,j
4095.0,2422.0,2986.0,2625.0,2855.0,3102.0,2591.0,4095.0,-5.14,1.2,5.14,0.84,0.22,2.39,j
4095.0,2433.0,2999.0,2465.0,2705.0,3120.0,2522.0,4095.0,-7.35,4.18,2.6,0.24,0.49,1.38,j
1217.0,2434.0,2976.0,2518.0,2736.0,3104.0,2514.0,4095.0,-7.21,3.8,3.47,0.69,-0.29,0.29,j
4095.0,2435.0,2992.0,2634.0,2874.0,3121.0,2514.0,4095.0,-8.27,4.13,2.52,0.33,-0.13,0.18,j
1264.0,2441.0,2997.0,2535.0,2755.0,3114.0,2517.0,4095.0,-7.68,4.49,2.63,0.11,-0.25,-0.03,j
1203.0,2449.0,2992.0,2540.0,2753.0,3111.0,2513.0,4095.0,-8.17,4.12,3.19,-0.01,0.05,-0.04,j
1213.0,2432.0,2989.0,2594.0,2811.0,3111.0,2512.0,4095.0,-8.38,4.32,2.46,0.09,-0.01,0.09,j
1287.0,2447.0,2994.0,2592.0,2817.0,3114.0,2515.0,4095.0,-8.23,4.32,2.86,-0.04,0.01,0.2,j
1322.0,2437.0,2991.0,2608.0,2832.0,3108.0,2511.0,4095.0,-7.81,4.72,2.45,0.01,0.0,0.27,j
1387.0,2433.0,2989.0,2595.0,2815.0,3101.0,2517.0,4095.0,-7.69,4.5,2.99,-0.04,-0.04,0.09,j
1211.0,2382.0,2928.0,2899.0,2850.0,3083.0,2301.0,4095.0,4.71,7.58,3.71,-0.16,-0.01,-0.06,j
1189.0,2368.0,2992.0,2887.0,2833.0,3071.0,2279.0,4095.0,4.56,7.27,4.04,-0.06,0.25,-0.05,j
1215.0,2389.0,3013.0,2903.0,2855.0,3091.0,2308.0,4095.0,4.52,7.59,3.55,-0.25,0.13,0.0,j
1207.0,2400.0,3012.0,2858.0,2811.0,3090.0,2189.0,4095.0,5.46,8.01,3.57,-0.67,0.13,-0.2,j
1206.0,2387.0,2930.0,2582.0,2808.0,3071.0,2356.0,4095.0,6.45,8.22,2.96,-1.78,-0.2,-1.77,j
1243.0,2336.0,2933.0,2491.0,2768.0,3023.0,2559.0,4095.0,8.07,7.32,2.63,-4.02,0.84,-3.9,j
1296.0,2511.0,3094.0,2669.0,2871.0,3179.0,2582.0,4095.0,1.31,1.73,3.73,-6.35,3.85,-3.9,j
1644.0,2559.0,3143.0,2869.0,2960.0,3234.0,2671.0,4095.0,-0.17,1.29,9.2,-4.12,3.57,-0.81,j
1287.0,2554.0,3104.0,2847.0,2957.0,3194.0,2639.0,4095.0,-5.12,-0.04,3.55,-4.28,4.21,0.42,j
1115.0,2527.0,3030.0,2713.0,2800.0,3135.0,2559.0,4095.0,-11.93,-3.72,5.48,-4.54,4.72,2.3,j
1814.0,2539.0,3034.0,2761.0,2864.0,3150.0,2550.0,4095.0,-13.11,-4.56,6.7,-3.13,3.09,4.97,j
4095.0,2559.0,3056.0,2754.0,2878.0,3187.0,2593.0,4095.0,-8.72,-1.88,8.43,-0.74,2.63,5.32,j
4075.0,2489.0,2991.0,2665.0,2863.0,3153.0,2508.0,4095.0,-8.72,0.82,5.29,1.34,1.02,5.21,j
1149.0,2448.0,2934.0,2491.0,2704.0,3113.0,2462.0,4095.0,-7.23,4.82,2.6,1.38,1.6,4.47,j
1154.0,2491.0,2970.0,2545.0,2781.0,3141.0,2480.0,4095.0,-4.58,7.1,0.46,0.68,0.41,2.41,j
1136.0,2502.0,2992.0,2558.0,2801.0,3174.0,2496.0,4095.0,-4.8,7.72,1.64,0.32,-0.45,0.98,j
1136.0,2496.0,2983.0,2587.0,2829.0,3166.0,2485.0,4095.0,-4.5,7.62,1.94,0.21,0.05,0.52,j
1136.0,2507.0,2988.0,2587.0,2832.0,3164.0,2488.0,4095.0,-4.84,7.97,1.51,-0.07,0.0,0.0,j
1124.0,2493.0,2975.0,2559.0,2819.0,3149.0,2478.0,4095.0,-4.88,7.83,1.79,0.05,-0.33,-0.13,j
1115.0,2490.0,2978.0,2581.0,2832.0,3140.0,2464.0,4095.0,-5.72,7.69,1.42,-0.05,0.03,-0.09,j
1045.0,2434.0,2975.0,2666.0,2851.0,3095.0,2320.0,4095.0,4.35,8.02,3.27,0.07,0.03,0.0,j
1045.0,2434.0,2975.0,2666.0,2851.0,3095.0,2320.0,4095.0,4.35,8.02,3.27,0.07,0.03,0.0,j
1045.0,2435.0,2974.0,2663.0,2842.0,3095.0,2355.0,4095.0,4.98,8.05,3.02,-0.07,-0.18,-0.16,j
1040.0,2437.0,2970.0,2647.0,2831.0,3095.0,2384.0,4095.0,4.59,7.82,2.83,-0.13,-0.03,-0.27,j
1037.0,2441.0,2982.0,2640.0,2832.0,3099.0,2383.0,4095.0,6.32,8.64,2.29,-0.9,0.25,-1.04,j
1037.0,2423.0,2957.0,2579.0,2832.0,3071.0,2385.0,4095.0,3.71,7.86,-0.05,-3.02,1.4,-3.26,j
1040.0,2415.0,2960.0,2559.0,2818.0,3059.0,2521.0,4095.0,2.15,6.37,2.15,-4.48,1.44,-3.82,j
1273.0,2431.0,2975.0,2672.0,2826.0,3053.0,2799.0,4095.0,-0.32,2.7,5.99,-5.56,2.51,-2.84,j
2640.0,2407.0,2930.0,2794.0,2832.0,2986.0,2704.0,4095.0,-4.18,0.38,7.26,-4.97,2.36,-1.32,j
2047.0,2591.0,3080.0,2839.0,2837.0,3157.0,3195.0,4095.0,-5.18,-0.24,7.06,-3.89,2.74,0.12,j
1291.0,2514.0,2987.0,2864.0,2860.0,3063.0,2499.0,4095.0,-9.67,-1.58,4.82,-4.24,4.95,2.86,j
1277.0,2513.0,2992.0,2743.0,2787.0,3069.0,2605.0,4095.0,-12.94,-3.19,5.12,-3.75,3.62,4.9,j
1711.0,2483.0,2966.0,2785.0,2835.0,3088.0,2451.0,4095.0,-11.44,-1.35,7.85,-0.71,3.34,4.92,j
1775.0,2487.0,2960.0,2841.0,2979.0,3088.0,2450.0,4095.0,-12.21,1.25,3.91,0.37,2.57,5.52,j
4095.0,2497.0,2970.0,2762.0,2931.0,3102.0,2417.0,4095.0,-8.28,4.24,2.26,0.84,1.65,4.25,j
1357.0,2493.0,2961.0,2758.0,2955.0,3102.0,2423.0,4095.0,-4.56,6.1,-0.11,0.48,0.13,2.43,j
1302.0,2490.0,2963.0,2753.0,2938.0,3110.0,2431.0,4095.0,-5.03,6.79,1.58,0.3,0.4,1.45,j
1297.0,2489.0,2960.0,2733.0,2928.0,3099.0,2457.0,4095.0,-3.81,7.58,1.54,0.25,-0.04,0.51,j
1289.0,2486.0,2961.0,2741.0,2938.0,3107.0,2436.0,4095.0,-5.64,8.09,0.89,0.35,-0.03,0.3,j
1285.0,2481.0,2960.0,2742.0,2933.0,3095.0,2431.0,4095.0,-6.1,7.82,0.32,0.18,0.08,0.14,j
1297.0,2498.0,2986.0,2746.0,2881.0,3083.0,2446.0,4095.0,2.22,8.65,4.61,0.09,-0.51,0.05,j
1323.0,2516.0,3009.0,2765.0,2909.0,3103.0,2469.0,4095.0,2.96,8.43,3.79,0.05,-0.32,0.14,j
1303.0,2518.0,2999.0,2768.0,2899.0,3099.0,2458.0,4095.0,3.52,8.29,3.82,-0.01,0.06,-0.05,j
1309.0,2507.0,3001.0,2763.0,2907.0,3100.0,2455.0,4095.0,3.24,7.91,3.6,-0.14,0.25,-0.26,j
1296.0,2515.0,2995.0,2746.0,2903.0,3084.0,2459.0,4095.0,3.47,8.7,3.47,-0.58,0.44,-0.78,j
1489.0,2490.0,2975.0,2810.0,2981.0,3056.0,2609.0,4095.0,3.88,8.55,2.86,-1.54,0.38,-2.51,j
1563.0,2494.0,2964.0,2433.0,2654.0,3042.0,2406.0,4095.0,1.56,6.52,2.52,-3.43,0.89,-3.98,j
1202.0,2559.0,3039.0,2679.0,2832.0,3079.0,2771.0,4095.0,1.02,3.59,4.53,-4.83,1.66,-4.0,j
1595.0,2643.0,3101.0,2992.0,3088.0,3168.0,2858.0,4095.0,-5.67,0.34,5.77,-4.79,4.61,-1.66,j
1588.0,2637.0,3065.0,2944.0,3024.0,3148.0,2598.0,4095.0,-6.46,0.7,5.13,-3.37,3.75,-0.08,j
1529.0,2638.0,3070.0,2800.0,2928.0,3140.0,2596.0,4095.0,-12.39,-0.26,1.42,-3.98,4.9,1.93,j
1280.0,2625.0,3057.0,2638.0,2768.0,3139.0,2559.0,4095.0,-15.39,-0.82,2.39,-3.88,4.6,4.31,j
2082.0,2621.0,3056.0,2650.0,2832.0,3167.0,2547.0,4095.0,-11.8,1.35,4.92,-1.8,3.01,5.25,j
2651.0,2620.0,3063.0,2707.0,2922.0,3186.0,2559.0,4095.0,-9.83,3.56,2.91,-0.73,1.96,5.71,j
1535.0,2617.0,3067.0,2663.0,2882.0,3201.0,2559.0,4095.0,-7.73,5.92,1.38,0.49,1.85,3.83,j
1374.0,2611.0,3049.0,2677.0,2922.0,3197.0,2542.0,4095.0,-3.73,7.42,-1.01,0.07,1.1,2.11,j
1368.0,2605.0,3056.0,2682.0,2937.0,3212.0,2536.0,4095.0,-4.36,7.95,-0.71,-0.0,0.01,0.86,j
1369.0,2602.0,3047.0,2690.0,2935.0,3184.0,2539.0,4095.0,-4.52,7.94,0.18,-0.04,0.21,0.18,j
1366.0,2610.0,3053.0,2679.0,2919.0,3186.0,2537.0,4095.0,-4.98,8.05,0.07,-0.03,-0.09,-0.0,j
1370.0,2610.0,3046.0,2679.0,2924.0,3187.0,2532.0,4095.0,-5.36,8.36,-0.97,0.05,0.08,0.09,j
1268.0,2513.0,2977.0,2800.0,2923.0,3093.0,2423.0,4095.0,3.61,8.45,2.81,-0.05,-0.04,0.04,j
1269.0,2517.0,2992.0,2736.0,2919.0,3088.0,2422.0,4095.0,4.17,8.49,2.57,-0.08,-0.26,0.05,j
1281.0,2528.0,2995.0,2746.0,2926.0,3099.0,2442.0,4095.0,3.14,8.2,2.43,-0.2,-0.02,-0.02,j
1263.0,2525.0,2989.0,2724.0,2917.0,3091.0,2438.0,4095.0,4.07,8.17,2.48,-0.37,-0.17,-0.06,j
1277.0,2521.0,2999.0,2709.0,2921.0,3091.0,2436.0,4095.0,5.24,8.41,1.77,-0.84,0.3,-0.8,j
1299.0,2548.0,3009.0,2672.0,2893.0,3098.0,2469.0,4095.0,4.73,7.81,1.47,-1.77,0.09,-2.35,j
1285.0,2525.0,3001.0,2654.0,2885.0,3086.0,2457.0,4095.0,3.13,6.57,2.06,-3.03,0.42,-3.18,j
1315.0,2526.0,2995.0,2669.0,2875.0,3079.0,2477.0,4095.0,-0.18,4.5,2.92,-3.74,2.4,-3.26,j
1371.0,2558.0,3029.0,2736.0,2898.0,3069.0,2512.0,4095.0,-1.75,3.48,5.27,-4.24,1.57,-3.33,j
1416.0,2624.0,3063.0,2814.0,2928.0,3120.0,2559.0,4095.0,-5.89,0.35,6.02,-4.3,3.35,-1.88,j
1413.0,2669.0,3137.0,2928.0,3012.0,3205.0,2616.0,4095.0,-7.52,-0.59,5.85,-3.57,3.44,-0.67,j
1285.0,2590.0,3024.0,2816.0,2903.0,3109.0,2535.0,4095.0,-9.68,-0.95,3.38,-3.99,5.5,0.85,j
1238.0,2555.0,3007.0,2766.0,2869.0,3071.0,2480.0,4095.0,-15.68,-2.01,-0.53,-4.63,5.78,3.58,j
1523.0,2625.0,3057.0,2889.0,2981.0,3132.0,2731.0,4095.0,-17.12,-0.49,1.9,-2.91,2.95,3.98,j
1535.0,2535.0,2990.0,2873.0,2994.0,3085.0,2459.0,4095.0,-13.54,1.83,2.53,-1.65,2.82,4.23,j
2098.0,2518.0,2981.0,2814.0,2971.0,3094.0,2448.0,4095.0,-9.2,4.58,-0.59,-0.65,1.46,4.13,j
1691.0,2528.0,2975.0,2768.0,2944.0,3114.0,2507.0,4095.0,-6.94,5.94,-1.1,-0.56,1.07,3.35,j
1626.0,2537.0,2971.0,2768.0,2962.0,3116.0,2515.0,4095.0,-4.87,6.86,-1.43,-0.47,0.63,2.02,j
1572.0,2521.0,2984.0,2771.0,2967.0,3125.0,2513.0,4095.0,-4.96,7.07,-0.67,-0.52,-0.04,0.91,j
1618.0,2538.0,2985.0,2767.0,2961.0,3125.0,2515.0,4095.0,-4.19,6.76,0.23,-0.2,-0.17,0.44,j
1687.0,2672.0,3134.0,3008.0,3139.0,3292.0,2753.0,4095.0,3.04,7.75,4.42,0.1,-0.09,0.15,j
1722.0,2679.0,3163.0,3030.0,3162.0,3289.0,2775.0,4095.0,2.89,7.71,4.53,-0.04,0.05,0.11,j
1712.0,2674.0,3150.0,3024.0,3149.0,3278.0,2765.0,4095.0,2.94,7.68,4.79,-0.22,-0.01,-0.07,j
1702.0,2669.0,3139.0,3011.0,3136.0,3274.0,2746.0,4095.0,2.94,7.59,5.08,-0.17,0.09,-0.02,j
1663.0,2659.0,3135.0,2997.0,3137.0,3249.0,2737.0,4095.0,2.79,7.49,5.08,-0.23,0.27,-0.02,j
1663.0,2625.0,3117.0,3001.0,3130.0,3230.0,2717.0,4095.0,2.45,7.6,4.73,-0.42,0.08,-0.19,j
1669.0,2640.0,3120.0,2987.0,3127.0,3227.0,2730.0,4095.0,3.33,7.47,4.47,-0.84,-0.37,-0.49,j
1623.0,2599.0,3091.0,2893.0,3071.0,3134.0,2672.0,4095.0,5.46,8.73,3.18,-1.95,-0.61,-2.35,j
1643.0,2559.0,3057.0,2978.0,3051.0,3098.0,2546.0,4095.0,5.52,5.11,3.22,-5.33,-1.14,-4.05,j
2336.0,2608.0,3049.0,3254.0,3121.0,3149.0,2629.0,4095.0,-2.83,-0.82,4.72,-6.96,2.82,-2.3,j
1574.0,2630.0,3026.0,3362.0,3134.0,3139.0,2663.0,4095.0,-7.2,-1.6,5.73,-6.65,5.14,2.45,j
1584.0,2671.0,2992.0,3189.0,3081.0,3159.0,2794.0,4095.0,-19.63,-9.7,6.04,-6.46,7.67,8.73,j
1299.0,2747.0,3088.0,2784.0,2807.0,3283.0,2665.0,4095.0,-15.46,-5.04,11.59,-0.24,4.88,8.73,j
1378.0,2640.0,2990.0,2647.0,2891.0,3204.0,2549.0,4095.0,-6.31,2.36,5.56,2.9,1.35,5.83,j
1301.0,2713.0,3088.0,2579.0,2804.0,3290.0,2608.0,4095.0,-1.78,7.06,-0.49,1.87,0.06,2.81,j
1259.0,2697.0,3041.0,2688.0,2910.0,3250.0,2463.0,4095.0,-3.19,7.3,0.45,0.35,-0.65,0.89,j
1266.0,2687.0,3055.0,2688.0,2911.0,3253.0,2587.0,4095.0,-5.63,8.0,1.84,0.3,-0.17,0.31,j
1264.0,2699.0,3056.0,2707.0,2922.0,3266.0,2577.0,4095.0,-4.37,7.88,1.29,0.37,-0.15,0.24,j
1257.0,2691.0,3058.0,2708.0,2925.0,3250.0,2559.0,4095.0,-4.53,8.39,0.23,0.13,-0.21,0.05,j
1257.0,2704.0,3047.0,2716.0,2925.0,3259.0,2583.0,4095.0,-5.11,8.34,0.61,-0.03,0.11,-0.02,j
1043.0,2660.0,3058.0,2545.0,2788.0,3148.0,2544.0,4095.0,3.4,7.99,3.94,0.04,0.02,0.05,j
1040.0,2659.0,3056.0,2535.0,2779.0,3155.0,2541.0,4095.0,3.26,7.99,3.65,-0.21,-0.01,-0.01,j
1039.0,2649.0,3058.0,2515.0,2781.0,3146.0,2528.0,4095.0,3.88,7.93,3.95,-0.08,-0.02,0.01,j
1042.0,2643.0,3045.0,2461.0,2767.0,3114.0,2480.0,4095.0,6.62,9.44,2.67,-0.71,0.03,-1.05,j
1152.0,2733.0,3146.0,2509.0,2829.0,3165.0,2519.0,4095.0,5.69,7.26,-3.91,-4.95,-0.51,-4.39,j
1744.0,2738.0,3120.0,2605.0,2807.0,3152.0,2559.0,4095.0,2.26,-0.32,-0.38,-8.73,1.69,-5.67,j
1246.0,2753.0,3092.0,3094.0,2919.0,3186.0,2635.0,4095.0,-14.06,-8.0,7.27,-8.73,8.19,3.61,j
1275.0,2732.0,3056.0,2925.0,2814.0,3197.0,2624.0,4095.0,-18.1,-9.43,12.83,-4.82,5.64,8.73,j
1333.0,2703.0,3027.0,2688.0,2935.0,3201.0,2672.0,4095.0,-6.09,-1.47,12.66,2.09,1.25,8.37,j
1296.0,2742.0,3090.0,2613.0,2880.0,3278.0,2613.0,4095.0,-0.44,5.79,3.49,1.63,0.06,3.03,j
1065.0,2681.0,3018.0,2608.0,2875.0,3187.0,2559.0,4095.0,-3.99,6.36,3.55,0.61,-0.21,0.58,j
1158.0,2712.0,3046.0,2559.0,2815.0,3218.0,2583.0,4095.0,-5.04,5.34,4.26,0.37,-0.31,0.09,j
1231.0,2722.0,3053.0,2657.0,2899.0,3225.0,2591.0,4095.0,-5.67,5.95,4.02,0.25,-0.23,-0.04,j
1214.0,2709.0,3041.0,2647.0,2883.0,3216.0,2601.0,4095.0,-5.36,6.68,3.48,0.25,-0.02,-0.06,j
1203.0,2711.0,3042.0,2647.0,2879.0,3222.0,2583.0,4095.0,-6.06,6.9,3.32,0.11,-0.05,-0.06,j
1205.0,2706.0,3045.0,2653.0,2882.0,3216.0,2605.0,4095.0,-5.89,6.63,3.78,0.02,-0.03,-0.01,j
1200.0,2711.0,3055.0,2656.0,2889.0,3221.0,2598.0,4095.0,-5.52,6.74,3.43,0.02,0.01,-0.01,j
1186.0,2705.0,3031.0,2657.0,2876.0,3210.0,2583.0,4095.0,-6.0,6.5,3.58,0.04,0.03,0.04,j
1185.0,2701.0,3040.0,2656.0,2881.0,3215.0,2559.0,4095.0,-5.18,6.6,3.32,-0.03,0.06,-0.03,j
1187.0,2699.0,3034.0,2661.0,2885.0,3210.0,2581.0,4095.0,-6.0,6.69,3.46,0.04,0.07,0.02,j
1343.0,2762.0,1963.0,2853.0,2965.0,3230.0,2624.0,4095.0,2.36,8.31,3.45,0.04,-0.15,0.07,j
1137.0,2749.0,2026.0,2741.0,2854.0,3225.0,2618.0,4095.0,2.91,8.85,2.9,-0.12,-0.03,0.04,j
1151.0,2751.0,2869.0,2742.0,2863.0,3218.0,2630.0,4095.0,2.91,8.16,3.18,-0.11,-0.03,-0.01,j
1226.0,2786.0,1675.0,2756.0,2861.0,3217.0,2635.0,4095.0,5.21,8.77,1.93,-0.41,0.46,-0.69,j
1343.0,2722.0,620.0,2662.0,2821.0,3177.0,2559.0,4095.0,6.73,7.7,-0.93,-2.71,0.75,-4.07,j
1083.0,2736.0,3084.0,2558.0,2731.0,3152.0,2544.0,4095.0,2.16,2.9,-1.83,-4.19,1.75,-4.21,j
1062.0,2736.0,3083.0,2634.0,2746.0,3152.0,2559.0,4095.0,-2.74,-2.95,-2.47,-7.83,5.54,-5.44,j
2002.0,2733.0,3066.0,2929.0,2915.0,3135.0,2559.0,4095.0,-13.47,-7.05,2.24,-6.63,3.02,-2.25,j
1253.0,2771.0,3103.0,2831.0,2847.0,3185.0,2614.0,4095.0,-24.57,-6.79,2.04,-6.53,8.11,3.51,j
1600.0,2747.0,3062.0,3042.0,3050.0,3202.0,2776.0,4095.0,-19.4,-2.63,4.62,-3.95,2.08,6.77,j
2055.0,2762.0,3082.0,2855.0,2917.0,3244.0,2998.0,4095.0,-11.45,0.95,6.96,-1.56,1.57,5.99,j
1307.0,2767.0,3088.0,2782.0,2890.0,3243.0,3173.0,4095.0,-6.09,3.98,1.21,0.47,0.19,3.43,j
1409.0,2781.0,3098.0,2783.0,2916.0,3265.0,2704.0,4095.0,-4.28,4.94,0.28,0.02,0.11,1.67,j
1391.0,2799.0,3106.0,2813.0,2938.0,3281.0,3147.0,4095.0,-4.93,5.58,1.31,-0.13,-0.6,0.47,j
1306.0,2758.0,3071.0,2766.0,2907.0,3246.0,3113.0,4095.0,-5.66,5.78,1.83,0.12,-0.25,0.1,j
1345.0,2774.0,3102.0,2788.0,2927.0,3265.0,2862.0,4095.0,-6.27,6.69,0.71,0.16,-0.11,0.04,j
1357.0,2778.0,3088.0,2794.0,2930.0,3263.0,2960.0,4095.0,-6.45,7.04,0.21,0.1,-0.3,-0.1,j
1325.0,2781.0,3091.0,2795.0,2935.0,3263.0,2811.0,4095.0,-6.42,7.31,0.39,0.07,-0.05,-0.05,j
1323.0,2770.0,3088.0,2790.0,2929.0,3263.0,2783.0,4095.0,-7.04,7.15,0.35,0.06,-0.11,0.05,j
1334.0,2769.0,3093.0,2794.0,2931.0,3262.0,2736.0,4095.0,-6.43,7.26,0.54,-0.04,0.06,0.01,j
1117.0,2748.0,3101.0,2806.0,2901.0,3187.0,2579.0,4095.0,2.85,7.79,4.82,-0.04,0.01,-0.01,j
1127.0,2744.0,3091.0,2821.0,2906.0,3195.0,2583.0,4095.0,2.92,7.52,5.06,0.02,-0.01,0.11,j
1123.0,2742.0,3095.0,2794.0,2882.0,3189.0,2589.0,4095.0,2.99,7.88,4.83,0.08,-0.01,0.05,j
1114.0,2752.0,3091.0,2789.0,2877.0,3181.0,2559.0,4095.0,2.84,7.66,4.74,-0.06,-0.01,-0.22,j
1082.0,2726.0,3035.0,2695.0,2849.0,3151.0,2521.0,4095.0,5.92,10.0,4.12,-0.25,-0.4,-1.89,j
1014.0,2704.0,3016.0,2609.0,2765.0,3146.0,2519.0,4095.0,5.35,7.37,4.04,-2.18,0.39,-4.01,j
1477.0,2713.0,3023.0,2491.0,2775.0,3141.0,2555.0,4095.0,2.89,7.01,2.96,-4.34,2.92,-4.54,j
1447.0,2694.0,3007.0,2559.0,2789.0,3146.0,2721.0,4095.0,-7.97,-0.14,2.91,-6.82,6.48,-1.78,j
1170.0,2736.0,3038.0,2559.0,2843.0,3222.0,2715.0,4095.0,-11.87,-1.5,5.96,-4.15,7.62,5.42,j
1289.0,2729.0,3024.0,2519.0,2807.0,3239.0,2690.0,4095.0,-11.84,3.25,1.32,-2.65,7.36,6.18,j
1120.0,2671.0,2954.0,2433.0,2727.0,3213.0,2690.0,4095.0,-5.11,5.36,6.69,-0.11,0.38,4.19,j
1095.0,2654.0,2960.0,2449.0,2759.0,3195.0,2589.0,4095.0,-3.55,7.35,1.47,1.56,0.74,2.49,j
1104.0,2660.0,2976.0,2524.0,2845.0,3201.0,2586.0,4095.0,-3.97,8.2,0.05,0.24,-0.23,0.39,j
1118.0,2661.0,2970.0,2559.0,2880.0,3197.0,2595.0,4095.0,-5.19,7.78,1.87,0.16,-0.2,-0.01,j
1077.0,2642.0,2943.0,2559.0,2875.0,3183.0,2584.0,4095.0,-4.5,8.01,1.36,0.12,-0.1,0.21,j
1093.0,2651.0,2959.0,2578.0,2876.0,3195.0,2582.0,4095.0,-4.67,8.24,1.15,-0.06,-0.16,-0.1,j
1104.0,2671.0,2963.0,2586.0,2886.0,3191.0,2599.0,4095.0,-4.5,8.0,1.56,-0.03,-0.05,0.02,j
1104.0,2672.0,2973.0,2599.0,2891.0,3199.0,2593.0,4095.0,-4.92,8.35,1.11,-0.08,-0.02,-0.03,j
1104.0,2672.0,2973.0,2601.0,2883.0,3197.0,2580.0,4095.0,-4.83,7.7,1.75,-0.1,0.03,-0.01,j
1095.0,2666.0,2973.0,2594.0,2893.0,3198.0,2583.0,4095.0,-4.78,7.84,1.45,0.07,-0.16,0.0,j
1092.0,2688.0,2991.0,2639.0,2849.0,3152.0,2486.0,4095.0,2.88,8.6,3.7,0.05,0.06,-0.01,j
1103.0,2685.0,2992.0,2608.0,2825.0,3152.0,2498.0,4095.0,3.0,8.51,3.51,-0.07,-0.03,0.01,j
1101.0,2675.0,2999.0,2608.0,2821.0,3145.0,2482.0,4095.0,2.96,8.35,3.4,0.01,-0.07,0.04,j
1104.0,2688.0,2993.0,2637.0,2854.0,3144.0,2486.0,4095.0,3.2,8.3,2.79,-0.31,-0.01,0.0,j
1097.0,2690.0,2992.0,2559.0,2774.0,3117.0,2457.0,4095.0,6.7,10.24,3.39,-0.85,0.05,-1.45,j
1167.0,2714.0,3012.0,2499.0,2793.0,3110.0,2478.0,4095.0,5.98,8.51,-0.03,-3.75,0.97,-5.06,j
1377.0,2733.0,3027.0,2609.0,2874.0,3120.0,2547.0,4095.0,-1.71,1.98,3.22,-6.79,3.38,-4.0,j
1255.0,2726.0,3023.0,2708.0,2919.0,3151.0,2668.0,4095.0,-7.45,-0.72,12.63,-3.0,5.26,1.3,j
4095.0,2723.0,3022.0,2651.0,2958.0,3184.0,2595.0,4095.0,-11.47,1.45,4.99,-1.92,6.72,6.18,j
1181.0,2725.0,3055.0,2557.0,2875.0,3259.0,2645.0,4095.0,-6.73,3.8,7.21,1.77,4.74,7.54,j
1065.0,2669.0,2981.0,2451.0,2778.0,3195.0,2559.0,4095.0,-2.26,7.92,1.45,2.29,2.47,3.41,j
1053.0,2688.0,3017.0,2475.0,2814.0,3216.0,2591.0,4095.0,-1.05,9.46,-1.37,0.9,0.32,1.3,j
1049.0,2688.0,3023.0,2495.0,2832.0,3211.0,2592.0,4095.0,-1.78,9.13,1.57,0.25,-0.13,0.22,j
1045.0,2677.0,3024.0,2511.0,2852.0,3216.0,2591.0,4095.0,-3.2,9.32,0.62,0.1,-0.02,0.11,j
1047.0,2687.0,3018.0,2514.0,2847.0,3206.0,2605.0,4095.0,-2.48,9.36,1.36,-0.1,-0.01,-0.12,j
1051.0,2684.0,3014.0,2529.0,2846.0,3205.0,2591.0,4095.0,-3.3,9.03,1.15,0.1,0.11,0.12,j
1054.0,2679.0,3011.0,2527.0,2851.0,3210.0,2589.0,4095.0,-2.98,9.13,0.49,-0.06,0.09,-0.03,j
1046.0,2685.0,3007.0,2527.0,2850.0,3202.0,2598.0,4095.0,-2.82,8.77,1.27,-0.03,0.05,0.04,j
1047.0,2683.0,3021.0,2525.0,2855.0,3203.0,2591.0,4095.0,-2.98,8.96,0.77,-0.01,0.09,-0.01,j
1049.0,2684.0,3001.0,2532.0,2854.0,3213.0,2590.0,4095.0,-2.74,9.01,0.88,0.08,0.08,0.04,j
1058.0,2686.0,2990.0,2945.0,2896.0,3121.0,2480.0,4095.0,3.06,9.03,2.26,-0.24,-0.04,0.16,j
1049.0,2688.0,2983.0,2951.0,2910.0,3117.0,2487.0,4095.0,2.97,8.78,2.13,-0.19,-0.15,0.17,j
1059.0,2691.0,2992.0,2943.0,2911.0,3123.0,2483.0,4095.0,4.61,8.8,1.56,-0.31,-0.03,-0.05,j
1050.0,2691.0,2977.0,2727.0,2799.0,3090.0,2444.0,4095.0,8.64,12.26,-1.24,-1.82,-0.46,-3.13,j
1074.0,2650.0,2944.0,2501.0,2785.0,3013.0,2368.0,4095.0,7.45,7.86,-3.33,-4.93,-0.7,-6.6,j
4095.0,2659.0,2947.0,2591.0,2791.0,3024.0,2486.0,4095.0,3.58,-1.39,1.41,-8.42,-0.14,-6.59,j
1215.0,2767.0,3054.0,2716.0,2775.0,3113.0,2656.0,4095.0,-6.44,-4.46,4.16,-7.32,2.44,-2.51,j
1574.0,2750.0,3025.0,2890.0,2815.0,3106.0,2647.0,4095.0,-10.97,-8.78,4.67,-5.93,3.32,0.65,j
1061.0,2686.0,2978.0,2739.0,2735.0,3098.0,2719.0,4095.0,-16.77,-10.62,4.59,-5.65,5.57,5.57,j
1871.0,2672.0,2961.0,2788.0,2842.0,3130.0,3089.0,4095.0,-12.33,-5.64,7.96,-1.3,2.61,7.02,j
4095.0,2645.0,2944.0,2683.0,2893.0,3150.0,2516.0,4095.0,-10.22,1.12,2.26,0.38,3.87,5.57,j
1040.0,2624.0,2938.0,2626.0,2814.0,3136.0,2505.0,4095.0,-7.02,3.83,1.37,0.24,0.63,3.18,j
1162.0,2598.0,2902.0,2621.0,2821.0,3091.0,2495.0,4095.0,-6.46,5.51,0.07,0.27,0.73,1.51,j
1136.0,2608.0,2934.0,2585.0,2838.0,3105.0,2466.0,4095.0,-6.78,5.6,0.23,0.6,-0.44,0.76,j
1133.0,2610.0,2923.0,2559.0,2839.0,3107.0,2726.0,4095.0,-7.43,6.05,-0.75,0.14,0.11,0.42,j
1141.0,2626.0,2930.0,2592.0,2854.0,3120.0,2591.0,4095.0,-6.44,6.04,-0.07,0.07,-0.18,0.2,j
1104.0,2615.0,2933.0,2583.0,2839.0,3113.0,2580.0,4095.0,-7.09,6.17,-0.51,0.08,-0.04,0.11,j
1098.0,2615.0,2918.0,2559.0,2838.0,3107.0,2559.0,4095.0,-6.98,6.12,-0.45,0.05,-0.05,-0.02,j
1088.0,2624.0,2928.0,2586.0,2846.0,3115.0,2608.0,4095.0,-7.26,6.23,-0.5,0.11,0.01,0.05,j
1083.0,2615.0,2928.0,2582.0,2847.0,3111.0,2511.0,4095.0,-7.08,6.24,-0.87,0.02,0.12,0.01,j
1194.0,2706.0,3051.0,2602.0,2864.0,3206.0,2518.0,4095.0,1.49,8.98,3.21,-0.24,-0.03,-0.03,j
1184.0,2697.0,3024.0,2601.0,2879.0,3187.0,2509.0,4095.0,2.02,9.02,3.35,0.04,-0.08,0.15,j
1186.0,2687.0,3021.0,2606.0,2871.0,3182.0,2512.0,4095.0,1.9,8.59,2.96,-0.14,-0.07,0.1,j
1183.0,2687.0,3019.0,2608.0,2869.0,3184.0,2505.0,4095.0,3.28,9.28,2.95,-0.17,-0.14,0.13,j
1188.0,2678.0,2998.0,2544.0,2865.0,3146.0,2483.0,4095.0,5.64,10.95,2.64,-0.59,-0.26,-1.02,j
1293.0,2644.0,2952.0,2589.0,2938.0,3055.0,2454.0,4095.0,4.17,9.23,0.18,-3.38,-0.52,-4.59,j
1503.0,2638.0,2975.0,2462.0,2754.0,3055.0,2480.0,4095.0,1.63,1.9,1.16,-6.54,-0.65,-5.48,j
1312.0,2608.0,2928.0,2704.0,2879.0,2803.0,2466.0,4095.0,-6.43,-0.92,4.98,-4.75,2.51,-2.57,j
1283.0,2688.0,2982.0,2686.0,2832.0,2241.0,2554.0,4095.0,-6.41,-0.31,2.93,-4.73,3.82,-0.17,j
1265.0,2673.0,2993.0,2801.0,2990.0,3097.0,2559.0,4095.0,-12.38,-2.98,4.44,-3.75,5.21,4.01,j
1233.0,2663.0,2992.0,2641.0,2866.0,3104.0,2509.0,4095.0,-17.35,-0.74,5.52,-2.17,5.21,5.23,j
1585.0,2671.0,3022.0,2608.0,2847.0,3175.0,2548.0,4095.0,-12.71,2.68,7.83,-0.43,3.93,5.67,j
1346.0,2638.0,2950.0,2547.0,2790.0,3133.0,2492.0,4095.0,-8.08,5.18,5.33,1.24,2.17,4.11,j
1098.0,2624.0,2941.0,2497.0,2736.0,3127.0,2474.0,4095.0,-3.99,7.14,-0.07,0.73,1.13,1.99,j
1059.0,2606.0,2911.0,2515.0,2769.0,3095.0,2454.0,4095.0,-5.58,6.89,0.2,-0.06,0.13,0.68,j
1098.0,2613.0,2923.0,2538.0,2784.0,3103.0,2478.0,4095.0,-6.02,7.09,1.19,0.1,-0.33,0.23,j
1127.0,2655.0,2988.0,2552.0,2798.0,3161.0,2527.0,4095.0,-5.64,7.09,0.53,0.08,-0.33,0.2,j
1073.0,2647.0,2960.0,2534.0,2782.0,3152.0,2507.0,4095.0,-4.87,7.74,0.06,-0.09,0.15,-0.02,j
1086.0,2662.0,2972.0,2527.0,2778.0,3162.0,2511.0,4095.0,-5.49,7.8,0.2,-0.0,-0.23,-0.04,j
1082.0,2657.0,2990.0,2535.0,2779.0,3168.0,2514.0,4095.0,-6.0,7.53,0.06,-0.13,0.06,-0.01,j
1079.0,2581.0,2875.0,2585.0,2768.0,3022.0,2383.0,4095.0,3.12,7.97,4.44,-0.15,-0.03,-0.01,j
1086.0,2559.0,2874.0,2609.0,2774.0,3021.0,2384.0,4095.0,3.12,7.7,3.78,0.05,0.05,-0.04,j
1083.0,2615.0,2906.0,2559.0,2774.0,3049.0,2409.0,4095.0,5.6,7.63,2.99,-0.24,0.1,-0.61,j
1077.0,2601.0,2896.0,2413.0,2711.0,3008.0,2363.0,4095.0,8.38,9.06,-0.45,-2.72,0.71,-4.51,j
1229.0,2673.0,2982.0,2385.0,2704.0,3079.0,2518.0,4095.0,-0.77,1.18,-2.86,-8.01,5.33,-6.53,j
1261.0,2653.0,2954.0,2680.0,2912.0,3084.0,2619.0,4095.0,-16.58,-5.87,7.37,-7.08,7.69,0.23,j
1216.0,2679.0,2983.0,2624.0,2928.0,3127.0,2894.0,4095.0,-21.81,-1.06,1.62,-2.79,5.74,5.36,j
1126.0,2671.0,2992.0,2581.0,2863.0,3184.0,2539.0,4095.0,-12.54,1.62,5.32,-1.68,3.78,6.99,j
1412.0,2741.0,3088.0,2559.0,2832.0,3285.0,2654.0,4095.0,-0.98,4.99,5.52,0.94,-0.3,2.57,j
1323.0,2736.0,3086.0,2581.0,2865.0,3280.0,2603.0,4095.0,-4.29,6.75,1.65,0.79,0.22,0.86,j
1314.0,2731.0,3071.0,2591.0,2852.0,3275.0,2602.0,4095.0,-5.49,6.82,2.29,0.29,-0.55,-0.04,j
1328.0,2730.0,3056.0,2615.0,2875.0,3275.0,2610.0,4095.0,-6.17,7.28,1.99,0.13,-0.05,0.03,j
1386.0,2727.0,3071.0,2640.0,2910.0,3270.0,2608.0,4095.0,-5.21,7.52,1.74,0.17,-0.19,0.1,j
1293.0,2742.0,3067.0,2637.0,2894.0,3271.0,2608.0,4095.0,-6.01,7.4,1.28,0.06,-0.11,-0.09,j
1281.0,2739.0,3067.0,2638.0,2909.0,3270.0,2606.0,4095.0,-5.31,7.22,2.08,-0.03,-0.28,-0.08,j
1229.0,2733.0,3071.0,2639.0,2901.0,3270.0,2605.0,4095.0,-6.08,7.21,1.45,0.01,-0.08,-0.02,j
1229.0,2736.0,3058.0,2643.0,2913.0,3273.0,2608.0,4095.0,-5.71,7.1,1.8,0.02,0.05,-0.04,j
1214.0,2736.0,3063.0,2642.0,2912.0,3264.0,2605.0,4095.0,-5.43,7.19,1.79,-0.01,-0.2,-0.04,j
1213.0,2731.0,3069.0,2641.0,2913.0,3265.0,2608.0,4095.0,-6.49,7.37,1.74,-0.02,0.1,0.1,j
1205.0,2736.0,3069.0,2641.0,2907.0,3259.0,2606.0,4095.0,-5.31,7.56,1.65,0.0,0.01,0.13,j
1001.0,2721.0,3026.0,2629.0,2779.0,3184.0,2510.0,4095.0,4.42,6.8,4.25,0.15,0.19,0.12,j
999.0,2718.0,3024.0,2618.0,2764.0,3187.0,2512.0,4095.0,5.32,6.54,4.78,-0.03,-0.11,-0.03,j
1002.0,2717.0,3017.0,2594.0,2750.0,3169.0,2509.0,4095.0,6.47,6.68,4.14,-0.01,0.25,-0.28,j
993.0,2717.0,3021.0,2537.0,2742.0,3152.0,2485.0,4095.0,8.49,6.58,2.55,-0.97,0.92,-1.89,j
1001.0,2714.0,3023.0,2470.0,2755.0,3132.0,2482.0,4095.0,5.62,4.68,-0.75,-3.78,2.86,-4.58,j
1242.0,2718.0,3029.0,2551.0,2761.0,3138.0,2522.0,4095.0,-6.05,-1.04,1.4,-5.97,3.71,-3.74,j
1205.0,2747.0,3045.0,2610.0,2764.0,3143.0,2559.0,4095.0,-11.06,-0.11,4.96,-5.61,6.89,-0.3,j
1259.0,2736.0,3023.0,2655.0,2794.0,3170.0,2587.0,4095.0,-15.78,-1.62,9.25,-3.23,4.47,4.4,j
1077.0,2713.0,3021.0,2608.0,2774.0,3219.0,2624.0,4095.0,-13.51,1.48,9.52,-0.47,3.57,6.52,j
4095.0,2725.0,3030.0,2663.0,2901.0,3227.0,3367.0,4095.0,-6.58,3.52,10.04,1.68,2.24,6.34,j
1037.0,2727.0,3035.0,2544.0,2796.0,3237.0,2591.0,4095.0,-5.15,5.52,4.4,1.78,0.39,3.49,j
1018.0,2731.0,3024.0,2512.0,2758.0,3232.0,2581.0,4095.0,-1.89,6.8,1.2,0.77,0.36,1.57,j
1002.0,2720.0,3019.0,2514.0,2750.0,3222.0,2590.0,4095.0,-2.74,7.35,2.3,0.08,-0.79,0.44,j
1008.0,2712.0,3022.0,2523.0,2759.0,3227.0,2585.0,4095.0,-3.62,7.3,3.11,0.03,0.0,-0.01,j
999.0,2726.0,3019.0,2519.0,2763.0,3217.0,2580.0,4095.0,-3.65,8.34,2.42,0.18,-0.15,-0.17,j
998.0,2721.0,3029.0,2523.0,2766.0,3219.0,2559.0,4095.0,-4.09,8.51,2.06,0.05,-0.13,-0.13,j
1003.0,2729.0,3026.0,2512.0,2763.0,3218.0,2559.0,4095.0,-4.36,8.6,1.94,0.06,-0.08,-0.15,j
1008.0,2723.0,3023.0,2517.0,2767.0,3207.0,2559.0,4095.0,-4.12,8.21,2.03,0.03,-0.21,-0.07,j
1010.0,2727.0,3024.0,2526.0,2770.0,3217.0,2559.0,4095.0,-4.57,8.28,2.08,0.02,-0.03,-0.05,j
1015.0,2719.0,3024.0,2515.0,2768.0,3218.0,2559.0,4095.0,-3.98,7.97,2.15,0.02,-0.19,-0.05,j
1014.0,2559.0,2883.0,2559.0,2825.0,2992.0,2384.0,4095.0,5.8,7.35,1.02,-0.16,-0.02,-0.13,j
1019.0,2559.0,2898.0,2559.0,2826.0,3002.0,2384.0,4095.0,4.84,8.66,1.27,-0.11,0.24,-0.15,j
1019.0,2557.0,2887.0,2559.0,2826.0,2998.0,2384.0,4095.0,5.26,8.47,2.52,-0.22,0.29,-0.12,j
1019.0,2559.0,2882.0,2559.0,2831.0,2993.0,2385.0,4095.0,5.48,9.43,1.95,-0.31,0.14,-0.34,j
1014.0,2559.0,2893.0,2511.0,2784.0,2989.0,2377.0,4095.0,7.69,9.27,0.76,-1.3,0.2,-1.35,j
1023.0,2559.0,2896.0,2462.0,2741.0,3011.0,2251.0,4095.0,9.54,6.42,-1.53,-3.73,1.85,-4.16,j
1109.0,2716.0,3053.0,2529.0,2800.0,3164.0,2495.0,4095.0,-0.14,0.66,-4.06,-5.96,3.81,-4.94,j
1072.0,2720.0,3057.0,2490.0,2714.0,3126.0,2527.0,4095.0,-5.41,-3.89,-2.17,-7.87,4.36,-4.69,j
1074.0,2731.0,3049.0,2597.0,2747.0,3138.0,2547.0,4095.0,-16.83,-5.41,1.43,-7.52,5.2,-0.53,j
1207.0,2765.0,3088.0,2663.0,2768.0,3202.0,2589.0,4095.0,-25.68,-9.75,7.77,-5.47,3.49,6.3,j
3186.0,2772.0,3079.0,2752.0,2829.0,3271.0,2655.0,4095.0,-16.47,-3.73,10.3,-0.66,2.46,7.34,j
1168.0,2790.0,3079.0,2626.0,2763.0,3275.0,2750.0,4095.0,-6.01,2.7,5.5,2.03,2.32,5.17,j
1094.0,2791.0,3088.0,2579.0,2732.0,3261.0,2724.0,4095.0,-2.75,5.78,1.4,0.86,-0.85,1.58,j
1065.0,2765.0,3086.0,2587.0,2733.0,3274.0,2629.0,4095.0,-5.37,5.85,3.03,0.32,0.28,0.58,j
1038.0,2761.0,3059.0,2559.0,2721.0,3254.0,2608.0,4095.0,-6.87,5.84,2.92,0.03,-0.52,-0.2,j
1035.0,2758.0,3047.0,2583.0,2730.0,3253.0,2605.0,4095.0,-7.32,5.87,2.3,0.17,-0.05,-0.05,j
1023.0,2765.0,3055.0,2559.0,2722.0,3257.0,2606.0,4095.0,-7.13,6.27,1.32,-0.06,-0.12,-0.14,j
1017.0,2745.0,3046.0,2551.0,2704.0,3248.0,2589.0,4095.0,-7.07,6.39,2.05,-0.02,-0.02,-0.04,j
1008.0,2736.0,3046.0,2551.0,2705.0,3238.0,2587.0,4095.0,-6.82,6.04,1.96,0.04,-0.03,0.02,j
1008.0,2731.0,3040.0,2550.0,2703.0,3237.0,2587.0,4095.0,-6.81,6.41,1.36,-0.03,0.07,0.05,j
967.0,2707.0,2994.0,2559.0,2794.0,3157.0,2496.0,4095.0,3.7,7.73,4.25,-0.01,-0.03,0.05,j
964.0,2703.0,3007.0,2559.0,2785.0,3163.0,2487.0,4095.0,4.32,7.67,4.39,-0.02,0.03,0.0,j
962.0,2704.0,2997.0,2559.0,2790.0,3164.0,2481.0,4095.0,5.96,7.63,4.36,-0.08,0.14,-0.27,j
963.0,2704.0,2982.0,2545.0,2787.0,3150.0,2482.0,4095.0,8.03,8.21,2.75,-0.85,0.87,-1.76,j
1039.0,2642.0,2924.0,2497.0,2801.0,3055.0,2415.0,4095.0,5.4,6.73,1.02,-2.69,1.78,-2.99,j
1104.0,2644.0,2932.0,2468.0,2814.0,3051.0,2451.0,4095.0,2.63,1.59,-0.62,-5.58,6.12,-5.94,j
1009.0,2663.0,2951.0,2431.0,2701.0,3043.0,2480.0,4095.0,-12.24,-3.65,-0.21,-5.25,2.42,-3.24,j
1019.0,2672.0,2945.0,2503.0,2725.0,3055.0,2529.0,4095.0,-7.97,-0.24,4.93,-3.97,3.35,-0.13,j
1012.0,2685.0,2947.0,2587.0,2751.0,3089.0,2512.0,4095.0,-15.88,-3.34,6.9,-3.6,3.13,3.82,j
4095.0,2678.0,2960.0,2725.0,2866.0,3139.0,2505.0,4095.0,-14.19,-0.93,9.37,-0.93,3.1,5.03,j
4095.0,2624.0,2918.0,2596.0,2832.0,3123.0,2469.0,4095.0,-10.62,2.09,6.75,1.39,1.12,5.59,j
1398.0,2643.0,2934.0,2534.0,2770.0,3131.0,2477.0,4095.0,-8.58,5.29,3.92,1.73,1.37,4.1,j
1063.0,2665.0,2960.0,2550.0,2786.0,3159.0,2499.0,4095.0,-3.4,6.22,2.09,0.77,-0.36,2.41,j
1058.0,2661.0,2954.0,2544.0,2791.0,3163.0,2499.0,4095.0,-2.3,7.15,2.6,0.5,0.39,1.48,j
1042.0,2660.0,2943.0,2540.0,2789.0,3147.0,2499.0,4095.0,-2.85,7.44,3.4,0.03,-0.41,0.35,j
1041.0,2671.0,2947.0,2542.0,2788.0,3153.0,2498.0,4095.0,-3.98,7.85,3.03,0.1,0.04,0.09,j
1045.0,2667.0,2945.0,2544.0,2795.0,3151.0,2498.0,4095.0,-3.76,8.34,1.9,0.18,-0.17,-0.24,j
1045.0,2655.0,2944.0,2549.0,2797.0,3139.0,2496.0,4095.0,-5.49,8.29,1.42,-0.01,0.05,-0.12,j
1039.0,2661.0,2946.0,2544.0,2803.0,3143.0,2487.0,4095.0,-4.84,8.41,1.58,-0.02,-0.04,-0.0,j
1041.0,2660.0,2949.0,2544.0,2797.0,3143.0,2495.0,4095.0,-4.22,8.09,1.62,-0.03,-0.05,-0.03,j
1039.0,2663.0,2958.0,2615.0,2807.0,3145.0,2455.0,4095.0,4.08,8.55,2.56,-0.08,0.12,0.06,j
1040.0,2669.0,2947.0,2624.0,2809.0,3139.0,2466.0,4095.0,4.31,8.77,2.66,-0.09,0.06,-0.08,j
1039.0,2665.0,2960.0,2640.0,2814.0,3141.0,2461.0,4095.0,4.16,7.71,2.52,-0.12,-0.17,-0.19,j
1038.0,2661.0,2962.0,2559.0,2816.0,3152.0,2455.0,4095.0,7.13,7.5,0.35,-0.08,0.36,-0.57,j
1023.0,2662.0,2951.0,2401.0,2672.0,3129.0,2438.0,4095.0,8.42,7.83,-0.99,-1.35,0.21,-3.34,j
1040.0,2663.0,2951.0,2360.0,2658.0,3094.0,2450.0,4095.0,5.84,4.58,-2.52,-4.34,1.76,-6.36,j
1138.0,2670.0,2967.0,2465.0,2738.0,3055.0,2485.0,4095.0,-0.45,-1.47,-1.39,-7.4,4.01,-7.39,j
1046.0,2662.0,2959.0,2613.0,2752.0,3051.0,2515.0,4095.0,-11.96,-5.36,1.31,-6.44,4.33,-2.71,j
1116.0,2714.0,3008.0,2542.0,2751.0,3117.0,2559.0,4095.0,-20.46,-5.62,2.55,-6.29,6.18,2.51,j
1081.0,2655.0,2978.0,2511.0,2749.0,3111.0,2482.0,4095.0,-18.95,-4.75,5.62,-3.9,3.71,6.79,j
4095.0,2654.0,2979.0,2555.0,2814.0,3159.0,2851.0,4095.0,-12.5,1.9,3.76,-0.81,3.23,4.95,j
1451.0,2667.0,2979.0,2386.0,2662.0,3167.0,2518.0,4095.0,-6.05,5.42,1.25,0.33,1.18,2.73,j
989.0,2662.0,2978.0,2387.0,2660.0,3173.0,3298.0,4095.0,-6.87,6.07,0.18,0.21,0.26,1.04,j
973.0,2661.0,2978.0,2403.0,2667.0,3184.0,2543.0,4095.0,-6.77,6.22,0.09,-0.01,0.16,0.31,j
977.0,2657.0,2975.0,2415.0,2672.0,3167.0,2543.0,4095.0,-7.52,6.17,-0.04,0.1,-0.15,0.29,j
1014.0,2671.0,2981.0,2415.0,2670.0,3178.0,2544.0,4095.0,-6.65,6.56,-0.52,-0.03,0.21,0.14,j
1010.0,2667.0,2981.0,2413.0,2670.0,3173.0,2551.0,4095.0,-6.78,6.45,-0.56,-0.07,-0.04,0.17,j
1146.0,2670.0,2977.0,2415.0,2665.0,3178.0,2544.0,4095.0,-6.64,6.35,-0.47,0.01,0.03,-0.0,j
1232.0,2662.0,2988.0,2423.0,2675.0,3174.0,2539.0,4095.0,-6.78,6.63,-0.78,-0.01,0.03,-0.0,j
1213.0,2666.0,2990.0,2426.0,2677.0,3170.0,2544.0,4095.0,-6.62,6.74,-0.69,-0.09,0.02,-0.19,j
1151.0,2672.0,2992.0,2546.0,2770.0,3175.0,2485.0,4095.0,2.95,8.16,3.73,-0.07,-0.02,-0.04,j
1157.0,2685.0,2976.0,2537.0,2768.0,3184.0,2493.0,4095.0,3.11,8.23,3.85,-0.07,-0.04,-0.01,j
1145.0,2681.0,2983.0,2538.0,2768.0,3174.0,2493.0,4095.0,4.02,8.1,4.04,-0.08,-0.13,0.03,j
1150.0,2677.0,2992.0,2543.0,2769.0,3174.0,2484.0,4095.0,5.07,7.73,3.98,-0.14,-0.03,-0.35,j
1147.0,2683.0,2983.0,2544.0,2784.0,3166.0,2480.0,4095.0,5.39,6.83,2.99,-0.35,0.08,-0.96,j
1155.0,2688.0,2987.0,2543.0,2769.0,3170.0,2485.0,4095.0,5.21,7.52,2.48,-0.93,1.35,-2.2,j
1403.0,2677.0,2983.0,2654.0,2896.0,3162.0,2479.0,4095.0,3.57,7.1,1.15,-1.91,2.69,-3.99,j
1390.0,2700.0,3010.0,2666.0,2933.0,3172.0,2512.0,4095.0,-1.82,3.63,-1.84,-3.66,6.14,-5.04,j
1455.0,2710.0,3009.0,2699.0,2949.0,3146.0,2533.0,4095.0,-10.68,1.33,-1.87,-4.04,5.68,-2.54,j
1401.0,2749.0,3050.0,2610.0,2866.0,3191.0,2583.0,4095.0,-16.26,2.05,1.29,-3.17,6.12,1.44,j
1396.0,2731.0,3031.0,2647.0,2864.0,3206.0,2556.0,4095.0,-15.78,3.52,3.37,-2.45,4.43,4.05,j
3506.0,2726.0,3024.0,2585.0,2802.0,3222.0,2550.0,4095.0,-11.03,5.94,3.13,-0.33,2.25,3.93,j
1402.0,2734.0,3035.0,2580.0,2725.0,3230.0,2559.0,4095.0,-6.7,7.24,0.45,0.52,1.83,2.75,j
1143.0,2732.0,3026.0,2512.0,2749.0,3227.0,2559.0,4095.0,-6.19,7.91,-1.45,0.41,0.95,2.06,j
1136.0,2727.0,3021.0,2510.0,2750.0,3241.0,2559.0,4095.0,-3.58,8.51,-1.46,0.12,0.56,1.04,j
1136.0,2714.0,3025.0,2509.0,2754.0,3239.0,2580.0,4095.0,-4.27,8.54,-0.75,0.03,-0.18,0.41,j
1133.0,2726.0,3022.0,2511.0,2758.0,3235.0,2590.0,4095.0,-4.18,8.56,-0.87,-0.13,0.27,0.11,j
1126.0,2717.0,3022.0,2509.0,2754.0,3231.0,2588.0,4095.0,-3.76,8.47,-0.82,-0.11,-0.04,-0.03,j
1125.0,2715.0,3019.0,2503.0,2754.0,3235.0,2583.0,4095.0,-4.5,8.2,-1.19,-0.04,-0.01,-0.02,j
1121.0,2715.0,3019.0,2499.0,2738.0,3234.0,2559.0,4095.0,-3.85,8.34,-1.41,0.01,0.04,-0.05,j
1110.0,2694.0,2981.0,2609.0,2779.0,3163.0,2490.0,4095.0,4.39,7.01,4.98,0.01,0.08,0.05,j
1110.0,2694.0,2981.0,2609.0,2779.0,3163.0,2490.0,4095.0,4.39,7.01,4.98,0.01,0.08,0.05,j
1109.0,2681.0,2974.0,2610.0,2781.0,3154.0,2495.0,4095.0,4.4,7.32,4.53,-0.07,-0.04,-0.01,j
1111.0,2681.0,2987.0,2610.0,2779.0,3159.0,2487.0,4095.0,5.18,6.92,4.36,-0.12,0.26,-0.19,j
1107.0,2692.0,2977.0,2513.0,2754.0,3111.0,2451.0,4095.0,8.25,8.52,2.01,-1.07,0.74,-2.52,j
1419.0,2694.0,2981.0,2379.0,2608.0,3071.0,2468.0,4095.0,9.17,3.57,-1.6,-5.04,0.46,-5.33,j
1182.0,2741.0,3024.0,2543.0,2693.0,3129.0,2551.0,4095.0,-1.66,-2.21,-4.0,-7.68,6.84,-4.64,j
1254.0,2750.0,3021.0,2857.0,2942.0,3136.0,2675.0,4095.0,-20.68,-4.72,-4.62,-8.41,8.73,1.38,j
1178.0,2718.0,2971.0,2852.0,2892.0,3114.0,2530.0,4095.0,-17.46,-4.8,10.16,-5.1,5.39,4.43,j
1164.0,2704.0,2983.0,2971.0,2989.0,3141.0,2531.0,4095.0,-14.84,-1.37,7.53,-0.27,2.01,3.4,j
1072.0,2704.0,2985.0,2832.0,2890.0,3152.0,2546.0,4095.0,-8.25,3.57,2.22,-0.18,2.35,2.51,j
4095.0,2714.0,2989.0,2843.0,2922.0,3158.0,2547.0,4095.0,-8.27,2.83,2.5,0.65,-1.29,0.18,j
1612.0,2693.0,2983.0,2777.0,2858.0,3150.0,2555.0,4095.0,-9.8,2.28,2.51,-0.02,0.66,0.62,j
4095.0,2711.0,2979.0,2823.0,2917.0,3152.0,2559.0,4095.0,-7.59,3.27,0.34,0.41,-0.29,0.13,j
2891.0,2702.0,2986.0,2774.0,2864.0,3155.0,2559.0,4095.0,-9.03,3.36,0.43,0.01,0.08,0.11,j
1535.0,2692.0,2969.0,2762.0,2861.0,3174.0,2559.0,4095.0,-8.73,3.68,0.45,0.11,0.13,0.1,j
2635.0,2698.0,2983.0,2764.0,2861.0,3146.0,2559.0,4095.0,-8.71,3.6,0.76,-0.02,0.01,0.05,j
1519.0,2690.0,2992.0,2766.0,2861.0,3166.0,2559.0,4095.0,-8.79,3.51,0.62,0.12,-0.04,0.02,j
1358.0,2694.0,2982.0,2761.0,2858.0,3166.0,2558.0,4095.0,-8.67,3.47,1.0,0.06,0.05,0.04,j
1356.0,2689.0,2971.0,2764.0,2852.0,3167.0,2559.0,4095.0,-8.31,3.95,0.35,0.07,0.15,0.01,j
1046.0,2654.0,2939.0,2795.0,2714.0,3107.0,2433.0,4095.0,3.6,8.14,3.69,-0.05,0.03,-0.02,j
1051.0,2650.0,2938.0,2800.0,2715.0,3111.0,2439.0,4095.0,4.0,7.6,4.05,-0.06,0.04,-0.02,j
1050.0,2653.0,2943.0,2813.0,2729.0,3120.0,2448.0,4095.0,4.3,7.62,3.26,-0.12,0.09,-0.15,j
1040.0,2651.0,2939.0,2719.0,2586.0,3114.0,2438.0,4095.0,7.71,8.19,1.41,-1.26,0.71,-1.51,j
1139.0,2673.0,2941.0,2692.0,2673.0,3089.0,2474.0,4095.0,12.58,5.46,-2.68,-4.96,2.55,-5.61,j
1349.0,2684.0,2974.0,2439.0,2699.0,3082.0,2480.0,4095.0,-3.32,-3.61,-11.73,-8.73,8.73,-7.16,j
1095.0,2663.0,2949.0,2661.0,2797.0,3056.0,2511.0,4095.0,-19.21,-10.61,5.45,-6.67,8.39,-0.5,j
1663.0,2654.0,2958.0,2396.0,2683.0,3071.0,2551.0,4095.0,-23.86,-3.7,4.71,-1.01,3.24,3.21,j
4095.0,2639.0,2954.0,2489.0,2823.0,3099.0,2462.0,4095.0,-9.62,2.34,2.35,-1.34,3.51,5.39,j
1583.0,2643.0,2959.0,2356.0,2691.0,3115.0,2455.0,4095.0,-8.43,2.96,2.14,-0.24,-0.13,2.17,j
1311.0,2647.0,2958.0,2349.0,2685.0,3114.0,2452.0,4095.0,-8.31,3.18,1.87,-0.08,0.46,0.93,j
1202.0,2655.0,2961.0,2355.0,2701.0,3120.0,2467.0,4095.0,-7.03,3.96,0.88,0.24,-0.31,0.11,j
1168.0,2652.0,2960.0,2366.0,2693.0,3117.0,2471.0,4095.0,-8.7,3.54,0.7,0.01,0.09,-0.13,j
1172.0,2650.0,2953.0,2381.0,2698.0,3114.0,2483.0,4095.0,-9.19,3.94,0.13,0.27,0.01,-0.14,j
1172.0,2655.0,2965.0,2381.0,2699.0,3115.0,2490.0,4095.0,-8.74,4.54,0.01,-0.09,-0.01,-0.15,j
1181.0,2662.0,2977.0,2391.0,2706.0,3125.0,2492.0,4095.0,-8.75,4.24,0.25,0.09,0.03,0.0,j
1340.0,2658.0,2963.0,2398.0,2695.0,3120.0,2489.0,4095.0,-8.45,4.39,-0.36,-0.1,-0.04,0.1,j
1375.0,2658.0,2969.0,2405.0,2709.0,3126.0,2499.0,4095.0,-8.2,4.16,0.25,-0.09,0.1,0.04,j
1310.0,2659.0,2967.0,2409.0,2707.0,3129.0,2491.0,4095.0,-7.79,4.08,0.74,-0.06,0.06,-0.04,j
1285.0,2662.0,2960.0,2416.0,2708.0,3120.0,2502.0,4095.0,-8.41,4.27,-0.09,0.07,0.09,-0.09,j
1039.0,2670.0,2969.0,2559.0,2755.0,3120.0,2461.0,4095.0,3.55,7.53,4.91,-0.14,-0.09,0.1,j
1021.0,2666.0,2965.0,2559.0,2765.0,3126.0,2468.0,4095.0,3.52,7.63,4.57,-0.11,0.04,0.19,j
1018.0,2657.0,2960.0,2559.0,2755.0,3121.0,2455.0,4095.0,4.78,7.73,4.7,-0.25,-0.02,-0.02,j
1041.0,2689.0,2970.0,2543.0,2770.0,3123.0,2466.0,4095.0,6.62,8.23,3.48,-0.89,-0.21,-1.49,j
1424.0,2657.0,2955.0,2722.0,2890.0,3115.0,2448.0,4095.0,6.22,6.12,2.01,-2.41,-0.5,-2.9,j
897.0,2608.0,2898.0,2386.0,2619.0,3017.0,2414.0,4095.0,6.99,4.01,1.04,-4.45,0.56,-4.39,j
1296.0,2623.0,2907.0,2611.0,2777.0,3023.0,2431.0,4095.0,-3.23,-2.47,-0.03,-6.92,4.37,-4.43,j
1170.0,2642.0,2922.0,2586.0,2704.0,3038.0,2478.0,4095.0,-8.51,-3.69,1.92,-6.24,6.24,-1.48,j
1165.0,2692.0,2973.0,2662.0,2775.0,3099.0,2539.0,4095.0,-19.7,-4.32,0.93,-6.5,6.15,2.54,j
1393.0,2665.0,2947.0,2859.0,2976.0,3099.0,2506.0,4095.0,-20.81,-5.03,4.74,-4.47,4.16,6.59,j
1195.0,2646.0,2934.0,2764.0,2853.0,3118.0,2502.0,4095.0,-16.95,-2.87,8.71,-0.39,1.32,6.43,j
944.0,2624.0,2910.0,2502.0,2661.0,3099.0,2496.0,4095.0,-8.28,1.79,3.06,1.41,2.11,6.24,j
925.0,2637.0,2910.0,2495.0,2672.0,3120.0,2474.0,4095.0,-5.59,5.6,-0.64,0.97,-0.12,3.39,j
918.0,2639.0,2921.0,2487.0,2672.0,3120.0,2470.0,4095.0,-4.1,6.08,-0.19,0.09,0.39,1.78,j
919.0,2634.0,2920.0,2466.0,2675.0,3124.0,2485.0,4095.0,-4.36,6.95,0.54,0.03,-0.65,0.47,j
923.0,2631.0,2919.0,2483.0,2685.0,3122.0,2481.0,4095.0,-4.89,7.27,0.31,-0.11,-0.0,0.01,j
914.0,2627.0,2919.0,2474.0,2679.0,3121.0,2484.0,4095.0,-4.83,7.76,-0.14,0.04,-0.23,0.01,j
921.0,2635.0,2914.0,2480.0,2693.0,3120.0,2480.0,4095.0,-5.09,7.94,-0.68,0.03,-0.06,0.02,j
912.0,2633.0,2911.0,2480.0,2695.0,3127.0,2483.0,4095.0,-5.09,8.08,-0.23,0.12,-0.04,0.03,j
917.0,2637.0,2919.0,2485.0,2690.0,3130.0,2485.0,4095.0,-5.4,7.97,-1.01,0.04,-0.04,-0.08,j
981.0,2729.0,3005.0,2559.0,2745.0,3161.0,2491.0,4095.0,3.74,7.99,3.96,-0.09,-0.05,-0.07,j
976.0,2730.0,3002.0,2583.0,2740.0,3156.0,2489.0,4095.0,3.58,7.71,4.04,-0.15,-0.02,-0.07,j
974.0,2730.0,3011.0,2580.0,2738.0,3153.0,2481.0,4095.0,3.79,7.84,4.21,-0.07,0.05,-0.06,j
971.0,2720.0,2997.0,2559.0,2739.0,3159.0,2487.0,4095.0,4.33,7.52,3.81,-0.3,0.2,-0.24,j
972.0,2721.0,3003.0,2559.0,2725.0,3151.0,2479.0,4095.0,5.82,7.13,3.2,-0.61,0.21,-1.13,j
987.0,2727.0,2998.0,2517.0,2732.0,3123.0,2459.0,4095.0,6.49,5.67,2.32,-1.11,0.97,-2.35,j
1094.0,2727.0,2998.0,2512.0,2723.0,3095.0,2455.0,4095.0,5.23,3.24,1.57,-3.1,0.72,-4.35,j
1648.0,2730.0,2999.0,2670.0,2820.0,3116.0,2480.0,4095.0,-2.14,-0.75,0.96,-4.06,2.19,-4.65,j
1301.0,2736.0,3014.0,2662.0,2782.0,3110.0,2497.0,4095.0,-6.96,-0.64,1.97,-4.29,3.81,-3.06,j
1072.0,2698.0,2975.0,2614.0,2740.0,3087.0,2462.0,4095.0,-17.47,-0.94,0.92,-4.72,5.87,-0.17,j
1072.0,2704.0,2960.0,2650.0,2787.0,3105.0,2481.0,4095.0,-23.77,-0.51,4.78,-4.19,5.83,3.92,j
4095.0,2723.0,2987.0,2725.0,2883.0,3150.0,2512.0,4095.0,-20.92,1.45,8.91,-2.23,3.76,6.11,j
1039.0,2716.0,2986.0,2582.0,2774.0,3166.0,2526.0,4095.0,-13.37,2.1,8.07,0.35,2.63,5.34,j
958.0,2695.0,2962.0,2544.0,2763.0,3155.0,2480.0,4095.0,-6.12,4.53,1.2,0.52,1.02,3.87,j
944.0,2690.0,2960.0,2542.0,2751.0,3150.0,2480.0,4095.0,-2.47,6.26,-0.61,0.02,-0.18,1.85,j
937.0,2688.0,2957.0,2525.0,2751.0,3149.0,2480.0,4095.0,-2.08,6.01,0.36,-0.07,-0.21,0.58,j
930.0,2689.0,2957.0,2532.0,2757.0,3152.0,2480.0,4095.0,-3.84,7.19,0.63,-0.18,-0.04,-0.07,j
930.0,2702.0,2960.0,2547.0,2762.0,3152.0,2481.0,4095.0,-4.15,7.83,0.57,0.01,-0.18,-0.15,j
930.0,2683.0,2951.0,2544.0,2768.0,3155.0,2485.0,4095.0,-5.2,8.4,0.44,0.03,0.14,0.03,j
928.0,2688.0,2955.0,2558.0,2765.0,3157.0,2486.0,4095.0,-4.77,8.43,0.01,0.07,0.01,-0.13,j
1071.0,2749.0,3006.0,2717.0,2843.0,3171.0,2512.0,4095.0,4.2,7.23,4.62,-0.12,-0.07,-0.04,j
1071.0,2749.0,3006.0,2717.0,2843.0,3171.0,2512.0,4095.0,4.2,7.23,4.62,-0.12,-0.07,-0.04,j
1070.0,2750.0,3003.0,2720.0,2847.0,3166.0,2507.0,4095.0,4.4,7.24,4.79,-0.04,0.06,0.05,j
1072.0,2752.0,3002.0,2721.0,2839.0,3170.0,2512.0,4095.0,4.31,7.22,4.4,-0.07,-0.07,-0.1,j
1063.0,2750.0,3004.0,2714.0,2848.0,3171.0,2509.0,4095.0,4.66,7.17,4.09,-0.23,0.07,-0.24,j
1061.0,2750.0,3005.0,2657.0,2833.0,3153.0,2493.0,4095.0,7.52,8.67,3.49,-0.71,0.44,-1.73,j
1056.0,2705.0,2972.0,2468.0,2673.0,3102.0,2463.0,4095.0,10.33,7.19,1.94,-3.51,1.13,-5.29,j
960.0,2715.0,2972.0,2452.0,2658.0,3097.0,2499.0,4095.0,1.88,0.46,2.21,-6.45,5.38,-5.27,j
1794.0,2725.0,2973.0,2706.0,2843.0,3082.0,2542.0,4095.0,-12.9,0.19,0.08,-5.68,7.24,-0.25,j
1177.0,2712.0,2959.0,2586.0,2768.0,3122.0,2529.0,4095.0,-22.87,-5.23,4.99,-4.58,7.81,6.13,j
4095.0,2691.0,2960.0,2594.0,2818.0,3151.0,2542.0,4095.0,-12.15,0.73,8.44,0.88,3.58,7.84,j
1161.0,2613.0,2875.0,2475.0,178.0,3049.0,2407.0,4095.0,-2.36,6.87,0.17,1.61,1.34,5.16,j
1092.0,2619.0,2878.0,2485.0,124.0,3071.0,2419.0,4095.0,0.05,8.04,1.08,0.81,-0.11,1.44,j
1104.0,2621.0,2883.0,2509.0,134.0,3067.0,2415.0,4095.0,-3.67,8.64,1.08,0.4,-0.02,0.48,j
1110.0,2623.0,2884.0,2537.0,139.0,3065.0,2407.0,4095.0,-3.57,8.67,0.96,0.09,-0.18,-0.18,j
1104.0,2615.0,2897.0,2551.0,139.0,3067.0,2416.0,4095.0,-4.74,8.78,0.94,0.12,-0.4,-0.15,j
1107.0,2624.0,2890.0,2559.0,144.0,3071.0,2416.0,4095.0,-4.99,8.81,0.05,0.01,0.1,-0.03,j
1107.0,2619.0,2890.0,2559.0,134.0,3079.0,2419.0,4095.0,-3.8,8.74,0.56,-0.02,-0.1,-0.02,j
1105.0,2627.0,2893.0,2559.0,138.0,3066.0,2419.0,4095.0,-4.45,8.49,0.4,-0.06,0.07,-0.04,j
1106.0,2619.0,2895.0,2583.0,141.0,3063.0,2415.0,4095.0,-4.43,8.43,0.5,-0.02,0.03,0.04,j
1072.0,2634.0,2891.0,2835.0,2805.0,3088.0,2432.0,4095.0,4.24,7.73,4.05,-0.09,-0.07,0.04,j
1065.0,2635.0,2897.0,2845.0,2805.0,3089.0,2447.0,4095.0,4.64,7.85,3.55,0.17,0.11,0.17,j
1065.0,2642.0,2909.0,2835.0,2810.0,3090.0,2437.0,4095.0,5.2,7.68,3.11,-0.08,0.15,-0.08,j
1069.0,2640.0,2899.0,2656.0,2807.0,3071.0,2435.0,4095.0,6.6,7.85,2.73,-0.27,0.4,-0.7,j
1054.0,2631.0,2887.0,2733.0,2798.0,3056.0,2415.0,4095.0,9.54,8.33,-0.12,-2.72,0.32,-4.52,j
1192.0,2661.0,2929.0,2496.0,2829.0,3057.0,2465.0,4095.0,11.7,1.81,-1.81,-6.58,1.38,-7.34,j
1271.0,2684.0,2959.0,2512.0,2727.0,3067.0,2523.0,4095.0,-8.33,-3.54,-4.11,-7.26,5.95,-4.62,j
1770.0,2704.0,2981.0,2688.0,2815.0,3136.0,2607.0,4095.0,-17.77,-6.55,4.84,-7.49,6.27,1.94,j
1091.0,2679.0,2955.0,2621.0,2802.0,3143.0,3049.0,4095.0,-25.37,-7.79,8.85,-4.61,5.4,8.73,j
4095.0,2670.0,2949.0,2655.0,2860.0,3181.0,2798.0,4095.0,-11.96,1.56,9.99,0.25,2.84,8.12,j
1779.0,2656.0,2931.0,2447.0,2714.0,3169.0,2502.0,4095.0,-1.92,5.46,3.16,1.91,0.44,4.07,j
1020.0,2661.0,2938.0,2506.0,37.0,3170.0,2509.0,4095.0,-2.13,7.3,-0.67,0.44,0.53,1.47,j
1008.0,2655.0,2941.0,2429.0,27.0,3175.0,2522.0,4095.0,-4.56,7.63,2.06,0.12,-0.74,0.2,j
1001.0,2660.0,2950.0,2455.0,32.0,3179.0,2530.0,4095.0,-6.21,7.62,1.72,0.11,-0.02,0.2,j
987.0,2656.0,2939.0,2451.0,26.0,3181.0,2522.0,4095.0,-4.39,7.99,0.74,0.1,-0.47,-0.09,j
990.0,2666.0,2943.0,2460.0,27.0,3177.0,2524.0,4095.0,-4.65,7.68,0.9,0.05,-0.2,0.01,j
990.0,2658.0,2937.0,2463.0,24.0,3174.0,2526.0,4095.0,-4.62,7.86,0.97,0.06,-0.21,-0.1,j
992.0,2666.0,2937.0,2452.0,29.0,3173.0,2528.0,4095.0,-5.25,8.05,0.71,0.11,-0.0,-0.04,j
989.0,2667.0,2945.0,2464.0,30.0,3183.0,2535.0,4095.0,-4.84,8.14,1.05,0.05,-0.18,-0.04,j
983.0,2657.0,2947.0,2464.0,23.0,3172.0,2522.0,4095.0,-5.2,8.14,0.83,0.04,0.08,-0.02,j
1042.0,2741.0,2998.0,2581.0,2770.0,3171.0,2541.0,4095.0,4.51,8.06,3.04,-0.06,0.12,-0.02,j
1057.0,2747.0,3005.0,2585.0,2781.0,3187.0,2539.0,4095.0,4.67,8.02,3.01,-0.06,-0.02,0.0,j
1043.0,2747.0,3002.0,2591.0,2786.0,3190.0,2530.0,4095.0,4.95,7.76,3.15,-0.03,0.31,-0.01,j
1018.0,2737.0,3003.0,2559.0,2770.0,3180.0,2531.0,4095.0,5.62,7.6,2.89,-0.03,-0.04,-0.27,j
1018.0,2736.0,2997.0,2548.0,2762.0,3161.0,2523.0,4095.0,7.48,8.33,1.71,-0.4,0.15,-1.58,j
1097.0,2750.0,3008.0,2517.0,2823.0,3166.0,2517.0,4095.0,6.92,6.49,-1.06,-2.69,-0.19,-4.53,j
1181.0,2741.0,3007.0,2429.0,2749.0,3135.0,2519.0,4095.0,5.94,3.34,-2.22,-5.76,2.03,-5.92,j
1104.0,2759.0,3024.0,2531.0,2779.0,3162.0,2589.0,4095.0,-10.67,-1.52,-2.01,-8.62,6.55,-3.42,j
993.0,2736.0,2996.0,2546.0,2752.0,3165.0,2583.0,4095.0,-22.99,-3.85,5.67,-5.52,7.39,4.42,j
1047.0,2679.0,2960.0,2559.0,2810.0,3153.0,2522.0,4095.0,-17.45,0.75,8.64,-1.41,5.34,8.46,j
997.0,2610.0,2866.0,2448.0,2686.0,3069.0,2437.0,4095.0,-5.33,4.73,10.06,1.19,1.36,5.47,j
961.0,2597.0,2853.0,2447.0,2719.0,3055.0,2418.0,4095.0,0.39,6.91,2.36,1.48,0.16,2.09,j
961.0,2630.0,2894.0,2445.0,0.0,3100.0,2461.0,4095.0,-3.92,7.44,1.55,0.32,-0.57,0.28,j
944.0,2632.0,2893.0,2448.0,2715.0,3113.0,2458.0,4095.0,-5.11,7.76,2.46,0.26,-0.18,-0.01,j
946.0,2631.0,2896.0,2457.0,2727.0,3099.0,2467.0,4095.0,-4.13,7.99,1.57,0.21,-0.27,-0.03,j
947.0,2630.0,2897.0,2469.0,2735.0,3120.0,2469.0,4095.0,-4.21,8.45,1.38,0.16,0.05,-0.04,j
945.0,2640.0,2906.0,2474.0,2731.0,3114.0,2477.0,4095.0,-4.41,8.25,1.54,0.04,-0.0,-0.08,j
949.0,2638.0,2898.0,2480.0,2736.0,3116.0,2475.0,4095.0,-5.04,8.34,1.51,0.03,-0.01,0.01,j
944.0,2629.0,2899.0,2481.0,2736.0,3110.0,2491.0,4095.0,-4.41,8.31,1.54,-0.01,0.02,0.05,j
944.0,2631.0,2901.0,2485.0,2738.0,3111.0,2480.0,4095.0,-4.62,8.35,1.59,0.02,0.06,0.06,j
981.0,2661.0,2911.0,2539.0,2745.0,3086.0,2420.0,4095.0,4.82,7.26,3.08,-0.15,-0.05,-0.04,j
978.0,2655.0,2911.0,2538.0,2743.0,3088.0,2416.0,4095.0,5.18,7.5,3.23,-0.08,0.13,-0.02,j
993.0,2670.0,2909.0,2543.0,2751.0,3085.0,2426.0,4095.0,5.12,7.11,3.41,-0.23,0.35,-0.17,j
982.0,2674.0,2927.0,2525.0,2731.0,3089.0,2421.0,4095.0,5.92,6.49,2.85,-0.51,0.05,-0.7,j
976.0,2669.0,2915.0,2461.0,2707.0,3062.0,2422.0,4095.0,10.14,6.44,1.24,-1.51,0.32,-3.38,j
899.0,2656.0,2914.0,2368.0,2686.0,3059.0,2431.0,4095.0,10.44,2.09,-3.25,-4.87,2.55,-7.3,j
1133.0,2658.0,2907.0,2506.0,2771.0,3006.0,2455.0,4095.0,-9.31,-4.39,-5.58,-7.04,4.75,-6.63,j
1005.0,2672.0,2919.0,2638.0,2774.0,3035.0,2483.0,4095.0,-19.11,-3.31,4.9,-6.83,7.18,1.02,j
982.0,2663.0,2918.0,2581.0,2705.0,3054.0,2480.0,4095.0,-28.24,-4.46,6.59,-4.89,3.78,6.35,j
1255.0,2653.0,2902.0,2559.0,2677.0,3105.0,2480.0,4095.0,-13.87,-1.34,13.41,-0.04,1.71,6.52,j
1709.0,2638.0,2901.0,2532.0,0.0,3090.0,2451.0,4095.0,-6.11,3.44,5.17,1.69,1.7,4.45,j
929.0,2641.0,2896.0,2512.0,0.0,3088.0,2475.0,4095.0,-2.55,5.77,0.64,0.27,-1.05,1.59,j
908.0,2640.0,2892.0,2527.0,0.0,3105.0,2480.0,4095.0,-4.54,5.1,3.54,-0.26,-0.42,0.75,j
912.0,2640.0,2896.0,2545.0,0.0,3093.0,2486.0,4095.0,-4.37,5.87,3.9,0.13,-0.29,0.27,j
944.0,2638.0,2893.0,2556.0,0.0,3094.0,2480.0,4095.0,-4.61,7.21,2.04,0.25,-0.03,0.1,j
935.0,2647.0,2895.0,2559.0,0.0,3101.0,2480.0,4095.0,-5.22,7.27,2.5,0.11,0.12,0.04,j
937.0,2631.0,2896.0,2551.0,0.0,3095.0,2480.0,4095.0,-4.8,7.84,2.32,0.1,0.09,0.02,j
940.0,2652.0,2885.0,2555.0,0.0,3094.0,2467.0,4095.0,-4.94,7.61,2.35,0.09,-0.12,0.06,j
937.0,2643.0,2893.0,2551.0,0.0,3095.0,2480.0,4095.0,-5.74,7.47,2.68,0.01,0.27,0.08,j
937.0,2640.0,2890.0,2547.0,0.0,3093.0,2479.0,4095.0,-4.98,7.7,2.26,0.09,-0.0,0.11,j
979.0,2672.0,2913.0,2559.0,2770.0,3103.0,2455.0,4095.0,4.27,6.71,2.76,-1.02,0.27,-0.82,j
992.0,2663.0,2912.0,2500.0,2720.0,3098.0,2464.0,4095.0,2.86,7.22,4.13,-1.27,0.07,-1.09,j
981.0,2672.0,2922.0,2555.0,2755.0,3103.0,2469.0,4095.0,2.51,6.68,5.57,-0.93,0.24,-0.69,j
978.0,2669.0,2909.0,2523.0,2779.0,3091.0,2458.0,4095.0,5.88,6.86,2.81,-1.56,1.13,-1.89,j
1611.0,2645.0,2749.0,2470.0,2748.0,3059.0,2448.0,4095.0,4.09,3.98,-1.8,-5.13,4.49,-5.66,j
1231.0,2659.0,2902.0,2559.0,2697.0,3081.0,2938.0,4095.0,-11.01,0.89,1.95,-7.05,7.43,-2.27,j
980.0,2654.0,2899.0,2528.0,2672.0,3114.0,2499.0,4095.0,-23.48,0.76,4.47,-3.19,8.37,5.8,j
4095.0,2626.0,2878.0,2681.0,2864.0,3101.0,2485.0,4095.0,-17.86,3.45,5.84,-1.43,4.11,6.89,j
3494.0,2623.0,2862.0,2704.0,2886.0,3090.0,2470.0,4095.0,-8.63,3.93,7.3,0.27,0.6,3.57,j
930.0,2637.0,2883.0,2608.0,0.0,3104.0,2480.0,4095.0,-1.12,5.21,2.4,0.81,0.53,1.98,j
944.0,2672.0,2911.0,2608.0,0.0,3149.0,2512.0,4095.0,-3.9,6.28,1.98,0.15,-0.62,0.56,j
943.0,2677.0,2928.0,2598.0,0.0,3153.0,2518.0,4095.0,-4.3,7.07,2.01,0.29,0.05,0.15,j
943.0,2676.0,2919.0,2604.0,0.0,3158.0,2519.0,4095.0,-4.41,8.03,1.25,0.14,-0.34,-0.01,j
944.0,2686.0,2927.0,2608.0,0.0,3169.0,2543.0,4095.0,-5.11,8.45,1.33,0.07,0.3,-0.0,j
941.0,2688.0,2933.0,2608.0,0.0,3155.0,2527.0,4095.0,-4.95,8.05,1.62,0.05,0.1,0.06,j
942.0,2685.0,2929.0,2605.0,0.0,3149.0,2538.0,4095.0,-5.03,8.14,0.92,-0.0,0.2,0.05,j
939.0,2683.0,2928.0,2604.0,0.0,3169.0,2539.0,4095.0,-4.65,7.87,1.28,-0.09,0.08,-0.03,j
936.0,2681.0,2926.0,2602.0,0.0,3159.0,2528.0,4095.0,-5.3,7.93,1.52,0.02,0.11,-0.04,j
939.0,2687.0,2928.0,2606.0,0.0,3166.0,2530.0,4095.0,-5.29,7.95,1.13,0.07,0.03,0.03,j
939.0,2686.0,2946.0,2607.0,0.0,3165.0,2528.0,4095.0,-5.31,8.19,0.92,-0.0,0.09,0.07,j
923.0,2690.0,2939.0,2372.0,2612.0,3119.0,2438.0,4095.0,4.76,6.36,2.31,-0.94,-0.1,-0.94,j
930.0,2673.0,2925.0,2434.0,2684.0,3071.0,2431.0,4095.0,5.05,6.36,1.02,-1.43,0.83,-2.12,j
944.0,2672.0,2911.0,2447.0,2681.0,3053.0,2413.0,4095.0,4.28,5.08,-0.65,-3.74,0.69,-4.91,j
1109.0,2667.0,2911.0,2651.0,2813.0,3055.0,2432.0,4095.0,1.76,1.44,1.57,-6.35,3.35,-5.51,j
1008.0,2686.0,2919.0,2691.0,2778.0,3061.0,2448.0,4095.0,-15.16,-0.91,4.09,-5.5,7.41,-1.14,j
967.0,2672.0,2910.0,2615.0,2770.0,3071.0,2448.0,4095.0,-22.8,2.3,3.68,-3.87,7.05,4.01,j
947.0,2660.0,2919.0,2672.0,2804.0,3109.0,2474.0,4095.0,-17.52,2.72,9.22,-1.07,4.61,6.39,j
3654.0,2630.0,2877.0,2717.0,0.0,3085.0,2448.0,4095.0,-8.59,5.1,7.3,-0.01,1.32,4.21,j
963.0,2644.0,2884.0,2607.0,1.0,3095.0,2460.0,4095.0,-2.37,5.08,2.06,1.03,0.44,1.88,j
964.0,2644.0,2892.0,2604.0,0.0,3101.0,2466.0,4095.0,-3.79,5.96,-0.14,0.1,-0.29,0.4,j
957.0,2646.0,2890.0,2672.0,0.0,3095.0,2459.0,4095.0,-4.89,6.74,1.17,-0.19,-0.15,0.05,j
958.0,2650.0,2893.0,2679.0,0.0,3114.0,2465.0,4095.0,-5.74,7.29,1.4,-0.09,0.01,-0.02,j
959.0,2640.0,2887.0,2681.0,0.0,3104.0,2467.0,4095.0,-5.14,7.64,0.92,0.14,0.15,0.05,j
957.0,2640.0,2888.0,2679.0,0.0,3099.0,2474.0,4095.0,-5.34,7.74,0.78,-0.13,-0.03,-0.08,j
960.0,2650.0,2895.0,2681.0,0.0,3111.0,2467.0,4095.0,-5.72,7.73,1.16,-0.09,0.08,-0.04,j
958.0,2647.0,2889.0,2678.0,0.0,3111.0,2464.0,4095.0,-5.72,7.38,1.32,-0.03,0.01,-0.0,j
956.0,2641.0,2885.0,2672.0,0.0,3105.0,2464.0,4095.0,-5.65,7.59,0.89,0.02,0.05,-0.03,j
956.0,2640.0,2889.0,2653.0,0.0,3104.0,2462.0,4095.0,-5.27,7.55,0.91,-0.06,-0.06,-0.13,j
954.0,2654.0,2892.0,2640.0,0.0,3103.0,2455.0,4095.0,-5.93,7.6,1.16,-0.02,-0.01,-0.08,j
957.0,2646.0,2893.0,2637.0,0.0,3101.0,2463.0,4095.0,-5.75,7.47,1.3,-0.01,-0.0,0.0,j
996.0,2734.0,2976.0,2631.0,27.0,3146.0,2480.0,4095.0,3.98,8.32,4.19,0.03,0.35,-0.04,j
991.0,2723.0,2965.0,2630.0,29.0,3152.0,2480.0,4095.0,3.74,7.95,3.99,-0.05,-0.07,-0.01,j
987.0,2733.0,2965.0,2631.0,30.0,3154.0,2496.0,4095.0,3.85,7.93,3.6,0.01,0.15,0.03,j
994.0,2731.0,2966.0,2605.0,33.0,3144.0,2487.0,4095.0,6.37,8.82,2.43,-0.49,0.28,-0.57,j
1019.0,2743.0,2987.0,2462.0,52.0,3143.0,2511.0,4095.0,8.39,7.96,-1.68,-3.7,0.99,-5.58,j
1200.0,2710.0,2947.0,2471.0,2782.0,3094.0,2498.0,4095.0,5.66,2.2,0.3,-7.24,1.71,-6.6,j
963.0,2733.0,2955.0,2655.0,2775.0,3127.0,2590.0,4095.0,-10.74,-2.77,4.86,-7.65,8.05,0.19,j
1003.0,2727.0,2950.0,2512.0,2912.0,3173.0,2599.0,4095.0,-26.85,-7.41,7.35,-3.87,8.53,7.27,j
1078.0,2654.0,2913.0,2452.0,2869.0,3137.0,2422.0,4095.0,-11.57,2.12,4.79,0.75,4.73,8.14,j
1032.0,2530.0,2775.0,2477.0,0.0,2964.0,2331.0,4095.0,0.24,6.9,2.95,0.27,-0.47,2.25,j
916.0,2609.0,2871.0,2446.0,0.0,3071.0,2410.0,4095.0,-4.01,6.64,3.61,0.09,-0.56,0.12,j
931.0,2622.0,2877.0,2448.0,0.0,3083.0,2432.0,4095.0,-6.1,6.47,3.45,0.25,-0.38,-0.14,j
922.0,2619.0,2879.0,2477.0,0.0,3086.0,2438.0,4095.0,-6.14,6.92,1.82,0.25,0.05,-0.25,j
924.0,2614.0,2875.0,2480.0,0.0,3071.0,2439.0,4095.0,-6.03,7.42,2.26,0.16,-0.16,-0.05,j
918.0,2615.0,2877.0,2495.0,0.0,3086.0,2446.0,4095.0,-6.38,7.14,2.23,0.01,0.12,0.02,j
907.0,2623.0,2879.0,2491.0,0.0,3086.0,2448.0,4095.0,-5.6,7.25,2.15,-0.02,0.01,-0.03,j
910.0,2622.0,2867.0,2494.0,0.0,3070.0,2443.0,4095.0,-5.81,6.94,2.21,-0.04,-0.09,0.01,j
907.0,2615.0,2880.0,2496.0,0.0,3088.0,2448.0,4095.0,-5.84,7.13,2.15,-0.07,-0.02,-0.01,j
907.0,2621.0,2879.0,2501.0,0.0,3071.0,2458.0,4095.0,-5.95,6.97,2.42,-0.11,0.02,-0.02,j
912.0,2624.0,2877.0,2516.0,0.0,3088.0,2454.0,4095.0,-5.92,7.03,2.37,-0.05,0.04,0.02,j
969.0,2706.0,2983.0,2559.0,2838.0,3161.0,2442.0,4095.0,3.01,9.02,1.67,-0.06,0.12,-0.04,j
960.0,2686.0,2964.0,2559.0,2833.0,3136.0,2425.0,4095.0,3.55,8.3,2.39,0.07,0.03,0.12,j
975.0,2694.0,2980.0,2582.0,2847.0,3141.0,2441.0,4095.0,4.51,8.7,1.27,-0.21,-0.03,-0.04,j
979.0,2698.0,2979.0,2555.0,2832.0,3127.0,2418.0,4095.0,7.26,9.39,0.19,-1.27,0.02,-1.33,j
1005.0,2690.0,2960.0,2443.0,2778.0,3120.0,2430.0,4095.0,9.68,6.93,-2.71,-5.34,0.58,-5.73,j
1520.0,2700.0,2972.0,2447.0,2723.0,3127.0,2479.0,4095.0,-1.28,-1.81,-3.8,-8.73,5.31,-5.74,j
1106.0,2704.0,2800.0,2749.0,2843.0,3166.0,2599.0,4095.0,-19.35,-6.4,9.8,-6.88,6.53,1.65,j
1121.0,2694.0,2970.0,2485.0,2815.0,3143.0,2498.0,4095.0,-19.14,-0.08,7.4,-2.05,4.52,8.05,j
1258.0,2701.0,2966.0,2500.0,49.0,3184.0,2512.0,4095.0,-11.03,3.16,8.05,0.03,4.81,7.6,j
1175.0,2622.0,2889.0,2524.0,22.0,3088.0,2433.0,4095.0,-2.06,5.76,5.12,0.96,-0.62,1.89,j
1219.0,2593.0,2863.0,2679.0,231.0,3059.0,2416.0,4095.0,-3.77,6.68,2.76,0.53,0.58,0.71,j
1198.0,2606.0,2860.0,2695.0,200.0,3069.0,2429.0,4095.0,-4.58,6.56,3.26,0.14,-0.56,-0.07,j
1200.0,2602.0,2873.0,2711.0,208.0,3081.0,2434.0,4095.0,-5.73,7.31,2.55,0.1,-0.03,-0.12,j
1196.0,2620.0,2880.0,2715.0,202.0,3109.0,2451.0,4095.0,-4.93,7.68,2.59,0.16,-0.12,-0.07,j
1187.0,2624.0,2883.0,2713.0,201.0,3089.0,2443.0,4095.0,-4.9,7.65,2.32,0.11,0.12,-0.01,j
1184.0,2615.0,2884.0,2718.0,208.0,3089.0,2448.0,4095.0,-5.06,7.31,2.74,0.08,0.03,-0.05,j
1183.0,2621.0,2885.0,2711.0,205.0,3089.0,2449.0,4095.0,-5.17,7.35,2.23,0.11,0.05,0.0,j
1174.0,2611.0,2875.0,2707.0,209.0,3088.0,2441.0,4095.0,-5.34,7.55,2.1,0.02,0.13,-0.05,j
1175.0,2625.0,2878.0,2713.0,198.0,3094.0,2448.0,4095.0,-5.21,7.5,2.46,0.04,-0.03,-0.12,j
1170.0,2625.0,2879.0,2701.0,197.0,3088.0,2444.0,4095.0,-5.49,7.7,2.3,0.03,0.05,-0.02,j
918.0,2613.0,2865.0,2516.0,2762.0,3042.0,2394.0,4095.0,2.8,8.28,4.16,-0.1,-0.05,0.13,j
938.0,2611.0,2864.0,2502.0,2741.0,3034.0,2386.0,4095.0,3.22,8.68,3.5,-0.11,0.01,0.05,j
1006.0,2624.0,2864.0,2545.0,2783.0,3035.0,2384.0,4095.0,4.36,7.87,2.89,-0.33,0.31,-0.09,j
1006.0,2624.0,2861.0,2465.0,2767.0,3033.0,2370.0,4095.0,7.83,8.04,1.85,-1.08,1.06,-1.99,j
994.0,2627.0,2870.0,2411.0,2821.0,3016.0,2373.0,4095.0,8.89,4.36,-0.12,-3.77,2.74,-6.35,j
1008.0,2624.0,2880.0,2394.0,2789.0,3026.0,2421.0,4095.0,-8.68,-0.56,-5.99,-8.1,8.32,-6.42,j
1142.0,2617.0,2878.0,2529.0,2880.0,3048.0,2448.0,4095.0,-23.94,-2.69,3.68,-4.58,6.9,3.25,j
1101.0,2608.0,2864.0,2442.0,1.0,3069.0,2480.0,4095.0,-18.57,2.29,3.56,-3.79,5.22,7.2,j
960.0,2603.0,2856.0,2471.0,0.0,3069.0,2475.0,4095.0,-3.51,3.91,9.64,-0.46,0.74,4.36,j
963.0,2619.0,2864.0,2447.0,0.0,3082.0,2431.0,4095.0,-2.13,6.22,2.12,1.45,-0.15,2.01,j
958.0,2626.0,2879.0,2465.0,0.0,3099.0,2453.0,4095.0,-3.87,7.41,0.21,0.17,-0.18,0.42,j
957.0,2626.0,2880.0,2501.0,0.0,3104.0,2463.0,4095.0,-5.42,7.06,2.09,0.0,-0.17,0.13,j
951.0,2631.0,2885.0,2532.0,0.0,3104.0,2462.0,4095.0,-5.05,7.75,1.38,-0.02,-0.03,-0.09,j
958.0,2630.0,2877.0,2545.0,0.0,3101.0,2461.0,4095.0,-5.71,7.8,1.39,0.08,-0.13,-0.02,j
959.0,2623.0,2880.0,2550.0,0.0,3093.0,2462.0,4095.0,-5.74,7.91,1.03,-0.06,0.07,0.0,j
950.0,2625.0,2883.0,2543.0,0.0,3098.0,2463.0,4095.0,-4.91,7.97,1.46,-0.01,-0.11,0.08,j
953.0,2629.0,2877.0,2555.0,0.0,3097.0,2473.0,4095.0,-5.52,7.82,1.19,-0.03,-0.04,-0.0,j
958.0,2629.0,2885.0,2558.0,0.0,3115.0,2469.0,4095.0,-5.13,7.75,1.37,0.01,0.05,0.06,j
950.0,2627.0,2879.0,2559.0,0.0,3111.0,2475.0,4095.0,-5.18,7.92,1.33,0.01,0.02,0.1,j
951.0,2622.0,2880.0,2559.0,0.0,3101.0,2467.0,4095.0,-4.97,7.9,1.3,-0.05,-0.02,0.05,j
940.0,2600.0,2839.0,2603.0,0.0,3031.0,2391.0,4095.0,3.43,8.22,3.97,0.02,0.36,0.07,j
939.0,2606.0,2841.0,2608.0,0.0,3035.0,2385.0,4095.0,2.93,7.81,4.16,-0.15,0.08,-0.05,j
937.0,2607.0,2834.0,2594.0,0.0,3022.0,2384.0,4095.0,5.37,7.37,3.88,-0.26,0.0,-0.25,j
938.0,2603.0,2838.0,2559.0,0.0,3019.0,2368.0,4095.0,7.61,7.29,1.34,-1.51,0.56,-2.35,j
944.0,2608.0,2851.0,2513.0,0.0,3021.0,2379.0,4095.0,9.01,4.34,0.15,-4.07,2.22,-5.62,j
1363.0,2624.0,2864.0,2613.0,2848.0,3024.0,2475.0,4095.0,-5.08,-2.41,-2.54,-6.16,4.42,-6.11,j
1346.0,2629.0,2863.0,2607.0,2770.0,3005.0,2461.0,4095.0,-12.93,-1.17,-4.14,-6.35,7.05,-1.61,j
1234.0,2640.0,2864.0,2736.0,2896.0,3011.0,2585.0,4095.0,-25.37,-3.0,-3.15,-6.52,5.97,2.77,j
1086.0,2624.0,2854.0,2720.0,2881.0,3017.0,2631.0,4095.0,-24.15,-0.22,4.07,-3.72,3.35,4.73,j
2107.0,2624.0,2859.0,2738.0,0.0,3063.0,2459.0,4095.0,-14.77,-1.06,7.39,-0.63,0.77,4.96,j
3886.0,2641.0,2882.0,2727.0,0.0,3069.0,2795.0,4095.0,-8.58,1.51,2.11,0.27,1.06,3.76,j
1446.0,2611.0,2850.0,2630.0,0.0,3037.0,2441.0,4095.0,-6.45,3.26,0.85,-0.33,-0.71,1.58,j
1600.0,2672.0,2913.0,2651.0,0.0,3136.0,2512.0,4095.0,-6.79,3.93,1.57,-0.24,-0.57,0.82,j
961.0,2672.0,2927.0,2665.0,0.0,3137.0,2518.0,4095.0,-5.23,4.5,2.35,-0.02,-0.17,0.5,j
969.0,2676.0,2933.0,2667.0,0.0,3151.0,2519.0,4095.0,-5.12,5.95,1.78,0.22,-0.6,0.0,j
969.0,2674.0,2927.0,2647.0,0.0,3141.0,2524.0,4095.0,-6.72,6.52,1.13,0.28,-0.03,0.11,j
969.0,2686.0,2935.0,2661.0,0.0,3152.0,2529.0,4095.0,-6.45,7.24,0.66,0.2,-0.33,-0.16,j
967.0,2683.0,2931.0,2662.0,0.0,3158.0,2531.0,4095.0,-6.44,7.03,0.74,0.13,-0.04,0.14,j
971.0,2686.0,2928.0,2647.0,0.0,3150.0,2528.0,4095.0,-6.41,7.12,0.87,0.09,-0.07,0.0,j
974.0,2685.0,2926.0,2640.0,0.0,3136.0,2526.0,4095.0,-6.39,6.83,1.1,0.09,-0.16,0.04,j
902.0,2686.0,2930.0,2589.0,0.0,3120.0,2457.0,4095.0,3.75,8.27,3.65,-0.03,0.08,-0.07,j
906.0,2689.0,2935.0,2627.0,0.0,3135.0,2473.0,4095.0,4.16,7.84,3.67,-0.07,0.08,-0.07,j
909.0,2695.0,2926.0,2636.0,0.0,3125.0,2474.0,4095.0,4.27,7.61,2.97,-0.14,0.32,-0.27,j
907.0,2695.0,2933.0,2639.0,0.0,3120.0,2464.0,4095.0,4.98,7.13,2.19,-0.69,0.55,-0.81,j
907.0,2697.0,2943.0,2634.0,0.0,3120.0,2461.0,4095.0,4.36,5.96,1.96,-1.3,0.64,-1.38,j
905.0,2698.0,2930.0,2641.0,0.0,3119.0,2475.0,4095.0,3.65,5.06,2.04,-2.18,0.64,-2.45,j
906.0,2701.0,2929.0,2631.0,0.0,3110.0,2470.0,4095.0,1.55,4.2,3.17,-3.18,0.98,-3.48,j
912.0,2696.0,2930.0,2667.0,2785.0,3120.0,2469.0,4095.0,-1.83,2.09,6.13,-4.62,2.27,-3.63,j
935.0,2690.0,2925.0,2655.0,2751.0,3102.0,2553.0,4095.0,-8.8,0.51,6.57,-4.24,4.46,-2.14,j
910.0,2695.0,2933.0,2703.0,2767.0,3103.0,2549.0,4095.0,-13.05,-1.2,6.94,-3.83,4.75,0.02,j
919.0,2705.0,2929.0,2738.0,2799.0,3106.0,2896.0,4095.0,-14.59,-0.22,4.72,-2.94,4.23,1.99,j
912.0,2661.0,2898.0,2641.0,2700.0,3057.0,2474.0,4095.0,-14.82,-1.0,5.5,-2.63,3.01,3.39,j
1158.0,2730.0,2961.0,2738.0,2811.0,3172.0,2665.0,4095.0,-12.62,0.53,5.73,-0.62,2.46,3.94,j
1174.0,2688.0,2915.0,2672.0,23.0,3130.0,2535.0,4095.0,-10.56,1.82,3.73,-0.17,2.07,4.08,j
1571.0,2704.0,2937.0,2593.0,8.0,3161.0,2535.0,4095.0,-7.3,4.17,1.04,0.42,1.14,3.06,j
1271.0,2715.0,2943.0,2600.0,16.0,3177.0,2526.0,4095.0,-4.94,5.85,-0.47,0.13,0.57,1.8,j
1044.0,2693.0,2929.0,2580.0,2.0,3174.0,2530.0,4095.0,-4.9,6.21,0.57,-0.2,0.04,0.78,j
1013.0,2698.0,2928.0,2559.0,0.0,3172.0,2529.0,4095.0,-5.57,6.28,1.2,-0.15,-0.24,0.11,j
1039.0,2709.0,2950.0,2559.0,0.0,3186.0,2544.0,4095.0,-5.72,6.65,0.83,0.04,-0.01,0.0,j
1089.0,2710.0,2946.0,2559.0,0.0,3185.0,2544.0,4095.0,-6.66,7.1,-0.08,-0.02,0.03,0.0,j
944.0,2669.0,2903.0,2641.0,0.0,3123.0,2483.0,4095.0,2.56,7.05,4.73,0.2,-0.21,0.13,j
943.0,2655.0,2899.0,2645.0,0.0,3120.0,2479.0,4095.0,2.95,7.76,4.01,0.1,0.11,0.25,j
945.0,2665.0,2899.0,2660.0,0.0,3120.0,2480.0,4095.0,4.07,7.58,4.18,-0.04,0.05,-0.0,j
943.0,2655.0,2897.0,2661.0,0.0,3117.0,2475.0,4095.0,4.58,7.74,3.54,-0.29,0.2,-0.23,j
956.0,2665.0,2898.0,2640.0,0.0,3111.0,2478.0,4095.0,5.64,8.05,3.41,-1.07,0.42,-1.37,j
991.0,2659.0,2896.0,2624.0,0.0,3110.0,2855.0,4095.0,4.39,6.63,3.21,-2.65,1.23,-2.82,j
981.0,2670.0,2910.0,2684.0,0.0,3099.0,2559.0,4095.0,1.27,4.71,3.63,-3.43,0.77,-3.7,j
974.0,2688.0,2935.0,2718.0,2791.0,3102.0,2511.0,4095.0,-0.11,2.13,5.29,-3.79,1.96,-3.59,j
963.0,2689.0,2915.0,2752.0,2813.0,3086.0,2549.0,4095.0,-4.87,1.12,4.49,-3.27,3.64,-1.73,j
1102.0,2695.0,2928.0,2759.0,2768.0,3070.0,2559.0,4095.0,-7.82,0.16,5.96,-3.79,3.12,-0.79,j
959.0,2695.0,2919.0,2815.0,2805.0,3071.0,2544.0,4095.0,-10.29,-0.49,6.14,-3.48,4.14,1.17,j
973.0,2704.0,2936.0,2699.0,2823.0,3108.0,2540.0,4095.0,-13.91,-1.51,4.1,-3.35,3.65,3.26,j
1008.0,2674.0,2917.0,2685.0,2850.0,3111.0,2751.0,4095.0,-14.16,-1.33,6.13,-2.15,3.09,4.54,j
927.0,2645.0,2874.0,2662.0,2823.0,3094.0,2559.0,4095.0,-11.71,-0.03,7.14,-0.35,1.86,3.95,j
1049.0,2622.0,2863.0,2559.0,0.0,3071.0,2469.0,4095.0,-8.36,2.94,2.79,0.43,1.27,3.76,j
3837.0,2610.0,2858.0,2635.0,0.0,3082.0,2467.0,4095.0,-6.79,5.46,0.44,0.36,0.96,2.78,j
1797.0,2630.0,2864.0,2550.0,0.0,3090.0,2455.0,4095.0,-4.95,5.96,0.64,-0.16,-0.04,1.59,j
1587.0,2620.0,2855.0,2543.0,0.0,3088.0,2462.0,4095.0,-5.19,6.13,1.56,-0.15,0.06,0.8,j
1345.0,2618.0,2862.0,2548.0,0.0,3086.0,2463.0,4095.0,-5.0,6.76,1.47,-0.09,-0.24,0.16,j
1143.0,2610.0,2850.0,2543.0,0.0,3084.0,2459.0,4095.0,-5.47,6.86,1.9,-0.01,-0.26,0.22,j
950.0,2682.0,2928.0,2635.0,0.0,3136.0,2474.0,4095.0,3.16,8.7,3.29,-0.11,0.24,-0.14,j
958.0,2686.0,2929.0,2628.0,0.0,3143.0,2480.0,4095.0,2.73,8.98,3.08,-0.17,0.16,-0.09,j
957.0,2690.0,2929.0,2640.0,0.0,3140.0,2479.0,4095.0,3.53,8.27,3.49,-0.37,-0.32,-0.04,j
962.0,2677.0,2921.0,2637.0,0.0,3136.0,2478.0,4095.0,4.15,7.96,3.12,-0.34,0.22,-0.32,j
955.0,2684.0,2925.0,2642.0,0.0,3136.0,2476.0,4095.0,4.1,7.98,2.17,-1.21,-0.08,-1.12,j
967.0,2682.0,2923.0,2594.0,0.0,3136.0,2745.0,4095.0,4.05,7.13,1.96,-2.23,0.76,-2.59,j
1009.0,2684.0,2923.0,2599.0,0.0,3117.0,2481.0,4095.0,2.47,6.23,2.85,-3.4,1.11,-3.89,j
966.0,2690.0,2934.0,2655.0,2845.0,3109.0,2512.0,4095.0,-1.59,2.72,3.4,-4.5,3.14,-3.36,j
1059.0,2747.0,2981.0,2789.0,2885.0,3147.0,2559.0,4095.0,-6.81,1.39,4.91,-4.46,3.75,-1.79,j
1083.0,2769.0,2998.0,2842.0,2911.0,3175.0,2849.0,4095.0,-9.94,0.68,5.22,-3.77,5.06,0.13,j
1072.0,2765.0,2991.0,2829.0,2918.0,3173.0,2700.0,4095.0,-14.07,0.92,2.89,-3.31,4.55,2.63,j
1105.0,2751.0,2986.0,2803.0,2913.0,3181.0,3198.0,4095.0,-14.35,0.12,5.46,-2.96,3.85,4.45,j
974.0,2685.0,2930.0,2752.0,2859.0,3165.0,2546.0,4095.0,-11.38,1.7,7.4,-0.77,2.8,3.73,j
1399.0,2693.0,2928.0,2697.0,0.0,3165.0,2663.0,4095.0,-7.05,4.31,3.0,0.37,1.82,2.86,j
4095.0,2691.0,2929.0,2750.0,0.0,3184.0,3181.0,4095.0,-6.82,5.86,0.27,0.23,0.85,1.36,j
1187.0,2689.0,2944.0,2663.0,0.0,3183.0,2535.0,4095.0,-6.51,5.65,0.96,-0.05,-0.08,0.48,j
1296.0,2704.0,2940.0,2671.0,0.0,3183.0,2547.0,4095.0,-6.56,5.85,1.02,0.11,-0.17,0.27,j
1310.0,2704.0,2949.0,2672.0,0.0,3214.0,2554.0,4095.0,-6.72,6.39,0.18,0.1,0.23,0.09,j
1098.0,2695.0,2944.0,2659.0,0.0,3184.0,2545.0,4095.0,-7.03,6.33,0.48,-0.04,0.02,0.09,j
1191.0,2704.0,2941.0,2666.0,0.0,3186.0,2544.0,4095.0,-7.24,6.69,0.35,0.03,0.12,0.15,j
927.0,2621.0,2853.0,2657.0,0.0,3056.0,2404.0,4095.0,3.12,8.59,3.3,-0.16,-0.17,-0.19,j
929.0,2617.0,2835.0,2666.0,0.0,3039.0,2397.0,4095.0,2.99,8.54,3.17,-0.21,-0.08,-0.16,j
928.0,2619.0,2847.0,2669.0,0.0,3043.0,2400.0,4095.0,3.81,7.88,3.01,-0.32,-0.14,-0.18,j
929.0,2624.0,2847.0,2608.0,0.0,3033.0,2385.0,4095.0,6.26,9.73,2.43,-1.23,0.66,-1.7,j
933.0,2617.0,2857.0,2582.0,0.0,3015.0,2406.0,4095.0,4.31,7.18,0.74,-4.02,0.07,-4.59,j
991.0,2640.0,2850.0,2672.0,2832.0,3008.0,2443.0,4095.0,1.03,3.66,2.7,-5.62,3.29,-4.58,j
958.0,2654.0,2871.0,2918.0,2848.0,3015.0,2492.0,4095.0,-8.11,-0.17,6.34,-4.67,2.97,-2.65,j
960.0,2654.0,2875.0,2949.0,2861.0,3024.0,2506.0,4095.0,-9.5,0.29,4.77,-3.45,3.3,0.14,j
1048.0,2639.0,2875.0,2781.0,2888.0,3035.0,2485.0,4095.0,-15.25,-1.77,3.82,-3.85,4.92,4.98,j
1239.0,2628.0,2869.0,2751.0,2895.0,3056.0,2517.0,4095.0,-10.66,-0.5,9.41,-1.92,4.54,6.98,j
4095.0,2611.0,2873.0,2788.0,0.0,3093.0,2448.0,4095.0,-9.61,3.95,5.68,0.59,2.69,4.66,j
1062.0,2622.0,2862.0,2683.0,0.0,3088.0,2442.0,4095.0,-4.85,6.96,1.5,0.51,1.8,2.21,j
1075.0,2619.0,2864.0,2669.0,0.0,3088.0,2448.0,4095.0,-5.72,7.02,0.58,0.44,0.04,0.93,j
998.0,2621.0,2863.0,2677.0,7.0,3116.0,2445.0,4095.0,-6.17,6.85,1.46,0.14,0.43,0.44,j
978.0,2615.0,2862.0,2687.0,0.0,3098.0,2461.0,4095.0,-5.29,7.31,0.88,0.31,-0.19,0.03,j
990.0,2608.0,2858.0,2671.0,0.0,3088.0,2455.0,4095.0,-6.8,7.39,0.48,0.07,0.11,0.02,j
990.0,2617.0,2862.0,2672.0,3.0,3093.0,2449.0,4095.0,-6.04,7.58,0.55,0.08,-0.12,0.01,j
992.0,2624.0,2862.0,2672.0,0.0,3090.0,2460.0,4095.0,-6.39,7.33,0.18,-0.07,0.06,0.02,j
992.0,2608.0,2862.0,2669.0,0.0,3088.0,2455.0,4095.0,-6.01,7.38,0.7,-0.02,-0.07,-0.01,j
987.0,2617.0,2861.0,2675.0,1.0,3091.0,2462.0,4095.0,-6.25,7.41,0.31,-0.11,-0.0,0.09,j
969.0,2641.0,2877.0,2710.0,1.0,3084.0,2441.0,4095.0,3.03,8.34,3.34,-0.13,0.08,0.0,j
973.0,2643.0,2871.0,2704.0,0.0,3087.0,2442.0,4095.0,3.05,8.31,3.33,-0.21,-0.01,-0.01,j
972.0,2645.0,2867.0,2699.0,8.0,3083.0,2447.0,4095.0,4.43,7.99,2.64,-0.34,0.35,0.09,j
970.0,2645.0,2880.0,2640.0,1.0,3056.0,2421.0,4095.0,5.01,8.58,1.8,-1.41,0.85,-1.46,j
964.0,2640.0,2871.0,2615.0,9.0,3041.0,2432.0,4095.0,5.39,7.58,2.64,-3.49,-0.41,-4.21,j
1408.0,2647.0,2877.0,2720.0,2.0,3045.0,2459.0,4095.0,-0.19,2.17,5.05,-5.09,2.18,-5.05,j
967.0,2655.0,2874.0,2747.0,2880.0,3037.0,2506.0,4095.0,-6.7,0.49,8.28,-2.88,1.59,-2.71,j
973.0,2668.0,2880.0,2747.0,2883.0,3038.0,2514.0,4095.0,-6.39,1.46,5.74,-2.87,3.68,-1.07,j
1008.0,2656.0,2864.0,2770.0,2889.0,3037.0,2522.0,4095.0,-8.49,0.91,5.4,-2.62,2.75,0.25,j
959.0,2640.0,2869.0,2741.0,2897.0,3049.0,2611.0,4095.0,-11.58,0.01,3.82,-3.55,5.19,3.33,j
1007.0,2653.0,2887.0,2727.0,2915.0,3104.0,2550.0,4095.0,-11.78,0.48,5.14,-2.36,3.46,4.49,j
1199.0,2643.0,2878.0,2695.0,3.0,3111.0,2492.0,4095.0,-9.46,2.83,5.22,-0.92,2.91,4.0,j
4095.0,2635.0,2871.0,2711.0,0.0,3117.0,2471.0,4095.0,-8.02,4.42,3.84,0.46,1.32,3.31,j
942.0,2638.0,2871.0,2623.0,0.0,3121.0,2481.0,4095.0,-6.74,6.12,0.78,0.89,1.16,2.24,j
949.0,2637.0,2864.0,2619.0,0.0,3117.0,2475.0,4095.0,-5.37,7.1,-0.29,0.23,0.06,0.83,j
945.0,2637.0,2871.0,2623.0,0.0,3120.0,2480.0,4095.0,-7.29,6.77,0.31,0.14,0.2,0.53,j
947.0,2641.0,2880.0,2625.0,0.0,3125.0,2486.0,4095.0,-5.65,7.14,0.37,0.03,-0.03,0.19,j
944.0,2631.0,2878.0,2624.0,0.0,3129.0,2502.0,4095.0,-6.32,7.0,0.26,0.03,-0.09,0.04,j
947.0,2644.0,2875.0,2640.0,0.0,3130.0,2501.0,4095.0,-6.09,7.2,-0.08,-0.06,0.16,0.05,j
961.0,2640.0,2879.0,2642.0,0.0,3130.0,2493.0,4095.0,-6.18,7.44,0.24,0.05,-0.17,-0.09,j
944.0,2643.0,2877.0,2719.0,0.0,3067.0,2422.0,4095.0,2.12,8.32,4.01,-0.17,0.27,-0.03,j
943.0,2643.0,2874.0,2729.0,0.0,3057.0,2427.0,4095.0,2.47,7.82,4.03,-0.19,-0.07,0.02,j
944.0,2653.0,2879.0,2726.0,0.0,3053.0,2415.0,4095.0,4.75,7.11,3.62,-0.21,0.09,-0.35,j
943.0,2647.0,2875.0,2624.0,0.0,3023.0,2397.0,4095.0,7.96,7.81,1.48,-1.28,-0.07,-4.22,j
946.0,2639.0,2859.0,2509.0,2832.0,2973.0,2398.0,4095.0,2.43,3.83,-3.42,-4.57,-0.86,-7.02,j
1411.0,2634.0,2849.0,2735.0,2907.0,2972.0,2432.0,4095.0,-5.43,-1.42,0.53,-7.7,3.56,-5.0,j
976.0,2640.0,2869.0,2852.0,2880.0,3014.0,2479.0,4095.0,-21.79,-4.49,4.83,-6.83,6.53,1.77,j
975.0,2611.0,2834.0,2817.0,2895.0,3030.0,2453.0,4095.0,-22.4,-4.64,12.22,-3.23,3.53,8.59,j
1023.0,2615.0,2830.0,2769.0,2882.0,3055.0,2426.0,4095.0,-7.4,1.22,11.74,1.28,2.95,7.48,j
977.0,2640.0,2864.0,2700.0,14.0,3097.0,2453.0,4095.0,-2.14,4.96,1.06,1.41,0.22,2.46,j
982.0,2638.0,2863.0,2695.0,16.0,3089.0,2449.0,4095.0,-3.25,5.4,1.16,-0.06,0.25,0.47,j
976.0,2628.0,2855.0,2709.0,0.0,3090.0,2466.0,4095.0,-5.47,6.43,3.72,0.02,-0.21,-0.08,j
974.0,2626.0,2858.0,2722.0,6.0,3111.0,2466.0,4095.0,-6.42,7.0,2.4,0.38,0.07,-0.11,j
974.0,2626.0,2861.0,2730.0,5.0,3100.0,2466.0,4095.0,-5.96,7.71,1.66,0.19,-0.17,-0.07,j
973.0,2626.0,2859.0,2725.0,2.0,3088.0,2462.0,4095.0,-6.11,7.41,2.25,0.13,0.06,0.03,j
967.0,2631.0,2853.0,2722.0,0.0,3088.0,2448.0,4095.0,-5.6,7.52,1.79,-0.03,-0.12,0.02,j
970.0,2627.0,2863.0,2718.0,6.0,3083.0,2451.0,4095.0,-5.54,7.37,1.47,-0.05,0.14,0.04,j
971.0,2631.0,2854.0,2720.0,0.0,3086.0,2448.0,4095.0,-5.98,7.16,1.97,-0.15,-0.1,-0.08,j
983.0,2643.0,2861.0,2736.0,13.0,3106.0,2448.0,4095.0,-5.83,7.07,2.76,-0.02,0.0,0.08,j
982.0,2640.0,2873.0,2731.0,16.0,3087.0,2450.0,4095.0,-5.86,7.23,1.66,0.17,-0.1,0.09,j
965.0,2642.0,2866.0,2759.0,0.0,3056.0,2436.0,4095.0,4.33,7.86,4.22,-0.18,-0.04,-0.0,j
965.0,2642.0,2866.0,2759.0,0.0,3056.0,2436.0,4095.0,4.33,7.86,4.22,-0.18,-0.04,-0.0,j
955.0,2643.0,2865.0,2756.0,0.0,3068.0,2438.0,4095.0,3.87,7.78,4.06,-0.15,0.06,-0.02,j
954.0,2642.0,2862.0,2750.0,0.0,3057.0,2432.0,4095.0,5.34,7.95,3.9,-0.37,0.14,-0.34,j
954.0,2640.0,2864.0,2711.0,0.0,3057.0,2432.0,4095.0,8.12,7.76,2.85,-1.82,0.72,-3.31,j
1201.0,2642.0,2859.0,2733.0,2864.0,3043.0,2437.0,4095.0,5.31,4.05,-0.0,-3.57,0.92,-5.45,j
1591.0,2624.0,2863.0,2704.0,2869.0,3022.0,2451.0,4095.0,-1.06,-0.34,-2.65,-5.59,5.04,-5.24,j
1082.0,2625.0,2858.0,2671.0,2884.0,3029.0,2863.0,4095.0,-16.3,-0.5,-5.86,-6.19,8.39,0.34,j
975.0,2651.0,2887.0,2673.0,2907.0,3071.0,2496.0,4095.0,-23.73,-0.93,4.11,-5.25,6.33,5.33,j
966.0,2610.0,2853.0,2688.0,2881.0,3070.0,2457.0,4095.0,-17.44,0.62,14.05,-1.47,2.16,5.32,j
1161.0,2625.0,2863.0,2755.0,182.0,3088.0,2453.0,4095.0,-6.68,3.41,6.93,1.33,1.36,3.07,j
1035.0,2678.0,2933.0,2650.0,54.0,3154.0,2494.0,4095.0,-4.89,6.01,-0.38,0.6,-0.74,1.04,j
1031.0,2688.0,2927.0,2677.0,49.0,3170.0,2517.0,4095.0,-6.18,5.37,1.8,-0.15,-0.26,0.18,j
1037.0,2683.0,2932.0,2688.0,54.0,3164.0,2524.0,4095.0,-5.89,6.08,2.82,0.17,-0.27,0.17,j
1023.0,2681.0,2928.0,2697.0,48.0,3168.0,2529.0,4095.0,-5.83,6.97,0.8,0.36,-0.22,0.16,j
1023.0,2689.0,2935.0,2697.0,48.0,3181.0,2526.0,4095.0,-6.56,6.9,0.77,-0.0,0.02,-0.07,j
1021.0,2697.0,2943.0,2703.0,54.0,3183.0,2532.0,4095.0,-5.87,7.07,1.65,-0.04,-0.09,-0.01,j
1017.0,2690.0,2935.0,2698.0,48.0,3158.0,2535.0,4095.0,-6.62,6.94,1.33,0.07,-0.17,0.01,j
1019.0,2685.0,2929.0,2694.0,52.0,3169.0,2528.0,4095.0,-6.21,6.97,1.22,-0.07,0.02,0.04,j
1021.0,2688.0,2935.0,2703.0,48.0,3178.0,2530.0,4095.0,-6.45,7.02,1.36,-0.07,-0.24,0.04,j
1206.0,2688.0,2919.0,2848.0,245.0,3121.0,2474.0,4095.0,2.91,7.46,4.43,-0.18,0.36,-0.18,j
1217.0,2702.0,2913.0,2829.0,243.0,3113.0,2469.0,4095.0,4.66,8.11,4.4,-0.15,0.25,-0.43,j
1185.0,2668.0,2883.0,2801.0,206.0,3087.0,2441.0,4095.0,4.29,7.07,3.59,-0.76,-0.37,-2.15,j
1023.0,2683.0,2895.0,2639.0,43.0,3056.0,2459.0,4095.0,6.78,6.13,3.09,-2.57,0.72,-4.46,j
1360.0,2685.0,2895.0,2800.0,240.0,3066.0,2476.0,4095.0,-0.95,1.85,-1.16,-5.28,7.31,-5.21,j
1232.0,2749.0,2959.0,2813.0,166.0,3147.0,2590.0,4095.0,-14.18,-0.75,1.22,-4.73,8.73,0.63,j
1023.0,2720.0,2950.0,2635.0,52.0,3156.0,2535.0,4095.0,-17.04,4.43,0.67,-2.14,7.99,5.08,j
991.0,2651.0,2882.0,2545.0,27.0,3070.0,2448.0,4095.0,-13.53,5.49,2.59,-0.95,2.82,4.06,j
982.0,2645.0,2864.0,2497.0,15.0,3056.0,2428.0,4095.0,-5.89,5.67,2.08,-0.14,1.3,1.89,j
961.0,2625.0,2860.0,2511.0,0.0,3037.0,2413.0,4095.0,-5.48,5.71,1.78,0.0,-0.61,0.5,j
957.0,2629.0,2869.0,2527.0,0.0,3053.0,2423.0,4095.0,-6.5,6.66,1.66,0.13,-0.02,0.11,j
957.0,2625.0,2859.0,2540.0,0.0,3043.0,2426.0,4095.0,-6.23,7.03,0.48,0.1,-0.11,-0.01,j
959.0,2624.0,2859.0,2596.0,0.0,3059.0,2435.0,4095.0,-6.91,7.17,0.0,0.18,0.0,0.02,j
959.0,2615.0,2855.0,2615.0,0.0,3055.0,2435.0,4095.0,-6.04,7.28,-0.0,0.03,-0.15,0.02,j
960.0,2624.0,2864.0,2624.0,0.0,3081.0,2435.0,4095.0,-6.2,7.3,-0.04,-0.02,0.15,0.12,j
960.0,2624.0,2862.0,2626.0,0.0,3061.0,2439.0,4095.0,-5.97,7.12,0.11,-0.09,-0.07,0.09,j
965.0,2628.0,2865.0,2639.0,0.0,3081.0,2443.0,4095.0,-6.39,7.16,0.26,-0.08,0.24,0.08,j
960.0,2635.0,2855.0,2639.0,0.0,3067.0,2450.0,4095.0,-5.62,7.29,-0.36,-0.04,0.08,0.04,j
956.0,2636.0,2858.0,2640.0,0.0,3066.0,2446.0,4095.0,-6.45,7.19,-0.16,-0.09,0.17,0.02,j
960.0,2626.0,2858.0,2640.0,0.0,3056.0,2444.0,4095.0,-6.06,7.33,0.11,-0.12,-0.02,0.0,j
992.0,2649.0,2882.0,2745.0,27.0,3089.0,2446.0,4095.0,2.16,7.97,3.95,-0.16,-0.13,0.13,j
996.0,2657.0,2885.0,2736.0,29.0,3100.0,2452.0,4095.0,2.03,7.83,4.13,0.1,-0.04,0.5,j
1001.0,2657.0,2896.0,2706.0,18.0,3092.0,2438.0,4095.0,7.21,6.83,3.78,-0.14,-0.03,-0.15,j
998.0,2656.0,2889.0,2635.0,26.0,3088.0,2433.0,4095.0,11.72,8.69,3.07,-1.06,1.91,-4.18,j
992.0,2668.0,2902.0,2615.0,16.0,3107.0,2672.0,4095.0,2.5,2.78,-5.89,-4.51,7.87,-8.73,j
946.0,2637.0,2877.0,2559.0,0.0,3083.0,2510.0,4095.0,-20.31,-0.96,-8.86,-5.33,8.73,-1.06,j
1064.0,2672.0,2919.0,2595.0,39.0,3143.0,2550.0,4095.0,-23.3,3.87,-0.87,-3.68,7.91,4.54,j
1008.0,2640.0,2885.0,2538.0,0.0,3120.0,2484.0,4095.0,-5.77,5.58,3.9,-1.02,0.44,4.52,j
958.0,2642.0,2887.0,2518.0,0.0,3123.0,2482.0,4095.0,-2.89,7.52,1.07,0.05,1.55,1.64,j
958.0,2635.0,2890.0,2517.0,0.0,3120.0,2482.0,4095.0,-3.48,7.99,1.01,-0.32,-0.58,0.19,j
954.0,2639.0,2891.0,2554.0,0.0,3120.0,2497.0,4095.0,-6.46,7.92,1.04,0.07,-0.23,-0.03,j
960.0,2639.0,2894.0,2559.0,0.0,3123.0,2491.0,4095.0,-5.27,8.06,-0.06,-0.08,0.27,-0.08,j
957.0,2651.0,2896.0,2559.0,0.0,3130.0,2502.0,4095.0,-5.17,8.24,-0.05,0.01,-0.29,-0.07,j
957.0,2642.0,2896.0,2583.0,0.0,3131.0,2497.0,4095.0,-5.29,8.07,-0.06,-0.06,0.17,0.04,j
959.0,2646.0,2901.0,2587.0,0.0,3131.0,2496.0,4095.0,-4.86,8.31,-0.06,-0.01,-0.13,-0.0,j
959.0,2651.0,2899.0,2586.0,0.0,3136.0,2497.0,4095.0,-4.9,8.1,-0.17,0.01,0.18,0.11,j
962.0,2656.0,2896.0,2594.0,0.0,3120.0,2496.0,4095.0,-4.23,8.26,-0.2,-0.03,-0.02,-0.01,j
960.0,2646.0,2902.0,2597.0,0.0,3131.0,2498.0,4095.0,-5.01,8.18,-0.23,-0.02,0.1,0.06,j
960.0,2657.0,2894.0,2595.0,0.0,3134.0,2496.0,4095.0,-4.74,8.55,-0.43,-0.08,0.06,0.0,j
958.0,2658.0,2906.0,2606.0,0.0,3129.0,2495.0,4095.0,-4.69,8.26,0.04,-0.1,-0.06,0.02,j
