hall_1,hall_2,hall_3,flex_t,flex_i,flex_m,flex_r,flex_p,accel_x,accel_y,accel_z,gyro_x,gyro_y,gyro_z,hand,sign
3034.0,3007.0,3005.0,4095.0,4095.0,1776.0,3050.0,2418.0,-0.35,9.71,5.76,-0.02,0.27,0.1,0.0,k
3024.0,3004.0,3001.0,4095.0,4095.0,1775.0,3047.0,2426.0,-0.01,9.82,5.56,0.15,-0.03,-0.18,0.0,k
3024.0,3007.0,3007.0,4095.0,4095.0,1781.0,3054.0,2431.0,-0.12,9.84,5.85,0.13,-0.12,-0.25,0.0,k
3019.0,3007.0,2997.0,4095.0,4095.0,1777.0,3053.0,2427.0,0.05,9.81,5.77,0.07,-0.04,-0.18,0.0,k
3024.0,3011.0,3013.0,4095.0,4095.0,1776.0,3049.0,2433.0,-0.15,9.72,5.61,0.09,-0.03,-0.28,0.0,k
3017.0,3009.0,3002.0,4095.0,4095.0,1778.0,3049.0,2444.0,-0.28,9.86,5.24,0.02,-0.11,-0.25,0.0,k
3031.0,3023.0,3008.0,4095.0,4095.0,1782.0,3054.0,2461.0,-0.83,9.89,5.43,0.07,-0.19,-0.28,0.0,k
3022.0,3014.0,3007.0,4095.0,4095.0,1776.0,3051.0,2457.0,-0.68,9.83,5.35,0.13,-0.01,-0.14,0.0,k
3031.0,3016.0,3007.0,4095.0,4095.0,1771.0,3050.0,2455.0,-0.3,9.8,5.28,0.13,-0.1,-0.17,0.0,k
3018.0,3015.0,3005.0,4095.0,4095.0,1776.0,3042.0,2461.0,-0.78,9.89,4.96,0.1,-0.2,-0.21,0.0,k
3031.0,3019.0,3012.0,4095.0,4095.0,1780.0,3054.0,2467.0,-0.89,10.0,4.39,-0.0,-0.14,-0.12,0.0,k
3018.0,3010.0,3011.0,4095.0,4095.0,1770.0,3058.0,2476.0,-0.11,9.9,5.08,-0.23,-0.53,-0.08,0.0,k
3019.0,3003.0,3008.0,4095.0,4095.0,1749.0,3045.0,2470.0,-0.19,9.79,5.41,-0.3,-0.08,-0.03,0.0,k
3038.0,3024.0,3007.0,4095.0,4095.0,1776.0,3056.0,2482.0,-0.24,9.84,5.51,-0.32,-0.02,-0.02,0.0,k
3013.0,3008.0,3013.0,4095.0,4095.0,1771.0,3046.0,2475.0,-0.11,9.69,6.18,-0.3,0.11,-0.01,0.0,k
3029.0,3020.0,3021.0,4095.0,4095.0,1769.0,3056.0,2480.0,0.07,9.67,6.34,-0.26,0.18,-0.03,0.0,k
3024.0,3003.0,2995.0,4095.0,4095.0,1711.0,3047.0,2471.0,-0.02,9.64,6.68,-0.24,0.14,-0.07,0.0,k
3025.0,3011.0,3015.0,4095.0,4095.0,1766.0,3050.0,2477.0,0.11,9.5,6.95,-0.2,0.06,-0.08,0.0,k
3008.0,3008.0,3009.0,4095.0,4095.0,1762.0,3042.0,2479.0,0.43,9.51,7.1,-0.19,0.05,-0.12,0.0,k
3019.0,3012.0,3016.0,4095.0,4095.0,1771.0,3059.0,2481.0,0.42,9.46,7.24,-0.11,-0.09,-0.28,0.0,k
3007.0,3002.0,3009.0,4095.0,4095.0,1754.0,3054.0,2490.0,-1.17,9.49,6.66,0.26,-0.01,-0.21,0.0,k
3024.0,3013.0,3010.0,4095.0,4095.0,1769.0,3053.0,2491.0,-1.23,9.46,6.74,0.22,-0.01,-0.18,0.0,k
3022.0,3003.0,3005.0,4095.0,4095.0,1757.0,3050.0,2487.0,-1.32,9.54,6.32,0.25,-0.02,-0.18,0.0,k
3018.0,3012.0,3010.0,4095.0,4095.0,1769.0,3056.0,2493.0,-1.46,9.61,5.93,0.18,0.02,-0.15,0.0,k
3024.0,3014.0,3022.0,4095.0,4095.0,1758.0,3053.0,2495.0,-1.26,9.71,5.89,0.21,0.01,-0.19,0.0,k
3021.0,3007.0,3008.0,4095.0,4095.0,1763.0,3055.0,2491.0,-1.3,9.64,6.0,0.11,0.06,-0.1,0.0,k
3027.0,3024.0,3022.0,4095.0,4095.0,1761.0,3056.0,2496.0,-1.19,9.67,5.8,0.11,0.04,-0.09,0.0,k
3029.0,3007.0,3013.0,4095.0,4095.0,1716.0,3052.0,2495.0,-1.15,9.68,5.59,0.11,0.07,-0.11,0.0,k
3021.0,3007.0,3008.0,4095.0,4095.0,1761.0,3063.0,2498.0,-1.24,9.7,5.38,0.07,0.08,-0.1,0.0,k
3013.0,3009.0,3004.0,4095.0,4095.0,1757.0,3054.0,2490.0,-0.91,9.77,5.4,-0.04,0.05,-0.13,0.0,k
3024.0,3009.0,3015.0,4095.0,4095.0,1772.0,3058.0,2495.0,-1.23,9.68,5.85,0.05,0.04,-0.12,0.0,k
3020.0,3009.0,2996.0,4095.0,4095.0,1759.0,3056.0,2493.0,-1.12,9.72,5.56,0.08,0.07,-0.06,0.0,k
3026.0,3015.0,3008.0,4095.0,4095.0,1763.0,3062.0,2495.0,-1.06,9.79,5.37,0.06,0.06,-0.09,0.0,k
3018.0,3011.0,3015.0,4095.0,4095.0,1767.0,3058.0,2492.0,-0.77,9.78,5.44,0.06,-0.03,-0.08,0.0,k
3029.0,3011.0,3017.0,4095.0,4095.0,1775.0,3059.0,2497.0,-1.23,9.76,5.4,0.07,-0.03,-0.11,0.0,k
3017.0,3002.0,2997.0,4095.0,4095.0,1776.0,3059.0,2498.0,-1.0,9.84,5.13,0.05,0.11,-0.02,0.0,k
3018.0,3008.0,3008.0,4095.0,4095.0,1763.0,3056.0,2494.0,-0.96,9.98,5.16,0.03,0.04,-0.03,0.0,k
3024.0,3024.0,3006.0,4095.0,4095.0,1763.0,3063.0,2506.0,-0.75,9.91,5.01,-0.07,0.27,-0.0,0.0,k
3022.0,3015.0,3015.0,4095.0,4095.0,1771.0,3056.0,2500.0,-0.32,9.8,5.25,-0.1,0.05,-0.08,0.0,k
3022.0,3017.0,3011.0,4095.0,4095.0,1767.0,3060.0,2507.0,-0.84,9.8,5.37,-0.13,0.36,0.0,0.0,k
3020.0,3015.0,3002.0,4095.0,4095.0,1707.0,3054.0,2509.0,0.2,9.72,6.05,-0.0,-0.7,-0.36,0.0,k
3027.0,3013.0,3019.0,4095.0,4095.0,1758.0,3056.0,2511.0,-0.07,9.62,6.23,-0.04,-0.44,-0.25,0.0,k
3025.0,3009.0,3003.0,4095.0,4095.0,1770.0,3052.0,2506.0,0.06,9.69,6.06,-0.01,-0.28,-0.23,0.0,k
3025.0,3024.0,3015.0,4095.0,4095.0,1763.0,3050.0,2505.0,0.06,9.74,6.14,-0.07,-0.16,-0.18,0.0,k
3017.0,3012.0,3020.0,4095.0,4095.0,1761.0,3058.0,2511.0,-0.03,9.7,6.24,-0.12,-0.47,-0.22,0.0,k
3024.0,3008.0,3008.0,4095.0,4095.0,1754.0,3059.0,2509.0,0.1,9.62,6.49,-0.08,-0.16,-0.19,0.0,k
3025.0,3022.0,3009.0,4095.0,4095.0,1761.0,3056.0,2510.0,0.11,9.59,6.7,-0.12,-0.57,-0.23,0.0,k
3021.0,3010.0,3007.0,4095.0,4095.0,1761.0,3043.0,2502.0,0.34,9.48,7.03,-0.09,-1.17,-0.28,0.0,k
3024.0,3011.0,3023.0,4095.0,4095.0,1761.0,3056.0,2511.0,0.28,9.4,6.94,-0.06,-0.63,-0.25,0.0,k
3013.0,3005.0,3014.0,4095.0,4095.0,1761.0,3051.0,2499.0,0.49,9.53,6.94,0.0,-1.11,-0.32,0.0,k
3025.0,3015.0,3019.0,4095.0,4095.0,1771.0,3054.0,2512.0,0.74,9.54,6.8,0.01,-0.26,-0.15,0.0,k
3020.0,3002.0,3010.0,4095.0,4095.0,1760.0,3052.0,2500.0,0.62,9.53,6.86,-0.01,0.01,-0.13,0.0,k
3023.0,3015.0,3013.0,4095.0,4095.0,1771.0,3053.0,2512.0,0.88,9.46,7.07,0.02,0.16,-0.14,0.0,k
3035.0,3012.0,2997.0,4095.0,4095.0,1759.0,3051.0,2509.0,0.58,9.55,6.86,0.05,0.53,-0.11,0.0,k
3034.0,3015.0,3018.0,4095.0,4095.0,1760.0,3056.0,2512.0,0.28,9.58,6.76,-0.01,0.6,-0.1,0.0,k
3015.0,3005.0,3011.0,4095.0,4095.0,1766.0,3059.0,2512.0,0.38,9.52,6.93,-0.01,0.6,-0.11,0.0,k
3024.0,3007.0,3009.0,4095.0,4095.0,1755.0,3054.0,2512.0,0.08,9.51,6.9,-0.02,0.7,-0.09,0.0,k
3014.0,3010.0,3014.0,4095.0,4095.0,1763.0,3056.0,2514.0,-0.02,9.53,7.03,-0.0,0.17,-0.14,0.0,k
3013.0,2997.0,3007.0,4095.0,4095.0,1767.0,3055.0,2515.0,0.33,9.5,6.99,0.06,0.43,-0.12,0.0,k
3024.0,3013.0,3006.0,4095.0,4095.0,1770.0,3062.0,2524.0,0.04,9.5,6.9,0.01,0.31,-0.12,0.0,k
3023.0,3017.0,3011.0,4095.0,4095.0,1757.0,3057.0,2510.0,-0.49,9.56,6.67,0.01,0.2,-0.07,0.0,k
3022.0,3014.0,3011.0,4095.0,4095.0,1762.0,3058.0,2503.0,-0.55,9.65,6.6,0.02,0.08,-0.07,0.0,k
3024.0,3015.0,3005.0,4095.0,4095.0,1707.0,3063.0,2474.0,-0.67,9.58,6.47,-0.2,0.44,0.24,0.0,k
3028.0,3011.0,3010.0,4095.0,4095.0,1753.0,3065.0,2470.0,-0.04,9.53,6.83,-0.16,0.21,0.1,0.0,k
3024.0,3009.0,3007.0,4095.0,4095.0,1746.0,3056.0,2471.0,-0.21,9.55,7.0,0.18,0.08,-0.18,0.0,k
3021.0,3013.0,3018.0,4095.0,4095.0,1763.0,3067.0,2465.0,0.03,9.61,6.63,0.08,0.18,-0.06,0.0,k
3012.0,3006.0,2998.0,4095.0,4095.0,1760.0,3056.0,2466.0,0.19,9.61,6.74,0.03,0.19,-0.05,0.0,k
3015.0,3024.0,3018.0,4095.0,4095.0,1714.0,3057.0,2474.0,0.11,9.61,7.11,0.01,0.33,0.16,0.0,k
3004.0,3014.0,3019.0,4095.0,4095.0,1761.0,3040.0,2479.0,0.03,9.45,6.78,0.06,0.38,0.31,0.0,k
3005.0,3011.0,3008.0,4095.0,4095.0,1782.0,3024.0,2480.0,0.22,9.58,6.85,0.26,0.54,0.36,0.0,k
3003.0,3006.0,3015.0,4095.0,4095.0,1779.0,2991.0,2470.0,1.27,9.59,6.25,0.33,0.78,0.61,0.0,k
3001.0,3023.0,3007.0,4095.0,4095.0,1787.0,2992.0,2475.0,2.67,9.49,5.87,0.21,0.24,0.11,0.0,k
2992.0,3021.0,3015.0,4095.0,4095.0,1776.0,2992.0,2479.0,2.4,9.54,5.6,0.29,-0.28,-0.33,0.0,k
3005.0,3023.0,3017.0,4095.0,4095.0,1784.0,3011.0,2492.0,1.47,9.73,5.52,0.3,-0.32,-0.45,0.0,k
3013.0,3011.0,3009.0,4095.0,4095.0,1792.0,3014.0,2508.0,0.98,9.63,5.18,0.21,-1.29,-0.94,0.0,k
3027.0,3008.0,3017.0,4095.0,4095.0,1789.0,2989.0,2496.0,-0.13,10.02,4.01,0.52,-0.99,-1.28,0.0,k
3029.0,3013.0,3009.0,4095.0,4095.0,1793.0,2987.0,2523.0,-0.85,10.16,3.86,0.19,-0.43,-0.49,0.0,k
3021.0,3021.0,3006.0,4095.0,4095.0,1776.0,2967.0,2512.0,-0.91,9.89,4.06,0.2,-0.13,-0.33,0.0,k
3027.0,3014.0,3012.0,4095.0,4095.0,1752.0,2967.0,2496.0,-1.02,9.77,3.53,0.25,-0.16,-0.4,0.0,k
3022.0,3008.0,3006.0,4095.0,4095.0,1785.0,2962.0,2513.0,-1.35,9.86,3.24,0.13,-0.11,-0.35,0.0,k
3010.0,3007.0,3018.0,4095.0,4095.0,1777.0,2975.0,2545.0,-1.57,9.64,4.3,0.03,-0.43,-0.34,0.0,k
3013.0,3007.0,3013.0,4095.0,4095.0,1716.0,2981.0,2554.0,-2.03,9.68,4.07,-0.07,-0.01,-0.2,0.0,k
3023.0,3015.0,3004.0,4095.0,4095.0,1777.0,2979.0,2554.0,-1.8,9.7,4.07,-0.06,0.0,-0.18,0.0,k
3019.0,3008.0,3008.0,4095.0,4095.0,1771.0,2977.0,2549.0,-1.52,9.61,4.46,-0.04,-0.1,-0.15,0.0,k
3013.0,3013.0,3021.0,4095.0,4095.0,1781.0,2986.0,2553.0,-1.64,9.66,4.32,-0.06,-0.05,-0.18,0.0,k
3006.0,3003.0,3018.0,4095.0,4095.0,1778.0,2979.0,2554.0,-1.77,9.67,4.28,-0.06,-0.12,-0.19,0.0,k
3008.0,3014.0,3015.0,4095.0,4095.0,1780.0,2983.0,2559.0,-1.74,9.77,4.55,-0.1,-0.08,-0.15,0.0,k
3005.0,3014.0,3013.0,4095.0,4095.0,1763.0,2975.0,2559.0,-1.72,9.81,4.65,-0.13,-0.05,-0.1,0.0,k
3013.0,3022.0,3023.0,4095.0,4095.0,1776.0,2978.0,2559.0,-1.66,9.57,4.59,-0.13,-0.14,-0.12,0.0,k
2997.0,3009.0,3018.0,4095.0,4095.0,1776.0,2978.0,2558.0,-1.84,9.64,4.96,-0.2,-0.05,-0.08,0.0,k
3003.0,3008.0,3021.0,4095.0,4095.0,1776.0,2989.0,2559.0,-1.47,9.61,4.95,-0.24,-0.1,-0.13,0.0,k
3003.0,3004.0,3015.0,4095.0,4095.0,1766.0,2979.0,2559.0,-1.6,9.64,5.55,-0.19,-0.18,-0.18,0.0,k
3002.0,3011.0,3029.0,4095.0,4095.0,1780.0,2981.0,2559.0,-1.63,9.58,5.89,-0.15,-0.07,-0.16,0.0,k
3005.0,3022.0,3018.0,4095.0,4095.0,1778.0,2987.0,2559.0,-1.55,9.7,5.87,-0.06,-0.05,-0.16,0.0,k
2992.0,3008.0,3019.0,4095.0,4095.0,1769.0,2978.0,2559.0,-1.41,9.58,6.01,-0.04,-0.11,-0.14,0.0,k
3006.0,3023.0,3023.0,4095.0,4095.0,1776.0,2991.0,2559.0,-1.66,9.47,6.24,-0.01,-0.02,-0.13,0.0,k
3005.0,3003.0,3018.0,4095.0,4095.0,1773.0,2983.0,2559.0,-1.57,9.53,6.12,0.01,0.02,-0.16,0.0,k
3003.0,3022.0,3018.0,4095.0,4095.0,1750.0,2992.0,2559.0,-1.47,9.52,6.2,0.12,-0.04,-0.16,0.0,k
2992.0,3008.0,3015.0,4095.0,4095.0,1776.0,2991.0,2559.0,-1.46,9.59,5.77,0.14,0.01,-0.16,0.0,k
3007.0,3008.0,3019.0,4095.0,4095.0,1776.0,2992.0,2559.0,-1.47,9.68,5.68,0.15,-0.02,-0.18,0.0,k
2996.0,3003.0,3011.0,4095.0,4095.0,1765.0,2990.0,2559.0,-1.8,9.67,4.86,0.15,0.02,-0.14,0.0,k
2998.0,3008.0,3021.0,4095.0,4095.0,1778.0,2992.0,2559.0,-1.71,9.71,4.53,0.11,0.04,-0.15,0.0,k
2997.0,3001.0,3014.0,4095.0,4095.0,1773.0,2981.0,2559.0,-1.89,9.64,4.43,0.12,0.11,-0.24,0.0,k
2992.0,3004.0,3011.0,4095.0,4095.0,1781.0,2992.0,2559.0,-1.88,9.68,4.31,0.08,0.01,-0.19,0.0,k
2992.0,2998.0,3008.0,4095.0,4095.0,1773.0,2987.0,2559.0,-1.75,9.67,4.53,0.06,-0.09,-0.15,0.0,k
2998.0,3009.0,3015.0,4095.0,4095.0,1777.0,2994.0,2586.0,-1.67,9.77,4.53,0.11,0.01,-0.13,0.0,k
2992.0,3006.0,3008.0,4095.0,4095.0,1776.0,2987.0,2559.0,-1.92,9.63,4.27,0.12,0.1,-0.17,0.0,k
2995.0,3003.0,3012.0,4095.0,4095.0,1778.0,2986.0,2559.0,-1.86,9.7,3.99,0.06,0.03,-0.14,0.0,k
2991.0,3005.0,3011.0,4095.0,4095.0,1777.0,2988.0,2559.0,-1.85,9.67,3.98,0.05,-0.01,-0.17,0.0,k
2999.0,3010.0,3021.0,4095.0,4095.0,1774.0,2991.0,2583.0,-1.93,9.64,4.16,0.05,-0.0,-0.16,0.0,k
2997.0,3014.0,3015.0,4095.0,4095.0,1777.0,2982.0,2590.0,-1.82,9.66,4.14,0.05,0.03,-0.16,0.0,k
2992.0,3014.0,3018.0,4095.0,4095.0,1773.0,2988.0,2586.0,-1.94,9.69,3.87,0.07,-0.02,-0.17,0.0,k
2992.0,3011.0,3018.0,4095.0,4095.0,1776.0,2990.0,2583.0,-2.02,9.64,3.99,0.03,0.03,-0.16,0.0,k
2992.0,3005.0,2999.0,4095.0,4095.0,1776.0,2987.0,2583.0,-1.96,9.68,3.78,0.03,0.02,-0.14,0.0,k
3002.0,3024.0,3015.0,4095.0,4095.0,1767.0,2997.0,2581.0,-1.91,9.67,3.88,-0.01,0.0,-0.13,0.0,k
2992.0,3003.0,3008.0,4095.0,4095.0,1749.0,2992.0,2551.0,-1.96,9.74,3.89,-0.02,-0.01,-0.12,0.0,k
2995.0,3015.0,2998.0,4095.0,4095.0,1774.0,2999.0,2527.0,-1.61,9.67,3.96,-0.05,-0.04,-0.1,0.0,k
3003.0,2997.0,2999.0,4095.0,4095.0,1773.0,2994.0,2518.0,-1.6,9.68,3.72,-0.06,0.07,-0.11,0.0,k
3005.0,2999.0,3014.0,4095.0,4095.0,1776.0,2998.0,2521.0,-1.73,9.72,4.16,-0.07,-0.05,-0.14,0.0,k
2981.0,3005.0,3011.0,4095.0,4095.0,1715.0,2993.0,2512.0,-1.73,9.76,4.26,-0.03,-0.0,-0.14,0.0,k
2987.0,3010.0,3003.0,4095.0,4095.0,1778.0,3005.0,2540.0,-1.69,9.77,4.26,-0.08,-0.03,-0.14,0.0,k
2992.0,3003.0,3003.0,4095.0,4095.0,1771.0,3003.0,2544.0,-1.61,9.72,4.63,-0.1,0.01,-0.16,0.0,k
3005.0,3013.0,3018.0,4095.0,4095.0,1754.0,3011.0,2546.0,-1.69,9.68,4.69,-0.05,-0.02,-0.16,0.0,k
2983.0,3010.0,3009.0,4095.0,4095.0,1773.0,3006.0,2544.0,-1.69,9.7,4.67,-0.04,-0.06,-0.14,0.0,k
2995.0,3007.0,3012.0,4095.0,4095.0,1776.0,3014.0,2548.0,-1.66,9.73,4.75,-0.05,-0.02,-0.15,0.0,k
2991.0,3007.0,3011.0,4095.0,4095.0,1776.0,2999.0,2542.0,-1.73,9.73,4.77,-0.04,-0.0,-0.16,0.0,k
2999.0,3021.0,3018.0,4095.0,4095.0,1769.0,3007.0,2548.0,-1.74,9.73,4.68,-0.07,0.04,-0.16,0.0,k
2978.0,3007.0,3023.0,4095.0,4095.0,1767.0,2998.0,2547.0,-1.74,9.67,4.94,-0.12,-0.01,-0.13,0.0,k
2992.0,3003.0,3008.0,4095.0,4095.0,1775.0,3008.0,2557.0,-1.52,9.67,5.22,-0.09,-0.02,-0.14,0.0,k
2998.0,3007.0,3002.0,4095.0,4095.0,1771.0,3014.0,2559.0,-1.66,9.67,5.2,-0.1,-0.02,-0.15,0.0,k
2993.0,3005.0,3004.0,4095.0,4095.0,1765.0,2999.0,2553.0,-1.8,9.67,5.32,-0.1,0.02,-0.13,0.0,k
3001.0,3015.0,3019.0,4095.0,4095.0,1776.0,3011.0,2559.0,-1.48,9.68,5.33,-0.1,-0.02,-0.13,0.0,k
2992.0,3002.0,3005.0,4095.0,4095.0,1766.0,3007.0,2550.0,-1.59,9.64,5.66,-0.1,-0.08,-0.12,0.0,k
2987.0,3004.0,3010.0,4095.0,4095.0,1776.0,3009.0,2557.0,-1.44,9.62,5.78,-0.08,-0.01,-0.13,0.0,k
2991.0,3011.0,2999.0,4095.0,4095.0,1773.0,3006.0,2557.0,-1.51,9.57,5.97,-0.04,-0.01,-0.15,0.0,k
2992.0,3013.0,3017.0,4095.0,4095.0,1773.0,3010.0,2559.0,-1.58,9.61,5.77,-0.0,0.01,-0.18,0.0,k
2992.0,3001.0,3011.0,4095.0,4095.0,1776.0,3009.0,2551.0,-1.59,9.61,5.76,-0.05,0.02,-0.15,0.0,k
2992.0,3019.0,3014.0,4095.0,4095.0,1775.0,3018.0,2559.0,-1.44,9.6,5.78,-0.06,-0.03,-0.15,0.0,k
2992.0,3001.0,3012.0,4095.0,4095.0,1767.0,3004.0,2550.0,-1.64,9.58,6.05,-0.04,-0.08,-0.17,0.0,k
3005.0,3019.0,3018.0,4095.0,4095.0,1776.0,3009.0,2559.0,-1.66,9.59,6.06,-0.03,0.05,-0.15,0.0,k
76.0,3003.0,2559.0,-1.62,9.57,6.07,0.02,-0.0,-0.14,0.0,k
3011.0,3021.0,3020.0,4095.0,4095.0,1776.0,3018.0,2559.0,-1.63,9.57,6.19,0.02,0.02,-0.13,0.0,k
2987.0,3008.0,3016.0,4095.0,4095.0,1775.0,3010.0,2559.0,-1.48,9.56,6.25,0.09,0.1,-0.14,0.0,k
2995.0,3021.0,3017.0,4095.0,4095.0,1751.0,3011.0,2559.0,-1.34,9.62,5.76,0.14,0.02,-0.18,0.0,k
2995.0,3014.0,3008.0,4095.0,4095.0,1770.0,3009.0,2559.0,-1.49,9.67,5.74,0.11,-0.03,-0.19,0.0,k
2992.0,3027.0,3017.0,4095.0,4095.0,1763.0,3011.0,2559.0,-1.59,9.63,5.72,0.11,-0.01,-0.17,0.0,k
2990.0,3013.0,2995.0,4095.0,4095.0,1767.0,3012.0,2559.0,-1.6,9.62,5.57,0.1,-0.04,-0.16,0.0,k
2995.0,3008.0,3011.0,4095.0,4095.0,1775.0,3009.0,2559.0,-1.57,9.65,5.49,0.06,-0.05,-0.16,0.0,k
2981.0,3008.0,3017.0,4095.0,4095.0,1760.0,3007.0,2559.0,-1.64,9.64,5.47,0.03,-0.03,-0.17,0.0,k
2990.0,3011.0,3002.0,4095.0,4095.0,1771.0,3015.0,2559.0,-1.66,9.62,5.6,0.02,0.04,-0.15,0.0,k
2997.0,3015.0,3024.0,4095.0,4095.0,1774.0,3019.0,2559.0,-1.59,9.66,5.57,0.03,0.03,-0.12,0.0,k
2987.0,3008.0,3002.0,4095.0,4095.0,1771.0,3010.0,2559.0,-1.47,9.67,5.46,0.07,0.03,-0.15,0.0,k
2989.0,3009.0,3014.0,4095.0,4095.0,1776.0,3015.0,2559.0,-1.63,9.69,5.38,0.08,-0.01,-0.17,0.0,k
2992.0,3015.0,3006.0,4095.0,4095.0,1745.0,3008.0,2559.0,-1.73,9.7,5.32,0.07,-0.0,-0.16,0.0,k
2987.0,3021.0,3010.0,4095.0,4095.0,1759.0,3015.0,2559.0,-1.58,9.66,5.33,0.09,0.02,-0.16,0.0,k
2992.0,3010.0,3006.0,4095.0,4095.0,1758.0,3020.0,2559.0,-1.47,9.69,5.19,0.1,0.01,-0.17,0.0,k
2999.0,3008.0,3015.0,4095.0,4095.0,1770.0,3018.0,2559.0,-1.55,9.65,5.09,0.08,-0.03,-0.18,0.0,k
2992.0,3006.0,3011.0,4095.0,4095.0,1769.0,3011.0,2559.0,-1.63,9.65,5.04,0.09,-0.06,-0.18,0.0,k
3009.0,3017.0,3013.0,4095.0,4095.0,1769.0,3024.0,2559.0,-1.58,9.62,4.94,0.07,0.0,-0.2,0.0,k
3007.0,3004.0,3008.0,4095.0,4095.0,1776.0,3015.0,2554.0,-1.76,9.66,4.88,0.05,0.03,-0.17,0.0,k
3023.0,3007.0,3009.0,4095.0,4095.0,1771.0,3120.0,2597.0,-0.89,9.81,4.57,0.14,0.07,-0.2,0.0,k
3026.0,3018.0,3010.0,4095.0,4095.0,1777.0,3137.0,2596.0,-0.99,9.84,4.2,0.03,0.27,-0.13,0.0,k
3023.0,3008.0,3006.0,4095.0,4095.0,1762.0,3134.0,2582.0,-1.26,9.93,3.92,-0.03,0.11,-0.06,0.0,k
3024.0,3007.0,3013.0,4095.0,4095.0,1775.0,3138.0,2559.0,-0.73,9.74,4.14,-0.23,0.01,0.03,0.0,k
3020.0,3002.0,3005.0,4095.0,4095.0,1771.0,3125.0,2559.0,-0.73,9.75,4.66,-0.14,-0.08,-0.07,0.0,k
3017.0,3010.0,3002.0,4095.0,4095.0,1757.0,3120.0,2546.0,-0.66,9.89,4.62,-0.09,-0.01,-0.08,0.0,k
3037.0,3025.0,3017.0,4095.0,4095.0,1721.0,3134.0,2550.0,-0.59,9.9,4.38,-0.09,-0.06,-0.1,0.0,k
3010.0,3007.0,2993.0,4095.0,4095.0,1756.0,3124.0,2547.0,-0.72,9.92,4.63,-0.13,-0.04,-0.09,0.0,k
3030.0,3008.0,2994.0,4095.0,4095.0,1763.0,3137.0,2559.0,-0.46,9.87,5.05,-0.24,-0.08,-0.07,0.0,k
3024.0,3008.0,2998.0,4095.0,4095.0,1758.0,3136.0,2559.0,-0.28,9.84,5.37,-0.09,-0.12,-0.2,0.0,k
3026.0,3008.0,3007.0,4095.0,4095.0,1776.0,3138.0,2586.0,-0.62,9.8,5.39,-0.07,-0.08,-0.19,0.0,k
3035.0,3006.0,2998.0,4095.0,4095.0,1755.0,3132.0,2579.0,-0.48,9.74,5.74,-0.02,-0.05,-0.18,0.0,k
3041.0,3010.0,2996.0,4095.0,4095.0,1774.0,3136.0,2580.0,-0.67,9.84,5.12,0.0,-0.05,-0.22,0.0,k
3023.0,3017.0,2997.0,4095.0,4095.0,1751.0,3121.0,2559.0,-0.82,9.86,5.3,-0.02,-0.02,-0.2,0.0,k
3035.0,3024.0,3013.0,4095.0,4095.0,1766.0,3131.0,2594.0,-0.52,10.1,5.19,-0.07,-0.08,-0.06,0.0,k
3019.0,3007.0,3003.0,4095.0,4095.0,1747.0,3120.0,2589.0,-0.46,9.79,5.48,-0.11,-0.06,-0.15,0.0,k
3024.0,3001.0,3008.0,4095.0,4095.0,1760.0,3121.0,2588.0,-0.6,9.49,6.2,-0.1,0.01,-0.18,0.0,k
3024.0,3010.0,3015.0,4095.0,4095.0,1776.0,3133.0,2603.0,-0.87,9.74,5.98,-0.06,-0.06,-0.19,0.0,k
3030.0,3007.0,2999.0,4095.0,4095.0,1770.0,3125.0,2598.0,-0.65,9.78,5.75,-0.06,0.05,-0.12,0.0,k
3035.0,3013.0,3003.0,4095.0,4095.0,1766.0,3125.0,2607.0,-0.49,9.72,5.93,-0.07,-0.01,-0.14,0.0,k
3042.0,3004.0,2998.0,4095.0,4095.0,1763.0,3118.0,2615.0,-0.7,9.61,6.36,-0.01,-0.02,-0.18,0.0,k
3046.0,3024.0,3005.0,4095.0,4095.0,1775.0,3120.0,2622.0,-0.6,9.61,6.48,0.0,-0.02,-0.14,0.0,k
3034.0,3009.0,3010.0,4095.0,4095.0,1776.0,3120.0,2622.0,-0.56,9.61,6.47,0.04,-0.0,-0.15,0.0,k
3033.0,3010.0,2999.0,4095.0,4095.0,1776.0,3117.0,2620.0,-0.52,9.63,6.35,0.03,-0.01,-0.15,0.0,k
3041.0,3014.0,3003.0,4095.0,4095.0,1773.0,3119.0,2624.0,-0.58,9.65,6.44,0.05,-0.01,-0.15,0.0,k
3034.0,3005.0,2992.0,4095.0,4095.0,1779.0,3119.0,2615.0,-0.51,9.58,6.46,0.05,0.04,-0.13,0.0,k
3045.0,3019.0,3008.0,4095.0,4095.0,1778.0,3125.0,2631.0,-0.45,9.65,6.36,0.05,-0.02,-0.17,0.0,k
3038.0,3000.0,2997.0,4095.0,4095.0,1767.0,3114.0,2618.0,-0.58,9.61,6.37,0.11,-0.02,-0.16,0.0,k
3043.0,3007.0,3007.0,4095.0,4095.0,1739.0,3120.0,2624.0,-0.58,9.63,6.38,0.06,0.03,-0.12,0.0,k
3031.0,3010.0,3002.0,4095.0,4095.0,1762.0,3120.0,2626.0,-0.69,9.68,6.22,0.1,0.09,-0.11,0.0,k
3041.0,3009.0,3001.0,4095.0,4095.0,1770.0,3127.0,2627.0,-0.73,9.79,5.86,0.15,0.0,0.0,0.0,k
3049.0,3001.0,3005.0,4095.0,4095.0,1769.0,3117.0,2623.0,-0.03,9.69,6.36,0.11,0.05,-0.09,0.0,k
3045.0,3012.0,2998.0,4095.0,4095.0,1781.0,3121.0,2629.0,-0.07,9.8,5.66,0.11,-0.0,-0.14,0.0,k
3034.0,2995.0,2992.0,4095.0,4095.0,1760.0,3119.0,2633.0,-0.34,9.79,5.75,0.1,-0.02,-0.14,0.0,k
3041.0,3013.0,2992.0,4095.0,4095.0,1766.0,3120.0,2630.0,-0.36,9.76,5.83,0.1,0.06,-0.05,0.0,k
3030.0,3017.0,3012.0,4095.0,4095.0,1773.0,3126.0,2630.0,0.09,9.79,5.64,0.11,0.05,-0.1,0.0,k
3043.0,3005.0,3005.0,4095.0,4095.0,1761.0,3118.0,2630.0,-0.23,9.84,5.44,0.09,0.04,-0.09,0.0,k
3053.0,3017.0,3005.0,4095.0,4095.0,1764.0,3129.0,2637.0,0.24,9.8,5.31,0.1,0.03,-0.12,0.0,k
3041.0,3008.0,2998.0,4095.0,4095.0,1746.0,3119.0,2628.0,0.3,9.79,5.4,0.09,-0.03,-0.18,0.0,k
3034.0,3010.0,3008.0,4095.0,4095.0,1762.0,3123.0,2633.0,0.13,9.89,5.26,0.16,-0.14,-0.33,0.0,k
3037.0,3018.0,3003.0,4095.0,4095.0,1755.0,3119.0,2635.0,-0.61,9.89,4.45,0.02,-0.08,-0.17,0.0,k
3041.0,3008.0,3001.0,4095.0,4095.0,1769.0,3127.0,2641.0,-0.54,9.93,4.51,-0.01,-0.02,-0.15,0.0,k
3035.0,3018.0,3003.0,4095.0,4095.0,1762.0,3123.0,2637.0,-0.45,9.94,4.32,-0.03,0.0,-0.11,0.0,k
3050.0,3006.0,3008.0,4095.0,4095.0,1744.0,3130.0,2640.0,-0.28,9.92,4.41,-0.21,-0.07,-0.13,0.0,k
3029.0,2995.0,2992.0,4095.0,4095.0,1764.0,3119.0,2645.0,-0.39,9.82,5.21,-0.16,-0.02,-0.13,0.0,k
3042.0,3007.0,3004.0,4095.0,4095.0,1755.0,3120.0,2640.0,-0.51,9.79,5.25,-0.14,-0.04,-0.15,0.0,k
3043.0,3009.0,3007.0,4095.0,4095.0,1744.0,3125.0,2652.0,-0.4,9.84,5.21,-0.1,0.0,-0.11,0.0,k
3042.0,3004.0,2994.0,4095.0,4095.0,1754.0,3120.0,2642.0,-0.38,9.85,5.36,-0.06,-0.0,-0.12,0.0,k
3045.0,3007.0,2995.0,4095.0,4095.0,1767.0,3130.0,2651.0,-0.24,9.82,5.35,-0.06,-0.04,-0.14,0.0,k
3042.0,3009.0,2994.0,4095.0,4095.0,1739.0,3120.0,2647.0,-0.43,9.85,5.37,-0.05,-0.02,-0.16,0.0,k
3034.0,3003.0,3010.0,4095.0,4095.0,1767.0,3120.0,2646.0,-0.4,9.81,5.46,-0.07,0.0,-0.12,0.0,k
3039.0,3009.0,2997.0,4095.0,4095.0,1755.0,3117.0,2642.0,-0.24,9.79,5.68,-0.07,-0.03,-0.13,0.0,k
3036.0,3021.0,3009.0,4095.0,4095.0,1721.0,3117.0,2650.0,-0.25,9.76,5.78,-0.05,-0.03,-0.16,0.0,k
3045.0,3006.0,3008.0,4095.0,4095.0,1739.0,3121.0,2652.0,-0.41,9.8,5.73,0.0,0.03,-0.15,0.0,k
3049.0,3001.0,2999.0,4095.0,4095.0,1749.0,3123.0,2651.0,-0.4,9.82,5.59,0.01,0.04,-0.13,0.0,k
3038.0,3008.0,2998.0,4095.0,4095.0,1742.0,3111.0,2646.0,-0.2,9.82,5.53,-0.04,0.02,-0.12,0.0,k
3040.0,3011.0,3011.0,4095.0,4095.0,1733.0,3111.0,2647.0,-0.17,9.79,5.82,-0.05,-0.07,-0.15,0.0,k
3041.0,3010.0,3003.0,4095.0,4095.0,1750.0,3122.0,2647.0,-0.23,9.74,5.96,-0.03,-0.03,-0.16,0.0,k
3031.0,3010.0,2993.0,4095.0,4095.0,1746.0,3119.0,2654.0,-0.19,9.78,5.83,-0.03,-0.04,-0.16,0.0,k
3049.0,3012.0,3023.0,4095.0,4095.0,1744.0,3119.0,2656.0,-0.3,9.75,5.94,0.0,-0.01,-0.15,0.0,k
3056.0,3011.0,2978.0,4095.0,4095.0,1718.0,3070.0,2475.0,-0.23,9.14,8.17,-0.12,0.08,-0.2,0.0,k
3045.0,3009.0,2981.0,4095.0,4095.0,1723.0,3071.0,2480.0,-0.45,9.22,8.06,0.14,0.2,-0.14,0.0,k
3040.0,3018.0,2988.0,4095.0,4095.0,1739.0,3056.0,2473.0,-0.59,9.37,7.7,0.29,1.17,0.09,0.0,k
3041.0,3005.0,2980.0,4095.0,4095.0,1768.0,3071.0,2467.0,-0.75,9.34,7.54,0.23,0.24,-0.13,0.0,k
3038.0,3008.0,2971.0,4095.0,4095.0,1767.0,3082.0,2467.0,-0.59,9.58,6.68,0.23,0.0,-0.09,0.0,k
3039.0,3006.0,2977.0,4095.0,4095.0,1769.0,3085.0,2464.0,-0.78,9.54,6.96,0.04,0.1,-0.02,0.0,k
3045.0,3019.0,2978.0,4095.0,4095.0,1768.0,3090.0,2479.0,-0.69,9.44,6.92,0.01,0.13,0.17,0.0,k
3034.0,3009.0,2979.0,4095.0,4095.0,1767.0,3088.0,2475.0,0.82,9.41,7.14,0.09,0.17,0.06,0.0,k
3041.0,3009.0,2989.0,4095.0,4095.0,1769.0,3090.0,2471.0,0.11,9.69,6.38,0.05,0.24,-0.09,0.0,k
3034.0,3004.0,2983.0,4095.0,4095.0,1766.0,3087.0,2470.0,-0.16,9.54,6.9,-0.05,0.06,-0.1,0.0,k
3024.0,3002.0,2989.0,4095.0,4095.0,1771.0,3093.0,2476.0,0.17,9.48,7.09,0.04,0.04,-0.16,0.0,k
3017.0,2995.0,2970.0,4095.0,4095.0,1771.0,3090.0,2466.0,-0.24,9.48,7.16,0.15,0.03,-0.26,0.0,k
3026.0,3007.0,2978.0,4095.0,4095.0,1779.0,3099.0,2470.0,0.01,9.48,7.08,0.08,0.08,-0.17,0.0,k
3015.0,3002.0,2966.0,4095.0,4095.0,1759.0,3101.0,2459.0,-0.58,9.67,6.43,0.4,-0.17,-0.23,0.0,k
3029.0,3014.0,2980.0,4095.0,4095.0,1750.0,3103.0,2466.0,-0.27,9.73,6.09,0.1,-0.04,-0.11,0.0,k
3021.0,2996.0,2972.0,4095.0,4095.0,1745.0,3093.0,2453.0,-0.33,9.63,6.47,-0.05,0.03,-0.08,0.0,k
3024.0,3005.0,2981.0,4095.0,4095.0,1754.0,3101.0,2469.0,-0.16,9.65,6.47,-0.01,0.05,-0.09,0.0,k
3035.0,3012.0,2975.0,4095.0,4095.0,1757.0,3114.0,2463.0,-0.09,9.64,6.45,-0.02,0.01,-0.11,0.0,k
3024.0,2997.0,2969.0,4095.0,4095.0,1750.0,3105.0,2466.0,0.0,9.7,6.34,-0.04,0.02,-0.08,0.0,k
3030.0,3001.0,2977.0,4095.0,4095.0,1757.0,3111.0,2468.0,-0.26,9.55,6.79,-0.08,0.11,-0.05,0.0,k
3003.0,2999.0,2970.0,4095.0,4095.0,1790.0,3091.0,2461.0,0.51,9.5,6.85,0.04,0.0,-0.18,0.0,k
3011.0,3015.0,2990.0,4095.0,4095.0,1796.0,3119.0,2464.0,0.51,9.48,7.12,0.0,0.04,-0.16,0.0,k
3007.0,2997.0,2979.0,4095.0,4095.0,1792.0,3114.0,2469.0,0.51,9.48,7.02,0.02,0.02,-0.15,0.0,k
3009.0,3008.0,2977.0,4095.0,4095.0,1794.0,3122.0,2480.0,0.32,9.55,6.89,0.05,0.01,-0.19,0.0,k
3013.0,3006.0,2973.0,4095.0,4095.0,1791.0,3106.0,2466.0,0.33,9.74,6.87,-0.12,0.17,-0.14,0.0,k
3024.0,3006.0,2979.0,4095.0,4095.0,1795.0,3119.0,2467.0,0.21,9.52,7.08,-0.06,0.04,-0.17,0.0,k
3014.0,3002.0,2975.0,4095.0,4095.0,1792.0,3112.0,2480.0,0.18,9.57,7.07,0.06,0.02,-0.13,0.0,k
3023.0,3008.0,2973.0,4095.0,4095.0,1794.0,3115.0,2479.0,0.24,9.63,6.64,-0.08,0.06,-0.1,0.0,k
3021.0,3001.0,2983.0,4075.0,4095.0,1795.0,3109.0,2486.0,0.21,9.44,7.33,-0.03,-0.1,-0.16,0.0,k
3008.0,2999.0,2974.0,4034.0,4095.0,1763.0,3101.0,2483.0,0.33,9.41,7.4,0.09,0.03,-0.14,0.0,k
3013.0,3010.0,2983.0,4095.0,4095.0,1786.0,3113.0,2495.0,0.29,9.5,6.97,0.07,0.06,-0.16,0.0,k
3015.0,3006.0,2977.0,4075.0,4095.0,1744.0,3108.0,2493.0,0.13,9.5,6.81,-0.18,0.0,-0.11,0.0,k
3019.0,3011.0,2984.0,4031.0,4095.0,1779.0,3097.0,2491.0,0.59,9.33,7.37,-0.02,-0.0,-0.11,0.0,k
3007.0,2992.0,2970.0,4031.0,4095.0,1787.0,3098.0,2495.0,0.42,9.53,6.97,0.03,0.01,-0.19,0.0,k
3014.0,3004.0,2982.0,4049.0,4095.0,1789.0,3095.0,2499.0,0.43,9.41,7.18,-0.0,0.04,-0.18,0.0,k
3025.0,2994.0,2970.0,4022.0,4095.0,1779.0,3066.0,2487.0,0.35,9.26,7.52,-0.03,-0.09,-0.17,0.0,k
3019.0,3006.0,2978.0,4095.0,4095.0,1794.0,3088.0,2502.0,0.36,9.45,7.03,0.05,0.08,-0.09,0.0,k
3010.0,3008.0,2972.0,4095.0,4095.0,1778.0,3087.0,2497.0,0.51,9.5,6.97,0.05,0.01,-0.16,0.0,k
3024.0,2995.0,2991.0,4093.0,4095.0,1790.0,3083.0,2503.0,0.4,9.36,7.24,0.0,-0.06,-0.17,0.0,k
3027.0,3004.0,2982.0,4082.0,4095.0,1789.0,3088.0,2503.0,0.53,9.61,7.11,0.14,-0.05,-0.25,0.0,k
3011.0,3008.0,2977.0,4095.0,4095.0,1783.0,3097.0,2499.0,0.4,9.41,7.69,-0.02,0.16,-0.06,0.0,k
3022.0,3008.0,2989.0,4095.0,4095.0,1786.0,3092.0,2502.0,0.31,9.59,6.86,0.11,-0.11,-0.16,0.0,k
3012.0,3005.0,2979.0,4095.0,4095.0,1786.0,3089.0,2498.0,0.14,9.59,6.59,0.05,-0.19,-0.18,0.0,k
3007.0,2997.0,2965.0,4095.0,4095.0,1789.0,3099.0,2498.0,0.26,9.55,6.88,0.02,-0.08,-0.17,0.0,k
3022.0,2997.0,2986.0,4095.0,4095.0,1789.0,3100.0,2498.0,0.28,9.6,6.89,0.05,-0.23,-0.2,0.0,k
3007.0,3003.0,2977.0,4095.0,4095.0,1764.0,3094.0,2491.0,0.4,9.39,7.21,-0.12,-1.82,-0.32,0.0,k
3010.0,3015.0,2977.0,4095.0,4095.0,1783.0,3092.0,2512.0,0.14,9.55,6.79,0.05,0.42,-0.13,0.0,k
3009.0,3004.0,2975.0,4095.0,4095.0,1763.0,3092.0,2507.0,0.34,9.6,6.66,0.08,0.09,-0.19,0.0,k
3008.0,3007.0,2974.0,4095.0,4095.0,1789.0,3100.0,2503.0,0.09,9.44,7.47,0.2,0.24,-0.24,0.0,k
3005.0,2995.0,2971.0,4095.0,4095.0,1786.0,3091.0,2497.0,0.22,9.77,6.43,0.4,-0.03,-0.23,0.0,k
3017.0,3006.0,2992.0,4095.0,4095.0,1767.0,3098.0,2507.0,0.17,9.66,5.95,0.11,-0.03,-0.14,0.0,k
2998.0,3001.0,2973.0,4095.0,4095.0,1792.0,3102.0,2506.0,0.15,9.78,6.05,0.03,-0.01,-0.15,0.0,k
3011.0,3002.0,2982.0,4095.0,4095.0,1790.0,3101.0,2517.0,0.15,9.67,6.46,0.07,-0.16,-0.19,0.0,k
2992.0,3003.0,2977.0,4095.0,4095.0,1783.0,3102.0,2508.0,0.07,9.73,6.15,0.2,-0.05,-0.19,0.0,k
3008.0,3013.0,2979.0,4095.0,4095.0,1778.0,3106.0,2508.0,0.09,9.71,5.93,0.17,-0.04,-0.19,0.0,k
3018.0,2999.0,2977.0,4095.0,4095.0,1797.0,3111.0,2514.0,-0.17,9.7,5.79,0.18,-0.04,-0.24,0.0,k
2999.0,2997.0,2977.0,4095.0,4095.0,1786.0,3093.0,2506.0,-0.16,9.84,5.33,0.18,0.01,-0.26,0.0,k
3011.0,3012.0,2991.0,4095.0,4095.0,1793.0,3103.0,2515.0,-0.06,9.79,5.15,0.07,-0.03,-0.18,0.0,k
2997.0,3005.0,2982.0,4095.0,4095.0,1765.0,3110.0,2512.0,-0.07,9.8,5.21,0.04,-0.0,-0.13,0.0,k
3007.0,3001.0,2985.0,4095.0,4095.0,1786.0,3114.0,2517.0,-0.12,9.83,5.27,0.0,-0.03,-0.17,0.0,k
3008.0,3008.0,2986.0,4095.0,4095.0,1750.0,3089.0,2527.0,-0.26,9.73,5.88,0.01,-0.14,-0.22,0.0,k
2999.0,2998.0,2983.0,4095.0,4095.0,1765.0,3071.0,2527.0,-0.44,9.75,5.86,0.05,0.04,-0.17,0.0,k
3007.0,3015.0,2975.0,4095.0,4095.0,1763.0,3089.0,2529.0,-0.2,9.77,5.58,0.02,-0.07,-0.13,0.0,k
3006.0,3001.0,2973.0,4095.0,4095.0,1760.0,3071.0,2522.0,-0.17,9.77,5.8,-0.03,-0.05,-0.14,0.0,k
3009.0,3011.0,2989.0,4095.0,4095.0,1777.0,3079.0,2532.0,-0.14,9.66,5.88,-0.03,-0.17,-0.16,0.0,k
3001.0,2992.0,2983.0,4095.0,4095.0,1764.0,3070.0,2528.0,-0.2,9.73,5.87,0.03,-0.07,-0.18,0.0,k
3007.0,3002.0,2974.0,4095.0,4095.0,1775.0,3071.0,2526.0,-0.28,9.77,5.81,-0.01,-0.05,-0.16,0.0,k
3010.0,3012.0,2974.0,4095.0,4095.0,1773.0,3070.0,2531.0,-0.18,9.75,5.92,0.0,0.0,-0.15,0.0,k
3011.0,3007.0,2981.0,4095.0,4095.0,1765.0,3068.0,2526.0,-0.18,9.75,5.98,-0.01,-0.04,-0.14,0.0,k
3013.0,3008.0,2978.0,4095.0,4095.0,1775.0,3085.0,2535.0,-0.17,9.72,5.97,0.03,-0.1,-0.17,0.0,k
3011.0,3013.0,2971.0,4095.0,4095.0,1761.0,3071.0,2531.0,-0.28,9.75,5.92,0.0,-0.0,-0.15,0.0,k
3009.0,3008.0,2986.0,4095.0,4095.0,1776.0,3084.0,2531.0,-0.14,9.75,5.95,0.02,-0.05,-0.16,0.0,k
3014.0,3005.0,2976.0,4095.0,4095.0,1767.0,3071.0,2527.0,-0.21,9.8,5.88,0.02,-0.05,-0.18,0.0,k
3022.0,3021.0,2982.0,4095.0,4095.0,1762.0,3083.0,2539.0,-0.27,9.73,5.96,0.01,0.03,-0.16,0.0,k
3015.0,3009.0,2973.0,4095.0,4095.0,1743.0,3063.0,2534.0,-0.21,9.75,5.92,0.01,-0.03,-0.15,0.0,k
3026.0,3014.0,2983.0,4095.0,4095.0,1731.0,3079.0,2537.0,-0.2,9.73,5.97,0.02,-0.03,-0.13,0.0,k
3009.0,2998.0,2967.0,4095.0,4095.0,1761.0,3067.0,2529.0,-0.13,9.73,5.93,0.01,0.02,-0.15,0.0,k
3023.0,3014.0,2977.0,4095.0,4095.0,1765.0,3083.0,2535.0,-0.13,9.76,5.8,0.0,-0.13,-0.2,0.0,k
3022.0,3009.0,2974.0,4095.0,4095.0,1760.0,3067.0,2534.0,-0.35,9.77,5.99,-0.04,-0.04,-0.16,0.0,k
3018.0,2998.0,2980.0,4095.0,4095.0,1756.0,3060.0,2534.0,-0.38,9.78,5.79,-0.05,0.01,-0.11,0.0,k
3007.0,3005.0,2981.0,4095.0,4095.0,1744.0,3051.0,2533.0,0.53,9.43,7.4,-0.02,-0.03,-0.13,0.0,k
3021.0,3023.0,2983.0,4095.0,4095.0,1751.0,3062.0,2539.0,0.54,9.39,7.3,-0.0,0.0,-0.15,0.0,k
3005.0,2995.0,2971.0,4095.0,4095.0,1747.0,3057.0,2531.0,0.28,9.4,7.31,-0.03,-0.01,-0.12,0.0,k
3013.0,2997.0,2977.0,4095.0,4095.0,1754.0,3056.0,2522.0,0.45,9.39,7.47,0.02,-0.03,-0.16,0.0,k
3013.0,3014.0,2987.0,4095.0,4095.0,1756.0,3056.0,2528.0,0.52,9.44,7.29,0.05,-0.01,-0.15,0.0,k
3008.0,2999.0,2971.0,4095.0,4095.0,1758.0,3053.0,2519.0,0.42,9.43,7.32,0.03,-0.07,-0.17,0.0,k
3011.0,3008.0,2984.0,4095.0,4095.0,1755.0,3056.0,2527.0,0.73,9.47,7.18,-0.01,-0.2,-0.17,0.0,k
3008.0,3006.0,2973.0,4095.0,4095.0,1747.0,3055.0,2522.0,0.51,9.43,7.28,0.03,-0.07,-0.25,0.0,k
3018.0,3021.0,2993.0,4095.0,4095.0,1740.0,3062.0,2526.0,0.38,9.46,7.33,0.0,-0.25,-0.23,0.0,k
3014.0,3001.0,2987.0,4095.0,4095.0,1744.0,3050.0,2518.0,0.72,9.49,6.99,-0.03,-0.08,-0.27,0.0,k
3023.0,3010.0,2992.0,4095.0,4095.0,1702.0,3053.0,2517.0,0.19,9.25,7.44,-0.13,-0.1,-0.32,0.0,k
3015.0,2997.0,2975.0,4095.0,4095.0,1741.0,3047.0,2521.0,0.33,9.22,7.63,-0.01,-0.43,-0.26,0.0,k
3021.0,3003.0,2983.0,4095.0,4095.0,1757.0,3056.0,2523.0,0.4,9.41,7.36,-0.08,0.18,-0.23,0.0,k
3009.0,3002.0,2977.0,4095.0,4095.0,1743.0,3047.0,2526.0,-0.37,9.23,7.88,-0.04,0.11,-0.26,0.0,k
3013.0,3017.0,2983.0,4095.0,4095.0,1749.0,3050.0,2530.0,-0.04,9.32,7.64,-0.01,0.02,-0.22,0.0,k
3009.0,3001.0,2987.0,4095.0,4095.0,1754.0,3055.0,2532.0,-0.15,9.29,7.5,0.02,-0.01,-0.22,0.0,k
3005.0,2992.0,2976.0,4095.0,4095.0,1752.0,3050.0,2531.0,-0.26,9.3,7.62,0.0,-0.01,-0.24,0.0,k
3024.0,3008.0,2987.0,4095.0,4095.0,1754.0,3058.0,2535.0,-0.42,9.28,7.58,-0.02,0.07,-0.2,0.0,k
3006.0,3007.0,2978.0,4095.0,4095.0,1749.0,3056.0,2530.0,-0.57,9.24,7.76,0.02,0.13,-0.16,0.0,k
3021.0,3008.0,2987.0,4095.0,4095.0,1729.0,3058.0,2533.0,-0.29,9.28,7.64,0.05,-0.03,-0.14,0.0,k
3008.0,2995.0,2981.0,4095.0,4095.0,1729.0,3056.0,2538.0,0.48,9.45,7.21,0.02,0.02,-0.16,0.0,k
3010.0,3014.0,2986.0,4095.0,4095.0,1717.0,3066.0,2544.0,0.3,9.46,7.24,0.02,-0.07,-0.18,0.0,k
3003.0,2996.0,2970.0,4095.0,4095.0,1721.0,3058.0,2536.0,0.13,9.45,7.16,0.05,-0.12,-0.19,0.0,k
3013.0,3006.0,2975.0,4095.0,4095.0,1728.0,3059.0,2545.0,0.79,9.35,7.99,0.02,-0.05,-0.15,0.0,k
3009.0,3008.0,2978.0,4095.0,4095.0,1718.0,3058.0,2544.0,0.33,9.46,6.7,0.56,-0.02,-0.43,0.0,k
3007.0,3004.0,2977.0,4095.0,4095.0,1722.0,3063.0,2543.0,-0.69,9.85,6.02,0.26,0.03,-0.27,0.0,k
3018.0,3005.0,2985.0,4095.0,4095.0,1730.0,3066.0,2544.0,-0.63,9.69,6.38,0.36,0.23,-0.04,0.0,k
3002.0,2993.0,2985.0,4095.0,4095.0,1746.0,3059.0,2545.0,0.34,9.93,4.81,0.29,0.12,-0.12,0.0,k
3015.0,3006.0,2979.0,4095.0,4095.0,1750.0,3070.0,2553.0,0.01,9.84,5.17,0.09,0.01,-0.2,0.0,k
3006.0,2992.0,2974.0,4095.0,4095.0,1757.0,3067.0,2544.0,-0.47,9.78,5.89,-0.11,0.08,-0.07,0.0,k
3018.0,3005.0,2990.0,4095.0,4095.0,1759.0,3070.0,2555.0,0.37,9.8,5.51,0.09,0.06,-0.09,0.0,k
3008.0,3010.0,2978.0,4095.0,4095.0,1740.0,3071.0,2547.0,0.1,9.84,5.43,0.07,-0.06,-0.2,0.0,k
3007.0,3013.0,2985.0,4095.0,4095.0,1754.0,3087.0,2559.0,-0.17,9.76,6.07,0.09,-0.06,-0.23,0.0,k
2995.0,3013.0,2977.0,4095.0,4095.0,1754.0,3082.0,2551.0,0.06,9.73,5.2,0.42,-0.01,-0.18,0.0,k
3013.0,3010.0,2983.0,4095.0,4095.0,1760.0,3089.0,2553.0,0.14,10.08,3.88,-0.03,-0.11,-0.15,0.0,k
2999.0,3002.0,2970.0,4095.0,4095.0,1745.0,3089.0,2555.0,-0.28,9.9,5.02,-0.17,-0.06,-0.15,0.0,k
3008.0,3003.0,2986.0,4095.0,4095.0,1762.0,3089.0,2559.0,0.26,9.74,5.94,-0.14,-0.1,-0.17,0.0,k
3005.0,2999.0,2975.0,4095.0,4095.0,1751.0,3095.0,2559.0,-0.31,9.83,5.21,0.09,-0.3,-0.33,0.0,k
2996.0,3002.0,2977.0,4095.0,4095.0,1754.0,3089.0,2551.0,-0.57,9.9,4.92,-0.01,-0.06,-0.14,0.0,k
3014.0,3007.0,2979.0,4095.0,4095.0,1754.0,3089.0,2559.0,0.01,9.79,5.53,-0.07,0.06,-0.14,0.0,k
2993.0,3007.0,2981.0,4095.0,4095.0,1724.0,3082.0,2559.0,-0.32,9.81,5.61,0.01,0.01,-0.12,0.0,k
3011.0,3007.0,2984.0,4095.0,4095.0,1706.0,3086.0,2559.0,-0.07,9.82,5.53,0.02,0.02,-0.12,0.0,k
3005.0,3011.0,2978.0,4095.0,4095.0,1723.0,3088.0,2559.0,-0.16,9.83,5.54,0.03,0.02,-0.16,0.0,k
2998.0,3007.0,2986.0,4095.0,4095.0,1722.0,3081.0,2559.0,-0.34,9.84,5.56,0.01,-0.0,-0.15,0.0,k
3008.0,3015.0,2981.0,4095.0,4095.0,1727.0,3088.0,2559.0,-0.17,9.79,5.57,0.04,-0.04,-0.11,0.0,k
3003.0,2993.0,2978.0,4095.0,4095.0,1726.0,3086.0,2559.0,0.1,9.82,5.49,0.0,-0.04,-0.17,0.0,k
3005.0,3009.0,2977.0,4095.0,4095.0,1692.0,3093.0,2559.0,-0.32,9.83,5.54,0.01,-0.04,-0.19,0.0,k
3007.0,3008.0,2969.0,4095.0,4095.0,1714.0,3083.0,2559.0,-0.25,9.77,5.52,0.02,-0.02,-0.13,0.0,k
3003.0,3007.0,2985.0,4095.0,4095.0,1722.0,3088.0,2559.0,-0.02,9.83,5.46,0.01,-0.02,-0.15,0.0,k
3008.0,3009.0,2980.0,4095.0,4095.0,1716.0,3086.0,2559.0,-0.2,9.8,5.57,-0.01,-0.02,-0.15,0.0,k
2999.0,3006.0,2976.0,4095.0,4095.0,1722.0,3087.0,2559.0,0.01,9.8,5.72,0.01,0.0,-0.14,0.0,k
3006.0,3005.0,2975.0,4095.0,4095.0,1715.0,3090.0,2559.0,-0.16,9.83,5.45,0.02,-0.0,-0.16,0.0,k
3010.0,3018.0,2983.0,4095.0,4095.0,1728.0,3093.0,2559.0,-0.25,9.81,5.51,-0.01,0.05,-0.13,0.0,k
3005.0,3007.0,2977.0,4095.0,4095.0,1718.0,3089.0,2559.0,0.02,9.77,5.68,-0.0,-0.04,-0.14,0.0,k
2994.0,3007.0,2971.0,4095.0,4095.0,1723.0,3088.0,2559.0,-0.11,9.81,5.57,0.01,-0.05,-0.17,0.0,k
3003.0,3015.0,2989.0,4095.0,4095.0,1727.0,3094.0,2579.0,-0.28,9.83,5.56,0.02,0.04,-0.15,0.0,k
3007.0,2994.0,2979.0,4095.0,4095.0,1680.0,3089.0,2559.0,-0.05,9.81,5.58,0.01,-0.02,-0.13,0.0,k
3022.0,3019.0,2971.0,4095.0,4095.0,1723.0,3086.0,2579.0,-0.11,9.8,5.62,0.01,-0.04,-0.17,0.0,k
3007.0,3009.0,2979.0,4095.0,4095.0,1730.0,3091.0,2559.0,-0.18,9.8,5.58,0.01,-0.01,-0.16,0.0,k
3013.0,3008.0,2986.0,4095.0,4095.0,1728.0,3093.0,2559.0,-0.16,9.82,5.61,0.01,-0.02,-0.15,0.0,k
2992.0,3005.0,2981.0,4095.0,4095.0,1718.0,3087.0,2559.0,-0.25,9.79,5.66,0.02,0.03,-0.14,0.0,k
3005.0,3008.0,2982.0,4095.0,4095.0,1727.0,3097.0,2559.0,-0.04,9.79,5.61,0.04,0.09,-0.12,0.0,k
3010.0,3006.0,2985.0,4095.0,4095.0,1729.0,3082.0,2551.0,-0.2,9.85,5.6,0.03,0.06,-0.12,0.0,k
3008.0,3001.0,2982.0,4095.0,4095.0,1763.0,3090.0,2544.0,-0.2,9.89,5.76,0.08,0.04,-0.23,0.0,k
3008.0,3008.0,2978.0,4095.0,4095.0,1776.0,3082.0,2539.0,-0.39,9.78,5.41,0.06,-0.03,-0.2,0.0,k
3014.0,3011.0,2983.0,4095.0,4095.0,1778.0,3094.0,2554.0,-0.29,9.84,5.34,0.02,0.01,-0.14,0.0,k
3003.0,3006.0,2978.0,4095.0,4095.0,1774.0,3086.0,2551.0,-0.24,9.82,5.35,-0.03,-0.01,-0.12,0.0,k
3020.0,3014.0,2991.0,4095.0,4095.0,1775.0,3100.0,2559.0,-0.18,9.82,5.5,0.0,-0.02,-0.15,0.0,k
3014.0,3002.0,2973.0,4095.0,4095.0,1776.0,3095.0,2558.0,-0.23,9.84,5.45,0.05,-0.04,-0.18,0.0,k
3021.0,3009.0,2980.0,4095.0,4095.0,1751.0,3095.0,2559.0,-0.32,9.85,5.33,0.01,0.0,-0.15,0.0,k
3015.0,2997.0,2969.0,4095.0,4095.0,1776.0,3098.0,2559.0,-0.36,9.83,5.48,-0.01,0.05,-0.14,0.0,k
3008.0,3001.0,2975.0,4095.0,4095.0,1767.0,3088.0,2559.0,-0.19,9.82,5.47,0.0,0.03,-0.15,0.0,k
3014.0,3003.0,2983.0,4095.0,4095.0,1775.0,3103.0,2559.0,-0.19,9.75,5.53,-0.01,-0.04,-0.14,0.0,k
3002.0,3004.0,2980.0,4095.0,4095.0,1773.0,3088.0,2559.0,-0.16,9.79,5.48,0.05,-0.05,-0.18,0.0,k
3007.0,3012.0,2981.0,4095.0,4095.0,1771.0,3094.0,2559.0,-0.29,9.83,5.39,-0.0,0.08,-0.14,0.0,k
3010.0,3007.0,2978.0,4095.0,4095.0,1771.0,3094.0,2559.0,-0.22,9.8,5.45,0.01,-0.06,-0.16,0.0,k
3008.0,3015.0,2995.0,4095.0,4095.0,1769.0,3090.0,2559.0,-0.27,9.83,5.39,0.01,-0.05,-0.16,0.0,k
3007.0,3002.0,2976.0,4095.0,4095.0,1773.0,3093.0,2559.0,-0.31,9.83,5.48,0.01,-0.01,-0.14,0.0,k
3007.0,3008.0,2985.0,4095.0,4095.0,1776.0,3092.0,2559.0,-0.28,9.84,5.42,0.01,-0.03,-0.16,0.0,k
3011.0,2996.0,2975.0,4095.0,4095.0,1770.0,3088.0,2559.0,-0.3,9.85,5.42,0.01,-0.02,-0.14,0.0,k
3013.0,3009.0,2973.0,4095.0,4095.0,1761.0,3094.0,2579.0,-0.25,9.78,5.71,-0.0,-0.01,-0.11,0.0,k
3019.0,3011.0,2989.0,4095.0,4095.0,1768.0,3099.0,2559.0,-0.14,9.75,5.77,0.05,-0.06,-0.15,0.0,k
3015.0,3015.0,2986.0,4095.0,4095.0,1753.0,3097.0,2586.0,-0.37,9.83,5.37,0.05,-0.07,-0.19,0.0,k
3012.0,2999.0,2979.0,4095.0,4095.0,1759.0,3090.0,2559.0,-0.45,9.81,5.43,0.05,-0.05,-0.11,0.0,k
3014.0,3007.0,2992.0,4095.0,4095.0,1761.0,3099.0,2587.0,-0.13,9.87,5.19,0.01,0.02,-0.13,0.0,k
3008.0,3005.0,2979.0,4095.0,4095.0,1750.0,3093.0,2559.0,-0.48,9.76,5.8,0.03,-0.0,-0.12,0.0,k
3006.0,3002.0,2978.0,4095.0,4095.0,1767.0,3090.0,2582.0,-0.04,9.84,5.18,0.04,-0.01,-0.13,0.0,k
3011.0,2999.0,2988.0,4095.0,4095.0,1751.0,3088.0,2581.0,-0.28,9.85,5.3,-0.08,-0.07,-0.17,0.0,k
3007.0,3014.0,2991.0,4095.0,4095.0,1755.0,3097.0,2586.0,-0.25,9.77,5.71,-0.02,-0.0,-0.15,0.0,k
3010.0,3005.0,2977.0,4095.0,4095.0,1755.0,3091.0,2559.0,-0.27,9.7,5.93,-0.01,0.04,-0.17,0.0,k
3026.0,3009.0,2975.0,4095.0,4095.0,1755.0,3101.0,2585.0,-0.39,9.82,5.35,0.03,0.11,-0.05,0.0,k
3006.0,3003.0,2981.0,4095.0,4095.0,1758.0,3098.0,2581.0,-0.18,9.81,5.53,0.01,0.05,-0.05,0.0,k
3014.0,3007.0,2985.0,4095.0,4095.0,1764.0,3101.0,2583.0,0.17,9.68,6.28,0.04,0.06,-0.11,0.0,k
3015.0,3014.0,2978.0,4095.0,4095.0,1761.0,3095.0,2589.0,0.15,9.84,5.31,0.08,0.01,-0.13,0.0,k
3017.0,3012.0,2967.0,4095.0,4095.0,1761.0,3090.0,2559.0,0.17,9.84,5.32,0.01,-0.07,-0.2,0.0,k
3018.0,3016.0,2990.0,4095.0,4095.0,1727.0,3107.0,2592.0,0.02,9.76,5.67,0.01,-0.08,-0.21,0.0,k
3007.0,3002.0,2969.0,4095.0,4095.0,1750.0,3102.0,2585.0,-0.08,9.87,5.28,0.01,-0.1,-0.22,0.0,k
3008.0,3009.0,2983.0,4095.0,4095.0,1745.0,3101.0,2587.0,-0.41,9.78,5.76,0.02,-0.07,-0.14,0.0,k
3010.0,3006.0,2982.0,4095.0,4095.0,1754.0,3090.0,2590.0,0.22,9.84,5.42,-0.03,-0.1,-0.19,0.0,k
3015.0,3007.0,2985.0,4095.0,4095.0,1711.0,3101.0,2587.0,-0.53,9.82,5.61,0.01,-0.04,-0.21,0.0,k
3009.0,2997.0,2991.0,4095.0,4095.0,1775.0,3091.0,2559.0,0.08,10.04,5.27,-0.24,-0.05,0.12,0.0,k
3008.0,3013.0,2978.0,4095.0,4095.0,1765.0,3061.0,2555.0,0.98,9.41,5.43,-0.34,0.33,0.14,0.0,k
3015.0,3006.0,2987.0,4095.0,4095.0,1771.0,3083.0,2559.0,0.85,9.58,6.28,0.2,0.12,-0.21,0.0,k
3018.0,3003.0,2986.0,4095.0,4095.0,1767.0,3069.0,2549.0,0.36,9.83,5.96,0.31,0.04,-0.38,0.0,k
3026.0,3007.0,2982.0,4095.0,4095.0,1747.0,3068.0,2555.0,0.03,9.73,5.77,0.11,-0.04,-0.21,0.0,k
3013.0,3009.0,2982.0,4095.0,4095.0,1766.0,3056.0,2553.0,0.09,9.75,5.68,0.02,0.05,-0.12,0.0,k
3026.0,3019.0,2975.0,4095.0,4095.0,1785.0,3063.0,2559.0,0.06,9.79,5.8,0.03,-0.06,-0.17,0.0,k
3019.0,3003.0,2979.0,4095.0,4095.0,1773.0,3052.0,2555.0,0.08,9.82,5.63,0.05,-0.08,-0.16,0.0,k
3025.0,3005.0,2987.0,4095.0,4095.0,1764.0,3066.0,2559.0,0.01,9.79,5.65,0.01,0.02,-0.14,0.0,k
3023.0,3010.0,2978.0,4095.0,4095.0,1776.0,3057.0,2558.0,0.23,9.78,5.71,-0.04,-0.09,-0.14,0.0,k
3029.0,3008.0,2980.0,4095.0,4095.0,1782.0,3062.0,2559.0,-0.06,9.79,5.78,0.01,0.01,-0.19,0.0,k
3029.0,2999.0,2982.0,4095.0,4095.0,1776.0,3059.0,2559.0,0.09,9.75,5.77,0.01,0.01,-0.18,0.0,k
3027.0,3007.0,2978.0,4095.0,4095.0,1780.0,3058.0,2559.0,0.02,9.81,5.75,0.03,-0.08,-0.22,0.0,k
3033.0,2997.0,2974.0,4095.0,4095.0,1779.0,3065.0,2585.0,-0.18,9.79,5.78,-0.01,0.01,-0.15,0.0,k
3024.0,2999.0,2972.0,4095.0,4095.0,1774.0,3059.0,2581.0,0.08,9.78,5.7,0.0,-0.05,-0.15,0.0,k
3030.0,3018.0,2986.0,4095.0,4095.0,1778.0,3063.0,2583.0,-0.11,9.75,5.94,-0.01,-0.06,-0.17,0.0,k
3035.0,3003.0,2983.0,4095.0,4095.0,1779.0,3061.0,2587.0,-0.02,9.76,5.73,0.01,-0.09,-0.2,0.0,k
3024.0,3015.0,2991.0,4095.0,4095.0,1782.0,3062.0,2589.0,-0.16,9.77,5.69,-0.0,-0.0,-0.13,0.0,k
3024.0,3008.0,2975.0,4095.0,4095.0,1776.0,3070.0,2587.0,0.29,9.85,5.51,-0.28,0.04,-0.11,0.0,k
3035.0,3014.0,2973.0,4095.0,4095.0,1765.0,3069.0,2593.0,-0.36,9.42,7.59,-0.03,0.01,-0.18,0.0,k
3021.0,3008.0,2985.0,4095.0,4095.0,1766.0,3085.0,2583.0,-1.08,9.78,4.11,0.04,0.01,-0.25,0.0,k
3035.0,3008.0,2976.0,4095.0,4095.0,1776.0,3095.0,2593.0,-1.18,9.84,4.13,0.07,-0.0,-0.2,0.0,k
3019.0,3009.0,2980.0,4095.0,4095.0,1773.0,3088.0,2589.0,-1.43,9.75,4.41,0.07,0.28,-0.12,0.0,k
3028.0,3013.0,2990.0,4095.0,4095.0,1779.0,3085.0,2587.0,-0.84,9.93,3.7,0.15,0.56,-0.06,0.0,k
3019.0,3003.0,2985.0,4095.0,4095.0,1776.0,3071.0,2581.0,-0.55,9.81,3.96,0.2,0.38,-0.24,0.0,k
3013.0,3019.0,2986.0,4095.0,4095.0,1791.0,3071.0,2587.0,-0.73,9.86,3.4,0.09,0.42,-0.17,0.0,k
2996.0,3006.0,2979.0,4095.0,4095.0,1778.0,3071.0,2559.0,-0.8,9.59,3.83,0.03,0.51,0.07,0.0,k
3023.0,3014.0,2983.0,4095.0,4095.0,1801.0,3093.0,2589.0,-0.79,9.25,1.52,0.21,0.13,-0.44,0.0,k
3005.0,3003.0,2973.0,4095.0,4095.0,1782.0,3090.0,2586.0,-1.43,10.3,2.51,-0.54,-0.25,-0.28,0.0,k
3009.0,2993.0,2981.0,4095.0,4095.0,1794.0,3089.0,2591.0,-1.08,9.56,5.25,-0.34,0.14,0.06,0.0,k
3007.0,3001.0,2973.0,4095.0,4095.0,1792.0,3095.0,2594.0,-1.06,9.81,4.48,-0.11,0.09,-0.02,0.0,k
3003.0,3011.0,2975.0,4095.0,4095.0,1792.0,3093.0,2591.0,-0.67,10.13,3.57,0.17,0.02,-0.22,0.0,k
3008.0,3009.0,2985.0,4095.0,4095.0,1794.0,3088.0,2586.0,-0.06,9.87,3.85,-0.15,0.29,-0.01,0.0,k
3009.0,3005.0,2975.0,4095.0,4095.0,1793.0,3090.0,2591.0,-0.14,9.88,4.38,-0.06,0.02,-0.24,0.0,k
3009.0,2998.0,2975.0,4095.0,4095.0,1767.0,3099.0,2591.0,-0.99,9.82,4.38,-0.06,-0.04,-0.25,0.0,k
2992.0,3003.0,2991.0,4095.0,4095.0,1788.0,3088.0,2583.0,-0.85,9.88,4.42,-0.09,0.04,-0.14,0.0,k
3006.0,3008.0,2983.0,4095.0,4095.0,1789.0,3099.0,2593.0,-0.57,9.83,4.7,-0.01,-0.12,-0.23,0.0,k
3013.0,3001.0,2978.0,4095.0,4095.0,1791.0,3096.0,2592.0,-0.85,9.81,4.36,0.09,-0.2,-0.28,0.0,k
3015.0,3008.0,2983.0,4095.0,4095.0,1799.0,3101.0,2595.0,-1.58,9.8,4.54,-0.02,-0.06,-0.19,0.0,k
3006.0,2996.0,2978.0,4095.0,4095.0,1766.0,3090.0,2588.0,-1.25,9.77,4.9,0.01,0.22,-0.03,0.0,k
3005.0,3014.0,2987.0,4095.0,4095.0,1765.0,3091.0,2596.0,-0.47,9.88,4.48,-0.02,-0.04,-0.17,0.0,k
3006.0,3007.0,2982.0,4095.0,4095.0,1759.0,3091.0,2595.0,-0.4,9.89,4.63,-0.02,-0.04,-0.18,0.0,k
3001.0,2996.0,2977.0,4095.0,4095.0,1706.0,3087.0,2590.0,-0.6,9.88,4.52,0.02,-0.02,-0.18,0.0,k
3008.0,2999.0,2975.0,4095.0,4095.0,1746.0,3090.0,2608.0,-0.51,9.88,4.47,-0.0,-0.06,-0.16,0.0,k
3021.0,3005.0,2992.0,4095.0,4095.0,1683.0,3091.0,2599.0,-0.6,9.88,4.55,0.02,0.0,-0.15,0.0,k
3009.0,2997.0,2986.0,4095.0,4095.0,1734.0,3094.0,2605.0,-0.54,9.87,4.5,0.0,0.04,-0.12,0.0,k
3011.0,3009.0,2971.0,4095.0,4095.0,1731.0,3093.0,2597.0,-0.31,9.86,4.61,-0.01,0.04,-0.16,0.0,k
3005.0,3017.0,2983.0,4095.0,4095.0,1728.0,3089.0,2603.0,-0.56,9.85,4.68,-0.0,-0.07,-0.21,0.0,k
3019.0,3005.0,2988.0,4095.0,4095.0,1728.0,3088.0,2602.0,-0.74,9.82,4.87,0.01,-0.0,-0.16,0.0,k
3010.0,3008.0,2976.0,4095.0,4095.0,1744.0,3093.0,2601.0,-0.41,9.9,4.38,0.09,-0.0,-0.12,0.0,k
2999.0,3007.0,2982.0,4095.0,4095.0,1729.0,3088.0,2594.0,-0.52,9.9,4.46,0.0,-0.01,-0.19,0.0,k
3003.0,3001.0,2975.0,4095.0,4095.0,1735.0,3095.0,2598.0,-0.93,9.78,5.25,0.17,0.12,-0.17,0.0,k
3005.0,3008.0,2981.0,4095.0,4095.0,1685.0,3088.0,2591.0,-0.59,9.97,4.38,0.32,0.21,-0.12,0.0,k
2999.0,3003.0,2983.0,4095.0,4095.0,1776.0,3071.0,2585.0,-0.24,10.05,3.51,0.47,0.38,-0.29,0.0,k
3010.0,3010.0,2982.0,4095.0,4095.0,1776.0,3071.0,2583.0,-0.74,9.92,3.32,0.22,0.16,-0.21,0.0,k
2992.0,3007.0,2976.0,4095.0,4095.0,1774.0,3071.0,2579.0,-0.87,9.89,3.27,0.08,0.01,-0.16,0.0,k
2991.0,3019.0,2986.0,4095.0,4095.0,1778.0,3085.0,2589.0,-0.63,9.88,3.31,-0.05,-0.16,-0.09,0.0,k
2997.0,2992.0,2969.0,4095.0,4095.0,1744.0,3083.0,2583.0,-0.65,9.86,3.61,-0.03,-0.04,-0.11,0.0,k
3015.0,3018.0,2992.0,4095.0,4095.0,1767.0,3094.0,2592.0,-0.61,9.87,3.55,0.01,0.04,-0.16,0.0,k
3002.0,2999.0,2977.0,4095.0,4095.0,1776.0,3088.0,2589.0,-0.65,9.89,3.43,-0.01,-0.04,-0.18,0.0,k
2999.0,3001.0,2985.0,4095.0,4095.0,1775.0,3088.0,2586.0,-0.77,9.84,3.72,-0.0,-0.02,-0.17,0.0,k
2987.0,2995.0,2975.0,4095.0,4095.0,1771.0,3082.0,2588.0,-0.7,9.85,3.68,-0.01,-0.0,-0.16,0.0,k
3007.0,3014.0,2990.0,4095.0,4095.0,1770.0,3085.0,2585.0,-0.74,9.84,3.85,-0.01,-0.03,-0.16,0.0,k
2993.0,3008.0,2987.0,4095.0,4095.0,1771.0,3071.0,2583.0,-0.69,9.87,3.78,0.02,-0.02,-0.17,0.0,k
3007.0,3010.0,2978.0,4095.0,4095.0,1776.0,3087.0,2594.0,-0.88,9.87,3.76,0.03,-0.06,-0.18,0.0,k
2992.0,2998.0,2977.0,4095.0,4095.0,1764.0,3081.0,2585.0,-0.82,9.85,3.75,0.02,-0.01,-0.14,0.0,k
3009.0,3008.0,2991.0,4095.0,4095.0,1772.0,3088.0,2598.0,-0.69,9.86,3.73,0.03,-0.04,-0.17,0.0,k
2991.0,2999.0,2971.0,4095.0,4095.0,1772.0,3085.0,2591.0,-0.87,9.85,3.81,0.01,-0.05,-0.16,0.0,k
3009.0,3014.0,2987.0,4095.0,4095.0,1776.0,3088.0,2603.0,-0.87,9.86,3.76,0.02,-0.01,-0.16,0.0,k
2995.0,3003.0,2975.0,4095.0,4095.0,1775.0,3086.0,2593.0,-0.76,9.98,3.67,-0.01,-0.05,-0.16,0.0,k
2995.0,3011.0,2992.0,4095.0,4095.0,1739.0,3097.0,2601.0,-0.81,9.91,3.59,0.0,-0.09,-0.15,0.0,k
2982.0,3005.0,2986.0,4095.0,4095.0,1768.0,3090.0,2595.0,-1.05,9.82,3.92,0.03,-0.05,-0.16,0.0,k
2992.0,2999.0,2988.0,4095.0,4095.0,1769.0,3088.0,2593.0,-0.83,9.84,3.86,0.02,0.0,-0.16,0.0,k
2994.0,2997.0,2986.0,4095.0,4095.0,1761.0,3089.0,2595.0,-0.94,9.86,3.71,-0.01,0.02,-0.16,0.0,k
2996.0,3006.0,2970.0,4095.0,4095.0,1759.0,3089.0,2591.0,-0.85,9.84,3.86,-0.01,-0.01,-0.14,0.0,k
2995.0,3005.0,2987.0,4095.0,4095.0,1759.0,3093.0,2598.0,-0.87,9.86,3.86,0.02,0.04,-0.16,0.0,k
2998.0,3001.0,2967.0,4095.0,4095.0,1758.0,3088.0,2592.0,-0.9,9.83,3.89,0.01,-0.05,-0.18,0.0,k
3003.0,3002.0,2985.0,4095.0,4095.0,1759.0,3098.0,2603.0,-0.88,9.89,3.98,0.07,-0.05,-0.14,0.0,k
3003.0,2997.0,2972.0,4095.0,4095.0,1757.0,3105.0,2595.0,-0.94,9.88,3.73,0.0,-0.0,-0.15,0.0,k
3005.0,2999.0,2985.0,4095.0,4095.0,1755.0,3104.0,2603.0,-0.82,9.84,3.88,-0.03,0.01,-0.14,0.0,k
3033.0,3008.0,2982.0,4095.0,4095.0,1740.0,3081.0,2459.0,-0.28,9.74,6.11,0.01,-0.05,-0.22,0.0,k
3042.0,3018.0,2983.0,4095.0,4095.0,1745.0,3087.0,2463.0,-0.27,9.88,5.2,0.09,0.05,-0.13,0.0,k
3028.0,3005.0,2990.0,4095.0,4095.0,1746.0,3071.0,2461.0,0.11,9.8,5.47,-0.12,-0.04,-0.19,0.0,k
3025.0,3014.0,2981.0,4095.0,4095.0,1743.0,3071.0,2454.0,-0.58,9.67,6.19,0.01,0.01,-0.17,0.0,k
3027.0,3002.0,2992.0,4095.0,4095.0,1743.0,3086.0,2458.0,-0.04,9.8,5.54,0.09,0.17,-0.14,0.0,k
3027.0,3006.0,2977.0,4095.0,4095.0,1690.0,3082.0,2452.0,-0.25,9.74,5.9,0.15,-0.01,-0.17,0.0,k
3046.0,3014.0,2983.0,4095.0,4095.0,1744.0,3088.0,2465.0,-0.18,9.92,4.95,0.13,-0.01,-0.14,0.0,k
3022.0,3002.0,2987.0,4095.0,4095.0,1745.0,3088.0,2464.0,0.03,9.85,5.41,-0.09,-0.02,-0.22,0.0,k
3031.0,3019.0,2991.0,4095.0,4095.0,1743.0,3088.0,2467.0,-0.68,9.78,5.69,0.09,-0.04,-0.17,0.0,k
3034.0,3008.0,2988.0,4095.0,4095.0,1742.0,3084.0,2464.0,0.11,9.84,5.04,-0.07,0.05,-0.12,0.0,k
3024.0,3003.0,2991.0,4095.0,4095.0,1696.0,3088.0,2468.0,-0.51,9.74,5.9,0.09,-0.07,-0.19,0.0,k
3033.0,3008.0,2992.0,4095.0,4095.0,1738.0,3071.0,2469.0,-0.26,9.73,5.05,0.02,0.0,-0.15,0.0,k
3036.0,3019.0,2997.0,4095.0,4095.0,1756.0,3088.0,2477.0,0.23,9.85,5.26,0.01,-0.15,-0.23,0.0,k
3022.0,2995.0,2978.0,4095.0,4095.0,1749.0,3079.0,2480.0,-0.86,9.72,5.92,0.07,-0.09,-0.24,0.0,k
3021.0,2998.0,2988.0,4095.0,4095.0,1755.0,3071.0,2471.0,0.02,9.82,5.16,-0.14,0.07,-0.18,0.0,k
3028.0,3015.0,2996.0,4095.0,4095.0,1758.0,3087.0,2478.0,-0.74,9.59,5.84,0.04,-0.15,-0.23,0.0,k
3039.0,2999.0,2978.0,4095.0,4095.0,1761.0,3085.0,2475.0,-0.66,9.72,5.46,0.04,0.11,-0.06,0.0,k
3045.0,3013.0,2990.0,4095.0,4095.0,1731.0,3087.0,2480.0,-0.17,9.84,4.91,0.02,0.05,-0.06,0.0,k
3033.0,3000.0,2992.0,4095.0,4095.0,1747.0,3081.0,2474.0,-0.0,9.84,4.94,-0.01,0.07,-0.14,0.0,k
3043.0,3021.0,2981.0,4095.0,4095.0,1764.0,3095.0,2483.0,-0.07,9.9,5.04,-0.06,-0.02,-0.18,0.0,k
3022.0,3013.0,2992.0,4095.0,4095.0,1748.0,3094.0,2483.0,-0.3,9.91,4.3,0.09,0.04,-0.21,0.0,k
3017.0,2997.0,2977.0,4095.0,4095.0,1762.0,3089.0,2480.0,-0.71,9.82,4.71,0.01,0.0,-0.25,0.0,k
3022.0,3021.0,2986.0,4095.0,4095.0,1767.0,3094.0,2482.0,-0.54,9.93,4.43,0.0,-0.01,-0.16,0.0,k
3018.0,3017.0,2975.0,4095.0,4095.0,1767.0,3088.0,2480.0,-0.37,9.84,5.11,-0.29,0.16,-0.12,0.0,k
3013.0,3021.0,2992.0,4095.0,4095.0,1777.0,3095.0,2487.0,-0.41,10.1,5.24,-0.08,0.02,-0.06,0.0,k
3011.0,3008.0,2979.0,4095.0,4095.0,1770.0,3088.0,2485.0,-0.03,10.1,4.76,0.31,-0.19,-0.36,0.0,k
3008.0,3014.0,2980.0,4095.0,4095.0,1774.0,3096.0,2485.0,-1.63,8.47,3.86,0.36,-0.13,-0.61,0.0,k
3008.0,3000.0,2976.0,4095.0,4095.0,1750.0,3103.0,2483.0,-1.37,9.14,3.75,0.21,0.37,-0.72,0.0,k
3001.0,3008.0,2981.0,4095.0,4095.0,1727.0,3094.0,2491.0,-0.48,9.54,5.2,-0.21,0.33,0.46,0.0,k
3009.0,3014.0,2982.0,4095.0,4095.0,1775.0,3099.0,2493.0,-0.39,9.93,4.55,0.04,-0.09,-0.02,0.0,k
2999.0,3017.0,2975.0,4095.0,4095.0,1760.0,3090.0,2495.0,-0.3,9.93,4.29,0.02,-0.07,-0.14,0.0,k
3017.0,3006.0,2989.0,4095.0,4095.0,1775.0,3095.0,2495.0,-0.23,9.91,4.41,-0.01,-0.11,-0.18,0.0,k
2997.0,3002.0,2980.0,4095.0,4095.0,1765.0,3091.0,2487.0,-0.96,9.87,4.71,0.0,-0.1,-0.23,0.0,k
3010.0,3024.0,2996.0,4095.0,4095.0,1771.0,3101.0,2498.0,-0.73,9.95,4.14,0.02,0.02,-0.13,0.0,k
3005.0,3007.0,2973.0,4095.0,4095.0,1769.0,3095.0,2493.0,-0.76,9.79,4.92,-0.03,-0.05,-0.16,0.0,k
3004.0,3006.0,2973.0,4095.0,4095.0,1774.0,3105.0,2499.0,-1.03,9.89,4.41,0.06,0.02,-0.15,0.0,k
2999.0,3011.0,2981.0,4095.0,4095.0,1767.0,3098.0,2496.0,-0.38,9.81,4.55,-0.07,0.02,-0.15,0.0,k
3005.0,2997.0,2981.0,4095.0,4095.0,1774.0,3099.0,2504.0,-0.91,9.59,5.31,0.13,-0.1,-0.25,0.0,k
2994.0,3013.0,2981.0,4095.0,4095.0,1773.0,3100.0,2501.0,-0.51,10.04,3.71,0.13,0.0,-0.14,0.0,k
3012.0,3006.0,2979.0,4095.0,4095.0,1778.0,3097.0,2501.0,-1.06,9.89,4.62,-0.04,-0.12,-0.25,0.0,k
3009.0,3012.0,2985.0,4095.0,4095.0,1762.0,3098.0,2517.0,-1.2,9.85,4.32,0.07,0.02,-0.15,0.0,k
3005.0,3015.0,2992.0,4095.0,4095.0,1759.0,3098.0,2518.0,-0.83,9.91,4.27,-0.09,0.05,-0.11,0.0,k
3011.0,3006.0,2986.0,4095.0,4095.0,1761.0,3091.0,2513.0,-0.77,9.82,5.1,0.04,-0.02,-0.1,0.0,k
3011.0,3007.0,2978.0,4095.0,4095.0,1761.0,3097.0,2515.0,-0.63,9.92,4.15,0.04,0.01,-0.11,0.0,k
3005.0,3006.0,2987.0,4095.0,4095.0,1745.0,3089.0,2515.0,-1.01,9.83,5.02,-0.04,0.05,-0.2,0.0,k
3005.0,3007.0,2992.0,4095.0,4095.0,1770.0,3103.0,2519.0,-1.07,9.81,4.78,0.22,0.01,-0.25,0.0,k
3003.0,3009.0,2985.0,4095.0,4095.0,1764.0,3095.0,2519.0,-0.39,9.93,3.81,0.02,0.03,-0.12,0.0,k
3002.0,3015.0,2979.0,4095.0,4095.0,1764.0,3099.0,2522.0,-1.73,9.69,5.49,-0.01,-0.1,-0.1,0.0,k
3021.0,3008.0,2988.0,4095.0,4095.0,1776.0,3109.0,2527.0,-0.58,9.93,3.71,0.11,0.12,0.02,0.0,k
3007.0,3014.0,2986.0,4095.0,4095.0,1757.0,3101.0,2525.0,-0.05,9.9,4.39,-0.2,-0.09,-0.14,0.0,k
3019.0,3003.0,2987.0,4095.0,4095.0,1775.0,3103.0,2523.0,-0.89,9.7,5.36,0.12,-0.04,-0.23,0.0,k
3007.0,3023.0,2977.0,4095.0,4095.0,1763.0,3091.0,2519.0,-0.64,10.02,3.54,0.11,0.03,-0.15,0.0,k
3011.0,3014.0,2991.0,4095.0,4095.0,1772.0,3099.0,2526.0,-0.96,9.79,5.04,-0.15,0.06,-0.16,0.0,k
3003.0,3008.0,2987.0,4095.0,4095.0,1770.0,3094.0,2518.0,-0.82,9.84,4.61,-0.01,-0.08,-0.08,0.0,k
3012.0,3008.0,2986.0,4095.0,4095.0,1745.0,3092.0,2523.0,-0.14,9.91,4.34,-0.04,0.01,-0.1,0.0,k
3007.0,3006.0,2972.0,4095.0,4095.0,1750.0,3086.0,2517.0,-0.75,9.65,5.39,0.1,0.09,-0.2,0.0,k
3007.0,3021.0,2992.0,4095.0,4095.0,1751.0,3092.0,2526.0,-0.84,9.94,4.04,0.13,0.06,-0.15,0.0,k
3004.0,3005.0,2977.0,4095.0,4095.0,1745.0,3089.0,2519.0,-0.4,9.92,4.4,-0.09,0.06,-0.16,0.0,k
3018.0,3008.0,2985.0,4095.0,4095.0,1744.0,3092.0,2521.0,-0.79,9.87,4.75,0.03,-0.02,-0.15,0.0,k
3015.0,3008.0,2992.0,4095.0,4095.0,1745.0,3099.0,2526.0,-0.39,9.96,3.93,0.04,0.0,-0.07,0.0,k
3035.0,2996.0,2957.0,4095.0,4095.0,1763.0,3066.0,2556.0,-0.37,9.67,5.83,0.03,-0.42,-0.04,0.0,k
3046.0,3019.0,2974.0,4095.0,4095.0,1789.0,3084.0,2554.0,0.47,9.86,4.9,0.04,-0.49,-0.11,0.0,k
3046.0,2999.0,2960.0,4095.0,4095.0,1778.0,3088.0,2539.0,0.1,10.01,4.61,0.16,0.43,-0.03,0.0,k
3045.0,3009.0,2960.0,4095.0,4095.0,1790.0,3094.0,2556.0,0.33,9.89,5.15,-0.04,0.08,-0.15,0.0,k
3053.0,3010.0,2951.0,4095.0,4095.0,1786.0,3097.0,2559.0,0.45,9.86,5.12,0.02,0.01,-0.21,0.0,k
3045.0,3005.0,2963.0,4095.0,4095.0,1792.0,3109.0,2559.0,0.05,9.77,5.8,-0.05,0.01,-0.24,0.0,k
3047.0,3004.0,2960.0,4095.0,4095.0,1783.0,3099.0,2558.0,-0.03,9.86,5.28,0.05,0.07,-0.19,0.0,k
3047.0,3007.0,2960.0,4095.0,4095.0,1786.0,3111.0,2559.0,-0.04,9.8,5.39,0.01,-0.03,-0.17,0.0,k
3039.0,3005.0,2950.0,4095.0,4095.0,1776.0,3119.0,2559.0,0.38,9.92,4.98,-0.06,-0.06,-0.05,0.0,k
3042.0,3007.0,2961.0,4095.0,4095.0,1780.0,3125.0,2559.0,0.17,9.77,5.92,-0.09,-0.01,-0.14,0.0,k
3051.0,2998.0,2961.0,4095.0,4095.0,1779.0,3129.0,2559.0,0.37,9.9,5.09,0.05,0.1,-0.12,0.0,k
3038.0,3010.0,2947.0,4095.0,4095.0,1775.0,3118.0,2559.0,-0.21,9.78,5.94,-0.01,-0.05,-0.21,0.0,k
3046.0,3008.0,2961.0,4095.0,4095.0,1776.0,3127.0,2583.0,0.17,9.94,5.02,0.11,0.11,-0.11,0.0,k
3050.0,3006.0,2957.0,4095.0,4095.0,1771.0,3120.0,2579.0,0.02,9.73,5.97,-0.03,-0.04,-0.17,0.0,k
3037.0,3003.0,2960.0,4095.0,4095.0,1777.0,3121.0,2586.0,0.49,9.86,5.11,0.13,0.03,-0.13,0.0,k
3033.0,3008.0,2961.0,4095.0,4095.0,1746.0,3125.0,2581.0,0.1,9.82,5.56,-0.02,-0.01,-0.17,0.0,k
3035.0,2999.0,2957.0,4095.0,4095.0,1785.0,3140.0,2585.0,-0.19,9.84,5.35,0.07,0.01,-0.09,0.0,k
3034.0,3002.0,2955.0,4095.0,4095.0,1789.0,3136.0,2581.0,0.59,9.93,4.93,-0.0,0.05,-0.12,0.0,k
3043.0,3008.0,2951.0,4095.0,4095.0,1791.0,3137.0,2583.0,0.03,9.73,5.81,0.03,-0.06,-0.2,0.0,k
3042.0,2996.0,2960.0,4095.0,4095.0,1789.0,3136.0,2559.0,0.35,9.99,4.64,0.03,-0.02,-0.12,0.0,k
3045.0,3003.0,2975.0,4095.0,4095.0,1791.0,3141.0,2617.0,0.15,9.78,5.78,-0.07,-0.08,-0.21,0.0,k
3056.0,3005.0,2963.0,4095.0,4095.0,1783.0,3147.0,2611.0,-0.18,9.86,5.41,0.15,0.08,-0.11,0.0,k
3056.0,3011.0,2964.0,4095.0,4095.0,1785.0,3150.0,2615.0,0.71,9.81,5.25,-0.08,-0.02,-0.14,0.0,k
3046.0,3010.0,2960.0,4095.0,4095.0,1781.0,3142.0,2613.0,-0.05,9.73,5.89,0.05,-0.08,-0.23,0.0,k
3064.0,3018.0,2966.0,4095.0,4095.0,1771.0,3138.0,2611.0,0.25,10.02,4.8,0.03,0.02,-0.12,0.0,k
3043.0,3005.0,2960.0,4095.0,4095.0,1785.0,3147.0,2617.0,0.25,9.73,6.03,0.01,-0.04,-0.18,0.0,k
3039.0,3008.0,2962.0,4095.0,4095.0,1788.0,3141.0,2614.0,0.11,9.94,4.83,0.1,-0.01,-0.15,0.0,k
3050.0,3017.0,2962.0,4095.0,4095.0,1792.0,3148.0,2622.0,0.16,9.74,5.74,-0.09,-0.04,-0.17,0.0,k
3039.0,3003.0,2959.0,4095.0,4095.0,1781.0,3138.0,2614.0,-0.06,9.86,5.41,0.08,0.03,-0.15,0.0,k
3047.0,3005.0,2960.0,4095.0,4095.0,1792.0,3142.0,2618.0,0.44,9.81,5.45,-0.11,-0.03,-0.16,0.0,k
3052.0,3001.0,2958.0,4095.0,4095.0,1789.0,3138.0,2612.0,-0.14,9.75,5.9,0.1,-0.03,-0.17,0.0,k
3054.0,3015.0,2960.0,4095.0,4095.0,1794.0,3145.0,2623.0,0.24,9.98,4.74,0.01,0.04,-0.11,0.0,k
3037.0,2995.0,2956.0,4095.0,4095.0,1783.0,3136.0,2609.0,-0.02,9.67,6.23,-0.01,-0.22,-0.04,0.0,k
3042.0,3018.0,2964.0,4095.0,4095.0,1787.0,3146.0,2618.0,0.96,9.86,4.81,0.11,0.16,0.02,0.0,k
3043.0,3001.0,2959.0,4095.0,4095.0,1788.0,3135.0,2615.0,0.62,9.74,5.62,-0.03,-0.04,-0.19,0.0,k
3054.0,3019.0,2976.0,4095.0,4095.0,1779.0,3140.0,2614.0,0.15,9.88,5.14,0.1,0.01,-0.17,0.0,k
3043.0,3005.0,2960.0,4095.0,4095.0,1791.0,3139.0,2615.0,0.43,9.84,5.29,-0.05,0.0,-0.17,0.0,k
3043.0,3010.0,2966.0,4095.0,4095.0,1786.0,3136.0,2608.0,0.38,9.77,5.49,0.09,-0.02,-0.18,0.0,k
3050.0,2999.0,2961.0,4095.0,4095.0,1794.0,3147.0,2619.0,0.66,9.94,4.72,-0.02,-0.07,-0.18,0.0,k
3037.0,2993.0,2955.0,4095.0,4095.0,1779.0,3136.0,2615.0,0.19,9.79,5.68,-0.02,-0.08,-0.18,0.0,k
3031.0,3003.0,2960.0,4095.0,4095.0,1790.0,3138.0,2609.0,0.36,9.9,5.03,-0.02,-0.0,-0.15,0.0,k
3050.0,3006.0,2960.0,4095.0,4095.0,1777.0,3135.0,2609.0,0.21,9.75,5.88,-0.03,-0.06,-0.17,0.0,k
3041.0,2999.0,2974.0,4095.0,4095.0,1785.0,3137.0,2613.0,0.37,9.93,5.08,0.08,-0.01,-0.13,0.0,k
3049.0,3010.0,2960.0,4095.0,4095.0,1783.0,3134.0,2609.0,0.29,9.81,5.54,-0.02,-0.03,-0.19,0.0,k
3043.0,2998.0,2966.0,4095.0,4095.0,1789.0,3137.0,2609.0,0.02,9.91,5.17,0.05,0.05,-0.13,0.0,k
3052.0,2995.0,2960.0,4095.0,4095.0,1795.0,3131.0,2609.0,0.46,9.87,5.47,-0.05,-0.01,-0.15,0.0,k
3055.0,3022.0,2960.0,4095.0,4095.0,1797.0,3138.0,2618.0,0.14,9.81,5.48,0.05,-0.01,-0.17,0.0,k
3047.0,3008.0,2966.0,4095.0,4095.0,1789.0,3131.0,2610.0,0.43,9.85,5.33,-0.03,-0.07,-0.19,0.0,k
3066.0,3007.0,2966.0,4095.0,4095.0,1802.0,3141.0,2617.0,-0.21,9.81,5.73,0.0,-0.05,-0.21,0.0,k
3051.0,3007.0,2957.0,4095.0,4095.0,1790.0,3126.0,2607.0,0.29,9.83,5.32,0.02,0.02,-0.13,0.0,k
3056.0,3018.0,2962.0,4095.0,4095.0,1776.0,3124.0,2603.0,0.25,9.82,5.54,0.02,-0.06,-0.17,0.0,k
3045.0,2992.0,2961.0,4095.0,4095.0,1777.0,3126.0,2598.0,0.41,9.94,5.01,0.03,-0.01,-0.15,0.0,k
3056.0,3009.0,2960.0,4095.0,4095.0,1771.0,3139.0,2607.0,-0.08,9.77,5.8,-0.02,-0.08,-0.22,0.0,k
3055.0,3009.0,2970.0,4095.0,4095.0,1785.0,3142.0,2604.0,0.21,9.95,5.08,-0.01,-0.03,-0.15,0.0,k
3044.0,2999.0,2970.0,4095.0,4095.0,1779.0,3120.0,2598.0,-0.06,9.68,6.14,0.0,-0.04,-0.15,0.0,k
3047.0,3009.0,2958.0,4095.0,4095.0,1777.0,3136.0,2607.0,0.46,9.96,4.82,0.05,0.03,-0.13,0.0,k
3052.0,2999.0,2963.0,4095.0,4095.0,1728.0,3126.0,2599.0,-0.01,9.7,6.2,-0.06,-0.11,-0.25,0.0,k
3055.0,3017.0,2959.0,4095.0,4095.0,1776.0,3129.0,2603.0,-0.21,9.91,5.37,0.08,0.02,-0.16,0.0,k
3045.0,2994.0,2960.0,4095.0,4095.0,1779.0,3127.0,2605.0,0.03,9.78,5.77,-0.03,-0.04,-0.16,0.0,k
3054.0,3002.0,2975.0,4095.0,4095.0,1773.0,3129.0,2608.0,-0.12,9.84,5.43,0.06,0.07,-0.14,0.0,k
3042.0,2992.0,2960.0,4095.0,4095.0,1779.0,3094.0,2559.0,0.12,9.83,5.52,-0.02,-0.07,-0.2,0.0,k
3050.0,3010.0,2960.0,4095.0,4095.0,1775.0,3106.0,2583.0,-0.02,9.82,5.52,0.01,-0.01,-0.14,0.0,k
3049.0,3003.0,2969.0,4095.0,4095.0,1771.0,3089.0,2579.0,0.15,9.82,5.52,0.0,-0.0,-0.16,0.0,k
3060.0,3021.0,2974.0,4095.0,4095.0,1773.0,3101.0,2587.0,0.07,9.8,5.59,0.01,-0.03,-0.17,0.0,k
3054.0,3009.0,2963.0,4095.0,4095.0,1776.0,3095.0,2581.0,0.05,9.83,5.44,0.03,0.0,-0.14,0.0,k
3056.0,3015.0,2967.0,4095.0,4095.0,1771.0,3107.0,2589.0,0.15,9.85,5.43,0.0,0.01,-0.15,0.0,k
3047.0,3008.0,2961.0,4095.0,4095.0,1769.0,3098.0,2584.0,0.05,9.85,5.5,0.0,-0.04,-0.17,0.0,k
3051.0,3010.0,2969.0,4095.0,4095.0,1775.0,3092.0,2582.0,-0.05,9.79,5.68,0.0,0.01,-0.15,0.0,k
3041.0,3004.0,2960.0,4095.0,4095.0,1775.0,3094.0,2583.0,0.17,9.82,5.61,0.01,-0.03,-0.16,0.0,k
3061.0,3005.0,2960.0,4095.0,4095.0,1771.0,3092.0,2590.0,0.06,9.82,5.57,0.01,-0.03,-0.16,0.0,k
3048.0,3006.0,2963.0,4095.0,4095.0,1782.0,3099.0,2592.0,-0.01,9.83,5.6,0.03,0.05,-0.14,0.0,k
3041.0,3003.0,2960.0,4095.0,4095.0,1765.0,3100.0,2588.0,0.05,9.81,5.56,0.02,0.05,-0.14,0.0,k
3055.0,3003.0,2963.0,4095.0,4095.0,1776.0,3109.0,2603.0,0.16,9.79,5.59,0.02,-0.0,-0.15,0.0,k
3049.0,3006.0,2958.0,4095.0,4095.0,1776.0,3092.0,2586.0,0.05,9.81,5.55,0.01,-0.04,-0.17,0.0,k
3055.0,3012.0,2961.0,4095.0,4095.0,1777.0,3108.0,2597.0,0.05,9.79,5.66,0.01,-0.0,-0.16,0.0,k
3046.0,3001.0,2959.0,4095.0,4095.0,1776.0,3095.0,2586.0,0.1,9.88,5.33,0.02,-0.03,-0.15,0.0,k
3046.0,3021.0,2960.0,4095.0,4095.0,1778.0,3101.0,2597.0,-0.07,9.77,5.83,0.0,-0.01,-0.16,0.0,k
3055.0,2998.0,2963.0,4095.0,4095.0,1774.0,3095.0,2591.0,0.13,9.88,5.29,0.0,-0.0,-0.13,0.0,k
3045.0,3002.0,2967.0,4095.0,4095.0,1773.0,3104.0,2595.0,-0.1,9.73,6.03,0.01,0.0,-0.16,0.0,k
3043.0,3006.0,2958.0,4095.0,4095.0,1767.0,3088.0,2593.0,0.2,9.92,5.05,0.0,-0.03,-0.14,0.0,k
3054.0,3003.0,2962.0,4095.0,4095.0,1759.0,3103.0,2607.0,-0.02,9.78,5.84,0.04,0.02,-0.13,0.0,k
3058.0,3015.0,2970.0,4095.0,4095.0,1765.0,3106.0,2605.0,0.12,9.74,5.85,-0.0,0.02,-0.16,0.0,k
3049.0,3008.0,2965.0,4095.0,4095.0,1762.0,3103.0,2603.0,-0.22,9.81,5.69,0.1,0.04,-0.14,0.0,k
3056.0,3015.0,2967.0,4095.0,4095.0,1755.0,3106.0,2608.0,0.23,9.85,5.36,-0.0,0.04,-0.1,0.0,k
3046.0,3003.0,2960.0,4095.0,4095.0,1749.0,3102.0,2597.0,0.18,9.69,6.14,0.17,0.06,-0.13,0.0,k
3058.0,3014.0,2967.0,4095.0,4095.0,1762.0,3107.0,2605.0,0.17,10.0,4.71,0.14,0.02,-0.16,0.0,k
3056.0,2995.0,2959.0,4095.0,4095.0,1759.0,3103.0,2606.0,-0.12,9.89,5.34,-0.05,-0.06,-0.15,0.0,k
3056.0,3011.0,2963.0,4095.0,4095.0,1753.0,3110.0,2607.0,0.35,9.84,5.32,-0.02,-0.01,-0.13,0.0,k
3055.0,3006.0,2953.0,4095.0,4095.0,1762.0,3107.0,2611.0,0.14,9.73,5.89,0.0,-0.06,-0.19,0.0,k
3049.0,3005.0,2970.0,4095.0,4095.0,1744.0,3108.0,2606.0,0.14,9.93,5.09,0.05,-0.03,-0.16,0.0,k
3055.0,3024.0,2967.0,4095.0,4095.0,1762.0,3108.0,2609.0,-0.04,9.76,5.8,0.0,-0.03,-0.16,0.0,k
3043.0,3006.0,2960.0,4095.0,4095.0,1761.0,3104.0,2602.0,0.21,9.91,5.07,0.02,0.01,-0.13,0.0,k
3056.0,3008.0,2978.0,4095.0,4095.0,1761.0,3108.0,2607.0,0.06,9.8,5.77,0.02,-0.03,-0.16,0.0,k
3038.0,3003.0,2964.0,4095.0,4095.0,1763.0,3102.0,2605.0,0.24,9.86,5.17,0.02,-0.04,-0.14,0.0,k
3050.0,3010.0,2958.0,4095.0,4095.0,1744.0,3107.0,2613.0,-0.02,9.76,5.85,-0.01,-0.06,-0.18,0.0,k
3054.0,2994.0,2960.0,4095.0,4095.0,1747.0,3105.0,2605.0,0.21,9.89,5.09,0.01,0.03,-0.13,0.0,k
3065.0,3008.0,2974.0,4095.0,4095.0,1750.0,3115.0,2614.0,0.02,9.77,5.76,0.03,-0.03,-0.15,0.0,k
3055.0,3008.0,2960.0,4095.0,4095.0,1724.0,3104.0,2607.0,0.23,9.86,5.2,0.01,0.04,-0.14,0.0,k
3056.0,3005.0,2968.0,4095.0,4095.0,1761.0,3105.0,2608.0,-0.05,9.77,5.84,0.02,-0.08,-0.17,0.0,k
3046.0,3009.0,2960.0,4095.0,4095.0,1721.0,3103.0,2605.0,0.22,9.91,5.03,0.02,-0.01,-0.13,0.0,k
3051.0,3009.0,2957.0,4095.0,4095.0,1761.0,3091.0,2608.0,0.11,9.74,5.96,-0.0,-0.04,-0.19,0.0,k
3052.0,3010.0,2966.0,4095.0,4095.0,1764.0,3101.0,2614.0,-0.03,9.89,5.25,0.05,-0.0,-0.13,0.0,k
3039.0,2998.0,2967.0,4095.0,4095.0,1769.0,3091.0,2607.0,0.24,9.75,5.81,-0.04,-0.01,-0.15,0.0,k
3047.0,3011.0,2960.0,4095.0,4095.0,1774.0,3098.0,2608.0,0.09,9.84,5.53,0.05,-0.04,-0.17,0.0,k
3056.0,3008.0,2961.0,4095.0,4095.0,1764.0,3094.0,2609.0,0.1,9.75,5.8,-0.03,-0.01,-0.16,0.0,k
3047.0,3001.0,2961.0,4095.0,4095.0,1765.0,3092.0,2610.0,0.22,9.85,5.43,0.05,-0.02,-0.16,0.0,k
3055.0,3005.0,2979.0,4095.0,4095.0,1768.0,3093.0,2625.0,0.11,9.82,5.55,-0.0,-0.03,-0.15,0.0,k
3041.0,2992.0,2960.0,4095.0,4095.0,1764.0,3088.0,2607.0,0.15,9.81,5.67,0.03,0.02,-0.13,0.0,k
3052.0,3009.0,2967.0,4095.0,4095.0,1761.0,3104.0,2613.0,0.12,9.81,5.54,0.03,0.02,-0.14,0.0,k
3053.0,3008.0,2957.0,4095.0,4095.0,1744.0,3094.0,2608.0,0.17,9.8,5.6,0.03,0.03,-0.13,0.0,k
3054.0,3007.0,2974.0,4095.0,4095.0,1754.0,3101.0,2611.0,0.15,9.84,5.46,0.04,0.0,-0.14,0.0,k
3045.0,3011.0,2960.0,4095.0,4095.0,1758.0,3094.0,2608.0,0.29,9.83,5.46,0.0,-0.01,-0.16,0.0,k
3055.0,3007.0,2967.0,4095.0,4095.0,1769.0,3098.0,2610.0,0.17,9.84,5.43,0.01,-0.03,-0.16,0.0,k
3046.0,3005.0,2960.0,4095.0,4095.0,1754.0,3092.0,2608.0,0.27,9.79,5.66,0.01,-0.01,-0.16,0.0,k
3051.0,2997.0,2977.0,4095.0,4095.0,1755.0,3109.0,2610.0,0.2,9.86,5.31,0.04,-0.04,-0.16,0.0,k
3056.0,3008.0,2958.0,4095.0,4095.0,1757.0,3089.0,2601.0,0.16,9.79,5.74,-0.03,-0.05,-0.17,0.0,k
3055.0,3017.0,2960.0,4095.0,4095.0,1769.0,3103.0,2613.0,0.09,9.88,5.3,0.05,-0.01,-0.15,0.0,k
3054.0,2999.0,2965.0,4095.0,4095.0,1763.0,3101.0,2615.0,0.22,9.76,5.81,-0.04,-0.03,-0.18,0.0,k
3045.0,2997.0,2950.0,4095.0,4095.0,1749.0,3092.0,2606.0,-0.04,9.83,5.48,0.08,0.02,-0.15,0.0,k
3046.0,3015.0,2971.0,4095.0,4095.0,1701.0,3105.0,2613.0,0.3,9.79,5.51,-0.05,-0.0,-0.16,0.0,k
3041.0,3008.0,2953.0,4095.0,4095.0,1757.0,3097.0,2611.0,0.07,9.77,5.74,0.06,-0.05,-0.18,0.0,k
3045.0,3001.0,2961.0,4095.0,4095.0,1763.0,3099.0,2615.0,0.23,9.89,5.24,-0.04,-0.03,-0.15,0.0,k
3052.0,3007.0,2961.0,4095.0,4095.0,1763.0,3099.0,2608.0,0.09,9.7,6.02,-0.01,-0.02,-0.15,0.0,k
3050.0,3005.0,2966.0,4095.0,4095.0,1770.0,3109.0,2615.0,0.32,9.95,4.93,0.04,0.04,-0.15,0.0,k
3055.0,3003.0,2957.0,4095.0,4095.0,1767.0,3099.0,2612.0,-0.27,9.71,6.25,-0.05,-0.07,-0.19,0.0,k
3055.0,3003.0,2970.0,4095.0,4095.0,1755.0,3103.0,2614.0,0.26,9.84,5.27,0.07,0.04,-0.1,0.0,k
3053.0,2998.0,2953.0,4095.0,4095.0,1767.0,3101.0,2614.0,0.21,9.77,5.74,-0.01,-0.04,-0.18,0.0,k
3040.0,3015.0,2960.0,4095.0,4095.0,1764.0,3108.0,2618.0,-0.03,9.91,5.25,0.07,0.02,-0.13,0.0,k
3050.0,3002.0,2958.0,4095.0,4095.0,1759.0,3094.0,2613.0,0.23,9.7,5.98,-0.03,-0.04,-0.16,0.0,k
3059.0,3008.0,2960.0,4095.0,4095.0,1773.0,3104.0,2613.0,-0.02,9.89,5.2,0.07,-0.02,-0.16,0.0,k
3047.0,3017.0,2975.0,4095.0,4095.0,1765.0,3104.0,2619.0,0.05,9.77,5.84,-0.04,0.01,-0.13,0.0,k
3046.0,3007.0,2954.0,4095.0,4095.0,1766.0,3100.0,2614.0,-0.02,9.86,5.51,0.07,-0.0,-0.14,0.0,k
3055.0,3001.0,2959.0,4095.0,4095.0,1764.0,3106.0,2619.0,0.47,9.73,5.33,0.09,0.12,-0.15,0.0,k
3045.0,3011.0,2967.0,4095.0,4095.0,1714.0,3098.0,2608.0,0.03,9.71,5.76,-0.47,0.1,-0.19,0.0,k
3043.0,2997.0,2972.0,4095.0,4095.0,1758.0,3107.0,2619.0,0.06,9.57,6.63,0.32,0.02,-0.12,0.0,k
3035.0,3011.0,2972.0,4095.0,4095.0,1762.0,3095.0,2613.0,-0.53,9.83,5.79,-0.09,0.06,-0.18,0.0,k
3056.0,3006.0,2962.0,4095.0,4095.0,1738.0,3110.0,2623.0,0.37,10.01,4.81,0.24,-0.02,-0.08,0.0,k
3054.0,3006.0,2960.0,4095.0,4095.0,1762.0,3105.0,2614.0,-0.17,9.64,6.37,-0.12,0.02,-0.2,0.0,k
3055.0,3010.0,2967.0,4095.0,4095.0,1747.0,3105.0,2618.0,0.4,9.92,5.12,0.01,-0.04,-0.19,0.0,k
3050.0,3001.0,2959.0,4095.0,4095.0,1765.0,3098.0,2614.0,-0.08,9.79,5.96,0.05,0.03,-0.12,0.0,k
3053.0,3007.0,2969.0,4095.0,4095.0,1767.0,3106.0,2615.0,0.62,9.84,5.19,0.05,0.05,-0.14,0.0,k
3051.0,3002.0,2960.0,4095.0,4095.0,1747.0,3100.0,2610.0,0.19,9.89,5.25,0.03,-0.04,-0.17,0.0,k
3056.0,3013.0,2958.0,4095.0,4095.0,1706.0,3106.0,2614.0,0.24,9.83,5.38,0.02,0.08,-0.11,0.0,k
3056.0,3007.0,2963.0,4095.0,4095.0,1751.0,3109.0,2620.0,0.38,9.88,5.11,0.13,0.41,0.01,0.0,k
3044.0,3007.0,2960.0,4095.0,4095.0,1769.0,3103.0,2619.0,0.9,9.83,5.11,0.12,0.18,-0.05,0.0,k
3052.0,3008.0,2960.0,4095.0,4095.0,1770.0,3115.0,2622.0,0.6,9.92,4.79,0.06,0.07,-0.14,0.0,k
3047.0,2994.0,2960.0,4095.0,4095.0,1728.0,3108.0,2609.0,0.53,9.91,4.9,-0.03,0.05,-0.1,0.0,k
3047.0,3010.0,2960.0,4095.0,4095.0,1770.0,3110.0,2615.0,0.63,9.84,5.18,0.02,0.09,-0.13,0.0,k
3047.0,3005.0,2963.0,4095.0,4095.0,1761.0,3086.0,2608.0,0.74,9.81,5.17,0.09,-0.03,-0.19,0.0,k
3048.0,3006.0,2975.0,4095.0,4095.0,1763.0,3089.0,2601.0,0.48,9.8,4.91,0.13,-0.0,-0.24,0.0,k
3045.0,2999.0,2962.0,4095.0,4095.0,1761.0,3066.0,2595.0,0.28,9.89,4.82,0.04,-0.1,-0.23,0.0,k
3051.0,3009.0,2966.0,4095.0,4095.0,1758.0,3071.0,2599.0,0.45,9.9,4.7,0.05,-0.09,-0.15,0.0,k
3042.0,3008.0,2966.0,4095.0,4095.0,1761.0,3068.0,2599.0,0.37,9.9,4.8,-0.02,-0.06,-0.15,0.0,k
3052.0,3015.0,2970.0,4095.0,4095.0,1763.0,3071.0,2604.0,0.4,9.91,4.81,-0.02,-0.04,-0.16,0.0,k
3038.0,3011.0,2959.0,4095.0,4095.0,1757.0,3081.0,2608.0,0.28,9.9,4.95,-0.03,0.02,-0.13,0.0,k
3043.0,3014.0,2954.0,4095.0,4095.0,1743.0,3070.0,2595.0,0.45,9.87,4.94,0.0,-0.0,-0.13,0.0,k
3041.0,2999.0,2963.0,4095.0,4095.0,1767.0,3089.0,2598.0,0.56,9.91,4.8,-0.06,-0.1,-0.17,0.0,k
3037.0,3002.0,2963.0,4095.0,4095.0,1758.0,3083.0,2597.0,0.2,9.55,5.29,-0.03,-0.1,-0.13,0.0,k
3049.0,3008.0,2960.0,4095.0,4095.0,1746.0,3091.0,2607.0,0.49,9.91,4.88,0.01,0.02,-0.13,0.0,k
3031.0,3002.0,2967.0,4095.0,4095.0,1726.0,3083.0,2598.0,0.4,9.82,5.33,0.01,0.0,-0.15,0.0,k
3009.0,3019.0,2960.0,4095.0,4095.0,1767.0,2956.0,2348.0,-0.66,9.79,5.46,0.03,0.04,-0.13,0.0,k
3010.0,3012.0,2960.0,4095.0,4095.0,1713.0,2947.0,2342.0,-0.45,9.79,5.49,0.08,-0.04,-0.14,0.0,k
3012.0,3016.0,2970.0,4095.0,4095.0,1773.0,2955.0,2351.0,-0.58,9.69,5.78,0.01,-0.07,-0.19,0.0,k
3007.0,3007.0,2960.0,4095.0,4095.0,1759.0,2950.0,2345.0,-0.43,9.61,5.68,0.34,0.13,-0.16,0.0,k
3019.0,3010.0,2964.0,4095.0,4095.0,1769.0,2958.0,2359.0,-0.71,9.87,5.04,0.17,0.09,-0.2,0.0,k
3003.0,3006.0,2964.0,4095.0,4095.0,1773.0,2949.0,2352.0,-0.54,9.9,4.46,0.06,0.03,-0.13,0.0,k
3008.0,3017.0,2963.0,4095.0,4095.0,1774.0,2961.0,2361.0,-0.81,9.85,5.05,-0.01,-0.11,-0.17,0.0,k
3007.0,3009.0,2958.0,4095.0,4095.0,1766.0,2960.0,2365.0,-0.51,9.96,4.6,-0.08,0.07,-0.02,0.0,k
3013.0,3003.0,2960.0,4095.0,4095.0,1775.0,2963.0,2368.0,-0.75,10.01,5.73,0.08,-0.08,-0.1,0.0,k
3023.0,3007.0,2969.0,4095.0,4095.0,1755.0,2962.0,2370.0,-0.51,9.96,4.73,0.06,-0.0,-0.14,0.0,k
3003.0,3012.0,2969.0,4095.0,4095.0,1767.0,2960.0,2370.0,-0.7,9.81,5.26,-0.09,0.01,-0.14,0.0,k
3018.0,3014.0,2977.0,4095.0,4095.0,1775.0,2964.0,2381.0,-0.47,9.77,5.19,-0.02,-0.02,-0.1,0.0,k
3005.0,3008.0,2959.0,4095.0,4095.0,1775.0,2961.0,2374.0,-0.34,9.76,5.35,-0.05,-0.06,-0.2,0.0,k
3014.0,3006.0,2960.0,4095.0,4095.0,1776.0,2972.0,2384.0,-0.96,9.91,5.2,0.16,0.17,-0.15,0.0,k
3005.0,3006.0,2960.0,4095.0,4095.0,1776.0,2962.0,2378.0,-0.38,9.97,4.55,-0.02,-0.03,-0.16,0.0,k
3011.0,3006.0,2964.0,4095.0,4095.0,1778.0,2970.0,2385.0,-0.82,9.8,5.28,0.02,-0.03,-0.14,0.0,k
3019.0,3001.0,2965.0,4095.0,4095.0,1770.0,2961.0,2381.0,-0.16,9.92,4.74,0.02,-0.05,-0.16,0.0,k
3017.0,3012.0,2977.0,4095.0,4095.0,1776.0,2973.0,2390.0,-0.79,9.76,5.36,0.04,-0.04,-0.17,0.0,k
3009.0,3009.0,2960.0,4095.0,4095.0,1778.0,2962.0,2391.0,-0.28,9.95,4.47,0.01,0.01,-0.12,0.0,k
3024.0,3018.0,2971.0,4095.0,4095.0,1761.0,2971.0,2393.0,-0.69,9.76,5.39,-0.04,-0.06,-0.14,0.0,k
3015.0,2994.0,2961.0,4095.0,4095.0,1774.0,2975.0,2401.0,-0.48,9.75,5.25,-0.02,0.15,-0.16,0.0,k
3007.0,3013.0,2962.0,4095.0,4095.0,1777.0,2978.0,2407.0,-0.79,9.78,5.21,0.02,0.16,-0.1,0.0,k
3023.0,3003.0,2964.0,4095.0,4095.0,1766.0,2973.0,2402.0,-0.36,9.85,5.03,-0.04,0.06,-0.14,0.0,k
3008.0,3009.0,2972.0,4095.0,4095.0,1770.0,2982.0,2416.0,-0.72,9.77,5.17,0.02,-0.03,-0.16,0.0,k
3008.0,3002.0,2960.0,4095.0,4095.0,1755.0,2976.0,2410.0,-0.46,9.93,4.77,-0.05,0.03,-0.13,0.0,k
3004.0,3002.0,2970.0,4095.0,4095.0,1755.0,2983.0,2413.0,-0.9,9.75,5.49,0.02,0.01,-0.12,0.0,k
3019.0,3009.0,2966.0,4095.0,4095.0,1734.0,2975.0,2406.0,-0.32,9.95,4.69,-0.01,0.06,-0.08,0.0,k
3006.0,3013.0,2963.0,4095.0,4095.0,1763.0,2974.0,2413.0,-0.48,9.75,5.63,-0.0,-0.08,-0.18,0.0,k
3010.0,3010.0,2961.0,4095.0,4095.0,1762.0,2982.0,2416.0,-0.41,9.9,4.78,0.02,-0.05,-0.15,0.0,k
3015.0,3002.0,2962.0,4095.0,4095.0,1750.0,2979.0,2416.0,-0.64,9.72,5.59,0.0,0.01,-0.16,0.0,k
2998.0,3009.0,2961.0,4095.0,4095.0,1766.0,2989.0,2419.0,-0.51,9.85,4.98,0.1,0.05,-0.14,0.0,k
3003.0,3002.0,2960.0,4095.0,4095.0,1751.0,2980.0,2416.0,-0.57,9.82,5.39,0.0,-0.04,-0.18,0.0,k
3010.0,3012.0,2967.0,4095.0,4095.0,1739.0,2986.0,2431.0,-0.66,9.88,4.96,0.04,0.02,-0.09,0.0,k
3009.0,3004.0,2969.0,4095.0,4095.0,1759.0,2980.0,2418.0,-0.36,9.9,5.07,-0.14,-0.03,-0.13,0.0,k
3009.0,3017.0,2960.0,4095.0,4095.0,1759.0,2985.0,2418.0,-0.7,9.71,5.56,-0.07,0.06,-0.09,0.0,k
2998.0,3004.0,2967.0,4095.0,4095.0,1744.0,2981.0,2411.0,-0.25,9.8,5.46,-0.03,-0.01,-0.17,0.0,k
3010.0,3010.0,2963.0,4095.0,4095.0,1770.0,2982.0,2418.0,-0.65,9.73,5.44,0.1,-0.0,-0.18,0.0,k
3001.0,3009.0,2970.0,4095.0,4095.0,1759.0,2961.0,2394.0,-0.26,9.88,5.09,0.03,-0.17,-0.2,0.0,k
3030.0,3023.0,2973.0,4095.0,4095.0,1757.0,2960.0,2403.0,-0.76,9.82,5.55,-0.02,-0.16,-0.11,0.0,k
3038.0,3002.0,2963.0,4095.0,4095.0,1771.0,2955.0,2403.0,-0.17,9.87,4.94,0.08,-0.11,-0.06,0.0,k
3042.0,3014.0,2957.0,4095.0,4095.0,1782.0,2992.0,2448.0,-0.48,9.82,5.05,0.05,0.1,-0.16,0.0,k
3056.0,3007.0,2960.0,4095.0,4095.0,1776.0,2993.0,2451.0,-0.41,9.84,5.18,-0.04,-0.06,-0.17,0.0,k
3041.0,3014.0,2965.0,4095.0,4095.0,1771.0,2992.0,2448.0,-0.2,9.93,4.91,-0.02,0.13,-0.1,0.0,k
3054.0,3006.0,2963.0,4095.0,4095.0,1767.0,2999.0,2455.0,-0.4,9.77,5.44,-0.02,-0.05,-0.18,0.0,k
3047.0,3021.0,2962.0,4095.0,4095.0,1761.0,2992.0,2451.0,-0.43,9.88,5.03,0.09,0.0,-0.14,0.0,k
3043.0,3009.0,2965.0,4095.0,4095.0,1745.0,2998.0,2460.0,-0.25,9.88,4.99,-0.07,-0.02,-0.15,0.0,k
3050.0,3014.0,2965.0,4095.0,4095.0,1745.0,3002.0,2463.0,-0.36,9.89,4.95,0.01,-0.06,-0.13,0.0,k
3051.0,3007.0,2963.0,4095.0,4095.0,1744.0,2996.0,2455.0,-0.45,9.87,5.27,-0.01,-0.02,-0.19,0.0,k
3041.0,3005.0,2965.0,4095.0,4095.0,1751.0,3006.0,2462.0,-0.57,9.91,5.08,0.06,0.03,-0.13,0.0,k
3034.0,2999.0,2959.0,4095.0,4095.0,1699.0,2999.0,2460.0,-0.32,9.83,5.23,-0.05,-0.04,-0.17,0.0,k
3043.0,3013.0,2973.0,4095.0,4095.0,1741.0,3009.0,2469.0,-0.52,9.84,5.21,0.05,0.06,-0.14,0.0,k
3050.0,3007.0,2960.0,4095.0,4095.0,1739.0,3003.0,2466.0,-0.27,9.81,5.25,-0.03,-0.05,-0.17,0.0,k
3045.0,3013.0,2961.0,4095.0,4095.0,1748.0,3013.0,2467.0,-0.54,9.79,5.37,0.05,-0.04,-0.15,0.0,k
3031.0,3007.0,2960.0,4095.0,4095.0,1745.0,2999.0,2465.0,-0.16,9.85,5.06,-0.05,0.01,-0.15,0.0,k
3054.0,3014.0,2978.0,4095.0,4095.0,1712.0,2999.0,2471.0,-0.55,9.78,5.49,0.02,-0.03,-0.14,0.0,k
3035.0,3008.0,2960.0,4095.0,4095.0,1729.0,3001.0,2460.0,-0.11,9.88,4.99,-0.02,-0.06,-0.16,0.0,k
3042.0,3007.0,2971.0,4095.0,4095.0,1685.0,3018.0,2471.0,-0.57,9.77,5.55,0.03,-0.04,-0.17,0.0,k
3047.0,3018.0,2965.0,4095.0,4095.0,1744.0,3006.0,2475.0,-0.2,9.89,4.88,0.0,0.05,-0.14,0.0,k
3037.0,2998.0,2967.0,4095.0,4095.0,1743.0,2998.0,2463.0,-0.53,9.78,5.55,0.03,0.02,-0.14,0.0,k
3051.0,3009.0,2979.0,4095.0,4095.0,1743.0,3007.0,2471.0,-0.22,9.9,4.93,0.01,0.03,-0.13,0.0,k
3046.0,3008.0,2976.0,4095.0,4095.0,1759.0,3010.0,2475.0,-0.41,9.81,5.46,-0.02,-0.08,-0.2,0.0,k
3047.0,2994.0,2959.0,4095.0,4095.0,1762.0,3010.0,2480.0,-0.44,9.9,4.87,0.07,0.02,-0.13,0.0,k
3053.0,3008.0,2967.0,4095.0,4095.0,1761.0,3016.0,2481.0,-0.34,9.82,5.24,-0.07,-0.01,-0.15,0.0,k
3047.0,3019.0,2960.0,4095.0,4095.0,1754.0,3006.0,2473.0,-0.27,9.85,5.15,0.04,-0.01,-0.13,0.0,k
3050.0,3013.0,2974.0,4095.0,4095.0,1765.0,3021.0,2480.0,-0.3,9.8,5.36,-0.02,-0.05,-0.17,0.0,k
3052.0,3009.0,2957.0,4095.0,4095.0,1771.0,3008.0,2479.0,-0.39,9.86,5.07,0.05,-0.08,-0.15,0.0,k
3056.0,3010.0,2970.0,4095.0,4095.0,1775.0,3013.0,2485.0,-0.66,10.04,5.53,-0.09,-0.0,-0.17,0.0,k
3042.0,3005.0,2966.0,4095.0,4095.0,1771.0,3011.0,2480.0,-0.3,9.81,5.33,0.05,-0.02,-0.16,0.0,k
3056.0,3009.0,2971.0,4095.0,4095.0,1774.0,3017.0,2480.0,-0.47,9.84,5.31,-0.05,-0.04,-0.16,0.0,k
3045.0,3007.0,2959.0,4095.0,4095.0,1771.0,3013.0,2480.0,-0.25,9.81,5.35,0.01,0.02,-0.11,0.0,k
3043.0,3006.0,2970.0,4095.0,4095.0,1773.0,3022.0,2481.0,-0.44,9.75,5.72,-0.01,-0.06,-0.19,0.0,k
3053.0,2997.0,2970.0,4095.0,4095.0,1771.0,3008.0,2480.0,-0.39,9.85,5.2,0.07,0.05,-0.13,0.0,k
3055.0,3008.0,2963.0,4095.0,4095.0,1769.0,3007.0,2480.0,-0.34,9.8,5.42,-0.03,0.01,-0.17,0.0,k
3055.0,3011.0,2973.0,4095.0,4095.0,1773.0,3019.0,2482.0,-0.33,9.82,5.38,0.04,0.01,-0.14,0.0,k
3043.0,2995.0,2960.0,4095.0,4095.0,1762.0,3011.0,2480.0,-0.27,9.78,5.53,-0.04,-0.02,-0.16,0.0,k
3054.0,3022.0,2973.0,4095.0,4095.0,1771.0,3023.0,2485.0,-0.34,9.83,5.36,0.04,0.03,-0.11,0.0,k
3045.0,3005.0,2963.0,4095.0,4095.0,1760.0,3011.0,2482.0,-0.07,9.94,5.39,-0.04,0.05,-0.12,0.0,k
3050.0,3005.0,2960.0,4095.0,4095.0,1759.0,3014.0,2482.0,-0.34,9.84,5.57,0.04,0.0,-0.16,0.0,k
3047.0,3002.0,2963.0,4095.0,4095.0,1759.0,3009.0,2480.0,-0.3,9.83,5.39,0.01,-0.05,-0.17,0.0,k
3061.0,3007.0,2974.0,4095.0,4095.0,1757.0,3019.0,2485.0,-0.33,9.78,5.56,0.01,-0.06,-0.16,0.0,k
3040.0,3008.0,2983.0,4095.0,4095.0,1754.0,3015.0,2483.0,-0.24,9.82,5.41,0.01,-0.0,-0.13,0.0,k
3047.0,3005.0,2960.0,4095.0,4095.0,1750.0,3009.0,2478.0,-0.17,9.79,5.55,-0.01,-0.07,-0.14,0.0,k
3056.0,3003.0,2973.0,4095.0,4095.0,1759.0,3020.0,2482.0,-0.21,9.85,5.39,0.02,-0.01,-0.14,0.0,k
3037.0,3003.0,2954.0,4095.0,4095.0,1750.0,3014.0,2480.0,-0.25,9.82,5.54,0.02,0.03,-0.14,0.0,k
3055.0,3003.0,2966.0,4095.0,4095.0,1760.0,3024.0,2485.0,-0.19,9.82,5.47,0.01,-0.02,-0.16,0.0,k
3049.0,2999.0,2957.0,4095.0,4095.0,1737.0,3017.0,2480.0,-0.22,9.81,5.46,0.01,-0.01,-0.15,0.0,k
3040.0,3003.0,2975.0,4095.0,4095.0,1744.0,3017.0,2484.0,-0.18,9.82,5.5,0.0,0.03,-0.15,0.0,k
3047.0,3015.0,2960.0,4095.0,4095.0,1744.0,3008.0,2479.0,-0.24,9.8,5.57,0.02,0.03,-0.15,0.0,k
3042.0,2997.0,2966.0,4095.0,4095.0,1747.0,3018.0,2486.0,-0.2,9.83,5.42,0.01,0.02,-0.15,0.0,k
3045.0,2992.0,2963.0,4095.0,4095.0,1744.0,3014.0,2481.0,-0.18,9.83,5.52,-0.01,-0.03,-0.15,0.0,k
3045.0,3015.0,2973.0,4095.0,4095.0,1738.0,3014.0,2482.0,-0.23,9.8,5.52,0.02,0.01,-0.16,0.0,k
3041.0,2998.0,2960.0,4095.0,4095.0,1738.0,3018.0,2494.0,-0.13,9.78,5.58,-0.0,0.0,-0.16,0.0,k
3042.0,3002.0,2957.0,4095.0,4095.0,1742.0,3020.0,2481.0,-0.32,9.79,5.57,0.02,-0.02,-0.16,0.0,k
3042.0,3002.0,2965.0,4095.0,4095.0,1735.0,3020.0,2485.0,-0.07,9.84,5.35,-0.02,-0.01,-0.14,0.0,k
3050.0,2998.0,2960.0,4095.0,4095.0,1738.0,3019.0,2482.0,-0.26,9.75,5.78,0.04,-0.06,-0.18,0.0,k
3047.0,3004.0,2966.0,4095.0,4095.0,1734.0,3025.0,2487.0,-0.11,9.87,5.22,-0.0,-0.01,-0.17,0.0,k
3047.0,3002.0,2975.0,4095.0,4095.0,1726.0,3015.0,2481.0,-0.44,9.7,5.99,0.0,-0.03,-0.17,0.0,k
3056.0,3005.0,2967.0,4095.0,4095.0,1729.0,3025.0,2492.0,-0.08,9.9,5.14,0.03,-0.01,-0.13,0.0,k
3039.0,3001.0,2957.0,4095.0,4095.0,1728.0,3021.0,2485.0,-0.28,9.68,6.01,-0.02,-0.06,-0.17,0.0,k
3056.0,3003.0,2970.0,4095.0,4095.0,1715.0,3024.0,2488.0,-0.23,9.9,5.25,0.07,-0.01,-0.14,0.0,k
3031.0,2998.0,2958.0,4095.0,4095.0,1774.0,2995.0,2416.0,-0.56,9.67,5.76,0.12,-0.05,-0.23,0.0,k
3037.0,2997.0,2965.0,4095.0,4095.0,1750.0,2992.0,2412.0,-1.13,9.62,6.31,0.15,0.26,-0.25,0.0,k
3027.0,3002.0,2958.0,4095.0,4095.0,1770.0,2992.0,2410.0,-0.55,9.67,5.39,0.27,-0.08,-0.33,0.0,k
3044.0,3007.0,2967.0,4095.0,4095.0,1771.0,3005.0,2413.0,-0.96,9.78,5.24,0.11,0.23,-0.2,0.0,k
3024.0,2999.0,2962.0,4095.0,4095.0,1764.0,3002.0,2403.0,-1.39,9.8,4.99,0.06,0.06,-0.16,0.0,k
3024.0,3006.0,2965.0,4095.0,4095.0,1764.0,3011.0,2415.0,-1.29,9.8,5.18,-0.09,-0.01,-0.11,0.0,k
3031.0,3003.0,2960.0,4095.0,4095.0,1767.0,3007.0,2411.0,-1.18,9.78,5.35,0.01,-0.08,-0.12,0.0,k
3034.0,3004.0,2967.0,4095.0,4095.0,1773.0,3014.0,2419.0,-0.92,9.77,5.42,-0.04,0.02,-0.12,0.0,k
3024.0,3017.0,2958.0,4095.0,4095.0,1770.0,3005.0,2409.0,-1.1,9.75,5.46,0.01,0.06,-0.12,0.0,k
3030.0,2997.0,2961.0,4095.0,4095.0,1775.0,3008.0,2415.0,-0.82,9.85,5.12,-0.04,-0.02,-0.16,0.0,k
3023.0,3008.0,2955.0,4095.0,4095.0,1766.0,3021.0,2426.0,-1.18,9.7,5.68,0.0,0.01,-0.15,0.0,k
3029.0,2998.0,2960.0,4095.0,4095.0,1760.0,3011.0,2423.0,-0.7,9.79,5.1,-0.05,-0.03,-0.12,0.0,k
3034.0,3012.0,2969.0,4095.0,4095.0,1712.0,3018.0,2433.0,-0.9,9.56,6.02,0.01,-0.03,-0.15,0.0,k
3024.0,3003.0,2961.0,4095.0,4095.0,1762.0,3013.0,2429.0,-0.66,9.79,5.09,0.09,-0.09,-0.19,0.0,k
3035.0,3013.0,2962.0,4095.0,4095.0,1771.0,3011.0,2431.0,-1.12,9.67,5.71,0.02,-0.0,-0.18,0.0,k
3024.0,2994.0,2958.0,4095.0,4095.0,1771.0,3011.0,2435.0,-0.91,9.79,5.04,-0.02,-0.1,-0.12,0.0,k
3024.0,3011.0,2977.0,4095.0,4095.0,1778.0,3017.0,2442.0,-0.92,9.69,5.93,-0.05,-0.06,-0.16,0.0,k
3027.0,3007.0,2953.0,4095.0,4095.0,1773.0,3013.0,2438.0,-0.88,9.79,5.28,0.06,-0.02,-0.13,0.0,k
3035.0,3007.0,2965.0,4095.0,4095.0,1776.0,3018.0,2443.0,-0.97,9.72,5.77,-0.02,-0.03,-0.16,0.0,k
3037.0,3006.0,2954.0,4095.0,4095.0,1776.0,3014.0,2434.0,-0.99,9.78,5.36,0.04,0.02,-0.13,0.0,k
3053.0,3010.0,2962.0,4095.0,4095.0,1755.0,3037.0,2494.0,-0.53,9.72,6.05,0.03,-0.01,-0.16,0.0,k
3044.0,2999.0,2955.0,4095.0,4095.0,1751.0,3030.0,2480.0,-0.58,9.72,5.88,0.02,-0.01,-0.16,0.0,k
3042.0,3011.0,2963.0,4095.0,4095.0,1755.0,3037.0,2489.0,-0.52,9.7,5.91,0.0,0.0,-0.14,0.0,k
3056.0,2997.0,2954.0,4095.0,4095.0,1751.0,3038.0,2486.0,-0.42,9.73,5.94,-0.0,-0.01,-0.17,0.0,k
3055.0,3012.0,2967.0,4095.0,4095.0,1759.0,3041.0,2491.0,-0.64,9.71,6.11,0.01,-0.01,-0.16,0.0,k
3046.0,2999.0,2960.0,4095.0,4095.0,1734.0,3037.0,2487.0,-0.57,9.71,5.94,0.02,0.01,-0.13,0.0,k
3051.0,3012.0,2970.0,4095.0,4095.0,1735.0,3040.0,2490.0,-0.46,9.74,5.86,0.01,-0.01,-0.14,0.0,k
3039.0,2998.0,2959.0,4095.0,4095.0,1761.0,3043.0,2487.0,-0.55,9.75,6.01,0.02,-0.01,-0.14,0.0,k
3039.0,3006.0,2960.0,4095.0,4095.0,1765.0,3037.0,2487.0,-0.66,9.67,6.12,0.01,0.02,-0.13,0.0,k
3053.0,3009.0,2962.0,4095.0,4095.0,1763.0,3038.0,2487.0,-0.46,9.73,5.92,-0.01,0.03,-0.14,0.0,k
3047.0,2997.0,2955.0,4095.0,4095.0,1761.0,3033.0,2483.0,-0.35,9.78,5.78,0.01,0.0,-0.19,0.0,k
3040.0,3004.0,2974.0,4095.0,4095.0,1762.0,3037.0,2495.0,-0.88,9.7,6.24,-0.02,-0.02,-0.2,0.0,k
3047.0,2994.0,2960.0,4095.0,4095.0,1761.0,3031.0,2481.0,-0.65,9.72,5.97,0.03,-0.0,-0.11,0.0,k
3046.0,3009.0,2963.0,4095.0,4095.0,1764.0,3044.0,2495.0,-0.36,9.71,5.98,0.0,-0.01,-0.15,0.0,k
3050.0,3002.0,2963.0,4095.0,4095.0,1701.0,3033.0,2490.0,-0.74,9.69,6.17,0.04,0.01,-0.15,0.0,k
3055.0,3013.0,2960.0,4095.0,4095.0,1752.0,3038.0,2494.0,-0.47,9.72,5.94,0.0,0.01,-0.13,0.0,k
3046.0,2993.0,2960.0,4095.0,4095.0,1760.0,3035.0,2491.0,-0.6,9.7,6.11,0.02,0.02,-0.14,0.0,k
3045.0,3008.0,2951.0,4095.0,4095.0,1766.0,3041.0,2495.0,-0.39,9.76,5.78,-0.02,0.0,-0.15,0.0,k
3046.0,3005.0,2958.0,4095.0,4095.0,1758.0,3034.0,2491.0,-0.73,9.63,6.4,-0.0,-0.0,-0.16,0.0,k
3041.0,3003.0,2961.0,4095.0,4095.0,1757.0,3033.0,2487.0,-0.3,9.78,5.64,0.01,0.03,-0.13,0.0,k
57.0,3040.0,2479.0,-0.64,10.04,5.21,0.22,1.71,0.4,0.0,k
3043.0,3001.0,2959.0,4095.0,4095.0,1770.0,3050.0,2490.0,0.25,9.9,5.12,0.04,0.51,-0.05,0.0,k
3030.0,3015.0,2967.0,4095.0,4095.0,1776.0,3056.0,2478.0,-0.34,9.7,5.57,0.18,0.46,-0.14,0.0,k
3031.0,3008.0,2967.0,4095.0,4095.0,1781.0,3047.0,2463.0,0.03,9.97,4.81,0.11,0.22,-0.14,0.0,k
3026.0,3009.0,2973.0,4095.0,4095.0,1776.0,3056.0,2474.0,-0.3,9.87,5.07,0.03,-0.06,-0.17,0.0,k
3011.0,2999.0,2949.0,4095.0,4095.0,1783.0,3054.0,2482.0,0.08,9.96,4.88,0.01,-0.01,-0.08,0.0,k
3025.0,3014.0,2960.0,4095.0,4095.0,1773.0,3058.0,2493.0,-0.34,9.79,5.56,0.01,-0.02,-0.13,0.0,k
3021.0,3005.0,2960.0,4095.0,4095.0,1787.0,3055.0,2490.0,-0.09,9.91,4.66,0.11,0.09,-0.11,0.0,k
3038.0,3011.0,2960.0,4095.0,4095.0,1790.0,3024.0,2480.0,0.18,9.9,5.02,-0.05,-0.14,-0.16,0.0,k
3045.0,3018.0,2962.0,4095.0,4095.0,1795.0,3024.0,2480.0,-0.17,9.9,4.98,0.12,-0.03,-0.08,0.0,k
3056.0,3005.0,2969.0,4095.0,4095.0,1797.0,3040.0,2491.0,-0.04,9.88,4.98,0.0,0.09,-0.15,0.0,k
3038.0,2999.0,2955.0,4095.0,4095.0,1791.0,3041.0,2485.0,0.12,10.09,4.88,0.02,-0.12,-0.13,0.0,k
3062.0,3006.0,2960.0,4095.0,4095.0,1791.0,3046.0,2498.0,0.26,9.85,4.53,-0.14,-0.0,-0.09,0.0,k
3053.0,3008.0,2967.0,4095.0,4095.0,1780.0,3045.0,2505.0,0.07,9.78,5.46,-0.01,0.07,-0.15,0.0,k
3055.0,3005.0,2971.0,4095.0,4095.0,1781.0,3038.0,2506.0,0.34,9.98,4.79,-0.03,-0.02,-0.13,0.0,k
3054.0,3005.0,2959.0,4095.0,4095.0,1792.0,3053.0,2512.0,0.02,9.87,5.45,0.01,-0.11,-0.19,0.0,k
3041.0,3002.0,2962.0,4095.0,4095.0,1787.0,3050.0,2511.0,0.27,9.96,4.71,0.04,-0.02,-0.12,0.0,k
3059.0,3014.0,2969.0,4095.0,4095.0,1793.0,3051.0,2512.0,-0.0,9.84,5.44,-0.07,-0.07,-0.19,0.0,k
3044.0,3007.0,2954.0,4095.0,4095.0,1787.0,3047.0,2507.0,0.07,9.86,5.19,0.05,0.0,-0.13,0.0,k
3049.0,3007.0,2960.0,4095.0,4095.0,1789.0,3056.0,2515.0,0.19,9.82,5.41,-0.02,-0.06,-0.19,0.0,k
3043.0,3009.0,2962.0,4095.0,4095.0,1762.0,3054.0,2522.0,0.05,9.88,5.11,-0.06,0.03,-0.17,0.0,k
3052.0,3017.0,2963.0,4095.0,4095.0,1765.0,3056.0,2528.0,-0.21,9.74,5.75,0.04,-0.01,-0.16,0.0,k
3052.0,3007.0,2972.0,4095.0,4095.0,1771.0,3046.0,2523.0,0.11,9.86,5.04,0.0,0.02,-0.12,0.0,k
3039.0,3019.0,2978.0,4095.0,4095.0,1776.0,3056.0,2530.0,-0.01,9.79,5.52,0.04,0.07,-0.13,0.0,k
3043.0,3007.0,2967.0,4095.0,4095.0,1772.0,3055.0,2525.0,0.34,9.92,4.91,0.01,0.03,-0.14,0.0,k
3062.0,3010.0,2972.0,4095.0,4095.0,1775.0,3066.0,2533.0,-0.03,9.84,5.42,-0.04,-0.03,-0.17,0.0,k
3045.0,3003.0,2963.0,4095.0,4095.0,1774.0,3060.0,2527.0,0.12,9.82,5.33,0.03,0.01,-0.15,0.0,k
3053.0,3021.0,2960.0,4095.0,4095.0,1772.0,3066.0,2534.0,0.0,9.82,5.55,0.05,-0.05,-0.19,0.0,k
3046.0,3000.0,2970.0,4095.0,4095.0,1776.0,3071.0,2533.0,0.04,9.91,4.91,0.03,-0.01,-0.17,0.0,k
3039.0,3006.0,2963.0,4095.0,4095.0,1771.0,3059.0,2519.0,-0.3,9.83,5.66,-0.04,-0.04,-0.17,0.0,k
3051.0,3007.0,2963.0,4095.0,4095.0,1772.0,3060.0,2532.0,0.02,9.9,5.06,0.05,0.04,-0.11,0.0,k
3043.0,3008.0,2953.0,4095.0,4095.0,1753.0,3058.0,2532.0,0.07,9.81,5.58,-0.04,-0.01,-0.18,0.0,k
3055.0,3005.0,2975.0,4095.0,4095.0,1756.0,3069.0,2535.0,-0.21,9.87,5.32,0.04,-0.05,-0.17,0.0,k
3040.0,3006.0,2960.0,4095.0,4095.0,1744.0,3056.0,2527.0,-0.1,9.81,5.36,-0.05,-0.01,-0.17,0.0,k
3054.0,3009.0,2962.0,4095.0,4095.0,1754.0,3069.0,2537.0,-0.16,9.81,5.47,0.04,0.01,-0.13,0.0,k
3056.0,3008.0,2965.0,4095.0,4095.0,1755.0,3059.0,2532.0,0.09,9.83,5.44,-0.03,-0.0,-0.16,0.0,k
3051.0,2997.0,2965.0,4095.0,4095.0,1749.0,3062.0,2535.0,-0.2,9.83,5.41,0.06,0.03,-0.13,0.0,k
3051.0,3007.0,2960.0,4095.0,4095.0,1751.0,3062.0,2530.0,0.21,9.81,5.21,-0.01,0.04,-0.15,0.0,k
3057.0,3008.0,2962.0,4095.0,4095.0,1756.0,3071.0,2535.0,-0.29,9.83,5.61,0.06,0.03,-0.13,0.0,k
3042.0,3009.0,2956.0,4095.0,4095.0,1751.0,3062.0,2527.0,0.42,9.9,4.95,0.03,0.05,-0.14,0.0,k
3031.0,3011.0,2963.0,4095.0,4095.0,1773.0,3071.0,2529.0,0.1,9.9,4.83,-0.12,0.08,-0.1,0.0,k
3031.0,2995.0,2965.0,4095.0,4095.0,1761.0,3068.0,2528.0,0.13,9.84,5.3,-0.04,-0.04,-0.14,0.0,k
3033.0,3007.0,2963.0,4095.0,4095.0,1763.0,3063.0,2527.0,0.02,9.91,5.13,0.02,0.02,-0.16,0.0,k
3031.0,3008.0,2966.0,4095.0,4095.0,1744.0,3082.0,2533.0,0.08,9.88,4.97,-0.03,0.07,-0.16,0.0,k
3010.0,3005.0,2960.0,4095.0,4095.0,1765.0,3071.0,2526.0,-0.15,9.9,5.17,0.06,-0.03,-0.2,0.0,k
3034.0,3001.0,2962.0,4095.0,4095.0,1771.0,3091.0,2538.0,0.1,10.0,4.67,0.02,-0.03,-0.15,0.0,k
3018.0,2997.0,2972.0,4095.0,4095.0,1764.0,3082.0,2527.0,-0.29,9.81,5.57,0.0,-0.04,-0.17,0.0,k
3025.0,3003.0,2980.0,4095.0,4095.0,1773.0,3089.0,2535.0,0.11,9.95,4.61,0.06,0.01,-0.14,0.0,k
3009.0,3010.0,2969.0,4095.0,4095.0,1759.0,3088.0,2534.0,-0.22,9.83,5.46,-0.01,0.01,-0.16,0.0,k
3021.0,3011.0,2961.0,4095.0,4095.0,1766.0,3088.0,2540.0,-0.08,9.84,5.08,0.1,-0.03,-0.18,0.0,k
3006.0,3002.0,2963.0,4095.0,4095.0,1765.0,3087.0,2531.0,-0.03,9.88,5.0,-0.02,0.02,-0.18,0.0,k
3003.0,3010.0,2971.0,4095.0,4095.0,1774.0,3094.0,2543.0,-0.31,9.86,4.93,0.09,0.01,-0.2,0.0,k
3007.0,2994.0,2959.0,4095.0,4095.0,1771.0,3095.0,2539.0,0.03,9.89,4.68,-0.06,-0.01,-0.14,0.0,k
3001.0,3009.0,2958.0,4095.0,4095.0,1751.0,3089.0,2528.0,-0.23,9.77,5.4,-0.02,-0.02,-0.12,0.0,k
2998.0,3007.0,2970.0,4095.0,4095.0,1782.0,3098.0,2533.0,0.1,9.91,4.63,0.01,-0.03,-0.14,0.0,k
3003.0,2997.0,2965.0,4095.0,4095.0,1765.0,3088.0,2535.0,-0.36,9.83,5.48,-0.03,-0.09,-0.15,0.0,k
3007.0,2999.0,2977.0,4095.0,4095.0,1747.0,3093.0,2548.0,-0.15,9.8,4.69,-0.06,-0.0,-0.11,0.0,k
3000.0,2998.0,2971.0,4095.0,4095.0,1770.0,3091.0,2539.0,-0.12,9.8,5.44,-0.02,-0.02,-0.17,0.0,k
2999.0,3017.0,2977.0,4095.0,4095.0,1778.0,3095.0,2543.0,-0.15,9.9,4.88,0.06,-0.05,-0.15,0.0,k
2995.0,3004.0,2956.0,4095.0,4095.0,1776.0,3088.0,2537.0,-0.21,9.86,5.2,-0.04,-0.05,-0.17,0.0,k
3007.0,3007.0,2976.0,4095.0,4095.0,1774.0,3083.0,2543.0,-0.35,9.83,5.49,0.05,0.01,-0.17,0.0,k
2998.0,3006.0,2955.0,4095.0,4095.0,1746.0,3093.0,2551.0,-0.12,9.9,5.0,-0.02,-0.0,-0.19,0.0,k
3006.0,2999.0,2949.0,4095.0,4095.0,1769.0,3090.0,2548.0,-0.38,9.82,5.5,0.01,-0.04,-0.12,0.0,k
3018.0,3004.0,2960.0,4095.0,4095.0,1776.0,3103.0,2553.0,0.16,9.93,4.83,0.07,-0.02,-0.11,0.0,k
2996.0,3007.0,2967.0,4095.0,4095.0,1776.0,3088.0,2549.0,-0.23,9.73,5.44,0.11,-0.09,-0.26,0.0,k
3009.0,3008.0,2961.0,4095.0,4095.0,1793.0,3100.0,2554.0,-0.12,9.89,5.23,0.16,0.06,-0.21,0.0,k
2998.0,3001.0,2960.0,4095.0,4095.0,1773.0,3094.0,2544.0,-0.28,9.88,4.76,0.12,0.06,-0.16,0.0,k
3011.0,3009.0,2972.0,4095.0,4095.0,1779.0,3101.0,2553.0,-0.25,9.98,4.64,-0.11,-0.01,-0.05,0.0,k
3007.0,3005.0,2959.0,4095.0,4095.0,1779.0,3088.0,2545.0,-0.1,9.86,5.18,-0.05,-0.03,-0.15,0.0,k
3009.0,3007.0,2960.0,4095.0,4095.0,1791.0,3105.0,2551.0,0.06,9.83,4.95,0.05,0.02,-0.15,0.0,k
2999.0,3006.0,2969.0,4095.0,4095.0,1779.0,3093.0,2546.0,-0.17,9.8,5.49,-0.0,0.0,-0.17,0.0,k
3002.0,3008.0,2975.0,4095.0,4095.0,1793.0,3093.0,2546.0,-0.25,9.93,4.77,0.08,-0.01,-0.18,0.0,k
3002.0,2993.0,2973.0,4095.0,4095.0,1765.0,3103.0,2551.0,-0.15,9.87,5.25,-0.06,0.01,-0.17,0.0,k
3007.0,3006.0,2957.0,4095.0,4095.0,1790.0,3095.0,2549.0,-0.21,9.77,5.22,0.03,0.04,-0.11,0.0,k
3003.0,3003.0,2973.0,4095.0,4095.0,1792.0,3104.0,2555.0,0.12,9.85,5.11,-0.03,0.03,-0.15,0.0,k
2998.0,2999.0,2954.0,4095.0,4095.0,1783.0,3094.0,2547.0,-0.11,9.76,5.51,0.07,-0.02,-0.22,0.0,k
3006.0,2998.0,2971.0,4095.0,4095.0,1788.0,3101.0,2544.0,0.0,9.99,4.88,0.33,0.17,-0.2,0.0,k
3001.0,3003.0,2960.0,4095.0,4095.0,1760.0,3088.0,2512.0,-0.43,9.84,5.15,0.15,0.18,-0.03,0.0,k
3003.0,3011.0,2974.0,4095.0,4095.0,1781.0,3097.0,2515.0,0.28,9.94,4.47,0.08,0.15,-0.16,0.0,k
3009.0,3005.0,2961.0,4095.0,4095.0,1754.0,3093.0,2481.0,-0.2,9.73,5.53,0.29,-0.04,-0.44,0.0,k
3024.0,2995.0,2969.0,4095.0,4095.0,1750.0,3071.0,2519.0,-0.89,9.84,4.29,0.01,0.05,-0.12,0.0,k
3029.0,3006.0,2978.0,4095.0,4095.0,1753.0,3081.0,2527.0,-0.56,9.86,3.82,-0.0,0.02,-0.13,0.0,k
3015.0,2992.0,2964.0,4095.0,4095.0,1750.0,3082.0,2524.0,-0.79,10.0,4.32,0.05,-0.03,-0.14,0.0,k
3024.0,3014.0,2962.0,4095.0,4095.0,1746.0,3082.0,2535.0,-0.31,9.6,3.47,-0.04,-0.05,-0.04,0.0,k
3023.0,2999.0,2960.0,4095.0,4095.0,1744.0,3071.0,2530.0,-0.7,9.85,4.46,-0.03,-0.07,-0.15,0.0,k
3028.0,3001.0,2958.0,4095.0,4095.0,1750.0,3084.0,2531.0,-0.5,9.9,3.91,0.03,-0.03,-0.12,0.0,k
3023.0,3005.0,2963.0,4095.0,4095.0,1745.0,3071.0,2538.0,-0.94,9.62,4.52,-0.01,0.09,-0.09,0.0,k
3017.0,3009.0,2975.0,4095.0,4095.0,1745.0,3082.0,2539.0,-0.45,9.89,3.85,0.01,0.06,-0.12,0.0,k
3027.0,3004.0,2963.0,4095.0,4095.0,1746.0,3082.0,2544.0,-0.65,9.83,4.51,-0.03,0.08,-0.14,0.0,k
3028.0,2992.0,2957.0,4095.0,4095.0,1717.0,3066.0,2541.0,-0.5,9.86,4.03,0.05,0.04,-0.14,0.0,k
3038.0,3015.0,2960.0,4095.0,4095.0,1744.0,3086.0,2541.0,-0.68,9.89,4.4,-0.05,0.01,-0.11,0.0,k
3023.0,2998.0,2959.0,4095.0,4095.0,1747.0,3069.0,2543.0,-0.44,9.87,4.03,0.04,-0.02,-0.14,0.0,k
3037.0,3004.0,2965.0,4095.0,4095.0,1750.0,3083.0,2543.0,-0.65,9.9,4.5,0.0,-0.05,-0.17,0.0,k
3025.0,3003.0,2960.0,4095.0,4095.0,1751.0,3082.0,2544.0,-0.51,9.92,3.98,0.07,-0.01,-0.13,0.0,k
3024.0,2997.0,2963.0,4095.0,4095.0,1749.0,3083.0,2545.0,-0.61,9.87,4.51,-0.03,-0.02,-0.16,0.0,k
3020.0,3010.0,2957.0,4095.0,4095.0,1741.0,3071.0,2543.0,-0.49,9.89,4.09,0.05,0.05,-0.14,0.0,k
3024.0,3004.0,2972.0,4095.0,4095.0,1749.0,3087.0,2547.0,-0.63,9.88,4.45,-0.04,0.05,-0.16,0.0,k
3024.0,2995.0,2957.0,4095.0,4095.0,1750.0,3082.0,2545.0,-0.47,9.92,4.19,0.04,0.02,-0.13,0.0,k
3024.0,3014.0,2960.0,4095.0,4095.0,1753.0,3089.0,2548.0,-0.56,9.9,4.43,-0.05,-0.0,-0.16,0.0,k
3022.0,3002.0,2960.0,4095.0,4095.0,1754.0,3081.0,2545.0,-0.56,9.93,4.16,0.05,0.06,-0.14,0.0,k
3021.0,2997.0,2973.0,4095.0,4095.0,1744.0,3071.0,2545.0,-0.51,9.87,4.32,-0.04,0.03,-0.16,0.0,k
3031.0,3013.0,2969.0,4095.0,4095.0,1748.0,3083.0,2550.0,-0.68,9.86,4.48,0.03,-0.02,-0.13,0.0,k
3013.0,3007.0,2967.0,4095.0,4095.0,1747.0,3079.0,2547.0,-0.48,9.95,4.35,-0.05,-0.04,-0.14,0.0,k
3025.0,3014.0,2966.0,4095.0,4095.0,1750.0,3080.0,2558.0,-0.66,9.86,4.46,0.05,-0.05,-0.15,0.0,k
3022.0,2996.0,2960.0,4095.0,4095.0,1744.0,3061.0,2557.0,-0.43,9.92,4.34,-0.05,0.02,-0.16,0.0,k
3034.0,2998.0,2961.0,4095.0,4095.0,1744.0,3066.0,2550.0,-0.72,9.84,4.75,0.04,-0.02,-0.14,0.0,k
3033.0,3020.0,2980.0,4095.0,4095.0,1742.0,3082.0,2559.0,-0.29,9.91,4.22,-0.02,0.02,-0.17,0.0,k
3024.0,3019.0,2963.0,4095.0,4095.0,1740.0,3070.0,2555.0,-0.7,9.87,4.67,0.04,-0.01,-0.16,0.0,k
3027.0,3008.0,2973.0,4095.0,4095.0,1744.0,3082.0,2557.0,-0.45,9.88,4.35,-0.03,-0.03,-0.17,0.0,k
3023.0,3006.0,2958.0,4095.0,4095.0,1725.0,3071.0,2551.0,-0.7,9.82,4.73,0.04,0.02,-0.14,0.0,k
3020.0,2999.0,2970.0,4095.0,4095.0,1734.0,3082.0,2559.0,-0.35,9.83,4.34,0.0,0.02,-0.16,0.0,k
3031.0,2998.0,2967.0,4095.0,4095.0,1728.0,3070.0,2553.0,-0.59,9.85,4.74,0.04,-0.01,-0.13,0.0,k
3029.0,3017.0,2963.0,4095.0,4095.0,1680.0,3083.0,2559.0,-0.28,9.9,4.11,0.02,0.06,-0.15,0.0,k
3034.0,3002.0,2960.0,4095.0,4095.0,1732.0,3071.0,2554.0,-0.66,9.85,4.62,0.03,0.01,-0.16,0.0,k
3024.0,3002.0,2975.0,4095.0,4095.0,1728.0,3083.0,2558.0,-0.29,9.88,4.15,-0.02,-0.03,-0.16,0.0,k
3026.0,3006.0,2966.0,4095.0,4095.0,1731.0,3067.0,2557.0,-0.73,9.81,4.71,-0.02,-0.05,-0.14,0.0,k
3029.0,2999.0,2966.0,4095.0,4095.0,1731.0,3082.0,2559.0,-0.29,9.88,4.28,-0.02,0.02,-0.16,0.0,k
3021.0,2998.0,2967.0,4095.0,4095.0,1733.0,3083.0,2553.0,-0.69,9.82,4.63,0.05,-0.02,-0.15,0.0,k
3033.0,3001.0,2962.0,4095.0,4095.0,1723.0,3066.0,2554.0,-0.41,9.87,4.44,-0.04,-0.0,-0.16,0.0,k
3042.0,3010.0,2966.0,4095.0,4095.0,1734.0,3083.0,2559.0,-0.75,9.84,4.66,0.02,-0.03,-0.14,0.0,k
3045.0,3009.0,2960.0,4095.0,4095.0,1725.0,3071.0,2559.0,-0.48,10.35,4.26,-0.01,-0.01,-0.11,0.0,k
3044.0,2999.0,2959.0,4095.0,4095.0,1691.0,3060.0,2557.0,-0.35,9.84,4.79,0.01,0.01,-0.16,0.0,k
3033.0,2997.0,2961.0,4095.0,4095.0,1728.0,3063.0,2559.0,-0.38,9.86,4.63,0.03,-0.05,-0.15,0.0,k
3031.0,2999.0,2960.0,4095.0,4095.0,1717.0,3061.0,2559.0,-0.27,9.87,4.64,0.0,0.0,-0.17,0.0,k
3046.0,3010.0,2962.0,4095.0,4095.0,1727.0,3061.0,2559.0,-0.49,9.84,4.85,-0.0,0.01,-0.16,0.0,k
3042.0,3008.0,2957.0,4095.0,4095.0,1715.0,3056.0,2559.0,-0.29,9.88,4.64,0.05,-0.02,-0.16,0.0,k
3042.0,3007.0,2973.0,4095.0,4095.0,1713.0,3065.0,2559.0,-0.49,9.88,4.66,-0.0,-0.01,-0.16,0.0,k
3040.0,2996.0,2963.0,4095.0,4095.0,1726.0,3069.0,2559.0,-0.42,9.85,4.8,0.02,0.0,-0.15,0.0,k
3026.0,3004.0,2962.0,4095.0,4095.0,1729.0,3062.0,2559.0,-0.26,9.89,4.65,0.02,0.01,-0.16,0.0,k
3029.0,3011.0,2960.0,4095.0,4095.0,1716.0,3059.0,2559.0,-0.4,9.88,4.67,0.02,0.0,-0.16,0.0,k
3039.0,3014.0,2969.0,4095.0,4095.0,1703.0,3063.0,2559.0,-0.4,9.88,4.68,0.02,0.02,-0.15,0.0,k
3031.0,3006.0,2958.0,4095.0,4095.0,1715.0,3071.0,2559.0,-0.31,9.88,4.74,0.01,-0.01,-0.15,0.0,k
3045.0,3001.0,2963.0,4095.0,4095.0,1711.0,3057.0,2559.0,-0.29,9.86,4.66,0.01,0.01,-0.17,0.0,k
3025.0,3013.0,2960.0,4095.0,4095.0,1727.0,3063.0,2559.0,-0.53,9.92,4.55,0.01,-0.01,-0.16,0.0,k
3024.0,3003.0,2964.0,4095.0,4095.0,1718.0,3058.0,2559.0,-0.46,9.88,4.8,0.02,0.01,-0.11,0.0,k
3039.0,3011.0,2969.0,4095.0,4095.0,1724.0,3069.0,2559.0,-0.28,9.93,4.72,0.01,0.03,-0.15,0.0,k
3034.0,2997.0,2957.0,4095.0,4095.0,1714.0,3056.0,2559.0,-0.38,9.88,4.64,0.0,-0.04,-0.17,0.0,k
3047.0,3015.0,2960.0,4095.0,4095.0,1727.0,3071.0,2559.0,-0.49,9.87,4.73,0.01,-0.03,-0.12,0.0,k
3031.0,3009.0,2954.0,4095.0,4095.0,1682.0,3063.0,2559.0,-0.13,9.87,4.69,0.02,0.02,-0.14,0.0,k
3041.0,3001.0,2979.0,4095.0,4095.0,1714.0,3071.0,2559.0,-0.52,9.86,4.8,0.01,0.0,-0.18,0.0,k
3043.0,3015.0,2963.0,4095.0,4095.0,1725.0,3071.0,2583.0,-0.16,9.95,4.45,-0.03,0.11,-0.13,0.0,k
3031.0,2992.0,2958.0,4095.0,4095.0,1745.0,3063.0,2583.0,-0.52,9.86,5.03,0.03,-0.01,-0.14,0.0,k
3022.0,3009.0,2960.0,4095.0,4095.0,1744.0,3071.0,2583.0,-0.06,9.91,4.44,-0.01,0.05,-0.12,0.0,k
3023.0,2999.0,2975.0,4095.0,4095.0,1744.0,3071.0,2587.0,-0.28,9.85,4.97,0.02,-0.03,-0.16,0.0,k
3014.0,2992.0,2957.0,4095.0,4095.0,1749.0,3067.0,2585.0,-0.24,9.91,4.59,-0.01,0.0,-0.15,0.0,k
3024.0,3014.0,2980.0,4095.0,4095.0,1751.0,3083.0,2593.0,-0.24,9.82,5.18,0.04,-0.06,-0.14,0.0,k
3012.0,3002.0,2960.0,4095.0,4095.0,1742.0,3062.0,2582.0,-0.28,9.95,4.26,0.09,-0.02,-0.14,0.0,k
3024.0,3011.0,2969.0,4095.0,4095.0,1742.0,3066.0,2591.0,-0.23,9.85,4.86,-0.01,-0.03,-0.11,0.0,k
3004.0,2995.0,2957.0,4095.0,4095.0,1743.0,3070.0,2585.0,0.09,9.94,4.43,0.01,-0.01,-0.16,0.0,k
3017.0,2994.0,2963.0,4095.0,4095.0,1742.0,3071.0,2593.0,-0.19,9.84,5.05,0.03,0.0,-0.25,0.0,k
3025.0,3009.0,2973.0,4095.0,4095.0,1721.0,3061.0,2583.0,-0.41,9.98,4.17,0.0,0.01,-0.17,0.0,k
3024.0,3018.0,2957.0,4095.0,4095.0,1721.0,3071.0,2589.0,-0.27,9.87,4.98,-0.04,0.01,-0.12,0.0,k
3008.0,2994.0,2958.0,4095.0,4095.0,1719.0,3068.0,2587.0,-0.16,9.93,4.66,0.01,-0.0,-0.16,0.0,k
3021.0,3005.0,2963.0,4095.0,4095.0,1712.0,3067.0,2591.0,-0.53,9.89,5.05,0.03,-0.05,-0.17,0.0,k
3011.0,2999.0,2963.0,4095.0,4095.0,1712.0,3063.0,2586.0,-0.37,9.9,4.52,0.04,-0.01,-0.15,0.0,k
3014.0,3004.0,2967.0,4095.0,4095.0,1710.0,3063.0,2589.0,-0.38,9.84,5.1,-0.01,0.02,-0.13,0.0,k
3024.0,3008.0,2973.0,4095.0,4095.0,1712.0,3071.0,2594.0,-0.23,9.91,4.61,0.02,0.01,-0.14,0.0,k
3019.0,3007.0,2959.0,4095.0,4095.0,1707.0,3071.0,2586.0,-0.41,9.87,4.9,0.01,0.01,-0.14,0.0,k
3013.0,3006.0,2971.0,4095.0,4095.0,1714.0,3070.0,2598.0,-0.28,9.89,4.82,0.03,0.0,-0.14,0.0,k
3014.0,3003.0,2973.0,4095.0,4095.0,1711.0,3066.0,2587.0,-0.27,9.88,4.78,-0.0,-0.03,-0.14,0.0,k
