hall_1,hall_2,hall_3,flex_t,flex_i,flex_m,flex_r,flex_p,accel_x,accel_y,accel_z,gyro_x,gyro_y,gyro_z,hand,sign
2898.0,2910.0,3110.0,4095.0,4095.0,4095.0,3216.0,2487.0,-0.05,9.84,2.49,0.01,0.01,-0.17,0.0,k
2901.0,2902.0,3111.0,4095.0,4095.0,4095.0,3218.0,2493.0,-0.17,9.76,2.53,0.02,-0.02,-0.16,0.0,k
2906.0,2913.0,3106.0,4095.0,4095.0,4095.0,3216.0,2491.0,0.05,9.8,2.43,0.01,0.01,-0.15,0.0,k
2898.0,2907.0,3119.0,4095.0,4095.0,4095.0,3218.0,2495.0,0.02,9.76,2.53,0.03,-0.01,-0.15,0.0,k
2905.0,2905.0,3104.0,4095.0,4095.0,4095.0,3212.0,2487.0,-0.06,9.8,2.48,0.03,-0.0,-0.16,0.0,k
2898.0,2906.0,3101.0,4095.0,4095.0,4095.0,3214.0,2496.0,-0.05,9.74,2.43,0.05,-0.03,-0.17,0.0,k
2906.0,2909.0,3093.0,4095.0,4095.0,4095.0,3210.0,2497.0,-0.15,9.78,2.37,0.09,-0.08,-0.12,0.0,k
2889.0,2914.0,3089.0,4095.0,4095.0,4095.0,3203.0,2500.0,0.0,9.8,2.38,0.08,-0.03,-0.18,0.0,k
2908.0,2906.0,3109.0,4095.0,4095.0,4095.0,3214.0,2502.0,0.1,9.78,2.28,0.0,0.06,-0.17,0.0,k
2889.0,2907.0,3102.0,4095.0,4095.0,4095.0,3213.0,2507.0,0.02,9.79,2.31,0.03,0.01,-0.18,0.0,k
2891.0,2906.0,3098.0,4095.0,4095.0,4095.0,3220.0,2503.0,0.0,9.69,2.34,-0.01,0.03,-0.17,0.0,k
2896.0,2909.0,3092.0,4095.0,4095.0,4095.0,3211.0,2512.0,-0.06,9.82,2.46,0.02,-0.02,-0.17,0.0,k
2894.0,2908.0,3106.0,4095.0,4095.0,4095.0,3219.0,2510.0,-0.09,9.65,2.43,-0.04,0.0,-0.16,0.0,k
2895.0,2911.0,3107.0,4095.0,4095.0,4095.0,3218.0,2512.0,-0.13,9.89,2.41,0.03,-0.01,-0.17,0.0,k
2894.0,2896.0,3104.0,4095.0,4095.0,4095.0,3225.0,2510.0,0.0,9.78,2.32,-0.06,-0.01,-0.13,0.0,k
2880.0,2908.0,3104.0,4095.0,4095.0,4095.0,3223.0,2507.0,-0.07,9.7,2.48,-0.07,0.03,-0.13,0.0,k
2883.0,2909.0,3105.0,4095.0,4095.0,4095.0,3229.0,2511.0,-0.17,9.82,2.62,0.02,-0.02,-0.16,0.0,k
2886.0,2900.0,3107.0,4095.0,4095.0,4095.0,3234.0,2507.0,0.08,9.71,2.48,-0.0,-0.01,-0.15,0.0,k
2893.0,2906.0,3106.0,4095.0,4095.0,4095.0,3238.0,2514.0,-0.05,9.83,2.51,0.06,-0.03,-0.19,0.0,k
2881.0,2899.0,3115.0,4095.0,4095.0,4095.0,3236.0,2509.0,-0.09,9.69,2.49,-0.02,0.02,-0.14,0.0,k
2845.0,2911.0,3008.0,4095.0,4095.0,4095.0,3184.0,2807.0,-0.19,9.63,1.59,0.02,-0.02,-0.14,0.0,k
2847.0,2903.0,3007.0,4095.0,4095.0,4095.0,3184.0,2806.0,-0.16,9.67,1.56,0.0,-0.03,-0.14,0.0,k
2851.0,2903.0,3004.0,4095.0,4095.0,4095.0,3184.0,2817.0,0.04,9.6,1.77,0.04,-0.04,-0.16,0.0,k
2849.0,2909.0,3011.0,4095.0,4095.0,4095.0,3195.0,2815.0,0.16,9.64,1.66,0.02,-0.08,-0.18,0.0,k
2852.0,2923.0,3010.0,4095.0,4095.0,4095.0,3194.0,2813.0,-0.29,9.63,1.55,0.06,-0.04,-0.2,0.0,k
2838.0,2903.0,3008.0,4095.0,4095.0,4095.0,3184.0,2814.0,-0.47,9.69,1.47,0.04,-0.05,-0.16,0.0,k
2850.0,2913.0,3017.0,4095.0,4095.0,4095.0,3191.0,2821.0,-0.31,9.62,1.59,0.02,0.02,-0.13,0.0,k
2841.0,2921.0,3012.0,4095.0,4095.0,4095.0,3194.0,2816.0,-0.11,9.58,1.71,0.02,0.02,-0.15,0.0,k
2843.0,2907.0,3011.0,4095.0,4095.0,4095.0,3190.0,2814.0,-0.05,9.57,1.62,0.01,0.05,-0.17,0.0,k
2847.0,2909.0,3011.0,4095.0,4095.0,4095.0,3198.0,2813.0,-0.03,9.47,1.57,0.04,0.14,-0.21,0.0,k
2839.0,2908.0,3021.0,4095.0,4095.0,4095.0,3200.0,2814.0,-0.42,9.71,1.33,-0.05,0.0,-0.16,0.0,k
2839.0,2912.0,3014.0,4095.0,4095.0,4095.0,3191.0,2814.0,-0.24,9.5,1.74,-0.01,-0.04,-0.13,0.0,k
2854.0,2911.0,3009.0,4095.0,4095.0,4095.0,3193.0,2820.0,-0.15,9.69,1.65,0.02,-0.06,-0.13,0.0,k
2848.0,2910.0,3005.0,4095.0,4095.0,4095.0,3187.0,2815.0,0.01,9.54,1.68,0.04,-0.03,-0.13,0.0,k
2839.0,2910.0,2999.0,4095.0,4095.0,4095.0,3199.0,2818.0,0.03,9.63,1.37,0.02,-0.04,-0.14,0.0,k
2848.0,2912.0,2999.0,4095.0,4095.0,4095.0,3195.0,2819.0,-0.26,9.54,1.52,0.04,-0.08,-0.13,0.0,k
2841.0,2906.0,2995.0,4095.0,4095.0,4095.0,3191.0,2815.0,-0.13,9.66,1.73,0.12,-0.15,-0.19,0.0,k
2849.0,2911.0,2998.0,4095.0,4095.0,4095.0,3194.0,2818.0,-0.06,9.7,1.55,0.0,-0.06,-0.19,0.0,k
2854.0,2914.0,3004.0,4095.0,4095.0,4095.0,3184.0,2821.0,-0.09,9.58,1.63,-0.0,0.05,-0.17,0.0,k
2843.0,2915.0,3007.0,4095.0,4095.0,4095.0,3198.0,2821.0,-0.34,9.61,1.6,0.02,0.06,-0.16,0.0,k
2927.0,2904.0,2992.0,4095.0,4095.0,4095.0,3202.0,2869.0,0.11,9.67,1.67,0.02,-0.02,-0.16,0.0,k
2928.0,2909.0,2991.0,4095.0,4095.0,4095.0,3205.0,2878.0,0.08,9.66,1.82,0.03,0.01,-0.15,0.0,k
2928.0,2911.0,2987.0,4095.0,4095.0,4095.0,3213.0,2871.0,0.27,9.76,1.83,0.01,-0.03,-0.14,0.0,k
2923.0,2901.0,2983.0,4095.0,4095.0,4095.0,3203.0,2871.0,0.27,9.59,1.89,-0.04,-0.06,-0.2,0.0,k
2927.0,2899.0,2971.0,4095.0,4095.0,4095.0,3199.0,2877.0,0.15,9.7,2.04,0.01,-0.03,-0.2,0.0,k
2917.0,2903.0,2978.0,4095.0,4095.0,4095.0,3200.0,2880.0,0.15,9.62,2.03,0.02,0.0,-0.16,0.0,k
2929.0,2919.0,2979.0,4095.0,4095.0,4095.0,3211.0,2880.0,-0.06,9.71,1.97,0.01,0.03,-0.19,0.0,k
2928.0,2902.0,2973.0,4095.0,4095.0,4095.0,3206.0,2877.0,0.0,9.51,1.92,0.02,0.05,-0.18,0.0,k
2929.0,2906.0,2984.0,4095.0,4095.0,4095.0,3211.0,2886.0,0.07,9.87,1.98,0.07,0.02,-0.12,0.0,k
2933.0,2908.0,2977.0,4095.0,4095.0,4095.0,3215.0,2893.0,0.03,9.56,1.85,0.01,-0.01,-0.16,0.0,k
2928.0,2917.0,2975.0,4095.0,4095.0,4095.0,3215.0,2883.0,0.23,9.74,1.91,0.07,-0.01,-0.14,0.0,k
2928.0,2912.0,2983.0,4095.0,4095.0,4095.0,3207.0,2898.0,0.15,9.58,1.94,0.04,0.01,-0.16,0.0,k
2926.0,2903.0,2978.0,4095.0,4095.0,4095.0,3203.0,2883.0,0.07,9.79,1.69,0.04,0.02,-0.18,0.0,k
2921.0,2900.0,2977.0,4095.0,4095.0,4095.0,3204.0,2880.0,0.08,9.6,1.75,-0.0,0.0,-0.16,0.0,k
2918.0,2912.0,2967.0,4095.0,4095.0,4095.0,3207.0,2884.0,0.08,9.73,1.68,-0.0,0.0,-0.14,0.0,k
2931.0,2910.0,2977.0,4095.0,4095.0,4095.0,3200.0,2890.0,0.1,9.6,1.92,-0.02,-0.03,-0.16,0.0,k
2921.0,2907.0,2978.0,4095.0,4095.0,4095.0,3214.0,2879.0,0.09,9.69,2.03,-0.01,-0.04,-0.14,0.0,k
2928.0,2902.0,2972.0,4095.0,4095.0,4095.0,3201.0,2878.0,0.26,9.66,1.95,0.01,-0.01,-0.17,0.0,k
2927.0,2906.0,2986.0,4095.0,4095.0,4095.0,3214.0,2887.0,-0.07,9.62,2.0,0.01,0.01,-0.18,0.0,k
2923.0,2901.0,2977.0,4095.0,4095.0,4095.0,3201.0,2881.0,0.12,9.71,1.91,0.09,-0.01,-0.2,0.0,k
2877.0,2901.0,3063.0,4095.0,4095.0,4095.0,3152.0,2731.0,-0.1,9.81,1.5,0.06,-0.09,-0.11,0.0,k
2877.0,2903.0,3082.0,4095.0,4095.0,4095.0,3157.0,2736.0,-0.17,9.53,1.92,-0.07,-0.05,-0.1,0.0,k
2875.0,2907.0,3081.0,4095.0,4095.0,4095.0,3158.0,2740.0,0.14,9.69,1.74,0.12,-0.08,-0.12,0.0,k
2879.0,2903.0,3069.0,4095.0,4095.0,4095.0,3157.0,2739.0,-0.12,9.59,1.67,0.03,0.02,-0.15,0.0,k
2877.0,2907.0,3059.0,4095.0,4095.0,4095.0,3159.0,2736.0,0.01,9.75,1.51,0.08,0.01,-0.17,0.0,k
2885.0,2911.0,3071.0,4095.0,4095.0,4095.0,3168.0,2741.0,-0.13,9.59,1.55,-0.05,-0.03,-0.17,0.0,k
2881.0,2922.0,3071.0,4095.0,4095.0,4095.0,3172.0,2742.0,-0.08,9.74,1.58,-0.01,-0.01,-0.12,0.0,k
2889.0,2906.0,3069.0,4095.0,4095.0,4095.0,3169.0,2743.0,-0.15,9.5,1.75,-0.05,0.0,-0.15,0.0,k
2877.0,2896.0,3066.0,4095.0,4095.0,4095.0,3158.0,2738.0,-0.02,9.75,1.62,0.02,0.03,-0.14,0.0,k
2872.0,2898.0,3062.0,4095.0,4095.0,4095.0,3157.0,2742.0,-0.27,9.43,1.91,-0.06,-0.01,-0.12,0.0,k
2877.0,2905.0,3056.0,4095.0,4095.0,4095.0,3154.0,2743.0,-0.04,9.77,1.81,0.02,-0.11,-0.1,0.0,k
2878.0,2903.0,3062.0,4095.0,4095.0,4095.0,3166.0,2745.0,-0.27,9.51,1.84,-0.14,-0.13,-0.08,0.0,k
2884.0,2909.0,3059.0,4095.0,4095.0,4095.0,3163.0,2750.0,-0.21,9.78,1.8,-0.04,-0.24,-0.03,0.0,k
2880.0,2896.0,3056.0,4095.0,4095.0,4095.0,3159.0,2747.0,0.18,9.65,1.91,-0.09,-0.27,-0.1,0.0,k
2869.0,2913.0,3058.0,4095.0,4095.0,4095.0,3175.0,2757.0,0.25,9.69,2.01,-0.02,-0.1,-0.14,0.0,k
2881.0,2905.0,3061.0,4095.0,4095.0,4095.0,3171.0,2760.0,-0.01,9.67,2.03,-0.02,0.02,-0.13,0.0,k
2874.0,2916.0,3056.0,4095.0,4095.0,4095.0,3168.0,2757.0,0.03,9.7,1.93,0.02,0.02,-0.14,0.0,k
2875.0,2918.0,3055.0,4095.0,4095.0,4095.0,3169.0,2763.0,-0.44,9.38,1.92,-0.15,-0.14,-0.11,0.0,k
2875.0,2897.0,3034.0,4095.0,4095.0,4095.0,3144.0,2759.0,0.0,9.84,2.19,0.03,-0.09,-0.09,0.0,k
2871.0,2905.0,3044.0,4095.0,4095.0,4095.0,3152.0,2761.0,0.12,9.59,1.93,-0.15,-0.07,-0.13,0.0,k
2928.0,2903.0,2969.0,4095.0,4095.0,4095.0,3260.0,2965.0,1.12,9.81,3.97,0.08,0.16,-0.25,0.0,k
2928.0,2897.0,2960.0,4095.0,4095.0,4095.0,3249.0,2960.0,1.0,9.85,3.83,0.06,-0.01,-0.25,0.0,k
2918.0,2901.0,2963.0,4095.0,4095.0,4095.0,3252.0,2961.0,0.88,9.89,3.81,0.07,-0.05,-0.25,0.0,k
2929.0,2909.0,2958.0,4095.0,4095.0,4095.0,3264.0,2953.0,0.51,9.77,3.79,0.11,0.07,-0.24,0.0,k
2929.0,2900.0,2975.0,4095.0,4095.0,4095.0,3264.0,2949.0,0.14,10.24,3.65,0.13,0.16,-0.15,0.0,k
2928.0,2906.0,2969.0,4095.0,4095.0,4095.0,3281.0,2942.0,1.02,9.83,3.68,0.08,0.0,-0.07,0.0,k
2928.0,2896.0,2983.0,4095.0,4095.0,4095.0,3281.0,2937.0,1.29,10.04,3.47,0.07,0.01,-0.1,0.0,k
2918.0,2897.0,2981.0,4095.0,4095.0,4095.0,3281.0,2943.0,1.24,9.84,3.49,0.04,0.01,-0.12,0.0,k
2928.0,2906.0,2992.0,4095.0,4095.0,4095.0,3285.0,2949.0,1.31,9.87,3.43,-0.0,0.03,-0.16,0.0,k
2927.0,2902.0,2983.0,4095.0,4095.0,4095.0,3286.0,2950.0,0.94,9.9,3.7,-0.01,-0.03,-0.16,0.0,k
2927.0,2901.0,2981.0,4095.0,4095.0,4095.0,3285.0,2946.0,0.91,9.92,3.73,-0.02,-0.04,-0.17,0.0,k
2930.0,2912.0,2986.0,4095.0,4095.0,4095.0,3288.0,2967.0,0.83,9.97,3.75,-0.0,-0.07,-0.16,0.0,k
2928.0,2906.0,2983.0,4095.0,4095.0,4095.0,3289.0,2960.0,0.9,9.87,3.79,-0.03,-0.05,-0.12,0.0,k
2926.0,2899.0,2976.0,4095.0,4095.0,4095.0,3282.0,2958.0,1.14,9.83,3.77,0.05,0.0,-0.14,0.0,k
2941.0,2909.0,2979.0,4095.0,4095.0,4095.0,3291.0,2960.0,1.07,9.88,3.65,0.05,0.01,-0.16,0.0,k
2927.0,2901.0,2979.0,4095.0,4095.0,4095.0,3270.0,2957.0,1.12,9.95,3.45,0.03,-0.03,-0.18,0.0,k
2931.0,2911.0,2978.0,4095.0,4095.0,4095.0,3285.0,2958.0,0.82,9.86,3.52,0.04,-0.02,-0.19,0.0,k
2933.0,2911.0,2983.0,4095.0,4095.0,4095.0,3282.0,2960.0,0.9,9.9,3.61,-0.02,-0.05,-0.18,0.0,k
2927.0,2906.0,2977.0,4095.0,4095.0,4095.0,3284.0,2959.0,0.91,9.83,3.77,-0.01,-0.01,-0.14,0.0,k
2925.0,2902.0,2979.0,4095.0,4095.0,4095.0,3292.0,2963.0,1.0,9.88,3.73,0.0,-0.01,-0.16,0.0,k
2907.0,2898.0,3023.0,4085.0,4095.0,4095.0,2928.0,2482.0,0.34,9.94,3.99,-0.01,0.01,-0.12,0.0,k
2910.0,2905.0,3027.0,4095.0,4095.0,4095.0,2930.0,2492.0,0.51,10.13,3.96,0.05,0.02,-0.12,0.0,k
2908.0,2903.0,3045.0,4095.0,4095.0,4095.0,2927.0,2495.0,0.52,9.86,3.97,0.04,-0.03,-0.11,0.0,k
2915.0,2902.0,3030.0,4095.0,4095.0,4095.0,2939.0,2495.0,0.75,9.85,3.91,0.04,0.0,-0.12,0.0,k
2916.0,2907.0,3037.0,4095.0,4095.0,4095.0,2935.0,2497.0,0.63,9.87,4.15,0.01,-0.15,-0.11,0.0,k
2911.0,2905.0,3031.0,4095.0,4095.0,4095.0,2933.0,2499.0,0.7,9.94,4.2,0.01,-0.0,-0.09,0.0,k
2915.0,2913.0,3040.0,4095.0,4095.0,4095.0,2944.0,2496.0,0.88,9.81,4.27,0.09,-0.04,-0.11,0.0,k
2915.0,2899.0,3037.0,4095.0,4095.0,4095.0,2937.0,2487.0,0.92,9.88,4.19,0.13,0.02,-0.15,0.0,k
2919.0,2903.0,3037.0,4095.0,4095.0,4095.0,2940.0,2490.0,0.79,9.82,3.92,0.21,-0.07,-0.18,0.0,k
2911.0,2901.0,3031.0,4085.0,4095.0,4095.0,2930.0,2494.0,0.5,9.8,3.6,0.06,0.07,-0.2,0.0,k
2919.0,2907.0,3034.0,4095.0,4095.0,4095.0,2934.0,2497.0,0.65,9.96,3.64,0.12,0.08,-0.17,0.0,k
2906.0,2907.0,3041.0,4095.0,4095.0,4095.0,2941.0,2502.0,0.65,9.76,3.72,-0.0,0.09,-0.14,0.0,k
2924.0,2909.0,3047.0,4095.0,4095.0,4095.0,2944.0,2498.0,1.13,10.09,3.58,0.04,-0.06,-0.15,0.0,k
2911.0,2913.0,3034.0,4095.0,4095.0,4095.0,2933.0,2503.0,0.67,9.69,3.81,-0.13,0.06,-0.05,0.0,k
2916.0,2909.0,3041.0,4095.0,4095.0,4095.0,2933.0,2511.0,0.62,10.03,3.79,0.11,0.09,-0.16,0.0,k
2917.0,2907.0,3035.0,4095.0,4095.0,4095.0,2937.0,2508.0,0.55,9.79,3.75,0.03,0.02,-0.13,0.0,k
2910.0,2910.0,3040.0,4095.0,4095.0,4095.0,2939.0,2507.0,0.77,10.01,3.8,0.12,-0.03,-0.13,0.0,k
2928.0,2915.0,3041.0,4095.0,4095.0,4095.0,2934.0,2499.0,0.72,9.81,3.75,0.12,0.01,-0.11,0.0,k
2907.0,2899.0,3041.0,4095.0,4095.0,4095.0,2928.0,2493.0,0.96,10.02,3.61,0.09,-0.03,-0.11,0.0,k
2917.0,2917.0,3031.0,4095.0,4095.0,4095.0,2930.0,2496.0,0.9,9.76,3.66,0.02,-0.01,-0.13,0.0,k
2896.0,2914.0,896.0,4095.0,4095.0,4095.0,3135.0,2559.0,0.54,9.98,3.57,0.04,-0.01,-0.17,0.0,k
2896.0,2911.0,887.0,4095.0,4095.0,4095.0,3136.0,2559.0,0.4,9.84,3.56,0.05,0.01,-0.18,0.0,k
2897.0,2917.0,890.0,4095.0,4095.0,4095.0,3136.0,2559.0,0.3,9.98,3.43,0.04,-0.01,-0.17,0.0,k
2896.0,2927.0,892.0,4095.0,4095.0,4095.0,3134.0,2559.0,0.32,9.86,3.32,0.02,-0.03,-0.14,0.0,k
2905.0,2915.0,889.0,4095.0,4095.0,4095.0,3137.0,2559.0,0.51,9.9,3.38,0.01,-0.01,-0.14,0.0,k
2896.0,2922.0,892.0,4095.0,4095.0,4095.0,3133.0,2559.0,0.47,9.87,3.49,0.01,-0.01,-0.15,0.0,k
2896.0,2911.0,893.0,4095.0,4095.0,4095.0,3129.0,2559.0,0.46,9.9,3.51,0.01,-0.01,-0.16,0.0,k
2909.0,2921.0,887.0,4095.0,4095.0,4095.0,3125.0,2559.0,0.45,9.88,3.58,0.04,0.21,-0.09,0.0,k
2899.0,2915.0,893.0,4095.0,4095.0,4095.0,3131.0,2554.0,0.42,9.86,3.55,-0.04,0.11,-0.18,0.0,k
2900.0,2913.0,892.0,4095.0,4095.0,4095.0,3119.0,2544.0,0.36,9.74,3.67,-0.04,0.02,-0.3,0.0,k
2896.0,2923.0,899.0,4095.0,4095.0,4095.0,3110.0,2544.0,0.34,9.97,3.62,0.04,-0.08,-0.22,0.0,k
2896.0,2919.0,901.0,4095.0,4095.0,4095.0,3107.0,2539.0,0.27,9.79,3.55,0.04,0.03,-0.19,0.0,k
2898.0,2917.0,1232.0,4095.0,4095.0,4095.0,3101.0,2525.0,0.28,9.94,3.58,0.05,0.02,-0.22,0.0,k
2896.0,2930.0,1680.0,4095.0,4095.0,4095.0,3107.0,2532.0,0.26,9.99,3.47,0.02,-0.02,-0.17,0.0,k
2897.0,2934.0,1950.0,4095.0,4095.0,4095.0,3104.0,2539.0,0.27,9.94,3.58,0.05,-0.01,-0.19,0.0,k
2896.0,2947.0,2335.0,4095.0,4095.0,4095.0,3102.0,2559.0,0.06,9.98,3.52,-0.0,0.07,-0.16,0.0,k
2891.0,2949.0,2675.0,4095.0,4095.0,4095.0,3099.0,2585.0,0.26,9.99,3.4,-0.04,-0.0,-0.15,0.0,k
2886.0,2944.0,2841.0,4095.0,4095.0,4095.0,3066.0,2608.0,0.45,9.83,3.52,-0.0,-0.12,-0.14,0.0,k
2882.0,2949.0,2891.0,4095.0,4095.0,3952.0,3042.0,2637.0,0.28,9.89,3.5,-0.02,0.08,-0.15,0.0,k
2878.0,2935.0,2918.0,4095.0,4095.0,3599.0,2991.0,2587.0,0.16,9.99,3.57,0.03,0.11,-0.16,0.0,k
2927.0,2925.0,981.0,4095.0,4095.0,4095.0,3109.0,2538.0,0.42,9.93,3.57,-0.06,-0.03,-0.16,0.0,k
2927.0,2925.0,981.0,4095.0,4095.0,4095.0,3109.0,2538.0,0.42,9.93,3.57,-0.06,-0.03,-0.16,0.0,k
2915.0,2914.0,980.0,4095.0,4095.0,4095.0,3101.0,2527.0,0.42,9.81,3.73,-0.01,-0.08,-0.21,0.0,k
2916.0,2907.0,977.0,4095.0,4095.0,4095.0,3101.0,2524.0,0.2,9.87,3.71,-0.03,-0.04,-0.22,0.0,k
2915.0,2903.0,976.0,4095.0,4095.0,4095.0,3099.0,2526.0,-0.22,9.88,3.69,0.06,-0.01,-0.19,0.0,k
2912.0,2910.0,980.0,4095.0,4095.0,4095.0,3106.0,2530.0,-0.15,10.01,3.6,-0.0,0.04,-0.11,0.0,k
2907.0,2914.0,986.0,4095.0,4095.0,4095.0,3109.0,2535.0,0.35,9.94,3.5,0.02,-0.01,-0.09,0.0,k
2910.0,2915.0,974.0,4095.0,4095.0,4095.0,3105.0,2533.0,0.48,9.94,3.54,0.03,-0.02,-0.12,0.0,k
2900.0,2915.0,981.0,4095.0,4095.0,4095.0,3114.0,2541.0,0.34,9.92,3.42,0.02,0.04,-0.16,0.0,k
2911.0,2910.0,982.0,4095.0,4095.0,4095.0,3107.0,2531.0,0.2,9.91,3.47,0.04,0.02,-0.17,0.0,k
2913.0,2919.0,981.0,4095.0,4095.0,4095.0,3120.0,2541.0,0.2,9.93,3.45,0.01,0.05,-0.18,0.0,k
2910.0,2906.0,979.0,4095.0,4095.0,4095.0,3114.0,2535.0,0.03,9.83,3.52,-0.04,0.05,-0.16,0.0,k
2909.0,2914.0,990.0,4095.0,4095.0,4095.0,3119.0,2534.0,0.14,10.03,3.6,-0.02,0.04,-0.14,0.0,k
2905.0,2914.0,989.0,4095.0,4095.0,4095.0,3120.0,2534.0,0.35,9.8,3.71,0.01,0.09,-0.15,0.0,k
2915.0,2911.0,983.0,4095.0,4095.0,4095.0,3121.0,2535.0,0.18,10.08,3.61,0.01,0.07,-0.16,0.0,k
2910.0,2901.0,986.0,4095.0,4095.0,4095.0,3117.0,2533.0,0.26,9.88,3.55,0.06,-0.02,-0.14,0.0,k
2913.0,2915.0,991.0,4095.0,4095.0,4095.0,3119.0,2527.0,0.2,9.89,3.39,0.01,0.02,-0.14,0.0,k
2911.0,2922.0,988.0,4095.0,4095.0,4095.0,3115.0,2539.0,0.17,9.85,3.41,-0.01,0.01,-0.17,0.0,k
2913.0,2907.0,993.0,4095.0,4095.0,4095.0,3120.0,2538.0,0.06,10.05,3.7,-0.03,0.01,-0.14,0.0,k
2916.0,2910.0,985.0,4095.0,4095.0,4095.0,3121.0,2535.0,0.25,9.78,3.49,0.07,-0.0,-0.15,0.0,k
2924.0,2906.0,981.0,4095.0,4095.0,4095.0,3040.0,2589.0,0.63,9.64,3.71,-0.03,-0.39,-0.21,0.0,k
2928.0,2917.0,981.0,4095.0,4095.0,4095.0,3045.0,2559.0,0.7,9.8,3.79,0.14,-0.64,-0.58,0.0,k
2931.0,2907.0,979.0,4095.0,4095.0,4095.0,3041.0,2559.0,0.7,9.87,3.93,-0.02,-0.5,-0.24,0.0,k
2928.0,2913.0,982.0,4095.0,4095.0,4095.0,3049.0,2559.0,0.47,10.29,3.75,0.03,0.09,-0.19,0.0,k
2928.0,2914.0,987.0,4095.0,4095.0,4095.0,3054.0,2586.0,0.14,9.58,4.15,-0.0,0.19,-0.11,0.0,k
2928.0,2903.0,976.0,4095.0,4095.0,4095.0,3051.0,2585.0,0.52,10.3,3.51,0.03,0.24,-0.11,0.0,k
2928.0,2903.0,983.0,4095.0,4095.0,4095.0,3055.0,2587.0,0.09,9.62,3.56,0.07,0.1,-0.15,0.0,k
2941.0,2915.0,979.0,4095.0,4095.0,4095.0,3056.0,2593.0,0.57,10.12,3.19,-0.02,0.07,-0.13,0.0,k
2928.0,2913.0,975.0,4095.0,4095.0,4095.0,3047.0,2591.0,0.17,9.86,3.65,0.04,0.2,-0.15,0.0,k
2928.0,2918.0,980.0,4095.0,4095.0,4095.0,3050.0,2594.0,0.52,9.97,3.66,-0.03,-0.0,-0.17,0.0,k
2928.0,2903.0,976.0,4095.0,4095.0,4095.0,3053.0,2598.0,0.2,9.87,3.66,0.09,0.08,-0.18,0.0,k
2931.0,2919.0,979.0,4095.0,4095.0,4095.0,3056.0,2598.0,0.34,9.79,3.38,-0.03,-0.0,-0.19,0.0,k
2925.0,2901.0,976.0,4095.0,4095.0,4095.0,3049.0,2597.0,-0.03,9.95,3.47,0.03,-0.02,-0.19,0.0,k
2925.0,2908.0,977.0,4095.0,4095.0,4095.0,3055.0,2595.0,0.15,9.88,3.57,-0.06,0.02,-0.16,0.0,k
2924.0,2910.0,976.0,4095.0,4095.0,4095.0,3053.0,2595.0,0.01,9.88,3.9,-0.01,-0.06,-0.13,0.0,k
2928.0,2915.0,979.0,4095.0,4095.0,4095.0,3051.0,2593.0,0.19,9.85,3.81,0.0,-0.04,-0.17,0.0,k
2929.0,2905.0,975.0,4095.0,4095.0,4095.0,3059.0,2603.0,0.16,10.06,3.62,0.06,-0.04,-0.16,0.0,k
2929.0,2918.0,981.0,4095.0,4095.0,4095.0,3057.0,2603.0,0.22,9.67,3.73,-0.04,0.1,-0.12,0.0,k
2927.0,2911.0,982.0,4095.0,4095.0,4095.0,3054.0,2592.0,0.32,10.11,3.66,0.03,0.01,-0.11,0.0,k
2922.0,2905.0,976.0,4095.0,4095.0,4095.0,3055.0,2602.0,0.24,9.68,3.66,0.01,0.02,-0.14,0.0,k
2887.0,2907.0,2880.0,4095.0,4095.0,4095.0,3111.0,2800.0,0.0,9.75,3.23,0.11,-0.0,-0.16,0.0,k
2881.0,2903.0,2882.0,4095.0,4095.0,4095.0,3113.0,2802.0,0.06,9.91,2.98,0.09,0.06,-0.14,0.0,k
2881.0,2909.0,2869.0,4095.0,4095.0,4095.0,3108.0,2801.0,0.15,9.82,2.99,0.05,0.01,-0.12,0.0,k
2879.0,2910.0,2880.0,4095.0,4095.0,4095.0,3111.0,2805.0,0.28,10.0,2.98,0.04,-0.01,-0.13,0.0,k
2871.0,2910.0,2873.0,4095.0,4095.0,4095.0,3110.0,2798.0,0.43,9.84,2.98,0.04,0.01,-0.14,0.0,k
2878.0,2898.0,2879.0,4095.0,4095.0,4095.0,3108.0,2800.0,0.27,9.91,3.02,0.0,-0.0,-0.15,0.0,k
2886.0,2911.0,2882.0,4095.0,4095.0,4095.0,3113.0,2804.0,0.28,9.87,3.16,0.01,-0.03,-0.15,0.0,k
2874.0,2903.0,2875.0,4095.0,4095.0,4095.0,3110.0,2799.0,0.29,9.89,3.06,0.01,-0.03,-0.16,0.0,k
2882.0,2897.0,2885.0,4095.0,4095.0,4095.0,3112.0,2800.0,0.22,9.83,3.21,0.02,-0.04,-0.17,0.0,k
2881.0,2910.0,2868.0,4095.0,4095.0,4095.0,3109.0,2801.0,0.22,9.88,3.12,0.01,-0.02,-0.15,0.0,k
2878.0,2906.0,2880.0,4095.0,4095.0,4095.0,3113.0,2803.0,0.09,9.81,3.22,0.02,-0.04,-0.17,0.0,k
2881.0,2914.0,2881.0,4095.0,4095.0,4095.0,3115.0,2804.0,0.21,9.96,3.03,-0.01,-0.05,-0.14,0.0,k
2881.0,2912.0,2885.0,4095.0,4095.0,4095.0,3105.0,2799.0,0.27,9.84,3.19,0.01,0.01,-0.15,0.0,k
2875.0,2906.0,2878.0,4095.0,4095.0,4095.0,3109.0,2800.0,0.32,9.86,3.11,-0.03,0.02,-0.13,0.0,k
2880.0,2918.0,2879.0,4095.0,4095.0,4095.0,3119.0,2800.0,0.18,9.86,3.11,0.01,0.03,-0.15,0.0,k
2881.0,2905.0,2880.0,4095.0,4095.0,4095.0,3120.0,2807.0,0.14,9.9,3.08,-0.08,0.01,-0.15,0.0,k
2882.0,2911.0,2882.0,4095.0,4095.0,4095.0,3121.0,2807.0,0.23,9.88,3.16,-0.04,0.03,-0.12,0.0,k
2884.0,2917.0,2883.0,4095.0,4095.0,4095.0,3126.0,2809.0,0.16,9.89,3.26,-0.04,-0.01,-0.15,0.0,k
2893.0,2913.0,2877.0,4095.0,4095.0,4095.0,3120.0,2805.0,0.31,9.9,3.31,-0.01,-0.02,-0.13,0.0,k
2891.0,2909.0,2880.0,4095.0,4095.0,4095.0,3126.0,2806.0,0.3,9.83,3.42,-0.0,-0.05,-0.13,0.0,k
2929.0,2910.0,2879.0,4095.0,4095.0,4095.0,3065.0,2895.0,0.67,9.98,4.56,0.01,-0.05,-0.12,0.0,k
2931.0,2909.0,2882.0,4095.0,4095.0,4095.0,3059.0,2891.0,0.68,9.86,4.53,0.01,-0.02,-0.12,0.0,k
2933.0,2917.0,2878.0,4095.0,4095.0,4095.0,3069.0,2896.0,0.49,9.94,4.61,0.04,0.04,-0.15,0.0,k
2931.0,2912.0,2878.0,4095.0,4095.0,4095.0,3063.0,2889.0,0.56,9.81,4.44,0.03,0.02,-0.18,0.0,k
2923.0,2898.0,2877.0,4095.0,4095.0,4095.0,3066.0,2891.0,0.51,9.96,4.45,0.01,0.01,-0.15,0.0,k
2935.0,2909.0,2880.0,4095.0,4095.0,4095.0,3069.0,2890.0,0.46,9.77,4.5,-0.01,-0.01,-0.16,0.0,k
2923.0,2905.0,2878.0,4095.0,4095.0,4095.0,3071.0,2883.0,0.44,10.04,4.63,-0.0,-0.02,-0.17,0.0,k
2930.0,2912.0,2880.0,4095.0,4095.0,4095.0,3071.0,2893.0,0.41,9.79,4.65,0.01,-0.0,-0.14,0.0,k
2928.0,2914.0,2879.0,4095.0,4095.0,4095.0,3067.0,2890.0,0.54,10.03,4.53,0.01,0.01,-0.15,0.0,k
2930.0,2917.0,2895.0,4095.0,4095.0,4095.0,3071.0,2892.0,0.38,9.85,4.68,0.03,0.01,-0.14,0.0,k
2928.0,2910.0,2883.0,4095.0,4095.0,4095.0,3059.0,2884.0,0.59,9.95,4.56,0.01,-0.01,-0.14,0.0,k
2935.0,2913.0,2882.0,4095.0,4095.0,4095.0,3066.0,2892.0,0.33,9.91,4.6,0.06,0.03,-0.14,0.0,k
2928.0,2901.0,2880.0,4095.0,4095.0,4095.0,3068.0,2883.0,0.6,9.92,4.44,0.03,0.01,-0.15,0.0,k
2927.0,2913.0,2881.0,4095.0,4095.0,4095.0,3070.0,2883.0,0.4,9.89,4.58,0.05,-0.0,-0.16,0.0,k
2929.0,2913.0,2885.0,4095.0,4095.0,4095.0,3085.0,2888.0,0.48,9.87,4.52,-0.0,0.04,-0.14,0.0,k
2928.0,2901.0,2885.0,4095.0,4095.0,4095.0,3071.0,2883.0,0.5,9.93,4.55,0.03,-0.05,-0.15,0.0,k
2933.0,2906.0,2883.0,4095.0,4095.0,4095.0,3065.0,2886.0,0.5,9.82,4.58,0.02,0.04,-0.14,0.0,k
2931.0,2913.0,2885.0,4095.0,4095.0,4095.0,3087.0,2891.0,0.45,9.95,4.51,0.04,-0.06,-0.15,0.0,k
2928.0,2911.0,2883.0,4095.0,4095.0,4095.0,3066.0,2891.0,0.47,9.84,4.43,0.01,0.06,-0.13,0.0,k
2950.0,2911.0,2882.0,4095.0,4095.0,4095.0,3084.0,2893.0,0.43,10.01,4.47,0.04,-0.01,-0.13,0.0,k
2915.0,2908.0,2878.0,3699.0,4095.0,4095.0,3088.0,2928.0,0.46,9.9,4.69,0.04,0.03,-0.13,0.0,k
2915.0,2908.0,2878.0,3699.0,4095.0,4095.0,3088.0,2928.0,0.46,9.9,4.69,0.04,0.03,-0.13,0.0,k
2918.0,2906.0,2882.0,3697.0,4095.0,4095.0,3088.0,2948.0,0.59,9.91,4.43,0.02,-0.06,-0.12,0.0,k
2919.0,2918.0,2869.0,3696.0,4095.0,4095.0,3084.0,2955.0,0.5,9.85,4.62,0.01,0.06,-0.13,0.0,k
2917.0,2913.0,2879.0,3701.0,4095.0,4095.0,3086.0,2969.0,0.62,9.95,4.61,0.01,-0.02,-0.15,0.0,k
2923.0,2905.0,2884.0,3702.0,4095.0,4095.0,3087.0,2975.0,0.63,9.86,4.67,-0.02,0.0,-0.17,0.0,k
2918.0,2918.0,2891.0,3711.0,4095.0,4095.0,3088.0,2970.0,0.64,9.94,4.86,-0.06,-0.03,-0.15,0.0,k
2918.0,2917.0,2887.0,3707.0,4095.0,4095.0,3088.0,2976.0,0.71,9.82,5.07,0.01,0.03,-0.14,0.0,k
2925.0,2918.0,2881.0,3717.0,4095.0,4095.0,3090.0,2976.0,0.82,9.82,4.96,-0.01,0.04,-0.17,0.0,k
2917.0,2902.0,2880.0,3712.0,4095.0,4095.0,3086.0,2976.0,0.63,9.85,4.94,0.06,0.04,-0.19,0.0,k
2919.0,2907.0,2885.0,3701.0,4095.0,4095.0,3071.0,2967.0,0.49,9.9,4.66,0.02,0.06,-0.17,0.0,k
2917.0,2901.0,2882.0,3703.0,4095.0,4095.0,3088.0,2972.0,0.38,9.82,4.65,0.05,0.08,-0.17,0.0,k
2922.0,2911.0,2878.0,3707.0,4095.0,4095.0,3086.0,2977.0,0.2,9.96,4.5,-0.04,0.03,-0.1,0.0,k
2915.0,2914.0,2882.0,3705.0,4095.0,4095.0,3082.0,2975.0,0.46,9.78,4.74,-0.01,0.1,-0.09,0.0,k
2927.0,2915.0,2883.0,3731.0,4095.0,4095.0,3090.0,2986.0,0.44,9.85,4.77,-0.05,0.02,-0.11,0.0,k
2924.0,2924.0,2887.0,3725.0,4095.0,4095.0,3088.0,2985.0,0.54,9.96,4.84,-0.01,0.12,-0.11,0.0,k
2920.0,2913.0,2884.0,3723.0,4095.0,4095.0,3089.0,2983.0,0.74,9.78,4.89,-0.01,0.02,-0.15,0.0,k
2916.0,2906.0,2875.0,3706.0,4095.0,4095.0,3084.0,2976.0,0.52,9.89,4.89,0.04,0.01,-0.17,0.0,k
2922.0,2927.0,2885.0,3719.0,4095.0,4095.0,3089.0,2982.0,0.49,9.87,4.78,0.04,0.03,-0.17,0.0,k
2919.0,2916.0,2883.0,3696.0,4095.0,4095.0,3088.0,2981.0,0.46,9.98,4.57,0.05,0.04,-0.16,0.0,k
2926.0,2923.0,909.0,3889.0,4095.0,4095.0,2917.0,2589.0,0.88,9.8,5.43,0.04,0.06,-0.15,0.0,k
2928.0,2914.0,901.0,3890.0,4095.0,4095.0,2913.0,2587.0,0.86,9.92,4.97,0.07,-0.03,-0.19,0.0,k
2928.0,2916.0,897.0,3899.0,4095.0,4095.0,2922.0,2595.0,0.63,9.76,5.0,0.03,0.01,-0.18,0.0,k
2919.0,2915.0,895.0,3888.0,4095.0,4095.0,2913.0,2593.0,0.78,9.88,5.04,-0.01,-0.01,-0.15,0.0,k
2926.0,2915.0,896.0,3895.0,4095.0,4095.0,2912.0,2594.0,0.67,9.82,5.11,0.01,-0.01,-0.16,0.0,k
2916.0,2912.0,896.0,3889.0,4095.0,4095.0,2911.0,2593.0,0.71,9.9,5.05,-0.02,0.01,-0.14,0.0,k
2922.0,2912.0,909.0,3891.0,4095.0,4095.0,2924.0,2605.0,0.92,9.79,5.27,-0.03,-0.05,-0.12,0.0,k
2917.0,2915.0,905.0,3905.0,4095.0,4095.0,2919.0,2591.0,0.89,9.81,5.44,-0.04,0.03,-0.14,0.0,k
2929.0,2909.0,905.0,3892.0,4095.0,4095.0,2916.0,2594.0,0.85,9.75,5.48,0.01,-0.01,-0.15,0.0,k
2928.0,2922.0,903.0,3888.0,4095.0,4095.0,2923.0,2594.0,0.69,9.91,5.21,0.03,0.03,-0.16,0.0,k
2917.0,2917.0,903.0,3887.0,4095.0,4095.0,2918.0,2598.0,0.74,9.78,4.96,0.01,-0.03,-0.12,0.0,k
2921.0,2911.0,909.0,3901.0,4095.0,4095.0,2922.0,2603.0,0.86,9.79,5.24,0.02,0.1,-0.17,0.0,k
2928.0,2925.0,902.0,3919.0,4095.0,4095.0,2923.0,2613.0,0.82,9.77,5.44,0.04,-0.01,-0.18,0.0,k
2928.0,2919.0,898.0,3916.0,4095.0,4095.0,2925.0,2629.0,0.81,9.7,5.47,0.08,-0.06,-0.31,0.0,k
2924.0,2919.0,895.0,3917.0,4095.0,4095.0,2927.0,2630.0,0.41,9.99,5.25,0.11,-0.11,-0.22,0.0,k
2926.0,2913.0,889.0,3902.0,4095.0,4095.0,2921.0,2635.0,0.74,9.91,5.1,0.12,-0.01,-0.15,0.0,k
2922.0,2913.0,891.0,3937.0,4095.0,4095.0,2927.0,2631.0,0.67,9.8,4.92,0.02,0.13,-0.08,0.0,k
2927.0,2912.0,889.0,3911.0,4095.0,4095.0,2925.0,2640.0,0.73,9.98,5.0,0.06,-0.01,-0.13,0.0,k
2928.0,2918.0,884.0,3918.0,4095.0,4095.0,2928.0,2640.0,0.68,9.84,4.88,0.02,0.04,-0.12,0.0,k
2919.0,2913.0,887.0,3911.0,4095.0,4095.0,2928.0,2640.0,0.69,9.91,4.92,0.02,0.03,-0.14,0.0,k
2928.0,2915.0,874.0,4095.0,4095.0,4095.0,3019.0,2646.0,1.18,9.77,4.94,-0.0,0.03,-0.14,0.0,k
2930.0,2913.0,875.0,4095.0,4095.0,4095.0,3015.0,2643.0,0.88,9.89,5.19,0.04,-0.05,-0.19,0.0,k
2929.0,2916.0,875.0,4095.0,4095.0,4095.0,3018.0,2644.0,0.84,9.77,5.03,0.0,-0.06,-0.18,0.0,k
2930.0,2910.0,879.0,4095.0,4095.0,4095.0,3017.0,2645.0,0.72,9.84,5.09,0.01,-0.06,-0.18,0.0,k
2929.0,2915.0,873.0,4095.0,4095.0,4095.0,3015.0,2647.0,0.64,9.87,5.28,0.02,0.02,-0.14,0.0,k
2928.0,2911.0,882.0,4095.0,4095.0,4095.0,3015.0,2654.0,0.83,9.79,5.21,0.06,-0.0,-0.16,0.0,k
2928.0,2915.0,880.0,4095.0,4095.0,4095.0,3022.0,2651.0,0.96,9.92,4.97,0.02,-0.02,-0.15,0.0,k
2933.0,2913.0,879.0,4095.0,4095.0,4095.0,3024.0,2653.0,0.85,9.78,5.09,0.05,-0.01,-0.17,0.0,k
2929.0,2907.0,879.0,4095.0,4095.0,4095.0,3016.0,2651.0,0.73,9.96,5.01,0.02,0.03,-0.15,0.0,k
2928.0,2919.0,877.0,4095.0,4095.0,4095.0,3024.0,2655.0,0.74,9.82,5.0,0.06,-0.06,-0.18,0.0,k
2928.0,2917.0,880.0,4095.0,4095.0,4095.0,3021.0,2656.0,0.59,9.96,4.86,0.0,-0.01,-0.13,0.0,k
2930.0,2911.0,880.0,4095.0,4095.0,4095.0,3019.0,2647.0,0.84,9.82,5.02,-0.01,-0.03,-0.14,0.0,k
2934.0,2915.0,882.0,4095.0,4095.0,4095.0,3023.0,2655.0,0.86,9.91,5.15,-0.01,-0.05,-0.11,0.0,k
2930.0,2909.0,879.0,4095.0,4095.0,4095.0,3014.0,2655.0,1.01,9.75,5.17,-0.01,-0.0,-0.15,0.0,k
2927.0,2907.0,880.0,4095.0,4095.0,4095.0,3015.0,2656.0,0.92,9.89,5.21,0.02,0.03,-0.16,0.0,k
2928.0,2909.0,871.0,4095.0,4095.0,4095.0,3022.0,2654.0,1.0,9.79,5.13,0.02,-0.03,-0.17,0.0,k
2930.0,2918.0,880.0,4095.0,4095.0,4095.0,3030.0,2656.0,0.81,9.92,5.1,0.07,-0.01,-0.22,0.0,k
2927.0,2914.0,880.0,4095.0,4095.0,4095.0,3021.0,2655.0,0.62,9.8,4.98,0.03,0.01,-0.16,0.0,k
2928.0,2908.0,877.0,4095.0,4095.0,4095.0,3019.0,2659.0,0.68,9.9,4.91,0.07,-0.03,-0.19,0.0,k
2935.0,2917.0,880.0,4095.0,4095.0,4095.0,3024.0,2657.0,0.62,9.81,4.94,-0.01,-0.03,-0.16,0.0,k
2928.0,2917.0,883.0,3103.0,4095.0,4095.0,3118.0,2704.0,1.29,9.89,4.55,0.13,-0.01,-0.16,0.0,k
2931.0,2915.0,885.0,3153.0,4095.0,4095.0,3120.0,2713.0,0.96,9.85,4.38,0.05,-0.03,-0.23,0.0,k
2939.0,2913.0,890.0,3095.0,4095.0,4095.0,3121.0,2709.0,0.96,9.95,4.56,0.01,-0.05,-0.16,0.0,k
2928.0,2915.0,894.0,3088.0,4095.0,4095.0,3119.0,2710.0,1.09,9.89,4.44,0.01,0.02,-0.21,0.0,k
2934.0,2908.0,892.0,3125.0,4095.0,4095.0,3122.0,2720.0,0.9,9.94,4.47,-0.01,0.04,-0.22,0.0,k
2928.0,2910.0,890.0,3142.0,4095.0,4095.0,3120.0,2719.0,0.81,9.76,4.62,-0.04,0.05,-0.17,0.0,k
2927.0,2901.0,895.0,3152.0,4095.0,4095.0,3120.0,2729.0,0.91,9.94,4.51,-0.02,0.02,-0.15,0.0,k
2939.0,2925.0,894.0,3174.0,4095.0,4095.0,3125.0,2736.0,0.89,9.82,4.46,-0.07,0.08,-0.12,0.0,k
2939.0,2928.0,896.0,3184.0,4095.0,4095.0,3122.0,2736.0,1.15,9.96,4.59,-0.09,0.03,-0.13,0.0,k
2933.0,2916.0,890.0,3202.0,4095.0,4095.0,3130.0,2739.0,1.01,9.7,5.04,-0.06,0.07,-0.12,0.0,k
2925.0,2913.0,894.0,3204.0,4095.0,4095.0,3119.0,2736.0,1.07,9.98,4.81,-0.13,-0.03,-0.13,0.0,k
2930.0,2908.0,891.0,3210.0,4095.0,4095.0,3124.0,2742.0,0.73,9.71,5.06,-0.0,-0.06,-0.19,0.0,k
2928.0,2912.0,895.0,3212.0,4095.0,4095.0,3120.0,2747.0,0.89,9.98,4.65,-0.03,0.01,-0.16,0.0,k
2928.0,2915.0,896.0,3222.0,4095.0,4095.0,3120.0,2745.0,0.89,9.88,4.88,-0.03,0.03,-0.11,0.0,k
2930.0,2913.0,895.0,3227.0,4095.0,4095.0,3123.0,2752.0,1.17,9.75,4.92,-0.06,0.05,-0.12,0.0,k
2924.0,2903.0,896.0,3234.0,4095.0,4095.0,3119.0,2746.0,1.09,9.93,5.07,-0.0,-0.02,-0.15,0.0,k
2928.0,2915.0,899.0,3231.0,4095.0,4095.0,3121.0,2752.0,0.93,9.68,4.86,0.03,0.0,-0.2,0.0,k
2928.0,2919.0,906.0,3243.0,4095.0,4095.0,3116.0,2743.0,0.74,9.98,4.98,0.03,-0.04,-0.19,0.0,k
2922.0,2901.0,899.0,3237.0,4095.0,4095.0,3107.0,2743.0,0.93,9.77,4.71,0.05,-0.06,-0.21,0.0,k
2925.0,2917.0,904.0,3237.0,4095.0,4095.0,3104.0,2743.0,0.91,10.09,4.65,0.06,-0.0,-0.15,0.0,k
2917.0,2922.0,922.0,3324.0,4095.0,4095.0,3083.0,2699.0,0.88,9.95,4.86,-0.01,-0.02,-0.15,0.0,k
2922.0,2918.0,923.0,3329.0,4095.0,4095.0,3056.0,2678.0,0.91,9.76,4.98,0.02,-0.1,-0.16,0.0,k
2913.0,2919.0,925.0,3322.0,4095.0,4095.0,3027.0,2645.0,0.96,9.84,5.01,0.05,-0.12,-0.17,0.0,k
2906.0,2908.0,948.0,3328.0,4095.0,4095.0,3010.0,2617.0,0.84,9.91,4.77,0.01,-0.15,-0.12,0.0,k
2917.0,2910.0,983.0,3327.0,4095.0,4095.0,3015.0,2619.0,1.03,9.55,4.96,-0.02,-0.04,-0.13,0.0,k
2909.0,2909.0,1063.0,3326.0,4095.0,4095.0,3023.0,2624.0,0.92,9.98,4.93,0.06,-0.13,-0.19,0.0,k
2917.0,2905.0,1067.0,3326.0,4095.0,4095.0,3033.0,2631.0,1.02,9.74,4.81,0.02,0.0,-0.13,0.0,k
2917.0,2903.0,1101.0,3334.0,4095.0,4095.0,3045.0,2640.0,0.86,10.01,4.93,0.02,-0.05,-0.11,0.0,k
2926.0,2914.0,1155.0,3328.0,4095.0,4095.0,3047.0,2645.0,1.24,9.67,4.92,0.02,-0.08,-0.14,0.0,k
2928.0,2913.0,1177.0,3332.0,4095.0,4095.0,3056.0,2649.0,0.96,9.97,4.99,0.05,-0.1,-0.2,0.0,k
2923.0,2922.0,1216.0,3339.0,4095.0,4095.0,3053.0,2651.0,1.06,9.84,4.71,0.04,-0.07,-0.17,0.0,k
2915.0,2918.0,1241.0,3330.0,4095.0,4095.0,3053.0,2645.0,0.92,9.89,4.91,0.03,-0.1,-0.16,0.0,k
2924.0,2914.0,1297.0,3342.0,4095.0,4095.0,3056.0,2651.0,1.35,9.83,4.87,0.02,-0.12,-0.18,0.0,k
2915.0,2917.0,1307.0,3341.0,4095.0,4095.0,3055.0,2642.0,1.02,9.99,4.92,0.06,0.05,-0.15,0.0,k
2918.0,2910.0,1325.0,3342.0,4095.0,4095.0,3056.0,2654.0,1.03,9.74,4.88,0.06,0.01,-0.18,0.0,k
2914.0,2913.0,1373.0,3334.0,4095.0,4095.0,3053.0,2647.0,0.96,9.84,4.73,0.04,0.02,-0.19,0.0,k
2927.0,2916.0,1389.0,3342.0,4095.0,4095.0,3055.0,2649.0,0.72,9.92,4.62,0.06,-0.05,-0.2,0.0,k
2918.0,2919.0,1389.0,3335.0,4095.0,4095.0,3056.0,2653.0,0.7,9.95,4.4,0.04,-0.03,-0.16,0.0,k
2919.0,2915.0,1375.0,3344.0,4095.0,4095.0,3055.0,2651.0,0.68,9.96,4.48,0.0,-0.04,-0.11,0.0,k
2915.0,2901.0,1381.0,3339.0,4095.0,4095.0,3053.0,2640.0,1.2,9.81,4.79,-0.05,-0.0,-0.07,0.0,k
2902.0,2926.0,4095.0,3501.0,4095.0,4095.0,2836.0,2605.0,0.94,9.94,4.77,0.02,-0.02,-0.16,0.0,k
2899.0,2918.0,4095.0,3486.0,4095.0,4095.0,2832.0,2597.0,0.8,9.88,4.76,0.05,0.06,-0.14,0.0,k
2898.0,2925.0,4095.0,3485.0,4095.0,4095.0,2832.0,2585.0,0.63,9.91,4.69,-0.01,-0.01,-0.14,0.0,k
2903.0,2911.0,4095.0,3493.0,4095.0,4095.0,2831.0,2583.0,1.07,9.79,4.79,-0.05,-0.09,-0.16,0.0,k
2897.0,2912.0,4095.0,3495.0,4095.0,4095.0,2832.0,2594.0,0.8,9.78,5.24,-0.07,0.03,-0.11,0.0,k
2901.0,2922.0,4095.0,3499.0,4095.0,4095.0,2838.0,2596.0,0.94,9.91,4.93,0.04,-0.02,-0.15,0.0,k
2902.0,2918.0,4095.0,3504.0,4095.0,4095.0,2842.0,2602.0,0.57,9.99,4.6,0.02,0.08,-0.09,0.0,k
2902.0,2922.0,4095.0,3523.0,4095.0,4095.0,2846.0,2602.0,1.13,9.93,4.63,0.01,0.02,-0.07,0.0,k
2900.0,2919.0,4095.0,3510.0,4095.0,4095.0,2847.0,2598.0,1.11,9.69,4.95,-0.04,0.15,-0.12,0.0,k
2898.0,2913.0,4095.0,3527.0,4095.0,4095.0,2853.0,2607.0,1.11,9.8,5.04,-0.01,-0.13,-0.18,0.0,k
2901.0,2924.0,4095.0,3504.0,4095.0,4095.0,2848.0,2603.0,0.6,9.77,5.1,-0.01,-0.13,-0.19,0.0,k
2916.0,2922.0,4095.0,3501.0,4095.0,4095.0,2854.0,2603.0,0.46,9.94,5.23,0.05,-0.29,-0.2,0.0,k
2904.0,2925.0,4095.0,3503.0,4095.0,4095.0,2855.0,2606.0,0.89,9.83,5.0,-0.07,-0.41,-0.08,0.0,k
2901.0,2922.0,4095.0,3496.0,4095.0,4095.0,2851.0,2602.0,1.39,9.8,5.11,-0.05,-0.15,-0.03,0.0,k
2901.0,2926.0,4095.0,3509.0,4095.0,4095.0,2861.0,2601.0,1.47,9.89,4.96,0.01,0.05,-0.1,0.0,k
2902.0,2926.0,4095.0,3507.0,4095.0,4095.0,2860.0,2592.0,1.42,9.85,4.78,-0.0,0.07,-0.15,0.0,k
2899.0,2927.0,4095.0,3504.0,4095.0,4095.0,2864.0,2595.0,1.3,9.91,4.77,-0.01,-0.03,-0.19,0.0,k
2906.0,2919.0,4095.0,3494.0,4095.0,4095.0,2867.0,2603.0,0.87,9.72,4.98,-0.02,0.07,-0.19,0.0,k
2905.0,2927.0,4095.0,3497.0,4095.0,4095.0,2864.0,2602.0,0.69,9.98,5.0,0.03,0.03,-0.19,0.0,k
2911.0,2919.0,4095.0,3501.0,4095.0,4095.0,2865.0,2608.0,0.92,9.83,4.71,-0.07,0.03,-0.12,0.0,k
2927.0,2913.0,2961.0,3856.0,4095.0,3967.0,2944.0,2637.0,0.68,10.02,4.3,0.25,0.26,-0.23,0.0,k
2930.0,2927.0,2974.0,3888.0,4095.0,3966.0,2941.0,2633.0,0.61,9.97,3.96,0.17,0.17,-0.21,0.0,k
2939.0,2923.0,2976.0,3871.0,4095.0,3975.0,2945.0,2639.0,0.49,10.04,4.27,0.04,0.23,-0.13,0.0,k
2931.0,2927.0,2965.0,3872.0,4095.0,3994.0,2949.0,2640.0,0.64,10.0,4.53,0.12,0.08,-0.18,0.0,k
2928.0,2922.0,2958.0,3857.0,4095.0,3967.0,2947.0,2637.0,0.57,9.92,4.49,0.04,0.17,-0.11,0.0,k
2928.0,2928.0,2967.0,3884.0,4095.0,3970.0,2947.0,2640.0,0.88,9.93,4.41,0.07,-0.05,-0.15,0.0,k
2928.0,2927.0,2971.0,3874.0,4095.0,3970.0,2949.0,2640.0,0.8,9.95,4.31,0.09,-0.0,-0.16,0.0,k
2926.0,2922.0,2962.0,3875.0,4095.0,3967.0,2947.0,2638.0,0.93,9.96,4.08,0.06,-0.0,-0.14,0.0,k
2922.0,2918.0,2971.0,3865.0,4095.0,3968.0,2949.0,2641.0,0.82,9.95,4.32,0.01,0.05,-0.17,0.0,k
2930.0,2927.0,2969.0,3879.0,4095.0,3974.0,2954.0,2643.0,1.07,9.9,4.17,-0.07,-0.08,-0.17,0.0,k
2929.0,2925.0,2963.0,3883.0,4095.0,3970.0,2949.0,2642.0,0.77,9.84,4.56,0.05,-0.03,-0.23,0.0,k
2928.0,2919.0,2958.0,3872.0,4095.0,3969.0,2947.0,2642.0,0.68,9.84,4.22,-0.1,-0.01,-0.17,0.0,k
2933.0,2928.0,2963.0,3885.0,4095.0,3986.0,2959.0,2642.0,0.53,9.89,4.7,-0.01,-0.02,-0.15,0.0,k
2927.0,2927.0,2966.0,3885.0,4095.0,3966.0,2955.0,2646.0,0.79,9.87,4.64,-0.03,-0.05,-0.15,0.0,k
2927.0,2926.0,2968.0,3881.0,4095.0,3947.0,2953.0,2643.0,0.68,9.96,4.55,0.01,-0.11,-0.18,0.0,k
2928.0,2923.0,2964.0,3883.0,4095.0,3959.0,2949.0,2641.0,0.78,9.93,4.56,-0.02,-0.02,-0.17,0.0,k
2922.0,2927.0,2960.0,3882.0,4095.0,3941.0,2951.0,2640.0,0.62,9.9,4.72,0.06,-0.02,-0.17,0.0,k
2927.0,2915.0,2974.0,3888.0,4095.0,3931.0,2956.0,2642.0,0.6,9.82,4.71,0.05,-0.11,-0.17,0.0,k
2930.0,2925.0,2969.0,3879.0,4095.0,3893.0,2950.0,2641.0,0.75,9.91,4.4,0.11,0.01,-0.22,0.0,k
2928.0,2933.0,2963.0,3898.0,4095.0,3893.0,2960.0,2640.0,0.45,9.98,4.07,-0.01,0.02,-0.14,0.0,k
2917.0,2949.0,2992.0,3290.0,4095.0,4034.0,2935.0,2597.0,0.63,9.96,4.58,0.02,-0.03,-0.15,0.0,k
2915.0,2942.0,2987.0,3295.0,4095.0,4035.0,2945.0,2595.0,0.72,9.85,4.53,0.01,-0.01,-0.16,0.0,k
2923.0,2939.0,2999.0,3299.0,4095.0,4043.0,2942.0,2603.0,0.74,9.99,4.63,0.03,-0.01,-0.17,0.0,k
2922.0,2945.0,2993.0,3303.0,4095.0,4048.0,2942.0,2605.0,0.49,9.79,4.5,0.04,0.03,-0.15,0.0,k
2922.0,2933.0,2992.0,3302.0,4095.0,4026.0,2935.0,2595.0,0.62,10.0,4.39,0.0,-0.03,-0.15,0.0,k
2911.0,2941.0,2991.0,3301.0,4095.0,4022.0,2935.0,2608.0,0.62,9.84,4.55,0.01,-0.03,-0.14,0.0,k
2919.0,2934.0,2993.0,3284.0,4095.0,4021.0,2945.0,2605.0,0.8,9.95,4.56,-0.0,0.01,-0.13,0.0,k
2919.0,2943.0,2992.0,3307.0,4095.0,4016.0,2947.0,2605.0,0.66,9.85,4.61,0.01,-0.02,-0.15,0.0,k
2915.0,2934.0,2992.0,3311.0,4095.0,4016.0,2943.0,2608.0,0.75,10.0,4.51,0.03,0.02,-0.16,0.0,k
2917.0,2941.0,2993.0,3312.0,4095.0,4014.0,2943.0,2608.0,0.62,9.92,4.48,0.04,0.01,-0.15,0.0,k
2914.0,2947.0,2990.0,3312.0,4095.0,4012.0,2941.0,2603.0,0.72,9.9,4.48,-0.0,-0.02,-0.15,0.0,k
2907.0,2939.0,2993.0,3309.0,4095.0,3995.0,2941.0,2606.0,0.68,9.92,4.56,0.02,-0.05,-0.16,0.0,k
2923.0,2955.0,2995.0,3312.0,4095.0,4005.0,2944.0,2606.0,0.58,9.87,4.57,0.01,0.03,-0.16,0.0,k
2915.0,2943.0,2989.0,3313.0,4095.0,3995.0,2944.0,2603.0,0.65,9.92,4.61,0.03,-0.01,-0.15,0.0,k
2907.0,2945.0,2989.0,3303.0,4095.0,3984.0,2939.0,2606.0,0.66,9.84,4.53,0.02,-0.01,-0.17,0.0,k
2913.0,2944.0,2990.0,3313.0,4095.0,3993.0,2941.0,2608.0,0.62,10.01,4.47,0.03,0.03,-0.15,0.0,k
2923.0,2947.0,2998.0,3313.0,4095.0,3983.0,2935.0,2592.0,0.45,9.82,4.53,0.04,0.01,-0.11,0.0,k
2918.0,2950.0,2999.0,3313.0,4095.0,3984.0,2937.0,2559.0,1.06,10.08,4.45,0.06,0.06,-0.25,0.0,k
2914.0,2949.0,2987.0,3319.0,4095.0,3959.0,2928.0,2549.0,0.63,9.8,4.42,-0.01,0.08,-0.12,0.0,k
2912.0,2949.0,2982.0,3314.0,4095.0,3851.0,2928.0,2502.0,0.65,9.91,4.48,-0.04,0.07,-0.12,0.0,k
2911.0,2925.0,3137.0,3375.0,4095.0,4095.0,3023.0,2591.0,1.05,9.85,5.0,0.01,-0.02,-0.14,0.0,k
2922.0,2928.0,3151.0,3377.0,4095.0,4095.0,3024.0,2592.0,0.95,9.81,5.05,0.01,0.01,-0.17,0.0,k
2910.0,2928.0,3136.0,3379.0,4095.0,4095.0,3025.0,2590.0,0.96,9.9,5.14,0.03,0.0,-0.17,0.0,k
2910.0,2930.0,3135.0,3366.0,4095.0,4095.0,3021.0,2589.0,1.01,9.71,5.03,0.04,-0.0,-0.15,0.0,k
2917.0,2928.0,3147.0,3378.0,4095.0,4095.0,3025.0,2594.0,0.97,9.84,4.91,0.05,0.01,-0.17,0.0,k
2910.0,2931.0,3136.0,3377.0,4095.0,4095.0,3025.0,2592.0,0.87,9.93,4.66,0.05,-0.05,-0.16,0.0,k
2898.0,2928.0,3134.0,3376.0,4095.0,4095.0,3018.0,2594.0,1.0,9.96,4.69,0.0,0.03,-0.13,0.0,k
2901.0,2932.0,3131.0,3372.0,4095.0,4095.0,3011.0,2592.0,1.2,9.91,5.05,-0.01,0.01,-0.15,0.0,k
2911.0,2933.0,3143.0,3375.0,4095.0,4095.0,3026.0,2598.0,1.22,9.81,5.13,0.01,-0.01,-0.17,0.0,k
2907.0,2935.0,3146.0,3376.0,4095.0,4095.0,3025.0,2598.0,1.07,9.75,5.11,0.05,-0.02,-0.21,0.0,k
2914.0,2928.0,3139.0,3349.0,4095.0,4095.0,3021.0,2593.0,1.0,9.78,5.21,0.25,-0.06,-0.29,0.0,k
2903.0,2934.0,3135.0,3334.0,4095.0,4079.0,3024.0,2594.0,1.12,10.1,4.36,0.03,-0.0,-0.15,0.0,k
2909.0,2933.0,3132.0,3335.0,4095.0,4095.0,3026.0,2599.0,0.98,9.8,4.78,-0.08,0.26,-0.15,0.0,k
2906.0,2940.0,3133.0,3334.0,4095.0,4080.0,3024.0,2602.0,0.62,9.79,5.24,-0.02,0.19,-0.12,0.0,k
2907.0,2925.0,3127.0,3339.0,4095.0,4081.0,3015.0,2594.0,1.01,9.71,5.12,0.04,-0.1,-0.18,0.0,k
2902.0,2929.0,3134.0,3357.0,4095.0,4081.0,3025.0,2601.0,0.52,9.88,4.87,0.06,0.04,-0.15,0.0,k
2897.0,2928.0,3121.0,3342.0,4095.0,4066.0,3025.0,2596.0,0.72,10.01,4.47,0.1,-0.04,-0.13,0.0,k
2906.0,2929.0,3125.0,3352.0,4095.0,4082.0,3027.0,2600.0,0.87,9.92,4.37,0.04,0.01,-0.09,0.0,k
2911.0,2932.0,3134.0,3351.0,4095.0,4070.0,3026.0,2599.0,1.15,9.95,4.6,0.02,0.01,-0.14,0.0,k
2911.0,2928.0,3132.0,3347.0,4095.0,4053.0,3026.0,2602.0,1.24,9.79,4.76,0.0,-0.02,-0.2,0.0,k
2923.0,2909.0,3131.0,4095.0,4095.0,3970.0,3089.0,2652.0,1.06,9.88,4.98,0.02,0.0,-0.18,0.0,k
2929.0,2913.0,3130.0,4095.0,4095.0,3963.0,3088.0,2656.0,0.92,9.81,4.7,-0.0,0.0,-0.21,0.0,k
2921.0,2919.0,3126.0,4095.0,4095.0,3974.0,3090.0,2657.0,0.73,9.9,4.64,0.01,-0.03,-0.21,0.0,k
2926.0,2917.0,3131.0,4095.0,4095.0,4002.0,3089.0,2657.0,0.73,9.73,4.83,-0.03,0.01,-0.18,0.0,k
2919.0,2910.0,3125.0,4095.0,4095.0,3963.0,3086.0,2651.0,0.51,9.91,4.86,0.04,-0.03,-0.21,0.0,k
2927.0,2919.0,3131.0,4095.0,4095.0,3971.0,3097.0,2659.0,0.41,9.81,4.78,-0.01,-0.05,-0.15,0.0,k
2917.0,2912.0,3126.0,4095.0,4095.0,3972.0,3088.0,2657.0,0.57,9.92,4.99,0.02,-0.06,-0.12,0.0,k
2921.0,2919.0,3127.0,4095.0,4095.0,3985.0,3101.0,2665.0,0.97,9.68,4.88,0.02,-0.0,-0.13,0.0,k
2925.0,2922.0,3135.0,4095.0,4095.0,3983.0,3097.0,2655.0,0.56,10.05,4.73,0.07,-0.03,-0.15,0.0,k
2923.0,2914.0,3126.0,4095.0,4095.0,3982.0,3094.0,2656.0,0.68,9.87,4.44,0.06,-0.03,-0.12,0.0,k
2919.0,2910.0,3125.0,4095.0,4095.0,3971.0,3093.0,2657.0,0.96,9.97,4.47,-0.0,-0.02,-0.12,0.0,k
2926.0,2922.0,3132.0,4095.0,4095.0,3984.0,3101.0,2661.0,0.99,9.82,4.71,-0.01,0.03,-0.13,0.0,k
2918.0,2910.0,3120.0,4095.0,4095.0,3956.0,3088.0,2648.0,0.87,9.84,4.71,-0.01,-0.07,-0.18,0.0,k
2925.0,2913.0,3131.0,4095.0,4095.0,3982.0,3093.0,2659.0,0.77,9.84,4.8,-0.01,-0.09,-0.17,0.0,k
2922.0,2914.0,3127.0,4095.0,4095.0,3984.0,3095.0,2661.0,0.78,9.8,4.98,-0.03,-0.06,-0.16,0.0,k
2915.0,2912.0,3119.0,4095.0,4095.0,3935.0,3090.0,2660.0,0.79,9.75,5.23,0.01,-0.08,-0.13,0.0,k
2924.0,2915.0,3121.0,4095.0,4095.0,3881.0,3093.0,2655.0,0.8,9.83,5.14,0.06,-0.26,-0.16,0.0,k
2922.0,2915.0,3126.0,4095.0,4095.0,3884.0,3099.0,2658.0,0.74,9.92,4.58,0.1,0.01,-0.16,0.0,k
2922.0,2914.0,3126.0,4095.0,4095.0,3882.0,3103.0,2661.0,0.79,9.91,4.36,0.07,0.07,-0.13,0.0,k
2913.0,2915.0,3115.0,4095.0,4095.0,3893.0,3093.0,2654.0,0.93,10.02,4.39,0.04,0.05,-0.15,0.0,k
2896.0,2915.0,4095.0,4095.0,4095.0,4095.0,2802.0,2670.0,0.68,9.73,5.32,0.03,-0.3,-0.12,0.0,k
2898.0,2918.0,4095.0,4095.0,4095.0,4095.0,2814.0,2680.0,0.81,9.96,5.38,0.22,-0.38,-0.18,0.0,k
2911.0,2922.0,4095.0,4095.0,4095.0,4095.0,2815.0,2674.0,0.88,9.74,5.08,0.14,-0.58,-0.2,0.0,k
2917.0,2919.0,4095.0,4095.0,4095.0,4095.0,2823.0,2675.0,0.68,10.11,4.57,0.22,-0.46,-0.23,0.0,k
2898.0,2911.0,4095.0,4095.0,4095.0,4095.0,2807.0,2651.0,1.08,9.79,4.44,0.13,-0.37,-0.23,0.0,k
2894.0,2914.0,4095.0,4095.0,4095.0,4095.0,2804.0,2644.0,0.34,10.15,4.35,0.1,0.07,-0.19,0.0,k
2896.0,2919.0,4095.0,4095.0,4095.0,4095.0,2805.0,2640.0,0.69,9.83,4.46,0.02,0.04,-0.17,0.0,k
2896.0,2918.0,4095.0,4095.0,4095.0,4095.0,2813.0,2649.0,0.57,9.9,4.48,-0.02,-0.0,-0.14,0.0,k
2893.0,2922.0,4095.0,4095.0,4095.0,4095.0,2815.0,2646.0,0.58,9.87,4.63,0.04,-0.02,-0.19,0.0,k
2902.0,2919.0,4095.0,4095.0,4095.0,4095.0,2817.0,2650.0,0.45,9.9,4.56,-0.03,-0.0,-0.18,0.0,k
2896.0,2926.0,4095.0,4095.0,4095.0,4095.0,2817.0,2651.0,0.53,9.79,4.89,0.02,0.04,-0.17,0.0,k
2903.0,2922.0,4095.0,4095.0,4095.0,4095.0,2822.0,2647.0,0.58,9.86,4.79,0.02,0.05,-0.16,0.0,k
2897.0,2917.0,4095.0,4095.0,4095.0,4095.0,2819.0,2645.0,0.49,9.84,4.48,0.03,0.01,-0.19,0.0,k
2900.0,2918.0,4095.0,4095.0,4095.0,4095.0,2827.0,2646.0,0.22,9.94,4.51,-0.0,0.02,-0.22,0.0,k
2896.0,2925.0,4095.0,4095.0,4095.0,4095.0,2831.0,2640.0,0.16,9.89,4.76,-0.03,-0.03,-0.17,0.0,k
2900.0,2921.0,4095.0,4095.0,4095.0,4095.0,2835.0,2650.0,0.51,9.95,4.81,-0.04,-0.07,-0.12,0.0,k
2901.0,2924.0,4095.0,4095.0,4095.0,4095.0,2835.0,2651.0,0.82,9.77,4.9,-0.04,-0.01,-0.12,0.0,k
2899.0,2929.0,4095.0,4095.0,4095.0,4095.0,2832.0,2656.0,0.79,9.88,5.03,0.02,0.04,-0.18,0.0,k
2907.0,2926.0,4095.0,4095.0,4095.0,4095.0,2833.0,2646.0,0.57,9.74,4.98,0.09,0.0,-0.26,0.0,k
2896.0,2922.0,4095.0,4095.0,4095.0,4095.0,2841.0,2653.0,0.19,9.9,4.81,0.08,-0.04,-0.26,0.0,k
2926.0,2919.0,4017.0,4095.0,4095.0,4095.0,2941.0,2713.0,0.41,9.97,4.41,0.06,0.07,-0.16,0.0,k
2925.0,2909.0,4007.0,4095.0,4095.0,4095.0,2941.0,2717.0,0.15,9.79,4.27,0.08,0.07,-0.2,0.0,k
2921.0,2921.0,4001.0,4095.0,4095.0,4095.0,2943.0,2726.0,-0.08,10.01,4.0,0.07,0.03,-0.22,0.0,k
2928.0,2909.0,4026.0,4095.0,4095.0,4095.0,2944.0,2723.0,-0.37,9.92,4.13,-0.1,-0.07,-0.16,0.0,k
2927.0,2911.0,4022.0,4095.0,4095.0,4095.0,2943.0,2716.0,0.01,10.06,4.33,-0.09,-0.12,-0.06,0.0,k
2920.0,2927.0,4013.0,4095.0,4095.0,4095.0,2937.0,2717.0,0.45,9.88,4.48,-0.03,0.03,-0.02,0.0,k
2923.0,2910.0,4018.0,4095.0,4095.0,4077.0,2940.0,2712.0,0.92,9.69,4.44,-0.04,0.09,0.01,0.0,k
2919.0,2906.0,4010.0,4095.0,4095.0,3988.0,2937.0,2707.0,1.0,9.88,4.59,-0.06,0.05,0.01,0.0,k
2921.0,2919.0,4041.0,4095.0,4095.0,3995.0,2937.0,2715.0,1.24,9.89,4.51,-0.03,-0.05,-0.11,0.0,k
2918.0,2907.0,4029.0,4095.0,4095.0,4002.0,2941.0,2715.0,0.95,9.84,4.57,-0.04,-0.03,-0.21,0.0,k
2928.0,2917.0,4047.0,4095.0,4095.0,4011.0,2941.0,2716.0,0.68,9.87,4.66,-0.02,-0.03,-0.27,0.0,k
2924.0,2910.0,4035.0,4095.0,4095.0,3990.0,2935.0,2705.0,0.31,9.73,4.8,-0.05,-0.0,-0.27,0.0,k
2927.0,2914.0,4047.0,4095.0,4095.0,3998.0,2941.0,2709.0,0.06,9.96,4.71,-0.05,-0.01,-0.25,0.0,k
2915.0,2911.0,4037.0,4095.0,4095.0,3987.0,2941.0,2713.0,-0.25,9.9,4.85,-0.04,0.0,-0.15,0.0,k
2928.0,2911.0,4034.0,4095.0,4095.0,3967.0,2938.0,2713.0,0.22,9.91,4.8,-0.0,-0.05,-0.1,0.0,k
2925.0,2910.0,4036.0,4095.0,4095.0,3961.0,2934.0,2707.0,0.37,9.89,4.78,0.03,-0.01,-0.1,0.0,k
2920.0,2903.0,4054.0,4095.0,4095.0,3981.0,2939.0,2711.0,0.65,9.87,4.67,0.02,0.01,-0.09,0.0,k
2926.0,2911.0,4059.0,4095.0,4095.0,3970.0,2933.0,2710.0,0.86,9.91,4.72,0.05,-0.04,-0.15,0.0,k
2923.0,2905.0,4048.0,4095.0,4095.0,3962.0,2935.0,2704.0,0.82,9.87,4.61,0.05,-0.02,-0.18,0.0,k
2928.0,2916.0,4076.0,4095.0,4095.0,3969.0,2941.0,2705.0,0.45,9.96,4.52,0.01,0.0,-0.19,0.0,k
2911.0,2916.0,4095.0,4095.0,4095.0,3902.0,2933.0,2682.0,0.39,9.92,5.02,0.11,0.02,-0.22,0.0,k
2915.0,2911.0,4095.0,4095.0,4095.0,3887.0,2941.0,2689.0,0.15,9.91,4.71,0.13,0.02,-0.19,0.0,k
2921.0,2910.0,4095.0,4095.0,4095.0,3892.0,2941.0,2687.0,0.17,10.03,4.32,0.14,0.07,-0.14,0.0,k
2913.0,2910.0,4095.0,4095.0,4095.0,3905.0,2944.0,2693.0,0.47,9.89,4.3,0.04,0.05,-0.15,0.0,k
2915.0,2912.0,4095.0,4095.0,4095.0,3902.0,2938.0,2685.0,0.46,10.0,4.25,0.02,0.02,-0.17,0.0,k
2910.0,2910.0,4095.0,4095.0,4095.0,3905.0,2944.0,2691.0,0.28,9.85,4.43,-0.04,-0.02,-0.19,0.0,k
2914.0,2913.0,4095.0,4095.0,4095.0,3899.0,2943.0,2688.0,0.11,9.97,4.67,-0.02,0.02,-0.18,0.0,k
2917.0,2917.0,4095.0,4095.0,4095.0,3908.0,2946.0,2693.0,0.11,9.84,4.73,0.01,0.01,-0.16,0.0,k
2913.0,2923.0,4095.0,4095.0,4095.0,3910.0,2945.0,2694.0,0.23,9.9,4.89,0.04,0.04,-0.13,0.0,k
2918.0,2906.0,4095.0,4095.0,4095.0,3903.0,2945.0,2700.0,0.39,9.83,4.76,0.04,-0.0,-0.12,0.0,k
2917.0,2907.0,4095.0,4095.0,4095.0,3895.0,2941.0,2689.0,0.53,9.91,4.57,0.04,0.02,-0.13,0.0,k
2921.0,2914.0,4095.0,4095.0,4095.0,3899.0,2945.0,2693.0,0.37,9.9,4.43,0.02,0.02,-0.15,0.0,k
2916.0,2915.0,4095.0,4095.0,4095.0,3906.0,2948.0,2698.0,0.33,9.95,4.54,0.02,-0.0,-0.17,0.0,k
2920.0,2914.0,4095.0,4095.0,4095.0,3904.0,2950.0,2695.0,0.38,9.91,4.59,0.0,-0.02,-0.14,0.0,k
2928.0,2911.0,4095.0,4095.0,4095.0,3899.0,2948.0,2697.0,0.48,9.88,4.71,0.02,0.03,-0.15,0.0,k
2922.0,2914.0,4095.0,4095.0,4095.0,3905.0,2951.0,2694.0,0.43,9.84,4.63,0.05,0.04,-0.19,0.0,k
2922.0,2914.0,4095.0,4095.0,4095.0,3891.0,2943.0,2688.0,0.24,9.89,4.54,0.04,0.01,-0.19,0.0,k
2923.0,2915.0,4095.0,4095.0,4095.0,3904.0,2951.0,2696.0,0.2,9.9,4.7,0.02,-0.02,-0.17,0.0,k
2925.0,2909.0,4095.0,4095.0,4095.0,3907.0,2945.0,2695.0,0.26,9.95,4.58,0.06,-0.02,-0.14,0.0,k
2913.0,2921.0,4095.0,4095.0,4095.0,3889.0,2947.0,2695.0,0.43,9.93,4.47,0.03,0.01,-0.14,0.0,k
2913.0,2915.0,4095.0,4095.0,4095.0,3679.0,2938.0,2653.0,-0.92,9.77,3.22,-0.01,-0.0,-0.21,0.0,k
2913.0,2915.0,4095.0,4095.0,4095.0,3679.0,2938.0,2653.0,-0.92,9.77,3.22,-0.01,-0.0,-0.21,0.0,k
2915.0,2918.0,4095.0,4095.0,4095.0,3696.0,2943.0,2659.0,-0.9,9.79,3.18,0.03,-0.03,-0.18,0.0,k
2907.0,2911.0,4095.0,4095.0,4095.0,3681.0,2943.0,2653.0,-1.07,9.75,3.18,-0.0,-0.02,-0.16,0.0,k
2909.0,2906.0,4095.0,4095.0,4095.0,3682.0,2939.0,2654.0,-0.86,9.8,3.28,0.01,-0.0,-0.14,0.0,k
2909.0,2912.0,4095.0,4095.0,4095.0,3679.0,2941.0,2653.0,-0.87,9.79,3.14,0.04,-0.03,-0.13,0.0,k
2917.0,2914.0,4095.0,4095.0,4095.0,3677.0,2943.0,2659.0,-0.78,9.85,3.07,0.03,-0.01,-0.12,0.0,k
2910.0,2917.0,4095.0,4095.0,4095.0,3697.0,2947.0,2659.0,-0.52,9.87,3.11,0.02,0.0,-0.08,0.0,k
2909.0,2913.0,4095.0,4095.0,4095.0,3698.0,2947.0,2661.0,-0.27,9.82,3.27,0.01,0.04,-0.09,0.0,k
2909.0,2918.0,4095.0,4095.0,4095.0,3696.0,2947.0,2667.0,-0.2,9.87,3.19,0.05,0.02,-0.15,0.0,k
2915.0,2918.0,4095.0,4095.0,4095.0,3696.0,2949.0,2669.0,-0.46,9.9,3.11,0.05,0.01,-0.19,0.0,k
2914.0,2911.0,4095.0,4095.0,4095.0,3696.0,2950.0,2671.0,-0.59,9.86,2.97,0.04,0.01,-0.19,0.0,k
2917.0,2911.0,4095.0,4095.0,4095.0,3702.0,2945.0,2669.0,-0.69,9.85,3.04,0.02,-0.01,-0.17,0.0,k
2909.0,2923.0,4095.0,4095.0,4095.0,3705.0,2951.0,2672.0,-0.65,9.82,3.09,0.01,-0.01,-0.16,0.0,k
2909.0,2903.0,4095.0,4095.0,4095.0,3696.0,2945.0,2662.0,-0.67,9.84,3.0,0.01,-0.0,-0.15,0.0,k
2908.0,2917.0,4095.0,4095.0,4095.0,3705.0,2959.0,2669.0,-0.69,9.73,3.12,0.01,-0.01,-0.16,0.0,k
2919.0,2913.0,4095.0,4095.0,4095.0,3702.0,2950.0,2672.0,-0.54,9.8,3.13,0.03,-0.03,-0.21,0.0,k
2917.0,2909.0,4095.0,4095.0,4095.0,3699.0,2954.0,2672.0,-0.59,9.9,3.01,-0.01,-0.02,-0.14,0.0,k
2911.0,2919.0,4095.0,4095.0,4095.0,3694.0,2945.0,2670.0,-0.71,9.8,3.17,0.0,0.02,-0.14,0.0,k
2909.0,2909.0,4095.0,4095.0,4095.0,3696.0,2946.0,2665.0,-0.58,9.84,3.06,-0.0,-0.03,-0.14,0.0,k
2923.0,2927.0,2975.0,4095.0,4095.0,4055.0,2990.0,2613.0,0.14,9.99,3.79,-0.04,-0.02,-0.11,0.0,k
2921.0,2928.0,2979.0,4095.0,4095.0,4023.0,2989.0,2602.0,0.24,9.89,3.71,-0.23,-0.0,-0.17,0.0,k
2914.0,2926.0,2970.0,4095.0,4095.0,4001.0,2988.0,2614.0,-0.24,9.95,4.42,-0.14,-0.05,-0.27,0.0,k
2919.0,2927.0,2976.0,4095.0,4095.0,3990.0,2993.0,2608.0,-0.27,9.94,4.25,-0.04,-0.07,-0.11,0.0,k
2931.0,2927.0,2980.0,4095.0,4095.0,3987.0,2997.0,2617.0,-0.06,9.82,4.34,-0.06,0.0,-0.11,0.0,k
2925.0,2928.0,2987.0,4095.0,4095.0,3984.0,2993.0,2621.0,0.14,9.84,4.59,-0.04,0.05,-0.11,0.0,k
2919.0,2919.0,2977.0,4095.0,4095.0,3967.0,2992.0,2615.0,0.04,9.85,4.35,0.01,0.03,-0.18,0.0,k
2923.0,2923.0,2973.0,4095.0,4095.0,3964.0,2991.0,2621.0,-0.25,9.81,4.4,-0.02,-0.03,-0.19,0.0,k
2923.0,2927.0,2980.0,4095.0,4095.0,3962.0,2996.0,2624.0,-0.35,9.79,4.81,0.02,-0.1,-0.19,0.0,k
2917.0,2924.0,2975.0,4095.0,4095.0,3953.0,2992.0,2630.0,-0.09,9.93,4.37,0.04,-0.04,-0.17,0.0,k
2928.0,2930.0,2986.0,4095.0,4095.0,3951.0,3001.0,2630.0,-0.14,9.81,4.44,0.01,0.0,-0.11,0.0,k
2925.0,2917.0,2982.0,4095.0,4095.0,3936.0,2993.0,2626.0,-0.19,9.95,4.29,0.08,-0.01,-0.14,0.0,k
2928.0,2931.0,2979.0,4095.0,4095.0,3953.0,2994.0,2633.0,-0.14,9.98,3.94,0.07,-0.05,-0.14,0.0,k
2919.0,2928.0,2980.0,4095.0,4095.0,3952.0,2995.0,2638.0,-0.05,9.91,4.16,0.01,-0.02,-0.12,0.0,k
2918.0,2926.0,2977.0,4095.0,4095.0,3938.0,2996.0,2633.0,0.06,9.91,4.3,0.03,-0.03,-0.12,0.0,k
2927.0,2928.0,2986.0,4095.0,4095.0,3931.0,2999.0,2635.0,0.05,9.89,4.21,0.04,-0.05,-0.15,0.0,k
2921.0,2922.0,2977.0,4095.0,4095.0,3918.0,2993.0,2635.0,0.05,9.86,4.14,0.02,-0.03,-0.17,0.0,k
2919.0,2928.0,2975.0,4095.0,4095.0,3904.0,2997.0,2638.0,0.0,9.73,4.35,0.05,-0.01,-0.22,0.0,k
2919.0,2928.0,2982.0,4095.0,4095.0,3862.0,2998.0,2640.0,-0.02,10.02,4.55,0.3,-0.04,-0.32,0.0,k
2919.0,2928.0,2975.0,4095.0,4095.0,3826.0,2995.0,2638.0,-0.01,9.77,3.76,0.03,-0.02,-0.18,0.0,k
2917.0,2917.0,897.0,4095.0,4095.0,3467.0,2997.0,2499.0,-0.5,9.96,3.57,0.02,-0.07,-0.18,0.0,k
2911.0,2913.0,903.0,4095.0,4095.0,3462.0,2999.0,2503.0,-0.5,9.81,3.64,-0.02,0.03,-0.15,0.0,k
2925.0,2910.0,898.0,4095.0,4095.0,3469.0,2992.0,2511.0,-0.32,9.89,3.95,0.01,-0.0,-0.16,0.0,k
2913.0,2915.0,897.0,4095.0,4095.0,3462.0,2992.0,2509.0,-0.35,9.78,3.73,0.02,0.0,-0.16,0.0,k
2917.0,2915.0,897.0,4095.0,4095.0,3462.0,2995.0,2511.0,-0.49,9.98,3.78,0.04,0.02,-0.17,0.0,k
2928.0,2907.0,898.0,4095.0,4095.0,3456.0,2994.0,2507.0,-0.44,9.86,3.83,0.03,0.0,-0.14,0.0,k
2926.0,2919.0,898.0,4095.0,4095.0,3467.0,2998.0,2519.0,-0.38,9.92,3.77,0.03,0.0,-0.14,0.0,k
2903.0,2910.0,895.0,4095.0,4095.0,3462.0,2993.0,2511.0,-0.39,9.86,3.78,0.03,-0.03,-0.16,0.0,k
2901.0,2909.0,895.0,4095.0,4095.0,3465.0,2996.0,2511.0,-0.36,9.96,3.62,0.04,-0.03,-0.15,0.0,k
2920.0,2919.0,898.0,4095.0,4095.0,3471.0,3005.0,2512.0,-0.36,9.93,3.67,0.02,0.0,-0.14,0.0,k
2907.0,2910.0,894.0,4095.0,4095.0,3465.0,3001.0,2512.0,-0.31,10.0,3.74,0.03,-0.02,-0.13,0.0,k
2911.0,2925.0,897.0,4095.0,4095.0,3471.0,3008.0,2517.0,-0.08,9.89,3.69,0.01,0.0,-0.11,0.0,k
2919.0,2915.0,899.0,4095.0,4095.0,3474.0,3010.0,2522.0,-0.06,9.94,3.68,0.01,-0.02,-0.15,0.0,k
2912.0,2918.0,896.0,4095.0,4095.0,3471.0,3005.0,2519.0,-0.25,9.83,3.68,-0.0,0.02,-0.19,0.0,k
2918.0,2913.0,896.0,4095.0,4095.0,3472.0,3009.0,2524.0,-0.4,9.85,3.57,-0.0,0.01,-0.2,0.0,k
2917.0,2917.0,898.0,4095.0,4095.0,3467.0,3007.0,2531.0,-0.63,9.69,3.72,-0.02,-0.03,-0.21,0.0,k
2919.0,2927.0,902.0,4095.0,4095.0,3472.0,3007.0,2529.0,-0.88,9.96,3.76,0.01,-0.02,-0.19,0.0,k
2918.0,2915.0,898.0,4095.0,4095.0,3463.0,3003.0,2529.0,-0.51,9.9,3.62,-0.04,-0.05,-0.07,0.0,k
2912.0,2906.0,890.0,4095.0,4095.0,3469.0,3008.0,2525.0,0.02,9.82,3.79,0.01,-0.01,-0.1,0.0,k
2910.0,2915.0,898.0,4095.0,4095.0,3471.0,3013.0,2532.0,-0.26,9.9,3.66,0.03,0.02,-0.21,0.0,k
2901.0,2915.0,895.0,4095.0,4095.0,3503.0,3042.0,2559.0,-0.17,9.82,3.88,0.03,0.02,-0.16,0.0,k
2905.0,2913.0,897.0,4095.0,4095.0,3504.0,3042.0,2559.0,-0.29,9.99,3.87,0.03,-0.02,-0.18,0.0,k
2903.0,2910.0,893.0,4095.0,4095.0,3495.0,3039.0,2559.0,-0.33,9.83,3.66,-0.01,0.03,-0.14,0.0,k
2907.0,2920.0,896.0,4095.0,4095.0,3509.0,3045.0,2559.0,-0.4,9.96,3.97,0.0,0.01,-0.15,0.0,k
2906.0,2918.0,893.0,4095.0,4095.0,3511.0,3055.0,2559.0,-0.36,9.85,3.92,0.05,-0.01,-0.14,0.0,k
2911.0,2917.0,895.0,4095.0,4095.0,3509.0,3043.0,2559.0,-0.29,9.86,3.76,-0.0,0.01,-0.12,0.0,k
2905.0,2915.0,896.0,4095.0,4095.0,3505.0,3042.0,2559.0,-0.24,9.9,3.96,0.02,-0.04,-0.14,0.0,k
2898.0,2914.0,887.0,4095.0,4095.0,3504.0,3042.0,2559.0,-0.2,9.94,3.83,0.03,0.01,-0.15,0.0,k
2908.0,2926.0,895.0,4095.0,4095.0,3518.0,3047.0,2559.0,-0.27,9.86,3.86,0.03,-0.01,-0.16,0.0,k
2902.0,2918.0,893.0,4095.0,4095.0,3501.0,3044.0,2559.0,-0.32,9.84,3.93,0.04,-0.01,-0.15,0.0,k
2901.0,2917.0,894.0,4095.0,4095.0,3499.0,3041.0,2559.0,-0.4,9.92,3.82,0.04,-0.01,-0.15,0.0,k
2908.0,2917.0,889.0,4095.0,4095.0,3514.0,3047.0,2559.0,-0.24,9.93,3.64,0.05,-0.02,-0.11,0.0,k
2901.0,2918.0,895.0,4095.0,4095.0,3507.0,3043.0,2559.0,-0.03,9.88,3.55,0.01,0.03,-0.13,0.0,k
2907.0,2916.0,892.0,4095.0,4095.0,3520.0,3049.0,2559.0,-0.06,9.93,3.69,0.01,0.0,-0.16,0.0,k
2907.0,2913.0,897.0,4095.0,4095.0,3519.0,3046.0,2559.0,-0.24,9.86,3.74,0.02,-0.02,-0.19,0.0,k
2897.0,2918.0,899.0,4095.0,4095.0,3504.0,3041.0,2559.0,-0.37,9.89,3.77,-0.0,-0.07,-0.19,0.0,k
2911.0,2916.0,887.0,4095.0,4095.0,3517.0,3047.0,2559.0,-0.45,9.8,3.95,-0.02,-0.03,-0.17,0.0,k
2896.0,2909.0,898.0,4095.0,4095.0,3508.0,3043.0,2559.0,-0.44,9.86,3.99,0.03,0.01,-0.15,0.0,k
2902.0,2916.0,893.0,4095.0,4095.0,3520.0,3047.0,2559.0,-0.45,9.83,3.86,0.06,0.02,-0.15,0.0,k
2899.0,2921.0,895.0,4095.0,4095.0,3520.0,3053.0,2559.0,-0.51,9.94,3.59,0.03,-0.01,-0.11,0.0,k
2919.0,2917.0,883.0,4093.0,4095.0,3720.0,3084.0,2614.0,-0.47,9.94,3.43,0.06,0.01,-0.18,0.0,k
2919.0,2917.0,883.0,4093.0,4095.0,3720.0,3084.0,2614.0,-0.47,9.94,3.43,0.06,0.01,-0.18,0.0,k
2918.0,2917.0,889.0,4095.0,4095.0,3723.0,3083.0,2611.0,-0.49,9.96,3.31,0.03,0.04,-0.16,0.0,k
2916.0,2926.0,895.0,4095.0,4095.0,3707.0,3071.0,2611.0,-0.48,9.92,3.35,0.0,0.03,-0.14,0.0,k
2921.0,2915.0,894.0,4089.0,4095.0,3711.0,3086.0,2608.0,-0.27,9.89,3.42,-0.01,0.0,-0.15,0.0,k
2914.0,2904.0,894.0,4095.0,4095.0,3716.0,3071.0,2613.0,-0.17,9.85,3.64,-0.04,-0.02,-0.16,0.0,k
2914.0,2918.0,892.0,4086.0,4095.0,3722.0,3082.0,2615.0,-0.3,9.89,3.7,-0.04,-0.04,-0.16,0.0,k
2924.0,2917.0,889.0,4095.0,4095.0,3728.0,3089.0,2619.0,-0.39,9.88,3.75,-0.01,-0.03,-0.16,0.0,k
2927.0,2921.0,895.0,4095.0,4095.0,3731.0,3088.0,2623.0,-0.36,9.9,3.93,0.01,0.0,-0.16,0.0,k
2927.0,2926.0,885.0,4095.0,4095.0,3747.0,3088.0,2618.0,-0.36,9.9,3.64,0.04,0.01,-0.14,0.0,k
2925.0,2917.0,887.0,4093.0,4095.0,3734.0,3087.0,2617.0,-0.17,9.92,3.48,0.02,0.02,-0.14,0.0,k
2914.0,2913.0,880.0,4095.0,4095.0,3735.0,3086.0,2618.0,-0.24,9.93,3.63,0.03,0.02,-0.18,0.0,k
2924.0,2911.0,883.0,4081.0,4095.0,3713.0,3071.0,2618.0,-0.31,9.84,3.51,0.02,0.02,-0.18,0.0,k
2923.0,2914.0,887.0,4095.0,4095.0,3715.0,3083.0,2613.0,-0.49,9.9,3.69,-0.0,0.01,-0.19,0.0,k
2928.0,2917.0,881.0,4095.0,4095.0,3729.0,3091.0,2615.0,-0.49,9.9,3.47,-0.01,-0.03,-0.16,0.0,k
2915.0,2918.0,886.0,4093.0,4095.0,3729.0,3088.0,2621.0,-0.45,9.95,3.72,-0.04,-0.03,-0.14,0.0,k
2924.0,2925.0,882.0,4095.0,4095.0,3729.0,3089.0,2618.0,-0.25,9.85,3.98,-0.04,-0.01,-0.12,0.0,k
2921.0,2919.0,883.0,4095.0,4095.0,3726.0,3086.0,2615.0,-0.15,9.91,3.92,0.0,-0.0,-0.14,0.0,k
2923.0,2922.0,880.0,4095.0,4095.0,3733.0,3090.0,2621.0,-0.28,9.8,3.86,0.03,0.01,-0.17,0.0,k
2921.0,2923.0,883.0,4095.0,4095.0,3725.0,3088.0,2621.0,-0.39,9.94,3.61,0.06,-0.0,-0.18,0.0,k
2929.0,2925.0,2954.0,4095.0,4095.0,4095.0,3028.0,2659.0,-0.21,9.99,3.41,0.06,-0.02,-0.2,0.0,k
2937.0,2917.0,2939.0,4095.0,4095.0,4095.0,3024.0,2662.0,-0.25,9.83,3.39,0.02,-0.03,-0.19,0.0,k
2930.0,2925.0,2950.0,4095.0,4095.0,4095.0,3033.0,2666.0,-0.25,9.99,3.47,0.02,-0.01,-0.16,0.0,k
2928.0,2928.0,2944.0,4095.0,4095.0,4095.0,3026.0,2663.0,-0.09,9.89,3.52,-0.03,0.0,-0.12,0.0,k
2932.0,2913.0,2943.0,4095.0,4095.0,4095.0,3031.0,2667.0,0.06,9.97,3.71,0.01,-0.02,-0.13,0.0,k
2933.0,2922.0,2951.0,4095.0,4095.0,4095.0,3030.0,2667.0,0.13,9.8,3.67,-0.01,0.03,-0.16,0.0,k
2935.0,2922.0,2945.0,4095.0,4095.0,4095.0,3029.0,2663.0,-0.03,9.95,3.6,0.03,-0.02,-0.21,0.0,k
2939.0,2928.0,2955.0,4095.0,4095.0,4095.0,3037.0,2669.0,-0.31,9.81,3.59,0.01,0.04,-0.21,0.0,k
2928.0,2921.0,2948.0,4095.0,4095.0,4095.0,3037.0,2671.0,-0.35,9.97,3.55,0.02,-0.03,-0.18,0.0,k
2933.0,2915.0,2942.0,4095.0,4095.0,4095.0,3035.0,2667.0,-0.29,9.83,3.47,-0.04,0.03,-0.14,0.0,k
2932.0,2925.0,2944.0,4095.0,4095.0,4095.0,3036.0,2669.0,-0.22,9.89,3.88,-0.05,-0.06,-0.12,0.0,k
2927.0,2921.0,2943.0,4095.0,4095.0,4095.0,3031.0,2669.0,0.01,9.86,4.04,-0.01,-0.03,-0.12,0.0,k
2941.0,2926.0,2953.0,4095.0,4095.0,4095.0,3045.0,2672.0,0.01,9.8,4.0,0.04,0.01,-0.15,0.0,k
2935.0,2925.0,2945.0,4095.0,4095.0,4095.0,3040.0,2672.0,-0.17,9.91,3.75,0.09,0.01,-0.2,0.0,k
2931.0,2928.0,2956.0,4095.0,4095.0,4095.0,3040.0,2672.0,-0.4,9.95,3.44,0.08,0.01,-0.22,0.0,k
2930.0,2923.0,2953.0,4095.0,4095.0,4095.0,3045.0,2670.0,-0.71,9.98,3.49,0.06,0.0,-0.13,0.0,k
2938.0,2921.0,2948.0,4095.0,4095.0,4095.0,3038.0,2672.0,-0.2,9.85,3.41,0.03,0.02,-0.09,0.0,k
2930.0,2919.0,2945.0,4095.0,4095.0,4095.0,3034.0,2670.0,-0.15,9.93,3.63,0.02,-0.01,-0.09,0.0,k
2933.0,2927.0,2959.0,4095.0,4095.0,4095.0,3042.0,2673.0,0.11,9.95,3.5,0.07,0.01,-0.11,0.0,k
2939.0,2926.0,2941.0,4095.0,4095.0,4095.0,3041.0,2676.0,0.0,9.82,3.34,0.04,0.08,-0.15,0.0,k
2925.0,2924.0,2935.0,4095.0,4095.0,3996.0,3090.0,2675.0,-0.54,9.73,3.16,-0.05,-0.14,-0.15,0.0,k
2927.0,2928.0,2940.0,4095.0,4095.0,4015.0,3102.0,2678.0,-0.55,9.81,2.98,-0.0,-0.01,-0.17,0.0,k
2928.0,2928.0,2943.0,4095.0,4095.0,4014.0,3102.0,2683.0,-0.72,9.74,3.03,0.02,0.02,-0.16,0.0,k
2923.0,2928.0,2939.0,4094.0,4095.0,4021.0,3103.0,2686.0,-0.57,9.86,2.76,0.02,0.03,-0.13,0.0,k
2928.0,2927.0,2945.0,4095.0,4095.0,4016.0,3098.0,2678.0,-0.53,9.76,2.67,0.02,0.04,-0.14,0.0,k
2928.0,2929.0,2943.0,4095.0,4095.0,4016.0,3102.0,2682.0,-0.52,9.78,2.74,0.03,0.0,-0.18,0.0,k
2923.0,2928.0,2941.0,4095.0,4095.0,4016.0,3102.0,2678.0,-0.61,9.85,2.67,-0.0,0.0,-0.19,0.0,k
2923.0,2927.0,2938.0,4095.0,4095.0,4016.0,3104.0,2685.0,-0.73,9.76,2.83,-0.01,-0.0,-0.17,0.0,k
2924.0,2928.0,2932.0,4091.0,4095.0,4016.0,3095.0,2682.0,-0.56,9.71,2.88,0.0,-0.05,-0.19,0.0,k
2928.0,2927.0,2950.0,4095.0,4095.0,4001.0,3103.0,2678.0,-0.82,9.78,3.08,-0.01,-0.01,-0.17,0.0,k
2932.0,2928.0,2942.0,4095.0,4095.0,4054.0,3105.0,2699.0,-0.75,9.81,2.83,0.0,0.05,-0.1,0.0,k
2930.0,2927.0,2943.0,4095.0,4095.0,4095.0,3105.0,2702.0,-0.65,9.82,2.71,0.02,0.04,-0.12,0.0,k
2926.0,2919.0,2935.0,4095.0,4095.0,4095.0,3102.0,2704.0,-0.55,9.85,2.76,0.0,-0.0,-0.12,0.0,k
2934.0,2922.0,2941.0,4095.0,4095.0,4095.0,3098.0,2704.0,-0.38,9.79,2.84,-0.02,0.0,-0.15,0.0,k
2931.0,2925.0,2939.0,4095.0,4095.0,4095.0,3095.0,2700.0,-0.51,9.94,3.09,0.03,0.02,-0.19,0.0,k
2928.0,2924.0,2938.0,4095.0,4095.0,4095.0,3095.0,2701.0,-0.88,9.77,2.94,-0.03,0.03,-0.15,0.0,k
2928.0,2922.0,2939.0,4095.0,4095.0,4095.0,3085.0,2698.0,-0.66,9.83,2.94,0.06,-0.05,-0.17,0.0,k
2935.0,2923.0,2943.0,4095.0,4095.0,4095.0,3093.0,2701.0,-0.66,9.75,2.8,0.0,-0.03,-0.13,0.0,k
2928.0,2927.0,2932.0,4095.0,4095.0,4095.0,3088.0,2699.0,-0.6,9.86,2.89,0.02,-0.05,-0.13,0.0,k
2930.0,2928.0,2941.0,4095.0,4095.0,4095.0,3095.0,2702.0,-0.52,9.71,3.15,-0.02,0.04,-0.13,0.0,k
2937.0,2915.0,2927.0,4095.0,4095.0,4095.0,3137.0,2789.0,-0.29,9.89,2.91,0.02,-0.03,-0.15,0.0,k
2932.0,2912.0,2917.0,4095.0,4095.0,4095.0,3133.0,2785.0,-0.23,9.78,2.89,-0.01,-0.0,-0.15,0.0,k
2937.0,2908.0,2927.0,4095.0,4095.0,4095.0,3137.0,2789.0,-0.28,9.9,2.92,0.03,-0.03,-0.16,0.0,k
2928.0,2897.0,2917.0,4095.0,4095.0,4095.0,3135.0,2793.0,-0.36,9.82,2.85,0.04,-0.0,-0.14,0.0,k
2938.0,2912.0,2928.0,4095.0,4095.0,4095.0,3139.0,2795.0,-0.27,9.87,2.78,0.04,0.01,-0.13,0.0,k
2930.0,2907.0,2922.0,4095.0,4095.0,4095.0,3134.0,2790.0,-0.19,9.84,2.77,0.04,-0.01,-0.14,0.0,k
2935.0,2911.0,2921.0,4095.0,4095.0,4095.0,3130.0,2794.0,-0.17,9.94,2.53,-0.02,0.02,-0.14,0.0,k
2938.0,2911.0,2928.0,4095.0,4095.0,4095.0,3151.0,2799.0,-0.23,9.67,2.84,-0.11,-0.03,-0.12,0.0,k
2935.0,2912.0,2919.0,4095.0,4095.0,4095.0,3151.0,2800.0,-0.16,9.96,2.83,0.0,0.02,-0.15,0.0,k
2934.0,2902.0,2915.0,4095.0,4095.0,4095.0,3151.0,2799.0,-0.31,9.71,2.62,-0.05,0.01,-0.16,0.0,k
2933.0,2915.0,2925.0,4095.0,4095.0,4095.0,3152.0,2800.0,-0.54,9.94,2.99,-0.0,-0.04,-0.16,0.0,k
2934.0,2903.0,2916.0,4095.0,4095.0,4095.0,3149.0,2801.0,-0.31,9.75,3.06,-0.04,-0.03,-0.13,0.0,k
2941.0,2903.0,2925.0,4095.0,4095.0,4095.0,3147.0,2800.0,-0.22,9.86,3.2,0.0,-0.03,-0.13,0.0,k
2941.0,2909.0,2923.0,4095.0,4095.0,4095.0,3154.0,2801.0,-0.14,9.79,3.11,0.01,0.01,-0.13,0.0,k
2940.0,2910.0,2921.0,4095.0,4095.0,4095.0,3148.0,2800.0,-0.1,9.85,3.04,0.05,0.01,-0.15,0.0,k
2930.0,2902.0,2919.0,4095.0,4095.0,4095.0,3150.0,2799.0,-0.21,9.79,3.0,0.05,-0.02,-0.17,0.0,k
2939.0,2902.0,2927.0,4095.0,4095.0,4095.0,3151.0,2805.0,-0.21,9.9,2.77,0.03,0.0,-0.16,0.0,k
2929.0,2911.0,2915.0,4095.0,4095.0,4095.0,3152.0,2798.0,-0.38,9.81,2.9,0.05,-0.03,-0.16,0.0,k
2928.0,2910.0,2925.0,4095.0,4095.0,4095.0,3144.0,2800.0,-0.26,9.92,2.74,0.01,0.01,-0.14,0.0,k
2931.0,2899.0,2919.0,4095.0,4095.0,4095.0,3143.0,2797.0,-0.26,9.81,2.86,0.03,-0.02,-0.14,0.0,k
2932.0,2905.0,4095.0,4095.0,4095.0,4095.0,3084.0,2711.0,0.33,9.89,3.73,-0.0,0.02,-0.16,0.0,k
2928.0,2911.0,4095.0,4095.0,4095.0,4095.0,3088.0,2720.0,0.36,9.96,3.79,0.0,-0.04,-0.15,0.0,k
2933.0,2918.0,4095.0,4095.0,4095.0,4095.0,3088.0,2729.0,0.46,9.91,3.91,0.01,-0.05,-0.15,0.0,k
2930.0,2911.0,4095.0,4095.0,4095.0,4095.0,3083.0,2722.0,0.52,9.86,3.82,-0.01,-0.01,-0.14,0.0,k
2928.0,2921.0,4095.0,4095.0,4095.0,4095.0,3086.0,2725.0,0.59,9.88,3.9,0.02,-0.03,-0.17,0.0,k
2929.0,2898.0,4095.0,4095.0,4095.0,4095.0,3088.0,2720.0,0.34,9.85,3.81,0.04,0.01,-0.17,0.0,k
2928.0,2914.0,4095.0,4095.0,4095.0,4095.0,3086.0,2720.0,0.4,9.96,3.61,0.05,-0.02,-0.18,0.0,k
2937.0,2903.0,4095.0,4095.0,4095.0,4095.0,3089.0,2720.0,0.23,9.86,3.61,-0.0,0.11,-0.15,0.0,k
2930.0,2912.0,4095.0,4095.0,4095.0,4095.0,3088.0,2721.0,0.43,9.91,3.81,-0.01,-0.01,-0.13,0.0,k
2927.0,2916.0,4095.0,4095.0,4095.0,4095.0,3088.0,2719.0,0.44,9.9,3.9,-0.0,-0.02,-0.15,0.0,k
2930.0,2916.0,4095.0,4095.0,4095.0,4095.0,3089.0,2727.0,0.42,9.93,3.88,-0.0,-0.03,-0.14,0.0,k
2927.0,2899.0,4095.0,4095.0,4095.0,4095.0,3088.0,2722.0,0.51,9.83,3.88,0.02,-0.05,-0.15,0.0,k
2929.0,2901.0,4095.0,4095.0,4095.0,4095.0,3083.0,2718.0,0.5,10.0,3.77,0.02,-0.03,-0.14,0.0,k
2922.0,2902.0,4095.0,4095.0,4095.0,4095.0,3088.0,2723.0,0.43,9.89,3.74,0.03,-0.02,-0.16,0.0,k
2929.0,2915.0,4095.0,4095.0,4095.0,4095.0,3091.0,2726.0,0.36,9.88,3.76,-0.01,-0.04,-0.15,0.0,k
2928.0,2915.0,4095.0,4095.0,4095.0,4095.0,3089.0,2726.0,0.44,9.88,3.83,0.03,-0.0,-0.16,0.0,k
2915.0,2909.0,4095.0,4095.0,4095.0,4095.0,3086.0,2731.0,0.38,9.9,3.79,-0.0,-0.04,-0.16,0.0,k
2929.0,2915.0,4095.0,4095.0,4095.0,4095.0,3088.0,2736.0,0.32,10.0,3.96,0.0,-0.0,-0.13,0.0,k
2928.0,2907.0,4095.0,4095.0,4095.0,4095.0,3095.0,2731.0,0.54,9.82,3.92,-0.01,-0.05,-0.13,0.0,k
2934.0,2908.0,4095.0,4095.0,4095.0,4095.0,3103.0,2739.0,0.47,9.91,3.94,0.03,0.02,-0.16,0.0,k
2884.0,2905.0,3126.0,3632.0,4095.0,3788.0,3177.0,2608.0,0.57,9.96,4.55,0.05,0.03,-0.17,0.0,k
2891.0,2907.0,3119.0,3642.0,4095.0,3787.0,3180.0,2607.0,0.68,9.89,4.29,0.06,0.04,-0.14,0.0,k
2893.0,2910.0,3121.0,3642.0,4095.0,3795.0,3184.0,2609.0,0.71,9.88,4.26,0.03,-0.01,-0.16,0.0,k
2886.0,2909.0,3129.0,3643.0,4095.0,3805.0,3184.0,2608.0,0.89,9.93,4.25,0.03,-0.03,-0.17,0.0,k
2895.0,2906.0,3125.0,3643.0,4095.0,3802.0,3185.0,2607.0,0.86,9.79,4.47,0.04,0.12,-0.19,0.0,k
2889.0,2903.0,3119.0,3645.0,4095.0,3793.0,3178.0,2608.0,0.72,9.98,4.25,0.06,0.02,-0.2,0.0,k
2893.0,2911.0,3129.0,3646.0,4095.0,3814.0,3184.0,2609.0,0.49,9.87,4.16,0.01,-0.04,-0.19,0.0,k
2885.0,2896.0,3127.0,3643.0,4095.0,3804.0,3172.0,2602.0,0.55,9.92,4.26,-0.01,-0.01,-0.16,0.0,k
2892.0,2898.0,3125.0,3648.0,4095.0,3803.0,3184.0,2606.0,0.72,9.9,4.29,-0.01,0.02,-0.16,0.0,k
2896.0,2902.0,3121.0,3645.0,4095.0,3814.0,3189.0,2606.0,0.63,9.86,4.45,-0.01,-0.02,-0.17,0.0,k
2887.0,2897.0,3120.0,3639.0,4095.0,3801.0,3184.0,2601.0,0.62,9.87,4.47,0.01,-0.03,-0.16,0.0,k
2893.0,2911.0,3127.0,3639.0,4095.0,3819.0,3184.0,2608.0,0.59,9.92,4.34,0.01,0.03,-0.16,0.0,k
2892.0,2903.0,3129.0,3639.0,4095.0,3814.0,3184.0,2608.0,0.6,9.9,4.43,0.01,0.05,-0.14,0.0,k
2881.0,2896.0,3118.0,3652.0,4095.0,3803.0,3183.0,2604.0,0.63,9.89,4.44,0.02,0.01,-0.14,0.0,k
2896.0,2903.0,3122.0,3647.0,4095.0,3821.0,3184.0,2604.0,0.64,9.8,4.39,0.0,0.02,-0.16,0.0,k
2887.0,2899.0,3123.0,3655.0,4095.0,3818.0,3184.0,2608.0,0.6,10.01,4.32,0.03,-0.03,-0.15,0.0,k
2890.0,2899.0,3125.0,3639.0,4095.0,3803.0,3184.0,2607.0,0.72,9.83,4.43,0.0,0.0,-0.13,0.0,k
2885.0,2906.0,3123.0,3637.0,4095.0,3811.0,3184.0,2607.0,0.86,9.92,4.62,0.0,0.01,-0.14,0.0,k
2894.0,2912.0,3120.0,3648.0,4095.0,3815.0,3185.0,2608.0,0.76,9.85,4.49,0.03,0.01,-0.16,0.0,k
2889.0,2901.0,3127.0,3643.0,4095.0,3812.0,3186.0,2608.0,0.61,9.9,4.47,0.05,0.03,-0.17,0.0,k
2901.0,2910.0,4079.0,4095.0,4095.0,3759.0,2999.0,2672.0,-0.11,9.99,3.95,0.07,-0.01,-0.21,0.0,k
2898.0,2903.0,4067.0,4095.0,4095.0,3741.0,2998.0,2665.0,-0.17,9.92,3.93,0.03,-0.01,-0.19,0.0,k
2897.0,2919.0,4080.0,4095.0,4095.0,3753.0,3003.0,2672.0,-0.21,9.92,3.94,0.0,-0.05,-0.18,0.0,k
2901.0,2919.0,4075.0,4095.0,4095.0,3760.0,3005.0,2666.0,-0.14,9.9,4.15,-0.01,-0.03,-0.17,0.0,k
2896.0,2923.0,4095.0,4095.0,4095.0,3749.0,3002.0,2665.0,-0.27,9.9,4.26,0.01,-0.05,-0.15,0.0,k
2896.0,2913.0,4058.0,4095.0,4095.0,3745.0,3002.0,2663.0,-0.07,9.88,4.26,-0.0,-0.02,-0.12,0.0,k
2896.0,2917.0,4071.0,4095.0,4095.0,3746.0,2997.0,2665.0,-0.12,9.88,4.35,0.06,-0.0,-0.14,0.0,k
2901.0,2923.0,4062.0,4095.0,4095.0,3754.0,3007.0,2671.0,0.09,9.86,4.06,0.02,-0.02,-0.13,0.0,k
2901.0,2917.0,4080.0,4095.0,4095.0,3757.0,3004.0,2667.0,0.09,9.92,4.17,0.03,0.0,-0.15,0.0,k
2906.0,2911.0,4062.0,4095.0,4095.0,3745.0,2998.0,2663.0,0.14,9.92,4.21,0.02,-0.0,-0.16,0.0,k
2901.0,2916.0,4057.0,4095.0,4095.0,3744.0,2998.0,2662.0,0.08,9.94,4.14,0.03,0.01,-0.17,0.0,k
2896.0,2913.0,4053.0,4095.0,4095.0,3750.0,3002.0,2663.0,0.04,9.89,4.11,0.03,-0.04,-0.17,0.0,k
2896.0,2910.0,4066.0,4095.0,4095.0,3748.0,2995.0,2665.0,-0.03,9.98,4.06,0.02,-0.02,-0.16,0.0,k
2898.0,2916.0,4027.0,4095.0,4095.0,3738.0,2998.0,2655.0,0.07,9.9,4.15,0.0,0.0,-0.12,0.0,k
2903.0,2928.0,4041.0,4095.0,4095.0,3760.0,3004.0,2662.0,0.16,10.01,4.16,0.02,-0.02,-0.16,0.0,k
2896.0,2903.0,4033.0,4095.0,4095.0,3746.0,2997.0,2659.0,0.03,9.86,4.1,0.01,-0.03,-0.16,0.0,k
2898.0,2911.0,4015.0,4095.0,4095.0,3741.0,2997.0,2661.0,0.01,9.96,4.15,-0.01,-0.01,-0.16,0.0,k
2897.0,2914.0,4033.0,4095.0,4095.0,3753.0,2997.0,2655.0,0.04,9.91,4.24,-0.01,0.0,-0.16,0.0,k
2899.0,2915.0,4034.0,4095.0,4095.0,3751.0,2999.0,2661.0,0.02,9.88,4.2,0.01,0.0,-0.16,0.0,k
2906.0,2923.0,4021.0,4095.0,4095.0,3758.0,3007.0,2655.0,-0.12,9.88,4.25,0.02,0.04,-0.16,0.0,k
2896.0,2962.0,1037.0,4079.0,4095.0,4095.0,2915.0,2583.0,0.26,9.8,4.38,0.1,-0.01,-0.13,0.0,k
2895.0,2961.0,1038.0,4093.0,4095.0,4095.0,2908.0,2559.0,0.38,9.96,4.29,0.08,0.01,-0.13,0.0,k
2896.0,2959.0,1037.0,4086.0,4095.0,4095.0,2914.0,2583.0,0.47,9.76,4.32,0.01,0.01,-0.09,0.0,k
2894.0,2974.0,1023.0,4095.0,4095.0,4095.0,2925.0,2588.0,0.55,10.29,4.55,-0.02,0.01,-0.14,0.0,k
2896.0,2962.0,1037.0,4086.0,4095.0,4095.0,2914.0,2559.0,0.47,9.49,4.41,0.07,0.02,-0.15,0.0,k
2898.0,2962.0,1042.0,4095.0,4095.0,4095.0,2923.0,2587.0,0.27,10.14,4.31,-0.03,-0.03,-0.19,0.0,k
2896.0,2971.0,1046.0,4095.0,4095.0,4095.0,2918.0,2592.0,0.47,9.94,4.68,-0.01,-0.01,-0.13,0.0,k
2894.0,2963.0,1042.0,4095.0,4095.0,4091.0,2922.0,2590.0,0.67,9.94,4.58,0.0,-0.06,-0.14,0.0,k
2896.0,2963.0,1043.0,4095.0,4095.0,4069.0,2921.0,2587.0,0.42,9.89,4.33,0.0,0.01,-0.16,0.0,k
2896.0,2975.0,1047.0,4095.0,4095.0,4066.0,2926.0,2583.0,0.5,9.87,4.52,-0.06,-0.12,-0.16,0.0,k
2894.0,2962.0,1046.0,4095.0,4095.0,4055.0,2918.0,2591.0,0.42,9.9,4.95,0.02,0.01,-0.16,0.0,k
2895.0,2966.0,1051.0,4089.0,4095.0,4055.0,2922.0,2590.0,0.56,9.75,4.61,0.0,-0.07,-0.16,0.0,k
2892.0,2963.0,1050.0,4095.0,4095.0,4051.0,2921.0,2592.0,0.37,9.96,4.29,0.03,-0.05,-0.19,0.0,k
2896.0,2975.0,1052.0,4095.0,4095.0,4071.0,2926.0,2596.0,0.41,9.82,4.66,-0.08,-0.03,-0.14,0.0,k
2883.0,2973.0,1051.0,4095.0,4095.0,4049.0,2922.0,2591.0,0.41,9.91,5.1,-0.02,-0.05,-0.15,0.0,k
2896.0,2972.0,1053.0,4095.0,4095.0,4061.0,2925.0,2594.0,0.42,9.8,4.99,0.01,-0.03,-0.14,0.0,k
2896.0,2974.0,1046.0,4095.0,4095.0,4039.0,2926.0,2595.0,0.39,9.88,4.83,0.01,-0.02,-0.11,0.0,k
2896.0,2979.0,1046.0,4095.0,4095.0,4045.0,2926.0,2594.0,0.47,9.78,4.78,0.06,0.01,-0.11,0.0,k
2887.0,2964.0,1055.0,4095.0,4095.0,4029.0,2925.0,2594.0,0.69,9.98,4.6,0.04,0.02,-0.09,0.0,k
2889.0,2971.0,1054.0,4095.0,4095.0,4020.0,2928.0,2595.0,0.82,9.89,4.43,0.03,-0.02,-0.12,0.0,k
2838.0,2949.0,3085.0,4095.0,4095.0,4095.0,2843.0,2531.0,0.71,9.59,5.13,-0.15,-0.24,-0.12,0.0,k
2855.0,2945.0,3043.0,4095.0,4095.0,4095.0,2853.0,2557.0,0.36,10.24,4.59,-0.26,0.31,-0.0,0.0,k
2902.0,2943.0,2988.0,4095.0,4095.0,4095.0,2878.0,2559.0,0.05,9.67,5.12,-0.22,-0.01,-0.01,0.0,k
2909.0,2931.0,2970.0,4095.0,4095.0,4095.0,2895.0,2607.0,0.15,9.85,5.31,-0.12,0.02,-0.04,0.0,k
2949.0,2935.0,2971.0,4095.0,4095.0,4095.0,2897.0,2614.0,0.64,9.81,5.13,0.05,0.08,-0.06,0.0,k
2937.0,2938.0,2987.0,4095.0,4095.0,4095.0,2895.0,2608.0,0.52,9.84,5.06,0.05,0.12,-0.18,0.0,k
2927.0,2941.0,2994.0,4095.0,4095.0,4095.0,2893.0,2599.0,0.53,9.86,5.14,0.06,-0.04,-0.16,0.0,k
2909.0,2940.0,3005.0,4095.0,4095.0,4095.0,2890.0,2591.0,0.68,9.97,4.86,0.09,0.0,-0.22,0.0,k
2912.0,2944.0,3018.0,4095.0,4095.0,4095.0,2890.0,2593.0,0.22,9.74,4.93,-0.02,-0.03,-0.14,0.0,k
2896.0,2934.0,3028.0,4095.0,4095.0,4095.0,2891.0,2601.0,0.18,9.93,5.04,-0.03,0.08,-0.12,0.0,k
2896.0,2943.0,3030.0,4095.0,4095.0,4095.0,2900.0,2603.0,0.16,9.7,5.34,0.04,0.09,-0.12,0.0,k
2896.0,2954.0,3043.0,4095.0,4095.0,4095.0,2896.0,2607.0,0.69,9.9,4.96,-0.02,-0.11,-0.14,0.0,k
2896.0,2954.0,3038.0,4095.0,4095.0,4095.0,2896.0,2602.0,0.4,9.94,5.12,0.08,0.02,-0.15,0.0,k
2897.0,2953.0,3042.0,4095.0,4095.0,4095.0,2896.0,2607.0,0.45,9.78,4.98,-0.02,-0.03,-0.13,0.0,k
2887.0,2955.0,3039.0,4095.0,4095.0,4095.0,2899.0,2608.0,0.45,9.93,5.14,0.04,-0.01,-0.17,0.0,k
2887.0,2951.0,3035.0,4095.0,4095.0,4095.0,2898.0,2609.0,0.45,9.71,4.98,-0.02,-0.0,-0.14,0.0,k
2886.0,2946.0,3029.0,4095.0,4095.0,4095.0,2896.0,2609.0,0.24,9.96,5.07,0.02,-0.05,-0.15,0.0,k
2883.0,2955.0,3034.0,4095.0,4095.0,4095.0,2901.0,2610.0,0.31,9.74,5.11,-0.01,0.04,-0.11,0.0,k
2886.0,2960.0,3037.0,4095.0,4095.0,4095.0,2896.0,2608.0,0.63,9.91,5.15,-0.01,-0.04,-0.16,0.0,k
2884.0,2954.0,3037.0,4095.0,4095.0,4095.0,2895.0,2605.0,0.45,9.79,5.11,0.03,-0.03,-0.17,0.0,k
2931.0,2928.0,3021.0,4095.0,4095.0,4095.0,2981.0,2704.0,0.22,9.89,4.55,0.09,-0.01,-0.18,0.0,k
2925.0,2928.0,3026.0,4095.0,4095.0,4083.0,2980.0,2704.0,0.33,9.92,4.27,0.04,-0.08,-0.19,0.0,k
2928.0,2928.0,3022.0,4095.0,4095.0,4095.0,2987.0,2704.0,0.34,10.02,4.6,-0.06,-0.01,-0.13,0.0,k
2931.0,2933.0,3024.0,4095.0,4095.0,4095.0,2990.0,2718.0,0.43,9.85,4.71,-0.06,0.0,-0.12,0.0,k
2923.0,2915.0,3018.0,4095.0,4095.0,4059.0,2977.0,2702.0,0.32,9.78,5.03,-0.01,0.01,-0.15,0.0,k
2929.0,2937.0,3024.0,4095.0,4095.0,4095.0,2988.0,2708.0,0.29,9.97,4.65,0.0,0.0,-0.13,0.0,k
2926.0,2930.0,3026.0,4095.0,4095.0,4095.0,2987.0,2705.0,0.53,9.95,4.41,-0.02,0.01,-0.13,0.0,k
2928.0,2933.0,3021.0,4095.0,4095.0,4091.0,2979.0,2702.0,0.62,9.91,4.57,-0.05,0.0,-0.17,0.0,k
2922.0,2931.0,3025.0,4095.0,4095.0,4095.0,2982.0,2704.0,0.44,9.88,4.8,0.02,0.03,-0.22,0.0,k
2928.0,2929.0,3018.0,4095.0,4095.0,4095.0,2987.0,2706.0,0.05,9.82,4.96,0.02,0.0,-0.21,0.0,k
2922.0,2928.0,3014.0,4095.0,4095.0,4091.0,2981.0,2704.0,0.1,9.94,4.82,0.08,0.04,-0.19,0.0,k
2929.0,2937.0,3025.0,4095.0,4095.0,4095.0,2987.0,2707.0,0.12,9.81,4.58,0.06,0.01,-0.16,0.0,k
2925.0,2928.0,3024.0,4095.0,4095.0,4095.0,2985.0,2709.0,0.31,9.9,4.58,0.06,-0.03,-0.16,0.0,k
2919.0,2925.0,3011.0,4095.0,4095.0,4054.0,2989.0,2705.0,0.31,9.82,4.72,0.08,-0.04,-0.19,0.0,k
2927.0,2935.0,3019.0,4095.0,4095.0,4043.0,2985.0,2702.0,0.11,9.91,4.58,0.03,-0.03,-0.18,0.0,k
2930.0,2930.0,3018.0,4095.0,4095.0,4055.0,2988.0,2705.0,0.11,9.85,4.72,-0.02,0.06,-0.16,0.0,k
2930.0,2931.0,3025.0,4095.0,4095.0,4062.0,2987.0,2706.0,0.18,9.85,4.74,0.01,0.06,-0.15,0.0,k
2934.0,2928.0,3024.0,4095.0,4095.0,4059.0,2991.0,2705.0,0.15,9.93,4.56,-0.01,0.04,-0.16,0.0,k
2930.0,2937.0,3031.0,4095.0,4095.0,4058.0,2989.0,2705.0,0.02,9.91,4.73,0.01,0.03,-0.12,0.0,k
2926.0,2921.0,3008.0,4095.0,4095.0,4039.0,2986.0,2706.0,0.1,9.84,4.66,0.05,0.1,-0.12,0.0,k
2887.0,2928.0,3024.0,4095.0,4095.0,4095.0,2962.0,2695.0,0.51,9.89,4.53,-0.03,-0.02,-0.13,0.0,k
2891.0,2937.0,3026.0,4095.0,4095.0,4095.0,2954.0,2688.0,0.63,9.93,4.6,0.03,-0.08,-0.14,0.0,k
2889.0,2930.0,3026.0,4095.0,4095.0,4095.0,2963.0,2690.0,0.72,9.94,4.41,-0.01,0.0,-0.12,0.0,k
2895.0,2925.0,3023.0,4095.0,4095.0,4095.0,2962.0,2687.0,0.76,9.94,4.56,-0.02,-0.04,-0.15,0.0,k
2888.0,2928.0,3024.0,4095.0,4095.0,4095.0,2970.0,2693.0,0.69,9.87,4.71,0.0,0.04,-0.16,0.0,k
2878.0,2925.0,3024.0,4095.0,4095.0,4095.0,2961.0,2692.0,0.51,9.95,4.6,0.03,-0.08,-0.15,0.0,k
2884.0,2926.0,3018.0,4095.0,4095.0,4095.0,2962.0,2686.0,0.48,9.88,4.64,0.05,-0.21,-0.16,0.0,k
2883.0,2928.0,3019.0,4095.0,4095.0,4022.0,2965.0,2682.0,0.94,10.0,4.28,0.04,-0.08,-0.15,0.0,k
2892.0,2928.0,3021.0,4095.0,4095.0,4033.0,2973.0,2688.0,0.74,9.92,4.5,0.04,-0.0,-0.17,0.0,k
2883.0,2928.0,3024.0,4095.0,4095.0,4033.0,2970.0,2688.0,0.79,9.92,4.54,-0.03,0.05,-0.16,0.0,k
2882.0,2928.0,3024.0,4095.0,4095.0,4034.0,2973.0,2692.0,0.53,9.86,4.89,-0.0,-0.01,-0.21,0.0,k
2881.0,2933.0,3028.0,4095.0,4095.0,4017.0,2970.0,2688.0,0.58,9.83,4.78,-0.01,-0.04,-0.2,0.0,k
2892.0,2931.0,3025.0,4095.0,4095.0,4027.0,2975.0,2697.0,0.37,9.89,4.55,0.06,-0.03,-0.2,0.0,k
2884.0,2933.0,3024.0,4095.0,4095.0,4029.0,2976.0,2692.0,0.05,9.93,4.36,0.03,-0.05,-0.13,0.0,k
2891.0,2930.0,3022.0,4095.0,4095.0,4013.0,2972.0,2688.0,0.88,9.97,3.96,-0.01,-0.31,-0.11,0.0,k
2880.0,2934.0,3024.0,4095.0,4095.0,4015.0,2980.0,2687.0,0.48,9.79,4.73,-0.04,0.18,-0.09,0.0,k
2885.0,2938.0,3021.0,4095.0,4095.0,3988.0,2989.0,2662.0,0.82,10.03,4.44,-0.0,0.02,-0.12,0.0,k
2882.0,2938.0,3023.0,4095.0,4095.0,3981.0,2992.0,2655.0,0.65,9.76,4.51,-0.02,0.07,-0.16,0.0,k
2886.0,2937.0,3021.0,4095.0,4095.0,3983.0,3003.0,2659.0,0.66,9.99,4.52,-0.05,-0.08,-0.15,0.0,k
2883.0,2943.0,3021.0,4095.0,4095.0,3984.0,3007.0,2651.0,0.6,9.81,4.77,-0.03,0.07,-0.16,0.0,k
2896.0,2934.0,2949.0,4095.0,4095.0,4095.0,3062.0,2615.0,0.61,9.97,4.32,-0.0,-0.03,-0.13,0.0,k
2896.0,2930.0,2953.0,4095.0,4095.0,4095.0,3067.0,2613.0,0.79,9.99,4.32,0.04,-0.01,-0.14,0.0,k
2899.0,2930.0,2944.0,4095.0,4095.0,4095.0,3058.0,2615.0,0.77,9.94,4.21,0.03,-0.01,-0.16,0.0,k
2895.0,2933.0,2946.0,4095.0,4095.0,4095.0,3056.0,2615.0,0.55,9.86,4.33,-0.0,-0.04,-0.16,0.0,k
2901.0,2925.0,2942.0,4095.0,4095.0,4095.0,3056.0,2610.0,0.65,9.92,4.48,0.04,-0.07,-0.18,0.0,k
2896.0,2927.0,2937.0,4095.0,4095.0,4095.0,3042.0,2609.0,0.82,9.86,4.38,-0.01,-0.03,-0.09,0.0,k
2898.0,2928.0,2944.0,4095.0,4095.0,4095.0,3050.0,2621.0,0.58,9.94,4.43,0.04,0.03,-0.14,0.0,k
2894.0,2928.0,2945.0,4095.0,4095.0,4095.0,3053.0,2619.0,0.86,9.79,4.15,0.01,-0.0,-0.15,0.0,k
2897.0,2932.0,2959.0,4095.0,4095.0,4095.0,3055.0,2624.0,0.63,9.92,4.49,0.04,-0.01,-0.17,0.0,k
2891.0,2928.0,2943.0,4095.0,4095.0,4095.0,3051.0,2619.0,0.56,9.96,4.29,0.02,-0.03,-0.14,0.0,k
2897.0,2931.0,2951.0,4095.0,4095.0,4095.0,3041.0,2624.0,0.69,9.92,4.16,0.03,-0.08,-0.13,0.0,k
2898.0,2933.0,2949.0,4095.0,4095.0,4095.0,3037.0,2622.0,0.75,9.85,4.31,0.01,0.02,-0.14,0.0,k
2894.0,2928.0,2938.0,4095.0,4095.0,4095.0,3039.0,2624.0,0.68,9.97,4.13,0.06,0.03,-0.14,0.0,k
2896.0,2929.0,2945.0,4095.0,4095.0,4095.0,3043.0,2628.0,0.69,9.95,4.05,0.02,-0.01,-0.15,0.0,k
2895.0,2939.0,2939.0,4095.0,4095.0,4095.0,3040.0,2629.0,0.79,10.02,4.11,-0.01,-0.05,-0.16,0.0,k
2896.0,2926.0,2944.0,4095.0,4095.0,4095.0,3039.0,2626.0,0.64,9.88,4.25,-0.0,-0.01,-0.18,0.0,k
2896.0,2928.0,2942.0,4095.0,4095.0,4095.0,3039.0,2627.0,0.75,9.95,4.22,-0.03,-0.04,-0.17,0.0,k
2891.0,2933.0,2943.0,4095.0,4095.0,4095.0,3047.0,2634.0,0.7,9.85,4.36,-0.0,-0.03,-0.17,0.0,k
2896.0,2935.0,2950.0,4095.0,4095.0,4095.0,3047.0,2635.0,0.71,9.91,4.36,-0.02,-0.02,-0.18,0.0,k
2909.0,2932.0,2943.0,4095.0,4095.0,4095.0,3043.0,2636.0,0.52,9.9,4.35,0.02,-0.01,-0.16,0.0,k
2919.0,2927.0,2949.0,4095.0,4095.0,4095.0,3086.0,2673.0,0.52,9.91,4.5,0.01,-0.04,-0.15,0.0,k
2911.0,2925.0,2943.0,4095.0,4095.0,4095.0,3066.0,2662.0,0.56,9.78,4.45,0.02,-0.04,-0.17,0.0,k
2916.0,2928.0,2945.0,4095.0,4095.0,4095.0,3067.0,2667.0,0.49,9.91,4.31,0.06,-0.08,-0.15,0.0,k
2910.0,2927.0,2944.0,4095.0,4095.0,4095.0,3059.0,2667.0,0.44,9.79,4.43,0.04,0.01,-0.17,0.0,k
2913.0,2939.0,2941.0,4095.0,4095.0,4095.0,3056.0,2668.0,0.39,10.12,4.15,0.09,0.07,-0.13,0.0,k
2907.0,2923.0,2942.0,4095.0,4095.0,4095.0,3054.0,2667.0,0.59,9.74,4.11,0.05,-0.04,-0.11,0.0,k
2911.0,2931.0,2945.0,4095.0,4095.0,4095.0,3059.0,2672.0,0.59,10.07,4.06,0.05,0.01,-0.15,0.0,k
2907.0,2919.0,2942.0,4095.0,4095.0,4095.0,3056.0,2672.0,0.45,9.87,3.99,0.04,-0.01,-0.13,0.0,k
2906.0,2928.0,2938.0,4095.0,4095.0,4095.0,3063.0,2675.0,0.58,9.98,4.02,0.0,0.0,-0.15,0.0,k
2901.0,2931.0,2943.0,4095.0,4095.0,4095.0,3062.0,2673.0,0.48,9.9,4.21,0.0,-0.03,-0.16,0.0,k
2912.0,2937.0,2944.0,4095.0,4095.0,4095.0,3062.0,2677.0,0.45,10.0,4.12,0.0,-0.05,-0.14,0.0,k
2903.0,2928.0,2947.0,4095.0,4095.0,4095.0,3071.0,2675.0,0.55,9.9,4.18,-0.03,-0.06,-0.13,0.0,k
2914.0,2925.0,2934.0,4095.0,4095.0,4095.0,3062.0,2675.0,0.64,9.98,4.28,0.03,-0.04,-0.15,0.0,k
2908.0,2938.0,2941.0,4095.0,4095.0,4095.0,3066.0,2679.0,0.52,9.86,4.15,0.02,-0.02,-0.15,0.0,k
2902.0,2926.0,2949.0,4095.0,4095.0,4095.0,3062.0,2675.0,0.48,9.97,4.1,0.04,-0.04,-0.15,0.0,k
2898.0,2931.0,2949.0,4095.0,4095.0,4095.0,3070.0,2678.0,0.47,9.91,4.1,-0.0,-0.06,-0.16,0.0,k
2898.0,2928.0,2944.0,4095.0,4095.0,4095.0,3065.0,2678.0,0.57,9.93,4.18,0.0,0.01,-0.16,0.0,k
2915.0,2926.0,2946.0,4095.0,4095.0,4095.0,3063.0,2678.0,0.58,9.91,4.11,-0.03,-0.07,-0.13,0.0,k
2913.0,2928.0,2945.0,4095.0,4095.0,4095.0,3066.0,2679.0,0.6,9.89,4.42,-0.02,-0.09,-0.15,0.0,k
2914.0,2925.0,2942.0,4095.0,4095.0,4095.0,3060.0,2678.0,0.54,9.98,4.31,-0.01,-0.11,-0.16,0.0,k
2906.0,2939.0,2943.0,4095.0,4095.0,4095.0,3087.0,2679.0,0.66,9.83,4.3,0.01,0.03,-0.14,0.0,k
2896.0,2931.0,2939.0,4095.0,4095.0,4095.0,3069.0,2686.0,0.54,9.94,4.16,-0.03,0.02,-0.13,0.0,k
2902.0,2933.0,2949.0,4095.0,4095.0,4095.0,3079.0,2690.0,0.51,9.9,4.21,-0.02,-0.01,-0.15,0.0,k
2897.0,2941.0,2950.0,4095.0,4095.0,4095.0,3071.0,2687.0,0.51,10.0,4.14,0.0,-0.1,-0.19,0.0,k
2902.0,2943.0,2946.0,4095.0,4095.0,4095.0,3071.0,2677.0,0.59,9.86,4.38,0.02,-0.05,-0.26,0.0,k
2901.0,2938.0,2947.0,4095.0,4095.0,4095.0,3071.0,2681.0,0.43,10.01,4.38,-0.04,-0.06,-0.16,0.0,k
2900.0,2945.0,2955.0,4095.0,4095.0,4095.0,3071.0,2687.0,0.66,9.89,4.29,0.02,-0.02,-0.19,0.0,k
2899.0,2949.0,2954.0,4095.0,4095.0,4095.0,3071.0,2688.0,0.18,9.89,4.21,-0.03,-0.02,-0.13,0.0,k
2902.0,2944.0,2947.0,4095.0,4095.0,4080.0,3054.0,2661.0,0.67,9.94,4.2,-0.06,-0.12,-0.17,0.0,k
2896.0,2951.0,2954.0,4095.0,4095.0,4095.0,3051.0,2647.0,0.19,9.88,4.65,-0.08,-0.12,-0.14,0.0,k
2893.0,2954.0,2948.0,4095.0,4095.0,4087.0,3045.0,2657.0,0.69,9.96,4.68,-0.02,-0.24,-0.13,0.0,k
2897.0,2954.0,2960.0,4095.0,4095.0,4095.0,3050.0,2668.0,0.37,9.78,4.8,0.03,-0.18,-0.19,0.0,k
2896.0,2951.0,2972.0,4095.0,4095.0,4031.0,3056.0,2629.0,0.5,9.97,4.41,-0.02,-0.32,-0.21,0.0,k
2893.0,2963.0,3006.0,4095.0,4095.0,3949.0,3053.0,2559.0,0.72,9.88,4.31,-0.1,-0.43,-0.32,0.0,k
2895.0,2954.0,2843.0,4095.0,4095.0,3889.0,3061.0,2492.0,0.09,10.01,4.58,-0.05,-0.23,-0.2,0.0,k
2894.0,2938.0,2822.0,4095.0,4095.0,3901.0,3098.0,2499.0,0.43,9.76,4.73,-0.02,-0.13,-0.19,0.0,k
2896.0,2938.0,2802.0,4095.0,4095.0,3856.0,3091.0,2499.0,0.39,9.99,5.02,0.03,0.01,-0.19,0.0,k
2897.0,2949.0,2799.0,4095.0,4095.0,3870.0,3097.0,2506.0,0.36,9.63,4.93,0.11,0.06,-0.18,0.0,k
2887.0,2943.0,2797.0,4095.0,4095.0,3852.0,3088.0,2510.0,0.14,10.03,4.39,0.1,0.04,-0.25,0.0,k
2899.0,2945.0,2800.0,4095.0,4095.0,3845.0,3088.0,2518.0,0.36,9.91,4.19,0.08,0.08,-0.18,0.0,k
2864.0,2928.0,4095.0,4095.0,4095.0,3757.0,3044.0,2559.0,0.09,9.86,4.65,0.02,0.07,-0.16,0.0,k
2868.0,2926.0,4095.0,4095.0,4095.0,3760.0,3047.0,2590.0,0.26,9.89,4.31,0.07,-0.02,-0.17,0.0,k
2875.0,2928.0,4095.0,4095.0,4095.0,3774.0,3058.0,2594.0,0.14,9.97,4.36,0.0,0.11,-0.16,0.0,k
2879.0,2917.0,4095.0,4095.0,4095.0,3792.0,3056.0,2601.0,0.37,9.96,4.76,0.08,0.05,-0.14,0.0,k
2896.0,2919.0,4095.0,4095.0,4095.0,3866.0,3062.0,2608.0,0.03,10.01,4.48,0.09,0.28,-0.14,0.0,k
2887.0,2928.0,4095.0,4095.0,4095.0,3897.0,3058.0,2609.0,0.49,9.76,4.19,0.01,0.09,-0.09,0.0,k
2896.0,2928.0,4095.0,4095.0,4095.0,3935.0,3063.0,2613.0,0.23,9.98,4.49,-0.01,0.23,-0.12,0.0,k
2891.0,2927.0,4095.0,4095.0,4095.0,3952.0,3058.0,2615.0,0.44,9.83,4.62,0.05,0.04,-0.15,0.0,k
2893.0,2919.0,4095.0,4095.0,4095.0,3952.0,3057.0,2619.0,0.48,9.92,4.32,0.04,0.01,-0.17,0.0,k
2895.0,2927.0,4095.0,4095.0,4095.0,3943.0,3062.0,2615.0,0.19,9.97,4.32,0.08,-0.03,-0.2,0.0,k
2890.0,2926.0,4095.0,4095.0,4095.0,3952.0,3062.0,2614.0,0.06,9.78,4.19,0.05,-0.02,-0.17,0.0,k
2887.0,2925.0,4095.0,4095.0,4095.0,3957.0,3063.0,2623.0,0.18,9.99,4.13,0.03,-0.0,-0.16,0.0,k
2885.0,2925.0,4095.0,4095.0,4095.0,3952.0,3059.0,2617.0,0.21,9.87,4.32,-0.02,-0.01,-0.15,0.0,k
2883.0,2928.0,4095.0,4095.0,4095.0,3966.0,3066.0,2624.0,0.36,9.89,4.55,-0.04,-0.11,-0.12,0.0,k
2895.0,2919.0,4095.0,4095.0,4095.0,3955.0,3059.0,2619.0,0.59,9.69,4.89,0.02,-0.02,-0.18,0.0,k
2893.0,2937.0,4095.0,4095.0,4095.0,3964.0,3069.0,2631.0,0.35,10.24,3.9,0.1,-0.01,-0.25,0.0,k
2883.0,2931.0,4095.0,4095.0,4095.0,3979.0,3088.0,2637.0,-0.05,9.79,3.73,0.03,0.03,-0.21,0.0,k
2885.0,2928.0,4095.0,4095.0,4095.0,3984.0,3088.0,2637.0,-0.09,9.95,4.55,-0.06,0.06,-0.19,0.0,k
2887.0,2926.0,4095.0,4095.0,4095.0,3954.0,3085.0,2625.0,-0.04,9.82,4.74,-0.02,0.08,-0.13,0.0,k
2880.0,2928.0,4095.0,4095.0,4095.0,3958.0,3088.0,2627.0,0.21,9.93,4.62,0.05,0.03,-0.14,0.0,k
2855.0,2931.0,3056.0,4095.0,4095.0,3932.0,3248.0,2683.0,0.05,9.94,4.23,0.01,0.0,-0.12,0.0,k
2863.0,2918.0,3056.0,4095.0,4095.0,3919.0,3248.0,2693.0,0.13,9.86,4.36,-0.0,0.0,-0.11,0.0,k
2853.0,2919.0,3062.0,4095.0,4095.0,3920.0,3248.0,2707.0,0.28,9.98,4.3,0.01,0.04,-0.15,0.0,k
2859.0,2927.0,3057.0,4095.0,4095.0,3923.0,3249.0,2704.0,0.15,9.89,4.33,0.03,-0.01,-0.13,0.0,k
2862.0,2926.0,3068.0,4095.0,4095.0,3932.0,3251.0,2711.0,0.19,9.89,4.42,-0.01,-0.05,-0.16,0.0,k
2863.0,2928.0,3067.0,4095.0,4095.0,3935.0,3250.0,2710.0,0.03,9.92,4.46,0.05,0.02,-0.17,0.0,k
2851.0,2917.0,3071.0,4095.0,4095.0,3930.0,3250.0,2711.0,-0.06,9.89,4.32,0.04,0.04,-0.16,0.0,k
2866.0,2927.0,3067.0,4095.0,4095.0,3923.0,3244.0,2713.0,0.16,9.98,4.21,0.02,-0.01,-0.13,0.0,k
2855.0,2923.0,3070.0,4095.0,4095.0,3942.0,3258.0,2725.0,0.21,9.87,4.32,0.02,0.01,-0.15,0.0,k
2857.0,2928.0,3082.0,4095.0,4095.0,3939.0,3248.0,2725.0,0.2,10.05,4.2,0.04,-0.04,-0.17,0.0,k
2850.0,2928.0,3069.0,4095.0,4095.0,3927.0,3243.0,2721.0,0.07,9.83,4.13,0.02,0.03,-0.15,0.0,k
2857.0,2928.0,3065.0,4095.0,4095.0,3936.0,3250.0,2725.0,0.17,10.0,4.18,-0.03,0.04,-0.14,0.0,k
2859.0,2927.0,3088.0,4095.0,4095.0,3946.0,3263.0,2734.0,0.11,9.79,4.43,0.01,0.0,-0.16,0.0,k
2850.0,2921.0,3071.0,4095.0,4095.0,3920.0,3251.0,2732.0,0.05,9.95,4.28,0.0,-0.09,-0.2,0.0,k
2844.0,2919.0,3087.0,4095.0,4095.0,3917.0,3248.0,2731.0,0.05,9.91,4.07,0.03,-0.05,-0.18,0.0,k
2833.0,2924.0,3091.0,4095.0,4095.0,3929.0,3250.0,2736.0,-0.04,9.91,4.07,-0.04,0.05,-0.15,0.0,k
2833.0,2930.0,3090.0,4095.0,4095.0,3913.0,3245.0,2734.0,0.13,9.97,4.25,-0.03,0.05,-0.14,0.0,k
2832.0,2928.0,3099.0,4095.0,4095.0,3802.0,3190.0,2667.0,-0.1,9.86,4.45,0.03,0.12,-0.15,0.0,k
2836.0,2935.0,3117.0,4095.0,4095.0,3697.0,3081.0,2545.0,0.04,9.9,4.34,0.01,0.03,-0.15,0.0,k
2825.0,2934.0,3147.0,4095.0,4095.0,3535.0,2907.0,2417.0,0.11,10.01,4.35,0.04,-0.08,-0.12,0.0,k
2780.0,2928.0,3246.0,4095.0,4095.0,4095.0,2947.0,2550.0,0.42,9.76,4.83,-0.03,0.08,-0.13,0.0,k
2807.0,2931.0,3247.0,4095.0,4095.0,4095.0,2941.0,2554.0,0.15,10.09,4.71,-0.08,0.08,-0.12,0.0,k
2815.0,2930.0,3241.0,4095.0,4095.0,4095.0,2935.0,2554.0,0.18,9.66,5.0,0.01,0.02,-0.04,0.0,k
2827.0,2921.0,3246.0,4095.0,4095.0,4095.0,2929.0,2557.0,0.4,10.06,4.57,0.03,0.03,-0.1,0.0,k
2821.0,2928.0,3239.0,4095.0,4095.0,4095.0,2928.0,2557.0,0.27,9.66,4.77,0.07,0.09,-0.06,0.0,k
2814.0,2935.0,3248.0,4095.0,4095.0,4095.0,2928.0,2555.0,0.63,10.02,4.5,0.05,0.04,-0.14,0.0,k
2807.0,2929.0,3238.0,4095.0,4095.0,4095.0,2927.0,2550.0,0.63,9.83,4.55,0.04,-0.05,-0.16,0.0,k
2811.0,2930.0,3247.0,4095.0,4095.0,4095.0,2925.0,2551.0,0.45,9.98,4.55,-0.03,0.01,-0.13,0.0,k
2805.0,2933.0,3243.0,4095.0,4095.0,4095.0,2927.0,2551.0,0.41,9.88,4.73,0.02,0.05,-0.15,0.0,k
2801.0,2925.0,3237.0,4095.0,4095.0,4095.0,2919.0,2550.0,0.52,9.86,4.83,-0.01,-0.04,-0.14,0.0,k
2811.0,2928.0,3245.0,4095.0,4095.0,4095.0,2927.0,2549.0,0.47,9.92,4.82,0.01,-0.0,-0.15,0.0,k
2815.0,2943.0,3229.0,4095.0,4095.0,4095.0,2928.0,2554.0,0.44,9.89,4.63,0.01,-0.01,-0.13,0.0,k
2827.0,2930.0,3234.0,4095.0,4095.0,4095.0,2926.0,2553.0,0.48,9.87,4.68,0.02,-0.04,-0.14,0.0,k
2841.0,2943.0,3249.0,4095.0,4095.0,4095.0,2922.0,2559.0,0.6,9.82,4.64,0.01,0.03,-0.14,0.0,k
2846.0,2931.0,3223.0,4095.0,4095.0,4095.0,2927.0,2558.0,0.77,9.74,5.13,0.1,-0.08,-0.31,0.0,k
2864.0,2929.0,3239.0,4095.0,4095.0,4095.0,2930.0,2559.0,0.44,9.78,4.55,0.03,0.07,-0.21,0.0,k
2863.0,2938.0,3237.0,4095.0,4095.0,4095.0,2927.0,2559.0,0.11,9.78,4.75,0.1,0.14,-0.2,0.0,k
2861.0,2930.0,3235.0,4095.0,4095.0,4095.0,2928.0,2559.0,-0.37,9.87,3.75,-0.03,0.32,-0.04,0.0,k
2864.0,2938.0,3239.0,4095.0,4095.0,4095.0,2928.0,2559.0,0.39,9.7,3.88,-0.12,0.16,-0.08,0.0,k
2864.0,2938.0,3227.0,4095.0,4095.0,4095.0,2928.0,2559.0,0.0,9.93,5.19,-0.11,0.17,-0.21,0.0,k
2835.0,2939.0,3233.0,4095.0,4095.0,4095.0,2943.0,2559.0,0.97,9.78,4.46,-0.07,-0.28,0.02,0.0,k
2832.0,2943.0,3219.0,4095.0,4095.0,4095.0,2950.0,2559.0,1.62,9.8,4.63,0.1,-0.37,-0.13,0.0,k
2837.0,2944.0,3216.0,4095.0,4095.0,4095.0,2960.0,2559.0,1.52,9.84,4.91,-0.01,-0.31,-0.26,0.0,k
2834.0,2953.0,3216.0,4095.0,4095.0,4095.0,2977.0,2559.0,1.26,9.92,4.64,0.15,-0.28,-0.36,0.0,k
2837.0,2944.0,3246.0,4095.0,4095.0,4095.0,3017.0,2591.0,0.8,9.95,4.63,-0.23,0.33,-0.08,0.0,k
2835.0,2938.0,3233.0,4095.0,4095.0,4048.0,3009.0,2559.0,0.45,9.64,5.46,0.03,-0.05,-0.13,0.0,k
2835.0,2943.0,3251.0,4095.0,4095.0,3887.0,2989.0,2556.0,1.23,10.04,4.57,-0.14,-0.23,-0.21,0.0,k
2832.0,2941.0,3239.0,4095.0,4095.0,3851.0,2947.0,2541.0,0.54,9.74,5.56,0.03,0.07,-0.27,0.0,k
2831.0,2949.0,3234.0,4095.0,4095.0,3750.0,2864.0,2471.0,0.8,10.05,5.3,0.01,-0.06,-0.23,0.0,k
2807.0,2950.0,3218.0,4095.0,4095.0,3665.0,2800.0,2414.0,1.06,10.06,4.91,0.1,0.18,-0.2,0.0,k
2783.0,2948.0,3215.0,4075.0,4095.0,3641.0,2770.0,2388.0,0.87,9.44,4.8,0.13,0.1,-0.25,0.0,k
2782.0,2946.0,3210.0,4054.0,4095.0,3638.0,2758.0,2387.0,0.68,10.2,4.68,-0.02,-0.13,-0.26,0.0,k
2785.0,2944.0,3216.0,4067.0,4095.0,3648.0,2762.0,2402.0,0.81,9.85,5.05,0.05,0.01,-0.21,0.0,k
2769.0,2945.0,3223.0,4095.0,4095.0,3679.0,2761.0,2398.0,0.29,10.2,4.99,0.19,-0.12,-0.19,0.0,k
2751.0,2933.0,3221.0,4095.0,4095.0,3710.0,2767.0,2380.0,0.79,9.86,4.22,0.21,-0.27,-0.25,0.0,k
2747.0,2931.0,3216.0,4095.0,4095.0,3727.0,2770.0,2379.0,0.71,10.33,4.39,0.05,-0.19,-0.19,0.0,k
2742.0,2928.0,3238.0,4095.0,4095.0,3718.0,2771.0,2357.0,1.14,9.84,4.72,0.16,-0.18,-0.32,0.0,k
2727.0,2928.0,3248.0,4095.0,4095.0,3728.0,2769.0,2341.0,0.47,9.66,4.93,0.33,-0.17,-0.4,0.0,k
2736.0,2932.0,3263.0,4095.0,4095.0,3679.0,2762.0,2329.0,0.17,9.93,4.28,0.44,-0.44,-0.29,0.0,k
2733.0,2928.0,3247.0,4095.0,4095.0,3505.0,2721.0,2301.0,0.05,9.84,3.84,0.37,-0.26,-0.19,0.0,k
2858.0,2925.0,3278.0,4095.0,4095.0,4095.0,2818.0,2479.0,0.55,9.47,4.18,0.39,-0.06,-0.05,0.0,k
2853.0,2926.0,3271.0,4095.0,4095.0,4095.0,2819.0,2480.0,0.63,9.87,3.99,0.21,-0.1,-0.08,0.0,k
2855.0,2928.0,3287.0,4095.0,4095.0,4095.0,2823.0,2486.0,0.28,9.64,4.63,-0.16,-0.01,-0.08,0.0,k
2850.0,2928.0,3285.0,4095.0,4095.0,4095.0,2827.0,2490.0,0.57,10.33,4.84,-0.27,0.21,-0.07,0.0,k
2832.0,2929.0,3280.0,4095.0,4095.0,4095.0,2832.0,2483.0,0.29,9.2,4.88,-0.11,-0.09,-0.06,0.0,k
2823.0,2933.0,3277.0,4095.0,4095.0,4095.0,2824.0,2485.0,0.62,10.08,4.48,-0.06,-0.02,0.02,0.0,k
2816.0,2934.0,3280.0,4095.0,4095.0,4095.0,2832.0,2483.0,0.98,10.06,5.05,0.06,0.02,0.02,0.0,k
2815.0,2935.0,3285.0,4095.0,4095.0,4095.0,2832.0,2491.0,1.39,9.97,4.7,0.11,-0.07,0.0,0.0,k
2802.0,2933.0,3284.0,4095.0,4095.0,4095.0,2830.0,2489.0,1.87,10.08,4.1,0.11,-0.17,-0.15,0.0,k
2791.0,2928.0,3290.0,4095.0,4095.0,4095.0,2832.0,2495.0,1.28,9.99,4.09,-0.05,-0.07,-0.24,0.0,k
2778.0,2929.0,3285.0,4095.0,4095.0,4095.0,2836.0,2496.0,0.86,10.01,4.25,-0.08,-0.06,-0.22,0.0,k
2778.0,2928.0,3286.0,4041.0,4095.0,4095.0,2836.0,2497.0,1.08,9.86,4.42,-0.04,0.01,-0.21,0.0,k
2775.0,2929.0,3275.0,3967.0,4095.0,4095.0,2830.0,2494.0,0.64,10.19,4.38,-0.03,-0.03,-0.24,0.0,k
2774.0,2931.0,3280.0,3859.0,4095.0,4095.0,2832.0,2497.0,1.06,9.71,4.63,-0.05,-0.05,-0.18,0.0,k
2789.0,2937.0,3280.0,3884.0,4095.0,4095.0,2834.0,2503.0,0.8,9.82,4.47,0.01,0.18,-0.18,0.0,k
2797.0,2928.0,3281.0,3923.0,4095.0,4095.0,2834.0,2500.0,1.07,9.88,4.68,0.03,0.14,-0.17,0.0,k
2805.0,2928.0,3273.0,3964.0,4095.0,4095.0,2828.0,2497.0,0.78,9.88,4.55,0.02,0.08,-0.12,0.0,k
2827.0,2929.0,3283.0,4001.0,4095.0,4095.0,2832.0,2505.0,0.91,9.98,4.53,0.01,0.22,-0.13,0.0,k
2823.0,2929.0,3277.0,4059.0,4095.0,4095.0,2827.0,2497.0,0.56,10.08,4.59,-0.0,0.21,-0.12,0.0,k
2826.0,2930.0,3274.0,4093.0,4095.0,4095.0,2830.0,2498.0,1.01,9.89,4.47,-0.0,0.04,-0.08,0.0,k
2838.0,2930.0,2842.0,4095.0,4095.0,3781.0,2906.0,2726.0,0.63,9.75,4.48,0.09,-0.06,-0.26,0.0,k
2863.0,2940.0,2843.0,4095.0,4095.0,3815.0,2886.0,2671.0,0.53,9.96,4.43,0.07,0.1,-0.17,0.0,k
2877.0,2934.0,2873.0,4095.0,4095.0,3830.0,2857.0,2657.0,0.98,9.64,4.67,-0.06,-0.06,-0.08,0.0,k
2896.0,2938.0,3165.0,4095.0,4095.0,3851.0,2839.0,2688.0,0.89,9.92,4.82,-0.07,0.33,-0.01,0.0,k
2903.0,2931.0,4095.0,4095.0,4095.0,3855.0,2823.0,2666.0,1.27,9.99,4.98,-0.05,-0.07,-0.13,0.0,k
2916.0,2934.0,4095.0,4095.0,4095.0,3844.0,2834.0,2684.0,0.91,10.3,5.11,-0.01,0.02,-0.11,0.0,k
2917.0,2932.0,4095.0,4095.0,4095.0,3794.0,2849.0,2719.0,1.44,9.88,4.96,-0.0,-0.12,-0.13,0.0,k
2922.0,2938.0,4095.0,4095.0,4095.0,3791.0,2859.0,2759.0,1.19,9.92,4.98,-0.02,0.07,-0.16,0.0,k
2915.0,2935.0,4095.0,4095.0,4095.0,3800.0,2864.0,2774.0,1.37,9.64,5.0,0.0,0.02,-0.17,0.0,k
2924.0,2933.0,4095.0,4095.0,4095.0,3792.0,2861.0,2774.0,1.13,9.78,4.97,0.02,-0.01,-0.2,0.0,k
2911.0,2930.0,4095.0,4095.0,4095.0,3803.0,2864.0,2775.0,0.91,9.89,4.96,0.03,-0.01,-0.16,0.0,k
2909.0,2930.0,4095.0,4095.0,4095.0,3787.0,2857.0,2770.0,1.04,9.94,4.98,0.02,-0.04,-0.13,0.0,k
2922.0,2937.0,4095.0,4095.0,4095.0,3794.0,2862.0,2778.0,1.28,9.84,4.87,0.01,0.0,-0.17,0.0,k
2915.0,2935.0,4095.0,4095.0,4095.0,3792.0,2864.0,2777.0,1.07,9.77,4.9,0.03,0.04,-0.17,0.0,k
2917.0,2935.0,4095.0,4095.0,4095.0,3775.0,2862.0,2782.0,0.94,9.86,5.04,-0.02,-0.06,-0.17,0.0,k
2907.0,2934.0,4095.0,4095.0,4095.0,3759.0,2853.0,2783.0,0.95,9.91,5.02,0.01,-0.03,-0.17,0.0,k
2909.0,2937.0,4095.0,4095.0,4095.0,3760.0,2864.0,2783.0,0.96,9.74,4.98,0.0,0.01,-0.16,0.0,k
2914.0,2933.0,4095.0,4095.0,4095.0,3766.0,2864.0,2784.0,1.05,9.87,5.01,0.02,0.04,-0.14,0.0,k
2915.0,2942.0,4095.0,4095.0,4095.0,3760.0,2865.0,2781.0,1.13,9.89,4.9,-0.01,-0.03,-0.16,0.0,k
2919.0,2939.0,4095.0,4095.0,4095.0,3759.0,2864.0,2785.0,1.02,9.93,5.19,0.02,0.02,-0.18,0.0,k
2900.0,2965.0,2991.0,4095.0,4095.0,4095.0,2960.0,2857.0,1.53,9.86,5.39,0.09,-0.04,-0.21,0.0,k
2896.0,2966.0,2995.0,4095.0,4095.0,4095.0,2963.0,2861.0,1.4,9.75,5.29,0.03,0.02,-0.2,0.0,k
2896.0,2967.0,2989.0,4095.0,4095.0,4095.0,2962.0,2859.0,1.22,9.76,5.33,0.05,0.01,-0.22,0.0,k
2882.0,2964.0,2991.0,4095.0,4095.0,4095.0,2961.0,2862.0,1.01,9.74,5.25,0.03,-0.0,-0.22,0.0,k
2886.0,2964.0,2994.0,4095.0,4095.0,4095.0,2966.0,2863.0,1.03,9.73,5.28,0.06,-0.02,-0.21,0.0,k
2885.0,2964.0,2989.0,4095.0,4095.0,4095.0,2960.0,2857.0,1.05,9.92,5.23,0.04,-0.01,-0.15,0.0,k
2890.0,2959.0,2994.0,4095.0,4095.0,4095.0,2965.0,2861.0,1.12,9.78,5.14,0.04,-0.07,-0.15,0.0,k
2871.0,2960.0,2998.0,4095.0,4095.0,4069.0,2960.0,2851.0,1.25,9.89,5.13,0.03,0.04,-0.15,0.0,k
2884.0,2960.0,3001.0,4095.0,4095.0,4077.0,2960.0,2858.0,1.34,10.16,4.89,0.02,0.06,-0.19,0.0,k
2885.0,2966.0,2999.0,4095.0,4095.0,4054.0,2963.0,2855.0,1.06,9.95,5.15,-0.0,0.02,-0.34,0.0,k
2880.0,2959.0,3007.0,4095.0,4095.0,4049.0,2960.0,2850.0,0.29,10.0,5.77,0.23,-0.0,-0.31,0.0,k
2880.0,2962.0,3011.0,4095.0,4095.0,4066.0,2966.0,2869.0,-0.17,9.78,4.86,0.42,-0.12,-0.39,0.0,k
2880.0,2960.0,3006.0,4095.0,4095.0,4065.0,2964.0,2869.0,-1.02,9.81,4.0,0.45,-0.26,-0.33,0.0,k
2880.0,2962.0,3007.0,4095.0,4095.0,4065.0,2964.0,2873.0,0.04,10.35,3.68,0.12,-0.05,-0.09,0.0,k
2880.0,2960.0,3009.0,4095.0,4095.0,4062.0,2966.0,2878.0,0.52,10.17,4.43,0.13,-0.04,-0.06,0.0,k
2883.0,2960.0,3027.0,4095.0,4095.0,4061.0,2969.0,2881.0,1.08,10.07,4.12,0.13,-0.13,-0.13,0.0,k
2880.0,2960.0,3037.0,4095.0,4095.0,4039.0,2971.0,2884.0,0.78,9.53,4.13,0.19,-0.22,-0.15,0.0,k
2880.0,2959.0,3041.0,4095.0,4095.0,4074.0,2975.0,2889.0,0.51,9.66,4.02,-0.02,-0.2,-0.12,0.0,k
2867.0,2960.0,3047.0,4095.0,4095.0,4065.0,2976.0,2891.0,0.02,9.77,4.43,-0.02,-0.07,-0.07,0.0,k
2864.0,2960.0,3042.0,4095.0,4095.0,4052.0,2975.0,2893.0,0.38,9.56,4.76,-0.07,0.06,0.02,0.0,k
