hall_1,hall_2,hall_3,flex_t,flex_i,flex_m,flex_r,flex_p,accel_x,accel_y,accel_z,gyro_x,gyro_y,gyro_z,hand,sign
2928.0,2991.0,893.0,4095.0,4095.0,4095.0,3443.0,3583.0,-0.29,9.55,3.43,0.07,-0.32,-0.21,1.0,k
2931.0,2987.0,894.0,4095.0,4095.0,4095.0,3443.0,3578.0,-0.82,9.68,2.81,0.05,-0.11,-0.26,1.0,k
2928.0,2987.0,889.0,4095.0,4095.0,4095.0,3453.0,3600.0,-1.51,9.5,2.83,0.05,-0.05,-0.31,1.0,k
2917.0,2975.0,891.0,4095.0,4095.0,4095.0,3446.0,3583.0,-1.94,9.52,2.99,-0.02,-0.26,-0.21,1.0,k
2919.0,2983.0,889.0,4095.0,4095.0,4095.0,3447.0,3583.0,-1.12,9.45,3.04,0.06,-0.27,-0.2,1.0,k
2927.0,2980.0,895.0,4095.0,4095.0,4095.0,3447.0,3583.0,-1.4,9.6,2.6,0.0,-0.13,-0.25,1.0,k
2928.0,2986.0,887.0,4095.0,4095.0,4095.0,3443.0,3583.0,-1.45,9.46,2.57,-0.02,-0.15,-0.23,1.0,k
2918.0,2982.0,891.0,4095.0,4095.0,4095.0,3440.0,3583.0,-1.59,9.48,2.62,-0.07,-0.1,-0.24,1.0,k
2922.0,2982.0,883.0,4095.0,4095.0,4095.0,3446.0,3583.0,-1.87,9.46,2.73,-0.1,-0.12,-0.25,1.0,k
2923.0,2983.0,893.0,4095.0,4095.0,4095.0,3440.0,3581.0,-1.55,9.28,2.84,-0.07,-0.05,-0.25,1.0,k
2919.0,2983.0,897.0,4095.0,4095.0,4095.0,3442.0,3583.0,-2.39,9.57,2.79,-0.16,0.11,-0.2,1.0,k
2919.0,2992.0,887.0,4095.0,4095.0,4095.0,3440.0,3580.0,-1.71,9.1,3.11,0.06,0.14,-0.18,1.0,k
2919.0,2987.0,896.0,4095.0,4095.0,4095.0,3440.0,3575.0,-2.34,9.72,2.53,-0.23,0.04,-0.2,1.0,k
2919.0,2986.0,887.0,4095.0,4095.0,4095.0,3434.0,3572.0,-1.93,8.98,3.26,-0.0,-0.1,-0.3,1.0,k
2907.0,2977.0,891.0,4095.0,4095.0,4095.0,3435.0,3563.0,-2.63,9.55,3.09,-0.16,0.05,-0.21,1.0,k
2914.0,2981.0,894.0,4095.0,4095.0,4095.0,3440.0,3568.0,-2.4,9.02,2.98,-0.08,-0.13,-0.26,1.0,k
2913.0,2987.0,882.0,4095.0,4095.0,4095.0,3454.0,3568.0,-4.41,9.24,2.72,-0.25,0.15,-0.16,1.0,k
2915.0,2979.0,887.0,4095.0,4095.0,4095.0,3453.0,3574.0,-2.47,9.02,4.31,-0.2,-0.17,-0.03,1.0,k
2914.0,2990.0,883.0,4095.0,4095.0,4095.0,3455.0,3568.0,-1.69,9.71,4.94,0.08,0.01,-0.01,1.0,k
2915.0,2989.0,890.0,4095.0,4095.0,4095.0,3458.0,3559.0,-2.07,9.56,4.72,0.76,-0.5,-0.19,1.0,k
2906.0,2978.0,883.0,4095.0,4095.0,4095.0,3494.0,3568.0,-2.35,10.0,3.08,0.97,-0.27,-0.38,1.0,k
2905.0,2989.0,879.0,4095.0,4095.0,4095.0,3509.0,3583.0,-3.19,8.66,1.76,0.44,-0.25,-0.08,1.0,k
2905.0,2992.0,871.0,4095.0,4095.0,4095.0,3520.0,3583.0,-2.6,8.56,1.94,0.58,-0.42,-0.17,1.0,k
2895.0,2971.0,872.0,4095.0,4095.0,4095.0,3536.0,3600.0,-2.46,8.88,1.37,0.19,-0.49,-0.07,1.0,k
2906.0,2978.0,875.0,4095.0,4095.0,4095.0,3535.0,3583.0,-2.1,9.03,1.34,0.17,-0.41,-0.13,1.0,k
2901.0,2989.0,880.0,4095.0,4095.0,4095.0,3542.0,3605.0,-2.77,9.38,1.17,-0.07,-0.38,-0.17,1.0,k
2901.0,2983.0,875.0,4095.0,4095.0,4095.0,3546.0,3613.0,-3.12,9.16,1.74,-0.14,-0.13,-0.07,1.0,k
2894.0,2992.0,882.0,4095.0,4095.0,4095.0,3559.0,3633.0,-2.71,9.49,1.69,-0.55,-0.41,-0.22,1.0,k
2896.0,2979.0,873.0,4095.0,4095.0,4095.0,3552.0,3621.0,-2.35,8.77,2.93,0.11,0.04,-0.2,1.0,k
2893.0,2978.0,875.0,4095.0,4095.0,4095.0,3559.0,3623.0,-2.81,9.62,1.99,-0.01,-0.23,-0.24,1.0,k
2903.0,2992.0,880.0,4095.0,4095.0,4095.0,3563.0,3613.0,-2.65,9.58,1.86,-0.17,-0.23,-0.22,1.0,k
2896.0,2986.0,880.0,4095.0,4095.0,4095.0,3557.0,3625.0,-3.21,9.29,2.3,-0.24,-0.32,-0.15,1.0,k
2896.0,2983.0,875.0,4095.0,4095.0,4095.0,3542.0,3642.0,-2.7,10.27,2.55,-0.26,0.12,-0.15,1.0,k
2921.0,2982.0,867.0,4095.0,4095.0,4095.0,3546.0,3616.0,-3.42,9.26,3.13,-0.06,0.1,-0.25,1.0,k
2899.0,2966.0,882.0,4095.0,4095.0,4095.0,3537.0,3617.0,-3.47,9.67,2.51,0.35,-0.07,-0.15,1.0,k
2901.0,2975.0,871.0,4095.0,4095.0,4095.0,3537.0,3607.0,-3.63,9.64,1.53,0.22,-0.11,0.03,1.0,k
2919.0,2994.0,879.0,4095.0,4095.0,4095.0,3550.0,3602.0,-2.98,9.36,1.32,0.09,-0.19,0.19,1.0,k
2907.0,2981.0,877.0,4095.0,4095.0,4095.0,3536.0,3607.0,-2.67,9.02,1.51,-0.12,-0.08,0.09,1.0,k
2899.0,2981.0,879.0,4095.0,4095.0,4095.0,3542.0,3618.0,-3.22,8.77,1.63,-0.15,0.03,0.01,1.0,k
2906.0,2976.0,880.0,4095.0,4095.0,4095.0,3535.0,3610.0,-3.89,8.83,1.6,-0.23,0.23,-0.0,1.0,k
2915.0,2982.0,871.0,4095.0,4095.0,4095.0,3536.0,3624.0,-3.36,9.02,1.99,-0.13,0.38,-0.02,1.0,k
2899.0,2987.0,883.0,4095.0,4095.0,4095.0,3536.0,3625.0,-2.52,9.27,2.49,-0.19,0.43,-0.05,1.0,k
2919.0,2973.0,879.0,4095.0,4095.0,4095.0,3524.0,3613.0,-2.43,9.56,2.64,-0.11,0.61,-0.13,1.0,k
2912.0,2983.0,885.0,4095.0,4095.0,4095.0,3536.0,3616.0,-3.01,9.56,2.39,-0.07,0.46,-0.15,1.0,k
2919.0,2986.0,880.0,4095.0,4095.0,4095.0,3533.0,3622.0,-3.39,9.52,1.7,-0.09,0.63,0.04,1.0,k
2913.0,2978.0,879.0,4095.0,4095.0,4095.0,3517.0,3617.0,-2.5,8.27,2.75,-0.05,-0.27,-0.05,1.0,k
2913.0,2987.0,878.0,4095.0,4095.0,4095.0,3519.0,3615.0,-4.64,9.04,1.15,-0.24,0.99,0.35,1.0,k
2909.0,2982.0,870.0,4095.0,4095.0,4095.0,3523.0,3618.0,-3.63,9.08,1.27,-0.28,-0.07,0.35,1.0,k
2911.0,2986.0,876.0,4095.0,4095.0,4095.0,3523.0,3620.0,-1.49,8.91,1.33,-0.32,0.17,0.3,1.0,k
2915.0,2983.0,880.0,4095.0,4095.0,4095.0,3508.0,3610.0,-1.88,9.36,2.74,-0.47,-0.4,0.15,1.0,k
2913.0,2981.0,875.0,4095.0,4095.0,4095.0,3506.0,3619.0,-1.06,9.56,3.43,-0.09,0.26,0.73,1.0,k
2913.0,2986.0,875.0,4095.0,4095.0,4095.0,3472.0,3619.0,-0.7,9.16,3.21,0.25,-0.8,-0.3,1.0,k
2925.0,2981.0,876.0,4095.0,4095.0,4095.0,3472.0,3601.0,-2.23,9.47,1.97,0.07,-0.32,-0.1,1.0,k
2924.0,2977.0,878.0,4095.0,4095.0,4095.0,3470.0,3611.0,-2.83,9.22,1.71,-0.15,-0.29,-0.12,1.0,k
2923.0,2988.0,874.0,4095.0,4095.0,4095.0,3465.0,3608.0,-2.9,9.42,2.16,-0.2,-0.22,-0.05,1.0,k
2921.0,2981.0,880.0,4095.0,4095.0,4095.0,3458.0,3605.0,-2.8,9.24,2.76,-0.17,-0.55,0.05,1.0,k
2912.0,2961.0,882.0,4095.0,4095.0,4095.0,3454.0,3582.0,-1.04,9.67,2.73,-0.14,-0.26,0.31,1.0,k
2923.0,2975.0,874.0,4095.0,4095.0,4095.0,3450.0,3598.0,-1.0,9.46,3.01,-0.3,-0.03,0.38,1.0,k
2918.0,2981.0,877.0,4095.0,4095.0,4095.0,3463.0,3599.0,0.1,9.47,3.23,-0.13,0.08,0.3,1.0,k
2910.0,2977.0,880.0,4095.0,4095.0,4095.0,3475.0,3583.0,-0.57,9.91,3.17,0.11,-0.37,0.19,1.0,k
2911.0,2987.0,880.0,4095.0,4095.0,4095.0,3485.0,3581.0,-0.07,9.8,3.76,0.14,-1.23,-0.29,1.0,k
2917.0,2979.0,876.0,4095.0,4095.0,4095.0,3475.0,3583.0,-0.93,9.3,3.86,-0.0,-0.52,-0.1,1.0,k
2909.0,2976.0,880.0,4095.0,4095.0,4095.0,3489.0,3583.0,-1.58,9.17,3.08,0.25,-0.91,-0.3,1.0,k
2917.0,2979.0,877.0,4095.0,4095.0,4095.0,3495.0,3611.0,-2.1,9.24,2.31,0.05,-0.65,-0.1,1.0,k
2915.0,2983.0,869.0,4095.0,4095.0,4095.0,3495.0,3600.0,-0.58,9.53,2.68,-0.11,-0.96,-0.25,1.0,k
2923.0,2983.0,879.0,4095.0,4095.0,4095.0,3501.0,3607.0,-1.73,8.94,3.19,-0.01,-0.45,-0.37,1.0,k
2914.0,2982.0,880.0,4095.0,4095.0,4095.0,3494.0,3603.0,-2.64,9.13,2.86,0.01,-0.44,-0.42,1.0,k
2912.0,2987.0,874.0,4095.0,4095.0,4095.0,3490.0,3583.0,-2.79,9.02,2.48,-0.16,0.09,-0.38,1.0,k
2927.0,2976.0,866.0,4095.0,4095.0,4095.0,3499.0,3597.0,-3.7,9.12,2.36,-0.62,1.05,0.01,1.0,k
2915.0,2975.0,867.0,4095.0,4095.0,4095.0,3495.0,3615.0,-2.52,9.24,3.35,-0.97,2.1,0.55,1.0,k
2928.0,2973.0,881.0,4095.0,4095.0,4095.0,3499.0,3612.0,-2.52,9.63,3.88,-0.7,2.17,0.77,1.0,k
2916.0,2992.0,882.0,4095.0,4095.0,4095.0,3492.0,3617.0,-1.49,9.73,3.68,-0.3,1.58,0.46,1.0,k
2914.0,2976.0,873.0,4095.0,4095.0,4095.0,3482.0,3611.0,-2.05,9.62,2.82,-0.31,1.63,0.31,1.0,k
2915.0,2992.0,880.0,4095.0,4095.0,4095.0,3491.0,3615.0,-2.17,9.33,2.74,-0.37,1.16,0.38,1.0,k
2923.0,2982.0,879.0,4095.0,4095.0,4095.0,3475.0,3609.0,-2.14,9.01,3.33,-0.27,0.48,0.29,1.0,k
2925.0,2979.0,875.0,4095.0,4095.0,4095.0,3487.0,3623.0,-1.3,9.34,3.56,-0.25,0.35,0.24,1.0,k
2928.0,2983.0,875.0,4095.0,4095.0,4095.0,3472.0,3615.0,-4.14,8.84,3.09,-0.12,1.24,0.16,1.0,k
2921.0,2975.0,878.0,4095.0,4095.0,4095.0,3488.0,3617.0,-1.49,9.74,3.33,-0.25,1.06,0.21,1.0,k
2928.0,2974.0,879.0,4095.0,4095.0,4095.0,3478.0,3629.0,-1.57,9.12,3.84,-0.59,1.88,0.47,1.0,k
2921.0,2986.0,878.0,4095.0,4095.0,4095.0,3473.0,3631.0,-1.95,8.9,4.03,-0.49,2.08,0.56,1.0,k
2923.0,2975.0,881.0,4095.0,4095.0,4095.0,3474.0,3625.0,-2.49,8.97,3.63,-0.25,1.43,0.36,1.0,k
2925.0,2983.0,882.0,4095.0,4095.0,4095.0,3474.0,3636.0,-2.22,9.16,3.6,-0.09,0.59,0.29,1.0,k
2924.0,2983.0,878.0,4095.0,4095.0,4095.0,3470.0,3617.0,-2.02,9.23,3.37,-0.12,0.49,0.27,1.0,k
2928.0,2972.0,883.0,4095.0,4095.0,4095.0,3466.0,3630.0,-1.39,9.35,3.25,-0.1,0.57,0.26,1.0,k
2929.0,2983.0,875.0,4095.0,4095.0,4095.0,3466.0,3623.0,-1.38,9.55,3.05,-0.19,0.78,0.21,1.0,k
2933.0,2988.0,880.0,4095.0,4095.0,4095.0,3472.0,3632.0,-2.33,9.11,2.56,-0.16,0.81,0.19,1.0,k
2927.0,2977.0,887.0,4095.0,4095.0,4095.0,3463.0,3632.0,-1.4,9.45,2.91,-0.18,0.4,0.07,1.0,k
2927.0,2986.0,873.0,4095.0,4095.0,4095.0,3472.0,3643.0,-1.7,9.34,3.22,-0.22,0.41,0.07,1.0,k
2927.0,2982.0,880.0,4095.0,4095.0,4095.0,3462.0,3632.0,-2.05,9.27,3.4,-0.06,0.08,0.02,1.0,k
2934.0,2986.0,887.0,4095.0,4095.0,4095.0,3467.0,3633.0,-1.88,9.53,3.03,0.04,-0.08,-0.11,1.0,k
2928.0,2982.0,878.0,4095.0,4095.0,4095.0,3457.0,3641.0,-1.94,9.35,3.01,-0.01,-0.07,-0.04,1.0,k
2935.0,2986.0,877.0,4095.0,4095.0,4095.0,3463.0,3637.0,-1.7,9.43,2.84,-0.03,0.0,-0.08,1.0,k
2918.0,2977.0,880.0,4095.0,4095.0,4095.0,3464.0,3633.0,-1.88,9.34,2.83,-0.07,0.09,-0.06,1.0,k
2922.0,2985.0,880.0,4095.0,4095.0,4095.0,3463.0,3617.0,-1.89,9.31,2.97,-0.11,-0.07,-0.11,1.0,k
2930.0,2982.0,886.0,4095.0,4095.0,4095.0,3469.0,3635.0,-1.95,9.27,3.06,-0.03,-0.16,-0.12,1.0,k
2928.0,2975.0,880.0,4095.0,4095.0,4095.0,3463.0,3637.0,-2.53,9.23,2.97,0.06,-0.38,-0.14,1.0,k
2929.0,2985.0,887.0,4095.0,4095.0,4095.0,3474.0,3642.0,-1.9,9.95,2.32,0.35,-1.8,-0.21,1.0,k
2920.0,2976.0,880.0,4095.0,4095.0,4095.0,3479.0,3646.0,-2.92,9.29,2.68,-0.06,-1.08,-0.15,1.0,k
2927.0,2977.0,880.0,4095.0,4095.0,4095.0,3486.0,3648.0,-1.12,9.59,3.03,-0.07,-1.31,-0.01,1.0,k
2923.0,2979.0,883.0,4095.0,4095.0,4095.0,3474.0,3644.0,-1.83,9.44,3.24,-0.03,-1.48,-0.07,1.0,k
2935.0,2975.0,880.0,4095.0,4095.0,4095.0,3485.0,3651.0,-0.63,9.42,3.41,-0.07,-0.66,-0.05,1.0,k
2922.0,2992.0,882.0,4095.0,4095.0,4095.0,3485.0,3648.0,-0.91,9.45,3.3,0.0,-0.82,-0.06,1.0,k
2928.0,2987.0,880.0,4095.0,4095.0,4095.0,3494.0,3661.0,-1.39,9.15,3.23,-0.0,-0.55,-0.17,1.0,k
2923.0,2977.0,870.0,4095.0,4095.0,4095.0,3482.0,3654.0,-0.67,9.58,3.31,0.01,-0.67,-0.17,1.0,k
2933.0,2982.0,878.0,4095.0,4095.0,4095.0,3497.0,3659.0,-1.58,9.15,3.51,-0.0,-0.91,-0.13,1.0,k
2927.0,2987.0,875.0,4095.0,4095.0,4095.0,3494.0,3662.0,-0.31,9.56,3.58,0.05,-0.92,-0.25,1.0,k
2915.0,2980.0,878.0,4095.0,4095.0,4095.0,3487.0,3650.0,-0.24,9.6,3.83,-0.02,-0.85,-0.11,1.0,k
2928.0,2981.0,881.0,4095.0,4095.0,4095.0,3493.0,3657.0,-0.44,9.37,3.92,0.11,-0.54,-0.24,1.0,k
2927.0,2986.0,875.0,4095.0,4095.0,4095.0,3475.0,3650.0,-0.95,9.43,3.31,0.15,-0.66,-0.3,1.0,k
2914.0,2985.0,872.0,4095.0,4095.0,4095.0,3491.0,3663.0,-0.58,9.58,2.97,0.11,-1.18,-0.35,1.0,k
2929.0,2985.0,871.0,4095.0,4095.0,4095.0,3489.0,3664.0,-0.57,9.36,3.28,-0.18,-0.4,-0.12,1.0,k
2932.0,2989.0,874.0,4095.0,4095.0,4095.0,3485.0,3659.0,-1.23,9.26,3.58,-0.03,-0.63,-0.03,1.0,k
2922.0,2981.0,877.0,4095.0,4095.0,4095.0,3487.0,3655.0,0.59,9.56,3.64,-0.01,-0.95,-0.24,1.0,k
2928.0,2992.0,877.0,4095.0,4095.0,4095.0,3483.0,3650.0,0.18,9.49,3.54,0.07,-0.48,-0.24,1.0,k
2923.0,2986.0,876.0,4095.0,4095.0,4095.0,3475.0,3658.0,-0.86,9.5,3.4,-0.02,-0.47,-0.34,1.0,k
2922.0,2977.0,880.0,4095.0,4095.0,4095.0,3481.0,3653.0,-0.52,9.3,3.42,-0.0,-0.53,-0.29,1.0,k
2930.0,2982.0,870.0,4095.0,4095.0,4095.0,3487.0,3669.0,-0.72,9.34,3.46,-0.12,-0.21,-0.14,1.0,k
2914.0,2981.0,875.0,4095.0,4095.0,4095.0,3479.0,3664.0,-0.4,9.52,3.41,-0.06,-0.53,-0.17,1.0,k
2927.0,2989.0,881.0,4095.0,4095.0,4095.0,3475.0,3661.0,0.9,9.33,3.75,-0.14,-0.05,-0.18,1.0,k
2928.0,2983.0,872.0,4095.0,4095.0,4095.0,3482.0,3663.0,0.01,9.15,3.49,-0.02,0.02,-0.37,1.0,k
2937.0,2982.0,878.0,4095.0,4095.0,4095.0,3477.0,3655.0,-0.96,9.33,3.29,-0.09,-0.18,-0.55,1.0,k
2934.0,2998.0,882.0,4095.0,4095.0,4095.0,3481.0,3663.0,-1.34,9.28,3.41,-0.17,-0.21,-0.4,1.0,k
2926.0,2980.0,877.0,4095.0,4095.0,4095.0,3483.0,3665.0,-1.66,9.25,3.61,-0.16,-0.35,-0.28,1.0,k
2925.0,2976.0,875.0,4095.0,4095.0,4095.0,3474.0,3654.0,-1.47,9.17,3.85,-0.24,-0.25,-0.19,1.0,k
2930.0,2985.0,869.0,4095.0,4095.0,4095.0,3486.0,3651.0,-1.27,9.12,4.28,-0.06,-0.45,-0.18,1.0,k
2927.0,2987.0,875.0,4095.0,4095.0,4095.0,3488.0,3651.0,-0.64,9.27,4.22,-0.01,-0.6,-0.27,1.0,k
2922.0,2978.0,880.0,4095.0,4095.0,4095.0,3500.0,3639.0,-1.26,9.09,4.2,0.1,0.04,-0.13,1.0,k
2916.0,2986.0,877.0,4095.0,4095.0,4095.0,3489.0,3632.0,-0.98,9.26,3.96,0.35,-0.26,-0.36,1.0,k
2913.0,2992.0,885.0,4095.0,4095.0,4095.0,3506.0,3639.0,-1.52,9.35,3.41,0.03,-0.13,-0.16,1.0,k
2910.0,2975.0,879.0,4095.0,4095.0,4095.0,3494.0,3635.0,-1.19,9.44,3.57,0.15,0.06,-0.19,1.0,k
2907.0,2976.0,874.0,4095.0,4095.0,4095.0,3505.0,3619.0,-1.41,9.43,3.29,-0.05,-0.05,-0.11,1.0,k
2896.0,2990.0,880.0,4095.0,4095.0,4095.0,3511.0,3622.0,-1.37,8.85,3.64,0.3,0.42,-0.05,1.0,k
2896.0,2985.0,880.0,4095.0,4095.0,4095.0,3509.0,3622.0,-1.61,9.54,3.05,-0.09,0.41,-0.07,1.0,k
2899.0,2977.0,881.0,4095.0,4095.0,4095.0,3515.0,3610.0,-2.39,9.65,2.82,0.13,0.35,-0.31,1.0,k
2911.0,2975.0,886.0,4095.0,4095.0,4095.0,3532.0,3627.0,-2.22,9.22,2.97,-0.2,0.05,-0.26,1.0,k
2911.0,2975.0,880.0,4095.0,4095.0,4095.0,3518.0,3631.0,-1.62,9.23,3.18,-0.09,-0.01,-0.18,1.0,k
2916.0,2977.0,878.0,4095.0,4095.0,4095.0,3522.0,3618.0,-1.97,9.32,3.39,0.08,0.17,-0.17,1.0,k
2917.0,2978.0,875.0,4095.0,4095.0,4095.0,3521.0,3614.0,-1.86,9.08,3.51,0.17,0.07,-0.2,1.0,k
2918.0,2987.0,881.0,4095.0,4095.0,4095.0,3529.0,3617.0,-2.24,9.5,3.22,0.22,-0.0,-0.27,1.0,k
2912.0,2991.0,881.0,4095.0,4095.0,4095.0,3526.0,3626.0,-2.14,9.34,3.31,0.32,-0.0,-0.61,1.0,k
2901.0,2975.0,882.0,4095.0,4095.0,4095.0,3537.0,3611.0,-2.32,9.66,2.33,0.41,-0.32,-0.49,1.0,k
2919.0,2978.0,876.0,4095.0,4095.0,4095.0,3552.0,3620.0,-2.89,9.59,1.86,0.15,-0.06,-0.24,1.0,k
2923.0,2991.0,879.0,4095.0,4095.0,4095.0,3543.0,3615.0,-2.7,9.53,1.73,-0.02,-0.25,-0.01,1.0,k
2918.0,2983.0,880.0,4095.0,4095.0,4095.0,3552.0,3632.0,-2.35,9.14,2.18,-0.15,-0.2,0.05,1.0,k
2924.0,2976.0,880.0,4095.0,4095.0,4095.0,3549.0,3631.0,-2.35,9.16,2.79,-0.03,-0.18,-0.29,1.0,k
2913.0,2967.0,880.0,4095.0,4095.0,4095.0,3536.0,3628.0,-2.08,9.4,2.67,-0.11,-0.39,-0.08,1.0,k
2918.0,2976.0,880.0,4095.0,4095.0,4095.0,3544.0,3622.0,-3.23,9.22,2.5,-0.18,-0.24,0.06,1.0,k
2911.0,2983.0,881.0,4095.0,4095.0,4095.0,3549.0,3630.0,-2.64,9.27,2.81,-0.09,-0.37,-0.04,1.0,k
2917.0,2989.0,876.0,4095.0,4095.0,4095.0,3556.0,3632.0,-2.53,9.08,3.14,-0.07,-0.03,-0.18,1.0,k
2918.0,2974.0,877.0,4095.0,4095.0,4095.0,3549.0,3632.0,-2.5,9.12,2.88,0.02,-0.21,-0.15,1.0,k
2917.0,2967.0,878.0,4095.0,4095.0,4095.0,3538.0,3619.0,-2.67,9.12,2.5,0.01,-0.17,-0.04,1.0,k
2916.0,2976.0,880.0,4095.0,4095.0,4095.0,3546.0,3626.0,-2.66,8.95,2.6,-0.06,-0.31,-0.02,1.0,k
2915.0,2970.0,879.0,4095.0,4095.0,4095.0,3567.0,3621.0,-2.2,9.32,2.4,-0.11,-0.19,-0.09,1.0,k
2918.0,2981.0,881.0,4095.0,4095.0,4095.0,3555.0,3632.0,-2.77,9.48,2.76,-0.33,-0.03,-0.09,1.0,k
2928.0,2977.0,883.0,4095.0,4095.0,4095.0,3555.0,3633.0,-2.26,8.96,3.54,-0.28,-0.15,-0.23,1.0,k
2925.0,2981.0,877.0,4095.0,4095.0,4095.0,3557.0,3644.0,-2.59,9.41,3.32,-0.07,-0.02,-0.04,1.0,k
2913.0,2971.0,889.0,4095.0,4095.0,4095.0,3567.0,3647.0,-2.53,9.23,3.1,-0.15,-0.17,-0.06,1.0,k
2917.0,2980.0,882.0,4095.0,4095.0,4095.0,3565.0,3648.0,-2.38,9.22,3.12,-0.13,-0.09,-0.01,1.0,k
2910.0,2983.0,880.0,4095.0,4095.0,4095.0,3563.0,3651.0,-2.45,9.13,2.99,-0.3,0.08,-0.02,1.0,k
2914.0,2971.0,883.0,4095.0,4095.0,4095.0,3556.0,3646.0,-2.44,8.89,3.45,-0.21,-0.09,-0.06,1.0,k
2914.0,2978.0,875.0,4095.0,4095.0,4095.0,3553.0,3644.0,-2.71,8.83,3.76,-0.21,-0.04,-0.12,1.0,k
2906.0,2979.0,881.0,4095.0,4095.0,4095.0,3552.0,3637.0,-2.77,8.83,3.64,-0.09,-0.02,-0.09,1.0,k
2934.0,2987.0,881.0,4095.0,4095.0,4095.0,3555.0,3648.0,-2.35,9.27,3.26,-0.13,-0.05,-0.06,1.0,k
2925.0,2976.0,885.0,4095.0,4095.0,4095.0,3568.0,3661.0,-2.2,8.74,3.54,-0.08,-0.13,-0.12,1.0,k
2916.0,2975.0,879.0,4095.0,4095.0,4095.0,3557.0,3651.0,-2.41,8.67,3.54,-0.11,-0.11,-0.11,1.0,k
2928.0,2981.0,873.0,4093.0,4095.0,4095.0,3561.0,3659.0,-3.08,8.76,3.56,-0.09,0.1,0.01,1.0,k
2930.0,2989.0,878.0,4095.0,4095.0,4095.0,3573.0,3664.0,-2.75,8.95,3.92,-0.06,0.03,-0.04,1.0,k
2923.0,2972.0,880.0,4095.0,4095.0,4095.0,3582.0,3664.0,-2.75,9.27,3.79,-0.2,0.19,-0.02,1.0,k
2925.0,2977.0,871.0,4095.0,4095.0,4095.0,3575.0,3655.0,-2.96,8.62,4.23,-0.17,0.2,0.15,1.0,k
2928.0,2976.0,867.0,4095.0,4095.0,4095.0,3601.0,3670.0,-2.16,9.23,4.17,0.03,0.11,-0.05,1.0,k
2909.0,2981.0,862.0,4095.0,4095.0,4095.0,3611.0,3665.0,-2.41,8.66,4.35,0.11,0.14,-0.13,1.0,k
2921.0,2995.0,869.0,4095.0,4095.0,4095.0,3617.0,3648.0,-2.79,9.07,3.68,0.22,0.24,-0.06,1.0,k
2911.0,2987.0,865.0,4095.0,4095.0,4095.0,3632.0,3655.0,-3.04,8.91,3.42,0.11,0.26,0.09,1.0,k
2911.0,2992.0,866.0,4095.0,4095.0,4095.0,3629.0,3654.0,-2.67,9.42,3.18,0.26,0.19,0.14,1.0,k
2914.0,2974.0,872.0,4095.0,4095.0,4095.0,3630.0,3649.0,-2.26,9.43,2.99,0.08,0.09,0.02,1.0,k
2922.0,2979.0,868.0,4095.0,4095.0,4095.0,3632.0,3647.0,-2.4,9.2,2.92,0.05,0.08,-0.04,1.0,k
2911.0,2988.0,865.0,4095.0,4095.0,4095.0,3619.0,3637.0,-2.54,8.97,2.79,0.11,-0.05,-0.06,1.0,k
2919.0,2981.0,871.0,4095.0,4095.0,4095.0,3609.0,3631.0,-2.61,9.2,2.58,0.08,-0.19,-0.2,1.0,k
2913.0,2978.0,858.0,4095.0,4095.0,4095.0,3617.0,3650.0,-2.39,9.1,2.6,-0.05,-0.03,-0.15,1.0,k
2903.0,2976.0,865.0,4095.0,4095.0,4095.0,3615.0,3637.0,-3.04,9.13,2.64,-0.39,-0.13,-0.05,1.0,k
2902.0,2984.0,870.0,4095.0,4095.0,4095.0,3618.0,3648.0,-2.77,8.77,3.47,-0.2,-0.02,0.06,1.0,k
2911.0,2976.0,870.0,4095.0,4095.0,4095.0,3616.0,3643.0,-2.55,8.9,3.7,0.04,0.25,-0.0,1.0,k
2907.0,2979.0,874.0,4095.0,4095.0,4095.0,3618.0,3654.0,-2.66,8.85,3.31,0.13,0.13,-0.07,1.0,k
2917.0,2992.0,864.0,4095.0,4095.0,4095.0,3618.0,3643.0,-2.79,9.21,3.05,-0.01,0.09,-0.04,1.0,k
2907.0,2974.0,870.0,4095.0,4095.0,4095.0,3625.0,3648.0,-2.86,9.23,2.94,0.06,0.09,0.0,1.0,k
2903.0,2974.0,870.0,4095.0,4095.0,4095.0,3623.0,3657.0,-2.38,9.57,2.72,0.09,0.12,0.01,1.0,k
2911.0,2978.0,874.0,4095.0,4095.0,4095.0,3615.0,3655.0,-2.74,9.35,2.5,-0.01,0.07,0.05,1.0,k
2909.0,2991.0,871.0,4095.0,4095.0,4095.0,3610.0,3654.0,-2.26,9.23,2.76,0.03,-0.09,-0.02,1.0,k
2898.0,2973.0,867.0,4095.0,4095.0,4095.0,3626.0,3649.0,-2.3,9.44,2.45,-0.03,-0.11,-0.04,1.0,k
2897.0,2988.0,871.0,4095.0,4095.0,4095.0,3619.0,3645.0,-2.82,9.08,2.55,-0.13,0.08,-0.03,1.0,k
2902.0,2971.0,876.0,4095.0,4095.0,4095.0,3602.0,3630.0,-2.62,9.21,2.8,-0.05,-0.03,-0.04,1.0,k
2909.0,2975.0,866.0,4095.0,4095.0,4095.0,3610.0,3643.0,-2.62,9.09,2.83,-0.13,0.19,-0.03,1.0,k
2912.0,2975.0,871.0,4095.0,4095.0,4095.0,3600.0,3635.0,-2.65,9.16,2.75,-0.09,0.14,-0.03,1.0,k
2913.0,2987.0,864.0,4095.0,4095.0,4095.0,3611.0,3637.0,-2.89,9.28,2.59,-0.13,0.21,0.03,1.0,k
2917.0,2976.0,871.0,4095.0,4095.0,4095.0,3600.0,3634.0,-2.43,9.4,2.74,-0.1,0.02,-0.01,1.0,k
2908.0,2987.0,870.0,4095.0,4095.0,4095.0,3601.0,3653.0,-2.19,9.48,2.99,-0.07,0.13,-0.04,1.0,k
2914.0,2983.0,870.0,4095.0,4095.0,4095.0,3632.0,3641.0,-2.81,9.33,2.69,-0.02,0.15,-0.08,1.0,k
2928.0,2991.0,875.0,4095.0,4095.0,4095.0,3609.0,3635.0,-2.83,9.19,2.62,-0.04,0.13,-0.04,1.0,k
2918.0,2985.0,864.0,4095.0,4095.0,4095.0,3610.0,3638.0,-2.1,9.34,2.73,-0.21,0.73,0.02,1.0,k
2909.0,2988.0,875.0,4095.0,4095.0,4095.0,3600.0,3632.0,-3.04,9.08,2.8,-0.17,0.71,0.09,1.0,k
2907.0,2989.0,870.0,4095.0,4095.0,4095.0,3605.0,3639.0,-2.33,9.45,2.55,-0.11,0.78,-0.01,1.0,k
2910.0,2991.0,865.0,4095.0,4095.0,4095.0,3613.0,3645.0,-3.64,8.94,2.61,-0.2,1.14,0.06,1.0,k
2914.0,2985.0,874.0,4095.0,4095.0,4095.0,3616.0,3632.0,-3.31,9.19,2.1,0.0,0.51,0.02,1.0,k
2911.0,2989.0,869.0,4095.0,4095.0,4095.0,3614.0,3646.0,-3.14,9.24,1.96,0.03,0.13,0.13,1.0,k
2914.0,2977.0,863.0,4095.0,4095.0,4095.0,3583.0,3631.0,-2.55,9.4,1.99,-0.11,0.44,0.16,1.0,k
2912.0,2982.0,867.0,4095.0,4095.0,4095.0,3609.0,3639.0,-2.6,9.25,2.16,-0.1,0.45,0.15,1.0,k
2918.0,2979.0,874.0,4095.0,4095.0,4095.0,3600.0,3635.0,-2.83,9.41,1.83,-0.01,0.23,0.09,1.0,k
2917.0,2985.0,869.0,4095.0,4095.0,4095.0,3614.0,3639.0,-3.19,9.15,1.69,-0.0,0.25,0.14,1.0,k
2915.0,2976.0,870.0,4095.0,4095.0,4095.0,3600.0,3637.0,-2.76,9.49,1.57,-0.04,0.19,0.17,1.0,k
2907.0,2975.0,868.0,4095.0,4095.0,4095.0,3613.0,3639.0,-2.48,9.39,1.81,-0.06,0.06,0.2,1.0,k
2910.0,2984.0,867.0,4095.0,4095.0,4095.0,3611.0,3650.0,-2.01,9.6,2.04,-0.0,0.02,0.12,1.0,k
2901.0,2983.0,875.0,4095.0,4095.0,4095.0,3618.0,3639.0,-2.4,9.57,1.9,0.01,0.13,0.13,1.0,k
2912.0,2979.0,873.0,4095.0,4095.0,4095.0,3599.0,3634.0,-2.35,9.59,1.64,-0.01,0.2,0.09,1.0,k
2918.0,2983.0,871.0,4095.0,4095.0,4095.0,3600.0,3641.0,-2.03,9.59,1.75,-0.05,0.12,0.13,1.0,k
2913.0,2987.0,869.0,4095.0,4095.0,4095.0,3607.0,3633.0,-1.71,9.72,1.54,0.02,-0.03,0.06,1.0,k
2918.0,2982.0,866.0,4095.0,4095.0,4095.0,3615.0,3638.0,-1.84,9.85,1.16,-0.09,-0.03,0.07,1.0,k
2905.0,2987.0,880.0,4095.0,4095.0,4095.0,3615.0,3643.0,-1.85,9.84,1.32,-0.29,0.17,0.05,1.0,k
2913.0,2982.0,870.0,4095.0,4095.0,4095.0,3605.0,3639.0,-1.81,9.51,2.17,-0.3,0.14,0.1,1.0,k
2908.0,2974.0,869.0,4095.0,4095.0,4095.0,3606.0,3643.0,-1.92,9.55,2.24,-0.18,0.11,0.01,1.0,k
2913.0,2975.0,870.0,4095.0,4095.0,4095.0,3600.0,3638.0,-2.18,9.57,2.05,-0.13,0.11,-0.01,1.0,k
2915.0,2987.0,877.0,4095.0,4095.0,4095.0,3597.0,3634.0,-1.94,9.47,2.18,-0.09,0.1,-0.02,1.0,k
2923.0,2987.0,871.0,4095.0,4095.0,4095.0,3607.0,3635.0,-1.88,9.69,2.0,-0.04,0.11,-0.02,1.0,k
2923.0,2980.0,871.0,4095.0,4095.0,4095.0,3600.0,3627.0,-1.9,9.88,2.04,-0.07,0.13,-0.08,1.0,k
2926.0,2985.0,866.0,4095.0,4095.0,4095.0,3583.0,3616.0,-2.22,9.61,1.86,-0.1,0.05,-0.05,1.0,k
2921.0,2986.0,877.0,4095.0,4095.0,4095.0,3599.0,3632.0,-2.05,9.52,2.12,-0.05,-0.11,-0.06,1.0,k
