hall_1,hall_2,hall_3,flex_t,flex_i,flex_m,flex_r,flex_p,accel_x,accel_y,accel_z,gyro_x,gyro_y,gyro_z,hand,sign
2930.0,3130.0,4091.0,4095.0,4095.0,2915.0,3243.0,2623.0,-1.84,9.67,2.23,0.05,0.11,-0.01,1.0,l
2927.0,3139.0,4095.0,4095.0,4095.0,2917.0,3248.0,2614.0,-1.31,9.7,2.08,0.06,-0.04,0.05,1.0,l
2930.0,3137.0,4095.0,4095.0,4095.0,2923.0,3247.0,2624.0,-1.41,9.84,1.88,-0.12,0.01,0.01,1.0,l
2941.0,3147.0,4095.0,4095.0,4095.0,2905.0,3239.0,2624.0,-0.82,9.77,2.02,-0.23,-0.04,-0.02,1.0,l
2928.0,3152.0,4094.0,4095.0,4095.0,2917.0,3243.0,2635.0,-1.82,9.45,2.65,-0.33,-0.05,0.06,1.0,l
2928.0,3134.0,4091.0,4095.0,4095.0,2918.0,3247.0,2611.0,-1.01,9.61,3.4,-0.19,-0.01,0.03,1.0,l
2945.0,3145.0,4095.0,4095.0,4095.0,2919.0,3248.0,2627.0,-1.2,9.55,3.32,-0.02,0.04,0.01,1.0,l
2929.0,3127.0,4071.0,4095.0,4095.0,2919.0,3248.0,2613.0,-1.0,9.48,3.21,-0.03,0.05,0.03,1.0,l
2928.0,3154.0,4080.0,4095.0,4095.0,2924.0,3248.0,2620.0,-0.95,9.52,2.91,0.04,0.03,-0.01,1.0,l
2938.0,3145.0,4089.0,4095.0,4095.0,2914.0,3246.0,2625.0,-1.18,9.62,2.67,0.04,0.05,0.03,1.0,l
2931.0,3145.0,4079.0,4095.0,4095.0,2927.0,3253.0,3087.0,-1.09,9.88,2.53,0.02,0.11,0.07,1.0,l
2927.0,3135.0,4079.0,4095.0,4095.0,2923.0,3248.0,3127.0,-0.85,9.97,2.49,0.08,0.03,0.02,1.0,l
2941.0,3163.0,4095.0,4095.0,4095.0,2928.0,3250.0,3136.0,-0.84,9.7,2.12,0.02,0.07,0.11,1.0,l
2939.0,3159.0,4095.0,4095.0,4095.0,2926.0,3252.0,3135.0,-0.66,9.69,2.29,-0.05,0.11,0.05,1.0,l
2933.0,3138.0,4080.0,4095.0,4095.0,2918.0,3243.0,3142.0,-2.11,8.96,2.91,-0.32,0.74,-0.05,1.0,l
2928.0,3145.0,4092.0,4095.0,4095.0,2923.0,3248.0,3172.0,-0.5,9.94,2.56,0.06,0.47,0.03,1.0,l
2935.0,3146.0,4087.0,4095.0,4095.0,2918.0,3246.0,3173.0,-1.03,9.53,1.88,0.08,0.34,0.36,1.0,l
2932.0,3155.0,4095.0,4095.0,4095.0,2923.0,3251.0,3179.0,1.35,10.35,1.92,-0.16,-0.44,0.61,1.0,l
2929.0,3136.0,4087.0,4095.0,4095.0,2926.0,3251.0,3175.0,0.69,9.76,2.3,-0.11,-0.18,-0.05,1.0,l
2942.0,3156.0,4095.0,4095.0,4095.0,2928.0,3251.0,3179.0,-0.15,9.71,1.98,-0.06,-0.09,-0.15,1.0,l
2938.0,3141.0,4085.0,4095.0,4095.0,2931.0,3263.0,3187.0,-0.54,9.9,1.6,-0.1,0.06,-0.09,1.0,l
2928.0,3147.0,4094.0,4095.0,4095.0,2914.0,3248.0,3184.0,-0.54,9.9,1.97,-0.16,0.12,-0.1,1.0,l
2934.0,3159.0,4095.0,4095.0,4095.0,2930.0,3261.0,3188.0,-0.7,9.87,2.0,-0.13,-0.01,-0.08,1.0,l
2939.0,3152.0,4085.0,4095.0,4095.0,2925.0,3247.0,3184.0,-0.81,9.78,2.19,-0.22,0.01,-0.11,1.0,l
2928.0,3153.0,4095.0,4095.0,4095.0,2933.0,3259.0,3186.0,-0.76,9.79,2.32,-0.16,-0.03,-0.09,1.0,l
2930.0,3147.0,4080.0,4095.0,4095.0,2928.0,3253.0,3181.0,-1.08,9.69,2.18,-0.19,0.0,-0.07,1.0,l
2939.0,3164.0,4095.0,4095.0,4095.0,2928.0,3258.0,3193.0,-0.98,9.55,2.65,-0.23,-0.13,-0.1,1.0,l
2933.0,3148.0,4080.0,4095.0,4095.0,2923.0,3254.0,3184.0,-1.24,9.67,2.93,-0.15,0.0,-0.1,1.0,l
2938.0,3157.0,4095.0,4095.0,4095.0,2931.0,3258.0,3191.0,-1.02,9.71,2.85,-0.16,0.0,-0.04,1.0,l
2929.0,3152.0,4087.0,4095.0,4095.0,2930.0,3258.0,3188.0,-1.05,9.62,2.86,-0.14,0.05,-0.05,1.0,l
2931.0,3159.0,4095.0,4095.0,4095.0,2927.0,3259.0,3194.0,-0.98,9.59,3.0,-0.13,-0.06,-0.08,1.0,l
2928.0,3152.0,4095.0,4095.0,4095.0,2929.0,3262.0,3181.0,-1.13,9.56,3.0,-0.13,-0.04,-0.1,1.0,l
2943.0,3164.0,4095.0,4095.0,4095.0,2930.0,3249.0,3183.0,-1.17,9.48,3.3,-0.14,0.0,-0.06,1.0,l
2949.0,3157.0,4095.0,4095.0,4095.0,2941.0,3269.0,3205.0,-1.12,9.48,3.3,-0.11,-0.01,-0.11,1.0,l
2928.0,3152.0,4082.0,4095.0,4095.0,2931.0,3262.0,3193.0,-1.07,9.56,3.0,-0.11,-0.12,-0.11,1.0,l
2932.0,3165.0,4095.0,4095.0,4095.0,2943.0,3278.0,3201.0,-1.49,9.46,3.3,-0.19,-0.11,-0.11,1.0,l
2934.0,3153.0,4071.0,4095.0,4095.0,2935.0,3263.0,3197.0,-1.43,9.33,3.52,-0.19,-0.01,-0.08,1.0,l
2939.0,3167.0,4091.0,4095.0,4095.0,2941.0,3266.0,3197.0,-1.18,9.29,3.55,-0.14,-0.04,-0.04,1.0,l
2934.0,3154.0,4079.0,4095.0,4095.0,2931.0,3255.0,3190.0,-1.27,9.34,3.75,-0.12,-0.06,-0.09,1.0,l
2933.0,3163.0,4095.0,4095.0,4095.0,2939.0,3266.0,3194.0,-1.39,9.3,3.66,-0.12,-0.01,-0.04,1.0,l
2933.0,3143.0,4075.0,4095.0,4095.0,2951.0,3263.0,3202.0,-0.63,9.52,3.67,-0.02,0.11,-0.02,1.0,l
2933.0,3136.0,4068.0,4095.0,4095.0,2960.0,3266.0,3207.0,-0.36,9.44,3.42,0.02,0.08,0.01,1.0,l
2932.0,3136.0,4073.0,4095.0,4095.0,2951.0,3264.0,3203.0,-0.55,9.48,3.3,0.02,-0.07,-0.02,1.0,l
2934.0,3149.0,4064.0,4095.0,4095.0,2955.0,3268.0,3210.0,-0.4,9.58,3.25,-0.01,0.01,-0.01,1.0,l
2928.0,3143.0,4078.0,4095.0,4095.0,2950.0,3255.0,3210.0,-0.61,9.53,3.26,-0.01,0.05,-0.03,1.0,l
2931.0,3152.0,4064.0,4095.0,4095.0,2961.0,3267.0,3216.0,-0.55,9.56,3.12,-0.01,0.05,0.01,1.0,l
2932.0,3139.0,4057.0,4095.0,4095.0,2954.0,3258.0,3209.0,-0.43,9.69,3.06,-0.01,0.04,-0.01,1.0,l
2935.0,3150.0,4094.0,4095.0,4095.0,2957.0,3265.0,3210.0,-0.41,9.59,3.03,0.03,-0.07,-0.03,1.0,l
2929.0,3138.0,4080.0,4095.0,4095.0,2943.0,3259.0,3200.0,-0.43,9.63,3.01,-0.02,-0.01,-0.01,1.0,l
2935.0,3130.0,4076.0,4095.0,4095.0,2960.0,3265.0,3200.0,-0.39,9.62,3.1,-0.02,0.12,-0.01,1.0,l
2933.0,3150.0,4080.0,4095.0,4095.0,2961.0,3276.0,3210.0,-0.49,9.63,2.93,0.01,0.06,-0.04,1.0,l
2928.0,3136.0,4085.0,4095.0,4095.0,2957.0,3257.0,3197.0,-0.4,9.72,2.77,0.01,-0.02,-0.01,1.0,l
2932.0,3152.0,4095.0,4095.0,4095.0,2959.0,3265.0,3209.0,-0.42,9.8,2.67,-0.03,0.08,-0.03,1.0,l
2930.0,3137.0,4069.0,4095.0,4095.0,2958.0,3253.0,3200.0,-0.33,9.77,2.62,-0.08,-0.02,-0.06,1.0,l
2941.0,3149.0,4095.0,4095.0,4095.0,2962.0,3269.0,3203.0,-0.44,9.61,2.96,-0.06,0.01,-0.05,1.0,l
2933.0,3142.0,4069.0,4095.0,4095.0,2960.0,3267.0,3205.0,-0.52,9.62,2.94,-0.01,-0.03,-0.07,1.0,l
2935.0,3156.0,4079.0,4095.0,4095.0,2955.0,3273.0,3211.0,-0.56,9.75,2.81,0.02,-0.01,-0.03,1.0,l
2933.0,3143.0,4095.0,4095.0,4095.0,2950.0,3255.0,3199.0,-0.46,9.69,2.76,0.04,-0.0,0.02,1.0,l
2934.0,3162.0,4082.0,4095.0,4095.0,2960.0,3264.0,3207.0,-0.38,9.8,2.5,0.04,0.03,0.0,1.0,l
2928.0,3149.0,4078.0,4095.0,4095.0,2954.0,3254.0,3202.0,-0.23,9.84,2.28,-0.02,0.04,-0.01,1.0,l
2938.0,3152.0,4080.0,4095.0,4095.0,2955.0,3259.0,3205.0,-0.23,9.94,1.95,-0.02,-0.04,-0.05,1.0,l
2944.0,3154.0,4089.0,4095.0,4095.0,2975.0,3270.0,3221.0,-0.27,9.88,2.13,-0.06,-0.04,-0.08,1.0,l
2934.0,3152.0,4063.0,4095.0,4095.0,2951.0,3255.0,3213.0,-0.58,9.79,2.15,-0.03,0.04,-0.07,1.0,l
2941.0,3152.0,4071.0,4095.0,4095.0,2960.0,3275.0,3211.0,-0.48,9.89,2.08,-0.02,0.05,-0.04,1.0,l
2927.0,3143.0,4055.0,4095.0,4095.0,2959.0,3264.0,3212.0,-0.43,9.84,2.11,-0.03,0.01,-0.06,1.0,l
2935.0,3152.0,4092.0,4095.0,4095.0,2956.0,3261.0,3211.0,-0.5,9.78,2.01,-0.06,0.03,-0.06,1.0,l
2928.0,3147.0,4077.0,4095.0,4095.0,2959.0,3264.0,3209.0,-0.47,9.89,1.92,-0.02,-0.04,-0.09,1.0,l
2940.0,3165.0,4095.0,4095.0,4095.0,2958.0,3271.0,3221.0,-0.7,9.94,1.73,-0.04,0.05,-0.08,1.0,l
2938.0,3157.0,4095.0,4095.0,4095.0,2953.0,3267.0,3216.0,-0.33,10.02,2.04,-0.06,-0.1,-0.07,1.0,l
2928.0,3149.0,4063.0,4095.0,4095.0,2965.0,3268.0,3210.0,-0.64,9.84,2.09,-0.05,-0.06,-0.07,1.0,l
2934.0,3165.0,4095.0,4095.0,4095.0,2958.0,3266.0,3215.0,-1.0,9.94,1.9,-0.07,-0.03,-0.01,1.0,l
2927.0,3152.0,4082.0,4095.0,4095.0,2960.0,3251.0,3215.0,-0.49,9.84,1.98,-0.01,-0.05,-0.01,1.0,l
2933.0,3161.0,4095.0,4095.0,4095.0,2960.0,3267.0,3216.0,-0.55,9.86,1.95,-0.06,-0.07,-0.1,1.0,l
2928.0,3152.0,4080.0,4095.0,4095.0,2960.0,3266.0,3213.0,-0.65,9.89,1.93,-0.07,-0.06,-0.06,1.0,l
2928.0,3154.0,4086.0,4095.0,4095.0,2960.0,3270.0,3218.0,-0.74,9.93,2.02,-0.02,-0.04,-0.12,1.0,l
2927.0,3150.0,4066.0,4095.0,4095.0,2963.0,3267.0,3216.0,-0.94,9.8,1.81,-0.07,0.0,-0.09,1.0,l
2928.0,3162.0,4086.0,4095.0,4095.0,2958.0,3267.0,3223.0,-0.78,9.77,2.13,-0.1,0.04,-0.07,1.0,l
2929.0,3162.0,4080.0,4095.0,4095.0,2956.0,3262.0,3216.0,-0.92,9.81,2.13,-0.05,-0.0,-0.11,1.0,l
2939.0,3158.0,4085.0,4095.0,4095.0,2963.0,3279.0,3226.0,-1.08,9.8,1.92,-0.07,-0.03,-0.06,1.0,l
2928.0,3162.0,4071.0,4095.0,4095.0,2960.0,3275.0,3227.0,-0.77,9.8,2.12,-0.12,-0.06,-0.07,1.0,l
2927.0,3163.0,4086.0,4095.0,4095.0,2985.0,3267.0,3259.0,-0.97,9.88,1.68,0.09,0.17,-0.07,1.0,l
2928.0,3181.0,4087.0,4095.0,4095.0,2986.0,3273.0,3267.0,-1.9,9.58,1.88,-0.14,0.1,-0.09,1.0,l
2933.0,3171.0,4077.0,4095.0,4095.0,2973.0,3259.0,3252.0,-1.28,10.07,1.93,-0.05,0.15,0.27,1.0,l
2927.0,3174.0,4091.0,4095.0,4095.0,2991.0,3269.0,3273.0,-1.07,10.17,3.26,0.02,-0.16,-0.01,1.0,l
2934.0,3166.0,4081.0,4095.0,4095.0,2980.0,3263.0,3259.0,-1.28,9.94,1.68,0.15,0.31,0.06,1.0,l
2938.0,3156.0,4077.0,4095.0,4095.0,2992.0,3276.0,3263.0,-0.64,9.74,1.5,0.14,-0.05,0.0,1.0,l
2934.0,3152.0,4090.0,4095.0,4095.0,2992.0,3266.0,3259.0,-0.84,9.85,1.28,-0.03,0.18,-0.09,1.0,l
2932.0,3152.0,4059.0,4095.0,4095.0,2976.0,3264.0,3263.0,-0.84,9.51,1.1,-0.14,0.01,-0.05,1.0,l
2936.0,3162.0,4095.0,4095.0,4095.0,2995.0,3280.0,3271.0,-1.34,10.15,1.65,-0.27,0.09,-0.01,1.0,l
2933.0,3154.0,4067.0,4095.0,4095.0,2989.0,3268.0,3265.0,-0.31,9.89,1.94,-0.14,0.05,0.04,1.0,l
2942.0,3169.0,4080.0,4095.0,4095.0,2992.0,3277.0,3274.0,-0.9,9.9,1.96,-0.02,0.15,0.02,1.0,l
2930.0,3151.0,4089.0,4095.0,4095.0,2991.0,3262.0,3263.0,-1.16,9.89,1.24,-0.16,0.08,-0.11,1.0,l
2938.0,3166.0,4094.0,4095.0,4095.0,2993.0,3276.0,3280.0,-1.1,9.39,1.78,-0.36,0.01,-0.04,1.0,l
2926.0,3156.0,4077.0,4095.0,4095.0,2990.0,3269.0,3280.0,-0.79,9.6,2.78,-0.37,0.11,-0.01,1.0,l
2933.0,3155.0,4082.0,4095.0,4095.0,2993.0,3270.0,3274.0,-1.64,10.03,3.87,-0.16,-0.04,-0.01,1.0,l
2933.0,3152.0,4082.0,4095.0,4095.0,2993.0,3266.0,3270.0,-0.49,10.21,2.54,0.49,-0.25,0.13,1.0,l
2929.0,3155.0,4095.0,4095.0,4095.0,2992.0,3267.0,3280.0,-0.35,10.03,0.64,0.3,-0.08,0.01,1.0,l
2919.0,3155.0,4083.0,4095.0,4095.0,3006.0,3280.0,3282.0,-1.31,9.65,1.3,-0.09,-0.18,-0.14,1.0,l
2928.0,3155.0,4081.0,4095.0,4095.0,2990.0,3278.0,3274.0,-1.18,10.19,2.19,-0.13,0.01,0.18,1.0,l
2934.0,3158.0,4095.0,4095.0,4095.0,3003.0,3282.0,3280.0,-0.18,10.11,2.44,0.14,-0.01,0.23,1.0,l
2940.0,3161.0,4082.0,4095.0,4095.0,2993.0,3274.0,3277.0,0.01,9.88,1.12,-0.13,0.15,-0.06,1.0,l
2941.0,3163.0,4081.0,4095.0,4095.0,2985.0,3280.0,3267.0,0.05,9.95,1.18,-0.16,-0.09,-0.08,1.0,l
2935.0,3150.0,4075.0,4095.0,4095.0,3002.0,3282.0,3278.0,0.1,10.08,1.47,-0.17,-0.1,-0.09,1.0,l
2944.0,3161.0,4091.0,4095.0,4095.0,2993.0,3269.0,3275.0,-0.64,10.28,1.69,-0.15,0.06,-0.02,1.0,l
2929.0,3155.0,4082.0,4095.0,4095.0,3005.0,3282.0,3283.0,0.09,9.93,1.72,-0.1,-0.14,0.12,1.0,l
2928.0,3153.0,4081.0,4095.0,4095.0,2991.0,3269.0,3273.0,0.69,9.7,1.78,-0.13,0.08,0.04,1.0,l
2925.0,3167.0,4091.0,4095.0,4095.0,3008.0,3283.0,3291.0,0.15,9.97,1.67,-0.08,0.05,0.0,1.0,l
2939.0,3157.0,4078.0,4095.0,4095.0,2992.0,3279.0,3278.0,-0.02,10.05,1.62,-0.17,0.1,0.02,1.0,l
2934.0,3161.0,4093.0,4095.0,4095.0,3005.0,3289.0,3291.0,0.04,9.88,1.92,-0.25,0.11,0.17,1.0,l
2939.0,3152.0,4086.0,4095.0,4095.0,2992.0,3271.0,3282.0,0.79,9.91,2.14,-0.2,0.05,0.05,1.0,l
2928.0,3171.0,4095.0,4095.0,4095.0,3001.0,3280.0,3280.0,0.41,9.76,2.38,-0.23,0.01,-0.05,1.0,l
2929.0,3154.0,4085.0,4095.0,4095.0,2996.0,3278.0,3277.0,0.4,9.78,2.68,-0.22,0.05,-0.01,1.0,l
2938.0,3159.0,4080.0,4095.0,4095.0,3007.0,3278.0,3282.0,0.49,9.92,2.74,-0.13,0.05,-0.01,1.0,l
2941.0,3167.0,4095.0,4095.0,4095.0,3003.0,3289.0,3294.0,0.4,9.7,2.6,-0.08,0.08,0.07,1.0,l
2932.0,3161.0,4079.0,4095.0,4095.0,2996.0,3279.0,3273.0,0.76,9.9,2.39,-0.19,0.12,0.07,1.0,l
2933.0,3166.0,4095.0,4095.0,4095.0,3006.0,3278.0,3275.0,0.71,9.69,2.74,-0.26,0.04,0.03,1.0,l
2932.0,3162.0,4074.0,4095.0,4095.0,2992.0,3275.0,3277.0,0.9,9.64,3.22,-0.23,-0.01,0.0,1.0,l
2938.0,3161.0,4083.0,4095.0,4095.0,3001.0,3280.0,3280.0,0.87,9.61,3.31,-0.19,0.0,-0.06,1.0,l
2931.0,3159.0,4076.0,4095.0,4095.0,2993.0,3274.0,3276.0,0.59,9.58,3.31,-0.2,0.03,-0.05,1.0,l
2938.0,3168.0,4095.0,4095.0,4095.0,2994.0,3276.0,3280.0,0.43,9.54,3.4,-0.24,0.1,-0.03,1.0,l
2923.0,3162.0,4090.0,4095.0,4095.0,3003.0,3287.0,3295.0,0.62,9.33,4.02,-0.12,-0.07,-0.07,1.0,l
2937.0,3157.0,4084.0,4095.0,4095.0,2999.0,3271.0,3270.0,0.58,9.22,3.88,-0.12,-0.0,-0.13,1.0,l
2935.0,3161.0,4082.0,4095.0,4095.0,3008.0,3281.0,3273.0,0.36,9.33,4.12,-0.18,0.02,-0.12,1.0,l
2930.0,3159.0,4060.0,4095.0,4095.0,2992.0,3278.0,3280.0,0.24,9.24,4.48,-0.14,-0.02,-0.08,1.0,l
2938.0,3166.0,4095.0,4095.0,4095.0,3003.0,3287.0,3280.0,0.35,9.08,4.47,-0.07,0.02,-0.07,1.0,l
2927.0,3159.0,4083.0,4095.0,4095.0,2992.0,3277.0,3273.0,0.33,9.22,4.25,-0.08,-0.05,-0.08,1.0,l
2936.0,3151.0,4095.0,4095.0,4095.0,2998.0,3280.0,3271.0,0.33,9.2,4.38,-0.07,-0.08,-0.1,1.0,l
2930.0,3157.0,4071.0,4095.0,4095.0,3003.0,3280.0,3269.0,0.3,9.21,4.42,-0.03,-0.05,-0.11,1.0,l
2934.0,3167.0,4095.0,4095.0,4095.0,3007.0,3282.0,3277.0,0.14,9.17,4.4,-0.09,0.03,-0.1,1.0,l
2932.0,3149.0,4062.0,4095.0,4095.0,2995.0,3280.0,3283.0,0.27,9.18,4.43,-0.06,-0.06,-0.12,1.0,l
2931.0,3166.0,4080.0,4095.0,4095.0,3007.0,3281.0,3278.0,0.17,9.25,4.39,-0.03,-0.06,-0.14,1.0,l
2934.0,3161.0,4095.0,4095.0,4095.0,2997.0,3270.0,3286.0,-0.01,9.18,4.34,-0.04,-0.05,-0.11,1.0,l
2933.0,3164.0,4082.0,4095.0,4095.0,2993.0,3280.0,3277.0,-0.01,9.15,4.23,-0.02,-0.08,-0.11,1.0,l
2935.0,3173.0,4080.0,4095.0,4095.0,3003.0,3280.0,3280.0,-0.01,9.2,4.18,-0.05,-0.05,-0.09,1.0,l
2928.0,3168.0,4095.0,4095.0,4095.0,2999.0,3280.0,3280.0,-0.09,9.2,4.29,-0.07,-0.02,-0.1,1.0,l
2933.0,3165.0,4081.0,4095.0,4095.0,2999.0,3279.0,3289.0,-0.05,9.24,4.3,-0.07,0.02,-0.09,1.0,l
2933.0,3159.0,4095.0,4095.0,4095.0,2996.0,3276.0,3275.0,-0.17,9.2,4.3,-0.06,0.05,-0.09,1.0,l
2929.0,3155.0,4094.0,4095.0,4095.0,3004.0,3287.0,3285.0,-0.25,9.14,4.36,-0.06,-0.04,-0.08,1.0,l
2928.0,3150.0,4095.0,4095.0,4095.0,3006.0,3277.0,3274.0,-0.2,9.18,4.31,-0.05,0.01,-0.11,1.0,l
2935.0,3162.0,4078.0,4095.0,4095.0,3007.0,3284.0,3283.0,-0.25,9.12,4.27,-0.06,-0.07,-0.13,1.0,l
2944.0,3168.0,4095.0,4095.0,4095.0,3003.0,3282.0,3283.0,-1.05,9.22,3.96,0.02,-0.1,-0.19,1.0,l
2933.0,3155.0,4079.0,4095.0,4095.0,3003.0,3282.0,3276.0,-1.04,9.29,4.07,0.06,-0.13,-0.16,1.0,l
2935.0,3168.0,4095.0,4095.0,4095.0,3013.0,3289.0,3282.0,-1.14,9.43,3.72,0.08,-0.17,-0.15,1.0,l
2927.0,3168.0,4080.0,4095.0,4095.0,2999.0,3280.0,3268.0,-1.53,9.21,3.54,0.04,-0.15,-0.11,1.0,l
2944.0,3168.0,4095.0,4095.0,4095.0,3008.0,3287.0,3284.0,-1.42,9.24,3.36,0.0,-0.06,-0.1,1.0,l
2933.0,3173.0,4090.0,4095.0,4095.0,3002.0,3285.0,3286.0,-1.33,9.32,3.61,-0.05,-0.1,-0.1,1.0,l
2932.0,3149.0,4075.0,4095.0,4095.0,3013.0,3280.0,3280.0,-1.37,9.44,3.66,-0.04,0.11,-0.12,1.0,l
2930.0,3163.0,4081.0,4095.0,4095.0,3004.0,3287.0,3293.0,-1.61,9.33,3.62,0.0,0.02,-0.1,1.0,l
2926.0,3159.0,4067.0,4095.0,4095.0,3002.0,3283.0,3277.0,-1.23,9.38,3.62,0.11,-0.19,-0.15,1.0,l
2942.0,3162.0,4093.0,4095.0,4095.0,2993.0,3282.0,3283.0,-1.7,9.3,3.35,0.1,0.14,-0.18,1.0,l
2931.0,3174.0,4080.0,4095.0,4095.0,2999.0,3274.0,3277.0,-2.2,9.4,3.05,0.06,0.07,-0.03,1.0,l
2935.0,3163.0,4095.0,4095.0,4095.0,3007.0,3290.0,3291.0,-1.84,9.34,3.07,0.03,0.02,-0.05,1.0,l
2931.0,3163.0,4078.0,4095.0,4095.0,2992.0,3275.0,3279.0,-2.2,9.25,3.32,0.06,0.34,0.02,1.0,l
2930.0,3169.0,4095.0,4095.0,4095.0,3006.0,3281.0,3275.0,-2.41,9.39,2.78,0.09,0.24,0.0,1.0,l
2931.0,3151.0,4069.0,4095.0,4095.0,2997.0,3284.0,3280.0,-2.03,9.43,2.53,0.06,-0.1,0.09,1.0,l
2944.0,3179.0,4095.0,4095.0,4095.0,3008.0,3291.0,3291.0,-2.05,9.63,2.35,0.01,0.01,0.02,1.0,l
2934.0,3155.0,4075.0,4095.0,4095.0,2997.0,3286.0,3287.0,-1.7,9.62,2.44,0.05,-0.13,-0.03,1.0,l
2938.0,3168.0,4079.0,4095.0,4095.0,3007.0,3273.0,3280.0,-1.8,9.74,2.28,0.0,-0.08,-0.0,1.0,l
2927.0,3159.0,4085.0,4095.0,4095.0,3008.0,3294.0,3289.0,-1.75,9.77,2.07,0.06,-0.04,0.11,1.0,l
2931.0,3161.0,4077.0,4095.0,4095.0,2997.0,3283.0,3283.0,-1.44,9.62,2.11,-0.0,-0.06,0.1,1.0,l
2930.0,3182.0,4095.0,4095.0,4095.0,3009.0,3286.0,3290.0,-2.09,9.77,1.31,-0.03,0.02,-0.18,1.0,l
2923.0,3163.0,4062.0,4095.0,4095.0,3007.0,3279.0,3282.0,-1.86,9.74,1.61,-0.06,-0.0,-0.04,1.0,l
2930.0,3174.0,4071.0,4095.0,4095.0,3010.0,3282.0,3293.0,-1.94,9.72,1.43,0.0,0.04,-0.03,1.0,l
2925.0,3167.0,4061.0,4095.0,4095.0,3008.0,3280.0,3281.0,-1.87,9.77,1.09,0.01,0.04,-0.03,1.0,l
2926.0,3167.0,4086.0,4095.0,4095.0,3017.0,3280.0,3286.0,-2.07,9.8,1.07,0.01,0.09,-0.04,1.0,l
2928.0,3161.0,4069.0,4095.0,4095.0,3003.0,3280.0,3293.0,-1.9,9.69,1.13,0.02,0.03,-0.03,1.0,l
2941.0,3166.0,4083.0,4095.0,4095.0,3009.0,3283.0,3291.0,-1.93,9.72,1.04,0.03,0.08,-0.03,1.0,l
2929.0,3156.0,4053.0,4095.0,4095.0,3009.0,3280.0,3286.0,-1.91,9.81,0.79,-0.0,0.11,-0.0,1.0,l
2946.0,3169.0,4082.0,4095.0,4095.0,3011.0,3290.0,3297.0,-1.93,9.84,0.64,-0.04,0.04,0.03,1.0,l
2929.0,3173.0,4080.0,4095.0,4095.0,3003.0,3279.0,3281.0,-1.66,9.8,0.73,-0.05,0.0,-0.01,1.0,l
2944.0,3169.0,4080.0,4095.0,4095.0,3009.0,3279.0,3288.0,-1.87,9.83,0.82,-0.06,0.1,-0.02,1.0,l
2931.0,3175.0,4083.0,4095.0,4095.0,3009.0,3282.0,3299.0,-2.01,9.74,0.65,-0.06,0.11,0.02,1.0,l
2928.0,3166.0,4059.0,4095.0,4095.0,3005.0,3279.0,3289.0,-1.68,9.81,0.76,-0.05,0.0,-0.03,1.0,l
2933.0,3174.0,4082.0,4095.0,4095.0,3009.0,3285.0,3296.0,-1.66,9.84,0.63,-0.04,-0.01,-0.02,1.0,l
2939.0,3167.0,4074.0,4095.0,4095.0,3007.0,3280.0,3287.0,-1.5,9.83,0.71,-0.07,-0.04,-0.03,1.0,l
2941.0,3164.0,4095.0,4095.0,4095.0,3018.0,3287.0,3299.0,-1.84,9.8,0.65,-0.09,0.04,-0.05,1.0,l
2931.0,3158.0,4082.0,4095.0,4095.0,3024.0,3280.0,3295.0,-1.91,9.86,0.79,-0.05,0.02,-0.01,1.0,l
2928.0,3163.0,4091.0,4095.0,4095.0,3013.0,3284.0,3300.0,-1.76,9.89,0.66,-0.04,0.05,0.01,1.0,l
2929.0,3174.0,4083.0,4095.0,4095.0,3013.0,3278.0,3287.0,-1.65,9.85,0.61,-0.08,0.06,0.04,1.0,l
2939.0,3173.0,4070.0,4095.0,4095.0,3014.0,3285.0,3303.0,-1.46,9.86,0.71,-0.09,0.05,0.05,1.0,l
2918.0,3167.0,4051.0,4095.0,4095.0,3004.0,3282.0,3291.0,-1.06,9.99,0.42,-0.1,0.12,0.03,1.0,l
2937.0,3179.0,4085.0,4095.0,4095.0,3007.0,3280.0,3294.0,-0.87,9.93,0.57,-0.09,0.02,0.02,1.0,l
2938.0,3167.0,4083.0,4095.0,4095.0,3006.0,3277.0,3291.0,-0.77,9.97,0.61,-0.11,0.02,-0.03,1.0,l
2944.0,3169.0,4094.0,4095.0,4095.0,3018.0,3295.0,3302.0,-0.9,9.99,0.7,-0.08,0.07,-0.02,1.0,l
2930.0,3171.0,4071.0,4095.0,4095.0,3007.0,3279.0,3289.0,-0.95,10.02,0.53,-0.03,-0.03,0.02,1.0,l
2930.0,3178.0,4085.0,4095.0,4095.0,3008.0,3282.0,3298.0,-0.77,9.96,0.56,-0.1,0.09,0.04,1.0,l
2933.0,3171.0,4062.0,4095.0,4095.0,3002.0,3281.0,3297.0,-0.83,9.97,0.53,-0.1,0.08,0.01,1.0,l
2935.0,3185.0,4092.0,4095.0,4095.0,3001.0,3275.0,3290.0,-0.67,10.01,0.73,-0.1,0.02,0.03,1.0,l
2940.0,3175.0,4090.0,4095.0,4095.0,3009.0,3282.0,3298.0,-0.62,9.97,0.83,-0.07,-0.01,0.05,1.0,l
2931.0,3157.0,4059.0,4095.0,4095.0,3007.0,3281.0,3291.0,-0.5,10.03,0.66,-0.06,0.07,0.03,1.0,l
2939.0,3168.0,4095.0,4095.0,4095.0,3008.0,3281.0,3295.0,-0.54,10.04,0.64,-0.06,0.04,0.01,1.0,l
2929.0,3163.0,4066.0,4095.0,4095.0,3007.0,3280.0,3287.0,-0.48,10.04,0.78,-0.08,0.05,-0.01,1.0,l
2943.0,3171.0,4095.0,4095.0,4095.0,3034.0,3294.0,3307.0,-0.47,10.06,0.7,-0.08,0.06,-0.0,1.0,l
2927.0,3175.0,4087.0,4095.0,4095.0,3009.0,3283.0,3281.0,-0.51,9.99,0.66,-0.05,0.08,-0.04,1.0,l
2933.0,3166.0,4080.0,4095.0,4095.0,3015.0,3280.0,3293.0,-0.45,9.89,0.69,-0.06,0.03,0.02,1.0,l
2934.0,3175.0,4057.0,4095.0,4095.0,3007.0,3283.0,3289.0,-0.26,10.01,0.7,-0.09,-0.02,-0.01,1.0,l
2941.0,3177.0,4079.0,4095.0,4095.0,3019.0,3291.0,3291.0,-0.24,10.01,0.82,-0.11,0.02,-0.0,1.0,l
2931.0,3170.0,4087.0,4095.0,4095.0,3017.0,3283.0,3281.0,-0.19,10.01,0.82,-0.11,0.01,-0.01,1.0,l
2942.0,3184.0,4091.0,4095.0,4095.0,3023.0,3287.0,3294.0,-0.25,10.01,0.86,-0.11,0.03,-0.02,1.0,l
2928.0,3184.0,4077.0,4095.0,4095.0,3018.0,3287.0,3293.0,-0.22,10.04,0.87,-0.1,0.06,0.02,1.0,l
2928.0,3171.0,3581.0,4095.0,4095.0,2834.0,3245.0,3233.0,-0.84,9.76,2.14,-0.04,-0.13,-0.05,1.0,l
2927.0,3152.0,3558.0,4095.0,4095.0,2829.0,3242.0,3232.0,-0.38,9.72,2.11,-0.13,-0.02,-0.0,1.0,l
2929.0,3182.0,3562.0,4095.0,4095.0,2832.0,3247.0,3238.0,-0.41,9.88,2.31,-0.17,-0.02,-0.06,1.0,l
2930.0,3167.0,3551.0,4095.0,4095.0,2833.0,3246.0,3248.0,-0.5,9.72,2.49,-0.15,-0.07,-0.06,1.0,l
2947.0,3177.0,3570.0,4095.0,4095.0,2835.0,3259.0,3250.0,-0.51,9.7,2.58,-0.17,0.04,-0.06,1.0,l
2922.0,3167.0,3568.0,4095.0,4095.0,2836.0,3239.0,3241.0,-0.6,9.71,2.63,-0.18,0.0,-0.11,1.0,l
2931.0,3167.0,3567.0,4095.0,4095.0,2848.0,3259.0,3239.0,-0.79,9.71,2.71,-0.18,-0.09,-0.05,1.0,l
2933.0,3163.0,3552.0,4095.0,4095.0,2843.0,3259.0,3246.0,-0.59,9.71,2.94,-0.18,-0.04,-0.08,1.0,l
2935.0,3181.0,3571.0,4095.0,4095.0,2839.0,3253.0,3248.0,-0.84,9.57,3.06,-0.2,0.0,-0.09,1.0,l
2930.0,3158.0,3560.0,4095.0,4095.0,2850.0,3271.0,3253.0,-0.7,9.51,3.29,-0.21,-0.01,-0.07,1.0,l
2927.0,3169.0,3555.0,4095.0,4095.0,2848.0,3263.0,3247.0,-0.91,9.47,3.54,-0.11,-0.17,-0.07,1.0,l
2933.0,3184.0,3582.0,4095.0,4095.0,2853.0,3271.0,3264.0,-0.8,9.49,3.47,-0.05,-0.15,-0.02,1.0,l
2928.0,3170.0,3568.0,4095.0,4095.0,2845.0,3263.0,3248.0,-0.63,9.44,3.3,-0.09,0.05,0.01,1.0,l
2937.0,3179.0,3561.0,4095.0,4095.0,2850.0,3277.0,3262.0,-0.61,9.56,3.3,-0.11,-0.04,-0.01,1.0,l
2928.0,3163.0,3570.0,4095.0,4095.0,2838.0,3250.0,3251.0,-0.58,9.47,3.41,-0.03,-0.31,-0.04,1.0,l
2927.0,3179.0,3568.0,4095.0,4095.0,2851.0,3273.0,3266.0,-0.53,9.49,3.05,-0.08,-0.49,-0.09,1.0,l
2919.0,3169.0,3569.0,4095.0,4095.0,2846.0,3267.0,3249.0,-0.41,9.76,3.16,-0.25,-0.16,0.0,1.0,l
2927.0,3171.0,3583.0,4095.0,4095.0,2857.0,3264.0,3264.0,0.0,9.45,3.94,-0.27,-0.04,-0.02,1.0,l
2934.0,3181.0,3571.0,4095.0,4095.0,2846.0,3264.0,3264.0,-0.47,9.13,4.18,-0.26,0.11,-0.02,1.0,l
2931.0,3183.0,3583.0,4095.0,4095.0,2853.0,3270.0,3269.0,-0.55,9.23,4.26,-0.18,0.13,0.05,1.0,l
2929.0,3218.0,3630.0,4095.0,4095.0,2864.0,3283.0,3280.0,0.24,9.53,3.39,-0.07,0.04,0.05,1.0,l
2922.0,3214.0,3626.0,4095.0,4095.0,2864.0,3274.0,3271.0,0.42,9.67,3.34,-0.0,0.0,0.03,1.0,l
2931.0,3227.0,3643.0,4095.0,4095.0,2867.0,3283.0,3290.0,0.23,9.57,3.2,0.02,0.05,0.04,1.0,l
2930.0,3195.0,3615.0,4095.0,4095.0,2864.0,3259.0,3280.0,0.57,9.63,3.06,0.0,0.06,0.06,1.0,l
2930.0,3211.0,3631.0,4095.0,4095.0,2874.0,3281.0,3276.0,0.58,9.8,2.8,0.05,0.07,-0.01,1.0,l
2931.0,3202.0,3616.0,4095.0,4095.0,2861.0,3273.0,3267.0,0.35,9.85,2.58,0.05,0.08,0.0,1.0,l
2928.0,3216.0,3639.0,4095.0,4095.0,2878.0,3287.0,3283.0,0.62,9.79,2.75,0.01,-0.01,-0.03,1.0,l
2928.0,3207.0,3615.0,4095.0,4095.0,2883.0,3290.0,3286.0,0.42,9.77,2.64,0.03,0.08,-0.03,1.0,l
2929.0,3205.0,3618.0,4095.0,4095.0,2864.0,3271.0,3280.0,0.65,9.9,2.45,0.06,-0.06,-0.03,1.0,l
2931.0,3209.0,3630.0,4095.0,4095.0,2873.0,3284.0,3295.0,0.43,9.75,2.4,0.03,-0.03,-0.02,1.0,l
2929.0,3210.0,3629.0,4095.0,4095.0,2870.0,3285.0,3283.0,0.57,9.91,2.26,0.03,0.02,-0.05,1.0,l
2941.0,3206.0,3647.0,4095.0,4095.0,2875.0,3277.0,3277.0,0.54,9.85,2.22,0.02,-0.01,-0.05,1.0,l
2930.0,3200.0,3621.0,4095.0,4095.0,2870.0,3283.0,3281.0,0.56,9.9,2.12,-0.01,0.03,-0.02,1.0,l
2932.0,3211.0,3633.0,4095.0,4095.0,2878.0,3283.0,3288.0,0.58,9.83,2.07,-0.02,0.02,-0.04,1.0,l
2930.0,3207.0,3621.0,4095.0,4095.0,2869.0,3279.0,3280.0,0.58,9.95,2.13,0.02,-0.06,-0.06,1.0,l
2933.0,3216.0,3641.0,4095.0,4095.0,2887.0,3287.0,3291.0,0.49,9.94,2.02,-0.0,-0.01,-0.05,1.0,l
2927.0,3206.0,3632.0,4095.0,4095.0,2867.0,3279.0,3280.0,0.59,9.91,1.97,-0.01,-0.01,-0.07,1.0,l
2933.0,3212.0,3647.0,4095.0,4095.0,2880.0,3285.0,3290.0,0.39,9.9,1.84,-0.02,0.01,-0.09,1.0,l
2928.0,3210.0,3638.0,4095.0,4095.0,2874.0,3281.0,3280.0,0.27,9.86,1.84,-0.01,-0.04,-0.03,1.0,l
2935.0,3204.0,3638.0,4095.0,4095.0,2868.0,3276.0,3278.0,0.49,10.01,1.81,0.01,0.01,-0.02,1.0,l
2931.0,3213.0,3618.0,4095.0,4095.0,2875.0,3281.0,3263.0,-0.07,10.04,1.0,-0.01,0.01,-0.06,1.0,l
2937.0,3236.0,3648.0,4095.0,4095.0,2877.0,3287.0,3269.0,-0.16,10.1,0.98,-0.02,-0.04,-0.09,1.0,l
2930.0,3221.0,3647.0,4095.0,4095.0,2866.0,3278.0,3267.0,-0.31,10.15,0.96,-0.04,-0.01,-0.06,1.0,l
2939.0,3243.0,3645.0,4095.0,4095.0,2879.0,3285.0,3259.0,-0.06,10.06,1.0,-0.04,-0.0,-0.05,1.0,l
2928.0,3225.0,3615.0,4095.0,4095.0,2869.0,3279.0,3259.0,-0.23,9.92,1.01,-0.04,-0.01,-0.04,1.0,l
2929.0,3227.0,3641.0,4095.0,4095.0,2877.0,3287.0,3246.0,-0.08,10.13,0.87,0.01,-0.13,-0.04,1.0,l
2926.0,3231.0,3632.0,4095.0,4095.0,2877.0,3277.0,3248.0,-0.13,10.0,0.94,-0.04,-0.06,-0.07,1.0,l
2944.0,3227.0,3632.0,4095.0,4095.0,2880.0,3294.0,3266.0,-0.36,10.01,0.87,-0.01,-0.04,-0.1,1.0,l
2930.0,3227.0,3629.0,4095.0,4095.0,2870.0,3279.0,3264.0,-0.6,9.9,0.86,-0.06,0.04,-0.05,1.0,l
2928.0,3230.0,3632.0,4095.0,4095.0,2881.0,3296.0,3266.0,-0.32,10.06,0.82,-0.11,0.07,-0.05,1.0,l
2928.0,3238.0,3623.0,4095.0,4095.0,2880.0,3287.0,3264.0,-0.35,10.19,0.96,-0.03,-0.11,-0.09,1.0,l
2928.0,3230.0,3632.0,4095.0,4095.0,2875.0,3283.0,3253.0,-0.32,9.88,1.05,-0.03,-0.1,0.05,1.0,l
2935.0,3231.0,3626.0,4095.0,4095.0,2883.0,3293.0,3254.0,-0.25,10.1,0.89,-0.07,0.02,-0.05,1.0,l
2928.0,3229.0,3623.0,4095.0,4095.0,2871.0,3282.0,3250.0,-0.41,10.04,1.01,-0.03,-0.02,-0.06,1.0,l
2935.0,3226.0,3619.0,4095.0,4095.0,2880.0,3282.0,3253.0,-0.45,10.01,0.87,0.02,-0.07,-0.03,1.0,l
2921.0,3219.0,3616.0,4095.0,4095.0,2879.0,3283.0,3254.0,-0.27,10.12,0.81,-0.05,-0.05,-0.0,1.0,l
2928.0,3242.0,3638.0,4095.0,4095.0,2896.0,3284.0,3269.0,-0.29,10.04,0.77,-0.01,-0.05,-0.06,1.0,l
2925.0,3222.0,3623.0,4095.0,4095.0,2877.0,3287.0,3260.0,-0.44,9.98,0.7,0.04,-0.07,-0.02,1.0,l
2928.0,3233.0,3635.0,4095.0,4095.0,2881.0,3280.0,3265.0,-0.13,10.07,0.75,-0.0,-0.07,-0.07,1.0,l
2928.0,3230.0,3622.0,4095.0,4095.0,2875.0,3281.0,3263.0,-0.44,9.96,0.79,-0.02,0.02,-0.09,1.0,l
2931.0,3245.0,3643.0,4095.0,4095.0,2886.0,3302.0,3281.0,-0.73,10.08,0.35,-0.05,-0.02,-0.07,1.0,l
2935.0,3248.0,3626.0,4095.0,4095.0,2882.0,3286.0,3283.0,-0.85,9.98,0.45,-0.07,-0.04,-0.08,1.0,l
2938.0,3248.0,3624.0,4095.0,4095.0,2894.0,3299.0,3295.0,-0.9,9.97,0.48,-0.08,-0.01,-0.07,1.0,l
2933.0,3243.0,3622.0,4095.0,4095.0,2877.0,3280.0,3281.0,-1.02,10.05,0.32,-0.09,0.02,-0.09,1.0,l
2939.0,3251.0,3632.0,4095.0,4095.0,2882.0,3295.0,3290.0,-1.08,9.98,0.46,-0.1,-0.1,-0.08,1.0,l
2924.0,3235.0,3617.0,4095.0,4095.0,2879.0,3283.0,3282.0,-1.13,9.91,0.8,-0.11,-0.05,-0.08,1.0,l
2935.0,3242.0,3627.0,4095.0,4095.0,2891.0,3294.0,3293.0,-1.09,9.93,0.74,-0.07,-0.02,-0.06,1.0,l
2937.0,3233.0,3622.0,4095.0,4095.0,2886.0,3287.0,3286.0,-1.04,9.92,0.62,-0.09,-0.04,-0.07,1.0,l
2940.0,3239.0,3632.0,4095.0,4095.0,2886.0,3297.0,3290.0,-1.26,10.02,0.59,-0.11,-0.05,-0.11,1.0,l
2931.0,3237.0,3617.0,4095.0,4095.0,2883.0,3298.0,3294.0,-1.26,9.94,0.89,-0.1,-0.11,-0.09,1.0,l
2930.0,3251.0,3647.0,4095.0,4095.0,2886.0,3297.0,3295.0,-1.35,9.8,1.06,-0.1,-0.0,-0.1,1.0,l
2929.0,3254.0,3623.0,4095.0,4095.0,2885.0,3290.0,3297.0,-1.34,9.92,0.8,-0.08,-0.01,-0.09,1.0,l
2928.0,3246.0,3603.0,4095.0,4095.0,2884.0,3286.0,3283.0,-1.48,9.95,0.87,-0.08,-0.02,-0.08,1.0,l
2941.0,3243.0,3597.0,4095.0,4095.0,2901.0,3299.0,3301.0,-1.47,9.99,0.89,-0.08,-0.05,-0.08,1.0,l
2928.0,3228.0,3583.0,4095.0,4095.0,2891.0,3294.0,3287.0,-1.4,9.94,0.81,-0.12,-0.09,-0.09,1.0,l
2931.0,3250.0,3609.0,4095.0,4095.0,2893.0,3286.0,3303.0,-1.45,9.78,1.4,-0.18,0.03,-0.05,1.0,l
2930.0,3245.0,3602.0,4095.0,4095.0,2896.0,3277.0,3285.0,-1.63,9.9,1.35,-0.06,-0.02,-0.07,1.0,l
2933.0,3246.0,3612.0,4095.0,4095.0,2900.0,3293.0,3310.0,-1.44,9.92,1.2,-0.02,-0.04,-0.05,1.0,l
2931.0,3243.0,3600.0,4095.0,4095.0,2896.0,3283.0,3287.0,-1.38,9.82,1.22,-0.07,-0.11,-0.03,1.0,l
2935.0,3248.0,3601.0,4095.0,4095.0,2911.0,3297.0,3312.0,-1.73,9.85,1.25,-0.11,0.02,-0.08,1.0,l
2928.0,3237.0,3609.0,4095.0,4095.0,2919.0,3293.0,3312.0,-2.0,9.25,3.42,-0.01,-0.06,-0.08,1.0,l
2928.0,3227.0,3619.0,4095.0,4095.0,2931.0,3313.0,3325.0,-1.98,9.2,3.48,0.01,-0.09,-0.08,1.0,l
2934.0,3239.0,3626.0,4095.0,4095.0,2931.0,3309.0,3317.0,-2.13,9.16,3.39,-0.04,0.05,-0.07,1.0,l
2933.0,3227.0,3601.0,4095.0,4095.0,2929.0,3311.0,3311.0,-2.13,9.23,3.36,-0.04,0.01,-0.09,1.0,l
2933.0,3231.0,3608.0,4095.0,4095.0,2927.0,3302.0,3317.0,-2.26,9.15,3.38,-0.03,-0.03,-0.08,1.0,l
2932.0,3235.0,3583.0,4095.0,4095.0,2927.0,3305.0,3314.0,-2.21,9.21,3.41,-0.02,0.02,-0.04,1.0,l
2931.0,3247.0,3614.0,4095.0,4095.0,2928.0,3306.0,3316.0,-2.12,9.31,3.24,0.03,-0.06,-0.08,1.0,l
2934.0,3242.0,3583.0,4095.0,4095.0,2928.0,3303.0,3315.0,-2.17,9.27,3.12,0.0,-0.04,-0.08,1.0,l
2933.0,3232.0,3613.0,4095.0,4095.0,2931.0,3315.0,3328.0,-2.29,9.3,3.16,0.01,-0.04,-0.08,1.0,l
2930.0,3248.0,3606.0,4095.0,4095.0,2924.0,3295.0,3324.0,-2.34,9.21,3.13,0.0,0.04,-0.05,1.0,l
2934.0,3238.0,3615.0,4095.0,4095.0,2934.0,3316.0,3334.0,-2.29,9.31,2.96,0.0,-0.02,-0.04,1.0,l
2937.0,3239.0,3610.0,4095.0,4095.0,2926.0,3298.0,3318.0,-2.24,9.24,2.96,0.01,-0.07,-0.07,1.0,l
2926.0,3246.0,3610.0,4095.0,4095.0,2928.0,3305.0,3328.0,-2.44,9.28,2.99,-0.01,0.04,-0.08,1.0,l
2930.0,3229.0,3597.0,4095.0,4095.0,2925.0,3303.0,3331.0,-2.47,9.31,2.93,-0.02,0.04,-0.06,1.0,l
2931.0,3233.0,3606.0,4095.0,4095.0,2924.0,3306.0,3327.0,-2.44,9.29,2.87,0.02,-0.02,-0.08,1.0,l
2938.0,3238.0,3618.0,4095.0,4095.0,2933.0,3319.0,3330.0,-2.45,9.33,2.76,0.02,-0.0,-0.06,1.0,l
2929.0,3232.0,3611.0,4095.0,4095.0,2923.0,3298.0,3319.0,-2.55,9.37,2.56,0.03,0.04,-0.07,1.0,l
2935.0,3235.0,3603.0,4095.0,4095.0,2934.0,3306.0,3331.0,-2.65,9.38,2.5,0.04,0.01,-0.06,1.0,l
2930.0,3221.0,3619.0,4095.0,4095.0,2930.0,3302.0,3321.0,-2.55,9.38,2.46,0.06,0.02,-0.07,1.0,l
2941.0,3237.0,3622.0,4095.0,4095.0,2931.0,3312.0,3337.0,-2.69,9.39,2.19,0.07,0.01,-0.06,1.0,l
2937.0,3249.0,3607.0,4095.0,4095.0,2929.0,3311.0,3343.0,-2.43,9.66,1.3,-0.07,0.07,0.01,1.0,l
2934.0,3241.0,3606.0,4095.0,4095.0,2927.0,3306.0,3331.0,-2.25,9.68,1.33,-0.06,0.01,-0.01,1.0,l
2931.0,3248.0,3602.0,4095.0,4095.0,2938.0,3312.0,3344.0,-2.24,9.69,1.36,-0.05,0.02,-0.03,1.0,l
2933.0,3233.0,3617.0,4095.0,4095.0,2927.0,3303.0,3329.0,-2.4,9.74,1.34,-0.05,-0.01,0.03,1.0,l
2941.0,3250.0,3617.0,4095.0,4095.0,2928.0,3318.0,3344.0,-2.1,9.62,1.44,-0.07,0.03,0.03,1.0,l
2927.0,3234.0,3612.0,4095.0,4095.0,2929.0,3306.0,3339.0,-2.1,9.66,1.35,-0.07,-0.0,0.01,1.0,l
2935.0,3244.0,3617.0,4095.0,4095.0,2934.0,3312.0,3344.0,-2.25,9.57,1.49,-0.07,0.03,0.01,1.0,l
2929.0,3237.0,3626.0,4095.0,4095.0,2939.0,3317.0,3341.0,-1.95,9.76,1.41,-0.05,0.03,0.01,1.0,l
2924.0,3230.0,3613.0,4095.0,4095.0,2933.0,3306.0,3342.0,-2.06,9.73,1.2,-0.01,-0.06,0.05,1.0,l
2930.0,3223.0,3619.0,4095.0,4095.0,2943.0,3323.0,3351.0,-1.85,9.74,1.15,-0.15,-0.02,0.03,1.0,l
2930.0,3226.0,3606.0,4095.0,4095.0,2939.0,3312.0,3334.0,-1.77,9.81,1.48,-0.06,-0.06,-0.01,1.0,l
2930.0,3222.0,3612.0,4095.0,4095.0,2935.0,3312.0,3346.0,-1.98,9.75,1.41,-0.05,0.1,0.01,1.0,l
2939.0,3241.0,3610.0,4095.0,4095.0,2930.0,3312.0,3343.0,-1.91,9.8,1.24,-0.04,-0.03,0.03,1.0,l
2929.0,3229.0,3617.0,4095.0,4095.0,2943.0,3314.0,3344.0,-1.8,9.82,1.29,-0.03,0.01,-0.0,1.0,l
2928.0,3229.0,3615.0,4095.0,4095.0,2939.0,3310.0,3333.0,-1.88,9.75,1.33,-0.03,0.0,0.01,1.0,l
2933.0,3244.0,3631.0,4095.0,4095.0,2939.0,3327.0,3348.0,-1.66,9.84,1.29,-0.03,0.01,-0.01,1.0,l
2925.0,3233.0,3613.0,4095.0,4095.0,2942.0,3311.0,3334.0,-1.75,9.76,1.24,-0.05,0.04,0.03,1.0,l
2935.0,3234.0,3632.0,4095.0,4095.0,2941.0,3319.0,3349.0,-1.67,9.8,1.23,-0.05,0.06,-0.02,1.0,l
2928.0,3239.0,3610.0,4095.0,4095.0,2931.0,3321.0,3330.0,-1.73,9.8,1.19,-0.03,-0.02,-0.01,1.0,l
2931.0,3222.0,3609.0,4095.0,4095.0,2943.0,3314.0,3339.0,-1.49,9.86,1.23,-0.02,0.01,-0.01,1.0,l
2941.0,3242.0,3634.0,4095.0,4095.0,2940.0,3312.0,3347.0,-1.73,9.83,1.09,-0.06,0.07,0.04,1.0,l
2931.0,3242.0,3613.0,4095.0,4095.0,2939.0,3311.0,3343.0,-1.45,9.82,1.01,-0.04,0.09,0.01,1.0,l
2934.0,3245.0,3614.0,4095.0,4095.0,2949.0,3313.0,3338.0,-1.45,9.84,1.01,-0.05,0.0,0.06,1.0,l
2928.0,3239.0,3622.0,4095.0,4095.0,2935.0,3306.0,3339.0,-1.2,9.95,1.04,-0.06,0.03,0.04,1.0,l
2929.0,3248.0,3615.0,4095.0,4095.0,2945.0,3313.0,3346.0,-1.31,9.97,0.98,-0.05,0.01,-0.0,1.0,l
2926.0,3228.0,3601.0,4095.0,4095.0,2934.0,3309.0,3337.0,-1.2,9.92,1.08,-0.03,-0.02,-0.02,1.0,l
2934.0,3241.0,3614.0,4095.0,4095.0,2955.0,3314.0,3344.0,-1.14,9.92,1.05,-0.06,-0.0,-0.0,1.0,l
2933.0,3234.0,3611.0,4095.0,4095.0,2939.0,3314.0,3344.0,-1.24,9.81,0.96,-0.03,0.0,-0.03,1.0,l
2935.0,3242.0,3602.0,4095.0,4095.0,2939.0,3307.0,3333.0,-1.41,9.87,0.82,-0.09,0.04,-0.0,1.0,l
2931.0,3247.0,3625.0,4095.0,4095.0,2938.0,3315.0,3341.0,-1.04,10.07,1.11,-0.05,0.02,0.03,1.0,l
2926.0,3229.0,3617.0,4095.0,4095.0,2933.0,3305.0,3330.0,-1.01,9.81,1.01,-0.04,-0.1,-0.01,1.0,l
2938.0,3237.0,3607.0,4095.0,4095.0,2931.0,3318.0,3348.0,-1.0,9.9,1.03,-0.06,0.05,0.04,1.0,l
2930.0,3222.0,3608.0,4095.0,4095.0,2934.0,3309.0,3334.0,-1.16,9.92,0.9,-0.06,0.07,0.03,1.0,l
2927.0,3232.0,3620.0,4095.0,4095.0,2937.0,3312.0,3346.0,-1.08,9.97,1.06,-0.06,0.06,0.05,1.0,l
2928.0,3235.0,3626.0,4095.0,4095.0,2928.0,3303.0,3335.0,-1.03,10.04,0.82,-0.02,0.0,0.0,1.0,l
2923.0,3231.0,3607.0,4095.0,4095.0,2944.0,3315.0,3346.0,-0.95,9.87,0.92,-0.08,0.01,0.04,1.0,l
2928.0,3237.0,3635.0,4095.0,4095.0,2933.0,3311.0,3338.0,-0.62,9.97,1.18,-0.07,0.03,-0.04,1.0,l
2929.0,3235.0,3636.0,4095.0,4095.0,2941.0,3321.0,3347.0,-0.95,9.99,0.94,-0.04,0.03,-0.02,1.0,l
2930.0,3230.0,3609.0,4095.0,4095.0,2944.0,3317.0,3349.0,-0.92,10.05,0.83,-0.04,0.09,0.03,1.0,l
2939.0,3237.0,3600.0,4095.0,4095.0,2935.0,3310.0,3344.0,-0.91,10.01,0.83,-0.06,0.05,0.05,1.0,l
2933.0,3243.0,3622.0,4095.0,4095.0,2939.0,3312.0,3351.0,-0.27,9.51,3.03,-0.3,-0.17,-0.14,1.0,l
2931.0,3226.0,3617.0,4095.0,4095.0,2939.0,3307.0,3339.0,-0.67,9.5,3.33,-0.23,0.09,-0.16,1.0,l
2935.0,3241.0,3632.0,4095.0,4095.0,2954.0,3315.0,3353.0,-0.84,9.34,3.3,-0.17,-0.14,-0.14,1.0,l
2930.0,3230.0,3613.0,4095.0,4095.0,2934.0,3300.0,3344.0,-1.16,9.78,3.08,-0.2,-0.05,-0.09,1.0,l
2939.0,3239.0,3638.0,4095.0,4095.0,2945.0,3318.0,3347.0,-1.39,9.45,3.23,-0.27,-0.05,-0.09,1.0,l
2949.0,3243.0,3625.0,4095.0,4095.0,2946.0,3325.0,3355.0,-0.82,9.1,3.42,-0.4,-0.09,-0.16,1.0,l
2933.0,3246.0,3607.0,4095.0,4095.0,2938.0,3313.0,3348.0,-1.18,9.55,4.26,-0.41,-0.01,-0.05,1.0,l
2931.0,3237.0,3614.0,4095.0,4095.0,2947.0,3318.0,3348.0,-1.33,9.39,4.35,-0.36,0.03,0.07,1.0,l
2928.0,3230.0,3618.0,4095.0,4095.0,2944.0,3313.0,3344.0,-0.76,8.59,5.51,-0.22,-0.14,0.19,1.0,l
2951.0,3249.0,3643.0,4095.0,4095.0,2955.0,3319.0,3355.0,-0.78,9.11,5.82,0.34,0.46,0.42,1.0,l
2932.0,3229.0,3622.0,4095.0,4095.0,2939.0,3312.0,3351.0,0.11,9.31,3.43,0.26,0.27,0.11,1.0,l
2940.0,3243.0,3615.0,4095.0,4095.0,2946.0,3318.0,3361.0,-0.41,9.43,3.16,0.15,0.26,0.21,1.0,l
2934.0,3241.0,3625.0,4095.0,4095.0,2943.0,3317.0,3354.0,-0.45,9.97,3.8,0.3,0.2,-0.04,1.0,l
2933.0,3233.0,3623.0,4095.0,4095.0,2945.0,3317.0,3365.0,0.1,9.55,2.98,0.52,0.37,-0.41,1.0,l
2928.0,3259.0,3632.0,4095.0,4095.0,2927.0,3287.0,3344.0,-2.22,10.11,-2.04,-0.58,1.34,-0.31,1.0,l
2928.0,3264.0,3638.0,4095.0,4095.0,2942.0,3311.0,3355.0,-1.39,9.26,4.7,-0.38,-1.65,-0.45,1.0,l
2925.0,3258.0,3618.0,4095.0,4095.0,2949.0,3314.0,3371.0,-1.35,8.97,3.79,0.05,-0.18,0.02,1.0,l
2926.0,3260.0,3629.0,4095.0,4095.0,2939.0,3308.0,3360.0,-0.85,10.09,3.17,-0.01,0.27,0.1,1.0,l
2937.0,3263.0,3634.0,4095.0,4095.0,2944.0,3319.0,3373.0,0.0,8.94,2.63,0.48,-0.0,-0.46,1.0,l
2928.0,3250.0,3614.0,4095.0,4095.0,2933.0,3306.0,3358.0,-2.04,10.13,1.03,-0.15,0.33,-0.49,1.0,l
2939.0,3271.0,3636.0,4095.0,4095.0,2953.0,3319.0,3372.0,-1.03,9.1,3.43,0.79,0.65,0.17,1.0,l
2928.0,3259.0,3618.0,4095.0,4095.0,2939.0,3309.0,3366.0,-0.76,9.86,3.19,0.18,0.02,0.01,1.0,l
2928.0,3261.0,3618.0,4095.0,4095.0,2935.0,3311.0,3354.0,-0.4,10.72,-1.19,-0.58,0.31,-0.23,1.0,l
2941.0,3275.0,3630.0,4095.0,4095.0,2937.0,3319.0,3373.0,-1.3,10.84,3.16,-0.71,-0.2,-0.14,1.0,l
2928.0,3266.0,3615.0,4095.0,4095.0,2935.0,3307.0,3362.0,-1.43,8.76,3.64,-0.13,-0.45,0.16,1.0,l
2935.0,3268.0,3632.0,4095.0,4095.0,2947.0,3325.0,3373.0,-0.68,9.06,2.94,-0.13,0.03,0.2,1.0,l
2928.0,3259.0,3612.0,4095.0,4095.0,2944.0,3317.0,3370.0,-0.77,9.93,2.83,-0.24,-0.15,0.1,1.0,l
2941.0,3264.0,3627.0,4095.0,4095.0,2947.0,3331.0,3380.0,0.03,9.68,3.69,-0.24,-0.07,0.09,1.0,l
2938.0,3266.0,3611.0,4095.0,4095.0,2942.0,3333.0,3373.0,-0.45,9.03,3.41,-0.24,-0.28,0.14,1.0,l
2934.0,3269.0,3632.0,4095.0,4095.0,2942.0,3329.0,3361.0,0.92,9.12,4.43,-0.35,-0.97,0.6,1.0,l
2926.0,3254.0,3620.0,4095.0,4095.0,2935.0,3298.0,3349.0,2.29,9.1,6.02,0.48,-0.51,-0.19,1.0,l
2929.0,3246.0,3628.0,4095.0,4095.0,2936.0,3296.0,3335.0,0.61,8.73,6.68,0.05,0.16,-0.42,1.0,l
2930.0,3227.0,3630.0,4095.0,4095.0,2928.0,3289.0,3300.0,0.63,8.03,5.78,0.06,0.55,-0.41,1.0,l
2928.0,3222.0,3632.0,4095.0,4095.0,2943.0,3311.0,3355.0,-0.05,8.13,5.37,0.27,0.46,-0.5,1.0,l
2934.0,3239.0,3637.0,4095.0,4095.0,2946.0,3310.0,3355.0,-0.45,9.45,3.74,0.06,0.74,-0.41,1.0,l
2933.0,3223.0,3623.0,4095.0,4095.0,2935.0,3302.0,3364.0,-0.62,10.29,3.51,0.08,0.18,-0.29,1.0,l
2938.0,3245.0,3632.0,4095.0,4095.0,2954.0,3317.0,3369.0,-0.73,10.04,3.17,0.17,-0.43,0.04,1.0,l
2928.0,3229.0,3615.0,4095.0,4095.0,2947.0,3312.0,3363.0,-1.0,9.04,2.15,0.0,-0.54,-0.03,1.0,l
2928.0,3230.0,3632.0,4095.0,4095.0,2958.0,3320.0,3381.0,-0.93,9.09,3.03,-0.03,-0.12,-0.15,1.0,l
2928.0,3227.0,3613.0,4095.0,4095.0,2948.0,3309.0,3371.0,-1.48,10.17,3.24,0.16,-0.15,-0.31,1.0,l
2942.0,3241.0,3629.0,4095.0,4095.0,2951.0,3315.0,3367.0,-0.68,9.58,2.12,-0.1,0.16,0.22,1.0,l
2939.0,3245.0,3623.0,4095.0,4095.0,2951.0,3312.0,3371.0,-1.28,10.04,2.2,-0.16,0.33,0.19,1.0,l
2946.0,3245.0,3635.0,4095.0,4095.0,2944.0,3318.0,3379.0,-0.13,9.78,2.07,-0.09,0.06,0.11,1.0,l
2932.0,3236.0,3617.0,4095.0,4095.0,2946.0,3312.0,3370.0,0.03,9.87,2.68,-0.12,-0.03,0.08,1.0,l
2942.0,3247.0,3631.0,4095.0,4095.0,2950.0,3318.0,3383.0,0.04,10.04,2.59,-0.13,0.1,0.06,1.0,l
2937.0,3231.0,3620.0,4095.0,4095.0,2951.0,3312.0,3374.0,-0.36,9.82,2.39,-0.21,-0.14,0.08,1.0,l
2942.0,3239.0,3635.0,4095.0,4095.0,2956.0,3317.0,3379.0,-0.25,9.59,3.5,-0.28,-0.07,0.17,1.0,l
2933.0,3242.0,3633.0,4095.0,4095.0,2949.0,3308.0,3370.0,0.87,9.6,2.49,-0.25,0.13,0.13,1.0,l
2928.0,3232.0,3635.0,4095.0,4095.0,2951.0,3313.0,3363.0,0.55,9.5,3.58,-0.26,-0.2,-0.05,1.0,l
2931.0,3254.0,3632.0,4095.0,4095.0,2954.0,3326.0,3381.0,0.44,9.39,3.72,-0.19,-0.0,-0.03,1.0,l
2928.0,3242.0,3623.0,4095.0,4095.0,2946.0,3313.0,3375.0,0.29,9.33,3.6,-0.16,0.09,-0.02,1.0,l
2935.0,3240.0,3632.0,4095.0,4095.0,2960.0,3325.0,3381.0,0.47,9.5,3.5,-0.15,-0.04,-0.07,1.0,l
2933.0,3257.0,3635.0,4095.0,4095.0,2951.0,3312.0,3373.0,0.4,9.46,3.35,-0.23,-0.03,-0.07,1.0,l
2939.0,3255.0,3648.0,4095.0,4095.0,2955.0,3319.0,3382.0,0.16,9.21,4.03,-0.31,-0.16,-0.03,1.0,l
2927.0,3237.0,3631.0,4095.0,4095.0,2953.0,3319.0,3367.0,0.63,9.31,4.13,-0.34,0.07,-0.07,1.0,l
2931.0,3257.0,3638.0,4095.0,4095.0,2957.0,3328.0,3387.0,0.32,9.01,4.66,-0.36,0.01,-0.11,1.0,l
2925.0,3241.0,3626.0,4095.0,4095.0,2951.0,3314.0,3376.0,0.18,9.02,5.04,-0.24,-0.1,-0.1,1.0,l
2931.0,3248.0,3644.0,4095.0,4095.0,2961.0,3318.0,3376.0,0.09,9.06,4.74,-0.19,-0.0,-0.04,1.0,l
2922.0,3236.0,3634.0,4095.0,4095.0,2958.0,3312.0,3376.0,0.34,8.89,4.98,-0.2,0.0,-0.08,1.0,l
2928.0,3246.0,3643.0,4095.0,4095.0,2959.0,3314.0,3369.0,0.18,8.76,5.4,-0.16,-0.07,-0.14,1.0,l
2929.0,3455.0,3730.0,4095.0,4095.0,2927.0,3207.0,2869.0,-0.28,9.17,4.18,0.02,-0.03,-0.05,1.0,l
2929.0,3470.0,3754.0,4095.0,4095.0,2927.0,3202.0,2849.0,0.15,9.62,3.91,-0.0,0.07,0.01,1.0,l
2927.0,3454.0,3753.0,4095.0,4095.0,2935.0,3213.0,2854.0,-0.04,9.44,3.8,-0.02,-0.07,0.02,1.0,l
2928.0,3456.0,3734.0,4095.0,4095.0,2931.0,3199.0,2830.0,0.13,9.36,3.99,-0.02,-0.11,-0.0,1.0,l
2930.0,3472.0,3731.0,4095.0,4095.0,2938.0,3216.0,2850.0,-0.04,9.34,3.77,-0.0,-0.04,-0.03,1.0,l
2922.0,3451.0,3717.0,4095.0,4095.0,2940.0,3216.0,2851.0,0.04,9.46,3.86,0.01,-0.01,0.07,1.0,l
2928.0,3469.0,3742.0,4095.0,4095.0,2949.0,3216.0,2923.0,0.04,9.53,3.85,0.0,-0.02,-0.04,1.0,l
2928.0,3456.0,3747.0,4095.0,4095.0,2951.0,3217.0,2960.0,-0.07,9.67,3.54,0.01,0.03,0.05,1.0,l
2929.0,3451.0,3751.0,4095.0,4095.0,2948.0,3216.0,2960.0,-0.02,9.55,3.9,-0.01,0.24,0.09,1.0,l
2938.0,3479.0,3758.0,4095.0,4095.0,2957.0,3222.0,2942.0,0.32,9.03,3.49,-0.13,0.36,-0.04,1.0,l
2928.0,3472.0,3760.0,4095.0,4095.0,2951.0,3218.0,2944.0,0.44,9.52,3.86,-0.15,-0.08,0.12,1.0,l
2928.0,3479.0,3773.0,4095.0,4095.0,2961.0,3231.0,2971.0,0.09,9.8,3.66,-0.1,-0.03,0.14,1.0,l
2927.0,3490.0,3731.0,4095.0,4095.0,2959.0,3229.0,2961.0,0.47,9.5,3.67,-0.03,0.16,0.14,1.0,l
2927.0,3484.0,3757.0,4095.0,4095.0,2963.0,3235.0,2965.0,0.36,9.71,3.43,-0.01,0.41,-0.03,1.0,l
2932.0,3479.0,3737.0,4095.0,4095.0,2961.0,3228.0,2953.0,-0.09,9.29,3.28,0.16,0.38,-0.21,1.0,l
2942.0,3495.0,3769.0,4095.0,4095.0,2966.0,3232.0,2929.0,0.39,9.29,3.2,0.04,0.45,-0.51,1.0,l
2925.0,3497.0,3744.0,4095.0,4095.0,2969.0,3236.0,2902.0,-1.09,9.77,3.16,-0.11,0.36,-0.39,1.0,l
2929.0,3504.0,3774.0,4095.0,4095.0,2979.0,3238.0,2898.0,-0.03,9.37,4.01,-0.16,0.15,0.22,1.0,l
2930.0,3493.0,3758.0,4095.0,4095.0,2981.0,3248.0,2911.0,-0.4,9.6,3.3,-0.15,0.03,0.09,1.0,l
2926.0,3497.0,3741.0,4095.0,4095.0,2975.0,3240.0,2895.0,-0.23,9.53,3.62,-0.13,0.01,0.05,1.0,l
2919.0,3472.0,3760.0,4095.0,4095.0,2999.0,3249.0,2832.0,-0.3,9.48,3.76,-0.13,-0.34,-0.15,1.0,l
2935.0,3491.0,3775.0,4095.0,4095.0,3004.0,3261.0,2838.0,-0.5,9.1,4.48,-0.16,0.01,-0.07,1.0,l
2927.0,3490.0,3777.0,4095.0,4095.0,3008.0,3257.0,2843.0,-0.24,9.22,4.42,-0.16,-0.02,-0.08,1.0,l
2934.0,3483.0,3761.0,4095.0,4095.0,3001.0,3262.0,2835.0,-0.53,9.06,4.36,-0.14,-0.05,-0.11,1.0,l
2935.0,3500.0,3757.0,4095.0,4095.0,3002.0,3259.0,2842.0,-0.45,9.25,3.96,-0.24,-0.05,-0.09,1.0,l
2941.0,3494.0,3769.0,4095.0,4095.0,2999.0,3253.0,2835.0,-0.55,9.01,4.93,-0.37,0.03,-0.14,1.0,l
2941.0,3489.0,3777.0,4095.0,4095.0,3008.0,3267.0,2809.0,-0.93,8.77,5.36,-0.19,0.03,-0.14,1.0,l
2928.0,3477.0,3759.0,4095.0,4095.0,3003.0,3261.0,2798.0,-0.67,8.81,5.05,-0.12,-0.08,-0.09,1.0,l
2929.0,3493.0,3771.0,4095.0,4095.0,3007.0,3263.0,2807.0,-0.79,8.85,5.05,-0.14,-0.03,-0.09,1.0,l
2927.0,3477.0,3773.0,4095.0,4095.0,3006.0,3254.0,2814.0,-0.72,8.7,5.19,-0.09,-0.06,-0.09,1.0,l
2931.0,3490.0,3765.0,4095.0,4095.0,3005.0,3264.0,2863.0,-0.76,8.64,5.26,-0.09,-0.03,-0.09,1.0,l
2929.0,3488.0,3763.0,4095.0,4095.0,3006.0,3252.0,2846.0,-0.84,8.66,5.19,-0.06,-0.01,-0.07,1.0,l
2940.0,3501.0,3792.0,4095.0,4095.0,3019.0,3266.0,2832.0,-0.79,8.69,5.15,-0.07,-0.03,-0.08,1.0,l
2929.0,3495.0,3765.0,4095.0,4095.0,3011.0,3255.0,2811.0,-0.8,8.7,5.2,-0.08,-0.07,-0.09,1.0,l
2931.0,3483.0,3773.0,4095.0,4095.0,3007.0,3258.0,2819.0,-0.81,8.51,5.38,-0.09,-0.01,-0.12,1.0,l
2933.0,3489.0,3789.0,4095.0,4095.0,3007.0,3263.0,2842.0,-0.9,8.68,5.22,-0.08,-0.07,-0.16,1.0,l
2928.0,3482.0,3761.0,4095.0,4095.0,3011.0,3267.0,2830.0,-1.14,8.5,5.49,-0.08,-0.03,-0.15,1.0,l
2928.0,3494.0,3790.0,4095.0,4095.0,3013.0,3271.0,2865.0,-1.16,8.57,5.38,-0.07,0.03,-0.12,1.0,l
2935.0,3487.0,3764.0,4095.0,4095.0,3008.0,3265.0,2847.0,-1.14,8.58,5.28,-0.03,-0.16,-0.13,1.0,l
2928.0,3486.0,3774.0,4095.0,4095.0,3007.0,3274.0,2829.0,-1.29,8.52,5.38,-0.03,-0.04,-0.1,1.0,l
2929.0,3504.0,3822.0,4095.0,4095.0,3021.0,3286.0,2931.0,-1.74,8.6,4.95,0.0,-0.03,-0.16,1.0,l
2937.0,3494.0,3808.0,4095.0,4095.0,3013.0,3273.0,2926.0,-1.82,8.61,4.97,0.05,-0.14,-0.16,1.0,l
2929.0,3520.0,3810.0,4095.0,4095.0,3024.0,3289.0,2956.0,-1.89,8.67,4.82,0.01,-0.04,-0.13,1.0,l
2927.0,3505.0,3805.0,4095.0,4095.0,3019.0,3281.0,2947.0,-1.95,8.63,4.92,0.03,-0.05,-0.12,1.0,l
2931.0,3511.0,3793.0,4095.0,4095.0,3023.0,3283.0,2944.0,-2.18,8.65,4.69,0.04,0.06,-0.11,1.0,l
2926.0,3503.0,3800.0,4095.0,4095.0,3019.0,3279.0,2942.0,-2.22,8.65,4.58,-0.0,0.02,-0.1,1.0,l
2931.0,3494.0,3831.0,4095.0,4095.0,3025.0,3294.0,2960.0,-2.15,8.75,4.66,-0.01,-0.01,-0.07,1.0,l
2929.0,3519.0,3825.0,4095.0,4095.0,3024.0,3290.0,2960.0,-2.22,8.72,4.6,0.02,-0.04,-0.06,1.0,l
2927.0,3473.0,3810.0,4095.0,4095.0,3023.0,3281.0,2958.0,-2.26,8.78,4.42,0.07,-0.06,-0.05,1.0,l
2923.0,3502.0,3831.0,4095.0,4095.0,3043.0,3285.0,2963.0,-2.06,8.9,4.24,0.06,0.01,-0.02,1.0,l
2933.0,3499.0,3815.0,4095.0,4095.0,3023.0,3280.0,2967.0,-1.9,8.95,4.1,-0.01,0.01,-0.08,1.0,l
2929.0,3504.0,3825.0,4095.0,4095.0,3030.0,3311.0,2978.0,-2.18,8.84,4.37,0.01,-0.09,-0.13,1.0,l
2931.0,3499.0,3794.0,4095.0,4095.0,3019.0,3282.0,2980.0,-2.46,8.84,4.21,0.01,0.01,-0.08,1.0,l
2941.0,3510.0,3831.0,4095.0,4095.0,3036.0,3296.0,2960.0,-2.37,8.87,4.04,0.01,0.01,-0.02,1.0,l
2928.0,3504.0,3793.0,4095.0,4095.0,3024.0,3280.0,2891.0,-2.14,8.97,4.11,-0.0,-0.02,-0.06,1.0,l
2943.0,3494.0,3806.0,4095.0,4095.0,3030.0,3287.0,2913.0,-2.24,8.87,4.34,0.06,-0.06,-0.09,1.0,l
2928.0,3496.0,3806.0,4095.0,4095.0,3023.0,3289.0,2800.0,-2.45,8.98,3.87,0.14,-0.0,-0.04,1.0,l
2935.0,3503.0,3810.0,4095.0,4095.0,3028.0,3301.0,2928.0,-2.36,9.13,3.5,0.08,0.03,0.02,1.0,l
2934.0,3501.0,3798.0,4095.0,4095.0,3023.0,3289.0,2960.0,-2.26,9.13,3.39,0.03,0.12,0.03,1.0,l
2927.0,3501.0,3795.0,4095.0,4095.0,3023.0,3281.0,2930.0,-2.14,9.25,3.37,-0.01,0.07,-0.01,1.0,l
2929.0,3504.0,3815.0,4095.0,4095.0,3024.0,3294.0,2945.0,-1.69,9.67,2.89,0.05,0.1,0.06,1.0,l
2927.0,3504.0,3828.0,4095.0,4095.0,3031.0,3294.0,2955.0,-1.57,9.57,2.46,0.04,0.1,0.07,1.0,l
2934.0,3502.0,3818.0,4095.0,4095.0,3028.0,3283.0,2975.0,-1.35,9.64,2.35,0.01,0.09,0.1,1.0,l
2945.0,3520.0,3824.0,4095.0,4095.0,3023.0,3282.0,2953.0,-1.13,9.67,2.48,0.03,-0.0,0.05,1.0,l
2928.0,3504.0,3810.0,4095.0,4095.0,3033.0,3285.0,2930.0,-1.35,9.72,2.41,0.03,0.08,0.01,1.0,l
2929.0,3490.0,3791.0,4095.0,4095.0,3025.0,3286.0,2928.0,-1.37,9.8,2.09,-0.04,0.11,0.06,1.0,l
2934.0,3501.0,3824.0,4095.0,4095.0,3037.0,3288.0,2915.0,-1.25,9.73,2.22,-0.07,0.05,0.11,1.0,l
2928.0,3515.0,3819.0,4095.0,4095.0,3023.0,3282.0,2915.0,-0.96,9.75,2.23,-0.06,0.08,0.07,1.0,l
2933.0,3510.0,3821.0,4095.0,4095.0,3035.0,3299.0,2914.0,-0.91,9.82,2.58,0.02,0.0,0.06,1.0,l
2930.0,3504.0,3802.0,4095.0,4095.0,3030.0,3294.0,2899.0,-0.73,9.94,1.84,0.05,0.02,0.05,1.0,l
2945.0,3522.0,3810.0,4095.0,4095.0,3038.0,3297.0,2906.0,-0.71,9.87,1.78,-0.04,0.03,0.05,1.0,l
2934.0,3514.0,3821.0,4095.0,4095.0,3025.0,3283.0,2930.0,-0.88,9.86,2.04,-0.05,0.02,0.06,1.0,l
2937.0,3518.0,3822.0,4095.0,4095.0,3031.0,3291.0,2937.0,-0.54,9.86,1.97,-0.04,-0.01,0.07,1.0,l
2928.0,3494.0,3795.0,4095.0,4095.0,3029.0,3291.0,2909.0,-0.55,9.95,1.88,-0.09,-0.05,0.05,1.0,l
2933.0,3511.0,3814.0,4095.0,4095.0,3037.0,3301.0,2892.0,-0.51,10.03,1.81,-0.08,-0.03,0.1,1.0,l
2943.0,3524.0,3824.0,4095.0,4095.0,3029.0,3293.0,2955.0,-0.34,10.0,1.78,-0.04,-0.07,0.17,1.0,l
2930.0,3515.0,3792.0,4095.0,4095.0,3031.0,3297.0,2960.0,0.29,9.82,2.31,-0.08,-0.4,0.04,1.0,l
2938.0,3517.0,3810.0,4095.0,4095.0,3030.0,3297.0,2943.0,0.18,9.88,2.32,-0.04,0.09,0.08,1.0,l
2931.0,3504.0,3794.0,4095.0,4095.0,3031.0,3290.0,2926.0,0.15,9.72,2.23,-0.04,0.03,0.07,1.0,l
2929.0,3515.0,3807.0,4095.0,4095.0,3034.0,3303.0,2906.0,0.37,9.78,2.15,-0.07,0.06,0.1,1.0,l
2938.0,3521.0,3824.0,4095.0,4095.0,3037.0,3308.0,2983.0,0.98,9.5,3.16,-0.24,-0.02,-0.01,1.0,l
2928.0,3509.0,3798.0,4095.0,4095.0,3035.0,3295.0,2958.0,0.89,9.5,3.34,-0.16,-0.06,-0.01,1.0,l
2939.0,3523.0,3815.0,4095.0,4095.0,3029.0,3299.0,3007.0,1.06,9.54,3.18,-0.26,0.03,0.02,1.0,l
2933.0,3498.0,3797.0,4095.0,4095.0,3027.0,3290.0,2985.0,1.15,9.47,3.51,-0.29,0.08,-0.01,1.0,l
2934.0,3509.0,3819.0,4095.0,4095.0,3037.0,3305.0,2992.0,1.02,9.44,3.6,-0.35,0.08,-0.0,1.0,l
2928.0,3499.0,3810.0,4095.0,4095.0,3031.0,3293.0,2991.0,0.98,9.23,4.02,-0.37,0.01,-0.05,1.0,l
2941.0,3504.0,3815.0,4095.0,4095.0,3028.0,3293.0,3007.0,0.91,9.06,4.75,-0.31,0.11,-0.08,1.0,l
2915.0,3506.0,3829.0,4095.0,4095.0,3035.0,3286.0,2993.0,0.8,9.05,4.99,-0.17,0.07,-0.08,1.0,l
2944.0,3518.0,3826.0,4095.0,4095.0,3028.0,3297.0,2995.0,0.69,9.04,4.73,-0.11,0.02,-0.06,1.0,l
2940.0,3511.0,3837.0,4095.0,4095.0,3028.0,3294.0,2999.0,0.73,9.0,4.67,-0.13,0.02,-0.03,1.0,l
2934.0,3504.0,3815.0,4095.0,4095.0,3035.0,3286.0,2995.0,0.86,8.98,4.76,-0.15,0.05,-0.06,1.0,l
2933.0,3504.0,3820.0,4095.0,4095.0,3030.0,3291.0,2999.0,0.94,9.2,4.78,-0.12,0.07,-0.08,1.0,l
2928.0,3505.0,3821.0,4095.0,4095.0,3030.0,3291.0,2993.0,0.68,8.9,4.93,-0.08,-0.01,-0.09,1.0,l
2930.0,3519.0,3844.0,4095.0,4095.0,3038.0,3298.0,2995.0,0.92,8.9,4.82,-0.07,-0.1,-0.1,1.0,l
2927.0,3507.0,3824.0,4095.0,4095.0,3029.0,3283.0,2987.0,0.8,8.83,4.97,-0.11,-0.04,-0.24,1.0,l
2944.0,3505.0,3835.0,4095.0,4095.0,3040.0,3309.0,2994.0,0.46,9.03,5.09,-0.07,-0.09,-0.23,1.0,l
2929.0,3504.0,3819.0,4095.0,4095.0,3038.0,3294.0,3003.0,0.16,8.89,4.94,-0.06,-0.07,-0.24,1.0,l
2935.0,3511.0,3829.0,4095.0,4095.0,3038.0,3286.0,3003.0,-0.25,8.79,4.71,-0.15,0.03,-0.18,1.0,l
2937.0,3504.0,3824.0,4095.0,4095.0,3040.0,3295.0,3011.0,-0.14,8.79,5.35,-0.14,-0.01,-0.15,1.0,l
2938.0,3513.0,3837.0,4095.0,4095.0,3043.0,3302.0,2997.0,-0.22,8.85,5.39,-0.04,-0.1,-0.12,1.0,l
2938.0,3506.0,3827.0,4095.0,4095.0,3045.0,3297.0,3024.0,-0.28,8.94,4.48,0.09,-0.07,-0.07,1.0,l
2924.0,3501.0,3815.0,4095.0,4095.0,3041.0,3296.0,3007.0,-0.54,8.84,4.58,0.01,0.02,-0.09,1.0,l
2929.0,3501.0,3823.0,4095.0,4095.0,3045.0,3305.0,3012.0,-0.41,9.03,4.66,0.01,0.01,-0.08,1.0,l
2930.0,3504.0,3819.0,4095.0,4095.0,3043.0,3305.0,3015.0,-0.3,9.15,4.65,0.07,-0.09,-0.1,1.0,l
2928.0,3520.0,3845.0,4095.0,4095.0,3050.0,3303.0,3008.0,-0.73,9.11,4.39,0.06,-0.01,-0.07,1.0,l
2929.0,3505.0,3825.0,4095.0,4095.0,3044.0,3301.0,3024.0,-0.61,9.17,4.28,0.08,0.02,-0.02,1.0,l
2928.0,3498.0,3834.0,4095.0,4095.0,3040.0,3298.0,3011.0,-0.38,9.24,4.12,0.1,-0.02,-0.01,1.0,l
2943.0,3504.0,3824.0,4095.0,4095.0,3051.0,3305.0,3027.0,-0.51,9.28,3.9,0.05,-0.05,-0.03,1.0,l
2935.0,3503.0,3823.0,4095.0,4095.0,3038.0,3291.0,3022.0,-0.25,9.25,3.89,-0.02,-0.03,-0.07,1.0,l
2939.0,3503.0,3838.0,4095.0,4095.0,3055.0,3303.0,3023.0,-0.28,9.3,3.94,0.03,-0.06,-0.13,1.0,l
2939.0,3494.0,3825.0,4095.0,4095.0,3041.0,3291.0,3014.0,-0.66,9.37,3.84,0.08,-0.11,-0.16,1.0,l
2935.0,3509.0,3824.0,4095.0,4095.0,3047.0,3310.0,3025.0,-0.81,9.36,3.75,0.06,0.07,-0.02,1.0,l
2922.0,3488.0,3833.0,4095.0,4095.0,3043.0,3300.0,3005.0,-0.8,9.39,3.43,0.08,0.01,-0.09,1.0,l
2946.0,3503.0,3835.0,4095.0,4095.0,3052.0,3310.0,3021.0,-0.57,9.49,3.3,0.04,-0.0,-0.11,1.0,l
2931.0,3505.0,3824.0,4095.0,4095.0,3035.0,3298.0,3008.0,-0.79,9.63,3.16,0.04,-0.05,-0.12,1.0,l
2939.0,3506.0,3849.0,4095.0,4095.0,3045.0,3302.0,3011.0,-1.02,9.53,3.15,0.02,0.1,-0.01,1.0,l
2935.0,3504.0,3818.0,4095.0,4095.0,3039.0,3295.0,2989.0,-0.8,9.6,3.04,0.05,0.08,0.01,1.0,l
2944.0,3502.0,3845.0,4095.0,4095.0,3039.0,3291.0,2997.0,-0.73,9.68,2.88,0.11,-0.05,-0.02,1.0,l
2933.0,3520.0,3836.0,4095.0,4095.0,3050.0,3302.0,3011.0,-0.66,9.69,2.64,0.05,-0.07,-0.06,1.0,l
2935.0,3501.0,3839.0,4095.0,4095.0,3046.0,3299.0,2999.0,-0.7,9.7,2.45,-0.03,-0.06,-0.09,1.0,l
2931.0,3376.0,3857.0,4095.0,4095.0,3029.0,3295.0,2899.0,-0.96,9.72,2.39,-0.02,0.07,-0.06,1.0,l
2925.0,3357.0,3838.0,4095.0,4095.0,3022.0,3285.0,2911.0,-0.92,9.64,2.35,-0.01,-0.04,-0.1,1.0,l
2932.0,3359.0,3856.0,4095.0,4095.0,3029.0,3307.0,2937.0,-1.03,9.67,2.24,-0.0,-0.01,-0.05,1.0,l
2930.0,3351.0,3853.0,4095.0,4095.0,3028.0,3293.0,2934.0,-1.06,9.79,2.31,-0.06,-0.02,-0.06,1.0,l
2935.0,3361.0,3865.0,4095.0,4095.0,3022.0,3280.0,2914.0,-1.12,9.78,2.4,-0.0,-0.22,-0.07,1.0,l
2930.0,3383.0,3859.0,4095.0,4095.0,3036.0,3291.0,2942.0,-1.05,9.75,2.68,-0.11,0.05,-0.01,1.0,l
2921.0,3374.0,3847.0,4095.0,4095.0,3029.0,3291.0,2930.0,-0.93,9.81,2.52,-0.12,0.26,-0.03,1.0,l
2938.0,3390.0,3854.0,4095.0,4095.0,3037.0,3298.0,2946.0,-1.03,9.77,2.52,-0.09,0.01,-0.08,1.0,l
2932.0,3389.0,3856.0,4095.0,4095.0,3029.0,3297.0,2961.0,-1.19,9.72,2.46,-0.06,-0.02,-0.09,1.0,l
2941.0,3392.0,3856.0,4095.0,4095.0,3024.0,3298.0,2995.0,-1.0,9.75,2.48,-0.06,0.14,-0.16,1.0,l
2928.0,3383.0,3862.0,4095.0,4095.0,3039.0,3298.0,2975.0,-1.64,9.63,2.24,-0.05,-0.02,-0.17,1.0,l
2941.0,3405.0,3856.0,4095.0,4095.0,3046.0,3301.0,3008.0,-1.57,9.51,2.57,-0.1,-0.07,-0.05,1.0,l
2923.0,3398.0,3831.0,4095.0,4095.0,3037.0,3305.0,2982.0,-1.43,9.6,2.39,-0.08,0.04,-0.08,1.0,l
2929.0,3411.0,3846.0,4095.0,4095.0,3034.0,3305.0,2993.0,-1.41,9.63,2.44,-0.1,-0.07,-0.13,1.0,l
2930.0,3407.0,3855.0,4095.0,4095.0,3051.0,3307.0,3005.0,-1.41,9.63,2.64,-0.1,-0.02,-0.16,1.0,l
2928.0,3422.0,3852.0,4095.0,4095.0,3027.0,3301.0,3042.0,-1.64,10.11,2.36,-0.07,-0.03,0.13,1.0,l
2937.0,3429.0,3856.0,4095.0,4095.0,3045.0,3315.0,3066.0,-1.36,9.31,2.66,-0.07,-0.1,-0.05,1.0,l
2928.0,3408.0,3835.0,4095.0,4095.0,3047.0,3304.0,3050.0,-1.45,9.53,2.58,-0.06,-0.05,-0.12,1.0,l
2944.0,3435.0,3853.0,4095.0,4095.0,3045.0,3303.0,3055.0,-1.67,9.59,2.76,-0.13,0.1,-0.12,1.0,l
2928.0,3423.0,3845.0,4095.0,4095.0,3042.0,3303.0,3037.0,-1.7,9.59,2.74,-0.1,0.07,-0.08,1.0,l
2931.0,3424.0,3844.0,4095.0,4095.0,3046.0,3311.0,3024.0,-1.83,9.42,2.66,-0.05,0.12,0.01,1.0,l
2943.0,3440.0,3859.0,4095.0,4095.0,3049.0,3313.0,3046.0,-1.52,9.42,2.76,-0.09,0.03,-0.01,1.0,l
2924.0,3423.0,3847.0,4095.0,4095.0,3031.0,3302.0,3030.0,-2.0,9.43,2.81,-0.14,0.13,-0.09,1.0,l
2935.0,3431.0,3855.0,4095.0,4095.0,3038.0,3313.0,3037.0,-1.98,9.61,2.73,-0.02,-0.27,-0.02,1.0,l
2930.0,3435.0,3849.0,4095.0,4095.0,3032.0,3312.0,3027.0,-1.25,9.51,2.96,-0.1,-0.06,-0.11,1.0,l
2928.0,3422.0,3843.0,4095.0,4095.0,3043.0,3302.0,3010.0,-2.25,9.19,2.84,-0.27,0.16,-0.07,1.0,l
2931.0,3429.0,3857.0,4095.0,4095.0,3040.0,3307.0,2953.0,-1.41,9.88,3.55,-0.17,0.31,0.07,1.0,l
2931.0,3408.0,3863.0,4095.0,4095.0,3046.0,3311.0,2946.0,-2.13,9.13,2.81,-0.05,0.16,-0.09,1.0,l
2928.0,3435.0,3856.0,4095.0,4095.0,3047.0,3310.0,2975.0,-1.8,9.49,3.2,-0.05,-0.21,0.03,1.0,l
2942.0,3437.0,3856.0,4095.0,4095.0,3042.0,3305.0,2993.0,-1.74,9.49,3.03,0.07,-0.09,-0.05,1.0,l
2931.0,3429.0,3841.0,4095.0,4095.0,3049.0,3312.0,3003.0,-1.83,9.5,2.76,-0.04,-0.1,0.01,1.0,l
2930.0,3440.0,3839.0,4095.0,4095.0,3045.0,3310.0,3007.0,-1.62,9.48,2.89,-0.04,0.05,-0.03,1.0,l
2943.0,3427.0,3850.0,4095.0,4095.0,3050.0,3319.0,3027.0,-1.74,9.49,2.86,-0.08,0.05,-0.05,1.0,l
2929.0,3431.0,3843.0,4095.0,4095.0,3049.0,3311.0,3021.0,-1.76,9.45,3.01,-0.06,0.0,-0.05,1.0,l
2933.0,3435.0,3856.0,4095.0,4095.0,3054.0,3319.0,3001.0,-1.77,9.35,3.01,-0.03,-0.08,-0.01,1.0,l
2938.0,3439.0,3872.0,4095.0,4095.0,3048.0,3306.0,3043.0,-1.89,9.44,2.94,-0.07,-0.02,-0.02,1.0,l
2927.0,3440.0,3840.0,4095.0,4095.0,3050.0,3311.0,3054.0,-1.82,9.39,3.06,-0.05,0.05,-0.03,1.0,l
2941.0,3449.0,3882.0,4095.0,4095.0,3047.0,3318.0,3056.0,-1.68,9.43,2.86,-0.08,0.04,-0.03,1.0,l
2931.0,3427.0,3853.0,4095.0,4095.0,3046.0,3311.0,3063.0,-1.64,9.46,3.05,-0.07,-0.07,-0.07,1.0,l
2939.0,3454.0,3872.0,4095.0,4095.0,3055.0,3313.0,3059.0,-1.99,9.38,3.02,-0.08,-0.0,-0.04,1.0,l
2929.0,3472.0,3869.0,4095.0,4095.0,3050.0,3313.0,3050.0,-1.89,9.4,3.0,-0.11,-0.0,-0.05,1.0,l
2930.0,3457.0,3843.0,4095.0,4095.0,3047.0,3312.0,3024.0,-1.99,9.45,3.1,-0.09,0.02,-0.05,1.0,l
2931.0,3467.0,3876.0,4095.0,4095.0,3046.0,3310.0,3028.0,-1.84,9.32,3.17,-0.1,0.07,-0.01,1.0,l
2928.0,3445.0,3856.0,4095.0,4095.0,3051.0,3321.0,3011.0,-1.87,9.33,3.3,-0.07,0.02,-0.03,1.0,l
2942.0,3452.0,3862.0,4095.0,4095.0,3043.0,3303.0,3027.0,-1.8,9.47,3.02,-0.07,0.02,-0.04,1.0,l
2941.0,3475.0,3863.0,4095.0,4095.0,3053.0,3307.0,2955.0,-1.8,9.4,3.12,-0.1,0.03,-0.03,1.0,l
2933.0,3453.0,3851.0,4095.0,4095.0,3039.0,3306.0,2951.0,-1.74,9.47,3.18,-0.04,-0.02,-0.06,1.0,l
2945.0,3470.0,3863.0,4095.0,4095.0,3059.0,3323.0,2988.0,-1.87,9.36,3.02,-0.05,-0.04,-0.04,1.0,l
2930.0,3451.0,3838.0,4095.0,4095.0,3053.0,3309.0,2999.0,-1.87,9.42,3.09,-0.07,0.02,-0.05,1.0,l
2939.0,3458.0,3856.0,4095.0,4095.0,3057.0,3321.0,3024.0,-1.76,9.32,3.18,-0.07,-0.02,-0.05,1.0,l
2928.0,3458.0,3835.0,4095.0,4095.0,3047.0,3312.0,2988.0,-1.95,9.28,3.1,-0.05,0.01,-0.02,1.0,l
2937.0,3458.0,3866.0,4095.0,4095.0,3055.0,3312.0,2990.0,-1.92,9.37,3.23,-0.04,0.01,-0.04,1.0,l
2935.0,3455.0,3849.0,4095.0,4095.0,3055.0,3303.0,2981.0,-2.0,9.35,3.0,-0.07,0.01,-0.01,1.0,l
2936.0,3455.0,3871.0,4095.0,4095.0,3055.0,3312.0,2977.0,-1.81,9.32,3.22,-0.04,-0.03,-0.06,1.0,l
2938.0,3465.0,3840.0,4095.0,4095.0,3051.0,3306.0,2984.0,-1.99,9.36,3.13,-0.06,0.02,-0.03,1.0,l
2933.0,3458.0,3863.0,4095.0,4095.0,3049.0,3309.0,2971.0,-1.87,9.42,2.99,-0.04,-0.04,-0.03,1.0,l
2946.0,3474.0,3859.0,4095.0,4095.0,3059.0,3312.0,3044.0,-1.9,9.4,3.13,-0.07,0.0,-0.04,1.0,l
2921.0,3441.0,3856.0,4095.0,4095.0,3057.0,3311.0,3024.0,-1.97,9.33,3.11,-0.08,0.04,-0.01,1.0,l
2943.0,3453.0,3854.0,4095.0,4095.0,3057.0,3325.0,3071.0,-1.77,9.36,3.18,-0.05,-0.06,-0.04,1.0,l
2927.0,3462.0,3839.0,4095.0,4095.0,3054.0,3311.0,3059.0,-2.0,9.35,3.15,-0.04,0.02,-0.03,1.0,l
2939.0,3465.0,3859.0,4095.0,4095.0,3062.0,3321.0,3059.0,-1.79,9.39,3.12,-0.06,0.02,-0.04,1.0,l
2934.0,3458.0,3856.0,4095.0,4095.0,3055.0,3311.0,3056.0,-1.78,9.35,3.22,-0.05,-0.03,-0.02,1.0,l
2933.0,3463.0,3842.0,4095.0,4095.0,3057.0,3312.0,3066.0,-1.75,9.41,3.07,-0.03,-0.06,-0.07,1.0,l
2923.0,3452.0,3845.0,4095.0,4095.0,3056.0,3309.0,3058.0,-1.88,9.35,3.18,-0.03,-0.06,-0.06,1.0,l
2928.0,3461.0,3872.0,4095.0,4095.0,3059.0,3310.0,3068.0,-1.92,9.36,3.08,-0.03,-0.03,-0.05,1.0,l
2928.0,3465.0,3833.0,4095.0,4095.0,3057.0,3315.0,3071.0,-1.93,9.32,3.05,-0.03,0.02,-0.01,1.0,l
2933.0,3469.0,3857.0,4095.0,4095.0,3063.0,3321.0,3087.0,-1.81,9.4,3.09,-0.06,-0.01,-0.07,1.0,l
2931.0,3468.0,3842.0,4095.0,4095.0,3056.0,3305.0,3069.0,-1.9,9.35,3.07,-0.05,-0.07,-0.06,1.0,l
2935.0,3457.0,3855.0,4095.0,4095.0,3062.0,3323.0,3084.0,-1.8,9.39,3.02,-0.05,-0.04,-0.07,1.0,l
2935.0,3447.0,3836.0,4095.0,4095.0,3061.0,3312.0,3070.0,-1.91,9.33,3.01,-0.07,0.0,-0.04,1.0,l
2946.0,3463.0,3856.0,4095.0,4095.0,3060.0,3321.0,3087.0,-1.75,9.41,3.1,-0.07,-0.01,-0.04,1.0,l
2929.0,3473.0,3855.0,4095.0,4095.0,3057.0,3319.0,3086.0,-2.01,9.39,3.14,-0.05,-0.01,-0.03,1.0,l
2922.0,3461.0,3849.0,4095.0,4095.0,3056.0,3313.0,3083.0,-1.85,9.42,3.04,-0.07,0.03,-0.03,1.0,l
2942.0,3485.0,3865.0,4095.0,4095.0,3070.0,3324.0,3089.0,-1.95,9.33,3.09,-0.06,0.03,-0.02,1.0,l
2934.0,3459.0,3836.0,4095.0,4095.0,3056.0,3316.0,3089.0,-2.0,9.36,3.01,-0.06,0.01,-0.0,1.0,l
2939.0,3472.0,3846.0,4095.0,4095.0,3056.0,3313.0,3109.0,-1.9,9.37,3.07,-0.07,0.04,-0.03,1.0,l
2928.0,3451.0,3847.0,4095.0,4095.0,3061.0,3312.0,3086.0,-1.86,9.39,3.1,-0.09,0.05,-0.02,1.0,l
2933.0,3482.0,3871.0,4095.0,4095.0,3067.0,3319.0,3069.0,-1.98,9.32,3.06,-0.05,-0.02,-0.01,1.0,l
2929.0,3456.0,3847.0,4095.0,4095.0,3058.0,3314.0,3047.0,-1.81,9.42,3.17,-0.06,-0.02,-0.02,1.0,l
2933.0,3472.0,3856.0,4095.0,4095.0,3061.0,3312.0,3088.0,-1.95,9.33,3.05,-0.06,0.02,-0.02,1.0,l
2935.0,3007.0,3070.0,4095.0,4095.0,3088.0,3275.0,3159.0,-1.43,9.11,4.12,-0.03,0.05,0.01,1.0,l
2931.0,2993.0,3065.0,4095.0,4095.0,3091.0,3264.0,3151.0,-1.46,9.16,4.13,-0.05,0.08,0.0,1.0,l
2939.0,2995.0,3071.0,4095.0,4095.0,3095.0,3286.0,3167.0,-1.36,9.13,4.25,-0.01,-0.1,0.04,1.0,l
2928.0,2986.0,3063.0,4095.0,4095.0,3087.0,3274.0,3162.0,-1.31,9.17,3.95,0.03,0.05,0.04,1.0,l
2928.0,2992.0,3067.0,4095.0,4095.0,3094.0,3271.0,3168.0,-1.12,9.23,4.07,0.11,-0.2,-0.02,1.0,l
2933.0,2992.0,3067.0,4095.0,4095.0,3071.0,3277.0,3167.0,-1.46,9.2,3.79,-0.01,-0.03,0.0,1.0,l
2939.0,3002.0,3071.0,4095.0,4095.0,3093.0,3271.0,3175.0,-1.47,9.35,3.69,-0.01,0.09,0.09,1.0,l
2928.0,2992.0,3079.0,4095.0,4095.0,3087.0,3275.0,3182.0,-0.97,9.39,3.71,0.06,0.06,0.1,1.0,l
2931.0,2991.0,3062.0,4095.0,4095.0,3094.0,3286.0,3183.0,-0.82,9.38,3.59,0.07,0.09,0.07,1.0,l
2925.0,2992.0,3054.0,4095.0,4095.0,3087.0,3279.0,3174.0,-0.75,9.49,3.44,-0.01,0.22,0.1,1.0,l
2930.0,2993.0,3066.0,4095.0,4095.0,3091.0,3287.0,3175.0,-0.66,9.57,3.23,0.06,0.05,0.11,1.0,l
2925.0,2990.0,3065.0,4095.0,4095.0,3093.0,3280.0,3163.0,-0.63,9.45,3.11,-0.06,0.13,0.09,1.0,l
2941.0,2998.0,3071.0,4095.0,4095.0,3091.0,3280.0,3173.0,-0.38,9.49,3.21,-0.04,0.08,0.09,1.0,l
2943.0,2996.0,3071.0,4095.0,4095.0,3098.0,3289.0,3175.0,-0.3,9.58,3.07,-0.03,-0.04,0.03,1.0,l
2929.0,2991.0,3067.0,4095.0,4095.0,3092.0,3286.0,3181.0,-0.69,9.52,3.24,-0.03,0.19,0.02,1.0,l
2930.0,2993.0,3060.0,4095.0,4095.0,3102.0,3297.0,3184.0,-0.25,9.61,3.07,0.01,0.0,0.02,1.0,l
2931.0,2983.0,3059.0,4095.0,4095.0,3071.0,3286.0,3169.0,-0.5,9.89,3.03,-0.1,0.07,0.01,1.0,l
2930.0,2986.0,3071.0,4095.0,4095.0,3090.0,3295.0,3185.0,-0.46,9.77,3.28,-0.09,0.15,-0.17,1.0,l
2928.0,3001.0,3059.0,4095.0,4095.0,3086.0,3286.0,3184.0,-0.72,9.21,3.33,-0.04,0.08,-0.14,1.0,l
2934.0,3003.0,3071.0,4095.0,4095.0,3088.0,3287.0,3181.0,-0.5,9.69,2.49,-0.05,0.01,-0.05,1.0,l
2943.0,2992.0,3079.0,4095.0,4095.0,3089.0,3290.0,3184.0,-0.23,9.52,3.51,-0.12,-0.01,-0.02,1.0,l
2921.0,2989.0,3065.0,4095.0,4095.0,3092.0,3294.0,3184.0,-0.17,9.51,3.46,-0.09,-0.04,-0.05,1.0,l
2939.0,2992.0,3061.0,4095.0,4095.0,3097.0,3289.0,3197.0,-0.43,9.78,3.19,-0.21,0.21,-0.02,1.0,l
2934.0,2991.0,3071.0,4095.0,4095.0,3096.0,3288.0,3191.0,-0.53,9.22,4.09,-0.12,-0.12,0.01,1.0,l
2931.0,2998.0,3082.0,4095.0,4095.0,3109.0,3297.0,3193.0,-0.43,9.38,3.73,-0.1,0.01,-0.05,1.0,l
2926.0,2993.0,3062.0,4095.0,4095.0,3093.0,3282.0,3183.0,-0.47,9.38,3.74,-0.11,0.04,-0.08,1.0,l
2929.0,2994.0,3068.0,4095.0,4095.0,3103.0,3294.0,3195.0,-0.5,9.37,3.92,-0.17,0.1,-0.07,1.0,l
2931.0,2991.0,3065.0,4095.0,4095.0,3104.0,3293.0,3197.0,-0.35,9.26,3.9,-0.15,-0.0,-0.08,1.0,l
2932.0,2992.0,3058.0,4095.0,4095.0,3088.0,3280.0,3175.0,-0.48,9.35,3.91,-0.14,-0.04,-0.11,1.0,l
2944.0,2998.0,3070.0,4095.0,4095.0,3110.0,3299.0,3181.0,-0.65,9.18,4.19,-0.15,-0.1,-0.13,1.0,l
2932.0,2989.0,3065.0,4095.0,4095.0,3095.0,3287.0,3184.0,-0.58,9.16,4.24,-0.13,-0.02,-0.13,1.0,l
2935.0,2999.0,3071.0,4095.0,4095.0,3094.0,3294.0,3184.0,-0.81,9.04,4.46,-0.25,-0.02,-0.17,1.0,l
2938.0,2992.0,3070.0,4095.0,4095.0,3104.0,3295.0,3183.0,-1.08,8.93,4.66,-0.23,0.06,-0.12,1.0,l
2928.0,2993.0,3065.0,4095.0,4095.0,3109.0,3301.0,3182.0,-1.03,8.91,4.89,-0.16,-0.09,-0.13,1.0,l
2935.0,2992.0,3056.0,4095.0,4095.0,3103.0,3293.0,3179.0,-1.0,8.92,4.63,-0.16,-0.06,-0.14,1.0,l
2937.0,2998.0,3082.0,4095.0,4095.0,3110.0,3303.0,3187.0,-1.19,8.81,4.82,-0.18,-0.05,-0.15,1.0,l
2925.0,2988.0,3066.0,4095.0,4095.0,3102.0,3290.0,3179.0,-1.36,8.8,4.98,-0.17,-0.01,-0.13,1.0,l
2941.0,2996.0,3071.0,4095.0,4095.0,3101.0,3296.0,3185.0,-1.28,8.77,4.94,-0.16,0.12,-0.1,1.0,l
2934.0,2992.0,3063.0,4095.0,4095.0,3098.0,3287.0,3181.0,-1.3,8.55,5.13,-0.15,-0.06,-0.16,1.0,l
2941.0,2999.0,3071.0,4095.0,4095.0,3101.0,3287.0,3181.0,-1.61,8.52,5.33,-0.14,-0.03,-0.14,1.0,l
2930.0,2990.0,3063.0,4095.0,4095.0,3110.0,3295.0,3184.0,-2.03,8.42,5.32,-0.04,-0.0,-0.09,1.0,l
2930.0,3003.0,3071.0,4095.0,4095.0,3109.0,3306.0,3200.0,-1.92,8.4,5.34,0.01,-0.06,-0.09,1.0,l
2927.0,2990.0,3070.0,4095.0,4095.0,3109.0,3299.0,3195.0,-2.2,8.53,5.09,0.07,-0.02,-0.05,1.0,l
2939.0,3004.0,3071.0,4095.0,4095.0,3111.0,3301.0,3194.0,-2.07,8.57,4.94,-0.03,0.17,0.01,1.0,l
2926.0,2988.0,3061.0,4095.0,4095.0,3103.0,3301.0,3190.0,-1.75,8.52,5.02,0.03,-0.06,-0.0,1.0,l
2939.0,2993.0,3087.0,4095.0,4095.0,3117.0,3302.0,3191.0,-1.84,8.75,4.89,0.03,-0.07,-0.03,1.0,l
2947.0,2999.0,3069.0,4095.0,4095.0,3108.0,3310.0,3201.0,-1.95,8.63,4.71,-0.03,0.05,-0.01,1.0,l
2928.0,2998.0,3083.0,4095.0,4095.0,3105.0,3298.0,3195.0,-1.76,8.67,4.81,-0.02,0.01,-0.01,1.0,l
2935.0,2992.0,3080.0,4095.0,4095.0,3104.0,3318.0,3205.0,-1.61,8.76,4.86,0.02,-0.1,-0.06,1.0,l
2930.0,2997.0,3062.0,4095.0,4095.0,3108.0,3296.0,3191.0,-1.57,8.75,4.69,0.06,-0.03,-0.11,1.0,l
2936.0,2999.0,3059.0,4095.0,4095.0,3115.0,3308.0,3195.0,-1.96,8.86,4.45,0.06,-0.1,-0.14,1.0,l
2930.0,2992.0,3062.0,4095.0,4095.0,3110.0,3303.0,3197.0,-2.04,8.81,4.39,0.01,0.03,-0.1,1.0,l
2926.0,2993.0,3071.0,4095.0,4095.0,3131.0,3313.0,3214.0,-1.92,8.86,4.34,0.03,-0.04,-0.1,1.0,l
2930.0,3001.0,3056.0,4095.0,4095.0,3107.0,3305.0,3198.0,-2.18,8.9,4.28,0.06,-0.02,-0.1,1.0,l
2944.0,3008.0,3071.0,4095.0,4095.0,3118.0,3315.0,3207.0,-2.2,8.88,4.26,0.02,0.02,-0.06,1.0,l
2941.0,2996.0,3085.0,4095.0,4095.0,3106.0,3299.0,3200.0,-2.09,8.92,4.18,0.02,0.01,-0.04,1.0,l
2935.0,2998.0,3069.0,4095.0,4095.0,3109.0,3300.0,3199.0,-2.1,8.97,4.02,0.03,-0.04,-0.05,1.0,l
2933.0,2992.0,3070.0,4095.0,4095.0,3110.0,3312.0,3207.0,-1.98,9.05,4.03,-0.01,-0.07,-0.06,1.0,l
2934.0,2990.0,3069.0,4095.0,4095.0,3113.0,3307.0,3195.0,-2.07,9.0,4.07,0.01,-0.01,-0.01,1.0,l
2947.0,2992.0,3070.0,4095.0,4095.0,3101.0,3309.0,3203.0,-2.04,9.07,3.86,0.03,-0.04,-0.0,1.0,l
2930.0,3003.0,3081.0,4095.0,4095.0,3107.0,3305.0,3199.0,-1.81,9.18,3.74,-0.01,-0.03,0.0,1.0,l
2941.0,2993.0,3063.0,4095.0,4095.0,3120.0,3320.0,3219.0,-1.82,9.27,3.56,0.01,-0.01,0.02,1.0,l
2933.0,2993.0,3071.0,4095.0,4095.0,3103.0,3311.0,3199.0,-1.7,9.3,3.5,-0.04,0.02,0.04,1.0,l
2937.0,2998.0,3079.0,4095.0,4095.0,3119.0,3316.0,3216.0,-1.48,9.26,3.55,-0.04,0.02,0.02,1.0,l
2928.0,2992.0,3067.0,4095.0,4095.0,3104.0,3308.0,3202.0,-1.58,9.34,3.56,-0.04,-0.04,-0.02,1.0,l
2929.0,2983.0,3065.0,4095.0,4095.0,3117.0,3312.0,3207.0,-1.69,9.27,3.49,-0.05,0.0,0.01,1.0,l
2935.0,2995.0,3071.0,4095.0,4095.0,3120.0,3322.0,3217.0,-1.51,9.29,3.52,-0.03,-0.04,0.01,1.0,l
2935.0,2992.0,3066.0,4095.0,4095.0,3110.0,3311.0,3208.0,-1.48,9.34,3.48,-0.05,0.04,0.02,1.0,l
2938.0,2993.0,3063.0,4095.0,4095.0,3116.0,3314.0,3211.0,-1.53,9.36,3.5,-0.05,0.05,0.02,1.0,l
2919.0,2999.0,3067.0,4095.0,4095.0,3111.0,3310.0,3209.0,-1.3,9.38,3.42,-0.05,-0.03,0.02,1.0,l
2937.0,2992.0,3062.0,4095.0,4095.0,3117.0,3317.0,3211.0,-1.25,9.35,3.62,-0.06,0.03,0.02,1.0,l
2928.0,2990.0,3069.0,4095.0,4095.0,3105.0,3309.0,3206.0,-1.24,9.36,3.48,-0.05,0.0,-0.0,1.0,l
2928.0,3006.0,3071.0,4095.0,4095.0,3121.0,3319.0,3216.0,-1.28,9.38,3.47,-0.02,-0.03,-0.02,1.0,l
2935.0,2996.0,3070.0,4095.0,4095.0,3108.0,3305.0,3200.0,-1.32,9.45,3.32,-0.07,0.04,0.01,1.0,l
2939.0,3005.0,3071.0,4095.0,4095.0,3120.0,3318.0,3211.0,-1.23,9.47,3.33,-0.06,0.03,0.01,1.0,l
2928.0,2983.0,3057.0,4095.0,4095.0,3103.0,3309.0,3207.0,-1.14,9.45,3.26,-0.09,0.06,-0.01,1.0,l
2930.0,3005.0,3070.0,4095.0,4095.0,3108.0,3305.0,3201.0,-1.1,9.5,3.45,-0.03,-0.02,-0.03,1.0,l
2932.0,3003.0,3071.0,4095.0,4095.0,3120.0,3326.0,3218.0,-1.21,9.48,3.38,-0.05,0.1,0.01,1.0,l
2927.0,2993.0,3071.0,4095.0,4095.0,3107.0,3305.0,3207.0,-1.12,9.48,3.34,-0.03,0.01,0.0,1.0,l
2937.0,2996.0,3071.0,4095.0,4095.0,3113.0,3312.0,3215.0,-1.19,9.47,3.3,-0.08,0.07,0.01,1.0,l
2935.0,2995.0,3071.0,4095.0,4095.0,3111.0,3313.0,3228.0,-0.67,9.5,3.45,-0.02,-0.06,0.0,1.0,l
2931.0,2993.0,3071.0,4095.0,4095.0,3105.0,3311.0,3207.0,-0.63,9.59,3.28,-0.06,0.01,-0.04,1.0,l
2929.0,2985.0,3071.0,4095.0,4095.0,3120.0,3318.0,3218.0,-0.8,9.41,3.43,-0.09,0.03,0.0,1.0,l
2933.0,2993.0,3058.0,4095.0,4095.0,3111.0,3313.0,3219.0,-0.67,9.51,3.47,-0.07,0.0,0.01,1.0,l
2943.0,2995.0,3066.0,4095.0,4095.0,3116.0,3326.0,3221.0,-0.59,9.55,3.31,-0.08,-0.0,-0.02,1.0,l
2929.0,2987.0,3059.0,4095.0,4095.0,3113.0,3312.0,3216.0,-0.64,9.46,3.55,-0.07,-0.05,-0.03,1.0,l
2937.0,3008.0,3088.0,4095.0,4095.0,3113.0,3313.0,3220.0,-0.48,9.5,3.35,-0.02,-0.07,-0.03,1.0,l
2933.0,2999.0,3067.0,4095.0,4095.0,3106.0,3309.0,3215.0,-0.54,9.51,3.37,-0.07,-0.02,-0.02,1.0,l
2935.0,2996.0,3071.0,4095.0,4095.0,3117.0,3322.0,3215.0,-0.62,9.48,3.42,-0.07,-0.01,-0.02,1.0,l
2935.0,2996.0,3067.0,4095.0,4095.0,3104.0,3312.0,3213.0,-0.48,9.61,3.22,-0.09,0.03,0.01,1.0,l
2940.0,2992.0,3071.0,4095.0,4095.0,3119.0,3328.0,3222.0,-0.4,9.42,3.51,-0.06,-0.03,-0.01,1.0,l
2928.0,2997.0,3058.0,4095.0,4095.0,3118.0,3326.0,3217.0,-0.42,9.54,3.44,-0.07,0.02,-0.02,1.0,l
2929.0,2994.0,3061.0,4095.0,4095.0,3114.0,3315.0,3215.0,-0.41,9.43,3.38,-0.07,-0.12,-0.03,1.0,l
2928.0,2993.0,3059.0,4095.0,4095.0,3118.0,3323.0,3221.0,-0.4,9.45,3.6,-0.08,-0.03,-0.02,1.0,l
2937.0,2991.0,3063.0,4095.0,4095.0,3111.0,3312.0,3201.0,-0.32,9.51,3.5,-0.08,0.06,-0.01,1.0,l
2937.0,2992.0,3061.0,4095.0,4095.0,3119.0,3323.0,3218.0,-0.38,9.5,3.46,-0.08,-0.02,-0.01,1.0,l
2928.0,2996.0,3066.0,4095.0,4095.0,3116.0,3312.0,3213.0,-0.31,9.49,3.49,-0.08,-0.03,-0.03,1.0,l
2939.0,2997.0,3062.0,4095.0,4095.0,3121.0,3324.0,3223.0,-0.29,9.5,3.59,-0.08,0.02,-0.03,1.0,l
2931.0,2990.0,3071.0,4095.0,4095.0,3118.0,3312.0,3216.0,-0.36,9.43,3.58,-0.07,0.01,-0.03,1.0,l
2924.0,2998.0,3071.0,4095.0,4095.0,3123.0,3330.0,3215.0,-0.34,9.5,3.49,-0.05,-0.16,-0.03,1.0,l
2928.0,2997.0,3067.0,4095.0,4095.0,3114.0,3311.0,3202.0,-0.07,9.42,3.81,-0.08,0.04,-0.02,1.0,l
2942.0,2999.0,3079.0,4095.0,4095.0,3125.0,3335.0,3213.0,-0.15,9.31,3.92,-0.05,0.01,-0.03,1.0,l
2934.0,2998.0,3065.0,4095.0,4095.0,3121.0,3323.0,3209.0,-0.05,9.38,3.81,-0.07,-0.05,-0.03,1.0,l
2928.0,2998.0,3058.0,4095.0,4095.0,3120.0,3321.0,3206.0,0.0,9.34,3.98,-0.12,0.01,-0.0,1.0,l
2940.0,2997.0,3081.0,4095.0,4095.0,3118.0,3328.0,3237.0,0.03,9.33,4.08,-0.07,-0.0,-0.02,1.0,l
2927.0,2990.0,3071.0,4095.0,4095.0,3120.0,3324.0,3215.0,0.08,9.38,3.97,-0.08,0.01,-0.03,1.0,l
2943.0,3004.0,3069.0,4095.0,4095.0,3122.0,3329.0,3217.0,0.04,9.38,4.0,-0.1,0.01,-0.01,1.0,l
2927.0,2990.0,3061.0,4095.0,4095.0,3117.0,3318.0,3211.0,0.05,9.32,3.99,-0.1,-0.04,-0.01,1.0,l
2937.0,2999.0,3088.0,4095.0,4095.0,3120.0,3325.0,3217.0,0.06,9.27,4.19,-0.16,0.04,-0.01,1.0,l
2937.0,2987.0,3067.0,4095.0,4095.0,3125.0,3317.0,3216.0,0.06,9.25,4.25,-0.14,0.08,0.01,1.0,l
2929.0,3008.0,3065.0,4095.0,4095.0,3123.0,3335.0,3222.0,0.23,9.23,4.34,-0.12,0.03,-0.01,1.0,l
2928.0,2997.0,3071.0,4095.0,4095.0,3111.0,3317.0,3207.0,0.15,9.26,4.19,-0.13,0.04,-0.03,1.0,l
2939.0,2994.0,3071.0,4095.0,4095.0,3130.0,3331.0,3216.0,0.04,9.17,4.5,-0.09,-0.01,-0.03,1.0,l
2930.0,2994.0,3071.0,4095.0,4095.0,3119.0,3317.0,3214.0,0.12,9.17,4.42,-0.09,0.01,-0.02,1.0,l
2928.0,3003.0,3081.0,4095.0,4095.0,3120.0,3318.0,3215.0,0.03,9.13,4.42,-0.16,0.04,-0.01,1.0,l
2928.0,3008.0,3071.0,4095.0,4095.0,3123.0,3329.0,3216.0,0.04,9.08,4.56,-0.11,0.04,0.01,1.0,l
2929.0,2997.0,3066.0,4095.0,4095.0,3114.0,3316.0,3214.0,0.2,9.12,4.46,-0.11,0.04,0.03,1.0,l
2939.0,2992.0,3071.0,4095.0,4095.0,3120.0,3327.0,3222.0,0.15,9.0,4.74,-0.17,0.06,0.02,1.0,l
2943.0,2997.0,3069.0,4095.0,4095.0,3114.0,3318.0,3213.0,0.22,8.96,4.77,-0.14,0.06,0.03,1.0,l
2930.0,2999.0,3070.0,4095.0,4095.0,3123.0,3326.0,3221.0,0.29,9.0,4.87,-0.14,0.06,0.03,1.0,l
2929.0,2992.0,3082.0,4095.0,4095.0,3124.0,3331.0,3222.0,0.67,9.17,4.4,-0.04,-0.04,-0.04,1.0,l
2928.0,3009.0,3070.0,4095.0,4095.0,3111.0,3319.0,3211.0,0.7,9.21,4.36,-0.03,-0.02,-0.05,1.0,l
2931.0,3001.0,3087.0,4095.0,4095.0,3125.0,3330.0,3219.0,0.71,9.17,4.4,-0.02,-0.03,-0.06,1.0,l
2943.0,2994.0,3070.0,4095.0,4095.0,3122.0,3319.0,3210.0,0.69,9.22,4.33,-0.03,-0.02,-0.07,1.0,l
2939.0,2993.0,3083.0,4095.0,4095.0,3125.0,3327.0,3219.0,0.54,9.23,4.27,-0.02,0.06,-0.07,1.0,l
2928.0,2995.0,3067.0,4095.0,4095.0,3115.0,3318.0,3216.0,0.59,9.27,4.18,-0.0,-0.04,-0.08,1.0,l
2938.0,2993.0,3061.0,4095.0,4095.0,3118.0,3335.0,3221.0,0.54,9.31,4.18,0.0,-0.01,-0.07,1.0,l
2924.0,2992.0,3058.0,4095.0,4095.0,3119.0,3323.0,3215.0,0.59,9.26,3.99,0.0,-0.04,-0.08,1.0,l
2941.0,2992.0,3068.0,4095.0,4095.0,3115.0,3334.0,3221.0,0.33,9.26,4.02,-0.04,0.07,-0.06,1.0,l
2929.0,2997.0,3061.0,4095.0,4095.0,3103.0,3316.0,3217.0,0.48,9.31,4.03,-0.07,0.05,-0.06,1.0,l
2942.0,2992.0,3065.0,4095.0,4095.0,3120.0,3330.0,3221.0,0.5,9.28,4.14,-0.06,0.05,-0.05,1.0,l
2929.0,2991.0,3060.0,4095.0,4095.0,3106.0,3325.0,3229.0,0.51,9.33,3.98,0.0,-0.07,-0.09,1.0,l
2932.0,2991.0,3063.0,4095.0,4095.0,3111.0,3323.0,3217.0,0.44,9.36,3.81,-0.01,-0.11,-0.11,1.0,l
2947.0,2994.0,3083.0,4095.0,4095.0,3116.0,3325.0,3214.0,0.32,9.39,3.93,-0.05,-0.01,-0.09,1.0,l
2930.0,2994.0,3080.0,4095.0,4095.0,3109.0,3314.0,3216.0,0.31,9.4,3.97,-0.04,-0.02,-0.09,1.0,l
2938.0,3003.0,3085.0,4095.0,4095.0,3117.0,3329.0,3226.0,0.35,9.4,3.9,-0.05,-0.04,-0.12,1.0,l
2928.0,2983.0,3063.0,4095.0,4095.0,3111.0,3328.0,3217.0,0.18,9.36,3.96,-0.02,-0.04,-0.11,1.0,l
2942.0,3001.0,3071.0,4095.0,4095.0,3119.0,3337.0,3230.0,0.29,9.38,3.94,-0.02,-0.1,-0.11,1.0,l
2928.0,2981.0,3069.0,4095.0,4095.0,3111.0,3323.0,3216.0,0.06,9.38,3.79,-0.04,-0.02,-0.11,1.0,l
2930.0,2998.0,3079.0,4095.0,4095.0,3115.0,3334.0,3227.0,-0.08,9.37,3.89,-0.02,0.01,-0.11,1.0,l
2934.0,3003.0,3067.0,4095.0,4095.0,3113.0,3325.0,3227.0,-0.11,9.43,3.73,-0.06,-0.04,-0.06,1.0,l
2928.0,2998.0,3067.0,4095.0,4095.0,3126.0,3337.0,3238.0,-0.22,9.43,3.7,-0.05,-0.03,-0.06,1.0,l
2931.0,2991.0,3067.0,4095.0,4095.0,3114.0,3326.0,3221.0,-0.16,9.44,3.68,-0.06,0.03,-0.06,1.0,l
2942.0,2992.0,3063.0,4095.0,4095.0,3120.0,3335.0,3241.0,-0.14,9.48,3.73,-0.06,-0.06,-0.11,1.0,l
2928.0,2989.0,3083.0,4095.0,4095.0,3106.0,3324.0,3225.0,-0.35,9.45,3.65,-0.05,-0.02,-0.09,1.0,l
2933.0,3007.0,3070.0,4095.0,4095.0,3120.0,3335.0,3239.0,-0.3,9.39,3.68,-0.05,-0.03,-0.07,1.0,l
2923.0,2992.0,3067.0,4095.0,4095.0,3110.0,3327.0,3226.0,-0.35,9.39,3.84,-0.06,0.0,-0.07,1.0,l
2944.0,2997.0,3065.0,4095.0,4095.0,3120.0,3333.0,3237.0,-0.34,9.42,3.6,-0.04,-0.0,-0.09,1.0,l
2935.0,2996.0,3070.0,4095.0,4095.0,3120.0,3338.0,3231.0,-0.5,9.47,3.54,-0.06,-0.01,-0.07,1.0,l
2933.0,2999.0,3058.0,4095.0,4095.0,3115.0,3329.0,3229.0,-0.49,9.39,3.67,-0.06,-0.01,-0.06,1.0,l
2934.0,3001.0,3061.0,4095.0,4095.0,3119.0,3333.0,3232.0,-0.4,9.51,3.61,-0.1,-0.03,-0.06,1.0,l
2929.0,2993.0,3066.0,4095.0,4095.0,3113.0,3325.0,3248.0,-0.57,9.2,4.1,-0.08,0.01,-0.07,1.0,l
2932.0,2999.0,3084.0,4095.0,4095.0,3122.0,3328.0,3233.0,-0.45,9.44,3.68,-0.04,-0.03,-0.07,1.0,l
2928.0,2993.0,3071.0,4095.0,4095.0,3115.0,3321.0,3221.0,-0.46,9.5,3.61,-0.06,-0.04,-0.11,1.0,l
2940.0,2996.0,3085.0,4095.0,4095.0,3120.0,3332.0,3235.0,-0.53,9.44,3.65,-0.02,0.0,-0.15,1.0,l
2927.0,2992.0,3059.0,4095.0,4095.0,3117.0,3330.0,3235.0,-0.88,9.41,3.57,-0.05,-0.02,-0.12,1.0,l
2938.0,2999.0,3079.0,4095.0,4095.0,3122.0,3338.0,3236.0,-0.77,9.55,3.71,-0.09,0.08,-0.07,1.0,l
2934.0,2981.0,3060.0,4095.0,4095.0,3110.0,3341.0,3237.0,-1.06,9.26,3.75,0.04,0.07,-0.03,1.0,l
2937.0,3003.0,3065.0,4095.0,4095.0,3118.0,3333.0,3230.0,-0.73,9.21,3.36,-0.08,0.15,-0.01,1.0,l
2941.0,2992.0,3063.0,4095.0,4095.0,3120.0,3329.0,3237.0,-0.72,9.65,3.42,-0.13,0.17,-0.04,1.0,l
2928.0,2992.0,3067.0,4095.0,4095.0,3122.0,3325.0,3233.0,-1.45,8.95,4.02,-0.16,-0.04,-0.2,1.0,l
2935.0,2993.0,3058.0,4095.0,4095.0,3132.0,3332.0,3238.0,-1.99,9.29,5.39,0.07,-0.15,-0.18,1.0,l
2945.0,3007.0,3067.0,4095.0,4095.0,3127.0,3334.0,3248.0,-2.09,9.11,4.33,0.37,-0.07,-0.08,1.0,l
2921.0,2992.0,3057.0,4095.0,4095.0,3121.0,3326.0,3239.0,-1.32,9.2,2.63,0.54,0.04,-0.24,1.0,l
2928.0,2992.0,3071.0,4095.0,4095.0,3131.0,3335.0,3247.0,-1.96,8.94,3.19,0.19,-0.03,-0.41,1.0,l
2925.0,2992.0,3071.0,4095.0,4095.0,3127.0,3329.0,3231.0,-2.32,9.27,3.22,-0.0,-0.37,-0.08,1.0,l
2938.0,2989.0,3061.0,4095.0,4095.0,3126.0,3338.0,3258.0,-1.53,9.62,2.48,-0.21,-0.18,0.01,1.0,l
2933.0,2979.0,3068.0,4095.0,4095.0,3120.0,3328.0,3241.0,-2.33,8.94,3.54,-0.2,-0.0,-0.15,1.0,l
2926.0,2996.0,3070.0,4095.0,4095.0,3130.0,3344.0,3255.0,-2.33,9.05,3.37,-0.15,0.37,-0.15,1.0,l
2928.0,2992.0,3053.0,4095.0,4095.0,3124.0,3335.0,3245.0,-2.92,9.41,3.95,-0.12,0.31,-0.16,1.0,l
2938.0,3006.0,3070.0,4095.0,4095.0,3131.0,3330.0,3237.0,-3.41,8.9,4.11,0.07,0.2,0.02,1.0,l
2928.0,2989.0,3070.0,4095.0,4095.0,3120.0,3330.0,3243.0,-2.8,9.04,2.82,0.11,-0.0,0.04,1.0,l
2943.0,2999.0,3066.0,4095.0,4095.0,3130.0,3342.0,3249.0,-2.14,9.0,2.08,-0.12,-0.08,-0.11,1.0,l
2945.0,2995.0,3063.0,4095.0,4095.0,3121.0,3335.0,3247.0,-2.76,9.86,3.25,-0.08,0.12,0.07,1.0,l
2930.0,2992.0,3057.0,4095.0,4095.0,3126.0,3331.0,3238.0,-2.98,9.11,2.36,-0.02,0.37,0.05,1.0,l
2937.0,2993.0,3071.0,4095.0,4095.0,3136.0,3338.0,3248.0,-2.25,9.77,2.44,-0.05,0.27,0.18,1.0,l
2925.0,2991.0,3067.0,4095.0,4095.0,3121.0,3341.0,3245.0,-2.27,9.11,2.37,-0.11,0.13,0.16,1.0,l
2938.0,2998.0,3079.0,4095.0,4095.0,3138.0,3344.0,3250.0,-1.29,9.59,3.19,-0.25,0.01,0.24,1.0,l
2931.0,2997.0,3061.0,4095.0,4095.0,3131.0,3333.0,3242.0,-1.62,9.11,3.31,-0.21,0.02,-0.07,1.0,l
2935.0,3001.0,3085.0,4095.0,4095.0,3138.0,3343.0,3241.0,-2.4,9.26,3.23,-0.15,0.13,-0.12,1.0,l
2928.0,2996.0,3056.0,4095.0,4095.0,3133.0,3343.0,3245.0,-1.86,9.25,3.32,0.07,-0.08,0.04,1.0,l
2941.0,2992.0,3061.0,4095.0,4095.0,3123.0,3330.0,3239.0,-1.7,9.5,2.84,0.07,-0.05,-0.1,1.0,l
2928.0,2992.0,3067.0,4095.0,4095.0,3135.0,3342.0,3243.0,-2.03,9.26,3.06,0.02,-0.13,-0.16,1.0,l
2930.0,2990.0,3061.0,4095.0,4095.0,3123.0,3331.0,3239.0,-2.13,9.43,3.08,-0.01,-0.13,-0.15,1.0,l
2930.0,3003.0,3071.0,4095.0,4095.0,3136.0,3354.0,3250.0,-2.44,9.32,2.87,0.02,0.02,-0.17,1.0,l
2928.0,2986.0,3061.0,4095.0,4095.0,3133.0,3330.0,3237.0,-2.48,9.37,2.69,0.02,-0.07,-0.12,1.0,l
2931.0,2992.0,3068.0,4095.0,4095.0,3139.0,3346.0,3248.0,-2.12,9.37,2.6,-0.05,-0.06,-0.1,1.0,l
2932.0,2994.0,3071.0,4095.0,4095.0,3132.0,3332.0,3238.0,-2.38,9.31,2.75,-0.17,-0.01,-0.12,1.0,l
2928.0,2998.0,3071.0,4095.0,4095.0,3143.0,3336.0,3244.0,-2.77,9.12,3.08,-0.22,0.0,-0.07,1.0,l
2931.0,2997.0,3069.0,4095.0,4095.0,3129.0,3330.0,3232.0,-2.59,9.05,3.63,-0.11,0.02,-0.03,1.0,l
2941.0,2994.0,3066.0,4095.0,4095.0,3136.0,3346.0,3257.0,-2.41,9.19,3.12,-0.07,0.0,-0.05,1.0,l
2918.0,2994.0,3069.0,4095.0,4095.0,3136.0,3331.0,3234.0,-2.61,9.17,3.02,-0.11,0.05,-0.02,1.0,l
2928.0,2985.0,3056.0,4095.0,4095.0,3135.0,3338.0,3245.0,-2.59,9.11,3.28,-0.15,0.06,-0.02,1.0,l
2939.0,3002.0,3071.0,4095.0,4095.0,3130.0,3344.0,3247.0,-2.58,9.16,3.36,-0.14,-0.0,-0.01,1.0,l
2926.0,2993.0,3062.0,4095.0,4095.0,3133.0,3333.0,3241.0,-2.55,9.08,3.57,-0.09,0.02,-0.0,1.0,l
2934.0,2989.0,3069.0,4095.0,4095.0,3141.0,3345.0,3249.0,-2.39,9.18,3.39,-0.06,0.05,0.0,1.0,l
2930.0,2994.0,3056.0,4095.0,4095.0,3131.0,3331.0,3244.0,-2.37,9.22,3.27,-0.09,0.04,-0.02,1.0,l
2931.0,3012.0,3081.0,4095.0,4095.0,3136.0,3344.0,3259.0,-2.46,9.11,3.43,-0.12,0.07,-0.04,1.0,l
2930.0,2985.0,3056.0,4095.0,4095.0,3137.0,3337.0,3245.0,-2.53,9.09,3.58,-0.09,0.0,-0.02,1.0,l
2935.0,3003.0,3085.0,4095.0,4095.0,3147.0,3346.0,3248.0,-2.42,9.08,3.4,-0.08,0.01,-0.02,1.0,l
2935.0,3533.0,3861.0,4095.0,4095.0,3022.0,3279.0,2599.0,-1.13,9.26,3.97,0.04,-0.12,-0.09,1.0,l
2935.0,3536.0,3872.0,4095.0,4095.0,3011.0,3280.0,2597.0,-1.15,9.29,3.95,0.03,-0.02,-0.09,1.0,l
2933.0,3527.0,3863.0,4095.0,4095.0,3018.0,3285.0,2612.0,-1.18,9.29,3.65,0.04,-0.05,-0.12,1.0,l
2931.0,3526.0,3866.0,4095.0,4095.0,3002.0,3269.0,2619.0,-1.36,9.26,3.6,0.01,-0.03,-0.07,1.0,l
2928.0,3523.0,3856.0,4095.0,4095.0,3023.0,3280.0,2639.0,-1.31,9.39,3.77,-0.02,0.08,-0.06,1.0,l
2928.0,3519.0,3881.0,4095.0,4095.0,3015.0,3280.0,2631.0,-1.31,9.33,3.69,0.02,-0.03,-0.1,1.0,l
2926.0,3520.0,3845.0,4095.0,4095.0,3013.0,3280.0,2627.0,-1.47,9.31,3.51,0.05,-0.06,-0.1,1.0,l
2941.0,3543.0,3858.0,4095.0,4095.0,3013.0,3268.0,2605.0,-1.38,9.32,3.57,-0.01,-0.06,-0.05,1.0,l
2922.0,3529.0,3855.0,4095.0,4095.0,3013.0,3281.0,2605.0,-1.53,9.41,3.29,0.1,0.05,-0.11,1.0,l
2945.0,3536.0,3873.0,4095.0,4095.0,3018.0,3283.0,2606.0,-1.72,9.44,3.11,0.0,0.05,-0.07,1.0,l
2935.0,3531.0,3851.0,4095.0,4095.0,3007.0,3280.0,2559.0,-1.49,9.41,3.17,-0.07,-0.07,-0.0,1.0,l
2939.0,3536.0,3846.0,4095.0,4095.0,3009.0,3279.0,2586.0,-1.47,9.42,3.32,-0.06,0.11,-0.04,1.0,l
2923.0,3531.0,3850.0,4095.0,4095.0,3009.0,3279.0,2586.0,-1.47,9.46,3.13,0.04,-0.12,-0.13,1.0,l
2928.0,3533.0,3849.0,4095.0,4095.0,3022.0,3280.0,2593.0,-1.75,9.42,2.94,0.04,-0.12,-0.11,1.0,l
2923.0,3533.0,3855.0,4095.0,4095.0,3018.0,3277.0,2594.0,-1.75,9.47,2.87,-0.07,0.06,-0.03,1.0,l
2944.0,3539.0,3858.0,4095.0,4095.0,3020.0,3286.0,2603.0,-1.53,9.38,3.11,-0.1,-0.1,-0.08,1.0,l
2933.0,3511.0,3831.0,4095.0,4095.0,3019.0,3283.0,2602.0,-1.72,9.42,3.02,-0.05,0.02,-0.09,1.0,l
2928.0,3525.0,3840.0,4095.0,4095.0,3008.0,3280.0,2591.0,-1.65,9.54,2.82,-0.08,0.01,-0.08,1.0,l
2929.0,3563.0,3858.0,4095.0,4095.0,3024.0,3281.0,2584.0,-1.8,9.44,2.94,-0.14,-0.02,-0.05,1.0,l
2934.0,3517.0,3847.0,4095.0,4095.0,3017.0,3280.0,2595.0,-1.82,9.39,3.19,-0.13,-0.01,-0.07,1.0,l
2927.0,3521.0,3839.0,4095.0,4095.0,3037.0,3298.0,2607.0,-2.35,9.02,3.73,-0.02,-0.04,-0.08,1.0,l
2928.0,3537.0,3847.0,4095.0,4095.0,3033.0,3285.0,2606.0,-2.33,9.2,3.48,-0.03,-0.03,-0.05,1.0,l
2931.0,3532.0,3848.0,4095.0,4095.0,3035.0,3298.0,2615.0,-2.47,8.93,3.59,-0.05,-0.08,-0.05,1.0,l
2936.0,3531.0,3839.0,4048.0,4095.0,3030.0,3281.0,2591.0,-2.3,9.29,3.72,-0.01,0.0,-0.03,1.0,l
2946.0,3525.0,3846.0,4051.0,4095.0,3035.0,3299.0,2593.0,-2.36,9.19,3.71,0.03,-0.03,-0.07,1.0,l
2933.0,3517.0,3833.0,4032.0,4095.0,3031.0,3289.0,2608.0,-2.36,8.8,2.92,0.03,0.05,-0.04,1.0,l
2946.0,3531.0,3842.0,4016.0,4095.0,3033.0,3295.0,2608.0,-2.44,9.23,3.18,-0.18,-0.05,-0.14,1.0,l
2933.0,3525.0,3841.0,4034.0,4095.0,3027.0,3285.0,2589.0,-2.45,8.62,4.15,-0.04,-0.07,-0.09,1.0,l
2928.0,3536.0,3850.0,4053.0,4095.0,3033.0,3289.0,2559.0,-2.06,9.67,3.3,0.05,-0.03,-0.18,1.0,l
2933.0,3534.0,3845.0,4095.0,4095.0,3034.0,3295.0,2585.0,-2.52,8.78,3.59,0.17,-0.1,-0.28,1.0,l
2930.0,3518.0,3827.0,4095.0,4095.0,3040.0,3296.0,2559.0,-3.29,9.33,2.83,-0.1,0.07,-0.3,1.0,l
2943.0,3536.0,3832.0,4095.0,4095.0,3039.0,3301.0,2598.0,-3.87,9.51,3.41,0.01,0.05,-0.04,1.0,l
2932.0,3525.0,3826.0,4095.0,4095.0,3040.0,3295.0,2559.0,-2.88,8.62,2.75,-0.02,0.06,0.04,1.0,l
2928.0,3535.0,3819.0,4095.0,4095.0,3041.0,3306.0,2599.0,-2.75,9.33,2.91,-0.05,-0.08,0.04,1.0,l
2929.0,3504.0,3828.0,4095.0,4095.0,3042.0,3299.0,2592.0,-4.59,9.45,3.6,-0.23,-0.1,0.24,1.0,l
2938.0,3530.0,3847.0,4095.0,4095.0,3052.0,3305.0,2593.0,-2.81,9.0,2.36,-0.1,0.29,0.74,1.0,l
2933.0,3534.0,3819.0,4095.0,4095.0,3042.0,3291.0,2601.0,-1.18,9.18,3.08,-0.19,-0.01,0.63,1.0,l
2935.0,3511.0,3824.0,4095.0,4095.0,3054.0,3307.0,2617.0,-0.21,8.69,4.33,-0.43,-0.51,0.14,1.0,l
2930.0,3518.0,3817.0,4095.0,4095.0,3046.0,3292.0,2622.0,-1.04,9.18,4.02,-0.14,0.35,0.06,1.0,l
2943.0,3527.0,3824.0,4095.0,4095.0,3051.0,3305.0,2642.0,-1.47,9.5,3.49,-0.18,-0.23,-0.16,1.0,l
2929.0,3555.0,3825.0,4095.0,4095.0,3055.0,3312.0,2688.0,0.07,9.62,3.02,-0.17,-0.11,0.12,1.0,l
2928.0,3569.0,3827.0,4095.0,4095.0,3061.0,3333.0,2698.0,0.23,9.41,3.69,0.04,0.06,0.01,1.0,l
2933.0,3558.0,3824.0,4095.0,4095.0,3053.0,3309.0,2682.0,0.52,9.85,2.34,0.19,-0.07,-0.08,1.0,l
2933.0,3557.0,3824.0,4095.0,4095.0,3053.0,3312.0,2631.0,0.9,9.82,2.81,-0.22,-0.05,0.17,1.0,l
2926.0,3537.0,3814.0,4095.0,4095.0,3042.0,3307.0,2628.0,0.81,9.92,3.37,-0.26,0.28,-0.03,1.0,l
2940.0,3535.0,3807.0,4095.0,4095.0,3053.0,3312.0,2631.0,0.02,9.56,3.67,-0.11,0.03,0.05,1.0,l
2926.0,3510.0,3801.0,4095.0,4095.0,3040.0,3295.0,2605.0,0.54,9.66,3.31,0.02,0.17,0.06,1.0,l
2943.0,3525.0,3821.0,4095.0,4095.0,3049.0,3308.0,2607.0,0.44,9.82,2.99,-0.05,-0.05,-0.04,1.0,l
2934.0,3503.0,3807.0,4095.0,4095.0,3041.0,3296.0,2619.0,0.65,9.64,3.51,-0.09,0.09,-0.01,1.0,l
2944.0,3510.0,3813.0,4095.0,4095.0,3046.0,3312.0,2645.0,0.78,9.65,3.22,-0.06,-0.05,-0.06,1.0,l
2933.0,3510.0,3827.0,4095.0,4095.0,3055.0,3313.0,2640.0,0.69,9.39,3.51,-0.05,-0.03,-0.11,1.0,l
2930.0,3507.0,3795.0,4095.0,4095.0,3045.0,3303.0,2653.0,0.57,9.54,3.25,0.05,0.05,0.05,1.0,l
2929.0,3505.0,3810.0,4095.0,4095.0,3061.0,3327.0,2669.0,0.78,9.67,2.99,0.06,-0.02,0.0,1.0,l
2934.0,3505.0,3801.0,4095.0,4095.0,3041.0,3306.0,2675.0,0.81,9.68,2.76,-0.06,0.2,0.06,1.0,l
2927.0,3515.0,3826.0,4095.0,4095.0,3051.0,3310.0,2667.0,1.05,9.71,2.94,-0.07,0.05,-0.04,1.0,l
2919.0,3505.0,3811.0,4095.0,4095.0,3047.0,3307.0,2676.0,0.94,9.68,3.02,0.03,-0.09,-0.14,1.0,l
2938.0,3517.0,3815.0,4095.0,4095.0,3056.0,3312.0,2687.0,0.62,9.78,2.58,-0.04,-0.07,-0.21,1.0,l
2934.0,3495.0,3807.0,4095.0,4095.0,3049.0,3310.0,2671.0,0.5,9.53,3.16,-0.02,-0.01,-0.12,1.0,l
2937.0,3508.0,3827.0,4095.0,4095.0,3056.0,3313.0,2678.0,0.35,9.72,2.59,0.07,0.04,-0.07,1.0,l
2928.0,3506.0,3808.0,4095.0,4095.0,3047.0,3306.0,2678.0,0.2,9.68,3.07,0.03,0.06,-0.06,1.0,l
2928.0,3488.0,3818.0,4095.0,4095.0,3053.0,3314.0,2689.0,0.34,9.91,1.83,0.1,-0.02,-0.12,1.0,l
2931.0,3495.0,3819.0,4095.0,4095.0,3057.0,3315.0,2690.0,0.4,10.1,1.19,-0.05,0.13,0.02,1.0,l
2930.0,3490.0,3811.0,4095.0,4095.0,3054.0,3313.0,2702.0,0.55,10.11,1.4,-0.03,-0.09,-0.13,1.0,l
2939.0,3498.0,3824.0,4095.0,4095.0,3057.0,3321.0,2705.0,0.43,9.98,1.72,0.01,-0.42,-0.22,1.0,l
2928.0,3500.0,3826.0,4095.0,4095.0,3053.0,3306.0,2687.0,-0.4,9.99,1.11,-0.06,0.03,-0.19,1.0,l
2943.0,3504.0,3839.0,4095.0,4095.0,3056.0,3309.0,2702.0,-0.36,10.03,1.06,-0.23,-0.22,-0.19,1.0,l
2928.0,3490.0,3799.0,4095.0,4095.0,3057.0,3311.0,2703.0,-0.79,9.74,1.99,-0.35,-0.05,-0.07,1.0,l
2939.0,3504.0,3822.0,4095.0,4095.0,3063.0,3314.0,2701.0,-0.57,9.73,2.58,-0.19,0.11,0.06,1.0,l
2937.0,3489.0,3824.0,4095.0,4095.0,3056.0,3310.0,2698.0,-0.17,9.83,2.22,-0.03,0.03,0.07,1.0,l
2934.0,3500.0,3824.0,4095.0,4095.0,3057.0,3315.0,2707.0,-0.14,9.88,2.13,-0.17,0.38,0.06,1.0,l
2940.0,3507.0,3842.0,4095.0,4095.0,3054.0,3314.0,2737.0,0.07,9.94,2.1,-0.04,-0.15,-0.09,1.0,l
2933.0,3497.0,3825.0,4095.0,4095.0,3056.0,3313.0,2722.0,-0.0,9.88,2.05,-0.03,0.06,-0.06,1.0,l
2931.0,3502.0,3830.0,4095.0,4095.0,3062.0,3315.0,2727.0,-0.11,9.92,2.04,-0.06,0.06,-0.05,1.0,l
2922.0,3491.0,3827.0,4095.0,4095.0,3056.0,3312.0,2739.0,-0.1,9.99,1.92,-0.01,0.02,-0.11,1.0,l
2929.0,3505.0,3846.0,4095.0,4095.0,3059.0,3321.0,2731.0,-0.38,9.92,1.84,-0.01,-0.21,-0.15,1.0,l
2931.0,3504.0,3819.0,4095.0,4095.0,3056.0,3312.0,2715.0,-0.44,9.81,2.12,-0.1,0.05,-0.09,1.0,l
2931.0,3503.0,3850.0,4095.0,4095.0,3067.0,3321.0,2714.0,-0.52,9.86,2.03,-0.07,0.05,-0.06,1.0,l
2940.0,3499.0,3828.0,4095.0,4095.0,3060.0,3312.0,2715.0,-0.45,9.94,1.84,-0.03,-0.11,-0.08,1.0,l
2937.0,3508.0,3840.0,4095.0,4095.0,3064.0,3316.0,2725.0,-0.4,9.96,1.81,-0.15,0.11,-0.04,1.0,l
2925.0,3495.0,3827.0,4095.0,4095.0,3062.0,3313.0,2711.0,-0.72,9.89,1.92,-0.21,0.01,-0.13,1.0,l
2943.0,3499.0,3807.0,4095.0,4095.0,3059.0,3314.0,2710.0,-1.13,9.62,2.7,-0.11,0.03,-0.13,1.0,l
2935.0,3493.0,3815.0,4095.0,4095.0,3083.0,3328.0,2706.0,-1.16,9.6,2.79,-0.06,-0.05,-0.08,1.0,l
2927.0,3503.0,3831.0,4095.0,4095.0,3063.0,3312.0,2704.0,-1.34,9.65,2.62,-0.06,0.09,-0.04,1.0,l
2928.0,3506.0,3831.0,4095.0,4095.0,3071.0,3318.0,2709.0,-1.26,9.67,2.56,-0.06,0.01,-0.06,1.0,l
2928.0,3494.0,3825.0,4095.0,4095.0,3081.0,3328.0,2726.0,-1.07,9.66,2.65,-0.0,-0.16,-0.14,1.0,l
2928.0,3505.0,3824.0,4095.0,4095.0,3069.0,3319.0,2698.0,-1.3,9.7,2.5,-0.03,-0.22,-0.19,1.0,l
2935.0,3499.0,3823.0,4095.0,4095.0,3069.0,3327.0,2695.0,-1.76,9.45,2.83,-0.15,-0.01,-0.12,1.0,l
2926.0,3495.0,3815.0,4095.0,4095.0,3068.0,3324.0,2691.0,-1.79,9.52,2.83,-0.09,0.04,-0.04,1.0,l
2931.0,3504.0,3824.0,4095.0,4095.0,3071.0,3331.0,2690.0,-1.59,9.57,2.71,-0.06,-0.01,0.01,1.0,l
2930.0,3495.0,3812.0,4095.0,4095.0,3071.0,3339.0,2663.0,-1.08,9.58,2.88,0.01,-0.14,-0.07,1.0,l
2944.0,3514.0,3847.0,4095.0,4095.0,3071.0,3318.0,2672.0,-1.34,9.58,2.72,-0.01,-0.11,-0.14,1.0,l
2928.0,3497.0,3818.0,4095.0,4095.0,3071.0,3322.0,3053.0,-1.61,9.52,2.79,-0.03,-0.01,-0.07,1.0,l
2939.0,3495.0,3829.0,4095.0,4095.0,3071.0,3321.0,3056.0,-1.65,9.6,2.59,-0.04,0.1,-0.04,1.0,l
2931.0,3498.0,3836.0,4095.0,4095.0,3083.0,3322.0,3038.0,-1.56,9.61,2.61,-0.03,-0.08,-0.1,1.0,l
2942.0,3507.0,3839.0,4095.0,4095.0,3085.0,3331.0,3046.0,-1.68,9.52,2.76,-0.01,-0.1,-0.08,1.0,l
2938.0,3508.0,3835.0,4095.0,4095.0,3062.0,3319.0,3033.0,-1.74,9.51,2.67,0.01,0.0,-0.01,1.0,l
2934.0,3486.0,3841.0,4095.0,4095.0,3071.0,3329.0,3036.0,-1.6,9.59,2.58,-0.0,-0.08,-0.04,1.0,l
2939.0,3507.0,3843.0,4095.0,4095.0,3090.0,3331.0,3041.0,-1.64,9.59,2.66,-0.03,-0.05,-0.06,1.0,l
2929.0,3500.0,3827.0,4095.0,4095.0,3082.0,3326.0,3031.0,-1.65,9.57,2.6,-0.04,-0.01,-0.07,1.0,l
2928.0,3507.0,3824.0,4095.0,4095.0,3071.0,3328.0,3069.0,-1.64,9.58,2.65,0.01,-0.05,-0.04,1.0,l
2929.0,3509.0,3847.0,4095.0,4095.0,3081.0,3315.0,3071.0,-1.89,9.75,1.7,-0.01,0.08,-0.0,1.0,l
2941.0,3502.0,3838.0,4095.0,4095.0,3084.0,3317.0,3082.0,-1.65,9.75,1.68,-0.02,-0.05,-0.03,1.0,l
2930.0,3502.0,3834.0,4095.0,4095.0,3071.0,3329.0,3095.0,-1.83,9.7,1.74,-0.05,-0.02,-0.02,1.0,l
2944.0,3504.0,3838.0,4095.0,4095.0,3085.0,3331.0,3087.0,-1.74,9.6,2.16,-0.01,-0.03,0.01,1.0,l
2931.0,3499.0,3827.0,4095.0,4095.0,3087.0,3331.0,3102.0,-1.69,9.74,1.6,0.06,0.07,0.06,1.0,l
2928.0,3504.0,3831.0,4095.0,4095.0,3071.0,3319.0,3086.0,-1.33,9.82,1.53,0.04,-0.03,0.04,1.0,l
2933.0,3515.0,3858.0,4095.0,4095.0,3086.0,3326.0,3087.0,-1.51,9.85,1.23,0.01,0.13,0.02,1.0,l
2928.0,3505.0,3835.0,4095.0,4095.0,3069.0,3322.0,3083.0,-1.43,9.9,1.22,-0.05,0.11,0.01,1.0,l
2946.0,3513.0,3837.0,4095.0,4095.0,3086.0,3337.0,3094.0,-1.55,9.83,1.43,-0.05,0.06,0.0,1.0,l
2941.0,3505.0,3824.0,4095.0,4095.0,3070.0,3323.0,3085.0,-1.39,9.86,1.29,-0.07,0.04,-0.01,1.0,l
2932.0,3504.0,3853.0,4095.0,4095.0,3085.0,3325.0,3071.0,-1.33,9.79,1.4,-0.07,0.03,-0.01,1.0,l
2928.0,3511.0,3840.0,4095.0,4095.0,3071.0,3329.0,3056.0,-1.32,9.8,1.41,-0.11,0.2,0.04,1.0,l
2928.0,3505.0,3845.0,4095.0,4095.0,3092.0,3337.0,3086.0,-1.38,9.88,1.21,-0.04,0.01,0.03,1.0,l
2926.0,3501.0,3833.0,4095.0,4095.0,3082.0,3330.0,3065.0,-1.11,9.88,1.29,-0.04,0.0,0.01,1.0,l
2942.0,3509.0,3833.0,4095.0,4095.0,3088.0,3330.0,3070.0,-1.16,9.9,1.24,-0.09,0.03,0.01,1.0,l
2928.0,3498.0,3815.0,4095.0,4095.0,3091.0,3343.0,3071.0,-1.08,9.89,1.33,-0.09,0.05,0.02,1.0,l
2928.0,3503.0,3825.0,4095.0,4095.0,3088.0,3331.0,3071.0,-1.15,9.89,1.3,-0.07,0.11,0.02,1.0,l
2929.0,3511.0,3833.0,4095.0,4095.0,3087.0,3334.0,3088.0,-0.94,9.96,1.2,-0.04,-0.04,-0.0,1.0,l
2930.0,3511.0,3826.0,4095.0,4095.0,3071.0,3333.0,3082.0,-0.95,9.94,1.3,-0.07,-0.01,-0.01,1.0,l
2934.0,3520.0,3833.0,4095.0,4095.0,3086.0,3344.0,3091.0,-0.89,9.94,1.26,-0.06,0.05,-0.02,1.0,l
2946.0,3517.0,3847.0,4095.0,4095.0,3090.0,3339.0,3087.0,-0.78,9.98,1.27,-0.08,0.03,-0.0,1.0,l
2938.0,3514.0,3823.0,4095.0,4095.0,3081.0,3334.0,3086.0,-0.84,9.9,1.48,-0.06,-0.01,0.02,1.0,l
2934.0,3505.0,3843.0,4095.0,4095.0,3083.0,3344.0,3087.0,-0.67,9.98,1.17,-0.07,0.0,0.02,1.0,l
2933.0,3508.0,3839.0,4095.0,4095.0,3071.0,3329.0,3065.0,-0.66,9.92,1.4,-0.08,0.0,-0.01,1.0,l
2937.0,3506.0,3841.0,4095.0,4095.0,3071.0,3329.0,3067.0,-0.67,9.93,1.34,-0.08,-0.01,-0.01,1.0,l
2933.0,3522.0,3835.0,4095.0,4095.0,3089.0,3339.0,3099.0,-0.58,9.97,1.33,-0.08,-0.05,-0.01,1.0,l
2935.0,3516.0,3836.0,4095.0,4095.0,3087.0,3329.0,3095.0,-0.63,9.95,1.39,-0.11,0.01,0.01,1.0,l
2934.0,3513.0,3826.0,4095.0,4095.0,3095.0,3343.0,3101.0,-0.59,9.91,1.53,-0.1,0.04,0.01,1.0,l
2930.0,3515.0,3822.0,4095.0,4095.0,3085.0,3331.0,3099.0,-0.57,9.89,1.53,-0.09,0.04,0.01,1.0,l
2930.0,3514.0,3850.0,4095.0,4095.0,3088.0,3327.0,3098.0,-0.47,9.95,1.48,-0.08,-0.03,-0.0,1.0,l
2924.0,3500.0,3825.0,4095.0,4095.0,3071.0,3325.0,3100.0,-0.42,9.97,1.53,-0.11,0.02,-0.0,1.0,l
2929.0,3517.0,3849.0,4095.0,4095.0,3088.0,3334.0,3095.0,-0.52,9.92,1.59,-0.1,0.02,0.01,1.0,l
2941.0,3518.0,3846.0,4095.0,4095.0,3087.0,3329.0,3091.0,-0.42,9.96,1.58,-0.12,0.09,0.02,1.0,l
2934.0,3506.0,3845.0,4095.0,4095.0,3097.0,3339.0,3099.0,-0.28,9.9,1.72,-0.11,-0.0,0.02,1.0,l
2941.0,3510.0,3840.0,4095.0,4095.0,3071.0,3335.0,3103.0,-0.28,9.92,1.71,-0.09,-0.04,-0.01,1.0,l
2932.0,3496.0,3837.0,4095.0,4095.0,3088.0,3347.0,3101.0,-0.24,9.92,1.81,-0.1,0.04,-0.01,1.0,l
2929.0,3509.0,3834.0,4095.0,4095.0,3094.0,3339.0,3101.0,-0.31,9.9,1.78,-0.11,0.0,-0.01,1.0,l
2935.0,3504.0,3823.0,4095.0,4095.0,3082.0,3324.0,3093.0,-0.19,9.89,1.92,-0.12,0.01,0.03,1.0,l
2940.0,3520.0,3835.0,4095.0,4095.0,3089.0,3337.0,3099.0,0.0,9.99,1.92,-0.11,0.04,0.0,1.0,l
2933.0,3515.0,3835.0,4095.0,4095.0,3081.0,3324.0,3104.0,-0.1,9.93,1.96,-0.09,-0.01,-0.02,1.0,l
2933.0,3523.0,3847.0,4095.0,4095.0,3087.0,3331.0,3107.0,-0.04,9.91,2.09,-0.07,0.01,-0.03,1.0,l
2931.0,3504.0,3821.0,4095.0,4095.0,3088.0,3331.0,3105.0,-0.05,9.91,2.11,-0.05,-0.06,-0.03,1.0,l
2934.0,3515.0,3844.0,4095.0,4095.0,3090.0,3346.0,3117.0,-0.04,9.92,2.13,-0.09,0.03,-0.03,1.0,l
2937.0,3509.0,3844.0,4095.0,4095.0,3090.0,3333.0,3111.0,0.06,9.91,2.12,-0.08,-0.03,-0.05,1.0,l
2931.0,3505.0,3839.0,4095.0,4095.0,3081.0,3330.0,3105.0,-0.06,9.85,2.21,-0.09,0.0,-0.04,1.0,l
2928.0,3518.0,3854.0,4095.0,4095.0,3089.0,3330.0,3100.0,-0.06,9.87,2.18,-0.1,0.04,-0.04,1.0,l
2930.0,3501.0,3822.0,4095.0,4095.0,3087.0,3330.0,3103.0,-0.02,9.89,2.15,-0.07,-0.02,-0.04,1.0,l
2941.0,3505.0,3830.0,4095.0,4095.0,3090.0,3341.0,3106.0,-0.1,9.87,2.21,-0.08,0.03,-0.06,1.0,l
2930.0,3497.0,3839.0,4095.0,4095.0,3088.0,3331.0,3097.0,-0.16,9.82,2.25,-0.09,-0.04,-0.07,1.0,l
2939.0,3505.0,3839.0,4095.0,4095.0,3101.0,3341.0,3088.0,-0.12,9.86,2.29,-0.13,-0.01,-0.06,1.0,l
2939.0,3510.0,3847.0,4095.0,4095.0,3088.0,3328.0,3066.0,-0.06,9.84,2.38,-0.13,-0.03,-0.08,1.0,l
2933.0,3509.0,3840.0,4095.0,4095.0,3088.0,3332.0,3089.0,-0.23,9.79,2.4,-0.11,0.03,-0.09,1.0,l
2929.0,3518.0,3822.0,4095.0,4095.0,3071.0,3321.0,3090.0,-0.14,9.77,2.58,-0.09,-0.12,-0.09,1.0,l
2931.0,3505.0,3846.0,4095.0,4095.0,3089.0,3335.0,3115.0,-0.2,9.78,2.57,-0.09,0.0,-0.07,1.0,l
2928.0,3513.0,3830.0,4095.0,4095.0,3088.0,3329.0,3103.0,-0.22,9.81,2.48,-0.1,-0.05,-0.09,1.0,l
2947.0,3517.0,3814.0,4095.0,4095.0,3088.0,3329.0,3102.0,-0.37,9.7,2.72,-0.09,-0.11,-0.1,1.0,l
2935.0,3513.0,3829.0,4095.0,4095.0,3088.0,3331.0,3105.0,-0.31,9.76,2.6,-0.09,-0.13,-0.07,1.0,l
2935.0,3510.0,3828.0,4095.0,4095.0,3088.0,3335.0,3089.0,-0.2,9.77,2.72,-0.1,0.03,-0.06,1.0,l
2942.0,3519.0,3841.0,4095.0,4095.0,3089.0,3337.0,3103.0,-0.23,9.71,2.82,-0.08,-0.09,-0.11,1.0,l
2933.0,3503.0,3853.0,4095.0,4095.0,3089.0,3321.0,3088.0,-0.4,9.65,2.89,-0.1,0.02,-0.08,1.0,l
2942.0,3499.0,3858.0,4095.0,4095.0,3099.0,3327.0,3122.0,-0.6,9.62,3.07,-0.09,0.01,-0.04,1.0,l
2928.0,3504.0,3855.0,4095.0,4095.0,3091.0,3333.0,3119.0,-0.6,9.62,3.08,-0.06,-0.03,-0.05,1.0,l
2942.0,3521.0,3853.0,4095.0,4095.0,3097.0,3327.0,3131.0,-0.57,9.67,2.98,-0.05,-0.07,-0.03,1.0,l
2928.0,3508.0,3858.0,4095.0,4095.0,3097.0,3339.0,3134.0,-0.58,9.68,2.86,-0.09,0.04,-0.05,1.0,l
2935.0,3506.0,3841.0,4095.0,4095.0,3089.0,3328.0,3121.0,-0.41,9.69,3.0,-0.12,-0.08,-0.1,1.0,l
2928.0,3509.0,3856.0,4095.0,4095.0,3099.0,3344.0,3120.0,-0.71,9.55,3.24,-0.17,-0.02,-0.1,1.0,l
2933.0,3494.0,3856.0,4095.0,4095.0,3091.0,3333.0,3118.0,-0.74,9.54,3.33,-0.14,0.07,-0.07,1.0,l
2939.0,3511.0,3863.0,4095.0,4095.0,3106.0,3344.0,3121.0,-0.75,9.57,3.29,-0.14,-0.04,-0.07,1.0,l
2934.0,3504.0,3863.0,4095.0,4095.0,3091.0,3323.0,3114.0,-0.86,9.43,3.56,-0.15,-0.01,-0.05,1.0,l
2933.0,3522.0,3875.0,4095.0,4095.0,3102.0,3343.0,3122.0,-0.69,9.49,3.55,-0.09,-0.02,-0.07,1.0,l
2939.0,3505.0,3850.0,4095.0,4095.0,3088.0,3334.0,3114.0,-0.84,9.49,3.39,-0.11,-0.02,-0.07,1.0,l
2943.0,3509.0,3874.0,4095.0,4095.0,3105.0,3328.0,3122.0,-0.71,9.46,3.55,-0.12,-0.09,-0.07,1.0,l
2928.0,3503.0,3859.0,4095.0,4095.0,3093.0,3335.0,3102.0,-0.94,9.32,3.68,-0.16,-0.01,-0.07,1.0,l
2935.0,3520.0,3886.0,4095.0,4095.0,3101.0,3338.0,3103.0,-0.76,9.3,3.85,-0.12,-0.07,-0.1,1.0,l
2929.0,3515.0,3872.0,4095.0,4095.0,3096.0,3337.0,3088.0,-0.93,9.27,3.91,-0.11,-0.02,-0.09,1.0,l
2928.0,3497.0,3856.0,4095.0,4095.0,3099.0,3344.0,3071.0,-1.0,9.17,3.96,-0.16,0.07,-0.06,1.0,l
2934.0,3510.0,3870.0,4095.0,4095.0,3111.0,3347.0,3084.0,-0.85,9.28,3.95,-0.15,-0.0,-0.05,1.0,l
2941.0,3506.0,3872.0,4095.0,4095.0,3091.0,3334.0,3071.0,-0.84,9.24,3.99,-0.19,0.03,-0.05,1.0,l
2928.0,3515.0,3884.0,4095.0,4095.0,3091.0,3339.0,3085.0,-0.86,9.16,4.29,-0.17,0.02,-0.08,1.0,l
2924.0,3504.0,3866.0,4095.0,4095.0,3095.0,3344.0,3067.0,-1.02,9.09,4.37,-0.13,-0.07,-0.08,1.0,l
2929.0,3504.0,3867.0,4095.0,4095.0,3095.0,3338.0,3067.0,-0.99,9.1,4.4,-0.09,-0.06,-0.07,1.0,l
2943.0,3516.0,3890.0,4095.0,4095.0,3106.0,3346.0,3095.0,-0.94,9.01,4.47,-0.03,-0.06,-0.09,1.0,l
2928.0,3487.0,3846.0,4095.0,4095.0,3110.0,3346.0,3071.0,-1.08,9.19,4.23,0.08,-0.13,-0.14,1.0,l
2933.0,3493.0,3851.0,4095.0,4095.0,3105.0,3330.0,3068.0,-1.03,9.1,4.48,0.02,-0.24,-0.17,1.0,l
2931.0,3499.0,3861.0,4095.0,4095.0,3118.0,3331.0,3069.0,-1.3,9.05,4.35,-0.02,-0.1,-0.11,1.0,l
2928.0,3463.0,3828.0,4095.0,4095.0,3099.0,3333.0,3042.0,-1.27,9.09,4.45,-0.1,-0.02,-0.06,1.0,l
2934.0,3459.0,3856.0,4095.0,4095.0,3119.0,3347.0,3056.0,-1.17,9.02,4.6,-0.09,-0.13,-0.13,1.0,l
2930.0,3449.0,3847.0,4095.0,4095.0,3101.0,3334.0,3045.0,-1.24,8.96,4.7,-0.09,-0.05,-0.14,1.0,l
2935.0,3465.0,3851.0,4095.0,4095.0,3115.0,3346.0,3059.0,-1.52,8.85,4.7,-0.07,0.07,-0.12,1.0,l
2934.0,3447.0,3842.0,4095.0,4095.0,3105.0,3331.0,3054.0,-1.62,8.87,4.35,-0.09,-0.0,-0.12,1.0,l
2935.0,3472.0,3845.0,4095.0,4095.0,3109.0,3333.0,3059.0,-1.5,8.86,4.76,-0.13,-0.06,-0.08,1.0,l
2928.0,3450.0,3837.0,4095.0,4095.0,3110.0,3329.0,3057.0,-1.8,8.72,4.72,-0.12,0.06,-0.09,1.0,l
2935.0,3456.0,3850.0,4095.0,4095.0,3116.0,3346.0,3088.0,-1.53,8.8,4.72,-0.08,-0.09,-0.06,1.0,l
2938.0,3461.0,3831.0,4095.0,4095.0,3114.0,3334.0,3071.0,-1.6,8.75,4.75,-0.05,-0.01,-0.07,1.0,l
2929.0,3446.0,3837.0,4095.0,4095.0,3124.0,3341.0,3081.0,-1.71,8.67,4.86,-0.07,0.05,-0.08,1.0,l
2939.0,3457.0,3852.0,4095.0,4095.0,3117.0,3349.0,3088.0,-1.83,8.75,4.73,-0.05,-0.03,-0.09,1.0,l
2938.0,3456.0,3856.0,4095.0,4095.0,3103.0,3330.0,3079.0,-1.7,8.75,4.74,-0.05,-0.03,-0.06,1.0,l
2946.0,3467.0,3849.0,4095.0,4095.0,3111.0,3350.0,3093.0,-1.75,8.67,4.91,-0.08,0.03,-0.07,1.0,l
2930.0,3472.0,3840.0,4095.0,4095.0,3103.0,3337.0,3098.0,-1.8,8.7,4.77,-0.05,0.04,-0.08,1.0,l
2924.0,3448.0,3858.0,4095.0,4095.0,3111.0,3344.0,3094.0,-1.81,8.71,4.75,0.0,-0.1,-0.1,1.0,l
