hall_1,hall_2,hall_3,flex_t,flex_i,flex_m,flex_r,flex_p,accel_x,accel_y,accel_z,gyro_x,gyro_y,gyro_z,hand,sign
3041.0,1338.0,1129.0,4095.0,4095.0,2326.0,2512.0,2065.0,-0.44,9.89,4.83,0.01,-0.03,-0.16,0.0,l
3045.0,1349.0,1121.0,4095.0,4095.0,2337.0,2518.0,2054.0,-0.42,9.88,4.89,0.01,0.05,-0.16,0.0,l
3041.0,1369.0,1125.0,4095.0,4095.0,2326.0,2529.0,2055.0,-0.17,9.85,4.67,0.06,0.0,-0.15,0.0,l
3035.0,1394.0,1131.0,4095.0,4095.0,2330.0,2519.0,2064.0,-0.2,9.94,4.51,0.03,-0.03,-0.15,0.0,l
3040.0,1409.0,1128.0,4095.0,4095.0,2323.0,2528.0,2057.0,-0.31,9.86,4.68,0.02,-0.05,-0.16,0.0,l
3035.0,1427.0,1120.0,4095.0,4095.0,2333.0,2527.0,2062.0,-0.26,9.82,4.67,0.02,-0.02,-0.15,0.0,l
3053.0,1426.0,1125.0,4095.0,4095.0,2335.0,2526.0,2064.0,-0.28,9.91,4.77,0.02,-0.01,-0.14,0.0,l
3047.0,1445.0,1121.0,4095.0,4095.0,2323.0,2533.0,2078.0,-0.28,9.95,4.54,0.03,-0.02,-0.14,0.0,l
3046.0,1438.0,1109.0,4095.0,4095.0,2335.0,2519.0,2068.0,-0.22,9.89,4.62,0.03,-0.02,-0.17,0.0,l
3047.0,1442.0,1121.0,4095.0,4095.0,2331.0,2528.0,2073.0,-0.28,9.89,4.54,0.0,-0.01,-0.13,0.0,l
3043.0,1441.0,1117.0,4095.0,4095.0,2335.0,2544.0,2066.0,-0.31,9.89,4.7,0.01,-0.01,-0.14,0.0,l
3040.0,1439.0,1115.0,4095.0,4095.0,2342.0,2539.0,2075.0,-0.39,9.88,4.64,0.01,0.01,-0.14,0.0,l
3040.0,1456.0,1120.0,4095.0,4095.0,2337.0,2544.0,2075.0,-0.18,9.84,4.65,0.01,0.01,-0.15,0.0,l
3039.0,1454.0,1122.0,4095.0,4095.0,2342.0,2535.0,2077.0,-0.22,9.85,4.57,0.01,-0.03,-0.15,0.0,l
3025.0,1449.0,1117.0,4095.0,4095.0,2340.0,2535.0,2087.0,-0.2,9.95,4.63,0.0,-0.03,-0.15,0.0,l
3041.0,1445.0,1125.0,4095.0,4095.0,2341.0,2533.0,2073.0,-0.22,9.87,4.66,0.0,-0.02,-0.14,0.0,l
3049.0,1443.0,1117.0,4095.0,4095.0,2339.0,2541.0,2080.0,-0.23,9.9,4.56,0.01,0.01,-0.15,0.0,l
3036.0,1445.0,1134.0,4095.0,4095.0,2346.0,2544.0,2085.0,-0.23,9.83,4.65,0.02,-0.01,-0.15,0.0,l
3040.0,1454.0,1131.0,4095.0,4095.0,2345.0,2544.0,2080.0,-0.23,9.84,4.62,0.01,-0.03,-0.15,0.0,l
3038.0,1454.0,1135.0,4095.0,4095.0,2346.0,2545.0,2080.0,-0.21,9.84,4.67,-0.01,-0.01,-0.14,0.0,l
3042.0,1453.0,1123.0,4095.0,4095.0,2336.0,2547.0,2084.0,-0.24,9.88,4.66,0.01,0.0,-0.14,0.0,l
3039.0,1446.0,1123.0,4095.0,4095.0,2344.0,2559.0,2081.0,-0.28,9.83,4.66,0.03,-0.09,-0.18,0.0,l
3043.0,1453.0,1130.0,4095.0,4095.0,2347.0,2540.0,2090.0,-0.24,9.91,4.64,-0.0,0.01,-0.13,0.0,l
3033.0,1456.0,1134.0,4095.0,4095.0,2335.0,2549.0,2093.0,-0.21,9.97,4.61,0.04,-0.02,-0.15,0.0,l
3037.0,1455.0,1123.0,4095.0,4095.0,2347.0,2542.0,2088.0,-0.3,9.84,4.66,0.03,-0.01,-0.16,0.0,l
3035.0,1451.0,1127.0,4095.0,4095.0,2350.0,2549.0,2090.0,-0.2,9.9,4.58,0.02,-0.0,-0.14,0.0,l
3038.0,1459.0,1120.0,4095.0,4095.0,2341.0,2555.0,2080.0,-0.16,9.92,4.54,0.02,-0.04,-0.17,0.0,l
3030.0,1463.0,1133.0,4095.0,4095.0,2349.0,2551.0,2087.0,-0.28,9.9,4.54,0.0,-0.0,-0.14,0.0,l
3052.0,1455.0,1127.0,4095.0,4095.0,2351.0,2559.0,2086.0,-0.23,9.88,4.69,0.01,0.01,-0.14,0.0,l
3046.0,1459.0,1121.0,4095.0,4095.0,2352.0,2559.0,2085.0,-0.21,9.89,4.52,0.01,-0.01,-0.15,0.0,l
3047.0,1470.0,1133.0,4095.0,4095.0,2352.0,2548.0,2082.0,-0.17,9.89,4.59,0.01,-0.03,-0.15,0.0,l
3025.0,1455.0,1126.0,4095.0,4095.0,2353.0,2559.0,2093.0,-0.3,9.89,4.7,0.01,-0.03,-0.15,0.0,l
3042.0,1457.0,1124.0,4095.0,4095.0,2358.0,2559.0,2061.0,-0.13,9.94,4.49,0.02,-0.05,-0.17,0.0,l
3038.0,1453.0,1135.0,4095.0,4095.0,2352.0,2559.0,2079.0,-0.24,9.87,4.69,0.01,-0.02,-0.15,0.0,l
3027.0,1456.0,1136.0,4095.0,4095.0,2356.0,2559.0,2083.0,-0.15,9.92,4.59,0.03,-0.01,-0.15,0.0,l
3029.0,1474.0,1127.0,4095.0,4095.0,2362.0,2559.0,2085.0,-0.18,9.89,4.53,0.0,-0.0,-0.15,0.0,l
3037.0,1475.0,1136.0,4095.0,4095.0,2354.0,2559.0,2093.0,-0.26,9.9,4.66,-0.0,-0.01,-0.13,0.0,l
3047.0,1481.0,1135.0,4095.0,4095.0,2361.0,2558.0,2086.0,-0.29,9.88,4.71,0.0,0.05,-0.14,0.0,l
3031.0,1481.0,1136.0,4095.0,4095.0,2353.0,2559.0,2081.0,-0.21,9.89,4.58,0.02,0.01,-0.17,0.0,l
3043.0,1489.0,1127.0,4095.0,4095.0,2355.0,2559.0,2087.0,-0.19,9.86,4.65,0.01,0.0,-0.15,0.0,l
3037.0,1478.0,1135.0,4095.0,4095.0,2357.0,2559.0,2090.0,-0.38,9.91,4.48,-0.01,0.06,-0.11,0.0,l
3025.0,1743.0,2237.0,4095.0,4095.0,2327.0,2495.0,2091.0,-0.3,9.93,4.39,0.02,0.01,-0.14,0.0,l
3045.0,1738.0,2245.0,4095.0,4095.0,2323.0,2491.0,2091.0,-0.25,9.93,4.48,-0.01,0.04,-0.14,0.0,l
3046.0,1740.0,2244.0,4095.0,4095.0,2319.0,2502.0,2096.0,-0.06,9.89,4.52,0.01,0.0,-0.14,0.0,l
3040.0,1764.0,2250.0,4095.0,4095.0,2322.0,2498.0,2094.0,-0.3,9.82,4.51,0.04,-0.0,-0.13,0.0,l
3027.0,1775.0,2254.0,4095.0,4095.0,2320.0,2494.0,2096.0,-0.23,9.87,4.43,-0.01,0.01,-0.13,0.0,l
3047.0,1791.0,2246.0,4095.0,4095.0,2325.0,2498.0,2096.0,-0.24,10.04,4.52,0.02,-0.01,-0.14,0.0,l
3041.0,1808.0,2250.0,4095.0,4095.0,2325.0,2463.0,2096.0,-0.09,9.86,4.66,0.0,0.01,-0.16,0.0,l
3036.0,1827.0,2259.0,4095.0,4095.0,2325.0,2497.0,2096.0,-0.07,10.0,4.3,0.04,0.0,-0.14,0.0,l
3024.0,1839.0,2251.0,4095.0,4095.0,2327.0,2498.0,2101.0,-0.18,9.92,4.53,0.04,-0.02,-0.16,0.0,l
3050.0,1870.0,2248.0,4095.0,4095.0,2321.0,2500.0,2071.0,-0.29,9.9,4.42,0.03,-0.03,-0.17,0.0,l
3047.0,1891.0,2256.0,4095.0,4095.0,2310.0,2506.0,2103.0,-0.22,9.89,4.46,0.03,-0.01,-0.15,0.0,l
3043.0,1904.0,2254.0,4095.0,4095.0,2329.0,2502.0,2101.0,-0.1,9.81,4.53,0.01,0.01,-0.16,0.0,l
3026.0,1930.0,2261.0,4095.0,4095.0,2325.0,2496.0,2102.0,-0.2,9.91,4.36,0.04,-0.02,-0.16,0.0,l
3043.0,1946.0,2268.0,4095.0,4095.0,2322.0,2501.0,2102.0,-0.28,9.82,4.48,0.01,0.0,-0.18,0.0,l
3047.0,1983.0,2263.0,4095.0,4095.0,2327.0,2503.0,2102.0,-0.1,9.82,4.47,0.04,0.0,-0.14,0.0,l
3034.0,2036.0,2266.0,4095.0,4095.0,2330.0,2498.0,2103.0,-0.24,9.86,4.35,-0.0,-0.01,-0.14,0.0,l
3039.0,2037.0,2258.0,4095.0,4095.0,2331.0,2498.0,2099.0,-0.29,9.93,4.49,0.03,-0.02,-0.15,0.0,l
3033.0,2063.0,2257.0,4095.0,4095.0,2325.0,2498.0,2112.0,-0.29,9.92,4.33,0.03,-0.02,-0.16,0.0,l
3036.0,2101.0,2261.0,4095.0,4095.0,2327.0,2504.0,2111.0,-0.12,9.92,4.33,0.03,-0.04,-0.17,0.0,l
3038.0,2110.0,2269.0,4095.0,4095.0,2315.0,2501.0,2111.0,-0.31,9.77,4.43,0.04,-0.01,-0.16,0.0,l
3025.0,2128.0,2269.0,4095.0,4095.0,2332.0,2498.0,2109.0,-0.29,9.88,4.26,0.01,0.01,-0.15,0.0,l
3051.0,2140.0,2279.0,4095.0,4095.0,2334.0,2495.0,2112.0,-0.2,9.87,4.39,0.01,-0.03,-0.15,0.0,l
3034.0,2182.0,2273.0,4095.0,4095.0,2329.0,2494.0,2109.0,-0.27,9.9,4.31,0.03,-0.05,-0.17,0.0,l
3039.0,2185.0,2269.0,4095.0,4095.0,2332.0,2503.0,2114.0,-0.31,9.87,4.31,0.01,-0.05,-0.15,0.0,l
3041.0,2256.0,2272.0,4095.0,4095.0,2338.0,2497.0,2114.0,-0.29,9.84,4.37,-0.02,-0.02,-0.14,0.0,l
3045.0,2289.0,2274.0,4095.0,4095.0,2333.0,2502.0,2122.0,-0.2,9.9,4.43,-0.0,-0.03,-0.13,0.0,l
3030.0,2305.0,2272.0,4095.0,4095.0,2336.0,2501.0,2128.0,-0.21,9.83,4.39,0.03,0.0,-0.15,0.0,l
3042.0,2301.0,2281.0,4095.0,4095.0,2327.0,2513.0,2097.0,-0.39,9.89,4.29,0.03,-0.01,-0.14,0.0,l
3048.0,2310.0,2285.0,4095.0,4095.0,2330.0,2502.0,2128.0,-0.26,9.9,4.55,-0.03,0.05,-0.13,0.0,l
3042.0,2314.0,2276.0,4095.0,4095.0,2331.0,2505.0,2128.0,-0.14,9.95,4.15,0.05,-0.01,-0.16,0.0,l
3045.0,2302.0,2274.0,4095.0,4095.0,2337.0,2511.0,2128.0,-0.32,9.79,4.48,-0.01,-0.09,-0.14,0.0,l
3026.0,2313.0,2271.0,4095.0,4095.0,2327.0,2512.0,2127.0,-0.24,9.93,4.37,0.02,-0.05,-0.12,0.0,l
3051.0,2319.0,2273.0,4095.0,4095.0,2331.0,2512.0,2125.0,-0.3,10.03,4.53,0.01,-0.03,-0.11,0.0,l
3039.0,2310.0,2285.0,4095.0,4095.0,2333.0,2515.0,2125.0,-0.0,9.96,4.4,0.0,-0.03,-0.15,0.0,l
3035.0,2309.0,2278.0,4095.0,4095.0,2331.0,2515.0,2135.0,-0.09,9.92,4.37,0.03,-0.03,-0.15,0.0,l
3053.0,2311.0,2286.0,4095.0,4095.0,2329.0,2516.0,2134.0,-0.29,9.85,4.41,0.02,-0.04,-0.15,0.0,l
3040.0,2317.0,2276.0,4095.0,4095.0,2325.0,2512.0,2128.0,-0.22,9.83,4.39,0.01,-0.03,-0.14,0.0,l
3037.0,2321.0,2273.0,4095.0,4095.0,2329.0,2515.0,2130.0,-0.11,9.97,4.26,0.02,-0.02,-0.1,0.0,l
3038.0,2315.0,2291.0,4095.0,4095.0,2327.0,2512.0,2128.0,-0.37,9.94,4.52,0.03,0.01,-0.13,0.0,l
3037.0,2320.0,2286.0,4095.0,4095.0,2338.0,2518.0,2137.0,-0.02,9.89,4.26,0.02,0.02,-0.09,0.0,l
3047.0,2321.0,2295.0,4095.0,4095.0,2326.0,2513.0,2134.0,0.21,9.93,4.48,0.07,-0.06,-0.08,0.0,l
3025.0,942.0,1838.0,4095.0,4095.0,2395.0,2688.0,2099.0,-0.43,9.84,5.52,0.0,-0.02,-0.15,0.0,l
3024.0,933.0,1842.0,4095.0,4095.0,2399.0,2675.0,2098.0,-0.34,9.76,5.7,0.01,-0.03,-0.16,0.0,l
3024.0,931.0,1847.0,4095.0,4095.0,2394.0,2688.0,2107.0,-0.47,9.77,5.62,0.01,0.01,-0.17,0.0,l
3021.0,943.0,1838.0,4095.0,4095.0,2389.0,2683.0,2102.0,-0.5,9.76,5.66,0.01,-0.02,-0.14,0.0,l
3024.0,928.0,1840.0,4095.0,4095.0,2389.0,2684.0,2102.0,-0.4,9.8,5.63,0.01,0.0,-0.14,0.0,l
3034.0,945.0,1841.0,4095.0,4095.0,2385.0,2688.0,2101.0,-0.37,9.76,5.66,-0.01,0.02,-0.17,0.0,l
3019.0,932.0,1855.0,4095.0,4095.0,2390.0,2686.0,2103.0,-0.44,9.82,5.57,0.01,-0.0,-0.14,0.0,l
3025.0,945.0,1847.0,4095.0,4095.0,2395.0,2683.0,2105.0,-0.51,9.75,5.71,0.01,0.02,-0.14,0.0,l
3008.0,931.0,1844.0,4095.0,4095.0,2395.0,2682.0,2107.0,-0.39,9.84,5.46,0.04,-0.01,-0.15,0.0,l
3007.0,944.0,1840.0,4095.0,4095.0,2395.0,2688.0,2107.0,-0.59,9.83,5.59,0.01,0.02,-0.15,0.0,l
3019.0,940.0,1847.0,4095.0,4095.0,2398.0,2687.0,2106.0,-0.54,9.79,5.6,0.03,0.0,-0.15,0.0,l
3022.0,944.0,1842.0,4095.0,4095.0,2398.0,2687.0,2110.0,-0.55,9.78,5.66,0.01,0.02,-0.15,0.0,l
3027.0,950.0,1845.0,4095.0,4095.0,2411.0,2688.0,2112.0,-0.34,9.77,5.68,0.01,0.03,-0.15,0.0,l
3019.0,946.0,1843.0,4095.0,4095.0,2401.0,2688.0,2109.0,-0.37,9.83,5.48,0.03,-0.01,-0.17,0.0,l
3019.0,941.0,1840.0,4095.0,4095.0,2399.0,2689.0,2113.0,-0.6,9.75,5.66,0.02,-0.0,-0.16,0.0,l
3025.0,940.0,1849.0,4095.0,4095.0,2398.0,2692.0,2112.0,-0.57,9.75,5.62,0.02,-0.02,-0.14,0.0,l
3023.0,950.0,1845.0,4095.0,4095.0,2405.0,2691.0,2113.0,-0.4,9.82,5.53,0.01,-0.01,-0.15,0.0,l
3027.0,933.0,1841.0,4095.0,4095.0,2384.0,2687.0,2112.0,-0.33,9.8,5.63,0.02,-0.01,-0.12,0.0,l
3031.0,933.0,1840.0,4095.0,4095.0,2404.0,2688.0,2109.0,-0.4,9.88,5.49,0.01,0.01,-0.15,0.0,l
3024.0,937.0,1839.0,4095.0,4095.0,2406.0,2690.0,2117.0,-0.43,9.85,5.61,0.02,-0.03,-0.17,0.0,l
3021.0,944.0,1841.0,4095.0,4095.0,2401.0,2693.0,2113.0,-0.54,9.7,5.68,0.01,-0.02,-0.17,0.0,l
3029.0,939.0,1843.0,4095.0,4095.0,2407.0,2697.0,2113.0,-0.65,9.58,5.59,0.02,-0.03,-0.13,0.0,l
3026.0,949.0,1839.0,4095.0,4095.0,2404.0,2702.0,2113.0,-0.39,10.03,5.59,-0.08,0.02,-0.07,0.0,l
3022.0,933.0,1841.0,4095.0,4095.0,2402.0,2694.0,2119.0,-0.08,9.76,6.0,0.04,-0.03,-0.21,0.0,l
3017.0,944.0,1850.0,4095.0,4095.0,2411.0,2689.0,2114.0,-0.7,9.79,5.38,0.03,-0.01,-0.15,0.0,l
3024.0,944.0,1846.0,4095.0,4095.0,2413.0,2695.0,2122.0,-0.46,9.77,5.66,-0.01,0.01,-0.14,0.0,l
3013.0,929.0,1840.0,4095.0,4095.0,2407.0,2698.0,2116.0,-0.45,9.81,5.78,-0.03,0.02,-0.11,0.0,l
3010.0,935.0,1843.0,4095.0,4095.0,2411.0,2701.0,2114.0,-0.32,9.79,5.66,0.02,0.01,-0.12,0.0,l
3027.0,944.0,1847.0,4095.0,4095.0,2404.0,2700.0,2117.0,-0.47,9.8,5.73,0.04,0.03,-0.15,0.0,l
3010.0,944.0,1840.0,4095.0,4095.0,2403.0,2693.0,2118.0,-0.42,9.84,5.58,0.05,0.03,-0.17,0.0,l
3024.0,944.0,1845.0,4095.0,4095.0,2410.0,2697.0,2117.0,-0.44,9.76,5.64,0.01,-0.03,-0.2,0.0,l
3019.0,944.0,1843.0,4095.0,4095.0,2405.0,2699.0,2119.0,-0.45,9.74,5.61,0.02,0.01,-0.16,0.0,l
3019.0,939.0,1841.0,4095.0,4095.0,2402.0,2701.0,2113.0,-0.51,9.82,5.59,0.04,0.03,-0.14,0.0,l
3011.0,934.0,1850.0,4095.0,4095.0,2403.0,2700.0,2119.0,-0.49,9.74,5.61,0.03,0.01,-0.15,0.0,l
3017.0,928.0,1839.0,4095.0,4095.0,2403.0,2695.0,2114.0,-0.55,9.89,5.64,0.07,0.01,-0.15,0.0,l
3018.0,944.0,1840.0,4095.0,4095.0,2401.0,2695.0,2106.0,-0.41,9.81,5.34,0.02,-0.0,-0.17,0.0,l
3008.0,949.0,1840.0,4095.0,4095.0,2410.0,2699.0,2098.0,-0.44,9.75,5.61,0.01,-0.01,-0.16,0.0,l
3010.0,934.0,1824.0,4095.0,4095.0,2406.0,2700.0,2087.0,-0.44,9.83,5.58,0.0,-0.0,-0.15,0.0,l
3021.0,946.0,1834.0,4095.0,4095.0,2403.0,2701.0,2098.0,-0.45,9.82,5.48,0.01,-0.01,-0.15,0.0,l
3014.0,941.0,1827.0,4095.0,4095.0,2409.0,2695.0,2102.0,-0.41,9.82,5.6,0.0,-0.03,-0.16,0.0,l
3013.0,935.0,1840.0,4095.0,4095.0,2406.0,2702.0,2102.0,-0.5,9.75,5.57,0.02,-0.05,-0.16,0.0,l
3011.0,922.0,1232.0,4095.0,4095.0,2317.0,2768.0,2131.0,-0.4,9.9,4.96,0.03,0.02,-0.15,0.0,l
3026.0,916.0,1225.0,4095.0,4095.0,2319.0,2747.0,2131.0,-0.31,9.84,4.86,0.02,-0.01,-0.17,0.0,l
3013.0,917.0,1221.0,4095.0,4095.0,2319.0,2765.0,2128.0,-0.3,9.84,4.9,-0.0,-0.03,-0.13,0.0,l
3019.0,913.0,1232.0,4095.0,4095.0,2321.0,2765.0,2132.0,-0.42,9.85,4.92,-0.01,0.01,-0.15,0.0,l
3022.0,924.0,1230.0,4095.0,4095.0,2322.0,2768.0,2137.0,-0.3,9.89,5.0,0.02,0.03,-0.15,0.0,l
3024.0,912.0,1232.0,4095.0,4095.0,2318.0,2768.0,2143.0,-0.4,9.84,4.83,0.02,-0.0,-0.16,0.0,l
3024.0,920.0,1232.0,4095.0,4095.0,2322.0,2763.0,2137.0,-0.32,9.9,4.8,0.01,-0.0,-0.14,0.0,l
3024.0,915.0,1227.0,4095.0,4095.0,2320.0,2768.0,2137.0,-0.44,9.84,4.96,-0.0,-0.02,-0.16,0.0,l
3015.0,909.0,1221.0,4095.0,4095.0,2330.0,2768.0,2135.0,-0.37,9.89,4.89,0.0,-0.02,-0.15,0.0,l
3024.0,915.0,1219.0,4095.0,4095.0,2319.0,2768.0,2139.0,-0.26,9.88,5.01,0.01,0.01,-0.14,0.0,l
3021.0,916.0,1222.0,4095.0,4095.0,2319.0,2768.0,2142.0,-0.36,9.92,4.94,0.01,0.03,-0.14,0.0,l
3028.0,920.0,1217.0,4095.0,4095.0,2322.0,2770.0,2138.0,-0.3,9.93,4.76,0.03,-0.01,-0.14,0.0,l
3022.0,925.0,1215.0,4095.0,4095.0,2326.0,2771.0,2144.0,-0.36,9.92,4.94,-0.01,0.01,-0.15,0.0,l
3021.0,919.0,1219.0,4095.0,4095.0,2334.0,2781.0,2145.0,-0.17,9.89,4.96,0.04,-0.03,-0.16,0.0,l
3012.0,913.0,1217.0,4095.0,4095.0,2333.0,2768.0,2142.0,-0.38,9.91,4.86,0.03,-0.02,-0.15,0.0,l
3024.0,919.0,1216.0,4095.0,4095.0,2326.0,2771.0,2147.0,-0.27,9.89,4.8,0.01,-0.02,-0.16,0.0,l
3022.0,928.0,1223.0,4095.0,4095.0,2329.0,2778.0,2150.0,-0.32,9.9,4.96,0.03,-0.07,-0.17,0.0,l
3025.0,909.0,1221.0,4095.0,4095.0,2334.0,2772.0,2145.0,-0.34,9.91,4.91,0.02,-0.03,-0.15,0.0,l
3015.0,922.0,1223.0,4095.0,4095.0,2335.0,2773.0,2162.0,-0.32,9.87,4.91,0.03,-0.02,-0.16,0.0,l
3008.0,915.0,1222.0,4095.0,4095.0,2327.0,2774.0,2143.0,-0.51,9.84,4.74,0.02,-0.02,-0.13,0.0,l
3024.0,929.0,1225.0,4095.0,4095.0,2331.0,2779.0,2150.0,-0.22,9.91,5.02,0.02,-0.01,-0.14,0.0,l
3027.0,918.0,1218.0,4095.0,4095.0,2331.0,2774.0,2145.0,-0.31,9.88,4.81,0.04,-0.0,-0.16,0.0,l
3031.0,928.0,1225.0,4095.0,4095.0,2335.0,2775.0,2155.0,-0.37,9.8,4.89,0.0,0.01,-0.15,0.0,l
3018.0,912.0,1223.0,4095.0,4095.0,2334.0,2779.0,2149.0,-0.22,9.86,4.92,0.01,0.01,-0.14,0.0,l
3019.0,918.0,1232.0,4095.0,4095.0,2333.0,2779.0,2153.0,-0.39,9.88,4.93,0.02,0.01,-0.15,0.0,l
3023.0,914.0,1231.0,4095.0,4095.0,2333.0,2777.0,2149.0,-0.22,9.82,4.98,0.01,0.01,-0.15,0.0,l
3026.0,924.0,1231.0,4095.0,4095.0,2336.0,2778.0,2153.0,-0.24,9.88,4.87,0.02,-0.02,-0.15,0.0,l
3024.0,921.0,1219.0,4095.0,4095.0,2334.0,2784.0,2151.0,-0.27,9.84,4.95,0.01,-0.0,-0.15,0.0,l
3019.0,919.0,1227.0,4095.0,4095.0,2334.0,2770.0,2151.0,-0.31,9.88,4.88,0.03,-0.02,-0.17,0.0,l
3027.0,924.0,1232.0,4095.0,4095.0,2332.0,2782.0,2150.0,-0.25,9.85,4.88,0.02,-0.0,-0.15,0.0,l
3014.0,917.0,1232.0,4095.0,4095.0,2335.0,2784.0,2147.0,-0.3,9.88,4.89,0.03,-0.02,-0.16,0.0,l
3009.0,919.0,1222.0,4095.0,4095.0,2336.0,2783.0,2150.0,-0.28,9.91,4.81,0.02,-0.03,-0.15,0.0,l
3014.0,914.0,1218.0,4095.0,4095.0,2343.0,2782.0,2154.0,-0.36,9.85,4.84,0.01,-0.01,-0.13,0.0,l
3021.0,919.0,1229.0,4095.0,4095.0,2329.0,2783.0,2153.0,-0.29,9.91,4.81,-0.0,0.02,-0.14,0.0,l
3009.0,912.0,1233.0,4095.0,4095.0,2337.0,2784.0,2149.0,-0.28,9.89,4.94,0.01,0.01,-0.14,0.0,l
3019.0,928.0,1225.0,4095.0,4095.0,2342.0,2780.0,2147.0,-0.18,9.9,4.9,-0.0,-0.06,-0.16,0.0,l
3025.0,915.0,1216.0,4095.0,4095.0,2333.0,2785.0,2148.0,-0.43,9.93,4.98,0.04,-0.0,-0.19,0.0,l
3024.0,922.0,1214.0,4095.0,4095.0,2338.0,2780.0,2145.0,-0.34,9.88,4.84,0.02,0.04,-0.15,0.0,l
3011.0,923.0,1216.0,4095.0,4095.0,2335.0,2779.0,2153.0,-0.42,9.83,4.91,0.01,0.01,-0.13,0.0,l
3024.0,931.0,1219.0,4095.0,4095.0,2336.0,2782.0,2150.0,-0.33,9.91,4.91,0.01,0.02,-0.13,0.0,l
3025.0,915.0,1215.0,4095.0,4095.0,2335.0,2790.0,2154.0,-0.34,9.9,4.9,0.02,0.01,-0.14,0.0,l
3009.0,4095.0,3717.0,4095.0,4095.0,2211.0,2502.0,2127.0,-0.23,9.71,6.24,0.03,-0.02,-0.15,0.0,l
3009.0,4095.0,3737.0,4095.0,4095.0,2205.0,2498.0,2128.0,-0.23,9.78,6.04,0.01,0.04,-0.15,0.0,l
3024.0,4095.0,3723.0,4095.0,4095.0,2222.0,2501.0,2136.0,-0.34,9.73,6.04,0.04,0.0,-0.17,0.0,l
3020.0,4095.0,3725.0,4095.0,4095.0,2207.0,2502.0,2129.0,-0.09,9.63,6.21,0.03,0.0,-0.16,0.0,l
3011.0,4095.0,3735.0,4095.0,4095.0,2214.0,2507.0,2133.0,-0.29,9.79,6.08,0.03,0.02,-0.14,0.0,l
3007.0,4095.0,3721.0,4095.0,4095.0,2219.0,2506.0,2133.0,0.09,9.9,5.98,0.01,0.03,-0.17,0.0,l
3021.0,4095.0,3719.0,4095.0,4095.0,2214.0,2512.0,2144.0,-0.21,9.77,6.12,0.0,-0.01,-0.22,0.0,l
3014.0,4095.0,3729.0,4095.0,4095.0,2215.0,2506.0,2141.0,-0.37,9.58,6.05,0.06,-0.02,-0.15,0.0,l
3003.0,4095.0,3728.0,4095.0,4095.0,2215.0,2512.0,2141.0,-0.34,9.76,5.99,0.05,-0.03,-0.15,0.0,l
3003.0,4095.0,3727.0,4095.0,4095.0,2214.0,2499.0,2143.0,-0.25,9.79,6.08,0.03,-0.04,-0.13,0.0,l
3009.0,4095.0,3712.0,4095.0,4095.0,2214.0,2501.0,2145.0,-0.25,9.8,6.14,0.01,0.0,-0.16,0.0,l
3013.0,4095.0,3727.0,4095.0,4095.0,2221.0,2515.0,2141.0,-0.28,9.69,6.02,0.05,-0.01,-0.18,0.0,l
3025.0,4095.0,3719.0,4095.0,4095.0,2221.0,2512.0,2146.0,-0.29,9.67,6.02,0.06,-0.0,-0.16,0.0,l
3008.0,4095.0,3732.0,4095.0,4095.0,2215.0,2500.0,2147.0,-0.44,9.74,5.86,-0.0,0.03,-0.07,0.0,l
3010.0,4095.0,3712.0,4095.0,4095.0,2223.0,2512.0,2148.0,-0.28,9.7,6.12,0.01,0.03,-0.17,0.0,l
3008.0,4095.0,3727.0,4095.0,4095.0,2224.0,2512.0,2141.0,-0.23,9.81,5.9,0.02,0.01,-0.16,0.0,l
3009.0,4095.0,3712.0,4095.0,4095.0,2224.0,2512.0,2151.0,-0.15,9.68,6.03,-0.01,-0.01,-0.14,0.0,l
3014.0,4095.0,3711.0,4095.0,4095.0,2223.0,2511.0,2150.0,-0.22,9.76,6.06,0.02,-0.0,-0.15,0.0,l
3014.0,4095.0,3727.0,4095.0,4095.0,2223.0,2511.0,2155.0,-0.2,9.76,6.07,-0.0,-0.01,-0.16,0.0,l
3015.0,4095.0,3725.0,4095.0,4095.0,2224.0,2512.0,2153.0,-0.22,9.65,6.33,0.0,0.03,-0.17,0.0,l
3024.0,4095.0,3717.0,4095.0,4095.0,2221.0,2512.0,2144.0,-0.44,9.69,6.02,0.03,0.02,-0.17,0.0,l
3023.0,4095.0,3728.0,4095.0,4095.0,2226.0,2510.0,2159.0,-0.32,9.63,6.07,0.02,0.01,-0.15,0.0,l
3009.0,4095.0,3718.0,4095.0,4095.0,2225.0,2514.0,2160.0,-0.3,9.7,6.24,0.02,0.01,-0.15,0.0,l
3002.0,4095.0,3719.0,4095.0,4095.0,2228.0,2513.0,2158.0,-0.28,9.67,6.09,0.03,0.01,-0.15,0.0,l
3015.0,4095.0,3719.0,4095.0,4095.0,2224.0,2517.0,2154.0,-0.34,9.73,5.93,0.05,-0.02,-0.11,0.0,l
3006.0,4095.0,3725.0,4095.0,4095.0,2229.0,2516.0,2150.0,-0.19,9.81,5.83,-0.0,-0.03,-0.14,0.0,l
3006.0,4095.0,3705.0,4095.0,4095.0,2225.0,2512.0,2160.0,-0.16,9.63,5.94,0.01,-0.1,-0.17,0.0,l
3018.0,4095.0,3729.0,4095.0,4095.0,2228.0,2524.0,2159.0,-0.34,9.68,6.38,-0.02,-0.04,-0.16,0.0,l
3019.0,4095.0,3739.0,4095.0,4095.0,2228.0,2513.0,2162.0,-0.38,9.65,6.09,0.04,-0.01,-0.11,0.0,l
3020.0,4095.0,3728.0,4095.0,4095.0,2235.0,2513.0,2158.0,-0.22,9.72,5.94,0.02,-0.05,-0.11,0.0,l
3024.0,4095.0,3729.0,4095.0,4095.0,2229.0,2518.0,2165.0,-0.1,9.76,6.14,-0.03,-0.09,-0.2,0.0,l
3023.0,4095.0,3734.0,4095.0,4095.0,2227.0,2519.0,2159.0,-0.26,9.8,6.1,0.0,-0.05,-0.13,0.0,l
3023.0,4095.0,3728.0,4095.0,4095.0,2237.0,2518.0,2157.0,-0.13,9.82,5.93,0.03,-0.03,-0.14,0.0,l
3009.0,4095.0,3729.0,4095.0,4095.0,2224.0,2519.0,2157.0,-0.08,9.69,6.2,0.03,-0.02,-0.13,0.0,l
3008.0,4095.0,3728.0,4095.0,4095.0,2227.0,2526.0,2163.0,0.09,9.71,6.04,0.02,-0.03,-0.15,0.0,l
3014.0,4095.0,3724.0,4095.0,4095.0,2227.0,2517.0,2160.0,-0.17,9.74,6.03,0.03,-0.0,-0.15,0.0,l
3004.0,4095.0,3718.0,4095.0,4095.0,2231.0,2516.0,2160.0,-0.11,9.81,5.92,0.01,-0.03,-0.14,0.0,l
3015.0,4095.0,3743.0,4095.0,4095.0,2231.0,2526.0,2160.0,-0.16,9.71,6.19,-0.01,-0.01,-0.16,0.0,l
3020.0,4095.0,3734.0,4095.0,4095.0,2229.0,2523.0,2162.0,-0.12,9.73,6.08,0.03,0.01,-0.15,0.0,l
3014.0,4095.0,3750.0,4095.0,4095.0,2223.0,2529.0,2160.0,-0.2,9.77,5.89,0.02,0.03,-0.14,0.0,l
3023.0,4095.0,3753.0,4095.0,4095.0,2229.0,2519.0,2160.0,-0.13,9.74,6.02,-0.01,0.01,-0.15,0.0,l
3012.0,3994.0,4079.0,4095.0,4095.0,2329.0,2544.0,2175.0,-0.45,9.94,5.23,0.01,0.0,-0.16,0.0,l
3018.0,3996.0,4095.0,4095.0,4095.0,2323.0,2548.0,2174.0,-0.55,9.9,5.18,0.03,-0.02,-0.17,0.0,l
3008.0,3997.0,4095.0,4095.0,4095.0,2323.0,2544.0,2177.0,-0.54,9.7,5.2,0.03,-0.03,-0.17,0.0,l
3008.0,3982.0,4081.0,4095.0,4095.0,2323.0,2544.0,2179.0,-0.58,9.78,5.35,0.05,-0.03,-0.17,0.0,l
3006.0,4000.0,4087.0,4095.0,4095.0,2326.0,2542.0,2175.0,-0.48,9.79,5.08,0.02,0.01,-0.17,0.0,l
3013.0,3986.0,4086.0,4095.0,4095.0,2329.0,2545.0,2176.0,-0.85,9.82,5.18,0.07,-0.08,-0.2,0.0,l
3024.0,3993.0,4065.0,4095.0,4095.0,2323.0,2544.0,2177.0,-0.72,9.85,4.93,0.02,-0.05,-0.14,0.0,l
3009.0,3967.0,4082.0,4095.0,4095.0,2320.0,2545.0,2177.0,-0.75,9.86,5.06,0.02,-0.04,-0.13,0.0,l
3019.0,3998.0,4083.0,4095.0,4095.0,2333.0,2543.0,2175.0,-0.72,9.91,5.03,-0.0,-0.01,-0.16,0.0,l
3019.0,3986.0,4090.0,4095.0,4095.0,2323.0,2549.0,2181.0,-0.62,9.91,5.06,0.02,-0.03,-0.16,0.0,l
3016.0,3994.0,4080.0,4095.0,4095.0,2321.0,2544.0,2181.0,-0.59,9.66,5.31,0.05,-0.08,-0.15,0.0,l
3010.0,3980.0,4093.0,4095.0,4095.0,2323.0,2544.0,2178.0,-0.74,9.93,4.88,0.03,0.01,-0.17,0.0,l
3009.0,3983.0,4086.0,4095.0,4095.0,2321.0,2547.0,2176.0,-0.81,9.84,5.03,0.0,-0.0,-0.15,0.0,l
3014.0,3997.0,4068.0,4095.0,4095.0,2320.0,2546.0,2185.0,-0.65,9.76,5.08,0.02,-0.02,-0.13,0.0,l
3015.0,3991.0,4087.0,4095.0,4095.0,2320.0,2551.0,2181.0,-0.64,9.79,5.18,0.02,-0.02,-0.14,0.0,l
3024.0,3995.0,4089.0,4095.0,4095.0,2325.0,2551.0,2186.0,-0.75,9.94,4.81,0.02,0.04,-0.13,0.0,l
3011.0,3986.0,4065.0,4095.0,4095.0,2330.0,2544.0,2189.0,-0.69,9.92,4.91,-0.01,0.0,-0.14,0.0,l
3010.0,3997.0,4080.0,4095.0,4095.0,2330.0,2548.0,2182.0,-0.69,9.83,5.03,0.02,-0.03,-0.17,0.0,l
3013.0,4000.0,4079.0,4095.0,4095.0,2320.0,2546.0,2185.0,-0.73,9.82,5.18,0.03,-0.05,-0.16,0.0,l
2997.0,3971.0,4078.0,4095.0,4095.0,2320.0,2550.0,2183.0,-0.69,9.83,4.93,0.03,-0.01,-0.15,0.0,l
3011.0,3998.0,4049.0,4095.0,4095.0,2322.0,2559.0,2183.0,-0.66,9.78,5.15,0.0,-0.01,-0.15,0.0,l
3008.0,3995.0,4069.0,4095.0,4095.0,2331.0,2555.0,2189.0,-0.57,9.86,5.08,0.02,-0.03,-0.15,0.0,l
3022.0,4003.0,4069.0,4095.0,4095.0,2327.0,2547.0,2177.0,-0.64,9.88,5.04,0.01,-0.01,-0.14,0.0,l
3021.0,3983.0,4062.0,4095.0,4095.0,2320.0,2555.0,2190.0,-0.66,9.86,4.95,0.02,0.02,-0.15,0.0,l
2999.0,3984.0,4066.0,4095.0,4095.0,2322.0,2554.0,2189.0,-0.7,9.78,5.1,0.01,0.02,-0.13,0.0,l
3007.0,4000.0,4062.0,4095.0,4095.0,2327.0,2545.0,2191.0,-0.52,9.91,5.04,0.03,0.03,-0.15,0.0,l
3008.0,3984.0,4054.0,4095.0,4095.0,2327.0,2559.0,2192.0,-0.54,9.85,4.94,0.03,-0.02,-0.16,0.0,l
3002.0,3987.0,4059.0,4095.0,4095.0,2329.0,2555.0,2194.0,-0.55,9.81,4.98,0.01,-0.02,-0.14,0.0,l
3022.0,3991.0,4043.0,4095.0,4095.0,2332.0,2550.0,2187.0,-0.67,9.89,4.99,0.01,0.01,-0.17,0.0,l
3005.0,3970.0,4055.0,4095.0,4095.0,2331.0,2558.0,2187.0,-0.59,9.81,5.05,0.03,-0.02,-0.17,0.0,l
3017.0,3997.0,4071.0,4095.0,4095.0,2327.0,2554.0,2191.0,-0.62,9.82,4.9,0.01,0.0,-0.15,0.0,l
3009.0,3987.0,4075.0,4095.0,4095.0,2332.0,2551.0,2195.0,-0.64,9.89,4.95,0.03,-0.0,-0.16,0.0,l
3005.0,3975.0,4052.0,4095.0,4095.0,2329.0,2557.0,2192.0,-0.59,9.86,5.04,0.02,-0.05,-0.18,0.0,l
3015.0,3972.0,4076.0,4095.0,4095.0,2333.0,2556.0,2188.0,-0.68,9.81,4.88,0.02,-0.02,-0.16,0.0,l
3007.0,3993.0,4055.0,4095.0,4095.0,2335.0,2551.0,2192.0,-0.65,9.8,5.01,-0.01,0.0,-0.14,0.0,l
3007.0,3993.0,4078.0,4095.0,4095.0,2327.0,2559.0,2189.0,-0.65,9.84,5.06,0.01,-0.04,-0.13,0.0,l
3017.0,3996.0,4095.0,4095.0,4095.0,2322.0,2551.0,2182.0,-0.59,9.8,4.99,0.02,-0.01,-0.15,0.0,l
3008.0,3969.0,4079.0,4095.0,4095.0,2323.0,2555.0,2191.0,-0.71,9.87,5.0,0.0,-0.0,-0.13,0.0,l
3012.0,3971.0,4095.0,4095.0,4095.0,2327.0,2544.0,2176.0,-0.65,9.87,4.99,0.01,0.01,-0.15,0.0,l
3009.0,3970.0,4085.0,4095.0,4095.0,2325.0,2537.0,2164.0,-0.43,9.8,5.17,-0.0,-0.02,-0.15,0.0,l
3019.0,3973.0,4095.0,4095.0,4095.0,2320.0,2542.0,2167.0,-0.68,9.83,5.06,0.04,-0.01,-0.16,0.0,l
3008.0,4095.0,3490.0,4095.0,4095.0,2284.0,2551.0,2242.0,0.34,9.88,4.75,0.03,0.05,-0.15,0.0,l
3011.0,4095.0,3493.0,4095.0,4095.0,2289.0,2549.0,2238.0,0.33,9.97,4.5,0.05,0.07,-0.19,0.0,l
3008.0,4095.0,3500.0,4095.0,4095.0,2293.0,2547.0,2246.0,0.23,10.04,4.33,0.03,-0.06,-0.14,0.0,l
3014.0,4095.0,3499.0,4095.0,4095.0,2294.0,2553.0,2241.0,0.22,9.96,4.54,0.01,-0.0,-0.17,0.0,l
2986.0,4030.0,3451.0,4095.0,4095.0,2269.0,2533.0,2220.0,0.29,9.91,4.61,0.02,-0.03,-0.18,0.0,l
2982.0,4059.0,3461.0,4095.0,4095.0,2281.0,2541.0,2230.0,-0.01,9.77,4.6,-0.0,0.05,-0.17,0.0,l
2985.0,4076.0,3462.0,4095.0,4095.0,2275.0,2540.0,2230.0,0.03,9.97,4.53,-0.03,-0.03,-0.14,0.0,l
2994.0,4062.0,3471.0,4095.0,4095.0,2281.0,2543.0,2240.0,0.17,9.92,4.73,-0.01,-0.02,-0.18,0.0,l
2993.0,4059.0,3459.0,4095.0,4095.0,2279.0,2538.0,2229.0,-0.01,9.9,4.56,0.04,-0.01,-0.18,0.0,l
2992.0,4082.0,3466.0,4095.0,4095.0,2297.0,2545.0,2231.0,0.13,9.86,4.63,0.01,-0.01,-0.14,0.0,l
2992.0,4077.0,3467.0,4095.0,4095.0,2289.0,2547.0,2241.0,0.17,9.95,4.62,0.02,-0.02,-0.15,0.0,l
2993.0,4089.0,3472.0,4095.0,4095.0,2288.0,2551.0,2241.0,0.23,9.91,4.66,0.03,-0.03,-0.15,0.0,l
3003.0,4094.0,3460.0,4095.0,4095.0,2291.0,2546.0,2237.0,0.1,9.89,4.73,0.03,-0.01,-0.15,0.0,l
2994.0,4095.0,3467.0,4095.0,4095.0,2289.0,2553.0,2237.0,0.16,10.0,4.5,-0.0,-0.01,-0.15,0.0,l
2992.0,4095.0,3469.0,4095.0,4095.0,2289.0,2549.0,2234.0,0.19,9.89,4.68,0.03,-0.05,-0.14,0.0,l
3005.0,4095.0,3472.0,4095.0,4095.0,2288.0,2555.0,2246.0,0.08,9.88,4.63,0.02,0.01,-0.17,0.0,l
3013.0,4095.0,3472.0,4095.0,4095.0,2288.0,2559.0,2240.0,0.12,9.91,4.55,0.01,0.02,-0.15,0.0,l
3003.0,4095.0,3471.0,4095.0,4095.0,2289.0,2557.0,2242.0,0.08,9.93,4.54,0.02,0.0,-0.17,0.0,l
3005.0,4093.0,3469.0,4095.0,4095.0,2288.0,2559.0,2244.0,0.2,9.96,4.51,0.02,-0.01,-0.17,0.0,l
3007.0,4095.0,3473.0,4095.0,4095.0,2288.0,2551.0,2242.0,0.07,9.92,4.58,0.02,-0.02,-0.17,0.0,l
3015.0,4095.0,3473.0,4095.0,4095.0,2294.0,2558.0,2245.0,0.06,9.83,4.63,0.0,0.02,-0.17,0.0,l
3005.0,4095.0,3471.0,4095.0,4095.0,2289.0,2559.0,2239.0,0.2,9.99,4.53,0.03,0.01,-0.16,0.0,l
3004.0,4095.0,3473.0,4095.0,4095.0,2294.0,2559.0,2244.0,0.14,9.88,4.66,0.02,-0.0,-0.15,0.0,l
3002.0,4095.0,3469.0,4095.0,4095.0,2295.0,2559.0,2245.0,0.24,9.86,4.54,0.0,-0.02,-0.12,0.0,l
3003.0,4095.0,3468.0,4095.0,4095.0,2301.0,2559.0,2241.0,0.34,10.04,4.55,-0.03,-0.02,-0.13,0.0,l
2995.0,4095.0,3471.0,4095.0,4095.0,2294.0,2559.0,2243.0,0.19,9.96,4.72,-0.03,0.02,-0.14,0.0,l
3006.0,4095.0,3475.0,4095.0,4095.0,2287.0,2559.0,2245.0,0.23,9.91,4.66,0.02,0.03,-0.16,0.0,l
2993.0,4095.0,3467.0,4095.0,4095.0,2298.0,2559.0,2246.0,0.26,9.89,4.66,0.04,0.02,-0.15,0.0,l
2998.0,4095.0,3474.0,4095.0,4095.0,2290.0,2557.0,2250.0,0.19,10.0,4.58,0.04,0.01,-0.15,0.0,l
3008.0,4095.0,3471.0,4095.0,4095.0,2285.0,2559.0,2234.0,0.11,9.91,4.51,0.01,-0.06,-0.19,0.0,l
3014.0,4095.0,3469.0,4095.0,4095.0,2288.0,2559.0,2235.0,0.12,9.9,4.58,0.01,0.04,-0.12,0.0,l
3015.0,4095.0,3466.0,4095.0,4095.0,2292.0,2559.0,2229.0,0.28,9.91,4.65,0.02,-0.02,-0.12,0.0,l
3007.0,4095.0,3472.0,4095.0,4095.0,2288.0,2559.0,2242.0,0.23,9.89,4.45,0.0,0.01,-0.12,0.0,l
3006.0,4095.0,3467.0,4095.0,4095.0,2286.0,2559.0,2233.0,0.31,9.87,4.68,0.02,0.03,-0.14,0.0,l
3013.0,4095.0,3467.0,4095.0,4095.0,2289.0,2559.0,2242.0,0.3,9.95,4.43,0.03,-0.01,-0.16,0.0,l
3001.0,4095.0,3471.0,4095.0,4095.0,2290.0,2559.0,2240.0,0.1,9.89,4.7,0.0,-0.02,-0.15,0.0,l
3007.0,4095.0,3463.0,4095.0,4095.0,2288.0,2559.0,2243.0,0.3,9.9,4.49,0.02,-0.02,-0.14,0.0,l
3007.0,4095.0,3473.0,4095.0,4095.0,2295.0,2559.0,2235.0,0.36,9.97,4.92,-0.02,0.03,-0.15,0.0,l
3007.0,4095.0,3472.0,4095.0,4095.0,2298.0,2559.0,2241.0,0.35,9.85,4.62,0.03,-0.04,-0.17,0.0,l
3011.0,4095.0,3470.0,4095.0,4095.0,2297.0,2559.0,2247.0,0.28,9.9,4.78,0.03,0.02,-0.18,0.0,l
3005.0,4095.0,3474.0,4095.0,4095.0,2290.0,2559.0,2245.0,0.13,9.85,4.36,0.02,0.04,-0.17,0.0,l
3007.0,3235.0,1871.0,4095.0,4095.0,2305.0,2463.0,2019.0,0.79,9.83,5.4,0.0,-0.02,-0.18,0.0,l
3021.0,3251.0,1874.0,4095.0,4095.0,2311.0,2467.0,2021.0,0.77,9.78,5.49,0.04,-0.06,-0.17,0.0,l
3006.0,3248.0,1870.0,4095.0,4095.0,2310.0,2469.0,2022.0,0.63,9.78,5.31,-0.02,-0.03,-0.16,0.0,l
3011.0,3241.0,1877.0,4095.0,4095.0,2307.0,2463.0,2021.0,0.79,9.81,5.59,-0.0,0.01,-0.12,0.0,l
3019.0,3241.0,1871.0,4095.0,4095.0,2305.0,2471.0,2021.0,0.68,9.79,5.46,0.01,0.03,-0.12,0.0,l
3018.0,3253.0,1875.0,4095.0,4095.0,2311.0,2464.0,2023.0,0.92,9.91,5.34,0.01,-0.03,-0.14,0.0,l
3014.0,3248.0,1872.0,4095.0,4095.0,2311.0,2464.0,2026.0,0.84,9.83,5.44,-0.01,-0.01,-0.15,0.0,l
3009.0,3238.0,1872.0,4095.0,4095.0,2314.0,2466.0,2026.0,0.75,9.85,5.53,0.04,-0.04,-0.15,0.0,l
3027.0,3239.0,1874.0,4095.0,4095.0,2310.0,2469.0,2027.0,0.88,9.73,5.37,-0.0,-0.05,-0.15,0.0,l
3009.0,3241.0,1872.0,4095.0,4095.0,2315.0,2468.0,2029.0,0.74,9.81,5.38,0.01,0.03,-0.13,0.0,l
3019.0,3248.0,1869.0,4095.0,4095.0,2303.0,2471.0,2029.0,0.79,9.86,5.36,0.02,0.01,-0.14,0.0,l
3008.0,3250.0,1882.0,4095.0,4095.0,2317.0,2471.0,2029.0,0.86,9.79,5.47,0.02,0.02,-0.17,0.0,l
3015.0,3249.0,1882.0,4095.0,4095.0,2317.0,2465.0,2021.0,0.85,9.75,5.45,-0.01,0.03,-0.13,0.0,l
3018.0,3239.0,1872.0,4095.0,4095.0,2318.0,2471.0,2023.0,1.05,9.89,5.45,0.02,0.03,-0.1,0.0,l
3013.0,3253.0,1882.0,4095.0,4095.0,2320.0,2473.0,2028.0,0.95,9.87,5.3,0.02,-0.04,-0.18,0.0,l
3022.0,3254.0,1872.0,4095.0,4095.0,2317.0,2471.0,2029.0,1.07,9.79,5.5,0.02,-0.05,-0.14,0.0,l
3018.0,3245.0,1873.0,4095.0,4095.0,2319.0,2475.0,2027.0,0.84,9.89,5.36,0.03,-0.05,-0.15,0.0,l
3009.0,3243.0,1869.0,4095.0,4095.0,2321.0,2469.0,2026.0,0.92,9.84,5.47,0.03,-0.01,-0.17,0.0,l
3019.0,3247.0,1881.0,4095.0,4095.0,2319.0,2466.0,2026.0,0.99,9.77,5.4,0.03,0.01,-0.17,0.0,l
3006.0,3250.0,1872.0,4095.0,4095.0,2318.0,2471.0,2026.0,0.84,9.88,5.36,0.05,0.01,-0.16,0.0,l
3005.0,3247.0,1877.0,4095.0,4095.0,2316.0,2477.0,2026.0,0.86,9.84,5.27,0.03,0.03,-0.18,0.0,l
3008.0,3257.0,1874.0,4095.0,4095.0,2319.0,2470.0,2032.0,0.89,9.76,5.36,0.04,0.02,-0.15,0.0,l
3007.0,3250.0,1885.0,4095.0,4095.0,2319.0,2479.0,2034.0,0.91,9.8,5.4,0.01,-0.04,-0.15,0.0,l
3015.0,3258.0,1881.0,4095.0,4095.0,2319.0,2475.0,2033.0,0.87,9.83,5.21,0.03,-0.06,-0.16,0.0,l
3010.0,3243.0,1873.0,4095.0,4095.0,2320.0,2469.0,2032.0,1.02,9.82,5.29,-0.01,-0.0,-0.13,0.0,l
3014.0,3248.0,1874.0,4095.0,4095.0,2315.0,2469.0,2031.0,0.92,9.86,5.3,0.02,-0.07,-0.16,0.0,l
3005.0,3238.0,1883.0,4095.0,4095.0,2317.0,2478.0,2033.0,0.86,9.85,5.29,0.02,-0.03,-0.14,0.0,l
3011.0,3249.0,1872.0,4095.0,4095.0,2317.0,2479.0,2038.0,0.91,9.85,5.25,0.03,-0.02,-0.17,0.0,l
3002.0,3248.0,1872.0,4095.0,4095.0,2317.0,2477.0,2035.0,0.85,9.85,5.31,0.04,-0.05,-0.15,0.0,l
3018.0,3255.0,1874.0,4095.0,4095.0,2310.0,2479.0,2032.0,0.85,9.84,5.23,0.02,-0.05,-0.17,0.0,l
3019.0,3259.0,1882.0,4095.0,4095.0,2315.0,2475.0,2038.0,0.85,9.84,5.36,0.02,-0.06,-0.14,0.0,l
3012.0,3248.0,1874.0,4095.0,4095.0,2315.0,2475.0,2035.0,0.92,9.81,5.2,0.0,0.02,-0.15,0.0,l
3017.0,3243.0,1893.0,4095.0,4095.0,2320.0,2475.0,2038.0,0.87,9.86,5.27,-0.0,0.02,-0.14,0.0,l
3020.0,3242.0,1890.0,4095.0,4095.0,2311.0,2477.0,2035.0,1.1,9.8,5.38,-0.05,0.04,-0.14,0.0,l
3013.0,3248.0,1889.0,4095.0,4095.0,2318.0,2477.0,2037.0,1.0,9.78,5.49,0.01,-0.01,-0.15,0.0,l
3005.0,3248.0,1891.0,4095.0,4095.0,2311.0,2479.0,2037.0,0.98,9.89,5.33,0.03,-0.06,-0.16,0.0,l
3006.0,3245.0,1893.0,4095.0,4095.0,2320.0,2477.0,2043.0,1.02,9.83,5.28,0.0,-0.03,-0.15,0.0,l
3009.0,3248.0,1886.0,4095.0,4095.0,2310.0,2475.0,2039.0,0.85,9.88,5.26,0.01,0.04,-0.14,0.0,l
3019.0,3246.0,1875.0,4095.0,4095.0,2315.0,2478.0,2037.0,0.89,9.85,5.37,0.01,-0.05,-0.16,0.0,l
3003.0,3238.0,1872.0,4095.0,4095.0,2315.0,2474.0,2039.0,0.81,9.8,5.45,0.03,-0.02,-0.16,0.0,l
3009.0,3241.0,1873.0,4095.0,4095.0,2315.0,2475.0,2045.0,0.84,9.82,5.19,0.0,0.01,-0.14,0.0,l
3021.0,1156.0,3106.0,4095.0,4095.0,2323.0,2582.0,2204.0,0.69,9.85,4.82,0.02,0.01,-0.12,0.0,l
3009.0,1156.0,3115.0,4095.0,4095.0,2326.0,2582.0,2211.0,0.64,9.87,4.86,0.01,0.01,-0.14,0.0,l
3008.0,1152.0,3114.0,4095.0,4095.0,2326.0,2582.0,2215.0,0.64,9.96,4.92,0.0,-0.0,-0.14,0.0,l
3010.0,1164.0,3102.0,4095.0,4095.0,2325.0,2583.0,2215.0,0.59,9.93,4.86,0.02,-0.06,-0.16,0.0,l
3011.0,1167.0,3113.0,4095.0,4095.0,2330.0,2581.0,2217.0,0.62,9.93,4.87,0.01,-0.05,-0.15,0.0,l
3009.0,1152.0,3107.0,4095.0,4095.0,2325.0,2587.0,2217.0,0.74,9.9,4.81,0.0,-0.03,-0.14,0.0,l
3010.0,1149.0,3113.0,4095.0,4095.0,2325.0,2583.0,2217.0,0.64,9.84,5.01,0.0,-0.01,-0.14,0.0,l
3014.0,1165.0,3107.0,4095.0,4095.0,2327.0,2582.0,2213.0,0.58,9.92,4.85,0.02,0.01,-0.16,0.0,l
3009.0,1162.0,3103.0,4095.0,4095.0,2326.0,2585.0,2215.0,0.54,9.84,4.89,-0.01,0.02,-0.12,0.0,l
3011.0,1155.0,3119.0,4095.0,4095.0,2327.0,2587.0,2218.0,0.81,9.99,4.8,-0.01,0.02,-0.14,0.0,l
3002.0,1157.0,3114.0,4095.0,4095.0,2325.0,2583.0,2217.0,0.77,10.01,4.94,-0.01,-0.03,-0.18,0.0,l
3014.0,1153.0,3109.0,4095.0,4095.0,2334.0,2583.0,2219.0,0.66,9.77,5.01,0.01,-0.03,-0.2,0.0,l
3006.0,1168.0,3098.0,4095.0,4095.0,2327.0,2590.0,2224.0,0.72,9.81,5.04,0.08,-0.06,-0.18,0.0,l
3015.0,1152.0,3106.0,4095.0,4095.0,2331.0,2592.0,2225.0,0.13,10.03,4.61,0.05,-0.02,-0.17,0.0,l
2999.0,1153.0,3120.0,4095.0,4095.0,2332.0,2598.0,2222.0,0.54,9.85,4.86,-0.02,0.03,-0.14,0.0,l
3015.0,1150.0,3115.0,4095.0,4095.0,2335.0,2595.0,2224.0,0.59,9.9,5.02,-0.01,-0.01,-0.13,0.0,l
3005.0,1159.0,3118.0,4095.0,4095.0,2332.0,2591.0,2224.0,0.63,9.8,4.96,0.03,-0.0,-0.17,0.0,l
3009.0,1170.0,3102.0,4095.0,4095.0,2334.0,2595.0,2223.0,0.6,9.93,5.01,0.02,-0.02,-0.17,0.0,l
3023.0,1174.0,3102.0,4095.0,4095.0,2333.0,2594.0,2224.0,0.69,9.9,4.92,0.05,0.01,-0.16,0.0,l
3005.0,1168.0,3109.0,4095.0,4095.0,2337.0,2597.0,2224.0,0.51,9.88,4.81,0.04,0.0,-0.15,0.0,l
3004.0,1178.0,3116.0,4095.0,4095.0,2335.0,2591.0,2225.0,0.56,9.88,4.83,0.0,0.04,-0.14,0.0,l
3006.0,1174.0,3119.0,4095.0,4095.0,2333.0,2597.0,2226.0,0.59,9.91,4.81,0.01,0.03,-0.14,0.0,l
3021.0,1174.0,3113.0,4095.0,4095.0,2330.0,2598.0,2228.0,0.55,9.9,4.85,0.01,0.0,-0.14,0.0,l
3009.0,1175.0,3105.0,4095.0,4095.0,2334.0,2602.0,2227.0,0.55,9.88,4.8,-0.01,0.0,-0.14,0.0,l
3007.0,1166.0,3105.0,4095.0,4095.0,2337.0,2602.0,2233.0,0.63,9.84,4.98,0.02,0.03,-0.13,0.0,l
3021.0,1165.0,3110.0,4095.0,4095.0,2338.0,2599.0,2226.0,0.7,9.91,4.92,0.0,0.01,-0.16,0.0,l
3008.0,1166.0,3113.0,4095.0,4095.0,2341.0,2603.0,2225.0,0.92,9.82,5.01,0.02,-0.06,-0.15,0.0,l
3004.0,1162.0,3115.0,4095.0,4095.0,2337.0,2595.0,2230.0,0.7,9.84,4.89,-0.0,-0.01,-0.16,0.0,l
3024.0,1163.0,3111.0,4095.0,4095.0,2338.0,2603.0,2232.0,0.72,9.85,4.9,0.01,-0.01,-0.14,0.0,l
3016.0,1173.0,3102.0,4095.0,4095.0,2336.0,2599.0,2229.0,0.64,9.9,4.98,0.02,-0.01,-0.17,0.0,l
3006.0,1171.0,3106.0,4095.0,4095.0,2335.0,2595.0,2225.0,0.64,9.89,4.81,-0.0,-0.01,-0.14,0.0,l
3005.0,1162.0,3113.0,4095.0,4095.0,2339.0,2599.0,2225.0,0.69,9.96,4.93,0.01,-0.02,-0.13,0.0,l
3007.0,1168.0,3117.0,4095.0,4095.0,2337.0,2601.0,2235.0,0.66,9.94,4.77,0.03,-0.04,-0.18,0.0,l
3006.0,1169.0,3114.0,4095.0,4095.0,2338.0,2597.0,2231.0,0.55,9.89,4.87,0.01,0.02,-0.15,0.0,l
3014.0,1158.0,3102.0,4095.0,4095.0,2336.0,2598.0,2240.0,0.64,9.87,4.91,0.0,-0.02,-0.15,0.0,l
3004.0,1168.0,3099.0,4095.0,4095.0,2337.0,2596.0,2238.0,0.68,9.94,4.85,0.02,-0.03,-0.14,0.0,l
3006.0,1177.0,3098.0,4095.0,4095.0,2342.0,2599.0,2234.0,0.53,9.9,4.82,0.02,0.0,-0.16,0.0,l
3010.0,1172.0,3110.0,4095.0,4095.0,2339.0,2598.0,2238.0,0.63,9.9,4.93,0.02,-0.01,-0.14,0.0,l
3008.0,1176.0,3113.0,4095.0,4095.0,2348.0,2602.0,2237.0,0.6,9.94,4.91,0.01,-0.01,-0.16,0.0,l
3008.0,1169.0,3110.0,4095.0,4095.0,2335.0,2599.0,2240.0,0.56,9.99,4.87,0.01,0.0,-0.18,0.0,l
3008.0,1165.0,3105.0,4095.0,4095.0,2337.0,2606.0,2244.0,0.68,9.92,4.85,-0.01,-0.05,-0.17,0.0,l
