hall_1,hall_2,hall_3,flex_t,flex_i,flex_m,flex_r,flex_p,accel_x,accel_y,accel_z,gyro_x,gyro_y,gyro_z,hand,sign
2905.0,2983.0,3001.0,4095.0,4095.0,2993.0,3184.0,3499.0,-1.11,9.65,2.82,-0.03,0.08,-0.0,1.0,l
2910.0,2975.0,3003.0,4095.0,4095.0,3003.0,3185.0,3499.0,-0.94,9.61,2.92,-0.05,-0.05,-0.05,1.0,l
2907.0,2974.0,2996.0,4095.0,4095.0,2994.0,3182.0,3504.0,-0.97,9.6,2.88,-0.07,0.03,-0.02,1.0,l
2911.0,2974.0,3002.0,4095.0,4095.0,3001.0,3197.0,3504.0,-1.17,9.47,2.94,-0.06,-0.06,-0.07,1.0,l
2921.0,2975.0,3002.0,4095.0,4095.0,2999.0,3189.0,3499.0,-1.24,9.55,3.09,-0.05,0.03,-0.04,1.0,l
2909.0,2970.0,3002.0,4095.0,4095.0,2998.0,3184.0,3503.0,-1.07,9.58,2.95,-0.03,-0.03,-0.05,1.0,l
2917.0,2971.0,2997.0,4095.0,4095.0,2992.0,3184.0,3498.0,-0.9,9.54,2.94,-0.01,0.01,-0.02,1.0,l
2921.0,2971.0,3006.0,4095.0,4095.0,3001.0,3187.0,3502.0,-1.02,9.63,2.85,-0.01,-0.03,-0.07,1.0,l
2921.0,2978.0,2997.0,4095.0,4095.0,3005.0,3193.0,3506.0,-1.12,9.6,3.01,0.02,-0.01,-0.04,1.0,l
2903.0,2981.0,3002.0,4095.0,4095.0,2995.0,3184.0,3508.0,-1.28,9.32,2.92,0.14,0.06,-0.04,1.0,l
2907.0,2963.0,2999.0,4095.0,4095.0,2994.0,3175.0,3504.0,-1.21,10.01,2.41,0.0,-0.01,0.0,1.0,l
2915.0,2981.0,3007.0,4095.0,4095.0,2996.0,3182.0,3507.0,-1.09,9.63,2.64,0.07,0.05,0.04,1.0,l
2914.0,2978.0,3010.0,4095.0,4095.0,3003.0,3180.0,3499.0,-1.39,9.63,2.69,-0.13,0.04,0.04,1.0,l
2916.0,2970.0,3001.0,4095.0,4095.0,2999.0,3181.0,3503.0,-0.96,9.73,2.67,-0.08,-0.02,0.0,1.0,l
2911.0,2977.0,2999.0,4095.0,4095.0,3001.0,3183.0,3509.0,-0.75,9.62,2.75,-0.09,-0.04,0.02,1.0,l
2919.0,2970.0,3002.0,4095.0,4095.0,3005.0,3184.0,3501.0,-0.41,9.85,2.57,-0.06,0.02,-0.03,1.0,l
2918.0,2982.0,3007.0,4095.0,4095.0,3005.0,3184.0,3505.0,-0.9,9.59,2.64,-0.11,-0.05,-0.12,1.0,l
2911.0,2972.0,3011.0,4095.0,4095.0,3005.0,3185.0,3506.0,-1.05,9.6,2.76,-0.07,-0.01,-0.12,1.0,l
2910.0,2971.0,3001.0,4095.0,4095.0,3007.0,3186.0,3503.0,-1.35,9.58,2.7,-0.08,-0.03,-0.07,1.0,l
2906.0,2971.0,3004.0,4095.0,4095.0,3005.0,3185.0,3510.0,-1.13,9.6,2.66,-0.09,-0.05,-0.02,1.0,l
2923.0,2964.0,2997.0,4095.0,4095.0,3041.0,3197.0,3519.0,-3.63,9.3,0.64,-0.07,0.01,-0.15,1.0,l
2913.0,2979.0,2994.0,4095.0,4095.0,3047.0,3194.0,3516.0,-3.59,9.35,0.46,0.02,-0.01,-0.09,1.0,l
2901.0,2959.0,2993.0,4095.0,4095.0,3050.0,3197.0,3518.0,-3.35,9.35,0.2,-0.01,0.02,-0.06,1.0,l
2909.0,2975.0,2998.0,4095.0,4095.0,3053.0,3200.0,3531.0,-3.31,9.4,0.01,-0.05,0.1,-0.03,1.0,l
2907.0,2967.0,2990.0,4095.0,4095.0,3043.0,3191.0,3518.0,-3.21,9.39,0.04,-0.05,-0.01,-0.05,1.0,l
2906.0,2986.0,2999.0,4095.0,4095.0,3047.0,3198.0,3519.0,-3.23,9.42,0.1,-0.09,-0.04,-0.04,1.0,l
2910.0,2966.0,2987.0,4095.0,4095.0,3047.0,3198.0,3520.0,-3.28,9.33,0.29,-0.07,0.02,-0.03,1.0,l
2926.0,2971.0,3001.0,4095.0,4095.0,3055.0,3198.0,3517.0,-3.4,9.36,0.27,-0.08,0.02,0.01,1.0,l
2915.0,2973.0,2999.0,4095.0,4095.0,3055.0,3201.0,3517.0,-3.18,9.43,0.27,-0.07,0.02,-0.06,1.0,l
2915.0,2970.0,3003.0,4095.0,4095.0,3046.0,3198.0,3522.0,-3.19,9.33,0.31,-0.06,-0.05,-0.05,1.0,l
2914.0,2975.0,2994.0,4095.0,4095.0,3054.0,3198.0,3523.0,-3.27,9.37,0.28,-0.07,-0.02,-0.06,1.0,l
2923.0,2987.0,3006.0,4095.0,4095.0,3056.0,3200.0,3521.0,-3.39,9.32,0.3,-0.06,0.01,-0.06,1.0,l
2912.0,2975.0,3006.0,4095.0,4095.0,3056.0,3200.0,3522.0,-3.37,9.35,0.26,-0.05,-0.03,-0.05,1.0,l
2919.0,2961.0,2999.0,4095.0,4095.0,3055.0,3204.0,3519.0,-3.35,9.4,0.28,-0.08,0.01,-0.03,1.0,l
2919.0,2973.0,2998.0,4095.0,4095.0,3056.0,3200.0,3523.0,-3.4,9.3,0.32,-0.06,-0.04,-0.04,1.0,l
2918.0,2975.0,2994.0,4095.0,4095.0,3053.0,3200.0,3523.0,-3.41,9.29,0.43,-0.04,-0.02,-0.04,1.0,l
2918.0,2974.0,2994.0,4095.0,4095.0,3050.0,3195.0,3517.0,-3.35,9.41,0.35,-0.06,0.05,-0.04,1.0,l
2909.0,2978.0,2994.0,4095.0,4095.0,3051.0,3191.0,3515.0,-3.35,9.22,0.4,-0.07,0.08,-0.04,1.0,l
2915.0,2977.0,3003.0,4095.0,4095.0,3056.0,3201.0,3512.0,-3.33,9.4,0.25,-0.04,-0.03,-0.05,1.0,l
2911.0,2971.0,3007.0,4095.0,4095.0,3056.0,3202.0,3525.0,-3.25,9.3,0.17,-0.02,-0.01,-0.08,1.0,l
2912.0,2979.0,3007.0,4095.0,4095.0,3010.0,3206.0,3525.0,1.06,9.13,4.36,-0.06,0.1,-0.01,1.0,l
2915.0,2975.0,2995.0,4095.0,4095.0,3011.0,3212.0,3523.0,1.26,9.22,4.35,-0.02,-0.01,-0.01,1.0,l
2905.0,2977.0,3008.0,4095.0,4095.0,3013.0,3203.0,3511.0,1.12,9.17,4.24,-0.06,-0.02,-0.05,1.0,l
2903.0,2970.0,2992.0,4095.0,4095.0,3015.0,3207.0,3527.0,1.07,9.19,4.25,-0.08,0.02,-0.07,1.0,l
2907.0,2972.0,3007.0,4095.0,4095.0,3018.0,3207.0,3526.0,0.84,9.08,4.38,-0.09,-0.05,-0.07,1.0,l
2899.0,2974.0,2999.0,4095.0,4095.0,3019.0,3211.0,3522.0,1.05,9.16,4.44,-0.1,0.04,-0.02,1.0,l
2910.0,2980.0,2997.0,4095.0,4095.0,3021.0,3204.0,3520.0,1.17,9.19,4.39,-0.02,0.03,-0.02,1.0,l
2913.0,2979.0,2996.0,4095.0,4095.0,3023.0,3208.0,3521.0,1.22,9.41,4.1,-0.12,-0.06,-0.03,1.0,l
2901.0,2967.0,2999.0,4095.0,4095.0,3017.0,3201.0,3513.0,0.84,9.0,4.38,-0.16,-0.1,-0.1,1.0,l
2901.0,2974.0,2999.0,4095.0,4095.0,3024.0,3209.0,3521.0,1.01,9.17,4.76,-0.02,-0.16,-0.15,1.0,l
2915.0,2962.0,3003.0,4095.0,4095.0,3006.0,3203.0,3514.0,0.76,9.14,4.35,-0.06,0.09,-0.04,1.0,l
2900.0,2973.0,2992.0,4095.0,4095.0,3027.0,3214.0,3517.0,1.18,8.86,4.58,-0.06,0.15,-0.16,1.0,l
2911.0,2965.0,2993.0,4095.0,4095.0,3120.0,3277.0,3558.0,0.85,9.45,4.22,-0.36,0.27,-0.42,1.0,l
2912.0,2961.0,2995.0,4095.0,4095.0,3327.0,3573.0,3851.0,0.22,8.91,4.58,-0.59,-0.36,-0.56,1.0,l
2917.0,2999.0,2998.0,4095.0,4095.0,3956.0,4095.0,4095.0,0.11,9.2,4.54,-0.5,0.13,-0.32,1.0,l
2918.0,3066.0,3002.0,4095.0,4095.0,4095.0,4095.0,4095.0,-0.04,8.71,4.74,-0.56,-0.11,-0.04,1.0,l
2927.0,3134.0,3023.0,4095.0,4095.0,3803.0,3949.0,4095.0,0.47,8.47,5.67,-0.2,-0.24,-0.13,1.0,l
2910.0,3052.0,3023.0,4095.0,4095.0,2960.0,3097.0,3665.0,-0.81,7.13,7.2,0.67,0.11,0.44,1.0,l
2899.0,3021.0,3019.0,4095.0,4095.0,2928.0,3025.0,3371.0,2.17,10.4,1.96,1.66,-0.11,0.44,1.0,l
2917.0,3033.0,3029.0,4095.0,4095.0,2978.0,3054.0,3363.0,0.84,9.07,3.74,-0.34,0.13,0.04,1.0,l
2926.0,3026.0,3024.0,4095.0,4095.0,2885.0,3094.0,3581.0,-0.7,9.01,4.5,-0.16,0.32,0.05,1.0,l
2915.0,3015.0,3027.0,4095.0,4095.0,2887.0,3093.0,3573.0,-0.78,8.93,4.74,-0.1,-0.02,0.0,1.0,l
2917.0,3025.0,3021.0,4095.0,4095.0,2886.0,3092.0,3577.0,-0.5,8.93,4.87,-0.1,-0.03,-0.01,1.0,l
2913.0,3018.0,3027.0,4095.0,4095.0,2892.0,3098.0,3583.0,-0.59,8.93,4.86,-0.12,0.02,-0.03,1.0,l
2911.0,3011.0,3025.0,4095.0,4095.0,2891.0,3099.0,3583.0,-0.53,8.84,4.85,-0.08,0.06,-0.04,1.0,l
2903.0,3015.0,3023.0,4095.0,4095.0,2898.0,3110.0,3605.0,-0.69,8.99,4.7,-0.08,0.06,-0.05,1.0,l
2918.0,3026.0,3022.0,4095.0,4095.0,2899.0,3107.0,3600.0,-0.72,8.94,4.59,-0.07,0.03,-0.06,1.0,l
2913.0,3029.0,3028.0,4095.0,4095.0,2903.0,3114.0,3605.0,-0.79,8.94,4.69,-0.11,0.06,-0.03,1.0,l
2914.0,3019.0,3031.0,4095.0,4095.0,2905.0,3114.0,3613.0,-0.6,8.89,4.83,-0.05,0.01,-0.03,1.0,l
2908.0,3017.0,3024.0,4095.0,4095.0,2905.0,3119.0,3617.0,-0.68,9.0,4.73,-0.03,0.06,-0.01,1.0,l
2910.0,3018.0,3024.0,4095.0,4095.0,2911.0,3118.0,3600.0,-0.76,8.97,4.4,-0.0,0.04,-0.01,1.0,l
2903.0,3015.0,3028.0,4095.0,4095.0,2906.0,3115.0,3611.0,-1.07,8.91,4.56,-0.1,0.09,0.0,1.0,l
2907.0,3023.0,3019.0,4095.0,4095.0,2906.0,3105.0,3597.0,-0.88,8.84,5.02,-0.06,0.02,0.06,1.0,l
2910.0,3011.0,3023.0,4095.0,4095.0,2884.0,3091.0,3571.0,-0.72,8.81,5.07,-0.02,-0.0,0.05,1.0,l
2910.0,3022.0,3027.0,4095.0,4095.0,2878.0,3087.0,3559.0,-0.44,8.9,4.89,0.07,-0.01,0.02,1.0,l
2897.0,3009.0,3031.0,4095.0,4095.0,2866.0,3071.0,3532.0,-0.52,8.96,4.66,0.03,-0.03,0.02,1.0,l
2913.0,3007.0,3027.0,4095.0,4095.0,2864.0,3056.0,3492.0,-0.59,8.81,5.15,0.46,-0.03,0.08,1.0,l
2914.0,3010.0,3034.0,4095.0,4095.0,2864.0,3030.0,3444.0,-0.64,9.04,4.07,0.39,0.06,0.12,1.0,l
2919.0,3013.0,3030.0,4095.0,4095.0,2864.0,3029.0,3421.0,-0.26,9.61,3.77,0.25,0.05,0.01,1.0,l
2909.0,3010.0,3035.0,4095.0,4095.0,2863.0,3025.0,3426.0,-0.36,9.33,3.65,-0.01,-0.01,-0.02,1.0,l
2909.0,3014.0,3035.0,4095.0,4095.0,2927.0,3071.0,3518.0,-3.52,5.17,7.53,-0.1,-0.02,-0.04,1.0,l
2915.0,3009.0,3031.0,4095.0,4095.0,2927.0,3081.0,3531.0,-3.6,5.1,7.75,-0.13,-0.01,-0.08,1.0,l
2914.0,3011.0,3037.0,4095.0,4095.0,2924.0,3071.0,3521.0,-3.89,4.98,7.98,-0.14,0.01,-0.06,1.0,l
2911.0,3014.0,3029.0,4095.0,4095.0,2927.0,3071.0,3527.0,-4.01,4.99,8.05,-0.09,-0.0,-0.07,1.0,l
2921.0,3019.0,3033.0,4095.0,4095.0,2925.0,3071.0,3524.0,-4.02,4.87,8.09,-0.09,0.0,-0.0,1.0,l
2917.0,3009.0,3025.0,4095.0,4095.0,2923.0,3081.0,3526.0,-3.91,4.91,8.02,-0.03,-0.05,0.01,1.0,l
2907.0,3005.0,3024.0,4095.0,4095.0,2922.0,3087.0,3537.0,-3.68,5.02,7.79,-0.01,-0.02,0.03,1.0,l
2917.0,3013.0,3034.0,4095.0,4095.0,2928.0,3088.0,3531.0,-3.46,5.08,7.71,-0.02,-0.02,-0.03,1.0,l
2906.0,3008.0,3024.0,4095.0,4095.0,2927.0,3085.0,3536.0,-3.45,5.17,7.64,-0.06,-0.01,-0.04,1.0,l
2914.0,3017.0,3027.0,4095.0,4095.0,2927.0,3086.0,3531.0,-3.67,4.9,7.75,-0.12,-0.01,-0.1,1.0,l
2901.0,3015.0,3030.0,4095.0,4095.0,2928.0,3086.0,3536.0,-3.91,4.92,7.94,-0.13,0.0,-0.07,1.0,l
2924.0,3019.0,3027.0,4095.0,4095.0,2926.0,3071.0,3527.0,-3.95,4.88,8.04,-0.07,0.0,-0.04,1.0,l
2919.0,3012.0,3033.0,4095.0,4095.0,2929.0,3087.0,3534.0,-3.67,4.87,7.9,-0.01,0.12,0.05,1.0,l
2906.0,3024.0,3027.0,4095.0,4095.0,2928.0,3088.0,3539.0,-3.54,5.09,7.67,-0.08,0.02,-0.05,1.0,l
2919.0,3014.0,3035.0,4095.0,4095.0,2928.0,3088.0,3536.0,-3.66,4.86,7.92,-0.11,-0.02,-0.09,1.0,l
2921.0,3022.0,3024.0,4095.0,4095.0,2928.0,3083.0,3534.0,-4.0,4.78,8.05,-0.14,0.02,-0.09,1.0,l
2907.0,3010.0,3020.0,4095.0,4095.0,2928.0,3088.0,3538.0,-4.05,4.75,8.13,-0.06,-0.02,-0.05,1.0,l
2908.0,3017.0,3027.0,4095.0,4095.0,2934.0,3090.0,3542.0,-3.87,4.88,7.95,-0.02,0.01,-0.01,1.0,l
2910.0,3017.0,3031.0,4095.0,4095.0,2930.0,3088.0,3541.0,-3.77,4.95,7.81,-0.03,-0.01,-0.02,1.0,l
2907.0,3020.0,3028.0,4095.0,4095.0,2928.0,3088.0,3538.0,-3.67,5.05,7.75,0.02,-0.0,-0.0,1.0,l
2914.0,3019.0,3034.0,4095.0,4095.0,2942.0,3091.0,3551.0,-1.53,9.81,2.04,-0.06,-0.07,-0.11,1.0,l
2915.0,3014.0,3030.0,4095.0,4095.0,2938.0,3088.0,3538.0,-1.71,9.78,2.1,-0.16,-0.07,-0.08,1.0,l
2915.0,3013.0,3030.0,4095.0,4095.0,2941.0,3088.0,3543.0,-1.59,9.45,2.66,-0.17,-0.05,-0.01,1.0,l
2913.0,3011.0,3028.0,4095.0,4095.0,2943.0,3094.0,3550.0,-1.52,9.5,3.06,-0.12,0.0,0.0,1.0,l
2918.0,3008.0,3036.0,4095.0,4095.0,2943.0,3090.0,3539.0,-1.2,9.57,2.82,-0.12,0.08,0.07,1.0,l
2919.0,3010.0,3024.0,4095.0,4095.0,2940.0,3093.0,3543.0,-1.03,9.54,2.87,-0.09,-0.02,0.01,1.0,l
2913.0,3015.0,3026.0,4095.0,4095.0,2944.0,3095.0,3550.0,-0.94,9.68,2.73,-0.1,0.05,-0.03,1.0,l
2913.0,3011.0,3035.0,4095.0,4095.0,2947.0,3095.0,3547.0,-1.21,9.53,3.0,-0.07,-0.02,-0.07,1.0,l
2915.0,3018.0,3037.0,4095.0,4095.0,2945.0,3097.0,3547.0,-1.43,9.56,2.97,-0.05,0.02,-0.04,1.0,l
2917.0,3010.0,3030.0,4095.0,4095.0,2941.0,3094.0,3546.0,-1.29,9.64,2.81,-0.03,-0.02,-0.01,1.0,l
2907.0,3014.0,3029.0,4095.0,4095.0,2945.0,3096.0,3543.0,-1.2,9.68,2.64,-0.1,0.02,0.0,1.0,l
2923.0,3006.0,3025.0,4095.0,4095.0,2945.0,3100.0,3548.0,-1.05,9.65,2.7,-0.09,-0.0,-0.02,1.0,l
2921.0,3009.0,3030.0,4095.0,4095.0,2943.0,3089.0,3543.0,-1.19,9.62,2.95,-0.1,-0.02,-0.05,1.0,l
2910.0,3009.0,3025.0,4095.0,4095.0,2945.0,3090.0,3543.0,-1.3,9.53,3.04,-0.09,-0.03,-0.02,1.0,l
2909.0,3007.0,3024.0,4095.0,4095.0,2944.0,3095.0,3548.0,-1.04,9.54,3.11,-0.02,-0.03,-0.03,1.0,l
2910.0,3008.0,3030.0,4095.0,4095.0,2949.0,3099.0,3551.0,-1.48,9.56,2.68,-0.05,0.03,-0.0,1.0,l
2910.0,3017.0,3035.0,4095.0,4095.0,2949.0,3095.0,3549.0,-1.44,9.61,2.69,-0.09,-0.03,0.03,1.0,l
2896.0,3009.0,3024.0,4095.0,4095.0,2944.0,3097.0,3547.0,-1.33,9.55,2.94,-0.13,-0.01,0.08,1.0,l
2908.0,3034.0,3038.0,4095.0,4095.0,2944.0,3097.0,3542.0,-1.02,9.58,2.78,-0.11,0.04,0.1,1.0,l
2919.0,3003.0,3025.0,4095.0,4095.0,2943.0,3094.0,3541.0,-1.05,9.57,2.76,-0.14,0.07,0.12,1.0,l
2913.0,2999.0,3034.0,4095.0,4095.0,2992.0,3088.0,3509.0,-0.4,7.67,6.74,-0.03,-0.04,-0.06,1.0,l
2913.0,2999.0,3034.0,4095.0,4095.0,2992.0,3088.0,3509.0,-0.4,7.67,6.74,-0.03,-0.04,-0.06,1.0,l
2914.0,3002.0,3025.0,4095.0,4095.0,2993.0,3088.0,3508.0,-0.42,7.85,6.67,-0.14,0.06,-0.03,1.0,l
2925.0,3003.0,3037.0,4095.0,4095.0,2993.0,3088.0,3504.0,-0.4,7.7,6.61,-0.06,-0.08,-0.02,1.0,l
2908.0,3001.0,3024.0,4095.0,4095.0,2992.0,3088.0,3508.0,-0.28,7.89,6.62,-0.01,0.04,-0.03,1.0,l
2914.0,3005.0,3030.0,4095.0,4095.0,2991.0,3088.0,3503.0,-0.27,7.87,6.46,-0.04,-0.04,-0.04,1.0,l
2911.0,3007.0,3030.0,4095.0,4095.0,2992.0,3088.0,3508.0,-0.19,7.92,6.33,-0.01,0.03,-0.03,1.0,l
2913.0,2998.0,3030.0,4095.0,4095.0,2995.0,3089.0,3511.0,-0.23,7.91,6.3,-0.08,-0.02,-0.03,1.0,l
2906.0,2994.0,3024.0,4095.0,4095.0,2991.0,3089.0,3516.0,-0.23,7.95,6.38,-0.06,0.03,-0.05,1.0,l
2909.0,2996.0,3028.0,4095.0,4095.0,2993.0,3088.0,3506.0,-0.26,7.84,6.44,-0.06,0.02,-0.01,1.0,l
2919.0,2995.0,3027.0,4095.0,4095.0,2995.0,3088.0,3511.0,-0.32,7.86,6.51,-0.15,-0.02,-0.06,1.0,l
2912.0,3005.0,3037.0,4095.0,4095.0,3002.0,3093.0,3514.0,-0.19,7.86,6.64,-0.05,0.01,-0.02,1.0,l
2919.0,2999.0,3030.0,4095.0,4095.0,3000.0,3091.0,3519.0,-0.34,7.82,6.56,-0.1,-0.02,-0.06,1.0,l
2913.0,2996.0,3025.0,4095.0,4095.0,2999.0,3089.0,3515.0,-0.2,7.84,6.54,0.01,0.04,-0.04,1.0,l
2903.0,3006.0,3030.0,4095.0,4095.0,2999.0,3088.0,3517.0,-0.34,7.76,6.5,-0.05,-0.03,-0.06,1.0,l
2914.0,3006.0,3039.0,4095.0,4095.0,2997.0,3090.0,3520.0,-0.15,7.67,6.63,0.27,0.07,-0.05,1.0,l
2922.0,3010.0,3026.0,4095.0,4095.0,2997.0,3088.0,3523.0,-0.52,8.21,5.96,-0.16,0.03,-0.04,1.0,l
2912.0,2999.0,3034.0,4095.0,4095.0,3003.0,3097.0,3509.0,-0.16,7.86,6.16,-0.09,-0.12,-0.08,1.0,l
2912.0,2997.0,3022.0,4095.0,4095.0,2998.0,3088.0,3516.0,-0.29,7.97,6.43,-0.1,-0.0,-0.06,1.0,l
2913.0,3002.0,3031.0,4095.0,4095.0,3002.0,3095.0,3524.0,-0.36,7.86,6.38,-0.12,-0.01,-0.05,1.0,l
2911.0,3013.0,3024.0,4095.0,4095.0,3029.0,3119.0,3582.0,-5.5,6.53,4.84,-0.09,0.02,-0.03,1.0,l
2927.0,3014.0,3037.0,4095.0,4095.0,3026.0,3113.0,3579.0,-5.68,6.51,4.8,-0.07,-0.01,-0.04,1.0,l
2917.0,3003.0,3031.0,4095.0,4095.0,3025.0,3115.0,3571.0,-5.82,6.5,4.77,-0.06,0.01,-0.03,1.0,l
2919.0,3008.0,3027.0,4095.0,4095.0,3024.0,3114.0,3571.0,-5.94,6.5,4.77,-0.06,-0.02,-0.03,1.0,l
2917.0,3010.0,3024.0,4095.0,4095.0,3029.0,3118.0,3583.0,-5.9,6.41,4.69,-0.01,0.01,-0.02,1.0,l
2919.0,3009.0,3027.0,4095.0,4095.0,3025.0,3110.0,3577.0,-5.93,6.41,4.56,-0.08,0.0,-0.05,1.0,l
2906.0,3002.0,3025.0,4095.0,4095.0,3031.0,3115.0,3570.0,-5.77,6.52,4.7,-0.08,-0.01,-0.02,1.0,l
2909.0,3021.0,3041.0,4095.0,4095.0,3029.0,3118.0,3577.0,-5.87,6.5,4.81,-0.03,-0.03,-0.0,1.0,l
2913.0,3003.0,3026.0,4095.0,4095.0,3028.0,3115.0,3579.0,-5.72,6.49,4.78,-0.11,-0.02,0.0,1.0,l
2917.0,3001.0,3029.0,4095.0,4095.0,3035.0,3110.0,3582.0,-5.7,6.51,4.7,-0.08,-0.02,0.0,1.0,l
2903.0,2995.0,3025.0,4095.0,4095.0,3029.0,3120.0,3583.0,-5.62,6.58,4.62,-0.08,-0.01,-0.01,1.0,l
2915.0,2998.0,3024.0,4095.0,4095.0,3033.0,3119.0,3580.0,-5.58,6.56,4.73,-0.1,-0.02,-0.03,1.0,l
2903.0,3001.0,3031.0,4095.0,4095.0,3026.0,3111.0,3577.0,-5.6,6.56,4.77,-0.11,-0.04,-0.02,1.0,l
2910.0,3003.0,3033.0,4095.0,4095.0,3030.0,3120.0,3583.0,-5.6,6.5,4.84,-0.09,0.01,-0.03,1.0,l
2902.0,3008.0,3024.0,4095.0,4095.0,3024.0,3114.0,3579.0,-5.69,6.44,4.99,-0.09,0.01,-0.04,1.0,l
2913.0,3008.0,3024.0,4095.0,4095.0,3027.0,3115.0,3581.0,-5.59,6.45,4.98,-0.04,0.02,-0.03,1.0,l
2914.0,3011.0,3024.0,4095.0,4095.0,3029.0,3114.0,3577.0,-5.6,6.46,4.87,-0.05,-0.0,-0.02,1.0,l
2914.0,2992.0,3024.0,4095.0,4095.0,3027.0,3117.0,3574.0,-5.6,6.49,4.84,-0.05,-0.02,-0.04,1.0,l
2901.0,3006.0,3026.0,4095.0,4095.0,3028.0,3118.0,3581.0,-5.67,6.46,4.83,-0.01,0.02,-0.04,1.0,l
2919.0,3010.0,3024.0,4095.0,4095.0,3034.0,3120.0,3583.0,-5.68,6.56,4.72,-0.04,0.01,-0.06,1.0,l
2922.0,3006.0,3026.0,4095.0,4095.0,3055.0,3121.0,3583.0,0.36,7.58,6.88,0.0,0.06,-0.01,1.0,l
2918.0,3003.0,3023.0,4095.0,4095.0,3053.0,3133.0,3606.0,0.29,7.38,6.82,-0.03,-0.05,-0.07,1.0,l
2917.0,3001.0,3025.0,4095.0,4095.0,3056.0,3125.0,3600.0,0.21,7.44,6.99,-0.11,-0.04,-0.05,1.0,l
2918.0,3013.0,3027.0,4095.0,4095.0,3051.0,3125.0,3583.0,0.13,7.38,7.07,-0.06,-0.01,-0.04,1.0,l
2915.0,2994.0,3031.0,4095.0,4095.0,3053.0,3130.0,3603.0,0.22,7.43,7.03,-0.07,-0.01,-0.02,1.0,l
2905.0,2992.0,3031.0,4095.0,4095.0,3056.0,3131.0,3583.0,0.33,7.44,6.96,-0.09,0.0,-0.06,1.0,l
2911.0,2999.0,3030.0,4095.0,4095.0,3057.0,3127.0,3600.0,0.32,7.35,7.09,-0.06,-0.02,-0.06,1.0,l
2917.0,3007.0,3026.0,4095.0,4095.0,3055.0,3123.0,3583.0,0.19,7.41,7.09,-0.05,0.0,-0.05,1.0,l
2907.0,2992.0,3024.0,4095.0,4095.0,3056.0,3124.0,3600.0,0.35,7.44,7.08,-0.05,-0.03,-0.05,1.0,l
2914.0,3008.0,3025.0,4095.0,4095.0,3059.0,3126.0,3583.0,0.22,7.37,7.0,-0.03,0.03,-0.07,1.0,l
2923.0,3005.0,3029.0,4095.0,4095.0,3056.0,3126.0,3583.0,0.08,7.38,6.94,-0.02,-0.02,-0.05,1.0,l
2913.0,3006.0,3029.0,4095.0,4095.0,3057.0,3131.0,3603.0,0.21,7.32,7.11,-0.05,-0.02,-0.05,1.0,l
2915.0,3011.0,3030.0,4095.0,4095.0,3057.0,3131.0,3597.0,0.05,7.34,7.06,-0.09,0.01,-0.02,1.0,l
2918.0,3001.0,3024.0,4095.0,4095.0,3056.0,3126.0,3600.0,0.17,7.43,6.97,-0.07,0.0,-0.03,1.0,l
2908.0,2999.0,3031.0,4095.0,4095.0,3056.0,3127.0,3603.0,0.28,7.3,7.14,-0.05,-0.03,-0.04,1.0,l
2913.0,3003.0,3027.0,4095.0,4095.0,3057.0,3135.0,3583.0,0.34,7.43,7.08,-0.05,0.02,-0.03,1.0,l
2911.0,3007.0,3024.0,4095.0,4095.0,3053.0,3130.0,3600.0,0.28,7.31,7.03,-0.05,-0.01,-0.06,1.0,l
2896.0,3003.0,3023.0,4095.0,4095.0,3056.0,3127.0,3601.0,0.13,7.46,6.94,-0.07,0.01,-0.04,1.0,l
2910.0,3010.0,3027.0,4095.0,4095.0,3060.0,3131.0,3600.0,0.13,7.36,6.96,-0.05,-0.03,-0.06,1.0,l
2915.0,2995.0,3039.0,4095.0,4095.0,3057.0,3128.0,3603.0,0.15,7.47,7.0,-0.07,0.01,-0.03,1.0,l
2909.0,2998.0,3024.0,4095.0,4095.0,3065.0,3127.0,3583.0,1.17,9.74,3.03,-0.01,-0.01,-0.01,1.0,l
2912.0,2988.0,3019.0,4095.0,4095.0,3063.0,3127.0,3599.0,1.14,9.71,2.87,-0.02,0.05,-0.03,1.0,l
2906.0,2999.0,3026.0,4095.0,4095.0,3061.0,3120.0,3582.0,1.08,9.76,2.75,-0.04,0.04,-0.04,1.0,l
2917.0,2997.0,3019.0,4095.0,4095.0,3067.0,3124.0,3574.0,0.93,9.64,2.93,-0.06,-0.05,-0.07,1.0,l
2906.0,2992.0,3023.0,4095.0,4095.0,3066.0,3126.0,3583.0,1.04,9.7,2.99,-0.02,-0.02,-0.04,1.0,l
2903.0,3005.0,3018.0,4095.0,4095.0,3062.0,3127.0,3583.0,0.85,9.4,3.16,0.08,-0.02,-0.07,1.0,l
2906.0,2992.0,3018.0,4095.0,4095.0,3066.0,3120.0,3571.0,1.07,9.76,2.78,0.11,0.08,-0.05,1.0,l
2912.0,3003.0,3027.0,4095.0,4095.0,3067.0,3129.0,3598.0,0.91,9.82,2.64,0.06,0.05,-0.03,1.0,l
2905.0,2990.0,3021.0,4095.0,4095.0,3066.0,3127.0,3583.0,0.93,9.73,2.71,-0.08,-0.07,-0.03,1.0,l
2911.0,2999.0,3025.0,4095.0,4095.0,3071.0,3131.0,3599.0,1.05,9.76,2.69,-0.02,-0.04,-0.05,1.0,l
2911.0,3005.0,3015.0,4095.0,4095.0,3070.0,3129.0,3583.0,0.9,9.75,2.67,-0.05,-0.05,-0.06,1.0,l
2898.0,2995.0,3029.0,4095.0,4095.0,3063.0,3120.0,3583.0,0.92,9.74,2.63,-0.05,0.01,-0.05,1.0,l
2903.0,2993.0,3024.0,4095.0,4095.0,3071.0,3127.0,3600.0,0.82,9.73,2.74,-0.08,-0.01,-0.05,1.0,l
2918.0,3003.0,3025.0,4095.0,4095.0,3085.0,3135.0,3598.0,0.97,9.67,2.72,-0.05,0.01,-0.02,1.0,l
2909.0,2994.0,3024.0,4095.0,4095.0,3067.0,3126.0,3583.0,1.02,9.76,2.64,-0.1,0.02,-0.02,1.0,l
2911.0,2999.0,3032.0,4095.0,4095.0,3070.0,3120.0,3583.0,1.14,9.76,2.68,-0.07,-0.01,-0.06,1.0,l
2912.0,2991.0,3023.0,4095.0,4095.0,3067.0,3125.0,3598.0,0.86,9.69,2.7,-0.1,0.04,-0.03,1.0,l
2905.0,2993.0,3018.0,4095.0,4095.0,3070.0,3133.0,3583.0,0.89,9.7,2.73,-0.06,0.01,-0.04,1.0,l
2915.0,3004.0,3027.0,4095.0,4095.0,3069.0,3133.0,3583.0,0.88,9.71,2.79,-0.09,0.01,-0.02,1.0,l
2897.0,2992.0,3034.0,4095.0,4095.0,3071.0,3130.0,3601.0,0.96,9.72,2.72,-0.05,0.02,-0.03,1.0,l
2914.0,3005.0,3024.0,4095.0,4095.0,3085.0,3136.0,3611.0,-4.8,8.46,1.72,-0.02,0.01,-0.0,1.0,l
2917.0,2997.0,3025.0,4095.0,4095.0,3071.0,3137.0,3613.0,-4.76,8.53,1.7,-0.03,-0.02,-0.01,1.0,l
2921.0,3003.0,3031.0,4095.0,4095.0,3086.0,3136.0,3615.0,-4.71,8.52,1.6,-0.03,-0.0,-0.0,1.0,l
2919.0,2995.0,3037.0,4095.0,4095.0,3083.0,3137.0,3613.0,-4.66,8.44,1.61,-0.06,0.0,-0.04,1.0,l
2908.0,2993.0,3031.0,4095.0,4095.0,3082.0,3133.0,3609.0,-4.73,8.54,1.62,-0.06,-0.0,-0.04,1.0,l
2906.0,2995.0,3021.0,4095.0,4095.0,3071.0,3131.0,3607.0,-4.79,8.51,1.62,-0.05,0.01,-0.04,1.0,l
2912.0,2994.0,3026.0,4095.0,4095.0,3086.0,3131.0,3606.0,-4.75,8.55,1.58,-0.05,0.02,-0.04,1.0,l
2914.0,2992.0,3024.0,4095.0,4095.0,3087.0,3137.0,3617.0,-4.7,8.54,1.56,-0.07,0.0,-0.04,1.0,l
2908.0,2999.0,3025.0,4095.0,4095.0,3083.0,3136.0,3611.0,-4.76,8.48,1.66,-0.1,0.01,-0.04,1.0,l
2919.0,2999.0,3022.0,4095.0,4095.0,3071.0,3134.0,3603.0,-4.75,8.5,1.75,-0.07,0.02,-0.03,1.0,l
2918.0,2998.0,3024.0,4095.0,4095.0,3086.0,3136.0,3601.0,-4.71,8.53,1.64,-0.07,-0.01,-0.06,1.0,l
2914.0,2992.0,3019.0,4095.0,4095.0,3081.0,3133.0,3600.0,-4.74,8.52,1.75,-0.06,0.01,-0.04,1.0,l
2915.0,2997.0,3035.0,4095.0,4095.0,3083.0,3136.0,3609.0,-4.49,8.43,1.99,-0.03,-0.06,-0.08,1.0,l
2926.0,3001.0,3031.0,4095.0,4095.0,3083.0,3140.0,3607.0,-4.78,8.45,1.67,-0.02,0.08,-0.06,1.0,l
2913.0,2999.0,3027.0,4095.0,4095.0,3083.0,3127.0,3600.0,-4.97,8.48,1.48,-0.01,-0.03,-0.07,1.0,l
2910.0,3001.0,3030.0,4095.0,4095.0,3086.0,3134.0,3605.0,-4.87,8.45,1.45,-0.03,0.02,-0.03,1.0,l
2918.0,3006.0,3026.0,4095.0,4095.0,3084.0,3127.0,3602.0,-4.89,8.46,1.48,-0.03,0.02,-0.03,1.0,l
2923.0,3006.0,3034.0,4095.0,4095.0,3084.0,3134.0,3617.0,-4.82,8.49,1.42,-0.05,0.02,-0.02,1.0,l
2912.0,3008.0,3031.0,4095.0,4095.0,3071.0,3133.0,3603.0,-4.82,8.48,1.45,-0.09,0.02,-0.01,1.0,l
2917.0,2992.0,3026.0,4095.0,4095.0,3071.0,3136.0,3601.0,-4.87,8.41,1.6,-0.13,-0.02,-0.05,1.0,l
2923.0,2998.0,3019.0,4095.0,4095.0,3085.0,3146.0,3653.0,-1.05,5.65,8.33,-0.02,0.02,-0.05,1.0,l
2910.0,3010.0,3029.0,4095.0,4095.0,3088.0,3152.0,3653.0,-0.96,5.64,8.43,-0.03,0.01,-0.08,1.0,l
2913.0,2997.0,3029.0,4095.0,4095.0,3088.0,3145.0,3645.0,-1.25,5.58,8.4,-0.08,0.06,-0.05,1.0,l
2914.0,3009.0,3025.0,4095.0,4095.0,3071.0,3145.0,3652.0,-1.24,5.48,8.47,-0.08,0.01,-0.07,1.0,l
2906.0,3013.0,3029.0,4095.0,4095.0,3088.0,3143.0,3647.0,-1.33,5.63,8.36,-0.07,0.07,-0.01,1.0,l
2906.0,3012.0,3024.0,4095.0,4095.0,3088.0,3145.0,3663.0,-1.2,5.6,8.4,-0.04,-0.02,0.02,1.0,l
2919.0,3008.0,3030.0,4095.0,4095.0,3087.0,3143.0,3654.0,-1.16,5.63,8.38,-0.03,-0.01,-0.02,1.0,l
2921.0,3008.0,3031.0,4095.0,4095.0,3088.0,3138.0,3649.0,-1.05,5.63,8.43,-0.02,-0.05,-0.03,1.0,l
2916.0,3009.0,3024.0,4095.0,4095.0,3089.0,3150.0,3657.0,-1.04,5.64,8.42,-0.08,0.01,-0.03,1.0,l
2901.0,2998.0,3029.0,4095.0,4095.0,3088.0,3149.0,3648.0,-1.04,5.64,8.44,-0.05,0.02,-0.05,1.0,l
2905.0,2998.0,3033.0,4095.0,4095.0,3088.0,3145.0,3657.0,-1.21,5.6,8.36,-0.08,0.03,-0.06,1.0,l
2915.0,2995.0,3026.0,4095.0,4095.0,3091.0,3143.0,3653.0,-1.29,5.64,8.4,-0.05,-0.01,-0.04,1.0,l
2925.0,3007.0,3029.0,4095.0,4095.0,3091.0,3143.0,3648.0,-1.33,5.56,8.4,-0.07,0.0,-0.02,1.0,l
2925.0,3004.0,3029.0,4095.0,4095.0,3092.0,3151.0,3655.0,-1.15,5.6,8.44,-0.03,-0.02,-0.02,1.0,l
2912.0,3006.0,3024.0,4095.0,4095.0,3093.0,3151.0,3663.0,-1.15,5.6,8.41,-0.08,0.02,0.01,1.0,l
2909.0,3008.0,3026.0,4095.0,4095.0,3088.0,3150.0,3648.0,-0.97,5.65,8.46,-0.06,-0.01,-0.03,1.0,l
2913.0,2998.0,3023.0,4095.0,4095.0,3095.0,3152.0,3662.0,-0.98,5.58,8.42,-0.08,-0.0,-0.04,1.0,l
2914.0,3005.0,3031.0,4095.0,4095.0,3090.0,3152.0,3653.0,-1.07,5.67,8.41,-0.05,0.03,-0.06,1.0,l
2908.0,2998.0,3031.0,4095.0,4095.0,3089.0,3152.0,3655.0,-1.17,5.52,8.48,-0.04,-0.02,-0.08,1.0,l
2921.0,3008.0,3027.0,4095.0,4095.0,3088.0,3146.0,3655.0,-1.24,5.56,8.45,-0.04,0.01,-0.05,1.0,l
2915.0,3001.0,3026.0,4095.0,4095.0,3101.0,3150.0,3659.0,1.54,8.62,5.32,-0.08,-0.02,-0.04,1.0,l
2915.0,3001.0,3026.0,4095.0,4095.0,3101.0,3150.0,3659.0,1.54,8.62,5.32,-0.08,-0.02,-0.04,1.0,l
2917.0,3007.0,3024.0,4095.0,4095.0,3099.0,3152.0,3649.0,1.47,8.55,5.39,-0.06,0.01,-0.03,1.0,l
2907.0,2999.0,3026.0,4095.0,4095.0,3091.0,3150.0,3648.0,1.41,8.53,5.37,-0.09,0.02,-0.04,1.0,l
2908.0,2998.0,3024.0,4095.0,4095.0,3093.0,3143.0,3650.0,1.44,8.54,5.45,-0.08,-0.02,-0.03,1.0,l
2917.0,2993.0,3024.0,4095.0,4095.0,3094.0,3149.0,3651.0,1.49,8.5,5.48,-0.07,-0.0,-0.03,1.0,l
2909.0,2993.0,3023.0,4095.0,4095.0,3092.0,3151.0,3649.0,1.57,8.58,5.41,-0.05,-0.04,-0.03,1.0,l
2896.0,3005.0,3021.0,4095.0,4095.0,3091.0,3146.0,3647.0,1.51,8.53,5.39,-0.06,-0.01,-0.04,1.0,l
2925.0,2991.0,3019.0,4095.0,4095.0,3088.0,3149.0,3651.0,1.4,8.59,5.4,-0.04,-0.04,-0.06,1.0,l
2918.0,3006.0,3024.0,4095.0,4095.0,3092.0,3150.0,3654.0,1.28,8.51,5.49,-0.05,-0.05,-0.04,1.0,l
2918.0,3006.0,3024.0,4095.0,4095.0,3093.0,3146.0,3647.0,1.42,8.49,5.58,-0.03,-0.05,-0.04,1.0,l
2906.0,2992.0,3025.0,4095.0,4095.0,3089.0,3146.0,3651.0,1.52,8.56,5.46,-0.01,0.01,-0.03,1.0,l
2915.0,3003.0,3019.0,4095.0,4095.0,3092.0,3149.0,3655.0,1.48,8.62,5.27,-0.03,0.04,-0.05,1.0,l
2910.0,2995.0,3026.0,4095.0,4095.0,3097.0,3152.0,3658.0,1.32,8.56,5.34,-0.07,0.02,-0.06,1.0,l
2915.0,3005.0,3021.0,4095.0,4095.0,3094.0,3148.0,3647.0,1.18,8.56,5.19,-0.09,0.06,-0.04,1.0,l
2917.0,3007.0,3024.0,4095.0,4095.0,3098.0,3151.0,3649.0,1.29,8.61,5.29,-0.09,0.03,-0.04,1.0,l
2918.0,2997.0,3035.0,4095.0,4095.0,3095.0,3143.0,3642.0,1.41,8.5,5.37,-0.1,-0.01,-0.02,1.0,l
2912.0,3005.0,3024.0,4095.0,4095.0,3100.0,3152.0,3649.0,1.53,8.59,5.43,-0.07,-0.02,-0.02,1.0,l
2911.0,2999.0,3027.0,4095.0,4095.0,3104.0,3152.0,3651.0,1.59,8.54,5.54,0.0,-0.04,-0.06,1.0,l
2907.0,2999.0,3028.0,4095.0,4095.0,3103.0,3152.0,3657.0,1.5,8.54,5.4,-0.05,-0.0,-0.05,1.0,l
2906.0,2999.0,3017.0,4095.0,4095.0,3131.0,3170.0,3668.0,-0.35,9.35,3.88,-0.05,0.0,-0.0,1.0,l
2906.0,2999.0,3017.0,4095.0,4095.0,3131.0,3170.0,3668.0,-0.35,9.35,3.88,-0.05,0.0,-0.0,1.0,l
2922.0,2993.0,3024.0,4095.0,4095.0,3137.0,3184.0,3670.0,-0.33,9.39,3.76,-0.09,0.03,-0.0,1.0,l
2909.0,2998.0,3023.0,4095.0,4095.0,3134.0,3171.0,3664.0,-0.29,9.39,3.69,-0.1,0.01,-0.02,1.0,l
2922.0,3000.0,3014.0,4095.0,4095.0,3135.0,3174.0,3674.0,-0.3,9.42,3.73,-0.07,-0.0,-0.01,1.0,l
2905.0,3001.0,3034.0,4095.0,4095.0,3134.0,3173.0,3659.0,-0.38,9.39,3.76,-0.09,0.0,-0.02,1.0,l
2907.0,2992.0,3028.0,4095.0,4095.0,3136.0,3174.0,3671.0,-0.37,9.37,3.85,-0.08,0.01,-0.02,1.0,l
2911.0,2992.0,3022.0,4095.0,4095.0,3135.0,3170.0,3664.0,-0.35,9.32,3.89,-0.06,0.01,-0.01,1.0,l
2913.0,2997.0,3025.0,4095.0,4095.0,3137.0,3179.0,3670.0,-0.27,9.39,3.85,-0.08,0.01,-0.03,1.0,l
2911.0,2992.0,3024.0,4095.0,4095.0,3137.0,3181.0,3663.0,-0.31,9.33,3.86,-0.08,-0.0,-0.05,1.0,l
2897.0,2993.0,3024.0,4095.0,4095.0,3133.0,3175.0,3670.0,-0.39,9.3,4.03,-0.05,-0.0,-0.02,1.0,l
2903.0,3005.0,3024.0,4095.0,4095.0,3136.0,3175.0,3677.0,-0.34,9.35,3.89,-0.05,0.01,-0.03,1.0,l
2917.0,2997.0,3024.0,4095.0,4095.0,3138.0,3179.0,3680.0,-0.3,9.36,3.82,-0.04,0.0,-0.03,1.0,l
2918.0,2992.0,3035.0,4095.0,4095.0,3139.0,3179.0,3675.0,-0.25,9.34,3.84,-0.06,0.02,-0.03,1.0,l
2906.0,2999.0,3018.0,4095.0,4095.0,3134.0,3173.0,3667.0,-0.34,9.42,3.69,-0.07,0.04,-0.05,1.0,l
2914.0,2999.0,3018.0,4095.0,4095.0,3136.0,3182.0,3669.0,-0.32,9.41,3.8,-0.08,0.01,-0.04,1.0,l
2903.0,2997.0,3024.0,4095.0,4095.0,3139.0,3173.0,3679.0,-0.47,9.34,3.87,-0.06,0.0,-0.03,1.0,l
2907.0,2999.0,3024.0,4095.0,4095.0,3136.0,3183.0,3671.0,-0.34,9.35,3.85,-0.06,0.01,-0.03,1.0,l
2910.0,2998.0,3031.0,4095.0,4095.0,3136.0,3175.0,3663.0,-0.34,9.4,3.8,-0.07,0.01,-0.02,1.0,l
2917.0,2994.0,3015.0,4095.0,4095.0,3135.0,3174.0,3671.0,-0.29,9.34,3.87,-0.03,-0.01,-0.06,1.0,l
2913.0,2998.0,3023.0,4095.0,4095.0,3138.0,3179.0,3686.0,-3.71,5.59,7.7,-0.07,-0.01,-0.11,1.0,l
2910.0,2995.0,3024.0,4095.0,4095.0,3142.0,3183.0,3674.0,-3.78,5.59,7.58,-0.03,0.04,-0.06,1.0,l
2911.0,3002.0,3027.0,4095.0,4095.0,3141.0,3181.0,3679.0,-3.77,5.65,7.45,-0.03,0.0,-0.04,1.0,l
2913.0,2998.0,3033.0,4095.0,4095.0,3142.0,3181.0,3675.0,-3.67,5.75,7.36,-0.03,0.0,-0.01,1.0,l
2907.0,2992.0,3024.0,4095.0,4095.0,3142.0,3185.0,3681.0,-3.6,5.73,7.31,-0.06,-0.02,-0.02,1.0,l
2918.0,2993.0,3038.0,4095.0,4095.0,3145.0,3184.0,3687.0,-3.61,5.76,7.33,-0.07,-0.0,-0.01,1.0,l
2928.0,2992.0,3024.0,4095.0,4095.0,3136.0,3181.0,3675.0,-3.63,5.69,7.33,-0.09,-0.03,-0.02,1.0,l
2915.0,2994.0,3030.0,4095.0,4095.0,3136.0,3180.0,3678.0,-3.6,5.64,7.44,-0.11,-0.01,-0.0,1.0,l
2914.0,3005.0,3031.0,4095.0,4095.0,3142.0,3181.0,3682.0,-3.51,5.73,7.57,-0.1,-0.04,-0.03,1.0,l
2911.0,3010.0,3029.0,4095.0,4095.0,3136.0,3175.0,3671.0,-3.4,5.7,7.55,-0.09,0.0,-0.02,1.0,l
2917.0,3007.0,3025.0,4095.0,4095.0,3137.0,3178.0,3671.0,-3.52,5.6,7.55,-0.09,-0.03,-0.04,1.0,l
2915.0,2995.0,3019.0,4095.0,4095.0,3135.0,3177.0,3676.0,-3.46,5.66,7.6,-0.08,0.01,-0.02,1.0,l
2912.0,3005.0,3024.0,4095.0,4095.0,3147.0,3184.0,3686.0,-3.56,5.56,7.48,-0.07,-0.01,-0.05,1.0,l
2913.0,3008.0,3034.0,4095.0,4095.0,3139.0,3178.0,3667.0,-3.59,5.6,7.56,-0.09,-0.04,-0.04,1.0,l
2910.0,3005.0,3025.0,4095.0,4095.0,3136.0,3181.0,3677.0,-3.5,5.67,7.66,-0.06,-0.05,-0.04,1.0,l
2900.0,3003.0,3023.0,4095.0,4095.0,3137.0,3182.0,3679.0,-3.45,5.67,7.59,-0.03,-0.01,-0.03,1.0,l
2912.0,3008.0,3024.0,4095.0,4095.0,3141.0,3179.0,3678.0,-3.46,5.7,7.46,-0.04,-0.01,-0.04,1.0,l
2907.0,2998.0,3018.0,4095.0,4095.0,3137.0,3184.0,3682.0,-3.49,5.68,7.45,-0.04,0.0,-0.03,1.0,l
2897.0,3007.0,3025.0,4095.0,4095.0,3149.0,3179.0,3680.0,-3.51,5.65,7.55,-0.07,-0.03,-0.03,1.0,l
2915.0,2992.0,3024.0,4095.0,4095.0,3136.0,3177.0,3677.0,-3.51,5.62,7.66,-0.06,0.0,-0.03,1.0,l
2916.0,3003.0,3022.0,4095.0,4095.0,3167.0,3194.0,3694.0,-2.28,9.67,1.13,-0.08,-0.03,-0.04,1.0,l
2923.0,2996.0,3024.0,4095.0,4095.0,3167.0,3190.0,3678.0,-2.32,9.68,1.3,-0.15,0.02,-0.04,1.0,l
2910.0,2994.0,3035.0,4095.0,4095.0,3156.0,3188.0,3681.0,-2.36,9.5,1.59,-0.08,-0.03,-0.03,1.0,l
2915.0,2995.0,3031.0,4095.0,4095.0,3152.0,3185.0,3679.0,-2.36,9.62,1.58,-0.12,0.05,-0.02,1.0,l
2922.0,3001.0,3018.0,4095.0,4095.0,3154.0,3193.0,3691.0,-2.23,9.47,1.65,-0.06,-0.06,-0.04,1.0,l
2926.0,2999.0,3024.0,4095.0,4095.0,3154.0,3179.0,3662.0,-2.28,9.55,1.6,-0.06,0.01,-0.02,1.0,l
2915.0,2992.0,3027.0,4095.0,4095.0,3147.0,3173.0,3653.0,-2.18,9.64,1.41,-0.03,-0.02,-0.04,1.0,l
2917.0,3003.0,3030.0,4095.0,4095.0,3149.0,3171.0,3654.0,-2.15,9.59,1.42,-0.02,0.04,-0.04,1.0,l
2903.0,3007.0,3034.0,4095.0,4095.0,3154.0,3173.0,3658.0,-2.38,9.73,1.24,-0.02,0.1,-0.04,1.0,l
2910.0,3006.0,3024.0,4095.0,4095.0,3149.0,3175.0,3643.0,-2.42,9.72,1.04,0.01,0.02,-0.03,1.0,l
2915.0,2993.0,3030.0,4095.0,4095.0,3109.0,3159.0,3626.0,-2.34,9.96,1.22,-0.02,-0.02,0.0,1.0,l
2913.0,2998.0,3031.0,4095.0,4095.0,2992.0,3119.0,3565.0,-1.89,9.53,1.55,0.26,-0.08,0.05,1.0,l
2909.0,2998.0,3034.0,4095.0,4095.0,2965.0,3121.0,3543.0,-2.15,9.8,0.84,-0.1,-0.07,0.02,1.0,l
2919.0,3004.0,3030.0,4095.0,4095.0,2965.0,3125.0,3551.0,-2.18,9.73,1.26,-0.05,-0.05,-0.03,1.0,l
2906.0,3001.0,3036.0,4095.0,4095.0,2962.0,3120.0,3537.0,-2.2,9.57,1.37,-0.1,-0.1,-0.02,1.0,l
2912.0,2994.0,3035.0,4095.0,4095.0,2977.0,3126.0,3537.0,-2.06,9.72,1.4,-0.11,-0.02,-0.06,1.0,l
2910.0,3003.0,3038.0,4095.0,4095.0,2976.0,3131.0,3552.0,-2.12,9.6,1.41,-0.04,0.03,-0.05,1.0,l
2898.0,2993.0,3029.0,4095.0,4095.0,2971.0,3129.0,3543.0,-2.17,9.59,1.37,-0.07,-0.03,-0.03,1.0,l
2915.0,3001.0,3029.0,4095.0,4095.0,2938.0,3121.0,3520.0,-2.6,9.44,1.11,0.28,-0.27,-0.05,1.0,l
2912.0,3005.0,3033.0,4095.0,4095.0,2941.0,3125.0,3513.0,-2.04,9.75,0.96,-0.06,-0.4,-0.06,1.0,l
2896.0,2999.0,3041.0,4095.0,4095.0,3007.0,3146.0,3521.0,-5.03,7.38,4.56,-0.07,-0.02,-0.1,1.0,l
2911.0,3009.0,3040.0,4095.0,4095.0,3011.0,3152.0,3535.0,-5.31,7.15,4.51,-0.12,0.02,-0.08,1.0,l
2914.0,2999.0,3041.0,4095.0,4095.0,3003.0,3146.0,3526.0,-5.1,7.22,4.58,-0.01,0.06,-0.03,1.0,l
2917.0,2998.0,3039.0,4095.0,4095.0,3006.0,3139.0,3529.0,-5.04,7.28,4.46,-0.16,-0.06,-0.07,1.0,l
2916.0,3008.0,3047.0,4095.0,4095.0,3011.0,3137.0,3527.0,-4.96,7.39,4.54,-0.05,0.02,-0.04,1.0,l
2918.0,3005.0,3054.0,4095.0,4095.0,3008.0,3151.0,3536.0,-5.04,7.16,4.54,-0.18,-0.02,-0.06,1.0,l
2914.0,3011.0,3033.0,4095.0,4095.0,3009.0,3148.0,3534.0,-5.03,7.34,4.65,-0.14,-0.07,-0.09,1.0,l
2906.0,3009.0,3041.0,4095.0,4095.0,3010.0,3145.0,3536.0,-4.91,6.9,4.98,-0.03,0.02,-0.02,1.0,l
2906.0,2995.0,3034.0,4095.0,4095.0,3009.0,3146.0,3531.0,-5.04,7.31,4.56,-0.1,0.06,-0.02,1.0,l
2911.0,3006.0,3038.0,4095.0,4095.0,3010.0,3140.0,3529.0,-4.79,7.16,4.68,-0.05,-0.02,-0.01,1.0,l
2920.0,3009.0,3042.0,4095.0,4095.0,3013.0,3140.0,3534.0,-4.93,7.23,4.59,-0.15,0.01,-0.06,1.0,l
2903.0,2993.0,3034.0,4095.0,4095.0,3010.0,3142.0,3539.0,-4.93,7.16,4.75,-0.06,-0.05,-0.06,1.0,l
2909.0,2995.0,3037.0,4095.0,4095.0,3019.0,3147.0,3541.0,-5.06,7.04,4.79,-0.14,0.02,-0.06,1.0,l
2919.0,3010.0,3046.0,4095.0,4095.0,3017.0,3136.0,3535.0,-5.0,7.11,4.81,-0.08,-0.03,-0.05,1.0,l
2913.0,3008.0,3037.0,4095.0,4095.0,3019.0,3142.0,3542.0,-4.85,7.13,4.82,-0.13,0.12,-0.04,1.0,l
2901.0,3003.0,3046.0,4095.0,4095.0,3023.0,3151.0,3543.0,-5.21,6.92,4.95,-0.07,0.22,-0.03,1.0,l
2912.0,3002.0,3047.0,4095.0,4095.0,3021.0,3148.0,3539.0,-5.02,7.16,4.62,0.02,-0.1,-0.07,1.0,l
2905.0,2998.0,3033.0,4095.0,4095.0,3019.0,3147.0,3543.0,-4.83,7.1,4.6,-0.06,-0.0,-0.07,1.0,l
2903.0,2993.0,3035.0,4095.0,4095.0,3021.0,3149.0,3536.0,-5.09,7.13,4.52,-0.07,0.07,-0.11,1.0,l
2907.0,3005.0,3035.0,4095.0,4095.0,3024.0,3146.0,3539.0,-5.29,7.02,4.64,-0.09,0.37,-0.04,1.0,l
2912.0,3008.0,3035.0,4095.0,4095.0,2999.0,3142.0,3562.0,0.96,8.26,5.97,-0.11,-0.01,-0.07,1.0,l
2910.0,3006.0,3043.0,4095.0,4095.0,3005.0,3150.0,3573.0,0.8,8.07,6.08,-0.04,-0.03,-0.07,1.0,l
2910.0,3005.0,3043.0,4095.0,4095.0,3007.0,3151.0,3575.0,0.87,8.38,5.88,-0.08,0.02,-0.02,1.0,l
2910.0,3005.0,3035.0,4095.0,4095.0,2994.0,3139.0,3567.0,1.04,8.15,5.95,-0.04,-0.06,-0.02,1.0,l
2907.0,3005.0,3035.0,4095.0,4095.0,3003.0,3151.0,3578.0,1.01,8.28,5.87,-0.09,0.04,-0.04,1.0,l
2901.0,2993.0,3031.0,4095.0,4095.0,3005.0,3152.0,3571.0,1.06,8.27,5.97,-0.03,-0.03,-0.03,1.0,l
2919.0,2994.0,3039.0,4095.0,4095.0,3008.0,3152.0,3574.0,1.13,8.28,5.86,-0.08,0.03,-0.03,1.0,l
2906.0,2999.0,3034.0,4095.0,4095.0,3000.0,3140.0,3568.0,1.07,8.09,6.11,-0.04,-0.02,-0.05,1.0,l
2899.0,2994.0,3022.0,4095.0,4095.0,3001.0,3141.0,3568.0,0.96,8.2,6.1,-0.1,0.01,-0.07,1.0,l
2903.0,2997.0,3040.0,4095.0,4095.0,3008.0,3152.0,3579.0,1.14,8.25,6.16,0.0,-0.03,-0.07,1.0,l
2907.0,3009.0,3045.0,4095.0,4095.0,3007.0,3143.0,3568.0,0.9,8.34,5.9,-0.02,0.04,-0.04,1.0,l
2905.0,2998.0,3042.0,4095.0,4095.0,3002.0,3145.0,3574.0,0.95,8.33,5.78,-0.03,-0.03,-0.06,1.0,l
2899.0,2993.0,3039.0,4095.0,4095.0,3010.0,3151.0,3573.0,0.9,8.19,5.91,-0.08,-0.01,-0.02,1.0,l
2908.0,3001.0,3036.0,4095.0,4095.0,3009.0,3152.0,3569.0,1.02,8.17,6.01,-0.08,-0.02,-0.03,1.0,l
2910.0,3012.0,3031.0,4095.0,4095.0,3004.0,3146.0,3570.0,1.01,8.28,5.98,-0.07,0.03,-0.02,1.0,l
2918.0,3005.0,3035.0,4095.0,4095.0,3003.0,3151.0,3573.0,1.06,8.23,5.97,-0.09,-0.04,-0.04,1.0,l
2903.0,3006.0,3040.0,4095.0,4095.0,3007.0,3142.0,3568.0,1.07,8.1,6.16,-0.04,-0.02,-0.04,1.0,l
2907.0,2991.0,3035.0,4095.0,4095.0,3008.0,3149.0,3575.0,0.97,8.3,5.97,-0.05,0.03,-0.05,1.0,l
2909.0,3003.0,3035.0,4095.0,4095.0,3019.0,3152.0,3583.0,0.97,8.17,5.96,-0.04,-0.07,-0.06,1.0,l
2896.0,2995.0,3037.0,4095.0,4095.0,3004.0,3149.0,3575.0,0.99,8.32,5.89,-0.01,-0.02,-0.05,1.0,l
2922.0,2998.0,3043.0,4095.0,4095.0,3007.0,3139.0,3575.0,-2.53,5.09,8.44,-0.08,0.01,-0.05,1.0,l
2922.0,2998.0,3043.0,4095.0,4095.0,3007.0,3139.0,3575.0,-2.53,5.09,8.44,-0.08,0.01,-0.05,1.0,l
2906.0,3002.0,3026.0,4095.0,4095.0,3006.0,3142.0,3583.0,-2.51,5.11,8.4,-0.03,-0.03,-0.04,1.0,l
2909.0,3005.0,3031.0,4095.0,4095.0,3005.0,3139.0,3577.0,-2.43,5.1,8.4,-0.03,-0.02,-0.04,1.0,l
2922.0,2995.0,3042.0,4095.0,4095.0,3004.0,3139.0,3579.0,-2.41,5.13,8.37,-0.03,-0.01,-0.02,1.0,l
2914.0,3007.0,3036.0,4095.0,4095.0,3009.0,3141.0,3583.0,-2.45,5.18,8.32,-0.03,0.0,-0.02,1.0,l
2905.0,3007.0,3034.0,4095.0,4095.0,3006.0,3137.0,3574.0,-2.38,5.07,8.44,-0.03,-0.03,-0.04,1.0,l
2906.0,3008.0,3041.0,4095.0,4095.0,3010.0,3146.0,3583.0,-2.36,5.13,8.36,-0.02,-0.03,-0.05,1.0,l
2921.0,3011.0,3044.0,4095.0,4095.0,3011.0,3146.0,3583.0,-2.44,5.14,8.3,-0.06,0.0,-0.03,1.0,l
2919.0,2997.0,3041.0,4095.0,4095.0,3009.0,3146.0,3581.0,-2.43,5.22,8.32,-0.04,0.0,-0.03,1.0,l
2911.0,3008.0,3024.0,4095.0,4095.0,3006.0,3142.0,3583.0,-2.4,5.22,8.26,-0.07,-0.0,-0.04,1.0,l
2913.0,2997.0,3038.0,4095.0,4095.0,3014.0,3152.0,3583.0,-2.46,5.29,8.28,-0.03,0.02,-0.03,1.0,l
2913.0,3002.0,3037.0,4095.0,4095.0,3008.0,3139.0,3574.0,-2.41,5.25,8.32,-0.06,-0.01,-0.02,1.0,l
2915.0,3008.0,3041.0,4095.0,4095.0,3003.0,3145.0,3581.0,-2.37,5.1,8.4,-0.04,-0.02,-0.02,1.0,l
2912.0,3008.0,3053.0,4095.0,4095.0,3007.0,3140.0,3574.0,-2.38,5.3,8.27,-0.05,0.01,-0.03,1.0,l
2911.0,3009.0,3037.0,4095.0,4095.0,3004.0,3141.0,3578.0,-2.4,5.04,8.42,-0.01,-0.06,-0.05,1.0,l
2920.0,2997.0,3028.0,4095.0,4095.0,3008.0,3140.0,3572.0,-2.43,5.34,8.25,-0.05,0.0,-0.03,1.0,l
2906.0,3010.0,3036.0,4095.0,4095.0,3013.0,3147.0,3583.0,-2.38,5.24,8.22,-0.04,-0.0,-0.04,1.0,l
2913.0,2995.0,3045.0,4095.0,4095.0,3012.0,3141.0,3582.0,-2.41,5.22,8.27,-0.1,-0.02,-0.03,1.0,l
2902.0,2992.0,3035.0,4095.0,4095.0,3006.0,3141.0,3583.0,-2.4,5.23,8.37,-0.07,-0.01,-0.02,1.0,l
2906.0,3003.0,3031.0,4095.0,4095.0,3012.0,3151.0,3561.0,-1.41,9.78,1.88,-0.06,0.07,0.03,1.0,l
2914.0,2992.0,3034.0,4095.0,4095.0,3008.0,3150.0,3551.0,-1.16,9.74,2.02,-0.1,-0.01,-0.02,1.0,l
2908.0,2996.0,3031.0,4095.0,4095.0,3014.0,3152.0,3563.0,-1.25,9.7,2.15,-0.09,-0.0,-0.09,1.0,l
2914.0,2999.0,3037.0,4095.0,4095.0,3019.0,3145.0,3552.0,-1.65,9.68,2.19,-0.08,-0.01,-0.07,1.0,l
2911.0,2995.0,3034.0,4095.0,4095.0,3014.0,3150.0,3565.0,-1.5,9.73,2.13,-0.05,-0.01,-0.07,1.0,l
2914.0,2992.0,3038.0,4095.0,4095.0,3015.0,3152.0,3565.0,-1.73,9.64,2.2,-0.03,-0.01,-0.06,1.0,l
2911.0,2999.0,3043.0,4095.0,4095.0,3015.0,3146.0,3552.0,-1.72,9.64,2.15,-0.04,-0.02,-0.01,1.0,l
2907.0,3007.0,3039.0,4095.0,4095.0,3011.0,3143.0,3557.0,-1.56,9.73,1.95,-0.04,0.03,0.02,1.0,l
2911.0,2998.0,3037.0,4095.0,4095.0,3010.0,3147.0,3563.0,-1.35,9.79,1.91,-0.05,0.02,-0.0,1.0,l
2907.0,2999.0,3039.0,4095.0,4095.0,3013.0,3143.0,3566.0,-1.4,9.75,1.9,-0.08,0.01,-0.04,1.0,l
2907.0,3003.0,3031.0,4095.0,4095.0,3019.0,3152.0,3564.0,-1.53,9.71,2.05,-0.08,0.02,-0.05,1.0,l
2912.0,2998.0,3042.0,4095.0,4095.0,3009.0,3149.0,3559.0,-1.6,9.79,2.0,-0.06,0.03,-0.05,1.0,l
2897.0,2990.0,3042.0,4095.0,4095.0,3011.0,3151.0,3565.0,-1.59,9.71,2.03,-0.11,0.02,-0.02,1.0,l
2914.0,2996.0,3024.0,4095.0,4095.0,3013.0,3147.0,3558.0,-1.37,9.79,2.09,-0.08,0.01,-0.02,1.0,l
2903.0,2993.0,3030.0,4095.0,4095.0,3020.0,3151.0,3565.0,-1.57,9.72,2.13,-0.09,0.02,-0.03,1.0,l
2918.0,3005.0,3036.0,4095.0,4095.0,3015.0,3151.0,3562.0,-1.36,9.77,2.16,-0.06,0.01,-0.04,1.0,l
2914.0,2999.0,3040.0,4095.0,4095.0,3021.0,3150.0,3562.0,-1.38,9.7,2.16,-0.03,0.01,-0.08,1.0,l
2915.0,3003.0,3033.0,4095.0,4095.0,3019.0,3146.0,3567.0,-1.5,9.74,2.1,-0.05,-0.01,-0.08,1.0,l
2907.0,2988.0,3027.0,4095.0,4095.0,3018.0,3152.0,3567.0,-1.69,9.63,2.16,-0.08,-0.02,-0.06,1.0,l
2905.0,3004.0,3033.0,4095.0,4095.0,3014.0,3146.0,3566.0,-1.64,9.69,2.11,-0.07,-0.01,-0.04,1.0,l
2919.0,3008.0,3037.0,4095.0,4095.0,2998.0,3139.0,3567.0,-6.16,6.67,3.4,0.02,0.04,-0.03,1.0,l
2919.0,3008.0,3037.0,4095.0,4095.0,2998.0,3139.0,3567.0,-6.16,6.67,3.4,0.02,0.04,-0.03,1.0,l
2900.0,2990.0,3034.0,4095.0,4095.0,2997.0,3132.0,3578.0,-6.18,6.53,3.66,-0.03,0.02,-0.09,1.0,l
2901.0,3010.0,3033.0,4095.0,4095.0,3003.0,3142.0,3579.0,-5.88,6.69,3.87,-0.08,-0.01,-0.11,1.0,l
2906.0,3014.0,3029.0,4095.0,4095.0,2999.0,3137.0,3578.0,-6.23,6.29,3.84,-0.0,0.1,-0.16,1.0,l
2911.0,3014.0,3031.0,4095.0,4095.0,3005.0,3141.0,3581.0,-6.73,6.38,3.78,-0.04,0.06,-0.13,1.0,l
2903.0,3007.0,3026.0,4095.0,4095.0,2999.0,3135.0,3568.0,-6.73,6.37,3.77,-0.04,-0.01,-0.06,1.0,l
2902.0,3003.0,3030.0,4095.0,4095.0,2998.0,3131.0,3573.0,-6.5,6.43,3.65,-0.01,0.03,-0.0,1.0,l
2906.0,2998.0,3038.0,4095.0,4095.0,2995.0,3136.0,3575.0,-6.32,6.56,3.52,-0.04,-0.01,-0.04,1.0,l
2909.0,2997.0,3030.0,4095.0,4095.0,3005.0,3137.0,3573.0,-6.26,6.56,3.57,-0.07,0.03,-0.05,1.0,l
2899.0,2990.0,3035.0,4095.0,4095.0,2997.0,3139.0,3575.0,-6.39,6.55,3.61,-0.06,0.01,-0.06,1.0,l
2907.0,2998.0,3036.0,4095.0,4095.0,3003.0,3146.0,3582.0,-6.46,6.45,3.75,-0.06,-0.0,-0.03,1.0,l
2905.0,3006.0,3036.0,4095.0,4095.0,3001.0,3141.0,3574.0,-6.39,6.37,3.93,-0.04,0.01,-0.01,1.0,l
2909.0,2993.0,3031.0,4095.0,4095.0,3005.0,3141.0,3574.0,-6.3,6.47,3.87,-0.03,0.01,-0.04,1.0,l
2921.0,3001.0,3030.0,4095.0,4095.0,3003.0,3141.0,3568.0,-6.25,6.42,3.76,-0.01,0.02,-0.03,1.0,l
2919.0,3014.0,3041.0,4095.0,4095.0,3007.0,3147.0,3583.0,-6.35,6.5,3.61,0.0,0.03,-0.04,1.0,l
2917.0,2994.0,3038.0,4095.0,4095.0,3008.0,3147.0,3579.0,-6.46,6.46,3.55,-0.05,-0.03,-0.05,1.0,l
2909.0,3005.0,3045.0,4095.0,4095.0,3001.0,3140.0,3569.0,-6.5,6.49,3.58,-0.05,0.02,-0.04,1.0,l
2912.0,3010.0,3040.0,4095.0,4095.0,3007.0,3142.0,3569.0,-6.56,6.48,3.6,-0.09,-0.05,-0.04,1.0,l
2905.0,2994.0,3027.0,4095.0,4095.0,3005.0,3139.0,3579.0,-6.44,6.5,3.65,-0.11,-0.01,-0.05,1.0,l
2909.0,2992.0,3034.0,4095.0,4095.0,3011.0,3150.0,3579.0,0.9,8.26,5.95,-0.09,-0.0,-0.1,1.0,l
2909.0,2992.0,3034.0,4095.0,4095.0,3011.0,3150.0,3579.0,0.9,8.26,5.95,-0.09,-0.0,-0.1,1.0,l
2911.0,2997.0,3030.0,4095.0,4095.0,3015.0,3150.0,3583.0,0.78,8.33,5.95,-0.02,-0.05,-0.08,1.0,l
2897.0,3003.0,3039.0,4095.0,4095.0,3019.0,3152.0,3583.0,0.77,8.32,5.9,-0.01,-0.04,-0.06,1.0,l
2903.0,2999.0,3039.0,4095.0,4095.0,3014.0,3152.0,3583.0,0.79,8.34,5.76,0.05,-0.04,-0.04,1.0,l
2903.0,3001.0,3029.0,4095.0,4095.0,3021.0,3157.0,3600.0,0.76,8.49,5.66,-0.07,-0.02,-0.07,1.0,l
2910.0,2998.0,3031.0,4095.0,4095.0,3021.0,3149.0,3577.0,0.89,8.35,5.69,0.04,-0.02,-0.05,1.0,l
2913.0,2998.0,3043.0,4095.0,4095.0,3014.0,3147.0,3574.0,0.58,8.39,5.61,-0.12,0.01,-0.03,1.0,l
2914.0,2995.0,3032.0,4095.0,4095.0,3018.0,3147.0,3583.0,0.68,8.31,5.82,-0.14,-0.07,-0.03,1.0,l
2915.0,2992.0,3035.0,4095.0,4095.0,3019.0,3152.0,3597.0,0.9,8.51,5.87,-0.07,0.05,0.01,1.0,l
2911.0,3009.0,3034.0,4095.0,4095.0,3019.0,3152.0,3571.0,0.94,8.42,5.77,-0.04,0.02,-0.05,1.0,l
2911.0,2992.0,3031.0,4095.0,4095.0,3023.0,3153.0,3600.0,0.86,8.29,5.87,-0.02,0.02,-0.06,1.0,l
2912.0,2999.0,3023.0,4095.0,4095.0,3022.0,3147.0,3577.0,0.68,8.28,5.85,-0.1,-0.02,-0.08,1.0,l
2916.0,2999.0,3034.0,4095.0,4095.0,3017.0,3152.0,3600.0,0.7,8.37,5.78,-0.08,-0.01,-0.08,1.0,l
2916.0,2997.0,3024.0,4095.0,4095.0,3022.0,3151.0,3583.0,0.51,8.38,5.69,-0.06,0.01,-0.05,1.0,l
2910.0,3003.0,3025.0,4095.0,4095.0,3017.0,3152.0,3583.0,0.66,8.38,5.68,-0.1,-0.01,-0.02,1.0,l
2905.0,3006.0,3031.0,4095.0,4095.0,3021.0,3155.0,3583.0,0.68,8.38,5.76,-0.11,0.01,-0.01,1.0,l
2910.0,3008.0,3035.0,4095.0,4095.0,3024.0,3153.0,3583.0,0.81,8.28,6.01,-0.12,-0.04,-0.03,1.0,l
2915.0,3003.0,3024.0,4095.0,4095.0,3019.0,3150.0,3581.0,0.85,8.21,6.16,-0.09,-0.02,-0.04,1.0,l
2913.0,2992.0,3036.0,4095.0,4095.0,3019.0,3151.0,3580.0,0.86,8.32,6.05,-0.02,0.08,-0.02,1.0,l
2911.0,3003.0,3028.0,4095.0,4095.0,3084.0,3213.0,3661.0,-4.09,8.79,1.87,-0.04,-0.06,-0.05,1.0,l
2901.0,2989.0,3023.0,4095.0,4095.0,3071.0,3200.0,3657.0,-4.16,8.91,1.61,-0.11,0.03,-0.02,1.0,l
2906.0,2997.0,3017.0,4095.0,4095.0,3069.0,3199.0,3658.0,-4.28,8.81,1.48,-0.11,-0.05,-0.04,1.0,l
2910.0,3007.0,3024.0,4095.0,4095.0,3071.0,3203.0,3667.0,-4.23,8.92,1.56,-0.09,-0.0,-0.04,1.0,l
2912.0,2993.0,3027.0,4095.0,4095.0,3082.0,3201.0,3661.0,-4.12,8.88,1.63,-0.1,-0.03,-0.01,1.0,l
2915.0,2996.0,3025.0,4095.0,4095.0,3085.0,3207.0,3671.0,-3.97,8.84,1.75,-0.03,-0.02,-0.05,1.0,l
2907.0,2989.0,3029.0,4095.0,4095.0,3087.0,3204.0,3670.0,-4.08,8.85,1.83,-0.09,0.01,-0.03,1.0,l
2909.0,2999.0,3023.0,4095.0,4095.0,3086.0,3199.0,3663.0,-4.2,8.7,2.02,-0.08,-0.05,-0.03,1.0,l
2903.0,2997.0,3025.0,4095.0,4095.0,3090.0,3211.0,3664.0,-4.15,8.85,1.9,-0.03,0.02,-0.04,1.0,l
2911.0,2998.0,3022.0,4095.0,4095.0,3087.0,3210.0,3665.0,-4.09,8.89,1.51,-0.04,0.02,-0.02,1.0,l
2922.0,3002.0,3027.0,4095.0,4095.0,3093.0,3210.0,3664.0,-4.12,8.95,1.45,-0.08,0.01,-0.07,1.0,l
2917.0,2995.0,3034.0,4095.0,4095.0,3085.0,3201.0,3666.0,-4.29,8.79,1.67,-0.11,0.01,-0.04,1.0,l
2917.0,2993.0,3024.0,4095.0,4095.0,3088.0,3201.0,3658.0,-4.37,8.71,1.97,-0.09,-0.01,-0.01,1.0,l
2917.0,2997.0,3034.0,4095.0,4095.0,3089.0,3199.0,3655.0,-4.14,8.91,1.62,0.05,0.09,0.0,1.0,l
2910.0,2995.0,3024.0,4095.0,4095.0,3089.0,3207.0,3666.0,-3.97,8.94,1.55,-0.07,-0.02,-0.02,1.0,l
2923.0,3003.0,3034.0,4095.0,4095.0,3091.0,3203.0,3659.0,-3.99,8.86,1.72,-0.04,-0.0,-0.04,1.0,l
2917.0,2992.0,3033.0,4095.0,4095.0,3090.0,3204.0,3658.0,-4.17,8.86,1.82,-0.02,-0.01,-0.04,1.0,l
2913.0,3003.0,3024.0,4095.0,4095.0,3089.0,3207.0,3663.0,-4.11,8.86,1.7,-0.03,0.0,-0.02,1.0,l
2906.0,2992.0,3027.0,4095.0,4095.0,3098.0,3209.0,3667.0,-4.14,8.83,1.72,-0.05,0.0,-0.02,1.0,l
2903.0,3002.0,3033.0,4095.0,4095.0,3102.0,3209.0,3670.0,-4.06,8.82,1.67,-0.05,-0.02,-0.04,1.0,l
2912.0,3003.0,3025.0,4095.0,4095.0,3024.0,3168.0,3629.0,-2.48,5.06,8.42,-0.06,-0.06,-0.09,1.0,l
2909.0,3009.0,3017.0,4095.0,4095.0,3024.0,3167.0,3616.0,-2.72,5.09,8.35,-0.06,0.03,-0.05,1.0,l
2914.0,2992.0,3023.0,4095.0,4095.0,3026.0,3167.0,3632.0,-2.62,5.08,8.43,-0.01,-0.02,-0.07,1.0,l
2906.0,3001.0,3040.0,4095.0,4095.0,3031.0,3169.0,3629.0,-2.7,5.08,8.25,-0.06,0.02,-0.04,1.0,l
2907.0,2997.0,3027.0,4095.0,4095.0,3031.0,3171.0,3631.0,-2.6,5.11,8.27,-0.03,-0.01,-0.04,1.0,l
2903.0,2994.0,3039.0,4095.0,4095.0,3029.0,3168.0,3632.0,-2.75,5.15,8.2,-0.09,-0.02,-0.02,1.0,l
2902.0,2992.0,3024.0,4095.0,4095.0,3025.0,3169.0,3627.0,-2.55,4.99,8.37,-0.06,-0.05,-0.04,1.0,l
2916.0,3005.0,3026.0,4095.0,4095.0,3033.0,3167.0,3632.0,-2.72,5.13,8.29,-0.07,0.01,-0.0,1.0,l
2914.0,3006.0,3033.0,4095.0,4095.0,3036.0,3175.0,3632.0,-2.42,5.13,8.28,-0.07,-0.05,-0.04,1.0,l
2910.0,2994.0,3024.0,4095.0,4095.0,3034.0,3173.0,3632.0,-2.42,5.2,8.3,-0.06,0.04,-0.03,1.0,l
2918.0,3008.0,3037.0,4095.0,4095.0,3039.0,3173.0,3631.0,-2.46,5.13,8.33,-0.04,-0.01,-0.09,1.0,l
2901.0,2991.0,3024.0,4095.0,4095.0,3038.0,3173.0,3630.0,-2.49,5.12,8.42,-0.02,-0.01,-0.08,1.0,l
2910.0,3004.0,3029.0,4095.0,4095.0,3035.0,3166.0,3621.0,-2.69,5.0,8.39,-0.03,0.0,-0.06,1.0,l
2913.0,3002.0,3026.0,4095.0,4095.0,3038.0,3170.0,3632.0,-2.64,5.17,8.31,-0.02,0.01,-0.07,1.0,l
2907.0,2998.0,3021.0,4095.0,4095.0,3034.0,3168.0,3630.0,-2.66,5.14,8.15,-0.02,0.03,-0.05,1.0,l
2914.0,3009.0,3024.0,4095.0,4095.0,3037.0,3165.0,3619.0,-2.65,5.14,8.22,-0.05,-0.02,-0.04,1.0,l
2907.0,2998.0,3030.0,4095.0,4095.0,3036.0,3171.0,3623.0,-2.54,5.08,8.34,-0.03,-0.02,-0.05,1.0,l
2900.0,3005.0,3035.0,4095.0,4095.0,3043.0,3175.0,3632.0,-2.73,5.09,8.26,-0.11,-0.01,-0.03,1.0,l
2906.0,3002.0,3024.0,4095.0,4095.0,3045.0,3171.0,3635.0,-2.61,5.1,8.4,-0.06,-0.02,-0.04,1.0,l
2911.0,2998.0,3027.0,4095.0,4095.0,3047.0,3166.0,3627.0,-2.69,5.04,8.35,-0.06,0.01,-0.03,1.0,l
2916.0,2995.0,3025.0,4095.0,4095.0,3061.0,3174.0,3632.0,1.41,8.95,4.6,-0.09,-0.0,-0.03,1.0,l
2908.0,2995.0,3027.0,4095.0,4095.0,3062.0,3179.0,3632.0,1.39,8.98,4.62,-0.11,0.0,-0.03,1.0,l
2922.0,3000.0,3024.0,4095.0,4095.0,3067.0,3178.0,3643.0,1.5,8.94,4.83,-0.08,-0.01,-0.02,1.0,l
2903.0,2991.0,3024.0,4095.0,4095.0,3066.0,3182.0,3639.0,1.46,8.96,4.74,-0.08,-0.0,-0.04,1.0,l
2901.0,2994.0,3025.0,4095.0,4095.0,3061.0,3175.0,3634.0,1.51,8.88,4.85,-0.03,0.0,-0.03,1.0,l
2906.0,3008.0,3027.0,4095.0,4095.0,3065.0,3183.0,3641.0,1.43,9.01,4.68,-0.08,0.02,-0.04,1.0,l
2902.0,2993.0,3025.0,4095.0,4095.0,3063.0,3179.0,3635.0,1.47,8.94,4.68,-0.05,-0.04,-0.07,1.0,l
2915.0,3006.0,3021.0,4095.0,4095.0,3063.0,3175.0,3639.0,1.32,8.92,4.7,-0.07,0.02,-0.03,1.0,l
2906.0,2997.0,3024.0,4095.0,4095.0,3070.0,3184.0,3645.0,1.42,8.92,4.71,-0.06,-0.02,-0.04,1.0,l
2899.0,2990.0,3021.0,4095.0,4095.0,3069.0,3179.0,3633.0,1.45,8.92,4.77,-0.07,0.0,-0.02,1.0,l
2903.0,2994.0,3015.0,4095.0,4095.0,3061.0,3180.0,3632.0,1.48,8.96,4.72,-0.05,0.02,-0.02,1.0,l
2895.0,2992.0,3029.0,4095.0,4095.0,3063.0,3174.0,3632.0,1.49,8.9,4.69,-0.06,-0.0,-0.05,1.0,l
2910.0,2997.0,3031.0,4095.0,4095.0,3067.0,3178.0,3631.0,1.46,8.93,4.77,-0.03,0.02,-0.03,1.0,l
2899.0,3011.0,3040.0,4095.0,4095.0,3071.0,3178.0,3631.0,1.31,8.77,4.77,-0.09,-0.03,-0.04,1.0,l
2902.0,3001.0,3025.0,4095.0,4095.0,3062.0,3178.0,3640.0,1.44,9.01,4.67,-0.07,0.01,-0.02,1.0,l
2907.0,3007.0,3021.0,4095.0,4095.0,3064.0,3181.0,3635.0,1.44,8.85,4.7,-0.07,-0.02,-0.04,1.0,l
2912.0,2992.0,3024.0,4095.0,4095.0,3068.0,3174.0,3635.0,1.47,8.98,4.73,-0.06,0.02,-0.02,1.0,l
2911.0,2992.0,3025.0,4095.0,4095.0,3067.0,3173.0,3641.0,1.5,8.93,4.62,-0.05,-0.02,-0.04,1.0,l
2899.0,2992.0,3017.0,4095.0,4095.0,3065.0,3174.0,3631.0,1.44,8.95,4.76,-0.08,0.0,-0.04,1.0,l
2901.0,3002.0,3027.0,4095.0,4095.0,3067.0,3175.0,3632.0,1.36,8.86,4.73,-0.07,0.0,-0.02,1.0,l
2902.0,3006.0,3021.0,4095.0,4095.0,3099.0,3186.0,3645.0,-1.58,9.95,0.37,-0.06,0.02,-0.03,1.0,l
2899.0,2999.0,3041.0,4095.0,4095.0,3102.0,3184.0,3650.0,-1.38,9.89,0.38,-0.05,-0.02,-0.02,1.0,l
2915.0,3006.0,3030.0,4095.0,4095.0,3098.0,3184.0,3641.0,-1.44,9.92,0.19,-0.06,0.04,-0.02,1.0,l
2915.0,2993.0,3029.0,4095.0,4095.0,3097.0,3184.0,3650.0,-1.53,9.97,0.2,-0.06,-0.01,-0.05,1.0,l
2905.0,2993.0,3027.0,4095.0,4095.0,3098.0,3187.0,3651.0,-1.44,9.88,0.49,-0.13,0.01,0.01,1.0,l
2909.0,2998.0,3029.0,4095.0,4095.0,3103.0,3181.0,3639.0,-1.37,9.88,0.6,-0.09,0.0,-0.02,1.0,l
2910.0,2999.0,3027.0,4095.0,4095.0,3104.0,3186.0,3647.0,-1.32,9.91,0.59,-0.1,-0.02,-0.02,1.0,l
2919.0,3001.0,3024.0,4095.0,4095.0,3092.0,3184.0,3633.0,-1.25,9.94,0.51,-0.11,-0.01,-0.0,1.0,l
2916.0,2998.0,3031.0,4095.0,4095.0,3094.0,3181.0,3639.0,-1.31,9.92,0.43,-0.05,-0.06,-0.01,1.0,l
2910.0,3014.0,3026.0,4095.0,4095.0,3095.0,3183.0,3635.0,-1.38,9.96,0.45,-0.11,-0.0,-0.04,1.0,l
2911.0,2999.0,3024.0,4095.0,4095.0,3091.0,3185.0,3632.0,-1.48,9.97,0.43,-0.09,-0.03,-0.05,1.0,l
2909.0,2998.0,3033.0,4095.0,4095.0,3098.0,3191.0,3647.0,-1.47,9.84,0.61,-0.16,0.08,-0.02,1.0,l
2898.0,2997.0,3027.0,4095.0,4095.0,3088.0,3185.0,3643.0,-1.23,9.94,0.66,-0.09,0.0,0.01,1.0,l
2917.0,2994.0,3024.0,4095.0,4095.0,3088.0,3184.0,3639.0,-1.11,9.99,0.63,-0.12,0.11,-0.01,1.0,l
2902.0,2996.0,3017.0,4095.0,4095.0,3091.0,3191.0,3645.0,-1.25,9.91,0.64,-0.08,0.03,-0.06,1.0,l
2911.0,3001.0,3030.0,4095.0,4095.0,3093.0,3184.0,3635.0,-1.32,9.89,0.8,-0.09,0.02,-0.05,1.0,l
2918.0,2992.0,3017.0,4095.0,4095.0,3090.0,3184.0,3633.0,-1.44,9.88,0.73,-0.07,0.01,-0.04,1.0,l
2907.0,3007.0,3030.0,4095.0,4095.0,3097.0,3189.0,3645.0,-1.47,9.95,0.65,-0.05,0.02,-0.04,1.0,l
2912.0,2992.0,3024.0,4095.0,4095.0,3090.0,3184.0,3633.0,-1.59,9.71,0.8,-0.07,-0.01,-0.03,1.0,l
2897.0,3001.0,3024.0,4095.0,4095.0,3090.0,3187.0,3637.0,-1.35,9.9,0.74,-0.09,0.05,-0.01,1.0,l
2912.0,2997.0,3024.0,4095.0,4095.0,3094.0,3190.0,3635.0,-1.23,9.96,0.85,-0.09,0.0,-0.03,1.0,l
2911.0,2995.0,3034.0,4095.0,4095.0,3099.0,3191.0,3654.0,-1.21,9.93,0.98,-0.1,0.01,-0.02,1.0,l
2912.0,3006.0,3024.0,4095.0,4095.0,3101.0,3195.0,3653.0,-1.12,9.9,1.14,-0.09,-0.01,-0.03,1.0,l
2903.0,2993.0,3024.0,4095.0,4095.0,3093.0,3186.0,3649.0,-1.17,9.87,1.18,-0.08,0.0,-0.04,1.0,l
2915.0,3003.0,3024.0,4095.0,4095.0,3103.0,3198.0,3649.0,-1.17,9.9,1.1,-0.06,0.01,-0.04,1.0,l
2911.0,2999.0,3025.0,4095.0,4095.0,3099.0,3186.0,3650.0,-1.21,9.9,1.12,-0.05,-0.02,-0.05,1.0,l
2902.0,3003.0,3024.0,4095.0,4095.0,3100.0,3194.0,3650.0,-1.21,9.92,1.1,-0.06,-0.01,-0.04,1.0,l
2912.0,2993.0,3029.0,4095.0,4095.0,3097.0,3187.0,3638.0,-1.17,9.91,1.08,-0.05,-0.01,-0.04,1.0,l
2899.0,2995.0,3026.0,4095.0,4095.0,3097.0,3184.0,3659.0,-1.18,9.95,1.0,-0.06,-0.01,-0.04,1.0,l
2902.0,2998.0,3024.0,4095.0,4095.0,3101.0,3189.0,3650.0,-1.2,9.88,1.14,-0.07,-0.02,-0.04,1.0,l
2925.0,2997.0,3035.0,4095.0,4095.0,3095.0,3185.0,3645.0,-1.2,9.86,1.13,-0.05,0.01,-0.02,1.0,l
2910.0,3004.0,3021.0,4095.0,4095.0,3094.0,3189.0,3645.0,-0.97,9.93,1.08,0.01,-0.05,-0.04,1.0,l
2910.0,2992.0,3023.0,4095.0,4095.0,3097.0,3188.0,3651.0,-1.12,9.95,0.99,-0.02,-0.01,-0.08,1.0,l
2903.0,2986.0,3024.0,4095.0,4095.0,3090.0,3185.0,3637.0,-1.24,10.0,0.99,-0.03,-0.01,-0.06,1.0,l
2911.0,2995.0,3027.0,4095.0,4095.0,3088.0,3188.0,3626.0,-1.3,9.89,1.05,-0.01,-0.03,-0.05,1.0,l
2910.0,3007.0,3027.0,4095.0,4095.0,3083.0,3187.0,3635.0,-1.19,9.93,0.91,-0.03,0.0,-0.04,1.0,l
2913.0,2993.0,3030.0,4095.0,4095.0,3090.0,3190.0,3633.0,-1.11,9.96,0.9,-0.04,-0.01,-0.03,1.0,l
2907.0,2986.0,3027.0,4095.0,4095.0,3084.0,3184.0,3634.0,-1.26,9.9,1.04,-0.08,-0.01,-0.06,1.0,l
2909.0,2997.0,3033.0,4095.0,4095.0,3093.0,3186.0,3640.0,-1.25,9.9,0.97,-0.04,-0.0,-0.03,1.0,l
2915.0,2998.0,3033.0,4095.0,4095.0,3092.0,3188.0,3630.0,-1.21,9.96,0.95,-0.06,0.01,-0.04,1.0,l
2914.0,2992.0,3025.0,4095.0,4095.0,3105.0,3188.0,3666.0,-0.26,6.79,7.74,-0.03,-0.01,-0.01,1.0,l
2911.0,2992.0,3023.0,4095.0,4095.0,3106.0,3189.0,3668.0,-0.21,6.82,7.72,-0.03,0.15,0.01,1.0,l
2918.0,2999.0,3027.0,4095.0,4095.0,3111.0,3194.0,3662.0,-0.2,6.84,7.6,0.01,-0.06,-0.06,1.0,l
2910.0,2991.0,3024.0,4095.0,4095.0,3115.0,3193.0,3680.0,-0.08,6.88,7.65,0.02,0.01,-0.05,1.0,l
2912.0,3003.0,3033.0,4095.0,4095.0,3111.0,3199.0,3666.0,-0.16,6.93,7.58,0.04,-0.0,-0.1,1.0,l
2917.0,3002.0,3034.0,4095.0,4095.0,3111.0,3189.0,3665.0,-0.25,6.94,7.28,0.03,0.08,-0.13,1.0,l
2913.0,2995.0,3020.0,4095.0,4095.0,3109.0,3200.0,3680.0,-0.52,6.99,7.25,-0.03,0.09,-0.12,1.0,l
2910.0,3007.0,3017.0,4095.0,4095.0,3105.0,3191.0,3664.0,-0.62,7.0,7.29,-0.03,-0.02,-0.11,1.0,l
2899.0,2994.0,3025.0,4095.0,4095.0,3113.0,3195.0,3676.0,-0.69,6.94,7.31,-0.04,-0.01,-0.1,1.0,l
2913.0,2993.0,3018.0,4095.0,4095.0,3105.0,3189.0,3671.0,-0.75,6.98,7.38,-0.06,0.02,-0.05,1.0,l
2916.0,3005.0,3025.0,4095.0,4095.0,3115.0,3191.0,3667.0,-0.62,6.93,7.35,-0.06,-0.04,-0.05,1.0,l
2909.0,2994.0,3028.0,4095.0,4095.0,3114.0,3197.0,3670.0,-0.56,6.98,7.41,-0.05,-0.02,-0.03,1.0,l
2917.0,3001.0,3028.0,4095.0,4095.0,3116.0,3201.0,3677.0,-0.48,7.02,7.43,-0.04,-0.02,-0.02,1.0,l
2912.0,2993.0,3022.0,4095.0,4095.0,3106.0,3189.0,3668.0,-0.52,7.02,7.37,-0.07,-0.0,-0.01,1.0,l
2912.0,2994.0,3029.0,4095.0,4095.0,3115.0,3194.0,3679.0,-0.49,6.96,7.48,-0.08,-0.02,-0.01,1.0,l
2911.0,3004.0,3022.0,4095.0,4095.0,3114.0,3201.0,3676.0,-0.48,6.9,7.51,-0.07,0.02,-0.0,1.0,l
2909.0,2994.0,3019.0,4095.0,4095.0,3105.0,3191.0,3662.0,-0.52,6.92,7.51,-0.07,0.05,0.02,1.0,l
2910.0,3001.0,3027.0,4095.0,4095.0,3107.0,3195.0,3671.0,-0.45,6.94,7.41,-0.07,0.05,-0.03,1.0,l
2909.0,2996.0,3025.0,4095.0,4095.0,3117.0,3200.0,3670.0,-0.38,6.92,7.52,-0.06,0.02,-0.02,1.0,l
2907.0,2999.0,3024.0,4095.0,4095.0,3110.0,3189.0,3663.0,-0.4,7.01,7.28,-0.09,0.07,-0.02,1.0,l
2914.0,2993.0,3023.0,4095.0,4095.0,3118.0,3195.0,3664.0,1.7,8.99,4.58,-0.06,0.02,0.04,1.0,l
2902.0,3007.0,3025.0,4095.0,4095.0,3121.0,3203.0,3679.0,1.91,9.08,4.46,-0.04,0.03,-0.02,1.0,l
2905.0,2992.0,3016.0,4095.0,4095.0,3119.0,3202.0,3684.0,1.72,9.01,4.55,-0.11,0.01,-0.09,1.0,l
2911.0,3002.0,3021.0,4095.0,4095.0,3117.0,3197.0,3669.0,1.41,8.98,4.69,-0.05,0.0,-0.1,1.0,l
2913.0,3007.0,3024.0,4095.0,4095.0,3126.0,3203.0,3674.0,1.11,8.93,4.67,0.01,0.13,-0.07,1.0,l
2899.0,2992.0,3023.0,4095.0,4095.0,3117.0,3198.0,3664.0,1.13,9.24,4.24,-0.03,0.11,-0.03,1.0,l
2912.0,2989.0,3013.0,4095.0,4095.0,3117.0,3198.0,3677.0,1.42,9.04,4.46,-0.06,-0.08,-0.02,1.0,l
2914.0,2999.0,3027.0,4095.0,4095.0,3123.0,3205.0,3677.0,1.83,9.16,4.56,-0.03,-0.05,-0.1,1.0,l
2906.0,2992.0,3018.0,4095.0,4095.0,3117.0,3202.0,3674.0,1.38,9.04,4.53,-0.05,-0.1,-0.14,1.0,l
2896.0,2999.0,3031.0,4095.0,4095.0,3120.0,3202.0,3674.0,1.16,9.12,4.39,-0.02,0.0,-0.06,1.0,l
2912.0,2993.0,3021.0,4095.0,4095.0,3119.0,3199.0,3671.0,1.1,9.17,4.3,-0.03,-0.04,-0.06,1.0,l
2898.0,2998.0,3024.0,4095.0,4095.0,3119.0,3201.0,3674.0,1.47,9.17,4.26,-0.03,-0.01,-0.04,1.0,l
2900.0,2995.0,3024.0,4095.0,4095.0,3120.0,3206.0,3677.0,1.36,9.17,4.18,-0.06,-0.03,-0.03,1.0,l
2899.0,2993.0,3022.0,4095.0,4095.0,3122.0,3207.0,3679.0,1.37,9.11,4.36,-0.07,-0.04,-0.05,1.0,l
2897.0,3003.0,3027.0,4095.0,4095.0,3126.0,3205.0,3682.0,1.28,9.1,4.46,-0.08,0.01,-0.04,1.0,l
2898.0,2995.0,3023.0,4095.0,4095.0,3121.0,3203.0,3679.0,1.28,9.06,4.49,-0.07,-0.01,-0.03,1.0,l
2911.0,2997.0,3024.0,4095.0,4095.0,3120.0,3199.0,3671.0,1.39,9.05,4.54,-0.06,-0.02,-0.03,1.0,l
2911.0,3005.0,3023.0,4095.0,4095.0,3122.0,3205.0,3680.0,1.35,9.1,4.45,-0.04,0.01,-0.03,1.0,l
2900.0,2990.0,3027.0,4095.0,4095.0,3117.0,3197.0,3671.0,1.41,9.12,4.42,-0.04,-0.02,-0.04,1.0,l
2905.0,3003.0,3030.0,4095.0,4095.0,3125.0,3205.0,3671.0,1.36,9.11,4.3,-0.05,0.03,-0.03,1.0,l
2914.0,2999.0,3028.0,4095.0,4095.0,3099.0,3198.0,3664.0,-5.54,7.16,3.77,-0.03,0.03,-0.05,1.0,l
2915.0,2993.0,3024.0,4095.0,4095.0,3098.0,3201.0,3686.0,-5.72,7.16,3.72,-0.05,-0.01,-0.06,1.0,l
2921.0,3003.0,3034.0,4095.0,4095.0,3098.0,3203.0,3670.0,-5.7,7.15,3.67,-0.05,-0.01,-0.08,1.0,l
2915.0,2997.0,3022.0,4095.0,4095.0,3093.0,3200.0,3673.0,-5.77,7.2,3.56,-0.06,0.02,-0.05,1.0,l
2906.0,3008.0,3027.0,4095.0,4095.0,3101.0,3197.0,3664.0,-5.7,7.17,3.62,-0.02,-0.01,-0.03,1.0,l
2912.0,2992.0,3029.0,4095.0,4095.0,3095.0,3206.0,3668.0,-5.74,7.21,3.51,-0.09,0.0,-0.04,1.0,l
2912.0,3001.0,3029.0,4095.0,4095.0,3101.0,3199.0,3664.0,-5.65,7.25,3.56,-0.07,0.03,-0.01,1.0,l
2923.0,2999.0,3024.0,4095.0,4095.0,3099.0,3205.0,3671.0,-5.76,7.04,3.62,-0.07,0.02,-0.03,1.0,l
2914.0,3008.0,3018.0,4095.0,4095.0,3099.0,3207.0,3681.0,-5.75,7.16,3.65,-0.09,-0.03,-0.06,1.0,l
2917.0,2998.0,3027.0,4095.0,4095.0,3099.0,3203.0,3678.0,-5.72,7.08,3.77,-0.06,0.03,-0.02,1.0,l
2905.0,2994.0,3026.0,4095.0,4095.0,3095.0,3200.0,3675.0,-5.65,7.18,3.64,-0.07,0.0,-0.04,1.0,l
2907.0,2992.0,3029.0,4095.0,4095.0,3093.0,3198.0,3667.0,-5.73,7.11,3.67,-0.08,-0.02,-0.02,1.0,l
2910.0,2995.0,3035.0,4095.0,4095.0,3102.0,3203.0,3669.0,-5.83,7.07,3.71,-0.07,-0.04,-0.01,1.0,l
2914.0,2995.0,3031.0,4095.0,4095.0,3101.0,3204.0,3680.0,-5.68,7.18,3.8,-0.02,-0.03,-0.05,1.0,l
2909.0,3001.0,3015.0,4095.0,4095.0,3095.0,3200.0,3671.0,-5.63,7.13,3.61,-0.05,-0.01,-0.02,1.0,l
2909.0,2992.0,3025.0,4095.0,4095.0,3095.0,3204.0,3680.0,-5.61,7.2,3.63,-0.06,-0.02,-0.02,1.0,l
2911.0,2995.0,3022.0,4095.0,4095.0,3093.0,3198.0,3667.0,-5.61,7.22,3.56,-0.08,0.06,-0.03,1.0,l
2899.0,2990.0,3029.0,4095.0,4095.0,3097.0,3203.0,3683.0,-5.7,7.2,3.6,-0.08,-0.01,-0.03,1.0,l
2907.0,3003.0,3025.0,4095.0,4095.0,3094.0,3199.0,3678.0,-5.67,7.17,3.65,-0.08,-0.03,-0.06,1.0,l
2909.0,2989.0,3024.0,4095.0,4095.0,3093.0,3199.0,3677.0,-5.62,7.14,3.72,-0.07,-0.02,-0.06,1.0,l
2911.0,3005.0,3027.0,4095.0,4095.0,3093.0,3205.0,3680.0,-0.38,9.9,1.83,-0.05,0.01,0.03,1.0,l
2906.0,2998.0,3029.0,4095.0,4095.0,3097.0,3203.0,3686.0,-0.61,9.89,2.03,-0.11,0.04,-0.03,1.0,l
2910.0,3001.0,3026.0,4095.0,4095.0,3094.0,3203.0,3695.0,-0.52,9.89,1.89,-0.05,-0.01,-0.05,1.0,l
2911.0,2992.0,3028.0,4095.0,4095.0,3100.0,3210.0,3686.0,-0.74,9.94,1.82,-0.05,0.03,-0.07,1.0,l
2915.0,3006.0,3018.0,4095.0,4095.0,3094.0,3202.0,3685.0,-0.87,9.78,1.9,-0.03,-0.05,-0.07,1.0,l
2918.0,3008.0,3030.0,4095.0,4095.0,3101.0,3207.0,3691.0,-0.89,9.9,1.6,-0.04,0.05,-0.04,1.0,l
2899.0,2989.0,3024.0,4095.0,4095.0,3094.0,3203.0,3683.0,-0.85,9.93,1.58,-0.05,-0.01,-0.03,1.0,l
2926.0,2993.0,3024.0,4095.0,4095.0,3092.0,3200.0,3679.0,-0.63,9.93,1.69,-0.07,0.03,-0.02,1.0,l
2909.0,3008.0,3028.0,4095.0,4095.0,3101.0,3214.0,3679.0,-0.75,9.91,1.71,-0.08,0.05,-0.02,1.0,l
2901.0,2992.0,3024.0,4095.0,4095.0,3099.0,3207.0,3695.0,-0.7,9.89,1.82,-0.06,-0.01,-0.05,1.0,l
2911.0,3005.0,3023.0,4095.0,4095.0,3102.0,3202.0,3673.0,-0.79,9.9,1.8,-0.06,0.01,-0.04,1.0,l
2901.0,3005.0,3027.0,4095.0,4095.0,3103.0,3210.0,3688.0,-0.75,9.86,1.76,-0.09,0.04,-0.04,1.0,l
2901.0,3011.0,3021.0,4095.0,4095.0,3101.0,3207.0,3697.0,-0.71,9.96,1.79,-0.02,0.03,-0.05,1.0,l
2901.0,2994.0,3026.0,4095.0,4095.0,3099.0,3206.0,3686.0,-0.68,9.91,1.6,-0.1,-0.02,-0.05,1.0,l
2907.0,3007.0,3031.0,4095.0,4095.0,3102.0,3205.0,3676.0,-0.73,9.9,1.66,-0.09,-0.0,-0.07,1.0,l
2911.0,2997.0,3025.0,4095.0,4095.0,3098.0,3205.0,3683.0,-0.91,9.85,1.81,-0.1,0.02,-0.07,1.0,l
2926.0,3015.0,3024.0,4095.0,4095.0,3097.0,3205.0,3680.0,-0.9,9.88,1.87,-0.08,0.02,-0.03,1.0,l
2901.0,2995.0,3020.0,4095.0,4095.0,3102.0,3203.0,3691.0,-0.72,9.83,1.84,-0.06,0.02,-0.03,1.0,l
2911.0,2988.0,3027.0,4095.0,4095.0,3098.0,3205.0,3690.0,-0.79,9.87,1.83,-0.07,0.08,-0.02,1.0,l
2914.0,3006.0,3024.0,4095.0,4095.0,3106.0,3211.0,3681.0,-0.71,9.91,1.77,-0.06,-0.01,-0.07,1.0,l
2923.0,3005.0,3029.0,4095.0,4095.0,3111.0,3207.0,3697.0,-2.03,6.61,7.25,-0.06,-0.01,-0.03,1.0,l
2912.0,3005.0,3015.0,4095.0,4095.0,3109.0,3203.0,3680.0,-1.99,6.68,7.4,-0.06,-0.04,-0.02,1.0,l
2911.0,3001.0,3032.0,4095.0,4095.0,3114.0,3203.0,3691.0,-1.89,6.67,7.43,-0.02,0.0,-0.03,1.0,l
2909.0,2995.0,3029.0,4095.0,4095.0,3110.0,3211.0,3696.0,-1.94,6.69,7.24,-0.04,0.04,-0.04,1.0,l
2899.0,3008.0,3022.0,4095.0,4095.0,3107.0,3205.0,3683.0,-1.98,6.63,7.32,-0.04,-0.0,-0.05,1.0,l
2906.0,2986.0,3021.0,4095.0,4095.0,3103.0,3205.0,3695.0,-2.17,6.59,7.38,-0.06,-0.01,-0.02,1.0,l
2896.0,3003.0,3022.0,4095.0,4095.0,3112.0,3212.0,3696.0,-2.08,6.67,7.33,-0.05,-0.03,-0.02,1.0,l
2909.0,3005.0,3029.0,4095.0,4095.0,3115.0,3213.0,3688.0,-1.98,6.73,7.37,-0.03,-0.07,-0.01,1.0,l
2912.0,3010.0,3031.0,4095.0,4095.0,3107.0,3203.0,3682.0,-1.98,6.82,7.08,-0.06,0.03,0.0,1.0,l
2899.0,2993.0,3024.0,4095.0,4095.0,3111.0,3210.0,3693.0,-1.93,6.62,7.27,-0.07,-0.04,-0.03,1.0,l
2908.0,3004.0,3024.0,4095.0,4095.0,3111.0,3203.0,3685.0,-1.88,6.58,7.48,-0.1,-0.01,-0.03,1.0,l
2909.0,2992.0,3035.0,4095.0,4095.0,3119.0,3210.0,3697.0,-1.87,6.57,7.65,-0.07,-0.02,-0.03,1.0,l
2911.0,2997.0,3033.0,4095.0,4095.0,3120.0,3217.0,3694.0,-1.9,6.61,7.5,-0.06,0.02,-0.04,1.0,l
2923.0,3009.0,3033.0,4095.0,4095.0,3110.0,3207.0,3690.0,-1.88,6.64,7.48,-0.03,-0.01,-0.04,1.0,l
2899.0,3005.0,3027.0,4095.0,4095.0,3119.0,3210.0,3696.0,-2.08,6.65,7.31,-0.06,0.05,-0.03,1.0,l
2911.0,3001.0,3021.0,4095.0,4095.0,3115.0,3210.0,3696.0,-1.97,6.71,7.26,-0.04,-0.01,-0.04,1.0,l
2902.0,2989.0,3024.0,4095.0,4095.0,3117.0,3206.0,3695.0,-2.06,6.64,7.32,-0.08,0.03,-0.03,1.0,l
2914.0,3009.0,3031.0,4095.0,4095.0,3120.0,3211.0,3690.0,-2.01,6.66,7.35,-0.05,-0.02,-0.04,1.0,l
2915.0,3007.0,3023.0,4095.0,4095.0,3111.0,3205.0,3693.0,-1.98,6.65,7.39,-0.08,0.01,-0.04,1.0,l
2906.0,2993.0,3010.0,4095.0,4095.0,3116.0,3207.0,3690.0,-2.05,6.65,7.38,-0.05,-0.02,-0.04,1.0,l
2900.0,2993.0,3024.0,4095.0,4095.0,3120.0,3213.0,3697.0,-0.25,8.96,4.62,-0.12,-0.05,-0.09,1.0,l
2913.0,2991.0,3029.0,4095.0,4095.0,3122.0,3211.0,3698.0,-0.45,8.91,4.81,-0.14,-0.02,-0.08,1.0,l
2911.0,2991.0,3018.0,4095.0,4095.0,3119.0,3207.0,3682.0,-0.26,8.84,4.92,-0.09,0.02,-0.05,1.0,l
2899.0,2987.0,3021.0,4095.0,4095.0,3120.0,3210.0,3686.0,-0.38,8.87,4.94,-0.11,-0.02,-0.06,1.0,l
2913.0,2998.0,3027.0,4095.0,4095.0,3124.0,3215.0,3685.0,-0.48,8.77,5.13,-0.06,-0.05,-0.05,1.0,l
2910.0,2994.0,3024.0,4095.0,4095.0,3120.0,3213.0,3681.0,-0.54,8.83,5.07,-0.04,0.04,0.0,1.0,l
2911.0,3008.0,3024.0,4095.0,4095.0,3123.0,3216.0,3696.0,-0.38,8.86,4.91,-0.04,-0.01,-0.01,1.0,l
2917.0,2994.0,3021.0,4095.0,4095.0,3123.0,3214.0,3695.0,-0.12,8.96,4.77,-0.03,0.02,-0.01,1.0,l
2906.0,3008.0,3024.0,4095.0,4095.0,3123.0,3215.0,3693.0,-0.21,8.98,4.68,-0.06,-0.0,-0.04,1.0,l
2916.0,2995.0,3019.0,4095.0,4095.0,3120.0,3205.0,3683.0,-0.28,8.91,4.83,-0.05,-0.01,-0.03,1.0,l
2914.0,3003.0,3033.0,4095.0,4095.0,3121.0,3216.0,3695.0,-0.33,8.86,4.94,-0.07,-0.01,-0.04,1.0,l
2915.0,3001.0,3022.0,4095.0,4095.0,3115.0,3207.0,3686.0,-0.36,8.9,4.86,-0.09,-0.01,-0.03,1.0,l
2907.0,2992.0,3026.0,4095.0,4095.0,3127.0,3216.0,3699.0,-0.31,8.88,4.93,-0.04,-0.02,-0.03,1.0,l
2912.0,3008.0,3024.0,4095.0,4095.0,3124.0,3216.0,3697.0,-0.33,8.85,4.83,-0.09,0.01,-0.03,1.0,l
2911.0,3006.0,3030.0,4095.0,4095.0,3123.0,3213.0,3680.0,-0.27,8.93,4.81,-0.09,-0.01,-0.04,1.0,l
2901.0,2995.0,3019.0,4095.0,4095.0,3120.0,3210.0,3695.0,-0.35,8.94,4.86,-0.05,0.02,-0.04,1.0,l
2922.0,3002.0,3021.0,4095.0,4095.0,3126.0,3213.0,3678.0,-0.45,8.84,4.9,-0.07,-0.02,-0.02,1.0,l
2910.0,2998.0,3027.0,4095.0,4095.0,3119.0,3205.0,3689.0,-0.45,8.85,4.92,-0.08,0.01,-0.01,1.0,l
2909.0,3008.0,3024.0,4095.0,4095.0,3119.0,3212.0,3686.0,-0.48,8.88,4.86,-0.07,0.02,0.02,1.0,l
2918.0,2999.0,3024.0,4095.0,4095.0,3121.0,3216.0,3684.0,-0.63,8.89,4.77,-0.11,0.02,0.06,1.0,l
2917.0,2993.0,3024.0,4095.0,4095.0,3127.0,3216.0,3694.0,1.31,7.55,6.82,-0.08,0.04,-0.05,1.0,l
2911.0,2999.0,3025.0,4095.0,4095.0,3122.0,3211.0,3690.0,1.12,7.49,6.69,-0.06,-0.01,-0.02,1.0,l
2907.0,2998.0,3024.0,4095.0,4095.0,3123.0,3211.0,3696.0,1.34,7.49,6.77,-0.11,-0.01,-0.01,1.0,l
2910.0,2988.0,3024.0,4095.0,4095.0,3132.0,3216.0,3695.0,1.52,7.45,6.91,-0.14,-0.02,-0.02,1.0,l
2897.0,2989.0,3033.0,4095.0,4095.0,3130.0,3215.0,3695.0,1.57,7.25,7.22,-0.11,-0.06,-0.03,1.0,l
2906.0,3006.0,3035.0,4095.0,4095.0,3130.0,3211.0,3690.0,1.36,7.25,7.26,-0.07,0.0,-0.03,1.0,l
2908.0,2999.0,3024.0,4095.0,4095.0,3122.0,3214.0,3695.0,1.33,7.3,7.08,-0.04,-0.02,-0.05,1.0,l
2907.0,2995.0,3021.0,4095.0,4095.0,3132.0,3216.0,3696.0,1.35,7.41,7.07,0.0,0.02,-0.03,1.0,l
2906.0,2998.0,3024.0,4095.0,4095.0,3125.0,3215.0,3690.0,1.37,7.42,6.86,-0.02,-0.01,-0.04,1.0,l
2911.0,3003.0,3023.0,4095.0,4095.0,3131.0,3217.0,3696.0,1.34,7.48,6.72,-0.04,0.02,-0.01,1.0,l
2909.0,2994.0,3033.0,4095.0,4095.0,3127.0,3216.0,3681.0,1.48,7.48,6.77,-0.07,-0.03,-0.02,1.0,l
2908.0,3005.0,3024.0,4095.0,4095.0,3127.0,3215.0,3696.0,1.7,7.44,6.95,-0.07,-0.05,-0.05,1.0,l
2906.0,2999.0,3024.0,4095.0,4095.0,3123.0,3212.0,3695.0,1.37,7.37,6.94,-0.08,0.01,-0.06,1.0,l
2910.0,3005.0,3017.0,4095.0,4095.0,3127.0,3216.0,3696.0,1.35,7.29,7.2,-0.05,-0.06,-0.05,1.0,l
2923.0,2992.0,3029.0,4095.0,4095.0,3132.0,3211.0,3687.0,1.37,7.34,7.06,-0.05,0.06,-0.03,1.0,l
2913.0,2997.0,3019.0,4095.0,4095.0,3123.0,3210.0,3696.0,1.41,7.37,6.92,-0.01,-0.01,-0.04,1.0,l
2902.0,2995.0,3024.0,4095.0,4095.0,3126.0,3215.0,3698.0,1.37,7.39,7.0,0.1,-0.03,-0.06,1.0,l
2915.0,3001.0,3027.0,4095.0,4095.0,3120.0,3206.0,3685.0,1.41,7.49,6.87,0.03,-0.0,-0.03,1.0,l
2910.0,3001.0,3024.0,4095.0,4095.0,3122.0,3215.0,3693.0,1.49,7.46,6.97,-0.03,-0.05,-0.04,1.0,l
2902.0,3002.0,3030.0,4095.0,4095.0,3121.0,3216.0,3700.0,1.48,7.64,6.67,-0.05,0.0,-0.03,1.0,l
2907.0,3005.0,3020.0,4095.0,4095.0,3119.0,3203.0,3691.0,-5.46,7.52,3.36,-0.13,-0.02,0.04,1.0,l
2921.0,2996.0,3035.0,4095.0,4095.0,3123.0,3214.0,3694.0,-5.35,7.46,3.5,-0.14,-0.01,0.04,1.0,l
2918.0,3005.0,3035.0,4095.0,4095.0,3120.0,3211.0,3683.0,-5.44,7.5,3.45,-0.12,-0.04,0.17,1.0,l
2907.0,2995.0,3025.0,4095.0,4095.0,3120.0,3214.0,3697.0,-5.1,7.57,3.83,-0.12,-0.04,0.01,1.0,l
2914.0,3006.0,3026.0,4095.0,4095.0,3116.0,3206.0,3692.0,-5.07,7.61,3.62,-0.04,0.06,0.04,1.0,l
2909.0,3003.0,3024.0,4095.0,4095.0,3120.0,3207.0,3701.0,-5.17,7.6,3.46,-0.06,-0.0,-0.08,1.0,l
2899.0,2991.0,3022.0,4095.0,4095.0,3120.0,3211.0,3695.0,-5.27,7.58,3.47,-0.06,0.0,-0.03,1.0,l
2917.0,2999.0,3024.0,4095.0,4095.0,3124.0,3211.0,3693.0,-5.32,7.48,3.62,-0.05,-0.03,-0.09,1.0,l
2923.0,3008.0,3024.0,4095.0,4095.0,3119.0,3207.0,3696.0,-5.23,7.65,3.56,-0.01,0.03,-0.03,1.0,l
2918.0,2993.0,3023.0,4095.0,4095.0,3119.0,3213.0,3699.0,-5.24,7.69,3.27,-0.0,0.03,-0.05,1.0,l
2907.0,2992.0,3011.0,4095.0,4095.0,3120.0,3204.0,3690.0,-5.33,7.61,3.22,-0.04,0.04,-0.05,1.0,l
2912.0,3007.0,3022.0,4095.0,4095.0,3126.0,3214.0,3699.0,-5.35,7.62,3.19,-0.06,-0.01,-0.08,1.0,l
2914.0,3003.0,3022.0,4095.0,4095.0,3121.0,3215.0,3703.0,-5.43,7.58,3.28,-0.12,0.01,-0.06,1.0,l
2917.0,3006.0,3024.0,4095.0,4095.0,3124.0,3211.0,3686.0,-5.38,7.52,3.48,-0.07,-0.03,-0.04,1.0,l
2907.0,2992.0,3022.0,4095.0,4095.0,3120.0,3213.0,3699.0,-5.31,7.54,3.53,-0.07,0.03,-0.01,1.0,l
2912.0,2993.0,3024.0,4095.0,4095.0,3121.0,3214.0,3702.0,-5.28,7.52,3.42,-0.05,0.06,0.0,1.0,l
2906.0,2992.0,3024.0,4095.0,4095.0,3120.0,3214.0,3699.0,-5.26,7.56,3.47,-0.05,-0.01,-0.03,1.0,l
2915.0,3004.0,3034.0,4095.0,4095.0,3120.0,3209.0,3697.0,-5.26,7.53,3.37,-0.08,0.03,-0.04,1.0,l
2902.0,3005.0,3027.0,4095.0,4095.0,3118.0,3211.0,3698.0,-5.27,7.62,3.39,-0.07,0.0,-0.04,1.0,l
2911.0,2997.0,3018.0,4095.0,4095.0,3116.0,3209.0,3699.0,-5.36,7.52,3.5,-0.05,0.04,-0.02,1.0,l
2911.0,2998.0,3024.0,4095.0,4095.0,3120.0,3211.0,3699.0,0.83,8.54,5.32,-0.03,0.03,-0.05,1.0,l
2906.0,2990.0,3026.0,4095.0,4095.0,3126.0,3216.0,3701.0,0.52,8.24,5.71,-0.14,-0.08,-0.06,1.0,l
2906.0,2993.0,3024.0,4095.0,4095.0,3119.0,3215.0,3698.0,0.7,8.27,5.94,-0.11,0.0,-0.02,1.0,l
2910.0,2996.0,3024.0,4095.0,4095.0,3122.0,3209.0,3697.0,0.64,8.06,6.18,-0.13,-0.02,-0.0,1.0,l
2898.0,2992.0,3035.0,4095.0,4095.0,3131.0,3217.0,3700.0,0.81,8.28,6.03,-0.12,0.03,-0.0,1.0,l
2909.0,2997.0,3022.0,4095.0,4095.0,3123.0,3216.0,3696.0,0.8,8.13,6.08,-0.09,0.0,-0.03,1.0,l
2911.0,2993.0,3023.0,4095.0,4095.0,3123.0,3215.0,3694.0,0.79,8.13,6.19,-0.11,0.04,-0.02,1.0,l
2913.0,2993.0,3021.0,4095.0,4095.0,3125.0,3219.0,3703.0,0.59,8.1,6.21,-0.11,-0.0,-0.03,1.0,l
2903.0,3007.0,3024.0,4095.0,4095.0,3120.0,3209.0,3696.0,0.82,8.13,6.29,-0.04,-0.01,-0.02,1.0,l
2911.0,2996.0,3024.0,4095.0,4095.0,3125.0,3216.0,3706.0,0.76,8.13,6.18,-0.05,0.02,-0.03,1.0,l
2912.0,2991.0,3022.0,4095.0,4095.0,3121.0,3213.0,3701.0,0.77,8.2,6.0,-0.02,0.0,-0.04,1.0,l
2907.0,2993.0,3023.0,4095.0,4095.0,3122.0,3218.0,3702.0,0.7,8.13,6.14,-0.06,-0.01,-0.04,1.0,l
2905.0,3002.0,3023.0,4095.0,4095.0,3126.0,3211.0,3701.0,0.79,8.2,6.05,-0.05,0.01,-0.02,1.0,l
2902.0,2987.0,3024.0,4095.0,4095.0,3121.0,3216.0,3697.0,0.69,8.11,6.02,-0.07,-0.0,-0.03,1.0,l
2911.0,2997.0,3024.0,4095.0,4095.0,3125.0,3216.0,3709.0,0.79,8.21,6.09,-0.07,0.03,-0.01,1.0,l
2906.0,2999.0,3031.0,4095.0,4095.0,3126.0,3216.0,3696.0,0.75,8.14,6.05,-0.06,0.01,-0.05,1.0,l
2907.0,2997.0,3021.0,4095.0,4095.0,3125.0,3218.0,3701.0,0.74,8.1,6.27,-0.07,-0.03,-0.04,1.0,l
2903.0,2991.0,3019.0,4095.0,4095.0,3124.0,3216.0,3694.0,0.74,8.12,6.16,-0.05,0.02,-0.04,1.0,l
2918.0,2999.0,3023.0,4095.0,4095.0,3129.0,3216.0,3696.0,0.74,8.14,6.1,-0.03,-0.0,-0.04,1.0,l
2911.0,3005.0,3027.0,4095.0,4095.0,3130.0,3218.0,3699.0,0.7,8.13,6.07,-0.06,-0.01,-0.04,1.0,l
2910.0,3003.0,3023.0,4095.0,4095.0,3120.0,3214.0,3685.0,0.85,10.02,1.72,-0.03,0.34,0.03,1.0,l
2914.0,3007.0,3027.0,4095.0,4095.0,3071.0,3205.0,3679.0,0.75,9.93,2.14,0.02,-0.11,-0.01,1.0,l
2915.0,2993.0,3021.0,4095.0,4095.0,3051.0,3189.0,3648.0,1.01,9.77,2.51,-0.0,0.15,0.01,1.0,l
2918.0,3003.0,3027.0,4095.0,4095.0,3053.0,3181.0,3623.0,0.72,9.82,2.32,-0.13,0.19,0.02,1.0,l
2903.0,2998.0,3033.0,4095.0,4095.0,3040.0,3181.0,3619.0,1.0,9.82,2.64,-0.0,0.02,-0.05,1.0,l
2907.0,2999.0,3024.0,4095.0,4095.0,3024.0,3177.0,3583.0,0.7,9.87,2.36,0.12,0.29,0.0,1.0,l
2899.0,2999.0,3031.0,4095.0,4095.0,3017.0,3174.0,3583.0,0.8,9.55,2.1,-0.1,0.01,0.0,1.0,l
2910.0,2997.0,3042.0,4095.0,4095.0,3019.0,3182.0,3575.0,0.82,10.06,2.11,-0.03,0.18,-0.09,1.0,l
2911.0,2992.0,3023.0,4095.0,4095.0,3047.0,3184.0,3575.0,0.58,9.55,2.43,0.03,0.0,-0.03,1.0,l
2919.0,2997.0,3028.0,4095.0,4095.0,3056.0,3190.0,3581.0,0.56,10.32,1.91,-0.14,0.1,-0.01,1.0,l
2914.0,2989.0,3035.0,4095.0,4095.0,3071.0,3189.0,3583.0,0.67,9.84,2.12,-0.03,0.02,-0.06,1.0,l
2905.0,3001.0,3033.0,4095.0,4095.0,3071.0,3189.0,3573.0,0.76,9.9,2.18,-0.07,-0.0,-0.03,1.0,l
2901.0,2993.0,3034.0,4095.0,4095.0,3085.0,3200.0,3597.0,0.68,9.94,2.14,-0.04,0.06,-0.03,1.0,l
2898.0,3003.0,3035.0,4095.0,4095.0,3071.0,3190.0,3575.0,0.55,9.68,2.3,-0.1,0.0,-0.0,1.0,l
2911.0,3002.0,3039.0,4095.0,4095.0,3088.0,3199.0,3570.0,0.68,9.85,2.35,0.03,0.03,-0.05,1.0,l
2909.0,2994.0,3030.0,4095.0,4095.0,3089.0,3197.0,3583.0,0.59,9.96,2.13,-0.15,0.03,0.0,1.0,l
2907.0,3006.0,3037.0,4095.0,4095.0,3094.0,3200.0,3582.0,0.88,10.13,1.94,-0.07,0.04,-0.05,1.0,l
2912.0,3005.0,3031.0,4095.0,4095.0,3088.0,3193.0,3575.0,0.69,9.44,2.45,-0.12,-0.08,-0.07,1.0,l
2914.0,3006.0,3026.0,4095.0,4095.0,3091.0,3198.0,3583.0,0.68,10.16,2.26,-0.01,0.07,-0.11,1.0,l
2907.0,3005.0,3049.0,4095.0,4095.0,3090.0,3197.0,3583.0,0.62,9.9,2.15,-0.01,-0.01,-0.08,1.0,l
2918.0,3001.0,3042.0,4095.0,4095.0,3095.0,3187.0,3583.0,-1.33,8.19,5.46,-1.1,-0.06,-0.57,1.0,l
2913.0,3000.0,3031.0,4095.0,4095.0,3086.0,3184.0,3599.0,-1.72,7.47,6.34,-1.07,-0.05,-0.52,1.0,l
2920.0,2998.0,3029.0,4095.0,4095.0,3098.0,3185.0,3612.0,-2.13,7.36,7.4,-0.85,-0.03,-0.42,1.0,l
2913.0,2997.0,3035.0,4095.0,4095.0,3089.0,3187.0,3583.0,-2.46,7.03,7.42,-0.72,0.07,-0.32,1.0,l
2906.0,2992.0,3027.0,4095.0,4095.0,3091.0,3189.0,3613.0,-2.36,7.11,7.56,-0.43,0.01,-0.26,1.0,l
2915.0,2998.0,3041.0,4095.0,4095.0,3091.0,3187.0,3611.0,-2.41,6.98,7.77,-0.3,-0.03,-0.17,1.0,l
2905.0,3004.0,3029.0,4095.0,4095.0,3094.0,3191.0,3614.0,-2.25,7.08,7.35,-0.11,0.02,-0.11,1.0,l
2901.0,2992.0,3033.0,4095.0,4095.0,3090.0,3187.0,3607.0,-2.2,7.18,6.98,-0.07,0.06,-0.06,1.0,l
2905.0,2995.0,3024.0,4095.0,4095.0,3089.0,3186.0,3615.0,-2.1,7.35,6.62,-0.04,0.0,-0.04,1.0,l
2910.0,3007.0,3034.0,4095.0,4095.0,3089.0,3184.0,3601.0,-2.05,7.32,6.54,-0.07,-0.0,-0.06,1.0,l
2909.0,2991.0,3025.0,4095.0,4095.0,3089.0,3190.0,3614.0,-2.11,7.44,6.56,-0.1,-0.01,-0.04,1.0,l
2915.0,2992.0,3028.0,4095.0,4095.0,3088.0,3187.0,3605.0,-2.18,7.26,6.56,-0.11,-0.02,-0.05,1.0,l
2918.0,2992.0,3027.0,4095.0,4095.0,3097.0,3190.0,3612.0,-2.07,7.34,6.68,-0.09,0.0,-0.0,1.0,l
2917.0,3007.0,3039.0,4095.0,4095.0,3097.0,3195.0,3617.0,-2.07,7.19,6.64,-0.14,0.03,-0.0,1.0,l
2915.0,2993.0,3039.0,4095.0,4095.0,3093.0,3197.0,3611.0,-1.92,7.32,6.82,-0.07,-0.01,-0.03,1.0,l
2910.0,2999.0,3038.0,4095.0,4095.0,3097.0,3195.0,3619.0,-1.97,7.22,6.85,-0.15,0.01,-0.04,1.0,l
2924.0,3006.0,3027.0,4095.0,4095.0,3088.0,3190.0,3606.0,-2.0,7.19,6.89,-0.03,-0.04,-0.05,1.0,l
2911.0,2997.0,3039.0,4095.0,4095.0,3091.0,3190.0,3614.0,-2.04,7.18,6.88,-0.06,0.03,-0.05,1.0,l
2903.0,3004.0,3038.0,4095.0,4095.0,3097.0,3199.0,3617.0,-2.07,7.18,6.87,-0.06,0.01,-0.02,1.0,l
2901.0,3001.0,3034.0,4095.0,4095.0,3092.0,3195.0,3614.0,-2.23,7.18,6.79,-0.06,-0.04,-0.01,1.0,l
2905.0,2995.0,3032.0,4095.0,4095.0,3110.0,3201.0,3616.0,0.86,9.31,3.9,-0.08,0.06,-0.04,1.0,l
2908.0,3017.0,3035.0,4095.0,4095.0,3109.0,3201.0,3618.0,0.62,9.29,4.13,-0.14,-0.02,-0.05,1.0,l
2919.0,2992.0,3043.0,4095.0,4095.0,3100.0,3203.0,3622.0,0.6,9.18,4.33,-0.14,0.0,-0.03,1.0,l
2905.0,3003.0,3028.0,4095.0,4095.0,3108.0,3203.0,3628.0,0.6,9.1,4.63,-0.1,-0.02,-0.02,1.0,l
2911.0,2989.0,3028.0,4095.0,4095.0,3102.0,3205.0,3628.0,0.74,9.04,4.72,-0.05,-0.01,-0.0,1.0,l
2911.0,2999.0,3038.0,4095.0,4095.0,3108.0,3199.0,3620.0,0.69,9.05,4.4,-0.07,0.06,-0.0,1.0,l
2916.0,2995.0,3029.0,4095.0,4095.0,3101.0,3199.0,3617.0,0.9,9.2,4.35,-0.09,-0.01,-0.02,1.0,l
2896.0,3002.0,3035.0,4095.0,4095.0,3105.0,3203.0,3630.0,0.76,9.15,4.52,-0.06,0.05,-0.07,1.0,l
2911.0,3004.0,3040.0,4095.0,4095.0,3104.0,3201.0,3626.0,0.45,9.16,4.43,-0.1,0.01,-0.05,1.0,l
2908.0,2995.0,3041.0,4095.0,4095.0,3099.0,3202.0,3622.0,0.59,9.11,4.46,-0.04,0.01,-0.05,1.0,l
2925.0,2994.0,3039.0,4095.0,4095.0,3107.0,3197.0,3613.0,0.58,9.05,4.42,-0.09,-0.03,-0.03,1.0,l
2900.0,3007.0,3042.0,4095.0,4095.0,3108.0,3202.0,3624.0,0.79,9.34,4.29,0.0,0.02,-0.02,1.0,l
2915.0,2995.0,3038.0,4095.0,4095.0,3099.0,3198.0,3619.0,0.65,9.03,4.49,-0.05,-0.06,-0.05,1.0,l
2922.0,2999.0,3029.0,4095.0,4095.0,3103.0,3198.0,3629.0,0.74,9.1,4.59,-0.02,-0.0,-0.04,1.0,l
2910.0,2991.0,3038.0,4095.0,4095.0,3106.0,3201.0,3622.0,0.56,9.15,4.37,-0.01,0.03,-0.04,1.0,l
2901.0,2991.0,3026.0,4095.0,4095.0,3099.0,3200.0,3622.0,0.67,9.19,4.3,-0.03,-0.04,-0.04,1.0,l
2905.0,2999.0,3041.0,4095.0,4095.0,3113.0,3205.0,3622.0,0.69,9.21,4.17,-0.07,0.03,-0.03,1.0,l
2909.0,2997.0,3031.0,4095.0,4095.0,3105.0,3205.0,3629.0,0.77,9.15,4.53,-0.05,-0.04,-0.06,1.0,l
2917.0,3003.0,3030.0,4095.0,4095.0,3107.0,3201.0,3606.0,0.65,9.17,4.38,-0.05,0.06,-0.04,1.0,l
2908.0,2999.0,3031.0,4095.0,4095.0,3113.0,3207.0,3627.0,0.58,9.21,4.32,-0.06,-0.01,-0.06,1.0,l
2917.0,2993.0,3024.0,4095.0,4095.0,3104.0,3199.0,3613.0,-2.0,9.47,2.21,-0.12,0.08,0.03,1.0,l
2906.0,2994.0,3026.0,4095.0,4095.0,3101.0,3200.0,3619.0,-2.18,9.55,2.59,-0.1,-0.08,0.05,1.0,l
2914.0,3002.0,3031.0,4095.0,4095.0,3103.0,3197.0,3610.0,-2.26,9.23,2.81,-0.08,-0.09,-0.13,1.0,l
2912.0,2997.0,3042.0,4095.0,4095.0,3106.0,3197.0,3613.0,-2.46,9.45,2.5,0.0,0.05,-0.07,1.0,l
2911.0,2998.0,3037.0,4095.0,4095.0,3102.0,3197.0,3619.0,-2.61,9.38,2.24,-0.11,-0.02,-0.06,1.0,l
2901.0,2999.0,3040.0,4095.0,4095.0,3101.0,3203.0,3619.0,-2.92,9.39,2.37,-0.07,-0.15,-0.07,1.0,l
2910.0,2998.0,3031.0,4095.0,4095.0,3102.0,3199.0,3622.0,-3.18,9.26,2.69,-0.13,-0.13,0.03,1.0,l
2910.0,3011.0,3034.0,4095.0,4095.0,3104.0,3197.0,3615.0,-2.58,9.31,2.7,0.03,-0.09,0.16,1.0,l
2907.0,2994.0,3040.0,4095.0,4095.0,3109.0,3198.0,3607.0,-1.99,9.48,2.39,-0.0,-0.02,0.16,1.0,l
2906.0,2997.0,3031.0,4095.0,4095.0,3106.0,3197.0,3627.0,-1.64,9.59,2.29,-0.02,0.06,0.1,1.0,l
2909.0,2999.0,3031.0,4095.0,4095.0,3109.0,3202.0,3611.0,-1.6,9.57,2.44,-0.09,-0.06,0.0,1.0,l
2905.0,3002.0,3037.0,4095.0,4095.0,3109.0,3203.0,3625.0,-1.84,9.39,2.5,-0.1,0.01,-0.05,1.0,l
2911.0,2992.0,3034.0,4095.0,4095.0,3104.0,3199.0,3614.0,-2.22,9.55,2.53,-0.05,0.06,-0.08,1.0,l
2903.0,2995.0,3030.0,4095.0,4095.0,3102.0,3201.0,3616.0,-2.38,9.33,2.43,-0.05,0.06,-0.07,1.0,l
2909.0,3001.0,3025.0,4095.0,4095.0,3110.0,3198.0,3619.0,-2.28,9.52,2.29,-0.04,0.03,-0.04,1.0,l
2901.0,3003.0,3035.0,4095.0,4095.0,3109.0,3205.0,3630.0,-2.29,9.5,2.21,-0.09,0.04,-0.02,1.0,l
2910.0,2997.0,3032.0,4095.0,4095.0,3109.0,3201.0,3623.0,-1.93,9.52,2.43,-0.09,-0.08,-0.05,1.0,l
2905.0,3006.0,3035.0,4095.0,4095.0,3107.0,3199.0,3622.0,-1.98,9.47,2.5,-0.06,0.05,-0.06,1.0,l
2914.0,2998.0,3031.0,4095.0,4095.0,3110.0,3205.0,3623.0,-2.46,9.49,2.43,-0.08,0.02,-0.05,1.0,l
2902.0,2992.0,3022.0,4095.0,4095.0,3102.0,3199.0,3618.0,-2.4,9.4,2.65,-0.07,-0.07,-0.02,1.0,l
2917.0,2992.0,3031.0,4095.0,4095.0,3108.0,3202.0,3632.0,0.59,7.87,6.55,-0.04,0.02,-0.05,1.0,l
2915.0,3000.0,3035.0,4095.0,4095.0,3110.0,3201.0,3631.0,0.72,7.83,6.43,-0.07,-0.05,-0.05,1.0,l
2911.0,2994.0,3035.0,4095.0,4095.0,3115.0,3204.0,3628.0,0.72,7.91,6.45,-0.01,0.02,-0.06,1.0,l
2907.0,2992.0,3025.0,4095.0,4095.0,3109.0,3206.0,3635.0,0.6,7.87,6.49,-0.06,-0.03,-0.08,1.0,l
2906.0,3004.0,3029.0,4095.0,4095.0,3114.0,3199.0,3629.0,0.4,7.9,6.45,-0.08,-0.01,-0.06,1.0,l
2901.0,2998.0,3029.0,4095.0,4095.0,3113.0,3205.0,3634.0,0.43,7.77,6.57,-0.06,-0.04,-0.06,1.0,l
2917.0,2997.0,3037.0,4095.0,4095.0,3117.0,3205.0,3634.0,0.49,7.86,6.54,-0.05,0.01,-0.05,1.0,l
2917.0,2992.0,3030.0,4095.0,4095.0,3116.0,3206.0,3641.0,0.61,7.87,6.59,-0.03,-0.05,-0.05,1.0,l
2909.0,2999.0,3034.0,4095.0,4095.0,3117.0,3202.0,3631.0,0.61,7.85,6.46,-0.04,0.04,-0.03,1.0,l
2899.0,2992.0,3031.0,4095.0,4095.0,3114.0,3203.0,3634.0,0.59,7.84,6.49,-0.05,-0.01,-0.05,1.0,l
2910.0,2998.0,3034.0,4095.0,4095.0,3110.0,3202.0,3627.0,0.57,7.83,6.56,-0.01,-0.0,-0.03,1.0,l
2917.0,3008.0,3034.0,4095.0,4095.0,3118.0,3206.0,3634.0,0.6,7.9,6.48,-0.05,-0.05,-0.04,1.0,l
2908.0,2989.0,3038.0,4095.0,4095.0,3115.0,3207.0,3633.0,0.63,7.88,6.48,-0.04,-0.02,-0.03,1.0,l
2906.0,2992.0,3030.0,4095.0,4095.0,3109.0,3200.0,3627.0,0.74,7.89,6.49,-0.04,-0.03,-0.05,1.0,l
2910.0,3002.0,3038.0,4095.0,4095.0,3118.0,3203.0,3641.0,0.63,8.01,6.3,-0.03,0.0,-0.05,1.0,l
2913.0,2995.0,3031.0,4095.0,4095.0,3112.0,3210.0,3634.0,0.54,7.86,6.46,-0.04,-0.01,-0.05,1.0,l
2921.0,3007.0,3041.0,4095.0,4095.0,3108.0,3201.0,3632.0,0.58,7.95,6.43,-0.07,0.01,-0.05,1.0,l
2907.0,2999.0,3031.0,4095.0,4095.0,3113.0,3202.0,3632.0,0.45,7.93,6.41,-0.06,-0.05,-0.05,1.0,l
2908.0,2992.0,3024.0,4095.0,4095.0,3111.0,3200.0,3632.0,0.64,7.86,6.48,-0.06,-0.02,-0.04,1.0,l
2909.0,3008.0,3037.0,4095.0,4095.0,3111.0,3204.0,3622.0,0.61,7.99,6.37,-0.04,0.02,-0.02,1.0,l
2906.0,2992.0,3025.0,4095.0,4095.0,3120.0,3201.0,3638.0,-0.85,9.94,1.11,-0.17,-0.12,-0.13,1.0,l
2913.0,2994.0,3029.0,4095.0,4095.0,3123.0,3207.0,3643.0,-0.76,9.91,1.33,-0.15,0.13,-0.09,1.0,l
2907.0,3001.0,3035.0,4095.0,4095.0,3126.0,3200.0,3632.0,-1.14,9.89,1.35,-0.18,0.37,-0.0,1.0,l
2909.0,2994.0,3028.0,4095.0,4095.0,3124.0,3210.0,3639.0,-0.91,9.93,1.4,-0.12,0.19,-0.03,1.0,l
2905.0,2995.0,3034.0,4095.0,4095.0,3123.0,3204.0,3632.0,-0.78,9.96,1.38,-0.13,0.17,-0.02,1.0,l
2912.0,2996.0,3042.0,4095.0,4095.0,3131.0,3203.0,3639.0,-0.76,9.94,1.52,-0.08,-0.03,-0.06,1.0,l
2907.0,2997.0,3031.0,4095.0,4095.0,3129.0,3197.0,3625.0,-0.93,9.93,1.45,-0.1,0.07,-0.04,1.0,l
2909.0,2989.0,3031.0,4095.0,4095.0,3129.0,3207.0,3642.0,-0.94,9.92,1.44,-0.09,0.1,-0.04,1.0,l
2917.0,2992.0,3039.0,4095.0,4095.0,3133.0,3210.0,3635.0,-0.98,9.89,1.49,-0.12,0.1,-0.0,1.0,l
2912.0,2993.0,3031.0,4095.0,4095.0,3131.0,3213.0,3645.0,-0.78,9.91,1.43,-0.07,-0.02,-0.02,1.0,l
2906.0,3002.0,3031.0,4095.0,4095.0,3127.0,3207.0,3633.0,-0.7,9.96,1.46,-0.06,0.03,-0.02,1.0,l
2911.0,2992.0,3035.0,4095.0,4095.0,3133.0,3202.0,3632.0,-0.71,10.01,1.33,-0.09,0.02,-0.04,1.0,l
2906.0,2999.0,3028.0,4095.0,4095.0,3125.0,3205.0,3647.0,-0.75,9.93,1.34,-0.13,0.11,-0.06,1.0,l
2901.0,2983.0,3024.0,4095.0,4095.0,3125.0,3201.0,3645.0,-0.97,9.96,1.41,-0.14,0.06,-0.04,1.0,l
2909.0,3005.0,3041.0,4095.0,4095.0,3127.0,3212.0,3648.0,-0.87,9.91,1.4,-0.11,0.01,-0.05,1.0,l
2913.0,2997.0,3029.0,4095.0,4095.0,3122.0,3203.0,3635.0,-0.97,9.86,1.65,-0.16,0.03,-0.03,1.0,l
2901.0,2995.0,3038.0,4095.0,4095.0,3126.0,3214.0,3645.0,-0.91,9.89,1.82,-0.09,0.01,-0.02,1.0,l
2909.0,2993.0,3037.0,4095.0,4095.0,3134.0,3207.0,3639.0,-0.67,9.84,1.87,-0.08,-0.01,-0.03,1.0,l
2905.0,2999.0,3034.0,4095.0,4095.0,3134.0,3213.0,3645.0,-0.75,9.89,1.61,-0.08,0.05,-0.05,1.0,l
2903.0,2997.0,3027.0,4095.0,4095.0,3125.0,3201.0,3632.0,-0.95,9.96,1.6,-0.08,-0.02,-0.06,1.0,l
2901.0,2998.0,3026.0,4095.0,4095.0,3154.0,3244.0,3725.0,-1.96,6.65,7.92,-0.19,0.05,-0.07,1.0,l
2901.0,2998.0,3026.0,4095.0,4095.0,3154.0,3244.0,3725.0,-1.96,6.65,7.92,-0.19,0.05,-0.07,1.0,l
2915.0,2997.0,3024.0,4095.0,4095.0,3157.0,3240.0,3727.0,-2.09,6.49,7.92,-0.12,-0.04,-0.02,1.0,l
2908.0,3008.0,3024.0,4095.0,4095.0,3152.0,3241.0,3730.0,-1.73,6.77,7.62,-0.03,0.02,-0.01,1.0,l
2909.0,2996.0,3023.0,4095.0,4095.0,3155.0,3241.0,3725.0,-1.54,6.79,7.35,-0.01,-0.04,-0.02,1.0,l
2922.0,2997.0,3028.0,4095.0,4095.0,3157.0,3246.0,3728.0,-1.43,6.94,7.13,-0.03,0.02,-0.03,1.0,l
2915.0,3007.0,3024.0,4095.0,4095.0,3153.0,3248.0,3719.0,-1.53,6.9,7.03,-0.09,0.03,-0.06,1.0,l
2908.0,2996.0,3028.0,4095.0,4095.0,3154.0,3243.0,3725.0,-1.73,6.82,7.18,-0.12,0.01,-0.06,1.0,l
2907.0,3002.0,3030.0,4095.0,4095.0,3153.0,3248.0,3739.0,-1.87,6.74,7.35,-0.14,-0.02,-0.04,1.0,l
2913.0,2996.0,3018.0,4095.0,4095.0,3152.0,3241.0,3728.0,-1.71,6.69,7.61,-0.05,-0.03,-0.03,1.0,l
2916.0,2992.0,3021.0,4095.0,4095.0,3151.0,3245.0,3727.0,-1.61,6.68,7.46,-0.04,0.01,0.0,1.0,l
2913.0,3007.0,3025.0,4095.0,4095.0,3152.0,3239.0,3734.0,-1.49,6.74,7.3,-0.08,-0.01,-0.02,1.0,l
2901.0,3002.0,3012.0,4095.0,4095.0,3150.0,3238.0,3727.0,-1.54,6.83,7.28,-0.06,0.01,-0.02,1.0,l
2912.0,2995.0,3025.0,4095.0,4095.0,3152.0,3243.0,3734.0,-1.6,6.77,7.35,-0.1,-0.01,-0.05,1.0,l
2918.0,3007.0,3031.0,4095.0,4095.0,3155.0,3247.0,3728.0,-1.71,6.84,7.33,-0.1,0.02,-0.03,1.0,l
2906.0,2999.0,3023.0,4095.0,4095.0,3156.0,3247.0,3726.0,-1.74,6.62,7.47,-0.09,-0.02,-0.03,1.0,l
2918.0,2995.0,3029.0,4095.0,4095.0,3152.0,3245.0,3728.0,-1.71,6.74,7.42,-0.09,0.04,-0.0,1.0,l
2903.0,3015.0,3022.0,4095.0,4095.0,3157.0,3248.0,3728.0,-1.56,6.79,7.41,-0.07,-0.02,-0.02,1.0,l
2903.0,3007.0,3025.0,4095.0,4095.0,3151.0,3238.0,3727.0,-1.6,6.81,7.34,-0.08,0.01,-0.02,1.0,l
2913.0,3006.0,3029.0,4095.0,4095.0,3149.0,3239.0,3725.0,-1.58,6.69,7.39,-0.11,-0.03,-0.04,1.0,l
2912.0,3001.0,3024.0,4095.0,4095.0,3141.0,3245.0,3707.0,-1.34,9.96,0.67,-0.1,0.04,-0.03,1.0,l
2913.0,2986.0,3019.0,4095.0,4095.0,3131.0,3248.0,3712.0,-1.29,9.84,0.73,-0.1,-0.01,-0.02,1.0,l
2912.0,2996.0,3022.0,4095.0,4095.0,3136.0,3246.0,3714.0,-1.29,9.9,0.68,-0.1,0.03,-0.02,1.0,l
2918.0,2992.0,3024.0,4095.0,4095.0,3138.0,3252.0,3722.0,-1.27,9.89,0.64,-0.11,0.02,-0.03,1.0,l
2911.0,2992.0,3033.0,4095.0,4095.0,3140.0,3249.0,3719.0,-1.18,9.9,0.76,-0.12,0.03,-0.01,1.0,l
2914.0,2991.0,3035.0,4095.0,4095.0,3136.0,3248.0,3708.0,-1.25,9.91,0.74,-0.07,0.04,-0.04,1.0,l
2913.0,2993.0,3033.0,4095.0,4095.0,3137.0,3249.0,3712.0,-1.25,9.93,0.84,-0.13,0.0,-0.03,1.0,l
2914.0,2992.0,3026.0,4095.0,4095.0,3141.0,3249.0,3718.0,-1.31,9.97,0.9,-0.06,-0.0,-0.02,1.0,l
2913.0,2994.0,3020.0,4095.0,4095.0,3136.0,3249.0,3703.0,-1.31,9.9,0.91,-0.06,0.0,-0.03,1.0,l
2911.0,2997.0,3020.0,4095.0,4095.0,3136.0,3248.0,3722.0,-1.21,9.91,0.95,-0.03,0.02,-0.04,1.0,l
2918.0,2994.0,3024.0,4095.0,4095.0,3138.0,3250.0,3711.0,-1.29,9.86,0.85,-0.05,0.05,-0.02,1.0,l
2912.0,2993.0,3026.0,4095.0,4095.0,3138.0,3245.0,3709.0,-1.26,9.93,0.77,-0.07,-0.02,-0.03,1.0,l
2918.0,3005.0,3029.0,4095.0,4095.0,3137.0,3245.0,3706.0,-1.19,9.9,0.8,-0.03,-0.01,-0.05,1.0,l
2909.0,2991.0,3024.0,4095.0,4095.0,3139.0,3248.0,3726.0,-1.33,9.95,0.71,-0.05,0.0,-0.05,1.0,l
2914.0,2991.0,3021.0,4095.0,4095.0,3133.0,3243.0,3712.0,-1.35,9.98,0.58,-0.08,0.03,-0.04,1.0,l
2918.0,2998.0,3027.0,4095.0,4095.0,3142.0,3249.0,3726.0,-1.33,9.87,0.76,-0.08,-0.01,-0.02,1.0,l
2909.0,2992.0,3018.0,4095.0,4095.0,3135.0,3246.0,3714.0,-1.32,9.89,0.68,-0.1,0.08,-0.02,1.0,l
2922.0,2995.0,3026.0,4095.0,4095.0,3141.0,3250.0,3719.0,-1.35,9.93,0.64,-0.13,0.04,-0.0,1.0,l
2903.0,3001.0,3031.0,4095.0,4095.0,3140.0,3251.0,3715.0,-1.2,9.8,0.98,-0.11,0.01,-0.02,1.0,l
2913.0,2994.0,3025.0,4095.0,4095.0,3142.0,3250.0,3711.0,-1.25,9.93,1.02,-0.12,0.04,-0.01,1.0,l
2921.0,2993.0,3024.0,4095.0,4095.0,3132.0,3212.0,3680.0,-3.47,5.46,7.7,-0.08,-0.01,-0.0,1.0,l
2907.0,2992.0,3023.0,4095.0,4095.0,3125.0,3215.0,3676.0,-3.3,5.48,7.86,-0.1,-0.02,0.0,1.0,l
2909.0,2993.0,3031.0,4095.0,4095.0,3133.0,3218.0,3690.0,-3.17,5.47,7.78,-0.1,-0.02,-0.02,1.0,l
2903.0,2994.0,3029.0,4095.0,4095.0,3136.0,3215.0,3675.0,-3.13,5.47,7.92,-0.05,-0.04,-0.02,1.0,l
2913.0,2991.0,3025.0,4095.0,4095.0,3136.0,3214.0,3668.0,-3.07,5.41,8.04,-0.05,-0.02,-0.04,1.0,l
2906.0,2983.0,3024.0,4095.0,4095.0,3131.0,3216.0,3675.0,-3.35,5.38,7.86,-0.06,0.04,-0.04,1.0,l
2911.0,3005.0,3038.0,4095.0,4095.0,3136.0,3221.0,3682.0,-3.29,5.47,7.87,-0.03,-0.02,-0.04,1.0,l
2906.0,2987.0,3024.0,4095.0,4095.0,3135.0,3216.0,3683.0,-3.27,5.5,7.79,-0.02,0.03,-0.03,1.0,l
2917.0,2983.0,3024.0,4095.0,4095.0,3136.0,3215.0,3671.0,-3.22,5.51,7.76,-0.03,0.01,-0.04,1.0,l
2922.0,2992.0,3030.0,4095.0,4095.0,3144.0,3223.0,3677.0,-3.22,5.47,7.77,-0.07,-0.01,-0.03,1.0,l
2911.0,3001.0,3024.0,4095.0,4095.0,3142.0,3223.0,3690.0,-3.3,5.52,7.7,-0.07,-0.01,-0.04,1.0,l
2908.0,3002.0,3024.0,4095.0,4095.0,3142.0,3218.0,3690.0,-3.29,5.5,7.74,-0.07,0.0,-0.03,1.0,l
2922.0,2992.0,3031.0,4095.0,4095.0,3145.0,3219.0,3679.0,-3.34,5.48,7.78,-0.07,-0.0,-0.03,1.0,l
2910.0,2992.0,3025.0,4095.0,4095.0,3142.0,3220.0,3685.0,-3.29,5.48,7.78,-0.05,0.01,-0.01,1.0,l
2911.0,2998.0,3027.0,4095.0,4095.0,3147.0,3227.0,3678.0,-3.18,5.46,7.76,-0.08,-0.02,-0.02,1.0,l
2903.0,2992.0,3031.0,4095.0,4095.0,3137.0,3218.0,3687.0,-3.18,5.52,7.74,-0.07,0.0,-0.03,1.0,l
2912.0,2991.0,3030.0,4095.0,4095.0,3143.0,3221.0,3685.0,-3.17,5.47,7.91,-0.07,-0.02,-0.04,1.0,l
2919.0,2999.0,3031.0,4095.0,4095.0,3139.0,3217.0,3685.0,-3.18,5.54,7.81,-0.06,0.01,-0.04,1.0,l
2912.0,2986.0,3030.0,4095.0,4095.0,3147.0,3223.0,3690.0,-3.25,5.49,7.76,-0.03,0.01,-0.04,1.0,l
2907.0,3002.0,3038.0,4095.0,4095.0,3147.0,3221.0,3678.0,-3.11,5.5,8.08,0.03,0.1,0.0,1.0,l
2922.0,2995.0,3031.0,4095.0,4095.0,3152.0,3226.0,3687.0,0.95,9.39,3.85,-0.09,0.05,-0.03,1.0,l
2906.0,2995.0,3019.0,4095.0,4095.0,3152.0,3222.0,3695.0,0.8,9.38,3.87,-0.1,0.03,-0.04,1.0,l
2918.0,2988.0,3024.0,4095.0,4095.0,3152.0,3227.0,3690.0,0.91,9.3,4.08,-0.07,-0.02,-0.03,1.0,l
2909.0,2995.0,3031.0,4095.0,4095.0,3158.0,3231.0,3694.0,0.92,9.26,4.1,-0.09,-0.0,-0.02,1.0,l
2912.0,2987.0,3024.0,4095.0,4095.0,3152.0,3223.0,3696.0,0.93,9.25,4.08,-0.07,0.01,-0.03,1.0,l
2906.0,2987.0,3018.0,4095.0,4095.0,3153.0,3223.0,3695.0,0.91,9.32,4.08,-0.05,-0.01,-0.05,1.0,l
2914.0,2988.0,3024.0,4095.0,4095.0,3159.0,3223.0,3690.0,0.93,9.34,3.93,-0.02,-0.01,-0.05,1.0,l
2903.0,2990.0,3023.0,4095.0,4095.0,3157.0,3233.0,3695.0,0.87,9.33,3.91,-0.03,0.0,-0.06,1.0,l
2912.0,2992.0,3023.0,4095.0,4095.0,3159.0,3235.0,3696.0,0.82,9.33,3.8,-0.05,0.02,-0.04,1.0,l
2908.0,2987.0,3031.0,4095.0,4095.0,3152.0,3225.0,3687.0,0.82,9.36,3.84,-0.08,-0.01,-0.05,1.0,l
2899.0,2989.0,3026.0,4095.0,4095.0,3162.0,3234.0,3701.0,0.84,9.4,3.85,-0.07,0.03,-0.03,1.0,l
2907.0,2993.0,3019.0,4095.0,4095.0,3154.0,3227.0,3696.0,0.75,9.28,3.96,-0.09,0.0,-0.03,1.0,l
2913.0,2992.0,3023.0,4095.0,4095.0,3155.0,3227.0,3691.0,0.84,9.29,4.05,-0.1,0.01,-0.02,1.0,l
2913.0,3005.0,3029.0,4095.0,4095.0,3157.0,3225.0,3696.0,0.92,9.27,4.11,-0.08,0.01,-0.02,1.0,l
2908.0,2992.0,3024.0,4095.0,4095.0,3158.0,3226.0,3701.0,0.99,9.32,4.05,-0.06,0.01,-0.04,1.0,l
2927.0,2992.0,3023.0,4095.0,4095.0,3159.0,3234.0,3705.0,0.91,9.34,3.95,-0.03,0.0,-0.04,1.0,l
2917.0,2991.0,3030.0,4095.0,4095.0,3158.0,3232.0,3698.0,0.83,9.32,3.95,-0.06,-0.0,-0.04,1.0,l
2910.0,2995.0,3025.0,4095.0,4095.0,3163.0,3236.0,3696.0,0.9,9.34,3.9,-0.07,0.01,-0.03,1.0,l
2911.0,2994.0,3034.0,4095.0,4095.0,3163.0,3232.0,3696.0,0.83,9.36,3.93,-0.09,-0.01,-0.03,1.0,l
2907.0,3002.0,3024.0,4095.0,4095.0,3163.0,3229.0,3696.0,1.0,9.32,4.03,-0.08,-0.01,-0.03,1.0,l
2910.0,2992.0,3027.0,4095.0,4095.0,3137.0,3236.0,3696.0,-4.77,8.05,3.06,-0.06,-0.06,-0.04,1.0,l
2907.0,2996.0,3024.0,4095.0,4095.0,3139.0,3233.0,3695.0,-5.01,7.89,3.1,-0.1,0.05,-0.03,1.0,l
2914.0,2997.0,3024.0,4095.0,4095.0,3143.0,3236.0,3695.0,-4.97,7.94,3.18,-0.05,-0.03,-0.05,1.0,l
2911.0,3005.0,3033.0,4095.0,4095.0,3141.0,3237.0,3699.0,-4.98,7.89,3.22,-0.06,0.04,-0.03,1.0,l
2921.0,2995.0,3024.0,4095.0,4095.0,3143.0,3236.0,3703.0,-4.99,8.02,3.06,-0.05,0.01,-0.03,1.0,l
2914.0,2989.0,3030.0,4095.0,4095.0,3140.0,3232.0,3694.0,-4.99,7.97,3.0,-0.07,-0.0,-0.04,1.0,l
2899.0,2991.0,3028.0,4095.0,4095.0,3145.0,3239.0,3699.0,-5.01,7.98,3.0,-0.07,0.03,-0.04,1.0,l
2903.0,2998.0,3023.0,4095.0,4095.0,3142.0,3235.0,3694.0,-5.05,7.95,3.06,-0.06,0.0,-0.04,1.0,l
2906.0,3005.0,3033.0,4095.0,4095.0,3138.0,3236.0,3697.0,-5.01,7.9,3.24,-0.01,-0.02,-0.03,1.0,l
2911.0,2981.0,3027.0,4095.0,4095.0,3142.0,3230.0,3696.0,-4.97,8.08,3.02,0.01,0.06,-0.02,1.0,l
2918.0,2998.0,3024.0,4095.0,4095.0,3146.0,3237.0,3697.0,-5.03,7.94,2.94,-0.08,0.04,-0.02,1.0,l
2911.0,2999.0,3023.0,4095.0,4095.0,3146.0,3232.0,3693.0,-5.0,8.03,2.96,-0.08,-0.01,-0.04,1.0,l
2923.0,2990.0,3021.0,4095.0,4095.0,3139.0,3234.0,3696.0,-4.96,7.95,3.1,-0.11,-0.02,-0.01,1.0,l
2912.0,2996.0,3021.0,4095.0,4095.0,3142.0,3229.0,3693.0,-4.87,8.02,3.15,-0.08,0.03,-0.02,1.0,l
2911.0,2995.0,3026.0,4095.0,4095.0,3146.0,3229.0,3698.0,-4.94,8.06,3.11,-0.06,0.01,-0.02,1.0,l
2903.0,2998.0,3027.0,4095.0,4095.0,3143.0,3236.0,3697.0,-4.85,8.02,3.06,-0.05,-0.01,-0.03,1.0,l
2912.0,3001.0,3023.0,4095.0,4095.0,3149.0,3235.0,3698.0,-4.91,7.97,3.08,-0.07,0.01,-0.06,1.0,l
2903.0,3005.0,3027.0,4095.0,4095.0,3146.0,3233.0,3701.0,-4.99,7.98,3.15,-0.07,-0.01,-0.06,1.0,l
2915.0,3003.0,3024.0,4095.0,4095.0,3150.0,3237.0,3696.0,-5.02,7.98,3.13,-0.05,0.01,-0.04,1.0,l
2912.0,3004.0,3025.0,4095.0,4095.0,3145.0,3232.0,3696.0,-4.94,7.99,3.03,-0.04,0.0,-0.04,1.0,l
2904.0,3004.0,3018.0,4095.0,4095.0,3153.0,3236.0,3701.0,0.47,10.07,1.23,-0.12,-0.01,-0.04,1.0,l
2914.0,2992.0,3031.0,4095.0,4095.0,3152.0,3229.0,3696.0,0.44,9.98,1.52,-0.07,0.01,-0.05,1.0,l
2916.0,2992.0,3026.0,4095.0,4095.0,3152.0,3233.0,3696.0,0.16,9.89,1.62,-0.11,-0.03,-0.07,1.0,l
2922.0,2999.0,3030.0,4095.0,4095.0,3154.0,3229.0,3692.0,0.23,10.03,1.51,-0.07,0.03,-0.04,1.0,l
2913.0,2997.0,3021.0,4095.0,4095.0,3153.0,3235.0,3681.0,0.11,9.8,1.55,-0.08,-0.01,-0.06,1.0,l
2906.0,2995.0,3030.0,4095.0,4095.0,3156.0,3232.0,3677.0,0.3,10.04,1.51,-0.08,0.0,-0.04,1.0,l
2910.0,2992.0,3030.0,4095.0,4095.0,3157.0,3232.0,3687.0,0.35,9.99,1.4,-0.08,0.01,-0.06,1.0,l
2899.0,2995.0,3026.0,4095.0,4095.0,3152.0,3233.0,3696.0,0.28,10.08,1.3,-0.15,0.02,-0.07,1.0,l
2923.0,2990.0,3024.0,4095.0,4095.0,3151.0,3227.0,3691.0,0.2,9.81,1.61,-0.13,-0.06,-0.09,1.0,l
2918.0,2999.0,3024.0,4095.0,4095.0,3151.0,3232.0,3685.0,0.05,9.91,1.62,-0.17,0.03,-0.05,1.0,l
2916.0,2997.0,3035.0,4095.0,4095.0,3151.0,3222.0,3675.0,0.1,9.88,1.76,-0.07,-0.02,-0.05,1.0,l
2912.0,3011.0,3029.0,4095.0,4095.0,3152.0,3228.0,3671.0,0.23,10.05,1.53,-0.06,0.06,-0.04,1.0,l
2914.0,2994.0,3027.0,4095.0,4095.0,3152.0,3223.0,3679.0,0.16,10.0,1.53,-0.09,0.02,-0.04,1.0,l
2917.0,2999.0,3028.0,4095.0,4095.0,3154.0,3233.0,3678.0,0.23,10.0,1.68,-0.11,0.0,-0.03,1.0,l
2909.0,2994.0,3032.0,4095.0,4095.0,3152.0,3231.0,3680.0,0.14,9.98,1.69,-0.12,0.0,-0.05,1.0,l
2910.0,2992.0,3035.0,4095.0,4095.0,3151.0,3231.0,3683.0,0.18,9.93,1.88,-0.07,-0.02,-0.05,1.0,l
2917.0,3008.0,3024.0,4095.0,4095.0,3151.0,3227.0,3679.0,0.08,9.89,1.96,-0.08,0.01,-0.04,1.0,l
2910.0,2992.0,3024.0,4095.0,4095.0,3152.0,3227.0,3684.0,0.09,9.88,1.82,0.01,-0.0,-0.05,1.0,l
2910.0,2992.0,3038.0,4095.0,4095.0,3157.0,3235.0,3675.0,0.21,10.05,1.65,-0.05,0.04,-0.02,1.0,l
2913.0,2991.0,3024.0,4095.0,4095.0,3158.0,3237.0,3690.0,0.33,9.95,1.65,-0.02,-0.05,-0.07,1.0,l
2901.0,2992.0,3024.0,4095.0,4095.0,3166.0,3235.0,3698.0,-3.31,5.65,7.5,-0.03,-0.05,-0.0,1.0,l
2903.0,3002.0,3025.0,4095.0,4095.0,3170.0,3235.0,3702.0,-3.24,5.82,7.39,-0.08,-0.01,0.01,1.0,l
2918.0,2998.0,3029.0,4095.0,4095.0,3167.0,3230.0,3702.0,-3.24,5.71,7.49,-0.07,-0.04,-0.01,1.0,l
2919.0,3002.0,3019.0,4095.0,4095.0,3169.0,3235.0,3703.0,-3.2,5.68,7.64,-0.09,-0.03,-0.03,1.0,l
2921.0,2991.0,3037.0,4095.0,4095.0,3169.0,3229.0,3699.0,-3.34,5.6,7.67,-0.09,-0.0,-0.03,1.0,l
2912.0,3001.0,3024.0,4095.0,4095.0,3167.0,3239.0,3703.0,-3.35,5.59,7.8,-0.07,-0.04,-0.03,1.0,l
2899.0,3005.0,3024.0,4095.0,4095.0,3171.0,3237.0,3712.0,-3.46,5.59,7.73,-0.07,0.03,-0.01,1.0,l
2903.0,2999.0,3025.0,4095.0,4095.0,3168.0,3233.0,3705.0,-3.33,5.68,7.71,0.0,-0.01,-0.02,1.0,l
2908.0,2992.0,3025.0,4095.0,4095.0,3166.0,3233.0,3699.0,-3.34,5.78,7.47,-0.05,0.04,0.01,1.0,l
2911.0,2992.0,3026.0,4095.0,4095.0,3167.0,3231.0,3703.0,-3.25,5.79,7.44,-0.03,-0.02,-0.03,1.0,l
2917.0,2995.0,3029.0,4095.0,4095.0,3169.0,3239.0,3707.0,-3.35,5.67,7.52,-0.09,0.03,-0.03,1.0,l
2911.0,2993.0,3021.0,4095.0,4095.0,3167.0,3234.0,3699.0,-3.36,5.7,7.7,-0.04,-0.0,-0.04,1.0,l
2923.0,3006.0,3034.0,4095.0,4095.0,3171.0,3235.0,3705.0,-3.45,5.68,7.71,-0.04,0.02,-0.0,1.0,l
2902.0,2999.0,3031.0,4095.0,4095.0,3173.0,3234.0,3711.0,-3.35,5.71,7.56,-0.03,-0.01,-0.02,1.0,l
2913.0,3002.0,3025.0,4095.0,4095.0,3173.0,3230.0,3700.0,-3.25,5.62,7.75,0.0,-0.04,-0.02,1.0,l
2922.0,2992.0,3037.0,4095.0,4095.0,3175.0,3237.0,3713.0,-3.23,5.88,7.41,-0.01,0.04,-0.02,1.0,l
2921.0,2999.0,3024.0,4095.0,4095.0,3172.0,3232.0,3697.0,-3.25,5.71,7.53,-0.05,-0.03,-0.03,1.0,l
2914.0,3002.0,3027.0,4095.0,4095.0,3175.0,3231.0,3697.0,-3.22,5.84,7.55,-0.05,0.0,-0.01,1.0,l
2919.0,2992.0,3027.0,4095.0,4095.0,3175.0,3243.0,3709.0,-3.39,5.8,7.48,-0.05,-0.01,-0.01,1.0,l
2916.0,2982.0,3021.0,4095.0,4095.0,3164.0,3234.0,3700.0,-3.34,5.88,7.53,-0.09,-0.03,0.02,1.0,l
2917.0,2994.0,3026.0,4095.0,4095.0,3179.0,3243.0,3695.0,0.75,8.84,5.03,-0.0,-0.02,-0.04,1.0,l
2921.0,2993.0,3024.0,4095.0,4095.0,3174.0,3239.0,3695.0,1.03,8.91,4.82,-0.05,0.05,-0.01,1.0,l
2907.0,3001.0,3026.0,4095.0,4095.0,3178.0,3242.0,3702.0,0.93,8.92,4.81,-0.08,-0.02,-0.06,1.0,l
2917.0,2993.0,3027.0,4095.0,4095.0,3177.0,3246.0,3701.0,0.83,8.78,5.08,-0.08,-0.02,-0.06,1.0,l
2903.0,2999.0,3024.0,4095.0,4095.0,3171.0,3240.0,3698.0,0.67,8.81,5.06,-0.07,0.03,-0.04,1.0,l
2907.0,3001.0,3037.0,4095.0,4095.0,3178.0,3240.0,3699.0,0.67,8.83,4.98,-0.06,0.01,-0.02,1.0,l
2906.0,2994.0,3029.0,4095.0,4095.0,3175.0,3242.0,3694.0,0.83,8.81,4.99,-0.07,-0.0,-0.01,1.0,l
2911.0,2987.0,3027.0,4095.0,4095.0,3178.0,3243.0,3705.0,0.91,8.85,5.01,-0.08,0.0,-0.03,1.0,l
2915.0,2992.0,3034.0,4095.0,4095.0,3182.0,3243.0,3712.0,0.78,8.85,5.0,-0.07,-0.01,-0.02,1.0,l
2915.0,3003.0,3024.0,4095.0,4095.0,3174.0,3242.0,3698.0,0.76,8.85,4.97,-0.07,0.01,-0.05,1.0,l
2911.0,2992.0,3026.0,4095.0,4095.0,3179.0,3245.0,3711.0,0.87,8.87,5.02,-0.05,0.01,-0.04,1.0,l
2917.0,2993.0,3033.0,4095.0,4095.0,3177.0,3246.0,3714.0,0.91,8.83,5.0,-0.05,0.01,-0.05,1.0,l
2909.0,3006.0,3035.0,4095.0,4095.0,3164.0,3235.0,3697.0,0.85,8.87,5.04,-0.07,-0.02,-0.07,1.0,l
2923.0,2987.0,3024.0,4095.0,4095.0,3173.0,3239.0,3697.0,0.89,8.82,5.04,-0.06,-0.01,-0.08,1.0,l
2910.0,3003.0,3024.0,4095.0,4095.0,3179.0,3245.0,3706.0,0.88,8.91,4.87,-0.07,0.02,-0.1,1.0,l
2914.0,2992.0,3024.0,4095.0,4095.0,3179.0,3247.0,3708.0,0.61,8.77,5.08,-0.09,-0.04,-0.07,1.0,l
2907.0,2999.0,3024.0,4095.0,4095.0,3179.0,3246.0,3714.0,0.48,8.79,5.12,-0.1,-0.02,-0.04,1.0,l
2911.0,2992.0,3026.0,4095.0,4095.0,3178.0,3247.0,3709.0,0.71,8.8,5.14,-0.06,0.01,-0.03,1.0,l
2911.0,2998.0,3029.0,4095.0,4095.0,3178.0,3243.0,3707.0,0.82,8.76,5.09,-0.08,0.0,-0.06,1.0,l
2906.0,2987.0,3029.0,4095.0,4095.0,3169.0,3248.0,3712.0,0.8,8.88,5.0,-0.07,0.02,-0.05,1.0,l
