hall_1,hall_2,hall_3,flex_t,flex_i,flex_m,flex_r,flex_p,accel_x,accel_y,accel_z,gyro_x,gyro_y,gyro_z,hand,sign
3037.0,4095.0,3293.0,4095.0,4095.0,2559.0,2991.0,2970.0,-4.4,9.39,3.89,-0.1,-0.09,-0.25,0.0,l
3026.0,4095.0,3293.0,4095.0,4095.0,2559.0,2994.0,2968.0,-4.22,8.24,4.66,-0.31,0.26,-0.19,0.0,l
3040.0,4095.0,3291.0,4095.0,4095.0,2559.0,2989.0,2967.0,-4.64,8.64,4.98,-0.21,-0.03,-0.21,0.0,l
3033.0,4095.0,3291.0,4095.0,4095.0,2559.0,2990.0,2972.0,-4.49,8.83,5.33,-0.22,0.0,0.1,0.0,l
3038.0,4095.0,3290.0,4095.0,4095.0,2559.0,2991.0,2974.0,-3.94,8.92,5.82,-0.45,0.07,0.36,0.0,l
3035.0,4095.0,3285.0,4095.0,4095.0,2582.0,2993.0,2982.0,-3.19,8.86,5.84,-0.17,0.12,0.07,0.0,l
3034.0,4095.0,3279.0,4095.0,4095.0,2581.0,2992.0,2986.0,-3.35,8.52,6.09,-0.32,0.31,0.31,0.0,l
3024.0,4095.0,3276.0,4095.0,4095.0,2581.0,2989.0,2989.0,-2.9,8.68,5.46,-0.24,0.14,0.15,0.0,l
3039.0,4095.0,3287.0,4095.0,4095.0,2583.0,2992.0,2986.0,-2.05,8.52,5.75,-0.18,-0.12,0.29,0.0,l
3042.0,4095.0,3286.0,4095.0,4095.0,2587.0,2992.0,2991.0,-0.92,9.49,5.4,-0.32,-0.12,0.34,0.0,l
3039.0,4095.0,3280.0,4095.0,4095.0,2591.0,2995.0,2992.0,-0.71,10.66,6.2,-0.2,-0.11,0.04,0.0,l
3025.0,4095.0,3275.0,4095.0,4095.0,2587.0,2997.0,2992.0,-1.46,11.22,6.74,0.09,-0.37,-0.18,0.0,l
3034.0,4095.0,3281.0,4095.0,4095.0,2593.0,2996.0,2992.0,-1.85,11.18,6.34,0.25,-0.31,-0.34,0.0,l
3031.0,4095.0,3277.0,4095.0,4095.0,2595.0,2997.0,2992.0,-1.65,10.53,6.28,0.47,-0.49,-0.51,0.0,l
3027.0,4095.0,3279.0,4095.0,4095.0,2591.0,2994.0,2992.0,-1.98,9.83,5.85,0.52,-0.48,-0.66,0.0,l
3026.0,4095.0,3276.0,4095.0,4095.0,2590.0,2999.0,2993.0,-2.44,9.45,5.72,0.54,-0.57,-0.62,0.0,l
3039.0,4095.0,3290.0,4095.0,4095.0,2589.0,2995.0,2997.0,-2.94,9.07,5.55,0.68,-0.67,-0.57,0.0,l
3030.0,4095.0,3275.0,4095.0,4095.0,2589.0,2996.0,2999.0,-2.98,8.63,5.31,0.65,-0.76,-0.53,0.0,l
3041.0,4095.0,3275.0,4095.0,4095.0,2591.0,2999.0,2995.0,-2.71,8.83,4.72,0.59,-0.9,-0.59,0.0,l
3042.0,4095.0,3279.0,4095.0,4095.0,2583.0,2994.0,2999.0,-3.61,8.43,5.17,0.33,-0.69,-0.51,0.0,l
3027.0,4095.0,3280.0,4095.0,4095.0,2586.0,2998.0,3003.0,-3.77,8.36,5.52,0.33,-0.91,-0.46,0.0,l
3041.0,4095.0,3277.0,4095.0,4095.0,2586.0,2997.0,2998.0,-3.42,8.2,5.48,0.15,-0.83,-0.5,0.0,l
3026.0,4095.0,3281.0,4095.0,4095.0,2585.0,3001.0,3005.0,-4.05,8.12,5.8,0.06,-0.7,-0.57,0.0,l
3047.0,4095.0,3271.0,4095.0,4095.0,2559.0,2992.0,2997.0,-4.64,7.92,6.32,-0.03,-0.77,-0.72,0.0,l
3037.0,4095.0,3281.0,4095.0,4095.0,2581.0,3001.0,3008.0,-4.99,7.86,6.37,-0.13,-0.58,-0.57,0.0,l
3025.0,4095.0,3270.0,4095.0,4095.0,2579.0,2997.0,3008.0,-5.4,7.7,6.77,-0.23,-0.49,-0.47,0.0,l
3040.0,4095.0,3280.0,4095.0,4095.0,2559.0,2999.0,3009.0,-5.96,7.57,7.28,-0.24,-0.24,-0.2,0.0,l
3035.0,4095.0,3274.0,4095.0,4095.0,2559.0,3001.0,3010.0,-5.16,8.01,7.07,-0.2,-0.2,-0.18,0.0,l
3024.0,4095.0,3275.0,4095.0,4095.0,2559.0,2997.0,3007.0,-5.09,8.24,6.93,-0.27,-0.01,-0.1,0.0,l
3040.0,4095.0,3267.0,4095.0,4095.0,2559.0,2998.0,3006.0,-5.15,7.96,7.32,-0.23,0.05,-0.09,0.0,l
3036.0,4095.0,3279.0,4095.0,4095.0,2559.0,3007.0,3010.0,-4.55,8.48,7.04,-0.18,0.04,-0.02,0.0,l
3039.0,4095.0,3274.0,4095.0,4095.0,2559.0,3005.0,3012.0,-4.69,8.39,7.23,-0.14,0.04,0.02,0.0,l
3039.0,4095.0,3280.0,4095.0,4095.0,2559.0,3002.0,3011.0,-4.13,8.25,7.25,-0.19,0.15,0.07,0.0,l
3037.0,4095.0,3280.0,4095.0,4095.0,2559.0,3003.0,3010.0,-4.24,8.27,7.02,-0.09,0.14,0.08,0.0,l
3029.0,4095.0,3270.0,4095.0,4095.0,2559.0,2999.0,3010.0,-4.2,8.11,7.18,-0.14,0.34,0.05,0.0,l
3031.0,4095.0,3281.0,4095.0,4095.0,2559.0,2995.0,3011.0,-4.32,8.0,7.33,-0.21,0.42,0.19,0.0,l
3031.0,4095.0,3275.0,4095.0,4095.0,2559.0,2999.0,3012.0,-4.25,8.39,7.39,0.08,0.28,0.07,0.0,l
3029.0,4095.0,3268.0,4095.0,4095.0,2559.0,2999.0,3013.0,-4.5,8.1,7.06,0.19,0.27,0.03,0.0,l
3041.0,4095.0,3276.0,4095.0,4095.0,2559.0,3007.0,3018.0,-3.62,9.11,6.36,-0.11,0.34,0.27,0.0,l
3029.0,4095.0,3270.0,4095.0,4095.0,2559.0,3003.0,3017.0,-3.94,8.88,6.68,-0.15,0.46,0.16,0.0,l
3041.0,4095.0,3273.0,4095.0,4095.0,2559.0,3008.0,3015.0,-3.61,8.55,6.81,-0.23,0.43,0.25,0.0,l
3029.0,4095.0,3264.0,4095.0,4095.0,2583.0,3007.0,3013.0,-3.25,8.8,6.8,-0.07,0.44,0.1,0.0,l
3046.0,4095.0,3274.0,4095.0,4095.0,2583.0,3006.0,3007.0,-3.5,8.69,6.45,-0.07,0.47,0.04,0.0,l
3036.0,4095.0,3265.0,4095.0,4095.0,2583.0,3008.0,3003.0,-3.68,8.42,6.58,0.12,0.33,-0.29,0.0,l
3045.0,4095.0,3282.0,4095.0,4095.0,2582.0,3009.0,3003.0,-3.84,8.77,5.94,-0.5,0.55,0.24,0.0,l
3044.0,4095.0,3267.0,4095.0,4095.0,2582.0,3007.0,3003.0,-3.98,8.93,6.31,-0.42,0.46,0.2,0.0,l
3034.0,4095.0,3280.0,4095.0,4095.0,2581.0,3005.0,3005.0,-3.31,8.53,7.19,-0.49,0.58,0.36,0.0,l
3027.0,4095.0,3280.0,4095.0,4095.0,2583.0,3007.0,3005.0,-3.02,9.13,7.17,-0.23,0.32,0.18,0.0,l
3024.0,4095.0,3261.0,4095.0,4095.0,2559.0,3004.0,2996.0,-1.3,9.38,8.88,-0.47,0.61,0.38,0.0,l
3025.0,4095.0,3267.0,4095.0,4095.0,2584.0,3006.0,2996.0,-2.21,9.65,8.43,0.31,0.44,-0.13,0.0,l
3039.0,4095.0,3271.0,4095.0,4095.0,2589.0,3010.0,3002.0,-3.11,9.14,6.51,0.48,0.6,-0.23,0.0,l
3041.0,4095.0,3270.0,4095.0,4095.0,2590.0,3003.0,2998.0,-4.34,8.7,5.07,0.51,0.57,-0.19,0.0,l
3029.0,4095.0,3262.0,4095.0,4095.0,2583.0,3006.0,3002.0,-3.85,8.06,4.39,0.11,0.56,0.15,0.0,l
3025.0,4095.0,3266.0,4095.0,4095.0,2589.0,3007.0,2996.0,-3.26,8.69,4.13,-0.01,0.19,0.27,0.0,l
3034.0,4095.0,3269.0,4095.0,4095.0,2587.0,3006.0,2994.0,-1.96,8.89,4.58,-0.45,0.17,0.32,0.0,l
3026.0,4095.0,3266.0,4095.0,4095.0,2588.0,3008.0,3003.0,-1.64,8.74,6.15,-0.56,-0.02,0.26,0.0,l
3041.0,4095.0,3273.0,4095.0,4095.0,2588.0,3007.0,3003.0,-2.18,9.02,6.84,-0.47,0.03,0.17,0.0,l
3035.0,4095.0,3276.0,4095.0,4095.0,2585.0,3007.0,3003.0,-1.91,8.99,6.63,-0.35,-0.22,0.12,0.0,l
3041.0,4095.0,3266.0,4095.0,4095.0,2591.0,3009.0,3009.0,-2.05,9.47,6.69,-0.51,-0.0,0.17,0.0,l
3031.0,4095.0,3273.0,4095.0,4095.0,2594.0,3008.0,3008.0,-1.96,9.53,7.06,-0.43,-0.17,0.13,0.0,l
3039.0,4095.0,3266.0,4095.0,4095.0,2590.0,3008.0,3002.0,-1.71,10.03,7.23,-0.29,-0.28,0.03,0.0,l
3045.0,4095.0,3271.0,4095.0,4095.0,2592.0,3013.0,3002.0,-1.39,10.02,7.77,-0.25,-0.26,0.08,0.0,l
3026.0,4095.0,3264.0,4095.0,4095.0,2593.0,3007.0,3003.0,-1.17,10.19,8.06,-0.0,-0.34,-0.02,0.0,l
3024.0,4095.0,3271.0,4095.0,4095.0,2596.0,3009.0,3008.0,-1.3,10.03,7.71,0.17,-0.32,-0.13,0.0,l
3026.0,4095.0,3263.0,4095.0,4095.0,2591.0,3008.0,3007.0,-0.89,9.77,7.39,0.24,-0.42,-0.15,0.0,l
3037.0,4095.0,3256.0,4095.0,4095.0,2595.0,3010.0,3003.0,-1.09,9.78,7.0,0.3,-0.43,-0.25,0.0,l
3027.0,4095.0,3269.0,4095.0,4095.0,2596.0,3011.0,3002.0,-0.97,9.67,7.0,0.27,-0.46,-0.3,0.0,l
3034.0,4095.0,3271.0,4095.0,4095.0,2589.0,3006.0,3004.0,-1.79,10.56,7.55,0.31,-0.32,-0.26,0.0,l
3031.0,4095.0,3265.0,4095.0,4095.0,2598.0,3011.0,3005.0,-1.5,10.47,7.73,0.67,-0.33,-0.29,0.0,l
3028.0,4095.0,3274.0,4095.0,4095.0,2599.0,3011.0,3004.0,-0.39,9.9,6.22,0.68,-0.53,-0.53,0.0,l
3031.0,4095.0,3252.0,4095.0,4095.0,2593.0,3011.0,3007.0,-0.89,9.26,5.77,0.59,-0.48,-0.69,0.0,l
3027.0,4095.0,3277.0,4095.0,4095.0,2594.0,3013.0,3008.0,-1.07,9.11,5.82,0.41,-0.71,-0.59,0.0,l
3027.0,4095.0,3273.0,4095.0,4095.0,2591.0,3013.0,3008.0,-1.35,8.85,6.57,0.23,-0.47,-0.69,0.0,l
3023.0,4095.0,3258.0,4095.0,4095.0,2593.0,3011.0,3011.0,-1.79,9.13,6.61,0.18,-0.63,-0.66,0.0,l
3026.0,4095.0,3261.0,4095.0,4095.0,2589.0,3013.0,3016.0,-2.52,8.94,7.03,0.31,-0.61,-0.61,0.0,l
3039.0,4095.0,3280.0,4095.0,4095.0,2591.0,3013.0,3019.0,-1.99,9.25,6.54,0.25,-0.65,-0.53,0.0,l
3037.0,4095.0,3259.0,4095.0,4095.0,2597.0,3015.0,3024.0,-2.69,9.35,6.45,0.34,-0.64,-0.57,0.0,l
3034.0,4095.0,3265.0,4095.0,4095.0,2595.0,3019.0,3024.0,-2.71,9.47,6.81,0.37,-0.58,-0.57,0.0,l
3030.0,4095.0,3257.0,4095.0,4095.0,2592.0,3010.0,3018.0,-2.22,9.56,6.31,0.56,-0.71,-0.6,0.0,l
3029.0,4095.0,3265.0,4095.0,4095.0,2597.0,3018.0,3024.0,-2.78,9.45,5.91,0.58,-0.58,-0.66,0.0,l
3044.0,4095.0,3278.0,4095.0,4095.0,2597.0,3021.0,3023.0,-3.1,8.74,5.82,0.56,-0.61,-0.69,0.0,l
3038.0,4095.0,3278.0,4095.0,4095.0,2601.0,3020.0,3024.0,-3.12,8.76,5.48,0.54,-0.6,-0.71,0.0,l
3041.0,4095.0,3269.0,4095.0,4095.0,2599.0,3019.0,3024.0,-3.86,8.32,5.11,0.39,-0.61,-0.74,0.0,l
3039.0,4095.0,3265.0,4095.0,4095.0,2597.0,3019.0,3026.0,-4.12,8.34,5.14,0.19,-0.6,-0.72,0.0,l
3045.0,4095.0,3273.0,4095.0,4095.0,2595.0,3015.0,3025.0,-4.95,7.91,5.31,-0.02,-0.47,-0.53,0.0,l
3028.0,4095.0,3271.0,4095.0,4095.0,2599.0,3022.0,3025.0,-4.5,7.47,6.44,-0.19,-0.37,-0.46,0.0,l
3039.0,4095.0,3276.0,4095.0,4095.0,2597.0,3015.0,3024.0,-5.27,7.56,6.78,-0.05,-0.28,-0.32,0.0,l
3024.0,4095.0,3265.0,4095.0,4095.0,2592.0,3013.0,3026.0,-4.97,8.19,6.28,-0.09,-0.18,-0.18,0.0,l
3038.0,4095.0,3275.0,4095.0,4095.0,2597.0,3021.0,3026.0,-4.93,8.38,6.38,-0.15,-0.08,-0.13,0.0,l
3029.0,4095.0,3261.0,4095.0,4095.0,2594.0,3017.0,3027.0,-5.1,8.71,6.41,-0.18,0.12,-0.09,0.0,l
3024.0,4095.0,3264.0,4095.0,4095.0,2594.0,3019.0,3025.0,-4.9,8.78,6.44,-0.15,0.15,-0.01,0.0,l
3042.0,4095.0,3260.0,4095.0,4095.0,2590.0,3013.0,3025.0,-3.96,8.84,6.3,-0.17,0.21,0.01,0.0,l
3037.0,4095.0,3270.0,4095.0,4095.0,2589.0,3012.0,3024.0,-3.79,8.46,5.99,-0.22,0.35,0.02,0.0,l
3025.0,4095.0,3271.0,4095.0,4095.0,2593.0,3011.0,3026.0,-4.08,8.57,6.18,-0.1,0.24,-0.13,0.0,l
3029.0,4095.0,3270.0,4095.0,4095.0,2594.0,3019.0,3030.0,-4.45,8.39,6.05,-0.06,0.21,-0.19,0.0,l
3024.0,4095.0,3263.0,4095.0,4095.0,2594.0,3011.0,3029.0,-4.64,8.16,6.34,-0.21,0.46,-0.13,0.0,l
3043.0,4095.0,3280.0,4095.0,4095.0,2593.0,3015.0,3027.0,-5.22,8.12,6.45,-0.4,0.76,0.06,0.0,l
3037.0,4095.0,3270.0,4095.0,4095.0,2592.0,3012.0,3034.0,-5.22,7.92,6.73,-0.44,0.77,0.28,0.0,l
3030.0,4095.0,3269.0,4095.0,4095.0,2591.0,3015.0,3030.0,-4.5,8.56,6.42,-0.34,0.68,0.43,0.0,l
3030.0,4095.0,3265.0,4095.0,4095.0,2590.0,3013.0,3028.0,-3.2,8.92,6.09,-0.33,0.69,0.43,0.0,l
3031.0,4095.0,3274.0,4095.0,4095.0,2590.0,3014.0,3029.0,-3.63,9.2,6.09,-0.09,0.2,0.4,0.0,l
3031.0,4095.0,3266.0,4095.0,4095.0,2595.0,3019.0,3031.0,-1.42,9.68,6.04,0.18,-0.59,0.21,0.0,l
3035.0,4095.0,3267.0,4095.0,4095.0,2595.0,3011.0,3029.0,-2.52,9.37,6.16,-0.08,0.43,0.24,0.0,l
3026.0,4095.0,3252.0,4095.0,4095.0,2590.0,3009.0,3031.0,-2.92,8.95,6.55,0.23,-0.38,0.02,0.0,l
3033.0,4095.0,3255.0,4095.0,4095.0,2595.0,3010.0,3031.0,-3.49,9.04,5.6,0.16,0.23,-0.15,0.0,l
3046.0,4095.0,3280.0,4095.0,4095.0,2591.0,3007.0,3024.0,-4.3,8.88,5.54,0.32,-0.99,0.09,0.0,l
3042.0,4095.0,3280.0,4095.0,4095.0,2586.0,3007.0,3025.0,-1.66,9.52,5.32,0.11,-0.43,-0.33,0.0,l
3026.0,4095.0,3258.0,4095.0,4095.0,2586.0,2997.0,3027.0,-3.69,9.13,5.34,-0.03,-0.0,-0.11,0.0,l
3031.0,4095.0,3264.0,4095.0,4095.0,2559.0,2993.0,3029.0,-2.83,9.36,5.88,0.13,-1.13,0.01,0.0,l
3038.0,4095.0,3254.0,4095.0,4095.0,2559.0,2998.0,3030.0,-2.34,9.08,6.41,0.22,-1.18,0.11,0.0,l
3035.0,4095.0,3276.0,4095.0,4095.0,2583.0,3003.0,3030.0,-1.92,9.5,6.39,0.27,-0.91,-0.07,0.0,l
3038.0,4095.0,3278.0,4095.0,4095.0,2581.0,2995.0,3029.0,-2.03,9.55,6.22,0.19,-0.44,-0.05,0.0,l
3044.0,4095.0,3273.0,4095.0,4095.0,2581.0,2995.0,3027.0,-2.3,9.51,6.04,0.16,-0.35,-0.14,0.0,l
3027.0,4095.0,3259.0,4095.0,4095.0,2559.0,2994.0,3030.0,-2.39,9.44,6.22,0.19,-0.56,-0.11,0.0,l
3041.0,4095.0,3259.0,4095.0,4095.0,2559.0,2992.0,3029.0,-1.88,9.44,6.07,0.21,-0.56,-0.12,0.0,l
3026.0,4095.0,3270.0,4095.0,4095.0,2579.0,2997.0,3031.0,-1.95,9.42,5.84,0.13,-0.35,-0.16,0.0,l
3035.0,4095.0,3271.0,4095.0,4095.0,2559.0,2997.0,3031.0,-1.45,9.5,6.06,0.14,-0.54,-0.37,0.0,l
3039.0,4095.0,3269.0,4095.0,4095.0,2586.0,2995.0,3027.0,-2.2,9.37,6.19,0.01,-0.04,-0.35,0.0,l
3024.0,4095.0,3265.0,4095.0,4095.0,2579.0,2992.0,3036.0,-2.6,9.33,6.52,0.02,-0.16,-0.24,0.0,l
3042.0,4095.0,3268.0,4095.0,4095.0,2581.0,2994.0,3029.0,-2.04,9.29,6.34,0.24,-0.49,-0.31,0.0,l
3028.0,4095.0,3272.0,4095.0,4095.0,2580.0,2989.0,3030.0,-2.29,9.5,5.78,0.15,-0.45,-0.17,0.0,l
3041.0,4095.0,3261.0,4095.0,4095.0,2579.0,2992.0,3031.0,-1.91,9.3,6.05,0.2,-0.99,-0.17,0.0,l
3039.0,4095.0,3264.0,4095.0,4095.0,2559.0,2991.0,3034.0,-2.02,9.59,5.95,0.09,-0.59,-0.23,0.0,l
3035.0,4095.0,3263.0,4095.0,4095.0,2559.0,2991.0,3039.0,-2.17,9.33,6.45,0.05,-0.34,-0.16,0.0,l
3041.0,4095.0,3266.0,4095.0,4095.0,2559.0,2991.0,3037.0,-2.23,9.5,6.41,0.05,-0.19,-0.24,0.0,l
3043.0,4095.0,3262.0,4095.0,4095.0,2559.0,2991.0,3036.0,-2.26,9.63,6.12,-0.02,-0.07,-0.16,0.0,l
3029.0,4095.0,3269.0,4095.0,4095.0,2559.0,2991.0,3037.0,-1.82,9.17,6.1,-0.09,0.18,-0.28,0.0,l
3028.0,4095.0,3257.0,4095.0,4095.0,2559.0,2986.0,3039.0,-2.63,9.32,6.23,-0.03,-0.07,-0.12,0.0,l
3027.0,4095.0,3267.0,4095.0,4095.0,2559.0,2992.0,3047.0,-2.29,9.39,6.52,0.28,-0.75,-0.3,0.0,l
3029.0,4095.0,3262.0,4095.0,4095.0,2559.0,2993.0,3051.0,-1.81,9.45,6.18,0.15,-0.48,-0.17,0.0,l
3043.0,4095.0,3270.0,4095.0,4095.0,2559.0,2990.0,3042.0,-3.24,9.6,6.39,-0.03,-0.3,-0.0,0.0,l
3031.0,4095.0,3253.0,4095.0,4095.0,2559.0,2983.0,3047.0,-1.49,9.55,6.4,0.27,-0.9,-0.19,0.0,l
3026.0,4095.0,3267.0,4095.0,4095.0,2559.0,2983.0,3051.0,-1.32,9.52,6.22,0.08,-0.08,-0.22,0.0,l
3023.0,4095.0,3263.0,4095.0,4095.0,2559.0,2978.0,3043.0,-3.24,9.36,6.08,-0.08,0.19,-0.12,0.0,l
3033.0,4095.0,3275.0,4095.0,4095.0,2558.0,2979.0,3046.0,-1.65,9.47,6.41,0.17,-0.6,-0.23,0.0,l
3038.0,4095.0,3275.0,4095.0,4095.0,2559.0,2979.0,3054.0,-1.53,9.47,6.24,0.06,0.08,-0.24,0.0,l
3027.0,4095.0,3278.0,4095.0,4095.0,2557.0,2975.0,3051.0,-3.01,9.5,5.51,-0.17,0.59,-0.2,0.0,l
3031.0,4095.0,3269.0,4095.0,4095.0,2559.0,2976.0,3049.0,-1.56,9.28,6.64,0.08,-0.66,-0.2,0.0,l
3033.0,4095.0,3264.0,4095.0,4095.0,2559.0,2982.0,3049.0,-1.43,9.44,6.27,0.04,0.09,-0.24,0.0,l
3031.0,4095.0,3257.0,4095.0,4095.0,2559.0,2987.0,3056.0,-1.6,9.53,5.47,-0.35,1.64,-0.41,0.0,l
3038.0,4095.0,3272.0,4095.0,4095.0,2559.0,2977.0,3056.0,-2.84,9.24,5.79,-0.52,1.46,-0.3,0.0,l
3029.0,4095.0,3268.0,4095.0,4095.0,2559.0,2983.0,3056.0,-3.08,8.99,6.45,-0.3,0.5,-0.25,0.0,l
3030.0,4095.0,3263.0,4095.0,4095.0,2559.0,2987.0,3057.0,-3.0,9.13,6.58,-0.26,0.53,-0.15,0.0,l
3027.0,4095.0,3264.0,4095.0,4095.0,2559.0,2990.0,3057.0,-3.08,9.31,6.27,-0.17,0.76,-0.17,0.0,l
3025.0,4095.0,3268.0,4095.0,4095.0,2559.0,2990.0,3060.0,-2.94,9.4,6.09,-0.17,0.49,-0.11,0.0,l
3039.0,4095.0,3265.0,4095.0,4095.0,2559.0,2990.0,3061.0,-2.95,9.2,6.51,-0.21,0.33,-0.14,0.0,l
3026.0,4095.0,3258.0,4095.0,4095.0,2559.0,2985.0,3056.0,-2.81,9.1,6.81,-0.18,0.38,-0.15,0.0,l
3039.0,4095.0,3258.0,4095.0,4095.0,2559.0,2992.0,3060.0,-2.79,9.09,6.75,-0.14,0.48,-0.13,0.0,l
3047.0,4095.0,3278.0,4095.0,4095.0,2559.0,2987.0,3058.0,-3.38,8.94,6.58,-0.16,0.44,-0.12,0.0,l
3029.0,4095.0,3279.0,4095.0,4095.0,2559.0,2992.0,3058.0,-1.9,9.29,6.15,-0.28,0.61,-0.24,0.0,l
3026.0,4095.0,3271.0,4095.0,4095.0,2559.0,2994.0,3069.0,-3.76,8.86,6.32,-0.32,0.76,-0.09,0.0,l
3027.0,4095.0,3259.0,4095.0,4095.0,2559.0,2992.0,3067.0,-3.17,8.98,6.9,-0.08,-0.33,-0.14,0.0,l
3027.0,4095.0,3264.0,4095.0,4095.0,2559.0,2993.0,3067.0,-2.35,9.18,6.66,-0.0,0.16,-0.16,0.0,l
3024.0,4095.0,3261.0,4095.0,4095.0,2559.0,2992.0,3066.0,-3.88,8.95,6.2,-0.23,0.95,-0.11,0.0,l
3032.0,4095.0,3268.0,4095.0,4095.0,2559.0,2992.0,3070.0,-3.02,8.99,6.65,-0.16,0.27,-0.11,0.0,l
3027.0,4095.0,3266.0,4095.0,4095.0,2559.0,2987.0,3058.0,-3.2,9.12,6.09,-0.38,1.11,-0.11,0.0,l
3038.0,4095.0,3266.0,4095.0,4095.0,2559.0,2993.0,3065.0,-3.88,8.62,6.79,-0.14,0.11,-0.09,0.0,l
3028.0,4095.0,3275.0,4095.0,4095.0,2559.0,2994.0,3067.0,-2.41,9.06,6.68,-0.03,-0.12,-0.15,0.0,l
3023.0,4095.0,3269.0,4095.0,4095.0,2559.0,2993.0,3070.0,-3.94,8.84,6.44,-0.29,1.01,-0.06,0.0,l
3026.0,4095.0,3276.0,4095.0,4095.0,2559.0,2992.0,3067.0,-3.54,8.71,6.96,-0.08,-0.1,-0.09,0.0,l
3046.0,4095.0,3278.0,4095.0,4095.0,2559.0,2992.0,3059.0,-3.32,9.0,6.55,-0.12,0.35,-0.16,0.0,l
3035.0,4095.0,3276.0,4095.0,4095.0,2559.0,2992.0,3065.0,-3.89,8.76,6.86,-0.17,0.13,-0.12,0.0,l
3045.0,4095.0,3266.0,4095.0,4095.0,2581.0,2993.0,3065.0,-3.19,9.01,6.67,-0.24,0.59,-0.16,0.0,l
3033.0,4095.0,3277.0,4095.0,4095.0,2559.0,2992.0,3071.0,-4.19,8.55,7.02,-0.16,0.28,-0.04,0.0,l
3049.0,4095.0,3280.0,4095.0,4095.0,2559.0,2995.0,3071.0,-3.0,8.92,6.87,0.02,-0.0,-0.14,0.0,l
3024.0,4095.0,3271.0,4095.0,4095.0,2559.0,2998.0,3071.0,-3.75,8.79,6.62,-0.07,0.41,-0.05,0.0,l
3026.0,4095.0,3278.0,4095.0,4095.0,2559.0,2992.0,3065.0,-2.99,9.03,6.14,-0.04,0.18,-0.19,0.0,l
3041.0,4095.0,3267.0,4095.0,4095.0,2559.0,2992.0,3067.0,-4.05,8.62,6.69,-0.21,0.35,-0.09,0.0,l
3037.0,4095.0,3262.0,4095.0,4095.0,2559.0,2995.0,3068.0,-3.68,8.82,6.76,-0.15,0.09,-0.13,0.0,l
3045.0,4095.0,3271.0,4095.0,4095.0,2559.0,2992.0,3063.0,-3.96,8.61,7.15,-0.17,0.29,-0.04,0.0,l
3041.0,4095.0,3263.0,4095.0,4095.0,2559.0,2992.0,3062.0,-3.44,8.79,7.03,-0.01,-0.0,-0.1,0.0,l
3031.0,4095.0,3267.0,4095.0,4095.0,2559.0,2993.0,3067.0,-3.67,8.72,7.07,0.07,-0.27,-0.02,0.0,l
3038.0,4095.0,3266.0,4095.0,4095.0,2559.0,2995.0,3067.0,-2.34,9.07,7.19,0.34,-0.91,-0.21,0.0,l
3039.0,4095.0,3273.0,4095.0,4095.0,2559.0,2992.0,3063.0,-3.64,8.87,7.49,0.32,-0.75,-0.06,0.0,l
3037.0,4095.0,3266.0,4095.0,4095.0,2559.0,2999.0,3070.0,-2.97,9.03,7.13,0.61,-1.11,-0.27,0.0,l
3047.0,4095.0,3259.0,4095.0,4095.0,2559.0,2993.0,3065.0,-2.77,9.17,6.52,0.6,-1.13,-0.24,0.0,l
3038.0,4095.0,3265.0,4095.0,4095.0,2559.0,2994.0,3067.0,-3.5,9.06,6.09,0.37,-0.66,-0.21,0.0,l
3040.0,4095.0,3266.0,4095.0,4095.0,2579.0,2994.0,3070.0,-2.93,9.07,6.34,0.21,-0.58,-0.19,0.0,l
3036.0,4095.0,3276.0,4095.0,4095.0,2579.0,2999.0,3061.0,-2.84,9.01,6.55,0.08,-0.26,-0.13,0.0,l
3032.0,4095.0,3277.0,4095.0,4095.0,2559.0,2993.0,3063.0,-3.03,8.91,6.74,0.04,-0.03,-0.06,0.0,l
3027.0,4095.0,3268.0,4095.0,4095.0,2559.0,2992.0,3063.0,-2.82,9.15,6.54,0.12,-0.21,-0.05,0.0,l
3034.0,4095.0,3264.0,4095.0,4095.0,2559.0,2996.0,3069.0,-2.36,9.13,6.4,0.16,-0.46,-0.11,0.0,l
3033.0,4095.0,3264.0,4095.0,4095.0,2559.0,2997.0,3068.0,-2.6,9.22,6.62,0.12,-0.57,-0.09,0.0,l
3040.0,4095.0,3263.0,4095.0,4095.0,2559.0,2996.0,3065.0,-2.35,9.17,7.23,0.1,-0.26,-0.09,0.0,l
3042.0,4095.0,3264.0,4095.0,4095.0,2559.0,2992.0,3070.0,-2.58,9.2,6.9,0.25,-0.02,-0.09,0.0,l
3026.0,4095.0,3259.0,4095.0,4095.0,2559.0,2997.0,3070.0,-2.45,9.28,6.28,0.22,-0.19,-0.07,0.0,l
3033.0,4095.0,3273.0,4095.0,4095.0,2559.0,2995.0,3066.0,-1.9,9.38,5.98,0.14,-0.16,-0.16,0.0,l
3031.0,4095.0,3267.0,4095.0,4095.0,2559.0,2993.0,3065.0,-2.39,9.19,6.46,-0.01,0.13,-0.12,0.0,l
3027.0,4095.0,3289.0,4095.0,4095.0,2559.0,2991.0,3058.0,-2.26,9.28,6.41,0.1,-0.07,-0.17,0.0,l
3033.0,4095.0,3301.0,4095.0,4095.0,2559.0,2994.0,3056.0,-2.27,9.28,6.46,0.06,-0.18,-0.16,0.0,l
3033.0,4095.0,3303.0,4095.0,4095.0,2559.0,2994.0,3060.0,-2.15,9.26,6.53,0.08,-0.08,-0.12,0.0,l
3034.0,4095.0,3299.0,4095.0,4095.0,2559.0,2990.0,3057.0,-2.25,9.34,6.43,0.1,-0.02,-0.15,0.0,l
3027.0,4095.0,3291.0,4095.0,4095.0,2580.0,2993.0,3062.0,-2.21,9.41,6.13,0.04,0.07,-0.14,0.0,l
3041.0,4095.0,3294.0,4095.0,4095.0,2559.0,2989.0,3058.0,-3.07,9.18,6.43,0.07,-0.28,-0.08,0.0,l
3035.0,4095.0,3286.0,4095.0,4095.0,2559.0,2990.0,3056.0,-1.75,9.38,6.44,0.3,-1.07,-0.12,0.0,l
3027.0,4095.0,3297.0,4095.0,4095.0,2559.0,2993.0,3059.0,-1.67,9.59,6.02,0.24,-0.35,-0.09,0.0,l
3023.0,4095.0,3287.0,4095.0,4095.0,2559.0,2989.0,3056.0,-2.38,9.44,5.8,0.07,-0.17,-0.03,0.0,l
3038.0,4095.0,3297.0,4095.0,4095.0,2559.0,2991.0,3059.0,-1.64,9.52,6.09,0.08,-0.48,-0.15,0.0,l
3027.0,4095.0,3296.0,4095.0,4095.0,2559.0,2991.0,3061.0,-1.85,9.5,6.29,0.05,-0.25,-0.1,0.0,l
3038.0,4095.0,3295.0,4095.0,4095.0,2559.0,2989.0,3057.0,-1.7,9.52,6.28,0.07,-0.22,-0.15,0.0,l
3030.0,4095.0,3297.0,4095.0,4095.0,2559.0,2987.0,3056.0,-1.68,9.5,6.1,0.03,-0.11,-0.13,0.0,l
3030.0,4095.0,3297.0,4095.0,4095.0,2559.0,2989.0,3057.0,-2.01,9.42,6.04,-0.0,-0.3,-0.07,0.0,l
3041.0,4095.0,3296.0,4095.0,4095.0,2559.0,2985.0,3063.0,-1.47,9.48,6.48,0.06,-0.53,-0.1,0.0,l
3030.0,4095.0,3295.0,4095.0,4095.0,2559.0,2978.0,3057.0,-1.42,9.6,6.21,0.03,0.04,-0.13,0.0,l
3035.0,4095.0,3299.0,4095.0,4095.0,2559.0,2983.0,3059.0,-1.52,9.54,6.25,-0.08,0.19,-0.16,0.0,l
3031.0,4095.0,3289.0,4095.0,4095.0,2559.0,2983.0,3057.0,-1.74,9.39,6.68,-0.01,-0.04,-0.18,0.0,l
3044.0,4095.0,3300.0,4095.0,4095.0,2559.0,2987.0,3056.0,-1.42,9.64,6.34,0.07,0.06,-0.23,0.0,l
3034.0,4095.0,3301.0,4095.0,4095.0,2559.0,2982.0,3060.0,-1.41,9.56,6.14,-0.09,0.77,-0.19,0.0,l
3039.0,4095.0,3295.0,4095.0,4095.0,2559.0,2986.0,3055.0,-1.93,9.62,5.8,-0.22,1.45,-0.33,0.0,l
3023.0,4095.0,3291.0,4095.0,4095.0,2559.0,2989.0,3057.0,-2.16,9.43,5.26,-0.57,2.18,-0.32,0.0,l
3028.0,4095.0,3286.0,4095.0,4095.0,2559.0,2985.0,3057.0,-3.29,9.14,6.42,-0.36,0.73,-0.16,0.0,l
3026.0,4095.0,3293.0,4095.0,4095.0,2559.0,2992.0,3056.0,-2.27,9.49,5.96,-0.37,1.06,-0.33,0.0,l
3036.0,4095.0,3297.0,4095.0,4095.0,2559.0,2987.0,3059.0,-2.21,9.35,6.19,-0.34,1.29,-0.25,0.0,l
3029.0,4095.0,3291.0,4095.0,4095.0,2559.0,2985.0,3057.0,-5.01,9.04,4.42,-1.11,3.64,-0.31,0.0,l
3035.0,4095.0,3295.0,4095.0,4095.0,2559.0,2990.0,3066.0,-3.7,8.53,6.42,-0.62,1.01,-0.13,0.0,l
3029.0,4095.0,3301.0,4095.0,4095.0,2559.0,2992.0,3070.0,-3.52,8.78,6.41,-0.33,-0.22,-0.2,0.0,l
3024.0,4095.0,3302.0,4095.0,4095.0,2559.0,2990.0,3071.0,-4.2,8.53,6.99,-0.49,0.54,0.06,0.0,l
3029.0,4095.0,3295.0,4095.0,4095.0,2559.0,2991.0,3071.0,-3.74,8.74,7.16,-0.18,-0.09,0.03,0.0,l
3040.0,4095.0,3295.0,4095.0,4095.0,2559.0,2982.0,3066.0,-2.76,9.05,6.82,-0.2,0.31,-0.01,0.0,l
3040.0,4095.0,3311.0,4095.0,4095.0,2559.0,2979.0,3069.0,-3.81,8.82,6.6,-0.27,0.43,0.01,0.0,l
3031.0,4095.0,3305.0,4095.0,4095.0,2559.0,2985.0,3069.0,-2.56,8.98,6.92,-0.17,-0.07,-0.15,0.0,l
3045.0,4095.0,3307.0,4095.0,4095.0,2559.0,2983.0,3070.0,-4.21,8.61,6.83,-0.39,0.24,-0.02,0.0,l
3027.0,4095.0,3294.0,4095.0,4095.0,2559.0,2978.0,3057.0,-2.6,9.14,6.67,-0.88,-0.08,0.35,0.0,l
3035.0,4095.0,3313.0,4095.0,4095.0,2545.0,2976.0,3057.0,-2.72,9.11,8.36,-0.74,0.38,-0.15,0.0,l
3029.0,4095.0,3312.0,4095.0,4095.0,2544.0,2981.0,3056.0,-2.87,8.32,9.13,-0.23,-0.03,-0.16,0.0,l
3027.0,3632.0,3147.0,4095.0,4095.0,2505.0,2667.0,2653.0,-2.15,9.83,5.78,0.15,-0.23,-0.29,0.0,l
3035.0,3647.0,3141.0,4095.0,4095.0,2503.0,2671.0,2653.0,-1.78,9.49,5.41,0.18,-0.42,-0.3,0.0,l
3031.0,3654.0,3148.0,4095.0,4095.0,2506.0,2672.0,2656.0,-2.63,9.28,5.61,0.19,-0.59,-0.35,0.0,l
3027.0,3630.0,3147.0,4095.0,4095.0,2509.0,2670.0,2651.0,-3.19,9.05,5.73,0.17,-0.51,-0.3,0.0,l
3041.0,3647.0,3136.0,4095.0,4095.0,2506.0,2670.0,2653.0,-2.42,9.3,5.56,-0.03,-0.28,-0.23,0.0,l
3029.0,3635.0,3150.0,4095.0,4095.0,2503.0,2672.0,2657.0,-2.71,9.27,5.89,0.01,-0.51,-0.45,0.0,l
3023.0,3641.0,3135.0,4095.0,4095.0,2502.0,2671.0,2655.0,-3.18,9.14,5.73,0.1,-0.48,-0.47,0.0,l
3033.0,3651.0,3143.0,4095.0,4095.0,2506.0,2673.0,2660.0,-3.87,8.72,5.97,0.02,-0.42,-0.44,0.0,l
3035.0,3623.0,3136.0,4095.0,4095.0,2501.0,2669.0,2657.0,-4.06,8.7,6.27,-0.01,-0.24,-0.21,0.0,l
3028.0,3644.0,3125.0,4095.0,4095.0,2490.0,2666.0,2647.0,-3.53,9.0,6.06,0.08,-0.35,-0.25,0.0,l
3033.0,3633.0,3136.0,4095.0,4095.0,2498.0,2666.0,2661.0,-3.46,8.95,6.76,-0.17,-0.02,0.09,0.0,l
3026.0,3637.0,3133.0,4095.0,4095.0,2496.0,2662.0,2656.0,-3.21,9.05,6.56,0.04,-0.09,0.0,0.0,l
3024.0,3659.0,3120.0,4095.0,4095.0,2497.0,2662.0,2655.0,-3.14,8.82,6.12,-0.01,-0.01,-0.06,0.0,l
3043.0,3637.0,3132.0,4095.0,4095.0,2500.0,2667.0,2655.0,-2.65,8.86,6.52,-0.03,-0.16,-0.03,0.0,l
3030.0,3648.0,3119.0,4095.0,4095.0,2482.0,2669.0,2650.0,-3.01,9.48,6.7,-0.01,-0.18,-0.0,0.0,l
3027.0,3647.0,3120.0,4095.0,4095.0,2482.0,2669.0,2646.0,-3.0,9.49,6.69,-0.1,0.06,-0.04,0.0,l
3031.0,3645.0,3126.0,4095.0,4095.0,2485.0,2670.0,2647.0,-2.93,8.9,6.86,-0.03,0.08,0.04,0.0,l
3025.0,3632.0,3121.0,4095.0,4095.0,2483.0,2667.0,2643.0,-2.83,9.21,6.54,-0.02,0.23,0.08,0.0,l
3037.0,3651.0,3124.0,4095.0,4095.0,2489.0,2665.0,2649.0,-2.8,9.88,7.07,0.11,-0.65,0.12,0.0,l
3028.0,3637.0,3129.0,4095.0,4095.0,2496.0,2671.0,2647.0,-1.71,9.09,6.71,0.09,0.24,0.1,0.0,l
3043.0,3647.0,3120.0,4095.0,4095.0,2497.0,2672.0,2643.0,-1.24,9.31,6.59,0.2,-0.22,-0.09,0.0,l
3031.0,3636.0,3124.0,4095.0,4095.0,2497.0,2671.0,2647.0,-1.92,9.4,6.37,0.13,0.27,0.05,0.0,l
3027.0,3646.0,3139.0,4095.0,4095.0,2497.0,2670.0,2650.0,-1.87,9.58,5.77,0.29,-0.05,-0.08,0.0,l
3036.0,3650.0,3137.0,4095.0,4095.0,2485.0,2655.0,2595.0,-0.03,10.63,4.56,0.52,-1.34,-0.69,0.0,l
3038.0,3643.0,3120.0,4095.0,4095.0,2496.0,2665.0,2625.0,-1.41,10.13,5.47,0.03,-0.34,-0.36,0.0,l
3031.0,3663.0,3071.0,4095.0,4095.0,2510.0,2657.0,2633.0,-2.23,9.64,5.88,-0.09,0.5,-0.13,0.0,l
3042.0,3675.0,3083.0,4095.0,4095.0,2529.0,2672.0,2635.0,-1.75,9.51,5.73,0.09,-0.03,-0.27,0.0,l
3043.0,3659.0,3130.0,4095.0,4095.0,2542.0,2704.0,2559.0,-2.44,9.1,5.56,0.14,-0.14,-0.28,0.0,l
3036.0,3664.0,3118.0,4095.0,4095.0,2531.0,2703.0,2608.0,-1.82,9.45,5.63,-0.12,0.4,0.06,0.0,l
3036.0,3738.0,3042.0,4095.0,4095.0,2544.0,2715.0,2665.0,-2.13,9.74,5.6,0.03,-0.01,-0.17,0.0,l
3038.0,3916.0,2960.0,4095.0,4095.0,2653.0,2841.0,2755.0,-2.32,10.05,5.56,0.09,-0.01,-0.03,0.0,l
3040.0,3827.0,3027.0,4095.0,4095.0,2592.0,2767.0,2677.0,-1.99,9.76,5.55,0.03,-0.01,-0.14,0.0,l
3033.0,3766.0,3067.0,4095.0,4095.0,2591.0,2765.0,2679.0,-2.0,9.31,5.85,-0.05,0.14,-0.05,0.0,l
3034.0,3782.0,3052.0,4095.0,4095.0,2609.0,2790.0,2705.0,-1.63,9.65,5.74,0.02,-0.06,-0.08,0.0,l
3041.0,3761.0,3049.0,4095.0,4095.0,2559.0,2754.0,2685.0,-1.89,9.77,5.56,0.1,-0.23,-0.21,0.0,l
3034.0,3774.0,3029.0,4095.0,4095.0,2615.0,2799.0,2703.0,-1.79,9.75,5.63,0.08,0.15,-0.19,0.0,l
3028.0,3907.0,2982.0,4095.0,4095.0,2672.0,2892.0,2774.0,-2.01,9.7,5.58,0.07,0.08,-0.23,0.0,l
3026.0,3863.0,3009.0,4095.0,4095.0,2547.0,2757.0,2736.0,-1.88,9.91,5.44,-0.07,0.19,-0.08,0.0,l
3042.0,3801.0,3013.0,4095.0,4095.0,2496.0,2699.0,2729.0,-2.17,10.06,5.31,-0.07,0.32,-0.14,0.0,l
3041.0,3761.0,3030.0,4095.0,4095.0,2473.0,2675.0,2732.0,-1.3,9.91,5.1,-0.23,0.55,-0.1,0.0,l
3045.0,3761.0,3024.0,4095.0,4095.0,2477.0,2672.0,2742.0,-1.19,9.4,6.17,-0.09,0.64,-0.2,0.0,l
3044.0,3756.0,3027.0,4095.0,4095.0,2471.0,2661.0,2738.0,-1.12,9.87,4.84,0.16,-0.11,-0.6,0.0,l
3033.0,3746.0,3029.0,4095.0,4095.0,2476.0,2666.0,2738.0,-3.82,9.16,5.46,0.24,-0.27,-0.4,0.0,l
3028.0,3745.0,3044.0,4095.0,4095.0,2482.0,2678.0,2745.0,-3.16,8.37,4.9,0.33,-0.49,-0.51,0.0,l
3024.0,3746.0,3038.0,4095.0,4095.0,2477.0,2671.0,2741.0,-3.69,8.44,5.13,-0.33,0.07,-0.24,0.0,l
3035.0,3770.0,3031.0,4095.0,4095.0,2485.0,2658.0,2751.0,-5.04,8.44,6.18,-0.25,-0.08,-0.09,0.0,l
3031.0,3763.0,3039.0,4095.0,4095.0,2491.0,2661.0,2746.0,-3.62,9.35,6.48,-0.33,0.37,0.24,0.0,l
3043.0,3733.0,3031.0,4095.0,4095.0,2494.0,2662.0,2752.0,-3.21,9.26,6.75,-0.31,0.61,0.16,0.0,l
3034.0,3755.0,3021.0,4095.0,4095.0,2502.0,2672.0,2743.0,-3.25,8.99,6.57,-0.26,0.6,-0.01,0.0,l
3027.0,3745.0,3027.0,4095.0,4095.0,2506.0,2673.0,2753.0,-3.13,9.11,6.6,-0.09,0.56,0.1,0.0,l
3031.0,3732.0,3030.0,4095.0,4095.0,2506.0,2677.0,2749.0,-2.92,9.23,6.32,-0.21,0.87,0.24,0.0,l
3041.0,3730.0,3024.0,4095.0,4095.0,2505.0,2673.0,2736.0,-1.13,9.38,7.11,-0.07,0.79,0.29,0.0,l
3043.0,3760.0,3027.0,4095.0,4095.0,2512.0,2682.0,2746.0,-1.83,9.67,5.18,0.24,0.74,0.05,0.0,l
3028.0,3750.0,3024.0,4095.0,4095.0,2512.0,2683.0,2751.0,-2.54,9.5,5.13,-0.2,0.63,-0.07,0.0,l
3033.0,3747.0,3028.0,4095.0,4095.0,2512.0,2679.0,2751.0,-1.54,9.56,6.51,-0.38,0.74,0.08,0.0,l
3028.0,3749.0,3023.0,4095.0,4095.0,2506.0,2665.0,2754.0,-2.12,9.72,6.0,-0.0,0.7,-0.23,0.0,l
3032.0,3734.0,3022.0,4095.0,4095.0,2510.0,2669.0,2765.0,-2.63,9.74,4.99,0.12,0.35,-0.04,0.0,l
3038.0,3747.0,3023.0,4095.0,4095.0,2510.0,2669.0,2761.0,-1.94,9.64,5.05,-0.01,0.09,-0.05,0.0,l
3040.0,3731.0,3039.0,4095.0,4095.0,2503.0,2671.0,2770.0,-1.71,9.83,5.57,0.05,-0.03,-0.1,0.0,l
3040.0,3746.0,3025.0,4095.0,4095.0,2498.0,2672.0,2773.0,-1.06,9.78,5.87,0.13,-0.19,-0.25,0.0,l
3035.0,3735.0,3030.0,4095.0,4095.0,2496.0,2673.0,2780.0,-2.01,9.42,5.08,0.37,-0.4,-0.46,0.0,l
3024.0,3731.0,3039.0,4095.0,4095.0,2490.0,2672.0,2774.0,-1.92,9.17,4.51,0.1,-0.69,-0.45,0.0,l
3037.0,3730.0,3036.0,4095.0,4095.0,2489.0,2662.0,2784.0,-2.24,8.69,5.22,0.14,-0.6,-0.22,0.0,l
3024.0,3723.0,3042.0,4095.0,4095.0,2487.0,2661.0,2791.0,-2.6,9.56,5.27,0.1,-0.45,-0.14,0.0,l
3029.0,3728.0,3031.0,4095.0,4095.0,2495.0,2658.0,2791.0,-2.48,9.41,5.27,0.13,-0.62,-0.17,0.0,l
3027.0,3744.0,3035.0,4095.0,4095.0,2496.0,2662.0,2795.0,-2.37,9.46,5.62,0.03,-0.63,-0.02,0.0,l
3031.0,3744.0,3053.0,4095.0,4095.0,2496.0,2653.0,2795.0,-2.66,9.64,5.97,0.01,-0.57,-0.17,0.0,l
3037.0,3733.0,3040.0,4095.0,4095.0,2497.0,2654.0,2782.0,-2.77,9.51,5.85,0.15,-0.52,-0.15,0.0,l
3034.0,3728.0,3046.0,4095.0,4095.0,2497.0,2655.0,2781.0,-2.26,9.36,5.72,-0.05,-0.36,-0.06,0.0,l
3025.0,3718.0,3039.0,4095.0,4095.0,2497.0,2651.0,2780.0,-1.92,9.39,5.78,-0.24,-0.36,-0.22,0.0,l
3027.0,3725.0,3040.0,4095.0,4095.0,2501.0,2659.0,2790.0,-2.87,9.24,6.82,-0.35,-0.23,-0.3,0.0,l
3026.0,3727.0,3039.0,4095.0,4095.0,2501.0,2649.0,2757.0,-2.51,9.33,7.31,0.02,-0.4,-0.2,0.0,l
3038.0,3737.0,3042.0,4095.0,4095.0,2511.0,2654.0,2768.0,-2.23,9.59,6.79,-0.03,-0.05,-0.18,0.0,l
3038.0,3717.0,3043.0,4095.0,4095.0,2507.0,2662.0,2783.0,-1.9,9.69,7.12,0.04,0.01,-0.09,0.0,l
3024.0,3714.0,3039.0,4095.0,4095.0,2501.0,2663.0,2783.0,-1.74,9.2,6.35,0.31,-0.25,-0.35,0.0,l
3035.0,3743.0,3043.0,4095.0,4095.0,2510.0,2659.0,2785.0,-2.58,9.01,6.26,0.08,-0.19,-0.24,0.0,l
3031.0,3728.0,3040.0,4095.0,4095.0,2508.0,2657.0,2781.0,-2.62,9.41,6.1,-0.09,-0.1,-0.2,0.0,l
3041.0,3730.0,3039.0,4095.0,4095.0,2513.0,2662.0,2786.0,-2.35,9.2,6.81,-0.16,-0.1,-0.18,0.0,l
3043.0,3738.0,3046.0,4095.0,4095.0,2510.0,2669.0,2780.0,-1.94,9.02,6.91,0.0,-0.09,-0.22,0.0,l
3025.0,3731.0,3038.0,4095.0,4095.0,2510.0,2667.0,2785.0,-2.4,8.99,6.81,-0.08,-0.1,-0.17,0.0,l
3023.0,3712.0,3037.0,4095.0,4095.0,2514.0,2668.0,2789.0,-2.55,8.92,7.24,-0.07,0.03,-0.13,0.0,l
3038.0,3738.0,3043.0,4095.0,4095.0,2522.0,2667.0,2791.0,-2.37,9.1,7.0,-0.02,0.03,-0.07,0.0,l
3027.0,3717.0,3041.0,4095.0,4095.0,2517.0,2671.0,2800.0,-2.39,9.1,7.06,-0.0,0.08,-0.01,0.0,l
3036.0,3728.0,3037.0,4095.0,4095.0,2513.0,2671.0,2797.0,-2.25,8.9,7.04,-0.11,0.16,-0.01,0.0,l
3026.0,3710.0,3036.0,4095.0,4095.0,2512.0,2671.0,2799.0,-1.97,9.36,7.1,-0.08,0.13,0.03,0.0,l
3036.0,3722.0,3031.0,4095.0,4095.0,2510.0,2672.0,2800.0,-2.07,9.48,7.68,0.1,0.3,0.03,0.0,l
3039.0,3729.0,3038.0,4095.0,4095.0,2517.0,2678.0,2803.0,-2.15,9.16,7.4,-0.09,0.29,0.12,0.0,l
3027.0,3744.0,3045.0,4095.0,4095.0,2519.0,2677.0,2803.0,-1.69,8.58,7.76,0.18,0.32,0.43,0.0,l
3038.0,3723.0,3041.0,4095.0,4095.0,2512.0,2672.0,2801.0,-1.01,9.92,6.29,0.08,0.34,0.3,0.0,l
3038.0,3712.0,3050.0,4095.0,4095.0,2490.0,2614.0,2750.0,-0.43,9.69,7.02,0.05,0.08,0.17,0.0,l
3040.0,3711.0,3065.0,4095.0,4095.0,2506.0,2606.0,2710.0,-0.06,9.73,6.78,0.29,0.03,-0.06,0.0,l
3027.0,3699.0,3064.0,4095.0,4095.0,2512.0,2639.0,2724.0,-0.64,9.64,6.26,0.38,-0.94,-0.26,0.0,l
3027.0,3686.0,3088.0,4095.0,4095.0,2513.0,2624.0,2665.0,0.1,9.89,5.53,0.01,-0.01,-0.18,0.0,l
3044.0,3619.0,3152.0,4095.0,4095.0,2542.0,2637.0,2614.0,-0.19,9.32,5.62,-0.69,-0.04,0.07,0.0,l
3029.0,3604.0,3163.0,4095.0,4095.0,2559.0,2671.0,2637.0,-0.9,9.44,7.01,0.02,-0.01,-0.22,0.0,l
3042.0,3603.0,3138.0,4095.0,4095.0,2559.0,2666.0,2655.0,-1.04,9.33,7.04,0.72,0.72,-0.33,0.0,l
3041.0,3643.0,3089.0,4095.0,4095.0,2559.0,2658.0,2690.0,0.07,10.14,5.55,0.05,-0.43,-0.72,0.0,l
3027.0,3638.0,3094.0,4095.0,4095.0,2581.0,2676.0,2667.0,-2.03,9.49,6.53,-0.12,-0.25,-0.49,0.0,l
3038.0,3634.0,3117.0,4095.0,4095.0,2589.0,2695.0,2666.0,-1.96,9.15,6.76,0.01,-0.09,-0.17,0.0,l
3033.0,3630.0,3127.0,4095.0,4095.0,2595.0,2718.0,2654.0,-1.55,9.79,6.58,0.17,-0.07,0.05,0.0,l
3037.0,3627.0,3135.0,4095.0,4095.0,2597.0,2735.0,2635.0,-0.96,9.59,6.39,-0.16,0.06,-0.18,0.0,l
3038.0,3621.0,3143.0,4095.0,4095.0,2603.0,2743.0,2658.0,-0.87,8.81,7.07,0.12,-0.01,-0.31,0.0,l
3039.0,3632.0,3155.0,4095.0,4095.0,2587.0,2742.0,2669.0,-1.94,9.41,5.95,0.08,0.19,-0.11,0.0,l
3039.0,3618.0,3148.0,4095.0,4095.0,2559.0,2736.0,2683.0,-2.46,9.7,6.05,0.08,0.07,-0.28,0.0,l
3025.0,3618.0,3141.0,4095.0,4095.0,2559.0,2736.0,2692.0,-1.42,9.55,6.76,0.08,0.11,-0.2,0.0,l
3046.0,3632.0,3145.0,4095.0,4095.0,2539.0,2725.0,2690.0,-1.39,9.83,5.94,0.08,0.25,-0.07,0.0,l
3029.0,3632.0,3137.0,4095.0,4095.0,2526.0,2704.0,2689.0,-1.83,9.76,5.79,0.03,0.35,-0.07,0.0,l
3024.0,3617.0,3132.0,4095.0,4095.0,2527.0,2704.0,2687.0,-1.4,9.5,5.97,0.02,0.18,-0.1,0.0,l
3038.0,3617.0,3127.0,4095.0,4095.0,2541.0,2700.0,2695.0,-1.69,9.58,5.79,0.1,0.13,-0.13,0.0,l
3045.0,3635.0,3126.0,4095.0,4095.0,2542.0,2704.0,2700.0,-2.13,9.33,5.26,0.02,0.17,-0.06,0.0,l
3030.0,3633.0,3125.0,4095.0,4095.0,2556.0,2707.0,2705.0,-1.47,9.02,6.05,-0.2,0.1,0.09,0.0,l
3034.0,3632.0,3130.0,4095.0,4095.0,2559.0,2706.0,2707.0,-0.83,9.45,6.26,-0.01,0.06,0.14,0.0,l
3025.0,3616.0,3122.0,4095.0,4095.0,2547.0,2704.0,2704.0,-0.3,9.81,5.65,-0.11,0.29,0.1,0.0,l
3035.0,3629.0,3127.0,4095.0,4095.0,2555.0,2705.0,2705.0,-0.96,9.73,6.13,-0.11,-0.29,-0.01,0.0,l
3049.0,3621.0,3118.0,4095.0,4095.0,2555.0,2707.0,2710.0,-0.35,10.19,6.2,-0.13,-0.13,-0.07,0.0,l
