hall_1,hall_2,hall_3,flex_t,flex_i,flex_m,flex_r,flex_p,accel_x,accel_y,accel_z,gyro_x,gyro_y,gyro_z,sign
2981.0,2000.0,2772.0,2732.0,2916.0,3600.0,2725.0,3010.0,1.34,9.32,0.37,-0.4,-1.19,0.52,m
2992.0,2003.0,2797.0,2738.0,2915.0,3598.0,2722.0,3011.0,1.71,9.5,0.98,-0.33,-0.83,0.3,m
2997.0,2004.0,2802.0,2743.0,2929.0,3626.0,2733.0,3024.0,2.72,9.43,1.43,-0.35,-1.04,0.34,m
2992.0,2000.0,2800.0,2743.0,2930.0,3609.0,2722.0,3021.0,2.86,9.26,0.5,-0.27,-1.11,0.52,m
2992.0,2006.0,2799.0,2736.0,2921.0,3599.0,2721.0,3019.0,3.58,8.68,0.48,-0.34,-1.13,0.57,m
2991.0,2002.0,2789.0,2738.0,2928.0,3605.0,2726.0,3022.0,5.17,8.47,0.63,-0.15,-0.46,0.09,m
2992.0,2003.0,2800.0,2742.0,2928.0,3608.0,2731.0,3022.0,4.99,8.77,1.39,0.12,0.57,-0.53,m
2978.0,2002.0,2788.0,2736.0,2922.0,3600.0,2731.0,3018.0,2.74,9.15,-0.11,1.04,3.32,-1.44,m
2977.0,1988.0,2790.0,2736.0,2926.0,3600.0,2730.0,3023.0,0.57,9.47,0.01,0.39,1.08,-0.55,m
2960.0,1983.0,2768.0,2716.0,2906.0,3580.0,2718.0,2999.0,1.52,9.64,0.1,0.71,0.41,-0.36,m
2948.0,1971.0,2757.0,2704.0,2896.0,3553.0,2704.0,2974.0,0.55,10.24,-1.36,0.22,1.2,-0.64,m
2974.0,1995.0,2785.0,2733.0,2926.0,3607.0,2737.0,3019.0,-0.48,9.95,-0.69,-0.42,-0.27,0.26,m
2992.0,2002.0,2791.0,2743.0,2934.0,3632.0,2743.0,3039.0,1.07,9.59,-0.4,-0.82,-1.67,0.85,m
2988.0,2000.0,2794.0,2737.0,2929.0,3622.0,2741.0,3035.0,2.62,9.33,0.25,-0.96,-1.78,0.61,m
2998.0,2010.0,2800.0,2755.0,2939.0,3632.0,2752.0,3055.0,2.4,8.92,1.11,-0.84,-0.71,0.23,m
3005.0,2010.0,2799.0,2752.0,2934.0,3625.0,2779.0,3055.0,2.23,8.59,1.9,-0.49,0.58,-0.05,m
2993.0,2003.0,2796.0,2746.0,2934.0,3627.0,2742.0,3047.0,2.09,9.0,2.34,-0.39,0.55,-0.22,m
2992.0,2003.0,2796.0,2749.0,2929.0,3601.0,2729.0,3029.0,1.43,8.44,2.87,-0.65,0.22,-0.24,m
2992.0,2005.0,2796.0,2743.0,2928.0,3598.0,2723.0,3031.0,1.38,8.33,3.0,-0.48,-0.09,-0.09,m
2992.0,2000.0,2790.0,2746.0,2923.0,3601.0,2721.0,3033.0,1.79,8.7,3.4,-0.44,0.05,-0.04,m
2986.0,2003.0,2791.0,2751.0,2928.0,3600.0,2768.0,3031.0,1.71,9.5,4.28,0.25,-0.08,-0.08,m
2992.0,1995.0,2799.0,2751.0,2928.0,3606.0,2914.0,3023.0,2.21,9.93,2.98,1.48,-0.36,-0.15,m
2999.0,2002.0,2790.0,2740.0,2931.0,3605.0,2729.0,3013.0,2.21,10.14,0.91,1.06,0.07,0.05,m
2988.0,1994.0,2799.0,2735.0,2928.0,3607.0,2736.0,3004.0,2.15,9.64,1.05,0.65,-0.28,0.08,m
3000.0,1997.0,2795.0,2739.0,2946.0,3619.0,2739.0,3009.0,1.79,9.63,0.95,0.64,-0.28,-0.03,m
2995.0,2001.0,2795.0,2737.0,2944.0,3629.0,2741.0,3014.0,1.31,9.25,-0.38,0.92,-0.12,-0.09,m
2992.0,2002.0,2793.0,2740.0,2938.0,3627.0,2747.0,3019.0,1.28,8.91,-2.05,0.82,-0.07,0.05,m
2999.0,1997.0,2798.0,2739.0,2944.0,3621.0,2745.0,3021.0,2.0,8.72,-3.36,0.48,-0.02,0.09,m
2997.0,1995.0,2799.0,2742.0,2946.0,3634.0,2755.0,3018.0,2.06,8.46,-4.19,-0.2,0.41,-0.15,m
2992.0,2001.0,2801.0,2747.0,2948.0,3632.0,2747.0,3024.0,2.36,8.69,-2.67,-0.87,0.21,-0.14,m
3003.0,2000.0,2800.0,2755.0,2949.0,3634.0,2761.0,3029.0,1.29,9.26,-1.09,-0.83,0.23,-0.35,m
3007.0,2000.0,2798.0,2749.0,2953.0,3643.0,2759.0,3037.0,1.02,9.5,0.17,-0.85,0.1,-0.18,m
2998.0,2000.0,2801.0,2753.0,2950.0,3634.0,2754.0,3033.0,0.96,9.39,0.53,-0.7,0.48,-0.37,m
2998.0,1999.0,2798.0,2752.0,2946.0,3634.0,2750.0,3034.0,0.28,9.11,1.19,-1.07,0.22,-0.18,m
2999.0,2000.0,2800.0,2752.0,2951.0,3632.0,2752.0,3035.0,0.7,9.48,2.75,-0.77,0.14,-0.18,m
2992.0,1995.0,2797.0,2755.0,2954.0,3644.0,2753.0,3034.0,0.18,9.68,3.31,-0.41,0.21,-0.15,m
2993.0,2000.0,2801.0,2750.0,2951.0,3646.0,2754.0,3037.0,0.56,10.4,4.86,0.4,-0.12,-0.04,m
2997.0,1999.0,2805.0,2754.0,2951.0,3637.0,2754.0,3037.0,0.19,9.59,2.48,1.0,-0.29,0.18,m
3002.0,2000.0,2798.0,2748.0,2960.0,3646.0,2762.0,3042.0,1.28,9.05,0.65,1.12,-0.24,0.06,m
2996.0,2000.0,2795.0,2751.0,2948.0,3641.0,2758.0,3047.0,1.0,9.05,-1.16,0.18,0.31,-0.34,m
2998.0,1999.0,2802.0,2739.0,2934.0,3627.0,2744.0,3082.0,0.37,7.7,1.24,-0.82,-0.18,-0.39,m
2994.0,2001.0,2800.0,2743.0,2925.0,3605.0,2745.0,3102.0,-0.06,9.25,1.66,-0.59,0.05,-0.34,m
3003.0,2001.0,2799.0,2751.0,2926.0,3583.0,2738.0,3119.0,-0.4,9.28,2.38,-0.69,0.11,-0.25,m
2998.0,2005.0,2798.0,2743.0,2915.0,3581.0,2737.0,3124.0,-0.62,8.71,3.51,-0.77,-0.15,-0.07,m
2993.0,2010.0,2800.0,2746.0,2914.0,3562.0,2719.0,3121.0,-0.49,8.68,3.95,-0.88,-0.01,-0.21,m
2998.0,2004.0,2795.0,2738.0,2914.0,3546.0,2719.0,3131.0,-0.42,8.28,4.7,-0.7,-0.01,-0.27,m
3001.0,1989.0,2800.0,2734.0,2915.0,3551.0,2714.0,3137.0,-1.38,7.63,5.35,-0.45,0.08,-0.23,m
2994.0,1991.0,2800.0,2746.0,2928.0,3557.0,2711.0,3131.0,-1.31,8.0,5.13,1.2,0.02,0.32,m
2998.0,1984.0,2794.0,2760.0,2939.0,3565.0,2723.0,3093.0,-0.55,9.43,3.11,1.61,-0.13,0.69,m
3003.0,1987.0,2803.0,2757.0,2935.0,3582.0,2733.0,3067.0,0.16,9.45,2.18,0.87,-0.55,0.68,m
2994.0,1980.0,2795.0,2769.0,2944.0,3600.0,2749.0,3081.0,0.99,9.61,1.19,0.77,-0.7,0.41,m
2992.0,1981.0,2800.0,2813.0,2944.0,3621.0,2763.0,3066.0,1.58,9.97,0.69,0.42,-0.58,0.4,m
2991.0,1985.0,2798.0,2838.0,2935.0,3628.0,2768.0,3056.0,1.73,9.9,-0.08,0.37,-0.36,0.41,m
2992.0,2000.0,2798.0,2862.0,2930.0,3631.0,2788.0,3050.0,2.42,10.02,-0.1,0.02,-0.01,-0.04,m
2992.0,2000.0,2795.0,2832.0,2939.0,3614.0,2768.0,2999.0,1.9,9.46,0.23,-0.29,0.33,-0.3,m
3002.0,2021.0,2797.0,2752.0,2931.0,3571.0,2611.0,2852.0,0.96,8.94,0.56,-0.15,0.17,-0.24,m
2994.0,2022.0,2799.0,2726.0,2929.0,3557.0,2546.0,2827.0,1.03,9.3,0.7,-0.12,-0.04,-0.07,m
3003.0,2028.0,2799.0,2703.0,2912.0,3555.0,2538.0,2825.0,1.31,9.74,0.61,-0.04,-0.11,0.05,m
3003.0,2026.0,2800.0,2638.0,2905.0,3539.0,2502.0,2809.0,1.18,9.79,0.55,-0.05,-0.01,0.06,m
3002.0,2021.0,2811.0,2559.0,2910.0,3542.0,2505.0,2813.0,1.29,9.54,0.62,0.06,-0.12,0.14,m
2997.0,2010.0,2800.0,2691.0,2921.0,3557.0,2559.0,2898.0,1.53,9.67,0.24,0.02,-0.12,0.34,m
2998.0,2002.0,2801.0,2803.0,2928.0,3583.0,2625.0,2974.0,2.25,9.32,0.41,-0.15,-0.3,0.56,m
2999.0,1984.0,2804.0,2847.0,2933.0,3647.0,2749.0,3071.0,2.84,9.42,0.24,0.09,-0.24,0.25,m
2993.0,1974.0,2805.0,2877.0,2950.0,3711.0,2842.0,3152.0,3.58,9.3,-0.1,0.12,-0.14,0.08,m
3006.0,1965.0,2805.0,2881.0,2973.0,3821.0,2964.0,3221.0,3.23,9.31,-0.91,0.08,0.64,-0.3,m
3001.0,1936.0,2806.0,2857.0,2987.0,3894.0,3042.0,3242.0,2.7,9.23,0.2,-0.27,0.49,-0.17,m
3006.0,1975.0,2802.0,2737.0,2992.0,3902.0,2925.0,3158.0,2.56,9.25,1.47,-0.21,0.29,-0.16,m
3003.0,2038.0,2807.0,2691.0,2970.0,3760.0,2795.0,3023.0,2.12,9.65,0.86,0.02,0.19,-0.11,m
3006.0,2067.0,2805.0,2679.0,2945.0,3664.0,2716.0,2954.0,2.36,9.56,1.0,0.07,0.06,-0.05,m
3007.0,2092.0,2800.0,2651.0,2911.0,3554.0,2595.0,2896.0,2.0,9.24,0.48,0.11,-0.01,-0.14,m
3015.0,2099.0,2803.0,2660.0,2884.0,3490.0,2522.0,2859.0,2.08,9.32,0.5,0.04,-0.1,0.01,m
3003.0,2086.0,2800.0,2671.0,2874.0,3461.0,2495.0,2841.0,1.93,9.28,0.28,-0.01,-0.27,0.17,m
3002.0,2063.0,2799.0,2710.0,2886.0,3456.0,2513.0,2853.0,2.6,9.27,0.28,0.08,-0.36,0.18,m
3002.0,1985.0,2800.0,2739.0,2969.0,3679.0,2691.0,2986.0,2.65,10.13,-0.02,0.1,-0.16,-0.08,m
3003.0,1951.0,2807.0,2745.0,3071.0,3839.0,2847.0,3031.0,2.5,9.71,0.11,0.02,-0.04,-0.01,m
3007.0,1929.0,2799.0,2757.0,3157.0,3959.0,2981.0,3095.0,2.5,9.48,-0.06,-0.05,0.17,-0.07,m
3006.0,1899.0,2800.0,2753.0,3226.0,4081.0,3085.0,3153.0,2.29,9.31,0.14,-0.11,0.13,-0.01,m
3006.0,1910.0,2793.0,2739.0,3197.0,3983.0,2989.0,3129.0,2.3,9.26,0.42,-0.09,0.19,0.03,m
3003.0,1929.0,2800.0,2736.0,3019.0,3743.0,2750.0,3037.0,2.51,9.32,0.6,-0.18,0.41,-0.05,m
3005.0,1983.0,2801.0,2688.0,2928.0,3632.0,2669.0,2982.0,2.2,9.15,0.63,-0.17,0.34,-0.24,m
3011.0,2035.0,2796.0,2656.0,2893.0,3519.0,2559.0,2890.0,2.18,9.52,0.53,-0.12,0.12,-0.1,m
3011.0,2042.0,2800.0,2704.0,2891.0,3518.0,2544.0,2881.0,2.35,9.52,0.48,0.01,-0.57,0.09,m
3001.0,2006.0,2798.0,2807.0,2896.0,3566.0,2584.0,2928.0,1.48,8.84,-0.61,-0.47,-0.61,0.45,m
2994.0,2000.0,2801.0,2895.0,2912.0,3597.0,2599.0,2924.0,3.43,8.77,1.65,-0.42,-0.15,0.36,m
2990.0,2000.0,2797.0,2982.0,2925.0,3722.0,2718.0,3088.0,3.01,8.88,1.26,-0.1,0.44,-0.01,m
2992.0,1984.0,2803.0,3022.0,2939.0,3828.0,2832.0,3178.0,3.0,9.26,1.49,-0.03,0.43,0.03,m
2992.0,1968.0,2806.0,2957.0,2959.0,3883.0,2929.0,3163.0,3.54,8.88,1.64,0.01,0.07,-0.0,m
2992.0,2067.0,2800.0,2778.0,2953.0,3792.0,2714.0,2964.0,3.64,9.42,1.24,0.2,-0.04,-0.09,m
3002.0,2083.0,2800.0,2749.0,2949.0,3669.0,2602.0,2881.0,3.34,8.92,0.82,0.1,-0.23,-0.01,m
2990.0,2032.0,2800.0,2832.0,2951.0,3715.0,2661.0,2928.0,3.83,8.94,0.43,-0.23,-0.5,-0.08,m
2987.0,1997.0,2795.0,2947.0,2964.0,3888.0,2781.0,3005.0,3.45,8.78,1.18,-0.44,0.27,0.14,m
2981.0,1972.0,2794.0,3061.0,2979.0,3940.0,2833.0,3086.0,2.87,8.75,1.52,-0.2,0.46,0.01,m
2982.0,1961.0,2800.0,3109.0,2991.0,4004.0,2919.0,3185.0,3.13,8.98,2.15,0.02,-0.02,-0.08,m
2992.0,1957.0,2795.0,3071.0,2989.0,3999.0,2933.0,3175.0,3.22,8.99,1.49,0.27,-0.35,-0.07,m
2991.0,1958.0,2800.0,3014.0,3013.0,4048.0,2939.0,3136.0,3.44,9.79,0.69,0.72,-0.43,-0.2,m
3000.0,1952.0,2794.0,2999.0,3026.0,4063.0,2937.0,3129.0,3.61,9.48,-0.06,0.18,-0.44,-0.07,m
2992.0,1958.0,2791.0,2966.0,3034.0,4073.0,2905.0,3088.0,3.39,10.1,-0.25,0.24,-0.28,0.01,m
2989.0,1972.0,2800.0,2954.0,3015.0,4007.0,2835.0,3090.0,3.85,8.49,0.48,-0.23,-0.45,-0.59,m
2992.0,1982.0,2801.0,2943.0,3005.0,3952.0,2775.0,3089.0,2.46,9.78,-0.63,-0.61,0.1,0.53,m
2986.0,1993.0,2802.0,2895.0,2990.0,3863.0,2722.0,3066.0,3.65,9.11,0.67,-0.57,1.36,-0.12,m
2995.0,2003.0,2807.0,2896.0,2967.0,3853.0,2704.0,3056.0,1.87,8.58,1.36,-0.17,1.0,-0.02,m
2999.0,2005.0,2814.0,2864.0,2974.0,3840.0,2628.0,2956.0,2.88,8.3,2.35,-0.25,-0.01,-0.02,m
2994.0,1991.0,2810.0,2894.0,2989.0,3861.0,2642.0,2972.0,2.93,9.55,1.46,-0.06,-0.95,0.06,m
2993.0,1988.0,2798.0,2915.0,2999.0,3940.0,2726.0,3034.0,2.89,9.32,1.06,0.11,-0.06,-0.05,m
2988.0,1982.0,2802.0,2960.0,3010.0,3985.0,2765.0,3045.0,3.46,8.81,1.55,0.2,0.01,0.1,m
2992.0,1988.0,2811.0,2907.0,3005.0,3942.0,2742.0,3024.0,3.9,8.77,1.62,0.48,-0.0,-0.33,m
2998.0,1998.0,2809.0,2769.0,2969.0,3866.0,2623.0,2923.0,3.28,9.52,0.14,0.21,-0.28,-0.09,m
2992.0,1984.0,2809.0,2775.0,2976.0,3862.0,2637.0,2972.0,3.17,9.79,-0.33,-0.36,0.27,0.18,m
3002.0,1979.0,2813.0,2887.0,2979.0,3920.0,2740.0,3083.0,2.41,7.73,1.31,-0.8,1.26,0.12,m
2993.0,1983.0,2817.0,2845.0,2983.0,3929.0,2743.0,3066.0,4.0,7.65,3.8,-0.34,0.07,-0.1,m
3002.0,1975.0,2807.0,2747.0,2967.0,3883.0,2627.0,2992.0,3.16,9.57,1.94,0.09,-1.01,-0.14,m
2993.0,1983.0,2815.0,2772.0,2955.0,3849.0,2617.0,2991.0,2.99,9.2,1.63,0.3,-1.08,0.21,m
2991.0,1989.0,2811.0,2864.0,2967.0,3854.0,2646.0,3000.0,3.82,9.35,-0.36,0.08,-1.31,0.59,m
2988.0,2000.0,2815.0,2908.0,2973.0,3882.0,2691.0,3034.0,5.78,8.31,1.39,0.08,1.39,0.23,m
2991.0,1998.0,2805.0,2914.0,2983.0,3888.0,2701.0,3024.0,4.84,7.82,1.91,0.03,1.51,-0.25,m
3001.0,1994.0,2819.0,2826.0,2980.0,3905.0,2704.0,3029.0,4.11,8.08,2.52,-0.03,0.69,-0.62,m
3005.0,1984.0,2815.0,2780.0,2967.0,3915.0,2688.0,3017.0,2.9,8.79,2.32,0.04,-0.32,-0.65,m
2994.0,1985.0,2810.0,2800.0,2961.0,3895.0,2678.0,3019.0,3.22,9.56,1.8,-0.3,-1.56,-0.2,m
2991.0,1975.0,2806.0,2816.0,2960.0,3874.0,2675.0,3025.0,2.49,9.75,1.01,-0.2,-1.63,0.35,m
2991.0,1980.0,2816.0,2825.0,2965.0,3878.0,2672.0,3024.0,4.6,8.91,1.54,-0.04,-0.9,0.29,m
2995.0,1987.0,2813.0,2837.0,2975.0,3887.0,2688.0,3027.0,4.55,8.6,1.31,0.92,2.8,-0.64,m
2992.0,1982.0,2807.0,2826.0,2961.0,3863.0,2688.0,3031.0,3.55,9.24,0.91,0.58,2.03,-0.91,m
2992.0,1979.0,2801.0,2823.0,2964.0,3870.0,2692.0,3045.0,1.47,9.27,1.24,0.19,1.3,-0.45,m
2960.0,1962.0,2795.0,2806.0,2947.0,3829.0,2677.0,3022.0,0.97,9.15,1.01,0.45,1.58,-0.33,m
2967.0,1968.0,2787.0,2801.0,2935.0,3824.0,2677.0,3015.0,0.12,9.1,-0.02,0.5,0.81,0.03,m
2983.0,1969.0,2800.0,2846.0,2959.0,3847.0,2683.0,3042.0,1.22,9.75,-0.05,-0.37,-2.86,0.81,m
2983.0,1981.0,2802.0,2849.0,2966.0,3843.0,2685.0,3051.0,4.2,9.35,0.45,-1.12,-2.8,0.54,m
2986.0,1974.0,2800.0,2864.0,2973.0,3837.0,2689.0,3061.0,3.1,8.73,1.79,-0.53,-0.13,0.03,m
2992.0,1983.0,2800.0,2859.0,2971.0,3815.0,2691.0,3088.0,2.77,8.57,1.41,-0.7,0.31,-0.32,m
2982.0,1974.0,2809.0,2843.0,2960.0,3802.0,2682.0,3090.0,2.25,9.08,2.69,-1.33,0.06,-0.47,m
2987.0,1973.0,2803.0,2823.0,2963.0,3760.0,2668.0,3117.0,0.83,8.21,4.91,-2.0,-0.04,-0.46,m
2995.0,1968.0,2807.0,2829.0,2979.0,3775.0,2678.0,3139.0,0.41,7.53,6.75,-0.04,-0.28,-0.27,m
2989.0,1964.0,2802.0,2832.0,2975.0,3784.0,2672.0,3109.0,1.03,8.26,4.96,1.64,-0.32,0.56,m
2985.0,1953.0,2800.0,2832.0,2971.0,3790.0,2686.0,3059.0,1.81,8.8,2.74,1.38,-0.01,0.6,m
2980.0,1965.0,2811.0,2837.0,2967.0,3808.0,2695.0,3029.0,2.98,8.65,1.78,0.93,-0.39,0.48,m
2985.0,1959.0,2807.0,2838.0,2970.0,3807.0,2703.0,3024.0,3.03,8.95,0.48,0.7,-0.35,0.45,m
2995.0,1968.0,2809.0,2842.0,2974.0,3825.0,2723.0,3019.0,2.43,8.56,-1.68,0.15,-0.89,0.83,m
2995.0,1970.0,2806.0,2862.0,2982.0,3844.0,2738.0,3050.0,6.31,7.93,-0.65,-1.0,-1.75,0.68,m
2992.0,1975.0,2802.0,2880.0,2987.0,3840.0,2749.0,3056.0,6.06,8.55,0.25,0.06,0.52,-0.49,m
2991.0,1969.0,2800.0,2882.0,2993.0,3840.0,2757.0,3071.0,2.98,9.05,-0.34,0.81,2.68,-1.36,m
2983.0,1968.0,2809.0,2893.0,3000.0,3856.0,2756.0,3103.0,1.43,9.18,-0.95,0.34,1.89,-0.84,m
2971.0,1961.0,2794.0,2865.0,2991.0,3830.0,2753.0,3088.0,1.28,9.51,-0.01,0.12,1.69,-0.55,m
2956.0,1941.0,2768.0,2843.0,2965.0,3798.0,2738.0,3061.0,1.67,9.65,-0.17,0.16,1.81,-0.54,m
2942.0,1933.0,2758.0,2747.0,2960.0,3772.0,2706.0,2960.0,0.22,9.13,-0.07,0.29,1.22,-0.1,m
2966.0,1947.0,2783.0,2781.0,2988.0,3841.0,2714.0,2986.0,0.5,9.83,-1.21,-0.37,-2.66,0.98,m
2994.0,1962.0,2797.0,2832.0,3008.0,3856.0,2733.0,3045.0,2.94,9.19,0.07,-1.0,-2.73,0.9,m
2980.0,1959.0,2800.0,2853.0,3021.0,3856.0,2734.0,3107.0,4.43,9.3,0.63,-1.0,-2.28,0.51,m
2991.0,1969.0,2804.0,2864.0,3026.0,3858.0,2754.0,3147.0,4.62,8.67,1.1,-0.71,-0.62,-0.15,m
2989.0,1957.0,2790.0,2863.0,3023.0,3837.0,2745.0,3139.0,3.72,8.61,0.96,-0.71,-0.03,-0.16,m
2986.0,1953.0,2800.0,2853.0,3024.0,3824.0,2736.0,3152.0,3.92,8.69,1.74,-1.42,0.42,-0.26,m
2992.0,1950.0,2798.0,2833.0,3019.0,3813.0,2731.0,3173.0,2.44,8.29,3.92,-1.71,0.4,-0.26,m
2992.0,1951.0,2800.0,2829.0,3008.0,3807.0,2734.0,3184.0,1.6,8.01,5.49,-0.72,0.47,-0.28,m
2999.0,1951.0,2807.0,2832.0,3017.0,3824.0,2746.0,3190.0,1.83,7.56,5.38,1.13,-0.2,0.39,m
2992.0,1978.0,2831.0,2828.0,3019.0,3858.0,2767.0,3149.0,3.23,8.97,2.82,1.68,0.01,0.15,m
2992.0,1962.0,2827.0,2829.0,3021.0,3879.0,2765.0,3102.0,3.78,9.17,1.65,1.12,-0.66,0.01,m
2994.0,1963.0,2815.0,2848.0,3024.0,3875.0,2769.0,3071.0,3.27,9.27,0.51,1.13,-0.2,-0.29,m
2990.0,1959.0,2814.0,2864.0,3010.0,3866.0,2795.0,3055.0,2.36,9.52,-1.3,0.84,-0.0,-0.56,m
2993.0,1957.0,2815.0,2863.0,3007.0,3884.0,2803.0,3084.0,3.04,9.92,-1.98,-0.54,-0.26,0.06,m
2987.0,1958.0,2818.0,2861.0,3018.0,3886.0,2802.0,3110.0,2.45,9.75,-0.12,-0.57,-0.85,0.37,m
2998.0,1958.0,2822.0,2868.0,3017.0,3906.0,2812.0,3132.0,3.75,9.52,0.83,-0.07,1.2,-0.18,m
3001.0,1968.0,2823.0,2880.0,3026.0,3925.0,2823.0,3152.0,2.28,9.35,0.37,0.41,2.41,-0.7,m
2994.0,1969.0,2822.0,2883.0,3013.0,3920.0,2832.0,3155.0,1.11,9.2,0.13,0.28,2.04,-0.61,m
2954.0,1937.0,2783.0,2839.0,2965.0,3830.0,2786.0,3110.0,0.16,9.34,-0.2,0.22,1.41,-0.31,m
2950.0,1936.0,2779.0,2836.0,2969.0,3834.0,2792.0,3108.0,-0.59,9.66,-0.29,0.21,-0.54,0.33,m
2992.0,1968.0,2832.0,2885.0,3007.0,3919.0,2822.0,3157.0,1.54,9.58,-1.02,-0.49,-3.19,0.97,m
3003.0,1968.0,2822.0,2894.0,3019.0,3929.0,2839.0,3186.0,3.67,9.48,0.3,-0.69,-2.76,0.69,m
2997.0,1967.0,2829.0,2878.0,3005.0,3919.0,2837.0,3142.0,2.87,9.21,0.36,-0.05,-0.22,0.26,m
2997.0,2013.0,2823.0,2818.0,2943.0,3746.0,2682.0,2981.0,2.99,9.49,-0.18,-0.03,-0.06,0.25,m
2998.0,2055.0,2823.0,2767.0,2927.0,3654.0,2541.0,2875.0,2.94,9.24,-0.17,0.06,0.04,0.0,m
2999.0,2062.0,2826.0,2832.0,2957.0,3710.0,2559.0,2902.0,3.03,9.52,-0.05,-0.22,0.27,-0.2,m
2990.0,2015.0,2821.0,2951.0,2974.0,3847.0,2701.0,3056.0,2.95,9.4,0.35,-0.27,-0.21,-0.06,m
2995.0,2010.0,2825.0,2844.0,2959.0,3749.0,2726.0,3050.0,2.15,9.59,0.48,0.37,0.55,0.15,m
3001.0,2035.0,2826.0,2728.0,2917.0,3557.0,2559.0,2896.0,3.51,9.65,-0.06,-0.02,-0.15,0.04,m
2999.0,2036.0,2823.0,2727.0,2902.0,3511.0,2514.0,2837.0,2.77,9.48,0.2,-0.12,0.07,-0.02,m
2998.0,2037.0,2825.0,2734.0,2910.0,3501.0,2511.0,2835.0,2.98,9.5,0.0,-0.1,0.11,-0.09,m
2999.0,2021.0,2818.0,2813.0,2931.0,3567.0,2581.0,2911.0,2.98,9.65,0.34,0.1,-0.3,0.09,m
2992.0,1999.0,2831.0,2895.0,2978.0,3845.0,2837.0,3101.0,2.79,9.32,-0.1,0.1,-0.24,0.01,m
2992.0,1957.0,2831.0,2954.0,3351.0,4095.0,3358.0,3231.0,2.93,9.46,-0.24,-0.04,-0.0,0.01,m
2992.0,1938.0,2827.0,2912.0,3571.0,4095.0,3483.0,3248.0,2.91,9.45,0.05,-0.01,0.15,0.02,m
2991.0,1955.0,2827.0,2866.0,3373.0,4095.0,3131.0,3174.0,2.78,9.12,-0.11,-0.0,0.23,0.05,m
2996.0,1995.0,2827.0,2778.0,3010.0,3788.0,2777.0,3027.0,3.21,9.23,-0.18,0.02,0.22,-0.06,m
3001.0,2045.0,2828.0,2737.0,2928.0,3538.0,2656.0,2973.0,3.01,9.33,-0.23,-0.11,0.22,-0.09,m
2998.0,2063.0,2832.0,2743.0,2921.0,3477.0,2559.0,2913.0,3.01,9.48,0.12,-0.08,0.12,-0.06,m
3002.0,2057.0,2825.0,2725.0,2921.0,3451.0,2528.0,2864.0,2.7,9.35,0.05,-0.03,0.1,-0.03,m
2999.0,2034.0,2829.0,2743.0,2937.0,3490.0,2559.0,2894.0,2.98,9.29,0.09,0.07,0.02,0.06,m
3002.0,2018.0,2816.0,2690.0,2979.0,3630.0,2725.0,3025.0,3.19,9.73,-0.22,0.0,0.4,-0.11,m
2997.0,1991.0,2826.0,2698.0,3018.0,3789.0,2870.0,3131.0,3.12,9.75,-0.33,0.02,-0.09,0.0,m
3008.0,1936.0,2831.0,2731.0,3069.0,4023.0,3113.0,3207.0,2.88,9.15,-0.36,0.09,-0.11,0.23,m
3009.0,1927.0,2825.0,2762.0,3095.0,4043.0,3142.0,3235.0,2.91,8.68,-0.2,-0.2,0.11,0.18,m
3005.0,1951.0,2830.0,2759.0,3056.0,3858.0,2941.0,3185.0,3.08,8.13,0.63,-0.27,0.2,-0.04,m
3008.0,2014.0,2832.0,2739.0,2976.0,3658.0,2691.0,3037.0,3.05,8.82,1.12,-0.41,0.12,-0.17,m
3004.0,2032.0,2832.0,2713.0,2928.0,3513.0,2522.0,2903.0,2.96,10.12,1.57,0.12,-0.35,-0.66,m
3008.0,2032.0,2822.0,2701.0,2923.0,3504.0,2498.0,2870.0,1.2,11.03,-0.6,0.19,-0.2,0.0,m
3009.0,2035.0,2825.0,2748.0,2928.0,3526.0,2538.0,2911.0,1.71,10.03,-0.29,0.17,0.12,0.55,m
3006.0,2004.0,2828.0,2823.0,2946.0,3598.0,2610.0,2987.0,3.12,8.84,-0.18,-0.16,0.44,0.68,m
2993.0,2004.0,2825.0,2869.0,3003.0,3681.0,2651.0,3056.0,4.24,8.23,0.77,-0.22,0.14,0.32,m
2993.0,1997.0,2830.0,2950.0,3088.0,3814.0,2721.0,3150.0,3.68,8.15,0.78,-0.13,0.33,0.06,m
2992.0,1989.0,2832.0,3003.0,3126.0,3926.0,2833.0,3246.0,3.79,7.92,1.68,-0.37,0.11,-0.26,m
2996.0,1979.0,2831.0,2990.0,3140.0,3978.0,2874.0,3215.0,3.77,9.07,1.56,-0.18,0.14,-0.46,m
2992.0,1981.0,2823.0,2921.0,3142.0,3984.0,2827.0,3105.0,3.79,10.38,1.88,-0.02,-0.4,-0.49,m
2994.0,1980.0,2832.0,2953.0,3127.0,3997.0,2838.0,3120.0,1.83,10.91,1.11,0.11,-0.49,-0.26,m
2990.0,1975.0,2821.0,3031.0,3155.0,4084.0,2926.0,3239.0,1.6,9.53,0.75,0.3,-0.19,0.24,m
2983.0,1979.0,2835.0,3087.0,3247.0,4095.0,3071.0,3281.0,2.41,9.15,0.16,0.12,0.21,0.4,m
2981.0,1970.0,2822.0,3085.0,3299.0,4095.0,3103.0,3296.0,3.12,9.01,0.84,0.05,0.23,0.45,m
2979.0,1975.0,2825.0,3008.0,3309.0,4095.0,3069.0,3235.0,3.67,7.96,0.86,-0.04,0.11,0.23,m
2987.0,1988.0,2831.0,2913.0,3279.0,4095.0,2965.0,3154.0,3.96,8.15,0.67,-0.32,0.33,0.1,m
2992.0,2029.0,2826.0,2861.0,3197.0,4095.0,2790.0,3088.0,4.14,8.61,1.75,-0.29,0.15,-0.21,m
2993.0,2055.0,2821.0,2845.0,3106.0,3981.0,2708.0,3047.0,3.55,8.98,2.26,-0.33,-0.17,-0.43,m
3008.0,2044.0,2823.0,2822.0,2966.0,3747.0,2635.0,3012.0,2.83,10.17,1.22,0.04,-0.23,-0.24,m
3003.0,2055.0,2818.0,2793.0,2942.0,3603.0,2554.0,2916.0,2.7,9.88,1.15,0.09,-0.17,0.0,m
3008.0,2059.0,2826.0,2774.0,2928.0,3550.0,2511.0,2852.0,3.02,9.45,0.59,0.19,-0.07,0.27,m
3009.0,2056.0,2832.0,2779.0,2934.0,3553.0,2514.0,2853.0,3.27,9.21,0.55,0.34,0.05,0.34,m
2999.0,2034.0,2832.0,2832.0,2968.0,3635.0,2595.0,2938.0,3.71,8.4,0.29,0.28,-0.32,0.45,m
3009.0,2038.0,2826.0,2815.0,2975.0,3664.0,2622.0,2933.0,4.37,7.14,0.24,-0.12,0.14,-0.06,m
3003.0,2041.0,2830.0,2803.0,2977.0,3652.0,2606.0,2915.0,3.97,7.66,0.4,-0.47,0.08,-0.6,m
3001.0,2037.0,2827.0,2798.0,2983.0,3659.0,2603.0,2909.0,2.86,9.69,0.35,-0.74,0.48,-0.57,m
3009.0,2055.0,2826.0,2795.0,2976.0,3633.0,2592.0,2912.0,3.55,9.68,3.97,-0.82,-0.38,-0.27,m
3008.0,2035.0,2831.0,2809.0,2981.0,3634.0,2606.0,2927.0,2.11,10.94,2.47,0.52,-0.22,-0.34,m
2995.0,2019.0,2826.0,2838.0,3007.0,3709.0,2677.0,3024.0,1.68,9.67,0.85,0.7,-0.19,0.33,m
2992.0,1998.0,2832.0,2893.0,3036.0,3811.0,2784.0,3120.0,3.03,8.73,0.11,0.53,0.26,0.51,m
2999.0,1993.0,2833.0,2911.0,3043.0,3889.0,2853.0,3168.0,3.62,8.52,0.22,-0.04,0.24,0.33,m
2999.0,1974.0,2830.0,2931.0,3070.0,3965.0,2919.0,3216.0,3.17,8.03,0.45,-0.17,0.57,0.0,m
2994.0,1978.0,2829.0,2925.0,3071.0,3979.0,2915.0,3183.0,4.02,8.3,2.03,-0.45,0.57,-0.2,m
2999.0,1987.0,2834.0,2890.0,3054.0,3919.0,2849.0,3095.0,4.15,9.04,3.04,0.13,0.52,-0.74,m
2992.0,1988.0,2822.0,2838.0,3007.0,3805.0,2690.0,3014.0,1.12,10.47,0.96,0.45,0.66,-0.69,m
3008.0,2028.0,2830.0,2789.0,2973.0,3724.0,2603.0,2947.0,0.59,10.57,0.5,-0.02,-0.94,0.3,m
3008.0,2031.0,2835.0,2757.0,2957.0,3604.0,2537.0,2893.0,2.26,9.48,0.35,-0.06,-1.13,0.56,m
3009.0,2028.0,2832.0,2768.0,2958.0,3583.0,2535.0,2896.0,3.08,9.09,-0.09,0.18,-0.46,0.51,m
3003.0,2010.0,2829.0,2796.0,2993.0,3678.0,2620.0,2992.0,3.3,9.07,-0.57,0.22,-0.8,0.42,m
2996.0,1950.0,2831.0,2836.0,3118.0,4095.0,2997.0,3223.0,3.9,7.9,-0.23,-0.13,-0.34,0.3,m
2994.0,1950.0,2829.0,2878.0,3196.0,4095.0,3050.0,3249.0,4.3,8.24,-0.18,-0.01,-0.21,0.11,m
2994.0,1945.0,2823.0,2878.0,3152.0,4029.0,3004.0,3239.0,4.01,8.49,-0.16,-0.08,0.67,-0.26,m
3003.0,1978.0,2828.0,2797.0,2992.0,3727.0,2768.0,3091.0,4.25,8.28,0.45,-0.3,0.68,-0.59,m
3007.0,2022.0,2831.0,2766.0,2954.0,3566.0,2621.0,2989.0,3.94,9.68,0.78,-0.31,0.01,-0.76,m
3006.0,2047.0,2833.0,2742.0,2930.0,3492.0,2524.0,2880.0,1.87,10.54,0.37,-0.1,-0.1,-0.69,m
3008.0,2074.0,2832.0,2734.0,2930.0,3485.0,2497.0,2843.0,1.16,10.34,0.89,0.04,-0.6,0.0,m
3003.0,2039.0,2829.0,2783.0,2967.0,3563.0,2559.0,2923.0,1.7,9.6,-0.14,0.61,-0.86,0.48,m
2993.0,1984.0,2832.0,2807.0,3001.0,3815.0,2775.0,3093.0,2.38,8.92,-0.91,0.13,-0.34,0.34,m
2991.0,1987.0,2826.0,2842.0,3034.0,3888.0,2851.0,3183.0,2.63,8.85,-0.55,0.11,0.03,0.1,m
2992.0,1975.0,2835.0,2864.0,3171.0,4014.0,2995.0,3276.0,3.01,9.24,-0.77,-0.12,0.3,-0.02,m
2993.0,1949.0,2823.0,2867.0,3364.0,4095.0,3216.0,3326.0,2.28,8.94,-0.07,-0.2,0.7,-0.05,m
3005.0,1961.0,2829.0,2838.0,3375.0,4095.0,3121.0,3321.0,2.0,9.21,0.26,0.05,1.32,-0.28,m
3003.0,1997.0,2830.0,2774.0,3150.0,3884.0,2821.0,3174.0,2.83,9.36,0.29,-0.04,0.36,-0.17,m
3007.0,2039.0,2831.0,2745.0,2999.0,3667.0,2679.0,3052.0,2.42,9.27,0.35,-0.06,0.23,-0.19,m
3007.0,2061.0,2835.0,2736.0,2961.0,3533.0,2581.0,2976.0,2.31,9.13,0.09,-0.15,0.11,-0.21,m
3009.0,2067.0,2834.0,2730.0,2971.0,3504.0,2529.0,2930.0,2.25,9.44,0.33,-0.04,-0.26,-0.14,m
3014.0,2067.0,2832.0,2749.0,3008.0,3537.0,2521.0,2907.0,1.62,9.56,-0.12,0.2,-0.24,0.04,m
3008.0,2055.0,2832.0,2753.0,2999.0,3600.0,2559.0,2947.0,3.37,9.4,-0.1,0.35,2.6,-0.52,m
3009.0,2032.0,2827.0,2765.0,2995.0,3618.0,2611.0,3023.0,0.85,9.46,-0.92,0.21,2.13,-0.55,m
3007.0,2032.0,2826.0,2781.0,3017.0,3651.0,2656.0,3117.0,0.45,9.23,-0.07,-0.11,-0.64,-0.03,m
3009.0,2023.0,2828.0,2832.0,3019.0,3690.0,2690.0,3177.0,1.71,9.43,-0.12,-0.56,-1.66,0.39,m
3011.0,2017.0,2822.0,2833.0,3021.0,3705.0,2704.0,3152.0,2.36,9.4,0.68,-0.53,-2.05,0.49,m
3006.0,2022.0,2818.0,2842.0,3029.0,3757.0,2766.0,3159.0,2.8,8.85,0.57,-0.36,-1.88,0.53,m
3000.0,2039.0,2829.0,2851.0,3026.0,3779.0,2768.0,3099.0,3.69,8.82,0.27,-0.58,-1.48,0.69,m
2992.0,2030.0,2830.0,2837.0,3023.0,3728.0,2743.0,3056.0,4.74,8.34,0.52,-0.29,-1.37,0.38,m
2993.0,2046.0,2832.0,2822.0,3013.0,3734.0,2736.0,3039.0,4.48,8.58,-0.11,0.21,-0.27,0.16,m
2991.0,2053.0,2822.0,2823.0,3006.0,3743.0,2757.0,3048.0,4.28,8.78,-0.49,0.12,-0.26,0.18,m
2992.0,2042.0,2832.0,2843.0,2997.0,3762.0,2768.0,3056.0,4.64,8.37,-0.71,0.05,-0.2,0.24,m
2992.0,2057.0,2832.0,2877.0,3010.0,3793.0,2790.0,3086.0,5.08,8.22,-0.48,-0.2,0.06,0.22,m
2990.0,2031.0,2821.0,2907.0,3018.0,3829.0,2807.0,3105.0,5.56,8.25,-0.13,-0.07,0.13,0.04,m
2992.0,2040.0,2827.0,2896.0,3024.0,3835.0,2793.0,3098.0,5.26,8.62,-0.28,0.1,-0.08,-0.03,m
2987.0,2060.0,2831.0,2845.0,3015.0,3822.0,2758.0,3045.0,5.27,8.61,-0.25,0.06,-0.01,-0.07,m
2993.0,2044.0,2827.0,2729.0,3013.0,3805.0,2671.0,2983.0,4.99,8.54,-0.43,-0.22,0.24,-0.1,m
3001.0,2027.0,2831.0,2704.0,3013.0,3794.0,2662.0,2982.0,5.32,9.0,-0.52,-0.34,0.01,-0.2,m
2994.0,2030.0,2829.0,2704.0,3017.0,3787.0,2659.0,3001.0,4.31,10.06,0.7,-0.09,0.09,-0.18,m
2994.0,2029.0,2832.0,2768.0,3021.0,3781.0,2671.0,3029.0,3.92,9.47,0.6,0.74,-0.1,0.31,m
2997.0,2031.0,2831.0,2807.0,3024.0,3775.0,2702.0,3055.0,4.99,7.44,-1.23,0.46,-0.05,0.55,m
2997.0,2032.0,2822.0,2800.0,3022.0,3748.0,2695.0,3051.0,5.49,5.96,-1.77,-0.19,0.27,0.02,m
3003.0,2032.0,2832.0,2797.0,3006.0,3683.0,2679.0,3034.0,5.33,6.78,-1.4,-0.78,0.6,-0.48,m
2999.0,2032.0,2826.0,2767.0,2996.0,3595.0,2620.0,3007.0,4.73,8.57,0.92,-1.19,0.69,-0.7,m
3008.0,2042.0,2834.0,2770.0,2994.0,3583.0,2614.0,3007.0,3.52,10.24,2.87,-1.01,0.32,-0.62,m
3007.0,2032.0,2823.0,2768.0,2995.0,3581.0,2623.0,3009.0,3.53,11.03,2.83,-1.2,0.39,-0.46,m
3002.0,2020.0,2829.0,2766.0,2979.0,3572.0,2634.0,3040.0,2.46,8.47,3.88,-1.13,0.67,-0.29,m
2997.0,2002.0,2817.0,2752.0,2977.0,3565.0,2635.0,3049.0,2.32,7.05,5.3,-0.62,0.08,-0.21,m
3001.0,1985.0,2806.0,2769.0,2988.0,3550.0,2631.0,3056.0,2.02,6.84,5.99,-0.37,0.05,-0.09,m
3002.0,2023.0,2835.0,2785.0,2992.0,3606.0,2674.0,3097.0,2.45,7.24,5.4,0.79,0.22,0.09,m
3003.0,1982.0,2813.0,2786.0,2999.0,3606.0,2655.0,3055.0,3.07,9.36,2.42,1.98,0.39,0.35,m
2999.0,1993.0,2818.0,2787.0,2994.0,3621.0,2654.0,3015.0,3.01,9.45,1.57,1.38,-0.17,0.45,m
3007.0,1981.0,2817.0,2790.0,3015.0,3658.0,2672.0,2993.0,3.53,9.39,0.36,1.02,-0.13,0.04,m
3003.0,1982.0,2813.0,2789.0,3010.0,3678.0,2684.0,2990.0,4.05,9.61,-0.65,0.22,-0.55,0.21,m
3014.0,1981.0,2819.0,2800.0,3029.0,3678.0,2688.0,3011.0,4.49,9.69,-0.11,-0.64,0.15,-0.34,m
3006.0,1982.0,2819.0,2799.0,3035.0,3679.0,2691.0,3055.0,2.58,9.42,0.66,-0.62,0.62,-0.43,m
3005.0,1983.0,2813.0,2784.0,3013.0,3661.0,2697.0,3071.0,2.72,9.7,1.45,-0.71,0.66,-0.32,m
2991.0,1979.0,2817.0,2781.0,3010.0,3643.0,2695.0,3120.0,1.96,8.9,3.06,-1.61,0.59,-0.09,m
3001.0,1970.0,2811.0,2775.0,3009.0,3632.0,2689.0,3134.0,1.49,7.71,5.26,-0.66,-0.19,-0.05,m
3005.0,1963.0,2804.0,2783.0,3019.0,3643.0,2694.0,3125.0,1.63,7.77,4.62,1.32,-0.16,0.61,m
2997.0,1973.0,2815.0,2791.0,3017.0,3659.0,2702.0,3088.0,2.21,9.3,2.17,1.36,-0.04,0.25,m
2998.0,1968.0,2817.0,2791.0,3023.0,3676.0,2707.0,3051.0,2.93,9.28,1.64,0.64,-0.25,0.36,m
2993.0,1974.0,2815.0,2791.0,3026.0,3682.0,2704.0,3037.0,2.81,8.94,1.06,0.27,0.28,0.08,m
3003.0,1968.0,2818.0,2802.0,3031.0,3687.0,2706.0,3031.0,2.89,9.2,0.83,0.2,-0.03,0.07,m
3004.0,1979.0,2819.0,2829.0,3031.0,3689.0,2715.0,3043.0,3.15,9.5,0.27,-0.54,0.51,-0.09,m
3001.0,1970.0,2816.0,2832.0,3029.0,3696.0,2706.0,3056.0,2.78,8.68,1.18,-1.05,1.29,-0.51,m
3007.0,1978.0,2819.0,2840.0,3035.0,3695.0,2716.0,3085.0,1.8,8.3,3.07,-1.16,0.7,-0.36,m
3002.0,1984.0,2814.0,2832.0,3023.0,3668.0,2713.0,3100.0,1.82,8.49,3.87,-0.77,0.45,-0.25,m
2999.0,1968.0,2812.0,2832.0,3021.0,3669.0,2711.0,3109.0,1.81,8.66,4.16,-0.72,0.34,-0.24,m
2997.0,1993.0,2821.0,2823.0,3011.0,3665.0,2723.0,3139.0,1.0,8.35,4.83,-0.78,0.5,-0.38,m
2992.0,1971.0,2818.0,2821.0,3022.0,3665.0,2718.0,3137.0,0.9,7.5,5.73,0.54,-0.16,0.32,m
2993.0,1968.0,2817.0,2827.0,3025.0,3677.0,2711.0,3102.0,1.91,8.74,3.26,1.64,0.26,0.4,m
2995.0,1974.0,2821.0,2823.0,3030.0,3680.0,2719.0,3081.0,2.6,9.13,1.7,0.82,0.06,0.23,m
3006.0,1966.0,2811.0,2816.0,3031.0,3691.0,2721.0,3087.0,2.77,8.98,2.33,0.06,0.07,0.09,m
2999.0,1966.0,2810.0,2821.0,3035.0,3682.0,2711.0,3088.0,0.99,9.26,1.33,-0.15,-0.99,0.22,m
3003.0,1969.0,2813.0,2819.0,3029.0,3688.0,2719.0,3071.0,4.51,8.71,2.57,-0.29,-1.76,0.46,m
2990.0,1961.0,2799.0,2818.0,3024.0,3677.0,2713.0,3071.0,4.07,8.58,2.57,-0.47,1.23,-0.32,m
2987.0,1963.0,2800.0,2813.0,3024.0,3660.0,2704.0,3089.0,3.82,8.79,3.37,-1.1,1.11,-0.58,m
2989.0,1964.0,2803.0,2800.0,3009.0,3634.0,2682.0,3081.0,0.78,8.52,4.58,-0.7,1.14,-0.34,m
2990.0,1963.0,2806.0,2805.0,3018.0,3646.0,2688.0,3088.0,0.34,8.32,4.88,0.9,-0.1,0.23,m
2989.0,1956.0,2796.0,2821.0,3017.0,3650.0,2701.0,3094.0,0.21,8.71,2.57,1.46,-0.58,0.57,m
2988.0,1961.0,2801.0,2803.0,3023.0,3690.0,2719.0,3085.0,2.5,9.28,1.48,0.74,-0.19,0.34,m
2990.0,1955.0,2806.0,2804.0,3036.0,3695.0,2734.0,3086.0,2.41,9.28,0.71,0.29,-0.46,0.13,m
2984.0,1962.0,2800.0,2801.0,3040.0,3728.0,2748.0,3088.0,2.97,9.63,0.13,0.05,-1.02,0.15,m
3002.0,1953.0,2805.0,2801.0,3045.0,3733.0,2755.0,3095.0,3.73,9.25,0.66,-0.33,-0.22,-0.33,m
2990.0,1948.0,2807.0,2799.0,3056.0,3737.0,2759.0,3123.0,2.47,9.7,0.79,-0.73,0.64,-0.71,m
2992.0,1957.0,2801.0,2798.0,3055.0,3723.0,2759.0,3152.0,1.65,9.3,2.24,-1.15,-0.08,-0.49,m
2996.0,1949.0,2800.0,2793.0,3046.0,3717.0,2767.0,3166.0,0.61,8.02,3.72,-1.12,-0.14,-0.02,m
2992.0,1954.0,2816.0,2799.0,3056.0,3712.0,2766.0,3181.0,1.54,8.62,4.96,-0.57,-0.36,-0.17,m
2990.0,1948.0,2813.0,2797.0,3059.0,3724.0,2769.0,3175.0,1.04,8.71,4.2,0.06,-0.29,0.07,m
2994.0,1953.0,2806.0,2805.0,3067.0,3733.0,2771.0,3169.0,2.15,7.81,4.5,0.39,-0.12,0.45,m
2998.0,1950.0,2807.0,2801.0,3068.0,3740.0,2775.0,3157.0,2.54,8.03,4.19,-0.09,-0.19,0.08,m
2992.0,1958.0,2815.0,2809.0,3069.0,3742.0,2778.0,3152.0,3.06,8.28,4.13,-0.1,-0.03,0.12,m
2992.0,1953.0,2813.0,2806.0,3071.0,3757.0,2783.0,3156.0,2.8,8.06,4.08,-0.01,0.09,0.09,m
2993.0,1950.0,2802.0,2807.0,3071.0,3760.0,2786.0,3152.0,2.22,7.95,4.39,0.16,0.02,0.09,m
2998.0,1953.0,2807.0,2807.0,3082.0,3754.0,2783.0,3136.0,2.3,8.42,3.97,0.55,-0.04,0.11,m
2997.0,1945.0,2807.0,2800.0,3079.0,3763.0,2787.0,3120.0,2.94,8.68,3.02,0.52,0.02,0.09,m
2992.0,1953.0,2810.0,2796.0,3081.0,3776.0,2782.0,3105.0,2.92,9.28,2.41,0.25,-0.1,-0.1,m
2993.0,1949.0,2810.0,2816.0,3071.0,3775.0,2791.0,3119.0,2.11,9.17,2.16,-0.05,-0.19,-0.08,m
2992.0,1949.0,2803.0,2811.0,3081.0,3772.0,2787.0,3121.0,2.84,9.1,2.1,-0.19,0.41,-0.39,m
2992.0,1958.0,2811.0,2801.0,3061.0,3757.0,2779.0,3135.0,2.26,9.13,2.73,-0.65,0.38,-0.33,m
2992.0,1941.0,2803.0,2786.0,3070.0,3765.0,2774.0,3145.0,1.06,8.74,4.74,-0.38,0.55,-0.12,m
2998.0,1948.0,2811.0,2791.0,3068.0,3759.0,2774.0,3143.0,0.55,8.58,4.95,0.18,-0.1,0.09,m
2992.0,1941.0,2809.0,2789.0,3070.0,3775.0,2778.0,3137.0,1.34,8.18,3.83,0.5,-0.31,0.35,m
2992.0,1946.0,2810.0,2784.0,3071.0,3776.0,2786.0,3123.0,2.38,8.88,2.99,0.51,-0.34,0.22,m
2992.0,1946.0,2805.0,2794.0,3082.0,3763.0,2785.0,3121.0,2.25,9.06,2.42,0.0,-0.15,0.07,m
2997.0,1947.0,2805.0,2797.0,3082.0,3781.0,2787.0,3131.0,2.46,9.04,3.16,-0.11,-0.24,0.03,m
2992.0,1936.0,2804.0,2803.0,3083.0,3779.0,2781.0,3133.0,3.22,8.75,3.67,0.28,-0.45,-0.11,m
