hall_1,hall_2,hall_3,flex_t,flex_i,flex_m,flex_r,flex_p,accel_x,accel_y,accel_z,gyro_x,gyro_y,gyro_z,hand,sign
3410.0,905.0,3021.0,2705.0,3653.0,2999.0,3199.0,3134.0,0.22,9.77,2.57,-0.07,-0.03,-0.1,1.0,m
3411.0,898.0,3024.0,2706.0,3653.0,3004.0,3195.0,3139.0,0.12,9.76,2.53,-0.1,-0.08,-0.05,1.0,m
3399.0,905.0,3014.0,2706.0,3649.0,2992.0,3184.0,3124.0,0.69,9.86,2.67,-0.14,-0.03,-0.09,1.0,m
3410.0,903.0,3017.0,2705.0,3664.0,3006.0,3198.0,3127.0,0.47,9.8,2.61,-0.11,-0.03,-0.1,1.0,m
3402.0,900.0,3013.0,2707.0,3658.0,2998.0,3186.0,3122.0,0.39,9.71,2.95,-0.23,-0.1,-0.2,1.0,m
3421.0,911.0,3030.0,2705.0,3654.0,3005.0,3199.0,3130.0,-0.0,9.62,3.27,-0.19,-0.09,-0.23,1.0,m
3408.0,892.0,3017.0,2714.0,3644.0,2999.0,3191.0,3125.0,-0.49,9.48,3.37,-0.17,-0.07,-0.17,1.0,m
3415.0,905.0,3023.0,2710.0,3658.0,3005.0,3205.0,3142.0,-0.47,9.57,3.25,-0.13,-0.0,-0.06,1.0,m
3414.0,903.0,3022.0,2723.0,3653.0,3002.0,3199.0,3136.0,-0.17,9.57,3.37,-0.11,-0.03,-0.09,1.0,m
3427.0,899.0,3019.0,2713.0,3659.0,3015.0,3207.0,3151.0,-0.21,9.57,3.41,-0.1,0.02,-0.08,1.0,m
3408.0,903.0,3007.0,2709.0,3653.0,3009.0,3199.0,3142.0,-0.47,9.52,3.44,-0.1,-0.01,-0.08,1.0,m
3419.0,903.0,3024.0,2722.0,3665.0,3014.0,3201.0,3146.0,-0.43,9.52,3.33,-0.12,0.03,-0.06,1.0,m
3413.0,898.0,3011.0,2721.0,3670.0,3009.0,3205.0,3139.0,-0.38,9.46,3.63,-0.11,-0.02,-0.05,1.0,m
3423.0,898.0,3014.0,2718.0,3659.0,3009.0,3207.0,3149.0,-0.46,9.43,3.66,-0.09,0.02,-0.04,1.0,m
3405.0,899.0,3026.0,2733.0,3665.0,3017.0,3206.0,3152.0,-0.44,9.45,3.57,-0.08,0.05,-0.06,1.0,m
3401.0,901.0,3017.0,2725.0,3664.0,3022.0,3199.0,3143.0,-0.43,9.46,3.57,-0.05,-0.05,-0.09,1.0,m
3418.0,902.0,3020.0,2724.0,3685.0,3024.0,3217.0,3152.0,-0.56,9.45,3.53,-0.06,-0.04,-0.07,1.0,m
3408.0,901.0,3010.0,2721.0,3667.0,3017.0,3207.0,3151.0,-0.5,9.46,3.57,-0.08,0.03,-0.07,1.0,m
3420.0,894.0,3013.0,2729.0,3679.0,3025.0,3221.0,3155.0,-0.5,9.47,3.54,-0.1,-0.02,-0.12,1.0,m
3415.0,904.0,3008.0,2725.0,3680.0,3017.0,3212.0,3152.0,-0.71,9.41,3.69,-0.1,-0.03,-0.11,1.0,m
3423.0,898.0,3022.0,2750.0,3725.0,3054.0,3233.0,3175.0,-1.54,9.34,3.23,0.26,0.06,0.1,1.0,m
3408.0,896.0,3008.0,2736.0,3702.0,3039.0,3231.0,3164.0,-1.07,9.64,2.56,0.17,-0.0,0.04,1.0,m
3429.0,898.0,3018.0,2736.0,3714.0,3051.0,3238.0,3179.0,-0.98,9.64,2.41,0.04,0.11,-0.02,1.0,m
3410.0,900.0,3022.0,2735.0,3703.0,3038.0,3223.0,3184.0,-1.36,9.45,3.31,-0.17,-0.14,-0.06,1.0,m
3417.0,896.0,3013.0,2736.0,3697.0,3038.0,3229.0,3178.0,-1.57,9.42,3.25,-0.01,0.05,-0.08,1.0,m
3403.0,899.0,3029.0,2736.0,3718.0,3052.0,3238.0,3181.0,-1.54,9.54,2.86,-0.01,-0.03,-0.02,1.0,m
3409.0,896.0,3009.0,2737.0,3714.0,3047.0,3230.0,3178.0,-1.54,9.51,3.0,-0.02,-0.03,-0.04,1.0,m
3411.0,899.0,3021.0,2739.0,3718.0,3051.0,3237.0,3191.0,-1.46,9.5,3.09,-0.01,-0.01,0.01,1.0,m
3407.0,899.0,3015.0,2736.0,3705.0,3047.0,3229.0,3166.0,-1.06,9.61,2.89,0.0,0.01,-0.03,1.0,m
3413.0,903.0,3022.0,2741.0,3741.0,3054.0,3231.0,3184.0,-1.25,9.67,2.55,-0.02,0.0,-0.1,1.0,m
3413.0,886.0,3023.0,2745.0,3717.0,3051.0,3234.0,3178.0,-1.53,9.53,2.99,-0.02,-0.1,-0.15,1.0,m
3418.0,890.0,3023.0,2751.0,3728.0,3056.0,3239.0,3184.0,-1.78,9.54,2.74,0.04,-0.1,-0.1,1.0,m
3408.0,887.0,3021.0,2747.0,3721.0,3051.0,3232.0,3179.0,-1.57,9.59,2.61,0.04,-0.01,-0.01,1.0,m
3426.0,880.0,3025.0,2755.0,3733.0,3057.0,3239.0,3183.0,-1.55,9.6,2.48,0.01,0.01,-0.01,1.0,m
3408.0,880.0,3013.0,2739.0,3711.0,3054.0,3243.0,3184.0,-1.42,9.67,2.5,-0.01,0.01,-0.03,1.0,m
3423.0,878.0,3023.0,2752.0,3727.0,3057.0,3230.0,3203.0,-1.56,9.61,2.43,0.02,-0.03,-0.03,1.0,m
3426.0,875.0,3021.0,2759.0,3729.0,3063.0,3247.0,3187.0,-1.55,9.62,2.51,0.01,-0.0,-0.01,1.0,m
3418.0,876.0,3021.0,2754.0,3729.0,3054.0,3242.0,3184.0,-1.52,9.62,2.31,0.2,0.09,0.08,1.0,m
3427.0,880.0,3021.0,2752.0,3731.0,3059.0,3238.0,3187.0,-1.47,9.86,1.4,0.01,0.03,0.04,1.0,m
3418.0,880.0,3021.0,2745.0,3710.0,3059.0,3237.0,3197.0,-1.19,9.81,2.11,-0.13,0.04,0.05,1.0,m
3423.0,887.0,3024.0,2761.0,3738.0,3071.0,3247.0,3200.0,-0.57,9.86,2.0,-0.12,-0.07,0.13,1.0,m
3409.0,880.0,3020.0,2752.0,3730.0,3071.0,3242.0,3195.0,-0.27,9.84,2.22,-0.07,0.01,0.09,1.0,m
3424.0,886.0,3018.0,2750.0,3747.0,3071.0,3248.0,3200.0,-0.45,9.91,1.79,-0.04,0.01,0.17,1.0,m
3408.0,885.0,3012.0,2756.0,3738.0,3071.0,3250.0,3191.0,0.05,9.88,2.1,-0.18,0.01,0.11,1.0,m
3414.0,880.0,3017.0,2755.0,3723.0,3065.0,3243.0,3190.0,0.12,9.84,2.45,-0.13,0.03,0.01,1.0,m
3411.0,881.0,3024.0,2755.0,3742.0,3071.0,3248.0,3205.0,-0.17,9.85,2.13,-0.08,0.02,0.08,1.0,m
3408.0,877.0,3017.0,2758.0,3743.0,3071.0,3247.0,3188.0,0.09,9.83,2.33,-0.15,-0.0,0.04,1.0,m
3423.0,886.0,3024.0,2768.0,3747.0,3071.0,3245.0,3201.0,0.18,9.85,2.38,-0.1,0.02,0.12,1.0,m
3407.0,879.0,3025.0,2757.0,3738.0,3062.0,3249.0,3196.0,0.64,9.9,2.25,-0.15,0.1,0.07,1.0,m
3429.0,879.0,3017.0,2766.0,3732.0,3071.0,3247.0,3204.0,0.47,9.82,2.44,-0.2,0.02,0.02,1.0,m
3411.0,881.0,3014.0,2757.0,3731.0,3071.0,3242.0,3205.0,0.26,9.76,2.5,-0.22,0.09,0.07,1.0,m
3413.0,879.0,3022.0,2752.0,3749.0,3086.0,3255.0,3207.0,0.49,9.63,3.05,-0.25,0.08,0.06,1.0,m
3410.0,886.0,3010.0,2755.0,3723.0,3080.0,3248.0,3198.0,0.67,9.64,3.16,-0.19,0.05,0.02,1.0,m
3410.0,886.0,3024.0,2767.0,3737.0,3071.0,3247.0,3202.0,0.78,9.61,3.23,-0.15,0.01,-0.02,1.0,m
3411.0,885.0,3008.0,2751.0,3723.0,3082.0,3247.0,3216.0,0.72,9.63,3.19,-0.12,0.03,-0.04,1.0,m
3410.0,890.0,3023.0,2762.0,3725.0,3071.0,3247.0,3206.0,0.76,9.63,3.2,-0.1,-0.02,-0.06,1.0,m
3424.0,885.0,3019.0,2757.0,3756.0,3088.0,3256.0,3216.0,0.6,9.55,3.39,-0.12,-0.02,-0.07,1.0,m
3406.0,881.0,3015.0,2763.0,3727.0,3069.0,3242.0,3213.0,0.52,9.52,3.47,-0.12,0.01,-0.04,1.0,m
3425.0,883.0,3024.0,2767.0,3754.0,3071.0,3245.0,3216.0,0.58,9.5,3.53,-0.12,0.01,-0.04,1.0,m
3412.0,893.0,3015.0,2759.0,3725.0,3071.0,3246.0,3206.0,0.51,9.51,3.54,-0.12,0.03,-0.02,1.0,m
3414.0,886.0,3027.0,2769.0,3758.0,3090.0,3249.0,3214.0,0.85,9.39,3.84,-0.08,0.04,0.05,1.0,m
3419.0,890.0,3029.0,2766.0,3754.0,3088.0,3248.0,3207.0,0.9,9.34,3.95,-0.07,0.05,0.06,1.0,m
3407.0,880.0,3009.0,2761.0,3743.0,3088.0,3257.0,3211.0,0.87,9.33,3.89,-0.08,0.06,0.04,1.0,m
3429.0,895.0,3024.0,2768.0,3761.0,3090.0,3253.0,3216.0,0.95,9.32,3.9,-0.08,0.06,0.05,1.0,m
3411.0,880.0,3015.0,2759.0,3745.0,3088.0,3249.0,3215.0,1.13,9.33,4.01,-0.07,0.04,0.04,1.0,m
3408.0,877.0,3024.0,2766.0,3767.0,3098.0,3256.0,3219.0,1.26,9.3,4.19,-0.02,0.02,0.0,1.0,m
3408.0,883.0,3020.0,2768.0,3731.0,3081.0,3247.0,3216.0,1.24,9.33,3.97,0.01,-0.03,-0.03,1.0,m
3418.0,881.0,3018.0,2768.0,3760.0,3088.0,3248.0,3216.0,1.16,9.35,3.89,-0.0,0.01,-0.04,1.0,m
3406.0,875.0,3019.0,2764.0,3739.0,3088.0,3257.0,3216.0,1.16,9.42,3.77,-0.0,0.05,-0.02,1.0,m
3421.0,881.0,3024.0,2767.0,3760.0,3091.0,3261.0,3216.0,1.24,9.42,3.77,0.01,-0.0,-0.01,1.0,m
3418.0,883.0,3012.0,2755.0,3753.0,3090.0,3255.0,3216.0,1.12,9.43,3.66,0.01,-0.01,-0.01,1.0,m
3408.0,883.0,3025.0,2767.0,3763.0,3094.0,3265.0,3216.0,1.22,9.43,3.64,0.02,0.03,-0.01,1.0,m
3411.0,880.0,3013.0,2759.0,3764.0,3094.0,3261.0,3216.0,1.2,9.41,3.65,0.01,-0.01,-0.02,1.0,m
3406.0,885.0,3022.0,2759.0,3750.0,3088.0,3248.0,3216.0,1.25,9.49,3.53,0.05,-0.01,-0.03,1.0,m
3421.0,883.0,3024.0,2763.0,3760.0,3093.0,3258.0,3221.0,1.24,9.54,3.27,0.04,0.0,-0.02,1.0,m
3407.0,884.0,3022.0,2763.0,3746.0,3082.0,3245.0,3213.0,1.4,9.58,3.26,0.02,-0.0,-0.03,1.0,m
3421.0,880.0,3024.0,2765.0,3751.0,3088.0,3262.0,3223.0,1.23,9.56,3.15,0.02,-0.01,-0.04,1.0,m
3409.0,880.0,3021.0,2755.0,3760.0,3088.0,3250.0,3211.0,1.2,9.59,3.12,-0.0,0.02,-0.02,1.0,m
3421.0,877.0,3025.0,2758.0,3755.0,3088.0,3253.0,3216.0,1.35,9.65,3.03,0.01,0.03,-0.02,1.0,m
3411.0,881.0,3014.0,2749.0,3745.0,3089.0,3254.0,3213.0,1.33,9.64,2.99,0.01,0.03,-0.04,1.0,m
3426.0,882.0,3025.0,2768.0,3789.0,3101.0,3251.0,3180.0,1.22,9.9,1.85,-0.03,-0.05,-0.08,1.0,m
3415.0,881.0,3018.0,2766.0,3787.0,3102.0,3273.0,3187.0,1.15,9.9,1.82,-0.02,-0.04,-0.09,1.0,m
3409.0,886.0,3011.0,2762.0,3775.0,3097.0,3254.0,3184.0,1.03,9.93,1.69,0.0,-0.04,-0.07,1.0,m
3422.0,880.0,3025.0,2766.0,3776.0,3103.0,3259.0,3184.0,1.02,9.94,1.6,-0.02,-0.01,-0.05,1.0,m
3408.0,880.0,3021.0,2768.0,3760.0,3097.0,3257.0,3184.0,1.07,9.97,1.63,-0.03,-0.01,-0.07,1.0,m
3410.0,883.0,3024.0,2768.0,3791.0,3102.0,3266.0,3184.0,0.97,9.94,1.57,-0.02,-0.05,-0.08,1.0,m
3408.0,887.0,3024.0,2768.0,3775.0,3101.0,3261.0,3184.0,0.96,9.93,1.58,-0.02,-0.04,-0.07,1.0,m
3423.0,885.0,3019.0,2766.0,3779.0,3106.0,3270.0,3193.0,0.92,9.98,1.47,-0.01,-0.04,-0.08,1.0,m
3408.0,884.0,3019.0,2763.0,3774.0,3099.0,3259.0,3188.0,0.85,10.0,1.41,-0.02,-0.05,-0.09,1.0,m
3419.0,880.0,3029.0,2768.0,3778.0,3094.0,3264.0,3200.0,0.82,10.01,1.38,-0.01,-0.03,-0.09,1.0,m
3410.0,878.0,3024.0,2763.0,3759.0,3098.0,3252.0,3179.0,0.78,9.97,1.36,-0.01,-0.05,-0.08,1.0,m
3414.0,879.0,3022.0,2767.0,3789.0,3101.0,3255.0,3187.0,0.71,9.98,1.36,-0.03,0.01,-0.07,1.0,m
3406.0,887.0,3031.0,2770.0,3790.0,3106.0,3264.0,3196.0,0.71,9.98,1.3,-0.01,-0.01,-0.07,1.0,m
3417.0,883.0,3021.0,2761.0,3773.0,3088.0,3253.0,3186.0,0.72,10.04,1.21,-0.01,-0.05,-0.09,1.0,m
3419.0,876.0,3021.0,2768.0,3778.0,3102.0,3261.0,3194.0,0.75,10.01,1.15,-0.01,-0.12,-0.12,1.0,m
3411.0,885.0,3017.0,2765.0,3765.0,3095.0,3260.0,3196.0,0.71,10.04,1.12,-0.02,-0.12,-0.16,1.0,m
3420.0,884.0,3024.0,2769.0,3773.0,3105.0,3271.0,3202.0,0.38,10.03,1.1,-0.01,-0.12,-0.17,1.0,m
3399.0,881.0,3018.0,2769.0,3770.0,3102.0,3260.0,3197.0,0.15,10.02,0.96,-0.03,-0.07,-0.11,1.0,m
3421.0,885.0,3018.0,2778.0,3779.0,3097.0,3260.0,3205.0,0.27,10.03,1.01,-0.05,-0.06,-0.08,1.0,m
3407.0,883.0,3011.0,2766.0,3778.0,3103.0,3263.0,3195.0,0.34,10.04,1.03,-0.05,-0.06,-0.11,1.0,m
3421.0,880.0,3017.0,2775.0,3792.0,3103.0,3266.0,3217.0,-0.19,10.02,0.96,-0.04,-0.03,-0.08,1.0,m
3399.0,887.0,3015.0,2773.0,3788.0,3102.0,3267.0,3215.0,-0.28,10.04,0.91,-0.03,-0.07,-0.09,1.0,m
3412.0,881.0,3026.0,2773.0,3782.0,3101.0,3264.0,3234.0,-0.38,10.01,0.85,-0.04,-0.04,-0.07,1.0,m
3403.0,880.0,3013.0,2768.0,3770.0,3105.0,3261.0,3230.0,-0.41,9.99,0.91,-0.07,-0.02,-0.06,1.0,m
3437.0,883.0,3015.0,2768.0,3792.0,3110.0,3266.0,3242.0,-0.35,10.04,0.91,-0.07,-0.01,-0.08,1.0,m
3415.0,889.0,3018.0,2768.0,3787.0,3103.0,3256.0,3218.0,-0.48,10.03,0.83,-0.06,-0.04,-0.09,1.0,m
3415.0,880.0,3017.0,2777.0,3801.0,3114.0,3280.0,3247.0,-0.59,10.02,0.89,-0.08,-0.03,-0.07,1.0,m
3408.0,889.0,3021.0,2771.0,3785.0,3103.0,3258.0,3231.0,-0.58,10.02,0.87,-0.09,-0.03,-0.07,1.0,m
3409.0,889.0,3020.0,2768.0,3791.0,3115.0,3264.0,3243.0,-0.61,10.01,0.77,-0.05,-0.01,-0.01,1.0,m
3423.0,879.0,3027.0,2774.0,3792.0,3111.0,3278.0,3237.0,-0.2,9.99,0.84,0.08,-0.03,0.1,1.0,m
3404.0,882.0,3019.0,2772.0,3780.0,3108.0,3258.0,3223.0,-0.13,10.03,0.95,-0.02,-0.1,-0.17,1.0,m
3419.0,881.0,3022.0,2769.0,3797.0,3115.0,3275.0,3249.0,-0.53,9.84,1.08,0.18,-0.18,-0.15,1.0,m
3414.0,880.0,3018.0,2775.0,3775.0,3104.0,3263.0,3238.0,-0.59,9.97,0.59,0.14,-0.15,-0.18,1.0,m
3440.0,880.0,3031.0,2771.0,3793.0,3115.0,3264.0,3242.0,-1.0,10.03,0.22,0.0,-0.08,-0.19,1.0,m
3411.0,890.0,3013.0,2769.0,3797.0,3098.0,3263.0,3238.0,-1.65,9.85,0.64,-0.2,-0.11,-0.3,1.0,m
3410.0,883.0,3021.0,2778.0,3805.0,3116.0,3267.0,3245.0,-1.28,9.86,0.87,-0.17,-0.11,-0.14,1.0,m
3406.0,877.0,3011.0,2768.0,3782.0,3114.0,3266.0,3244.0,-1.34,9.9,0.89,-0.11,-0.11,-0.11,1.0,m
3407.0,886.0,3029.0,2781.0,3797.0,3114.0,3280.0,3263.0,-1.76,9.87,0.76,-0.18,-0.01,-0.04,1.0,m
3415.0,882.0,3019.0,2771.0,3791.0,3113.0,3267.0,3243.0,-0.92,9.97,0.9,-0.07,0.01,-0.09,1.0,m
3412.0,883.0,3022.0,2782.0,3814.0,3120.0,3270.0,3253.0,-1.41,9.91,0.88,-0.1,-0.04,-0.11,1.0,m
3430.0,877.0,3023.0,2795.0,3823.0,3122.0,3280.0,3255.0,0.62,9.8,2.56,-0.09,0.02,0.01,1.0,m
3411.0,884.0,3013.0,2783.0,3798.0,3120.0,3270.0,3248.0,0.59,9.9,2.13,-0.02,-0.02,-0.01,1.0,m
3428.0,881.0,3024.0,2796.0,3829.0,3127.0,3278.0,3247.0,0.66,9.89,2.17,-0.1,-0.03,-0.02,1.0,m
3405.0,883.0,3025.0,2789.0,3810.0,3123.0,3270.0,3242.0,0.72,9.84,2.42,-0.1,-0.04,-0.08,1.0,m
3411.0,879.0,3024.0,2787.0,3814.0,3121.0,3280.0,3248.0,0.57,9.85,2.34,-0.08,-0.09,-0.12,1.0,m
3413.0,885.0,3022.0,2774.0,3806.0,3115.0,3270.0,3246.0,0.27,9.84,2.23,-0.11,-0.03,-0.1,1.0,m
3411.0,881.0,3023.0,2793.0,3840.0,3139.0,3281.0,3254.0,0.34,9.82,2.45,-0.12,-0.06,-0.07,1.0,m
3416.0,871.0,3024.0,2791.0,3817.0,3122.0,3275.0,3248.0,0.35,9.78,2.59,-0.12,-0.02,-0.06,1.0,m
3425.0,874.0,3023.0,2798.0,3807.0,3130.0,3274.0,3255.0,0.3,9.78,2.48,-0.12,0.02,-0.03,1.0,m
3410.0,885.0,3019.0,2793.0,3799.0,3120.0,3273.0,3265.0,0.48,9.8,2.64,-0.14,0.01,-0.04,1.0,m
3419.0,891.0,3034.0,2801.0,3829.0,3122.0,3269.0,3250.0,0.38,9.75,2.69,-0.11,0.0,-0.07,1.0,m
3421.0,880.0,3035.0,2800.0,3824.0,3131.0,3280.0,3263.0,0.41,9.76,2.73,-0.09,-0.03,-0.07,1.0,m
3403.0,885.0,3021.0,2787.0,3823.0,3123.0,3277.0,3259.0,0.31,9.71,2.79,-0.11,0.03,-0.07,1.0,m
3431.0,880.0,3022.0,2797.0,3820.0,3122.0,3279.0,3264.0,0.19,9.74,2.74,-0.11,-0.05,-0.09,1.0,m
3408.0,879.0,3021.0,2796.0,3813.0,3129.0,3274.0,3250.0,0.26,9.7,2.97,-0.11,-0.02,-0.08,1.0,m
3413.0,880.0,3024.0,2799.0,3827.0,3135.0,3277.0,3275.0,0.13,9.66,3.04,-0.06,-0.07,-0.1,1.0,m
3427.0,880.0,3010.0,2791.0,3811.0,3126.0,3278.0,3255.0,0.73,9.76,2.99,-0.04,-0.11,-0.15,1.0,m
3419.0,875.0,3023.0,2787.0,3825.0,3135.0,3281.0,3266.0,0.15,9.66,3.05,0.05,-0.07,-0.21,1.0,m
3415.0,886.0,3018.0,2787.0,3823.0,3132.0,3279.0,3258.0,-1.03,9.77,2.27,-0.06,-0.02,-0.18,1.0,m
3416.0,881.0,3022.0,2800.0,3841.0,3138.0,3283.0,3263.0,-0.49,9.7,2.77,-0.14,0.04,0.07,1.0,m
3425.0,896.0,3023.0,2791.0,3824.0,3136.0,3287.0,3273.0,1.15,9.82,2.42,-0.03,-0.05,-0.07,1.0,m
3407.0,880.0,3017.0,2797.0,3824.0,3135.0,3279.0,3258.0,0.9,9.77,2.37,0.01,-0.04,-0.03,1.0,m
3423.0,878.0,3017.0,2800.0,3840.0,3136.0,3287.0,3271.0,0.93,9.83,2.01,0.02,0.04,0.06,1.0,m
3413.0,880.0,3008.0,2795.0,3811.0,3134.0,3281.0,3263.0,1.28,9.89,1.93,0.02,0.04,0.09,1.0,m
3412.0,878.0,3024.0,2799.0,3834.0,3121.0,3278.0,3254.0,1.47,9.95,1.84,-0.04,0.08,0.05,1.0,m
3425.0,882.0,3027.0,2800.0,3821.0,3131.0,3287.0,3270.0,1.46,9.81,1.92,-0.08,0.04,0.1,1.0,m
3417.0,884.0,3027.0,2796.0,3835.0,3129.0,3275.0,3251.0,1.87,9.8,2.26,-0.05,0.04,0.06,1.0,m
3421.0,881.0,3034.0,2799.0,3847.0,3136.0,3287.0,3260.0,1.7,9.76,2.25,-0.0,0.02,-0.01,1.0,m
3411.0,883.0,3018.0,2791.0,3822.0,3126.0,3285.0,3257.0,1.7,9.82,1.98,0.03,0.0,-0.03,1.0,m
3427.0,886.0,3024.0,2800.0,3855.0,3136.0,3284.0,3254.0,1.71,9.87,1.79,0.02,-0.01,-0.03,1.0,m
3408.0,886.0,3021.0,2794.0,3824.0,3126.0,3284.0,3263.0,1.67,9.87,1.81,0.02,0.0,-0.05,1.0,m
3439.0,879.0,3024.0,2785.0,3846.0,3140.0,3293.0,3271.0,1.57,9.84,1.81,0.06,-0.02,-0.04,1.0,m
3403.0,880.0,3018.0,2790.0,3824.0,3135.0,3283.0,3265.0,1.69,9.89,1.53,0.08,0.02,-0.04,1.0,m
3426.0,889.0,3029.0,2793.0,3831.0,3136.0,3286.0,3269.0,1.77,9.97,1.24,0.05,-0.02,-0.05,1.0,m
3411.0,880.0,3023.0,2797.0,3825.0,3137.0,3274.0,3255.0,1.58,9.96,1.22,-0.0,-0.03,-0.07,1.0,m
3433.0,881.0,3015.0,2798.0,3831.0,3146.0,3295.0,3274.0,1.61,9.92,1.27,-0.02,-0.01,-0.06,1.0,m
3417.0,880.0,3026.0,2798.0,3851.0,3137.0,3286.0,3266.0,1.8,10.07,1.26,-0.05,-0.02,-0.08,1.0,m
3415.0,880.0,3015.0,2787.0,3838.0,3130.0,3278.0,3263.0,1.53,9.89,1.34,-0.07,-0.06,-0.17,1.0,m
3428.0,885.0,3024.0,2785.0,3843.0,3136.0,3286.0,3266.0,1.5,10.0,1.29,-0.0,-0.1,-0.19,1.0,m
3425.0,885.0,3016.0,2790.0,3839.0,3137.0,3280.0,3260.0,1.23,9.94,1.29,0.01,-0.15,-0.2,1.0,m
3430.0,881.0,3023.0,2799.0,3841.0,3135.0,3289.0,3265.0,0.61,9.99,1.06,-0.09,0.19,-0.1,1.0,m
3410.0,882.0,3024.0,2789.0,3825.0,3133.0,3280.0,3251.0,0.53,10.02,0.85,-0.04,-0.12,-0.14,1.0,m
3426.0,880.0,3027.0,2799.0,3845.0,3141.0,3288.0,3259.0,0.52,10.07,0.82,-0.04,-0.09,-0.12,1.0,m
3408.0,885.0,3013.0,2793.0,3815.0,3135.0,3297.0,3264.0,0.32,10.04,0.74,-0.09,-0.02,-0.07,1.0,m
3411.0,880.0,3011.0,2790.0,3821.0,3131.0,3290.0,3258.0,0.5,10.01,1.02,-0.12,0.01,-0.06,1.0,m
3435.0,880.0,3025.0,2799.0,3853.0,3142.0,3291.0,3259.0,0.57,10.07,1.08,-0.1,0.03,-0.1,1.0,m
3419.0,882.0,3023.0,2790.0,3833.0,3133.0,3277.0,3255.0,0.3,10.1,0.74,-0.08,-0.05,-0.16,1.0,m
3414.0,881.0,3024.0,2799.0,3839.0,3136.0,3290.0,3255.0,0.32,10.06,1.01,-0.16,-0.08,-0.15,1.0,m
3421.0,883.0,3021.0,2794.0,3830.0,3133.0,3274.0,3260.0,-0.01,9.95,1.35,-0.16,0.02,-0.12,1.0,m
3425.0,882.0,3027.0,2800.0,3843.0,3151.0,3290.0,3279.0,0.03,10.0,1.35,-0.1,-0.04,-0.09,1.0,m
3410.0,883.0,3014.0,2799.0,3829.0,3137.0,3284.0,3263.0,0.13,10.03,1.32,-0.1,-0.04,-0.12,1.0,m
3426.0,882.0,3022.0,2799.0,3856.0,3147.0,3291.0,3261.0,-0.23,9.96,1.38,-0.13,-0.03,-0.11,1.0,m
3403.0,878.0,3011.0,2793.0,3837.0,3142.0,3276.0,3250.0,-0.11,9.98,1.52,-0.09,-0.05,-0.08,1.0,m
3414.0,881.0,3014.0,2800.0,3859.0,3150.0,3296.0,3262.0,-0.0,9.99,1.53,-0.07,-0.05,-0.09,1.0,m
3414.0,882.0,3025.0,2799.0,3850.0,3135.0,3285.0,3259.0,-0.39,9.96,1.46,-0.1,-0.02,-0.1,1.0,m
3429.0,880.0,3031.0,2800.0,3842.0,3132.0,3280.0,3264.0,-0.3,9.97,1.59,-0.09,-0.02,-0.09,1.0,m
3433.0,882.0,3024.0,2800.0,3845.0,3145.0,3295.0,3271.0,-0.33,9.96,1.63,-0.07,-0.02,-0.1,1.0,m
3418.0,883.0,3020.0,2796.0,3849.0,3141.0,3283.0,3253.0,-0.38,9.95,1.51,-0.05,-0.05,-0.09,1.0,m
3439.0,880.0,3023.0,2800.0,3840.0,3152.0,3299.0,3270.0,-0.33,9.99,1.51,-0.09,-0.07,-0.1,1.0,m
3409.0,880.0,3019.0,2799.0,3837.0,3136.0,3279.0,3253.0,-0.42,9.94,1.62,-0.12,-0.03,-0.1,1.0,m
3427.0,885.0,3025.0,2801.0,3857.0,3147.0,3281.0,3270.0,-0.88,9.85,1.82,-0.09,-0.0,-0.09,1.0,m
3408.0,878.0,3023.0,2800.0,3843.0,3141.0,3281.0,3262.0,-0.93,9.87,1.89,-0.15,-0.05,-0.1,1.0,m
3410.0,882.0,3026.0,2804.0,3856.0,3153.0,3294.0,3268.0,-1.22,9.64,2.51,-0.18,-0.18,-0.07,1.0,m
3403.0,883.0,3021.0,2798.0,3839.0,3145.0,3279.0,3269.0,-0.43,9.81,2.32,-0.07,-0.82,-0.21,1.0,m
3440.0,881.0,3030.0,2811.0,3839.0,3146.0,3287.0,3284.0,-0.71,9.67,2.74,-0.19,-0.35,-0.18,1.0,m
3405.0,885.0,3029.0,2803.0,3838.0,3142.0,3282.0,3268.0,-1.15,9.61,2.79,-0.2,-0.28,-0.15,1.0,m
3426.0,884.0,3023.0,2806.0,3849.0,3141.0,3294.0,3287.0,-1.15,9.55,3.1,-0.21,-0.15,-0.1,1.0,m
3409.0,882.0,3024.0,2803.0,3826.0,3142.0,3281.0,3263.0,-0.94,9.48,3.22,-0.23,-0.12,-0.1,1.0,m
3410.0,879.0,3025.0,2809.0,3833.0,3151.0,3287.0,3280.0,-0.87,9.49,3.36,-0.18,-0.07,-0.13,1.0,m
3417.0,884.0,3023.0,2807.0,3844.0,3147.0,3293.0,3276.0,-1.28,9.36,3.47,-0.17,-0.06,-0.12,1.0,m
3418.0,887.0,3023.0,2801.0,3833.0,3152.0,3285.0,3267.0,-1.28,9.37,3.54,-0.15,-0.02,-0.09,1.0,m
3409.0,879.0,3024.0,2806.0,3854.0,3157.0,3288.0,3266.0,-1.27,9.31,3.71,-0.15,-0.07,-0.06,1.0,m
3427.0,875.0,3013.0,2805.0,3839.0,3145.0,3280.0,3274.0,-1.13,9.33,3.73,-0.14,-0.05,-0.08,1.0,m
3413.0,885.0,3026.0,2815.0,3855.0,3157.0,3299.0,3263.0,-1.3,9.25,3.86,-0.17,-0.02,-0.08,1.0,m
3414.0,880.0,3019.0,2802.0,3824.0,3152.0,3285.0,3280.0,-1.46,9.2,3.94,-0.17,0.07,-0.04,1.0,m
3427.0,886.0,3023.0,2813.0,3839.0,3152.0,3295.0,3284.0,-1.26,9.15,4.15,-0.14,0.04,-0.04,1.0,m
3414.0,880.0,3017.0,2812.0,3832.0,3156.0,3293.0,3283.0,-1.41,9.13,4.23,-0.15,-0.02,-0.03,1.0,m
3418.0,881.0,3020.0,2805.0,3855.0,3167.0,3301.0,3281.0,-1.39,9.05,4.27,-0.08,0.01,-0.01,1.0,m
3425.0,883.0,3024.0,2800.0,3817.0,3147.0,3286.0,3285.0,-1.32,9.14,4.11,-0.04,0.04,-0.0,1.0,m
3427.0,886.0,3028.0,2807.0,3855.0,3165.0,3297.0,3286.0,-1.25,9.15,4.11,-0.08,-0.01,-0.01,1.0,m
3013.0,3933.0,3033.0,2769.0,3743.0,3006.0,3419.0,2879.0,1.23,9.73,2.68,-0.04,-0.73,-0.19,1.0,m
3022.0,3923.0,3027.0,2768.0,3744.0,3008.0,3434.0,2894.0,1.36,9.86,2.49,-0.05,-0.48,-0.22,1.0,m
3013.0,3909.0,3027.0,2754.0,3757.0,3014.0,3433.0,2957.0,1.1,9.8,2.55,-0.12,-0.43,-0.29,1.0,m
3024.0,3917.0,3033.0,2765.0,3777.0,3024.0,3424.0,2953.0,0.72,9.74,2.73,-0.16,-0.04,-0.24,1.0,m
3024.0,3904.0,3031.0,2741.0,3759.0,3015.0,3410.0,2960.0,0.44,9.7,2.92,-0.15,-0.11,-0.2,1.0,m
3018.0,3902.0,3031.0,2750.0,3755.0,3025.0,3426.0,2966.0,0.45,9.67,2.99,-0.11,-0.12,-0.2,1.0,m
3023.0,3891.0,3024.0,2752.0,3759.0,3024.0,3430.0,2989.0,0.2,9.69,2.93,-0.03,-0.24,-0.2,1.0,m
3026.0,3895.0,3026.0,2758.0,3771.0,3024.0,3433.0,3056.0,0.07,9.7,2.95,-0.04,-0.15,-0.14,1.0,m
3024.0,3894.0,3024.0,2758.0,3776.0,3031.0,3437.0,3088.0,0.14,9.67,2.88,-0.04,-0.08,-0.06,1.0,m
3026.0,3886.0,3026.0,2759.0,3762.0,3025.0,3423.0,3099.0,0.23,9.73,2.81,-0.14,-0.02,-0.02,1.0,m
3028.0,3906.0,3027.0,2763.0,3783.0,3024.0,3430.0,3104.0,0.46,9.67,3.2,-0.12,-0.12,-0.05,1.0,m
3009.0,3895.0,3022.0,2754.0,3766.0,3026.0,3431.0,3095.0,0.24,9.64,3.11,-0.09,0.02,-0.05,1.0,m
3026.0,3885.0,3024.0,2765.0,3767.0,3039.0,3447.0,3113.0,0.42,9.62,3.21,-0.06,0.02,-0.02,1.0,m
3019.0,3891.0,3024.0,2763.0,3754.0,3030.0,3442.0,3095.0,0.23,9.68,3.02,-0.04,-0.05,-0.05,1.0,m
3027.0,3893.0,3037.0,2768.0,3757.0,3028.0,3437.0,3117.0,0.34,9.71,2.89,-0.05,0.03,-0.03,1.0,m
3024.0,3894.0,3028.0,2768.0,3759.0,3031.0,3433.0,3109.0,0.45,9.66,3.02,-0.06,-0.01,-0.06,1.0,m
3024.0,3895.0,3030.0,2771.0,3766.0,3040.0,3441.0,3127.0,0.23,9.67,3.06,-0.08,0.06,-0.04,1.0,m
3034.0,3891.0,3026.0,2770.0,3749.0,3034.0,3437.0,3120.0,0.35,9.67,3.05,-0.02,-0.01,-0.05,1.0,m
3024.0,3906.0,3027.0,2768.0,3773.0,3042.0,3453.0,3135.0,0.28,9.68,2.96,-0.04,-0.03,-0.06,1.0,m
3025.0,3910.0,3030.0,2772.0,3760.0,3038.0,3454.0,3134.0,0.13,9.66,2.99,-0.06,0.05,-0.03,1.0,m
3022.0,3885.0,3024.0,2768.0,3755.0,3044.0,3446.0,3126.0,0.13,9.68,2.98,-0.08,0.02,-0.01,1.0,m
3024.0,3907.0,3030.0,2773.0,3788.0,3056.0,3446.0,3136.0,0.27,9.69,2.96,-0.08,0.03,-0.03,1.0,m
3014.0,3899.0,3024.0,2769.0,3763.0,3051.0,3450.0,3136.0,0.18,9.69,3.0,-0.08,0.0,-0.02,1.0,m
3024.0,3906.0,3026.0,2778.0,3791.0,3054.0,3463.0,3154.0,0.14,9.65,2.96,-0.08,0.11,-0.0,1.0,m
3012.0,3887.0,3023.0,2762.0,3779.0,3049.0,3451.0,3143.0,0.33,9.67,2.98,-0.05,-0.0,-0.04,1.0,m
3027.0,3898.0,3030.0,2768.0,3787.0,3056.0,3459.0,3152.0,0.24,9.68,2.97,-0.07,-0.04,-0.06,1.0,m
3024.0,3886.0,3024.0,2768.0,3781.0,3053.0,3456.0,3153.0,0.15,9.67,3.0,-0.07,-0.03,-0.04,1.0,m
3021.0,3895.0,3022.0,2771.0,3775.0,3040.0,3444.0,3147.0,0.29,9.67,3.03,-0.06,0.09,-0.02,1.0,m
3027.0,3916.0,3037.0,2784.0,3791.0,3056.0,3455.0,3151.0,0.3,9.72,2.92,-0.06,0.04,-0.05,1.0,m
3019.0,3888.0,3023.0,2775.0,3778.0,3053.0,3451.0,3152.0,0.17,9.69,2.98,-0.06,-0.07,-0.03,1.0,m
3021.0,3888.0,3027.0,2771.0,3792.0,3061.0,3463.0,3165.0,0.27,9.68,2.93,-0.07,-0.1,-0.05,1.0,m
3021.0,3901.0,3022.0,2781.0,3793.0,3056.0,3444.0,3143.0,0.16,9.64,3.1,-0.09,0.05,-0.02,1.0,m
3024.0,3891.0,3035.0,2773.0,3792.0,3056.0,3467.0,3170.0,0.34,9.66,3.11,-0.06,0.02,-0.03,1.0,m
3014.0,3879.0,3019.0,2767.0,3783.0,3052.0,3456.0,3167.0,0.26,9.7,2.99,-0.05,-0.08,-0.04,1.0,m
3021.0,3887.0,3039.0,2780.0,3803.0,3061.0,3455.0,3170.0,0.31,9.68,2.99,-0.06,-0.02,-0.04,1.0,m
3021.0,3888.0,3024.0,2778.0,3797.0,3056.0,3453.0,3159.0,0.13,9.63,3.08,-0.08,0.02,-0.03,1.0,m
3026.0,3885.0,3033.0,2775.0,3792.0,3058.0,3468.0,3182.0,0.2,9.66,3.02,-0.08,0.07,-0.01,1.0,m
3018.0,3882.0,3031.0,2782.0,3794.0,3063.0,3453.0,3165.0,0.26,9.64,3.07,-0.06,-0.02,-0.03,1.0,m
3026.0,3877.0,3035.0,2777.0,3792.0,3058.0,3456.0,3151.0,0.29,9.68,3.06,-0.06,-0.0,-0.04,1.0,m
3024.0,3897.0,3024.0,2779.0,3793.0,3059.0,3469.0,3177.0,0.26,9.66,3.09,-0.07,0.02,-0.03,1.0,m
3017.0,3881.0,3021.0,2781.0,3803.0,3060.0,3461.0,3168.0,0.5,9.54,3.57,0.05,-0.04,-0.08,1.0,m
3015.0,3883.0,3029.0,2771.0,3803.0,3067.0,3471.0,3166.0,1.24,9.85,3.01,0.05,2.18,-0.17,1.0,m
3021.0,3903.0,3024.0,2773.0,3797.0,3057.0,3455.0,3187.0,-0.7,9.65,2.61,0.06,1.72,-0.04,1.0,m
3023.0,3893.0,3018.0,2778.0,3798.0,3070.0,3462.0,3223.0,-1.68,9.85,1.7,0.18,-1.13,-0.2,1.0,m
3021.0,3918.0,3023.0,2784.0,3815.0,3061.0,3470.0,3241.0,-0.63,9.8,2.53,-0.16,-0.56,0.03,1.0,m
3016.0,3907.0,3028.0,2778.0,3812.0,3058.0,3454.0,3244.0,-0.98,9.66,2.69,-0.11,-0.15,0.11,1.0,m
3022.0,3908.0,3025.0,2789.0,3823.0,3071.0,3470.0,3251.0,-0.29,9.59,3.12,-0.22,-0.05,0.15,1.0,m
3009.0,3905.0,3018.0,2782.0,3809.0,3058.0,3482.0,3248.0,0.04,9.6,3.31,-0.03,-0.01,0.08,1.0,m
3024.0,3918.0,3035.0,2786.0,3819.0,3086.0,3477.0,3253.0,0.07,9.83,2.55,0.02,0.04,-0.05,1.0,m
3019.0,3891.0,3029.0,2785.0,3821.0,3065.0,3456.0,3246.0,-0.51,9.73,2.5,-0.1,-0.05,0.04,1.0,m
3026.0,3915.0,3022.0,2789.0,3821.0,3071.0,3476.0,3249.0,0.53,9.74,3.02,0.02,0.07,0.08,1.0,m
3024.0,3903.0,3018.0,2783.0,3811.0,3062.0,3472.0,3249.0,0.59,9.79,2.72,-0.02,0.05,-0.13,1.0,m
3022.0,3920.0,3024.0,2790.0,3841.0,3085.0,3485.0,3251.0,-0.89,9.69,2.53,-0.2,0.25,-0.13,1.0,m
3023.0,3907.0,3024.0,2784.0,3807.0,3063.0,3459.0,3248.0,-0.64,9.59,3.17,-0.11,-0.16,-0.03,1.0,m
3023.0,3908.0,3029.0,2796.0,3824.0,3063.0,3472.0,3249.0,0.42,9.68,3.22,0.04,0.05,0.0,1.0,m
3020.0,3919.0,3025.0,2790.0,3823.0,3082.0,3475.0,3248.0,-0.19,9.76,2.71,-0.1,0.07,-0.18,1.0,m
3013.0,3907.0,3025.0,2791.0,3818.0,3071.0,3469.0,3238.0,-0.98,9.59,2.93,-0.13,-0.08,-0.12,1.0,m
3022.0,3927.0,3024.0,2796.0,3824.0,3071.0,3474.0,3255.0,-0.61,9.59,3.3,-0.07,0.01,0.08,1.0,m
3011.0,3918.0,3022.0,2791.0,3829.0,3071.0,3471.0,3255.0,0.42,9.74,2.92,0.01,0.06,-0.06,1.0,m
3035.0,3935.0,3026.0,2795.0,3813.0,3084.0,3486.0,3273.0,-0.62,9.74,2.61,-0.11,0.07,-0.13,1.0,m
3024.0,3935.0,3024.0,2789.0,3826.0,3093.0,3486.0,3299.0,-0.41,9.46,3.68,-0.08,-0.12,-0.14,1.0,m
3025.0,3939.0,3037.0,2793.0,3845.0,3098.0,3485.0,3302.0,-0.61,9.63,3.11,0.09,-0.13,-0.06,1.0,m
3020.0,3907.0,3029.0,2784.0,3839.0,3098.0,3479.0,3303.0,-0.5,9.75,2.63,0.02,0.01,-0.01,1.0,m
3024.0,3920.0,3024.0,2791.0,3837.0,3101.0,3495.0,3311.0,-0.26,9.7,2.79,-0.06,-0.12,0.05,1.0,m
3023.0,3919.0,3024.0,2785.0,3826.0,3091.0,3482.0,3302.0,-0.15,9.67,2.99,-0.14,-0.12,0.03,1.0,m
3026.0,3909.0,3027.0,2787.0,3870.0,3110.0,3495.0,3306.0,0.24,9.58,3.29,-0.07,-0.29,-0.15,1.0,m
3022.0,3906.0,3021.0,2783.0,3821.0,3097.0,3475.0,3307.0,-0.56,9.66,2.97,-0.14,-0.0,0.0,1.0,m
3009.0,3899.0,3026.0,2781.0,3841.0,3102.0,3484.0,3282.0,0.15,9.5,3.76,-0.09,-0.35,0.03,1.0,m
3023.0,3936.0,3035.0,2787.0,3856.0,3106.0,3484.0,3294.0,0.26,9.61,3.35,0.02,0.03,-0.06,1.0,m
3020.0,3911.0,3024.0,2778.0,3835.0,3102.0,3485.0,3279.0,-0.22,9.66,2.88,-0.03,-0.02,-0.09,1.0,m
3010.0,3915.0,3033.0,2789.0,3862.0,3115.0,3490.0,3286.0,0.64,9.54,3.78,-0.03,-0.3,-0.21,1.0,m
3020.0,3914.0,3024.0,2781.0,3837.0,3105.0,3487.0,3289.0,-0.3,9.67,3.0,0.16,0.22,-0.16,1.0,m
3027.0,3934.0,3026.0,2789.0,3856.0,3113.0,3489.0,3291.0,-1.04,9.75,2.32,0.03,0.12,-0.08,1.0,m
3018.0,3923.0,3024.0,2783.0,3847.0,3103.0,3478.0,3261.0,-0.48,9.64,2.89,0.07,-0.04,0.02,1.0,m
3023.0,3909.0,3029.0,2795.0,3847.0,3111.0,3494.0,3263.0,-0.13,9.89,2.31,0.09,0.22,0.11,1.0,m
3017.0,3915.0,3028.0,2787.0,3843.0,3103.0,3475.0,3235.0,0.11,9.89,2.34,-0.06,-0.11,-0.1,1.0,m
3015.0,3917.0,3038.0,2797.0,3869.0,3117.0,3501.0,3255.0,-0.7,9.82,2.7,-0.18,-0.09,-0.07,1.0,m
3019.0,3895.0,3033.0,2797.0,3854.0,3110.0,3485.0,3274.0,-0.64,9.66,2.83,0.09,-0.14,0.23,1.0,m
3029.0,3919.0,3031.0,2799.0,3856.0,3109.0,3490.0,3287.0,0.7,9.82,2.44,0.13,0.14,0.22,1.0,m
3019.0,3913.0,3025.0,2791.0,3858.0,3120.0,3498.0,3294.0,0.8,10.0,1.82,-0.05,0.06,-0.01,1.0,m
3025.0,3917.0,3027.0,2787.0,3855.0,3116.0,3478.0,3271.0,-0.37,9.81,2.51,-0.05,-0.02,-0.12,1.0,m
3024.0,3920.0,3034.0,2791.0,3861.0,3115.0,3485.0,3282.0,-0.3,9.78,2.63,-0.07,-0.05,-0.12,1.0,m
3022.0,3909.0,3027.0,2790.0,3857.0,3116.0,3486.0,3280.0,-0.4,9.74,2.5,-0.02,-0.03,-0.13,1.0,m
3024.0,3926.0,3019.0,2789.0,3856.0,3120.0,3490.0,3291.0,-0.17,9.7,2.75,-0.1,-0.2,-0.25,1.0,m
3010.0,3910.0,3027.0,2796.0,3875.0,3131.0,3501.0,3287.0,-1.32,9.61,2.61,-0.01,0.12,-0.41,1.0,m
3019.0,3907.0,3024.0,2799.0,3874.0,3117.0,3490.0,3294.0,-0.68,9.88,2.01,-0.17,-0.04,-0.06,1.0,m
3018.0,3914.0,3024.0,2800.0,3871.0,3121.0,3499.0,3306.0,-0.86,9.54,3.0,-0.39,-0.02,-0.15,1.0,m
3024.0,3920.0,3024.0,2787.0,3863.0,3113.0,3476.0,3302.0,-1.25,9.37,3.42,-0.36,-0.15,-0.18,1.0,m
3025.0,3914.0,3038.0,2800.0,3885.0,3130.0,3504.0,3300.0,-1.76,9.25,3.67,-0.3,0.07,-0.08,1.0,m
3015.0,3901.0,3021.0,2795.0,3867.0,3120.0,3482.0,3298.0,-1.4,9.24,3.72,-0.17,-0.03,-0.08,1.0,m
3024.0,3925.0,3037.0,2783.0,3886.0,3120.0,3501.0,3302.0,-1.32,9.21,3.99,-0.16,-0.05,-0.1,1.0,m
3023.0,3907.0,3023.0,2795.0,3875.0,3120.0,3493.0,3290.0,-1.55,9.21,3.88,-0.09,0.0,-0.07,1.0,m
3022.0,3920.0,3031.0,2813.0,3857.0,3120.0,3497.0,3307.0,-1.7,9.14,3.78,-0.16,-0.02,-0.04,1.0,m
3023.0,3912.0,3024.0,2783.0,3856.0,3117.0,3487.0,3299.0,-1.44,9.11,4.1,-0.14,0.03,-0.02,1.0,m
3029.0,3921.0,3024.0,2794.0,3865.0,3121.0,3499.0,3307.0,-1.8,9.19,3.92,-0.11,0.07,-0.05,1.0,m
3013.0,3902.0,3023.0,2798.0,3856.0,3120.0,3482.0,3307.0,-1.7,9.14,3.99,-0.09,0.02,0.0,1.0,m
3022.0,3904.0,3024.0,2782.0,3877.0,3120.0,3489.0,3292.0,-1.44,9.11,4.09,-0.08,0.04,0.03,1.0,m
3021.0,3911.0,3030.0,2805.0,3897.0,3126.0,3490.0,3296.0,-1.43,9.1,4.14,-0.04,0.02,0.01,1.0,m
3014.0,3919.0,3034.0,2798.0,3881.0,3120.0,3481.0,3295.0,-1.53,9.13,4.1,-0.03,0.02,0.05,1.0,m
3030.0,3937.0,3031.0,2805.0,3893.0,3134.0,3504.0,3306.0,-1.26,9.2,3.91,0.01,0.05,0.04,1.0,m
3024.0,3923.0,3027.0,2809.0,3902.0,3135.0,3506.0,3307.0,0.68,9.5,3.62,-0.08,-0.02,0.09,1.0,m
3021.0,3911.0,3019.0,2800.0,3863.0,3120.0,3504.0,3309.0,0.74,9.48,3.64,-0.07,-0.01,0.09,1.0,m
3024.0,3917.0,3025.0,2805.0,3882.0,3120.0,3485.0,3306.0,0.89,9.49,3.58,-0.03,0.03,0.06,1.0,m
3030.0,3922.0,3036.0,2811.0,3889.0,3130.0,3491.0,3303.0,1.02,9.53,3.51,0.01,-0.0,0.03,1.0,m
3026.0,3930.0,3024.0,2797.0,3877.0,3127.0,3498.0,3307.0,1.03,9.54,3.35,0.04,0.01,0.01,1.0,m
3020.0,3933.0,3029.0,2809.0,3887.0,3132.0,3504.0,3309.0,0.93,9.62,3.19,0.0,0.05,0.03,1.0,m
3025.0,3929.0,3026.0,2805.0,3888.0,3126.0,3494.0,3303.0,1.07,9.58,3.23,0.0,0.01,-0.0,1.0,m
3031.0,3939.0,3026.0,2809.0,3913.0,3138.0,3504.0,3309.0,1.01,9.66,3.06,0.01,0.01,-0.01,1.0,m
3010.0,3918.0,3015.0,2810.0,3887.0,3129.0,3501.0,3309.0,0.95,9.63,2.97,-0.01,0.02,0.0,1.0,m
3025.0,3927.0,3029.0,2807.0,3895.0,3139.0,3520.0,3310.0,1.26,9.6,3.16,-0.0,-0.05,-0.04,1.0,m
3024.0,3935.0,3029.0,2806.0,3876.0,3130.0,3499.0,3303.0,1.24,9.64,3.1,-0.01,-0.04,-0.08,1.0,m
3024.0,3937.0,3027.0,2807.0,3890.0,3127.0,3498.0,3311.0,0.96,9.68,3.01,0.01,-0.07,-0.1,1.0,m
3022.0,3919.0,3021.0,2798.0,3888.0,3129.0,3494.0,3306.0,0.8,9.61,3.06,0.03,-0.03,-0.07,1.0,m
3027.0,3943.0,3027.0,2812.0,3869.0,3124.0,3489.0,3301.0,1.3,9.79,2.7,0.01,0.01,-0.08,1.0,m
3024.0,3936.0,3027.0,2807.0,3895.0,3130.0,3504.0,3305.0,1.38,9.77,2.7,0.05,-0.11,-0.2,1.0,m
3026.0,3906.0,3025.0,2800.0,3893.0,3130.0,3501.0,3315.0,0.43,9.86,2.21,0.01,0.13,-0.14,1.0,m
3031.0,3941.0,3034.0,2811.0,3902.0,3124.0,3494.0,3312.0,0.33,9.8,2.4,-0.05,-0.09,-0.05,1.0,m
3023.0,3934.0,3026.0,2809.0,3894.0,3124.0,3491.0,3308.0,0.88,9.76,2.74,-0.04,-0.01,-0.04,1.0,m
3023.0,3947.0,3042.0,2818.0,3933.0,3133.0,3501.0,3309.0,0.72,9.79,2.64,0.02,0.01,-0.05,1.0,m
3014.0,3907.0,3022.0,2802.0,3904.0,3128.0,3490.0,3309.0,0.5,9.81,2.37,0.03,0.02,-0.04,1.0,m
3014.0,3951.0,3022.0,2806.0,3914.0,3141.0,3502.0,3317.0,-0.46,9.82,2.32,-0.1,-0.01,-0.09,1.0,m
3028.0,3963.0,3029.0,2819.0,3931.0,3143.0,3504.0,3315.0,-0.58,9.77,2.43,-0.12,-0.0,-0.1,1.0,m
3023.0,3939.0,3025.0,2807.0,3893.0,3136.0,3503.0,3317.0,-0.7,9.79,2.34,-0.14,0.01,-0.13,1.0,m
3023.0,3942.0,3027.0,2815.0,3920.0,3145.0,3507.0,3318.0,-0.74,9.72,2.65,-0.12,-0.07,-0.15,1.0,m
3021.0,3935.0,3022.0,2810.0,3892.0,3140.0,3503.0,3312.0,-0.84,9.66,2.77,-0.1,-0.04,-0.11,1.0,m
3020.0,3920.0,3023.0,2812.0,3915.0,3146.0,3507.0,3327.0,-0.83,9.67,2.71,-0.1,-0.01,-0.1,1.0,m
3020.0,3935.0,3029.0,2815.0,3915.0,3136.0,3498.0,3307.0,-0.86,9.65,2.81,-0.1,-0.05,-0.15,1.0,m
3024.0,3927.0,3035.0,2816.0,3919.0,3150.0,3504.0,3314.0,-1.17,9.62,2.74,-0.06,-0.03,-0.12,1.0,m
3015.0,3939.0,3023.0,2814.0,3917.0,3146.0,3505.0,3314.0,-0.79,9.62,3.01,-0.05,-0.17,-0.2,1.0,m
3024.0,3939.0,3024.0,2809.0,3902.0,3136.0,3506.0,3318.0,-1.45,9.58,2.79,-0.04,-0.07,-0.19,1.0,m
3033.0,3953.0,3034.0,2813.0,3924.0,3149.0,3505.0,3321.0,-1.5,9.6,2.71,-0.01,-0.08,-0.15,1.0,m
3020.0,3921.0,3030.0,2813.0,3915.0,3147.0,3505.0,3313.0,-1.79,9.58,2.72,-0.07,-0.02,-0.05,1.0,m
3035.0,3945.0,3039.0,2822.0,3946.0,3143.0,3505.0,3323.0,-1.3,9.56,2.78,0.02,-0.04,-0.05,1.0,m
3019.0,3934.0,3018.0,2814.0,3917.0,3143.0,3504.0,3321.0,-1.2,9.64,2.6,-0.03,-0.09,-0.09,1.0,m
3027.0,3954.0,3037.0,2818.0,3916.0,3146.0,3507.0,3322.0,-1.14,9.6,2.83,-0.04,-0.1,-0.2,1.0,m
3027.0,3938.0,3024.0,2816.0,3918.0,3142.0,3510.0,3313.0,-1.42,9.55,2.8,0.07,-0.13,-0.21,1.0,m
3024.0,3955.0,3024.0,2813.0,3920.0,3147.0,3504.0,3327.0,-2.06,9.57,2.31,0.05,-0.1,-0.25,1.0,m
3019.0,3927.0,3021.0,2809.0,3929.0,3151.0,3504.0,3326.0,-2.25,9.51,2.39,0.05,-0.12,-0.22,1.0,m
3024.0,3952.0,3035.0,2823.0,3935.0,3155.0,3515.0,3313.0,-2.21,9.49,2.31,0.07,-0.08,-0.19,1.0,m
3027.0,3950.0,3021.0,2818.0,3902.0,3143.0,3497.0,3315.0,-2.33,9.48,2.28,-0.02,-0.01,-0.09,1.0,m
3019.0,3939.0,3026.0,2819.0,3917.0,3154.0,3511.0,3306.0,-0.17,9.94,1.68,-0.12,0.05,0.05,1.0,m
3024.0,3957.0,3037.0,2832.0,3939.0,3156.0,3525.0,3305.0,-0.26,9.99,1.5,-0.09,0.07,0.02,1.0,m
3029.0,3968.0,3022.0,2827.0,3920.0,3145.0,3504.0,3317.0,-0.2,9.99,1.46,-0.08,-0.06,0.02,1.0,m
3024.0,3962.0,3037.0,2829.0,3941.0,3158.0,3506.0,3312.0,0.04,9.95,1.57,-0.09,0.02,0.03,1.0,m
3021.0,3952.0,3024.0,2822.0,3923.0,3148.0,3510.0,3327.0,-0.12,10.01,1.48,-0.12,0.04,0.01,1.0,m
3015.0,3941.0,3024.0,2826.0,3927.0,3152.0,3511.0,3313.0,-0.04,9.9,1.88,-0.1,-0.02,-0.0,1.0,m
3027.0,3973.0,3029.0,2829.0,3925.0,3143.0,3517.0,3327.0,-0.07,9.93,1.75,-0.09,0.06,0.04,1.0,m
3025.0,3950.0,3026.0,2821.0,3937.0,3147.0,3504.0,3307.0,0.18,9.97,1.68,-0.08,-0.03,0.02,1.0,m
3022.0,3947.0,3030.0,2825.0,3926.0,3158.0,3521.0,3323.0,0.23,9.96,1.78,-0.09,-0.05,-0.02,1.0,m
3024.0,3952.0,3031.0,2820.0,3930.0,3148.0,3503.0,3319.0,0.11,9.95,1.86,-0.08,-0.04,-0.03,1.0,m
3024.0,3970.0,3039.0,2829.0,3946.0,3156.0,3513.0,3317.0,0.0,9.95,1.74,-0.1,-0.0,0.0,1.0,m
3024.0,3937.0,3029.0,2819.0,3931.0,3152.0,3517.0,3323.0,0.21,9.91,1.95,-0.08,-0.02,0.01,1.0,m
3029.0,3978.0,3028.0,2830.0,3941.0,3154.0,3521.0,3325.0,0.29,9.94,1.8,-0.08,0.04,0.01,1.0,m
3027.0,3941.0,3031.0,2819.0,3922.0,3146.0,3507.0,3325.0,0.32,9.93,1.87,-0.08,0.01,-0.0,1.0,m
3024.0,3967.0,3031.0,2832.0,3943.0,3163.0,3525.0,3319.0,0.3,9.93,1.92,-0.06,0.01,-0.0,1.0,m
3024.0,3943.0,3020.0,2832.0,3920.0,3151.0,3521.0,3326.0,0.21,9.91,1.87,-0.05,0.04,0.01,1.0,m
3015.0,3943.0,3031.0,2827.0,3915.0,3151.0,3503.0,3315.0,0.33,9.95,1.83,-0.08,0.05,0.04,1.0,m
3029.0,3955.0,3030.0,2828.0,3937.0,3158.0,3519.0,3321.0,0.58,9.92,1.94,-0.08,0.02,0.04,1.0,m
3024.0,3945.0,3023.0,2821.0,3925.0,3148.0,3504.0,3317.0,0.71,9.9,2.04,-0.08,-0.01,0.0,1.0,m
3029.0,3975.0,3031.0,2834.0,3954.0,3152.0,3512.0,3318.0,0.52,9.92,1.93,-0.07,0.01,-0.03,1.0,m
3024.0,3945.0,3023.0,2826.0,3952.0,3159.0,3525.0,3329.0,0.88,9.85,2.28,-0.12,0.01,0.04,1.0,m
3023.0,3924.0,3023.0,2820.0,3931.0,3147.0,3511.0,3319.0,1.0,9.85,2.32,-0.07,-0.05,-0.03,1.0,m
3024.0,3943.0,3026.0,2832.0,3951.0,3156.0,3520.0,3321.0,0.82,9.81,2.41,-0.06,-0.01,-0.04,1.0,m
3024.0,3934.0,3025.0,2823.0,3921.0,3150.0,3502.0,3317.0,0.71,9.89,2.02,-0.08,0.05,-0.01,1.0,m
3040.0,3950.0,3029.0,2826.0,3917.0,3151.0,3511.0,3317.0,0.94,9.81,2.33,-0.13,0.0,0.02,1.0,m
3034.0,3959.0,3034.0,2830.0,3943.0,3156.0,3520.0,3330.0,1.11,9.81,2.45,-0.08,-0.08,-0.06,1.0,m
3024.0,3943.0,3029.0,2822.0,3935.0,3159.0,3513.0,3319.0,0.83,9.82,2.35,-0.08,-0.04,-0.06,1.0,m
3024.0,3974.0,3042.0,2834.0,3955.0,3162.0,3521.0,3335.0,0.88,9.84,2.35,-0.07,-0.04,-0.05,1.0,m
3029.0,3939.0,3026.0,2827.0,3927.0,3152.0,3504.0,3321.0,0.85,9.8,2.43,-0.1,-0.05,-0.04,1.0,m
3024.0,3952.0,3037.0,2827.0,3978.0,3157.0,3517.0,3329.0,0.83,9.85,2.27,-0.07,0.01,-0.0,1.0,m
3021.0,3931.0,3024.0,2819.0,3939.0,3150.0,3518.0,3328.0,1.06,9.84,2.37,-0.1,-0.04,0.01,1.0,m
3022.0,3967.0,3039.0,2827.0,3957.0,3152.0,3517.0,3327.0,1.1,9.79,2.48,-0.1,-0.05,-0.02,1.0,m
3024.0,3935.0,3024.0,2817.0,3931.0,3152.0,3511.0,3325.0,1.0,9.79,2.51,-0.11,-0.01,-0.06,1.0,m
3041.0,3965.0,3034.0,2813.0,3949.0,3165.0,3515.0,3327.0,0.88,9.74,2.65,-0.12,-0.05,-0.06,1.0,m
3024.0,3952.0,3026.0,2816.0,3923.0,3137.0,3505.0,3325.0,0.89,9.75,2.65,-0.09,0.0,-0.02,1.0,m
3025.0,3931.0,3027.0,2828.0,3954.0,3159.0,3522.0,3328.0,1.1,9.79,2.58,-0.08,-0.0,-0.03,1.0,m
3025.0,3947.0,3035.0,2825.0,3943.0,3165.0,3509.0,3329.0,0.89,9.79,2.55,-0.11,0.0,-0.04,1.0,m
3027.0,3932.0,3028.0,2823.0,3943.0,3151.0,3507.0,3318.0,1.01,9.73,2.71,-0.11,-0.03,-0.03,1.0,m
3036.0,3952.0,3047.0,2827.0,3954.0,3157.0,3524.0,3335.0,0.98,9.73,2.72,-0.12,0.03,-0.02,1.0,m
3021.0,3933.0,3024.0,2818.0,3965.0,3152.0,3509.0,3323.0,1.02,9.73,2.81,-0.13,0.0,-0.04,1.0,m
3011.0,3922.0,3023.0,2818.0,3938.0,3153.0,3507.0,3327.0,1.1,9.69,2.88,-0.12,0.0,-0.04,1.0,m
3027.0,3954.0,3027.0,2825.0,3963.0,3162.0,3529.0,3339.0,1.13,9.58,3.28,-0.21,-0.08,-0.14,1.0,m
3025.0,3939.0,3024.0,2818.0,3935.0,3158.0,3523.0,3335.0,0.68,9.44,3.8,-0.14,-0.14,-0.13,1.0,m
3019.0,3931.0,3023.0,2816.0,3934.0,3152.0,3520.0,3329.0,0.69,9.49,3.55,-0.0,0.02,-0.06,1.0,m
3030.0,3936.0,3024.0,2826.0,3948.0,3162.0,3531.0,3344.0,0.67,9.69,3.02,0.01,0.05,-0.03,1.0,m
3024.0,3937.0,3029.0,2821.0,3935.0,3151.0,3510.0,3325.0,0.66,9.6,3.06,-0.1,-0.04,-0.03,1.0,m
3027.0,3965.0,3038.0,2825.0,3946.0,3158.0,3520.0,3334.0,0.97,9.57,3.41,-0.14,-0.04,-0.08,1.0,m
3021.0,3950.0,3035.0,2818.0,3933.0,3152.0,3515.0,3332.0,0.73,9.46,3.72,-0.06,-0.08,-0.13,1.0,m
3025.0,3950.0,3037.0,2828.0,3961.0,3157.0,3530.0,3334.0,0.51,9.68,3.08,0.01,0.08,-0.11,1.0,m
3021.0,3946.0,3028.0,2823.0,3947.0,3154.0,3515.0,3337.0,0.22,9.64,3.03,-0.08,0.01,-0.03,1.0,m
3030.0,3957.0,3024.0,2821.0,3957.0,3163.0,3525.0,3343.0,0.73,9.58,3.44,-0.08,0.03,0.0,1.0,m
3015.0,3954.0,3031.0,2823.0,3943.0,3152.0,3511.0,3328.0,0.73,9.54,3.58,-0.0,-0.0,-0.08,1.0,m
3025.0,3957.0,3025.0,2827.0,3957.0,3163.0,3520.0,3331.0,0.36,9.67,2.99,-0.0,0.03,-0.08,1.0,m
3021.0,3950.0,3033.0,2825.0,3952.0,3157.0,3519.0,3322.0,0.43,9.66,3.05,-0.05,-0.01,-0.03,1.0,m
3027.0,3946.0,3031.0,2821.0,3945.0,3158.0,3514.0,3313.0,0.69,9.63,3.32,-0.06,0.0,-0.05,1.0,m
3034.0,3967.0,3035.0,2832.0,3959.0,3160.0,3533.0,3314.0,0.42,9.59,3.3,-0.04,-0.01,-0.09,1.0,m
3023.0,3949.0,3024.0,2821.0,3933.0,3156.0,3519.0,3314.0,0.32,9.65,3.21,-0.05,0.0,-0.08,1.0,m
3027.0,3974.0,3031.0,2828.0,3952.0,3157.0,3525.0,3335.0,0.31,9.63,3.13,0.01,0.04,-0.19,1.0,m
3024.0,3955.0,3024.0,2816.0,3946.0,3155.0,3516.0,3307.0,-0.03,9.65,3.05,-0.07,0.03,-0.12,1.0,m
3038.0,3963.0,3031.0,2823.0,3968.0,3159.0,3536.0,3313.0,0.26,9.65,3.22,-0.18,-0.02,-0.12,1.0,m
3154.0,907.0,3022.0,2870.0,3860.0,3139.0,3173.0,3133.0,1.36,9.79,2.41,-0.08,0.05,-0.12,1.0,m
3147.0,897.0,3026.0,2862.0,3856.0,3141.0,3184.0,3143.0,1.39,9.81,2.18,-0.04,-0.1,-0.14,1.0,m
3151.0,894.0,3024.0,2866.0,3853.0,3143.0,3184.0,3151.0,1.17,9.83,2.19,-0.07,-0.1,-0.12,1.0,m
3152.0,903.0,3026.0,2864.0,3852.0,3146.0,3179.0,3140.0,1.22,9.74,1.92,0.05,-0.06,-0.14,1.0,m
3155.0,912.0,3024.0,2853.0,3831.0,3156.0,3183.0,3155.0,0.99,10.07,1.36,-0.18,-0.04,-0.2,1.0,m
3147.0,899.0,3023.0,2867.0,3830.0,3159.0,3181.0,3140.0,1.19,9.78,2.47,-0.47,-0.02,-0.12,1.0,m
3143.0,899.0,3018.0,2865.0,3818.0,3161.0,3175.0,3127.0,0.65,9.53,3.8,-0.32,0.18,-0.01,1.0,m
3154.0,899.0,3024.0,2881.0,3824.0,3172.0,3179.0,3059.0,0.32,9.41,4.14,-0.14,0.1,0.03,1.0,m
3147.0,896.0,3024.0,2883.0,3824.0,3175.0,3177.0,3057.0,0.85,9.52,3.41,0.09,-0.06,0.01,1.0,m
3146.0,886.0,3026.0,2901.0,3844.0,3186.0,3182.0,3070.0,0.93,9.83,2.76,0.02,0.0,0.13,1.0,m
3147.0,891.0,3013.0,2921.0,3853.0,3183.0,3183.0,3071.0,1.17,9.69,2.8,-0.13,0.02,0.14,1.0,m
3162.0,894.0,3023.0,2930.0,3857.0,3185.0,3197.0,3093.0,1.36,9.67,3.16,-0.09,0.01,0.07,1.0,m
3143.0,898.0,3014.0,2931.0,3854.0,3188.0,3191.0,3106.0,1.42,9.58,3.23,-0.13,-0.03,0.01,1.0,m
3151.0,885.0,3021.0,2944.0,3876.0,3185.0,3199.0,3124.0,1.44,9.55,3.36,-0.08,-0.0,-0.07,1.0,m
3146.0,887.0,3014.0,2935.0,3879.0,3182.0,3200.0,3131.0,1.09,9.58,3.19,-0.05,-0.06,-0.06,1.0,m
3152.0,896.0,3022.0,2944.0,3888.0,3187.0,3201.0,3148.0,1.38,9.54,3.33,-0.07,0.03,-0.0,1.0,m
3152.0,884.0,3017.0,2946.0,3885.0,3192.0,3200.0,3154.0,1.35,9.52,3.28,-0.05,-0.04,-0.06,1.0,m
3136.0,895.0,3019.0,2944.0,3902.0,3187.0,3202.0,3155.0,1.29,9.55,3.24,-0.06,0.02,-0.04,1.0,m
3141.0,887.0,3029.0,2941.0,3890.0,3193.0,3209.0,3158.0,1.31,9.62,3.27,-0.08,0.0,-0.04,1.0,m
3138.0,890.0,3019.0,2943.0,3887.0,3187.0,3201.0,3150.0,1.21,9.49,3.33,-0.06,-0.01,-0.04,1.0,m
3145.0,890.0,3023.0,2873.0,3888.0,3239.0,3174.0,3235.0,0.46,9.7,3.1,-0.08,-0.04,-0.05,1.0,m
3146.0,886.0,3025.0,2870.0,3879.0,3229.0,3152.0,3219.0,0.41,9.66,3.1,-0.08,-0.02,-0.05,1.0,m
3163.0,886.0,3029.0,2867.0,3878.0,3236.0,3163.0,3240.0,0.38,9.62,3.22,-0.05,-0.0,-0.06,1.0,m
3147.0,887.0,3014.0,2864.0,3861.0,3227.0,3157.0,3233.0,0.38,9.63,3.19,-0.07,-0.01,-0.03,1.0,m
3151.0,893.0,3024.0,2875.0,3890.0,3247.0,3172.0,3242.0,0.4,9.62,3.16,-0.06,-0.02,-0.04,1.0,m
3143.0,893.0,3021.0,2866.0,3892.0,3236.0,3162.0,3230.0,0.29,9.58,3.2,-0.08,0.01,-0.05,1.0,m
3156.0,887.0,3025.0,2864.0,3888.0,3241.0,3155.0,3233.0,0.34,9.63,3.29,-0.08,0.01,-0.06,1.0,m
3152.0,892.0,3030.0,2865.0,3903.0,3241.0,3164.0,3240.0,0.26,9.64,3.18,-0.06,-0.02,-0.06,1.0,m
3146.0,880.0,3021.0,2870.0,3888.0,3236.0,3159.0,3231.0,0.36,9.64,3.08,-0.09,-0.01,-0.04,1.0,m
3152.0,889.0,3034.0,2867.0,3888.0,3235.0,3174.0,3248.0,0.41,9.61,3.31,-0.13,-0.02,-0.05,1.0,m
3150.0,889.0,3021.0,2864.0,3878.0,3233.0,3167.0,3238.0,0.3,9.56,3.34,-0.13,-0.02,-0.08,1.0,m
3155.0,885.0,3034.0,2877.0,3900.0,3246.0,3165.0,3238.0,0.28,9.51,3.33,-0.17,-0.0,-0.07,1.0,m
3156.0,889.0,3023.0,2867.0,3850.0,3239.0,3167.0,3237.0,0.3,9.49,3.63,-0.17,0.01,-0.08,1.0,m
3157.0,881.0,3023.0,2875.0,3888.0,3238.0,3168.0,3247.0,0.17,9.43,3.78,-0.15,0.01,-0.07,1.0,m
3146.0,892.0,3026.0,2866.0,3887.0,3242.0,3159.0,3234.0,0.15,9.44,3.87,-0.13,-0.0,-0.06,1.0,m
3162.0,880.0,3019.0,2868.0,3886.0,3248.0,3175.0,3247.0,0.19,9.43,3.8,-0.14,-0.03,-0.05,1.0,m
3153.0,885.0,3024.0,2863.0,3883.0,3234.0,3163.0,3241.0,-0.03,9.32,3.93,-0.14,0.05,-0.02,1.0,m
3143.0,880.0,3014.0,2864.0,3894.0,3251.0,3168.0,3239.0,0.15,9.32,3.96,-0.12,0.03,-0.03,1.0,m
3152.0,891.0,3024.0,2864.0,3895.0,3233.0,3175.0,3248.0,0.12,9.35,3.97,-0.11,0.01,-0.05,1.0,m
3147.0,887.0,3022.0,2864.0,3901.0,3247.0,3175.0,3233.0,0.12,9.31,4.02,-0.12,0.02,-0.04,1.0,m
3150.0,880.0,3024.0,2868.0,3917.0,3253.0,3180.0,3241.0,0.27,9.22,4.34,-0.09,0.02,0.0,1.0,m
3151.0,891.0,3024.0,2863.0,3887.0,3238.0,3181.0,3229.0,0.18,9.2,4.36,-0.09,0.02,0.03,1.0,m
3151.0,892.0,3025.0,2868.0,3903.0,3241.0,3171.0,3234.0,0.32,9.16,4.41,-0.08,0.06,0.05,1.0,m
3147.0,881.0,3027.0,2864.0,3906.0,3243.0,3177.0,3232.0,0.38,9.17,4.41,-0.08,0.04,0.03,1.0,m
3155.0,883.0,3020.0,2861.0,3891.0,3247.0,3183.0,3233.0,0.45,9.17,4.5,-0.08,0.1,0.03,1.0,m
3147.0,892.0,3027.0,2865.0,3905.0,3249.0,3176.0,3236.0,0.4,9.15,4.4,-0.08,0.03,0.02,1.0,m
3152.0,895.0,3023.0,2862.0,3899.0,3244.0,3169.0,3234.0,0.49,9.14,4.46,-0.07,0.01,0.01,1.0,m
3163.0,891.0,3023.0,2865.0,3890.0,3243.0,3175.0,3244.0,0.51,9.06,4.54,-0.08,0.01,0.01,1.0,m
3157.0,891.0,3025.0,2864.0,3897.0,3245.0,3182.0,3239.0,0.56,9.11,4.56,-0.08,0.04,0.01,1.0,m
3152.0,889.0,3021.0,2864.0,3907.0,3249.0,3184.0,3234.0,0.58,9.12,4.44,-0.08,0.03,0.02,1.0,m
3149.0,893.0,3018.0,2864.0,3903.0,3250.0,3173.0,3218.0,0.62,9.11,4.63,-0.07,0.01,0.01,1.0,m
3152.0,893.0,3034.0,2871.0,3919.0,3246.0,3182.0,3230.0,0.65,9.1,4.54,-0.06,0.05,0.01,1.0,m
3145.0,883.0,3015.0,2855.0,3891.0,3242.0,3175.0,3229.0,0.69,9.1,4.52,-0.07,0.02,0.01,1.0,m
3154.0,887.0,3022.0,2865.0,3910.0,3249.0,3184.0,3231.0,0.71,9.06,4.65,-0.05,0.03,0.01,1.0,m
3155.0,880.0,3024.0,2864.0,3902.0,3245.0,3174.0,3225.0,0.77,9.11,4.53,-0.04,0.03,-0.01,1.0,m
3147.0,885.0,3018.0,2862.0,3910.0,3249.0,3182.0,3227.0,0.77,9.14,4.51,-0.03,-0.01,-0.02,1.0,m
3155.0,890.0,3024.0,2864.0,3922.0,3261.0,3184.0,3231.0,0.64,9.11,4.49,-0.03,0.02,-0.0,1.0,m
3147.0,891.0,3015.0,2864.0,3902.0,3248.0,3178.0,3230.0,0.82,9.11,4.56,-0.01,-0.0,-0.0,1.0,m
3155.0,887.0,3029.0,2867.0,3913.0,3250.0,3184.0,3229.0,0.72,9.15,4.43,0.03,-0.01,0.0,1.0,m
3149.0,889.0,3025.0,2861.0,3903.0,3250.0,3182.0,3225.0,0.76,9.06,4.37,-0.03,0.03,0.02,1.0,m
3165.0,897.0,3031.0,2877.0,3926.0,3249.0,3179.0,3234.0,1.01,9.37,3.97,-0.01,0.0,-0.05,1.0,m
3159.0,890.0,3030.0,2864.0,3925.0,3258.0,3186.0,3234.0,0.87,9.3,3.93,-0.02,0.02,-0.02,1.0,m
3142.0,883.0,3019.0,2862.0,3916.0,3251.0,3183.0,3227.0,0.92,9.32,3.97,-0.01,0.02,-0.01,1.0,m
3155.0,887.0,3029.0,2865.0,3909.0,3248.0,3185.0,3233.0,0.99,9.4,3.83,-0.0,0.01,-0.02,1.0,m
3139.0,893.0,3023.0,2859.0,3915.0,3248.0,3183.0,3222.0,1.01,9.34,3.83,-0.06,-0.01,-0.01,1.0,m
3149.0,886.0,3022.0,2864.0,3919.0,3255.0,3184.0,3234.0,1.08,9.36,3.86,-0.01,0.06,-0.03,1.0,m
3152.0,889.0,3009.0,2860.0,3903.0,3248.0,3184.0,3232.0,1.05,9.39,3.74,0.06,-0.06,-0.05,1.0,m
3159.0,884.0,3025.0,2869.0,3927.0,3263.0,3185.0,3243.0,1.02,9.46,3.56,0.05,-0.03,-0.06,1.0,m
3157.0,886.0,3023.0,2880.0,3915.0,3246.0,3183.0,3232.0,0.92,9.61,3.29,0.04,0.01,-0.07,1.0,m
3152.0,886.0,3031.0,2873.0,3936.0,3260.0,3195.0,3242.0,0.87,9.56,3.27,0.03,-0.03,-0.06,1.0,m
3149.0,895.0,3025.0,2875.0,3914.0,3239.0,3191.0,3229.0,0.94,9.56,3.17,0.01,-0.0,-0.04,1.0,m
3163.0,887.0,3025.0,2873.0,3934.0,3258.0,3198.0,3238.0,0.94,9.59,3.16,-0.01,-0.02,-0.03,1.0,m
3149.0,876.0,3037.0,2874.0,3926.0,3251.0,3186.0,3235.0,0.92,9.59,3.09,-0.01,-0.01,-0.03,1.0,m
3156.0,885.0,3024.0,2866.0,3920.0,3253.0,3185.0,3216.0,0.91,9.61,3.02,-0.04,0.03,-0.03,1.0,m
3154.0,890.0,3023.0,2870.0,3913.0,3248.0,3187.0,3226.0,0.99,9.5,3.14,-0.04,0.02,-0.02,1.0,m
3156.0,885.0,3023.0,2863.0,3920.0,3247.0,3186.0,3230.0,0.98,9.63,3.05,-0.02,-0.02,-0.03,1.0,m
3152.0,892.0,3024.0,2879.0,3920.0,3259.0,3190.0,3239.0,0.96,9.63,3.09,-0.04,0.02,-0.03,1.0,m
3147.0,889.0,3023.0,2864.0,3917.0,3248.0,3185.0,3229.0,1.08,9.69,3.0,-0.01,-0.03,-0.05,1.0,m
3152.0,887.0,3030.0,2865.0,3934.0,3258.0,3200.0,3248.0,0.96,9.62,3.0,0.01,-0.04,-0.07,1.0,m
3149.0,882.0,3014.0,2869.0,3920.0,3247.0,3184.0,3233.0,0.82,9.67,2.79,0.01,-0.03,-0.07,1.0,m
3138.0,889.0,3024.0,2865.0,3920.0,3250.0,3183.0,3248.0,0.91,9.84,2.31,0.01,0.02,-0.05,1.0,m
3152.0,889.0,3029.0,2878.0,3937.0,3261.0,3200.0,3251.0,1.01,9.83,2.43,-0.01,-0.01,-0.06,1.0,m
3149.0,885.0,3024.0,2865.0,3920.0,3249.0,3190.0,3261.0,0.85,9.7,2.52,0.02,-0.01,-0.05,1.0,m
3152.0,893.0,3025.0,2879.0,3935.0,3266.0,3203.0,3269.0,0.89,9.82,2.3,0.01,-0.03,-0.03,1.0,m
3152.0,886.0,3024.0,2864.0,3930.0,3251.0,3184.0,3262.0,1.01,9.75,2.28,-0.08,-0.04,-0.06,1.0,m
3152.0,883.0,3026.0,2874.0,3935.0,3259.0,3200.0,3274.0,0.8,9.85,2.21,-0.01,0.03,-0.06,1.0,m
3148.0,880.0,3031.0,2871.0,3931.0,3248.0,3189.0,3259.0,0.87,9.86,2.32,-0.03,0.0,-0.03,1.0,m
3157.0,891.0,3024.0,2867.0,3931.0,3254.0,3197.0,3269.0,0.86,9.93,2.16,0.0,0.02,-0.03,1.0,m
3152.0,884.0,3020.0,2870.0,3919.0,3253.0,3193.0,3269.0,0.93,9.83,2.15,-0.03,-0.02,-0.04,1.0,m
3150.0,897.0,3024.0,2877.0,3923.0,3255.0,3190.0,3255.0,0.84,9.7,2.12,-0.06,-0.04,-0.04,1.0,m
3157.0,895.0,3026.0,2880.0,3938.0,3258.0,3200.0,3276.0,0.92,9.84,2.13,-0.04,-0.02,-0.04,1.0,m
3152.0,887.0,3021.0,2874.0,3918.0,3254.0,3189.0,3265.0,0.84,9.9,2.13,-0.03,-0.0,-0.05,1.0,m
3139.0,882.0,3029.0,2880.0,3949.0,3266.0,3199.0,3274.0,0.95,9.89,2.1,-0.01,-0.0,-0.07,1.0,m
3150.0,889.0,3021.0,2875.0,3925.0,3258.0,3195.0,3275.0,0.79,9.93,1.98,-0.01,-0.06,-0.09,1.0,m
3152.0,890.0,3024.0,2880.0,3936.0,3258.0,3196.0,3276.0,0.78,9.94,1.87,-0.03,-0.03,-0.08,1.0,m
3157.0,884.0,3024.0,2875.0,3920.0,3243.0,3189.0,3269.0,0.73,9.91,1.96,-0.01,-0.02,-0.07,1.0,m
3154.0,889.0,3029.0,2882.0,3941.0,3260.0,3197.0,3271.0,0.83,9.92,1.93,0.01,-0.05,-0.07,1.0,m
3149.0,886.0,3024.0,2871.0,3914.0,3248.0,3190.0,3271.0,0.64,9.96,1.73,0.0,-0.03,-0.08,1.0,m
3156.0,893.0,3024.0,2879.0,3941.0,3264.0,3203.0,3280.0,0.57,9.96,1.69,-0.05,0.0,-0.05,1.0,m
3151.0,894.0,3018.0,2869.0,3920.0,3248.0,3192.0,3269.0,0.58,9.96,1.7,-0.06,-0.01,-0.05,1.0,m
3146.0,887.0,3024.0,2878.0,3929.0,3251.0,3195.0,3270.0,0.48,9.91,1.77,-0.02,-0.01,-0.06,1.0,m
3163.0,881.0,3023.0,2876.0,3946.0,3262.0,3203.0,3279.0,0.55,9.98,1.58,-0.01,-0.01,-0.05,1.0,m
3152.0,892.0,3011.0,2877.0,3925.0,3245.0,3196.0,3275.0,0.49,10.0,1.46,-0.04,0.01,-0.05,1.0,m
3153.0,885.0,3027.0,2881.0,3945.0,3251.0,3195.0,3278.0,0.46,9.96,1.65,-0.06,-0.0,-0.02,1.0,m
3143.0,891.0,3014.0,2875.0,3929.0,3254.0,3199.0,3286.0,0.56,9.96,1.65,-0.05,0.02,-0.04,1.0,m
3150.0,881.0,3024.0,2873.0,3927.0,3251.0,3198.0,3280.0,0.47,9.99,1.55,-0.04,0.01,-0.04,1.0,m
3154.0,890.0,3031.0,2879.0,3924.0,3247.0,3193.0,3279.0,0.56,10.01,1.57,-0.04,0.0,-0.05,1.0,m
3153.0,891.0,3035.0,2883.0,3947.0,3251.0,3200.0,3280.0,0.59,9.94,1.56,-0.04,-0.03,-0.06,1.0,m
3152.0,886.0,3023.0,2876.0,3920.0,3244.0,3203.0,3281.0,0.34,9.97,1.47,-0.06,0.0,-0.09,1.0,m
3152.0,889.0,3024.0,2874.0,3934.0,3246.0,3197.0,3280.0,0.44,9.99,1.37,-0.07,-0.04,-0.1,1.0,m
3154.0,885.0,3030.0,2878.0,3931.0,3255.0,3199.0,3280.0,0.35,9.95,1.47,-0.09,-0.06,-0.13,1.0,m
3152.0,881.0,3023.0,2875.0,3923.0,3247.0,3187.0,3271.0,0.03,10.01,1.27,-0.19,-0.01,-0.13,1.0,m
3157.0,885.0,3024.0,2890.0,3941.0,3253.0,3196.0,3280.0,0.19,9.9,2.12,-0.12,-0.03,-0.13,1.0,m
3152.0,883.0,3024.0,2870.0,3935.0,3248.0,3191.0,3274.0,-0.33,9.91,1.7,-0.03,0.01,-0.05,1.0,m
3158.0,880.0,3031.0,2879.0,3951.0,3263.0,3205.0,3280.0,0.19,9.97,1.7,-0.07,-0.02,-0.05,1.0,m
3149.0,895.0,3020.0,2870.0,3917.0,3249.0,3198.0,3285.0,-0.06,9.93,1.65,-0.08,-0.01,-0.07,1.0,m
3165.0,886.0,3024.0,2881.0,3959.0,3249.0,3199.0,3289.0,-0.07,9.96,1.64,-0.09,0.01,-0.05,1.0,m
3161.0,896.0,3024.0,2869.0,3931.0,3248.0,3186.0,3276.0,0.12,9.97,1.8,-0.09,-0.0,-0.06,1.0,m
3163.0,887.0,3024.0,2874.0,3920.0,3251.0,3203.0,3312.0,-0.02,9.95,1.76,-0.09,0.01,-0.09,1.0,m
3152.0,889.0,3015.0,2870.0,3921.0,3251.0,3199.0,3280.0,-0.16,9.91,1.81,-0.11,-0.02,-0.07,1.0,m
3174.0,894.0,3024.0,2880.0,3947.0,3261.0,3209.0,3280.0,-0.23,9.88,2.07,-0.07,0.01,-0.05,1.0,m
3152.0,891.0,3021.0,2864.0,3927.0,3248.0,3205.0,3279.0,-0.23,9.88,2.18,-0.04,-0.04,-0.08,1.0,m
3152.0,893.0,3031.0,2886.0,3952.0,3257.0,3207.0,3283.0,-0.47,9.9,1.94,-0.02,-0.03,-0.08,1.0,m
3153.0,893.0,3027.0,2879.0,3933.0,3251.0,3200.0,3275.0,-0.39,9.87,2.08,-0.05,-0.03,-0.06,1.0,m
3155.0,891.0,3035.0,2887.0,3941.0,3259.0,3210.0,3283.0,-0.43,9.86,2.04,-0.04,-0.01,-0.08,1.0,m
3170.0,887.0,3024.0,2879.0,3946.0,3251.0,3208.0,3281.0,-0.16,9.87,2.05,0.01,-0.06,-0.15,1.0,m
3152.0,892.0,3013.0,2871.0,3943.0,3251.0,3211.0,3286.0,-0.79,9.91,1.7,-0.03,-0.02,-0.11,1.0,m
3162.0,881.0,3031.0,2883.0,3950.0,3259.0,3215.0,3297.0,-0.91,9.87,1.9,-0.05,-0.04,-0.06,1.0,m
3149.0,887.0,3017.0,2878.0,3923.0,3250.0,3209.0,3287.0,-0.55,9.87,1.91,0.02,0.03,-0.03,1.0,m
3154.0,886.0,3024.0,2875.0,3942.0,3248.0,3209.0,3312.0,-0.49,9.91,1.74,-0.04,-0.05,-0.07,1.0,m
3151.0,894.0,3026.0,2880.0,3943.0,3248.0,3197.0,3284.0,-0.76,9.85,1.91,-0.03,0.0,-0.09,1.0,m
3171.0,884.0,3034.0,2886.0,3952.0,3259.0,3213.0,3304.0,-0.76,9.89,1.84,0.01,0.02,-0.06,1.0,m
3149.0,880.0,3019.0,2877.0,3947.0,3253.0,3201.0,3294.0,-0.76,9.92,1.6,0.03,0.0,-0.03,1.0,m
3169.0,893.0,3027.0,2883.0,3962.0,3254.0,3209.0,3293.0,-0.71,9.92,1.53,-0.01,-0.01,-0.04,1.0,m
3146.0,890.0,3013.0,2880.0,3934.0,3249.0,3207.0,3295.0,-0.69,9.93,1.45,-0.01,-0.03,-0.04,1.0,m
3155.0,881.0,3025.0,2881.0,3935.0,3254.0,3213.0,3295.0,-0.86,9.94,1.43,-0.03,-0.01,-0.01,1.0,m
3157.0,882.0,3021.0,2880.0,3932.0,3253.0,3209.0,3300.0,-0.64,9.94,1.44,-0.03,0.04,-0.03,1.0,m
3151.0,895.0,3022.0,2879.0,3939.0,3251.0,3207.0,3291.0,-0.57,9.96,1.42,0.01,-0.03,-0.04,1.0,m
3158.0,893.0,3030.0,2880.0,3938.0,3260.0,3215.0,3302.0,-0.84,9.9,1.44,-0.0,-0.02,-0.06,1.0,m
3152.0,891.0,3018.0,2879.0,3933.0,3248.0,3206.0,3303.0,-0.79,9.97,1.13,0.01,-0.01,-0.03,1.0,m
3152.0,893.0,3024.0,2882.0,3954.0,3257.0,3211.0,3310.0,-0.87,9.97,0.96,-0.06,0.01,-0.02,1.0,m
3152.0,886.0,3025.0,2887.0,3929.0,3248.0,3210.0,3301.0,-0.5,10.01,1.11,-0.04,0.01,0.0,1.0,m
3152.0,887.0,3024.0,2893.0,3953.0,3259.0,3209.0,3298.0,-0.62,9.98,1.04,-0.03,0.02,-0.0,1.0,m
3152.0,880.0,3025.0,2889.0,3948.0,3263.0,3210.0,3308.0,-0.69,10.04,0.76,-0.02,0.06,-0.01,1.0,m
3149.0,894.0,3013.0,2885.0,3943.0,3249.0,3210.0,3306.0,-0.48,10.01,0.93,-0.03,0.04,0.05,1.0,m
3162.0,887.0,3025.0,2891.0,3959.0,3254.0,3211.0,3313.0,-0.27,10.04,0.93,-0.02,0.03,0.03,1.0,m
3151.0,884.0,3011.0,2890.0,3941.0,3254.0,3214.0,3311.0,-0.52,10.02,0.74,-0.07,-0.01,-0.02,1.0,m
3150.0,887.0,3024.0,2896.0,3966.0,3263.0,3214.0,3312.0,-0.47,10.01,0.79,-0.1,0.01,-0.01,1.0,m
3151.0,887.0,3024.0,2891.0,3945.0,3252.0,3202.0,3307.0,-0.41,9.99,0.93,-0.09,0.04,0.02,1.0,m
3158.0,875.0,3034.0,2893.0,3943.0,3263.0,3213.0,3312.0,-0.56,10.02,0.9,-0.09,0.06,0.04,1.0,m
3143.0,882.0,3017.0,2883.0,3961.0,3254.0,3214.0,3312.0,-0.12,10.01,1.01,-0.05,0.08,0.05,1.0,m
3165.0,895.0,3036.0,2901.0,3959.0,3263.0,3218.0,3314.0,-0.01,10.02,0.95,-0.03,0.03,-0.02,1.0,m
3146.0,880.0,3019.0,2890.0,3946.0,3254.0,3206.0,3312.0,-0.22,10.05,0.84,-0.08,-0.01,-0.05,1.0,m
3155.0,889.0,3027.0,2893.0,3959.0,3267.0,3215.0,3314.0,-0.47,10.0,0.96,-0.09,0.03,-0.02,1.0,m
3152.0,883.0,3024.0,2893.0,3963.0,3279.0,3221.0,3318.0,-0.09,10.03,0.98,-0.06,0.04,-0.01,1.0,m
3153.0,887.0,3014.0,2889.0,3951.0,3254.0,3216.0,3312.0,-0.09,10.01,0.96,-0.07,0.02,-0.01,1.0,m
3155.0,881.0,3019.0,2894.0,3947.0,3259.0,3216.0,3318.0,-0.22,10.04,0.88,-0.05,-0.01,-0.05,1.0,m
3151.0,887.0,3020.0,2886.0,3947.0,3248.0,3206.0,3312.0,-0.19,10.01,1.18,-0.04,-0.01,-0.01,1.0,m
3147.0,899.0,3026.0,2896.0,3953.0,3263.0,3210.0,3309.0,0.1,10.0,1.03,0.04,-0.05,-0.04,1.0,m
3138.0,893.0,3015.0,2887.0,3942.0,3258.0,3214.0,3312.0,-0.36,10.01,0.71,0.03,0.01,-0.0,1.0,m
3169.0,890.0,3027.0,2896.0,3955.0,3265.0,3222.0,3303.0,0.29,10.08,0.26,-0.05,0.02,0.04,1.0,m
3149.0,887.0,3014.0,2898.0,3950.0,3257.0,3214.0,3298.0,0.62,10.05,0.46,-0.04,-0.09,0.01,1.0,m
3162.0,883.0,3023.0,2899.0,3961.0,3263.0,3214.0,3305.0,0.36,10.15,0.16,-0.07,0.03,0.03,1.0,m
3152.0,889.0,3023.0,2896.0,3952.0,3255.0,3211.0,3294.0,0.38,10.07,0.36,-0.1,0.04,0.04,1.0,m
3155.0,893.0,3030.0,2906.0,3959.0,3262.0,3214.0,3296.0,0.86,10.05,0.49,-0.08,-0.02,0.03,1.0,m
3152.0,892.0,3024.0,2896.0,3952.0,3254.0,3212.0,3296.0,0.6,10.09,0.43,-0.11,0.04,0.05,1.0,m
3152.0,888.0,3024.0,2900.0,3963.0,3264.0,3217.0,3302.0,0.83,10.05,0.58,-0.09,0.01,0.02,1.0,m
3152.0,883.0,3023.0,2902.0,3947.0,3246.0,3210.0,3295.0,0.97,10.05,0.63,-0.07,0.02,0.01,1.0,m
3155.0,886.0,3025.0,2907.0,3982.0,3269.0,3213.0,3299.0,0.97,10.05,0.6,-0.06,-0.02,-0.01,1.0,m
3152.0,885.0,3019.0,2896.0,3939.0,3255.0,3211.0,3298.0,0.79,10.0,0.53,-0.06,0.03,0.01,1.0,m
3154.0,891.0,3024.0,2897.0,3947.0,3254.0,3212.0,3305.0,0.96,10.03,0.6,-0.05,0.04,0.03,1.0,m
3158.0,883.0,3029.0,2905.0,3968.0,3255.0,3215.0,3307.0,1.09,10.04,0.54,-0.06,0.0,0.01,1.0,m
3145.0,893.0,3022.0,2898.0,3943.0,3250.0,3215.0,3303.0,1.08,10.0,0.6,-0.07,0.01,-0.0,1.0,m
3155.0,890.0,3024.0,2899.0,3966.0,3262.0,3223.0,3311.0,1.19,10.01,0.66,-0.07,0.01,-0.0,1.0,m
3152.0,886.0,3025.0,2899.0,3946.0,3250.0,3210.0,3296.0,1.08,10.08,0.43,-0.09,0.07,0.02,1.0,m
3152.0,882.0,3027.0,2902.0,3955.0,3251.0,3214.0,3306.0,1.33,10.04,0.76,-0.13,0.01,0.03,1.0,m
3151.0,884.0,3031.0,2901.0,3954.0,3255.0,3212.0,3290.0,1.39,10.06,0.62,-0.09,0.08,0.01,1.0,m
3157.0,885.0,3027.0,2903.0,3963.0,3261.0,3225.0,3306.0,1.33,10.01,0.86,-0.12,-0.01,-0.03,1.0,m
3151.0,886.0,3024.0,2904.0,3963.0,3248.0,3207.0,3296.0,1.29,10.02,0.88,-0.1,-0.03,-0.03,1.0,m
3155.0,892.0,3024.0,2901.0,3955.0,3257.0,3215.0,3299.0,1.4,10.03,0.91,-0.1,-0.02,-0.02,1.0,m
3159.0,882.0,3029.0,2910.0,3962.0,3254.0,3213.0,3291.0,1.37,9.99,1.13,-0.1,0.02,-0.03,1.0,m
3152.0,890.0,3024.0,2905.0,3983.0,3255.0,3218.0,3295.0,1.4,10.0,1.12,-0.1,-0.01,-0.03,1.0,m
3149.0,887.0,3021.0,2897.0,3959.0,3255.0,3213.0,3289.0,1.32,10.0,1.1,-0.1,-0.04,-0.04,1.0,m
3159.0,885.0,3026.0,2905.0,3972.0,3255.0,3219.0,3293.0,1.46,10.01,1.16,-0.1,-0.01,-0.05,1.0,m
3149.0,883.0,3023.0,2901.0,3966.0,3254.0,3217.0,3285.0,1.27,9.96,1.32,-0.09,0.02,-0.06,1.0,m
3165.0,892.0,3022.0,2906.0,3971.0,3262.0,3214.0,3296.0,1.28,9.93,1.27,-0.07,0.0,-0.05,1.0,m
3151.0,889.0,3009.0,2898.0,3954.0,3250.0,3214.0,3290.0,1.33,9.95,1.33,-0.1,-0.02,-0.06,1.0,m
3163.0,887.0,3024.0,2901.0,3955.0,3261.0,3218.0,3293.0,1.19,9.93,1.48,-0.09,-0.02,-0.06,1.0,m
3152.0,883.0,3021.0,2901.0,3963.0,3257.0,3216.0,3307.0,1.19,9.96,1.39,-0.06,-0.0,-0.03,1.0,m
3158.0,883.0,3022.0,2903.0,3955.0,3250.0,3212.0,3291.0,1.35,9.99,1.3,-0.08,-0.01,-0.04,1.0,m
3166.0,883.0,3024.0,2907.0,3967.0,3261.0,3223.0,3312.0,1.22,9.97,1.44,-0.1,0.0,-0.06,1.0,m
3158.0,889.0,3025.0,2903.0,3952.0,3266.0,3218.0,3296.0,1.15,9.95,1.52,-0.1,0.01,-0.05,1.0,m
3169.0,890.0,3025.0,2907.0,3969.0,3263.0,3223.0,3310.0,1.28,9.95,1.53,-0.08,-0.02,-0.05,1.0,m
3152.0,885.0,3019.0,2899.0,3946.0,3250.0,3202.0,3292.0,1.18,9.94,1.58,-0.07,0.02,-0.04,1.0,m
3171.0,892.0,3034.0,2913.0,3977.0,3259.0,3217.0,3291.0,1.18,10.0,1.49,-0.07,0.03,-0.04,1.0,m
3147.0,885.0,3019.0,2899.0,3946.0,3250.0,3216.0,3286.0,1.28,9.95,1.56,-0.09,-0.02,-0.05,1.0,m
3163.0,886.0,3035.0,2913.0,3973.0,3261.0,3221.0,3301.0,1.16,9.96,1.59,-0.09,-0.01,-0.06,1.0,m
3150.0,890.0,3024.0,2896.0,3949.0,3251.0,3215.0,3289.0,1.12,9.94,1.63,-0.09,0.01,-0.04,1.0,m
3159.0,895.0,3026.0,2909.0,3977.0,3261.0,3229.0,3290.0,1.13,9.93,1.67,-0.1,0.01,-0.04,1.0,m
3154.0,886.0,3024.0,2899.0,3957.0,3259.0,3219.0,3291.0,1.07,9.93,1.71,-0.09,0.01,-0.04,1.0,m
2981.0,880.0,3024.0,2846.0,3875.0,3115.0,3191.0,2714.0,-0.61,9.84,1.92,-0.19,-0.24,-0.28,1.0,m
2992.0,883.0,3024.0,2849.0,3875.0,3119.0,3189.0,2716.0,-0.89,9.74,2.21,-0.19,0.06,-0.15,1.0,m
2978.0,879.0,3023.0,2864.0,3893.0,3123.0,3197.0,2737.0,-0.7,9.84,2.17,-0.09,-0.17,-0.11,1.0,m
2987.0,883.0,3027.0,2867.0,3898.0,3129.0,3201.0,2731.0,-0.74,9.85,2.12,-0.06,0.05,-0.08,1.0,m
2981.0,890.0,3018.0,2859.0,3871.0,3120.0,3200.0,2735.0,-0.59,9.71,2.38,-0.06,-0.1,-0.05,1.0,m
2983.0,883.0,3029.0,2867.0,3888.0,3126.0,3211.0,2757.0,-0.55,9.85,2.09,-0.08,0.07,-0.05,1.0,m
2988.0,881.0,3024.0,2863.0,3887.0,3108.0,3204.0,2741.0,-0.85,9.89,1.85,-0.12,-0.03,-0.08,1.0,m
2973.0,883.0,3019.0,2874.0,3882.0,3120.0,3207.0,2723.0,-0.87,9.75,2.5,-0.14,-0.02,-0.08,1.0,m
2969.0,887.0,3026.0,2877.0,3897.0,3138.0,3216.0,2733.0,-0.78,9.72,2.45,-0.04,-0.07,-0.08,1.0,m
2974.0,886.0,3024.0,2882.0,3882.0,3131.0,3212.0,2714.0,-0.9,9.79,2.26,-0.05,-0.04,-0.03,1.0,m
2981.0,880.0,3029.0,2884.0,3906.0,3140.0,3216.0,2736.0,-0.77,9.72,2.48,-0.1,0.07,-0.03,1.0,m
2978.0,893.0,3030.0,2880.0,3895.0,3131.0,3211.0,2734.0,-0.81,9.79,2.4,-0.07,0.06,-0.03,1.0,m
2991.0,880.0,3024.0,2886.0,3903.0,3143.0,3232.0,2745.0,-0.74,9.82,2.33,-0.03,-0.01,-0.07,1.0,m
2971.0,882.0,3024.0,2880.0,3881.0,3143.0,3223.0,2729.0,-0.78,9.76,2.4,-0.05,-0.02,-0.06,1.0,m
2989.0,881.0,3025.0,2882.0,3910.0,3153.0,3228.0,2746.0,-0.94,9.78,2.29,-0.06,0.07,-0.04,1.0,m
2981.0,887.0,3021.0,2881.0,3888.0,3150.0,3232.0,2737.0,-0.82,9.82,2.37,-0.07,0.02,-0.06,1.0,m
2985.0,880.0,3025.0,2895.0,3911.0,3146.0,3228.0,2738.0,-0.91,9.76,2.37,-0.05,-0.03,-0.05,1.0,m
2978.0,880.0,3024.0,2894.0,3901.0,3151.0,3232.0,2736.0,-0.83,9.79,2.35,-0.06,-0.01,-0.04,1.0,m
2992.0,890.0,3029.0,2895.0,3907.0,3152.0,3224.0,2738.0,-0.97,9.77,2.29,-0.06,-0.01,-0.05,1.0,m
2986.0,883.0,3023.0,2888.0,3917.0,3158.0,3246.0,2749.0,-0.74,9.79,2.34,-0.09,-0.03,-0.05,1.0,m
2978.0,879.0,3017.0,2887.0,3888.0,3152.0,3242.0,2746.0,-0.94,9.71,2.5,-0.06,-0.03,-0.04,1.0,m
2976.0,892.0,3026.0,2898.0,3923.0,3162.0,3248.0,2754.0,-0.97,9.73,2.46,-0.1,-0.02,-0.02,1.0,m
2975.0,880.0,3018.0,2896.0,3911.0,3164.0,3243.0,2751.0,-0.69,9.72,2.64,-0.1,-0.0,-0.05,1.0,m
2980.0,886.0,3029.0,2910.0,3923.0,3171.0,3243.0,2762.0,-1.13,9.65,2.6,-0.1,0.02,-0.04,1.0,m
2978.0,883.0,3018.0,2902.0,3903.0,3159.0,3250.0,2766.0,-0.81,9.69,2.64,-0.08,0.01,-0.01,1.0,m
2993.0,883.0,3030.0,2911.0,3919.0,3170.0,3248.0,2771.0,-0.9,9.75,2.38,-0.11,0.02,-0.02,1.0,m
2983.0,894.0,3024.0,2913.0,3917.0,3167.0,3250.0,2769.0,-0.82,9.68,2.56,-0.21,-0.01,-0.05,1.0,m
2977.0,880.0,3019.0,2910.0,3922.0,3169.0,3250.0,2758.0,-0.9,9.57,2.9,-0.23,0.01,-0.06,1.0,m
2982.0,887.0,3024.0,2914.0,3921.0,3174.0,3263.0,2769.0,-1.0,9.51,3.25,-0.2,-0.03,-0.06,1.0,m
2979.0,891.0,3008.0,2906.0,3915.0,3167.0,3253.0,2751.0,-1.02,9.47,3.44,-0.17,-0.02,-0.03,1.0,m
2978.0,880.0,3023.0,2912.0,3913.0,3179.0,3252.0,2750.0,-0.92,9.45,3.48,-0.11,0.02,-0.02,1.0,m
2975.0,880.0,3013.0,2913.0,3888.0,3177.0,3248.0,2750.0,-0.93,9.49,3.34,-0.09,0.01,0.0,1.0,m
2979.0,890.0,3015.0,2926.0,3919.0,3184.0,3263.0,2759.0,-0.95,9.51,3.26,-0.12,0.02,0.02,1.0,m
2982.0,880.0,3019.0,2917.0,3905.0,3170.0,3243.0,2751.0,-0.68,9.48,3.5,-0.13,0.04,0.0,1.0,m
2991.0,885.0,3023.0,2923.0,3894.0,3175.0,3255.0,2754.0,-0.86,9.46,3.51,-0.14,0.03,-0.01,1.0,m
2978.0,893.0,3024.0,2910.0,3893.0,3168.0,3247.0,2763.0,-0.97,9.41,3.57,-0.12,0.04,0.02,1.0,m
2987.0,885.0,3026.0,2918.0,3915.0,3179.0,3249.0,2778.0,-0.76,9.38,3.65,-0.15,0.05,0.05,1.0,m
2974.0,880.0,3009.0,2907.0,3895.0,3171.0,3248.0,2769.0,-0.44,9.42,3.75,-0.13,0.01,-0.03,1.0,m
2987.0,882.0,3014.0,2913.0,3897.0,3174.0,3257.0,2767.0,-0.77,9.34,3.78,-0.12,0.03,-0.07,1.0,m
2978.0,880.0,3030.0,2923.0,3910.0,3183.0,3257.0,2774.0,-0.91,9.33,3.69,-0.14,-0.0,-0.02,1.0,m
2981.0,890.0,3024.0,2928.0,3898.0,3181.0,3261.0,2773.0,-0.41,9.19,4.23,-0.21,0.14,0.15,1.0,m
2982.0,884.0,3025.0,2927.0,3899.0,3182.0,3266.0,2774.0,-0.16,9.15,4.43,-0.14,0.06,0.1,1.0,m
2976.0,880.0,3024.0,2919.0,3891.0,3181.0,3260.0,2762.0,-0.27,9.11,4.45,-0.17,0.1,0.07,1.0,m
2989.0,893.0,3019.0,2923.0,3908.0,3184.0,3267.0,2778.0,-0.13,9.06,4.64,-0.15,0.06,0.1,1.0,m
2986.0,887.0,3024.0,2927.0,3892.0,3183.0,3269.0,2774.0,-0.21,8.99,4.76,-0.1,0.03,0.08,1.0,m
2991.0,880.0,3024.0,2931.0,3916.0,3183.0,3262.0,2772.0,-0.01,8.99,4.77,-0.03,0.02,0.08,1.0,m
2991.0,882.0,3023.0,2925.0,3898.0,3184.0,3274.0,2779.0,0.36,9.11,4.57,-0.03,-0.01,0.05,1.0,m
2975.0,881.0,3019.0,2928.0,3895.0,3180.0,3259.0,2761.0,0.54,9.08,4.8,-0.02,-0.01,0.0,1.0,m
2982.0,886.0,3031.0,2928.0,3899.0,3184.0,3276.0,2763.0,0.34,9.09,4.58,-0.02,0.04,0.01,1.0,m
2981.0,885.0,3017.0,2926.0,3890.0,3171.0,3262.0,2768.0,0.18,9.09,4.51,-0.02,0.05,-0.0,1.0,m
2982.0,880.0,3034.0,2929.0,3911.0,3194.0,3265.0,2768.0,0.23,9.11,4.52,-0.02,0.06,0.05,1.0,m
2970.0,883.0,3024.0,2928.0,3900.0,3185.0,3264.0,2754.0,0.29,9.15,4.39,-0.02,0.04,0.04,1.0,m
2993.0,887.0,3028.0,2930.0,3901.0,3191.0,3271.0,2773.0,0.28,9.16,4.31,-0.03,0.05,0.04,1.0,m
2981.0,885.0,3023.0,2931.0,3902.0,3184.0,3264.0,2768.0,0.55,9.24,4.35,-0.02,0.01,-0.0,1.0,m
2989.0,880.0,3027.0,2934.0,3906.0,3195.0,3277.0,2768.0,0.53,9.17,4.45,-0.01,-0.01,-0.02,1.0,m
2973.0,888.0,3026.0,2930.0,3898.0,3185.0,3275.0,2768.0,0.35,9.18,4.36,0.01,0.04,0.01,1.0,m
2985.0,891.0,3033.0,2941.0,3905.0,3191.0,3280.0,2781.0,0.4,9.25,4.09,0.01,0.04,0.03,1.0,m
2978.0,891.0,3026.0,2934.0,3891.0,3185.0,3270.0,2771.0,0.68,9.29,4.13,0.0,0.0,0.01,1.0,m
2970.0,885.0,3014.0,2922.0,3895.0,3183.0,3275.0,2768.0,0.57,9.3,4.04,-0.03,0.02,-0.01,1.0,m
2982.0,885.0,3024.0,2943.0,3902.0,3186.0,3265.0,2769.0,0.46,9.29,4.09,-0.03,0.04,0.0,1.0,m
2976.0,887.0,3024.0,2933.0,3917.0,3187.0,3271.0,2773.0,0.59,9.49,3.54,0.02,0.04,-0.01,1.0,m
2983.0,882.0,3024.0,2930.0,3909.0,3197.0,3280.0,2787.0,0.87,9.52,3.53,0.03,0.01,0.02,1.0,m
2976.0,884.0,3015.0,2915.0,3906.0,3195.0,3279.0,2763.0,0.95,9.57,3.39,0.02,0.02,-0.0,1.0,m
2986.0,885.0,3024.0,2937.0,3890.0,3191.0,3269.0,2757.0,0.9,9.6,3.21,0.01,0.03,-0.01,1.0,m
2985.0,880.0,3019.0,2930.0,3920.0,3201.0,3281.0,2768.0,0.93,9.63,3.14,-0.02,0.01,-0.04,1.0,m
2981.0,890.0,3024.0,2938.0,3906.0,3193.0,3274.0,2759.0,0.86,9.6,3.25,-0.04,0.0,-0.04,1.0,m
2981.0,881.0,3023.0,2939.0,3930.0,3197.0,3281.0,2768.0,0.81,9.55,3.32,-0.03,-0.0,-0.04,1.0,m
2974.0,886.0,3022.0,2943.0,3910.0,3194.0,3279.0,2784.0,0.82,9.59,3.23,-0.02,0.01,-0.02,1.0,m
2988.0,885.0,3031.0,2946.0,3941.0,3205.0,3280.0,2769.0,0.87,9.63,3.11,-0.02,0.0,-0.02,1.0,m
2976.0,885.0,3018.0,2939.0,3914.0,3201.0,3278.0,2783.0,0.98,9.66,3.13,-0.02,0.0,-0.03,1.0,m
2986.0,887.0,3024.0,2943.0,3920.0,3205.0,3277.0,2798.0,0.79,9.65,3.07,-0.03,-0.0,-0.04,1.0,m
2971.0,889.0,3015.0,2935.0,3910.0,3195.0,3270.0,2779.0,0.81,9.67,3.04,-0.04,0.02,-0.03,1.0,m
2979.0,886.0,3022.0,2951.0,3935.0,3202.0,3280.0,2785.0,0.99,9.66,3.06,0.01,-0.01,-0.05,1.0,m
2976.0,887.0,3024.0,2935.0,3920.0,3200.0,3280.0,2780.0,0.86,9.69,2.9,0.01,0.01,-0.06,1.0,m
2981.0,884.0,3037.0,2951.0,3943.0,3202.0,3282.0,2774.0,0.76,9.71,2.83,-0.01,0.02,-0.04,1.0,m
2989.0,886.0,3024.0,2948.0,3943.0,3200.0,3281.0,2767.0,0.86,9.72,2.86,-0.03,0.01,-0.03,1.0,m
2975.0,880.0,3018.0,2934.0,3920.0,3198.0,3282.0,2767.0,0.86,9.72,2.84,-0.03,0.01,-0.01,1.0,m
2986.0,890.0,3021.0,2946.0,3923.0,3199.0,3285.0,2768.0,0.86,9.71,2.82,-0.03,0.01,-0.02,1.0,m
2982.0,882.0,3024.0,2938.0,3920.0,3193.0,3286.0,2766.0,0.88,9.72,2.77,-0.04,-0.0,-0.02,1.0,m
2975.0,882.0,3030.0,2949.0,3947.0,3204.0,3287.0,2777.0,0.91,9.73,2.77,-0.04,-0.0,-0.02,1.0,m
2978.0,890.0,3015.0,2945.0,3926.0,3198.0,3281.0,2791.0,1.02,9.82,2.51,-0.05,0.0,-0.04,1.0,m
2991.0,883.0,3038.0,2960.0,3958.0,3206.0,3283.0,2791.0,0.85,9.79,2.52,-0.05,0.0,-0.04,1.0,m
2967.0,885.0,3024.0,2942.0,3935.0,3202.0,3280.0,2806.0,0.91,9.8,2.49,-0.04,0.02,-0.01,1.0,m
2992.0,887.0,3024.0,2949.0,3952.0,3200.0,3285.0,2800.0,0.92,9.8,2.43,-0.06,0.03,0.01,1.0,m
2979.0,881.0,3021.0,2950.0,3924.0,3196.0,3277.0,2797.0,1.12,9.75,2.58,-0.03,-0.0,-0.01,1.0,m
2973.0,892.0,3022.0,2951.0,3952.0,3199.0,3287.0,2799.0,0.92,9.84,2.34,-0.03,0.01,-0.02,1.0,m
2979.0,880.0,3027.0,2946.0,3934.0,3198.0,3278.0,2794.0,1.13,9.81,2.43,-0.03,0.02,-0.02,1.0,m
2995.0,889.0,3030.0,2953.0,3949.0,3198.0,3281.0,2801.0,1.01,9.83,2.28,-0.01,0.0,-0.03,1.0,m
2973.0,886.0,3019.0,2949.0,3930.0,3193.0,3281.0,2800.0,1.06,9.84,2.26,-0.04,-0.01,-0.02,1.0,m
2985.0,880.0,3024.0,2945.0,3941.0,3198.0,3275.0,2811.0,1.07,9.83,2.29,-0.04,0.01,-0.03,1.0,m
2987.0,883.0,3024.0,2945.0,3931.0,3201.0,3295.0,2822.0,1.0,9.8,2.31,-0.06,-0.02,-0.04,1.0,m
2970.0,891.0,3019.0,2945.0,3935.0,3206.0,3283.0,2815.0,1.09,9.86,2.25,-0.02,0.0,-0.04,1.0,m
2980.0,882.0,3025.0,2956.0,3952.0,3198.0,3294.0,2816.0,0.98,9.86,2.24,-0.03,-0.02,-0.02,1.0,m
2983.0,884.0,3009.0,2947.0,3927.0,3196.0,3292.0,2810.0,1.03,9.82,2.29,-0.03,0.0,-0.01,1.0,m
2981.0,894.0,3031.0,2966.0,3962.0,3207.0,3290.0,2811.0,1.07,9.86,2.1,-0.01,0.0,-0.0,1.0,m
2978.0,883.0,3019.0,2946.0,3946.0,3204.0,3294.0,2811.0,1.18,9.88,2.03,-0.02,0.0,-0.04,1.0,m
2983.0,890.0,3025.0,2962.0,3968.0,3215.0,3290.0,2814.0,1.04,9.9,2.04,-0.03,-0.01,-0.03,1.0,m
2979.0,892.0,3019.0,2949.0,3923.0,3195.0,3278.0,2801.0,1.12,9.89,2.05,-0.03,-0.01,-0.03,1.0,m
2992.0,882.0,3014.0,2945.0,3946.0,3203.0,3297.0,2812.0,1.05,9.88,1.96,-0.03,-0.01,-0.03,1.0,m
2981.0,882.0,3015.0,2945.0,3940.0,3199.0,3294.0,2810.0,1.13,9.9,1.92,-0.03,-0.01,-0.04,1.0,m
2983.0,880.0,3025.0,2959.0,3959.0,3207.0,3307.0,2816.0,0.96,9.93,1.68,-0.02,-0.04,-0.07,1.0,m
2974.0,882.0,3014.0,2954.0,3953.0,3201.0,3295.0,2805.0,0.91,9.97,1.56,-0.01,-0.04,-0.09,1.0,m
2984.0,890.0,3024.0,2961.0,3955.0,3206.0,3301.0,2803.0,0.91,9.98,1.51,-0.01,-0.06,-0.11,1.0,m
2987.0,880.0,3015.0,2959.0,3951.0,3199.0,3291.0,2805.0,0.65,9.96,1.46,-0.02,-0.03,-0.08,1.0,m
2990.0,880.0,3013.0,2960.0,3952.0,3202.0,3303.0,2807.0,0.71,10.0,1.42,-0.04,0.0,-0.04,1.0,m
2978.0,886.0,3035.0,2965.0,3952.0,3205.0,3297.0,2797.0,0.75,10.01,1.37,-0.06,-0.0,-0.05,1.0,m
2976.0,883.0,3023.0,2963.0,3958.0,3198.0,3286.0,2803.0,0.79,9.98,1.47,-0.04,-0.01,-0.06,1.0,m
2987.0,891.0,3024.0,2960.0,3952.0,3203.0,3296.0,2800.0,0.73,9.99,1.47,-0.04,-0.03,-0.07,1.0,m
2977.0,884.0,3009.0,2957.0,3955.0,3206.0,3299.0,2806.0,0.65,9.99,1.38,-0.03,-0.02,-0.06,1.0,m
2988.0,880.0,3024.0,2966.0,3970.0,3202.0,3297.0,2801.0,0.68,10.01,1.29,-0.04,-0.01,-0.08,1.0,m
2978.0,893.0,3018.0,2961.0,3958.0,3215.0,3287.0,2799.0,0.79,10.04,1.36,-0.01,-0.09,-0.11,1.0,m
2976.0,889.0,3025.0,2969.0,3980.0,3200.0,3296.0,2803.0,0.52,10.02,1.35,-0.02,-0.05,-0.11,1.0,m
2970.0,880.0,3021.0,2959.0,3969.0,3203.0,3295.0,2806.0,0.37,10.01,1.19,-0.04,0.04,-0.06,1.0,m
2984.0,881.0,3017.0,2972.0,3983.0,3216.0,3301.0,2806.0,0.51,10.02,1.22,-0.05,-0.02,-0.05,1.0,m
2977.0,879.0,3025.0,2960.0,3969.0,3201.0,3296.0,2801.0,0.5,10.02,1.28,-0.05,-0.03,-0.08,1.0,m
2981.0,880.0,3024.0,2960.0,3974.0,3207.0,3312.0,2805.0,0.48,10.03,1.27,-0.04,-0.06,-0.09,1.0,m
2983.0,880.0,3019.0,2963.0,3974.0,3205.0,3291.0,2811.0,0.45,10.04,1.17,-0.04,-0.01,-0.08,1.0,m
2985.0,881.0,3011.0,2956.0,3952.0,3199.0,3295.0,2807.0,0.39,10.0,1.19,-0.03,-0.03,-0.07,1.0,m
2979.0,880.0,3022.0,2970.0,3994.0,3216.0,3295.0,2799.0,0.41,10.02,1.25,-0.03,-0.04,-0.08,1.0,m
2982.0,880.0,3022.0,2961.0,3962.0,3198.0,3293.0,2805.0,0.27,10.04,1.1,-0.06,0.01,-0.08,1.0,m
2974.0,885.0,3024.0,2960.0,3971.0,3204.0,3303.0,2797.0,-0.01,10.02,1.26,-0.06,-0.02,-0.07,1.0,m
2981.0,880.0,3024.0,2960.0,3979.0,3213.0,3300.0,2800.0,-0.0,10.0,1.28,-0.06,-0.05,-0.08,1.0,m
2993.0,887.0,3024.0,2979.0,3989.0,3210.0,3303.0,2803.0,-0.09,10.0,1.26,-0.07,-0.03,-0.08,1.0,m
2974.0,885.0,3023.0,2974.0,3971.0,3202.0,3299.0,2800.0,-0.2,10.01,1.23,-0.08,-0.01,-0.06,1.0,m
2992.0,880.0,3029.0,2981.0,3982.0,3206.0,3307.0,2800.0,-0.4,9.97,1.24,-0.09,0.02,-0.05,1.0,m
2980.0,886.0,3020.0,2960.0,3975.0,3209.0,3311.0,2803.0,-0.15,9.99,1.3,-0.04,-0.02,-0.06,1.0,m
2992.0,880.0,3023.0,2993.0,3985.0,3216.0,3312.0,2810.0,-0.25,10.0,1.23,-0.07,-0.0,-0.08,1.0,m
2979.0,880.0,3023.0,2973.0,3984.0,3210.0,3297.0,2800.0,-0.28,9.98,1.3,-0.09,-0.03,-0.08,1.0,m
2990.0,880.0,3027.0,2970.0,3989.0,3216.0,3308.0,2810.0,-0.34,9.98,1.44,-0.09,-0.03,-0.07,1.0,m
2971.0,889.0,3007.0,2972.0,3980.0,3210.0,3302.0,2800.0,-0.35,9.98,1.4,-0.09,-0.01,-0.07,1.0,m
2977.0,885.0,3023.0,2965.0,3984.0,3210.0,3308.0,2803.0,-0.42,9.97,1.37,-0.1,-0.01,-0.07,1.0,m
2983.0,886.0,3027.0,2975.0,3984.0,3207.0,3301.0,2800.0,-0.37,9.96,1.52,-0.1,-0.02,-0.07,1.0,m
2985.0,883.0,3024.0,2976.0,3967.0,3208.0,3303.0,2807.0,-0.5,9.95,1.52,-0.11,-0.0,-0.06,1.0,m
2986.0,886.0,3030.0,2974.0,3970.0,3210.0,3302.0,2803.0,-0.48,9.96,1.61,-0.1,0.01,-0.05,1.0,m
2978.0,888.0,3019.0,2965.0,4000.0,3206.0,3298.0,2803.0,-0.49,9.95,1.55,-0.1,-0.0,-0.05,1.0,m
2983.0,883.0,3024.0,2975.0,3984.0,3214.0,3309.0,2811.0,-0.48,9.94,1.61,-0.11,0.01,-0.06,1.0,m
2977.0,887.0,3014.0,2962.0,3952.0,3205.0,3303.0,2814.0,-0.59,9.9,1.71,-0.11,0.0,-0.06,1.0,m
2985.0,882.0,3019.0,2974.0,3962.0,3206.0,3312.0,2812.0,-0.69,9.87,1.82,-0.08,-0.01,-0.06,1.0,m
2975.0,887.0,3015.0,2963.0,3959.0,3199.0,3295.0,2799.0,-0.6,9.9,1.78,-0.07,-0.02,-0.05,1.0,m
2986.0,879.0,3020.0,2976.0,3996.0,3223.0,3311.0,2810.0,-0.58,9.94,1.75,-0.1,-0.01,-0.06,1.0,m
2980.0,889.0,3014.0,2969.0,3975.0,3201.0,3301.0,2805.0,-0.61,9.84,2.05,-0.09,-0.03,-0.05,1.0,m
2985.0,895.0,3027.0,2977.0,3983.0,3212.0,3308.0,2816.0,-0.76,9.8,2.27,-0.09,-0.02,-0.04,1.0,m
2975.0,885.0,3021.0,2976.0,3974.0,3210.0,3296.0,2798.0,-0.64,9.84,2.13,-0.06,-0.01,-0.03,1.0,m
2983.0,878.0,3023.0,2974.0,3983.0,3216.0,3312.0,2817.0,-0.66,9.84,2.12,-0.08,-0.01,-0.04,1.0,m
2974.0,880.0,3024.0,2976.0,3975.0,3213.0,3306.0,2803.0,-0.71,9.83,2.12,-0.1,-0.02,-0.05,1.0,m
2993.0,889.0,3024.0,2983.0,3980.0,3226.0,3312.0,2805.0,-0.69,9.81,2.27,-0.1,-0.01,-0.05,1.0,m
2979.0,887.0,3022.0,2971.0,3993.0,3206.0,3294.0,2800.0,-0.73,9.81,2.21,-0.09,-0.02,-0.05,1.0,m
2977.0,887.0,3023.0,2973.0,4008.0,3213.0,3313.0,2806.0,-0.64,9.86,2.09,-0.11,-0.03,-0.09,1.0,m
2980.0,878.0,3014.0,2973.0,3984.0,3205.0,3298.0,2779.0,-0.88,9.75,2.36,-0.19,-0.04,-0.1,1.0,m
2999.0,892.0,3031.0,2979.0,4000.0,3214.0,3308.0,2799.0,-0.81,9.68,2.66,-0.16,-0.05,-0.1,1.0,m
2983.0,881.0,3024.0,2973.0,4001.0,3221.0,3310.0,2806.0,-1.12,9.64,2.78,-0.11,-0.0,-0.05,1.0,m
2973.0,880.0,3017.0,2969.0,3983.0,3213.0,3305.0,2799.0,-0.97,9.68,2.67,-0.06,-0.01,0.0,1.0,m
2983.0,885.0,3026.0,2976.0,3984.0,3216.0,3296.0,2794.0,-0.77,9.74,2.55,-0.07,-0.01,-0.01,1.0,m
2979.0,885.0,3014.0,2977.0,3980.0,3200.0,3305.0,2805.0,-0.79,9.71,2.71,-0.08,-0.01,-0.03,1.0,m
2977.0,885.0,3024.0,2977.0,3993.0,3216.0,3310.0,2807.0,-0.87,9.73,2.48,-0.07,-0.01,-0.04,1.0,m
2981.0,880.0,3022.0,2974.0,3991.0,3210.0,3309.0,2794.0,-0.88,9.71,2.74,-0.11,0.01,-0.06,1.0,m
2992.0,879.0,3024.0,2982.0,3989.0,3211.0,3299.0,2799.0,-0.91,9.66,2.79,-0.07,-0.03,-0.07,1.0,m
2975.0,883.0,3018.0,2967.0,3971.0,3207.0,3301.0,2799.0,-1.03,9.67,2.7,-0.07,0.01,-0.05,1.0,m
2987.0,885.0,3018.0,2981.0,3981.0,3216.0,3312.0,2805.0,-0.99,9.69,2.71,-0.06,0.0,-0.0,1.0,m
2977.0,879.0,3019.0,2963.0,3986.0,3210.0,3302.0,2797.0,-0.75,9.71,2.71,-0.09,0.01,-0.0,1.0,m
2972.0,885.0,3021.0,2973.0,3989.0,3216.0,3298.0,2793.0,-0.66,9.68,2.89,-0.06,0.02,-0.03,1.0,m
2992.0,882.0,3027.0,2989.0,3984.0,3216.0,3309.0,2793.0,-0.93,9.65,2.76,-0.06,0.02,-0.02,1.0,m
2975.0,891.0,3026.0,2983.0,3991.0,3216.0,3307.0,2783.0,-0.89,9.67,2.74,-0.07,-0.17,-0.01,1.0,m
2981.0,890.0,3015.0,2981.0,4006.0,3211.0,3311.0,2796.0,-0.68,9.67,2.84,-0.11,-0.08,0.03,1.0,m
2979.0,880.0,3022.0,2977.0,4007.0,3217.0,3301.0,2788.0,-0.38,9.7,3.02,-0.08,-0.04,0.02,1.0,m
2992.0,888.0,3024.0,2979.0,4007.0,3215.0,3307.0,2782.0,-0.56,9.63,3.03,-0.09,0.04,0.01,1.0,m
2993.0,880.0,3021.0,2983.0,4010.0,3217.0,3317.0,2788.0,-0.54,9.63,2.97,-0.09,0.12,0.02,1.0,m
2977.0,887.0,3011.0,2972.0,4002.0,3220.0,3306.0,2800.0,-0.56,9.63,2.99,-0.1,0.04,0.03,1.0,m
2983.0,885.0,3024.0,2982.0,4032.0,3218.0,3315.0,2820.0,-0.54,9.61,3.06,-0.15,0.09,0.02,1.0,m
2976.0,880.0,3021.0,2975.0,4016.0,3206.0,3301.0,2805.0,-0.34,9.63,3.1,-0.13,0.04,0.09,1.0,m
2985.0,880.0,3027.0,2980.0,4043.0,3227.0,3313.0,2802.0,-0.11,9.61,3.23,-0.11,0.04,0.07,1.0,m
2975.0,880.0,3029.0,2978.0,4015.0,3216.0,3302.0,2804.0,-0.09,9.56,3.41,-0.09,0.0,0.0,1.0,m
2981.0,880.0,3026.0,2981.0,4033.0,3218.0,3314.0,2814.0,-0.34,9.6,3.23,-0.07,0.05,0.03,1.0,m
2987.0,889.0,3019.0,2978.0,4028.0,3208.0,3301.0,2817.0,-0.13,9.58,3.3,-0.09,0.01,0.04,1.0,m
2989.0,882.0,3020.0,2986.0,4045.0,3226.0,3318.0,2832.0,0.15,9.59,3.41,-0.06,0.02,0.01,1.0,m
2983.0,879.0,3024.0,2974.0,4018.0,3212.0,3300.0,2800.0,-0.07,9.62,3.31,-0.06,0.01,0.01,1.0,m
2986.0,883.0,3023.0,2986.0,4037.0,3221.0,3312.0,2800.0,0.1,9.61,3.26,-0.03,0.02,-0.03,1.0,m
2987.0,880.0,3025.0,2988.0,4034.0,3216.0,3313.0,2811.0,0.1,9.61,3.25,-0.05,0.01,-0.03,1.0,m
2981.0,880.0,3028.0,2983.0,4030.0,3204.0,3309.0,2831.0,-0.05,9.62,3.27,-0.01,-0.0,-0.05,1.0,m
2985.0,882.0,3024.0,2986.0,4027.0,3221.0,3313.0,2823.0,-0.09,9.73,2.75,-0.04,0.04,-0.0,1.0,m
2981.0,876.0,3023.0,2981.0,4030.0,3216.0,3313.0,2826.0,0.56,9.76,2.66,-0.1,0.06,0.0,1.0,m
2991.0,885.0,3022.0,2992.0,4048.0,3223.0,3314.0,2827.0,0.62,9.72,3.02,-0.09,-0.01,-0.0,1.0,m
2981.0,886.0,3011.0,2981.0,4018.0,3218.0,3313.0,2827.0,0.52,9.66,3.04,-0.06,0.02,-0.02,1.0,m
3001.0,887.0,3024.0,2991.0,4048.0,3232.0,3331.0,2841.0,0.67,9.7,2.99,-0.07,0.02,-0.04,1.0,m
2976.0,881.0,3023.0,2978.0,4035.0,3228.0,3314.0,2829.0,0.4,9.64,3.21,-0.03,0.01,-0.07,1.0,m
2983.0,880.0,3023.0,2986.0,4059.0,3230.0,3325.0,2831.0,0.36,9.75,2.73,0.03,-0.02,-0.03,1.0,m
2982.0,891.0,3015.0,2982.0,4043.0,3223.0,3311.0,2826.0,0.86,9.68,3.2,-0.02,-0.05,-0.06,1.0,m
2981.0,880.0,3026.0,2990.0,4048.0,3237.0,3329.0,2832.0,0.17,9.61,2.92,0.08,0.02,-0.09,1.0,m
2973.0,882.0,3021.0,2989.0,4047.0,3232.0,3312.0,2812.0,0.28,9.83,2.36,0.06,0.08,-0.01,1.0,m
2987.0,891.0,3019.0,2982.0,4031.0,3221.0,3310.0,2820.0,0.57,9.82,2.55,-0.05,0.06,-0.0,1.0,m
2992.0,881.0,3017.0,2983.0,4053.0,3233.0,3329.0,2823.0,0.65,9.83,2.59,-0.02,0.02,-0.06,1.0,m
2989.0,880.0,3023.0,2992.0,4039.0,3229.0,3314.0,2821.0,0.08,9.8,2.31,-0.07,0.07,0.0,1.0,m
2981.0,880.0,3029.0,2989.0,4047.0,3234.0,3313.0,2830.0,0.38,9.83,2.45,-0.13,0.02,0.07,1.0,m
2985.0,885.0,3015.0,2975.0,4044.0,3229.0,3312.0,2818.0,0.8,9.73,2.87,-0.13,0.03,0.04,1.0,m
2978.0,890.0,3031.0,2994.0,4064.0,3231.0,3325.0,2823.0,0.97,9.82,2.73,-0.09,0.0,0.01,1.0,m
2977.0,881.0,3021.0,2988.0,4048.0,3230.0,3315.0,2817.0,0.76,9.76,2.77,-0.06,0.01,-0.03,1.0,m
2991.0,890.0,3027.0,2989.0,4071.0,3246.0,3331.0,2825.0,0.47,9.72,2.74,-0.1,0.08,0.0,1.0,m
2992.0,883.0,3024.0,2985.0,4048.0,3223.0,3311.0,2805.0,0.89,9.73,3.0,-0.07,0.07,-0.02,1.0,m
2982.0,883.0,3024.0,2996.0,4068.0,3241.0,3326.0,2821.0,0.59,9.74,2.74,-0.0,0.1,-0.03,1.0,m
2977.0,886.0,3024.0,2983.0,4057.0,3226.0,3318.0,2813.0,0.37,9.86,2.07,-0.11,0.05,0.01,1.0,m
3635.0,880.0,3031.0,2887.0,3911.0,3136.0,3219.0,3313.0,-2.0,10.13,0.45,-0.34,0.99,0.16,1.0,m
3621.0,880.0,3014.0,2874.0,3906.0,3127.0,3216.0,3355.0,-0.78,10.04,0.58,0.02,0.13,0.04,1.0,m
3632.0,879.0,3025.0,2890.0,3931.0,3138.0,3212.0,3342.0,0.22,9.88,2.18,-0.46,-0.44,-0.07,1.0,m
3618.0,882.0,3018.0,2876.0,3904.0,3119.0,3212.0,3296.0,-0.88,9.74,2.34,-0.22,0.18,-0.1,1.0,m
3616.0,878.0,3027.0,2874.0,3903.0,3126.0,3219.0,3303.0,-0.61,9.76,2.61,-0.12,-0.14,-0.02,1.0,m
3603.0,883.0,3030.0,2866.0,3888.0,3121.0,3214.0,3301.0,-0.17,9.85,2.18,-0.16,0.28,0.05,1.0,m
3603.0,880.0,3029.0,2867.0,3920.0,3127.0,3235.0,3309.0,-0.21,9.77,2.7,-0.15,0.03,-0.03,1.0,m
3597.0,878.0,3015.0,2864.0,3899.0,3123.0,3221.0,3301.0,-0.56,9.83,2.57,-0.09,0.07,-0.04,1.0,m
3614.0,880.0,3024.0,2865.0,3920.0,3136.0,3228.0,3318.0,-0.21,9.91,2.2,-0.01,0.14,0.01,1.0,m
3614.0,884.0,3024.0,2864.0,3907.0,3125.0,3222.0,3302.0,-0.15,9.84,2.08,-0.08,0.09,0.03,1.0,m
3621.0,884.0,3027.0,2867.0,3905.0,3127.0,3226.0,3315.0,0.0,9.84,2.49,-0.15,0.05,0.01,1.0,m
3613.0,880.0,3024.0,2864.0,3914.0,3131.0,3231.0,3311.0,-0.14,9.83,2.41,-0.09,0.06,-0.01,1.0,m
3614.0,884.0,3023.0,2864.0,3905.0,3123.0,3219.0,3306.0,0.0,9.8,2.42,-0.04,-0.02,0.01,1.0,m
3604.0,875.0,3024.0,2873.0,3946.0,3140.0,3225.0,3311.0,-0.17,9.83,2.43,-0.09,-0.0,-0.01,1.0,m
3602.0,879.0,3024.0,2865.0,3925.0,3136.0,3229.0,3309.0,-0.43,9.8,2.31,-0.21,-0.01,0.09,1.0,m
3611.0,880.0,3025.0,2875.0,3946.0,3149.0,3238.0,3329.0,0.03,9.68,3.0,-0.19,-0.06,0.09,1.0,m
3601.0,883.0,3024.0,2861.0,3921.0,3136.0,3232.0,3329.0,0.01,9.73,2.75,-0.06,0.02,0.08,1.0,m
3612.0,881.0,3021.0,2864.0,3921.0,3141.0,3242.0,3361.0,0.33,9.71,2.86,-0.01,-0.03,0.08,1.0,m
3627.0,878.0,3019.0,2864.0,3926.0,3136.0,3237.0,3354.0,0.44,9.84,2.39,-0.03,-0.05,0.08,1.0,m
3627.0,881.0,3031.0,2875.0,3920.0,3145.0,3243.0,3363.0,0.69,9.78,2.79,-0.05,-0.19,-0.05,1.0,m
3617.0,889.0,3024.0,2871.0,3945.0,3150.0,3236.0,3376.0,1.16,9.76,2.52,-0.02,-0.11,-0.13,1.0,m
3603.0,885.0,3023.0,2866.0,3945.0,3149.0,3234.0,3375.0,0.98,9.87,2.3,-0.0,-0.07,-0.07,1.0,m
3607.0,874.0,3024.0,2871.0,3952.0,3153.0,3247.0,3378.0,1.1,9.85,2.21,-0.05,0.01,0.02,1.0,m
3605.0,880.0,3018.0,2867.0,3923.0,3151.0,3243.0,3375.0,1.33,9.89,2.21,-0.06,-0.04,-0.14,1.0,m
3611.0,880.0,3023.0,2880.0,3965.0,3152.0,3243.0,3373.0,0.91,9.87,2.21,-0.06,-0.13,-0.19,1.0,m
3617.0,877.0,3029.0,2877.0,3952.0,3153.0,3236.0,3376.0,0.73,9.77,2.64,-0.02,-0.1,-0.27,1.0,m
3600.0,878.0,3024.0,2874.0,3923.0,3154.0,3232.0,3376.0,0.55,9.97,1.92,-0.02,-0.01,-0.14,1.0,m
3619.0,881.0,3023.0,2881.0,3951.0,3153.0,3248.0,3382.0,0.75,9.93,2.13,-0.03,-0.16,-0.17,1.0,m
3610.0,882.0,3022.0,2868.0,3939.0,3151.0,3231.0,3376.0,0.28,9.9,2.04,-0.07,-0.06,-0.17,1.0,m
3618.0,884.0,3027.0,2879.0,3959.0,3167.0,3245.0,3377.0,0.24,9.94,1.87,-0.1,-0.03,-0.16,1.0,m
3606.0,880.0,3015.0,2855.0,3948.0,3152.0,3231.0,3373.0,0.23,9.92,2.03,-0.15,-0.1,-0.21,1.0,m
3618.0,877.0,3031.0,2869.0,3957.0,3155.0,3242.0,3376.0,-0.83,9.79,2.45,-0.3,-0.06,-0.11,1.0,m
3583.0,881.0,3021.0,2863.0,3954.0,3155.0,3238.0,3374.0,0.07,9.8,2.69,-0.01,-0.17,0.02,1.0,m
3619.0,877.0,3024.0,2857.0,3955.0,3163.0,3249.0,3391.0,0.54,9.89,2.31,-0.09,0.05,0.1,1.0,m
3603.0,883.0,3024.0,2866.0,3955.0,3153.0,3234.0,3379.0,0.66,9.94,2.11,-0.06,0.08,-0.07,1.0,m
3623.0,880.0,3025.0,2864.0,3958.0,3159.0,3246.0,3387.0,0.0,9.88,2.25,-0.13,-0.05,-0.16,1.0,m
3610.0,880.0,3027.0,2858.0,3952.0,3152.0,3244.0,3371.0,-0.11,9.72,2.67,-0.11,-0.07,-0.13,1.0,m
3583.0,880.0,3028.0,2862.0,3951.0,3155.0,3227.0,3363.0,-0.02,9.8,2.68,-0.09,-0.04,-0.12,1.0,m
3622.0,881.0,3031.0,2864.0,3967.0,3166.0,3249.0,3376.0,-0.21,9.75,2.57,-0.07,-0.02,-0.1,1.0,m
3603.0,879.0,3021.0,2862.0,3942.0,3154.0,3241.0,3373.0,-0.18,9.75,2.65,-0.09,-0.01,-0.05,1.0,m
3615.0,889.0,3024.0,2866.0,3959.0,3168.0,3250.0,3383.0,-0.58,9.64,3.04,-0.13,-0.08,-0.14,1.0,m
3616.0,881.0,3024.0,2861.0,3947.0,3159.0,3246.0,3377.0,-0.75,9.59,3.13,-0.07,0.05,-0.08,1.0,m
3632.0,880.0,3024.0,2871.0,3955.0,3159.0,3247.0,3380.0,-0.77,9.67,2.86,-0.02,-0.03,-0.06,1.0,m
3600.0,882.0,3022.0,2864.0,3962.0,3161.0,3248.0,3373.0,-0.45,9.65,2.97,-0.06,-0.04,-0.08,1.0,m
3609.0,886.0,3024.0,2865.0,3945.0,3167.0,3239.0,3376.0,-0.58,9.64,3.1,0.0,-0.03,-0.09,1.0,m
3611.0,880.0,3026.0,2866.0,3984.0,3166.0,3258.0,3391.0,-0.84,9.7,2.68,-0.02,-0.01,-0.1,1.0,m
3611.0,880.0,3024.0,2864.0,3943.0,3158.0,3241.0,3391.0,-0.98,9.65,2.86,-0.02,-0.0,-0.09,1.0,m
3616.0,885.0,3031.0,2874.0,3966.0,3169.0,3251.0,3390.0,-0.77,9.7,2.72,0.01,0.0,-0.04,1.0,m
3614.0,881.0,3018.0,2873.0,3963.0,3161.0,3248.0,3376.0,-0.72,9.75,2.57,-0.09,0.02,-0.04,1.0,m
3622.0,880.0,3026.0,2869.0,3969.0,3167.0,3253.0,3394.0,-0.87,9.68,2.73,-0.04,-0.02,-0.06,1.0,m
3616.0,883.0,3023.0,2865.0,3953.0,3155.0,3247.0,3379.0,-1.05,9.71,2.67,-0.02,0.02,-0.02,1.0,m
3614.0,882.0,3029.0,2880.0,3985.0,3171.0,3267.0,3392.0,-0.75,9.71,2.65,-0.03,0.0,-0.02,1.0,m
3600.0,886.0,3023.0,2871.0,3946.0,3157.0,3248.0,3375.0,-0.74,9.7,2.68,0.02,-0.01,-0.03,1.0,m
3623.0,890.0,3038.0,2887.0,3969.0,3174.0,3264.0,3389.0,-0.78,9.73,2.51,0.02,-0.01,-0.01,1.0,m
3614.0,873.0,3023.0,2874.0,3952.0,3172.0,3248.0,3376.0,-0.64,9.78,2.43,0.01,-0.01,-0.02,1.0,m
3626.0,880.0,3026.0,2879.0,3974.0,3169.0,3252.0,3380.0,-0.7,9.76,2.34,0.02,-0.02,-0.08,1.0,m
3618.0,875.0,3028.0,2878.0,3963.0,3165.0,3259.0,3392.0,-0.79,9.83,2.2,0.07,-0.01,-0.13,1.0,m
3598.0,873.0,3034.0,2877.0,3967.0,3163.0,3250.0,3376.0,-1.32,9.81,1.97,-0.01,0.06,-0.06,1.0,m
3602.0,883.0,3025.0,2879.0,3968.0,3167.0,3251.0,3388.0,-1.22,9.83,1.89,-0.0,-0.01,-0.01,1.0,m
3607.0,890.0,3024.0,2877.0,3958.0,3163.0,3248.0,3377.0,-0.86,9.81,2.18,-0.04,0.0,0.03,1.0,m
3625.0,879.0,3025.0,2891.0,3984.0,3183.0,3264.0,3392.0,-0.61,9.92,1.54,-0.02,0.04,0.03,1.0,m
3583.0,880.0,3029.0,2874.0,3954.0,3174.0,3269.0,3391.0,-0.2,10.08,1.16,-0.04,-0.03,0.02,1.0,m
3615.0,890.0,3027.0,2901.0,3952.0,3164.0,3250.0,3365.0,-0.14,9.56,1.19,-0.08,-0.01,-0.01,1.0,m
3609.0,893.0,3024.0,2890.0,3971.0,3169.0,3269.0,3377.0,-0.56,9.96,1.43,-0.09,0.02,0.0,1.0,m
3602.0,874.0,3028.0,2883.0,3953.0,3167.0,3249.0,3363.0,-0.33,9.94,1.5,-0.03,0.05,0.01,1.0,m
3603.0,882.0,3024.0,2887.0,3971.0,3170.0,3255.0,3371.0,-0.29,9.98,1.45,-0.04,0.02,0.01,1.0,m
3603.0,880.0,3031.0,2892.0,3955.0,3169.0,3248.0,3366.0,-0.3,9.98,1.39,-0.04,0.07,0.02,1.0,m
3617.0,892.0,3033.0,2895.0,3974.0,3170.0,3262.0,3375.0,-0.25,9.99,1.32,-0.05,0.04,0.1,1.0,m
3607.0,885.0,3015.0,2898.0,3955.0,3165.0,3259.0,3383.0,-0.02,10.03,1.26,-0.07,0.09,0.11,1.0,m
3623.0,880.0,3024.0,2894.0,3978.0,3172.0,3255.0,3385.0,0.31,10.05,1.41,-0.07,-0.01,0.02,1.0,m
3583.0,879.0,3026.0,2886.0,3965.0,3168.0,3256.0,3375.0,0.15,10.02,1.36,-0.07,0.01,-0.02,1.0,m
3621.0,879.0,3030.0,2887.0,3979.0,3174.0,3267.0,3382.0,0.26,9.98,1.44,-0.06,0.01,-0.01,1.0,m
3610.0,886.0,3022.0,2886.0,3970.0,3167.0,3254.0,3367.0,0.11,9.97,1.42,-0.06,0.07,-0.0,1.0,m
3612.0,885.0,3026.0,2891.0,3950.0,3161.0,3251.0,3373.0,0.19,9.99,1.42,-0.04,0.07,0.02,1.0,m
3603.0,883.0,3025.0,2893.0,3984.0,3174.0,3264.0,3376.0,0.43,10.01,1.39,-0.03,0.02,-0.03,1.0,m
3602.0,887.0,3018.0,2880.0,3955.0,3161.0,3250.0,3377.0,0.15,9.99,1.41,-0.07,0.01,-0.02,1.0,m
3611.0,880.0,3025.0,2893.0,3980.0,3170.0,3264.0,3380.0,0.5,9.97,1.55,-0.04,-0.02,-0.01,1.0,m
3613.0,879.0,3027.0,2887.0,3952.0,3163.0,3255.0,3378.0,0.18,10.0,1.3,-0.06,0.05,-0.01,1.0,m
3611.0,880.0,3030.0,2895.0,3974.0,3173.0,3259.0,3382.0,0.11,9.99,1.33,-0.05,0.06,0.02,1.0,m
3607.0,876.0,3021.0,2885.0,3968.0,3165.0,3267.0,3382.0,0.52,9.99,1.51,-0.01,-0.01,0.02,1.0,m
3605.0,883.0,3035.0,2892.0,3974.0,3174.0,3261.0,3392.0,0.52,10.0,1.41,-0.08,0.0,0.03,1.0,m
3630.0,881.0,3024.0,2896.0,3957.0,3171.0,3270.0,3388.0,0.72,10.0,1.29,-0.04,-0.18,0.01,1.0,m
3598.0,880.0,3023.0,2883.0,3952.0,3170.0,3263.0,3379.0,0.7,10.01,1.15,-0.11,0.04,0.11,1.0,m
3614.0,889.0,3027.0,2896.0,3969.0,3179.0,3266.0,3396.0,0.95,9.99,1.35,-0.14,0.03,0.06,1.0,m
3616.0,878.0,3024.0,2889.0,3950.0,3167.0,3254.0,3377.0,1.13,9.92,1.61,-0.09,-0.29,-0.01,1.0,m
3623.0,883.0,3027.0,2900.0,3983.0,3177.0,3277.0,3386.0,1.07,9.94,1.49,-0.1,-0.04,0.05,1.0,m
3604.0,885.0,3014.0,2887.0,3968.0,3166.0,3268.0,3374.0,1.19,9.97,1.37,-0.08,-0.13,0.02,1.0,m
3611.0,875.0,3024.0,2896.0,3985.0,3182.0,3287.0,3369.0,1.2,9.95,1.56,-0.1,-0.23,0.04,1.0,m
3597.0,879.0,3017.0,2895.0,3964.0,3170.0,3262.0,3363.0,1.41,9.93,1.59,-0.07,-0.18,0.02,1.0,m
3604.0,877.0,3025.0,2882.0,3970.0,3170.0,3267.0,3376.0,1.24,9.89,1.59,-0.1,-0.02,0.04,1.0,m
3609.0,878.0,3022.0,2893.0,3968.0,3174.0,3264.0,3374.0,1.4,9.87,1.56,-0.09,0.02,0.02,1.0,m
3611.0,876.0,3024.0,2894.0,3983.0,3179.0,3274.0,3389.0,1.62,9.92,1.54,-0.08,0.06,-0.01,1.0,m
3605.0,877.0,3024.0,2895.0,3963.0,3179.0,3269.0,3381.0,1.45,9.92,1.51,-0.11,0.08,-0.01,1.0,m
3583.0,880.0,3021.0,2896.0,3973.0,3175.0,3261.0,3371.0,1.51,9.83,1.86,-0.12,-0.01,-0.03,1.0,m
3612.0,882.0,3024.0,2895.0,3983.0,3178.0,3264.0,3386.0,1.6,9.86,1.89,-0.08,0.02,-0.05,1.0,m
3620.0,880.0,3014.0,2891.0,3968.0,3170.0,3263.0,3379.0,1.41,9.88,1.7,-0.05,0.02,-0.05,1.0,m
3618.0,879.0,3026.0,2895.0,3971.0,3179.0,3274.0,3391.0,1.56,9.93,1.58,-0.1,-0.02,-0.05,1.0,m
3607.0,885.0,3020.0,2895.0,3975.0,3173.0,3266.0,3381.0,1.43,9.85,1.86,-0.13,0.02,-0.07,1.0,m
3627.0,882.0,3030.0,2896.0,3983.0,3170.0,3270.0,3395.0,1.21,9.8,2.05,-0.09,0.02,-0.05,1.0,m
3607.0,885.0,3025.0,2895.0,3969.0,3171.0,3262.0,3384.0,1.43,9.91,1.88,-0.06,-0.0,-0.03,1.0,m
3625.0,885.0,3024.0,2899.0,3987.0,3183.0,3270.0,3395.0,0.06,9.9,2.12,-0.03,-0.08,-0.02,1.0,m
3607.0,878.0,3024.0,2903.0,3984.0,3197.0,3273.0,3399.0,0.23,9.92,2.05,-0.06,-0.01,-0.04,1.0,m
3601.0,880.0,3018.0,2894.0,3981.0,3182.0,3266.0,3388.0,-0.05,9.88,2.04,-0.07,-0.01,-0.04,1.0,m
3617.0,886.0,3027.0,2891.0,3999.0,3183.0,3279.0,3397.0,-0.01,9.87,2.1,-0.07,0.02,-0.01,1.0,m
3601.0,880.0,3022.0,2895.0,3991.0,3184.0,3263.0,3387.0,0.14,9.9,2.18,-0.08,0.04,-0.0,1.0,m
3612.0,883.0,3034.0,2900.0,4010.0,3190.0,3265.0,3387.0,0.17,9.86,2.16,-0.06,0.06,-0.02,1.0,m
3583.0,879.0,3023.0,2881.0,3993.0,3179.0,3274.0,3386.0,0.03,9.9,2.01,-0.01,-0.03,-0.12,1.0,m
3630.0,877.0,3029.0,2906.0,3989.0,3182.0,3263.0,3392.0,-0.08,9.86,2.1,-0.06,-0.03,-0.06,1.0,m
3607.0,883.0,3014.0,2896.0,3986.0,3183.0,3270.0,3388.0,0.03,9.9,2.05,-0.05,0.03,-0.02,1.0,m
3611.0,880.0,3026.0,2910.0,4002.0,3189.0,3275.0,3392.0,0.09,9.89,2.05,-0.07,-0.01,-0.02,1.0,m
3614.0,880.0,3029.0,2892.0,3978.0,3175.0,3269.0,3388.0,0.04,9.85,2.23,-0.08,0.02,-0.03,1.0,m
3622.0,879.0,3030.0,2902.0,4016.0,3187.0,3282.0,3409.0,0.07,9.88,2.11,-0.04,0.01,-0.04,1.0,m
3598.0,879.0,3024.0,2896.0,3999.0,3186.0,3274.0,3393.0,0.11,9.89,2.11,-0.06,-0.01,-0.06,1.0,m
3615.0,880.0,3024.0,2889.0,4011.0,3178.0,3265.0,3392.0,-0.05,9.85,2.13,-0.05,0.0,-0.05,1.0,m
3630.0,877.0,3037.0,2902.0,3989.0,3182.0,3274.0,3397.0,0.05,9.9,2.02,-0.06,0.02,-0.03,1.0,m
3615.0,880.0,3017.0,2896.0,3984.0,3181.0,3267.0,3385.0,0.04,9.88,2.23,-0.07,-0.01,-0.03,1.0,m
3621.0,883.0,3033.0,2905.0,4000.0,3185.0,3277.0,3395.0,0.03,9.86,2.19,-0.07,0.02,-0.01,1.0,m
3601.0,879.0,3026.0,2921.0,3987.0,3172.0,3264.0,3388.0,0.07,9.89,2.12,-0.07,0.01,-0.02,1.0,m
3623.0,883.0,3033.0,2905.0,4004.0,3184.0,3267.0,3393.0,-0.02,9.86,2.09,-0.06,0.02,-0.04,1.0,m
3605.0,880.0,3019.0,2889.0,3970.0,3181.0,3269.0,3392.0,-0.07,9.89,2.15,-0.05,0.02,-0.02,1.0,m
3615.0,880.0,3030.0,2906.0,4015.0,3193.0,3275.0,3392.0,0.2,9.87,2.18,-0.06,-0.01,-0.03,1.0,m
3600.0,887.0,3024.0,2896.0,4000.0,3181.0,3273.0,3393.0,0.07,9.89,2.16,-0.07,-0.0,-0.04,1.0,m
3614.0,891.0,3024.0,2903.0,3990.0,3184.0,3273.0,3398.0,0.26,9.88,2.27,-0.05,0.02,-0.03,1.0,m
3583.0,883.0,3023.0,2896.0,3986.0,3184.0,3271.0,3393.0,0.13,9.89,2.16,-0.08,-0.0,-0.02,1.0,m
3614.0,877.0,3024.0,2884.0,3998.0,3193.0,3280.0,3401.0,0.07,9.85,2.17,-0.08,0.04,-0.0,1.0,m
3606.0,883.0,3026.0,2901.0,3985.0,3184.0,3269.0,3393.0,0.21,9.88,2.15,-0.06,0.03,-0.01,1.0,m
3618.0,880.0,3024.0,2899.0,3984.0,3184.0,3277.0,3393.0,0.33,9.86,2.33,-0.05,-0.01,-0.04,1.0,m
3600.0,871.0,3014.0,2896.0,3984.0,3181.0,3265.0,3389.0,0.21,9.87,2.24,-0.05,0.0,-0.05,1.0,m
3600.0,881.0,3029.0,2907.0,4005.0,3191.0,3273.0,3392.0,0.18,9.89,2.14,-0.06,0.02,-0.03,1.0,m
3622.0,880.0,3018.0,2895.0,3987.0,3184.0,3282.0,3391.0,0.13,9.85,2.31,-0.1,-0.03,-0.04,1.0,m
3622.0,891.0,3034.0,2901.0,4000.0,3196.0,3282.0,3399.0,0.18,9.85,2.34,-0.05,0.02,-0.01,1.0,m
3610.0,882.0,3024.0,2903.0,4007.0,3198.0,3284.0,3405.0,0.36,9.93,2.08,-0.05,0.0,-0.0,1.0,m
3606.0,887.0,3024.0,2894.0,3984.0,3186.0,3287.0,3403.0,0.11,9.87,2.08,-0.07,0.0,-0.03,1.0,m
3620.0,881.0,3030.0,2907.0,4016.0,3195.0,3273.0,3403.0,0.14,9.85,2.32,-0.05,-0.01,-0.04,1.0,m
3603.0,880.0,3023.0,2901.0,3990.0,3187.0,3274.0,3395.0,0.14,9.83,2.36,-0.04,-0.02,-0.01,1.0,m
3609.0,880.0,3024.0,2901.0,4000.0,3191.0,3280.0,3398.0,0.3,9.89,2.23,-0.01,0.02,0.02,1.0,m
3601.0,876.0,3021.0,2893.0,3987.0,3185.0,3275.0,3399.0,0.38,9.94,1.98,-0.05,0.02,-0.01,1.0,m
3620.0,880.0,3025.0,2903.0,4005.0,3190.0,3280.0,3392.0,0.3,9.88,2.16,-0.07,-0.01,-0.05,1.0,m
3602.0,880.0,3024.0,2907.0,4002.0,3187.0,3277.0,3397.0,0.2,9.86,2.18,-0.07,-0.03,-0.04,1.0,m
3617.0,880.0,3027.0,2913.0,4005.0,3184.0,3269.0,3405.0,0.27,9.84,2.28,-0.06,0.01,-0.02,1.0,m
3616.0,882.0,3021.0,2897.0,3986.0,3183.0,3273.0,3399.0,0.34,9.88,2.18,-0.06,0.01,-0.01,1.0,m
3611.0,881.0,3024.0,2902.0,4030.0,3198.0,3289.0,3407.0,0.37,9.89,2.18,-0.05,-0.01,-0.04,1.0,m
3611.0,881.0,3022.0,2907.0,3991.0,3184.0,3267.0,3392.0,0.23,9.9,1.99,-0.08,-0.05,-0.03,1.0,m
3616.0,876.0,3024.0,2907.0,4011.0,3191.0,3275.0,3392.0,0.25,9.8,2.44,-0.08,0.0,-0.01,1.0,m
3607.0,878.0,3024.0,2905.0,3999.0,3183.0,3266.0,3397.0,0.65,9.91,2.25,-0.05,0.0,-0.03,1.0,m
3632.0,880.0,3038.0,2911.0,3991.0,3189.0,3280.0,3408.0,0.33,9.89,2.12,-0.07,-0.01,-0.05,1.0,m
3605.0,880.0,3021.0,2896.0,3987.0,3188.0,3277.0,3403.0,0.27,9.84,2.26,-0.06,-0.03,-0.05,1.0,m
3617.0,880.0,3033.0,2903.0,3991.0,3188.0,3279.0,3398.0,0.4,9.86,2.33,-0.04,-0.02,-0.04,1.0,m
3602.0,880.0,3027.0,2925.0,4004.0,3182.0,3267.0,3396.0,0.44,9.91,2.1,-0.05,-0.02,-0.05,1.0,m
3620.0,880.0,3024.0,2901.0,3990.0,3188.0,3280.0,3399.0,0.29,9.88,2.13,-0.08,0.0,-0.02,1.0,m
3631.0,891.0,3031.0,2908.0,4017.0,3199.0,3286.0,3412.0,0.41,9.83,2.37,-0.07,0.01,-0.01,1.0,m
3602.0,880.0,3026.0,2897.0,3999.0,3200.0,3270.0,3403.0,0.49,9.9,2.23,-0.04,0.0,-0.05,1.0,m
3616.0,876.0,3033.0,2909.0,4006.0,3193.0,3290.0,3409.0,0.35,9.82,2.31,-0.04,-0.01,-0.06,1.0,m
3598.0,886.0,3021.0,2901.0,3986.0,3190.0,3274.0,3402.0,0.45,9.86,2.25,-0.03,0.03,-0.06,1.0,m
3610.0,878.0,3027.0,2907.0,4007.0,3198.0,3281.0,3408.0,0.09,9.94,1.88,-0.07,0.03,-0.03,1.0,m
3600.0,884.0,3019.0,2899.0,3984.0,3187.0,3278.0,3397.0,0.38,9.84,2.34,-0.08,0.0,0.0,1.0,m
3606.0,880.0,3030.0,2907.0,4009.0,3201.0,3285.0,3401.0,0.42,9.85,2.32,-0.06,-0.02,-0.04,1.0,m
3604.0,887.0,3024.0,2899.0,3991.0,3186.0,3271.0,3399.0,0.41,9.88,2.22,-0.06,-0.0,-0.02,1.0,m
3613.0,879.0,3027.0,2908.0,4010.0,3194.0,3283.0,3408.0,0.48,9.86,2.3,-0.07,0.01,-0.02,1.0,m
3613.0,877.0,3023.0,2909.0,4001.0,3184.0,3274.0,3389.0,0.3,9.87,2.19,-0.05,0.0,-0.05,1.0,m
3606.0,878.0,3019.0,2896.0,3994.0,3187.0,3271.0,3407.0,0.35,9.91,2.03,-0.06,-0.02,-0.04,1.0,m
3621.0,882.0,3024.0,2909.0,4021.0,3193.0,3270.0,3397.0,0.3,9.84,2.24,-0.09,0.01,-0.03,1.0,m
3601.0,877.0,3015.0,2907.0,3984.0,3183.0,3279.0,3398.0,0.38,9.84,2.34,-0.06,-0.01,-0.03,1.0,m
3627.0,882.0,3030.0,2910.0,4016.0,3190.0,3278.0,3415.0,0.41,9.88,2.23,-0.06,0.01,-0.03,1.0,m
3609.0,885.0,3015.0,2905.0,3990.0,3184.0,3278.0,3395.0,0.28,9.85,2.26,-0.08,0.02,-0.03,1.0,m
3607.0,885.0,3029.0,2901.0,4001.0,3190.0,3274.0,3405.0,0.4,9.86,2.28,-0.05,0.01,-0.05,1.0,m
3632.0,880.0,3024.0,2896.0,4001.0,3195.0,3282.0,3413.0,0.34,9.86,2.21,-0.07,0.0,-0.03,1.0,m
3605.0,886.0,3015.0,2907.0,3989.0,3186.0,3275.0,3403.0,0.41,9.87,2.24,-0.07,0.02,-0.03,1.0,m
3601.0,880.0,3027.0,2910.0,4007.0,3189.0,3280.0,3407.0,0.24,9.84,2.35,-0.08,-0.01,-0.04,1.0,m
3600.0,882.0,3023.0,2905.0,4000.0,3189.0,3277.0,3406.0,0.32,9.9,2.2,-0.08,-0.0,-0.01,1.0,m
3610.0,883.0,3038.0,2915.0,4016.0,3194.0,3278.0,3403.0,0.42,9.87,2.35,-0.09,0.01,-0.01,1.0,m
3600.0,881.0,3025.0,2906.0,3989.0,3196.0,3278.0,3396.0,0.42,9.83,2.47,-0.05,0.01,-0.02,1.0,m
3615.0,879.0,3025.0,2906.0,4006.0,3194.0,3283.0,3409.0,0.4,9.88,2.21,-0.05,-0.0,-0.03,1.0,m
3612.0,880.0,3022.0,2907.0,4000.0,3189.0,3277.0,3399.0,0.38,9.83,2.39,-0.06,0.0,-0.04,1.0,m
3612.0,879.0,3025.0,2903.0,4007.0,3199.0,3285.0,3408.0,0.38,9.84,2.28,-0.05,0.0,-0.03,1.0,m
3598.0,881.0,3025.0,2910.0,4011.0,3196.0,3275.0,3392.0,0.4,9.82,2.36,-0.07,0.01,-0.02,1.0,m
3614.0,881.0,3034.0,2911.0,3996.0,3194.0,3273.0,3399.0,0.42,9.84,2.37,-0.07,0.0,-0.04,1.0,m
3625.0,880.0,3033.0,2912.0,4008.0,3197.0,3286.0,3409.0,0.36,9.84,2.37,-0.06,0.01,-0.03,1.0,m
3611.0,883.0,3024.0,2903.0,4003.0,3195.0,3280.0,3399.0,0.47,9.84,2.4,-0.07,-0.01,-0.03,1.0,m
3616.0,875.0,3026.0,2921.0,4026.0,3205.0,3291.0,3418.0,0.47,9.84,2.38,-0.05,-0.01,-0.05,1.0,m
3605.0,879.0,3027.0,2905.0,3995.0,3189.0,3279.0,3408.0,0.42,9.84,2.38,-0.07,-0.02,-0.03,1.0,m
3606.0,880.0,3026.0,2912.0,4014.0,3194.0,3281.0,3408.0,0.43,9.87,2.29,-0.06,0.03,-0.03,1.0,m
3614.0,878.0,3023.0,2911.0,3984.0,3186.0,3277.0,3406.0,0.42,9.82,2.41,-0.05,-0.01,-0.04,1.0,m
3609.0,884.0,3031.0,2921.0,4017.0,3203.0,3282.0,3408.0,0.44,9.83,2.41,-0.04,-0.0,-0.05,1.0,m
3615.0,881.0,3037.0,2913.0,4016.0,3203.0,3295.0,3422.0,0.39,9.86,2.33,-0.04,-0.0,-0.04,1.0,m
3614.0,885.0,3024.0,2911.0,3993.0,3191.0,3275.0,3398.0,0.4,9.85,2.28,-0.05,-0.0,-0.03,1.0,m
3603.0,879.0,3030.0,2911.0,4001.0,3195.0,3280.0,3409.0,0.45,9.85,2.26,-0.07,0.0,-0.03,1.0,m
3583.0,880.0,3022.0,2911.0,3998.0,3190.0,3279.0,3408.0,0.4,9.84,2.36,-0.07,0.0,-0.03,1.0,m
3605.0,880.0,3033.0,2911.0,4016.0,3200.0,3289.0,3413.0,0.45,9.85,2.35,-0.06,0.0,-0.03,1.0,m
3583.0,880.0,3024.0,2913.0,4011.0,3194.0,3270.0,3403.0,0.4,9.87,2.3,-0.06,0.01,-0.02,1.0,m
3609.0,883.0,3031.0,2912.0,4021.0,3200.0,3281.0,3408.0,0.43,9.85,2.34,-0.05,0.0,-0.04,1.0,m
3603.0,881.0,3012.0,2906.0,4010.0,3195.0,3279.0,3404.0,0.37,9.84,2.32,-0.06,-0.01,-0.03,1.0,m
3607.0,880.0,3027.0,2913.0,4013.0,3197.0,3280.0,3410.0,0.46,9.88,2.29,-0.06,0.02,-0.02,1.0,m
3601.0,876.0,3018.0,2907.0,4000.0,3196.0,3283.0,3407.0,0.46,9.83,2.4,-0.05,-0.01,-0.04,1.0,m
3603.0,875.0,3024.0,2917.0,4011.0,3200.0,3286.0,3414.0,0.47,9.87,2.24,-0.06,0.0,-0.04,1.0,m
3613.0,881.0,3025.0,2912.0,4013.0,3189.0,3277.0,3408.0,0.51,9.83,2.41,-0.06,-0.0,-0.04,1.0,m
3605.0,880.0,3018.0,2902.0,4006.0,3204.0,3278.0,3407.0,0.46,9.88,2.25,-0.06,-0.01,-0.04,1.0,m
3618.0,880.0,3022.0,2910.0,4004.0,3202.0,3296.0,3414.0,0.47,9.85,2.3,-0.07,0.01,-0.04,1.0,m
3626.0,877.0,3022.0,2896.0,4005.0,3190.0,3274.0,3408.0,0.46,9.82,2.43,-0.07,0.01,-0.03,1.0,m
3613.0,879.0,3031.0,2917.0,4022.0,3199.0,3282.0,3413.0,0.5,9.85,2.35,-0.06,-0.0,-0.03,1.0,m
