hall_1,hall_2,hall_3,flex_t,flex_i,flex_m,flex_r,flex_p,accel_x,accel_y,accel_z,gyro_x,gyro_y,gyro_z,hand,sign
1142.0,2080.0,2937.0,3111.0,2771.0,2490.0,2727.0,2629.0,-0.4,9.89,4.82,-0.04,0.01,-0.13,0.0,m
1148.0,2079.0,2930.0,3120.0,2775.0,2496.0,2732.0,2636.0,-0.4,9.85,5.03,0.01,-0.03,-0.15,0.0,m
1141.0,2087.0,2942.0,3120.0,2771.0,2495.0,2725.0,2629.0,-0.52,9.87,4.93,0.03,-0.06,-0.18,0.0,m
1136.0,2075.0,2941.0,3121.0,2787.0,2503.0,2736.0,2634.0,-0.7,9.86,4.86,0.02,-0.01,-0.16,0.0,m
1134.0,2077.0,2941.0,3122.0,2779.0,2493.0,2727.0,2633.0,-0.55,9.91,4.84,0.01,-0.08,-0.14,0.0,m
1136.0,2079.0,2938.0,3123.0,2785.0,2498.0,2734.0,2639.0,-0.5,9.87,4.76,0.03,0.01,-0.16,0.0,m
1150.0,2069.0,2928.0,3121.0,2774.0,2496.0,2734.0,2639.0,-0.61,9.87,4.94,0.01,-0.02,-0.16,0.0,m
1137.0,2069.0,2937.0,3121.0,2779.0,2496.0,2736.0,2637.0,-0.52,9.86,4.91,0.01,-0.06,-0.13,0.0,m
1142.0,2068.0,2937.0,3127.0,2783.0,2501.0,2739.0,2644.0,-0.28,9.79,4.92,0.04,-0.06,-0.13,0.0,m
1141.0,2064.0,2945.0,3126.0,2783.0,2498.0,2733.0,2634.0,-0.54,9.89,4.79,0.01,-0.03,-0.18,0.0,m
1152.0,2070.0,2935.0,3133.0,2783.0,2502.0,2743.0,2644.0,-0.67,9.84,4.97,0.01,-0.01,-0.14,0.0,m
1152.0,2061.0,2927.0,3125.0,2785.0,2501.0,2736.0,2639.0,-0.52,9.85,4.98,0.03,0.05,-0.15,0.0,m
1147.0,2038.0,2929.0,3130.0,2794.0,2511.0,2738.0,2639.0,-0.6,9.87,4.79,0.03,-0.03,-0.16,0.0,m
1147.0,2038.0,2941.0,3127.0,2790.0,2501.0,2736.0,2640.0,-0.6,9.88,4.9,-0.02,0.01,-0.15,0.0,m
1146.0,2059.0,2943.0,3136.0,2791.0,2502.0,2741.0,2647.0,-0.55,9.87,4.92,0.01,0.02,-0.15,0.0,m
1141.0,2056.0,2929.0,3127.0,2786.0,2502.0,2741.0,2641.0,-0.57,9.86,4.83,0.01,0.0,-0.15,0.0,m
1152.0,2039.0,2937.0,3149.0,2800.0,2510.0,2747.0,2643.0,-0.58,9.85,4.96,-0.02,0.02,-0.17,0.0,m
1138.0,2032.0,2929.0,3129.0,2788.0,2512.0,2739.0,2641.0,-0.5,9.81,5.06,-0.01,-0.04,-0.18,0.0,m
1152.0,2053.0,2946.0,3144.0,2797.0,2509.0,2749.0,2641.0,-0.59,9.79,5.08,0.03,-0.01,-0.16,0.0,m
1138.0,2039.0,2938.0,3142.0,2798.0,2511.0,2743.0,2643.0,-0.65,9.83,4.96,0.03,0.0,-0.13,0.0,m
1151.0,2030.0,2923.0,3139.0,2799.0,2511.0,2742.0,2646.0,-0.52,9.86,4.93,-0.01,-0.01,-0.14,0.0,m
1152.0,2033.0,2930.0,3138.0,2800.0,2512.0,2753.0,2655.0,-0.66,9.85,5.14,0.01,0.0,-0.13,0.0,m
1136.0,2032.0,2935.0,3139.0,2800.0,2515.0,2748.0,2655.0,-0.32,9.9,4.77,0.06,-0.07,-0.12,0.0,m
1135.0,2041.0,2933.0,3147.0,2803.0,2513.0,2751.0,2651.0,-0.41,9.84,4.98,-0.01,-0.02,-0.15,0.0,m
1138.0,2031.0,2922.0,3142.0,2800.0,2512.0,2746.0,2647.0,-0.47,9.85,4.96,-0.02,-0.05,-0.15,0.0,m
1143.0,2038.0,2943.0,3143.0,2800.0,2512.0,2759.0,2659.0,-0.55,9.88,5.02,-0.03,0.01,-0.13,0.0,m
1136.0,2034.0,2931.0,3142.0,2800.0,2512.0,2752.0,2651.0,-0.22,9.81,4.98,-0.0,0.03,-0.14,0.0,m
1136.0,2032.0,2947.0,3151.0,2801.0,2512.0,2746.0,2647.0,-0.41,9.85,4.85,0.0,-0.01,-0.16,0.0,m
1143.0,2029.0,2941.0,3154.0,2811.0,2516.0,2754.0,2662.0,-0.44,9.81,5.17,-0.04,-0.0,-0.17,0.0,m
1134.0,2027.0,2937.0,3148.0,2807.0,2519.0,2749.0,2659.0,-0.62,9.8,5.24,0.01,-0.0,-0.16,0.0,m
1143.0,2036.0,2942.0,3151.0,2802.0,2513.0,2753.0,2667.0,-0.35,9.84,4.99,0.04,-0.03,-0.13,0.0,m
1136.0,2023.0,2931.0,3150.0,2801.0,2513.0,2749.0,2656.0,-0.47,9.86,4.98,0.02,0.0,-0.13,0.0,m
1145.0,2030.0,2935.0,3152.0,2811.0,2522.0,2759.0,2660.0,-0.57,9.87,5.02,0.0,0.01,-0.1,0.0,m
1131.0,2032.0,2935.0,3153.0,2811.0,2519.0,2752.0,2653.0,-0.11,9.88,4.86,-0.02,0.01,-0.09,0.0,m
1149.0,2028.0,2932.0,3152.0,2806.0,2521.0,2757.0,2665.0,-0.29,9.85,5.04,-0.05,0.0,-0.14,0.0,m
1147.0,2023.0,2929.0,3152.0,2807.0,2512.0,2755.0,2660.0,-0.3,9.84,5.11,-0.08,0.0,-0.13,0.0,m
1134.0,2031.0,2939.0,3167.0,2817.0,2518.0,2752.0,2655.0,-0.39,9.84,5.4,-0.07,0.01,-0.09,0.0,m
1131.0,2017.0,2942.0,3164.0,2817.0,2515.0,2753.0,2653.0,-0.22,9.87,5.21,-0.01,0.02,-0.09,0.0,m
1134.0,2017.0,2930.0,3152.0,2818.0,2527.0,2765.0,2658.0,-0.23,9.88,5.11,-0.08,0.03,-0.09,0.0,m
1122.0,2013.0,2942.0,3157.0,2815.0,2514.0,2756.0,2651.0,-0.22,9.83,5.6,-0.12,-0.0,-0.08,0.0,m
1079.0,2175.0,2940.0,3182.0,2827.0,2512.0,2751.0,2639.0,0.09,9.73,5.97,-0.05,-0.02,-0.17,0.0,m
1078.0,2176.0,2931.0,3175.0,2820.0,2512.0,2750.0,2640.0,0.05,9.8,5.98,-0.11,-0.02,-0.16,0.0,m
1082.0,2183.0,2930.0,3181.0,2826.0,2521.0,2759.0,2644.0,0.1,9.66,6.35,-0.08,-0.02,-0.15,0.0,m
1082.0,2188.0,2929.0,3178.0,2816.0,2511.0,2754.0,2640.0,0.14,9.63,6.44,-0.08,-0.08,-0.19,0.0,m
1102.0,2188.0,2933.0,3179.0,2822.0,2534.0,2768.0,2661.0,0.03,9.66,6.56,-0.05,-0.05,-0.18,0.0,m
1088.0,2169.0,2929.0,3175.0,2821.0,2516.0,2755.0,2651.0,0.11,9.65,6.39,-0.04,-0.03,-0.19,0.0,m
1087.0,2186.0,2939.0,3173.0,2819.0,2512.0,2757.0,2657.0,0.05,9.63,6.53,-0.09,-0.07,-0.23,0.0,m
1083.0,2186.0,2928.0,3186.0,2832.0,2526.0,2762.0,2661.0,-0.13,9.54,6.83,-0.07,-0.08,-0.25,0.0,m
1086.0,2176.0,2930.0,3184.0,2823.0,2518.0,2756.0,2662.0,-0.18,9.56,6.8,-0.06,-0.08,-0.22,0.0,m
1077.0,2177.0,2944.0,3190.0,2832.0,2529.0,2766.0,2661.0,-0.13,9.53,6.92,-0.05,-0.04,-0.24,0.0,m
1082.0,2175.0,2937.0,3183.0,2826.0,2518.0,2760.0,2657.0,-0.27,9.53,6.95,-0.05,-0.05,-0.24,0.0,m
1091.0,2188.0,2933.0,3184.0,2833.0,2529.0,2765.0,2663.0,-0.32,9.52,6.95,-0.04,-0.08,-0.24,0.0,m
1086.0,2188.0,2936.0,3185.0,2835.0,2523.0,2758.0,2658.0,-0.38,9.5,6.93,-0.05,-0.07,-0.26,0.0,m
1089.0,2183.0,2931.0,3190.0,2832.0,2527.0,2765.0,2667.0,-0.58,9.42,7.18,-0.07,-0.03,-0.26,0.0,m
1088.0,2177.0,2935.0,3182.0,2829.0,2521.0,2765.0,2667.0,-0.74,9.36,7.39,-0.04,-0.03,-0.22,0.0,m
1081.0,2189.0,2939.0,3184.0,2832.0,2528.0,2766.0,2666.0,-0.56,9.34,7.37,-0.03,-0.11,-0.22,0.0,m
1083.0,2187.0,2941.0,3183.0,2826.0,2527.0,2755.0,2666.0,-0.67,9.37,7.32,-0.02,-0.07,-0.26,0.0,m
1094.0,2192.0,2943.0,3186.0,2832.0,2531.0,2768.0,2667.0,-0.88,9.33,7.4,-0.0,-0.02,-0.27,0.0,m
1075.0,2192.0,2931.0,3189.0,2834.0,2535.0,2767.0,2672.0,-0.99,9.35,7.44,0.03,-0.06,-0.32,0.0,m
1088.0,2181.0,2935.0,3190.0,2832.0,2525.0,2763.0,2661.0,-1.11,9.32,7.42,0.02,-0.05,-0.26,0.0,m
1078.0,2179.0,2921.0,3184.0,2831.0,2528.0,2767.0,2670.0,-1.24,9.24,7.47,0.02,0.03,-0.2,0.0,m
1099.0,2195.0,2935.0,3187.0,2837.0,2530.0,2768.0,2669.0,-1.19,9.25,7.51,0.05,0.06,-0.24,0.0,m
1088.0,2181.0,2937.0,3184.0,2832.0,2529.0,2765.0,2669.0,-1.2,9.13,7.5,0.11,0.01,-0.32,0.0,m
1087.0,2199.0,2944.0,3189.0,2833.0,2529.0,2767.0,2674.0,-1.54,9.23,7.25,0.08,-0.07,-0.26,0.0,m
1073.0,2196.0,2929.0,3184.0,2832.0,2529.0,2757.0,2673.0,-1.53,9.24,7.19,0.08,-0.04,-0.22,0.0,m
1089.0,2192.0,2934.0,3191.0,2838.0,2531.0,2766.0,2677.0,-1.43,9.25,7.12,0.06,0.01,-0.2,0.0,m
1087.0,2187.0,2928.0,3187.0,2830.0,2523.0,2766.0,2675.0,-1.64,9.25,7.05,0.04,-0.03,-0.24,0.0,m
1092.0,2207.0,2930.0,3188.0,2833.0,2533.0,2765.0,2674.0,-1.84,9.2,7.11,0.03,-0.05,-0.22,0.0,m
1085.0,2196.0,2928.0,3194.0,2845.0,2533.0,2768.0,2679.0,-1.92,9.22,7.11,0.04,-0.03,-0.19,0.0,m
1093.0,2204.0,2935.0,3186.0,2834.0,2526.0,2759.0,2674.0,-1.9,9.25,7.04,0.03,-0.04,-0.19,0.0,m
1088.0,2219.0,2931.0,3191.0,2839.0,2535.0,2768.0,2682.0,-1.95,9.24,7.11,0.03,-0.04,-0.18,0.0,m
1087.0,2219.0,2937.0,3185.0,2835.0,2528.0,2766.0,2678.0,-1.98,9.26,7.07,0.05,-0.01,-0.17,0.0,m
1088.0,2226.0,2944.0,3197.0,2843.0,2533.0,2768.0,2683.0,-2.02,9.28,7.0,0.06,0.04,-0.15,0.0,m
1075.0,2221.0,2927.0,3190.0,2837.0,2533.0,2766.0,2679.0,-1.94,9.25,7.01,0.06,0.03,-0.16,0.0,m
1077.0,2230.0,2944.0,3201.0,2851.0,2541.0,2770.0,2679.0,-1.96,9.26,6.95,0.09,-0.01,-0.18,0.0,m
1079.0,2228.0,2933.0,3191.0,2837.0,2531.0,2765.0,2688.0,-1.95,9.28,6.77,0.09,-0.01,-0.17,0.0,m
1085.0,2224.0,2935.0,3202.0,2843.0,2531.0,2768.0,2685.0,-2.06,9.3,6.68,0.09,-0.01,-0.17,0.0,m
1086.0,2231.0,2928.0,3193.0,2846.0,2533.0,2766.0,2681.0,-2.03,9.31,6.66,0.08,-0.04,-0.16,0.0,m
1085.0,2243.0,2948.0,3198.0,2847.0,2538.0,2774.0,2688.0,-2.02,9.29,6.62,0.06,-0.01,-0.15,0.0,m
1083.0,2228.0,2931.0,3197.0,2847.0,2538.0,2775.0,2694.0,-2.03,9.33,6.58,0.06,-0.0,-0.15,0.0,m
1086.0,2245.0,2932.0,3206.0,2855.0,2540.0,2784.0,2691.0,-1.98,9.54,5.84,0.06,0.03,-0.09,0.0,m
1079.0,2231.0,2929.0,3211.0,2850.0,2542.0,2770.0,2690.0,-1.91,9.57,5.71,0.07,0.06,-0.08,0.0,m
1090.0,2235.0,2933.0,3217.0,2852.0,2538.0,2769.0,2687.0,-1.79,9.56,5.73,0.05,0.05,-0.08,0.0,m
1093.0,2235.0,2943.0,3217.0,2862.0,2537.0,2774.0,2697.0,-1.62,9.55,5.83,0.07,0.01,-0.1,0.0,m
1087.0,2240.0,2941.0,3203.0,2859.0,2539.0,2771.0,2689.0,-1.55,9.58,5.53,0.11,-0.03,-0.12,0.0,m
1095.0,2237.0,2944.0,3209.0,2855.0,2542.0,2779.0,2694.0,-1.65,9.64,5.49,0.1,-0.01,-0.13,0.0,m
1086.0,2230.0,2933.0,3207.0,2850.0,2544.0,2769.0,2688.0,-1.63,9.66,5.32,0.09,-0.08,-0.12,0.0,m
1089.0,2236.0,2932.0,3216.0,2857.0,2544.0,2772.0,2692.0,-1.54,9.66,5.35,0.03,-0.06,-0.14,0.0,m
1093.0,2239.0,2938.0,3204.0,2852.0,2537.0,2768.0,2689.0,-1.61,9.65,5.46,-0.0,-0.05,-0.2,0.0,m
1091.0,2247.0,2934.0,3215.0,2863.0,2545.0,2781.0,2695.0,-1.76,9.61,5.45,0.01,0.03,-0.17,0.0,m
1095.0,2243.0,2933.0,3207.0,2857.0,2540.0,2774.0,2690.0,-1.84,9.64,5.5,0.0,-0.01,-0.13,0.0,m
1085.0,2245.0,2944.0,3207.0,2861.0,2543.0,2783.0,2697.0,-1.55,9.61,5.6,0.02,0.07,-0.11,0.0,m
1089.0,2231.0,2922.0,3200.0,2860.0,2543.0,2775.0,2695.0,-1.76,9.65,5.63,0.05,0.19,-0.11,0.0,m
1096.0,2246.0,2934.0,3213.0,2863.0,2546.0,2782.0,2704.0,-1.59,9.64,5.41,0.15,0.06,-0.13,0.0,m
1087.0,2241.0,2931.0,3217.0,2859.0,2544.0,2783.0,2704.0,-1.65,9.7,4.99,0.09,0.05,-0.1,0.0,m
1090.0,2231.0,2928.0,3206.0,2858.0,2539.0,2772.0,2691.0,-1.5,9.7,4.93,0.02,0.01,-0.12,0.0,m
1088.0,2237.0,2931.0,3211.0,2866.0,2544.0,2783.0,2691.0,-1.67,9.72,5.06,0.03,0.01,-0.12,0.0,m
1102.0,2245.0,2928.0,3206.0,2864.0,2541.0,2777.0,2693.0,-1.72,9.77,5.3,0.02,-0.02,-0.11,0.0,m
1105.0,2253.0,2939.0,3212.0,2859.0,2543.0,2784.0,2703.0,-1.53,9.68,5.24,0.08,0.09,-0.04,0.0,m
1085.0,2235.0,2927.0,3205.0,2860.0,2538.0,2770.0,2690.0,-1.27,9.76,5.01,0.11,0.11,-0.02,0.0,m
1089.0,2240.0,2930.0,3198.0,2858.0,2538.0,2781.0,2701.0,-1.45,9.79,4.73,0.04,0.04,-0.14,0.0,m
1086.0,2247.0,2942.0,3216.0,2859.0,2544.0,2780.0,2695.0,-1.19,9.79,4.59,0.04,0.04,-0.12,0.0,m
1090.0,2241.0,2941.0,3207.0,2859.0,2541.0,2777.0,2699.0,-1.12,9.78,4.59,0.04,0.01,-0.12,0.0,m
1102.0,2250.0,2932.0,3211.0,2862.0,2544.0,2774.0,2693.0,-1.15,9.78,4.64,0.06,0.02,-0.12,0.0,m
1098.0,2241.0,2935.0,3210.0,2861.0,2548.0,2782.0,2704.0,-1.04,9.85,4.57,0.05,0.0,-0.11,0.0,m
1095.0,2241.0,2928.0,3213.0,2864.0,2544.0,2778.0,2700.0,-1.38,9.87,4.37,0.1,0.06,-0.03,0.0,m
1085.0,2231.0,2933.0,3221.0,2871.0,2546.0,2780.0,2702.0,-0.66,9.85,4.21,0.01,0.12,-0.05,0.0,m
1094.0,2242.0,2928.0,3215.0,2864.0,2541.0,2772.0,2697.0,-1.02,9.82,4.47,0.05,0.05,-0.04,0.0,m
1092.0,2241.0,2933.0,3218.0,2867.0,2547.0,2783.0,2705.0,-0.68,9.87,4.32,0.05,0.08,-0.08,0.0,m
1088.0,2240.0,2938.0,3210.0,2865.0,2544.0,2777.0,2698.0,-0.44,9.88,4.32,0.02,0.06,-0.09,0.0,m
1100.0,2257.0,2939.0,3216.0,2866.0,2544.0,2783.0,2706.0,-0.83,9.83,4.38,0.06,0.03,-0.09,0.0,m
1095.0,2242.0,2935.0,3207.0,2863.0,2544.0,2783.0,2701.0,-0.5,9.89,4.04,0.07,0.12,-0.01,0.0,m
1098.0,2246.0,2939.0,3218.0,2865.0,2544.0,2784.0,2699.0,-0.12,9.93,4.03,-0.03,0.1,-0.01,0.0,m
1089.0,2235.0,2926.0,3211.0,2857.0,2544.0,2788.0,2695.0,-0.04,9.89,4.49,-0.01,0.03,-0.06,0.0,m
1094.0,2244.0,2939.0,3215.0,2867.0,2549.0,2795.0,2704.0,-0.04,9.87,4.25,0.04,-0.03,-0.12,0.0,m
1101.0,2244.0,2939.0,3214.0,2875.0,2547.0,2796.0,2707.0,-0.21,9.95,3.97,-0.0,-0.02,-0.13,0.0,m
1084.0,2252.0,2932.0,3207.0,2865.0,2544.0,2795.0,2701.0,-0.37,9.92,4.4,-0.01,0.08,-0.09,0.0,m
1092.0,2242.0,2943.0,3211.0,2864.0,2547.0,2798.0,2708.0,-0.15,9.95,4.21,0.04,0.06,-0.04,0.0,m
1093.0,2244.0,2935.0,3211.0,2867.0,2545.0,2795.0,2704.0,0.62,9.88,4.22,-0.06,0.06,-0.12,0.0,m
1097.0,2246.0,2950.0,3216.0,2866.0,2549.0,2795.0,2704.0,0.06,9.88,4.34,0.01,-0.03,-0.13,0.0,m
1098.0,2255.0,2944.0,3218.0,2874.0,2555.0,2797.0,2706.0,0.07,9.93,4.02,0.01,-0.03,-0.14,0.0,m
1098.0,2240.0,2928.0,3211.0,2866.0,2551.0,2788.0,2704.0,0.15,9.94,4.3,0.0,-0.01,-0.13,0.0,m
1117.0,2256.0,2941.0,3222.0,2873.0,2556.0,2798.0,2715.0,0.24,9.82,4.49,0.03,0.04,-0.18,0.0,m
1085.0,2240.0,2934.0,3191.0,2864.0,2549.0,2787.0,2707.0,-0.23,9.9,4.3,0.02,-0.06,-0.16,0.0,m
1088.0,2251.0,2942.0,3225.0,2869.0,2554.0,2794.0,2710.0,0.29,9.86,4.37,-0.01,-0.06,-0.15,0.0,m
1095.0,2252.0,2933.0,3223.0,2867.0,2547.0,2789.0,2704.0,0.55,9.96,4.02,0.08,-0.02,-0.03,0.0,m
1095.0,2258.0,2937.0,3218.0,2866.0,2546.0,2788.0,2705.0,0.71,9.79,4.3,0.08,0.23,-0.14,0.0,m
1101.0,2250.0,2944.0,3222.0,2869.0,2551.0,2797.0,2707.0,0.69,9.98,3.53,0.01,0.0,-0.18,0.0,m
1101.0,2239.0,2928.0,3210.0,2867.0,2553.0,2799.0,2705.0,-0.36,9.9,4.51,-0.08,-0.16,-0.29,0.0,m
1090.0,2250.0,2935.0,3222.0,2869.0,2555.0,2800.0,2711.0,-0.47,9.79,4.87,0.03,0.09,-0.15,0.0,m
1093.0,2256.0,2931.0,3225.0,2866.0,2547.0,2791.0,2706.0,0.74,9.91,3.71,0.1,0.01,-0.09,0.0,m
1101.0,2251.0,2944.0,3221.0,2873.0,2557.0,2801.0,2720.0,0.32,10.07,3.48,-0.01,-0.07,-0.24,0.0,m
1089.0,2242.0,2938.0,3215.0,2865.0,2551.0,2794.0,2709.0,-0.67,9.85,4.7,-0.09,-0.16,-0.21,0.0,m
1098.0,2241.0,2935.0,3226.0,2878.0,2557.0,2799.0,2716.0,-0.5,9.81,4.64,0.03,-0.05,0.03,0.0,m
1095.0,2248.0,2933.0,3216.0,2874.0,2555.0,2799.0,2714.0,0.64,9.89,3.87,0.14,0.32,0.06,0.0,m
1087.0,2250.0,2929.0,3222.0,2871.0,2557.0,2804.0,2716.0,0.43,9.84,4.42,0.03,-0.08,-0.16,0.0,m
1097.0,2240.0,2928.0,3230.0,2881.0,2558.0,2800.0,2715.0,0.55,9.91,4.16,0.06,0.06,-0.06,0.0,m
1102.0,2252.0,2928.0,3221.0,2874.0,2554.0,2791.0,2705.0,0.23,9.9,4.0,0.1,0.08,-0.12,0.0,m
1098.0,2253.0,2931.0,3238.0,2877.0,2554.0,2795.0,2709.0,0.71,9.84,3.8,-0.02,0.08,-0.1,0.0,m
1083.0,2252.0,2926.0,3224.0,2870.0,2551.0,2793.0,2709.0,1.17,9.85,3.8,-0.01,0.02,-0.12,0.0,m
1089.0,2270.0,2938.0,3228.0,2887.0,2555.0,2793.0,2712.0,1.71,9.86,3.89,-0.01,0.04,-0.1,0.0,m
1088.0,2262.0,2934.0,3214.0,2871.0,2549.0,2789.0,2705.0,1.63,9.78,4.22,-0.05,0.06,-0.22,0.0,m
1103.0,2283.0,2939.0,3222.0,2877.0,2551.0,2797.0,2717.0,1.5,9.78,4.2,0.05,0.05,-0.11,0.0,m
1091.0,2274.0,2941.0,3223.0,2878.0,2554.0,2797.0,2724.0,1.74,9.84,3.91,0.02,0.01,-0.19,0.0,m
1093.0,2271.0,2929.0,3218.0,2874.0,2549.0,2795.0,2715.0,0.99,9.88,4.29,-0.1,-0.09,-0.22,0.0,m
1102.0,2262.0,2942.0,3219.0,2877.0,2559.0,2800.0,2721.0,1.24,9.86,4.05,-0.04,-0.06,-0.15,0.0,m
1101.0,2261.0,2928.0,3218.0,2870.0,2549.0,2790.0,2715.0,2.02,9.9,4.12,-0.06,-0.02,-0.13,0.0,m
1091.0,2266.0,2934.0,3216.0,2881.0,2553.0,2800.0,2724.0,1.29,9.81,4.88,-0.19,-0.23,-0.16,0.0,m
1093.0,2272.0,2935.0,3221.0,2879.0,2557.0,2795.0,2717.0,0.86,9.87,4.58,0.13,-0.05,-0.19,0.0,m
1091.0,2275.0,2931.0,3225.0,2883.0,2558.0,2800.0,2726.0,1.59,9.91,3.96,0.09,-0.16,-0.17,0.0,m
1097.0,2267.0,2933.0,3226.0,2877.0,2559.0,2795.0,2721.0,1.41,9.8,4.57,-0.01,-0.06,-0.21,0.0,m
1097.0,2287.0,2950.0,3233.0,2880.0,2557.0,2800.0,2727.0,1.17,9.77,4.79,-0.03,-0.05,-0.13,0.0,m
1087.0,2257.0,2928.0,3217.0,2880.0,2555.0,2799.0,2725.0,1.29,9.91,4.04,0.09,-0.1,-0.16,0.0,m
1090.0,2275.0,2937.0,3235.0,2887.0,2557.0,2804.0,2727.0,1.24,9.84,4.38,-0.04,-0.08,-0.18,0.0,m
1089.0,2257.0,2928.0,3231.0,2887.0,2559.0,2802.0,2732.0,1.49,9.88,4.25,0.03,-0.14,-0.18,0.0,m
1087.0,2263.0,2939.0,3227.0,2885.0,2553.0,2790.0,2723.0,1.27,9.79,4.38,-0.04,0.04,-0.25,0.0,m
1098.0,2265.0,2937.0,3234.0,2887.0,2559.0,2800.0,2729.0,1.06,9.87,4.62,0.01,-0.06,-0.22,0.0,m
1101.0,2277.0,2935.0,3229.0,2877.0,2550.0,2791.0,2727.0,1.01,9.97,4.23,0.01,0.0,-0.21,0.0,m
1099.0,2268.0,2941.0,3236.0,2887.0,2559.0,2805.0,2732.0,1.36,9.88,4.12,-0.07,-0.01,-0.27,0.0,m
1104.0,2287.0,2931.0,3227.0,2882.0,2554.0,2791.0,2727.0,0.96,10.0,4.02,-0.06,-0.15,-0.23,0.0,m
1104.0,2275.0,2938.0,3243.0,2887.0,2559.0,2805.0,2736.0,1.46,9.76,5.44,-0.13,-0.06,-0.19,0.0,m
1104.0,2279.0,2943.0,3238.0,2893.0,2559.0,2813.0,2743.0,1.39,9.75,5.6,-0.14,-0.09,-0.21,0.0,m
1090.0,2267.0,2926.0,3242.0,2891.0,2559.0,2807.0,2736.0,1.48,9.71,5.92,-0.15,-0.13,-0.24,0.0,m
1103.0,2275.0,2944.0,3246.0,2896.0,2559.0,2809.0,2740.0,1.27,9.7,6.03,-0.12,-0.09,-0.26,0.0,m
1104.0,2259.0,2939.0,3237.0,2887.0,2559.0,2807.0,2736.0,1.1,9.61,6.32,-0.01,-0.04,-0.23,0.0,m
1108.0,2273.0,2941.0,3244.0,2889.0,2559.0,2807.0,2745.0,1.18,9.74,5.89,-0.06,-0.06,-0.28,0.0,m
1093.0,2266.0,2928.0,3239.0,2886.0,2558.0,2801.0,2736.0,0.83,9.69,6.14,-0.11,-0.21,-0.27,0.0,m
1100.0,2283.0,2944.0,3249.0,2895.0,2559.0,2809.0,2738.0,0.69,9.68,6.38,-0.03,-0.08,-0.23,0.0,m
1092.0,2265.0,2927.0,3231.0,2894.0,2559.0,2810.0,2740.0,1.02,9.68,6.17,-0.03,-0.02,-0.2,0.0,m
1101.0,2261.0,2940.0,3246.0,2896.0,2559.0,2816.0,2745.0,0.43,9.69,6.43,-0.02,-0.1,-0.2,0.0,m
1088.0,2274.0,2941.0,3238.0,2893.0,2559.0,2802.0,2736.0,1.21,9.7,6.01,-0.02,0.01,-0.14,0.0,m
1091.0,2268.0,2931.0,3243.0,2896.0,2559.0,2818.0,2747.0,0.58,9.64,6.44,-0.07,-0.11,-0.29,0.0,m
1098.0,2263.0,2931.0,3246.0,2894.0,2559.0,2810.0,2740.0,1.13,9.64,6.66,0.01,-0.09,-0.24,0.0,m
1106.0,2259.0,2926.0,3231.0,2881.0,2559.0,2806.0,2738.0,0.62,9.63,6.18,-0.08,-0.2,-0.25,0.0,m
1109.0,2267.0,2933.0,3243.0,2899.0,2559.0,2817.0,2745.0,0.2,9.63,6.85,-0.0,-0.04,-0.2,0.0,m
1106.0,2269.0,2943.0,3237.0,2895.0,2559.0,2807.0,2737.0,0.68,9.64,6.62,-0.06,0.05,-0.19,0.0,m
1108.0,2279.0,2941.0,3238.0,2895.0,2559.0,2813.0,2751.0,0.37,9.63,6.62,0.03,-0.07,-0.22,0.0,m
1105.0,2261.0,2933.0,3242.0,2893.0,2559.0,2806.0,2736.0,0.32,9.62,6.37,0.07,-0.01,-0.22,0.0,m
1111.0,2267.0,2943.0,3251.0,2901.0,2559.0,2816.0,2743.0,0.38,9.63,6.65,-0.03,-0.03,-0.21,0.0,m
1113.0,2275.0,2937.0,3235.0,2892.0,2559.0,2809.0,2738.0,0.18,9.63,6.49,0.03,-0.13,-0.16,0.0,m
1099.0,2273.0,2921.0,3237.0,2896.0,2559.0,2813.0,2741.0,-0.08,9.6,6.68,-0.03,-0.07,-0.26,0.0,m
1094.0,2269.0,2946.0,3248.0,2897.0,2559.0,2816.0,2738.0,-0.25,9.6,6.72,-0.03,-0.05,-0.21,0.0,m
1094.0,2272.0,2930.0,3241.0,2894.0,2559.0,2810.0,2736.0,-0.3,9.6,6.64,0.0,0.04,-0.2,0.0,m
1098.0,2274.0,2947.0,3248.0,2903.0,2559.0,2821.0,2749.0,-0.31,9.56,6.86,0.01,-0.03,-0.19,0.0,m
1105.0,2257.0,2942.0,3244.0,2897.0,2559.0,2812.0,2735.0,-0.23,9.53,6.98,0.03,-0.01,-0.18,0.0,m
1093.0,2271.0,2927.0,3247.0,2899.0,2559.0,2822.0,2746.0,-0.35,9.55,6.75,0.06,-0.02,-0.16,0.0,m
1104.0,2259.0,2928.0,3235.0,2898.0,2559.0,2815.0,2737.0,-0.22,9.57,6.71,0.02,-0.01,-0.15,0.0,m
1109.0,2273.0,2947.0,3242.0,2896.0,2559.0,2815.0,2749.0,-0.29,9.56,6.73,0.02,0.02,-0.16,0.0,m
1103.0,2257.0,2924.0,3231.0,2895.0,2559.0,2815.0,2742.0,-0.06,9.52,6.76,0.02,-0.03,-0.18,0.0,m
1091.0,2258.0,2945.0,3248.0,2901.0,2559.0,2818.0,2746.0,-0.27,9.54,6.83,0.05,-0.03,-0.21,0.0,m
1102.0,2256.0,2932.0,3241.0,2897.0,2583.0,2821.0,2747.0,-0.17,9.61,6.56,0.04,0.02,-0.25,0.0,m
1104.0,2265.0,2928.0,3248.0,2901.0,2559.0,2816.0,2738.0,-0.47,9.55,6.73,0.04,-0.08,-0.31,0.0,m
1107.0,2257.0,2931.0,3247.0,2902.0,2559.0,2823.0,2751.0,-0.57,9.53,6.6,0.01,-0.17,-0.3,0.0,m
1095.0,2256.0,2935.0,3247.0,2902.0,2559.0,2821.0,2742.0,-1.14,9.56,6.74,0.01,0.0,-0.22,0.0,m
1098.0,2271.0,2947.0,3241.0,2902.0,2559.0,2821.0,2749.0,-0.98,9.57,6.6,0.04,-0.05,-0.1,0.0,m
1094.0,2256.0,2939.0,3248.0,2898.0,2559.0,2815.0,2741.0,-0.53,9.62,6.46,0.03,0.02,-0.11,0.0,m
1099.0,2262.0,2929.0,3255.0,2899.0,2559.0,2823.0,2746.0,-0.72,9.55,6.65,-0.0,-0.02,-0.18,0.0,m
1105.0,2269.0,2934.0,3243.0,2895.0,2559.0,2815.0,2743.0,-0.82,9.6,6.57,0.04,-0.05,-0.11,0.0,m
1101.0,2269.0,2931.0,3253.0,2903.0,2559.0,2816.0,2746.0,-0.6,9.59,6.67,0.0,0.06,-0.11,0.0,m
1095.0,2277.0,2927.0,3243.0,2897.0,2559.0,2816.0,2740.0,-0.61,9.53,6.71,0.06,-0.04,-0.14,0.0,m
4095.0,2400.0,2939.0,3280.0,2811.0,2534.0,2709.0,2405.0,-0.39,9.5,6.55,0.26,0.33,0.1,0.0,m
4095.0,2423.0,2945.0,3283.0,2817.0,2533.0,2714.0,2410.0,-0.66,9.76,5.7,0.11,0.11,-0.14,0.0,m
4095.0,2454.0,2940.0,3273.0,2818.0,2535.0,2722.0,2414.0,-0.9,9.73,6.0,-0.02,0.02,-0.14,0.0,m
4095.0,2466.0,2942.0,3282.0,2815.0,2532.0,2722.0,2416.0,-0.83,9.53,6.58,0.01,0.03,-0.09,0.0,m
4095.0,2473.0,2933.0,3278.0,2813.0,2529.0,2718.0,2416.0,-0.78,9.58,6.36,0.01,-0.01,-0.09,0.0,m
4095.0,2480.0,2943.0,3282.0,2818.0,2542.0,2726.0,2417.0,-0.91,9.69,6.08,0.05,0.1,-0.03,0.0,m
4095.0,2480.0,2943.0,3280.0,2830.0,2545.0,2734.0,2417.0,-0.61,9.72,5.92,-0.04,0.15,0.04,0.0,m
4095.0,2480.0,2939.0,3277.0,2814.0,2539.0,2730.0,2417.0,-0.21,9.46,6.87,-0.07,0.11,-0.01,0.0,m
4095.0,2497.0,2945.0,3279.0,2821.0,2543.0,2736.0,2426.0,0.51,9.72,5.71,0.02,0.07,-0.18,0.0,m
4095.0,2487.0,2935.0,3278.0,2826.0,2544.0,2736.0,2425.0,-1.41,9.51,7.27,-0.18,-0.07,-0.34,0.0,m
4095.0,2487.0,2943.0,3293.0,2831.0,2544.0,2739.0,2429.0,-0.52,9.5,6.84,0.05,-0.05,-0.02,0.0,m
4095.0,2480.0,2929.0,3271.0,2827.0,2545.0,2751.0,2428.0,0.79,9.68,5.77,-0.08,-0.02,-0.3,0.0,m
4095.0,2480.0,2943.0,3295.0,2832.0,2557.0,2754.0,2432.0,-1.88,9.36,7.7,-0.16,-0.33,-0.35,0.0,m
4095.0,2485.0,2938.0,3281.0,2829.0,2550.0,2757.0,2431.0,-0.59,9.59,6.66,0.04,-0.02,-0.07,0.0,m
4095.0,2484.0,2935.0,3285.0,2835.0,2559.0,2765.0,2439.0,-0.43,9.71,6.28,-0.07,-0.13,-0.22,0.0,m
4095.0,2483.0,2943.0,3269.0,2832.0,2555.0,2759.0,2439.0,-0.79,9.39,7.34,-0.01,-0.07,-0.15,0.0,m
4095.0,2497.0,2933.0,3277.0,2830.0,2551.0,2768.0,2446.0,-0.51,9.34,6.99,-0.01,-0.02,-0.22,0.0,m
4095.0,2479.0,2935.0,3283.0,2838.0,2558.0,2767.0,2443.0,-0.81,9.42,7.1,0.02,-0.14,-0.2,0.0,m
4095.0,2481.0,2937.0,3282.0,2837.0,2559.0,2767.0,2443.0,-0.69,9.48,6.82,0.01,-0.01,-0.13,0.0,m
4095.0,2499.0,2932.0,3286.0,2842.0,2559.0,2775.0,2451.0,-0.65,9.44,7.0,-0.05,-0.05,-0.17,0.0,m
4095.0,2179.0,2946.0,3312.0,2881.0,2623.0,2861.0,2512.0,0.78,9.48,6.83,0.41,0.85,0.47,0.0,m
4095.0,2214.0,2942.0,3299.0,2873.0,2608.0,2844.0,2511.0,0.93,9.8,6.05,0.45,0.38,-0.01,0.0,m
4095.0,2230.0,2935.0,3312.0,2879.0,2608.0,2853.0,2515.0,0.6,9.8,5.94,0.05,-0.12,-0.31,0.0,m
4095.0,2254.0,2944.0,3294.0,2873.0,2608.0,2851.0,2513.0,0.4,9.87,5.77,-0.02,-0.1,-0.15,0.0,m
4095.0,2281.0,2937.0,3251.0,2881.0,2608.0,2856.0,2521.0,1.09,9.61,6.18,-0.2,-0.08,-0.05,0.0,m
4095.0,2285.0,2939.0,3261.0,2878.0,2609.0,2857.0,2523.0,1.05,9.62,6.38,-0.0,0.07,-0.08,0.0,m
4095.0,2287.0,2930.0,3262.0,2878.0,2615.0,2866.0,2529.0,0.99,9.64,6.36,0.02,0.0,-0.14,0.0,m
4095.0,2277.0,2919.0,3259.0,2874.0,2609.0,2853.0,2527.0,1.22,9.67,6.15,-0.02,0.01,-0.15,0.0,m
4095.0,2294.0,2945.0,3278.0,2886.0,2624.0,2863.0,2527.0,0.96,9.62,6.5,-0.02,-0.1,-0.2,0.0,m
4095.0,2289.0,2931.0,3279.0,2879.0,2613.0,2854.0,2523.0,1.13,9.6,6.42,-0.01,-0.08,-0.19,0.0,m
4095.0,2290.0,2939.0,3284.0,2882.0,2618.0,2862.0,2533.0,0.99,9.69,6.19,0.01,-0.02,-0.16,0.0,m
4095.0,2306.0,2944.0,3282.0,2879.0,2621.0,2865.0,2538.0,1.05,9.7,6.17,0.02,0.04,-0.14,0.0,m
4095.0,2286.0,2930.0,3280.0,2871.0,2619.0,2861.0,2528.0,0.8,9.6,6.52,-0.03,-0.07,-0.22,0.0,m
4095.0,2288.0,2942.0,3291.0,2883.0,2624.0,2864.0,2537.0,0.85,9.64,6.38,0.03,0.02,-0.13,0.0,m
4095.0,2295.0,2940.0,3286.0,2878.0,2622.0,2857.0,2527.0,1.19,9.65,6.14,-0.05,0.04,-0.18,0.0,m
4095.0,2305.0,2942.0,3295.0,2886.0,2623.0,2864.0,2533.0,0.79,9.64,6.42,-0.08,-0.02,-0.18,0.0,m
4095.0,2288.0,2934.0,3281.0,2871.0,2622.0,2864.0,2533.0,0.64,9.61,6.7,-0.06,0.02,-0.1,0.0,m
4095.0,2283.0,2937.0,3298.0,2882.0,2625.0,2864.0,2533.0,1.01,9.51,6.81,-0.06,0.02,-0.13,0.0,m
4095.0,2289.0,2933.0,3291.0,2871.0,2620.0,2860.0,2531.0,0.91,9.53,6.87,-0.05,0.0,-0.17,0.0,m
4095.0,2299.0,2938.0,3306.0,2887.0,2624.0,2864.0,2534.0,0.85,9.58,6.69,-0.05,-0.07,-0.15,0.0,m
4095.0,2272.0,2942.0,3303.0,2873.0,2619.0,2861.0,2536.0,1.1,9.45,6.99,-0.04,-0.03,-0.26,0.0,m
4095.0,2269.0,2934.0,3306.0,2877.0,2624.0,2866.0,2544.0,0.5,9.38,7.34,-0.06,-0.12,-0.32,0.0,m
4095.0,2274.0,2938.0,3305.0,2872.0,2623.0,2863.0,2533.0,0.36,9.43,7.37,-0.08,-0.03,-0.22,0.0,m
4095.0,2272.0,2946.0,3311.0,2880.0,2627.0,2874.0,2539.0,0.66,9.4,7.3,-0.04,0.0,-0.16,0.0,m
4095.0,2274.0,2934.0,3298.0,2869.0,2626.0,2871.0,2539.0,0.49,9.42,7.36,-0.06,-0.01,-0.24,0.0,m
4095.0,2273.0,2950.0,3315.0,2879.0,2624.0,2873.0,2556.0,0.36,9.35,7.56,-0.08,-0.08,-0.32,0.0,m
4095.0,2277.0,2923.0,3298.0,2870.0,2624.0,2867.0,2541.0,-0.0,9.35,7.76,-0.07,-0.07,-0.32,0.0,m
4095.0,2276.0,2930.0,3315.0,2880.0,2634.0,2879.0,2544.0,-0.08,9.23,7.89,-0.04,-0.07,-0.3,0.0,m
4095.0,2274.0,2931.0,3309.0,2873.0,2625.0,2871.0,2535.0,-0.09,9.33,7.63,-0.04,0.01,-0.22,0.0,m
4095.0,2278.0,2937.0,3311.0,2873.0,2624.0,2871.0,2546.0,-0.33,9.22,7.99,-0.07,-0.08,-0.26,0.0,m
4095.0,2286.0,2941.0,3307.0,2877.0,2621.0,2879.0,2546.0,-0.19,9.21,7.91,0.02,0.03,-0.18,0.0,m
4095.0,2271.0,2929.0,3312.0,2877.0,2627.0,2875.0,2541.0,-0.2,9.19,7.93,-0.03,-0.11,-0.19,0.0,m
4095.0,2282.0,2939.0,3319.0,2877.0,2624.0,2875.0,2543.0,-0.04,9.21,7.82,0.01,0.0,-0.18,0.0,m
4095.0,2272.0,2938.0,3307.0,2874.0,2623.0,2869.0,2540.0,-0.1,9.22,7.8,-0.01,-0.02,-0.21,0.0,m
4095.0,2288.0,2939.0,3315.0,2880.0,2626.0,2878.0,2544.0,-0.19,9.12,8.02,-0.05,-0.1,-0.29,0.0,m
4095.0,2270.0,2941.0,3314.0,2879.0,2629.0,2874.0,2541.0,-0.31,9.13,8.05,-0.01,-0.09,-0.26,0.0,m
4095.0,2273.0,2943.0,3315.0,2881.0,2629.0,2882.0,2545.0,-0.4,9.16,7.88,0.02,-0.03,-0.23,0.0,m
4095.0,2281.0,2931.0,3314.0,2876.0,2626.0,2877.0,2543.0,-0.4,9.12,7.98,0.02,-0.02,-0.21,0.0,m
4095.0,2285.0,2946.0,3321.0,2876.0,2633.0,2884.0,2546.0,-0.63,9.13,8.01,0.0,-0.08,-0.26,0.0,m
4095.0,2284.0,2928.0,3312.0,2880.0,2629.0,2880.0,2544.0,-0.8,9.15,8.04,-0.01,-0.01,-0.2,0.0,m
4095.0,2295.0,2938.0,3333.0,2883.0,2631.0,2883.0,2550.0,-1.6,9.14,8.0,0.08,-0.03,-0.17,0.0,m
4095.0,2298.0,2942.0,3330.0,2881.0,2625.0,2880.0,2545.0,-1.03,9.1,7.97,0.06,-0.01,-0.13,0.0,m
4095.0,2283.0,2939.0,3323.0,2890.0,2625.0,2876.0,2543.0,-1.14,9.13,7.86,0.07,-0.04,-0.17,0.0,m
4095.0,2289.0,2943.0,3329.0,2884.0,2638.0,2885.0,2550.0,-1.15,9.21,7.54,0.03,-0.01,-0.12,0.0,m
4095.0,2282.0,2928.0,3325.0,2880.0,2628.0,2877.0,2544.0,-1.02,9.11,7.9,0.02,-0.01,-0.18,0.0,m
4095.0,2295.0,2939.0,3332.0,2886.0,2631.0,2879.0,2550.0,-0.89,9.17,7.65,0.05,-0.06,-0.22,0.0,m
4095.0,2288.0,2928.0,3329.0,2882.0,2633.0,2875.0,2542.0,-1.32,9.15,7.73,-0.04,-0.06,-0.23,0.0,m
4095.0,2304.0,2942.0,3330.0,2882.0,2629.0,2879.0,2551.0,-1.25,9.1,7.82,-0.01,-0.0,-0.19,0.0,m
4095.0,2301.0,2934.0,3335.0,2883.0,2625.0,2873.0,2543.0,-1.2,9.09,7.86,0.02,-0.03,-0.21,0.0,m
4095.0,2302.0,2943.0,3338.0,2890.0,2637.0,2881.0,2545.0,-1.36,9.16,7.68,0.04,-0.01,-0.17,0.0,m
4095.0,2299.0,2922.0,3328.0,2879.0,2633.0,2879.0,2547.0,-1.13,9.08,7.75,0.03,-0.04,-0.18,0.0,m
4095.0,2320.0,2928.0,3338.0,2894.0,2640.0,2886.0,2547.0,-1.29,9.06,7.86,0.03,-0.07,-0.22,0.0,m
4095.0,2328.0,2933.0,3329.0,2880.0,2628.0,2878.0,2549.0,-1.49,9.12,7.64,0.09,-0.02,-0.15,0.0,m
4095.0,2319.0,2927.0,3327.0,2882.0,2631.0,2882.0,2549.0,-1.38,9.18,7.64,0.1,-0.0,-0.09,0.0,m
4095.0,2336.0,2947.0,3341.0,2893.0,2636.0,2882.0,2551.0,-1.15,9.21,7.42,0.05,0.02,-0.1,0.0,m
4095.0,2323.0,2935.0,3332.0,2887.0,2631.0,2882.0,2549.0,-1.25,9.29,7.32,0.12,0.03,-0.09,0.0,m
4095.0,2320.0,2936.0,3339.0,2895.0,2638.0,2880.0,2545.0,-1.07,9.33,7.16,0.08,-0.0,-0.12,0.0,m
4095.0,2310.0,2934.0,3327.0,2880.0,2634.0,2879.0,2548.0,-1.31,9.3,7.53,0.03,-0.0,-0.11,0.0,m
4095.0,2320.0,2949.0,3344.0,2889.0,2635.0,2880.0,2549.0,-1.11,9.25,7.52,0.09,0.01,-0.1,0.0,m
4095.0,2333.0,2939.0,3339.0,2886.0,2628.0,2876.0,2545.0,-0.92,9.39,7.11,0.1,0.01,-0.09,0.0,m
4095.0,2343.0,2938.0,3334.0,2896.0,2639.0,2885.0,2555.0,-1.02,9.6,6.24,0.15,0.1,-0.02,0.0,m
4095.0,2329.0,2941.0,3330.0,2886.0,2629.0,2874.0,2554.0,-1.05,9.67,6.12,0.15,0.01,-0.1,0.0,m
4095.0,2341.0,2943.0,3335.0,2894.0,2640.0,2889.0,2558.0,-0.96,9.72,5.87,0.15,0.06,-0.06,0.0,m
4095.0,2326.0,2934.0,3338.0,2890.0,2637.0,2881.0,2556.0,-0.75,9.75,5.7,0.1,-0.01,-0.09,0.0,m
4095.0,2352.0,2935.0,3326.0,2892.0,2640.0,2887.0,2559.0,-0.77,9.72,5.76,0.06,-0.07,-0.09,0.0,m
4095.0,2346.0,2942.0,3340.0,2892.0,2627.0,2879.0,2556.0,-0.69,9.71,5.81,0.06,0.01,-0.03,0.0,m
4095.0,2352.0,2942.0,3338.0,2890.0,2633.0,2885.0,2559.0,-0.68,9.78,5.78,0.03,-0.08,-0.03,0.0,m
4095.0,2341.0,2933.0,3339.0,2890.0,2633.0,2878.0,2554.0,-0.34,9.81,5.47,0.1,-0.01,-0.04,0.0,m
4095.0,2339.0,2937.0,3344.0,2896.0,2640.0,2890.0,2559.0,-0.48,9.84,5.59,0.05,-0.05,-0.12,0.0,m
4095.0,2352.0,2939.0,3345.0,2892.0,2635.0,2884.0,2559.0,-0.28,9.78,5.59,0.06,-0.0,-0.09,0.0,m
4095.0,2352.0,2930.0,3349.0,2896.0,2637.0,2884.0,2559.0,-0.27,9.89,5.4,0.09,0.06,-0.04,0.0,m
4095.0,2357.0,2944.0,3357.0,2896.0,2639.0,2885.0,2559.0,-0.01,9.74,5.54,-0.04,-0.32,-0.17,0.0,m
4095.0,2359.0,2933.0,3353.0,2892.0,2636.0,2885.0,2558.0,0.19,9.72,5.55,-0.03,-0.06,-0.06,0.0,m
4095.0,2378.0,2928.0,3357.0,2896.0,2640.0,2887.0,2559.0,-0.16,9.97,5.28,-0.0,-0.05,-0.03,0.0,m
4095.0,2377.0,2931.0,3357.0,2891.0,2631.0,2884.0,2559.0,0.03,9.9,5.57,-0.03,0.19,-0.04,0.0,m
4095.0,2384.0,2934.0,3357.0,2900.0,2642.0,2882.0,2559.0,0.38,9.72,5.77,0.01,0.03,-0.08,0.0,m
4095.0,2377.0,2938.0,3354.0,2893.0,2639.0,2884.0,2559.0,0.18,9.89,5.49,0.01,-0.11,-0.12,0.0,m
4095.0,2391.0,2943.0,3365.0,2898.0,2638.0,2886.0,2559.0,0.3,9.85,5.48,0.01,0.03,-0.09,0.0,m
4095.0,2391.0,2929.0,3360.0,2896.0,2635.0,2879.0,2557.0,0.34,9.91,5.35,0.0,0.09,-0.07,0.0,m
4095.0,2401.0,2943.0,3364.0,2897.0,2638.0,2885.0,2559.0,0.24,9.79,5.64,0.01,0.1,-0.07,0.0,m
4095.0,2416.0,2933.0,3359.0,2891.0,2640.0,2889.0,2559.0,0.93,9.79,5.65,-0.01,0.03,-0.11,0.0,m
4095.0,2411.0,2935.0,3354.0,2892.0,2637.0,2880.0,2559.0,0.97,9.83,5.76,-0.13,-0.12,-0.14,0.0,m
4095.0,2407.0,2947.0,3366.0,2897.0,2640.0,2893.0,2559.0,1.3,9.73,5.83,-0.08,0.1,-0.03,0.0,m
4095.0,2416.0,2939.0,3361.0,2896.0,2635.0,2885.0,2559.0,1.04,9.69,6.13,-0.05,0.05,-0.1,0.0,m
4095.0,2422.0,2949.0,3365.0,2905.0,2645.0,2890.0,2559.0,1.05,9.71,6.07,-0.02,-0.02,-0.1,0.0,m
4095.0,2415.0,2931.0,3373.0,2903.0,2642.0,2887.0,2559.0,1.3,9.67,6.06,-0.09,0.01,-0.08,0.0,m
4095.0,2416.0,2934.0,3363.0,2896.0,2640.0,2892.0,2559.0,1.3,9.61,6.3,-0.07,0.05,-0.09,0.0,m
4095.0,2429.0,2945.0,3365.0,2896.0,2640.0,2886.0,2559.0,1.39,9.57,6.4,-0.05,-0.03,-0.14,0.0,m
4095.0,2416.0,2937.0,3358.0,2894.0,2629.0,2884.0,2559.0,1.4,9.62,6.33,-0.05,-0.08,-0.16,0.0,m
4095.0,2414.0,2933.0,3363.0,2897.0,2639.0,2889.0,2559.0,1.32,9.63,6.35,-0.04,0.06,-0.12,0.0,m
4095.0,2415.0,2937.0,3364.0,2898.0,2633.0,2880.0,2559.0,1.43,9.6,6.38,-0.11,-0.1,-0.16,0.0,m
4095.0,2422.0,2942.0,3366.0,2901.0,2640.0,2887.0,2559.0,1.15,9.58,6.69,-0.1,0.02,-0.13,0.0,m
4095.0,2420.0,2943.0,3359.0,2894.0,2634.0,2885.0,2559.0,1.58,9.5,6.67,-0.1,-0.03,-0.19,0.0,m
4095.0,2422.0,2939.0,3362.0,2897.0,2639.0,2890.0,2559.0,1.26,9.5,6.88,-0.06,-0.01,-0.21,0.0,m
4095.0,2406.0,2934.0,3360.0,2896.0,2640.0,2889.0,2559.0,1.28,9.41,7.07,-0.07,-0.04,-0.23,0.0,m
4095.0,2413.0,2934.0,3358.0,2896.0,2641.0,2896.0,2559.0,1.35,9.39,7.09,-0.02,-0.05,-0.23,0.0,m
4095.0,2415.0,2934.0,3362.0,2899.0,2639.0,2882.0,2559.0,1.13,9.51,6.82,-0.06,-0.0,-0.24,0.0,m
4095.0,2421.0,2941.0,3359.0,2896.0,2639.0,2885.0,2559.0,0.5,9.45,7.42,-0.03,0.08,-0.21,0.0,m
4095.0,2426.0,2944.0,3362.0,2901.0,2641.0,2892.0,2559.0,0.85,9.49,7.02,-0.01,-0.02,-0.13,0.0,m
4095.0,2418.0,2939.0,3361.0,2896.0,2633.0,2883.0,2559.0,1.39,9.33,7.2,-0.01,0.05,-0.13,0.0,m
4095.0,2422.0,2944.0,3365.0,2902.0,2640.0,2891.0,2559.0,0.84,9.34,7.58,0.01,0.03,-0.12,0.0,m
4095.0,2417.0,2929.0,3355.0,2895.0,2637.0,2885.0,2559.0,1.02,9.4,7.29,-0.01,-0.02,-0.21,0.0,m
4095.0,2417.0,2943.0,3375.0,2910.0,2640.0,2886.0,2559.0,0.75,9.34,7.4,-0.01,0.01,-0.22,0.0,m
4095.0,2416.0,2939.0,3375.0,2899.0,2637.0,2886.0,2559.0,0.69,9.41,7.33,0.04,0.01,-0.22,0.0,m
4095.0,2406.0,2931.0,3368.0,2899.0,2639.0,2887.0,2559.0,0.45,9.38,7.42,0.04,-0.04,-0.25,0.0,m
4095.0,2421.0,2935.0,3363.0,2902.0,2640.0,2891.0,2559.0,0.4,9.41,7.33,0.0,-0.07,-0.21,0.0,m
4095.0,2403.0,2937.0,3358.0,2896.0,2639.0,2890.0,2559.0,0.43,9.43,7.25,0.01,0.02,-0.14,0.0,m
4095.0,2417.0,2941.0,3374.0,2903.0,2640.0,2892.0,2559.0,0.49,9.36,7.44,-0.0,0.02,-0.13,0.0,m
4095.0,2403.0,2930.0,3369.0,2901.0,2640.0,2886.0,2559.0,0.83,9.4,7.12,-0.01,0.0,-0.19,0.0,m
4095.0,2416.0,2931.0,3375.0,2902.0,2641.0,2888.0,2559.0,0.21,9.38,7.51,-0.05,-0.05,-0.24,0.0,m
4095.0,2416.0,2928.0,3365.0,2895.0,2640.0,2885.0,2559.0,0.39,9.38,7.35,-0.01,0.03,-0.18,0.0,m
4095.0,2424.0,2941.0,3371.0,2900.0,2645.0,2894.0,2559.0,0.17,9.37,7.52,-0.05,-0.03,-0.23,0.0,m
4095.0,2418.0,2928.0,3371.0,2899.0,2645.0,2882.0,2559.0,0.17,9.31,7.58,-0.03,-0.02,-0.21,0.0,m
4095.0,2422.0,2946.0,3367.0,2898.0,2640.0,2890.0,2559.0,0.03,9.39,7.5,-0.04,0.02,-0.18,0.0,m
4095.0,2410.0,2939.0,3361.0,2898.0,2640.0,2892.0,2559.0,0.2,9.33,7.52,-0.08,-0.03,-0.19,0.0,m
4095.0,2416.0,2949.0,3367.0,2900.0,2640.0,2882.0,2559.0,0.05,9.28,7.82,-0.04,0.0,-0.19,0.0,m
4095.0,2415.0,2930.0,3363.0,2899.0,2640.0,2885.0,2559.0,0.11,9.18,7.94,-0.05,-0.09,-0.22,0.0,m
4095.0,2416.0,2930.0,3363.0,2897.0,2640.0,2890.0,2559.0,0.22,9.19,7.82,-0.06,-0.05,-0.23,0.0,m
4095.0,2416.0,2931.0,3370.0,2901.0,2643.0,2885.0,2559.0,-0.19,9.13,8.11,-0.03,-0.1,-0.25,0.0,m
4095.0,2410.0,2937.0,3361.0,2900.0,2638.0,2886.0,2559.0,-0.08,9.21,7.77,0.01,-0.05,-0.17,0.0,m
4095.0,2431.0,2935.0,3388.0,2905.0,2640.0,2895.0,2585.0,-0.19,9.26,7.66,-0.01,-0.0,-0.18,0.0,m
4095.0,2423.0,2941.0,3386.0,2903.0,2639.0,2887.0,2559.0,-0.23,9.1,8.04,-0.01,-0.02,-0.25,0.0,m
4095.0,2418.0,2930.0,3387.0,2906.0,2640.0,2894.0,2585.0,-0.31,9.1,8.0,0.06,0.07,-0.23,0.0,m
4095.0,2416.0,2929.0,3389.0,2908.0,2639.0,2887.0,2559.0,-0.38,9.07,7.98,0.13,0.35,-0.25,0.0,m
4095.0,2422.0,2945.0,3394.0,2909.0,2645.0,2892.0,2581.0,-1.13,9.22,7.78,0.12,0.27,-0.23,0.0,m
4095.0,2410.0,2931.0,3389.0,2912.0,2645.0,2891.0,2559.0,-0.86,9.22,7.58,-0.02,0.11,-0.22,0.0,m
4095.0,2415.0,2935.0,3398.0,2906.0,2649.0,2883.0,2559.0,-1.15,9.14,7.82,-0.01,-0.06,-0.23,0.0,m
4095.0,2412.0,2935.0,3394.0,2917.0,2651.0,2891.0,2559.0,-0.86,9.15,7.69,0.03,0.02,-0.17,0.0,m
4095.0,2403.0,2928.0,3388.0,2909.0,2640.0,2886.0,2559.0,-1.02,9.14,7.78,0.08,-0.02,-0.25,0.0,m
4095.0,2411.0,2944.0,3392.0,2912.0,2655.0,2896.0,2579.0,-1.0,9.23,7.36,0.01,-0.04,-0.3,0.0,m
4095.0,2414.0,2924.0,3381.0,2909.0,2647.0,2896.0,2559.0,-1.71,9.2,7.67,-0.03,-0.1,-0.33,0.0,m
4095.0,2415.0,2941.0,3398.0,2919.0,2645.0,2894.0,2559.0,-1.92,9.21,7.7,0.02,0.0,-0.19,0.0,m
4095.0,2409.0,2940.0,3392.0,2908.0,2647.0,2894.0,2559.0,-1.21,9.05,7.77,-0.0,-0.01,-0.16,0.0,m
4095.0,2406.0,2941.0,3399.0,2915.0,2647.0,2893.0,2559.0,-1.13,9.04,7.62,-0.02,-0.1,-0.29,0.0,m
4095.0,2405.0,2939.0,3395.0,2909.0,2640.0,2892.0,2559.0,-1.72,9.04,7.93,-0.07,-0.12,-0.42,0.0,m
4095.0,2402.0,2935.0,3397.0,2911.0,2645.0,2896.0,2559.0,-2.09,8.98,7.94,-0.05,-0.09,-0.35,0.0,m
4095.0,2398.0,2935.0,3388.0,2905.0,2647.0,2891.0,2559.0,-2.45,8.93,8.1,0.03,-0.05,-0.21,0.0,m
4095.0,2405.0,2930.0,3387.0,2910.0,2650.0,2897.0,2587.0,-1.84,8.87,8.02,0.02,-0.01,-0.14,0.0,m
4095.0,2400.0,2931.0,3401.0,2917.0,2647.0,2895.0,2579.0,-1.87,8.9,7.84,0.02,-0.02,-0.17,0.0,m
4095.0,2413.0,2942.0,3386.0,2906.0,2641.0,2894.0,2559.0,-1.88,8.88,8.06,0.05,-0.04,-0.21,0.0,m
4095.0,2403.0,2928.0,3389.0,2906.0,2643.0,2895.0,2578.0,-1.1,9.59,6.33,0.08,0.19,0.04,0.0,m
4095.0,2414.0,2941.0,3397.0,2909.0,2645.0,2892.0,2559.0,-1.4,9.75,6.24,0.12,0.13,0.0,0.0,m
4095.0,2416.0,2950.0,3407.0,2917.0,2645.0,2896.0,2559.0,-0.95,9.61,6.31,0.06,0.07,0.11,0.0,m
4095.0,2403.0,2930.0,3397.0,2913.0,2641.0,2885.0,2559.0,-0.3,9.6,5.98,0.18,0.26,0.19,0.0,m
4095.0,2398.0,2940.0,3402.0,2921.0,2655.0,2898.0,2559.0,0.01,9.75,5.56,0.12,0.02,-0.01,0.0,m
4095.0,2405.0,2928.0,3391.0,2914.0,2646.0,2892.0,2578.0,-0.06,9.82,5.5,0.05,-0.04,-0.06,0.0,m
4095.0,2397.0,2933.0,3394.0,2919.0,2653.0,2899.0,2583.0,-0.34,9.76,5.82,0.02,0.02,-0.05,0.0,m
4095.0,2402.0,2935.0,3391.0,2913.0,2645.0,2894.0,2578.0,-0.06,9.77,5.66,0.06,0.12,-0.0,0.0,m
4095.0,2379.0,2951.0,3396.0,2911.0,2647.0,2902.0,2554.0,0.24,9.84,5.5,0.03,0.09,-0.03,0.0,m
4095.0,2346.0,2927.0,3383.0,2913.0,2650.0,2896.0,2539.0,0.63,9.69,5.61,-0.06,0.08,-0.07,0.0,m
4095.0,2336.0,2933.0,3393.0,2918.0,2651.0,2896.0,2554.0,0.32,9.78,5.69,-0.0,0.01,-0.17,0.0,m
4095.0,2309.0,2928.0,3397.0,2917.0,2652.0,2896.0,2552.0,-0.07,9.82,5.75,-0.01,0.04,-0.07,0.0,m
4095.0,2279.0,2940.0,3397.0,2917.0,2645.0,2893.0,2557.0,0.18,9.77,5.64,0.05,0.05,-0.03,0.0,m
4095.0,2268.0,2928.0,3399.0,2921.0,2657.0,2898.0,2557.0,0.54,9.76,5.65,0.06,0.05,-0.09,0.0,m
4095.0,2273.0,2938.0,3394.0,2896.0,2645.0,2892.0,2556.0,0.28,9.86,5.57,0.03,-0.0,-0.11,0.0,m
4095.0,2293.0,2931.0,3396.0,2915.0,2651.0,2898.0,2555.0,0.38,9.87,5.47,0.03,0.04,-0.07,0.0,m
4095.0,2282.0,2937.0,3397.0,2915.0,2643.0,2896.0,2555.0,0.34,9.88,5.55,-0.0,0.07,-0.05,0.0,m
4095.0,2300.0,2935.0,3405.0,2923.0,2649.0,2898.0,2559.0,0.81,9.73,5.75,-0.04,0.04,-0.05,0.0,m
4095.0,2302.0,2935.0,3398.0,2917.0,2649.0,2895.0,2555.0,0.91,9.78,5.73,-0.02,0.02,-0.1,0.0,m
4095.0,2305.0,2945.0,3399.0,2917.0,2646.0,2897.0,2559.0,0.66,9.79,5.67,-0.05,-0.0,-0.13,0.0,m
4095.0,2336.0,2942.0,3402.0,2915.0,2644.0,2893.0,2559.0,0.68,9.68,6.21,-0.06,0.02,-0.14,0.0,m
4095.0,2330.0,2942.0,3401.0,2919.0,2647.0,2896.0,2559.0,0.88,9.7,6.03,-0.04,0.02,-0.15,0.0,m
4095.0,2332.0,2940.0,3405.0,2921.0,2659.0,2903.0,2559.0,0.82,9.75,5.97,-0.09,-0.03,-0.16,0.0,m
4095.0,2338.0,2928.0,3405.0,2922.0,2647.0,2895.0,2559.0,0.91,9.65,6.35,-0.13,0.01,-0.15,0.0,m
4095.0,2351.0,2931.0,3406.0,2917.0,2651.0,2895.0,2559.0,0.76,9.6,6.65,-0.1,0.06,-0.15,0.0,m
4095.0,2320.0,2931.0,3398.0,2916.0,2641.0,2891.0,2557.0,0.86,9.53,6.79,-0.07,-0.02,-0.15,0.0,m
4095.0,2331.0,2935.0,3403.0,2917.0,2657.0,2900.0,2559.0,0.96,9.54,6.78,-0.02,-0.03,-0.16,0.0,m
4095.0,2329.0,2942.0,3405.0,2925.0,2650.0,2896.0,2559.0,0.97,9.59,6.51,-0.05,-0.03,-0.21,0.0,m
4095.0,2335.0,2944.0,3405.0,2918.0,2646.0,2902.0,2559.0,0.6,9.59,6.86,-0.1,-0.02,-0.24,0.0,m
4095.0,2337.0,2932.0,3392.0,2917.0,2647.0,2896.0,2559.0,0.69,9.49,6.95,-0.08,-0.02,-0.21,0.0,m
4095.0,2336.0,2945.0,3410.0,2922.0,2652.0,2896.0,2559.0,0.58,9.49,7.1,-0.08,-0.04,-0.26,0.0,m
4095.0,2331.0,2935.0,3403.0,2918.0,2651.0,2899.0,2559.0,0.39,9.45,7.23,-0.04,-0.04,-0.25,0.0,m
4095.0,2341.0,2941.0,3408.0,2928.0,2656.0,2902.0,2559.0,0.4,9.46,7.14,-0.03,-0.08,-0.21,0.0,m
4095.0,2342.0,2949.0,3409.0,2923.0,2653.0,2897.0,2559.0,0.45,9.43,7.25,-0.0,0.02,-0.21,0.0,m
4095.0,2341.0,2928.0,3401.0,2921.0,2649.0,2898.0,2579.0,0.5,9.37,7.26,-0.05,-0.11,-0.26,0.0,m
4095.0,2343.0,2942.0,3408.0,2928.0,2662.0,2901.0,2559.0,0.11,9.39,7.43,-0.03,-0.09,-0.24,0.0,m
4095.0,2343.0,2933.0,3403.0,2914.0,2647.0,2893.0,2559.0,0.21,9.52,7.05,0.05,0.05,-0.12,0.0,m
4095.0,2337.0,2937.0,3414.0,2932.0,2659.0,2906.0,2559.0,0.32,9.42,7.28,-0.03,-0.06,-0.21,0.0,m
4095.0,2336.0,2933.0,3405.0,2914.0,2651.0,2896.0,2579.0,0.38,9.43,7.19,-0.01,0.02,-0.18,0.0,m
4095.0,2339.0,2933.0,3407.0,2926.0,2655.0,2898.0,2559.0,0.5,9.38,7.21,-0.03,0.13,-0.25,0.0,m
4095.0,1535.0,2941.0,3298.0,2857.0,2559.0,2817.0,2464.0,-0.81,9.85,4.84,0.12,0.01,-0.11,0.0,m
4095.0,1535.0,2945.0,3307.0,2866.0,2559.0,2822.0,2466.0,-0.78,9.85,4.36,0.17,0.18,-0.01,0.0,m
4095.0,1534.0,2933.0,3296.0,2859.0,2559.0,2825.0,2464.0,0.18,9.98,3.75,0.1,0.06,-0.03,0.0,m
4095.0,1527.0,2943.0,3314.0,2868.0,2559.0,2827.0,2469.0,-0.36,9.9,4.2,0.02,-0.01,-0.13,0.0,m
4095.0,1530.0,2934.0,3298.0,2864.0,2559.0,2826.0,2462.0,-0.4,9.92,4.39,0.04,0.01,-0.06,0.0,m
4095.0,1535.0,2939.0,3306.0,2871.0,2559.0,2833.0,2474.0,-0.11,9.88,4.35,0.03,0.02,-0.05,0.0,m
4095.0,1535.0,2939.0,3305.0,2866.0,2559.0,2831.0,2470.0,0.08,9.81,4.02,0.05,0.06,-0.07,0.0,m
4095.0,1535.0,2945.0,3310.0,2870.0,2578.0,2832.0,2479.0,0.46,10.07,3.22,-0.13,-0.1,-0.07,0.0,m
4095.0,1535.0,2931.0,3294.0,2864.0,2588.0,2835.0,2475.0,0.2,9.93,4.28,-0.25,-0.08,-0.01,0.0,m
4095.0,1535.0,2946.0,3311.0,2879.0,2590.0,2847.0,2478.0,0.52,9.84,4.79,-0.12,0.02,-0.01,0.0,m
4095.0,1535.0,2941.0,3313.0,2880.0,2583.0,2842.0,2481.0,0.41,9.84,5.03,-0.15,-0.03,0.01,0.0,m
4095.0,1530.0,2931.0,3308.0,2869.0,2582.0,2832.0,2475.0,0.66,9.83,4.93,-0.13,0.01,0.05,0.0,m
4095.0,1535.0,2944.0,3311.0,2874.0,2582.0,2839.0,2482.0,1.19,9.84,5.13,-0.2,-0.01,0.0,0.0,m
4095.0,1535.0,2945.0,3311.0,2864.0,2559.0,2842.0,2480.0,1.68,9.76,5.44,-0.15,-0.07,-0.11,0.0,m
4095.0,1526.0,2944.0,3311.0,2877.0,2595.0,2855.0,2483.0,0.65,9.82,5.62,0.02,-0.06,-0.19,0.0,m
4095.0,1525.0,2934.0,3311.0,2874.0,2583.0,2851.0,2486.0,0.91,9.91,4.9,-0.02,-0.01,-0.13,0.0,m
4095.0,1533.0,2948.0,3319.0,2880.0,2586.0,2855.0,2487.0,0.8,9.79,5.48,-0.12,-0.03,-0.12,0.0,m
4095.0,1519.0,2939.0,3313.0,2879.0,2587.0,2851.0,2481.0,1.07,9.83,5.29,-0.15,0.06,-0.05,0.0,m
4095.0,1532.0,2946.0,3328.0,2875.0,2586.0,2849.0,2490.0,1.4,9.71,5.75,-0.18,-0.02,-0.11,0.0,m
4095.0,1521.0,2931.0,3316.0,2879.0,2591.0,2855.0,2489.0,1.35,9.63,6.19,-0.17,-0.09,-0.14,0.0,m
4095.0,1527.0,2951.0,3333.0,2895.0,2603.0,2864.0,2487.0,0.84,9.49,6.94,-0.06,-0.0,-0.25,0.0,m
4095.0,1531.0,2939.0,3325.0,2885.0,2598.0,2864.0,2483.0,0.6,9.56,6.81,-0.05,-0.11,-0.24,0.0,m
4095.0,1521.0,2954.0,3337.0,2890.0,2606.0,2867.0,2496.0,0.61,9.49,7.05,-0.07,-0.04,-0.36,0.0,m
4095.0,1520.0,2928.0,3326.0,2880.0,2606.0,2870.0,2497.0,0.21,9.51,6.95,-0.07,-0.17,-0.32,0.0,m
4095.0,1533.0,2937.0,3327.0,2886.0,2607.0,2875.0,2503.0,0.31,9.56,7.21,-0.1,-0.13,-0.22,0.0,m
4095.0,1531.0,2943.0,3328.0,2895.0,2608.0,2875.0,2498.0,0.32,9.45,7.19,-0.07,0.01,-0.2,0.0,m
4095.0,1525.0,2939.0,3329.0,2887.0,2611.0,2875.0,2502.0,0.45,9.4,7.3,-0.05,-0.06,-0.23,0.0,m
4095.0,1525.0,2944.0,3331.0,2886.0,2605.0,2882.0,2494.0,0.53,9.36,7.34,-0.06,-0.18,-0.3,0.0,m
4095.0,1520.0,2935.0,3329.0,2894.0,2613.0,2883.0,2499.0,0.15,9.36,7.37,-0.09,-0.19,-0.33,0.0,m
4095.0,1514.0,2943.0,3327.0,2894.0,2609.0,2880.0,2502.0,-0.21,9.29,7.72,-0.07,0.05,-0.28,0.0,m
4095.0,1510.0,2928.0,3328.0,2894.0,2608.0,2882.0,2499.0,-0.2,9.28,7.68,-0.03,-0.09,-0.25,0.0,m
4095.0,1520.0,2946.0,3336.0,2895.0,2608.0,2883.0,2506.0,-0.25,9.29,7.64,0.0,-0.06,-0.25,0.0,m
4095.0,1507.0,2944.0,3331.0,2890.0,2608.0,2877.0,2499.0,-0.36,9.27,7.52,0.04,0.03,-0.24,0.0,m
4095.0,1511.0,2948.0,3346.0,2905.0,2619.0,2890.0,2507.0,-0.47,9.3,7.59,0.0,-0.01,-0.22,0.0,m
4095.0,1519.0,2943.0,3328.0,2889.0,2609.0,2880.0,2496.0,-0.41,9.24,7.72,-0.02,-0.04,-0.24,0.0,m
4095.0,1515.0,2935.0,3330.0,2896.0,2617.0,2891.0,2511.0,-0.66,9.21,7.71,0.01,-0.01,-0.25,0.0,m
4095.0,1517.0,2928.0,3328.0,2891.0,2610.0,2887.0,2506.0,-0.44,9.19,7.62,-0.02,-0.08,-0.27,0.0,m
4095.0,1521.0,2928.0,3334.0,2896.0,2617.0,2890.0,2510.0,-1.03,9.16,7.91,0.02,-0.04,-0.22,0.0,m
4095.0,1517.0,2938.0,3334.0,2896.0,2613.0,2886.0,2507.0,-0.71,9.23,7.68,0.03,0.01,-0.18,0.0,m
4095.0,1516.0,2931.0,3341.0,2896.0,2622.0,2896.0,2512.0,-0.58,9.22,7.57,0.02,-0.04,-0.22,0.0,m
4095.0,1514.0,2947.0,3359.0,2906.0,2621.0,2894.0,2521.0,-2.4,9.17,7.02,0.02,-0.06,-0.22,0.0,m
4095.0,1516.0,2931.0,3347.0,2897.0,2617.0,2891.0,2521.0,-2.39,9.09,7.21,0.02,-0.01,-0.15,0.0,m
4095.0,1524.0,2939.0,3353.0,2908.0,2622.0,2903.0,2528.0,-2.14,9.21,6.85,0.13,-0.0,-0.15,0.0,m
4095.0,1515.0,2935.0,3347.0,2907.0,2623.0,2896.0,2519.0,-2.29,9.21,6.88,0.06,0.04,-0.17,0.0,m
4095.0,1520.0,2941.0,3359.0,2911.0,2624.0,2899.0,2527.0,-2.36,9.23,6.87,0.16,0.01,-0.13,0.0,m
4095.0,1511.0,2930.0,3343.0,2902.0,2623.0,2897.0,2541.0,-2.43,9.27,6.67,0.18,0.02,-0.12,0.0,m
4095.0,1519.0,2948.0,3359.0,2910.0,2623.0,2896.0,2528.0,-2.35,9.37,6.36,0.17,0.04,-0.1,0.0,m
4095.0,1513.0,2946.0,3349.0,2909.0,2623.0,2896.0,2523.0,-2.16,9.35,6.03,0.14,0.03,-0.09,0.0,m
4095.0,1535.0,2940.0,3359.0,2911.0,2626.0,2901.0,2527.0,-1.94,9.39,6.1,0.08,0.02,-0.15,0.0,m
4095.0,1516.0,2939.0,3354.0,2911.0,2621.0,2897.0,2528.0,-2.15,9.38,6.14,0.07,-0.03,-0.15,0.0,m
4095.0,1520.0,2933.0,3359.0,2915.0,2627.0,2896.0,2533.0,-2.16,9.41,6.14,0.12,-0.0,-0.13,0.0,m
4095.0,1521.0,2937.0,3346.0,2906.0,2624.0,2898.0,2529.0,-2.43,9.45,5.9,0.12,0.07,-0.12,0.0,m
4095.0,1527.0,2938.0,3345.0,2903.0,2624.0,2897.0,2534.0,-2.13,9.48,5.89,0.12,0.09,0.05,0.0,m
4095.0,1521.0,2947.0,3357.0,2911.0,2622.0,2899.0,2527.0,-1.46,9.53,5.63,0.13,0.12,0.03,0.0,m
4095.0,1520.0,2941.0,3348.0,2907.0,2627.0,2900.0,2533.0,-1.41,9.6,5.45,0.11,0.02,-0.07,0.0,m
4095.0,1525.0,2953.0,3362.0,2919.0,2629.0,2898.0,2535.0,-1.57,9.62,5.46,0.13,0.04,-0.11,0.0,m
4095.0,1522.0,2934.0,3358.0,2910.0,2628.0,2898.0,2530.0,-1.48,9.63,5.25,0.13,-0.0,-0.16,0.0,m
4095.0,1527.0,2941.0,3364.0,2915.0,2631.0,2907.0,2535.0,-1.92,9.67,5.07,0.16,-0.02,-0.15,0.0,m
4095.0,1518.0,2937.0,3357.0,2903.0,2624.0,2897.0,2537.0,-1.5,9.73,4.75,0.07,0.04,-0.14,0.0,m
4095.0,1524.0,2947.0,3362.0,2910.0,2623.0,2898.0,2538.0,-1.71,9.49,5.42,0.03,0.07,-0.12,0.0,m
4095.0,1518.0,2944.0,3374.0,2919.0,2633.0,2913.0,2559.0,-1.0,9.85,3.43,0.08,0.12,-0.02,0.0,m
4095.0,1516.0,2939.0,3365.0,2913.0,2626.0,2903.0,2557.0,-0.64,9.82,3.33,0.1,0.19,0.02,0.0,m
4095.0,1507.0,2940.0,3371.0,2916.0,2638.0,2906.0,2558.0,-0.45,9.9,3.29,-0.02,0.14,-0.03,0.0,m
4095.0,1510.0,2939.0,3369.0,2915.0,2631.0,2895.0,2545.0,-0.57,9.83,3.57,0.12,0.15,-0.04,0.0,m
4095.0,1523.0,2943.0,3370.0,2926.0,2635.0,2906.0,2549.0,-0.3,9.9,3.09,-0.03,0.06,-0.11,0.0,m
4095.0,1511.0,2943.0,3374.0,2918.0,2633.0,2900.0,2546.0,-0.24,9.84,3.4,-0.01,0.04,-0.08,0.0,m
4095.0,1527.0,2937.0,3376.0,2927.0,2633.0,2898.0,2554.0,-0.46,9.86,3.48,-0.0,-0.01,-0.06,0.0,m
4095.0,1522.0,2939.0,3370.0,2917.0,2627.0,2896.0,2544.0,-0.13,9.81,3.51,-0.04,0.16,-0.03,0.0,m
4095.0,1531.0,2943.0,3375.0,2918.0,2627.0,2903.0,2559.0,0.43,9.78,3.31,-0.08,-0.03,-0.05,0.0,m
4095.0,1533.0,2945.0,3376.0,2923.0,2627.0,2903.0,2555.0,0.09,9.92,3.61,-0.11,0.02,-0.01,0.0,m
4095.0,1519.0,2943.0,3374.0,2913.0,2627.0,2899.0,2547.0,0.42,9.81,3.65,-0.05,0.04,0.1,0.0,m
4095.0,1530.0,2951.0,3373.0,2917.0,2631.0,2903.0,2559.0,1.02,9.86,3.69,0.01,0.05,0.01,0.0,m
4095.0,1521.0,2934.0,3372.0,2916.0,2629.0,2903.0,2551.0,0.81,9.85,3.64,0.02,0.1,-0.02,0.0,m
4095.0,1520.0,2945.0,3398.0,2933.0,2640.0,2911.0,2559.0,0.61,9.91,3.71,0.07,0.08,-0.08,0.0,m
4095.0,1534.0,2941.0,3363.0,2913.0,2627.0,2905.0,2557.0,0.81,9.85,3.6,-0.0,0.17,0.01,0.0,m
4095.0,1535.0,2950.0,3375.0,2928.0,2635.0,2910.0,2559.0,1.3,9.87,3.62,0.03,0.12,0.0,0.0,m
4095.0,1535.0,2942.0,3364.0,2918.0,2631.0,2906.0,2554.0,1.57,9.76,3.53,0.01,0.01,-0.15,0.0,m
4095.0,1535.0,2953.0,3375.0,2926.0,2639.0,2911.0,2559.0,0.95,9.94,3.55,-0.06,0.04,-0.13,0.0,m
4095.0,1563.0,2943.0,3364.0,2918.0,2627.0,2898.0,2559.0,1.17,9.76,3.9,-0.13,0.15,-0.1,0.0,m
4095.0,1535.0,2931.0,3375.0,2929.0,2640.0,2912.0,2559.0,1.6,9.82,3.67,-0.08,0.06,-0.08,0.0,m
4095.0,1535.0,2955.0,3375.0,2926.0,2634.0,2909.0,2559.0,1.75,9.7,4.61,-0.01,0.05,-0.08,0.0,m
4095.0,1535.0,2938.0,3355.0,2922.0,2636.0,2906.0,2559.0,1.86,9.82,4.34,-0.16,-0.09,-0.16,0.0,m
4095.0,1557.0,2940.0,3374.0,2928.0,2639.0,2911.0,2559.0,1.77,9.77,4.74,-0.15,0.01,-0.08,0.0,m
4095.0,1555.0,2943.0,3370.0,2923.0,2638.0,2909.0,2559.0,2.0,9.66,5.28,-0.23,-0.19,-0.12,0.0,m
4095.0,1557.0,2943.0,3375.0,2929.0,2640.0,2913.0,2559.0,2.08,9.66,5.33,-0.14,-0.03,-0.07,0.0,m
4095.0,1552.0,2928.0,3359.0,2923.0,2633.0,2910.0,2559.0,2.06,9.62,5.68,-0.12,-0.09,-0.12,0.0,m
4095.0,1535.0,2950.0,3371.0,2919.0,2635.0,2911.0,2583.0,2.29,9.58,5.54,-0.02,-0.02,-0.12,0.0,m
4095.0,1558.0,2934.0,3353.0,2914.0,2627.0,2909.0,2559.0,2.15,9.7,5.14,-0.04,-0.08,-0.22,0.0,m
4095.0,1535.0,2945.0,3373.0,2927.0,2639.0,2906.0,2559.0,1.93,9.72,5.39,-0.13,0.0,-0.23,0.0,m
4095.0,1569.0,2939.0,3376.0,2928.0,2640.0,2914.0,2559.0,1.77,9.63,5.9,-0.1,0.08,-0.22,0.0,m
4095.0,1557.0,2931.0,3356.0,2919.0,2634.0,2908.0,2559.0,1.92,9.65,5.76,-0.08,0.07,-0.24,0.0,m
4095.0,1535.0,2943.0,3375.0,2928.0,2640.0,2911.0,2559.0,1.6,9.61,6.1,-0.06,-0.02,-0.25,0.0,m
4095.0,1535.0,2942.0,3367.0,2927.0,2639.0,2915.0,2559.0,1.41,9.7,5.93,-0.03,0.12,-0.2,0.0,m
4095.0,1557.0,2945.0,3371.0,2927.0,2637.0,2922.0,2587.0,1.82,9.64,5.9,-0.01,0.03,-0.2,0.0,m
4095.0,1553.0,2941.0,3370.0,2928.0,2639.0,2912.0,2559.0,1.93,9.66,5.92,-0.1,-0.01,-0.19,0.0,m
4095.0,1554.0,2945.0,3369.0,2925.0,2636.0,2913.0,2581.0,1.68,9.63,6.13,-0.12,-0.1,-0.25,0.0,m
4095.0,1535.0,2941.0,3365.0,2927.0,2637.0,2907.0,2559.0,1.46,9.57,6.52,-0.08,0.05,-0.23,0.0,m
4095.0,1505.0,2937.0,3367.0,2928.0,2640.0,2922.0,2582.0,1.25,9.6,6.45,-0.05,-0.03,-0.24,0.0,m
4095.0,1488.0,2933.0,3376.0,2925.0,2633.0,2911.0,2581.0,1.27,9.59,6.47,-0.05,0.03,-0.24,0.0,m
4095.0,1498.0,2945.0,3368.0,2928.0,2639.0,2926.0,2590.0,1.19,9.65,6.39,0.02,0.01,-0.21,0.0,m
4095.0,1501.0,2949.0,3383.0,2935.0,2644.0,2925.0,2583.0,0.76,9.57,6.74,-0.05,0.02,-0.19,0.0,m
4095.0,1494.0,2939.0,3371.0,2923.0,2629.0,2922.0,2581.0,0.96,9.53,6.87,-0.06,-0.08,-0.23,0.0,m
4095.0,1480.0,2943.0,3376.0,2933.0,2646.0,2923.0,2593.0,0.8,9.56,6.96,-0.03,-0.09,-0.29,0.0,m
4095.0,1499.0,2947.0,3375.0,2929.0,2639.0,2924.0,2582.0,0.54,9.53,6.95,-0.01,-0.02,-0.28,0.0,m
4095.0,1497.0,2943.0,3383.0,2935.0,2640.0,2926.0,2587.0,0.6,9.56,6.86,-0.0,0.0,-0.2,0.0,m
4095.0,1482.0,2943.0,3374.0,2927.0,2638.0,2918.0,2581.0,0.68,9.5,6.88,-0.02,-0.06,-0.22,0.0,m
4095.0,1488.0,2943.0,3376.0,2938.0,2642.0,2926.0,2589.0,0.5,9.52,6.95,-0.02,0.01,-0.21,0.0,m
4095.0,1481.0,2934.0,3371.0,2928.0,2635.0,2918.0,2581.0,0.49,9.5,7.09,-0.04,0.01,-0.24,0.0,m
4095.0,1494.0,2938.0,3383.0,2935.0,2640.0,2928.0,2591.0,0.43,9.49,7.13,0.0,-0.04,-0.26,0.0,m
4095.0,1488.0,2933.0,3382.0,2939.0,2643.0,2928.0,2589.0,0.17,9.51,7.05,-0.0,-0.09,-0.28,0.0,m
4095.0,1487.0,2937.0,3375.0,2935.0,2641.0,2924.0,2587.0,0.04,9.5,7.13,-0.01,-0.07,-0.21,0.0,m
4095.0,1486.0,2937.0,3382.0,2935.0,2643.0,2926.0,2592.0,0.06,9.48,7.18,0.02,-0.01,-0.19,0.0,m
4095.0,1475.0,2937.0,3372.0,2930.0,2640.0,2928.0,2593.0,0.07,9.47,7.09,0.02,-0.0,-0.19,0.0,m
4095.0,1487.0,2954.0,3391.0,2938.0,2640.0,2928.0,2594.0,0.12,9.49,7.06,0.02,-0.01,-0.18,0.0,m
4095.0,1472.0,2928.0,3375.0,2933.0,2640.0,2925.0,2590.0,-0.03,9.46,7.29,-0.02,0.04,-0.19,0.0,m
4095.0,1469.0,2932.0,3390.0,2931.0,2650.0,2927.0,2597.0,0.12,9.45,7.13,0.02,-0.06,-0.2,0.0,m
4095.0,1476.0,2945.0,3377.0,2935.0,2640.0,2919.0,2591.0,-0.12,9.49,7.06,-0.0,-0.03,-0.22,0.0,m
4095.0,1482.0,2955.0,3386.0,2944.0,2643.0,2928.0,2594.0,-0.07,9.48,7.14,0.05,-0.0,-0.21,0.0,m
4095.0,1485.0,2941.0,3376.0,2933.0,2641.0,2928.0,2592.0,-0.41,9.5,7.04,0.01,-0.11,-0.24,0.0,m
4095.0,1488.0,2942.0,3379.0,2933.0,2644.0,2934.0,2602.0,-0.32,9.41,7.3,0.05,0.01,-0.11,0.0,m
4095.0,1478.0,2953.0,3389.0,2944.0,2649.0,2931.0,2605.0,-0.09,9.28,7.37,-0.01,0.08,-0.22,0.0,m
4095.0,1469.0,2928.0,3377.0,2935.0,2640.0,2927.0,2599.0,-0.8,9.25,7.39,0.02,0.12,-0.33,0.0,m
4095.0,1472.0,2946.0,3389.0,2939.0,2643.0,2926.0,2600.0,-1.32,9.3,7.32,-0.01,-0.04,-0.32,0.0,m
4095.0,1469.0,2943.0,3386.0,2937.0,2653.0,2939.0,2608.0,-1.11,9.13,7.49,-0.07,-0.03,-0.32,0.0,m
4095.0,1472.0,2933.0,3376.0,2929.0,2645.0,2928.0,2602.0,-1.81,9.16,7.69,0.02,0.04,-0.19,0.0,m
4095.0,1473.0,2941.0,3390.0,2944.0,2657.0,2934.0,2603.0,-0.99,9.17,7.42,0.01,0.07,-0.11,0.0,m
4095.0,1465.0,2931.0,3383.0,2934.0,2640.0,2928.0,2596.0,-1.44,9.11,7.72,0.01,-0.01,-0.18,0.0,m
4095.0,1474.0,2939.0,3399.0,2945.0,2653.0,2931.0,2602.0,-1.41,9.23,7.72,0.04,0.04,-0.17,0.0,m
4095.0,1466.0,2937.0,3386.0,2933.0,2644.0,2928.0,2598.0,-1.53,9.23,7.6,0.17,0.0,-0.19,0.0,m
4095.0,1474.0,2942.0,3395.0,2944.0,2643.0,2929.0,2599.0,-1.33,9.47,6.69,0.09,0.0,-0.11,0.0,m
4095.0,1456.0,2945.0,3385.0,2938.0,2643.0,2925.0,2601.0,-1.44,9.0,8.14,-0.05,0.19,-0.06,0.0,m
4095.0,1461.0,2945.0,3392.0,2942.0,2651.0,2931.0,2608.0,-1.26,9.24,7.44,0.12,0.09,-0.09,0.0,m
4095.0,1478.0,2941.0,3381.0,2935.0,2647.0,2928.0,2608.0,-1.03,9.44,6.74,0.05,-0.0,-0.13,0.0,m
4095.0,1456.0,2935.0,3394.0,2944.0,2653.0,2933.0,2606.0,-1.27,9.42,6.96,-0.01,-0.02,-0.12,0.0,m
4095.0,1462.0,2939.0,3383.0,2936.0,2643.0,2925.0,2608.0,-1.2,9.3,7.37,0.02,-0.0,-0.18,0.0,m
4095.0,1469.0,2939.0,3387.0,2944.0,2646.0,2927.0,2606.0,-1.3,9.04,7.69,-0.16,-0.56,-0.2,0.0,m
4095.0,1470.0,2957.0,3391.0,2941.0,2644.0,2928.0,2601.0,-1.16,9.25,7.47,0.09,0.08,0.05,0.0,m
4095.0,1461.0,2945.0,3383.0,2941.0,2640.0,2929.0,2606.0,-0.69,9.34,7.12,0.14,0.07,-0.02,0.0,m
4095.0,1459.0,2951.0,3393.0,2947.0,2653.0,2928.0,2608.0,-0.69,9.42,6.9,0.08,-0.0,-0.11,0.0,m
4095.0,1462.0,2934.0,3379.0,2934.0,2644.0,2928.0,2603.0,-0.74,9.48,6.91,0.05,0.02,-0.18,0.0,m
4095.0,1441.0,2945.0,3399.0,2954.0,2659.0,2934.0,2608.0,-1.33,9.29,7.13,-0.04,-0.04,-0.19,0.0,m
4095.0,1430.0,2944.0,3392.0,2942.0,2656.0,2930.0,2608.0,-1.7,9.27,7.39,0.04,-0.01,-0.22,0.0,m
4095.0,1439.0,2942.0,3394.0,2942.0,2651.0,2931.0,2608.0,-1.89,9.31,7.17,-0.01,0.01,-0.17,0.0,m
4095.0,1441.0,2939.0,3397.0,2949.0,2658.0,2939.0,2608.0,-2.06,9.11,7.74,0.0,-0.05,-0.07,0.0,m
4095.0,1437.0,2930.0,3398.0,2944.0,2650.0,2928.0,2606.0,-0.81,9.3,7.01,0.03,0.1,-0.02,0.0,m
4095.0,1439.0,2938.0,3408.0,2945.0,2659.0,2939.0,2608.0,-1.15,9.24,7.18,-0.06,-0.04,-0.24,0.0,m
4095.0,1433.0,2946.0,3407.0,2939.0,2652.0,2933.0,2607.0,-1.74,9.24,7.35,-0.03,0.05,-0.17,0.0,m
4095.0,1430.0,2951.0,3409.0,2948.0,2662.0,2942.0,2609.0,-1.49,9.18,7.4,-0.01,0.04,-0.12,0.0,m
4095.0,1432.0,2938.0,3405.0,2939.0,2653.0,2929.0,2605.0,-1.46,9.26,7.32,0.06,0.03,-0.15,0.0,m
4095.0,1427.0,2954.0,3408.0,2949.0,2659.0,2943.0,2613.0,-1.29,9.25,7.2,0.03,0.01,-0.17,0.0,m
4095.0,1441.0,2939.0,3396.0,2943.0,2655.0,2929.0,2606.0,-1.55,9.26,7.28,-0.04,-0.09,-0.23,0.0,m
4095.0,1439.0,2949.0,3410.0,2946.0,2657.0,2938.0,2610.0,-1.49,9.24,7.08,0.02,-0.01,-0.18,0.0,m
4095.0,1438.0,2935.0,3401.0,2943.0,2653.0,2935.0,2607.0,-1.09,9.1,7.37,0.01,-0.08,-0.28,0.0,m
4095.0,1439.0,2942.0,3407.0,2946.0,2659.0,2943.0,2610.0,-2.0,9.12,7.43,0.0,-0.05,-0.29,0.0,m
4095.0,1435.0,2944.0,3408.0,2956.0,2658.0,2941.0,2611.0,-2.28,9.1,7.75,0.04,-0.09,-0.21,0.0,m
4095.0,1444.0,2943.0,3408.0,2942.0,2653.0,2930.0,2608.0,-1.89,9.16,7.25,0.08,-0.09,-0.12,0.0,m
4095.0,1435.0,2943.0,3410.0,2942.0,2661.0,2943.0,2611.0,-1.66,9.19,7.18,0.04,-0.08,-0.14,0.0,m
4095.0,1439.0,2934.0,3401.0,2944.0,2651.0,2937.0,2608.0,-1.83,9.21,7.18,0.01,-0.12,-0.17,0.0,m
4095.0,1429.0,2949.0,3412.0,2951.0,2657.0,2942.0,2613.0,-1.84,9.18,7.42,0.03,0.09,-0.16,0.0,m
4095.0,1439.0,2928.0,3408.0,2947.0,2657.0,2940.0,2608.0,-1.76,9.13,7.58,0.03,-0.06,-0.14,0.0,m
4095.0,1420.0,2944.0,3413.0,2948.0,2654.0,2944.0,2613.0,-1.64,9.45,6.77,0.05,-0.04,-0.29,0.0,m
4095.0,1409.0,2939.0,3418.0,2960.0,2663.0,2947.0,2615.0,-1.63,9.4,6.63,0.05,-0.09,-0.28,0.0,m
4095.0,1408.0,2938.0,3408.0,2946.0,2657.0,2934.0,2611.0,-2.03,9.37,6.62,0.02,-0.18,-0.32,0.0,m
4095.0,1414.0,2941.0,3414.0,2955.0,2661.0,2949.0,2624.0,-1.93,9.45,6.5,0.11,-0.19,-0.28,0.0,m
4095.0,1410.0,2947.0,3413.0,2950.0,2657.0,2929.0,2613.0,-1.88,9.24,7.03,-0.01,-0.0,-0.24,0.0,m
4095.0,1413.0,2938.0,3410.0,2951.0,2655.0,2939.0,2615.0,-1.66,9.24,6.72,0.12,-0.19,-0.31,0.0,m
4095.0,1426.0,2938.0,3415.0,2956.0,2659.0,2940.0,2621.0,-2.14,9.32,6.36,0.08,-0.15,-0.32,0.0,m
4095.0,1419.0,2944.0,3408.0,2951.0,2662.0,2941.0,2616.0,-2.93,9.28,6.82,0.04,-0.04,-0.29,0.0,m
4095.0,1424.0,2951.0,3422.0,2957.0,2661.0,2942.0,2618.0,-2.77,9.23,6.67,0.1,-0.01,-0.12,0.0,m
4095.0,1422.0,2949.0,3415.0,2954.0,2657.0,2941.0,2609.0,-2.06,9.32,6.35,0.04,-0.02,-0.04,0.0,m
4095.0,1408.0,2934.0,3419.0,2959.0,2663.0,2951.0,2625.0,-1.93,9.43,6.12,0.07,0.09,-0.04,0.0,m
4095.0,1413.0,2939.0,3413.0,2958.0,2658.0,2943.0,2619.0,-2.02,9.42,6.35,0.05,0.01,-0.14,0.0,m
4095.0,1424.0,2949.0,3423.0,2954.0,2661.0,2944.0,2622.0,-2.21,9.41,6.34,-0.02,0.01,-0.14,0.0,m
4095.0,1419.0,2932.0,3417.0,2949.0,2660.0,2930.0,2615.0,-1.83,9.37,6.37,-0.03,0.06,-0.19,0.0,m
4095.0,1410.0,2940.0,3420.0,2950.0,2669.0,2953.0,2624.0,-2.76,9.28,6.84,0.0,0.03,-0.16,0.0,m
4095.0,1421.0,2939.0,3409.0,2947.0,2654.0,2944.0,2618.0,-2.4,9.44,6.26,0.03,0.1,-0.02,0.0,m
4095.0,1419.0,2950.0,3429.0,2961.0,2655.0,2944.0,2639.0,-2.02,9.17,7.05,-0.08,0.24,0.03,0.0,m
4095.0,1414.0,2957.0,3431.0,2960.0,2663.0,2945.0,2623.0,-1.52,9.8,5.73,0.33,0.07,0.03,0.0,m
4095.0,1407.0,2943.0,3405.0,2955.0,2659.0,2945.0,2621.0,-1.02,9.51,5.28,-0.11,-0.14,-0.08,0.0,m
4095.0,1421.0,2948.0,3422.0,2954.0,2666.0,2945.0,2622.0,-2.59,9.04,8.2,-0.09,0.11,-0.16,0.0,m
4095.0,1422.0,2935.0,3430.0,2957.0,2662.0,2941.0,2618.0,-2.08,9.54,5.4,0.17,0.16,-0.03,0.0,m
4095.0,1428.0,2947.0,3431.0,2959.0,2665.0,2955.0,2626.0,-1.8,9.67,4.82,0.32,0.1,-0.08,0.0,m
4095.0,1424.0,2941.0,3434.0,2961.0,2663.0,2940.0,2618.0,-1.75,9.71,4.4,0.25,0.09,-0.08,0.0,m
4095.0,1420.0,2951.0,3430.0,2960.0,2671.0,2948.0,2622.0,-1.58,9.81,4.18,0.17,-0.03,-0.14,0.0,m
4095.0,1414.0,2935.0,3414.0,2955.0,2659.0,2942.0,2625.0,-1.62,9.65,4.48,0.01,-0.11,-0.18,0.0,m
4095.0,1423.0,2941.0,3427.0,2959.0,2664.0,2945.0,2626.0,-1.52,9.69,4.4,0.12,0.13,-0.09,0.0,m
4095.0,1424.0,2934.0,3421.0,2960.0,2651.0,2944.0,2615.0,-1.66,9.76,4.01,0.17,0.06,-0.19,0.0,m
4095.0,1430.0,2945.0,3433.0,2960.0,2659.0,2944.0,2623.0,-1.69,9.83,3.59,-0.02,0.01,-0.2,0.0,m
4095.0,1426.0,2942.0,3437.0,2963.0,2666.0,2944.0,2622.0,-1.96,9.8,4.07,0.01,0.05,-0.11,0.0,m
4095.0,1421.0,2937.0,3425.0,2957.0,2662.0,2951.0,2621.0,-1.23,9.62,4.29,0.06,-0.22,-0.19,0.0,m
4095.0,1437.0,2943.0,3439.0,2967.0,2672.0,2951.0,2620.0,-1.29,9.64,4.02,-0.03,-0.18,-0.23,0.0,m
4095.0,1427.0,2933.0,3423.0,2959.0,2664.0,2944.0,2623.0,-2.04,9.72,4.13,0.03,-0.0,-0.2,0.0,m
4095.0,1416.0,2946.0,3437.0,2966.0,2662.0,2940.0,2614.0,-1.56,9.67,4.1,-0.01,-0.1,-0.18,0.0,m
4095.0,1427.0,2941.0,3435.0,2960.0,2663.0,2947.0,2622.0,-1.78,9.6,4.44,-0.02,-0.05,-0.14,0.0,m
4095.0,1423.0,2938.0,3436.0,2963.0,2667.0,2946.0,2623.0,-1.74,9.7,4.24,-0.02,-0.05,-0.1,0.0,m
4095.0,1415.0,2937.0,3427.0,2960.0,2661.0,2944.0,2623.0,-1.47,9.63,4.15,0.06,0.07,-0.11,0.0,m
4095.0,1437.0,2948.0,3431.0,2960.0,2663.0,2955.0,2633.0,-1.95,9.65,4.44,-0.06,0.13,-0.11,0.0,m
4095.0,1427.0,2946.0,3429.0,2955.0,2665.0,2943.0,2624.0,-1.56,9.67,4.19,0.05,0.2,-0.05,0.0,m
4095.0,1434.0,2944.0,3440.0,2970.0,2669.0,2951.0,2624.0,-1.23,9.78,3.85,-0.06,-0.1,-0.07,0.0,m
4095.0,1426.0,2934.0,3427.0,2960.0,2666.0,2950.0,2627.0,-1.29,9.74,4.14,-0.03,0.16,-0.05,0.0,m
4095.0,4095.0,2945.0,3237.0,2817.0,2559.0,2975.0,2884.0,-1.28,9.74,4.41,-0.04,-0.02,0.01,0.0,m
4095.0,4095.0,2954.0,3242.0,2818.0,2559.0,2971.0,2880.0,-1.09,9.86,4.3,-0.03,0.2,0.02,0.0,m
4095.0,4095.0,2950.0,3243.0,2825.0,2581.0,2986.0,2887.0,-0.52,9.89,4.08,-0.14,0.16,0.15,0.0,m
4095.0,4095.0,2945.0,3218.0,2819.0,2559.0,2994.0,2882.0,-0.62,9.77,4.9,-0.06,0.0,-0.14,0.0,m
4095.0,4095.0,2949.0,3237.0,2829.0,2583.0,3001.0,2887.0,-0.32,9.84,4.55,-0.07,0.02,-0.14,0.0,m
4095.0,4095.0,2941.0,3222.0,2827.0,2587.0,3009.0,2895.0,-0.75,9.82,4.93,-0.14,-0.07,-0.14,0.0,m
4095.0,4095.0,2939.0,3232.0,2832.0,2581.0,2999.0,2888.0,-1.14,9.97,4.42,-0.27,0.14,-0.04,0.0,m
4095.0,4095.0,2955.0,3231.0,2832.0,2589.0,3007.0,2896.0,-0.17,9.83,5.78,-0.36,0.04,0.03,0.0,m
4095.0,4095.0,2947.0,3230.0,2831.0,2593.0,3008.0,2892.0,0.36,9.65,6.24,-0.12,0.02,-0.12,0.0,m
4095.0,4095.0,2951.0,3227.0,2830.0,2594.0,3019.0,2897.0,-0.27,9.83,5.71,-0.03,-0.09,-0.21,0.0,m
4095.0,4095.0,2947.0,3232.0,2831.0,2594.0,3009.0,2897.0,-0.44,9.76,5.91,-0.08,0.01,-0.17,0.0,m
4095.0,4095.0,2960.0,3246.0,2841.0,2602.0,3019.0,2896.0,-0.32,9.73,5.94,-0.06,-0.03,-0.16,0.0,m
4095.0,4095.0,2939.0,3233.0,2831.0,2599.0,3018.0,2896.0,-0.12,9.68,6.1,-0.1,0.03,-0.15,0.0,m
4095.0,4095.0,2959.0,3246.0,2838.0,2599.0,3018.0,2902.0,0.05,9.68,6.11,-0.06,-0.06,-0.17,0.0,m
4095.0,4095.0,2943.0,3231.0,2833.0,2597.0,3015.0,2896.0,-0.67,9.67,6.55,-0.14,-0.06,-0.19,0.0,m
4095.0,4095.0,2946.0,3238.0,2842.0,2609.0,3026.0,2900.0,-0.46,9.6,6.45,-0.02,-0.07,-0.21,0.0,m
4095.0,4095.0,2941.0,3235.0,2837.0,2594.0,3019.0,2897.0,-0.44,9.66,6.36,-0.03,-0.03,-0.19,0.0,m
4095.0,4095.0,2961.0,3245.0,2845.0,2608.0,3034.0,2896.0,-0.61,9.63,6.47,0.01,0.01,-0.18,0.0,m
4095.0,4095.0,2959.0,3241.0,2838.0,2601.0,3027.0,2907.0,-0.48,9.64,6.39,0.02,-0.01,-0.21,0.0,m
4095.0,4095.0,2950.0,3241.0,2839.0,2603.0,3025.0,2896.0,-0.71,9.7,6.16,0.02,-0.01,-0.14,0.0,m
4095.0,4095.0,2941.0,3257.0,2846.0,2614.0,3041.0,2896.0,-1.17,9.38,7.43,-0.11,-0.11,-0.39,0.0,m
4095.0,4095.0,2947.0,3255.0,2850.0,2613.0,3051.0,2909.0,-1.29,9.31,7.24,-0.08,-0.09,-0.34,0.0,m
4095.0,4095.0,2955.0,3257.0,2845.0,2609.0,3050.0,2900.0,-2.11,9.35,7.63,0.02,-0.12,-0.25,0.0,m
4095.0,4095.0,2951.0,3258.0,2845.0,2611.0,3041.0,2903.0,-0.86,9.18,6.88,-0.03,0.08,-0.18,0.0,m
4095.0,4095.0,2959.0,3255.0,2848.0,2610.0,3041.0,2908.0,-2.04,9.21,7.94,0.1,-0.09,-0.2,0.0,m
4095.0,4095.0,2946.0,3257.0,2851.0,2613.0,3039.0,2896.0,-1.26,9.32,6.76,0.02,0.08,-0.2,0.0,m
4095.0,4095.0,2953.0,3252.0,2851.0,2621.0,3052.0,2910.0,-0.97,9.09,7.3,-0.01,-0.25,-0.31,0.0,m
4095.0,4095.0,2957.0,3259.0,2851.0,2614.0,3045.0,2896.0,-2.01,9.01,7.88,0.01,0.02,-0.37,0.0,m
4095.0,4095.0,2953.0,3267.0,2858.0,2623.0,3054.0,2903.0,-2.55,9.5,6.99,0.32,-0.19,-0.32,0.0,m
4095.0,4095.0,2945.0,3253.0,2849.0,2615.0,3042.0,2911.0,-1.96,9.29,6.51,-0.15,-0.07,-0.21,0.0,m
4095.0,4095.0,2960.0,3269.0,2859.0,2615.0,3045.0,2909.0,-2.64,8.97,8.17,0.01,-0.02,-0.08,0.0,m
4095.0,4095.0,2947.0,3258.0,2851.0,2613.0,3053.0,2903.0,-1.27,8.9,8.18,0.14,-0.14,-0.12,0.0,m
4095.0,4095.0,2950.0,3262.0,2862.0,2623.0,3056.0,2910.0,-1.96,9.46,6.14,0.59,-0.05,-0.26,0.0,m
4095.0,4095.0,2950.0,3263.0,2850.0,2619.0,3046.0,2906.0,-1.95,9.69,5.19,-0.09,-0.14,-0.21,0.0,m
4095.0,4095.0,2959.0,3275.0,2858.0,2626.0,3054.0,2905.0,-2.05,9.13,7.52,-0.19,-0.02,-0.18,0.0,m
4095.0,4095.0,2954.0,3273.0,2862.0,2626.0,3054.0,2903.0,-1.42,9.08,7.36,0.06,-0.15,-0.36,0.0,m
4095.0,4095.0,2954.0,3265.0,2858.0,2620.0,3045.0,2906.0,-2.43,9.39,5.99,0.08,-0.01,-0.29,0.0,m
4095.0,4095.0,2947.0,3280.0,2862.0,2623.0,3053.0,2911.0,-2.27,9.18,6.89,-0.15,-0.04,-0.19,0.0,m
4095.0,4095.0,2942.0,3261.0,2853.0,2619.0,3055.0,2907.0,-2.53,8.92,8.16,0.03,0.03,-0.14,0.0,m
4095.0,4095.0,2961.0,3269.0,2859.0,2624.0,3055.0,2912.0,-2.07,9.24,6.43,0.1,0.07,-0.21,0.0,m
4095.0,4095.0,2947.0,3282.0,2866.0,2634.0,3068.0,2918.0,-3.08,9.19,6.52,0.05,-0.05,-0.15,0.0,m
4095.0,4095.0,2947.0,3273.0,2863.0,2624.0,3058.0,2919.0,-2.62,9.24,6.12,0.09,0.02,-0.12,0.0,m
4095.0,4095.0,2947.0,3291.0,2876.0,2634.0,3059.0,2907.0,-2.58,9.13,6.31,0.03,0.01,-0.15,0.0,m
4095.0,4095.0,2945.0,3283.0,2870.0,2626.0,3053.0,2911.0,-2.71,9.23,6.09,0.07,-0.16,-0.26,0.0,m
4095.0,4095.0,2947.0,3285.0,2869.0,2638.0,3065.0,2917.0,-3.17,9.16,6.44,0.07,-0.06,-0.15,0.0,m
4095.0,4095.0,2946.0,3278.0,2864.0,2626.0,3061.0,2917.0,-2.5,9.19,6.06,0.07,-0.07,-0.12,0.0,m
4095.0,4095.0,2955.0,3287.0,2869.0,2634.0,3063.0,2919.0,-2.75,9.25,6.21,0.04,-0.02,-0.15,0.0,m
4095.0,4095.0,2949.0,3284.0,2864.0,2629.0,3056.0,2909.0,-2.71,9.28,5.99,0.08,-0.03,-0.15,0.0,m
4095.0,4095.0,2959.0,3284.0,2874.0,2628.0,3069.0,2921.0,-2.18,9.16,6.16,-0.13,0.03,-0.3,0.0,m
4095.0,4095.0,2951.0,3287.0,2867.0,2631.0,3068.0,2921.0,-3.57,9.19,6.27,0.09,-0.19,-0.26,0.0,m
4095.0,4095.0,2955.0,3281.0,2874.0,2631.0,3061.0,2919.0,-3.03,9.19,6.07,0.02,0.05,-0.13,0.0,m
4095.0,4095.0,2959.0,3285.0,2873.0,2633.0,3067.0,2927.0,-2.97,9.17,6.33,0.03,-0.01,-0.15,0.0,m
4095.0,4095.0,2948.0,3293.0,2874.0,2629.0,3063.0,2918.0,-3.07,9.17,6.2,0.09,0.01,-0.15,0.0,m
4095.0,4095.0,2946.0,3291.0,2872.0,2635.0,3071.0,2927.0,-3.05,9.25,5.84,0.08,0.04,-0.11,0.0,m
4095.0,4095.0,2946.0,3291.0,2877.0,2628.0,3057.0,2913.0,-2.66,9.28,5.69,-0.02,0.04,-0.11,0.0,m
4095.0,4095.0,2947.0,3295.0,2883.0,2637.0,3069.0,2916.0,-3.14,9.23,6.35,-0.01,-0.02,-0.17,0.0,m
4095.0,4095.0,2947.0,3283.0,2867.0,2630.0,3059.0,2914.0,-3.01,9.25,5.91,0.05,0.06,-0.07,0.0,m
4095.0,4095.0,2941.0,3293.0,2870.0,2630.0,3071.0,2919.0,-2.61,9.16,6.27,0.06,0.09,-0.01,0.0,m
4095.0,4095.0,2947.0,3280.0,2869.0,2635.0,3065.0,2913.0,-2.37,9.28,5.83,0.17,-0.04,-0.11,0.0,m
4095.0,4095.0,2955.0,3293.0,2875.0,2635.0,3069.0,2924.0,-2.8,9.45,5.38,0.14,-0.06,-0.15,0.0,m
4095.0,4095.0,2958.0,3291.0,2882.0,2640.0,3081.0,2928.0,-1.88,9.59,4.82,0.15,-0.06,-0.13,0.0,m
4095.0,4095.0,2938.0,3286.0,2870.0,2634.0,3062.0,2913.0,-1.9,9.72,4.5,0.14,0.09,-0.03,0.0,m
4095.0,4095.0,2947.0,3287.0,2875.0,2640.0,3071.0,2924.0,-1.88,9.73,4.78,0.03,0.16,-0.05,0.0,m
4095.0,4095.0,2957.0,3291.0,2876.0,2639.0,3069.0,2918.0,-1.5,9.67,4.68,0.05,0.11,0.0,0.0,m
4095.0,4095.0,2944.0,3289.0,2885.0,2644.0,3071.0,2918.0,-1.07,9.72,4.53,-0.01,0.14,-0.04,0.0,m
4095.0,4095.0,2946.0,3303.0,2869.0,2631.0,3061.0,2918.0,-0.91,9.7,4.7,0.05,-0.03,-0.2,0.0,m
4095.0,4095.0,2945.0,3290.0,2875.0,2635.0,3079.0,2928.0,-1.81,9.79,4.7,0.02,-0.16,-0.24,0.0,m
4095.0,4095.0,2939.0,3281.0,2866.0,2629.0,3070.0,2926.0,-1.58,9.78,4.56,0.06,-0.04,-0.14,0.0,m
4095.0,4095.0,2957.0,3282.0,2871.0,2633.0,3066.0,2917.0,-1.29,9.74,4.45,0.06,0.04,-0.14,0.0,m
4095.0,4095.0,2946.0,3293.0,2885.0,2640.0,3071.0,2919.0,-1.7,9.73,4.54,0.03,-0.1,-0.18,0.0,m
4095.0,4095.0,2953.0,3285.0,2874.0,2635.0,3066.0,2921.0,-1.55,9.74,4.44,0.0,0.01,-0.12,0.0,m
4095.0,4095.0,2957.0,3297.0,2880.0,2641.0,3071.0,2928.0,-1.23,9.74,4.48,-0.03,-0.03,-0.15,0.0,m
4095.0,4095.0,2951.0,3293.0,2879.0,2636.0,3066.0,2914.0,-1.45,9.66,4.84,0.01,-0.05,-0.14,0.0,m
4095.0,4095.0,2943.0,3294.0,2881.0,2639.0,3081.0,2928.0,-1.28,9.82,4.23,0.11,-0.04,-0.15,0.0,m
4095.0,4095.0,2941.0,3293.0,2874.0,2635.0,3071.0,2927.0,-1.56,9.73,4.48,0.03,-0.08,-0.24,0.0,m
4095.0,4095.0,2945.0,3290.0,2879.0,2638.0,3086.0,2929.0,-2.12,9.9,4.19,0.05,-0.11,-0.15,0.0,m
4095.0,4095.0,2955.0,3289.0,2880.0,2635.0,3071.0,2923.0,-1.37,9.72,4.67,0.01,0.05,-0.06,0.0,m
4095.0,4095.0,2960.0,3302.0,2879.0,2635.0,3081.0,2925.0,-1.21,9.79,4.23,0.04,0.03,-0.11,0.0,m
4095.0,4095.0,2945.0,3285.0,2878.0,2639.0,3071.0,2921.0,-1.33,9.73,4.44,0.0,0.13,-0.1,0.0,m
4095.0,4095.0,2962.0,3299.0,2882.0,2640.0,3071.0,2926.0,-1.28,9.8,4.28,-0.01,0.1,-0.07,0.0,m
4095.0,4095.0,2947.0,3293.0,2891.0,2640.0,3088.0,2930.0,-1.01,9.73,4.26,-0.02,-0.04,-0.08,0.0,m
4095.0,4095.0,2954.0,3280.0,2887.0,2631.0,3069.0,2921.0,-0.98,9.96,3.84,-0.07,0.1,0.02,0.0,m
4095.0,4095.0,2960.0,3285.0,2886.0,2640.0,3071.0,2931.0,0.25,9.79,4.19,-0.07,0.29,0.01,0.0,m
4095.0,4095.0,2948.0,3287.0,2886.0,2637.0,3071.0,2929.0,-0.29,9.79,4.45,-0.03,0.01,-0.16,0.0,m
4095.0,4095.0,2960.0,3296.0,2898.0,2645.0,3087.0,2933.0,-0.44,9.88,4.11,-0.01,-0.06,-0.2,0.0,m
4095.0,4095.0,2959.0,3283.0,2892.0,2640.0,3071.0,2928.0,-0.61,9.91,4.19,-0.01,-0.07,-0.19,0.0,m
4095.0,4095.0,2939.0,3279.0,2889.0,2640.0,3083.0,2928.0,-0.68,9.91,4.32,0.01,0.05,-0.12,0.0,m
4095.0,4095.0,2950.0,3288.0,2892.0,2646.0,3088.0,2931.0,-0.47,9.89,4.4,0.0,0.04,-0.08,0.0,m
4095.0,4095.0,2938.0,3278.0,2891.0,2640.0,3083.0,2926.0,-0.59,9.85,4.42,0.03,-0.0,-0.12,0.0,m
4095.0,4095.0,2951.0,3291.0,2896.0,2643.0,3087.0,2929.0,-0.29,9.84,4.29,0.01,-0.0,-0.1,0.0,m
4095.0,4095.0,2955.0,3280.0,2891.0,2643.0,3087.0,2925.0,-0.41,9.88,4.2,0.01,-0.03,-0.12,0.0,m
4095.0,4095.0,2950.0,3280.0,2895.0,2654.0,3088.0,2929.0,-0.51,9.99,4.1,-0.05,-0.09,-0.13,0.0,m
4095.0,4095.0,2956.0,3286.0,2893.0,2641.0,3086.0,2924.0,-0.4,9.9,4.47,-0.04,0.12,-0.08,0.0,m
4095.0,4095.0,2960.0,3291.0,2892.0,2645.0,3088.0,2938.0,-0.25,9.91,4.42,-0.03,0.03,-0.11,0.0,m
4095.0,4095.0,2946.0,3279.0,2887.0,2642.0,3086.0,2933.0,-0.27,9.94,4.46,-0.02,0.06,-0.12,0.0,m
4095.0,4095.0,2951.0,3293.0,2896.0,2647.0,3088.0,2929.0,0.06,9.85,4.51,-0.05,-0.12,-0.16,0.0,m
4095.0,4095.0,2950.0,3280.0,2884.0,2640.0,3084.0,2928.0,-0.17,9.93,4.55,-0.04,0.03,-0.12,0.0,m
4095.0,4095.0,2950.0,3284.0,2895.0,2641.0,3088.0,2933.0,-0.25,9.89,4.68,-0.06,-0.15,-0.14,0.0,m
4095.0,4095.0,2950.0,3286.0,2896.0,2650.0,3093.0,2933.0,-0.37,9.91,4.9,-0.04,0.06,-0.08,0.0,m
4095.0,4095.0,2957.0,3280.0,2887.0,2641.0,3081.0,2928.0,0.18,9.96,4.48,-0.03,0.07,-0.07,0.0,m
4095.0,4095.0,2959.0,3296.0,2901.0,2650.0,3093.0,2933.0,0.01,9.91,4.97,-0.08,-0.07,-0.08,0.0,m
4095.0,4095.0,2945.0,3283.0,2893.0,2643.0,3084.0,2922.0,0.13,9.78,5.05,-0.08,0.09,-0.05,0.0,m
4095.0,4095.0,2944.0,3290.0,2896.0,2646.0,3088.0,2935.0,0.3,9.83,5.26,-0.11,-0.08,-0.09,0.0,m
4095.0,4095.0,2945.0,3284.0,2887.0,2643.0,3088.0,2929.0,0.4,9.81,5.33,-0.05,0.05,-0.11,0.0,m
4095.0,4095.0,2944.0,3287.0,2897.0,2648.0,3090.0,2929.0,0.24,9.9,5.3,-0.05,-0.01,-0.13,0.0,m
4095.0,4095.0,2951.0,3289.0,2896.0,2641.0,3082.0,2927.0,0.3,9.86,5.28,-0.03,0.1,-0.08,0.0,m
4095.0,4095.0,2950.0,3287.0,2896.0,2648.0,3091.0,2930.0,0.56,9.79,5.23,-0.07,0.04,-0.07,0.0,m
4095.0,4095.0,2939.0,3280.0,2887.0,2653.0,3089.0,2928.0,0.57,9.77,5.58,-0.08,-0.0,-0.11,0.0,m
4095.0,4095.0,2939.0,3280.0,2891.0,2643.0,3088.0,2929.0,0.74,9.73,5.37,-0.09,-0.05,-0.09,0.0,m
4095.0,4095.0,2947.0,3287.0,2896.0,2646.0,3097.0,2931.0,0.5,9.82,5.66,-0.04,0.09,-0.11,0.0,m
4095.0,4095.0,2941.0,3282.0,2893.0,2643.0,3088.0,2929.0,0.48,9.77,5.83,-0.05,0.04,-0.11,0.0,m
4095.0,4095.0,2958.0,3289.0,2895.0,2643.0,3090.0,2932.0,0.63,9.84,5.56,-0.03,-0.0,-0.08,0.0,m
4095.0,4095.0,2945.0,3280.0,2890.0,2650.0,3094.0,2928.0,0.78,9.79,5.83,-0.13,0.03,-0.12,0.0,m
4095.0,4095.0,2950.0,3297.0,2904.0,2654.0,3093.0,2931.0,0.83,9.67,6.08,-0.04,-0.08,-0.15,0.0,m
4095.0,4095.0,2950.0,3282.0,2893.0,2642.0,3093.0,2928.0,0.68,9.78,5.88,-0.02,0.08,-0.15,0.0,m
4095.0,4095.0,2954.0,3298.0,2903.0,2655.0,3099.0,2929.0,0.71,9.75,5.98,-0.05,-0.01,-0.16,0.0,m
4095.0,4095.0,2957.0,3297.0,2894.0,2642.0,3089.0,2927.0,0.82,9.68,6.11,-0.09,-0.12,-0.19,0.0,m
4095.0,4095.0,2945.0,3301.0,2896.0,2646.0,3104.0,2939.0,0.61,9.69,6.35,-0.06,-0.01,-0.16,0.0,m
4095.0,4095.0,2950.0,3295.0,2896.0,2647.0,3090.0,2928.0,0.55,9.69,6.39,-0.02,0.05,-0.16,0.0,m
4095.0,4095.0,2949.0,3303.0,2903.0,2652.0,3095.0,2931.0,0.95,9.67,6.17,-0.04,-0.05,-0.18,0.0,m
4095.0,4095.0,2953.0,3303.0,2903.0,2655.0,3094.0,2928.0,0.75,9.65,6.34,-0.05,-0.01,-0.21,0.0,m
4095.0,4095.0,2946.0,3296.0,2896.0,2642.0,3094.0,2928.0,0.38,9.63,6.66,-0.06,-0.01,-0.23,0.0,m
4095.0,4095.0,2959.0,3310.0,2906.0,2647.0,3102.0,2931.0,0.27,9.67,6.64,-0.03,-0.01,-0.23,0.0,m
4095.0,4095.0,2950.0,3295.0,2897.0,2651.0,3099.0,2928.0,0.56,9.55,6.63,-0.05,-0.09,-0.18,0.0,m
4095.0,4095.0,2949.0,3305.0,2906.0,2654.0,3097.0,2931.0,0.16,9.57,6.99,-0.02,-0.06,-0.2,0.0,m
4095.0,4095.0,2955.0,3299.0,2897.0,2651.0,3093.0,2931.0,0.34,9.63,6.54,-0.02,0.01,-0.18,0.0,m
4095.0,4095.0,2955.0,3309.0,2912.0,2657.0,3100.0,2933.0,0.33,9.54,6.78,-0.06,-0.06,-0.2,0.0,m
4095.0,4095.0,2953.0,3301.0,2899.0,2649.0,3101.0,2928.0,0.17,9.51,6.99,-0.06,-0.11,-0.2,0.0,m
4095.0,4095.0,2954.0,3309.0,2907.0,2658.0,3105.0,2929.0,0.21,9.52,6.91,0.01,0.01,-0.18,0.0,m
4095.0,4095.0,2946.0,3299.0,2901.0,2651.0,3095.0,2928.0,0.44,9.51,6.85,-0.02,-0.01,-0.25,0.0,m
4095.0,4095.0,2950.0,3294.0,2895.0,2647.0,3093.0,2930.0,-0.02,9.52,7.07,0.01,-0.1,-0.3,0.0,m
4095.0,4095.0,2963.0,3310.0,2907.0,2651.0,3091.0,2929.0,-0.12,9.52,6.92,-0.02,-0.06,-0.23,0.0,m
4095.0,4095.0,2949.0,3298.0,2899.0,2654.0,3101.0,2931.0,-0.08,9.54,7.06,-0.02,-0.04,-0.19,0.0,m
4095.0,4095.0,2954.0,3314.0,2906.0,2652.0,3102.0,2934.0,0.03,9.46,7.14,-0.02,-0.03,-0.23,0.0,m
4095.0,4095.0,2955.0,3308.0,2910.0,2653.0,3095.0,2929.0,-0.19,9.47,7.06,0.01,-0.04,-0.22,0.0,m
4095.0,4095.0,2959.0,3317.0,2906.0,2656.0,3106.0,2939.0,-0.08,9.49,7.0,0.01,-0.04,-0.21,0.0,m
4095.0,4095.0,2957.0,3308.0,2904.0,2647.0,3099.0,2931.0,-0.21,9.43,7.28,-0.01,-0.09,-0.27,0.0,m
4095.0,4095.0,2945.0,3313.0,2911.0,2655.0,3100.0,2933.0,-0.35,9.46,6.99,-0.01,-0.14,-0.27,0.0,m
4095.0,4095.0,2941.0,3307.0,2902.0,2658.0,3099.0,2937.0,-0.08,9.36,7.08,-0.02,-0.06,-0.28,0.0,m
4095.0,4095.0,2955.0,3309.0,2911.0,2660.0,3100.0,2934.0,-0.74,9.46,7.19,0.01,-0.03,-0.26,0.0,m
4095.0,4095.0,2956.0,3308.0,2909.0,2659.0,3106.0,2941.0,-0.81,9.26,7.46,-0.04,-0.05,-0.25,0.0,m
4095.0,4095.0,2938.0,3307.0,2910.0,2657.0,3104.0,2931.0,-0.91,9.2,7.48,-0.04,-0.07,-0.34,0.0,m
4095.0,4095.0,2960.0,3306.0,2909.0,2653.0,3111.0,2944.0,-1.78,9.25,7.69,0.01,0.01,-0.26,0.0,m
4095.0,4095.0,2944.0,3303.0,2903.0,2655.0,3101.0,2935.0,-1.29,9.21,7.52,-0.0,-0.08,-0.19,0.0,m
4095.0,4095.0,2954.0,3294.0,2911.0,2659.0,3111.0,2944.0,-1.36,9.22,7.5,-0.01,-0.04,-0.2,0.0,m
4095.0,4095.0,2944.0,3312.0,2905.0,2654.0,3099.0,2932.0,-1.6,9.21,7.56,0.01,0.01,-0.14,0.0,m
4095.0,4095.0,2960.0,3313.0,2913.0,2661.0,3107.0,2942.0,-1.36,9.24,7.52,0.04,0.05,-0.1,0.0,m
4095.0,4095.0,2953.0,3299.0,2907.0,2653.0,3099.0,2938.0,-1.13,9.19,7.42,0.0,0.02,-0.19,0.0,m
4095.0,4095.0,2955.0,3312.0,2913.0,2658.0,3113.0,2943.0,-1.43,9.28,7.32,-0.01,-0.1,-0.2,0.0,m
4095.0,4095.0,2947.0,3311.0,2911.0,2659.0,3109.0,2944.0,-1.51,9.2,7.72,-0.02,-0.02,-0.19,0.0,m
4095.0,4095.0,2949.0,3306.0,2910.0,2655.0,3102.0,2937.0,-1.45,9.27,7.44,0.03,0.0,-0.29,0.0,m
4095.0,4095.0,2960.0,3312.0,2914.0,2662.0,3105.0,2941.0,-1.66,9.14,7.85,-0.01,0.03,-0.26,0.0,m
4095.0,4095.0,2949.0,3303.0,2908.0,2656.0,3104.0,2939.0,-1.96,9.07,7.8,-0.03,0.02,-0.22,0.0,m
4095.0,4095.0,2954.0,3306.0,2910.0,2658.0,3111.0,2945.0,-2.33,9.3,6.97,0.04,0.02,-0.09,0.0,m
4095.0,4095.0,2944.0,3305.0,2911.0,2657.0,3106.0,2943.0,-1.64,9.24,7.89,-0.26,0.51,-0.15,0.0,m
4095.0,4095.0,2949.0,3319.0,2919.0,2666.0,3107.0,2940.0,-1.29,8.55,8.28,-0.3,0.18,-0.28,0.0,m
4095.0,4095.0,2947.0,3306.0,2909.0,2654.0,3105.0,2931.0,-2.79,8.78,8.44,-0.15,0.08,-0.25,0.0,m
4095.0,4095.0,2959.0,3313.0,2916.0,2658.0,3105.0,2947.0,-1.65,8.93,7.56,-0.24,0.01,-0.04,0.0,m
4095.0,4095.0,2941.0,3301.0,2910.0,2658.0,3101.0,2937.0,-1.33,8.35,8.99,-0.28,0.06,-0.31,0.0,m
4095.0,4095.0,2963.0,3309.0,2924.0,2670.0,3109.0,2935.0,-2.35,8.25,9.69,-0.09,-0.0,-0.44,0.0,m
4095.0,4095.0,2960.0,3328.0,2931.0,2667.0,3117.0,2942.0,-3.67,8.55,8.61,0.2,0.04,-0.15,0.0,m
4095.0,4095.0,2951.0,3318.0,2928.0,2667.0,3115.0,2934.0,-3.14,8.5,7.75,0.2,0.3,0.05,0.0,m
4095.0,4095.0,2950.0,3323.0,2932.0,2672.0,3118.0,2937.0,-2.25,8.58,8.09,0.14,-0.05,-0.01,0.0,m
4095.0,4095.0,2945.0,3314.0,2927.0,2670.0,3120.0,2937.0,-2.73,8.73,7.83,0.15,0.07,-0.14,0.0,m
4095.0,4095.0,2953.0,3315.0,2927.0,2669.0,3130.0,2947.0,-2.79,8.8,7.53,0.19,-0.06,-0.08,0.0,m
4095.0,4095.0,2947.0,3315.0,2922.0,2666.0,3119.0,2941.0,-2.44,8.83,7.67,0.14,0.04,-0.22,0.0,m
4095.0,4095.0,2939.0,3319.0,2930.0,2672.0,3121.0,2943.0,-3.06,8.97,7.21,0.18,-0.09,-0.22,0.0,m
4095.0,4095.0,2949.0,3315.0,2928.0,2665.0,3120.0,2943.0,-2.84,8.92,7.18,0.09,0.01,-0.19,0.0,m
4095.0,4095.0,2947.0,3318.0,2923.0,2671.0,3126.0,2935.0,-2.91,8.91,7.29,0.07,-0.02,-0.14,0.0,m
4095.0,4095.0,2959.0,3319.0,2931.0,2674.0,3121.0,2940.0,-2.76,8.93,7.23,0.06,-0.11,-0.15,0.0,m
4095.0,4095.0,2959.0,3324.0,2928.0,2665.0,3118.0,2928.0,-2.75,8.86,7.3,0.1,0.01,-0.19,0.0,m
4095.0,4095.0,2959.0,3330.0,2934.0,2677.0,3129.0,2938.0,-3.02,9.05,6.88,0.17,-0.1,-0.18,0.0,m
4095.0,4095.0,2955.0,3316.0,2934.0,2672.0,3130.0,2928.0,-2.51,8.96,6.79,0.03,-0.06,-0.15,0.0,m
4095.0,4095.0,2953.0,3327.0,2946.0,2691.0,3141.0,2928.0,-2.82,8.99,6.88,0.03,-0.08,-0.24,0.0,m
4095.0,4095.0,2939.0,3318.0,2943.0,2683.0,3136.0,2921.0,-3.28,8.99,7.22,0.06,-0.06,-0.23,0.0,m
4095.0,4095.0,2949.0,3296.0,2949.0,2698.0,3127.0,2896.0,-2.91,9.09,6.93,0.15,-0.07,-0.13,0.0,m
4095.0,4095.0,2937.0,3283.0,2931.0,2688.0,3120.0,2886.0,-2.93,9.01,6.59,0.14,-0.01,-0.17,0.0,m
4095.0,4095.0,2960.0,3310.0,2947.0,2699.0,3123.0,2896.0,-2.92,9.06,6.6,0.04,-0.04,-0.18,0.0,m
4095.0,4095.0,2943.0,3302.0,2939.0,2694.0,3119.0,2896.0,-3.28,9.1,6.78,0.03,-0.08,-0.16,0.0,m
4095.0,4095.0,2961.0,3305.0,2950.0,2702.0,3120.0,2896.0,-3.11,9.09,6.65,0.08,0.09,0.0,0.0,m
4095.0,4095.0,2951.0,3312.0,2957.0,2706.0,3133.0,2904.0,-2.63,9.31,6.25,0.06,0.04,0.04,0.0,m
4095.0,4095.0,2959.0,3315.0,2962.0,2710.0,3135.0,2918.0,-2.33,9.41,6.14,0.07,0.14,0.14,0.0,m
4095.0,4095.0,2945.0,3312.0,2954.0,2707.0,3135.0,2912.0,-1.87,9.43,6.27,0.07,0.12,0.05,0.0,m
4095.0,4095.0,2945.0,3313.0,2956.0,2717.0,3115.0,2893.0,-1.69,9.51,5.88,0.08,0.03,-0.01,0.0,m
4095.0,4095.0,2939.0,3285.0,2948.0,2714.0,3103.0,2864.0,-1.72,9.47,6.23,0.02,-0.01,-0.07,0.0,m
4095.0,4095.0,2951.0,3302.0,2959.0,2727.0,3107.0,2858.0,-1.66,9.59,5.92,0.1,0.05,-0.07,0.0,m
4095.0,4095.0,2944.0,3281.0,2946.0,2717.0,3107.0,2860.0,-1.53,9.55,5.79,0.07,-0.04,-0.08,0.0,m
4095.0,4095.0,2958.0,3298.0,2955.0,2735.0,3115.0,2865.0,-1.37,9.72,5.51,0.04,0.08,-0.03,0.0,m
4095.0,4095.0,2950.0,3295.0,2949.0,2736.0,3115.0,2862.0,-1.4,9.77,5.73,-0.07,0.02,-0.03,0.0,m
4095.0,4095.0,2948.0,3295.0,2949.0,2735.0,3101.0,2839.0,-1.41,9.61,6.06,0.02,0.24,0.05,0.0,m
4095.0,4095.0,2957.0,3301.0,2955.0,2735.0,3101.0,2847.0,-0.77,9.7,5.84,0.01,0.09,-0.02,0.0,m
4095.0,4095.0,2945.0,3303.0,2947.0,2735.0,3108.0,2847.0,-1.15,9.74,5.9,0.04,0.03,-0.11,0.0,m
4095.0,4095.0,2957.0,3310.0,2960.0,2745.0,3112.0,2860.0,-1.08,9.72,5.71,-0.0,0.04,-0.1,0.0,m
4095.0,4095.0,2940.0,3311.0,2946.0,2722.0,3099.0,2849.0,-0.79,9.73,5.86,-0.06,0.06,-0.0,0.0,m
4095.0,4095.0,2958.0,3324.0,2950.0,2722.0,3107.0,2835.0,-0.85,9.61,6.19,-0.03,0.02,-0.03,0.0,m
4095.0,4095.0,2948.0,3316.0,2943.0,2717.0,3100.0,2837.0,-0.64,9.71,5.91,-0.01,0.08,-0.05,0.0,m
4095.0,4095.0,2948.0,3325.0,2955.0,2726.0,3117.0,2859.0,-0.64,9.73,5.92,0.02,0.11,-0.05,0.0,m
4095.0,4095.0,2951.0,3322.0,2951.0,2719.0,3103.0,2852.0,-0.78,9.79,6.09,0.02,0.2,-0.0,0.0,m
4095.0,4095.0,2943.0,3319.0,2960.0,2729.0,3111.0,2863.0,-0.15,9.78,5.88,-0.02,0.08,-0.04,0.0,m
4095.0,4095.0,2938.0,3326.0,2949.0,2725.0,3110.0,2867.0,-0.3,9.63,6.35,-0.04,0.04,-0.1,0.0,m
1327.0,946.0,2943.0,3470.0,2807.0,2492.0,2739.0,2464.0,-1.6,9.67,5.19,0.22,-0.01,-0.08,0.0,m
1337.0,954.0,2931.0,3440.0,2805.0,2497.0,2743.0,2470.0,-2.44,9.79,4.74,0.2,0.38,0.12,0.0,m
1339.0,954.0,2947.0,3447.0,2816.0,2507.0,2761.0,2476.0,-0.32,9.68,4.64,0.07,0.52,0.2,0.0,m
1325.0,957.0,2954.0,3420.0,2818.0,2510.0,2759.0,2471.0,-0.39,9.7,4.69,-0.02,0.0,-0.05,0.0,m
1338.0,945.0,2967.0,3457.0,2827.0,2510.0,2768.0,2478.0,-1.43,9.82,4.96,-0.07,-0.17,-0.17,0.0,m
1328.0,949.0,2941.0,3448.0,2819.0,2512.0,2770.0,2480.0,-1.28,9.87,4.83,0.09,0.16,0.02,0.0,m
1331.0,955.0,2958.0,3458.0,2829.0,2519.0,2782.0,2490.0,-0.23,9.9,4.41,0.02,0.01,-0.04,0.0,m
1343.0,953.0,2941.0,3451.0,2831.0,2515.0,2780.0,2480.0,-1.0,9.87,5.03,-0.12,-0.26,-0.16,0.0,m
1341.0,954.0,2958.0,3463.0,2837.0,2517.0,2791.0,2489.0,-0.26,9.79,4.94,0.05,-0.04,-0.1,0.0,m
1333.0,960.0,2941.0,3466.0,2833.0,2515.0,2798.0,2486.0,0.05,9.91,4.38,-0.03,-0.09,-0.17,0.0,m
1351.0,962.0,2947.0,3478.0,2848.0,2521.0,2809.0,2496.0,-0.76,9.78,5.31,-0.03,-0.06,-0.18,0.0,m
1347.0,961.0,2946.0,3469.0,2839.0,2528.0,2823.0,2506.0,-0.47,10.04,4.4,0.02,-0.02,-0.1,0.0,m
1345.0,962.0,2938.0,3474.0,2845.0,2525.0,2820.0,2499.0,-0.45,9.87,5.06,-0.09,-0.05,-0.09,0.0,m
1359.0,959.0,2943.0,3472.0,2853.0,2532.0,2830.0,2503.0,-0.41,9.79,5.33,-0.03,-0.01,-0.13,0.0,m
1358.0,958.0,2942.0,3462.0,2847.0,2527.0,2830.0,2506.0,-0.22,9.8,5.08,-0.02,-0.11,-0.21,0.0,m
1361.0,966.0,2943.0,3472.0,2852.0,2538.0,2839.0,2511.0,-0.55,9.8,5.28,0.08,-0.12,-0.21,0.0,m
1362.0,961.0,2939.0,3455.0,2850.0,2535.0,2833.0,2512.0,-0.38,9.88,4.8,0.05,-0.1,-0.23,0.0,m
1365.0,965.0,2947.0,3463.0,2863.0,2542.0,2848.0,2518.0,-0.99,9.85,5.23,-0.14,-0.1,-0.14,0.0,m
1372.0,976.0,2949.0,3454.0,2850.0,2540.0,2843.0,2524.0,-0.25,9.78,5.26,-0.02,0.02,-0.15,0.0,m
1379.0,962.0,2959.0,3463.0,2859.0,2544.0,2850.0,2526.0,-0.62,9.81,5.39,0.04,-0.15,-0.24,0.0,m
1395.0,977.0,2957.0,3483.0,2874.0,2559.0,2881.0,2557.0,-0.87,9.79,5.62,-0.0,-0.03,-0.2,0.0,m
1395.0,983.0,2939.0,3471.0,2869.0,2559.0,2878.0,2543.0,-1.07,9.81,5.53,0.01,-0.08,-0.16,0.0,m
1378.0,992.0,2950.0,3485.0,2868.0,2559.0,2887.0,2549.0,-0.79,9.76,5.67,-0.02,-0.05,-0.12,0.0,m
1379.0,987.0,2947.0,3472.0,2868.0,2559.0,2887.0,2550.0,-0.87,9.74,5.72,0.02,0.01,-0.12,0.0,m
1386.0,995.0,2941.0,3488.0,2879.0,2587.0,2897.0,2557.0,0.05,9.7,5.47,-0.08,-0.19,-0.2,0.0,m
1389.0,983.0,2941.0,3477.0,2870.0,2559.0,2880.0,2555.0,-1.01,9.42,5.96,-0.07,-0.25,-0.39,0.0,m
1373.0,992.0,2943.0,3486.0,2879.0,2587.0,2894.0,2559.0,-1.8,9.75,6.11,-0.03,-0.07,-0.19,0.0,m
1374.0,998.0,2943.0,3479.0,2878.0,2585.0,2890.0,2556.0,-0.78,9.73,5.71,0.03,0.05,0.01,0.0,m
1386.0,986.0,2953.0,3488.0,2880.0,2587.0,2895.0,2559.0,-0.7,9.76,5.62,-0.06,0.07,-0.11,0.0,m
1375.0,978.0,2942.0,3482.0,2880.0,2581.0,2895.0,2559.0,-0.87,9.54,6.32,-0.07,0.06,-0.18,0.0,m
1394.0,982.0,2951.0,3489.0,2881.0,2583.0,2896.0,2559.0,-0.99,9.7,5.93,0.05,0.03,-0.17,0.0,m
1392.0,988.0,2957.0,3486.0,2874.0,2559.0,2903.0,2559.0,-0.88,9.64,6.05,-0.03,-0.02,-0.15,0.0,m
1389.0,989.0,2944.0,3484.0,2878.0,2581.0,2896.0,2558.0,-1.53,9.59,6.81,-0.05,-0.7,-0.29,0.0,m
1392.0,986.0,2945.0,3489.0,2875.0,2587.0,2899.0,2559.0,-0.88,9.79,5.29,0.34,0.32,-0.09,0.0,m
1393.0,985.0,2944.0,3487.0,2881.0,2589.0,2899.0,2559.0,-0.8,9.76,5.62,-0.18,-0.23,-0.16,0.0,m
1394.0,995.0,2941.0,3502.0,2890.0,2595.0,2902.0,2559.0,-0.62,9.4,7.04,-0.21,-0.83,-0.3,0.0,m
1382.0,1001.0,2933.0,3494.0,2882.0,2587.0,2896.0,2559.0,-0.6,9.71,5.8,0.45,1.04,-0.13,0.0,m
1382.0,983.0,2959.0,3495.0,2883.0,2593.0,2910.0,2584.0,-1.5,9.74,6.05,-0.26,-0.75,-0.3,0.0,m
1391.0,991.0,2947.0,3490.0,2883.0,2593.0,2909.0,2587.0,-1.1,9.54,6.49,0.09,0.55,-0.02,0.0,m
1390.0,991.0,2950.0,3504.0,2887.0,2595.0,2912.0,2595.0,-1.19,9.67,6.24,0.08,0.04,-0.11,0.0,m
1394.0,998.0,2934.0,3519.0,2896.0,2601.0,2912.0,2599.0,-0.49,9.68,6.45,-0.07,0.2,-0.06,0.0,m
1391.0,986.0,2943.0,3505.0,2883.0,2595.0,2917.0,2603.0,-0.19,9.62,6.49,-0.08,-0.01,-0.06,0.0,m
1392.0,995.0,2945.0,3516.0,2893.0,2603.0,2919.0,2598.0,0.73,9.49,6.42,-0.03,0.34,-0.04,0.0,m
1394.0,998.0,2941.0,3505.0,2887.0,2599.0,2912.0,2597.0,-0.3,9.5,7.04,-0.03,-0.11,-0.22,0.0,m
1387.0,989.0,2951.0,3518.0,2896.0,2610.0,2919.0,2607.0,-0.74,9.65,6.72,-0.04,0.06,-0.12,0.0,m
1398.0,999.0,2948.0,3509.0,2892.0,2599.0,2917.0,2607.0,0.1,9.56,6.68,-0.13,0.06,-0.08,0.0,m
1392.0,1003.0,2938.0,3509.0,2896.0,2608.0,2918.0,2608.0,-0.14,9.41,7.35,-0.09,0.02,-0.13,0.0,m
1398.0,1006.0,2939.0,3507.0,2893.0,2603.0,2919.0,2601.0,-0.11,9.48,7.09,-0.02,0.04,-0.13,0.0,m
1393.0,994.0,2957.0,3510.0,2887.0,2608.0,2917.0,2605.0,-0.09,9.47,7.18,-0.07,-0.12,-0.18,0.0,m
1396.0,1002.0,2946.0,3519.0,2896.0,2607.0,2919.0,2606.0,0.04,9.46,7.04,-0.03,0.12,-0.14,0.0,m
1397.0,992.0,2942.0,3505.0,2892.0,2605.0,2919.0,2607.0,-0.07,9.39,7.37,-0.03,-0.05,-0.24,0.0,m
1394.0,1000.0,2951.0,3517.0,2896.0,2608.0,2928.0,2608.0,-0.32,9.45,7.17,-0.05,-0.1,-0.24,0.0,m
1397.0,995.0,2941.0,3505.0,2896.0,2605.0,2919.0,2607.0,-0.27,9.38,7.37,-0.05,-0.06,-0.23,0.0,m
1390.0,998.0,2950.0,3522.0,2896.0,2612.0,2921.0,2608.0,-0.45,9.41,7.32,0.01,-0.01,-0.19,0.0,m
1394.0,995.0,2939.0,3503.0,2896.0,2608.0,2917.0,2607.0,-0.3,9.33,7.44,-0.05,-0.02,-0.23,0.0,m
1390.0,999.0,2956.0,3513.0,2896.0,2614.0,2929.0,2608.0,-0.46,9.3,7.54,-0.02,-0.06,-0.25,0.0,m
1398.0,1008.0,2934.0,3509.0,2897.0,2608.0,2924.0,2607.0,-0.55,9.37,7.5,-0.05,-0.09,-0.32,0.0,m
1392.0,1010.0,2950.0,3520.0,2903.0,2614.0,2928.0,2617.0,-1.0,9.27,7.69,0.0,-0.02,-0.24,0.0,m
1397.0,999.0,2941.0,3509.0,2896.0,2610.0,2925.0,2608.0,-0.54,9.28,7.43,-0.0,-0.02,-0.16,0.0,m
1392.0,1001.0,2941.0,3520.0,2905.0,2618.0,2928.0,2613.0,-0.6,9.22,7.74,0.01,-0.11,-0.23,0.0,m
1406.0,1005.0,2954.0,3511.0,2899.0,2608.0,2924.0,2608.0,-0.85,9.23,7.66,0.01,-0.05,-0.2,0.0,m
1401.0,992.0,2951.0,3520.0,2901.0,2621.0,2928.0,2614.0,-1.03,9.21,7.67,0.05,-0.04,-0.2,0.0,m
1392.0,1006.0,2943.0,3515.0,2898.0,2609.0,2925.0,2606.0,-0.82,9.24,7.52,0.02,-0.02,-0.21,0.0,m
1392.0,1003.0,2944.0,3520.0,2903.0,2614.0,2930.0,2614.0,-1.25,9.19,7.77,-0.0,0.03,-0.29,0.0,m
1395.0,1002.0,2933.0,3513.0,2907.0,2609.0,2928.0,2609.0,-1.61,9.26,7.69,0.02,0.06,-0.2,0.0,m
1404.0,994.0,2950.0,3509.0,2905.0,2611.0,2927.0,2611.0,-1.08,9.21,7.58,0.03,-0.01,-0.17,0.0,m
1389.0,999.0,2939.0,3507.0,2897.0,2611.0,2928.0,2610.0,-1.26,9.15,7.66,-0.02,-0.01,-0.21,0.0,m
1402.0,996.0,2949.0,3519.0,2903.0,2617.0,2933.0,2613.0,-1.38,9.15,7.69,0.04,0.05,-0.16,0.0,m
1393.0,1006.0,2942.0,3507.0,2905.0,2617.0,2930.0,2613.0,-1.23,9.14,7.53,0.05,0.06,-0.22,0.0,m
1397.0,1003.0,2932.0,3511.0,2901.0,2613.0,2938.0,2618.0,-1.49,9.15,7.6,0.02,-0.04,-0.23,0.0,m
1405.0,1007.0,2949.0,3517.0,2910.0,2619.0,2929.0,2613.0,-1.54,9.08,7.74,0.02,-0.01,-0.25,0.0,m
1399.0,1002.0,2937.0,3513.0,2899.0,2611.0,2926.0,2608.0,-1.7,9.15,7.59,0.09,-0.04,-0.21,0.0,m
1405.0,992.0,2947.0,3521.0,2909.0,2615.0,2934.0,2615.0,-1.59,9.15,7.51,0.06,-0.03,-0.23,0.0,m
1396.0,993.0,2942.0,3520.0,2906.0,2611.0,2927.0,2612.0,-1.97,9.16,7.45,0.08,0.0,-0.2,0.0,m
1399.0,1001.0,2942.0,3525.0,2913.0,2618.0,2934.0,2618.0,-1.8,9.12,7.59,0.04,0.05,-0.18,0.0,m
1392.0,994.0,2939.0,3523.0,2903.0,2608.0,2928.0,2609.0,-1.84,9.12,7.5,0.1,0.07,-0.18,0.0,m
1392.0,992.0,2951.0,3527.0,2911.0,2623.0,2935.0,2614.0,-1.98,9.15,7.45,0.09,-0.01,-0.19,0.0,m
1395.0,1007.0,2951.0,3516.0,2909.0,2618.0,2929.0,2614.0,-2.04,9.15,7.42,0.22,0.02,-0.14,0.0,m
1393.0,1008.0,2941.0,3526.0,2915.0,2624.0,2938.0,2624.0,-1.64,9.3,6.63,0.21,0.02,-0.1,0.0,m
1395.0,996.0,2934.0,3519.0,2906.0,2621.0,2933.0,2614.0,-1.71,9.36,6.62,0.12,-0.05,-0.21,0.0,m
1394.0,993.0,2950.0,3525.0,2918.0,2624.0,2942.0,2623.0,-1.72,9.46,6.26,0.11,-0.04,-0.13,0.0,m
1399.0,1001.0,2943.0,3523.0,2910.0,2618.0,2930.0,2610.0,-1.78,9.44,6.22,0.04,0.03,-0.1,0.0,m
1398.0,1003.0,2947.0,3525.0,2914.0,2623.0,2934.0,2621.0,-1.71,9.48,6.31,0.07,-0.02,-0.12,0.0,m
1393.0,995.0,2942.0,3525.0,2911.0,2612.0,2928.0,2616.0,-1.77,9.48,6.35,0.02,-0.05,-0.17,0.0,m
1391.0,992.0,2960.0,3531.0,2914.0,2618.0,2934.0,2623.0,-1.86,9.48,6.25,0.04,-0.03,-0.14,0.0,m
1395.0,993.0,2944.0,3520.0,2911.0,2624.0,2933.0,2621.0,-1.89,9.49,6.3,0.04,-0.06,-0.13,0.0,m
1393.0,994.0,2950.0,3533.0,2915.0,2624.0,2943.0,2625.0,-1.6,9.55,5.99,-0.05,-0.13,-0.12,0.0,m
1392.0,999.0,2947.0,3517.0,2909.0,2618.0,2935.0,2623.0,-1.24,9.28,6.69,-0.05,-0.2,-0.16,0.0,m
1404.0,994.0,2946.0,3531.0,2918.0,2624.0,2938.0,2629.0,-1.29,9.4,6.61,-0.01,-0.15,-0.12,0.0,m
1401.0,998.0,2957.0,3536.0,2914.0,2624.0,2930.0,2625.0,-1.72,9.53,6.44,0.08,-0.09,-0.12,0.0,m
1407.0,992.0,2951.0,3526.0,2915.0,2623.0,2932.0,2624.0,-1.68,9.63,6.03,0.07,0.12,-0.06,0.0,m
1398.0,1008.0,2947.0,3531.0,2921.0,2621.0,2935.0,2633.0,-1.47,9.63,6.05,0.06,0.11,-0.06,0.0,m
1392.0,1005.0,2938.0,3522.0,2910.0,2623.0,2933.0,2624.0,-1.24,9.53,6.37,0.05,0.11,-0.11,0.0,m
1393.0,1005.0,2944.0,3534.0,2917.0,2622.0,2929.0,2623.0,-1.35,9.62,6.07,0.05,-0.12,-0.16,0.0,m
1392.0,1008.0,2941.0,3525.0,2909.0,2624.0,2929.0,2622.0,-1.43,9.65,5.98,0.02,0.08,-0.14,0.0,m
1397.0,1001.0,2947.0,3521.0,2915.0,2617.0,2937.0,2623.0,-1.46,9.56,6.32,0.03,0.03,-0.14,0.0,m
1393.0,1000.0,2937.0,3518.0,2913.0,2621.0,2931.0,2624.0,-1.39,9.67,5.9,0.06,0.06,-0.08,0.0,m
1392.0,995.0,2958.0,3532.0,2921.0,2625.0,2934.0,2629.0,-1.36,9.62,6.25,0.01,-0.09,-0.11,0.0,m
1399.0,991.0,2941.0,3524.0,2913.0,2621.0,2935.0,2624.0,-1.25,9.64,6.0,0.06,0.08,-0.05,0.0,m
1391.0,994.0,2958.0,3525.0,2922.0,2627.0,2951.0,2631.0,-1.09,9.64,6.01,0.0,0.03,-0.1,0.0,m
1394.0,1000.0,2943.0,3523.0,2919.0,2625.0,2942.0,2627.0,-0.99,9.67,5.91,0.0,0.07,-0.09,0.0,m
1407.0,1007.0,2944.0,3527.0,2921.0,2630.0,2947.0,2635.0,-0.8,9.58,6.15,0.01,0.0,-0.12,0.0,m
1395.0,991.0,2942.0,3529.0,2918.0,2626.0,2939.0,2623.0,-0.95,9.74,5.82,0.01,-0.03,-0.13,0.0,m
1394.0,997.0,2944.0,3526.0,2919.0,2625.0,2949.0,2633.0,-0.88,9.64,6.05,0.04,0.01,-0.13,0.0,m
1399.0,1005.0,2943.0,3527.0,2921.0,2626.0,2941.0,2624.0,-0.92,9.75,5.76,0.06,0.05,-0.12,0.0,m
1392.0,1002.0,2949.0,3534.0,2923.0,2633.0,2946.0,2630.0,-0.82,9.7,5.83,0.05,-0.03,-0.13,0.0,m
1403.0,1008.0,2943.0,3529.0,2915.0,2624.0,2939.0,2624.0,-1.05,9.77,5.71,0.08,0.02,-0.11,0.0,m
1393.0,997.0,2944.0,3524.0,2917.0,2626.0,2942.0,2635.0,-0.66,9.73,5.73,-0.0,0.07,-0.11,0.0,m
1391.0,1007.0,2935.0,3517.0,2913.0,2629.0,2944.0,2631.0,-0.82,9.73,5.77,0.07,-0.0,-0.14,0.0,m
1404.0,1003.0,2945.0,3535.0,2923.0,2625.0,2946.0,2634.0,-0.84,9.77,5.57,0.02,0.02,-0.11,0.0,m
1401.0,999.0,2951.0,3533.0,2928.0,2627.0,2945.0,2631.0,-0.48,9.68,5.79,-0.02,-0.05,-0.1,0.0,m
1405.0,994.0,2937.0,3520.0,2914.0,2623.0,2943.0,2630.0,-0.79,9.82,5.48,0.04,0.07,-0.11,0.0,m
1397.0,999.0,2949.0,3532.0,2923.0,2631.0,2951.0,2637.0,-0.66,9.75,5.75,0.02,0.12,-0.07,0.0,m
1405.0,994.0,2935.0,3523.0,2923.0,2631.0,2945.0,2629.0,-0.59,9.72,5.76,0.05,0.04,-0.12,0.0,m
1408.0,995.0,2938.0,3527.0,2919.0,2633.0,2950.0,2639.0,-0.59,9.78,5.51,0.02,-0.03,-0.06,0.0,m
1392.0,1003.0,2943.0,3523.0,2925.0,2631.0,2946.0,2627.0,-0.36,9.72,5.86,0.02,0.02,-0.11,0.0,m
1397.0,1008.0,2960.0,3536.0,2927.0,2630.0,2944.0,2637.0,-0.45,9.82,5.44,0.05,0.01,-0.13,0.0,m
1393.0,1008.0,2945.0,3525.0,2923.0,2630.0,2946.0,2631.0,-0.44,9.83,5.6,0.03,0.04,-0.11,0.0,m
1394.0,1008.0,2950.0,3533.0,2928.0,2629.0,2947.0,2634.0,-0.37,9.75,5.71,0.04,-0.01,-0.15,0.0,m
1403.0,1009.0,2934.0,3522.0,2924.0,2630.0,2945.0,2630.0,-0.23,9.88,5.22,-0.0,0.01,-0.12,0.0,m
1401.0,1005.0,2939.0,3549.0,2927.0,2638.0,2946.0,2630.0,-0.33,9.9,5.31,0.07,0.3,0.07,0.0,m
1395.0,995.0,2934.0,3532.0,2918.0,2625.0,2953.0,2631.0,0.33,9.74,5.55,-0.01,-0.01,-0.12,0.0,m
1402.0,1005.0,2948.0,3543.0,2928.0,2631.0,2944.0,2635.0,-0.13,9.86,5.48,-0.0,-0.03,-0.16,0.0,m
1403.0,996.0,2950.0,3526.0,2919.0,2624.0,2950.0,2630.0,-0.38,9.92,5.39,0.02,0.02,-0.03,0.0,m
1402.0,1005.0,2934.0,3538.0,2929.0,2637.0,2956.0,2634.0,0.43,9.79,5.48,-0.06,0.1,0.05,0.0,m
1393.0,1001.0,2939.0,3535.0,2919.0,2629.0,2944.0,2638.0,0.35,9.79,5.69,0.02,-0.07,-0.08,0.0,m
1394.0,997.0,2938.0,3535.0,2930.0,2634.0,2953.0,2641.0,0.4,9.87,5.37,-0.03,-0.01,-0.06,0.0,m
1406.0,1005.0,2938.0,3523.0,2928.0,2633.0,2951.0,2636.0,0.74,9.76,5.75,-0.06,-0.29,-0.13,0.0,m
1390.0,1005.0,2941.0,3543.0,2928.0,2635.0,2951.0,2640.0,0.45,9.74,5.87,0.05,-0.07,-0.09,0.0,m
1392.0,991.0,2947.0,3533.0,2933.0,2641.0,2960.0,2637.0,0.34,9.85,5.63,-0.02,-0.29,-0.1,0.0,m
1401.0,997.0,2941.0,3536.0,2927.0,2627.0,2947.0,2634.0,0.48,9.98,5.29,0.04,-0.1,-0.04,0.0,m
1392.0,1009.0,2939.0,3537.0,2931.0,2639.0,2951.0,2639.0,1.34,9.62,5.95,0.02,-0.01,-0.12,0.0,m
1401.0,1008.0,2941.0,3533.0,2926.0,2629.0,2954.0,2639.0,0.71,9.89,5.41,0.04,-0.15,-0.13,0.0,m
1399.0,1008.0,2943.0,3548.0,2931.0,2629.0,2947.0,2646.0,1.24,9.74,5.51,-0.07,-0.44,-0.15,0.0,m
1402.0,1008.0,2945.0,3552.0,2928.0,2637.0,2953.0,2640.0,1.04,9.76,5.76,-0.01,-0.08,-0.14,0.0,m
1407.0,1006.0,2954.0,3548.0,2935.0,2640.0,2954.0,2641.0,1.31,9.8,5.44,-0.04,-0.14,-0.17,0.0,m
1399.0,990.0,2944.0,3530.0,2928.0,2634.0,2957.0,2640.0,1.15,9.71,5.87,-0.01,0.05,-0.16,0.0,m
1383.0,995.0,2941.0,3539.0,2933.0,2639.0,2947.0,2639.0,0.83,9.85,5.58,-0.05,-0.12,-0.2,0.0,m
1362.0,959.0,2939.0,3532.0,2955.0,2625.0,2867.0,2461.0,0.92,9.85,5.63,-0.05,-0.09,-0.19,0.0,m
1315.0,930.0,2943.0,3510.0,3056.0,2672.0,2888.0,2501.0,1.15,9.53,6.36,0.09,-0.16,-0.26,0.0,m
3455.0,3519.0,2961.0,3451.0,2851.0,2624.0,2749.0,2506.0,-0.21,9.96,5.25,-0.06,0.04,-0.03,0.0,m
3443.0,3506.0,2948.0,3442.0,2847.0,2625.0,2756.0,2505.0,0.33,9.7,6.08,-0.15,-0.05,-0.04,0.0,m
3459.0,3526.0,2953.0,3464.0,2865.0,2637.0,2758.0,2512.0,0.36,9.6,6.57,-0.12,-0.17,-0.13,0.0,m
3457.0,3511.0,2941.0,3450.0,2851.0,2636.0,2763.0,2515.0,0.14,9.72,6.2,-0.08,-0.02,-0.12,0.0,m
3454.0,3530.0,2960.0,3459.0,2859.0,2640.0,2766.0,2519.0,0.38,9.75,6.06,-0.11,0.08,-0.07,0.0,m
3455.0,3503.0,2945.0,3452.0,2853.0,2637.0,2768.0,2522.0,0.37,9.62,6.56,-0.27,-0.04,-0.13,0.0,m
3462.0,3521.0,2947.0,3471.0,2869.0,2646.0,2771.0,2528.0,0.3,9.48,7.17,-0.22,-0.02,-0.06,0.0,m
3463.0,3530.0,2959.0,3470.0,2867.0,2643.0,2771.0,2528.0,0.5,9.41,7.49,-0.17,0.04,-0.06,0.0,m
3440.0,3517.0,2947.0,3470.0,2864.0,2644.0,2771.0,2527.0,0.88,9.4,7.3,-0.06,0.1,-0.07,0.0,m
3463.0,3515.0,2955.0,3467.0,2867.0,2659.0,2794.0,2541.0,0.84,9.33,7.42,-0.17,-0.02,-0.17,0.0,m
3455.0,3531.0,2944.0,3472.0,2866.0,2653.0,2782.0,2538.0,0.52,9.3,7.7,-0.15,-0.05,-0.18,0.0,m
3468.0,3520.0,2959.0,3483.0,2865.0,2655.0,2793.0,2546.0,0.66,9.25,7.69,-0.12,-0.03,-0.18,0.0,m
3452.0,3513.0,2951.0,3471.0,2865.0,2655.0,2797.0,2545.0,0.83,9.29,7.65,-0.25,0.05,-0.3,0.0,m
3457.0,3522.0,2960.0,3487.0,2875.0,2659.0,2796.0,2549.0,0.34,9.1,8.27,-0.25,-0.1,-0.37,0.0,m
3463.0,3510.0,2944.0,3480.0,2867.0,2653.0,2787.0,2547.0,0.04,8.96,8.68,-0.07,0.09,-0.2,0.0,m
3471.0,3534.0,2959.0,3479.0,2877.0,2665.0,2800.0,2557.0,-0.09,8.99,8.6,-0.03,-0.0,-0.12,0.0,m
3450.0,3511.0,2958.0,3475.0,2867.0,2661.0,2788.0,2550.0,0.54,8.94,8.38,0.01,-0.06,-0.16,0.0,m
3451.0,3530.0,2958.0,3503.0,2877.0,2659.0,2799.0,2557.0,0.26,8.96,8.61,0.01,-0.07,-0.24,0.0,m
3440.0,3511.0,2955.0,3478.0,2874.0,2667.0,2794.0,2559.0,-0.04,9.02,8.34,0.04,-0.02,-0.22,0.0,m
3455.0,3536.0,2960.0,3489.0,2878.0,2667.0,2790.0,2556.0,-0.12,9.07,8.21,0.04,0.02,-0.18,0.0,m
3455.0,3531.0,2949.0,3503.0,2881.0,2673.0,2801.0,2559.0,-0.12,9.06,8.26,-0.05,-0.06,-0.26,0.0,m
3454.0,3536.0,2963.0,3520.0,2886.0,2674.0,2805.0,2579.0,-0.49,9.05,8.41,0.03,0.02,-0.23,0.0,m
3440.0,3534.0,2947.0,3504.0,2881.0,2673.0,2804.0,2559.0,-0.48,9.01,8.33,0.03,0.03,-0.16,0.0,m
3469.0,3517.0,2949.0,3504.0,2881.0,2678.0,2809.0,2559.0,-0.29,9.0,8.43,0.02,-0.01,-0.13,0.0,m
3450.0,3521.0,2941.0,3511.0,2890.0,2684.0,2811.0,2580.0,-0.08,9.04,8.22,0.06,0.0,-0.15,0.0,m
3472.0,3539.0,2963.0,3519.0,2887.0,2681.0,2814.0,2586.0,-0.29,9.03,8.34,0.04,-0.0,-0.18,0.0,m
3456.0,3536.0,2961.0,3518.0,2882.0,2679.0,2809.0,2590.0,-0.32,9.01,8.32,0.08,-0.04,-0.2,0.0,m
3453.0,3510.0,2942.0,3509.0,2885.0,2685.0,2811.0,2588.0,-0.67,9.14,8.16,0.12,0.02,-0.09,0.0,m
3470.0,3534.0,2955.0,3521.0,2889.0,2689.0,2812.0,2593.0,-0.32,9.12,8.09,0.18,0.04,-0.0,0.0,m
3458.0,3544.0,2939.0,3505.0,2880.0,2685.0,2813.0,2593.0,0.17,9.17,7.86,0.17,0.06,-0.04,0.0,m
3457.0,3541.0,2963.0,3523.0,2887.0,2693.0,2815.0,2599.0,0.04,9.35,7.35,0.19,-0.08,-0.19,0.0,m
3456.0,3535.0,2951.0,3523.0,2894.0,2688.0,2815.0,2597.0,-0.49,9.46,7.23,0.15,0.05,-0.15,0.0,m
3470.0,3536.0,2941.0,3517.0,2894.0,2698.0,2823.0,2602.0,-0.44,9.45,7.28,0.13,0.04,-0.03,0.0,m
3459.0,3534.0,2947.0,3520.0,2889.0,2694.0,2820.0,2601.0,0.19,9.43,7.21,0.04,0.06,-0.04,0.0,m
3450.0,3552.0,2957.0,3536.0,2896.0,2694.0,2822.0,2606.0,0.11,9.44,7.33,0.09,0.04,-0.09,0.0,m
3451.0,3536.0,2950.0,3521.0,2891.0,2695.0,2822.0,2603.0,0.13,9.46,7.22,0.07,0.02,-0.14,0.0,m
3470.0,3526.0,2949.0,3536.0,2901.0,2700.0,2827.0,2604.0,0.16,9.47,7.17,0.08,-0.03,-0.14,0.0,m
3456.0,3536.0,2944.0,3521.0,2891.0,2689.0,2819.0,2605.0,0.39,9.45,7.11,0.04,-0.04,-0.19,0.0,m
3472.0,3547.0,2945.0,3536.0,2891.0,2693.0,2826.0,2607.0,0.01,9.49,7.13,0.07,-0.03,-0.16,0.0,m
3471.0,3538.0,2946.0,3535.0,2897.0,2695.0,2827.0,2610.0,0.24,9.53,6.95,0.12,0.02,-0.14,0.0,m
3456.0,3553.0,2955.0,3534.0,2896.0,2703.0,2829.0,2614.0,0.23,9.66,6.3,0.06,-0.01,-0.23,0.0,m
3458.0,3536.0,2941.0,3534.0,2896.0,2693.0,2830.0,2611.0,-0.29,9.67,6.35,0.1,-0.04,-0.25,0.0,m
3470.0,3536.0,2954.0,3537.0,2900.0,2693.0,2832.0,2615.0,0.05,9.68,6.11,0.08,-0.04,-0.25,0.0,m
3453.0,3548.0,2953.0,3536.0,2898.0,2699.0,2825.0,2608.0,-0.36,9.71,6.17,0.08,-0.05,-0.22,0.0,m
3458.0,3541.0,2948.0,3538.0,2896.0,2697.0,2834.0,2620.0,-0.27,9.7,6.14,0.08,-0.02,-0.22,0.0,m
3443.0,3544.0,2944.0,3537.0,2905.0,2700.0,2831.0,2615.0,-0.44,9.72,6.13,0.06,-0.03,-0.25,0.0,m
3447.0,3536.0,2947.0,3526.0,2898.0,2699.0,2827.0,2619.0,-0.49,9.76,5.9,0.05,-0.05,-0.2,0.0,m
3472.0,3543.0,2960.0,3542.0,2899.0,2701.0,2831.0,2618.0,-0.64,9.72,6.09,0.0,-0.03,-0.23,0.0,m
3442.0,3543.0,2946.0,3534.0,2896.0,2700.0,2827.0,2612.0,-0.58,9.69,6.04,0.03,-0.04,-0.18,0.0,m
3459.0,3559.0,2957.0,3547.0,2897.0,2698.0,2828.0,2613.0,-0.46,9.68,6.04,-0.02,-0.04,-0.15,0.0,m
3458.0,3551.0,2947.0,3535.0,2898.0,2704.0,2829.0,2621.0,-0.81,9.75,6.09,0.02,-0.09,-0.19,0.0,m
3457.0,3555.0,2951.0,3551.0,2899.0,2695.0,2830.0,2619.0,-0.59,9.71,6.21,-0.01,-0.05,-0.21,0.0,m
3445.0,3537.0,2953.0,3538.0,2897.0,2701.0,2831.0,2618.0,-0.68,9.69,6.02,0.0,-0.05,-0.19,0.0,m
3461.0,3557.0,2949.0,3553.0,2903.0,2709.0,2839.0,2624.0,-0.63,9.67,6.02,-0.04,-0.02,-0.17,0.0,m
3449.0,3537.0,2944.0,3536.0,2903.0,2705.0,2839.0,2618.0,-0.7,9.6,6.45,-0.04,-0.03,-0.18,0.0,m
3479.0,3555.0,2959.0,3550.0,2899.0,2704.0,2840.0,2629.0,-0.53,9.61,6.18,-0.02,-0.09,-0.22,0.0,m
3442.0,3536.0,2947.0,3554.0,2901.0,2703.0,2835.0,2619.0,-0.49,9.57,6.3,-0.07,-0.13,-0.3,0.0,m
3457.0,3539.0,2949.0,3559.0,2912.0,2704.0,2834.0,2621.0,-1.24,9.58,6.52,-0.02,-0.12,-0.33,0.0,m
3470.0,3553.0,2960.0,3559.0,2910.0,2714.0,2844.0,2625.0,-1.09,9.48,6.45,-0.02,-0.15,-0.31,0.0,m
3460.0,3530.0,2955.0,3551.0,2907.0,2709.0,2841.0,2621.0,-1.61,9.63,6.22,0.02,-0.1,-0.17,0.0,m
