hall_1,hall_2,hall_3,flex_t,flex_i,flex_m,flex_r,flex_p,accel_x,accel_y,accel_z,gyro_x,gyro_y,gyro_z,hand,sign
3027.0,2609.0,2950.0,3439.0,2924.0,2586.0,3271.0,2384.0,-2.82,7.9,8.96,0.23,0.13,-0.28,0.0,m
3017.0,2768.0,2948.0,3443.0,2929.0,2592.0,3276.0,2384.0,-3.17,7.87,8.99,0.22,0.06,-0.2,0.0,m
3017.0,2831.0,2942.0,3440.0,2931.0,2599.0,3281.0,2398.0,-3.34,7.85,8.89,0.05,0.05,-0.17,0.0,m
3021.0,2833.0,2946.0,3440.0,2930.0,2602.0,3283.0,2407.0,-3.07,8.08,8.81,-0.02,0.0,-0.14,0.0,m
3022.0,2841.0,2951.0,3442.0,2937.0,2603.0,3287.0,2414.0,-3.08,7.99,8.64,-0.04,-0.06,-0.1,0.0,m
3019.0,2866.0,2944.0,3442.0,2937.0,2608.0,3285.0,2416.0,-2.6,8.1,9.25,0.0,-0.09,-0.16,0.0,m
3015.0,2940.0,2955.0,3446.0,2942.0,2602.0,3285.0,2400.0,-3.59,8.09,9.6,0.07,0.12,-0.1,0.0,m
3024.0,3206.0,2960.0,3440.0,2947.0,2603.0,3282.0,2390.0,-2.74,8.09,8.75,-0.01,0.14,-0.08,0.0,m
3015.0,3251.0,2940.0,3439.0,2950.0,2607.0,3281.0,2391.0,-2.83,8.01,8.91,0.06,-0.09,-0.18,0.0,m
3005.0,3255.0,2948.0,3437.0,2953.0,2603.0,3282.0,2398.0,-2.78,7.98,9.1,0.07,-0.03,-0.16,0.0,m
3009.0,3267.0,2952.0,3440.0,2951.0,2606.0,3285.0,2406.0,-3.24,8.17,8.77,0.02,0.03,-0.15,0.0,m
3009.0,3262.0,2939.0,3437.0,2949.0,2608.0,3281.0,2406.0,-3.05,8.17,8.79,0.03,-0.0,-0.11,0.0,m
3001.0,3264.0,2946.0,3435.0,2954.0,2607.0,3280.0,2407.0,-3.21,7.95,8.82,-0.01,-0.1,-0.02,0.0,m
3011.0,3262.0,2945.0,3447.0,2958.0,2609.0,3290.0,2413.0,-2.96,8.07,8.89,-0.02,-0.13,0.13,0.0,m
2997.0,3278.0,2947.0,3440.0,2949.0,2606.0,3280.0,2412.0,-2.01,8.36,8.87,0.06,-0.15,0.07,0.0,m
3010.0,3277.0,2951.0,3453.0,2955.0,2613.0,3287.0,2413.0,-2.1,8.27,9.66,-0.05,0.05,0.03,0.0,m
3011.0,3283.0,2938.0,3440.0,2951.0,2608.0,3283.0,2414.0,-1.61,8.44,9.14,0.01,0.01,-0.05,0.0,m
2992.0,3317.0,2947.0,3445.0,2957.0,2609.0,3285.0,2416.0,-1.6,8.32,9.3,0.04,-0.01,-0.07,0.0,m
2998.0,3367.0,2950.0,3441.0,2957.0,2608.0,3283.0,2416.0,-1.5,8.58,9.06,0.04,-0.0,-0.13,0.0,m
2992.0,3375.0,2957.0,3443.0,2958.0,2613.0,3286.0,2406.0,-1.71,8.29,8.9,0.02,-0.29,-0.34,0.0,m
2992.0,3421.0,2942.0,3444.0,2960.0,2620.0,3290.0,2416.0,-1.96,8.52,9.22,0.05,0.04,-0.26,0.0,m
2986.0,3456.0,2949.0,3440.0,2954.0,2615.0,3281.0,2409.0,-1.93,8.47,9.06,0.08,0.01,-0.29,0.0,m
2987.0,3461.0,2948.0,3440.0,2949.0,2612.0,3280.0,2399.0,-2.04,8.32,9.06,0.03,0.09,-0.42,0.0,m
2987.0,3486.0,2944.0,3439.0,2961.0,2618.0,3284.0,2411.0,-2.31,8.2,8.75,0.04,-0.02,-0.46,0.0,m
2967.0,3546.0,2955.0,3440.0,2960.0,2618.0,3283.0,2414.0,-3.12,8.17,8.95,-0.06,0.02,-0.32,0.0,m
2960.0,3626.0,2941.0,3426.0,2960.0,2615.0,3280.0,2411.0,-2.82,8.22,8.67,-0.01,0.09,-0.29,0.0,m
2965.0,3678.0,2939.0,3437.0,2964.0,2623.0,3291.0,2414.0,-3.07,8.04,8.95,-0.21,0.11,-0.29,0.0,m
2973.0,3671.0,2957.0,3440.0,2973.0,2626.0,3293.0,2428.0,-3.23,8.03,9.11,-0.0,-0.03,-0.23,0.0,m
2973.0,3681.0,2949.0,3438.0,2974.0,2624.0,3291.0,2427.0,-3.47,7.85,9.02,0.07,-0.05,-0.16,0.0,m
2976.0,3679.0,2945.0,3442.0,2977.0,2626.0,3293.0,2429.0,-3.11,8.11,8.99,0.05,-0.05,-0.1,0.0,m
2963.0,3686.0,2953.0,3445.0,2978.0,2627.0,3296.0,2432.0,-3.28,8.0,8.94,0.07,-0.01,-0.06,0.0,m
2957.0,3677.0,2958.0,3419.0,2976.0,2635.0,3295.0,2435.0,-2.64,7.94,9.1,-0.02,-0.12,-0.27,0.0,m
2962.0,3743.0,2957.0,3426.0,2982.0,2640.0,3302.0,2441.0,-2.92,8.0,9.13,0.01,-0.04,0.03,0.0,m
2952.0,3835.0,2935.0,3426.0,2979.0,2640.0,3299.0,2439.0,-2.34,8.24,9.23,0.05,-0.06,-0.01,0.0,m
2961.0,3977.0,2944.0,3427.0,2978.0,2642.0,3306.0,2442.0,-2.52,7.93,9.37,0.11,-0.1,-0.24,0.0,m
2960.0,3989.0,2943.0,3423.0,2979.0,2647.0,3303.0,2448.0,-2.62,8.13,8.93,-0.04,0.06,-0.03,0.0,m
2950.0,4017.0,2943.0,3431.0,2971.0,2646.0,3295.0,2446.0,-2.26,8.19,9.22,-0.09,0.07,0.0,0.0,m
2950.0,4035.0,2939.0,3440.0,2969.0,2645.0,3292.0,2443.0,-2.3,8.34,8.95,-0.13,0.01,0.04,0.0,m
2951.0,4015.0,2945.0,3443.0,2970.0,2645.0,3290.0,2443.0,-1.95,8.28,9.15,-0.01,0.01,-0.12,0.0,m
2942.0,4021.0,2943.0,3445.0,2965.0,2638.0,3286.0,2433.0,-2.4,8.24,9.32,0.22,-0.17,-0.46,0.0,m
2933.0,4052.0,2948.0,3452.0,2967.0,2636.0,3280.0,2428.0,-1.95,8.6,9.24,0.13,-0.15,-0.39,0.0,m
2939.0,4036.0,2945.0,3450.0,2973.0,2631.0,3280.0,2431.0,-2.63,8.51,8.83,0.04,0.01,-0.23,0.0,m
2931.0,4048.0,2945.0,3451.0,2972.0,2630.0,3279.0,2433.0,-2.39,8.62,8.6,0.01,-0.03,-0.22,0.0,m
2941.0,4042.0,2938.0,3447.0,2970.0,2622.0,3275.0,2433.0,-2.38,7.93,9.09,-0.11,-0.01,-0.21,0.0,m
2942.0,4072.0,2951.0,3437.0,2973.0,2634.0,3280.0,2437.0,-2.42,7.79,9.22,0.02,-0.02,-0.22,0.0,m
2939.0,4069.0,2946.0,3423.0,2957.0,2628.0,3279.0,2437.0,-2.71,7.86,9.27,0.15,-0.0,-0.3,0.0,m
2939.0,4083.0,2951.0,3420.0,2959.0,2627.0,3278.0,2443.0,-2.76,8.34,8.5,0.04,-0.19,-0.27,0.0,m
2942.0,4092.0,2958.0,3421.0,2956.0,2624.0,3282.0,2445.0,-3.03,8.22,9.0,0.03,-0.07,-0.15,0.0,m
2946.0,4095.0,2946.0,3425.0,2958.0,2624.0,3281.0,2447.0,-2.67,8.16,8.72,-0.09,-0.03,-0.07,0.0,m
2941.0,4090.0,2943.0,3421.0,2953.0,2623.0,3278.0,2442.0,-3.02,7.84,9.48,0.01,-0.05,-0.14,0.0,m
2950.0,4095.0,2960.0,3450.0,2962.0,2628.0,3280.0,2448.0,-2.81,8.03,9.16,0.06,0.03,-0.18,0.0,m
2946.0,4095.0,2957.0,3451.0,2963.0,2627.0,3281.0,2450.0,-2.72,8.25,8.65,0.09,-0.13,-0.18,0.0,m
2931.0,4095.0,2942.0,3450.0,2961.0,2620.0,3269.0,2446.0,-2.78,8.32,9.11,0.05,-0.12,-0.11,0.0,m
2943.0,4095.0,2955.0,3451.0,2965.0,2625.0,3280.0,2452.0,-3.03,7.97,9.69,0.1,0.05,-0.06,0.0,m
2943.0,4095.0,2946.0,3450.0,2963.0,2625.0,3279.0,2452.0,-2.37,8.09,8.8,0.05,-0.07,0.09,0.0,m
2939.0,4095.0,2950.0,3450.0,2963.0,2624.0,3274.0,2453.0,-2.04,8.36,8.82,0.06,-0.1,0.1,0.0,m
2931.0,4095.0,2954.0,3458.0,2967.0,2624.0,3279.0,2450.0,-1.46,8.64,8.98,0.18,-0.12,-0.02,0.0,m
2926.0,4095.0,2945.0,3450.0,2970.0,2625.0,3278.0,2451.0,-1.92,8.5,9.22,-0.03,0.03,-0.1,0.0,m
2926.0,4086.0,2935.0,3450.0,2962.0,2621.0,3270.0,2451.0,-1.49,8.58,8.97,0.02,0.05,-0.14,0.0,m
2930.0,4087.0,2942.0,3454.0,2967.0,2621.0,3271.0,2452.0,-1.95,8.47,9.04,0.02,-0.01,-0.15,0.0,m
2935.0,4082.0,2955.0,3458.0,2967.0,2624.0,3274.0,2449.0,-1.87,8.6,8.69,0.01,-0.03,-0.25,0.0,m
2940.0,4095.0,2957.0,3469.0,2975.0,2629.0,3277.0,2455.0,-1.85,8.55,8.64,-0.13,-0.11,-0.12,0.0,m
2939.0,4094.0,2954.0,3469.0,2978.0,2625.0,3277.0,2448.0,-1.69,8.32,8.6,-0.17,-0.33,-0.3,0.0,m
2929.0,4083.0,2949.0,3453.0,2966.0,2619.0,3275.0,2442.0,-2.83,8.15,9.74,-0.1,-0.09,-0.14,0.0,m
2939.0,4080.0,2939.0,3456.0,2970.0,2622.0,3278.0,2439.0,-1.22,8.39,9.38,-0.11,-0.03,-0.09,0.0,m
2923.0,4095.0,2947.0,3453.0,2973.0,2625.0,3275.0,2438.0,-2.16,8.07,9.63,0.03,-0.0,-0.03,0.0,m
2943.0,4095.0,2950.0,3457.0,2960.0,2625.0,3274.0,2439.0,-1.3,8.31,9.79,0.16,0.05,-0.1,0.0,m
2928.0,4093.0,2950.0,3457.0,2954.0,2624.0,3255.0,2439.0,-1.69,8.42,9.45,0.13,0.01,-0.16,0.0,m
2928.0,4095.0,2942.0,3458.0,2944.0,2629.0,3260.0,2445.0,-1.71,8.32,9.4,0.24,0.02,-0.26,0.0,m
2930.0,4095.0,2939.0,3455.0,2958.0,2623.0,3261.0,2442.0,-2.05,8.43,9.03,0.28,0.11,-0.19,0.0,m
2944.0,4095.0,2950.0,3460.0,2961.0,2631.0,3265.0,2443.0,-1.79,8.66,8.5,0.29,-0.04,-0.15,0.0,m
2941.0,4095.0,2947.0,3466.0,2964.0,2625.0,3271.0,2447.0,-1.66,8.69,8.68,0.17,0.01,-0.19,0.0,m
2917.0,4094.0,2946.0,3459.0,2966.0,2626.0,3269.0,2447.0,-1.78,8.77,7.85,0.22,-0.05,-0.13,0.0,m
2918.0,4079.0,2944.0,3453.0,2963.0,2628.0,3264.0,2447.0,-1.9,9.01,7.75,0.13,-0.03,-0.05,0.0,m
2918.0,4086.0,2949.0,3462.0,2970.0,2633.0,3277.0,2448.0,-1.74,8.97,7.99,-0.0,-0.08,-0.14,0.0,m
2919.0,4095.0,2947.0,3461.0,2963.0,2634.0,3270.0,2449.0,-1.62,8.88,8.2,-0.1,-0.09,-0.21,0.0,m
2918.0,4083.0,2935.0,3458.0,2967.0,2628.0,3262.0,2448.0,-1.88,8.63,8.44,-0.15,-0.08,-0.18,0.0,m
2919.0,4083.0,2954.0,3461.0,2966.0,2631.0,3265.0,2451.0,-1.84,8.55,8.86,-0.19,-0.03,-0.2,0.0,m
2927.0,4095.0,2943.0,3463.0,2969.0,2631.0,3264.0,2448.0,-1.53,8.59,8.72,-0.21,-0.07,-0.22,0.0,m
2917.0,4089.0,2945.0,3462.0,2971.0,2629.0,3264.0,2450.0,-2.02,8.45,9.13,-0.16,0.01,-0.15,0.0,m
2927.0,4095.0,2957.0,3473.0,2976.0,2635.0,3264.0,2449.0,-1.88,8.31,9.32,-0.05,-0.08,-0.18,0.0,m
2921.0,4095.0,2954.0,3470.0,2975.0,2637.0,3270.0,2455.0,-1.66,8.34,9.57,0.04,0.0,-0.13,0.0,m
2928.0,4095.0,2955.0,3474.0,2979.0,2638.0,3271.0,2455.0,-1.65,8.43,9.17,0.08,0.05,-0.17,0.0,m
2930.0,4095.0,2945.0,3472.0,2983.0,2637.0,3279.0,2454.0,-1.89,8.33,9.25,0.12,0.1,-0.1,0.0,m
2925.0,4095.0,2949.0,3472.0,2979.0,2633.0,3274.0,2459.0,-1.77,8.52,8.83,0.16,0.05,-0.05,0.0,m
2929.0,4093.0,2949.0,3467.0,2977.0,2633.0,3266.0,2450.0,-1.39,8.66,8.7,0.13,0.1,-0.04,0.0,m
2927.0,4080.0,2934.0,3466.0,2971.0,2627.0,3264.0,2453.0,-1.48,8.68,8.58,0.08,0.06,-0.08,0.0,m
2925.0,4080.0,2945.0,3470.0,2978.0,2637.0,3269.0,2454.0,-1.84,8.66,8.56,0.17,-0.09,-0.1,0.0,m
2918.0,4081.0,2947.0,3469.0,2973.0,2634.0,3269.0,2459.0,-1.53,8.81,8.4,0.09,0.05,-0.02,0.0,m
2926.0,4081.0,2943.0,3469.0,2978.0,2640.0,3270.0,2455.0,-0.71,8.97,8.47,0.02,0.04,-0.12,0.0,m
2931.0,4078.0,2951.0,3472.0,2979.0,2637.0,3279.0,2459.0,-1.4,8.8,8.42,0.05,0.01,-0.22,0.0,m
2941.0,4095.0,2946.0,3475.0,2978.0,2640.0,3271.0,2453.0,-1.18,8.91,8.2,-0.01,0.03,-0.27,0.0,m
2928.0,4095.0,2937.0,3468.0,2975.0,2639.0,3275.0,2453.0,-1.56,8.83,8.39,-0.08,-0.01,-0.22,0.0,m
2928.0,4095.0,2944.0,3467.0,2974.0,2631.0,3267.0,2454.0,-1.48,8.91,8.03,-0.08,-0.1,-0.29,0.0,m
2927.0,4089.0,2943.0,3467.0,2967.0,2635.0,3269.0,2453.0,-1.7,8.69,8.56,-0.02,-0.15,-0.26,0.0,m
2923.0,4095.0,2947.0,3472.0,2983.0,2638.0,3276.0,2455.0,-1.97,8.55,8.83,0.02,-0.04,-0.25,0.0,m
2917.0,4080.0,2954.0,3469.0,2974.0,2637.0,3271.0,2452.0,-1.82,8.65,8.62,0.03,-0.04,-0.19,0.0,m
2930.0,4095.0,2945.0,3475.0,2976.0,2640.0,3274.0,2454.0,-2.15,8.42,8.61,-0.1,0.21,-0.22,0.0,m
2926.0,4085.0,2945.0,3474.0,2981.0,2640.0,3278.0,2453.0,-1.63,8.64,9.11,-0.0,0.04,0.06,0.0,m
2931.0,4079.0,2947.0,3473.0,2982.0,2640.0,3279.0,2457.0,-1.65,8.7,8.71,0.06,0.03,-0.08,0.0,m
2923.0,4080.0,2951.0,3473.0,2986.0,2640.0,3280.0,2452.0,-1.43,8.68,8.69,-0.1,0.17,-0.13,0.0,m
2919.0,4080.0,2941.0,3474.0,2981.0,2637.0,3275.0,2454.0,-1.7,8.57,8.75,-0.01,0.06,-0.07,0.0,m
2928.0,4080.0,2956.0,3474.0,2982.0,2636.0,3278.0,2451.0,-1.54,8.63,8.75,0.02,0.1,-0.05,0.0,m
2928.0,4086.0,2954.0,3479.0,2986.0,2640.0,3278.0,2458.0,-1.58,8.6,8.56,0.03,-0.0,-0.06,0.0,m
2935.0,4070.0,2958.0,3474.0,2985.0,2638.0,3280.0,2457.0,-1.62,8.67,8.62,0.02,-0.02,-0.03,0.0,m
2918.0,4058.0,2942.0,3472.0,2982.0,2637.0,3267.0,2453.0,-1.44,8.78,8.62,0.07,-0.0,-0.08,0.0,m
2927.0,4051.0,2946.0,3472.0,2985.0,2638.0,3279.0,2457.0,-1.22,8.74,8.62,0.04,0.06,-0.05,0.0,m
2931.0,4091.0,2941.0,3475.0,2981.0,2635.0,3261.0,2450.0,-1.3,8.83,8.35,0.01,-0.05,-0.08,0.0,m
2930.0,4050.0,2939.0,3473.0,2976.0,2639.0,3260.0,2453.0,-0.73,8.98,8.58,-0.0,0.07,-0.09,0.0,m
2940.0,4047.0,2946.0,3475.0,2970.0,2636.0,3269.0,2457.0,-0.91,8.96,8.48,0.07,-0.07,-0.19,0.0,m
2928.0,4054.0,2951.0,3473.0,2973.0,2638.0,3271.0,2454.0,-0.93,8.86,8.71,-0.03,-0.05,-0.29,0.0,m
2940.0,4053.0,2946.0,3483.0,2981.0,2638.0,3271.0,2458.0,-1.1,8.75,8.53,-0.16,0.2,-0.3,0.0,m
2931.0,4055.0,2948.0,3483.0,2980.0,2642.0,3279.0,2460.0,-1.83,8.54,8.65,-0.15,0.24,-0.32,0.0,m
2929.0,4055.0,2946.0,3484.0,2978.0,2639.0,3278.0,2464.0,-1.85,8.47,9.01,-0.1,0.04,-0.19,0.0,m
2935.0,4055.0,2949.0,3475.0,2981.0,2640.0,3272.0,2462.0,-1.47,8.66,8.63,0.06,-0.05,-0.21,0.0,m
2928.0,4043.0,2941.0,3473.0,2977.0,2640.0,3269.0,2465.0,-1.79,8.51,8.63,-0.07,-0.07,-0.25,0.0,m
2934.0,4065.0,2947.0,3485.0,2977.0,2640.0,3268.0,2457.0,-1.73,8.36,9.31,-0.11,0.03,-0.23,0.0,m
1482.0,958.0,2945.0,3517.0,2886.0,2629.0,3142.0,2334.0,-4.1,7.91,8.51,0.05,0.03,-0.18,0.0,m
1469.0,963.0,2937.0,3525.0,2885.0,2637.0,3141.0,2335.0,-4.09,7.85,8.58,0.04,-0.04,-0.16,0.0,m
1471.0,948.0,2944.0,3521.0,2885.0,2637.0,3141.0,2338.0,-3.83,7.96,8.61,0.02,0.0,-0.15,0.0,m
1473.0,963.0,2937.0,3527.0,2885.0,2638.0,3137.0,2346.0,-4.09,7.81,8.62,-0.02,0.01,-0.2,0.0,m
1471.0,956.0,2947.0,3525.0,2893.0,2640.0,3150.0,2352.0,-3.78,7.8,8.66,0.06,-0.07,-0.15,0.0,m
1470.0,953.0,2951.0,3523.0,2890.0,2640.0,3147.0,2352.0,-3.92,7.74,8.56,-0.04,0.01,-0.16,0.0,m
1465.0,951.0,2938.0,3522.0,2894.0,2638.0,3141.0,2348.0,-3.97,7.73,8.68,-0.05,0.03,-0.15,0.0,m
1468.0,950.0,2940.0,3507.0,2894.0,2640.0,3150.0,2353.0,-3.9,7.79,8.82,0.03,-0.03,-0.19,0.0,m
1458.0,955.0,2938.0,3514.0,2902.0,2643.0,3152.0,2358.0,-3.88,7.74,8.72,0.02,0.01,-0.18,0.0,m
1457.0,954.0,2945.0,3506.0,2905.0,2640.0,3149.0,2353.0,-4.19,7.73,8.55,0.01,0.04,-0.15,0.0,m
1473.0,963.0,2938.0,3517.0,2909.0,2643.0,3153.0,2367.0,-3.96,7.77,8.6,-0.0,0.02,-0.12,0.0,m
1457.0,946.0,2944.0,3519.0,2911.0,2642.0,3155.0,2362.0,-4.01,7.7,8.67,0.0,-0.12,-0.06,0.0,m
1459.0,955.0,2939.0,3517.0,2913.0,2640.0,3152.0,2362.0,-3.87,7.81,8.54,0.05,-0.07,-0.04,0.0,m
1456.0,954.0,2933.0,3508.0,2907.0,2640.0,3152.0,2365.0,-3.67,7.94,8.55,0.02,-0.08,-0.01,0.0,m
1465.0,961.0,2947.0,3517.0,2913.0,2649.0,3154.0,2367.0,-3.42,8.17,8.83,0.03,-0.1,-0.09,0.0,m
1466.0,955.0,2931.0,3503.0,2917.0,2644.0,3152.0,2365.0,-3.48,8.05,8.67,0.06,-0.06,-0.12,0.0,m
1456.0,958.0,2943.0,3505.0,2918.0,2643.0,3152.0,2367.0,-3.37,8.04,8.66,0.02,-0.01,-0.1,0.0,m
1462.0,959.0,2944.0,3506.0,2912.0,2642.0,3152.0,2365.0,-3.41,7.99,8.6,0.01,-0.06,-0.06,0.0,m
1456.0,955.0,2930.0,3503.0,2911.0,2640.0,3152.0,2365.0,-3.45,8.01,8.69,-0.01,-0.05,-0.01,0.0,m
1453.0,960.0,2941.0,3504.0,2915.0,2641.0,3152.0,2367.0,-2.68,8.25,8.77,-0.04,-0.1,-0.02,0.0,m
1465.0,958.0,2943.0,3504.0,2919.0,2641.0,3152.0,2366.0,-2.99,8.2,8.73,0.03,-0.17,-0.05,0.0,m
1463.0,950.0,2945.0,3516.0,2922.0,2646.0,3155.0,2369.0,-2.52,8.31,9.03,0.03,-0.07,-0.15,0.0,m
1456.0,950.0,2948.0,3521.0,2926.0,2647.0,3153.0,2368.0,-2.88,8.25,8.95,0.06,0.02,-0.21,0.0,m
1457.0,950.0,2942.0,3525.0,2927.0,2649.0,3159.0,2370.0,-2.81,8.29,8.82,0.07,0.01,-0.25,0.0,m
1465.0,959.0,2943.0,3511.0,2918.0,2642.0,3154.0,2366.0,-3.07,8.24,8.68,0.05,0.03,-0.26,0.0,m
1456.0,948.0,2938.0,3519.0,2923.0,2653.0,3159.0,2371.0,-3.19,8.11,8.68,0.03,0.02,-0.25,0.0,m
1457.0,965.0,2943.0,3517.0,2919.0,2650.0,3155.0,2370.0,-3.16,8.15,8.63,0.07,0.01,-0.25,0.0,m
1466.0,946.0,2945.0,3511.0,2921.0,2646.0,3157.0,2372.0,-3.29,8.06,8.45,0.02,0.06,-0.29,0.0,m
1471.0,965.0,2944.0,3522.0,2928.0,2655.0,3161.0,2375.0,-3.33,8.01,8.58,0.02,-0.04,-0.25,0.0,m
1460.0,960.0,2947.0,3520.0,2928.0,2655.0,3164.0,2379.0,-3.67,8.01,8.54,-0.01,-0.07,-0.2,0.0,m
1465.0,951.0,2953.0,3520.0,2928.0,2657.0,3165.0,2380.0,-3.56,7.92,8.89,0.01,-0.05,-0.19,0.0,m
1463.0,966.0,2949.0,3524.0,2928.0,2657.0,3169.0,2381.0,-3.64,7.98,8.88,0.13,0.02,-0.15,0.0,m
1456.0,959.0,2941.0,3520.0,2927.0,2660.0,3166.0,2379.0,-3.48,7.98,8.43,0.21,-0.32,-0.16,0.0,m
1463.0,958.0,2940.0,3522.0,2927.0,2656.0,3162.0,2383.0,-3.13,8.21,8.57,0.13,-0.02,-0.1,0.0,m
1465.0,947.0,2945.0,3519.0,2927.0,2655.0,3166.0,2375.0,-3.44,8.2,8.41,0.19,-0.04,-0.12,0.0,m
1462.0,958.0,2963.0,3506.0,2930.0,2661.0,3165.0,2383.0,-3.17,8.24,8.2,0.08,-0.03,-0.02,0.0,m
1455.0,959.0,2933.0,3515.0,2929.0,2665.0,3165.0,2384.0,-3.04,8.31,8.46,0.05,0.06,-0.07,0.0,m
1457.0,953.0,2944.0,3511.0,2928.0,2663.0,3168.0,2384.0,-3.06,8.62,8.16,0.17,-0.02,-0.1,0.0,m
1466.0,967.0,2934.0,3524.0,2934.0,2662.0,3170.0,2389.0,-3.05,8.56,7.92,0.04,0.03,-0.13,0.0,m
1454.0,963.0,2950.0,3515.0,2928.0,2663.0,3170.0,2389.0,-3.04,8.56,7.89,0.06,-0.04,-0.13,0.0,m
1452.0,960.0,2947.0,3509.0,2928.0,2663.0,3166.0,2387.0,-2.95,8.62,7.67,-0.05,-0.08,-0.17,0.0,m
1468.0,944.0,2935.0,3515.0,2928.0,2662.0,3168.0,2391.0,-3.07,8.4,8.23,-0.07,-0.02,-0.16,0.0,m
1451.0,951.0,2930.0,3501.0,2929.0,2663.0,3166.0,2386.0,-2.9,8.54,8.12,-0.05,-0.05,-0.17,0.0,m
1456.0,957.0,2938.0,3509.0,2928.0,2663.0,3165.0,2384.0,-2.95,8.49,8.16,-0.04,-0.1,-0.21,0.0,m
1451.0,963.0,2944.0,3513.0,2933.0,2664.0,3172.0,2393.0,-3.05,8.37,8.44,-0.08,-0.07,-0.15,0.0,m
1451.0,956.0,2941.0,3511.0,2929.0,2658.0,3169.0,2386.0,-2.78,8.4,8.31,-0.09,-0.06,-0.07,0.0,m
1451.0,955.0,2935.0,3511.0,2933.0,2661.0,3171.0,2387.0,-2.69,8.35,8.68,-0.07,-0.08,-0.15,0.0,m
1443.0,963.0,2938.0,3515.0,2937.0,2668.0,3174.0,2393.0,-2.89,8.21,8.67,-0.06,-0.07,-0.19,0.0,m
1450.0,959.0,2947.0,3513.0,2938.0,2663.0,3170.0,2390.0,-2.64,8.32,8.62,-0.01,-0.08,-0.18,0.0,m
1456.0,955.0,2935.0,3507.0,2928.0,2661.0,3165.0,2390.0,-2.86,8.27,8.69,-0.06,-0.06,-0.14,0.0,m
1450.0,946.0,2949.0,3512.0,2939.0,2661.0,3170.0,2391.0,-2.72,8.31,8.91,-0.1,-0.06,-0.19,0.0,m
1454.0,943.0,2937.0,3515.0,2941.0,2663.0,3171.0,2389.0,-2.75,8.13,9.26,-0.0,-0.05,-0.19,0.0,m
1447.0,962.0,2939.0,3514.0,2939.0,2663.0,3173.0,2386.0,-2.81,8.21,8.99,0.08,0.0,-0.15,0.0,m
1447.0,951.0,2949.0,3516.0,2941.0,2667.0,3173.0,2393.0,-2.87,8.16,8.97,0.1,0.08,-0.13,0.0,m
1446.0,950.0,2928.0,3515.0,2935.0,2663.0,3170.0,2387.0,-2.86,8.24,8.52,0.1,0.13,0.01,0.0,m
1456.0,945.0,2946.0,3515.0,2940.0,2671.0,3175.0,2389.0,-2.66,8.3,8.84,0.04,0.14,-0.1,0.0,m
1454.0,957.0,2930.0,3509.0,2933.0,2662.0,3169.0,2393.0,-2.76,8.45,8.44,0.13,0.11,-0.08,0.0,m
1443.0,951.0,2942.0,3511.0,2938.0,2662.0,3171.0,2394.0,-2.67,8.52,8.1,0.06,0.09,-0.11,0.0,m
1441.0,955.0,2939.0,3513.0,2940.0,2665.0,3171.0,2394.0,-2.8,8.45,8.4,0.05,0.02,-0.14,0.0,m
1443.0,945.0,2949.0,3516.0,2942.0,2669.0,3174.0,2395.0,-2.91,8.49,8.11,0.14,0.04,-0.07,0.0,m
1449.0,965.0,2946.0,3509.0,2938.0,2669.0,3171.0,2401.0,-2.53,8.63,8.09,0.04,0.05,-0.06,0.0,m
1449.0,959.0,2943.0,3513.0,2933.0,2669.0,3172.0,2400.0,-3.06,8.49,8.36,0.08,0.08,-0.05,0.0,m
1443.0,955.0,2949.0,3517.0,2940.0,2672.0,3179.0,2404.0,-2.22,8.8,7.89,0.09,-0.04,-0.04,0.0,m
1456.0,951.0,2947.0,3520.0,2943.0,2672.0,3173.0,2400.0,-2.6,8.76,8.16,-0.01,0.01,-0.17,0.0,m
1453.0,970.0,2933.0,3510.0,2943.0,2667.0,3173.0,2399.0,-2.3,8.83,7.98,0.04,-0.03,-0.21,0.0,m
1446.0,953.0,2942.0,3518.0,2942.0,2672.0,3181.0,2407.0,-2.64,8.66,8.13,0.03,-0.03,-0.26,0.0,m
1440.0,960.0,2934.0,3515.0,2940.0,2671.0,3173.0,2403.0,-2.7,8.63,7.92,0.03,-0.05,-0.25,0.0,m
1453.0,959.0,2946.0,3516.0,2941.0,2671.0,3175.0,2405.0,-2.83,8.53,8.11,-0.03,-0.08,-0.24,0.0,m
1445.0,956.0,2943.0,3510.0,2940.0,2672.0,3178.0,2410.0,-2.72,8.67,8.14,0.0,-0.08,-0.25,0.0,m
1459.0,958.0,2941.0,3518.0,2945.0,2673.0,3182.0,2409.0,-2.94,8.54,8.28,0.04,-0.04,-0.23,0.0,m
1447.0,959.0,2950.0,3518.0,2944.0,2671.0,3177.0,2405.0,-2.78,8.52,8.0,-0.07,0.01,-0.28,0.0,m
1453.0,951.0,2944.0,3513.0,2946.0,2672.0,3181.0,2413.0,-2.89,8.54,8.25,0.0,-0.15,-0.18,0.0,m
1453.0,955.0,2953.0,3518.0,2944.0,2672.0,3184.0,2413.0,-2.84,8.53,8.21,0.01,-0.04,-0.2,0.0,m
1445.0,955.0,2944.0,3518.0,2942.0,2670.0,3179.0,2413.0,-3.22,8.34,8.19,-0.01,-0.03,-0.21,0.0,m
1443.0,958.0,2944.0,3520.0,2942.0,2673.0,3184.0,2413.0,-2.9,8.39,8.27,-0.08,-0.12,-0.22,0.0,m
1449.0,960.0,2943.0,3523.0,2943.0,2675.0,3181.0,2413.0,-3.29,8.13,8.78,-0.04,-0.05,-0.2,0.0,m
1433.0,950.0,2945.0,3515.0,2940.0,2673.0,3178.0,2411.0,-3.1,8.27,8.65,-0.03,-0.05,-0.15,0.0,m
1440.0,951.0,2946.0,3519.0,2945.0,2675.0,3184.0,2411.0,-2.96,8.34,8.53,-0.03,-0.0,-0.14,0.0,m
1439.0,955.0,2943.0,3517.0,2944.0,2674.0,3183.0,2414.0,-3.33,8.18,8.61,-0.0,0.04,-0.08,0.0,m
1431.0,957.0,2943.0,3519.0,2949.0,2676.0,3186.0,2416.0,-3.05,8.25,8.53,0.02,0.05,-0.07,0.0,m
1439.0,957.0,2939.0,3517.0,2941.0,2671.0,3184.0,2415.0,-2.67,8.35,8.7,0.07,-0.01,-0.02,0.0,m
1429.0,958.0,2943.0,3523.0,2944.0,2672.0,3184.0,2415.0,-2.67,8.49,8.37,0.06,0.03,-0.06,0.0,m
1424.0,945.0,2939.0,3519.0,2949.0,2673.0,3184.0,2411.0,-2.72,8.43,8.43,0.05,0.02,-0.05,0.0,m
1439.0,961.0,2935.0,3506.0,2945.0,2672.0,3187.0,2405.0,-2.25,8.63,8.42,0.07,0.04,-0.08,0.0,m
1428.0,955.0,2950.0,3517.0,2945.0,2671.0,3185.0,2415.0,-2.58,8.51,8.29,0.01,0.0,-0.12,0.0,m
1426.0,960.0,2937.0,3520.0,2947.0,2668.0,3183.0,2410.0,-2.45,8.59,8.11,-0.13,0.03,-0.12,0.0,m
1430.0,966.0,2935.0,3522.0,2940.0,2641.0,3163.0,2411.0,-2.43,8.34,8.64,-0.16,0.05,-0.15,0.0,m
1440.0,954.0,2936.0,3513.0,2930.0,2624.0,3161.0,2416.0,-2.53,8.32,8.95,0.15,-0.12,-0.5,0.0,m
1432.0,957.0,2931.0,3518.0,2932.0,2624.0,3155.0,2421.0,-2.92,8.11,8.5,-0.02,0.04,-0.2,0.0,m
1423.0,951.0,2946.0,3521.0,2915.0,2617.0,3157.0,2430.0,-2.58,8.26,8.77,-0.06,0.06,-0.13,0.0,m
1427.0,955.0,2944.0,3520.0,2907.0,2609.0,3152.0,2435.0,-3.0,8.78,8.37,0.05,-0.04,-0.17,0.0,m
1421.0,959.0,2947.0,3517.0,2889.0,2581.0,3136.0,2434.0,-2.61,8.57,8.56,-0.16,-0.09,-0.1,0.0,m
1426.0,955.0,2933.0,3530.0,2896.0,2598.0,3143.0,2438.0,-2.69,8.67,8.31,0.02,-0.1,-0.09,0.0,m
1439.0,959.0,2944.0,3526.0,2913.0,2608.0,3143.0,2439.0,-2.67,8.33,8.73,-0.03,0.0,-0.12,0.0,m
1446.0,950.0,2937.0,3503.0,2919.0,2611.0,3154.0,2443.0,-2.36,8.21,8.63,0.07,-0.02,-0.16,0.0,m
1443.0,961.0,2939.0,3469.0,2929.0,2617.0,3163.0,2442.0,-2.62,8.23,8.82,0.06,0.0,-0.16,0.0,m
1414.0,953.0,2944.0,3450.0,2934.0,2624.0,3162.0,2420.0,-2.43,8.3,8.67,0.2,-0.26,-0.12,0.0,m
1418.0,962.0,2933.0,3421.0,2923.0,2624.0,3174.0,2432.0,-2.2,8.47,8.67,0.06,-0.05,-0.15,0.0,m
1422.0,955.0,2934.0,3435.0,2928.0,2623.0,3171.0,2441.0,-2.26,8.49,8.59,0.11,-0.06,-0.18,0.0,m
1423.0,967.0,2953.0,3430.0,2937.0,2638.0,3183.0,2449.0,-2.39,8.49,8.54,0.12,-0.0,-0.2,0.0,m
1410.0,971.0,2935.0,3411.0,2942.0,2640.0,3181.0,2448.0,-2.29,8.43,8.54,0.14,-0.01,-0.2,0.0,m
1397.0,978.0,2944.0,3427.0,2947.0,2650.0,3185.0,2451.0,-2.3,8.63,8.36,0.15,-0.11,-0.18,0.0,m
1408.0,979.0,2933.0,3431.0,2947.0,2667.0,3207.0,2463.0,-2.52,8.79,8.18,0.19,-0.07,-0.16,0.0,m
1406.0,973.0,2943.0,3429.0,2949.0,2669.0,3207.0,2464.0,-2.23,9.01,7.76,-0.05,-0.05,-0.13,0.0,m
1395.0,974.0,2943.0,3450.0,2943.0,2657.0,3201.0,2480.0,-2.31,8.7,8.37,-0.21,-0.01,-0.12,0.0,m
1393.0,967.0,2935.0,3447.0,2928.0,2633.0,3180.0,2487.0,-2.33,8.72,8.34,-0.12,0.01,-0.11,0.0,m
1385.0,970.0,2943.0,3447.0,2916.0,2611.0,3169.0,2486.0,-2.33,8.6,8.64,-0.17,0.11,-0.14,0.0,m
1379.0,976.0,2943.0,3450.0,2891.0,2559.0,3146.0,2456.0,-2.42,8.86,8.21,-0.27,0.08,-0.07,0.0,m
1367.0,981.0,2939.0,3469.0,2879.0,2555.0,3140.0,2455.0,-2.45,8.54,8.75,-0.2,-0.01,-0.07,0.0,m
1361.0,965.0,2931.0,3472.0,2848.0,2549.0,3139.0,2461.0,-2.24,8.32,8.93,-0.03,-0.04,-0.12,0.0,m
1360.0,976.0,2941.0,3478.0,2829.0,2544.0,3137.0,2462.0,-2.34,8.32,8.97,-0.09,-0.0,-0.13,0.0,m
1361.0,977.0,2945.0,3489.0,2832.0,2557.0,3146.0,2468.0,-2.42,8.2,9.25,0.08,-0.02,-0.19,0.0,m
1373.0,983.0,2940.0,3472.0,2876.0,2602.0,3171.0,2469.0,-2.27,8.49,8.61,0.19,-0.09,-0.14,0.0,m
1389.0,985.0,2942.0,3440.0,2897.0,2639.0,3195.0,2473.0,-2.39,8.49,8.66,0.16,-0.23,-0.08,0.0,m
1376.0,976.0,2935.0,3401.0,2913.0,2665.0,3213.0,2480.0,-2.48,8.75,8.36,-0.03,-0.01,-0.04,0.0,m
1378.0,978.0,2941.0,3422.0,2939.0,2687.0,3250.0,2495.0,-1.89,8.37,8.79,-0.16,0.03,0.04,0.0,m
1362.0,978.0,2939.0,3406.0,2959.0,2701.0,3280.0,2497.0,-2.01,8.71,8.54,0.18,-0.11,-0.15,0.0,m
1360.0,970.0,2945.0,3435.0,2983.0,2721.0,3313.0,2502.0,-2.05,8.52,8.5,0.03,0.04,-0.17,0.0,m
1337.0,976.0,2943.0,3442.0,2999.0,2729.0,3322.0,2503.0,-2.02,8.69,8.42,0.05,-0.04,-0.16,0.0,m
1328.0,983.0,2948.0,3447.0,3024.0,2739.0,3326.0,2507.0,-2.37,8.71,8.4,-0.12,0.52,-0.18,0.0,m
1291.0,977.0,2937.0,3459.0,3053.0,2752.0,3327.0,2505.0,-2.04,8.67,8.45,0.07,-0.06,-0.16,0.0,m
1273.0,969.0,2943.0,3464.0,3056.0,2754.0,3333.0,2505.0,-2.48,8.63,8.26,0.1,-0.12,-0.18,0.0,m
1255.0,971.0,2940.0,3465.0,3043.0,2727.0,3293.0,2503.0,-2.26,8.57,8.56,-0.04,0.02,-0.14,0.0,m
1251.0,976.0,2933.0,3461.0,3019.0,2695.0,3255.0,2511.0,-2.31,8.66,8.48,-0.01,0.0,-0.16,0.0,m
1246.0,983.0,2937.0,3462.0,2989.0,2667.0,3235.0,2510.0,-2.35,8.65,8.4,-0.05,-0.0,-0.14,0.0,m
1261.0,983.0,2945.0,3445.0,2950.0,2624.0,3220.0,2497.0,-2.35,8.66,8.44,-0.11,0.03,-0.12,0.0,m
1260.0,989.0,2940.0,3421.0,2934.0,2593.0,3199.0,2480.0,-2.41,8.52,8.85,-0.11,0.1,-0.14,0.0,m
1259.0,983.0,2938.0,3430.0,2923.0,2581.0,3198.0,2469.0,-2.35,8.45,8.86,-0.02,0.01,-0.19,0.0,m
1266.0,982.0,2928.0,3427.0,2917.0,2559.0,3187.0,2463.0,-2.32,8.68,8.51,-0.12,-0.02,-0.13,0.0,m
1267.0,986.0,2934.0,3438.0,2917.0,2545.0,3159.0,2447.0,-2.78,8.57,9.0,-0.11,0.06,-0.16,0.0,m
1269.0,976.0,2940.0,3445.0,2919.0,2555.0,3158.0,2447.0,-2.51,8.54,8.84,0.0,-0.06,-0.11,0.0,m
1267.0,980.0,2942.0,3474.0,2896.0,2527.0,3129.0,2429.0,-2.04,8.16,8.78,-0.39,0.06,0.19,0.0,m
1279.0,981.0,2943.0,3504.0,2899.0,2546.0,3140.0,2432.0,-2.03,8.09,9.5,0.05,-0.13,-0.15,0.0,m
1267.0,989.0,2947.0,3495.0,2897.0,2550.0,3140.0,2437.0,-2.58,8.4,9.11,0.12,-0.03,-0.17,0.0,m
1267.0,983.0,2949.0,3508.0,2906.0,2555.0,3146.0,2442.0,-2.25,8.57,9.02,0.14,-0.04,-0.25,0.0,m
1271.0,978.0,2944.0,3508.0,2911.0,2559.0,3147.0,2443.0,-2.66,8.73,8.41,-0.05,-0.08,-0.2,0.0,m
1285.0,982.0,2950.0,3521.0,2926.0,2559.0,3152.0,2450.0,-2.35,8.2,9.21,0.05,-0.19,-0.26,0.0,m
1278.0,978.0,2945.0,3520.0,2929.0,2579.0,3156.0,2455.0,-2.52,8.13,8.99,0.02,-0.05,-0.27,0.0,m
1279.0,987.0,2946.0,3513.0,2932.0,2583.0,3159.0,2463.0,-2.71,8.1,9.21,0.02,0.0,-0.2,0.0,m
1265.0,985.0,2939.0,3511.0,2928.0,2559.0,3153.0,2454.0,-2.71,8.12,9.08,-0.06,-0.07,-0.19,0.0,m
1271.0,977.0,2945.0,3508.0,2930.0,2587.0,3159.0,2461.0,-2.88,7.94,9.33,0.05,-0.05,-0.18,0.0,m
1275.0,991.0,2947.0,3508.0,2935.0,2589.0,3162.0,2467.0,-2.84,8.14,8.89,0.06,0.03,-0.06,0.0,m
1280.0,983.0,2957.0,3514.0,2944.0,2602.0,3173.0,2475.0,-2.43,8.26,9.04,0.05,-0.03,-0.04,0.0,m
1280.0,992.0,2953.0,3514.0,2946.0,2606.0,3167.0,2478.0,-2.79,8.23,8.91,0.11,-0.13,0.04,0.0,m
1278.0,992.0,2951.0,3479.0,2949.0,2608.0,3171.0,2480.0,-1.51,8.38,8.98,0.03,-0.12,0.12,0.0,m
1276.0,979.0,2940.0,3491.0,2951.0,2613.0,3177.0,2479.0,-1.65,8.64,8.81,0.04,-0.18,-0.04,0.0,m
1267.0,976.0,2933.0,3479.0,2955.0,2619.0,3177.0,2480.0,-1.65,8.4,9.45,0.11,-0.02,-0.11,0.0,m
1259.0,987.0,2934.0,3452.0,2962.0,2624.0,3170.0,2484.0,-1.03,8.51,9.13,0.29,-0.18,-0.12,0.0,m
1261.0,985.0,2941.0,3447.0,2962.0,2619.0,3177.0,2486.0,-1.57,8.82,8.15,0.39,-0.22,-0.22,0.0,m
1265.0,993.0,2944.0,3451.0,2970.0,2623.0,3171.0,2485.0,-1.93,8.88,8.04,0.08,-0.03,-0.1,0.0,m
1264.0,976.0,2944.0,3451.0,2973.0,2639.0,3186.0,2489.0,-1.44,9.06,8.12,0.17,-0.23,-0.14,0.0,m
1273.0,980.0,2937.0,3446.0,2981.0,2641.0,3191.0,2491.0,-1.74,9.11,7.84,0.22,-0.06,-0.28,0.0,m
1279.0,990.0,2939.0,3459.0,2986.0,2653.0,3198.0,2510.0,-1.75,9.09,7.86,0.03,-0.01,-0.26,0.0,m
1263.0,978.0,2939.0,3478.0,2992.0,2663.0,3203.0,2517.0,-1.79,8.96,8.13,-0.09,0.19,-0.23,0.0,m
1263.0,988.0,2947.0,3472.0,2992.0,2671.0,3203.0,2515.0,-1.89,8.78,8.15,-0.15,0.01,-0.03,0.0,m
1264.0,992.0,2945.0,3475.0,2991.0,2667.0,3197.0,2511.0,-1.35,8.96,7.95,-0.25,0.17,-0.06,0.0,m
1279.0,981.0,2939.0,3467.0,2978.0,2640.0,3173.0,2475.0,-1.73,8.8,8.63,-0.35,0.25,-0.09,0.0,m
1264.0,976.0,2944.0,3458.0,2982.0,2630.0,3155.0,2441.0,-1.43,8.38,8.91,-0.23,0.06,-0.02,0.0,m
1272.0,978.0,2935.0,3474.0,2979.0,2627.0,3156.0,2443.0,-1.66,8.54,8.85,-0.04,-0.01,-0.12,0.0,m
1264.0,979.0,2937.0,3479.0,2964.0,2620.0,3156.0,2442.0,-1.49,8.6,8.81,-0.02,-0.02,-0.19,0.0,m
1285.0,989.0,2942.0,3486.0,2960.0,2618.0,3149.0,2416.0,-2.14,8.47,9.12,0.04,0.18,-0.15,0.0,m
1274.0,985.0,2939.0,3506.0,2974.0,2626.0,3154.0,2419.0,-1.78,8.8,8.54,0.03,0.0,-0.16,0.0,m
1280.0,976.0,2945.0,3509.0,2960.0,2629.0,3157.0,2427.0,-1.59,8.64,8.82,0.03,-0.09,-0.29,0.0,m
1274.0,978.0,2941.0,3523.0,2949.0,2624.0,3152.0,2423.0,-2.08,8.53,8.85,0.0,-0.04,-0.27,0.0,m
1286.0,993.0,2932.0,3527.0,2960.0,2634.0,3159.0,2429.0,-2.26,8.64,8.7,0.13,-0.13,-0.23,0.0,m
1282.0,994.0,2951.0,3509.0,2976.0,2642.0,3169.0,2448.0,-2.32,8.77,8.77,0.2,-0.31,-0.26,0.0,m
1271.0,975.0,2947.0,3478.0,2986.0,2651.0,3174.0,2464.0,-2.3,8.88,8.39,0.47,-0.49,-0.32,0.0,m
1255.0,986.0,2941.0,3473.0,2994.0,2670.0,3202.0,2507.0,-2.61,9.2,7.58,0.51,-0.48,-0.41,0.0,m
1248.0,987.0,2943.0,3468.0,2994.0,2678.0,3215.0,2510.0,-2.13,8.88,7.87,0.2,0.08,-0.28,0.0,m
1232.0,976.0,2944.0,3467.0,3003.0,2707.0,3258.0,2542.0,-2.21,8.92,7.99,0.11,0.07,-0.23,0.0,m
1232.0,978.0,2946.0,3489.0,3025.0,2736.0,3280.0,2586.0,-2.31,8.92,7.73,0.01,0.09,-0.17,0.0,m
1215.0,989.0,2943.0,3483.0,3030.0,2739.0,3280.0,2589.0,-2.13,8.99,7.93,0.05,0.07,-0.19,0.0,m
1225.0,989.0,2939.0,3483.0,3025.0,2739.0,3274.0,2589.0,-2.42,8.94,7.73,0.04,0.04,-0.14,0.0,m
1232.0,989.0,2937.0,3495.0,3015.0,2690.0,3247.0,2559.0,-2.19,9.04,7.87,-0.09,0.21,-0.11,0.0,m
1227.0,987.0,2944.0,3485.0,2997.0,2662.0,3223.0,2533.0,-2.11,9.0,8.09,0.01,0.02,-0.14,0.0,m
1219.0,990.0,2943.0,3482.0,2992.0,2650.0,3203.0,2511.0,-1.98,8.66,7.99,-0.1,0.03,-0.09,0.0,m
1234.0,993.0,2955.0,3477.0,2981.0,2629.0,3184.0,2473.0,-1.76,8.77,8.03,-0.14,0.11,-0.13,0.0,m
1243.0,980.0,2946.0,3481.0,2975.0,2607.0,3151.0,2446.0,-2.01,8.59,8.32,-0.15,0.3,-0.19,0.0,m
1239.0,978.0,2941.0,3492.0,2982.0,2618.0,3157.0,2455.0,-2.04,8.68,8.28,-0.04,-0.05,-0.15,0.0,m
1247.0,979.0,2950.0,3501.0,2987.0,2622.0,3157.0,2449.0,-2.08,8.65,8.53,-0.06,0.09,-0.18,0.0,m
1242.0,981.0,2946.0,3507.0,2981.0,2631.0,3155.0,2447.0,-2.06,8.72,8.42,0.06,-0.08,-0.28,0.0,m
1237.0,976.0,2939.0,3510.0,2988.0,2634.0,3155.0,2448.0,-2.33,8.64,8.32,-0.08,0.04,-0.2,0.0,m
1237.0,975.0,2939.0,3510.0,2976.0,2630.0,3152.0,2447.0,-2.13,8.69,8.6,-0.03,0.03,-0.17,0.0,m
1254.0,976.0,2954.0,3527.0,2986.0,2640.0,3158.0,2449.0,-2.52,8.67,8.52,0.01,0.03,-0.19,0.0,m
1243.0,976.0,2946.0,3523.0,2979.0,2638.0,3165.0,2445.0,-2.26,8.57,8.65,-0.05,0.01,-0.19,0.0,m
1247.0,976.0,2942.0,3535.0,2987.0,2642.0,3167.0,2448.0,-2.55,8.47,8.59,-0.02,-0.0,-0.17,0.0,m
1246.0,989.0,2944.0,3522.0,2982.0,2636.0,3168.0,2436.0,-2.37,8.69,8.44,0.01,-0.03,-0.16,0.0,m
1239.0,976.0,2945.0,3522.0,2977.0,2640.0,3165.0,2441.0,-2.52,8.56,8.78,0.01,-0.03,-0.22,0.0,m
1250.0,982.0,2939.0,3534.0,2978.0,2641.0,3170.0,2448.0,-2.29,8.65,8.5,-0.01,-0.05,-0.18,0.0,m
1243.0,977.0,2948.0,3533.0,2976.0,2642.0,3168.0,2447.0,-2.37,8.5,8.77,-0.04,-0.02,-0.17,0.0,m
1257.0,980.0,2945.0,3536.0,2981.0,2646.0,3173.0,2455.0,-2.24,8.43,8.78,0.02,-0.02,-0.18,0.0,m
1244.0,976.0,2942.0,3543.0,2985.0,2651.0,3175.0,2458.0,-2.5,8.36,8.74,-0.01,-0.03,-0.17,0.0,m
1243.0,993.0,2940.0,3536.0,2989.0,2650.0,3175.0,2455.0,-2.26,8.35,9.0,-0.04,0.03,-0.15,0.0,m
1253.0,979.0,2953.0,3543.0,2987.0,2654.0,3177.0,2463.0,-2.66,8.45,8.56,0.01,0.01,-0.17,0.0,m
