hall_1,hall_2,hall_3,flex_t,flex_i,flex_m,flex_r,flex_p,accel_x,accel_y,accel_z,gyro_x,gyro_y,gyro_z,hand,sign
2434.0,927.0,2925.0,3888.0,3345.0,2607.0,3095.0,2807.0,-2.84,9.3,6.54,0.28,-0.39,-0.2,0.0,m
2267.0,940.0,2928.0,3870.0,3327.0,2594.0,3094.0,2805.0,-2.88,9.62,6.13,0.43,-0.48,-0.13,0.0,m
2178.0,933.0,2925.0,3873.0,3325.0,2601.0,3098.0,2811.0,-1.97,9.69,5.81,0.45,-0.55,-0.25,0.0,m
2167.0,925.0,2928.0,3882.0,3331.0,2599.0,3098.0,2812.0,-2.89,9.49,5.65,0.57,-0.52,-0.34,0.0,m
2165.0,933.0,2923.0,3874.0,3344.0,2602.0,3099.0,2813.0,-2.98,9.38,5.32,0.57,-0.59,-0.42,0.0,m
2161.0,923.0,2919.0,3873.0,3337.0,2602.0,3095.0,2815.0,-3.55,9.38,4.92,0.57,-0.43,-0.37,0.0,m
2170.0,928.0,2928.0,3873.0,3335.0,2603.0,3095.0,2816.0,-3.29,9.41,4.25,0.51,-0.66,-0.53,0.0,m
2167.0,922.0,2921.0,3884.0,3345.0,2603.0,3088.0,2817.0,-4.12,9.12,4.85,0.29,-0.52,-0.41,0.0,m
2167.0,937.0,2921.0,3882.0,3346.0,2607.0,3094.0,2816.0,-2.83,9.25,4.71,0.28,-0.89,-0.39,0.0,m
2164.0,923.0,2923.0,3879.0,3344.0,2605.0,3093.0,2823.0,-3.6,8.39,5.75,0.26,-0.51,-0.3,0.0,m
2166.0,917.0,2928.0,3888.0,3350.0,2608.0,3093.0,2821.0,-3.31,8.62,5.19,0.31,-0.81,-0.36,0.0,m
2182.0,931.0,2930.0,3879.0,3353.0,2608.0,3095.0,2827.0,-3.41,8.64,4.95,0.29,-0.65,-0.43,0.0,m
2175.0,925.0,2931.0,3888.0,3356.0,2615.0,3102.0,2828.0,-4.12,8.42,5.16,0.14,-0.55,-0.41,0.0,m
2167.0,924.0,2925.0,3888.0,3346.0,2608.0,3094.0,2829.0,-4.07,8.49,5.08,0.13,-0.58,-0.36,0.0,m
2176.0,919.0,2925.0,3885.0,3351.0,2610.0,3103.0,2831.0,-4.1,8.32,5.15,-0.03,-0.5,-0.41,0.0,m
2181.0,932.0,2923.0,3888.0,3354.0,2614.0,3094.0,2831.0,-4.65,8.41,5.49,-0.02,-0.63,-0.47,0.0,m
2181.0,933.0,2931.0,3894.0,3363.0,2621.0,3095.0,2832.0,-4.88,8.29,6.03,-0.21,-0.34,-0.29,0.0,m
2195.0,923.0,2927.0,3895.0,3370.0,2617.0,3094.0,2832.0,-5.23,8.56,6.09,-0.22,-0.19,-0.26,0.0,m
2224.0,927.0,2933.0,3891.0,3374.0,2623.0,3100.0,2835.0,-5.03,8.83,6.23,-0.17,-0.15,-0.2,0.0,m
2347.0,922.0,2920.0,3883.0,3374.0,2620.0,3089.0,2836.0,-4.94,8.46,6.85,-0.15,0.07,-0.06,0.0,m
2445.0,925.0,2931.0,3883.0,3386.0,2624.0,3100.0,2837.0,-4.61,8.71,6.41,0.04,-0.03,-0.14,0.0,m
2448.0,925.0,2929.0,3892.0,3386.0,2624.0,3101.0,2841.0,-4.6,8.64,6.11,-0.14,0.34,-0.01,0.0,m
2366.0,918.0,2929.0,3887.0,3383.0,2622.0,3096.0,2838.0,-4.75,8.45,6.14,-0.17,0.43,0.06,0.0,m
2375.0,922.0,2925.0,3892.0,3391.0,2627.0,3094.0,2838.0,-4.47,8.41,5.88,-0.14,0.36,-0.01,0.0,m
2363.0,933.0,2928.0,3904.0,3397.0,2623.0,3107.0,2839.0,-4.49,8.58,5.77,-0.21,0.36,-0.02,0.0,m
2355.0,919.0,2928.0,3890.0,3391.0,2628.0,3106.0,2842.0,-4.33,8.69,6.12,-0.27,0.43,0.06,0.0,m
2363.0,921.0,2934.0,3905.0,3399.0,2628.0,3103.0,2838.0,-4.13,8.86,6.57,-0.14,0.34,0.04,0.0,m
2365.0,923.0,2922.0,3903.0,3395.0,2628.0,3105.0,2829.0,-4.04,8.88,7.1,0.06,0.46,0.22,0.0,m
2362.0,931.0,2926.0,3905.0,3392.0,2627.0,3103.0,2800.0,-3.27,9.07,5.54,0.29,0.44,0.08,0.0,m
2358.0,924.0,2928.0,3907.0,3392.0,2628.0,3109.0,2800.0,-3.42,9.08,4.47,0.2,0.49,-0.03,0.0,m
2354.0,922.0,2925.0,3907.0,3395.0,2625.0,3099.0,2807.0,-3.71,9.14,4.17,-0.0,0.38,-0.02,0.0,m
2363.0,927.0,2930.0,3914.0,3392.0,2630.0,3104.0,2829.0,-3.6,8.94,4.55,-0.2,0.26,-0.05,0.0,m
2358.0,934.0,2933.0,3901.0,3393.0,2624.0,3106.0,2844.0,-3.37,9.0,5.16,-0.28,0.2,-0.09,0.0,m
2361.0,933.0,2928.0,3909.0,3392.0,2626.0,3113.0,2851.0,-4.01,9.22,5.45,-0.3,0.03,0.07,0.0,m
2355.0,934.0,2925.0,3919.0,3395.0,2631.0,3115.0,2859.0,-3.15,8.98,5.62,-0.19,-0.24,0.13,0.0,m
2349.0,927.0,2924.0,3904.0,3392.0,2627.0,3113.0,2863.0,-3.04,8.61,5.92,-0.25,-0.02,0.21,0.0,m
2353.0,921.0,2928.0,3920.0,3394.0,2628.0,3115.0,2863.0,-3.04,8.81,6.43,-0.24,-0.04,0.16,0.0,m
2351.0,929.0,2922.0,3911.0,3393.0,2636.0,3114.0,2865.0,-2.94,8.92,6.88,-0.19,0.03,0.16,0.0,m
2365.0,918.0,2934.0,3919.0,3394.0,2630.0,3114.0,2861.0,-2.48,9.11,6.55,-0.1,0.08,0.17,0.0,m
2354.0,925.0,2928.0,3914.0,3390.0,2630.0,3117.0,2863.0,-2.42,8.96,6.58,-0.14,0.11,0.15,0.0,m
2361.0,930.0,2931.0,3918.0,3393.0,2633.0,3119.0,2863.0,-1.84,9.09,6.49,-0.11,-0.0,-0.03,0.0,m
2352.0,914.0,2934.0,3917.0,3398.0,2630.0,3108.0,2856.0,-2.13,9.29,6.46,-0.15,0.13,-0.07,0.0,m
2353.0,930.0,2928.0,3916.0,3391.0,2630.0,3107.0,2861.0,-2.11,9.34,6.34,-0.12,0.02,-0.14,0.0,m
2347.0,927.0,2925.0,3915.0,3391.0,2630.0,3114.0,2864.0,-2.31,9.24,6.3,-0.07,-0.04,-0.06,0.0,m
2337.0,926.0,2926.0,3920.0,3391.0,2639.0,3119.0,2862.0,-2.27,9.17,6.32,-0.18,0.01,-0.3,0.0,m
2331.0,926.0,2921.0,3915.0,3392.0,2633.0,3116.0,2864.0,-2.99,9.44,6.48,-0.16,0.15,-0.22,0.0,m
2331.0,929.0,2930.0,3920.0,3385.0,2629.0,3117.0,2865.0,-2.58,9.71,6.32,-0.07,0.03,-0.18,0.0,m
2342.0,916.0,2925.0,3920.0,3394.0,2633.0,3115.0,2866.0,-2.95,9.44,6.79,-0.02,-0.2,-0.22,0.0,m
2337.0,919.0,2928.0,3922.0,3403.0,2631.0,3117.0,2863.0,-2.3,9.58,6.37,0.08,-0.53,-0.27,0.0,m
2328.0,931.0,2931.0,3925.0,3397.0,2635.0,3109.0,2863.0,-2.49,9.51,6.4,-0.04,-0.17,-0.28,0.0,m
2325.0,927.0,2926.0,3919.0,3389.0,2636.0,3117.0,2867.0,-2.93,9.23,6.98,-0.01,-0.38,-0.29,0.0,m
2331.0,929.0,2928.0,3920.0,3394.0,2636.0,3119.0,2864.0,-2.26,9.57,6.7,0.07,-0.4,-0.31,0.0,m
2327.0,934.0,2922.0,3919.0,3395.0,2634.0,3119.0,2867.0,-2.57,9.25,6.9,0.06,-0.46,-0.43,0.0,m
2321.0,930.0,2928.0,3905.0,3390.0,2630.0,3110.0,2863.0,-2.82,9.02,7.26,0.11,-0.51,-0.46,0.0,m
2322.0,919.0,2932.0,3920.0,3392.0,2629.0,3109.0,2863.0,-2.98,9.0,7.25,0.17,-0.61,-0.39,0.0,m
2321.0,919.0,2929.0,3910.0,3392.0,2627.0,3111.0,2857.0,-2.81,9.06,7.17,0.1,-0.62,-0.25,0.0,m
2335.0,918.0,2934.0,3920.0,3376.0,2629.0,3107.0,2841.0,-3.47,8.9,7.62,0.21,-0.38,-0.17,0.0,m
2335.0,921.0,2928.0,3923.0,3362.0,2623.0,3103.0,2847.0,-2.28,9.07,7.16,0.41,-0.82,-0.34,0.0,m
2329.0,926.0,2927.0,3927.0,3376.0,2630.0,3104.0,2855.0,-3.17,8.98,7.06,0.33,-0.33,-0.3,0.0,m
2333.0,928.0,2927.0,3911.0,3369.0,2626.0,3105.0,2855.0,-2.49,8.93,7.27,0.5,-1.47,-0.27,0.0,m
2332.0,923.0,2928.0,3909.0,3372.0,2625.0,3110.0,2861.0,-2.46,9.17,6.94,0.26,-0.32,-0.4,0.0,m
2366.0,921.0,2928.0,3917.0,3322.0,2624.0,3098.0,2857.0,-3.12,8.93,7.15,0.17,-0.08,-0.3,0.0,m
2373.0,919.0,2918.0,3908.0,3318.0,2620.0,3093.0,2861.0,-1.77,9.41,6.14,0.17,-0.62,-0.45,0.0,m
2378.0,927.0,2931.0,3914.0,3316.0,2623.0,3093.0,2853.0,-3.3,8.67,7.11,-0.1,0.37,-0.31,0.0,m
2390.0,919.0,2922.0,3923.0,3319.0,2623.0,3086.0,2846.0,-3.18,8.67,7.22,0.21,-0.58,-0.43,0.0,m
2381.0,937.0,2922.0,3907.0,3321.0,2624.0,3091.0,2850.0,-3.63,8.89,7.37,0.3,-1.05,-0.39,0.0,m
2379.0,925.0,2919.0,3914.0,3319.0,2623.0,3088.0,2845.0,-2.7,8.78,7.56,0.52,-2.08,-0.34,0.0,m
2387.0,919.0,2927.0,3914.0,3327.0,2624.0,3093.0,2855.0,-2.47,9.04,6.9,0.49,-1.46,-0.38,0.0,m
2379.0,922.0,2919.0,3921.0,3328.0,2623.0,3088.0,2857.0,-2.68,8.98,6.95,0.25,-0.63,-0.34,0.0,m
2383.0,934.0,2927.0,3918.0,3329.0,2624.0,3091.0,2860.0,-3.01,9.13,7.11,0.24,-0.54,-0.29,0.0,m
2384.0,930.0,2934.0,3911.0,3330.0,2626.0,3088.0,2855.0,-3.71,8.95,7.23,0.21,-0.47,-0.2,0.0,m
2391.0,933.0,2933.0,3920.0,3329.0,2626.0,3090.0,2853.0,-1.59,8.77,6.81,0.26,-1.26,-0.31,0.0,m
2397.0,926.0,2919.0,3920.0,3330.0,2623.0,3085.0,2850.0,-1.96,9.05,6.83,0.11,-0.51,-0.28,0.0,m
2395.0,930.0,2941.0,3925.0,3334.0,2624.0,3088.0,2854.0,-2.38,8.98,6.9,0.03,0.37,-0.25,0.0,m
2389.0,919.0,2924.0,3925.0,3338.0,2622.0,3085.0,2855.0,-2.79,9.0,6.97,-0.01,0.19,-0.23,0.0,m
2393.0,919.0,2926.0,3921.0,3337.0,2624.0,3089.0,2861.0,-2.6,8.94,6.95,0.01,-0.01,-0.23,0.0,m
2393.0,930.0,2928.0,3929.0,3333.0,2629.0,3088.0,2854.0,-2.54,8.59,7.13,0.02,-0.02,-0.18,0.0,m
2384.0,925.0,2917.0,3911.0,3328.0,2623.0,3085.0,2860.0,-2.62,9.1,6.91,0.07,-0.18,-0.17,0.0,m
2387.0,925.0,2928.0,3915.0,3340.0,2625.0,3088.0,2863.0,-2.44,9.25,6.77,0.07,-0.32,-0.2,0.0,m
2386.0,919.0,2931.0,3920.0,3340.0,2627.0,3088.0,2864.0,-2.44,9.25,6.72,-0.03,-0.16,-0.21,0.0,m
2401.0,930.0,2919.0,3911.0,3335.0,2624.0,3088.0,2861.0,-2.78,9.04,7.01,-0.08,-0.09,-0.2,0.0,m
2391.0,923.0,2925.0,3918.0,3331.0,2624.0,3091.0,2862.0,-2.83,8.85,7.06,-0.08,-0.31,-0.22,0.0,m
2393.0,917.0,2927.0,3920.0,3342.0,2631.0,3091.0,2865.0,-2.47,8.82,7.11,-0.1,-0.29,-0.17,0.0,m
2389.0,933.0,2924.0,3933.0,3344.0,2624.0,3088.0,2864.0,-2.96,8.8,7.61,-0.14,-0.02,-0.04,0.0,m
2393.0,933.0,2923.0,3914.0,3342.0,2625.0,3091.0,2864.0,-2.71,9.14,7.56,-0.03,-0.27,-0.02,0.0,m
2403.0,933.0,2928.0,3920.0,3344.0,2629.0,3092.0,2864.0,-2.04,9.08,7.81,0.13,-1.16,-0.03,0.0,m
2384.0,933.0,2927.0,3913.0,3339.0,2625.0,3092.0,2864.0,-1.72,9.18,7.69,0.08,-0.54,-0.08,0.0,m
2393.0,919.0,2919.0,3912.0,3339.0,2626.0,3090.0,2864.0,-1.51,9.33,7.43,0.12,-0.42,-0.05,0.0,m
2390.0,923.0,2937.0,3927.0,3349.0,2627.0,3098.0,2863.0,-1.52,9.2,7.35,0.08,-0.35,-0.18,0.0,m
2396.0,933.0,2925.0,3919.0,3346.0,2631.0,3089.0,2865.0,-1.79,9.05,7.45,-0.01,-0.01,-0.14,0.0,m
2388.0,932.0,2927.0,3915.0,3351.0,2637.0,3101.0,2864.0,-1.66,8.97,7.49,-0.02,-0.29,-0.16,0.0,m
2391.0,930.0,2923.0,3922.0,3354.0,2635.0,3103.0,2866.0,-2.05,9.1,7.62,-0.03,-0.0,-0.11,0.0,m
2400.0,929.0,2929.0,3920.0,3355.0,2638.0,3104.0,2864.0,-1.93,9.12,7.65,-0.04,-0.08,-0.04,0.0,m
2416.0,918.0,2929.0,3917.0,3355.0,2635.0,3101.0,2849.0,-1.14,9.25,6.69,-0.45,1.15,-0.14,0.0,m
2467.0,935.0,2929.0,3920.0,3370.0,2642.0,3107.0,2846.0,-2.24,8.61,7.69,-0.41,1.2,0.03,0.0,m
2489.0,923.0,2924.0,3923.0,3371.0,2645.0,3115.0,2851.0,-1.58,8.88,7.96,-0.3,0.21,-0.18,0.0,m
2489.0,919.0,2928.0,3934.0,3373.0,2644.0,3115.0,2849.0,-2.73,8.89,8.43,-0.28,0.77,0.02,0.0,m
2490.0,926.0,2927.0,3921.0,3376.0,2645.0,3119.0,2855.0,-2.73,9.1,8.4,-0.18,0.86,-0.04,0.0,m
2483.0,938.0,2919.0,3908.0,3363.0,2643.0,3114.0,2852.0,-1.84,9.09,8.3,-0.07,0.32,-0.05,0.0,m
2487.0,927.0,2933.0,3904.0,3366.0,2635.0,3114.0,2832.0,-2.33,9.15,7.58,-0.24,1.6,-0.24,0.0,m
2511.0,924.0,2925.0,3905.0,3365.0,2640.0,3120.0,2853.0,-3.2,8.43,8.68,0.07,-0.31,0.02,0.0,m
2512.0,929.0,2934.0,3884.0,3373.0,2640.0,3116.0,2832.0,-2.52,8.86,7.78,0.15,-0.67,-0.36,0.0,m
2508.0,935.0,2925.0,3885.0,3375.0,2640.0,3121.0,2845.0,-2.08,8.84,7.65,-0.09,0.86,0.03,0.0,m
2508.0,919.0,2928.0,3874.0,3376.0,2643.0,3120.0,2845.0,-3.29,8.6,7.67,-0.2,1.06,-0.05,0.0,m
2501.0,923.0,2931.0,3877.0,3371.0,2635.0,3115.0,2842.0,-2.6,8.75,7.44,-0.24,1.19,-0.15,0.0,m
2518.0,924.0,2927.0,3875.0,3373.0,2640.0,3117.0,2848.0,-3.34,8.54,8.05,-0.28,0.71,-0.04,0.0,m
2506.0,930.0,2923.0,3881.0,3375.0,2640.0,3118.0,2845.0,-3.33,8.68,8.0,-0.17,0.31,-0.09,0.0,m
2512.0,929.0,2926.0,3876.0,3363.0,2638.0,3107.0,2843.0,-3.46,8.84,7.55,-0.19,0.92,0.02,0.0,m
2509.0,933.0,2928.0,3887.0,3376.0,2641.0,3109.0,2847.0,-3.57,8.99,7.53,-0.18,0.7,0.05,0.0,m
2501.0,917.0,2918.0,3875.0,3367.0,2641.0,3110.0,2845.0,-2.83,8.63,7.95,-0.25,0.81,-0.03,0.0,m
2505.0,923.0,2924.0,3879.0,3369.0,2644.0,3113.0,2855.0,-3.87,8.62,8.05,-0.21,0.78,-0.03,0.0,m
2787.0,931.0,2935.0,3830.0,3363.0,2639.0,3120.0,2832.0,-3.11,8.93,7.56,0.01,0.17,0.06,0.0,m
2851.0,932.0,2922.0,3833.0,3346.0,2638.0,3121.0,2819.0,-3.18,8.45,7.98,0.03,0.52,0.02,0.0,m
2850.0,919.0,2926.0,3825.0,3330.0,2626.0,3123.0,2814.0,-3.46,8.87,7.19,0.06,0.51,-0.09,0.0,m
2862.0,931.0,2929.0,3850.0,3328.0,2624.0,3120.0,2814.0,-3.34,8.81,6.97,-0.05,0.48,-0.16,0.0,m
2851.0,931.0,2921.0,3857.0,3328.0,2621.0,3129.0,2817.0,-3.91,8.57,7.18,-0.01,0.48,-0.22,0.0,m
2865.0,931.0,2925.0,3870.0,3323.0,2619.0,3131.0,2811.0,-3.99,8.64,7.34,-0.14,0.53,-0.15,0.0,m
2862.0,927.0,2921.0,3873.0,3317.0,2609.0,3125.0,2802.0,-4.21,8.4,7.13,-0.15,0.83,-0.02,0.0,m
2883.0,934.0,2915.0,3879.0,3321.0,2614.0,3122.0,2803.0,-3.85,8.55,7.2,-0.2,0.43,0.09,0.0,m
2913.0,914.0,2905.0,3881.0,3315.0,2614.0,3113.0,2799.0,-3.41,8.54,7.4,-0.1,0.4,0.08,0.0,m
2962.0,935.0,2923.0,3890.0,3323.0,2614.0,3099.0,2791.0,-3.07,8.77,6.31,-0.06,0.44,0.0,0.0,m
2975.0,929.0,2928.0,3891.0,3333.0,2621.0,3100.0,2783.0,-2.59,8.56,7.03,-0.2,0.52,0.06,0.0,m
2973.0,933.0,2924.0,3900.0,3350.0,2624.0,3091.0,2766.0,-3.24,8.58,7.22,-0.26,0.75,0.09,0.0,m
2989.0,926.0,2927.0,3888.0,3357.0,2627.0,3092.0,2768.0,-3.43,8.54,7.48,-0.2,0.31,0.14,0.0,m
2982.0,928.0,2925.0,3894.0,3361.0,2627.0,3102.0,2769.0,-3.07,8.77,7.42,-0.06,0.32,0.08,0.0,m
2977.0,916.0,2923.0,3889.0,3346.0,2622.0,3094.0,2766.0,-3.34,8.73,7.02,-0.09,0.36,0.11,0.0,m
2973.0,927.0,2917.0,3891.0,3344.0,2625.0,3095.0,2759.0,-2.6,9.02,6.66,-0.08,0.19,0.02,0.0,m
2983.0,917.0,2938.0,3895.0,3345.0,2629.0,3098.0,2765.0,-3.33,8.78,6.76,-0.14,0.47,0.08,0.0,m
2974.0,929.0,2919.0,3885.0,3339.0,2624.0,3103.0,2769.0,-3.01,8.93,6.81,-0.04,0.12,0.07,0.0,m
2972.0,927.0,2933.0,3890.0,3339.0,2624.0,3103.0,2768.0,-3.13,8.75,6.95,-0.1,0.32,0.13,0.0,m
2991.0,919.0,2924.0,3887.0,3328.0,2623.0,3101.0,2764.0,-2.93,8.87,6.84,-0.05,0.18,0.09,0.0,m
3001.0,929.0,2929.0,3883.0,3339.0,2623.0,3103.0,2765.0,-2.56,8.78,6.57,-0.07,0.37,0.07,0.0,m
3089.0,925.0,2928.0,3878.0,3346.0,2618.0,3115.0,2783.0,-2.35,9.19,6.45,0.03,-0.02,-0.06,0.0,m
3094.0,924.0,2928.0,3872.0,3350.0,2615.0,3115.0,2800.0,-2.77,9.1,7.07,-0.1,0.19,-0.06,0.0,m
3083.0,930.0,2931.0,3862.0,3343.0,2601.0,3120.0,2820.0,-2.2,9.62,6.68,-0.11,-0.1,-0.16,0.0,m
3024.0,927.0,2928.0,3858.0,3314.0,2591.0,3120.0,2834.0,-2.6,9.28,7.13,0.06,-0.08,-0.31,0.0,m
2959.0,922.0,2923.0,3857.0,3289.0,2592.0,3131.0,2846.0,-2.73,9.49,6.71,-0.04,0.03,-0.07,0.0,m
2919.0,914.0,2928.0,3858.0,3273.0,2587.0,3147.0,2836.0,-2.61,9.05,6.8,0.4,-0.04,-0.42,0.0,m
2985.0,915.0,2928.0,3879.0,3277.0,2592.0,3155.0,2823.0,-3.58,9.31,6.56,0.47,-0.16,-0.22,0.0,m
2986.0,922.0,2925.0,3860.0,3269.0,2582.0,3202.0,2849.0,-1.67,9.07,5.91,-0.01,-0.31,0.3,0.0,m
2976.0,910.0,2915.0,3829.0,3258.0,2559.0,3232.0,2863.0,-1.61,8.84,6.59,0.2,-0.02,-0.25,0.0,m
2967.0,907.0,2925.0,3824.0,3248.0,2579.0,3235.0,2865.0,-2.61,9.16,6.59,-0.05,-0.09,-0.35,0.0,m
2960.0,910.0,2925.0,3829.0,3251.0,2583.0,3238.0,2858.0,-2.33,9.31,6.15,-0.08,0.33,-0.18,0.0,m
2889.0,912.0,2918.0,3872.0,3293.0,2581.0,3174.0,2799.0,-3.66,8.67,6.73,-0.54,0.5,-0.09,0.0,m
2935.0,912.0,2925.0,3919.0,3299.0,2559.0,3141.0,2742.0,-3.25,9.11,7.05,0.4,-0.12,-0.65,0.0,m
3026.0,923.0,2928.0,3911.0,3315.0,2592.0,3152.0,2733.0,-3.97,8.36,7.5,-0.03,0.36,-0.07,0.0,m
3197.0,911.0,2926.0,3895.0,3317.0,2595.0,3175.0,2773.0,-3.59,9.19,6.53,0.51,-0.19,-0.37,0.0,m
3400.0,911.0,2928.0,3885.0,3330.0,2610.0,3226.0,2804.0,-2.64,8.99,5.8,0.2,-0.02,-0.03,0.0,m
3405.0,912.0,2918.0,3881.0,3323.0,2608.0,3226.0,2805.0,-2.75,8.77,5.81,-0.1,0.26,-0.12,0.0,m
3230.0,909.0,2928.0,3854.0,3302.0,2591.0,3177.0,2800.0,-3.17,8.85,6.03,-0.8,0.42,0.63,0.0,m
3136.0,903.0,2928.0,3843.0,3319.0,2603.0,3161.0,2768.0,-2.92,8.61,6.61,-0.13,0.16,0.04,0.0,m
3100.0,907.0,2923.0,3860.0,3321.0,2606.0,3136.0,2753.0,-2.49,8.93,6.27,-0.18,-0.07,-0.11,0.0,m
3097.0,909.0,2928.0,3869.0,3343.0,2625.0,3156.0,2781.0,-2.55,8.82,6.57,-0.39,-0.29,-0.04,0.0,m
3111.0,912.0,2931.0,3865.0,3346.0,2625.0,3182.0,2780.0,-2.95,9.26,6.71,-0.17,-0.3,-0.26,0.0,m
3111.0,917.0,2925.0,3807.0,3372.0,2635.0,3215.0,2800.0,-1.9,9.25,7.27,-0.39,-0.36,0.01,0.0,m
3105.0,912.0,2922.0,3794.0,3376.0,2641.0,3246.0,2837.0,-2.83,9.54,7.36,-0.01,-0.14,-0.29,0.0,m
3102.0,906.0,2929.0,3824.0,3376.0,2654.0,3263.0,2843.0,-2.44,9.6,7.45,0.16,-0.43,-0.39,0.0,m
3102.0,909.0,2928.0,3838.0,3379.0,2662.0,3264.0,2845.0,-3.24,9.5,7.77,0.03,-0.23,-0.16,0.0,m
3085.0,905.0,2934.0,3839.0,3378.0,2663.0,3263.0,2836.0,-2.64,9.67,7.58,0.27,-0.4,-0.23,0.0,m
3056.0,910.0,2931.0,3834.0,3374.0,2666.0,3271.0,2849.0,-2.45,9.63,7.58,0.27,-0.14,-0.25,0.0,m
3045.0,910.0,2923.0,3826.0,3366.0,2661.0,3264.0,2848.0,-2.94,9.39,7.55,0.36,-0.04,-0.29,0.0,m
2977.0,909.0,2919.0,3810.0,3344.0,2638.0,3236.0,2838.0,-3.79,9.1,7.81,0.45,0.01,-0.16,0.0,m
2902.0,907.0,2925.0,3783.0,3314.0,2592.0,3186.0,2832.0,-2.96,9.23,6.77,0.45,-0.13,0.18,0.0,m
2898.0,909.0,2933.0,3777.0,3307.0,2559.0,3159.0,2837.0,-2.12,9.24,5.55,0.49,-0.05,0.17,0.0,m
2922.0,913.0,2927.0,3767.0,3285.0,2559.0,3146.0,2834.0,-2.03,9.2,5.45,0.24,-0.1,-0.19,0.0,m
2939.0,922.0,2929.0,3780.0,3286.0,2583.0,3143.0,2830.0,-1.88,8.7,6.21,0.08,-0.18,-0.36,0.0,m
2947.0,909.0,2917.0,3790.0,3283.0,2559.0,3147.0,2815.0,-1.82,8.74,6.3,0.08,-0.32,-0.39,0.0,m
2962.0,913.0,2935.0,3802.0,3287.0,2581.0,3147.0,2816.0,-2.59,8.28,6.53,0.13,-0.22,-0.34,0.0,m
2957.0,914.0,2925.0,3799.0,3323.0,2608.0,3169.0,2822.0,-3.11,8.51,6.15,0.23,-0.14,-0.26,0.0,m
3091.0,912.0,2928.0,3791.0,3370.0,2647.0,3235.0,2838.0,-2.78,9.22,5.67,0.29,-0.24,-0.23,0.0,m
3185.0,903.0,2923.0,3807.0,3443.0,2768.0,3316.0,2845.0,-2.4,9.39,5.85,0.05,-0.39,-0.28,0.0,m
3193.0,909.0,2928.0,3819.0,3495.0,2804.0,3344.0,2850.0,-3.32,9.43,6.37,0.03,-0.21,-0.25,0.0,m
3184.0,918.0,2935.0,3829.0,3501.0,2802.0,3334.0,2848.0,-3.09,9.74,6.29,0.01,-0.33,-0.23,0.0,m
3122.0,913.0,2927.0,3811.0,3457.0,2772.0,3307.0,2851.0,-2.83,9.52,6.54,-0.0,-0.15,-0.26,0.0,m
3051.0,915.0,2927.0,3792.0,3409.0,2722.0,3254.0,2839.0,-2.87,9.62,6.14,0.09,-0.25,-0.22,0.0,m
3008.0,909.0,2928.0,3747.0,3344.0,2626.0,3185.0,2831.0,-2.42,9.33,6.14,-0.08,-0.35,-0.19,0.0,m
2997.0,909.0,2929.0,3722.0,3318.0,2591.0,3156.0,2823.0,-2.46,8.97,6.32,-0.0,-0.33,-0.31,0.0,m
2990.0,918.0,2933.0,3734.0,3325.0,2596.0,3161.0,2829.0,-2.98,8.88,6.65,0.03,-0.12,-0.32,0.0,m
2977.0,917.0,2923.0,3755.0,3360.0,2625.0,3185.0,2832.0,-2.81,9.0,6.58,0.25,-0.24,-0.35,0.0,m
2997.0,912.0,2931.0,3776.0,3407.0,2675.0,3238.0,2839.0,-2.3,9.45,5.75,0.23,-0.21,-0.34,0.0,m
3021.0,917.0,2928.0,3775.0,3413.0,2685.0,3248.0,2851.0,-1.01,9.77,5.28,-0.1,-0.64,-0.43,0.0,m
3024.0,921.0,2919.0,3781.0,3409.0,2679.0,3248.0,2854.0,-3.04,9.11,7.03,-0.15,-0.29,-0.55,0.0,m
3029.0,909.0,2921.0,3744.0,3344.0,2610.0,3189.0,2837.0,-3.48,8.91,7.36,0.02,-0.44,-0.29,0.0,m
3029.0,920.0,2928.0,3749.0,3342.0,2606.0,3174.0,2837.0,-3.29,9.02,6.82,0.37,-0.38,-0.38,0.0,m
3023.0,911.0,2918.0,3758.0,3359.0,2623.0,3187.0,2843.0,-3.73,8.76,6.67,0.6,-0.33,-0.33,0.0,m
3025.0,914.0,2924.0,3791.0,3408.0,2665.0,3239.0,2839.0,-2.33,8.95,5.85,0.64,-0.44,-0.29,0.0,m
3051.0,912.0,2928.0,3831.0,3444.0,2711.0,3277.0,2858.0,-2.6,9.03,5.46,0.37,-0.39,-0.42,0.0,m
3052.0,912.0,2933.0,3826.0,3440.0,2712.0,3275.0,2864.0,-2.78,8.47,5.78,0.18,-0.71,-0.49,0.0,m
3024.0,919.0,2931.0,3808.0,3392.0,2661.0,3239.0,2853.0,-3.11,8.07,6.19,-0.08,-0.92,-0.36,0.0,m
3029.0,907.0,2937.0,3777.0,3357.0,2622.0,3206.0,2856.0,-3.58,8.35,6.66,-0.1,-0.97,-0.54,0.0,m
3035.0,912.0,2933.0,3737.0,3339.0,2606.0,3184.0,2850.0,-3.82,8.13,7.29,0.1,-0.76,-0.36,0.0,m
3029.0,907.0,2929.0,3735.0,3346.0,2605.0,3183.0,2853.0,-4.48,8.46,7.26,0.08,-0.52,-0.4,0.0,m
3031.0,909.0,2931.0,3728.0,3371.0,2624.0,3188.0,2863.0,-5.14,8.35,7.41,0.15,-0.38,-0.32,0.0,m
3025.0,915.0,2927.0,3728.0,3377.0,2629.0,3203.0,2869.0,-4.55,8.83,6.92,0.04,-0.46,-0.34,0.0,m
3025.0,917.0,2926.0,3746.0,3391.0,2639.0,3213.0,2866.0,-4.29,9.0,6.87,-0.06,-0.28,-0.21,0.0,m
3029.0,922.0,2942.0,3792.0,3407.0,2649.0,3229.0,2864.0,-3.89,9.02,6.77,0.08,-0.48,-0.39,0.0,m
3040.0,912.0,2928.0,3822.0,3411.0,2668.0,3230.0,2866.0,-4.27,8.41,7.53,-0.05,-0.41,-0.35,0.0,m
3049.0,912.0,2929.0,3824.0,3419.0,2674.0,3243.0,2813.0,-3.31,8.55,7.12,0.31,-0.51,-0.52,0.0,m
3062.0,910.0,2923.0,3830.0,3423.0,2676.0,3246.0,2818.0,-4.45,8.71,7.01,0.07,-0.47,-0.24,0.0,m
3059.0,903.0,2929.0,3830.0,3419.0,2679.0,3249.0,2848.0,-3.27,8.19,7.49,0.06,-0.26,-0.42,0.0,m
3087.0,901.0,2922.0,3838.0,3423.0,2681.0,3247.0,2864.0,-4.94,8.96,7.24,0.24,-0.15,-0.26,0.0,m
3067.0,903.0,2931.0,3838.0,3429.0,2684.0,3248.0,2851.0,-3.82,8.43,7.44,0.06,0.0,0.01,0.0,m
3071.0,908.0,2930.0,3817.0,3411.0,2671.0,3233.0,2852.0,-5.21,8.74,7.05,0.03,-0.05,0.19,0.0,m
3081.0,906.0,2934.0,3806.0,3404.0,2658.0,3223.0,2852.0,-3.27,8.63,7.42,0.36,-1.3,0.29,0.0,m
3071.0,905.0,2925.0,3799.0,3393.0,2657.0,3216.0,2847.0,-2.71,9.06,7.25,0.5,-1.39,0.2,0.0,m
3066.0,912.0,2926.0,3796.0,3397.0,2658.0,3219.0,2851.0,-2.74,9.21,6.85,0.18,-0.15,-0.02,0.0,m
3045.0,909.0,2928.0,3792.0,3394.0,2659.0,3216.0,2851.0,-2.59,9.11,7.1,0.01,0.05,0.05,0.0,m
3050.0,902.0,2918.0,3792.0,3391.0,2658.0,3216.0,2852.0,-2.62,9.22,6.94,0.15,-0.11,-0.18,0.0,m
3056.0,906.0,2941.0,3810.0,3391.0,2657.0,3213.0,2849.0,-2.7,9.26,6.88,-0.01,0.36,-0.18,0.0,m
3034.0,907.0,2928.0,3795.0,3393.0,2657.0,3218.0,2859.0,-2.9,9.17,7.18,-0.01,0.21,-0.16,0.0,m
3030.0,913.0,2925.0,3799.0,3390.0,2653.0,3212.0,2855.0,-2.69,9.16,7.11,0.04,0.26,-0.08,0.0,m
3030.0,906.0,2930.0,3798.0,3392.0,2658.0,3216.0,2852.0,-2.94,9.05,7.27,0.19,0.44,-0.06,0.0,m
3021.0,911.0,2928.0,3792.0,3391.0,2667.0,3216.0,2832.0,-0.82,8.96,6.22,0.28,0.98,-0.32,0.0,m
3037.0,912.0,2931.0,3823.0,3405.0,2675.0,3217.0,2823.0,-4.57,8.73,6.0,-0.11,2.05,-0.15,0.0,m
3021.0,911.0,2928.0,3827.0,3405.0,2675.0,3225.0,2832.0,-4.44,8.88,5.95,-0.05,0.46,0.06,0.0,m
3018.0,913.0,2923.0,3815.0,3394.0,2672.0,3227.0,2833.0,-1.63,8.95,5.62,0.11,-0.2,-0.12,0.0,m
3024.0,906.0,2930.0,3821.0,3399.0,2673.0,3230.0,2818.0,-3.77,9.0,5.63,-0.23,1.23,-0.26,0.0,m
3024.0,899.0,2915.0,3825.0,3399.0,2672.0,3231.0,2836.0,-3.79,8.88,6.08,-0.04,0.22,-0.25,0.0,m
3019.0,902.0,2927.0,3833.0,3403.0,2673.0,3233.0,2838.0,-2.87,9.04,5.54,0.0,0.35,-0.32,0.0,m
3020.0,912.0,2925.0,3828.0,3399.0,2674.0,3233.0,2846.0,-4.09,8.63,5.8,-0.01,0.41,-0.3,0.0,m
3022.0,902.0,2928.0,3842.0,3399.0,2674.0,3227.0,2848.0,-3.84,9.15,5.21,-0.14,0.51,-0.36,0.0,m
3024.0,918.0,2928.0,3845.0,3401.0,2672.0,3222.0,2847.0,-4.24,8.89,5.39,-0.54,1.43,-0.1,0.0,m
3022.0,912.0,2921.0,3849.0,3404.0,2672.0,3222.0,2848.0,-5.13,8.59,5.93,-0.69,1.42,0.09,0.0,m
2992.0,910.0,2931.0,3854.0,3403.0,2673.0,3227.0,2851.0,-4.54,8.45,6.8,-0.38,1.03,0.04,0.0,m
2992.0,911.0,2923.0,3840.0,3403.0,2675.0,3229.0,2851.0,-4.56,8.77,6.4,0.1,0.91,-0.19,0.0,m
0.02,970.0,2917.0,3682.0,3468.0,2766.0,3278.0,2665.0,-2.32,9.18,2.93,-0.16,-0.3,0.18,0.0,m
3500.0,971.0,2923.0,3685.0,3478.0,2768.0,3270.0,2671.0,-2.17,9.3,4.05,0.07,-0.41,-0.07,0.0,m
3491.0,967.0,2927.0,3683.0,3482.0,2767.0,3280.0,2672.0,-2.04,9.37,3.3,0.18,-0.62,-0.22,0.0,m
3490.0,961.0,2922.0,3671.0,3481.0,2768.0,3283.0,2681.0,-3.91,9.15,4.41,0.21,-0.7,-0.3,0.0,m
3487.0,973.0,2926.0,3667.0,3485.0,2768.0,3287.0,2686.0,-4.12,9.48,4.21,0.33,-0.71,-0.2,0.0,m
3487.0,964.0,2928.0,3671.0,3488.0,2772.0,3291.0,2687.0,-3.68,9.17,4.04,0.33,-0.74,-0.2,0.0,m
3490.0,959.0,2930.0,3682.0,3487.0,2779.0,3291.0,2691.0,-3.86,9.03,3.99,0.27,-0.74,-0.29,0.0,m
3477.0,967.0,2929.0,3679.0,3491.0,2781.0,3290.0,2691.0,-3.04,8.77,3.57,0.15,-0.82,-0.23,0.0,m
3472.0,963.0,2914.0,3678.0,3491.0,2782.0,3291.0,2693.0,-4.2,8.67,4.98,0.21,-0.69,-0.11,0.0,m
3486.0,959.0,2933.0,3671.0,3493.0,2780.0,3287.0,2690.0,-3.99,8.65,4.78,0.0,-0.49,-0.18,0.0,m
3487.0,976.0,2929.0,3651.0,3479.0,2755.0,3257.0,2677.0,-4.15,8.75,5.09,-0.13,-0.56,-0.15,0.0,m
3474.0,969.0,2925.0,3625.0,3371.0,2746.0,3219.0,2669.0,-3.84,9.21,5.3,-0.16,-0.23,0.04,0.0,m
3440.0,975.0,2927.0,3619.0,3382.0,2753.0,3221.0,2611.0,-3.79,9.38,5.69,0.02,-0.1,-0.14,0.0,m
3429.0,973.0,2929.0,3633.0,3433.0,2769.0,3239.0,2641.0,-3.82,9.0,5.26,0.09,0.11,-0.14,0.0,m
3405.0,972.0,2925.0,3632.0,3451.0,2766.0,3248.0,2655.0,-4.27,9.02,4.95,0.0,0.09,-0.05,0.0,m
3394.0,967.0,2917.0,3638.0,3467.0,2771.0,3258.0,2663.0,-3.59,8.89,4.89,-0.04,0.21,-0.0,0.0,m
3299.0,975.0,2926.0,3642.0,3530.0,2796.0,3326.0,2684.0,-2.87,9.1,4.68,0.04,0.1,-0.13,0.0,m
3291.0,974.0,2925.0,3655.0,3543.0,2809.0,3344.0,2699.0,-3.67,9.18,5.14,-0.14,0.19,-0.09,0.0,m
3286.0,975.0,2928.0,3661.0,3536.0,2808.0,3335.0,2697.0,-3.48,9.59,4.99,-0.02,0.21,-0.14,0.0,m
3293.0,960.0,2923.0,3670.0,3539.0,2813.0,3343.0,2698.0,-4.0,10.01,4.28,0.2,0.15,-0.22,0.0,m
3294.0,964.0,2930.0,3675.0,3536.0,2804.0,3327.0,2685.0,-3.24,9.2,4.74,0.02,0.19,-0.23,0.0,m
3294.0,965.0,2919.0,3676.0,3543.0,2805.0,3323.0,2679.0,-3.55,8.39,4.97,0.06,0.39,-0.16,0.0,m
3283.0,970.0,2919.0,3661.0,3534.0,2800.0,3312.0,2655.0,-3.28,8.69,4.36,-0.16,1.74,-0.26,0.0,m
3296.0,965.0,2931.0,3661.0,3536.0,2800.0,3305.0,2640.0,-3.88,8.92,3.77,-0.1,1.07,-0.32,0.0,m
3286.0,971.0,2935.0,3641.0,3539.0,2806.0,3320.0,2654.0,-4.1,8.79,3.63,-0.04,0.34,-0.15,0.0,m
3290.0,957.0,2934.0,3638.0,3546.0,2812.0,3319.0,2681.0,-5.02,8.85,3.67,0.05,-0.68,0.45,0.0,m
3303.0,972.0,2924.0,3635.0,3542.0,2805.0,3315.0,2688.0,-0.72,9.42,3.17,0.44,-1.89,0.31,0.0,m
3328.0,974.0,2929.0,3651.0,3551.0,2813.0,3314.0,2643.0,-3.0,9.54,3.89,0.3,-0.67,0.22,0.0,m
3332.0,963.0,2928.0,3646.0,3550.0,2815.0,3318.0,2663.0,-2.55,9.51,3.1,0.12,0.11,-0.1,0.0,m
3333.0,976.0,2923.0,3645.0,3548.0,2819.0,3328.0,2665.0,-2.55,9.29,3.78,0.31,-2.57,0.14,0.0,m
3361.0,971.0,2927.0,3634.0,3543.0,2823.0,3343.0,2661.0,-1.8,9.47,4.05,0.07,-0.24,0.03,0.0,m
3359.0,962.0,2922.0,3617.0,3537.0,2820.0,3340.0,2669.0,-2.23,9.78,4.23,0.01,-0.43,-0.1,0.0,m
3379.0,976.0,2930.0,3632.0,3547.0,2825.0,3333.0,2665.0,-4.73,9.77,5.04,0.06,-1.04,0.38,0.0,m
3386.0,965.0,2932.0,3654.0,3551.0,2828.0,3331.0,2671.0,-3.05,9.73,4.47,0.14,-1.39,-0.02,0.0,m
3383.0,961.0,2928.0,3647.0,3559.0,2829.0,3328.0,2685.0,-1.56,9.79,4.81,0.14,-0.71,-0.13,0.0,m
3371.0,964.0,2930.0,3649.0,3556.0,2836.0,3311.0,2676.0,-2.18,9.83,5.18,0.04,-0.43,0.07,0.0,m
3381.0,975.0,2923.0,3637.0,3555.0,2833.0,3276.0,2677.0,-0.34,9.84,4.48,0.25,-1.89,0.0,0.0,m
3379.0,979.0,2917.0,3641.0,3568.0,2837.0,3281.0,2686.0,-0.16,10.08,4.49,0.09,-1.09,-0.1,0.0,m
3379.0,969.0,2919.0,3638.0,3568.0,2843.0,3291.0,2679.0,0.47,9.89,5.1,0.03,-0.39,-0.11,0.0,m
3370.0,975.0,2928.0,3634.0,3567.0,2834.0,3303.0,2685.0,-0.12,9.99,4.23,-0.1,2.45,-0.36,0.0,m
3366.0,965.0,2931.0,3661.0,3568.0,2848.0,3307.0,2694.0,-5.5,9.44,5.87,-0.33,0.68,0.1,0.0,m
3365.0,976.0,2925.0,3667.0,3570.0,2832.0,3333.0,2678.0,-1.42,9.92,4.44,-0.17,1.86,-0.25,0.0,m
3364.0,976.0,2924.0,3662.0,3570.0,2838.0,3359.0,2697.0,-1.83,9.84,4.69,-0.11,0.51,-0.49,0.0,m
3346.0,976.0,2923.0,3662.0,3568.0,2831.0,3347.0,2679.0,-2.01,9.81,4.53,-0.13,1.56,-0.49,0.0,m
3358.0,974.0,2929.0,3673.0,3571.0,2833.0,3358.0,2671.0,-1.33,9.68,3.94,-0.2,1.64,-0.63,0.0,m
3351.0,972.0,2923.0,3677.0,3568.0,2823.0,3345.0,2667.0,-1.62,9.66,3.99,-0.24,1.32,-0.65,0.0,m
3337.0,967.0,2923.0,3666.0,3568.0,2819.0,3349.0,2671.0,-1.32,9.44,4.63,-0.18,1.16,-0.71,0.0,m
3323.0,965.0,2923.0,3664.0,3574.0,2813.0,3351.0,2681.0,-4.04,9.3,3.56,-0.27,1.68,-0.38,0.0,m
3335.0,967.0,2921.0,3677.0,3566.0,2815.0,3356.0,2687.0,-3.25,9.25,3.69,-0.23,0.72,-0.31,0.0,m
3331.0,976.0,2927.0,3673.0,3568.0,2811.0,3355.0,2682.0,-3.61,8.87,4.16,-0.18,0.88,-0.48,0.0,m
3217.0,975.0,2928.0,3648.0,3568.0,2810.0,3330.0,2673.0,-4.54,9.1,3.17,0.2,0.9,-0.29,0.0,m
3230.0,964.0,2924.0,3638.0,3567.0,2807.0,3319.0,2696.0,-3.95,9.09,2.94,-0.46,0.93,-0.31,0.0,m
3216.0,970.0,2927.0,3652.0,3568.0,2811.0,3317.0,2710.0,-3.27,9.01,3.93,-0.43,0.78,-0.29,0.0,m
3199.0,962.0,2933.0,3660.0,3569.0,2816.0,3337.0,2704.0,-3.77,8.97,3.62,-0.15,0.41,-0.38,0.0,m
3161.0,967.0,2942.0,3666.0,3601.0,2823.0,3298.0,2698.0,-4.13,8.54,3.31,-0.04,0.16,0.1,0.0,m
3139.0,967.0,2922.0,3681.0,3597.0,2830.0,3306.0,2685.0,-3.41,9.28,2.85,-0.03,0.19,-0.01,0.0,m
3159.0,964.0,2933.0,3693.0,3604.0,2826.0,3311.0,2693.0,-3.49,9.07,3.49,-0.26,0.03,-0.26,0.0,m
3174.0,951.0,2935.0,3691.0,3605.0,2817.0,3296.0,2699.0,-4.46,8.98,3.7,-0.11,0.02,-0.31,0.0,m
3166.0,954.0,2929.0,3662.0,3583.0,2813.0,3286.0,2699.0,-4.16,8.73,3.53,0.03,0.01,-0.3,0.0,m
3151.0,959.0,2931.0,3695.0,3611.0,2827.0,3301.0,2712.0,-3.83,8.75,3.49,0.06,0.19,-0.35,0.0,m
3138.0,964.0,2933.0,3702.0,3605.0,2832.0,3309.0,2720.0,-5.16,8.56,3.06,-0.16,0.01,-0.58,0.0,m
3133.0,962.0,2928.0,3699.0,3602.0,2832.0,3321.0,2728.0,-5.37,8.37,4.15,-0.0,-0.01,-0.24,0.0,m
3135.0,960.0,2928.0,3698.0,3603.0,2834.0,3315.0,2735.0,-4.04,8.74,3.2,0.11,0.14,-0.02,0.0,m
3165.0,947.0,2933.0,3712.0,3614.0,2835.0,3313.0,2735.0,-4.13,8.94,2.83,0.04,-0.05,-0.05,0.0,m
3161.0,967.0,2929.0,3719.0,3612.0,2840.0,3314.0,2743.0,-3.63,9.01,2.87,0.14,-0.27,-0.06,0.0,m
3189.0,963.0,2918.0,3713.0,3600.0,2837.0,3315.0,2738.0,-1.39,9.23,2.81,0.5,-1.71,-0.15,0.0,m
3228.0,950.0,2932.0,3714.0,3609.0,2841.0,3334.0,2743.0,-2.83,9.05,3.34,-0.07,-0.3,-0.32,0.0,m
3241.0,961.0,2933.0,3714.0,3607.0,2842.0,3329.0,2718.0,-4.21,8.57,4.42,0.07,-0.89,-0.28,0.0,m
3261.0,953.0,2929.0,3710.0,3606.0,2845.0,3340.0,2736.0,-3.34,9.13,4.35,0.09,-0.35,-0.07,0.0,m
3273.0,951.0,2933.0,3711.0,3600.0,2842.0,3329.0,2734.0,-3.36,9.05,5.2,0.19,-0.38,-0.23,0.0,m
3265.0,957.0,2927.0,3717.0,3601.0,2837.0,3331.0,2736.0,-4.8,8.57,4.37,0.41,-0.55,-0.36,0.0,m
3259.0,949.0,2928.0,3740.0,3606.0,2847.0,3342.0,2738.0,-4.42,8.42,4.15,0.23,-0.77,-0.25,0.0,m
3260.0,961.0,2919.0,3728.0,3610.0,2855.0,3331.0,2721.0,-4.55,8.38,4.62,0.12,-0.75,-0.03,0.0,m
3260.0,961.0,2939.0,3721.0,3616.0,2862.0,3333.0,2733.0,-5.15,8.51,5.61,0.02,-0.53,-0.0,0.0,m
3263.0,960.0,2928.0,3730.0,3614.0,2864.0,3341.0,2737.0,-4.26,8.83,5.53,-0.11,-0.14,-0.04,0.0,m
3266.0,962.0,2929.0,3729.0,3614.0,2861.0,3344.0,2741.0,-2.86,9.4,5.05,-0.24,0.9,-0.23,0.0,m
3246.0,950.0,2925.0,3743.0,3615.0,2861.0,3351.0,2757.0,-5.76,8.56,5.46,-0.2,0.31,-0.37,0.0,m
3232.0,950.0,2928.0,3743.0,3622.0,2864.0,3358.0,2774.0,-4.64,8.43,5.43,-0.31,0.61,-0.13,0.0,m
3230.0,949.0,2926.0,3728.0,3613.0,2855.0,3351.0,2772.0,-4.56,8.52,4.99,-0.15,0.51,-0.08,0.0,m
3227.0,960.0,2935.0,3740.0,3618.0,2863.0,3361.0,2775.0,-5.58,8.84,4.89,-0.37,0.66,-0.26,0.0,m
3235.0,957.0,2929.0,3742.0,3615.0,2868.0,3366.0,2788.0,-4.92,8.36,5.92,-0.21,0.27,0.08,0.0,m
3222.0,951.0,2928.0,3738.0,3617.0,2864.0,3365.0,2791.0,-3.69,8.29,4.76,0.05,0.36,0.31,0.0,m
3230.0,960.0,2929.0,3738.0,3616.0,2864.0,3363.0,2799.0,-3.26,8.78,4.24,-0.07,0.19,0.4,0.0,m
3233.0,955.0,2927.0,3726.0,3611.0,2864.0,3358.0,2795.0,-2.52,9.82,4.24,-0.27,-0.09,0.22,0.0,m
3227.0,971.0,2930.0,3562.0,3605.0,2838.0,3407.0,2800.0,-2.49,9.79,5.47,-0.16,-0.28,-0.14,0.0,m
3223.0,976.0,2926.0,3563.0,3583.0,2810.0,3521.0,2803.0,-2.71,9.51,5.76,0.13,-0.18,-0.22,0.0,m
3219.0,985.0,2928.0,3633.0,3600.0,2819.0,3536.0,2802.0,-2.47,9.38,5.04,-0.01,-0.32,-0.36,0.0,m
3210.0,973.0,2925.0,3642.0,3607.0,2829.0,3505.0,2799.0,-3.75,8.94,5.74,0.01,-0.38,-0.21,0.0,m
3207.0,976.0,2928.0,3661.0,3619.0,2832.0,3477.0,2793.0,-3.17,9.11,5.84,0.14,-0.68,0.02,0.0,m
3207.0,976.0,2921.0,3650.0,3621.0,2838.0,3463.0,2788.0,-2.76,9.34,6.04,0.15,-0.62,-0.07,0.0,m
3179.0,995.0,2929.0,3665.0,3621.0,2833.0,3479.0,2789.0,-2.43,9.22,6.17,0.47,-1.14,-0.7,0.0,m
3121.0,999.0,2932.0,3719.0,3611.0,2822.0,3469.0,2742.0,-3.51,9.08,6.25,0.32,-0.46,-0.68,0.0,m
3136.0,977.0,2917.0,3818.0,3573.0,2803.0,3424.0,2662.0,-4.19,8.36,6.71,0.25,-0.3,-0.66,0.0,m
3156.0,965.0,2918.0,3844.0,3523.0,2753.0,3330.0,2640.0,-4.4,8.69,5.71,0.12,-0.2,-0.37,0.0,m
3292.0,951.0,2921.0,3876.0,3437.0,2701.0,3312.0,2677.0,-3.89,8.6,5.95,-0.26,0.11,-0.03,0.0,m
3277.0,959.0,2921.0,3897.0,3449.0,2706.0,3279.0,2607.0,-3.79,8.78,6.76,0.33,-0.2,-0.56,0.0,m
3280.0,963.0,2905.0,3872.0,3417.0,2689.0,3231.0,2499.0,-2.91,8.83,5.67,-0.06,-0.16,-0.12,0.0,m
3310.0,947.0,2913.0,3824.0,3431.0,2686.0,3245.0,2559.0,-3.9,9.39,5.19,-0.69,0.4,0.7,0.0,m
3315.0,950.0,2913.0,3776.0,3458.0,2709.0,3250.0,2585.0,-3.7,9.3,6.11,0.07,0.08,-0.08,0.0,m
3341.0,960.0,2914.0,3723.0,3482.0,2723.0,3283.0,2593.0,-3.51,9.04,5.57,0.01,0.14,-0.06,0.0,m
3332.0,959.0,2922.0,3689.0,3486.0,2723.0,3297.0,2608.0,-4.38,9.0,5.7,0.19,0.07,-0.35,0.0,m
3341.0,953.0,2923.0,3679.0,3486.0,2725.0,3293.0,2609.0,-4.67,8.95,5.67,0.13,0.26,-0.28,0.0,m
3354.0,961.0,2921.0,3698.0,3501.0,2736.0,3295.0,2609.0,-4.61,9.01,5.35,0.22,0.34,-0.36,0.0,m
3298.0,949.0,2923.0,3712.0,3506.0,2736.0,3297.0,2619.0,-4.79,8.47,4.36,0.39,0.22,-0.63,0.0,m
3294.0,962.0,2924.0,3728.0,3521.0,2755.0,3281.0,2624.0,-5.06,7.78,4.76,-0.1,0.38,-0.28,0.0,m
3300.0,960.0,2930.0,3758.0,3534.0,2766.0,3295.0,2628.0,-5.36,7.79,4.69,0.08,0.26,-0.14,0.0,m
3250.0,957.0,2928.0,3659.0,3477.0,2736.0,3203.0,2595.0,-4.8,8.19,3.61,0.54,-0.12,-0.23,0.0,m
3344.0,953.0,2917.0,3670.0,3444.0,2719.0,3200.0,2608.0,-4.63,8.22,3.79,-0.44,0.37,0.52,0.0,m
3415.0,947.0,2918.0,3653.0,3461.0,2734.0,3213.0,2624.0,-3.83,8.73,4.02,-0.46,0.26,0.56,0.0,m
3455.0,939.0,2919.0,3557.0,3483.0,2740.0,3223.0,2602.0,-3.54,8.65,4.66,-0.41,0.01,0.17,0.0,m
3421.0,944.0,2928.0,3559.0,3472.0,2738.0,3231.0,2627.0,-3.86,9.28,4.81,-0.22,-0.17,-0.05,0.0,m
3402.0,944.0,2931.0,3551.0,3487.0,2742.0,3289.0,2631.0,-3.43,9.68,5.03,-0.05,-0.35,-0.13,0.0,m
3394.0,959.0,2931.0,3553.0,3486.0,2747.0,3291.0,2640.0,-3.53,9.69,5.2,-0.04,-0.31,-0.2,0.0,m
3406.0,955.0,2918.0,3568.0,3487.0,2747.0,3298.0,2646.0,-3.91,9.79,5.15,0.09,-0.4,-0.47,0.0,m
3370.0,963.0,2919.0,3578.0,3506.0,2762.0,3311.0,2656.0,-3.99,9.02,5.94,0.26,-0.44,-0.28,0.0,m
3377.0,965.0,2923.0,3602.0,3506.0,2759.0,3306.0,2660.0,-3.51,8.27,5.87,0.31,-0.59,-0.31,0.0,m
3360.0,951.0,2921.0,3600.0,3505.0,2759.0,3307.0,2671.0,-3.48,8.31,5.68,0.24,-0.52,-0.38,0.0,m
1263.0,959.0,2935.0,3422.0,3108.0,2559.0,3280.0,2523.0,-1.91,9.55,5.39,0.05,0.41,-0.13,0.0,m
1259.0,971.0,2931.0,3430.0,3120.0,2549.0,3280.0,2522.0,-1.02,9.5,5.07,-0.07,0.18,-0.04,0.0,m
1247.0,958.0,2928.0,3444.0,3111.0,2547.0,3251.0,2517.0,-1.21,10.48,4.46,-0.13,-0.2,-0.2,0.0,m
1262.0,963.0,2931.0,3490.0,3105.0,2545.0,3250.0,2538.0,-1.54,9.92,5.17,0.13,-0.35,-0.48,0.0,m
1239.0,949.0,2929.0,3504.0,3117.0,2558.0,3257.0,2544.0,-1.54,9.66,5.36,-0.02,-0.49,-0.19,0.0,m
1258.0,965.0,2924.0,3503.0,3118.0,2558.0,3255.0,2544.0,-1.85,9.64,5.45,0.11,-0.53,-0.35,0.0,m
1257.0,960.0,2927.0,3518.0,3124.0,2559.0,3262.0,2548.0,-1.89,9.49,5.61,-0.19,-0.35,-0.27,0.0,m
1249.0,955.0,2933.0,3511.0,3125.0,2559.0,3233.0,2554.0,-2.19,9.25,6.36,0.01,-0.42,-0.3,0.0,m
1238.0,955.0,2937.0,3518.0,3137.0,2587.0,3248.0,2559.0,-2.38,9.59,5.42,-0.05,-0.33,-0.13,0.0,m
1245.0,959.0,2913.0,3511.0,3145.0,2587.0,3247.0,2559.0,-2.47,9.39,5.77,-0.1,-0.24,-0.27,0.0,m
1253.0,960.0,2928.0,3508.0,3137.0,2582.0,3232.0,2559.0,-2.27,9.28,6.23,-0.18,-0.38,-0.19,0.0,m
1242.0,964.0,2926.0,3493.0,3138.0,2580.0,3243.0,2559.0,-2.67,9.38,6.6,0.03,-0.24,-0.25,0.0,m
1254.0,966.0,2927.0,3499.0,3146.0,2586.0,3242.0,2579.0,-2.47,8.98,6.38,0.07,-0.27,-0.2,0.0,m
1245.0,975.0,2928.0,3488.0,3146.0,2582.0,3233.0,2579.0,-2.78,9.08,6.43,-0.12,-0.19,-0.22,0.0,m
1248.0,976.0,2925.0,3495.0,3152.0,2583.0,3237.0,2586.0,-2.85,9.14,6.71,-0.04,-0.03,-0.2,0.0,m
1249.0,983.0,2923.0,3493.0,3149.0,2559.0,3223.0,2587.0,-2.93,9.21,6.66,-0.05,0.08,-0.13,0.0,m
1253.0,969.0,2933.0,3487.0,3143.0,2579.0,3222.0,2593.0,-3.19,9.24,6.34,-0.09,0.15,-0.06,0.0,m
1255.0,974.0,2925.0,3494.0,3146.0,2581.0,3227.0,2593.0,-3.0,9.21,6.71,-0.09,0.21,-0.01,0.0,m
1251.0,976.0,2926.0,3483.0,3143.0,2595.0,3241.0,2585.0,-2.49,9.25,6.89,-0.09,0.16,0.09,0.0,m
1253.0,989.0,2933.0,3456.0,3134.0,2587.0,3266.0,2593.0,-2.21,9.26,7.07,-0.06,0.42,0.31,0.0,m
1235.0,989.0,2944.0,3370.0,3110.0,2589.0,3306.0,2559.0,-1.34,9.62,6.57,0.07,0.22,0.32,0.0,m
1221.0,994.0,2939.0,3364.0,3139.0,2597.0,3334.0,2610.0,-0.6,9.37,6.41,0.1,0.22,-0.05,0.0,m
1177.0,989.0,2934.0,3296.0,3236.0,2638.0,3358.0,2614.0,-1.75,9.8,6.42,-0.07,0.02,0.01,0.0,m
1535.0,982.0,2935.0,3295.0,3341.0,2688.0,3365.0,2662.0,-1.31,9.85,6.34,0.38,-0.01,0.07,0.0,m
2217.0,980.0,2928.0,3319.0,3421.0,2703.0,3350.0,2658.0,-0.43,9.75,5.34,0.25,0.34,-0.16,0.0,m
2112.0,975.0,2942.0,3311.0,3248.0,2671.0,3333.0,2645.0,-1.19,9.94,5.12,0.17,0.09,-0.33,0.0,m
1795.0,985.0,2948.0,3311.0,3231.0,2661.0,3339.0,2672.0,-1.83,9.76,5.71,0.19,0.22,-0.2,0.0,m
1665.0,981.0,2938.0,3320.0,3237.0,2660.0,3335.0,2677.0,-1.94,9.67,5.28,0.25,0.28,-0.01,0.0,m
1618.0,975.0,2940.0,3322.0,3245.0,2655.0,3319.0,2686.0,-0.88,9.77,4.72,0.14,0.48,0.0,0.0,m
1584.0,976.0,2939.0,3339.0,3247.0,2647.0,3317.0,2691.0,-1.36,9.79,4.36,0.04,0.5,-0.13,0.0,m
1458.0,976.0,2928.0,3330.0,3248.0,2641.0,3309.0,2694.0,-0.3,9.58,4.51,-0.15,0.07,-0.08,0.0,m
1321.0,978.0,2928.0,3361.0,3264.0,2638.0,3311.0,2672.0,-1.17,9.4,5.23,0.41,-0.26,-0.45,0.0,m
1072.0,980.0,2923.0,3440.0,3278.0,2656.0,3414.0,2669.0,-0.49,9.7,4.19,-0.22,0.36,0.08,0.0,m
1058.0,974.0,2927.0,3473.0,3287.0,2669.0,3451.0,2679.0,-1.13,9.95,4.86,-0.23,-0.08,-0.16,0.0,m
1031.0,979.0,2928.0,3477.0,3287.0,2651.0,3251.0,2612.0,-1.25,10.01,4.84,-0.38,0.15,0.15,0.0,m
1022.0,975.0,2938.0,3485.0,3274.0,2631.0,3165.0,2591.0,-1.05,9.76,5.11,-0.32,0.41,-0.0,0.0,m
1013.0,966.0,2938.0,3499.0,3271.0,2640.0,3125.0,2559.0,-0.8,10.16,5.44,0.17,0.03,-0.32,0.0,m
1015.0,978.0,2931.0,3504.0,3273.0,2651.0,3155.0,2598.0,-0.34,9.56,5.66,0.07,-0.08,-0.25,0.0,m
1006.0,974.0,2927.0,3497.0,3269.0,2657.0,3183.0,2618.0,-0.57,9.46,6.18,-0.05,-0.15,-0.17,0.0,m
1005.0,969.0,2928.0,3504.0,3265.0,2663.0,3187.0,2624.0,-0.36,10.01,5.08,-0.18,-0.4,-0.22,0.0,m
999.0,974.0,2925.0,3501.0,3279.0,2667.0,3196.0,2634.0,-0.9,9.62,6.46,-0.25,-0.28,-0.18,0.0,m
1008.0,977.0,2925.0,3508.0,3257.0,2653.0,3194.0,2622.0,-0.53,9.94,6.17,-0.05,-0.44,-0.2,0.0,m
999.0,976.0,2930.0,3511.0,3264.0,2659.0,3183.0,2610.0,-1.01,9.7,7.27,-0.07,-0.41,-0.33,0.0,m
1008.0,976.0,2927.0,3503.0,3255.0,2660.0,3184.0,2600.0,-0.44,9.32,7.02,0.02,-0.31,-0.27,0.0,m
996.0,974.0,2928.0,3517.0,3264.0,2661.0,3184.0,2606.0,-0.97,9.79,6.69,0.11,-0.34,-0.33,0.0,m
1008.0,966.0,2932.0,3505.0,3263.0,2661.0,3190.0,2602.0,-0.96,9.86,6.48,0.06,-0.29,-0.3,0.0,m
1001.0,973.0,2928.0,3513.0,3260.0,2659.0,3184.0,2592.0,-0.44,9.62,6.51,0.15,-0.4,-0.4,0.0,m
1005.0,976.0,2928.0,3515.0,3261.0,2669.0,3205.0,2581.0,-0.81,9.26,7.03,-0.02,-0.35,-0.41,0.0,m
1008.0,978.0,2935.0,3512.0,3259.0,2666.0,3206.0,2578.0,-1.13,9.11,7.11,0.05,-0.31,-0.51,0.0,m
998.0,977.0,2928.0,3522.0,3269.0,2671.0,3209.0,2559.0,-1.68,9.03,6.72,0.15,-0.39,-0.47,0.0,m
1002.0,966.0,2927.0,3509.0,3260.0,2670.0,3216.0,2582.0,-1.84,9.09,6.79,0.0,-0.3,-0.34,0.0,m
1007.0,974.0,2923.0,3507.0,3266.0,2671.0,3217.0,2586.0,-2.2,9.03,7.27,-0.16,-0.11,-0.24,0.0,m
1008.0,976.0,2925.0,3511.0,3265.0,2666.0,3222.0,2593.0,-2.26,9.28,7.26,-0.11,-0.03,-0.12,0.0,m
992.0,979.0,2932.0,3504.0,3256.0,2670.0,3227.0,2595.0,-2.0,9.21,7.38,-0.02,0.04,-0.09,0.0,m
993.0,985.0,2928.0,3515.0,3258.0,2673.0,3230.0,2591.0,-1.83,9.45,7.28,-0.07,0.19,0.02,0.0,m
1009.0,976.0,2929.0,3513.0,3261.0,2672.0,3227.0,2599.0,-1.7,9.26,7.22,-0.09,0.27,0.04,0.0,m
997.0,976.0,2929.0,3514.0,3267.0,2672.0,3225.0,2582.0,-1.81,9.69,6.28,-0.24,0.17,-0.1,0.0,m
995.0,974.0,2928.0,3511.0,3257.0,2668.0,3216.0,2559.0,-1.24,9.31,8.37,-0.22,0.07,0.01,0.0,m
1008.0,971.0,2931.0,3505.0,3226.0,2657.0,3205.0,2559.0,-1.42,9.46,7.64,-0.11,0.22,0.08,0.0,m
1362.0,977.0,2926.0,3434.0,3022.0,2635.0,3198.0,2601.0,-1.02,9.1,8.02,-0.46,0.35,0.15,0.0,m
1600.0,977.0,2927.0,3479.0,3025.0,2624.0,3214.0,2609.0,-0.82,8.93,8.32,0.18,0.29,-0.08,0.0,m
1585.0,971.0,2940.0,3490.0,3050.0,2630.0,3206.0,2609.0,-1.73,9.28,7.65,0.24,0.35,-0.02,0.0,m
1593.0,977.0,2937.0,3501.0,3071.0,2629.0,3206.0,2608.0,-0.97,9.67,7.23,0.25,0.3,0.09,0.0,m
1590.0,965.0,2928.0,3499.0,3081.0,2634.0,3209.0,2605.0,-0.88,9.71,6.43,0.25,0.23,-0.2,0.0,m
1598.0,977.0,2915.0,3501.0,3088.0,2631.0,3207.0,2599.0,-1.16,9.2,6.65,-0.06,0.25,-0.08,0.0,m
1603.0,976.0,2919.0,3499.0,3091.0,2637.0,3211.0,2599.0,-0.95,8.85,7.27,0.03,0.18,0.0,0.0,m
1620.0,975.0,2932.0,3504.0,3087.0,2639.0,3205.0,2595.0,-0.55,8.77,7.08,0.05,0.23,0.06,0.0,m
1654.0,976.0,2928.0,3503.0,3091.0,2629.0,3219.0,2603.0,0.49,9.51,6.93,-0.01,0.32,-0.05,0.0,m
1718.0,982.0,2931.0,3504.0,3091.0,2625.0,3234.0,2605.0,-0.57,9.68,7.08,0.09,0.21,-0.27,0.0,m
1765.0,966.0,2934.0,3485.0,3097.0,2627.0,3238.0,2586.0,-1.21,9.41,6.6,0.16,0.27,-0.36,0.0,m
1759.0,974.0,2928.0,3485.0,3099.0,2625.0,3237.0,2604.0,-1.41,9.74,5.97,0.13,0.18,-0.3,0.0,m
1750.0,969.0,2928.0,3494.0,3101.0,2628.0,3233.0,2608.0,-2.13,9.34,5.95,0.0,0.31,-0.26,0.0,m
1762.0,976.0,2935.0,3520.0,3102.0,2624.0,3235.0,2609.0,-1.35,9.62,5.26,-0.15,-0.4,-0.13,0.0,m
1778.0,976.0,2928.0,3491.0,3110.0,2628.0,3238.0,2621.0,-1.34,9.33,6.89,-0.29,-0.41,-0.12,0.0,m
1771.0,978.0,2931.0,3489.0,3115.0,2629.0,3237.0,2619.0,-0.6,9.71,6.8,-0.35,-0.41,-0.15,0.0,m
1782.0,979.0,2929.0,3486.0,3120.0,2635.0,3217.0,2624.0,-0.84,9.44,7.77,-0.17,-0.68,-0.36,0.0,m
1777.0,979.0,2927.0,3479.0,3121.0,2635.0,3232.0,2629.0,-1.15,9.73,7.85,0.02,-0.83,-0.38,0.0,m
1791.0,976.0,2942.0,3495.0,3124.0,2639.0,3248.0,2635.0,-2.41,9.62,8.51,0.18,-0.21,-0.37,0.0,m
1781.0,978.0,2938.0,3491.0,3122.0,2640.0,3248.0,2635.0,-1.93,9.77,7.15,0.32,-0.14,0.05,0.0,m
1776.0,987.0,2928.0,3491.0,3125.0,2651.0,3248.0,2636.0,-0.0,9.13,7.37,0.22,-0.14,-0.12,0.0,m
1780.0,979.0,2931.0,3491.0,3119.0,2640.0,3255.0,2631.0,-0.25,9.05,7.44,0.16,-0.22,-0.43,0.0,m
1785.0,976.0,2928.0,3490.0,3123.0,2639.0,3244.0,2631.0,-0.67,9.14,7.29,0.15,-0.4,-0.57,0.0,m
1790.0,981.0,2928.0,3489.0,3124.0,2640.0,3244.0,2631.0,-0.74,8.86,6.9,0.24,-0.46,-0.66,0.0,m
1779.0,974.0,2931.0,3498.0,3127.0,2640.0,3241.0,2631.0,-3.07,8.56,7.22,-0.05,-0.47,-0.77,0.0,m
1798.0,976.0,2933.0,3495.0,3130.0,2644.0,3245.0,2634.0,-2.32,8.36,7.1,-0.23,-0.15,-0.4,0.0,m
1791.0,978.0,2924.0,3486.0,3133.0,2639.0,3210.0,2631.0,-2.88,8.65,7.87,-0.2,-0.2,-0.13,0.0,m
1802.0,988.0,2925.0,3483.0,3133.0,2640.0,3195.0,2634.0,-2.69,9.08,7.92,-0.11,0.02,0.0,0.0,m
1777.0,991.0,2935.0,3472.0,3134.0,2640.0,3186.0,2637.0,-2.28,9.23,7.75,0.38,-0.39,-0.28,0.0,m
1779.0,983.0,2928.0,3486.0,3127.0,2627.0,3185.0,2592.0,-1.79,9.02,7.22,-0.08,0.15,0.01,0.0,m
1779.0,981.0,2939.0,3469.0,3133.0,2625.0,3216.0,2608.0,-1.95,8.63,7.32,-0.02,0.11,0.16,0.0,m
1779.0,977.0,2923.0,3462.0,3152.0,2627.0,3219.0,2650.0,-1.33,9.18,7.9,-0.09,0.08,0.12,0.0,m
1778.0,976.0,2939.0,3462.0,3152.0,2624.0,3209.0,2651.0,-1.1,9.42,8.02,-0.01,0.01,0.07,0.0,m
1776.0,976.0,2928.0,3456.0,3158.0,2627.0,3215.0,2654.0,-1.04,9.21,7.71,-0.04,0.02,0.03,0.0,m
1778.0,974.0,2939.0,3463.0,3152.0,2624.0,3227.0,2650.0,-0.5,9.51,7.09,-0.03,0.01,-0.06,0.0,m
1781.0,973.0,2928.0,3452.0,3158.0,2624.0,3234.0,2626.0,-0.97,9.86,7.05,-0.05,-0.17,-0.16,0.0,m
1792.0,983.0,2927.0,3493.0,3127.0,2583.0,3186.0,2496.0,-0.85,9.46,7.64,-0.02,-0.51,-0.53,0.0,m
1791.0,976.0,2922.0,3504.0,3100.0,2541.0,3210.0,2540.0,-1.65,9.18,7.83,-0.12,-0.11,-0.17,0.0,m
1792.0,989.0,2935.0,3513.0,3081.0,2514.0,3208.0,2545.0,-1.18,8.83,8.11,0.05,-0.19,-0.45,0.0,m
1711.0,976.0,2923.0,3525.0,3111.0,2519.0,3114.0,2512.0,-1.62,10.12,6.41,0.28,-0.69,-0.67,0.0,m
1716.0,981.0,2925.0,3534.0,3118.0,2537.0,3149.0,2527.0,-0.96,9.25,7.36,-0.02,-0.73,-0.82,0.0,m
1715.0,976.0,2929.0,3535.0,3114.0,2544.0,3157.0,2543.0,-3.74,9.11,8.97,0.12,-0.15,-0.61,0.0,m
1719.0,977.0,2930.0,3546.0,3120.0,2546.0,3152.0,2547.0,-2.23,8.88,8.27,0.38,0.16,-0.26,0.0,m
1700.0,976.0,2926.0,3546.0,3120.0,2546.0,3153.0,2555.0,-2.9,8.26,8.04,0.04,0.51,-0.04,0.0,m
1693.0,976.0,2926.0,3536.0,3120.0,2544.0,3157.0,2552.0,-2.44,8.53,7.2,0.06,0.47,0.14,0.0,m
1705.0,973.0,2929.0,3537.0,3119.0,2544.0,3152.0,2545.0,-2.3,8.62,7.67,-0.0,0.45,0.25,0.0,m
1671.0,980.0,2930.0,3536.0,3119.0,2551.0,3161.0,2559.0,-2.05,8.23,7.76,0.53,0.41,0.66,0.0,m
1674.0,979.0,2935.0,3520.0,3120.0,2551.0,3120.0,2555.0,-0.37,9.72,5.92,0.16,0.53,0.22,0.0,m
1679.0,981.0,2928.0,3527.0,3117.0,2555.0,3120.0,2556.0,-1.29,10.07,6.29,-0.16,0.53,-0.23,0.0,m
1678.0,973.0,2931.0,3533.0,3121.0,2559.0,3120.0,2559.0,-1.2,9.75,6.84,-0.1,0.53,-0.15,0.0,m
1680.0,976.0,2935.0,3527.0,3127.0,2559.0,3136.0,2559.0,-0.88,9.57,6.4,0.17,0.43,-0.1,0.0,m
1687.0,974.0,2928.0,3531.0,3119.0,2550.0,3129.0,2559.0,-1.55,9.64,5.6,0.11,0.37,-0.1,0.0,m
1678.0,989.0,2930.0,3525.0,3122.0,2559.0,3135.0,2555.0,-1.65,9.59,6.06,0.12,0.26,-0.21,0.0,m
1680.0,983.0,2928.0,3522.0,3122.0,2559.0,3103.0,2548.0,-1.04,9.64,6.17,-0.02,0.46,-0.04,0.0,m
1674.0,979.0,2925.0,3531.0,3123.0,2559.0,3098.0,2538.0,-1.77,9.64,5.83,0.08,0.84,-0.32,0.0,m
1662.0,983.0,2934.0,3518.0,3134.0,2559.0,3114.0,2501.0,-2.86,9.3,6.25,0.05,0.66,-0.45,0.0,m
1645.0,979.0,2928.0,3520.0,3119.0,2580.0,3179.0,2483.0,-2.09,9.46,5.11,0.13,0.01,-0.36,0.0,m
1509.0,966.0,2932.0,3571.0,3094.0,2557.0,3281.0,2495.0,-3.06,9.51,5.34,0.12,0.12,0.01,0.0,m
1518.0,955.0,2927.0,3568.0,3067.0,2534.0,3450.0,2702.0,-2.37,9.5,5.02,-0.15,-0.16,0.37,0.0,m
1694.0,938.0,2924.0,3573.0,3088.0,2544.0,3483.0,2751.0,-1.43,9.67,5.43,0.33,-0.2,-0.17,0.0,m
1883.0,958.0,2919.0,3474.0,3152.0,2559.0,3334.0,2526.0,-2.54,9.51,5.42,0.56,0.08,-0.75,0.0,m
2447.0,976.0,2929.0,3443.0,3197.0,2619.0,3300.0,2527.0,-2.43,8.87,5.15,0.07,-0.22,-0.29,0.0,m
2757.0,975.0,2933.0,3452.0,3219.0,2641.0,3313.0,2549.0,-2.78,9.62,4.81,-0.21,-0.55,-0.12,0.0,m
2736.0,963.0,2932.0,3467.0,3216.0,2655.0,3338.0,2559.0,0.51,9.79,6.24,-0.19,-1.26,0.14,0.0,m
2720.0,973.0,2930.0,3418.0,3283.0,2655.0,3350.0,2579.0,-1.61,9.36,6.06,-0.07,-0.68,0.05,0.0,m
2635.0,976.0,2932.0,3421.0,3358.0,2661.0,3363.0,2593.0,-2.18,9.47,5.79,-0.09,-0.2,-0.14,0.0,m
2547.0,976.0,2928.0,3433.0,3378.0,2673.0,3389.0,2612.0,-1.04,9.48,6.05,0.02,-0.17,-0.17,0.0,m
2545.0,962.0,2926.0,3420.0,3401.0,2666.0,3382.0,2607.0,-1.54,9.65,6.19,0.03,-0.43,-0.19,0.0,m
2584.0,967.0,2929.0,3425.0,3280.0,2654.0,3377.0,2599.0,-1.44,9.79,5.71,-0.23,-0.42,0.01,0.0,m
2559.0,967.0,2937.0,3428.0,3262.0,2639.0,3335.0,2605.0,-1.58,9.51,6.32,-0.17,0.05,-0.15,0.0,m
2598.0,967.0,2927.0,3433.0,3248.0,2607.0,3280.0,2586.0,-1.55,9.59,6.39,-0.13,-0.07,-0.09,0.0,m
2597.0,960.0,2931.0,3420.0,3234.0,2582.0,3250.0,2538.0,-0.83,9.33,7.13,0.14,-0.25,-0.07,0.0,m
2588.0,963.0,2929.0,3363.0,3237.0,2559.0,3222.0,2559.0,-1.22,9.62,6.54,0.16,0.21,-0.23,0.0,m
2581.0,969.0,2931.0,3322.0,3227.0,2559.0,3206.0,2549.0,-1.58,9.8,6.49,0.01,-0.02,-0.21,0.0,m
2395.0,977.0,2928.0,3324.0,3228.0,2547.0,3219.0,2595.0,-1.58,9.39,6.78,0.03,-0.02,-0.22,0.0,m
2372.0,962.0,2933.0,3298.0,3245.0,2553.0,3218.0,2637.0,-1.18,9.06,6.36,0.14,-0.06,-0.25,0.0,m
2467.0,948.0,2930.0,3251.0,3277.0,2559.0,3248.0,2703.0,-1.32,9.18,6.16,-0.02,-0.16,-0.3,0.0,m
2473.0,960.0,2943.0,3287.0,3282.0,2585.0,3255.0,2715.0,-1.48,9.01,6.23,-0.01,-0.4,-0.23,0.0,m
2480.0,949.0,2930.0,3310.0,3286.0,2597.0,3257.0,2728.0,-1.69,9.33,6.74,0.05,0.1,-0.13,0.0,m
2486.0,960.0,2939.0,3309.0,3283.0,2597.0,3254.0,2722.0,-1.4,9.51,6.47,-0.08,0.1,-0.11,0.0,m
2515.0,962.0,2926.0,3266.0,3303.0,2601.0,3276.0,2730.0,-1.67,9.66,6.22,-0.02,-0.19,-0.21,0.0,m
2518.0,963.0,2929.0,3269.0,3303.0,2608.0,3289.0,2750.0,-1.98,9.95,6.65,0.14,-0.17,-0.38,0.0,m
2512.0,953.0,2928.0,3313.0,3303.0,2608.0,3269.0,2704.0,-1.9,9.97,6.02,0.09,-0.34,-0.34,0.0,m
2494.0,960.0,2933.0,3347.0,3205.0,2542.0,3131.0,2685.0,-3.02,9.24,7.29,-0.18,-0.32,-0.07,0.0,m
2461.0,949.0,2928.0,3381.0,3215.0,2559.0,3153.0,2710.0,-2.47,9.36,6.42,0.04,0.26,0.08,0.0,m
2471.0,957.0,2934.0,3392.0,3229.0,2559.0,3164.0,2712.0,-0.76,9.42,6.59,0.01,0.05,-0.04,0.0,m
2466.0,965.0,2938.0,3411.0,3227.0,2559.0,3152.0,2679.0,-1.19,9.33,6.6,-0.01,-0.01,-0.3,0.0,m
2474.0,960.0,2927.0,3440.0,3242.0,2582.0,3157.0,2682.0,-0.97,9.23,6.61,-0.0,-0.29,-0.43,0.0,m
2472.0,950.0,2930.0,3439.0,3237.0,2580.0,3153.0,2679.0,-1.67,9.13,6.7,0.05,-0.22,-0.85,0.0,m
2479.0,953.0,2934.0,3445.0,3241.0,2586.0,3150.0,2683.0,-3.21,8.49,6.72,-0.03,-0.43,-0.58,0.0,m
2476.0,959.0,2927.0,3444.0,3245.0,2589.0,3158.0,2683.0,-3.84,7.98,7.69,-0.15,-0.04,-0.47,0.0,m
2466.0,960.0,2944.0,3446.0,3246.0,2590.0,3152.0,2688.0,-3.71,8.75,7.16,-0.07,-0.22,-0.03,0.0,m
2471.0,956.0,2929.0,3443.0,3245.0,2594.0,3158.0,2704.0,-3.15,8.55,7.5,-0.15,0.2,0.01,0.0,m
2469.0,961.0,2939.0,3444.0,3233.0,2591.0,3165.0,2704.0,-2.96,9.02,7.35,-0.02,-0.21,0.38,0.0,m
2404.0,964.0,2929.0,3459.0,3190.0,2559.0,3152.0,2704.0,-1.0,9.19,6.65,0.05,-0.23,0.13,0.0,m
2389.0,958.0,2937.0,3472.0,3200.0,2595.0,3157.0,2709.0,-1.92,9.4,7.47,-0.15,-0.3,-0.11,0.0,m
2395.0,957.0,2935.0,3472.0,3206.0,2587.0,3163.0,2708.0,-1.94,9.36,8.02,-0.04,-0.36,-0.1,0.0,m
2391.0,950.0,2928.0,3465.0,3216.0,2597.0,3159.0,2694.0,-1.31,9.48,7.41,-0.1,-0.31,-0.27,0.0,m
2374.0,966.0,2934.0,3469.0,3203.0,2593.0,3165.0,2682.0,-2.0,9.27,8.03,-0.01,-0.27,-0.44,0.0,m
2258.0,962.0,2933.0,3456.0,3231.0,2597.0,3157.0,2688.0,-3.07,9.87,8.81,0.45,-0.17,-0.37,0.0,m
2246.0,959.0,2928.0,3458.0,3227.0,2603.0,3169.0,2691.0,-1.13,9.13,7.66,0.33,0.08,-0.2,0.0,m
2237.0,965.0,2930.0,3472.0,3233.0,2599.0,3169.0,2697.0,-2.1,8.93,7.25,0.28,0.28,-0.2,0.0,m
2237.0,958.0,2928.0,3469.0,3232.0,2604.0,3170.0,2694.0,-1.86,8.89,6.59,0.13,0.1,-0.22,0.0,m
2231.0,950.0,2939.0,3477.0,3237.0,2603.0,3167.0,2695.0,-1.15,9.01,6.75,-0.02,-0.12,-0.36,0.0,m
2236.0,965.0,2928.0,3472.0,3237.0,2601.0,3168.0,2694.0,-2.25,9.01,7.29,0.02,-0.25,-0.38,0.0,m
2234.0,949.0,2931.0,3473.0,3237.0,2607.0,3175.0,2704.0,-2.56,8.93,7.19,0.16,-0.26,-0.35,0.0,m
2231.0,952.0,2941.0,3477.0,3237.0,2609.0,3174.0,2699.0,-2.93,8.87,6.99,0.1,-0.12,-0.28,0.0,m
2234.0,954.0,2933.0,3472.0,3248.0,2613.0,3181.0,2702.0,-3.12,9.0,6.93,0.05,-0.04,-0.19,0.0,m
2242.0,951.0,2929.0,3479.0,3247.0,2609.0,3184.0,2702.0,-2.86,8.84,6.98,0.02,0.01,-0.16,0.0,m
2237.0,954.0,2935.0,3475.0,3245.0,2609.0,3184.0,2710.0,-2.97,9.01,6.69,-0.0,0.03,-0.13,0.0,m
2238.0,963.0,2939.0,3475.0,3243.0,2608.0,3184.0,2706.0,-2.89,9.03,6.94,-0.07,-0.05,-0.11,0.0,m
2242.0,962.0,2926.0,3481.0,3249.0,2619.0,3190.0,2704.0,-2.76,9.05,6.85,0.05,0.02,-0.12,0.0,m
2230.0,953.0,2933.0,3473.0,3234.0,2611.0,3200.0,2699.0,-2.71,9.12,6.88,-0.02,0.11,-0.12,0.0,m
2233.0,954.0,2932.0,3479.0,3248.0,2613.0,3194.0,2710.0,-2.89,9.02,6.85,-0.05,0.06,-0.09,0.0,m
2243.0,958.0,2941.0,3481.0,3248.0,2613.0,3188.0,2707.0,-2.62,9.12,6.97,-0.01,-0.02,-0.09,0.0,m
2237.0,954.0,2928.0,3481.0,3257.0,2615.0,3188.0,2701.0,-2.77,9.11,6.96,0.0,0.03,-0.15,0.0,m
2227.0,950.0,2925.0,3462.0,3249.0,2609.0,3184.0,2691.0,-2.55,9.05,7.12,0.0,-0.0,-0.13,0.0,m
2238.0,960.0,2927.0,3472.0,3248.0,2611.0,3153.0,2698.0,-2.74,9.19,7.0,0.07,0.06,-0.07,0.0,m
2233.0,953.0,2930.0,3483.0,3248.0,2614.0,3184.0,2704.0,-2.22,9.19,6.67,0.0,0.11,-0.09,0.0,m
2239.0,947.0,2933.0,3476.0,3248.0,2615.0,3183.0,2705.0,-2.55,9.21,7.24,0.03,0.11,-0.16,0.0,m
2241.0,957.0,2929.0,3477.0,3254.0,2615.0,3184.0,2708.0,-2.72,9.18,6.88,0.13,0.13,-0.12,0.0,m
2238.0,949.0,2933.0,3474.0,3257.0,2619.0,3189.0,2710.0,-2.42,9.1,6.67,0.09,0.14,-0.11,0.0,m
2241.0,945.0,2933.0,3485.0,3254.0,2618.0,3189.0,2708.0,-2.48,9.34,6.26,0.03,0.11,-0.13,0.0,m
2243.0,951.0,2941.0,3483.0,3257.0,2623.0,3190.0,2715.0,-2.61,9.45,6.42,0.0,0.11,-0.14,0.0,m
2231.0,952.0,2926.0,3481.0,3257.0,2615.0,3191.0,2709.0,-2.87,9.33,7.01,0.14,0.22,-0.2,0.0,m
2249.0,965.0,2932.0,3474.0,3255.0,2617.0,3182.0,2704.0,-3.13,8.92,6.16,0.11,0.31,-0.18,0.0,m
2288.0,945.0,2931.0,3479.0,3248.0,2589.0,3151.0,2544.0,-2.32,9.19,5.91,0.14,-0.01,-0.5,0.0,m
2276.0,962.0,2930.0,3539.0,3222.0,2597.0,3154.0,2433.0,-2.61,8.86,6.2,0.02,0.44,-0.02,0.0,m
2290.0,947.0,2929.0,3529.0,3067.0,2581.0,3159.0,2479.0,-2.68,8.6,6.22,-0.57,0.49,0.32,0.0,m
2291.0,945.0,2926.0,3562.0,3105.0,2595.0,3183.0,2541.0,-2.71,8.9,6.52,-0.25,0.35,0.21,0.0,m
2282.0,965.0,2930.0,3563.0,3136.0,2601.0,3188.0,2515.0,-2.51,9.36,5.98,-0.05,0.35,0.03,0.0,m
2279.0,959.0,2928.0,3567.0,3148.0,2601.0,3182.0,2523.0,-2.35,9.59,5.77,-0.02,0.31,-0.03,0.0,m
2263.0,957.0,2928.0,3553.0,3151.0,2606.0,3187.0,2525.0,-2.56,9.47,5.82,0.02,0.33,-0.09,0.0,m
2279.0,963.0,2927.0,3568.0,3151.0,2602.0,3185.0,2514.0,-2.29,9.35,5.63,0.04,0.31,-0.08,0.0,m
2274.0,959.0,2929.0,3574.0,3155.0,2606.0,3194.0,2544.0,-2.14,9.19,5.68,0.07,0.28,-0.09,0.0,m
2275.0,954.0,2932.0,3568.0,3159.0,2604.0,3201.0,2505.0,-2.31,9.49,5.11,0.08,0.11,-0.16,0.0,m
2276.0,957.0,2927.0,3575.0,3158.0,2607.0,3206.0,2525.0,-1.84,9.38,4.97,-0.11,-0.02,-0.07,0.0,m
2283.0,950.0,2928.0,3570.0,3161.0,2609.0,3207.0,2555.0,-2.21,9.35,5.64,-0.28,0.02,0.07,0.0,m
2271.0,957.0,2929.0,3568.0,3167.0,2609.0,3201.0,2579.0,-1.78,9.73,5.76,-0.24,-0.11,0.04,0.0,m
2273.0,961.0,2928.0,3563.0,3161.0,2610.0,3199.0,2586.0,-1.53,9.48,6.41,-0.16,-0.19,-0.01,0.0,m
2274.0,959.0,2926.0,3563.0,3162.0,2608.0,3198.0,2581.0,-1.15,9.78,6.62,-0.14,-0.4,-0.06,0.0,m
2267.0,956.0,2934.0,3553.0,3167.0,2611.0,3195.0,2592.0,-0.64,10.09,6.16,0.03,-0.56,-0.2,0.0,m
2267.0,954.0,2928.0,3552.0,3167.0,2608.0,3179.0,2593.0,-1.44,9.72,6.62,-0.09,-0.5,-0.41,0.0,m
2259.0,957.0,2933.0,3551.0,3162.0,2610.0,3191.0,2606.0,-1.66,9.36,7.49,-0.08,-0.43,-0.5,0.0,m
2272.0,961.0,2928.0,3546.0,3168.0,2608.0,3183.0,2608.0,-2.23,9.43,7.45,0.13,-0.26,-0.36,0.0,m
2269.0,958.0,2925.0,3554.0,3167.0,2613.0,3189.0,2611.0,-2.05,9.32,7.28,0.25,-0.13,-0.28,0.0,m
2269.0,959.0,2934.0,3555.0,3162.0,2623.0,3186.0,2611.0,-2.07,9.01,6.83,0.15,0.1,-0.25,0.0,m
2263.0,958.0,2938.0,3563.0,3174.0,2611.0,3190.0,2615.0,-2.09,9.1,6.69,0.03,0.26,-0.14,0.0,m
2257.0,954.0,2928.0,3536.0,3167.0,2607.0,3188.0,2619.0,-2.09,8.96,6.29,-0.01,0.26,-0.1,0.0,m
2262.0,961.0,2931.0,3531.0,3159.0,2613.0,3187.0,2631.0,-1.46,8.87,6.22,-0.05,0.11,-0.1,0.0,m
2266.0,949.0,2919.0,3534.0,3175.0,2623.0,3186.0,2633.0,-2.2,9.05,6.86,-0.12,0.05,-0.08,0.0,m
2267.0,958.0,2930.0,3524.0,3168.0,2623.0,3189.0,2637.0,-2.39,9.4,6.85,-0.03,0.16,0.12,0.0,m
2263.0,955.0,2928.0,3526.0,3189.0,2622.0,3189.0,2640.0,-1.58,9.96,6.71,-0.0,0.22,0.11,0.0,m
2270.0,958.0,2932.0,3531.0,3179.0,2621.0,3187.0,2637.0,-1.2,9.85,6.76,0.08,0.22,-0.11,0.0,m
2262.0,951.0,2928.0,3534.0,3173.0,2626.0,3191.0,2639.0,-1.3,9.92,5.77,0.16,0.03,-0.19,0.0,m
2252.0,957.0,2924.0,3530.0,3181.0,2622.0,3191.0,2640.0,-0.87,9.55,5.99,0.05,-0.14,-0.43,0.0,m
2255.0,962.0,2928.0,3536.0,3175.0,2624.0,3190.0,2640.0,-1.67,9.02,6.48,0.05,-0.27,-0.56,0.0,m
2262.0,947.0,2925.0,3531.0,3175.0,2617.0,3186.0,2641.0,-2.15,8.85,6.42,0.06,-0.27,-0.38,0.0,m
2260.0,959.0,2924.0,3523.0,3182.0,2625.0,3190.0,2647.0,-2.47,8.84,6.56,0.04,-0.23,-0.18,0.0,m
2260.0,960.0,2928.0,3531.0,3179.0,2625.0,3189.0,2647.0,-2.08,9.2,6.38,-0.12,-0.17,-0.2,0.0,m
2261.0,957.0,2928.0,3527.0,3169.0,2620.0,3191.0,2647.0,-2.29,8.98,6.84,-0.15,-0.15,-0.08,0.0,m
2263.0,954.0,2937.0,3530.0,3172.0,2627.0,3184.0,2641.0,-2.49,9.57,6.9,-0.15,-0.14,-0.02,0.0,m
2249.0,948.0,2921.0,3526.0,3173.0,2624.0,3199.0,2631.0,-1.75,9.52,6.95,-0.08,-0.33,-0.14,0.0,m
2234.0,955.0,2930.0,3531.0,3191.0,2608.0,3234.0,2609.0,-3.0,9.34,7.75,0.54,-0.38,-0.46,0.0,m
2285.0,943.0,2933.0,3491.0,3170.0,2602.0,3403.0,2655.0,-1.95,8.89,7.47,0.22,0.06,0.03,0.0,m
2329.0,941.0,2919.0,3504.0,3174.0,2609.0,3344.0,2687.0,-1.34,9.47,6.72,-0.14,-0.06,0.01,0.0,m
2359.0,937.0,2934.0,3536.0,3197.0,2625.0,3297.0,2663.0,-1.74,9.69,6.86,0.17,-0.05,-0.3,0.0,m
2417.0,960.0,2928.0,3481.0,3278.0,2653.0,3404.0,2677.0,-1.4,8.43,7.62,0.3,-0.11,-0.3,0.0,m
2582.0,957.0,2926.0,3492.0,3283.0,2674.0,3511.0,2704.0,-1.85,9.39,6.7,0.62,-0.36,-0.56,0.0,m
2661.0,930.0,2926.0,3503.0,3301.0,2724.0,3808.0,2736.0,-1.68,9.47,5.85,0.2,-0.1,-0.4,0.0,m
2660.0,919.0,2928.0,3520.0,3295.0,2725.0,3957.0,2725.0,-1.88,9.48,6.19,0.15,-0.09,-0.36,0.0,m
2639.0,921.0,2927.0,3521.0,3253.0,2733.0,3972.0,2704.0,-2.4,9.46,6.11,0.58,-0.15,-0.63,0.0,m
2618.0,905.0,2931.0,3554.0,3273.0,2749.0,4043.0,2771.0,-2.79,9.93,4.71,0.02,0.02,-0.1,0.0,m
2605.0,907.0,2928.0,3562.0,3286.0,2758.0,3996.0,2809.0,-2.2,10.09,5.62,-0.25,-0.09,0.13,0.0,m
2161.0,2498.0,2931.0,3715.0,3227.0,2662.0,3087.0,2789.0,-2.03,9.58,5.43,-0.05,-0.57,0.18,0.0,m
2137.0,2491.0,2928.0,3729.0,3236.0,2665.0,3087.0,2794.0,-1.52,9.49,6.79,0.23,-0.72,-0.2,0.0,m
2109.0,2503.0,2939.0,3749.0,3187.0,2640.0,3071.0,2791.0,-1.99,8.62,6.59,0.22,-1.08,-0.6,0.0,m
2032.0,2519.0,2935.0,3760.0,3183.0,2617.0,3071.0,2794.0,-3.34,8.62,7.34,0.05,-0.61,-0.46,0.0,m
1993.0,2522.0,2928.0,3751.0,3184.0,2610.0,3066.0,2795.0,-3.35,8.95,7.13,0.19,-0.55,-0.36,0.0,m
1884.0,2512.0,2923.0,3755.0,3237.0,2579.0,3071.0,2803.0,-3.31,8.84,6.94,0.35,-0.5,-0.36,0.0,m
1859.0,2514.0,2931.0,3743.0,3280.0,2559.0,3071.0,2806.0,-3.51,8.6,6.96,0.2,-0.33,-0.3,0.0,m
1829.0,2509.0,2939.0,3728.0,3298.0,2559.0,3071.0,2806.0,-3.29,8.61,6.8,0.19,-0.3,-0.26,0.0,m
1789.0,2467.0,2931.0,3671.0,3299.0,2553.0,3069.0,2807.0,-3.69,8.65,6.76,-0.01,-0.13,-0.21,0.0,m
1678.0,2458.0,2928.0,3634.0,3305.0,2533.0,3070.0,2816.0,-3.71,8.77,6.55,0.11,-0.39,-0.22,0.0,m
1344.0,2411.0,2929.0,3638.0,3294.0,2500.0,3063.0,2807.0,-3.51,8.6,7.13,0.04,-0.19,-0.19,0.0,m
1282.0,2382.0,2937.0,3626.0,3344.0,2519.0,3082.0,2809.0,-3.6,9.2,6.88,0.54,-0.33,-0.26,0.0,m
1279.0,2287.0,2928.0,3551.0,3411.0,2613.0,3104.0,2817.0,-3.28,9.66,6.57,0.17,-0.16,-0.17,0.0,m
1267.0,2347.0,2939.0,3614.0,3486.0,2694.0,3152.0,2829.0,-3.56,9.33,6.64,0.08,0.12,-0.18,0.0,m
1255.0,2421.0,2941.0,3619.0,3518.0,2724.0,3171.0,2832.0,-3.07,8.89,6.89,0.21,0.09,-0.22,0.0,m
1251.0,2577.0,2937.0,3607.0,3543.0,2738.0,3196.0,2838.0,-3.64,8.86,6.19,0.26,-0.0,-0.11,0.0,m
1249.0,2543.0,2942.0,3597.0,3382.0,2655.0,3171.0,2835.0,-3.53,9.06,6.41,-0.14,0.2,0.12,0.0,m
1224.0,2513.0,2925.0,3579.0,3369.0,2589.0,3139.0,2833.0,-3.79,9.34,6.49,0.24,0.32,0.08,0.0,m
1238.0,2525.0,2928.0,3566.0,3389.0,2559.0,3129.0,2844.0,-3.48,9.52,5.4,-0.01,0.43,0.05,0.0,m
1228.0,2447.0,2935.0,3485.0,3381.0,2555.0,3134.0,2857.0,-2.05,9.28,6.34,-0.15,0.35,-0.05,0.0,m
1246.0,2421.0,2928.0,3472.0,3392.0,2557.0,3125.0,2857.0,-2.77,9.15,5.59,-0.35,0.42,-0.28,0.0,m
1241.0,2397.0,2928.0,3462.0,3392.0,2543.0,3120.0,2845.0,-2.84,8.78,6.54,-0.46,0.51,-0.25,0.0,m
1250.0,2399.0,2929.0,3469.0,3390.0,2549.0,3127.0,2839.0,-2.62,8.48,6.81,-0.27,0.45,-0.08,0.0,m
1237.0,2279.0,2930.0,3462.0,3399.0,2559.0,3131.0,2837.0,-2.77,9.13,6.04,-0.07,0.37,0.05,0.0,m
1200.0,973.0,2932.0,3376.0,3440.0,2597.0,3125.0,2882.0,-1.71,9.58,5.82,-0.0,0.22,0.01,0.0,m
1194.0,931.0,2930.0,3379.0,3456.0,2598.0,3120.0,2887.0,-2.85,9.09,5.72,0.09,0.27,-0.23,0.0,m
1191.0,912.0,2938.0,3393.0,3459.0,2593.0,3109.0,2886.0,-3.83,9.2,5.7,0.0,0.23,0.02,0.0,m
1200.0,927.0,2928.0,3413.0,3463.0,2602.0,3088.0,2867.0,-4.42,9.41,4.75,-0.14,0.16,0.06,0.0,m
1200.0,929.0,2927.0,3441.0,3467.0,2621.0,3101.0,2864.0,-2.33,9.09,6.65,-0.34,-0.14,0.17,0.0,m
1203.0,917.0,2943.0,3459.0,3466.0,2606.0,3088.0,2864.0,-1.3,9.3,7.22,-0.12,-0.23,0.07,0.0,m
1209.0,916.0,2944.0,3459.0,3458.0,2599.0,3090.0,2867.0,-1.76,9.67,6.83,-0.04,-0.07,-0.11,0.0,m
1191.0,912.0,2933.0,3463.0,3461.0,2608.0,3099.0,2880.0,-1.82,9.53,6.61,0.01,-0.26,-0.16,0.0,m
1207.0,912.0,2933.0,3470.0,3456.0,2602.0,3095.0,2880.0,-2.04,9.05,7.3,0.06,-0.29,-0.17,0.0,m
1195.0,923.0,2934.0,3473.0,3447.0,2608.0,3099.0,2873.0,-2.33,9.22,6.86,0.07,-0.25,-0.13,0.0,m
1200.0,912.0,2937.0,3477.0,3445.0,2604.0,3094.0,2868.0,-2.08,9.47,7.27,-0.12,-0.21,-0.16,0.0,m
1192.0,911.0,2928.0,3483.0,3439.0,2603.0,3090.0,2867.0,-2.02,9.15,7.46,-0.0,-0.31,-0.39,0.0,m
1203.0,921.0,2931.0,3477.0,3440.0,2608.0,3098.0,2864.0,-1.98,9.12,6.63,0.13,-0.43,-0.76,0.0,m
1201.0,915.0,2934.0,3478.0,3437.0,2608.0,3099.0,2859.0,-3.75,8.14,8.59,0.08,-0.13,-0.21,0.0,m
1209.0,911.0,2945.0,3443.0,3411.0,2559.0,3088.0,2838.0,-2.22,9.26,6.92,0.2,0.05,0.08,0.0,m
1201.0,915.0,2928.0,3439.0,3387.0,2549.0,3056.0,2806.0,-2.23,9.57,6.72,0.19,-0.19,-0.32,0.0,m
1221.0,919.0,2942.0,3467.0,3394.0,2548.0,3056.0,2794.0,-2.15,9.39,6.62,0.28,-0.11,-0.28,0.0,m
1243.0,913.0,2935.0,3472.0,3377.0,2558.0,3063.0,2800.0,-2.03,9.51,5.54,-0.08,-0.12,-0.48,0.0,m
1231.0,926.0,2939.0,3483.0,3391.0,2559.0,3061.0,2816.0,-4.5,9.21,7.73,-0.14,0.03,-0.35,0.0,m
1239.0,921.0,2947.0,3497.0,3387.0,2559.0,3061.0,2800.0,-2.6,9.5,6.69,0.15,0.08,-0.29,0.0,m
1246.0,922.0,2935.0,3493.0,3402.0,2559.0,3069.0,2802.0,-3.12,9.53,6.05,0.2,-0.15,-0.45,0.0,m
1239.0,939.0,2934.0,3531.0,3445.0,2608.0,3087.0,2773.0,-3.09,9.01,7.27,0.04,-0.39,-0.58,0.0,m
1236.0,939.0,2933.0,3565.0,3454.0,2622.0,3095.0,2788.0,-2.63,8.05,7.59,0.28,-0.29,-0.59,0.0,m
1232.0,934.0,2926.0,3581.0,3453.0,2629.0,3103.0,2798.0,-3.82,7.64,7.29,0.33,-0.2,-0.5,0.0,m
1223.0,947.0,2954.0,3615.0,3458.0,2634.0,3110.0,2799.0,-3.99,7.83,6.57,0.26,-0.13,-0.33,0.0,m
1229.0,951.0,2928.0,3630.0,3446.0,2639.0,3106.0,2800.0,-4.2,8.25,6.54,0.2,-0.17,-0.22,0.0,m
1226.0,951.0,2935.0,3630.0,3456.0,2636.0,3109.0,2803.0,-4.32,8.39,6.67,0.04,-0.16,-0.2,0.0,m
1214.0,949.0,2930.0,3607.0,3441.0,2619.0,3104.0,2807.0,-4.97,8.05,6.98,0.02,-0.05,-0.15,0.0,m
1215.0,953.0,2928.0,3556.0,3417.0,2599.0,3095.0,2811.0,-4.83,8.53,6.23,-0.1,0.04,0.08,0.0,m
1205.0,943.0,2933.0,3549.0,3407.0,2559.0,3088.0,2801.0,-4.48,8.64,6.98,-0.23,0.2,0.15,0.0,m
1205.0,943.0,2932.0,3558.0,3409.0,2583.0,3085.0,2806.0,-3.91,9.13,6.65,-0.29,0.34,0.11,0.0,m
1216.0,946.0,2935.0,3565.0,3407.0,2587.0,3087.0,2806.0,-4.01,8.94,6.81,-0.18,0.26,0.09,0.0,m
1203.0,953.0,2928.0,3554.0,3408.0,2593.0,3088.0,2806.0,-2.47,9.61,7.01,-0.12,0.17,0.02,0.0,m
1207.0,941.0,2935.0,3566.0,3409.0,2597.0,3093.0,2812.0,-4.59,8.82,6.41,0.01,0.2,-0.24,0.0,m
1212.0,950.0,2935.0,3573.0,3415.0,2606.0,3104.0,2812.0,-3.62,8.18,6.86,-0.14,0.34,0.15,0.0,m
1217.0,944.0,2934.0,3572.0,3411.0,2605.0,3097.0,2812.0,-2.23,8.24,7.58,-0.14,0.31,0.27,0.0,m
1215.0,957.0,2939.0,3568.0,3414.0,2603.0,3092.0,2808.0,-2.11,8.96,7.25,0.04,0.25,0.2,0.0,m
1214.0,944.0,2943.0,3578.0,3422.0,2607.0,3091.0,2789.0,-1.4,9.04,6.84,0.12,0.17,0.05,0.0,m
1195.0,945.0,2938.0,3547.0,3303.0,2559.0,3079.0,2782.0,-2.77,9.06,6.11,-0.06,0.2,0.09,0.0,m
1170.0,944.0,2935.0,3550.0,3230.0,2559.0,3088.0,2796.0,-2.72,9.4,5.95,0.18,-0.28,-0.06,0.0,m
1182.0,934.0,2934.0,3568.0,3249.0,2559.0,3088.0,2793.0,-2.56,9.39,6.32,-0.03,-0.55,-0.05,0.0,m
1185.0,943.0,2936.0,3558.0,3302.0,2607.0,3094.0,2793.0,-2.02,9.34,7.54,0.2,-1.01,-0.18,0.0,m
1182.0,944.0,2935.0,3566.0,3307.0,2611.0,3090.0,2787.0,-1.17,9.55,6.95,0.19,-0.95,-0.25,0.0,m
1172.0,959.0,2925.0,3579.0,3284.0,2618.0,3101.0,2789.0,-1.67,9.46,7.52,0.3,-1.6,-0.32,0.0,m
1173.0,948.0,2934.0,3600.0,3295.0,2586.0,3097.0,2785.0,-1.74,9.05,7.28,0.04,-0.03,-0.13,0.0,m
1191.0,950.0,2928.0,3607.0,3328.0,2595.0,3097.0,2789.0,-0.6,9.78,6.05,0.26,0.54,-0.33,0.0,m
1186.0,949.0,2934.0,3609.0,3328.0,2589.0,3094.0,2791.0,-2.4,9.28,6.46,0.16,-0.01,-0.4,0.0,m
1178.0,953.0,2944.0,3583.0,3325.0,2546.0,3095.0,2793.0,-2.06,9.36,6.3,-0.01,-0.44,-0.39,0.0,m
1196.0,947.0,2929.0,3612.0,3318.0,2545.0,3094.0,2795.0,-2.3,8.79,7.6,-0.17,0.27,-0.38,0.0,m
1194.0,946.0,2933.0,3617.0,3329.0,2554.0,3098.0,2797.0,-2.39,9.12,6.92,0.04,-0.15,-0.2,0.0,m
1201.0,943.0,2930.0,3616.0,3325.0,2555.0,3088.0,2795.0,-2.04,9.31,6.85,-0.09,-0.09,-0.29,0.0,m
1183.0,957.0,2928.0,3618.0,3330.0,2551.0,3088.0,2793.0,-3.01,9.42,7.44,-0.22,0.01,-0.27,0.0,m
1168.0,942.0,2942.0,3633.0,3306.0,2514.0,3086.0,2794.0,-2.83,8.73,7.39,-0.14,0.11,-0.1,0.0,m
1110.0,959.0,2928.0,3654.0,3306.0,2521.0,3071.0,2793.0,-2.71,8.56,7.21,-0.12,0.22,-0.12,0.0,m
1113.0,943.0,2929.0,3657.0,3328.0,2533.0,3079.0,2799.0,-2.91,8.79,7.66,-0.21,0.29,0.04,0.0,m
1104.0,943.0,2932.0,3660.0,3338.0,2541.0,3071.0,2800.0,-2.16,9.23,7.16,-0.2,0.51,0.07,0.0,m
1117.0,944.0,2929.0,3658.0,3317.0,2531.0,3071.0,2800.0,-2.31,8.19,7.14,-0.31,0.31,0.13,0.0,m
1126.0,947.0,2945.0,3664.0,3335.0,2543.0,3071.0,2802.0,-2.78,9.45,7.62,-0.06,0.21,0.23,0.0,m
1127.0,943.0,2938.0,3661.0,3344.0,2546.0,3070.0,2801.0,-2.38,9.78,7.86,0.03,0.37,0.18,0.0,m
1117.0,954.0,2941.0,3664.0,3348.0,2559.0,3071.0,2798.0,-0.87,9.68,7.34,0.08,0.27,-0.08,0.0,m
1109.0,944.0,2933.0,3664.0,3350.0,2555.0,3066.0,2800.0,-1.7,9.27,7.09,0.1,0.41,-0.29,0.0,m
1109.0,950.0,2933.0,3650.0,3349.0,2547.0,3054.0,2798.0,-3.12,8.25,7.46,0.04,0.44,0.13,0.0,m
1120.0,953.0,2932.0,3651.0,3345.0,2545.0,3053.0,2800.0,-0.53,8.47,7.25,0.18,0.51,0.36,0.0,m
1120.0,937.0,2934.0,3678.0,3363.0,2551.0,3056.0,2800.0,-0.39,9.48,6.09,-0.02,0.29,0.1,0.0,m
1125.0,955.0,2935.0,3664.0,3362.0,2556.0,3061.0,2800.0,-0.42,9.89,5.85,-0.16,-0.15,-0.19,0.0,m
1111.0,951.0,2933.0,3671.0,3354.0,2549.0,3058.0,2799.0,-1.34,10.07,6.39,-0.15,-0.48,-0.38,0.0,m
1122.0,938.0,2943.0,3659.0,3360.0,2559.0,3060.0,2799.0,-1.71,9.8,7.21,-0.04,-0.59,-0.51,0.0,m
1119.0,939.0,2939.0,3664.0,3365.0,2559.0,3058.0,2794.0,-2.32,9.68,7.56,0.07,-0.71,-0.6,0.0,m
1118.0,944.0,2933.0,3649.0,3350.0,2551.0,3065.0,2800.0,-1.99,9.47,7.11,0.11,-0.54,-0.62,0.0,m
1136.0,940.0,2927.0,3657.0,3351.0,2547.0,3058.0,2800.0,-2.03,9.07,7.98,0.29,-0.43,-0.53,0.0,m
1126.0,954.0,2933.0,3667.0,3355.0,2551.0,3062.0,2803.0,-3.26,8.68,7.55,0.28,-0.28,-0.53,0.0,m
1136.0,938.0,2934.0,3660.0,3359.0,2554.0,3061.0,2802.0,-4.46,8.09,7.86,0.2,0.17,-0.29,0.0,m
1133.0,946.0,2929.0,3661.0,3380.0,2559.0,3067.0,2805.0,-2.51,9.0,6.78,0.27,0.44,0.11,0.0,m
1136.0,946.0,2937.0,3649.0,3382.0,2559.0,3065.0,2798.0,-2.04,9.16,6.15,-0.02,0.44,-0.06,0.0,m
1139.0,943.0,2935.0,3648.0,3405.0,2593.0,3071.0,2803.0,-1.17,8.75,6.38,-0.15,-0.22,-0.27,0.0,m
1146.0,927.0,2919.0,3663.0,3413.0,2592.0,3089.0,2809.0,-3.23,8.3,7.33,-0.15,0.21,-0.17,0.0,m
1149.0,926.0,2928.0,3663.0,3406.0,2599.0,3087.0,2811.0,-3.64,9.41,6.65,-0.05,0.54,0.04,0.0,m
1155.0,938.0,2937.0,3583.0,3430.0,2610.0,3087.0,2831.0,-3.18,9.5,6.32,-0.24,0.77,0.03,0.0,m
1164.0,939.0,2925.0,3604.0,3463.0,2628.0,3090.0,2836.0,-2.53,9.28,7.43,-0.27,1.03,0.07,0.0,m
1168.0,950.0,2942.0,3625.0,3501.0,2673.0,3102.0,2817.0,-2.08,8.94,6.93,0.02,0.05,-0.09,0.0,m
1145.0,965.0,2928.0,3650.0,3516.0,2703.0,3133.0,2779.0,-2.79,9.09,6.36,-0.2,0.38,0.04,0.0,m
1108.0,1040.0,2942.0,3627.0,3556.0,2747.0,3189.0,2854.0,-2.14,9.03,6.88,-0.13,0.26,-0.02,0.0,m
1117.0,1049.0,2930.0,3609.0,3570.0,2762.0,3210.0,2879.0,-2.58,9.05,6.6,0.08,0.25,-0.13,0.0,m
1105.0,1057.0,2928.0,3597.0,3446.0,2663.0,3143.0,2875.0,-2.71,9.31,6.41,-0.18,0.22,-0.02,0.0,m
1114.0,1058.0,2933.0,3600.0,3404.0,2586.0,3121.0,2882.0,-2.37,9.19,6.73,0.0,0.11,-0.12,0.0,m
1103.0,1045.0,2930.0,3619.0,3434.0,2608.0,3122.0,2878.0,-2.65,9.19,6.7,0.17,0.01,-0.22,0.0,m
1096.0,1168.0,2944.0,3622.0,3506.0,2686.0,3150.0,2880.0,-2.75,8.66,7.32,0.09,0.29,-0.12,0.0,m
1091.0,1195.0,2928.0,3613.0,3504.0,2691.0,3163.0,2850.0,-2.92,9.82,5.45,0.11,0.23,-0.12,0.0,m
1103.0,1168.0,2930.0,3605.0,3380.0,2609.0,3120.0,2845.0,-2.45,9.28,6.17,-0.12,0.28,-0.17,0.0,m
1105.0,1153.0,2930.0,3614.0,3440.0,2647.0,3135.0,2853.0,-2.87,9.25,5.49,0.11,0.27,-0.25,0.0,m
1116.0,1157.0,2924.0,3617.0,3453.0,2658.0,3146.0,2859.0,-2.75,8.92,5.63,-0.15,0.19,-0.19,0.0,m
1114.0,1174.0,2929.0,3618.0,3428.0,2623.0,3127.0,2850.0,-2.76,8.66,6.27,-0.03,0.08,-0.07,0.0,m
1106.0,1173.0,2944.0,3622.0,3429.0,2614.0,3123.0,2844.0,-2.2,9.2,5.55,0.09,-0.24,-0.1,0.0,m
