hall_1,hall_2,hall_3,flex_t,flex_i,flex_m,flex_r,flex_p,accel_x,accel_y,accel_z,gyro_x,gyro_y,gyro_z,sign
1771.0,3062.0,3199.0,2840.0,3287.0,3796.0,2768.0,3120.0,2.85,8.84,-1.88,0.17,0.06,-0.01,n
1783.0,3098.0,3223.0,2845.0,3293.0,3827.0,2798.0,3148.0,2.9,9.24,-1.91,-0.07,-0.03,-0.0,n
1775.0,3101.0,3219.0,2843.0,3295.0,3827.0,2800.0,3149.0,2.82,8.99,-1.33,0.02,-0.02,-0.09,n
1779.0,3091.0,3225.0,2839.0,3296.0,3830.0,2799.0,3143.0,2.32,9.43,-1.72,-0.06,0.06,-0.1,n
1777.0,3094.0,3223.0,2844.0,3294.0,3827.0,2794.0,3146.0,2.64,9.27,-1.42,-0.05,-0.13,0.03,n
1778.0,3088.0,3221.0,2845.0,3290.0,3824.0,2794.0,3145.0,2.65,9.29,-1.53,-0.08,0.02,-0.11,n
1776.0,3091.0,3230.0,2846.0,3291.0,3840.0,2799.0,3149.0,2.25,9.36,-2.15,-0.08,-0.07,0.07,n
1771.0,3110.0,3237.0,2833.0,3280.0,3841.0,2815.0,3161.0,2.72,8.92,-1.95,-0.24,-0.08,-0.03,n
1774.0,3071.0,3203.0,2846.0,3293.0,3805.0,2772.0,3125.0,2.89,9.6,-0.73,-0.19,0.04,0.05,n
1779.0,3034.0,3167.0,2848.0,3293.0,3761.0,2738.0,3091.0,2.5,9.61,-0.47,0.0,0.0,-0.01,n
1776.0,3023.0,3155.0,2845.0,3294.0,3742.0,2726.0,3071.0,2.64,9.51,-1.1,0.03,-0.08,0.02,n
1773.0,3062.0,3201.0,2847.0,3294.0,3795.0,2771.0,3120.0,2.62,9.22,-1.31,0.13,0.0,-0.02,n
1761.0,3071.0,3209.0,2847.0,3287.0,3807.0,2780.0,3133.0,2.4,9.46,-1.56,0.09,0.04,-0.01,n
1748.0,3109.0,3231.0,2846.0,3290.0,3835.0,2801.0,3152.0,2.41,8.86,-1.52,0.22,-0.01,0.08,n
1741.0,2945.0,3071.0,2843.0,3277.0,3664.0,2641.0,3005.0,2.77,9.69,-1.97,0.06,0.27,-0.03,n
1740.0,2956.0,3094.0,2848.0,3277.0,3682.0,2666.0,3024.0,2.96,8.71,-1.63,0.01,-0.22,0.07,n
1743.0,2967.0,3110.0,2846.0,3277.0,3685.0,2670.0,3026.0,2.83,9.44,-1.94,-0.02,0.1,-0.13,n
1744.0,2973.0,3104.0,2839.0,3275.0,3683.0,2672.0,3026.0,2.75,9.44,-1.9,-0.12,-0.06,-0.03,n
1603.0,2957.0,3088.0,2832.0,3270.0,3687.0,2663.0,3006.0,2.28,8.66,-1.11,-0.01,-0.03,-0.03,n
1264.0,2958.0,3088.0,2794.0,3290.0,3711.0,2662.0,2983.0,2.94,10.08,-2.03,-0.24,0.13,-0.08,n
1285.0,2977.0,3110.0,2796.0,3329.0,3792.0,2706.0,2999.0,2.38,8.27,-1.07,-0.01,-0.28,0.09,n
1296.0,2989.0,3117.0,2705.0,3333.0,3808.0,2730.0,3007.0,2.82,9.75,-1.6,-0.34,0.29,-0.3,n
1282.0,2989.0,3120.0,2624.0,3327.0,3781.0,2750.0,2995.0,2.08,9.09,-1.01,0.0,-0.16,0.15,n
1306.0,2983.0,3121.0,2670.0,3331.0,3763.0,2760.0,2992.0,3.42,10.1,-1.5,0.01,-0.01,0.01,n
1327.0,2987.0,3120.0,2690.0,3341.0,3758.0,2770.0,2997.0,1.96,8.51,-1.11,-0.09,-0.15,0.07,n
1347.0,2993.0,3112.0,2688.0,3328.0,3728.0,2787.0,2986.0,2.9,9.71,-1.59,-0.17,0.02,-0.08,n
1407.0,2983.0,3111.0,2670.0,3335.0,3715.0,2787.0,2979.0,2.59,8.61,-0.93,-0.08,-0.26,0.04,n
1600.0,2992.0,3111.0,2692.0,3339.0,3692.0,2788.0,2976.0,2.94,10.05,-1.51,-0.32,0.13,-0.22,n
1904.0,2998.0,3115.0,2672.0,3341.0,3696.0,2774.0,2992.0,2.58,9.22,-0.76,0.03,-0.24,0.0,n
2218.0,3002.0,3109.0,2655.0,3329.0,3690.0,2763.0,2992.0,2.25,9.61,-1.47,-0.11,0.04,-0.08,n
2371.0,2941.0,3049.0,2665.0,3335.0,3625.0,2695.0,2906.0,2.71,9.13,-1.15,0.01,-0.29,0.11,n
2414.0,3005.0,3111.0,2659.0,3344.0,3678.0,2761.0,2954.0,1.67,9.37,-0.99,-0.19,0.12,-0.2,n
2477.0,2990.0,3086.0,2646.0,3359.0,3662.0,2719.0,2917.0,2.74,9.75,-0.81,0.08,-0.22,0.15,n
2631.0,3013.0,3103.0,2629.0,3343.0,3695.0,2707.0,2935.0,2.5,9.54,-1.15,0.04,-0.01,-0.1,n
2672.0,2977.0,3093.0,2681.0,3310.0,3700.0,2589.0,2960.0,3.34,9.38,-0.62,0.33,-0.5,0.07,n
2815.0,2868.0,3037.0,2768.0,3319.0,3664.0,2490.0,2917.0,2.73,9.63,-1.66,-0.1,0.05,-0.14,n
2927.0,2860.0,3023.0,2771.0,3328.0,3671.0,2503.0,2930.0,1.93,8.85,-1.37,0.07,-0.21,0.16,n
2951.0,2980.0,3179.0,2797.0,3328.0,3814.0,2666.0,3087.0,2.71,9.74,-1.57,0.0,0.06,-0.17,n
2971.0,2961.0,3165.0,2822.0,3328.0,3770.0,2648.0,3082.0,2.38,9.36,-1.07,0.01,-0.01,0.13,n
2982.0,2962.0,3158.0,2827.0,3332.0,3735.0,2645.0,3082.0,2.2,9.48,-1.64,0.02,0.07,0.07,n
3009.0,2961.0,3150.0,2834.0,3340.0,3695.0,2640.0,3088.0,2.57,9.12,-1.17,0.03,-0.06,0.11,n
3031.0,2962.0,3159.0,2854.0,3338.0,3663.0,2633.0,3098.0,2.44,9.5,-1.62,-0.04,0.04,-0.03,n
3056.0,2961.0,3152.0,2883.0,3344.0,3661.0,2621.0,3101.0,2.9,9.22,-1.22,0.05,0.06,-0.06,n
3066.0,2963.0,3150.0,2894.0,3347.0,3673.0,2627.0,3101.0,2.61,9.33,-1.69,-0.07,0.04,-0.0,n
3086.0,2963.0,3152.0,2863.0,3348.0,3709.0,2624.0,3100.0,2.3,8.67,-1.21,0.02,-0.15,0.05,n
3098.0,2962.0,3152.0,2851.0,3347.0,3739.0,2624.0,3120.0,2.83,9.67,-1.61,0.12,0.2,-0.23,n
3114.0,2974.0,3165.0,2839.0,3350.0,3776.0,2649.0,3138.0,2.12,9.17,-1.42,-0.16,-0.09,0.15,n
3105.0,2974.0,3158.0,2867.0,3365.0,3791.0,2663.0,3154.0,3.62,10.5,-2.04,-0.1,0.14,-0.13,n
3056.0,2960.0,3152.0,2865.0,3407.0,3760.0,2666.0,3101.0,1.43,8.0,-0.65,-0.24,-0.04,-0.32,n
2854.0,2964.0,3154.0,2853.0,3441.0,3661.0,2673.0,3087.0,2.71,9.73,-1.53,-0.16,-0.15,0.12,n
2801.0,2975.0,3154.0,2813.0,3447.0,3626.0,2673.0,3099.0,2.68,8.7,-0.79,0.12,0.05,-0.27,n
2544.0,2980.0,3147.0,2775.0,3461.0,3577.0,2674.0,3107.0,1.73,9.74,-1.47,-0.31,0.21,-0.05,n
2608.0,2986.0,3152.0,2742.0,3485.0,3583.0,2665.0,3107.0,2.21,9.59,-1.02,0.05,-0.01,0.09,n
2769.0,2992.0,3149.0,2690.0,3446.0,3638.0,2658.0,3101.0,2.45,9.28,-1.25,-0.22,-0.07,0.12,n
3393.0,2988.0,3146.0,2638.0,3355.0,3725.0,2657.0,3091.0,3.21,9.73,-1.25,0.15,-0.15,0.14,n
3744.0,2941.0,3098.0,2619.0,3344.0,3696.0,2608.0,3026.0,1.8,9.07,-0.94,-0.43,-0.05,-0.0,n
3766.0,2990.0,3152.0,2624.0,3355.0,3763.0,2672.0,3099.0,3.3,9.59,-0.78,0.01,-0.06,0.1,n
3370.0,2987.0,3150.0,2663.0,3372.0,3707.0,2672.0,3095.0,1.63,9.39,-0.78,0.08,0.34,-0.35,n
3297.0,2991.0,3154.0,2663.0,3340.0,3673.0,2688.0,3091.0,2.67,9.55,-0.97,-0.0,-0.16,-0.01,n
2832.0,2991.0,3153.0,2662.0,3248.0,3680.0,2690.0,3110.0,2.05,8.9,-0.97,0.02,-0.02,-0.12,n
2605.0,2987.0,3153.0,2661.0,3241.0,3707.0,2699.0,3119.0,2.23,9.83,-1.29,-0.05,0.12,0.07,n
2480.0,2993.0,3153.0,2673.0,3270.0,3714.0,2699.0,3121.0,2.32,9.35,-0.86,0.02,-0.04,-0.0,n
2368.0,2986.0,3153.0,2677.0,3280.0,3717.0,2692.0,3117.0,2.51,9.41,-1.26,-0.02,0.0,0.04,n
2143.0,2986.0,3157.0,2674.0,3287.0,3735.0,2690.0,3118.0,2.63,9.38,-1.19,0.06,-0.02,-0.12,n
1925.0,2989.0,3161.0,2663.0,3290.0,3742.0,2688.0,3119.0,2.29,9.32,-0.95,-0.07,-0.14,0.0,n
1757.0,2987.0,3148.0,2624.0,3299.0,3757.0,2685.0,3114.0,2.17,9.81,-1.3,0.05,0.06,0.01,n
1658.0,2991.0,3155.0,2619.0,3312.0,3764.0,2688.0,3111.0,2.21,8.96,-1.11,-0.16,-0.1,0.01,n
1634.0,2992.0,3157.0,2630.0,3321.0,3776.0,2689.0,3110.0,2.71,9.84,-1.62,-0.09,0.06,-0.05,n
1772.0,2994.0,3153.0,2659.0,3338.0,3785.0,2686.0,3095.0,1.75,8.73,-1.28,-0.28,-0.06,0.05,n
2304.0,2994.0,3152.0,2690.0,3347.0,3769.0,2674.0,3069.0,2.72,9.61,-1.6,-0.33,0.1,-0.08,n
2657.0,2990.0,3153.0,2704.0,3376.0,3749.0,2664.0,3056.0,2.68,9.0,-0.49,-0.03,-0.29,0.2,n
2654.0,2993.0,3151.0,2729.0,3391.0,3728.0,2657.0,3031.0,2.61,9.55,-0.52,-0.32,0.03,0.12,n
2011.0,3025.0,3152.0,2719.0,3394.0,3706.0,2673.0,2994.0,2.85,9.32,0.0,-0.23,-0.19,-0.02,n
1886.0,3037.0,3154.0,2720.0,3379.0,3698.0,2695.0,3002.0,2.34,9.92,-0.64,0.05,0.12,0.22,n
2931.0,3037.0,3147.0,2738.0,3419.0,3673.0,2709.0,2997.0,2.94,8.86,-0.32,-0.07,-0.15,-0.09,n
3092.0,3044.0,3153.0,2783.0,3451.0,3676.0,2726.0,3011.0,2.83,9.89,-0.69,0.05,0.13,-0.04,n
3093.0,3047.0,3151.0,2789.0,3453.0,3669.0,2730.0,3024.0,2.24,8.51,-0.8,-0.08,-0.02,-0.19,n
3071.0,3043.0,3152.0,2790.0,3434.0,3675.0,2717.0,3026.0,2.58,9.84,-1.12,-0.02,0.23,-0.01,n
3071.0,3037.0,3151.0,2790.0,3420.0,3692.0,2721.0,3026.0,2.65,9.14,-0.45,0.03,-0.26,0.1,n
3125.0,3039.0,3152.0,2768.0,3364.0,3731.0,2743.0,3007.0,2.38,9.29,-0.98,-0.02,0.14,-0.09,n
3175.0,3031.0,3151.0,2761.0,3358.0,3747.0,2797.0,3056.0,2.87,9.62,-0.68,0.04,-0.08,0.06,n
3154.0,3039.0,3149.0,2743.0,3377.0,3767.0,2943.0,3162.0,2.1,8.99,-0.62,-0.15,-0.17,-0.04,n
3125.0,3088.0,3201.0,2752.0,3407.0,3875.0,3106.0,3245.0,2.75,10.04,-0.9,0.13,0.07,-0.04,n
3106.0,3056.0,3180.0,2759.0,3431.0,3915.0,3180.0,3249.0,2.53,8.46,-0.02,-0.11,-0.26,0.15,n
3088.0,3034.0,3171.0,2704.0,3405.0,3936.0,3229.0,3250.0,3.55,10.49,-1.21,0.14,0.2,-0.14,n
207.0,3019.0,3151.0,2675.0,3346.0,3783.0,3216.0,3230.0,2.14,8.7,-0.65,-0.01,-0.15,0.17,n
2643.0,3043.0,3180.0,2640.0,3305.0,3742.0,3243.0,3263.0,3.22,9.79,-0.79,0.3,0.02,0.26,n
2465.0,3023.0,3149.0,2558.0,3251.0,3569.0,3188.0,3285.0,1.97,9.04,-1.02,-0.08,0.24,-0.09,n
2422.0,2995.0,3131.0,2559.0,3257.0,3534.0,3179.0,3291.0,3.15,9.24,-0.99,0.09,0.01,0.12,n
2417.0,3120.0,3247.0,2599.0,3271.0,3681.0,3281.0,3413.0,3.02,9.59,-1.02,-0.04,0.18,-0.03,n
2409.0,3069.0,3194.0,2603.0,3262.0,3605.0,3223.0,3317.0,3.38,9.35,-0.8,0.13,-0.1,-0.04,n
2389.0,2985.0,3109.0,2635.0,3271.0,3508.0,3135.0,3195.0,2.31,8.91,-0.95,-0.04,0.13,-0.13,n
2320.0,2971.0,3105.0,2678.0,3279.0,3504.0,3015.0,3106.0,3.0,9.82,-1.5,-0.03,0.16,-0.01,n
2326.0,2979.0,3118.0,2701.0,3285.0,3517.0,2880.0,3055.0,2.39,8.66,-0.47,-0.17,-0.18,0.16,n
2346.0,2979.0,3115.0,2707.0,3284.0,3503.0,2849.0,3023.0,3.34,9.89,-0.91,-0.03,0.17,-0.1,n
2358.0,2985.0,3120.0,2705.0,3280.0,3472.0,2834.0,3042.0,2.72,9.49,-0.74,0.05,0.05,-0.01,n
2378.0,2965.0,3097.0,2705.0,3278.0,3435.0,2767.0,3027.0,2.92,9.31,-1.13,-0.29,0.12,-0.15,n
2386.0,2977.0,3114.0,2706.0,3291.0,3471.0,2794.0,3071.0,2.7,9.5,-0.79,-0.03,0.08,0.0,n
2372.0,2980.0,3115.0,2701.0,3299.0,3491.0,2804.0,3083.0,2.45,9.15,-0.27,-0.13,0.14,0.01,n
2335.0,2977.0,3120.0,2691.0,3317.0,3514.0,2832.0,3088.0,3.23,9.41,-0.34,-0.03,0.04,-0.01,n
2320.0,2992.0,3132.0,2647.0,3323.0,3627.0,2959.0,3088.0,3.48,9.3,-0.85,-0.13,0.03,-0.17,n
2368.0,3038.0,3147.0,2587.0,3346.0,3777.0,3111.0,3102.0,2.41,9.88,-0.72,0.13,0.2,-0.05,n
2355.0,3026.0,3141.0,2517.0,3372.0,3798.0,3149.0,3130.0,2.61,9.36,-0.17,0.12,0.03,-0.36,n
2345.0,3035.0,3148.0,2525.0,3360.0,3791.0,3171.0,3168.0,2.55,9.6,-0.48,0.08,0.21,-0.21,n
2343.0,3056.0,3169.0,2507.0,3374.0,3911.0,3212.0,3217.0,2.45,9.47,-1.04,0.04,0.03,-0.34,n
2445.0,2859.0,2992.0,2448.0,3345.0,3842.0,2991.0,2992.0,1.86,9.18,-1.07,0.06,0.02,-0.15,n
2491.0,2859.0,2987.0,2471.0,3306.0,3853.0,2943.0,2987.0,2.62,8.96,-0.79,-0.03,-0.19,0.09,n
2481.0,2871.0,2987.0,2499.0,3278.0,3771.0,2962.0,2999.0,2.25,9.62,-1.1,0.06,0.3,-0.27,n
2139.0,3071.0,3182.0,2517.0,3279.0,3879.0,3191.0,3216.0,2.21,9.46,-0.5,0.16,-0.1,0.17,n
1942.0,3051.0,3163.0,2475.0,3274.0,3807.0,3167.0,3191.0,1.63,9.83,-0.77,-0.37,-0.15,-0.02,n
2170.0,3071.0,3184.0,2453.0,3252.0,3783.0,3142.0,3175.0,1.81,9.86,-0.93,0.1,0.03,0.05,n
2215.0,2871.0,2983.0,2457.0,3248.0,3582.0,2943.0,2974.0,1.92,9.11,-0.41,-0.09,-0.19,0.04,n
2245.0,2931.0,3056.0,2454.0,3270.0,3651.0,2982.0,3027.0,2.09,9.89,-1.04,-0.01,-0.03,0.08,n
2211.0,3053.0,3174.0,2453.0,3263.0,3741.0,3047.0,3140.0,1.94,8.71,-0.52,0.07,-0.22,0.17,n
2219.0,3061.0,3193.0,2474.0,3253.0,3773.0,3041.0,3152.0,2.48,9.92,-1.5,0.05,0.17,0.12,n
2256.0,3064.0,3200.0,2493.0,3267.0,3806.0,3039.0,3152.0,2.45,8.73,-0.79,-0.05,-0.38,0.22,n
2273.0,3053.0,3184.0,2499.0,3270.0,3812.0,3024.0,3152.0,2.88,10.29,-1.25,0.04,0.19,0.1,n
2301.0,3056.0,3187.0,2495.0,3281.0,3819.0,3024.0,3171.0,2.21,8.75,-0.52,-0.19,-0.18,0.07,n
2496.0,2864.0,2992.0,2559.0,3377.0,3634.0,2845.0,2978.0,2.63,10.95,-1.55,-0.25,0.39,-0.18,n
2372.0,2868.0,2986.0,2595.0,3443.0,3663.0,2871.0,2986.0,1.59,8.41,-0.75,-0.22,-0.21,0.03,n
2111.0,2864.0,2977.0,2599.0,3453.0,3653.0,2875.0,2989.0,2.83,9.31,-0.96,-0.11,0.01,0.06,n
1973.0,2870.0,2977.0,2591.0,3424.0,3650.0,2896.0,2987.0,2.89,9.3,-0.24,-0.03,-0.02,0.12,n
2444.0,2863.0,2974.0,2608.0,3391.0,3674.0,2897.0,2979.0,2.29,9.83,-0.68,0.03,0.06,0.09,n
2251.0,2860.0,2979.0,2624.0,3354.0,3728.0,2885.0,2961.0,2.6,9.21,-0.15,-0.06,-0.1,0.14,n
2257.0,2858.0,2986.0,2619.0,3325.0,3745.0,2835.0,2944.0,2.8,9.62,-0.55,-0.13,0.05,0.01,n
2245.0,2862.0,2995.0,2615.0,3328.0,3763.0,2793.0,2943.0,3.2,9.03,-0.22,0.23,-0.17,0.1,n
2234.0,2861.0,2988.0,2613.0,3330.0,3787.0,2767.0,2955.0,2.8,9.69,-1.17,-0.09,0.26,-0.32,n
2231.0,2849.0,2985.0,2631.0,3342.0,3807.0,2751.0,2953.0,2.31,9.11,-0.66,0.07,-0.17,0.07,n
2238.0,2837.0,2986.0,2640.0,3344.0,3810.0,2695.0,2947.0,2.6,9.58,-0.98,-0.09,0.24,-0.25,n
2219.0,2911.0,3049.0,2639.0,3344.0,3856.0,2701.0,3013.0,2.83,9.39,-0.43,0.16,-0.07,0.1,n
1533.0,2896.0,3048.0,2625.0,3323.0,3739.0,2637.0,3011.0,2.25,9.17,-0.46,-0.12,-0.03,-0.13,n
1364.0,2865.0,3021.0,2637.0,3310.0,3675.0,2608.0,2997.0,3.56,9.89,-0.77,0.24,-0.01,0.1,n
1331.0,2962.0,3109.0,2641.0,3311.0,3763.0,2704.0,3095.0,2.89,9.22,-1.36,-0.21,-0.04,-0.32,n
1306.0,2843.0,2987.0,2637.0,3319.0,3638.0,2611.0,2981.0,3.39,9.29,-1.07,-0.21,0.08,-0.29,n
1265.0,2850.0,2991.0,2630.0,3343.0,3687.0,2643.0,2961.0,0.99,8.34,-0.03,-0.35,0.34,-0.26,n
1282.0,2851.0,2989.0,2640.0,3343.0,3703.0,2672.0,2957.0,1.59,10.47,-0.21,-0.2,0.04,0.08,n
1357.0,2850.0,2983.0,2661.0,3360.0,3718.0,2672.0,2951.0,2.1,9.08,-0.07,0.03,-0.04,0.05,n
1413.0,2850.0,2989.0,2677.0,3355.0,3711.0,2678.0,2960.0,2.89,9.74,-0.67,-0.0,0.08,0.18,n
1510.0,2854.0,2990.0,2686.0,3367.0,3711.0,2686.0,2955.0,2.18,8.6,0.06,-0.24,-0.2,-0.08,n
1594.0,2855.0,2983.0,2685.0,3376.0,3719.0,2689.0,2947.0,2.56,10.2,-0.28,-0.02,0.23,0.03,n
1604.0,2864.0,2981.0,2672.0,3376.0,3713.0,2695.0,2945.0,2.0,8.94,-0.03,-0.13,-0.22,0.02,n
1616.0,2857.0,2991.0,2661.0,3376.0,3713.0,2701.0,2938.0,2.42,9.6,-0.46,0.03,0.08,-0.09,n
1600.0,2859.0,2987.0,2627.0,3369.0,3712.0,2704.0,2942.0,2.04,9.16,-0.21,0.02,-0.08,0.2,n
1553.0,2860.0,2986.0,2619.0,3361.0,3711.0,2693.0,2928.0,2.53,9.86,-0.73,-0.03,0.16,-0.02,n
1377.0,2859.0,2979.0,2595.0,3350.0,3711.0,2697.0,2927.0,2.35,9.17,-0.59,0.04,0.17,-0.01,n
1580.0,2863.0,2986.0,2549.0,3359.0,3679.0,2705.0,2930.0,2.32,9.38,-0.22,-0.28,-0.05,-0.05,n
2354.0,2867.0,2986.0,2523.0,3372.0,3632.0,2709.0,2935.0,1.84,10.06,-0.76,-0.3,-0.18,0.29,n
2403.0,2858.0,2979.0,2533.0,3373.0,3583.0,2687.0,2927.0,3.06,8.62,0.74,-0.09,-0.42,0.14,n
2365.0,2871.0,2991.0,2518.0,3344.0,3611.0,2661.0,2917.0,1.77,10.26,-0.25,0.1,0.45,0.06,n
2325.0,2864.0,2983.0,2543.0,3358.0,3664.0,2669.0,2925.0,3.25,9.08,-0.12,0.04,-0.32,0.02,n
2260.0,2866.0,2986.0,2547.0,3363.0,3682.0,2673.0,2931.0,3.23,9.22,-0.32,-0.08,-0.14,-0.01,n
2087.0,2865.0,2991.0,2557.0,3373.0,3691.0,2676.0,2934.0,1.64,9.13,0.05,-0.08,0.07,-0.15,n
1851.0,2876.0,2994.0,2544.0,3359.0,3661.0,2699.0,2953.0,2.85,10.33,-0.29,0.07,0.08,-0.09,n
1635.0,2864.0,2992.0,2557.0,3367.0,3634.0,2714.0,2944.0,2.72,8.9,-0.43,-0.08,-0.09,-0.11,n
1567.0,2879.0,2987.0,2559.0,3371.0,3632.0,2732.0,2939.0,2.71,10.06,-0.66,-0.04,0.11,0.01,n
1595.0,2875.0,2992.0,2559.0,3389.0,3646.0,2753.0,2942.0,2.46,8.85,-0.0,0.04,-0.17,-0.05,n
1974.0,2871.0,2982.0,2592.0,3399.0,3618.0,2757.0,2947.0,2.2,9.62,-0.23,-0.08,0.14,-0.09,n
2406.0,2864.0,2985.0,2612.0,3409.0,3599.0,2744.0,2928.0,2.75,9.24,-0.25,-0.01,-0.22,0.12,n
2623.0,2864.0,2981.0,2643.0,3415.0,3583.0,2720.0,2909.0,2.48,9.36,-0.39,-0.02,0.06,0.03,n
2239.0,2866.0,2990.0,2653.0,3411.0,3639.0,2705.0,2914.0,2.23,9.62,-0.11,0.03,-0.05,0.11,n
2257.0,2869.0,2989.0,2641.0,3409.0,3702.0,2756.0,2943.0,3.41,9.06,-0.05,0.08,-0.14,-0.0,n
2274.0,2865.0,2992.0,2656.0,3412.0,3722.0,2757.0,2989.0,2.21,9.66,-0.67,-0.11,0.2,-0.01,n
2276.0,2864.0,2992.0,2679.0,3427.0,3728.0,2730.0,3006.0,2.95,9.33,-0.3,-0.02,0.06,0.02,n
2657.0,2869.0,2992.0,2715.0,3440.0,3707.0,2691.0,3027.0,2.26,8.9,0.03,-0.09,0.04,0.03,n
2778.0,2864.0,2993.0,2741.0,3446.0,3706.0,2703.0,3042.0,2.87,9.73,-0.73,0.04,0.0,-0.02,n
2815.0,2864.0,2985.0,2750.0,3453.0,3728.0,2709.0,3056.0,2.99,8.94,-0.09,0.03,-0.16,0.11,n
2949.0,2864.0,2986.0,2784.0,3455.0,3728.0,2704.0,3057.0,2.59,10.02,-0.68,-0.17,0.31,-0.25,n
3046.0,2864.0,2992.0,2825.0,3468.0,3699.0,2688.0,3069.0,2.92,9.38,-0.01,0.11,0.0,-0.03,n
3040.0,2874.0,2985.0,2820.0,3469.0,3695.0,2689.0,3085.0,2.43,9.23,-0.65,-0.17,0.05,-0.03,n
3024.0,2867.0,2990.0,2821.0,3468.0,3683.0,2701.0,3087.0,2.78,9.62,-0.42,0.11,-0.0,-0.0,n
3027.0,2867.0,2989.0,2807.0,3457.0,3693.0,2714.0,3081.0,2.52,9.28,-0.16,-0.16,-0.07,-0.1,n
2953.0,2878.0,2991.0,2722.0,3383.0,3647.0,2735.0,2991.0,2.92,9.58,-0.42,0.03,0.15,-0.1,n
1569.0,2878.0,2982.0,2676.0,3397.0,3602.0,2740.0,2944.0,1.79,8.94,0.05,-0.13,0.04,-0.1,n
1661.0,2877.0,2990.0,2647.0,3423.0,3601.0,2735.0,2945.0,2.92,9.86,-0.32,-0.13,0.13,-0.06,n
1901.0,2870.0,2991.0,2623.0,3439.0,3578.0,2724.0,2936.0,2.58,8.9,-0.03,-0.05,-0.07,-0.03,n
2605.0,2874.0,2992.0,2607.0,3505.0,3536.0,2713.0,2911.0,2.38,9.57,0.09,-0.25,0.05,-0.09,n
2666.0,2876.0,2978.0,2609.0,3537.0,3525.0,2718.0,2896.0,2.71,9.58,-0.05,0.08,-0.06,0.05,n
2588.0,2876.0,2975.0,2598.0,3527.0,3523.0,2697.0,2906.0,2.23,8.8,0.15,0.11,-0.03,-0.01,n
2355.0,2873.0,2993.0,2583.0,3450.0,3600.0,2709.0,2925.0,2.42,10.3,-0.99,0.08,0.22,0.01,n
2128.0,2870.0,2992.0,2587.0,3430.0,3655.0,2734.0,2935.0,2.8,8.86,0.05,0.07,-0.23,0.09,n
2109.0,2867.0,2982.0,2591.0,3408.0,3673.0,2746.0,2949.0,1.78,9.43,-0.28,-0.4,0.11,-0.03,n
2205.0,2866.0,2989.0,2559.0,3396.0,3722.0,2769.0,2925.0,3.19,9.5,-0.11,0.13,-0.1,0.11,n
2755.0,2868.0,2983.0,2541.0,3421.0,3795.0,2807.0,2880.0,2.72,8.95,0.13,0.06,-0.2,0.09,n
3019.0,2866.0,2990.0,2525.0,3389.0,3813.0,2798.0,2902.0,2.8,9.77,-0.72,-0.08,0.18,-0.05,n
2730.0,2864.0,2987.0,2559.0,3324.0,3724.0,2726.0,2920.0,3.17,8.94,0.05,0.12,-0.11,0.01,n
2389.0,2867.0,2989.0,2559.0,3312.0,3654.0,2703.0,2914.0,2.33,9.77,-0.56,-0.07,0.29,-0.32,n
2097.0,2873.0,2992.0,2559.0,3312.0,3572.0,2695.0,2875.0,2.88,9.15,-0.1,0.22,-0.27,0.11,n
1962.0,2876.0,2985.0,2535.0,3295.0,3522.0,2671.0,2837.0,2.66,9.43,-0.62,0.01,0.11,-0.05,n
1915.0,2878.0,2991.0,2512.0,3303.0,3536.0,2668.0,2835.0,2.55,9.35,-0.48,0.13,0.01,0.14,n
2023.0,2876.0,2994.0,2533.0,3323.0,3557.0,2634.0,2883.0,2.44,9.44,-0.81,-0.01,0.06,-0.13,n
2126.0,2871.0,2992.0,2602.0,3344.0,3597.0,2559.0,2950.0,2.67,9.54,-0.52,0.01,-0.02,-0.05,n
2033.0,2861.0,2986.0,2671.0,3376.0,3627.0,2544.0,2995.0,1.92,8.28,-0.36,-0.26,-0.04,-0.06,n
1865.0,2864.0,2993.0,2736.0,3389.0,3621.0,2529.0,2973.0,3.03,9.8,-0.77,0.08,0.19,-0.08,n
1855.0,2871.0,2988.0,2754.0,3395.0,3578.0,2559.0,2914.0,2.0,9.38,-0.66,-0.11,0.05,-0.12,n
1716.0,2893.0,2974.0,2690.0,3408.0,3617.0,2694.0,2935.0,2.29,9.43,0.16,-0.23,0.06,-0.17,n
1666.0,2885.0,2983.0,2657.0,3410.0,3667.0,2704.0,2934.0,2.72,9.55,-0.38,0.17,0.01,0.06,n
1611.0,2972.0,3043.0,2525.0,3319.0,3583.0,2759.0,2992.0,2.4,9.62,-0.39,0.4,-0.03,-0.39,n
1535.0,3097.0,3177.0,2480.0,3311.0,3696.0,2988.0,3219.0,2.14,9.34,-0.35,0.08,-0.31,-0.18,n
1570.0,3099.0,3166.0,2509.0,3315.0,3729.0,3025.0,3248.0,2.21,8.94,-0.46,0.05,-0.09,0.11,n
1590.0,3090.0,3171.0,2559.0,3307.0,3744.0,2983.0,3224.0,2.28,9.29,-1.0,-0.15,0.19,0.01,n
1584.0,3088.0,3155.0,2590.0,3259.0,3641.0,2888.0,3170.0,2.27,9.45,-0.69,-0.11,-0.05,0.16,n
1602.0,3063.0,3150.0,2559.0,3248.0,3600.0,2813.0,3132.0,2.19,9.56,-0.29,-0.11,0.18,-0.05,n
1723.0,3003.0,3124.0,2559.0,3247.0,3610.0,2795.0,3120.0,2.44,9.44,-0.66,-0.21,0.24,0.08,n
1774.0,2950.0,3165.0,2643.0,3273.0,3757.0,2887.0,3151.0,2.4,9.34,-0.3,-0.01,-0.03,0.02,n
1887.0,2950.0,3166.0,2686.0,3279.0,3847.0,2934.0,3151.0,2.66,9.57,-0.79,-0.2,0.06,-0.07,n
1987.0,2812.0,2997.0,2736.0,3296.0,3713.0,2797.0,2973.0,2.42,9.59,-0.19,-0.08,0.02,-0.09,n
1986.0,2821.0,2996.0,2752.0,3318.0,3747.0,2787.0,2979.0,2.11,9.37,-0.22,-0.02,-0.03,0.05,n
1907.0,2833.0,2994.0,2783.0,3339.0,3747.0,2772.0,2974.0,2.76,9.68,-0.51,0.01,0.03,0.07,n
1764.0,2836.0,2993.0,2814.0,3345.0,3770.0,2771.0,2975.0,2.31,8.88,-0.09,-0.01,-0.12,0.07,n
1706.0,2842.0,2997.0,2860.0,3354.0,3771.0,2768.0,2979.0,2.78,10.17,-0.81,-0.02,0.2,-0.05,n
1985.0,2849.0,2992.0,2903.0,3363.0,3786.0,2759.0,2979.0,2.5,8.97,-0.17,-0.09,-0.18,0.02,n
2160.0,2862.0,2992.0,2937.0,3362.0,3773.0,2759.0,2977.0,2.44,9.38,-0.38,-0.06,0.06,0.07,n
2548.0,2859.0,2992.0,2993.0,3370.0,3745.0,2703.0,2975.0,2.42,9.39,-0.19,0.05,-0.08,-0.01,n
2690.0,2864.0,2992.0,3014.0,3355.0,3728.0,2654.0,2970.0,2.78,9.33,-0.72,-0.2,-0.02,-0.05,n
2995.0,2864.0,2998.0,3069.0,3359.0,3683.0,2621.0,2982.0,2.39,9.48,-0.36,-0.04,-0.05,0.14,n
3082.0,2871.0,2987.0,3153.0,3328.0,3661.0,2543.0,2954.0,2.44,9.29,-0.38,-0.31,-0.16,0.01,n
3129.0,2866.0,2991.0,3109.0,3290.0,3648.0,2530.0,2907.0,3.28,8.95,0.35,-0.25,-0.36,0.1,n
3133.0,2864.0,2992.0,2962.0,3273.0,3628.0,2559.0,2903.0,2.24,9.33,-0.25,0.01,0.43,-0.05,n
3137.0,2864.0,2997.0,2944.0,3283.0,3632.0,2579.0,2902.0,2.46,9.37,-0.02,-0.07,-0.04,0.15,n
3088.0,2866.0,2999.0,2928.0,3325.0,3676.0,2608.0,2915.0,3.21,9.85,0.1,-0.01,-0.13,0.15,n
2989.0,2871.0,2998.0,2958.0,3408.0,3712.0,2649.0,2923.0,2.87,9.04,0.2,-0.07,-0.07,0.03,n
2998.0,2867.0,2992.0,2967.0,3421.0,3705.0,2653.0,2925.0,3.02,9.51,-0.3,-0.03,0.1,-0.0,n
2972.0,2868.0,2991.0,2976.0,3430.0,3696.0,2651.0,2927.0,3.01,8.8,0.21,-0.08,-0.07,-0.01,n
