hall_1,hall_2,hall_3,flex_t,flex_i,flex_m,flex_r,flex_p,accel_x,accel_y,accel_z,gyro_x,gyro_y,gyro_z,hand,sign
3303.0,2944.0,2937.0,3518.0,2661.0,2193.0,2381.0,2029.0,-0.14,9.79,5.09,0.03,0.13,-0.2,0.0,n
3295.0,2947.0,2922.0,3520.0,2668.0,2195.0,2382.0,2032.0,-0.12,9.89,4.82,0.06,0.03,-0.17,0.0,n
3300.0,2960.0,2934.0,3520.0,2675.0,2193.0,2383.0,2033.0,0.04,9.8,4.99,-0.03,0.05,-0.15,0.0,n
3287.0,2959.0,2931.0,3504.0,2672.0,2195.0,2384.0,2017.0,-0.17,9.99,4.84,0.03,-0.07,-0.17,0.0,n
3298.0,2955.0,2927.0,3527.0,2679.0,2199.0,2390.0,2038.0,-0.21,9.84,4.83,-0.03,0.12,-0.15,0.0,n
3299.0,2962.0,2941.0,3521.0,2679.0,2198.0,2390.0,2038.0,-0.04,9.87,4.87,0.05,-0.15,-0.17,0.0,n
3292.0,2943.0,2933.0,3524.0,2673.0,2197.0,2391.0,2043.0,-0.14,9.84,5.04,-0.01,0.08,-0.16,0.0,n
3298.0,2947.0,2925.0,3526.0,2672.0,2200.0,2389.0,2038.0,-0.08,9.81,5.09,0.0,0.01,-0.17,0.0,n
3314.0,2939.0,2929.0,3537.0,2685.0,2199.0,2389.0,2042.0,-0.17,9.96,4.92,0.04,-0.05,-0.17,0.0,n
3297.0,2954.0,2932.0,3522.0,2677.0,2202.0,2390.0,2043.0,-0.17,9.79,5.02,0.01,-0.01,-0.16,0.0,n
3303.0,2953.0,2928.0,3533.0,2685.0,2202.0,2389.0,2038.0,-0.17,9.86,4.85,-0.01,0.0,-0.17,0.0,n
3295.0,2958.0,2925.0,3531.0,2679.0,2206.0,2391.0,2043.0,-0.09,10.0,4.79,-0.03,-0.06,-0.15,0.0,n
3299.0,2946.0,2942.0,3536.0,2684.0,2205.0,2394.0,2058.0,-0.36,9.71,5.17,-0.02,-0.05,-0.21,0.0,n
3287.0,2960.0,2925.0,3534.0,2687.0,2211.0,2395.0,2053.0,-0.62,9.82,5.08,0.03,0.02,-0.16,0.0,n
3299.0,2960.0,2937.0,3541.0,2689.0,2211.0,2398.0,2041.0,-0.26,9.89,4.87,0.02,0.01,-0.13,0.0,n
3298.0,2949.0,2928.0,3537.0,2688.0,2223.0,2395.0,2044.0,-0.28,9.85,5.13,-0.05,-0.01,-0.17,0.0,n
3303.0,2960.0,2933.0,3539.0,2672.0,2215.0,2403.0,2047.0,-0.24,9.82,5.04,0.04,-0.03,-0.16,0.0,n
3296.0,2956.0,2928.0,3546.0,2695.0,2214.0,2401.0,2056.0,-0.24,9.82,4.86,0.09,0.01,-0.18,0.0,n
3298.0,2959.0,2929.0,3546.0,2689.0,2214.0,2403.0,2059.0,-0.32,9.8,5.02,-0.02,-0.03,-0.14,0.0,n
3295.0,2957.0,2928.0,3537.0,2692.0,2222.0,2404.0,2057.0,-0.26,9.8,4.89,-0.0,-0.01,-0.12,0.0,n
3301.0,2947.0,2934.0,3539.0,2697.0,2215.0,2399.0,2058.0,-0.29,9.82,4.86,0.01,-0.04,-0.13,0.0,n
3295.0,2945.0,2925.0,3543.0,2695.0,2221.0,2403.0,2058.0,-0.31,9.91,5.06,0.03,0.01,-0.1,0.0,n
3314.0,2959.0,2929.0,3551.0,2695.0,2211.0,2403.0,2063.0,-0.15,9.95,5.0,0.03,-0.03,-0.12,0.0,n
3306.0,2960.0,2928.0,3547.0,2703.0,2213.0,2406.0,2062.0,-0.05,9.85,4.98,0.04,-0.01,-0.14,0.0,n
3301.0,2965.0,2927.0,3543.0,2700.0,2224.0,2407.0,2064.0,-0.18,9.87,4.9,0.01,-0.01,-0.16,0.0,n
3299.0,2949.0,2930.0,3543.0,2702.0,2198.0,2406.0,2063.0,-0.19,9.89,4.94,0.02,0.01,-0.15,0.0,n
3297.0,2944.0,2927.0,3549.0,2698.0,2224.0,2411.0,2064.0,-0.09,9.84,4.93,0.02,-0.0,-0.16,0.0,n
3291.0,2946.0,2929.0,3549.0,2701.0,2218.0,2403.0,2064.0,-0.17,9.85,4.88,0.01,-0.02,-0.16,0.0,n
3301.0,2959.0,2938.0,3543.0,2699.0,2218.0,2405.0,2065.0,-0.22,9.87,4.91,0.01,-0.03,-0.15,0.0,n
3309.0,2961.0,2928.0,3543.0,2703.0,2227.0,2405.0,2064.0,-0.23,9.85,4.93,0.01,-0.02,-0.15,0.0,n
3299.0,2957.0,2927.0,3554.0,2704.0,2221.0,2407.0,2066.0,-0.2,9.85,4.91,0.01,-0.01,-0.15,0.0,n
3312.0,2946.0,2934.0,3536.0,2701.0,2221.0,2406.0,2067.0,-0.27,9.9,4.84,0.02,-0.0,-0.14,0.0,n
3302.0,2963.0,2927.0,3553.0,2703.0,2221.0,2410.0,2064.0,-0.29,9.9,4.86,-0.01,0.02,-0.15,0.0,n
3306.0,2953.0,2931.0,3557.0,2702.0,2227.0,2407.0,2066.0,-0.2,9.87,5.07,0.05,-0.01,-0.13,0.0,n
3305.0,2939.0,2939.0,3558.0,2705.0,2221.0,2409.0,2067.0,-0.08,9.9,4.82,0.01,-0.01,-0.15,0.0,n
3305.0,2949.0,2929.0,3547.0,2704.0,2229.0,2410.0,2068.0,-0.25,9.85,4.79,0.03,-0.04,-0.16,0.0,n
3291.0,2960.0,2943.0,3554.0,2705.0,2224.0,2415.0,2071.0,-0.24,9.84,4.89,0.02,-0.0,-0.15,0.0,n
3303.0,2954.0,2931.0,3550.0,2710.0,2225.0,2413.0,2067.0,-0.22,9.87,4.89,0.01,-0.0,-0.14,0.0,n
3294.0,2950.0,2937.0,3505.0,2706.0,2224.0,2416.0,2066.0,-0.23,9.88,4.84,0.0,0.02,-0.13,0.0,n
3299.0,2944.0,2928.0,3552.0,2704.0,2224.0,2413.0,2073.0,-0.09,9.9,4.77,-0.01,0.02,-0.14,0.0,n
3307.0,2959.0,2917.0,3551.0,2703.0,2229.0,2411.0,2067.0,-0.15,9.87,4.95,0.0,0.0,-0.15,0.0,n
3299.0,2950.0,2930.0,3555.0,2706.0,2225.0,2415.0,2069.0,-0.09,9.89,4.88,0.03,-0.01,-0.16,0.0,n
3311.0,2946.0,2931.0,3557.0,2705.0,2229.0,2414.0,2071.0,-0.23,9.87,4.86,0.05,-0.01,-0.16,0.0,n
3297.0,2949.0,2927.0,3555.0,2703.0,2237.0,2413.0,2074.0,-0.21,9.81,4.86,0.01,0.01,-0.16,0.0,n
3301.0,2949.0,2932.0,3563.0,2709.0,2230.0,2415.0,2069.0,-0.23,9.84,4.84,0.03,-0.01,-0.15,0.0,n
3300.0,2947.0,2937.0,3570.0,2706.0,2230.0,2419.0,2075.0,-0.22,9.94,4.84,0.01,0.04,-0.15,0.0,n
3296.0,2949.0,2925.0,3563.0,2706.0,2230.0,2416.0,2075.0,-0.03,9.91,4.77,0.02,-0.01,-0.15,0.0,n
3303.0,2949.0,2930.0,3558.0,2711.0,2224.0,2410.0,2078.0,-0.22,9.9,4.84,0.01,-0.03,-0.16,0.0,n
3291.0,2958.0,2933.0,3563.0,2710.0,2227.0,2413.0,2075.0,-0.15,9.86,4.83,0.03,-0.04,-0.17,0.0,n
3301.0,2957.0,2945.0,3565.0,2710.0,2235.0,2415.0,2080.0,-0.27,9.88,4.8,0.03,0.01,-0.16,0.0,n
3302.0,2950.0,2933.0,3559.0,2707.0,2239.0,2416.0,2075.0,-0.24,9.94,4.75,0.03,0.02,-0.16,0.0,n
3287.0,2949.0,2938.0,3566.0,2718.0,2236.0,2413.0,2079.0,-0.26,9.79,4.76,0.04,-0.01,-0.16,0.0,n
3297.0,2960.0,2941.0,3568.0,2710.0,2237.0,2411.0,2083.0,-0.19,9.83,4.83,-0.02,0.01,-0.12,0.0,n
3306.0,2959.0,2944.0,3568.0,2717.0,2239.0,2416.0,2079.0,-0.19,9.92,4.69,0.02,-0.02,-0.15,0.0,n
3313.0,2958.0,2928.0,3557.0,2721.0,2235.0,2418.0,2085.0,-0.23,9.91,4.79,0.01,0.01,-0.16,0.0,n
3292.0,2945.0,2929.0,3559.0,2710.0,2240.0,2417.0,2085.0,-0.24,9.88,4.76,0.01,-0.01,-0.16,0.0,n
3298.0,2960.0,2937.0,3568.0,2713.0,2224.0,2425.0,2087.0,-0.35,9.9,4.83,0.01,0.01,-0.15,0.0,n
3287.0,2960.0,2929.0,3568.0,2708.0,2242.0,2417.0,2081.0,-0.09,9.88,4.73,0.03,-0.02,-0.16,0.0,n
3303.0,2955.0,2929.0,3566.0,2719.0,2237.0,2417.0,2086.0,-0.34,9.93,4.79,0.0,-0.02,-0.16,0.0,n
3302.0,2963.0,2931.0,3567.0,2715.0,2233.0,2418.0,2084.0,-0.26,9.82,4.89,0.01,-0.02,-0.15,0.0,n
4095.0,2955.0,2966.0,3607.0,2480.0,2225.0,2375.0,2039.0,-1.0,9.79,4.48,0.02,0.01,-0.16,0.0,n
4095.0,2946.0,2979.0,3605.0,2486.0,2235.0,2381.0,2042.0,-1.09,9.8,4.39,0.03,-0.05,-0.16,0.0,n
4095.0,2953.0,2961.0,3617.0,2487.0,2234.0,2384.0,2053.0,-1.07,9.74,4.61,0.0,-0.02,-0.14,0.0,n
4095.0,2954.0,2965.0,3611.0,2492.0,2238.0,2386.0,2059.0,-1.13,9.88,4.21,-0.03,-0.02,-0.11,0.0,n
4095.0,2960.0,2971.0,3637.0,2490.0,2237.0,2391.0,2055.0,-0.94,9.84,4.55,0.02,0.02,-0.17,0.0,n
4095.0,2949.0,2976.0,3627.0,2497.0,2238.0,2391.0,2059.0,-0.93,9.86,4.56,0.05,0.03,-0.21,0.0,n
4095.0,2958.0,2970.0,3623.0,2499.0,2239.0,2394.0,2065.0,-1.16,9.78,4.5,0.05,-0.08,-0.19,0.0,n
4095.0,2951.0,2974.0,3622.0,2502.0,2239.0,2399.0,2064.0,-1.3,9.79,4.4,-0.01,-0.11,-0.13,0.0,n
4095.0,2957.0,2972.0,3631.0,2511.0,2235.0,2391.0,2062.0,-1.04,9.89,4.79,0.0,-0.02,-0.12,0.0,n
4095.0,2958.0,2981.0,3636.0,2506.0,2242.0,2405.0,2067.0,-1.07,9.92,4.62,0.04,-0.0,-0.18,0.0,n
4095.0,2957.0,2967.0,3598.0,2507.0,2247.0,2398.0,2063.0,-1.14,9.87,4.66,0.04,0.03,-0.17,0.0,n
4095.0,2946.0,2975.0,3630.0,2509.0,2255.0,2398.0,2064.0,-1.07,9.74,4.41,-0.01,-0.05,-0.17,0.0,n
4095.0,2955.0,2979.0,3636.0,2511.0,2251.0,2396.0,2070.0,-1.05,9.73,4.74,-0.01,-0.03,-0.15,0.0,n
4095.0,2960.0,2961.0,3634.0,2513.0,2247.0,2399.0,2069.0,-0.96,9.7,4.73,0.03,0.03,-0.17,0.0,n
4095.0,2950.0,2966.0,3634.0,2515.0,2255.0,2402.0,2066.0,-1.09,9.69,4.7,0.07,0.02,-0.16,0.0,n
4095.0,2961.0,2962.0,3619.0,2514.0,2251.0,2400.0,2073.0,-1.08,9.78,4.59,0.04,-0.02,-0.13,0.0,n
4095.0,2955.0,2977.0,3630.0,2514.0,2256.0,2407.0,2077.0,-1.02,9.83,4.75,0.01,0.01,-0.13,0.0,n
4095.0,2959.0,2978.0,3632.0,2515.0,2250.0,2404.0,2076.0,-1.15,9.79,4.63,0.02,-0.0,-0.15,0.0,n
4095.0,2959.0,2967.0,3643.0,2511.0,2250.0,2400.0,2079.0,-1.15,9.85,4.31,0.11,0.04,-0.17,0.0,n
4095.0,2957.0,2970.0,3630.0,2521.0,2256.0,2403.0,2079.0,-1.18,9.81,4.64,0.02,-0.03,-0.13,0.0,n
4095.0,2953.0,2978.0,3622.0,2518.0,2259.0,2406.0,2084.0,-1.15,9.79,4.4,-0.0,0.03,-0.12,0.0,n
4095.0,2958.0,2962.0,3625.0,2528.0,2255.0,2405.0,2082.0,-0.99,9.84,4.56,-0.06,-0.01,-0.12,0.0,n
4095.0,2960.0,2965.0,3631.0,2527.0,2256.0,2414.0,2083.0,-1.01,9.78,4.57,-0.03,-0.03,-0.14,0.0,n
4095.0,2964.0,2969.0,3631.0,2525.0,2257.0,2416.0,2089.0,-1.01,9.72,4.77,-0.01,-0.02,-0.14,0.0,n
4095.0,2952.0,2967.0,3632.0,2526.0,2252.0,2414.0,2085.0,-0.75,9.75,4.6,-0.01,0.11,-0.17,0.0,n
4095.0,2958.0,2976.0,3629.0,2542.0,2256.0,2416.0,2086.0,-1.05,9.8,4.73,-0.04,-0.04,-0.14,0.0,n
4095.0,2955.0,2975.0,3634.0,2528.0,2255.0,2415.0,2078.0,-0.86,9.82,4.76,0.01,0.02,-0.14,0.0,n
4095.0,2953.0,2966.0,3633.0,2537.0,2253.0,2415.0,2081.0,-0.87,9.81,4.4,0.04,0.06,-0.12,0.0,n
4095.0,2947.0,2963.0,3635.0,2540.0,2262.0,2415.0,2083.0,-1.28,9.68,4.81,-0.02,-0.09,-0.16,0.0,n
4095.0,2960.0,2962.0,3633.0,2529.0,2256.0,2416.0,2089.0,-0.98,9.82,4.8,-0.02,-0.01,-0.11,0.0,n
4095.0,2963.0,2976.0,3641.0,2535.0,2258.0,2414.0,2085.0,-0.81,9.92,4.74,0.02,0.03,-0.1,0.0,n
4095.0,2961.0,2973.0,3629.0,2533.0,2260.0,2416.0,2089.0,-0.82,9.87,4.59,-0.01,0.0,-0.12,0.0,n
4095.0,2960.0,2974.0,3632.0,2539.0,2261.0,2420.0,2069.0,-0.88,9.87,4.8,0.01,-0.02,-0.16,0.0,n
4095.0,2954.0,2969.0,3639.0,2538.0,2257.0,2426.0,2090.0,-0.85,9.83,4.7,0.02,-0.01,-0.15,0.0,n
4095.0,2963.0,2966.0,3645.0,2532.0,2262.0,2429.0,2086.0,-1.11,9.76,4.53,0.0,0.01,-0.16,0.0,n
4095.0,2955.0,2972.0,3636.0,2538.0,2261.0,2419.0,2091.0,-0.92,9.81,4.52,0.01,-0.03,-0.12,0.0,n
4095.0,2960.0,2971.0,3643.0,2535.0,2265.0,2423.0,2087.0,-0.86,9.81,4.72,0.02,-0.03,-0.14,0.0,n
4095.0,2958.0,2980.0,3643.0,2543.0,2259.0,2421.0,2091.0,-0.92,9.92,4.61,-0.02,0.01,-0.13,0.0,n
4095.0,2955.0,2977.0,3642.0,2535.0,2265.0,2429.0,2092.0,-0.82,9.88,4.85,0.02,-0.01,-0.14,0.0,n
4095.0,2955.0,2982.0,3639.0,2534.0,2267.0,2424.0,2089.0,-0.91,9.84,4.62,0.02,-0.0,-0.2,0.0,n
4095.0,2950.0,2973.0,3634.0,2535.0,2267.0,2429.0,2094.0,-0.86,9.72,4.53,0.02,-0.06,-0.16,0.0,n
4095.0,2962.0,2980.0,3641.0,2538.0,2270.0,2429.0,2096.0,-0.92,9.76,4.77,0.03,-0.07,-0.12,0.0,n
4095.0,2948.0,2989.0,3639.0,2535.0,2273.0,2425.0,2094.0,-0.62,9.81,4.48,0.05,-0.03,-0.14,0.0,n
4095.0,2957.0,2966.0,3638.0,2533.0,2266.0,2434.0,2096.0,-0.93,9.88,4.65,0.0,0.01,-0.15,0.0,n
4095.0,2958.0,2971.0,3647.0,2538.0,2268.0,2428.0,2096.0,-0.77,9.89,4.53,-0.01,0.0,-0.12,0.0,n
4095.0,2960.0,2977.0,3637.0,2535.0,2271.0,2431.0,2096.0,-0.55,9.84,4.78,0.01,-0.0,-0.16,0.0,n
4095.0,2959.0,2974.0,3638.0,2544.0,2274.0,2434.0,2096.0,-0.76,9.89,4.59,0.03,-0.02,-0.17,0.0,n
4095.0,2949.0,2969.0,3634.0,2534.0,2266.0,2432.0,2096.0,-0.96,9.84,4.59,-0.01,-0.02,-0.16,0.0,n
4095.0,2953.0,2967.0,3628.0,2539.0,2268.0,2437.0,2096.0,-0.92,9.78,4.57,0.01,-0.02,-0.15,0.0,n
4095.0,2964.0,2967.0,3632.0,2512.0,2273.0,2434.0,2097.0,-0.78,9.88,4.57,-0.01,-0.04,-0.15,0.0,n
4095.0,2951.0,2983.0,3645.0,2532.0,2278.0,2431.0,2099.0,-0.8,9.86,4.72,0.01,0.01,-0.14,0.0,n
4095.0,2949.0,2967.0,3654.0,2538.0,2274.0,2434.0,2101.0,-0.96,9.82,4.61,0.03,0.03,-0.14,0.0,n
4095.0,2959.0,2985.0,3679.0,2544.0,2269.0,2435.0,2101.0,-0.87,9.79,4.59,0.04,0.03,-0.15,0.0,n
4095.0,2963.0,2971.0,3639.0,2539.0,2273.0,2441.0,2101.0,-0.7,9.81,4.61,0.01,-0.0,-0.15,0.0,n
4095.0,2955.0,2973.0,3648.0,2535.0,2278.0,2434.0,2097.0,-0.77,9.82,4.56,0.02,-0.0,-0.16,0.0,n
4095.0,2960.0,2983.0,3638.0,2534.0,2275.0,2439.0,2097.0,-0.84,9.79,4.47,0.04,-0.03,-0.14,0.0,n
4095.0,2961.0,2967.0,3663.0,2541.0,2274.0,2441.0,2099.0,-0.76,9.79,4.61,-0.02,-0.0,-0.15,0.0,n
4095.0,2953.0,2973.0,3658.0,2543.0,2277.0,2441.0,2101.0,-0.79,9.87,4.57,0.01,-0.01,-0.15,0.0,n
4095.0,2960.0,2967.0,3653.0,2545.0,2274.0,2434.0,2105.0,-0.83,9.8,4.69,-0.01,-0.01,-0.17,0.0,n
4095.0,2959.0,2966.0,3661.0,2544.0,2273.0,2454.0,2109.0,-0.89,9.81,4.51,0.02,-0.0,-0.17,0.0,n
3279.0,2934.0,3055.0,3547.0,2675.0,2191.0,2391.0,2150.0,-0.81,9.81,4.35,-0.04,-0.11,-0.11,0.0,n
3283.0,2941.0,3057.0,3554.0,2687.0,2192.0,2402.0,2163.0,-0.85,9.84,4.54,-0.04,-0.11,-0.12,0.0,n
3280.0,2945.0,3058.0,3558.0,2685.0,2197.0,2405.0,2165.0,-0.76,9.83,4.42,-0.0,-0.02,-0.17,0.0,n
3279.0,2931.0,3069.0,3570.0,2699.0,2195.0,2410.0,2176.0,-0.67,9.85,4.5,0.01,-0.12,-0.14,0.0,n
3277.0,2946.0,3065.0,3596.0,2699.0,2195.0,2417.0,2176.0,-0.88,9.93,4.52,-0.07,-0.05,-0.14,0.0,n
3289.0,2931.0,3061.0,3614.0,2701.0,2197.0,2415.0,2175.0,-0.69,9.75,4.63,-0.06,-0.47,0.02,0.0,n
3281.0,2945.0,3069.0,3611.0,2703.0,2203.0,2418.0,2176.0,-0.71,9.94,4.67,-0.04,0.0,-0.16,0.0,n
3287.0,2955.0,3063.0,3617.0,2707.0,2205.0,2419.0,2181.0,-0.7,9.94,4.66,-0.02,0.03,-0.13,0.0,n
3295.0,2944.0,3059.0,3616.0,2704.0,2205.0,2417.0,2184.0,-0.65,9.84,4.76,0.02,0.0,-0.14,0.0,n
3295.0,2950.0,3056.0,3633.0,2711.0,2207.0,2418.0,2187.0,-0.61,9.89,4.79,0.04,-0.04,-0.16,0.0,n
3295.0,2950.0,3070.0,3583.0,2711.0,2205.0,2426.0,2188.0,-0.75,9.83,4.79,0.0,-0.04,-0.16,0.0,n
3287.0,2940.0,3055.0,3625.0,2706.0,2209.0,2419.0,2187.0,-0.76,9.91,4.67,0.02,-0.01,-0.14,0.0,n
3277.0,2950.0,3054.0,3632.0,2709.0,2209.0,2432.0,2189.0,-0.67,9.87,4.71,0.0,-0.01,-0.15,0.0,n
3290.0,2947.0,3051.0,3630.0,2708.0,2215.0,2426.0,2191.0,-0.54,9.88,4.69,0.05,-0.08,-0.12,0.0,n
3289.0,2941.0,3058.0,3650.0,2709.0,2216.0,2432.0,2159.0,-0.64,9.91,4.72,0.01,-0.02,-0.15,0.0,n
3281.0,2950.0,3059.0,3627.0,2710.0,2211.0,2432.0,2192.0,-0.66,9.86,4.68,-0.04,-0.03,-0.11,0.0,n
3301.0,2951.0,3063.0,3636.0,2707.0,2219.0,2439.0,2192.0,-0.59,9.84,4.75,0.01,0.0,-0.13,0.0,n
3294.0,2957.0,3056.0,3631.0,2713.0,2211.0,2432.0,2200.0,-0.57,10.0,4.66,0.03,-0.01,-0.15,0.0,n
3290.0,2943.0,3071.0,3635.0,2708.0,2218.0,2439.0,2199.0,-0.54,9.87,4.82,0.04,0.02,-0.17,0.0,n
3280.0,2947.0,3064.0,3635.0,2719.0,2218.0,2435.0,2199.0,-0.57,9.7,4.68,0.01,-0.0,-0.15,0.0,n
3283.0,2947.0,3067.0,3639.0,2718.0,2220.0,2439.0,2205.0,-0.59,9.86,4.81,0.03,0.0,-0.14,0.0,n
3283.0,2957.0,3057.0,3642.0,2718.0,2224.0,2441.0,2205.0,-0.55,9.9,4.75,0.02,-0.02,-0.16,0.0,n
3291.0,2960.0,3058.0,3648.0,2717.0,2222.0,2447.0,2206.0,-0.68,9.93,4.64,0.06,-0.03,-0.12,0.0,n
3297.0,2955.0,3062.0,3642.0,2713.0,2221.0,2448.0,2206.0,-0.78,9.83,4.71,-0.01,0.02,-0.21,0.0,n
3290.0,2939.0,3062.0,3634.0,2723.0,2224.0,2448.0,2209.0,-0.62,9.82,4.65,0.04,0.03,-0.18,0.0,n
3295.0,2938.0,3056.0,3651.0,2720.0,2223.0,2446.0,2207.0,-0.6,9.85,4.65,0.02,0.02,-0.18,0.0,n
3291.0,2944.0,3056.0,3646.0,2720.0,2223.0,2448.0,2211.0,-0.67,9.84,4.57,0.02,0.01,-0.18,0.0,n
3290.0,2957.0,3055.0,3652.0,2722.0,2207.0,2448.0,2211.0,-0.69,9.89,4.46,0.03,-0.02,-0.16,0.0,n
3284.0,2949.0,3056.0,3644.0,2721.0,2223.0,2448.0,2211.0,-0.67,9.83,4.61,-0.01,-0.02,-0.18,0.0,n
3288.0,2953.0,3061.0,3648.0,2723.0,2223.0,2448.0,2210.0,-0.79,9.79,4.49,0.02,0.01,-0.16,0.0,n
3300.0,2951.0,3060.0,3652.0,2731.0,2227.0,2455.0,2211.0,-0.72,9.84,4.52,-0.02,-0.05,-0.14,0.0,n
3279.0,2949.0,3053.0,3644.0,2731.0,2224.0,2454.0,2209.0,-0.76,9.86,4.6,-0.02,-0.01,-0.15,0.0,n
3287.0,2947.0,3046.0,3651.0,2725.0,2224.0,2451.0,2213.0,-0.78,9.82,4.56,0.01,0.0,-0.15,0.0,n
3291.0,2956.0,3059.0,3662.0,2725.0,2224.0,2449.0,2213.0,-1.09,9.92,4.59,0.04,0.04,-0.14,0.0,n
3287.0,2951.0,3049.0,3649.0,2727.0,2224.0,2453.0,2213.0,-0.67,9.86,4.6,-0.0,0.02,-0.14,0.0,n
3295.0,2935.0,3059.0,3653.0,2729.0,2224.0,2458.0,2218.0,-0.76,9.88,4.56,0.02,0.01,-0.13,0.0,n
3289.0,2944.0,3056.0,3659.0,2733.0,2224.0,2453.0,2217.0,-0.71,9.83,4.57,0.0,0.03,-0.15,0.0,n
3295.0,2948.0,3053.0,3663.0,2730.0,2225.0,2451.0,2222.0,-0.73,9.87,4.49,-0.03,-0.01,-0.15,0.0,n
3280.0,2942.0,3058.0,3649.0,2732.0,2227.0,2451.0,2217.0,-0.59,9.87,4.66,-0.0,0.0,-0.14,0.0,n
3286.0,2939.0,3055.0,3661.0,2736.0,2229.0,2451.0,2224.0,-0.64,9.89,4.65,0.02,-0.0,-0.16,0.0,n
3286.0,2941.0,3056.0,3664.0,2736.0,2233.0,2461.0,2222.0,-0.81,9.83,4.63,0.04,0.01,-0.17,0.0,n
3282.0,2945.0,3063.0,3664.0,2733.0,2229.0,2458.0,2224.0,-0.79,9.78,4.7,0.03,0.0,-0.16,0.0,n
3285.0,2944.0,3056.0,3658.0,2736.0,2224.0,2452.0,2221.0,-0.86,9.82,4.67,-0.0,0.01,-0.14,0.0,n
3285.0,2947.0,3063.0,3662.0,2736.0,2229.0,2464.0,2224.0,-0.67,9.87,4.67,0.02,-0.0,-0.14,0.0,n
3282.0,2946.0,3055.0,3661.0,2736.0,2229.0,2462.0,2223.0,-0.81,9.73,4.7,0.01,-0.03,-0.16,0.0,n
3277.0,2950.0,3059.0,3663.0,2736.0,2227.0,2464.0,2224.0,-0.32,9.8,4.58,0.03,-0.06,-0.14,0.0,n
3281.0,2944.0,3053.0,3658.0,2736.0,2226.0,2454.0,2224.0,-0.63,9.93,4.66,0.01,-0.02,-0.14,0.0,n
3286.0,2958.0,3056.0,3663.0,2739.0,2227.0,2462.0,2229.0,-0.63,9.86,4.68,0.01,0.02,-0.14,0.0,n
3282.0,2944.0,3066.0,3652.0,2738.0,2225.0,2461.0,2224.0,-0.61,9.75,4.61,0.04,-0.03,-0.18,0.0,n
3285.0,2960.0,3051.0,3665.0,2736.0,2230.0,2463.0,2226.0,-0.49,9.84,4.56,0.01,0.01,-0.14,0.0,n
3289.0,2951.0,3063.0,3659.0,2736.0,2234.0,2466.0,2224.0,-0.7,9.86,4.7,0.02,0.0,-0.15,0.0,n
3297.0,2942.0,3062.0,3663.0,2740.0,2233.0,2447.0,2227.0,-0.56,9.89,4.63,0.02,0.02,-0.16,0.0,n
3291.0,2945.0,3067.0,3664.0,2737.0,2230.0,2469.0,2233.0,-0.68,9.82,4.66,0.03,0.0,-0.17,0.0,n
3290.0,2943.0,3059.0,3670.0,2737.0,2231.0,2465.0,2224.0,-0.59,9.89,4.63,0.01,-0.01,-0.16,0.0,n
3297.0,2944.0,3066.0,3651.0,2737.0,2235.0,2448.0,2234.0,-0.64,9.85,4.75,0.03,0.01,-0.16,0.0,n
3289.0,2951.0,3057.0,3662.0,2739.0,2233.0,2475.0,2237.0,-0.67,9.83,4.76,0.02,0.03,-0.16,0.0,n
3280.0,2943.0,3058.0,3658.0,2751.0,2231.0,2469.0,2229.0,-0.57,9.84,4.53,0.03,0.02,-0.15,0.0,n
3289.0,2939.0,3056.0,3658.0,2747.0,2230.0,2470.0,2227.0,-0.63,9.86,4.71,0.02,0.01,-0.16,0.0,n
3282.0,2950.0,3056.0,3660.0,2736.0,2231.0,2471.0,2240.0,-0.77,9.87,4.57,0.01,0.02,-0.14,0.0,n
3298.0,2943.0,3057.0,3664.0,2734.0,2235.0,2467.0,2230.0,-0.67,9.86,4.71,-0.03,0.0,-0.13,0.0,n
3973.0,2960.0,4018.0,3678.0,2545.0,2262.0,2463.0,2082.0,-1.07,9.79,3.89,-0.01,0.04,-0.15,0.0,n
3955.0,2948.0,4020.0,3670.0,2555.0,2269.0,2467.0,2083.0,-1.35,9.68,3.89,0.01,0.01,-0.16,0.0,n
3957.0,2956.0,4011.0,3664.0,2555.0,2271.0,2474.0,2094.0,-1.18,9.73,4.01,0.01,-0.06,-0.12,0.0,n
3961.0,2953.0,4013.0,3674.0,2557.0,2267.0,2471.0,2096.0,-1.04,9.98,3.76,-0.02,-0.03,-0.13,0.0,n
3981.0,2948.0,4009.0,3666.0,2554.0,2273.0,2479.0,2096.0,-1.3,9.73,3.96,-0.0,-0.08,-0.14,0.0,n
3967.0,2960.0,4013.0,3679.0,2556.0,2278.0,2484.0,2097.0,-1.39,9.85,3.99,-0.08,-0.06,-0.16,0.0,n
3968.0,2950.0,4014.0,3665.0,2559.0,2274.0,2481.0,2105.0,-1.09,9.74,4.23,-0.01,-0.08,-0.15,0.0,n
3952.0,2949.0,4001.0,3679.0,2559.0,2256.0,2485.0,2103.0,-1.16,9.72,4.28,0.02,0.02,-0.16,0.0,n
3955.0,2960.0,3997.0,3689.0,2559.0,2276.0,2492.0,2105.0,-1.26,9.79,4.1,0.01,-0.0,-0.16,0.0,n
3962.0,2955.0,4003.0,3680.0,2559.0,2282.0,2494.0,2112.0,-1.27,9.81,4.19,0.02,0.03,-0.16,0.0,n
3973.0,2970.0,4018.0,3696.0,2559.0,2278.0,2495.0,2116.0,-1.16,9.76,4.2,0.03,0.03,-0.19,0.0,n
3951.0,2943.0,3990.0,3689.0,2559.0,2285.0,2491.0,2115.0,-1.35,9.62,4.16,0.03,-0.03,-0.2,0.0,n
3961.0,2960.0,4019.0,3687.0,2559.0,2288.0,2490.0,2114.0,-1.44,9.7,4.14,0.03,-0.02,-0.15,0.0,n
3952.0,2959.0,4006.0,3696.0,2550.0,2289.0,2494.0,2117.0,-1.36,9.8,4.19,0.02,-0.03,-0.14,0.0,n
3954.0,2963.0,3989.0,3696.0,2559.0,2288.0,2495.0,2114.0,-1.17,9.83,4.07,-0.03,-0.0,-0.19,0.0,n
3968.0,2960.0,4005.0,3691.0,2556.0,2287.0,2496.0,2122.0,-1.31,9.81,4.1,0.01,-0.02,-0.18,0.0,n
3952.0,2960.0,3999.0,3694.0,2559.0,2287.0,2496.0,2127.0,-1.27,9.73,4.04,0.03,-0.02,-0.19,0.0,n
3967.0,2955.0,4011.0,3685.0,2559.0,2284.0,2505.0,2127.0,-1.34,9.67,4.2,0.01,0.0,-0.16,0.0,n
3949.0,2965.0,3990.0,3696.0,2547.0,2290.0,2507.0,2130.0,-1.31,9.75,4.14,0.02,-0.02,-0.18,0.0,n
3970.0,2949.0,4001.0,3696.0,2559.0,2288.0,2506.0,2128.0,-1.5,9.76,4.23,0.02,-0.03,-0.16,0.0,n
3974.0,2947.0,3993.0,3662.0,2559.0,2289.0,2507.0,2131.0,-1.48,9.84,4.05,0.02,-0.02,-0.16,0.0,n
3971.0,2955.0,3984.0,3707.0,2559.0,2293.0,2511.0,2138.0,-1.52,9.75,4.12,0.01,0.01,-0.16,0.0,n
3958.0,2957.0,3985.0,3710.0,2547.0,2291.0,2516.0,2134.0,-1.46,9.73,4.17,0.01,-0.0,-0.16,0.0,n
3959.0,2946.0,3986.0,3702.0,2559.0,2301.0,2514.0,2138.0,-1.44,9.75,4.15,0.02,-0.03,-0.16,0.0,n
3958.0,2950.0,3983.0,3703.0,2586.0,2288.0,2512.0,2139.0,-1.43,9.76,4.21,0.03,-0.03,-0.16,0.0,n
3969.0,2947.0,3987.0,3711.0,2559.0,2289.0,2512.0,2128.0,-1.47,9.77,4.18,0.02,0.01,-0.17,0.0,n
3940.0,2950.0,3989.0,3707.0,2582.0,2290.0,2515.0,2130.0,-1.33,9.75,4.22,0.03,-0.0,-0.15,0.0,n
3959.0,2946.0,3999.0,3713.0,2582.0,2288.0,2512.0,2142.0,-1.51,9.83,4.03,0.03,0.01,-0.13,0.0,n
3971.0,2949.0,3984.0,3710.0,2559.0,2293.0,2512.0,2144.0,-1.42,9.9,4.0,-0.01,-0.01,-0.1,0.0,n
3974.0,2960.0,3998.0,3713.0,2585.0,2297.0,2517.0,2144.0,-1.13,9.8,4.29,0.01,-0.03,-0.14,0.0,n
3952.0,2951.0,3994.0,3710.0,2579.0,2294.0,2515.0,2146.0,-1.45,9.82,4.23,0.05,-0.02,-0.17,0.0,n
3955.0,2946.0,3973.0,3721.0,2578.0,2299.0,2515.0,2145.0,-1.45,9.79,4.13,0.02,-0.0,-0.15,0.0,n
3952.0,2944.0,3985.0,3725.0,2581.0,2298.0,2517.0,2146.0,-1.47,9.81,4.19,0.02,-0.0,-0.14,0.0,n
3946.0,2959.0,3970.0,3719.0,2586.0,2297.0,2518.0,2149.0,-1.37,9.78,4.28,0.03,0.02,-0.14,0.0,n
3948.0,2959.0,3995.0,3727.0,2590.0,2302.0,2519.0,2141.0,-1.19,9.83,4.16,0.03,-0.01,-0.14,0.0,n
3957.0,2960.0,3975.0,3728.0,2585.0,2299.0,2523.0,2150.0,-1.31,9.79,4.15,0.02,-0.01,-0.15,0.0,n
3957.0,2945.0,3985.0,3726.0,2587.0,2301.0,2523.0,2155.0,-1.27,9.81,4.15,0.01,-0.03,-0.14,0.0,n
3965.0,2946.0,3984.0,3725.0,2590.0,2277.0,2523.0,2151.0,-1.29,9.82,4.3,0.0,-0.02,-0.14,0.0,n
3947.0,2946.0,3982.0,3722.0,2585.0,2300.0,2527.0,2149.0,-1.2,9.83,4.13,0.02,-0.0,-0.13,0.0,n
3969.0,2943.0,3975.0,3733.0,2593.0,2301.0,2522.0,2150.0,-1.21,9.84,4.16,0.02,0.01,-0.15,0.0,n
3956.0,2949.0,4001.0,3725.0,2590.0,2304.0,2523.0,2158.0,-1.19,9.78,4.21,0.02,0.0,-0.14,0.0,n
3949.0,2960.0,3978.0,3719.0,2599.0,2304.0,2529.0,2158.0,-1.15,9.84,4.07,0.01,-0.01,-0.14,0.0,n
3952.0,2943.0,3987.0,3725.0,2590.0,2301.0,2527.0,2154.0,-1.23,9.85,4.15,0.0,0.02,-0.15,0.0,n
3937.0,2953.0,3982.0,3719.0,2593.0,2302.0,2527.0,2161.0,-1.17,9.84,4.11,0.01,-0.02,-0.14,0.0,n
3967.0,2955.0,3967.0,3717.0,2598.0,2305.0,2540.0,2160.0,-1.25,9.81,4.31,0.01,-0.02,-0.16,0.0,n
3952.0,2951.0,3986.0,3727.0,2609.0,2303.0,2530.0,2157.0,-1.16,9.8,4.21,0.01,-0.02,-0.16,0.0,n
3953.0,2961.0,3989.0,3730.0,2595.0,2304.0,2526.0,2157.0,-1.25,9.83,4.23,0.01,-0.0,-0.15,0.0,n
3952.0,2959.0,3981.0,3728.0,2592.0,2303.0,2531.0,2159.0,-1.16,9.85,4.13,0.02,0.0,-0.15,0.0,n
3965.0,2956.0,3965.0,3723.0,2594.0,2307.0,2533.0,2160.0,-1.12,9.74,4.16,-0.0,0.01,-0.14,0.0,n
3955.0,2957.0,3973.0,3717.0,2592.0,2303.0,2494.0,2159.0,-1.01,9.79,4.14,-0.01,-0.01,-0.13,0.0,n
3957.0,2951.0,3984.0,3734.0,2599.0,2303.0,2537.0,2160.0,-1.13,9.84,4.2,0.02,-0.03,-0.14,0.0,n
3959.0,2947.0,3981.0,3722.0,2597.0,2299.0,2534.0,2161.0,-1.13,9.85,4.13,-0.02,-0.02,-0.13,0.0,n
3942.0,2958.0,3978.0,3722.0,2605.0,2289.0,2530.0,2160.0,-1.11,9.83,4.25,-0.01,0.01,-0.13,0.0,n
3972.0,2953.0,3980.0,3723.0,2608.0,2306.0,2544.0,2159.0,-1.1,9.79,4.23,0.01,-0.01,-0.16,0.0,n
3954.0,2951.0,3956.0,3726.0,2613.0,2319.0,2541.0,2160.0,-1.06,9.77,4.35,0.03,0.0,-0.15,0.0,n
3974.0,2954.0,3985.0,3718.0,2610.0,2306.0,2535.0,2160.0,-1.19,9.82,4.2,0.03,-0.02,-0.16,0.0,n
3961.0,2955.0,3961.0,3728.0,2608.0,2309.0,2538.0,2160.0,-1.23,9.81,4.26,0.05,-0.03,-0.12,0.0,n
3954.0,2946.0,3966.0,3724.0,2608.0,2309.0,2539.0,2160.0,-1.02,9.83,4.22,0.01,-0.01,-0.13,0.0,n
3955.0,2958.0,3974.0,3718.0,2610.0,2306.0,2535.0,2159.0,-0.98,9.88,4.19,0.02,-0.0,-0.15,0.0,n
3963.0,2960.0,3962.0,3719.0,2624.0,2307.0,2543.0,2160.0,-1.02,9.76,4.27,0.03,0.01,-0.16,0.0,n
3659.0,2939.0,3010.0,3663.0,2656.0,2201.0,2402.0,1991.0,-1.06,10.02,3.62,0.01,0.06,-0.08,0.0,n
3649.0,2940.0,2992.0,3664.0,2667.0,2207.0,2413.0,1999.0,-0.91,9.86,3.68,-0.04,0.04,-0.15,0.0,n
3654.0,2943.0,2995.0,3677.0,2658.0,2204.0,2409.0,2000.0,-0.98,9.84,3.86,-0.08,-0.05,-0.11,0.0,n
3643.0,2945.0,2992.0,3670.0,2671.0,2208.0,2414.0,2002.0,-0.9,9.89,3.8,-0.07,0.02,-0.14,0.0,n
3637.0,2937.0,2999.0,3669.0,2686.0,2210.0,2410.0,2007.0,-1.16,9.75,4.04,-0.02,-0.21,-0.08,0.0,n
3663.0,2951.0,3001.0,3655.0,2691.0,2214.0,2400.0,2010.0,-0.96,9.95,3.96,-0.02,0.18,-0.15,0.0,n
3654.0,2948.0,2999.0,3662.0,2695.0,2217.0,2419.0,2015.0,-0.68,9.98,3.82,0.01,0.05,-0.13,0.0,n
3639.0,2943.0,2992.0,3660.0,2703.0,2219.0,2432.0,2026.0,-0.56,9.9,4.14,-0.01,-0.0,-0.15,0.0,n
3646.0,2955.0,3008.0,3674.0,2702.0,2225.0,2430.0,2022.0,-0.9,9.91,3.81,0.03,0.01,-0.17,0.0,n
3637.0,2944.0,3009.0,3667.0,2711.0,2225.0,2429.0,2024.0,-0.78,9.95,3.81,-0.01,-0.0,-0.15,0.0,n
3649.0,2945.0,2999.0,3678.0,2704.0,2233.0,2432.0,2032.0,-0.76,9.91,3.94,0.02,-0.05,-0.15,0.0,n
3655.0,2944.0,3001.0,3667.0,2704.0,2231.0,2435.0,2034.0,-0.86,9.85,3.98,-0.01,-0.06,-0.15,0.0,n
3648.0,2937.0,2994.0,3686.0,2713.0,2238.0,2436.0,2032.0,-0.75,9.82,3.93,0.03,-0.05,-0.17,0.0,n
3659.0,2941.0,3008.0,3685.0,2714.0,2237.0,2442.0,2035.0,-0.76,9.84,3.95,0.03,0.01,-0.14,0.0,n
3661.0,2950.0,2995.0,3663.0,2713.0,2239.0,2438.0,2037.0,-0.78,9.84,3.97,0.02,0.01,-0.16,0.0,n
3645.0,2958.0,3010.0,3696.0,2714.0,2240.0,2445.0,2035.0,-0.85,9.89,3.85,0.01,0.01,-0.13,0.0,n
3648.0,2946.0,3006.0,3695.0,2714.0,2238.0,2441.0,2041.0,-0.88,9.84,4.04,0.0,-0.01,-0.17,0.0,n
3654.0,2943.0,2999.0,3696.0,2722.0,2240.0,2445.0,2039.0,-0.88,9.87,3.94,0.03,-0.0,-0.16,0.0,n
3652.0,2953.0,3003.0,3686.0,2719.0,2241.0,2446.0,2039.0,-0.96,9.96,3.86,0.01,0.0,-0.15,0.0,n
3657.0,2954.0,3010.0,3702.0,2720.0,2247.0,2449.0,2042.0,-0.96,9.8,4.0,-0.02,-0.01,-0.14,0.0,n
3650.0,2942.0,2995.0,3696.0,2714.0,2235.0,2448.0,2040.0,-0.84,9.86,3.88,-0.0,-0.04,-0.13,0.0,n
3655.0,2950.0,3005.0,3693.0,2723.0,2243.0,2451.0,2047.0,-0.62,9.9,3.86,0.03,-0.05,-0.15,0.0,n
3657.0,2942.0,3012.0,3696.0,2719.0,2256.0,2448.0,2045.0,-0.91,9.9,3.95,-0.01,0.01,-0.16,0.0,n
3649.0,2949.0,3010.0,3711.0,2724.0,2253.0,2466.0,2054.0,-0.92,9.86,4.02,0.02,0.02,-0.15,0.0,n
3655.0,2942.0,3017.0,3701.0,2719.0,2256.0,2451.0,2055.0,-0.91,9.8,4.1,0.03,-0.0,-0.14,0.0,n
3655.0,2941.0,3009.0,3707.0,2723.0,2254.0,2449.0,2047.0,-0.7,9.87,3.82,0.03,-0.0,-0.16,0.0,n
3642.0,2941.0,3008.0,3718.0,2731.0,2251.0,2449.0,2046.0,-0.76,9.82,3.92,0.02,-0.01,-0.14,0.0,n
3662.0,2941.0,2994.0,3715.0,2733.0,2246.0,2455.0,2061.0,-0.75,9.87,3.95,-0.0,0.01,-0.16,0.0,n
3652.0,2955.0,3005.0,3717.0,2723.0,2255.0,2454.0,2055.0,-0.79,9.86,3.88,0.04,-0.02,-0.15,0.0,n
3662.0,2957.0,2997.0,3717.0,2729.0,2241.0,2455.0,2055.0,-0.8,9.84,3.99,0.01,0.01,-0.17,0.0,n
3659.0,2947.0,2999.0,3727.0,2733.0,2255.0,2458.0,2055.0,-0.85,9.85,3.95,0.03,-0.01,-0.16,0.0,n
3652.0,2935.0,3011.0,3715.0,2725.0,2254.0,2451.0,2062.0,-0.84,9.86,3.98,0.03,0.0,-0.17,0.0,n
3664.0,2944.0,3002.0,3710.0,2726.0,2253.0,2453.0,2055.0,-0.82,9.8,3.99,0.01,0.01,-0.15,0.0,n
3638.0,2943.0,3003.0,3719.0,2704.0,2257.0,2454.0,2058.0,-0.69,9.84,3.93,0.01,0.01,-0.16,0.0,n
3654.0,2935.0,2996.0,3718.0,2738.0,2257.0,2458.0,2055.0,-0.77,9.83,3.95,0.01,0.01,-0.16,0.0,n
3652.0,2939.0,3008.0,3727.0,2725.0,2254.0,2460.0,2063.0,-0.85,9.89,3.88,0.01,-0.0,-0.15,0.0,n
3642.0,2962.0,3008.0,3713.0,2730.0,2257.0,2455.0,2063.0,-0.82,9.86,3.96,0.01,-0.0,-0.15,0.0,n
3649.0,2955.0,3010.0,3727.0,2689.0,2277.0,2464.0,2064.0,-0.75,9.87,3.97,0.0,-0.0,-0.16,0.0,n
3662.0,2944.0,3007.0,3719.0,2727.0,2257.0,2462.0,2062.0,-0.77,9.84,3.84,-0.0,-0.01,-0.14,0.0,n
3652.0,2942.0,3008.0,3722.0,2736.0,2258.0,2457.0,2065.0,-0.85,9.78,4.03,0.02,-0.01,-0.14,0.0,n
3648.0,2938.0,3009.0,3727.0,2731.0,2259.0,2462.0,2070.0,-0.62,9.84,3.92,-0.01,0.03,-0.15,0.0,n
3653.0,2939.0,3007.0,3716.0,2736.0,2261.0,2455.0,2067.0,-0.75,9.84,3.99,0.02,0.02,-0.16,0.0,n
3657.0,2939.0,2994.0,3721.0,2733.0,2258.0,2459.0,2064.0,-0.85,9.85,3.99,0.0,-0.01,-0.17,0.0,n
3652.0,2955.0,3006.0,3719.0,2736.0,2263.0,2461.0,2035.0,-0.76,9.89,3.88,0.03,-0.0,-0.15,0.0,n
3664.0,2938.0,3009.0,3727.0,2736.0,2261.0,2463.0,2074.0,-0.79,9.81,4.05,0.02,0.01,-0.17,0.0,n
3642.0,2957.0,3009.0,3728.0,2733.0,2267.0,2464.0,2067.0,-0.83,9.78,3.94,0.03,-0.02,-0.15,0.0,n
3648.0,2941.0,3005.0,3732.0,2737.0,2260.0,2464.0,2071.0,-0.88,9.83,4.0,-0.0,-0.01,-0.16,0.0,n
3639.0,2943.0,3003.0,3728.0,2735.0,2269.0,2462.0,2071.0,-0.72,9.89,3.94,-0.0,-0.01,-0.14,0.0,n
3649.0,2948.0,3013.0,3728.0,2736.0,2261.0,2464.0,2067.0,-0.83,9.91,3.9,0.03,-0.01,-0.16,0.0,n
3650.0,2942.0,2997.0,3727.0,2735.0,2263.0,2460.0,2070.0,-0.83,9.93,3.84,0.02,-0.01,-0.14,0.0,n
3641.0,2946.0,3009.0,3733.0,2736.0,2265.0,2463.0,2079.0,-0.8,9.85,4.04,0.02,-0.0,-0.16,0.0,n
3660.0,2950.0,3011.0,3730.0,2735.0,2268.0,2465.0,2073.0,-0.74,9.87,3.93,0.05,-0.0,-0.17,0.0,n
3649.0,2939.0,3003.0,3744.0,2733.0,2270.0,2465.0,2075.0,-0.94,9.84,3.82,0.0,-0.01,-0.15,0.0,n
3653.0,2947.0,3015.0,3738.0,2736.0,2270.0,2470.0,2078.0,-0.85,9.87,3.92,-0.0,-0.02,-0.15,0.0,n
3645.0,2951.0,3002.0,3742.0,2732.0,2269.0,2474.0,2073.0,-0.68,9.89,3.92,0.03,-0.05,-0.14,0.0,n
3638.0,2938.0,2997.0,3734.0,2733.0,2267.0,2469.0,2078.0,-0.89,9.87,4.0,0.0,-0.01,-0.16,0.0,n
3637.0,2944.0,3003.0,3740.0,2732.0,2266.0,2467.0,2079.0,-0.72,9.86,3.93,0.0,-0.01,-0.14,0.0,n
3637.0,2944.0,3002.0,3734.0,2734.0,2271.0,2467.0,2077.0,-0.84,9.9,4.1,0.02,-0.0,-0.15,0.0,n
3647.0,2947.0,3009.0,3742.0,2733.0,2263.0,2469.0,2081.0,-0.72,9.83,3.97,0.01,0.02,-0.16,0.0,n
3648.0,2939.0,3001.0,3729.0,2736.0,2265.0,2470.0,2077.0,-0.79,9.78,4.02,0.04,-0.0,-0.15,0.0,n
4095.0,2960.0,3168.0,3634.0,2559.0,2213.0,2485.0,2207.0,-1.27,10.0,3.63,0.02,-0.04,-0.11,0.0,n
4095.0,2966.0,3161.0,3634.0,2559.0,2224.0,2487.0,2212.0,-1.05,9.66,3.97,0.08,-0.07,-0.13,0.0,n
4095.0,2967.0,3161.0,3631.0,2559.0,2234.0,2485.0,2217.0,-0.92,9.77,3.91,0.05,-0.07,-0.16,0.0,n
4095.0,2969.0,3173.0,3583.0,2593.0,2225.0,2475.0,2223.0,-1.26,9.66,3.94,0.03,-0.05,-0.14,0.0,n
4095.0,2977.0,3171.0,3642.0,2592.0,2225.0,2496.0,2223.0,-1.07,9.85,3.95,0.07,-0.01,-0.11,0.0,n
4095.0,2977.0,3169.0,3623.0,2595.0,2234.0,2497.0,2224.0,-1.26,9.73,3.5,0.03,0.03,-0.2,0.0,n
4095.0,2969.0,3162.0,3664.0,2603.0,2239.0,2499.0,2229.0,-1.08,9.85,3.59,0.0,-0.06,-0.13,0.0,n
4095.0,2971.0,3177.0,3666.0,2608.0,2233.0,2506.0,2224.0,-1.01,9.59,4.02,0.01,-0.03,-0.2,0.0,n
4095.0,2981.0,3167.0,3667.0,2609.0,2235.0,2506.0,2228.0,-1.35,9.73,3.65,-0.01,0.01,-0.09,0.0,n
4095.0,2961.0,3169.0,3663.0,2619.0,2243.0,2507.0,2230.0,-0.84,9.83,3.94,-0.04,0.0,-0.04,0.0,n
4095.0,2961.0,3159.0,3664.0,2610.0,2234.0,2512.0,2239.0,-0.91,9.99,3.86,0.02,-0.07,-0.13,0.0,n
4095.0,2966.0,3159.0,3583.0,2615.0,2245.0,2514.0,2239.0,-1.19,9.99,3.79,0.0,-0.05,-0.23,0.0,n
4095.0,2985.0,3165.0,3671.0,2610.0,2241.0,2511.0,2242.0,-1.19,9.75,3.96,0.06,-0.05,-0.24,0.0,n
4095.0,2967.0,3166.0,3677.0,2620.0,2243.0,2512.0,2238.0,-1.35,9.81,3.87,0.07,-0.02,-0.2,0.0,n
4095.0,2973.0,3159.0,3679.0,2613.0,2237.0,2523.0,2243.0,-1.44,9.75,3.9,-0.02,-0.05,-0.17,0.0,n
4095.0,2960.0,3163.0,3679.0,2623.0,2246.0,2515.0,2246.0,-1.5,9.84,3.7,0.01,-0.06,-0.13,0.0,n
4095.0,2971.0,3163.0,3685.0,2615.0,2253.0,2526.0,2208.0,-1.19,9.95,4.05,-0.0,-0.04,-0.18,0.0,n
4095.0,2976.0,3167.0,3682.0,2623.0,2225.0,2522.0,2254.0,-1.29,9.77,3.82,0.04,-0.1,-0.19,0.0,n
4095.0,2977.0,3167.0,3697.0,2624.0,2253.0,2527.0,2256.0,-1.17,9.66,3.8,0.0,-0.05,-0.16,0.0,n
4095.0,2970.0,3174.0,3675.0,2625.0,2251.0,2528.0,2253.0,-1.15,9.73,3.75,0.06,-0.12,-0.09,0.0,n
4095.0,2970.0,3152.0,3683.0,2621.0,2249.0,2529.0,2254.0,-1.23,9.8,4.13,-0.0,-0.05,-0.11,0.0,n
4095.0,2962.0,3167.0,3653.0,2619.0,2252.0,2533.0,2249.0,-1.03,9.94,4.07,0.01,-0.07,-0.15,0.0,n
4095.0,2967.0,3156.0,3677.0,2619.0,2253.0,2518.0,2255.0,-1.3,9.94,4.08,0.01,0.02,-0.17,0.0,n
4095.0,2957.0,3150.0,3674.0,2623.0,2256.0,2527.0,2256.0,-1.01,9.8,3.87,0.02,-0.0,-0.18,0.0,n
4095.0,2961.0,3149.0,3675.0,2624.0,2245.0,2527.0,2256.0,-1.21,9.78,4.02,0.01,0.02,-0.16,0.0,n
4095.0,2974.0,3152.0,3682.0,2624.0,2256.0,2530.0,2256.0,-1.05,9.77,3.95,0.04,0.02,-0.17,0.0,n
4095.0,2965.0,3170.0,3689.0,2627.0,2259.0,2537.0,2255.0,-1.25,9.77,3.97,-0.02,0.03,-0.15,0.0,n
4095.0,2973.0,3165.0,3682.0,2631.0,2255.0,2532.0,2256.0,-1.08,9.85,4.04,0.0,-0.01,-0.14,0.0,n
4095.0,2971.0,3162.0,3685.0,2631.0,2259.0,2540.0,2256.0,-1.11,9.81,4.05,0.01,-0.02,-0.16,0.0,n
4095.0,2957.0,3151.0,3698.0,2635.0,2259.0,2535.0,2257.0,-1.15,9.7,4.0,0.02,0.02,-0.15,0.0,n
4095.0,2978.0,3158.0,3685.0,2636.0,2256.0,2557.0,2260.0,-1.19,9.76,4.0,0.01,0.01,-0.13,0.0,n
4095.0,2970.0,3159.0,3691.0,2638.0,2256.0,2544.0,2259.0,-1.05,9.78,4.11,-0.01,0.07,-0.12,0.0,n
4095.0,2973.0,3154.0,3699.0,2638.0,2273.0,2541.0,2259.0,-0.93,9.84,4.06,-0.01,0.06,-0.16,0.0,n
4095.0,2970.0,3159.0,3702.0,2641.0,2262.0,2559.0,2261.0,-1.36,9.83,4.07,0.02,0.04,-0.17,0.0,n
4095.0,2969.0,3154.0,3696.0,2641.0,2258.0,2547.0,2266.0,-0.88,9.8,3.83,-0.04,0.03,-0.12,0.0,n
4095.0,2972.0,3168.0,3707.0,2640.0,2263.0,2549.0,2263.0,-1.07,9.89,4.27,0.01,0.04,-0.15,0.0,n
4095.0,2961.0,3167.0,3699.0,2641.0,2263.0,2553.0,2267.0,-1.21,9.82,3.99,0.05,0.02,-0.15,0.0,n
4095.0,2971.0,3162.0,3702.0,2645.0,2259.0,2548.0,2269.0,-1.19,9.82,4.11,0.0,0.02,-0.12,0.0,n
4095.0,2975.0,3157.0,3699.0,2642.0,2267.0,2543.0,2271.0,-1.04,9.9,3.81,0.06,0.04,-0.15,0.0,n
4095.0,2966.0,3163.0,3701.0,2642.0,2271.0,2558.0,2267.0,-1.21,9.82,3.98,0.02,0.04,-0.16,0.0,n
4095.0,2958.0,3161.0,3696.0,2636.0,2269.0,2549.0,2273.0,-0.95,9.8,3.94,0.03,0.01,-0.13,0.0,n
4095.0,2962.0,3169.0,3695.0,2640.0,2271.0,2559.0,2279.0,-1.16,9.79,4.03,0.01,0.02,-0.16,0.0,n
4095.0,2965.0,3152.0,3655.0,2644.0,2266.0,2559.0,2277.0,-0.87,9.83,4.01,0.07,0.02,-0.13,0.0,n
4095.0,2960.0,3167.0,3709.0,2647.0,2270.0,2559.0,2282.0,-1.08,9.81,3.85,0.0,-0.01,-0.13,0.0,n
4095.0,2962.0,3159.0,3700.0,2646.0,2278.0,2559.0,2284.0,-1.0,9.9,3.85,0.02,-0.03,-0.14,0.0,n
4095.0,2967.0,3165.0,3707.0,2647.0,2273.0,2559.0,2275.0,-0.95,9.81,3.92,0.0,-0.04,-0.15,0.0,n
4095.0,2960.0,3152.0,3707.0,2652.0,2271.0,2559.0,2283.0,-0.95,9.89,3.96,0.02,-0.03,-0.14,0.0,n
4095.0,2972.0,3158.0,3709.0,2654.0,2275.0,2559.0,2277.0,-1.04,9.84,4.02,0.02,0.01,-0.15,0.0,n
4095.0,2961.0,3164.0,3723.0,2654.0,2275.0,2559.0,2275.0,-0.88,9.81,3.97,0.01,0.0,-0.16,0.0,n
4095.0,2977.0,3159.0,3713.0,2657.0,2282.0,2559.0,2277.0,-0.93,9.87,3.85,0.02,-0.01,-0.16,0.0,n
4095.0,2965.0,3158.0,3712.0,2656.0,2275.0,2579.0,2279.0,-0.94,9.86,3.93,0.03,-0.01,-0.16,0.0,n
4095.0,2960.0,3151.0,3719.0,2658.0,2271.0,2559.0,2281.0,-0.94,9.81,3.96,0.04,-0.01,-0.16,0.0,n
4095.0,2977.0,3162.0,3671.0,2663.0,2274.0,2559.0,2286.0,-1.1,9.8,3.86,0.0,0.01,-0.16,0.0,n
4095.0,2976.0,3171.0,3724.0,2661.0,2279.0,2559.0,2285.0,-0.8,9.71,3.88,-0.05,-0.06,-0.16,0.0,n
4095.0,2965.0,3152.0,3731.0,2666.0,2291.0,2559.0,2281.0,-1.03,9.83,4.01,0.0,-0.03,-0.12,0.0,n
4095.0,2961.0,3154.0,3735.0,2659.0,2284.0,2559.0,2286.0,-0.97,9.92,4.0,-0.02,-0.01,-0.14,0.0,n
4095.0,2960.0,3158.0,3734.0,2651.0,2286.0,2559.0,2283.0,-0.9,9.82,4.03,0.03,-0.0,-0.16,0.0,n
4095.0,2962.0,3151.0,3746.0,2665.0,2274.0,2559.0,2287.0,-1.07,9.81,4.06,-0.01,-0.0,-0.17,0.0,n
4095.0,2970.0,3165.0,3753.0,2667.0,2283.0,2579.0,2288.0,-0.91,9.88,3.99,0.04,-0.02,-0.15,0.0,n
4095.0,2963.0,3154.0,3747.0,2672.0,2292.0,2559.0,2288.0,-0.96,9.74,4.1,0.02,0.01,-0.15,0.0,n
4077.0,2958.0,3194.0,3711.0,2599.0,2258.0,2451.0,2039.0,-0.92,10.01,3.2,-0.03,0.07,-0.16,0.0,n
4091.0,2963.0,3203.0,3721.0,2611.0,2273.0,2459.0,2063.0,-1.15,9.8,3.2,-0.0,0.05,-0.14,0.0,n
4085.0,2956.0,3191.0,3727.0,2618.0,2267.0,2471.0,2069.0,-1.12,9.82,3.18,-0.02,0.01,-0.13,0.0,n
4071.0,2960.0,3203.0,3717.0,2622.0,2278.0,2471.0,2090.0,-0.97,9.82,3.18,-0.08,-0.01,-0.08,0.0,n
4079.0,2960.0,3190.0,3725.0,2626.0,2279.0,2477.0,2087.0,-0.78,9.84,3.33,-0.05,0.04,-0.11,0.0,n
4095.0,2963.0,3182.0,3717.0,2634.0,2279.0,2480.0,2095.0,-0.91,9.92,3.23,-0.03,-0.0,-0.18,0.0,n
4071.0,2960.0,3173.0,3712.0,2640.0,2286.0,2499.0,2101.0,-0.87,9.73,3.79,-0.1,0.0,-0.16,0.0,n
4091.0,2948.0,3161.0,3715.0,2638.0,2287.0,2505.0,2102.0,-1.02,9.84,3.62,-0.01,-0.01,-0.13,0.0,n
4095.0,2959.0,3162.0,3701.0,2652.0,2288.0,2517.0,2118.0,-0.97,9.73,3.69,0.0,-0.04,-0.14,0.0,n
4095.0,2968.0,3159.0,3703.0,2625.0,2290.0,2518.0,2114.0,-0.91,9.94,3.48,0.11,-0.05,-0.18,0.0,n
4095.0,2961.0,3153.0,3689.0,2601.0,2300.0,2516.0,2130.0,-1.02,9.76,3.36,0.04,0.03,-0.12,0.0,n
4095.0,2960.0,3154.0,3680.0,2611.0,2298.0,2527.0,2137.0,-0.85,9.68,3.59,-0.12,0.02,-0.07,0.0,n
4095.0,2960.0,3146.0,3693.0,2611.0,2307.0,2531.0,2142.0,-0.87,9.88,3.71,-0.01,-0.01,-0.13,0.0,n
4095.0,2960.0,3152.0,3691.0,2621.0,2307.0,2515.0,2153.0,-0.8,9.83,3.54,0.01,0.01,-0.18,0.0,n
4095.0,2959.0,3139.0,3686.0,2623.0,2304.0,2536.0,2154.0,-0.78,9.83,3.62,-0.02,-0.02,-0.15,0.0,n
4095.0,2966.0,3153.0,3701.0,2622.0,2307.0,2535.0,2160.0,-0.99,9.78,3.62,0.01,0.03,-0.16,0.0,n
4095.0,2965.0,3152.0,3696.0,2638.0,2305.0,2541.0,2149.0,-1.0,9.78,3.39,0.01,0.03,-0.15,0.0,n
4095.0,2962.0,3155.0,3699.0,2629.0,2303.0,2544.0,2167.0,-0.97,9.87,3.52,-0.01,0.03,-0.12,0.0,n
4095.0,2981.0,3137.0,3704.0,2634.0,2300.0,2537.0,2167.0,-0.82,9.93,3.55,0.04,0.01,-0.17,0.0,n
4095.0,2960.0,3147.0,3696.0,2639.0,2305.0,2543.0,2173.0,-0.95,9.83,3.58,0.03,-0.0,-0.16,0.0,n
4095.0,2964.0,3139.0,3699.0,2640.0,2306.0,2544.0,2179.0,-0.9,9.69,3.69,0.03,-0.03,-0.15,0.0,n
4095.0,2967.0,3142.0,3705.0,2639.0,2306.0,2545.0,2178.0,-0.94,9.93,3.57,0.01,0.01,-0.14,0.0,n
4095.0,2961.0,3151.0,3710.0,2640.0,2303.0,2544.0,2186.0,-0.91,9.83,3.61,-0.01,0.0,-0.15,0.0,n
4095.0,2967.0,3152.0,3707.0,2639.0,2308.0,2544.0,2189.0,-0.84,9.85,3.6,0.02,-0.03,-0.15,0.0,n
4095.0,2960.0,3150.0,3710.0,2642.0,2304.0,2546.0,2187.0,-1.03,9.82,3.66,-0.0,-0.0,-0.14,0.0,n
4095.0,2968.0,3139.0,3712.0,2647.0,2307.0,2545.0,2190.0,-0.85,9.82,3.69,0.02,-0.01,-0.16,0.0,n
4095.0,2963.0,3141.0,3710.0,2647.0,2307.0,2557.0,2193.0,-0.86,9.79,3.53,0.02,-0.03,-0.15,0.0,n
4095.0,2967.0,3150.0,3707.0,2653.0,2315.0,2557.0,2192.0,-0.88,9.84,3.7,0.03,-0.03,-0.15,0.0,n
4095.0,2955.0,3139.0,3717.0,2650.0,2313.0,2551.0,2192.0,-0.95,9.91,3.62,0.01,-0.0,-0.15,0.0,n
4095.0,2963.0,3146.0,3716.0,2645.0,2313.0,2559.0,2189.0,-0.93,9.91,3.57,0.01,0.02,-0.15,0.0,n
4095.0,2960.0,3135.0,3709.0,2651.0,2314.0,2552.0,2192.0,-0.92,9.81,3.57,0.04,-0.01,-0.15,0.0,n
4095.0,2960.0,3142.0,3718.0,2656.0,2319.0,2558.0,2194.0,-1.07,9.87,3.56,0.15,-0.17,-0.22,0.0,n
4095.0,2967.0,3142.0,3719.0,2656.0,2313.0,2557.0,2193.0,-0.87,9.84,3.47,-0.02,0.02,-0.15,0.0,n
4095.0,2960.0,3149.0,3723.0,2655.0,2303.0,2553.0,2201.0,-0.98,9.82,3.39,-0.02,-0.02,-0.15,0.0,n
4095.0,2966.0,3145.0,3717.0,2654.0,2315.0,2553.0,2203.0,-0.87,9.83,3.4,0.04,-0.08,-0.17,0.0,n
4095.0,2955.0,3135.0,3723.0,2657.0,2310.0,2558.0,2201.0,-0.84,9.84,3.51,-0.02,0.01,-0.14,0.0,n
4095.0,2959.0,3134.0,3740.0,2657.0,2314.0,2559.0,2201.0,-0.94,9.8,3.49,-0.02,0.02,-0.15,0.0,n
4095.0,2951.0,3133.0,3713.0,2654.0,2315.0,2559.0,2205.0,-0.94,9.84,3.53,0.02,0.02,-0.15,0.0,n
4095.0,2961.0,3142.0,3721.0,2655.0,2319.0,2559.0,2205.0,-1.01,9.81,3.56,0.02,-0.01,-0.15,0.0,n
4095.0,2960.0,3136.0,3687.0,2655.0,2311.0,2559.0,2212.0,-0.78,9.78,3.63,-0.03,0.05,-0.13,0.0,n
4095.0,2960.0,3139.0,3690.0,2662.0,2314.0,2559.0,2199.0,-0.78,9.79,3.64,0.01,-0.05,-0.15,0.0,n
4095.0,2965.0,3132.0,3696.0,2665.0,2313.0,2559.0,2217.0,-0.85,9.82,3.61,0.02,-0.02,-0.15,0.0,n
4095.0,2955.0,3139.0,3706.0,2659.0,2316.0,2552.0,2211.0,-0.89,9.86,3.62,0.02,0.01,-0.16,0.0,n
4095.0,2965.0,3130.0,3706.0,2665.0,2317.0,2559.0,2214.0,-0.96,9.84,3.59,0.01,0.01,-0.16,0.0,n
4095.0,2975.0,3131.0,3696.0,2666.0,2315.0,2559.0,2215.0,-0.89,9.81,3.67,0.0,0.02,-0.14,0.0,n
4095.0,2966.0,3133.0,3693.0,2666.0,2288.0,2559.0,2217.0,-0.91,9.71,3.53,-0.04,-0.01,-0.13,0.0,n
4095.0,2961.0,3124.0,3683.0,2670.0,2318.0,2559.0,2222.0,-0.95,9.37,4.0,0.09,0.07,-0.0,0.0,n
4095.0,2965.0,3139.0,3694.0,2669.0,2317.0,2559.0,2223.0,-0.69,9.87,3.72,0.01,0.0,-0.15,0.0,n
4095.0,2968.0,3123.0,3694.0,2669.0,2315.0,2559.0,2211.0,-0.86,9.88,3.61,0.01,-0.03,-0.15,0.0,n
4095.0,2960.0,3141.0,3696.0,2672.0,2316.0,2559.0,2222.0,-0.87,9.84,3.62,-0.03,-0.04,-0.13,0.0,n
4095.0,2958.0,3138.0,3696.0,2668.0,2315.0,2559.0,2219.0,-0.78,9.86,3.83,-0.0,-0.04,-0.13,0.0,n
4095.0,2959.0,3136.0,3693.0,2667.0,2318.0,2559.0,2224.0,-0.83,9.84,3.85,0.03,-0.03,-0.16,0.0,n
4095.0,2966.0,3136.0,3701.0,2671.0,2322.0,2559.0,2224.0,-0.95,9.84,3.68,0.02,-0.02,-0.14,0.0,n
4095.0,2956.0,3136.0,3703.0,2669.0,2320.0,2559.0,2224.0,-0.7,9.86,3.79,0.0,-0.02,-0.12,0.0,n
4095.0,2971.0,3132.0,3705.0,2672.0,2320.0,2559.0,2227.0,-0.73,9.88,3.77,0.02,0.0,-0.15,0.0,n
4095.0,2960.0,3127.0,3702.0,2671.0,2320.0,2583.0,2224.0,-0.75,9.87,3.78,0.05,0.0,-0.17,0.0,n
4095.0,2960.0,3138.0,3700.0,2671.0,2320.0,2580.0,2222.0,-0.9,9.85,3.74,0.02,-0.01,-0.18,0.0,n
4095.0,2970.0,3127.0,3698.0,2673.0,2322.0,2559.0,2227.0,-0.75,9.85,3.68,0.03,-0.01,-0.17,0.0,n
4095.0,2960.0,3134.0,3709.0,2674.0,2321.0,2583.0,2229.0,-0.87,9.78,3.86,0.04,-0.02,-0.17,0.0,n
4095.0,2965.0,3138.0,3705.0,2671.0,2307.0,2581.0,2224.0,-0.71,9.83,3.7,-0.03,-0.03,-0.13,0.0,n
1040.0,2963.0,3024.0,3810.0,2535.0,2266.0,2421.0,2063.0,-1.01,9.74,3.35,-0.0,0.01,-0.15,0.0,n
1019.0,2965.0,3030.0,3815.0,2544.0,2270.0,2429.0,2071.0,-1.19,9.76,3.34,-0.01,0.05,-0.16,0.0,n
1015.0,2966.0,3023.0,3809.0,2538.0,2277.0,2427.0,2075.0,-1.21,9.78,3.34,-0.05,0.01,-0.15,0.0,n
1013.0,2959.0,3030.0,3811.0,2517.0,2278.0,2439.0,2091.0,-1.09,9.67,3.52,0.03,0.04,-0.16,0.0,n
1021.0,2959.0,3030.0,3824.0,2553.0,2288.0,2435.0,2080.0,-1.11,9.72,3.51,-0.02,0.04,-0.15,0.0,n
1015.0,2960.0,3041.0,3826.0,2559.0,2288.0,2439.0,2089.0,-0.96,9.84,3.56,-0.04,0.04,-0.14,0.0,n
1023.0,2966.0,3024.0,3819.0,2559.0,2298.0,2447.0,2092.0,-1.13,9.81,3.53,-0.02,0.06,-0.16,0.0,n
1010.0,2965.0,3034.0,3835.0,2559.0,2302.0,2450.0,2096.0,-1.2,9.74,3.22,0.03,-0.02,-0.15,0.0,n
1010.0,2960.0,3037.0,3831.0,2559.0,2292.0,2448.0,2096.0,-1.07,9.79,3.56,-0.01,-0.02,-0.12,0.0,n
1023.0,2969.0,3030.0,3843.0,2581.0,2300.0,2453.0,2096.0,-1.05,9.91,3.54,0.01,0.01,-0.17,0.0,n
1021.0,2966.0,3039.0,3827.0,2583.0,2302.0,2446.0,2105.0,-1.4,10.01,3.43,-0.05,-0.05,-0.15,0.0,n
1014.0,2973.0,3026.0,3831.0,2559.0,2287.0,2449.0,2112.0,-1.67,9.74,3.87,0.04,0.13,-0.08,0.0,n
1019.0,2961.0,3024.0,3837.0,2580.0,2292.0,2439.0,2102.0,-0.74,9.69,3.72,-0.03,0.18,-0.14,0.0,n
1023.0,2975.0,3025.0,3850.0,2583.0,2271.0,2447.0,2105.0,-0.94,9.8,3.64,0.06,0.03,-0.16,0.0,n
1017.0,2959.0,3036.0,3842.0,2583.0,2300.0,2448.0,2111.0,-1.09,9.82,3.49,0.05,0.06,-0.15,0.0,n
1037.0,2959.0,3021.0,3847.0,2589.0,2291.0,2452.0,2113.0,-0.94,9.73,3.56,0.02,0.01,-0.16,0.0,n
1022.0,2955.0,3024.0,3843.0,2585.0,2279.0,2447.0,2110.0,-0.91,9.8,3.47,0.05,-0.02,-0.16,0.0,n
1011.0,2963.0,3034.0,3838.0,2587.0,2295.0,2449.0,2117.0,-1.08,9.7,3.6,0.02,-0.09,-0.16,0.0,n
1023.0,2977.0,3023.0,3854.0,2591.0,2295.0,2449.0,2117.0,-1.07,9.77,3.58,0.01,-0.05,-0.15,0.0,n
1022.0,2958.0,3026.0,3856.0,2608.0,2305.0,2448.0,2121.0,-1.12,9.76,3.55,0.02,-0.02,-0.16,0.0,n
1019.0,2960.0,3034.0,3840.0,2597.0,2298.0,2450.0,2123.0,-1.13,9.69,3.63,-0.01,-0.06,-0.15,0.0,n
1031.0,2974.0,3027.0,3850.0,2587.0,2299.0,2462.0,2128.0,-1.06,9.77,3.51,0.02,0.02,-0.16,0.0,n
1023.0,2970.0,3024.0,3877.0,2587.0,2294.0,2467.0,2129.0,-1.09,9.81,3.59,-0.0,-0.01,-0.15,0.0,n
1021.0,2963.0,3026.0,3856.0,2590.0,2304.0,2466.0,2123.0,-1.08,9.81,3.6,0.0,-0.03,-0.15,0.0,n
1021.0,2974.0,3033.0,3858.0,2594.0,2305.0,2465.0,2126.0,-1.01,9.79,3.64,0.03,-0.02,-0.19,0.0,n
1022.0,2967.0,3024.0,3857.0,2602.0,2305.0,2451.0,2128.0,-1.16,9.79,3.57,0.02,-0.03,-0.16,0.0,n
1014.0,2967.0,3026.0,3888.0,2607.0,2315.0,2477.0,2129.0,-1.2,9.79,3.78,0.02,-0.04,-0.15,0.0,n
1021.0,2973.0,3021.0,3856.0,2605.0,2304.0,2471.0,2129.0,-0.86,9.72,3.75,0.06,-0.06,-0.16,0.0,n
1023.0,2966.0,3023.0,3888.0,2602.0,2302.0,2469.0,2135.0,-1.17,9.86,3.45,0.08,0.03,-0.15,0.0,n
1017.0,2969.0,3027.0,3875.0,2599.0,2311.0,2470.0,2134.0,-1.03,9.8,3.33,0.03,0.03,-0.15,0.0,n
1022.0,2954.0,3030.0,3871.0,2609.0,2307.0,2474.0,2135.0,-1.06,9.88,3.33,0.02,0.04,-0.15,0.0,n
1018.0,2963.0,3035.0,3883.0,2608.0,2304.0,2475.0,2138.0,-1.09,9.81,3.37,-0.0,0.01,-0.19,0.0,n
1034.0,2960.0,3024.0,3882.0,2608.0,2308.0,2477.0,2141.0,-1.1,9.79,3.53,0.0,-0.02,-0.18,0.0,n
1039.0,2963.0,3031.0,3869.0,2605.0,2305.0,2478.0,2139.0,-1.12,9.87,3.44,0.01,-0.04,-0.13,0.0,n
1037.0,2961.0,3024.0,3889.0,2608.0,2307.0,2476.0,2145.0,-1.07,9.79,3.63,0.01,-0.07,-0.19,0.0,n
1023.0,2980.0,3040.0,3874.0,2608.0,2310.0,2476.0,2138.0,-1.33,9.72,3.68,0.02,-0.04,-0.18,0.0,n
1014.0,2967.0,3024.0,3888.0,2610.0,2317.0,2477.0,2142.0,-1.38,9.71,3.62,0.0,-0.03,-0.15,0.0,n
1033.0,2966.0,3024.0,3883.0,2620.0,2320.0,2477.0,2144.0,-1.1,9.77,3.65,-0.03,-0.03,-0.15,0.0,n
1023.0,2977.0,3021.0,3888.0,2611.0,2315.0,2479.0,2145.0,-1.2,9.81,3.77,0.01,-0.07,-0.17,0.0,n
1015.0,2960.0,3023.0,3900.0,2618.0,2310.0,2481.0,2145.0,-1.39,9.79,3.64,-0.02,-0.03,-0.14,0.0,n
1033.0,2962.0,3024.0,3887.0,2611.0,2311.0,2480.0,2145.0,-1.2,9.77,3.67,-0.02,-0.01,-0.15,0.0,n
1021.0,2975.0,3031.0,3902.0,2619.0,2320.0,2479.0,2142.0,-1.33,9.78,3.63,0.01,-0.02,-0.15,0.0,n
1020.0,2975.0,3024.0,3888.0,2610.0,2320.0,2481.0,2149.0,-1.2,9.74,3.69,-0.03,0.03,-0.15,0.0,n
1020.0,2971.0,3026.0,3890.0,2615.0,2322.0,2478.0,2145.0,-1.1,9.79,3.71,0.02,0.01,-0.15,0.0,n
1018.0,2966.0,3021.0,3883.0,2619.0,2313.0,2475.0,2147.0,-1.21,9.75,3.68,0.02,0.02,-0.18,0.0,n
1034.0,2956.0,3023.0,3885.0,2613.0,2307.0,2480.0,2151.0,-1.28,9.77,3.54,0.04,-0.02,-0.15,0.0,n
1023.0,2966.0,3019.0,3895.0,2615.0,2311.0,2485.0,2148.0,-1.03,9.78,3.72,0.03,-0.01,-0.18,0.0,n
1013.0,2974.0,3037.0,3872.0,2613.0,2318.0,2483.0,2141.0,-1.28,9.74,3.67,0.04,-0.03,-0.16,0.0,n
1018.0,2971.0,3024.0,3887.0,2603.0,2313.0,2487.0,2144.0,-1.26,9.67,3.66,0.01,-0.01,-0.15,0.0,n
1037.0,2967.0,3015.0,3883.0,2618.0,2314.0,2480.0,2144.0,-1.3,9.72,3.57,-0.02,-0.01,-0.12,0.0,n
1023.0,2961.0,3023.0,3851.0,2618.0,2316.0,2490.0,2144.0,-1.32,9.76,3.65,0.01,0.13,-0.09,0.0,n
1021.0,2963.0,3030.0,3877.0,2622.0,2314.0,2486.0,2143.0,-1.04,9.83,3.79,0.0,0.05,-0.15,0.0,n
1023.0,2961.0,3029.0,3888.0,2625.0,2314.0,2490.0,2146.0,-1.2,9.8,3.64,0.02,0.02,-0.14,0.0,n
1021.0,2971.0,3015.0,3872.0,2621.0,2315.0,2497.0,2145.0,-1.13,9.76,3.65,0.02,0.08,-0.16,0.0,n
1034.0,2975.0,3024.0,3863.0,2624.0,2318.0,2493.0,2150.0,-0.97,9.76,3.63,-0.0,-0.0,-0.14,0.0,n
1023.0,2973.0,3026.0,3879.0,2624.0,2314.0,2497.0,2150.0,-1.09,9.87,3.73,0.06,-0.03,-0.12,0.0,n
1038.0,2963.0,3023.0,3887.0,2624.0,2313.0,2496.0,2149.0,-1.11,9.83,3.65,0.0,0.02,-0.16,0.0,n
1023.0,2965.0,3023.0,3875.0,2631.0,2311.0,2496.0,2155.0,-1.06,9.84,3.47,-0.03,0.04,-0.1,0.0,n
1040.0,2961.0,3024.0,3831.0,2630.0,2320.0,2505.0,2155.0,-1.07,9.83,3.72,-0.05,0.01,-0.12,0.0,n
1035.0,2975.0,3007.0,3846.0,2629.0,2319.0,2512.0,2162.0,-0.89,9.83,3.76,0.04,-0.02,-0.15,0.0,n
3987.0,2887.0,3182.0,3725.0,2798.0,2376.0,2690.0,2439.0,-1.54,9.75,3.8,-0.01,-0.0,-0.14,0.0,n
4002.0,2904.0,3191.0,3721.0,2799.0,2380.0,2707.0,2443.0,-1.53,9.65,3.82,0.01,-0.1,-0.14,0.0,n
4007.0,2895.0,3199.0,3728.0,2793.0,2383.0,2717.0,2450.0,-1.61,9.63,3.86,0.01,-0.01,-0.15,0.0,n
3984.0,2897.0,3191.0,3738.0,2789.0,2381.0,2707.0,2454.0,-1.58,9.8,3.93,0.04,-0.05,-0.15,0.0,n
4007.0,2893.0,3187.0,3713.0,2799.0,2378.0,2718.0,2458.0,-1.55,9.71,3.91,0.01,-0.09,-0.12,0.0,n
4010.0,2900.0,3200.0,3733.0,2799.0,2375.0,2718.0,2465.0,-1.63,9.78,3.83,-0.02,0.06,-0.14,0.0,n
3984.0,2899.0,3184.0,3735.0,2800.0,2384.0,2719.0,2468.0,-1.49,9.73,3.89,-0.03,-0.0,-0.13,0.0,n
3984.0,2892.0,3197.0,3722.0,2813.0,2384.0,2720.0,2472.0,-1.45,9.8,3.99,0.01,0.04,-0.16,0.0,n
4006.0,2901.0,3198.0,3728.0,2800.0,2384.0,2759.0,2469.0,-1.49,9.74,3.85,0.03,0.02,-0.15,0.0,n
4001.0,2903.0,3189.0,3731.0,2807.0,2384.0,2701.0,2471.0,-1.44,9.73,3.88,-0.01,-0.04,-0.13,0.0,n
3985.0,2885.0,3200.0,3755.0,2801.0,2384.0,2725.0,2480.0,-1.29,9.79,3.88,0.01,-0.05,-0.13,0.0,n
4009.0,2903.0,3190.0,3732.0,2810.0,2384.0,2731.0,2483.0,-1.37,9.67,3.84,-0.03,0.01,-0.16,0.0,n
3984.0,2903.0,3195.0,3735.0,2809.0,2387.0,2736.0,2490.0,-1.58,9.65,3.89,0.04,-0.02,-0.14,0.0,n
3984.0,2898.0,3199.0,3746.0,2807.0,2384.0,2734.0,2470.0,-1.38,9.78,4.03,0.01,0.04,-0.13,0.0,n
3984.0,2912.0,3197.0,3728.0,2820.0,2391.0,2733.0,2478.0,-1.47,9.8,3.79,0.02,0.0,-0.11,0.0,n
3989.0,2880.0,3205.0,3728.0,2805.0,2387.0,2733.0,2478.0,-1.33,9.84,3.83,0.02,0.01,-0.14,0.0,n
3986.0,2891.0,3184.0,3732.0,2802.0,2386.0,2736.0,2479.0,-1.51,9.69,3.98,0.02,-0.05,-0.16,0.0,n
3981.0,2890.0,3193.0,3743.0,2803.0,2393.0,2736.0,2482.0,-1.33,9.78,3.88,0.04,-0.03,-0.16,0.0,n
3986.0,2899.0,3189.0,3733.0,2803.0,2393.0,2733.0,2479.0,-1.49,9.76,3.91,0.03,0.01,-0.14,0.0,n
3985.0,2892.0,3195.0,3739.0,2825.0,2395.0,2743.0,2495.0,-1.32,9.75,3.78,0.04,0.0,-0.15,0.0,n
3991.0,2909.0,3186.0,3733.0,2802.0,2386.0,2736.0,2480.0,-1.38,9.8,3.91,0.05,-0.03,-0.15,0.0,n
4011.0,2895.0,3199.0,3733.0,2803.0,2388.0,2737.0,2485.0,-1.39,9.73,3.75,0.03,-0.02,-0.16,0.0,n
4002.0,2896.0,3201.0,3728.0,2814.0,2395.0,2745.0,2485.0,-1.55,9.73,3.79,0.02,-0.04,-0.13,0.0,n
3995.0,2896.0,3191.0,3744.0,2807.0,2390.0,2736.0,2487.0,-1.47,9.86,3.72,0.01,0.0,-0.14,0.0,n
3987.0,2900.0,3188.0,3737.0,2809.0,2402.0,2739.0,2485.0,-1.38,9.79,3.82,0.04,-0.01,-0.16,0.0,n
3993.0,2883.0,3197.0,3745.0,2814.0,2401.0,2752.0,2491.0,-1.56,9.75,3.83,0.04,-0.01,-0.16,0.0,n
3984.0,2894.0,3184.0,3743.0,2812.0,2395.0,2743.0,2493.0,-1.46,9.72,3.8,0.02,-0.03,-0.16,0.0,n
3984.0,2891.0,3199.0,3754.0,2814.0,2391.0,2740.0,2490.0,-1.39,9.79,3.83,0.0,0.05,-0.13,0.0,n
3986.0,2893.0,3184.0,3744.0,2820.0,2394.0,2748.0,2487.0,-1.42,9.72,3.69,0.01,0.03,-0.17,0.0,n
4007.0,2887.0,3200.0,3753.0,2815.0,2406.0,2747.0,2493.0,-1.33,9.66,3.82,0.0,-0.02,-0.15,0.0,n
4000.0,2895.0,3200.0,3766.0,2819.0,2397.0,2743.0,2495.0,-1.57,9.73,3.85,-0.01,0.06,-0.16,0.0,n
4006.0,2887.0,3199.0,3755.0,2817.0,2395.0,2746.0,2496.0,-1.42,9.7,3.71,0.01,-0.02,-0.16,0.0,n
3984.0,2912.0,3199.0,3755.0,2813.0,2399.0,2725.0,2494.0,-1.53,9.81,3.75,0.01,-0.01,-0.15,0.0,n
3996.0,2897.0,3194.0,3758.0,2809.0,2398.0,2753.0,2498.0,-1.52,9.69,3.88,0.05,-0.15,-0.18,0.0,n
3994.0,2893.0,3202.0,3699.0,2828.0,2399.0,2750.0,2496.0,-1.49,9.74,3.73,0.02,0.0,-0.17,0.0,n
3995.0,2887.0,3206.0,3771.0,2816.0,2405.0,2745.0,2497.0,-1.52,9.68,3.77,0.01,-0.02,-0.16,0.0,n
4003.0,2902.0,3194.0,3773.0,2818.0,2401.0,2742.0,2490.0,-1.58,9.74,3.62,-0.0,-0.07,-0.14,0.0,n
3993.0,2895.0,3198.0,3761.0,2817.0,2401.0,2748.0,2497.0,-1.48,9.78,3.81,0.01,0.0,-0.14,0.0,n
3986.0,2893.0,3197.0,3763.0,2818.0,2406.0,2746.0,2496.0,-1.48,9.79,3.77,0.03,-0.0,-0.15,0.0,n
3989.0,2902.0,3195.0,3760.0,2818.0,2411.0,2745.0,2496.0,-1.44,9.76,3.79,0.04,0.01,-0.15,0.0,n
4000.0,2897.0,3183.0,3757.0,2815.0,2399.0,2747.0,2496.0,-1.52,9.7,3.75,0.02,0.02,-0.15,0.0,n
3995.0,2899.0,3184.0,3770.0,2816.0,2399.0,2751.0,2499.0,-1.41,9.72,3.66,0.0,-0.03,-0.12,0.0,n
3989.0,2892.0,3197.0,3765.0,2816.0,2404.0,2751.0,2507.0,-1.5,9.74,3.71,0.01,0.01,-0.15,0.0,n
3988.0,2890.0,3186.0,3776.0,2815.0,2399.0,2752.0,2498.0,-1.41,9.76,3.68,0.03,-0.01,-0.15,0.0,n
3994.0,2905.0,3199.0,3770.0,2818.0,2394.0,2753.0,2503.0,-1.5,9.72,3.68,0.01,-0.03,-0.16,0.0,n
3999.0,2901.0,3197.0,3776.0,2819.0,2405.0,2751.0,2503.0,-1.42,9.82,3.75,-0.01,-0.03,-0.13,0.0,n
3998.0,2887.0,3202.0,3773.0,2820.0,2409.0,2752.0,2502.0,-1.53,9.77,3.89,0.02,-0.01,-0.16,0.0,n
3996.0,2894.0,3195.0,3767.0,2818.0,2402.0,2754.0,2507.0,-1.47,9.8,3.77,0.03,-0.01,-0.17,0.0,n
3987.0,2893.0,3200.0,3772.0,2817.0,2399.0,2751.0,2503.0,-1.55,9.71,3.83,0.04,0.01,-0.15,0.0,n
3986.0,2895.0,3193.0,3771.0,2815.0,2403.0,2753.0,2507.0,-1.37,9.7,3.74,0.03,-0.05,-0.16,0.0,n
3995.0,2910.0,3190.0,3799.0,2818.0,2403.0,2753.0,2506.0,-1.48,9.69,3.96,0.01,-0.01,-0.14,0.0,n
4000.0,2903.0,3199.0,3787.0,2823.0,2406.0,2755.0,2490.0,-1.49,9.72,3.72,0.0,0.0,-0.15,0.0,n
3999.0,2898.0,3194.0,3792.0,2820.0,2405.0,2755.0,2512.0,-1.56,9.76,3.83,0.03,-0.02,-0.14,0.0,n
4003.0,2893.0,3184.0,3792.0,2822.0,2408.0,2752.0,2499.0,-1.4,9.75,3.84,0.01,-0.03,-0.15,0.0,n
3988.0,2902.0,3184.0,3807.0,2815.0,2407.0,2752.0,2510.0,-1.47,9.65,3.79,0.0,0.01,-0.15,0.0,n
3984.0,2905.0,3195.0,3813.0,2813.0,2405.0,2753.0,2510.0,-1.41,9.74,3.76,0.0,-0.02,-0.16,0.0,n
3986.0,2895.0,3190.0,3824.0,2822.0,2406.0,2757.0,2512.0,-1.42,9.79,3.77,0.01,-0.01,-0.13,0.0,n
3987.0,2896.0,3187.0,3809.0,2822.0,2409.0,2753.0,2512.0,-1.32,9.84,3.85,0.05,-0.03,-0.17,0.0,n
3984.0,2894.0,3186.0,3805.0,2818.0,2405.0,2761.0,2510.0,-1.47,9.66,3.69,0.04,-0.0,-0.17,0.0,n
4005.0,2896.0,3200.0,3818.0,2823.0,2411.0,2763.0,2507.0,-1.4,9.72,3.79,0.01,-0.01,-0.15,0.0,n
3936.0,2957.0,3087.0,3730.0,2691.0,2315.0,2448.0,2192.0,-1.75,9.65,2.83,-0.01,0.0,-0.17,0.0,n
3935.0,2957.0,3088.0,3767.0,2693.0,2334.0,2439.0,2191.0,-2.01,9.56,2.92,0.02,-0.09,-0.14,0.0,n
3929.0,2960.0,3097.0,3709.0,2699.0,2336.0,2443.0,2198.0,-1.9,9.59,2.79,-0.09,-0.03,-0.07,0.0,n
3915.0,2948.0,3071.0,3792.0,2704.0,2337.0,2458.0,2211.0,-1.59,9.51,3.25,-0.12,-0.09,-0.09,0.0,n
3915.0,2961.0,3088.0,3792.0,2708.0,2343.0,2463.0,2215.0,-0.63,9.54,3.1,0.04,-0.23,-0.11,0.0,n
3906.0,2960.0,3088.0,3792.0,2731.0,2350.0,2461.0,2224.0,-1.7,9.79,3.41,0.01,-0.14,-0.11,0.0,n
3943.0,2954.0,3087.0,3798.0,2725.0,2352.0,2469.0,2225.0,-1.39,9.68,3.34,-0.02,-0.02,-0.15,0.0,n
3915.0,2959.0,3087.0,3807.0,2717.0,2359.0,2467.0,2224.0,-1.87,9.67,3.62,-0.03,-0.06,-0.14,0.0,n
3921.0,2953.0,3092.0,3801.0,2714.0,2356.0,2454.0,2227.0,-1.43,9.79,3.44,0.02,-0.02,-0.14,0.0,n
3918.0,2969.0,3082.0,3840.0,2717.0,2358.0,2485.0,2231.0,-1.5,9.72,3.25,0.01,0.03,-0.15,0.0,n
3937.0,2950.0,3095.0,3799.0,2720.0,2365.0,2484.0,2235.0,-1.75,9.82,3.45,-0.05,-0.02,-0.13,0.0,n
3923.0,2959.0,3088.0,3810.0,2726.0,2370.0,2483.0,2236.0,-1.5,9.67,3.49,-0.01,-0.01,-0.14,0.0,n
3914.0,2950.0,3088.0,3818.0,2720.0,2367.0,2496.0,2234.0,-1.6,9.66,3.52,0.0,0.06,-0.15,0.0,n
3917.0,2950.0,3082.0,3817.0,2727.0,2370.0,2486.0,2238.0,-1.24,9.69,3.46,0.02,-0.03,-0.16,0.0,n
3900.0,2966.0,3089.0,3813.0,2734.0,2377.0,2511.0,2245.0,-1.36,9.67,3.43,0.0,0.04,-0.17,0.0,n
3913.0,2966.0,3088.0,3824.0,2734.0,2369.0,2501.0,2225.0,-1.58,9.57,3.39,-0.01,0.04,-0.14,0.0,n
3927.0,2947.0,3088.0,3807.0,2734.0,2368.0,2503.0,2254.0,-1.49,9.67,3.66,-0.05,0.06,-0.16,0.0,n
3945.0,2958.0,3091.0,3824.0,2732.0,2377.0,2470.0,2246.0,-1.34,9.83,3.43,0.04,0.01,-0.15,0.0,n
3918.0,2958.0,3091.0,3824.0,2737.0,2374.0,2497.0,2247.0,-1.5,9.65,3.64,0.04,0.01,-0.17,0.0,n
3919.0,2960.0,3088.0,3833.0,2736.0,2378.0,2497.0,2256.0,-1.47,9.72,3.41,0.02,0.02,-0.16,0.0,n
3917.0,2958.0,3092.0,3821.0,2740.0,2382.0,2501.0,2256.0,-1.53,9.75,3.6,0.02,0.02,-0.16,0.0,n
3928.0,2960.0,3095.0,3825.0,2736.0,2375.0,2505.0,2256.0,-1.39,9.74,3.39,0.05,0.03,-0.18,0.0,n
3926.0,2959.0,3088.0,3845.0,2736.0,2382.0,2507.0,2257.0,-1.57,9.69,3.51,0.02,-0.02,-0.18,0.0,n
3919.0,2963.0,3088.0,3815.0,2737.0,2383.0,2512.0,2257.0,-1.34,9.69,3.39,0.05,0.04,-0.16,0.0,n
3929.0,2957.0,3088.0,3827.0,2748.0,2382.0,2506.0,2257.0,-1.57,9.64,3.59,0.02,-0.02,-0.18,0.0,n
3940.0,2971.0,3071.0,3833.0,2742.0,2382.0,2512.0,2258.0,-1.59,9.69,3.43,0.03,-0.0,-0.16,0.0,n
3918.0,2959.0,3071.0,3831.0,2740.0,2387.0,2512.0,2263.0,-1.66,9.7,3.55,0.02,-0.01,-0.17,0.0,n
3925.0,2965.0,3088.0,3826.0,2738.0,2389.0,2522.0,2258.0,-1.7,9.62,3.39,0.05,-0.05,-0.17,0.0,n
3914.0,2972.0,3098.0,3835.0,2742.0,2412.0,2512.0,2267.0,-1.52,9.68,3.46,0.0,0.04,-0.13,0.0,n
3917.0,2960.0,3089.0,3839.0,2740.0,2389.0,2511.0,2269.0,-1.76,9.77,3.51,0.06,-0.02,-0.14,0.0,n
3907.0,2955.0,3081.0,3822.0,2742.0,2384.0,2523.0,2265.0,-1.55,9.66,3.44,0.02,-0.01,-0.17,0.0,n
3923.0,2960.0,3086.0,3825.0,2739.0,2381.0,2522.0,2272.0,-1.64,9.74,3.37,0.03,0.0,-0.16,0.0,n
3921.0,2963.0,3087.0,3826.0,2747.0,2389.0,2523.0,2271.0,-1.65,9.68,3.34,-0.01,0.03,-0.14,0.0,n
3916.0,2961.0,3086.0,3829.0,2748.0,2397.0,2515.0,2273.0,-1.53,9.75,3.57,0.01,0.05,-0.17,0.0,n
3911.0,2960.0,3088.0,3836.0,2747.0,2387.0,2514.0,2274.0,-1.5,9.7,3.39,0.01,0.05,-0.17,0.0,n
3920.0,2961.0,3088.0,3825.0,2751.0,2394.0,2515.0,2277.0,-1.65,9.68,3.58,0.01,0.04,-0.12,0.0,n
3922.0,2963.0,3084.0,3827.0,2750.0,2390.0,2515.0,2268.0,-1.44,9.72,3.39,0.02,0.0,-0.15,0.0,n
3908.0,2956.0,3071.0,3871.0,2751.0,2391.0,2515.0,2273.0,-1.46,9.7,3.45,0.02,-0.0,-0.16,0.0,n
3937.0,2965.0,3089.0,3829.0,2747.0,2387.0,2522.0,2271.0,-1.61,9.67,3.39,0.0,0.0,-0.15,0.0,n
3936.0,2970.0,3095.0,3824.0,2754.0,2390.0,2515.0,2277.0,-1.45,9.74,3.45,-0.01,-0.02,-0.14,0.0,n
3911.0,2958.0,3089.0,3835.0,2730.0,2395.0,2523.0,2277.0,-1.56,9.7,3.41,0.02,-0.01,-0.16,0.0,n
3900.0,2960.0,3081.0,3838.0,2753.0,2395.0,2519.0,2276.0,-1.57,9.71,3.42,-0.0,-0.01,-0.14,0.0,n
3920.0,2960.0,3088.0,3827.0,2751.0,2389.0,2523.0,2274.0,-1.53,9.73,3.35,0.01,-0.06,-0.15,0.0,n
3929.0,2960.0,3093.0,3826.0,2742.0,2387.0,2526.0,2264.0,-1.45,9.69,3.36,0.02,-0.02,-0.14,0.0,n
3927.0,2966.0,3088.0,3829.0,2751.0,2390.0,2528.0,2254.0,-1.57,9.66,3.4,0.0,0.01,-0.14,0.0,n
3903.0,2966.0,3099.0,3837.0,2756.0,2395.0,2490.0,2278.0,-1.45,9.77,3.48,0.03,0.01,-0.14,0.0,n
3938.0,2962.0,3087.0,3840.0,2752.0,2395.0,2525.0,2278.0,-1.44,9.69,3.32,-0.01,0.01,-0.16,0.0,n
3935.0,2960.0,3071.0,3827.0,2752.0,2395.0,2530.0,2279.0,-1.41,9.64,3.34,0.04,-0.01,-0.16,0.0,n
3934.0,2967.0,3084.0,3819.0,2758.0,2393.0,2525.0,2285.0,-1.56,9.79,3.48,0.01,0.0,-0.13,0.0,n
3934.0,2959.0,3089.0,3823.0,2759.0,2405.0,2529.0,2288.0,-1.59,9.66,3.5,-0.01,0.0,-0.16,0.0,n
3905.0,2971.0,3083.0,3823.0,2754.0,2393.0,2528.0,2283.0,-1.44,9.71,3.4,0.01,0.01,-0.14,0.0,n
3927.0,2960.0,3086.0,3838.0,2756.0,2397.0,2523.0,2278.0,-1.62,9.74,3.41,-0.0,0.01,-0.15,0.0,n
3920.0,2963.0,3086.0,3873.0,2761.0,2401.0,2533.0,2284.0,-1.47,9.74,3.44,0.01,-0.02,-0.13,0.0,n
3920.0,2962.0,3088.0,3830.0,2765.0,2405.0,2534.0,2287.0,-1.57,9.74,3.46,0.03,-0.01,-0.17,0.0,n
3929.0,2951.0,3092.0,3846.0,2757.0,2404.0,2525.0,2285.0,-1.55,9.67,3.39,0.03,0.0,-0.17,0.0,n
3920.0,2957.0,3090.0,3837.0,2763.0,2412.0,2530.0,2287.0,-1.59,9.63,3.48,0.02,0.0,-0.15,0.0,n
3920.0,2966.0,3092.0,3856.0,2759.0,2405.0,2531.0,2288.0,-1.64,9.62,3.56,0.01,-0.0,-0.16,0.0,n
3920.0,2971.0,3090.0,3859.0,2765.0,2406.0,2533.0,2287.0,-1.32,9.71,3.41,0.02,0.0,-0.15,0.0,n
3905.0,2960.0,3088.0,3862.0,2759.0,2397.0,2529.0,2286.0,-1.55,9.71,3.51,0.01,0.02,-0.17,0.0,n
3913.0,2958.0,3088.0,3879.0,2768.0,2405.0,2527.0,2288.0,-1.33,9.73,3.29,0.0,-0.01,-0.15,0.0,n
