hall_1,hall_2,hall_3,flex_t,flex_i,flex_m,flex_r,flex_p,accel_x,accel_y,accel_z,gyro_x,gyro_y,gyro_z,hand,sign
3883.0,2989.0,3241.0,3798.0,2736.0,2341.0,2427.0,2108.0,-1.51,9.6,3.67,0.02,0.01,-0.16,0.0,n
3879.0,2995.0,3248.0,3809.0,2734.0,2338.0,2424.0,2103.0,-1.4,9.74,3.68,-0.0,-0.0,-0.13,0.0,n
3873.0,2981.0,3245.0,3792.0,2737.0,2347.0,2422.0,2103.0,-1.46,9.79,3.81,0.02,0.01,-0.15,0.0,n
3881.0,2975.0,3247.0,3797.0,2738.0,2351.0,2431.0,2105.0,-1.53,9.68,3.74,0.02,-0.0,-0.16,0.0,n
3856.0,2975.0,3248.0,3804.0,2739.0,2343.0,2429.0,2098.0,-1.46,9.69,3.84,-0.01,-0.02,-0.14,0.0,n
3879.0,2987.0,3259.0,3810.0,2739.0,2349.0,2432.0,2101.0,-1.54,9.78,3.74,0.02,-0.0,-0.16,0.0,n
3888.0,2986.0,3254.0,3802.0,2745.0,2351.0,2427.0,2106.0,-1.39,9.68,3.81,0.01,-0.01,-0.16,0.0,n
3857.0,2978.0,3248.0,3812.0,2736.0,2343.0,2423.0,2109.0,-1.64,9.79,3.78,0.02,0.0,-0.14,0.0,n
3885.0,2995.0,3245.0,3807.0,2738.0,2346.0,2427.0,2110.0,-1.52,9.7,3.83,0.0,0.03,-0.14,0.0,n
3886.0,2992.0,3258.0,3797.0,2737.0,2357.0,2432.0,2107.0,-1.41,9.77,3.53,0.02,-0.03,-0.14,0.0,n
3892.0,2975.0,3258.0,3804.0,2736.0,2348.0,2427.0,2111.0,-1.49,9.76,3.82,0.0,-0.04,-0.15,0.0,n
3878.0,2983.0,3248.0,3806.0,2761.0,2347.0,2429.0,2107.0,-1.52,9.76,3.71,0.03,-0.03,-0.13,0.0,n
3863.0,2975.0,3257.0,3792.0,2736.0,2350.0,2431.0,2112.0,-1.38,9.74,3.75,0.01,0.0,-0.16,0.0,n
3882.0,2970.0,3249.0,3725.0,2743.0,2351.0,2430.0,2107.0,-1.51,9.75,3.77,0.02,0.0,-0.16,0.0,n
3888.0,2985.0,3261.0,3808.0,2738.0,2351.0,2434.0,2103.0,-1.43,9.76,3.77,0.01,-0.02,-0.16,0.0,n
3887.0,2992.0,3262.0,3822.0,2736.0,2350.0,2447.0,2114.0,-1.53,9.72,3.79,0.0,0.02,-0.16,0.0,n
3866.0,2976.0,3249.0,3819.0,2749.0,2351.0,2429.0,2110.0,-1.49,9.7,3.83,0.01,0.02,-0.16,0.0,n
3887.0,2991.0,3244.0,3818.0,2740.0,2352.0,2434.0,2113.0,-1.4,9.74,3.66,0.01,0.0,-0.16,0.0,n
3873.0,2992.0,3247.0,3820.0,2738.0,2352.0,2434.0,2115.0,-1.62,9.78,3.87,0.0,-0.01,-0.15,0.0,n
3857.0,2992.0,3234.0,3815.0,2739.0,2352.0,2436.0,2112.0,-1.51,9.85,3.7,0.04,0.03,-0.17,0.0,n
3872.0,2978.0,3235.0,3820.0,2743.0,2352.0,2447.0,2112.0,-1.59,9.74,3.66,0.0,-0.01,-0.17,0.0,n
3879.0,2992.0,3251.0,3812.0,2747.0,2351.0,2447.0,2115.0,-1.58,9.73,3.61,0.0,-0.01,-0.14,0.0,n
3888.0,2992.0,3253.0,3807.0,2752.0,2352.0,2437.0,2113.0,-1.53,9.75,3.83,0.02,-0.02,-0.16,0.0,n
3888.0,2990.0,3261.0,3798.0,2754.0,2354.0,2439.0,2114.0,-1.55,9.73,3.68,0.03,-0.01,-0.16,0.0,n
3890.0,2989.0,3255.0,3813.0,2738.0,2352.0,2437.0,2111.0,-1.64,9.7,3.79,-0.01,0.02,-0.14,0.0,n
3869.0,2989.0,3251.0,3810.0,2746.0,2353.0,2443.0,2111.0,-1.49,9.79,3.68,0.01,-0.0,-0.14,0.0,n
3888.0,2995.0,3248.0,3812.0,2752.0,2353.0,2445.0,2112.0,-1.62,9.76,3.72,0.01,-0.0,-0.16,0.0,n
3890.0,2986.0,3242.0,3823.0,2749.0,2357.0,2450.0,2122.0,-1.6,9.74,3.73,0.02,-0.01,-0.15,0.0,n
3882.0,2991.0,3266.0,3802.0,2730.0,2355.0,2448.0,2120.0,-1.63,9.73,3.75,0.02,-0.02,-0.16,0.0,n
3877.0,2990.0,3250.0,3810.0,2751.0,2363.0,2450.0,2125.0,-1.56,9.73,3.84,-0.0,-0.01,-0.15,0.0,n
3882.0,2997.0,3237.0,3811.0,2750.0,2362.0,2446.0,2123.0,-1.56,9.78,3.75,0.02,-0.01,-0.15,0.0,n
3878.0,2989.0,3253.0,3819.0,2749.0,2366.0,2448.0,2126.0,-1.5,9.75,3.74,0.02,-0.01,-0.16,0.0,n
3872.0,2986.0,3248.0,3821.0,2746.0,2353.0,2449.0,2123.0,-1.61,9.67,3.74,-0.0,-0.02,-0.17,0.0,n
3874.0,2992.0,3248.0,3822.0,2754.0,2362.0,2448.0,2129.0,-1.57,9.71,3.84,0.03,0.0,-0.14,0.0,n
3887.0,2987.0,3247.0,3785.0,2748.0,2355.0,2449.0,2130.0,-1.55,9.72,3.76,0.02,-0.01,-0.15,0.0,n
3872.0,2983.0,3241.0,3815.0,2740.0,2355.0,2452.0,2130.0,-1.69,9.71,3.73,0.02,0.03,-0.14,0.0,n
3884.0,3001.0,3248.0,3815.0,2755.0,2361.0,2448.0,2124.0,-1.42,9.77,3.64,-0.01,-0.01,-0.14,0.0,n
3865.0,2986.0,3259.0,3819.0,2750.0,2358.0,2448.0,2124.0,-1.53,9.72,3.84,0.04,0.0,-0.16,0.0,n
3873.0,2978.0,3255.0,3835.0,2747.0,2358.0,2451.0,2118.0,-1.55,9.79,3.6,0.0,0.0,-0.15,0.0,n
3875.0,2993.0,3239.0,3829.0,2756.0,2363.0,2456.0,2126.0,-1.42,9.78,3.89,-0.03,0.01,-0.15,0.0,n
3867.0,2977.0,3250.0,3814.0,2752.0,2354.0,2454.0,2124.0,-1.52,9.71,3.81,0.02,-0.01,-0.17,0.0,n
4095.0,3024.0,3151.0,3781.0,2711.0,2351.0,2535.0,2142.0,-1.66,9.65,3.65,-0.0,-0.02,-0.15,0.0,n
4095.0,3003.0,3131.0,3791.0,2705.0,2343.0,2533.0,2143.0,-1.71,9.78,3.48,0.03,-0.02,-0.17,0.0,n
4095.0,3005.0,3130.0,3791.0,2723.0,2336.0,2527.0,2139.0,-1.54,9.74,3.43,0.0,-0.12,-0.15,0.0,n
4095.0,3002.0,3139.0,3795.0,2716.0,2353.0,2531.0,2142.0,-1.88,9.64,3.58,0.01,-0.02,-0.19,0.0,n
4095.0,3008.0,3136.0,3817.0,2726.0,2345.0,2543.0,2141.0,-1.85,9.64,3.52,-0.02,0.0,-0.15,0.0,n
4095.0,3008.0,3143.0,3803.0,2724.0,2354.0,2538.0,2146.0,-1.7,9.71,3.52,0.0,0.01,-0.14,0.0,n
4095.0,3001.0,3138.0,3824.0,2721.0,2353.0,2531.0,2149.0,-1.79,9.66,3.59,0.06,-0.02,-0.14,0.0,n
4095.0,3008.0,3141.0,3813.0,2727.0,2350.0,2531.0,2142.0,-1.62,9.73,3.43,-0.09,0.05,-0.12,0.0,n
4095.0,3008.0,3136.0,3824.0,2722.0,2356.0,2527.0,2143.0,-1.71,9.7,3.6,-0.05,-0.05,-0.14,0.0,n
4095.0,3018.0,3136.0,3820.0,2739.0,2357.0,2534.0,2138.0,-1.64,9.65,3.55,0.03,-0.05,-0.16,0.0,n
4095.0,2999.0,3135.0,3809.0,2738.0,2357.0,2529.0,2147.0,-1.74,9.64,3.72,-0.01,0.06,-0.15,0.0,n
4095.0,3003.0,3130.0,3824.0,2739.0,2358.0,2532.0,2150.0,-1.7,9.68,3.47,0.0,0.02,-0.15,0.0,n
4095.0,3003.0,3137.0,3819.0,2737.0,2372.0,2530.0,2151.0,-1.79,9.64,3.69,-0.02,0.04,-0.15,0.0,n
4095.0,2994.0,3126.0,3819.0,2734.0,2355.0,2535.0,2149.0,-1.53,9.71,3.57,0.03,0.02,-0.17,0.0,n
4095.0,2992.0,3129.0,3823.0,2736.0,2357.0,2513.0,2149.0,-1.66,9.65,3.55,0.02,0.02,-0.17,0.0,n
4095.0,3003.0,3136.0,3841.0,2736.0,2356.0,2533.0,2147.0,-1.72,9.62,3.53,0.01,0.02,-0.13,0.0,n
4095.0,3001.0,3148.0,3835.0,2733.0,2359.0,2537.0,2159.0,-1.65,9.69,3.6,0.0,-0.01,-0.14,0.0,n
4095.0,3007.0,3135.0,3821.0,2737.0,2361.0,2539.0,2150.0,-1.64,9.72,3.49,0.01,0.01,-0.15,0.0,n
4095.0,3007.0,3126.0,3841.0,2711.0,2362.0,2531.0,2157.0,-1.7,9.73,3.55,0.01,0.02,-0.16,0.0,n
4095.0,3012.0,3125.0,3830.0,2736.0,2352.0,2541.0,2145.0,-1.62,9.72,3.41,0.04,0.03,-0.16,0.0,n
4095.0,3007.0,3136.0,3830.0,2736.0,2364.0,2544.0,2151.0,-1.65,9.67,3.55,0.0,-0.02,-0.16,0.0,n
4095.0,3022.0,3141.0,3851.0,2743.0,2361.0,2537.0,2155.0,-1.79,9.72,3.54,0.01,0.0,-0.15,0.0,n
4095.0,2992.0,3133.0,3839.0,2730.0,2359.0,2531.0,2142.0,-1.7,9.67,3.57,0.03,0.0,-0.16,0.0,n
4095.0,3010.0,3138.0,3830.0,2734.0,2359.0,2543.0,2150.0,-1.76,9.73,3.43,0.04,-0.02,-0.15,0.0,n
4095.0,3018.0,3130.0,3827.0,2735.0,2364.0,2544.0,2149.0,-1.72,9.68,3.52,0.02,-0.02,-0.15,0.0,n
4095.0,3006.0,3129.0,3834.0,2735.0,2366.0,2544.0,2160.0,-1.7,9.66,3.58,0.02,-0.04,-0.17,0.0,n
4095.0,2998.0,3135.0,3843.0,2737.0,2365.0,2543.0,2157.0,-1.82,9.67,3.57,0.03,-0.01,-0.14,0.0,n
4095.0,3013.0,3150.0,3853.0,2731.0,2368.0,2539.0,2138.0,-1.79,9.69,3.57,0.01,0.02,-0.16,0.0,n
4095.0,2999.0,3141.0,3856.0,2736.0,2378.0,2551.0,2149.0,-1.97,9.7,3.58,-0.01,0.02,-0.14,0.0,n
4095.0,2997.0,3131.0,3861.0,2737.0,2366.0,2539.0,2149.0,-1.68,9.64,3.73,-0.04,-0.03,-0.15,0.0,n
4095.0,2992.0,3146.0,3869.0,2751.0,2368.0,2540.0,2146.0,-1.63,9.66,3.6,0.04,-0.02,-0.13,0.0,n
4095.0,2995.0,3127.0,3862.0,2745.0,2361.0,2543.0,2153.0,-1.64,9.71,3.63,-0.01,-0.03,-0.13,0.0,n
4095.0,2996.0,3130.0,3863.0,2746.0,2369.0,2540.0,2157.0,-1.58,9.73,3.64,-0.01,-0.05,-0.15,0.0,n
4095.0,2999.0,3131.0,3888.0,2737.0,2355.0,2534.0,2159.0,-1.78,9.76,3.8,0.02,-0.06,-0.14,0.0,n
4095.0,2993.0,3139.0,3877.0,2745.0,2367.0,2496.0,2158.0,-1.75,9.75,3.64,0.03,-0.01,-0.17,0.0,n
4095.0,3007.0,3151.0,3882.0,2737.0,2370.0,2551.0,2160.0,-1.8,9.7,3.61,0.03,0.01,-0.14,0.0,n
4095.0,2998.0,3141.0,3883.0,2737.0,2359.0,2547.0,2134.0,-1.7,9.69,3.57,-0.01,0.0,-0.15,0.0,n
4095.0,3004.0,3127.0,3877.0,2727.0,2368.0,2539.0,2160.0,-1.56,9.71,3.74,0.05,-0.02,-0.13,0.0,n
4095.0,3003.0,3139.0,3903.0,2736.0,2367.0,2541.0,2157.0,-1.74,9.72,3.5,0.0,0.0,-0.16,0.0,n
4095.0,3002.0,3136.0,3890.0,2742.0,2363.0,2534.0,2158.0,-1.62,9.68,3.59,0.01,-0.0,-0.14,0.0,n
4095.0,3007.0,3136.0,3890.0,2719.0,2357.0,2543.0,2159.0,-1.74,9.72,3.71,0.03,-0.02,-0.16,0.0,n
3169.0,2979.0,3136.0,3485.0,2698.0,2234.0,2538.0,2156.0,-1.67,9.65,4.72,0.02,-0.04,-0.1,0.0,n
3153.0,2983.0,3136.0,3489.0,2704.0,2247.0,2542.0,2160.0,-1.4,9.82,4.96,0.04,-0.06,-0.09,0.0,n
3168.0,2979.0,3142.0,3500.0,2704.0,2245.0,2541.0,2160.0,-1.64,9.85,4.71,0.11,-0.01,-0.18,0.0,n
3151.0,2982.0,3142.0,3504.0,2704.0,2239.0,2546.0,2160.0,-1.65,9.68,4.74,0.05,-0.12,-0.15,0.0,n
3162.0,2992.0,3129.0,3511.0,2704.0,2249.0,2550.0,2160.0,-1.61,9.64,4.7,-0.01,-0.07,-0.14,0.0,n
3177.0,2990.0,3130.0,3515.0,2704.0,2240.0,2546.0,2166.0,-1.7,9.64,4.64,0.02,-0.06,-0.12,0.0,n
3173.0,2981.0,3138.0,3520.0,2706.0,2240.0,2550.0,2161.0,-1.51,9.74,4.63,-0.03,-0.06,-0.12,0.0,n
3165.0,2992.0,3134.0,3520.0,2706.0,2245.0,2545.0,2160.0,-1.57,9.67,4.76,0.08,-0.06,-0.15,0.0,n
3151.0,2983.0,3136.0,3515.0,2709.0,2242.0,2550.0,2161.0,-1.6,9.79,4.57,-0.01,-0.03,-0.15,0.0,n
3166.0,2989.0,3134.0,3529.0,2705.0,2246.0,2551.0,2161.0,-1.6,9.71,4.77,0.04,0.04,-0.12,0.0,n
3168.0,2986.0,3136.0,3523.0,2710.0,2253.0,2551.0,2170.0,-1.46,9.81,4.47,0.03,0.01,-0.16,0.0,n
3163.0,2983.0,3131.0,3534.0,2705.0,2255.0,2549.0,2161.0,-1.7,9.82,4.65,0.03,-0.04,-0.17,0.0,n
3161.0,2992.0,3129.0,3536.0,2709.0,2255.0,2555.0,2170.0,-1.59,9.73,4.55,0.03,-0.02,-0.15,0.0,n
3175.0,2992.0,3135.0,3536.0,2707.0,2251.0,2557.0,2163.0,-1.56,9.74,4.64,-0.0,-0.03,-0.15,0.0,n
3165.0,2983.0,3129.0,3541.0,2711.0,2249.0,2557.0,2162.0,-1.56,9.73,4.57,0.02,-0.02,-0.15,0.0,n
3157.0,2990.0,3138.0,3531.0,2719.0,2253.0,2559.0,2175.0,-1.55,9.67,4.78,0.01,-0.01,-0.15,0.0,n
3156.0,2987.0,3136.0,3546.0,2720.0,2261.0,2559.0,2169.0,-1.57,9.75,4.46,0.02,-0.02,-0.12,0.0,n
3158.0,2981.0,3133.0,3536.0,2718.0,2256.0,2559.0,2176.0,-1.38,9.7,4.46,-0.03,-0.0,-0.12,0.0,n
3161.0,2977.0,3125.0,3537.0,2721.0,2253.0,2555.0,2181.0,-1.49,9.7,4.75,-0.05,-0.05,-0.11,0.0,n
3179.0,2990.0,3130.0,3530.0,2723.0,2256.0,2558.0,2176.0,-1.53,9.81,4.71,0.01,-0.06,-0.12,0.0,n
3169.0,2983.0,3134.0,3541.0,2721.0,2253.0,2559.0,2175.0,-1.46,9.84,4.57,0.03,-0.03,-0.14,0.0,n
3163.0,2985.0,3131.0,3538.0,2717.0,2255.0,2559.0,2183.0,-1.47,9.73,4.78,-0.01,0.01,-0.13,0.0,n
3167.0,2989.0,3127.0,3538.0,2730.0,2255.0,2559.0,2181.0,-1.38,9.76,4.65,-0.0,0.01,-0.11,0.0,n
3166.0,2988.0,3127.0,3539.0,2721.0,2257.0,2559.0,2190.0,-1.37,9.73,4.83,0.0,0.03,-0.13,0.0,n
3163.0,2986.0,3138.0,3550.0,2720.0,2254.0,2559.0,2185.0,-1.35,9.75,4.71,0.01,-0.02,-0.15,0.0,n
3157.0,2989.0,3135.0,3543.0,2727.0,2256.0,2559.0,2185.0,-1.43,9.73,4.57,0.02,-0.03,-0.14,0.0,n
3164.0,2997.0,3132.0,3546.0,2724.0,2259.0,2559.0,2185.0,-1.37,9.88,4.7,-0.02,-0.01,-0.13,0.0,n
3152.0,2987.0,3127.0,3542.0,2722.0,2255.0,2559.0,2189.0,-1.3,9.77,4.75,-0.02,-0.03,-0.15,0.0,n
3165.0,2976.0,3136.0,3539.0,2734.0,2254.0,2559.0,2190.0,-1.3,9.77,4.76,0.01,-0.01,-0.14,0.0,n
3166.0,2992.0,3141.0,3553.0,2731.0,2259.0,2559.0,2192.0,-1.31,9.86,4.67,0.02,-0.02,-0.14,0.0,n
3163.0,2982.0,3133.0,3536.0,2731.0,2261.0,2559.0,2186.0,-1.2,9.76,4.63,0.04,-0.03,-0.16,0.0,n
3153.0,2989.0,3141.0,3553.0,2733.0,2259.0,2559.0,2192.0,-1.46,9.74,4.73,-0.0,0.02,-0.18,0.0,n
3167.0,2988.0,3139.0,3539.0,2733.0,2257.0,2559.0,2192.0,-1.38,9.77,4.65,0.07,0.03,-0.16,0.0,n
3171.0,2978.0,3131.0,3537.0,2739.0,2259.0,2582.0,2193.0,-1.35,9.76,4.46,0.01,-0.03,-0.17,0.0,n
3173.0,2983.0,3124.0,3547.0,2736.0,2259.0,2583.0,2202.0,-1.43,9.71,4.79,0.01,-0.04,-0.14,0.0,n
3167.0,2981.0,3145.0,3551.0,2737.0,2266.0,2559.0,2198.0,-1.43,9.8,4.73,0.0,-0.01,-0.15,0.0,n
3166.0,2999.0,3127.0,3554.0,2741.0,2261.0,2579.0,2205.0,-1.36,9.71,4.74,0.03,0.03,-0.16,0.0,n
3168.0,2986.0,3127.0,3547.0,2740.0,2259.0,2582.0,2202.0,-1.36,9.74,4.6,-0.0,-0.0,-0.15,0.0,n
3167.0,2995.0,3131.0,3561.0,2742.0,2271.0,2581.0,2199.0,-1.38,9.67,4.84,0.01,-0.01,-0.15,0.0,n
3165.0,2981.0,3129.0,3566.0,2739.0,2263.0,2586.0,2203.0,-1.43,9.75,4.74,0.02,0.0,-0.16,0.0,n
3167.0,2995.0,3135.0,3564.0,2748.0,2272.0,2588.0,2209.0,-1.43,9.76,4.64,0.03,-0.0,-0.13,0.0,n
4095.0,2960.0,3160.0,3961.0,2713.0,2319.0,2430.0,1985.0,-1.76,9.7,4.49,0.02,0.02,-0.16,0.0,n
4095.0,2962.0,3168.0,3956.0,2713.0,2322.0,2428.0,1988.0,-1.73,9.64,4.48,0.02,0.0,-0.15,0.0,n
4095.0,2961.0,3161.0,3962.0,2713.0,2331.0,2432.0,1986.0,-1.71,9.66,4.36,0.02,0.02,-0.15,0.0,n
4095.0,2961.0,3171.0,3969.0,2719.0,2322.0,2442.0,1990.0,-1.7,9.68,4.41,0.01,-0.02,-0.14,0.0,n
4095.0,2973.0,3178.0,3971.0,2729.0,2331.0,2431.0,1999.0,-1.79,9.65,4.44,0.01,-0.01,-0.16,0.0,n
4095.0,2961.0,3171.0,3964.0,2724.0,2329.0,2438.0,1991.0,-1.64,9.67,4.35,0.02,-0.01,-0.14,0.0,n
4095.0,2960.0,3169.0,3968.0,2730.0,2330.0,2433.0,1999.0,-1.75,9.71,4.34,-0.0,0.01,-0.16,0.0,n
4095.0,2960.0,3175.0,3943.0,2725.0,2331.0,2434.0,2000.0,-1.68,9.75,4.35,0.02,-0.01,-0.14,0.0,n
4095.0,2960.0,3158.0,3977.0,2727.0,2332.0,2438.0,1997.0,-1.71,9.77,4.32,-0.03,-0.02,-0.14,0.0,n
4095.0,2967.0,3158.0,3969.0,2726.0,2332.0,2436.0,2000.0,-1.69,9.73,4.33,-0.01,0.01,-0.15,0.0,n
4095.0,2962.0,3164.0,3966.0,2730.0,2333.0,2446.0,2000.0,-1.74,9.73,4.37,0.0,-0.02,-0.15,0.0,n
4095.0,2959.0,3154.0,3967.0,2728.0,2338.0,2445.0,2002.0,-1.63,9.69,4.47,-0.01,-0.01,-0.16,0.0,n
4095.0,2963.0,3170.0,3983.0,2734.0,2337.0,2448.0,2006.0,-1.77,9.72,4.3,0.01,0.01,-0.17,0.0,n
4095.0,2966.0,3166.0,3977.0,2727.0,2342.0,2447.0,2004.0,-1.99,9.69,4.47,0.01,0.03,-0.15,0.0,n
4095.0,2955.0,3162.0,3972.0,2731.0,2336.0,2444.0,2005.0,-1.78,9.79,4.32,-0.01,0.02,-0.16,0.0,n
4095.0,2960.0,3163.0,3983.0,2736.0,2337.0,2443.0,2007.0,-1.63,9.8,4.38,0.0,0.0,-0.16,0.0,n
4095.0,2963.0,3167.0,3978.0,2722.0,2339.0,2448.0,2003.0,-1.82,9.71,4.47,0.01,0.0,-0.16,0.0,n
4095.0,2971.0,3166.0,3984.0,2705.0,2339.0,2448.0,2010.0,-1.91,9.74,4.29,-0.02,0.01,-0.16,0.0,n
4095.0,2960.0,3152.0,3969.0,2717.0,2348.0,2448.0,2014.0,-1.74,9.73,4.4,-0.03,-0.02,-0.14,0.0,n
4095.0,2960.0,3159.0,3984.0,2719.0,2352.0,2450.0,2007.0,-1.71,9.67,4.31,-0.03,-0.08,-0.18,0.0,n
4095.0,2953.0,3155.0,3979.0,2727.0,2347.0,2453.0,2003.0,-1.87,9.69,4.64,0.03,-0.04,-0.14,0.0,n
4095.0,2959.0,3158.0,3990.0,2726.0,2343.0,2455.0,2011.0,-1.77,9.66,4.47,-0.01,-0.02,-0.15,0.0,n
4095.0,2958.0,3161.0,3987.0,2727.0,2346.0,2451.0,2016.0,-1.77,9.7,4.42,0.06,-0.03,-0.13,0.0,n
4095.0,2954.0,3162.0,3965.0,2735.0,2347.0,2458.0,2015.0,-1.89,9.7,4.46,-0.07,-0.01,-0.15,0.0,n
4095.0,2966.0,3158.0,3986.0,2735.0,2351.0,2455.0,2016.0,-1.71,9.72,4.66,0.02,0.03,-0.12,0.0,n
4095.0,2953.0,3165.0,3968.0,2739.0,2349.0,2465.0,2015.0,-1.87,9.69,4.47,0.03,0.02,-0.16,0.0,n
4095.0,2965.0,3171.0,3984.0,2741.0,2351.0,2455.0,2020.0,-1.77,9.63,4.43,0.02,0.01,-0.15,0.0,n
4095.0,2979.0,3165.0,3970.0,2742.0,2351.0,2455.0,2016.0,-1.69,9.64,4.56,0.02,-0.01,-0.16,0.0,n
4095.0,2961.0,3161.0,3994.0,2739.0,2350.0,2461.0,2017.0,-1.77,9.69,4.52,0.01,0.0,-0.15,0.0,n
4095.0,2960.0,3167.0,3970.0,2739.0,2352.0,2463.0,2015.0,-1.71,9.67,4.57,0.0,0.02,-0.15,0.0,n
4095.0,2969.0,3171.0,3975.0,2736.0,2349.0,2470.0,2015.0,-1.83,9.79,4.47,-0.0,0.01,-0.16,0.0,n
4095.0,2962.0,3155.0,3986.0,2740.0,2352.0,2469.0,2017.0,-1.83,9.77,4.48,-0.01,0.02,-0.2,0.0,n
4095.0,2965.0,3167.0,3995.0,2743.0,2356.0,2470.0,2018.0,-1.96,9.48,4.67,-0.01,0.01,-0.21,0.0,n
4095.0,2959.0,3163.0,3994.0,2743.0,2353.0,2471.0,2025.0,-2.0,9.73,4.74,-0.03,0.09,-0.14,0.0,n
4095.0,2971.0,3152.0,3982.0,2739.0,2354.0,2474.0,2021.0,-1.76,9.66,4.47,0.0,0.08,-0.19,0.0,n
4095.0,2978.0,3152.0,3988.0,2743.0,2354.0,2473.0,2027.0,-1.91,9.68,4.46,0.02,-0.0,-0.17,0.0,n
4095.0,2969.0,3152.0,3982.0,2742.0,2353.0,2474.0,2030.0,-2.11,9.69,4.73,0.04,-0.0,-0.17,0.0,n
4095.0,2958.0,3159.0,3989.0,2750.0,2358.0,2479.0,2029.0,-1.97,9.74,4.47,0.06,-0.04,-0.18,0.0,n
4095.0,2960.0,3166.0,3983.0,2754.0,2352.0,2475.0,2032.0,-2.03,9.62,4.46,0.08,-0.06,-0.13,0.0,n
4095.0,2960.0,3162.0,4016.0,2736.0,2357.0,2474.0,2028.0,-2.02,9.73,4.75,0.01,-0.05,-0.16,0.0,n
4095.0,2965.0,3154.0,4019.0,2738.0,2361.0,2476.0,2027.0,-1.96,9.7,4.38,0.03,-0.01,-0.14,0.0,n
4095.0,2987.0,3650.0,3799.0,2717.0,2340.0,2623.0,2182.0,-2.05,9.67,4.11,-0.02,-0.0,-0.12,0.0,n
4095.0,2970.0,3657.0,3794.0,2716.0,2345.0,2619.0,2178.0,-1.92,9.71,4.17,-0.03,0.0,-0.13,0.0,n
4095.0,2978.0,3651.0,3786.0,2718.0,2346.0,2618.0,2183.0,-1.97,9.62,4.13,-0.01,-0.01,-0.14,0.0,n
4095.0,2978.0,3642.0,3791.0,2725.0,2347.0,2613.0,2187.0,-2.1,9.69,4.28,-0.01,0.01,-0.1,0.0,n
4095.0,2965.0,3632.0,3794.0,2725.0,2352.0,2615.0,2182.0,-1.91,9.79,4.33,0.0,0.0,-0.14,0.0,n
4095.0,2975.0,3646.0,3795.0,2723.0,2350.0,2615.0,2183.0,-1.83,9.73,4.26,0.04,-0.03,-0.15,0.0,n
4095.0,2970.0,3655.0,3806.0,2716.0,2351.0,2618.0,2185.0,-1.97,9.62,4.18,0.01,-0.02,-0.16,0.0,n
4095.0,2973.0,3657.0,3807.0,2727.0,2351.0,2624.0,2185.0,-2.0,9.67,4.23,0.02,-0.02,-0.14,0.0,n
4095.0,2982.0,3655.0,3798.0,2727.0,2351.0,2626.0,2192.0,-2.0,9.79,4.18,0.03,-0.02,-0.15,0.0,n
4095.0,2963.0,3650.0,3797.0,2731.0,2354.0,2618.0,2191.0,-1.92,9.68,4.2,0.03,-0.02,-0.16,0.0,n
4095.0,2978.0,3662.0,3802.0,2731.0,2354.0,2623.0,2191.0,-1.99,9.68,4.21,0.01,-0.01,-0.16,0.0,n
4095.0,2976.0,3660.0,3795.0,2732.0,2353.0,2619.0,2192.0,-1.92,9.63,4.31,0.04,0.01,-0.15,0.0,n
4095.0,2978.0,3658.0,3797.0,2731.0,2353.0,2627.0,2194.0,-1.9,9.7,4.19,0.03,0.01,-0.14,0.0,n
4095.0,2978.0,3643.0,3803.0,2729.0,2357.0,2624.0,2195.0,-1.93,9.64,4.3,0.01,-0.01,-0.13,0.0,n
4095.0,2981.0,3649.0,3810.0,2735.0,2353.0,2626.0,2195.0,-1.77,9.67,4.16,0.01,-0.01,-0.16,0.0,n
4095.0,2967.0,3662.0,3809.0,2733.0,2361.0,2624.0,2197.0,-1.89,9.67,4.18,0.01,-0.01,-0.15,0.0,n
4095.0,2973.0,3645.0,3815.0,2736.0,2355.0,2635.0,2199.0,-1.82,9.69,4.08,-0.01,-0.02,-0.14,0.0,n
4095.0,2969.0,3651.0,3799.0,2736.0,2364.0,2630.0,2198.0,-1.99,9.78,4.14,-0.01,-0.03,-0.15,0.0,n
4095.0,2969.0,3649.0,3806.0,2737.0,2355.0,2627.0,2196.0,-1.96,9.75,4.1,0.01,-0.02,-0.15,0.0,n
4095.0,2981.0,3648.0,3811.0,2734.0,2357.0,2629.0,2197.0,-1.96,9.7,4.18,0.02,-0.02,-0.15,0.0,n
4095.0,2966.0,3656.0,3814.0,2733.0,2365.0,2631.0,2197.0,-1.92,9.69,4.28,0.04,-0.0,-0.16,0.0,n
4095.0,2992.0,3651.0,3809.0,2736.0,2358.0,2639.0,2205.0,-2.0,9.65,4.17,0.02,-0.01,-0.17,0.0,n
4095.0,2967.0,3639.0,3810.0,2735.0,2367.0,2630.0,2207.0,-1.92,9.73,4.06,0.01,-0.03,-0.15,0.0,n
4095.0,2967.0,3641.0,3815.0,2737.0,2366.0,2626.0,2201.0,-1.89,9.63,4.37,0.01,-0.01,-0.15,0.0,n
4095.0,2966.0,3646.0,3790.0,2742.0,2368.0,2626.0,2199.0,-1.98,9.64,4.34,0.03,0.02,-0.15,0.0,n
4095.0,2978.0,3638.0,3792.0,2734.0,2363.0,2631.0,2202.0,-1.83,9.62,4.25,0.01,0.02,-0.16,0.0,n
4095.0,2971.0,3638.0,3824.0,2733.0,2366.0,2624.0,2207.0,-1.91,9.61,4.14,0.03,-0.0,-0.18,0.0,n
4095.0,2965.0,3633.0,3824.0,2736.0,2366.0,2625.0,2204.0,-1.95,9.63,4.3,0.0,0.01,-0.16,0.0,n
4095.0,2967.0,3635.0,3842.0,2739.0,2368.0,2629.0,2206.0,-1.87,9.64,4.18,0.01,0.01,-0.15,0.0,n
4095.0,2963.0,3642.0,3839.0,2742.0,2371.0,2629.0,2209.0,-1.96,9.68,4.19,0.02,0.0,-0.16,0.0,n
4095.0,2976.0,3634.0,3843.0,2740.0,2372.0,2637.0,2209.0,-2.02,9.56,4.25,-0.0,-0.0,-0.15,0.0,n
4095.0,2978.0,3650.0,3837.0,2747.0,2369.0,2630.0,2207.0,-1.92,9.67,4.22,0.01,-0.0,-0.13,0.0,n
4095.0,2974.0,3658.0,3839.0,2743.0,2369.0,2630.0,2202.0,-1.94,9.66,4.18,0.01,0.02,-0.16,0.0,n
4095.0,2967.0,3634.0,3846.0,2752.0,2373.0,2629.0,2215.0,-2.05,9.69,4.12,0.01,0.0,-0.15,0.0,n
4095.0,2963.0,3630.0,3841.0,2747.0,2371.0,2630.0,2210.0,-1.78,9.62,4.19,-0.02,0.0,-0.16,0.0,n
4095.0,2967.0,3648.0,3856.0,2749.0,2370.0,2629.0,2208.0,-2.12,9.57,4.07,0.03,-0.04,-0.16,0.0,n
4095.0,2970.0,3646.0,3856.0,2749.0,2371.0,2631.0,2208.0,-1.91,9.63,4.39,0.02,0.01,-0.15,0.0,n
4095.0,2965.0,3637.0,3856.0,2740.0,2370.0,2633.0,2210.0,-2.08,9.7,4.25,0.02,0.0,-0.16,0.0,n
4095.0,2964.0,3637.0,3848.0,2747.0,2381.0,2637.0,2211.0,-1.8,9.65,4.23,0.0,0.06,-0.14,0.0,n
4095.0,2978.0,3647.0,3839.0,2751.0,2379.0,2631.0,2218.0,-1.99,9.58,4.36,-0.0,0.01,-0.15,0.0,n
4095.0,2970.0,3649.0,3839.0,2753.0,2371.0,2631.0,2217.0,-1.89,9.67,4.32,0.01,0.02,-0.14,0.0,n
993.0,2975.0,3219.0,3769.0,2537.0,2304.0,2469.0,2061.0,-0.88,9.78,4.64,0.0,0.0,-0.13,0.0,n
999.0,2960.0,3231.0,3773.0,2543.0,2302.0,2478.0,2064.0,-0.61,9.85,4.55,0.0,-0.02,-0.14,0.0,n
997.0,2958.0,3226.0,3789.0,2535.0,2299.0,2480.0,2064.0,-0.88,9.83,4.53,0.01,0.02,-0.18,0.0,n
993.0,2963.0,3232.0,3760.0,2544.0,2302.0,2480.0,2071.0,-0.88,9.85,4.43,0.03,-0.01,-0.14,0.0,n
1002.0,2960.0,3221.0,3760.0,2535.0,2298.0,2480.0,2070.0,-0.78,9.94,4.45,0.05,0.01,-0.14,0.0,n
995.0,2959.0,3219.0,3767.0,2546.0,2295.0,2479.0,2064.0,-0.81,9.84,4.63,0.04,-0.02,-0.17,0.0,n
1006.0,2962.0,3214.0,3775.0,2544.0,2303.0,2491.0,2081.0,-0.62,9.93,4.48,0.04,-0.01,-0.17,0.0,n
994.0,2966.0,3229.0,3771.0,2544.0,2304.0,2485.0,2081.0,-0.53,9.83,4.67,-0.03,0.04,-0.18,0.0,n
983.0,2967.0,3218.0,3776.0,2547.0,2309.0,2486.0,2081.0,-0.92,9.75,4.38,0.05,-0.02,-0.15,0.0,n
991.0,2954.0,3216.0,3777.0,2547.0,2304.0,2487.0,2086.0,-0.9,9.84,4.21,0.01,-0.01,-0.13,0.0,n
996.0,2960.0,3221.0,3777.0,2541.0,2309.0,2510.0,2084.0,-0.77,9.98,4.48,-0.04,0.02,-0.12,0.0,n
994.0,2967.0,3227.0,3791.0,2549.0,2315.0,2493.0,2091.0,-1.0,9.6,4.51,-0.06,0.07,-0.17,0.0,n
1001.0,2966.0,3235.0,3783.0,2553.0,2318.0,2494.0,2092.0,-0.69,9.79,4.42,-0.02,-0.02,-0.12,0.0,n
1003.0,2960.0,3241.0,3781.0,2547.0,2314.0,2496.0,2095.0,-0.82,9.95,4.33,-0.0,-0.0,-0.13,0.0,n
989.0,2962.0,3235.0,3791.0,2551.0,2315.0,2491.0,2092.0,-0.67,9.84,4.56,0.01,0.02,-0.14,0.0,n
983.0,2957.0,3223.0,3791.0,2554.0,2320.0,2496.0,2096.0,-0.75,9.78,4.34,-0.02,0.01,-0.13,0.0,n
995.0,2955.0,3221.0,3794.0,2557.0,2316.0,2503.0,2100.0,-0.63,9.89,4.39,-0.01,0.04,-0.12,0.0,n
995.0,2947.0,3223.0,3783.0,2557.0,2319.0,2496.0,2096.0,-0.7,9.79,4.46,0.01,-0.01,-0.14,0.0,n
987.0,2954.0,3227.0,3782.0,2555.0,2315.0,2495.0,2101.0,-0.74,9.83,4.44,0.01,0.01,-0.15,0.0,n
995.0,2960.0,3213.0,3778.0,2553.0,2316.0,2499.0,2099.0,-0.94,9.77,4.44,0.06,-0.03,-0.14,0.0,n
989.0,2975.0,3219.0,3799.0,2559.0,2315.0,2495.0,2099.0,-0.7,9.9,4.42,-0.02,-0.02,-0.1,0.0,n
989.0,2961.0,3221.0,3793.0,2559.0,2329.0,2502.0,2107.0,-0.6,9.86,4.56,-0.02,-0.03,-0.11,0.0,n
979.0,2961.0,3230.0,3789.0,2550.0,2320.0,2497.0,2109.0,-0.52,9.94,4.37,0.01,0.01,-0.1,0.0,n
991.0,2962.0,3217.0,3802.0,2554.0,2317.0,2499.0,2096.0,-0.53,9.89,4.41,0.02,-0.03,-0.15,0.0,n
1006.0,2964.0,3232.0,3843.0,2559.0,2322.0,2506.0,2112.0,-0.64,9.86,4.5,-0.03,-0.01,-0.15,0.0,n
1002.0,2954.0,3226.0,3792.0,2555.0,2321.0,2509.0,2102.0,-0.6,9.89,4.44,0.04,-0.03,-0.14,0.0,n
978.0,2971.0,3215.0,3792.0,2546.0,2320.0,2505.0,2107.0,-0.7,9.85,4.54,0.02,-0.02,-0.14,0.0,n
983.0,2960.0,3216.0,3792.0,2556.0,2321.0,2507.0,2112.0,-0.48,9.94,4.51,0.05,-0.02,-0.17,0.0,n
1003.0,2962.0,3231.0,3795.0,2550.0,2321.0,2510.0,2113.0,-0.79,9.82,4.42,0.05,-0.01,-0.19,0.0,n
1001.0,2965.0,3239.0,3797.0,2559.0,2322.0,2507.0,2113.0,-0.68,9.79,4.44,0.01,0.0,-0.15,0.0,n
1002.0,2965.0,3219.0,3791.0,2558.0,2321.0,2513.0,2111.0,-0.61,9.86,4.54,0.01,0.02,-0.15,0.0,n
1002.0,2960.0,3228.0,3776.0,2557.0,2326.0,2513.0,2113.0,-0.65,9.91,4.24,0.03,0.01,-0.14,0.0,n
989.0,2962.0,3224.0,3789.0,2558.0,2320.0,2511.0,2117.0,-0.54,9.8,4.6,-0.03,0.02,-0.14,0.0,n
1004.0,2971.0,3217.0,3779.0,2559.0,2324.0,2509.0,2112.0,-0.49,9.86,4.55,0.04,0.01,-0.17,0.0,n
993.0,2960.0,3215.0,3790.0,2559.0,2330.0,2513.0,2114.0,-0.68,9.92,4.23,-0.01,0.0,-0.14,0.0,n
992.0,2965.0,3230.0,3794.0,2559.0,2320.0,2511.0,2112.0,-0.6,9.82,4.57,-0.04,-0.06,-0.15,0.0,n
1005.0,2964.0,3216.0,3809.0,2559.0,2320.0,2511.0,2112.0,-0.55,9.84,4.51,0.03,0.01,-0.17,0.0,n
990.0,2963.0,3225.0,3815.0,2559.0,2334.0,2512.0,2111.0,-0.62,9.89,4.22,0.01,-0.02,-0.15,0.0,n
996.0,2967.0,3229.0,3824.0,2559.0,2329.0,2512.0,2111.0,-0.67,9.87,4.58,0.01,0.01,-0.13,0.0,n
988.0,2963.0,3233.0,3826.0,2559.0,2321.0,2512.0,2112.0,-0.56,9.89,4.48,0.02,-0.0,-0.16,0.0,n
991.0,2959.0,3228.0,3826.0,2559.0,2329.0,2508.0,2118.0,-0.71,9.93,4.22,0.0,-0.0,-0.15,0.0,n
1344.0,2972.0,3938.0,4095.0,2579.0,2289.0,2543.0,2155.0,-0.52,9.83,4.3,0.01,-0.03,-0.16,0.0,n
1329.0,2963.0,3931.0,4095.0,2559.0,2289.0,2543.0,2157.0,-0.62,9.92,4.17,0.0,-0.01,-0.16,0.0,n
1331.0,2964.0,3931.0,4095.0,2585.0,2294.0,2543.0,2154.0,-0.51,9.82,4.32,-0.01,-0.01,-0.13,0.0,n
1327.0,2966.0,3933.0,4095.0,2559.0,2289.0,2544.0,2155.0,-0.56,9.87,4.42,0.02,0.01,-0.16,0.0,n
1332.0,2978.0,3908.0,4095.0,2579.0,2297.0,2551.0,2167.0,-0.64,9.9,4.21,0.01,0.03,-0.15,0.0,n
1332.0,2966.0,3903.0,4095.0,2582.0,2299.0,2549.0,2161.0,-0.62,9.81,4.53,0.01,0.01,-0.15,0.0,n
1328.0,2969.0,3918.0,4095.0,2590.0,2297.0,2552.0,2160.0,-0.68,9.77,4.41,0.02,0.03,-0.16,0.0,n
1339.0,2972.0,3926.0,4095.0,2589.0,2303.0,2551.0,2160.0,-0.59,9.96,4.19,-0.01,0.01,-0.16,0.0,n
1345.0,2961.0,3932.0,4095.0,2588.0,2301.0,2555.0,2158.0,-0.53,9.91,4.49,0.01,-0.01,-0.15,0.0,n
1348.0,2973.0,3920.0,4095.0,2592.0,2307.0,2551.0,2156.0,-0.67,9.83,4.36,0.05,0.0,-0.19,0.0,n
1343.0,2954.0,3921.0,4095.0,2592.0,2304.0,2550.0,2162.0,-0.58,9.85,4.21,-0.02,0.0,-0.15,0.0,n
1356.0,2965.0,3922.0,4095.0,2597.0,2298.0,2549.0,2161.0,-0.56,9.85,4.36,0.0,0.02,-0.14,0.0,n
1344.0,2973.0,3920.0,4095.0,2599.0,2305.0,2557.0,2169.0,-0.59,9.79,4.37,0.02,0.02,-0.14,0.0,n
1357.0,2963.0,3923.0,4095.0,2594.0,2310.0,2559.0,2167.0,-0.7,9.8,4.45,0.01,0.02,-0.15,0.0,n
1346.0,2974.0,3910.0,4095.0,2597.0,2304.0,2559.0,2165.0,-0.81,9.95,4.4,0.03,0.03,-0.13,0.0,n
1358.0,2967.0,3938.0,4095.0,2591.0,2305.0,2559.0,2157.0,-0.47,9.82,4.25,0.03,0.04,-0.15,0.0,n
1357.0,2955.0,3935.0,4095.0,2599.0,2306.0,2557.0,2155.0,-0.69,9.92,4.38,0.03,0.01,-0.17,0.0,n
1351.0,2961.0,3930.0,4095.0,2599.0,2307.0,2559.0,2153.0,-0.65,9.89,4.4,0.02,0.03,-0.15,0.0,n
1343.0,2972.0,3918.0,4095.0,2595.0,2311.0,2559.0,2157.0,-0.48,9.81,4.38,0.03,0.03,-0.14,0.0,n
1351.0,2957.0,3919.0,4095.0,2599.0,2315.0,2559.0,2160.0,-0.43,9.91,4.21,0.0,0.01,-0.16,0.0,n
1361.0,2963.0,3911.0,4095.0,2602.0,2313.0,2557.0,2159.0,-0.61,9.91,4.3,0.02,-0.01,-0.17,0.0,n
1361.0,2966.0,3936.0,4095.0,2606.0,2313.0,2559.0,2160.0,-0.63,9.84,4.22,0.03,-0.01,-0.16,0.0,n
1358.0,2965.0,3922.0,4095.0,2603.0,2307.0,2559.0,2159.0,-0.59,9.85,4.42,-0.0,-0.03,-0.16,0.0,n
1360.0,2970.0,3933.0,4095.0,2601.0,2320.0,2559.0,2165.0,-0.56,9.88,4.42,0.01,-0.01,-0.15,0.0,n
1362.0,2960.0,3920.0,4095.0,2608.0,2320.0,2559.0,2167.0,-0.71,9.88,4.41,0.02,-0.0,-0.15,0.0,n
1360.0,2960.0,3917.0,4095.0,2605.0,2311.0,2559.0,2162.0,-0.6,9.82,4.28,-0.0,-0.02,-0.16,0.0,n
1356.0,2963.0,3934.0,4095.0,2605.0,2312.0,2581.0,2162.0,-0.54,9.84,4.43,0.03,-0.01,-0.15,0.0,n
1374.0,2960.0,3927.0,4095.0,2601.0,2311.0,2559.0,2165.0,-0.51,9.89,4.27,-0.01,-0.03,-0.13,0.0,n
1357.0,2963.0,3920.0,4095.0,2597.0,2319.0,2559.0,2167.0,-0.58,9.87,4.49,0.01,-0.03,-0.14,0.0,n
1359.0,2958.0,3899.0,4095.0,2601.0,2315.0,2559.0,2165.0,-0.68,9.87,4.55,0.01,0.03,-0.15,0.0,n
1367.0,2972.0,3909.0,4095.0,2603.0,2317.0,2559.0,2167.0,-0.56,9.92,4.27,0.02,-0.01,-0.17,0.0,n
1370.0,2961.0,3920.0,4095.0,2595.0,2320.0,2559.0,2167.0,-0.52,9.89,4.42,0.01,-0.04,-0.15,0.0,n
1371.0,2964.0,3911.0,4095.0,2606.0,2320.0,2585.0,2174.0,-0.58,9.95,4.26,0.04,-0.01,-0.17,0.0,n
1360.0,2962.0,3913.0,4095.0,2607.0,2321.0,2581.0,2175.0,-0.59,9.79,4.45,0.0,-0.02,-0.16,0.0,n
1362.0,2961.0,3908.0,4095.0,2603.0,2318.0,2583.0,2173.0,-0.56,9.86,4.5,-0.01,-0.02,-0.13,0.0,n
1356.0,2951.0,3904.0,4095.0,2604.0,2321.0,2559.0,2176.0,-0.51,9.88,4.41,0.02,-0.01,-0.14,0.0,n
1369.0,2962.0,3922.0,4095.0,2604.0,2324.0,2586.0,2174.0,-0.48,9.84,4.46,0.04,-0.02,-0.17,0.0,n
1363.0,2974.0,3930.0,4095.0,2605.0,2323.0,2559.0,2177.0,-0.65,9.87,4.36,-0.0,0.01,-0.15,0.0,n
1359.0,2959.0,3921.0,4095.0,2606.0,2326.0,2586.0,2180.0,-0.53,9.89,4.42,0.03,0.01,-0.15,0.0,n
1361.0,2965.0,3898.0,4095.0,2605.0,2321.0,2585.0,2179.0,-0.61,9.9,4.36,0.02,-0.01,-0.16,0.0,n
1374.0,2963.0,3912.0,4095.0,2605.0,2322.0,2586.0,2186.0,-0.52,9.77,4.5,-0.01,0.0,-0.16,0.0,n
4080.0,2960.0,3761.0,3839.0,2609.0,2318.0,2480.0,2077.0,-1.05,9.89,4.23,0.02,0.01,-0.15,0.0,n
4095.0,2961.0,3775.0,3834.0,2609.0,2320.0,2482.0,2074.0,-1.14,9.85,4.07,0.02,0.0,-0.14,0.0,n
4085.0,2974.0,3759.0,3849.0,2613.0,2319.0,2485.0,2076.0,-1.15,9.79,4.19,-0.0,0.01,-0.13,0.0,n
4094.0,2965.0,3773.0,3842.0,2614.0,2320.0,2491.0,2078.0,-1.02,9.85,4.3,0.01,0.0,-0.15,0.0,n
4095.0,2960.0,3775.0,3839.0,2611.0,2319.0,2482.0,2083.0,-1.13,9.8,4.26,0.04,0.02,-0.18,0.0,n
4082.0,2975.0,3764.0,3844.0,2619.0,2324.0,2487.0,2082.0,-1.08,9.76,4.12,-0.01,0.0,-0.13,0.0,n
4095.0,2964.0,3777.0,3847.0,2624.0,2323.0,2486.0,2080.0,-1.11,9.87,4.29,0.01,0.01,-0.14,0.0,n
4069.0,2960.0,3767.0,3851.0,2621.0,2323.0,2485.0,2082.0,-1.17,9.84,4.26,0.05,0.01,-0.16,0.0,n
4094.0,2957.0,3776.0,3841.0,2618.0,2322.0,2493.0,2085.0,-0.96,9.83,4.03,-0.04,-0.0,-0.16,0.0,n
4095.0,2960.0,3780.0,3839.0,2620.0,2323.0,2493.0,2087.0,-1.21,9.88,4.38,0.02,0.01,-0.13,0.0,n
4087.0,2970.0,3770.0,3853.0,2619.0,2326.0,2495.0,2089.0,-1.2,9.84,4.3,0.02,0.02,-0.18,0.0,n
4079.0,2957.0,3784.0,3838.0,2629.0,2325.0,2494.0,2096.0,-1.15,9.8,4.18,0.01,-0.0,-0.13,0.0,n
4081.0,2962.0,3761.0,3849.0,2624.0,2321.0,2497.0,2094.0,-1.04,9.93,4.18,0.0,-0.0,-0.13,0.0,n
4095.0,2973.0,3769.0,3845.0,2626.0,2326.0,2497.0,2097.0,-0.99,9.79,4.45,-0.01,0.06,-0.17,0.0,n
4080.0,2960.0,3761.0,3851.0,2626.0,2326.0,2503.0,2096.0,-0.94,9.78,4.24,0.03,0.03,-0.16,0.0,n
4095.0,2960.0,3782.0,3857.0,2631.0,2334.0,2501.0,2103.0,-1.1,9.81,4.09,0.02,0.02,-0.15,0.0,n
4095.0,2958.0,3787.0,3856.0,2633.0,2334.0,2501.0,2098.0,-1.3,9.88,4.13,0.07,-0.08,-0.14,0.0,n
4075.0,2958.0,3796.0,3852.0,2630.0,2336.0,2496.0,2108.0,-0.97,9.82,4.28,0.01,0.05,-0.15,0.0,n
4080.0,2960.0,3798.0,3839.0,2635.0,2333.0,2497.0,2114.0,-1.17,9.79,4.37,0.02,0.05,-0.16,0.0,n
4095.0,2961.0,3775.0,3855.0,2631.0,2333.0,2497.0,2118.0,-0.99,9.81,4.12,0.01,-0.01,-0.14,0.0,n
4095.0,2963.0,3779.0,3853.0,2628.0,2335.0,2502.0,2118.0,-0.99,9.87,4.24,0.01,-0.03,-0.15,0.0,n
4095.0,2967.0,3791.0,3865.0,2638.0,2336.0,2499.0,2127.0,-0.85,9.79,4.43,0.05,-0.0,-0.18,0.0,n
4095.0,2955.0,3786.0,3866.0,2635.0,2331.0,2502.0,2125.0,-1.33,9.77,4.24,0.02,0.03,-0.16,0.0,n
4095.0,2973.0,3798.0,3855.0,2635.0,2332.0,2517.0,2128.0,-1.02,9.82,4.19,0.01,0.01,-0.15,0.0,n
4095.0,2965.0,3780.0,3854.0,2641.0,2340.0,2512.0,2130.0,-0.99,9.78,4.44,0.03,0.03,-0.17,0.0,n
4087.0,2962.0,3801.0,3860.0,2639.0,2340.0,2507.0,2133.0,-1.09,9.77,4.14,0.03,0.01,-0.18,0.0,n
4081.0,2960.0,3792.0,3858.0,2640.0,2338.0,2503.0,2139.0,-1.09,9.75,4.29,-0.01,0.03,-0.14,0.0,n
4095.0,2956.0,3793.0,3856.0,2640.0,2341.0,2503.0,2137.0,-0.91,9.77,4.25,0.03,0.03,-0.16,0.0,n
4095.0,2954.0,3792.0,3858.0,2636.0,2335.0,2511.0,2140.0,-1.15,9.8,4.17,0.03,0.0,-0.16,0.0,n
4095.0,2973.0,3792.0,3856.0,2640.0,2343.0,2510.0,2146.0,-1.0,9.75,4.42,-0.0,0.0,-0.16,0.0,n
4095.0,2967.0,3813.0,3859.0,2643.0,2349.0,2508.0,2141.0,-0.98,9.83,4.17,0.04,0.02,-0.17,0.0,n
4095.0,2957.0,3782.0,3861.0,2640.0,2343.0,2512.0,2141.0,-1.28,9.72,4.05,0.0,-0.0,-0.12,0.0,n
4095.0,2961.0,3789.0,3858.0,2641.0,2339.0,2506.0,2142.0,-1.01,9.95,4.49,0.01,-0.01,-0.12,0.0,n
4095.0,2969.0,3792.0,3865.0,2647.0,2341.0,2503.0,2135.0,-1.07,9.83,4.15,0.02,0.06,-0.18,0.0,n
4095.0,2959.0,3808.0,3855.0,2639.0,2337.0,2498.0,2135.0,-1.02,9.82,4.14,0.01,-0.01,-0.15,0.0,n
4095.0,2964.0,3813.0,3856.0,2643.0,2342.0,2509.0,2143.0,-0.94,9.81,4.32,0.02,0.0,-0.15,0.0,n
4095.0,2959.0,3824.0,3867.0,2640.0,2340.0,2511.0,2145.0,-1.15,9.84,4.19,0.03,0.04,-0.17,0.0,n
4095.0,2965.0,3819.0,3869.0,2642.0,2342.0,2503.0,2144.0,-1.18,9.85,4.1,-0.01,0.03,-0.16,0.0,n
4095.0,2971.0,3807.0,3859.0,2643.0,2346.0,2507.0,2149.0,-0.96,9.8,4.29,0.03,0.04,-0.16,0.0,n
4095.0,2974.0,3825.0,3857.0,2641.0,2338.0,2496.0,2143.0,-1.05,9.77,4.11,0.05,-0.02,-0.2,0.0,n
4095.0,2950.0,3826.0,3871.0,2624.0,2339.0,2497.0,2144.0,-1.21,9.87,3.97,0.01,-0.02,-0.2,0.0,n
3137.0,3006.0,3095.0,3482.0,2074.0,2240.0,2523.0,1963.0,-2.67,9.25,5.01,0.01,0.01,-0.11,0.0,n
3142.0,3019.0,3057.0,3461.0,2084.0,2237.0,2512.0,1965.0,-2.99,9.5,4.78,0.05,0.02,-0.14,0.0,n
3142.0,3003.0,3067.0,3492.0,2094.0,2267.0,2512.0,1973.0,-2.93,9.25,4.93,-0.02,-0.0,-0.19,0.0,n
3126.0,2991.0,3063.0,3516.0,2098.0,2259.0,2509.0,1961.0,-2.92,9.15,4.91,-0.0,-0.01,-0.16,0.0,n
3147.0,3003.0,3071.0,3481.0,2107.0,2267.0,2511.0,1969.0,-2.87,9.33,4.98,-0.0,0.04,-0.11,0.0,n
3149.0,2996.0,3062.0,3511.0,2118.0,2275.0,2501.0,1971.0,-2.68,9.39,4.77,-0.02,0.02,-0.14,0.0,n
3136.0,3017.0,3071.0,3518.0,2112.0,2274.0,2503.0,1972.0,-2.77,9.38,4.75,0.01,-0.0,-0.13,0.0,n
3134.0,3018.0,3066.0,3520.0,2100.0,2273.0,2517.0,1971.0,-2.84,9.24,4.82,-0.01,-0.03,-0.13,0.0,n
3126.0,3001.0,3070.0,3520.0,2099.0,2273.0,2511.0,1990.0,-2.98,9.4,4.86,-0.02,-0.03,-0.12,0.0,n
3150.0,3023.0,3059.0,3516.0,2095.0,2287.0,2517.0,1985.0,-2.74,9.45,4.81,0.0,0.03,-0.13,0.0,n
3145.0,3007.0,3070.0,3523.0,2107.0,2285.0,2517.0,1980.0,-2.78,9.42,4.86,0.01,-0.04,-0.16,0.0,n
3158.0,3010.0,3069.0,3509.0,2111.0,2279.0,2525.0,1989.0,-2.8,9.38,4.83,-0.0,-0.03,-0.13,0.0,n
3155.0,2992.0,3071.0,3514.0,2113.0,2267.0,2529.0,2000.0,-2.76,9.43,5.02,0.04,-0.0,-0.17,0.0,n
3152.0,3007.0,3085.0,3519.0,2113.0,2289.0,2515.0,1987.0,-2.83,9.48,4.78,0.03,-0.01,-0.16,0.0,n
3152.0,3005.0,3079.0,3535.0,2103.0,2291.0,2525.0,1998.0,-2.91,9.42,4.9,0.02,0.0,-0.15,0.0,n
3142.0,3006.0,3059.0,3513.0,2108.0,2295.0,2522.0,2000.0,-2.81,9.41,4.91,0.04,0.01,-0.15,0.0,n
3151.0,2991.0,3088.0,3504.0,2110.0,2303.0,2530.0,1999.0,-2.95,9.44,4.81,0.03,-0.01,-0.16,0.0,n
3130.0,3007.0,3071.0,3517.0,2107.0,2299.0,2542.0,1978.0,-2.67,9.38,4.91,-0.0,-0.03,-0.13,0.0,n
3143.0,3006.0,3083.0,3511.0,2103.0,2289.0,2531.0,1998.0,-2.83,9.48,4.89,0.02,-0.01,-0.15,0.0,n
3141.0,2996.0,3053.0,3529.0,2100.0,2298.0,2522.0,2003.0,-2.71,9.38,4.81,0.02,-0.01,-0.15,0.0,n
3145.0,3008.0,3060.0,3522.0,2103.0,2306.0,2541.0,2001.0,-2.91,9.39,5.02,0.0,-0.04,-0.15,0.0,n
3139.0,3002.0,3085.0,3524.0,2118.0,2304.0,2535.0,2000.0,-2.61,9.52,4.86,0.06,-0.03,-0.14,0.0,n
3153.0,2999.0,3071.0,3505.0,2126.0,2304.0,2531.0,2003.0,-2.76,9.41,4.89,0.11,0.0,-0.25,0.0,n
3147.0,3015.0,3065.0,3521.0,2116.0,2302.0,2535.0,2000.0,-2.72,9.49,4.82,0.05,-0.03,-0.13,0.0,n
3147.0,3005.0,3060.0,3542.0,2112.0,2320.0,2544.0,2011.0,-2.85,9.43,4.92,0.0,-0.03,-0.16,0.0,n
3146.0,3014.0,3061.0,3530.0,2125.0,2315.0,2544.0,2000.0,-2.64,9.4,4.88,0.03,0.03,-0.16,0.0,n
3147.0,3010.0,3071.0,3536.0,2122.0,2309.0,2535.0,2013.0,-2.69,9.34,4.89,0.06,-0.09,-0.17,0.0,n
3141.0,2992.0,3056.0,3534.0,2134.0,2317.0,2546.0,2006.0,-2.68,9.42,4.8,0.02,0.0,-0.15,0.0,n
3141.0,2993.0,3082.0,3527.0,2128.0,2323.0,2547.0,2021.0,-2.84,9.43,4.94,0.03,-0.03,-0.19,0.0,n
3139.0,2997.0,3082.0,3560.0,2115.0,2309.0,2542.0,2009.0,-2.7,9.33,4.93,0.03,-0.03,-0.16,0.0,n
3136.0,3010.0,3071.0,3518.0,2119.0,2313.0,2539.0,2015.0,-2.77,9.4,4.91,0.01,-0.0,-0.17,0.0,n
3131.0,2999.0,3057.0,3525.0,2112.0,2313.0,2541.0,2022.0,-2.83,9.41,4.98,0.04,-0.0,-0.15,0.0,n
3145.0,2999.0,3051.0,3550.0,2113.0,2327.0,2544.0,2014.0,-2.92,9.38,4.94,0.03,-0.01,-0.19,0.0,n
3147.0,3006.0,3071.0,3514.0,2113.0,2329.0,2547.0,2013.0,-2.64,9.4,4.97,-0.0,-0.03,-0.15,0.0,n
3149.0,3019.0,3063.0,3495.0,2128.0,2335.0,2544.0,2007.0,-2.86,9.39,4.85,0.01,0.01,-0.14,0.0,n
3134.0,3009.0,3056.0,3533.0,2134.0,2318.0,2539.0,2023.0,-2.86,9.38,4.9,0.02,-0.01,-0.15,0.0,n
3154.0,3003.0,3061.0,3524.0,2134.0,2317.0,2535.0,2020.0,-2.75,9.41,4.99,0.02,-0.0,-0.14,0.0,n
3147.0,3033.0,3056.0,3533.0,2128.0,2321.0,2543.0,2014.0,-2.9,9.39,4.76,-0.0,0.01,-0.16,0.0,n
3154.0,2993.0,3082.0,3510.0,2102.0,2317.0,2544.0,2018.0,-2.84,9.36,4.85,0.01,0.01,-0.14,0.0,n
3135.0,3003.0,3069.0,3518.0,2110.0,2333.0,2546.0,2016.0,-2.88,9.32,4.9,-0.01,0.0,-0.14,0.0,n
3151.0,3004.0,3055.0,3531.0,2127.0,2321.0,2545.0,2012.0,-2.77,9.3,4.92,-0.01,0.04,-0.14,0.0,n
3889.0,2974.0,3278.0,3486.0,2274.0,2264.0,2382.0,1968.0,-2.23,9.52,3.98,0.02,-0.01,-0.16,0.0,n
3920.0,2992.0,3284.0,3501.0,2268.0,2266.0,2380.0,1980.0,-2.3,9.56,3.97,0.02,-0.02,-0.12,0.0,n
3878.0,2992.0,3280.0,3477.0,2279.0,2254.0,2381.0,1971.0,-2.26,9.57,4.0,0.02,-0.04,-0.16,0.0,n
3899.0,2990.0,3294.0,3521.0,2283.0,2269.0,2384.0,1968.0,-2.16,9.59,4.0,-0.01,-0.07,-0.18,0.0,n
3904.0,2991.0,3284.0,3506.0,2277.0,2272.0,2397.0,1982.0,-2.41,9.6,4.05,0.04,0.02,-0.16,0.0,n
3905.0,2992.0,3280.0,3489.0,2276.0,2266.0,2397.0,1986.0,-2.24,9.5,3.96,0.02,0.04,-0.13,0.0,n
3881.0,2978.0,3287.0,3472.0,2261.0,2240.0,2393.0,1984.0,-2.38,9.67,4.09,0.01,-0.02,-0.14,0.0,n
3886.0,2992.0,3293.0,3503.0,2277.0,2273.0,2397.0,1984.0,-2.32,9.61,3.75,0.02,0.02,-0.17,0.0,n
3895.0,2985.0,3283.0,3498.0,2266.0,2265.0,2394.0,1983.0,-2.11,9.6,4.01,0.04,-0.01,-0.17,0.0,n
3888.0,2985.0,3279.0,3502.0,2275.0,2269.0,2399.0,1995.0,-2.65,9.65,3.99,0.04,0.07,-0.17,0.0,n
3913.0,3001.0,3289.0,3493.0,2288.0,2266.0,2403.0,1991.0,-2.29,9.59,4.02,0.0,0.01,-0.19,0.0,n
3875.0,2992.0,3299.0,3479.0,2282.0,2279.0,2410.0,2000.0,-2.39,9.61,3.95,0.02,0.01,-0.14,0.0,n
3915.0,2981.0,3287.0,3499.0,2267.0,2262.0,2403.0,1995.0,-2.32,9.58,3.86,0.03,0.02,-0.15,0.0,n
3920.0,2979.0,3280.0,3504.0,2271.0,2275.0,2400.0,1999.0,-2.37,9.65,3.84,0.0,0.06,-0.13,0.0,n
3908.0,2994.0,3299.0,3504.0,2263.0,2263.0,2405.0,1997.0,-2.43,9.59,3.97,0.01,0.01,-0.16,0.0,n
3889.0,2976.0,3298.0,3506.0,2287.0,2282.0,2410.0,2000.0,-2.38,9.62,3.87,0.05,-0.04,-0.15,0.0,n
3919.0,2981.0,3281.0,3503.0,2275.0,2284.0,2395.0,2000.0,-2.37,9.59,3.78,0.0,-0.01,-0.16,0.0,n
3904.0,2992.0,3280.0,3495.0,2254.0,2279.0,2411.0,1998.0,-2.45,9.5,4.03,0.03,-0.02,-0.15,0.0,n
3889.0,2987.0,3290.0,3509.0,2282.0,2277.0,2416.0,2003.0,-2.42,9.58,3.8,0.02,-0.01,-0.16,0.0,n
3917.0,2969.0,3289.0,3481.0,2272.0,2279.0,2417.0,1999.0,-2.34,9.62,3.8,0.01,-0.03,-0.13,0.0,n
3897.0,2986.0,3269.0,3485.0,2273.0,2279.0,2404.0,1997.0,-2.5,9.52,3.96,0.01,0.0,-0.15,0.0,n
3920.0,2986.0,3280.0,3501.0,2288.0,2286.0,2416.0,2004.0,-2.32,9.48,3.94,0.0,0.04,-0.1,0.0,n
3885.0,2986.0,3277.0,3505.0,2288.0,2283.0,2416.0,2000.0,-2.06,9.62,3.96,-0.05,-0.0,-0.12,0.0,n
3908.0,2990.0,3280.0,3495.0,2287.0,2279.0,2416.0,2007.0,-2.36,9.44,4.14,0.02,0.04,-0.18,0.0,n
3903.0,2992.0,3283.0,3491.0,2288.0,2286.0,2423.0,2011.0,-2.61,9.5,3.81,0.05,-0.0,-0.16,0.0,n
3916.0,2987.0,3297.0,3495.0,2303.0,2272.0,2415.0,2016.0,-2.42,9.57,3.86,0.02,-0.03,-0.19,0.0,n
3897.0,2975.0,3285.0,3503.0,2286.0,2288.0,2417.0,2011.0,-2.41,9.51,4.07,0.04,-0.01,-0.17,0.0,n
3903.0,2962.0,3266.0,3506.0,2283.0,2283.0,2430.0,2009.0,-2.45,9.53,3.83,0.01,-0.04,-0.15,0.0,n
3872.0,2967.0,3276.0,3505.0,2300.0,2285.0,2419.0,2019.0,-2.36,9.65,3.94,0.01,-0.03,-0.14,0.0,n
3901.0,2978.0,3286.0,3509.0,2286.0,2290.0,2416.0,2007.0,-2.42,9.5,4.02,0.02,-0.0,-0.15,0.0,n
3895.0,2983.0,3280.0,3516.0,2297.0,2273.0,2432.0,2009.0,-2.26,9.61,4.03,0.0,0.0,-0.15,0.0,n
3877.0,2989.0,3271.0,3510.0,2293.0,2288.0,2430.0,2026.0,-2.29,9.53,3.98,0.02,-0.03,-0.17,0.0,n
3878.0,2987.0,3280.0,3497.0,2287.0,2295.0,2432.0,2014.0,-2.39,9.53,3.97,-0.0,0.01,-0.15,0.0,n
3888.0,2990.0,3293.0,3520.0,2284.0,2297.0,2422.0,2011.0,-2.21,9.55,4.03,0.03,0.01,-0.15,0.0,n
3870.0,2989.0,3281.0,3519.0,2298.0,2291.0,2437.0,2032.0,-2.3,9.54,4.03,0.01,-0.04,-0.16,0.0,n
3891.0,2992.0,3281.0,3493.0,2288.0,2282.0,2422.0,2020.0,-2.22,9.6,4.0,0.02,-0.0,-0.15,0.0,n
3891.0,2975.0,3285.0,3487.0,2302.0,2293.0,2437.0,2023.0,-2.31,9.59,4.21,0.03,-0.01,-0.18,0.0,n
3918.0,2992.0,3298.0,3507.0,2285.0,2291.0,2435.0,2032.0,-2.23,9.53,3.99,0.06,-0.01,-0.17,0.0,n
3895.0,2971.0,3280.0,3502.0,2288.0,2290.0,2429.0,2022.0,-2.33,9.68,3.95,0.03,0.02,-0.14,0.0,n
3894.0,2994.0,3281.0,3500.0,2299.0,2288.0,2439.0,2022.0,-2.3,9.49,3.89,0.02,-0.0,-0.2,0.0,n
3882.0,2981.0,3283.0,3527.0,2291.0,2293.0,2432.0,2021.0,-2.34,9.49,4.1,0.06,-0.01,-0.16,0.0,n
