hall_1,hall_2,hall_3,flex_t,flex_i,flex_m,flex_r,flex_p,accel_x,accel_y,accel_z,gyro_x,gyro_y,gyro_z,hand,sign
2019.0,2986.0,1310.0,4095.0,3130.0,2557.0,2856.0,2917.0,-1.28,8.64,8.28,-0.63,-0.69,0.4,0.0,n
2018.0,2982.0,1310.0,4095.0,3131.0,2559.0,2858.0,2926.0,0.11,8.52,10.07,-0.14,-0.34,0.09,0.0,n
2013.0,2979.0,1310.0,4095.0,3136.0,2559.0,2863.0,2925.0,-0.98,9.42,8.64,0.35,-0.38,-0.34,0.0,n
2010.0,2994.0,1303.0,4095.0,3136.0,2559.0,2863.0,2929.0,-2.92,9.51,7.29,0.53,-0.37,-0.44,0.0,n
2018.0,2979.0,1309.0,4095.0,3137.0,2559.0,2860.0,2928.0,-2.98,9.55,6.99,0.55,-0.4,-0.33,0.0,n
2015.0,2985.0,1309.0,4095.0,3133.0,2559.0,2862.0,2928.0,-2.97,9.24,6.7,0.64,-0.4,-0.45,0.0,n
2001.0,2985.0,1313.0,4095.0,3134.0,2559.0,2858.0,2932.0,-3.49,9.03,6.2,0.63,-0.44,-0.46,0.0,n
2003.0,2983.0,1313.0,4095.0,3135.0,2559.0,2849.0,2931.0,-3.06,8.89,5.76,0.61,-0.56,-0.38,0.0,n
2007.0,2986.0,1307.0,4095.0,3139.0,2559.0,2850.0,2934.0,-3.53,9.09,5.52,0.52,-0.46,-0.36,0.0,n
2013.0,2986.0,1317.0,4095.0,3137.0,2559.0,2852.0,2933.0,-3.4,9.05,5.36,0.39,-0.5,-0.3,0.0,n
2014.0,2973.0,1314.0,4095.0,3137.0,2559.0,2858.0,2938.0,-3.37,8.98,5.51,0.31,-0.53,-0.28,0.0,n
2004.0,2985.0,1309.0,4095.0,3138.0,2559.0,2857.0,2938.0,-3.16,8.78,5.88,0.28,-0.46,-0.28,0.0,n
2001.0,2986.0,1316.0,4095.0,3137.0,2559.0,2859.0,2939.0,-3.19,8.7,5.93,0.2,-0.46,-0.33,0.0,n
2002.0,2992.0,1313.0,4095.0,3131.0,2551.0,2862.0,2935.0,-3.32,8.41,5.9,0.12,-0.33,-0.16,0.0,n
2016.0,2994.0,1309.0,4095.0,3126.0,2558.0,2864.0,2943.0,-3.34,8.57,5.78,0.08,-0.34,-0.34,0.0,n
2010.0,2973.0,1314.0,4095.0,3114.0,2544.0,2861.0,2941.0,-3.52,8.79,6.06,0.03,-0.25,-0.29,0.0,n
2034.0,2985.0,1323.0,4095.0,3097.0,2541.0,2855.0,2933.0,-2.86,8.85,6.0,0.2,-0.57,-0.42,0.0,n
2039.0,2971.0,1311.0,4095.0,3097.0,2538.0,2862.0,2942.0,-3.21,8.84,5.96,0.01,-0.45,-0.77,0.0,n
2037.0,2975.0,1314.0,4095.0,3106.0,2543.0,2863.0,2938.0,-4.94,8.62,6.42,0.1,-0.38,-0.67,0.0,n
2045.0,2991.0,1314.0,4095.0,3111.0,2543.0,2865.0,2944.0,-5.27,8.93,6.12,0.14,-0.31,-0.6,0.0,n
2042.0,2989.0,1322.0,4095.0,3119.0,2544.0,2867.0,2943.0,-5.15,8.7,6.19,0.18,-0.25,-0.34,0.0,n
2006.0,2991.0,1326.0,4095.0,3084.0,2531.0,2868.0,2939.0,-4.15,8.85,5.7,0.15,-0.41,-0.32,0.0,n
1872.0,2990.0,1328.0,4095.0,3051.0,2538.0,2864.0,2943.0,-4.14,8.0,6.15,-0.13,-0.06,-0.22,0.0,n
1856.0,2999.0,1325.0,4095.0,3067.0,2544.0,2864.0,2942.0,-5.39,8.16,6.34,0.11,-0.16,-0.42,0.0,n
1841.0,2985.0,1327.0,4095.0,3070.0,2544.0,2864.0,2944.0,-5.91,8.26,6.49,0.05,-0.08,-0.22,0.0,n
1838.0,2991.0,1316.0,4095.0,3087.0,2545.0,2864.0,2938.0,-6.22,8.37,6.04,0.11,0.17,-0.05,0.0,n
1844.0,2981.0,1319.0,4095.0,3089.0,2539.0,2869.0,2947.0,-5.37,8.56,5.67,0.05,0.05,0.02,0.0,n
1842.0,2981.0,1322.0,4095.0,3095.0,2544.0,2869.0,2944.0,-4.84,8.64,5.46,-0.2,0.49,0.07,0.0,n
1831.0,2991.0,1313.0,4095.0,3092.0,2543.0,2867.0,2949.0,-5.04,8.42,5.74,-0.31,0.44,0.14,0.0,n
1826.0,2977.0,1322.0,4095.0,3105.0,2544.0,2869.0,2949.0,-4.4,8.38,6.05,-0.35,0.59,0.22,0.0,n
1821.0,2980.0,1323.0,4095.0,3106.0,2550.0,2874.0,2954.0,-3.8,8.57,6.31,-0.31,0.31,0.23,0.0,n
1814.0,2985.0,1315.0,4095.0,3107.0,2548.0,2869.0,2947.0,-3.79,8.77,6.24,-0.28,0.43,0.21,0.0,n
1820.0,2989.0,1327.0,4095.0,3106.0,2550.0,2875.0,2953.0,-3.73,8.83,5.97,-0.22,0.25,0.09,0.0,n
1821.0,2981.0,1323.0,4095.0,3110.0,2547.0,2879.0,2948.0,-3.97,8.8,6.38,-0.31,0.49,0.15,0.0,n
1810.0,2987.0,1327.0,4095.0,3112.0,2554.0,2875.0,2951.0,-3.71,9.15,6.73,-0.21,0.52,0.15,0.0,n
1801.0,2986.0,1319.0,4095.0,3106.0,2555.0,2871.0,2949.0,-4.23,9.59,6.96,-0.15,0.61,0.29,0.0,n
1808.0,2992.0,1328.0,4095.0,3115.0,2557.0,2879.0,2955.0,-3.18,9.2,6.31,0.06,0.42,0.32,0.0,n
1807.0,2988.0,1312.0,4095.0,3115.0,2558.0,2869.0,2949.0,-2.56,9.06,5.44,0.03,0.35,0.25,0.0,n
1807.0,2987.0,1327.0,4095.0,3114.0,2558.0,2874.0,2950.0,-2.42,8.61,5.51,-0.1,0.35,0.27,0.0,n
1801.0,2987.0,1326.0,4095.0,3113.0,2555.0,2874.0,2949.0,-2.03,8.66,5.5,-0.22,0.16,0.33,0.0,n
1804.0,2990.0,1326.0,4095.0,3108.0,2559.0,2877.0,2951.0,-1.42,8.71,6.23,-0.31,0.22,0.37,0.0,n
1797.0,2979.0,1323.0,4095.0,3111.0,2558.0,2879.0,2953.0,-1.6,8.71,6.81,-0.29,0.33,0.25,0.0,n
1809.0,2987.0,1328.0,4095.0,3119.0,2557.0,2880.0,2935.0,-2.69,9.17,6.23,-0.18,0.64,0.47,0.0,n
1819.0,2985.0,1328.0,4095.0,3118.0,2554.0,2880.0,2928.0,-1.6,9.33,6.64,-0.22,-0.07,0.37,0.0,n
1811.0,2983.0,1327.0,4095.0,3113.0,2555.0,2876.0,2928.0,-0.91,9.4,6.95,-0.16,-0.03,0.12,0.0,n
1811.0,2981.0,1327.0,4095.0,3117.0,2547.0,2871.0,2926.0,-0.89,9.81,6.95,-0.07,-0.01,-0.07,0.0,n
1805.0,2986.0,1327.0,4095.0,3119.0,2556.0,2878.0,2935.0,-1.13,9.95,7.13,0.02,-0.25,-0.2,0.0,n
1817.0,2989.0,1323.0,4095.0,3119.0,2554.0,2881.0,2942.0,-0.9,10.04,6.84,0.18,-0.22,-0.26,0.0,n
1803.0,2987.0,1330.0,4095.0,3115.0,2552.0,2874.0,2946.0,-1.69,10.01,6.74,0.25,-0.22,-0.29,0.0,n
1808.0,2981.0,1327.0,4095.0,3116.0,2555.0,2879.0,2947.0,-1.36,10.24,6.1,0.44,-0.57,-0.36,0.0,n
1808.0,2982.0,1317.0,4095.0,3117.0,2556.0,2880.0,2947.0,-1.59,10.06,5.85,0.39,-0.34,-0.43,0.0,n
1808.0,2986.0,1328.0,4095.0,3120.0,2557.0,2879.0,2945.0,-1.84,9.83,5.64,0.37,-0.44,-0.52,0.0,n
1809.0,2976.0,1327.0,4095.0,3120.0,2555.0,2882.0,2954.0,-1.83,9.72,5.48,0.34,-0.6,-0.53,0.0,n
1802.0,2982.0,1328.0,4095.0,3122.0,2559.0,2879.0,2951.0,-2.33,9.68,5.69,0.28,-0.54,-0.4,0.0,n
1798.0,2978.0,1328.0,4095.0,3119.0,2558.0,2876.0,2953.0,-2.15,9.47,6.09,0.39,-0.7,-0.24,0.0,n
1805.0,2985.0,1325.0,4095.0,3118.0,2554.0,2876.0,2951.0,-1.92,9.46,5.54,0.45,-0.6,-0.25,0.0,n
1808.0,2976.0,1319.0,4095.0,3119.0,2555.0,2876.0,2956.0,-1.85,9.52,5.43,0.32,-0.66,-0.34,0.0,n
1797.0,2974.0,1317.0,4095.0,3123.0,2559.0,2879.0,2953.0,-2.44,9.39,5.43,0.39,-0.73,-0.28,0.0,n
1798.0,2986.0,1328.0,4095.0,3120.0,2559.0,2879.0,2953.0,-2.22,9.18,5.83,0.26,-0.61,-0.26,0.0,n
1793.0,2971.0,1326.0,4095.0,3120.0,2559.0,2880.0,2951.0,-1.89,9.45,5.34,0.39,-0.76,-0.26,0.0,n
1797.0,2982.0,1326.0,4095.0,3124.0,2559.0,2879.0,2950.0,-1.7,9.21,5.48,0.27,-0.76,-0.36,0.0,n
1817.0,2985.0,1328.0,4095.0,3120.0,2558.0,2878.0,2954.0,-2.61,9.22,5.65,0.22,-0.6,-0.46,0.0,n
1808.0,2981.0,1324.0,4095.0,3118.0,2559.0,2873.0,2945.0,-3.0,9.09,5.58,0.27,-1.18,-0.41,0.0,n
1803.0,2992.0,1323.0,4095.0,3126.0,2559.0,2879.0,2954.0,-2.41,8.9,5.26,0.11,-0.52,-0.5,0.0,n
1793.0,2982.0,1323.0,4095.0,3120.0,2559.0,2879.0,2955.0,-2.31,9.13,5.32,0.05,-0.63,-0.45,0.0,n
1798.0,2988.0,1322.0,4095.0,3127.0,2559.0,2880.0,2951.0,-2.74,8.94,6.1,0.03,-1.19,-0.65,0.0,n
1794.0,2983.0,1328.0,4095.0,3131.0,2559.0,2876.0,2951.0,-2.84,9.39,5.93,0.18,-1.26,-0.56,0.0,n
1808.0,2991.0,1322.0,4095.0,3126.0,2559.0,2874.0,2922.0,-3.52,9.1,6.25,0.0,-0.63,-0.71,0.0,n
1798.0,2981.0,1327.0,4095.0,3120.0,2559.0,2866.0,2922.0,-4.11,9.06,6.36,0.07,-0.06,-0.38,0.0,n
1808.0,2986.0,1328.0,4095.0,3127.0,2559.0,2870.0,2942.0,-4.39,9.0,5.68,0.08,-0.12,-0.37,0.0,n
1801.0,2976.0,1317.0,4095.0,3120.0,2559.0,2870.0,2947.0,-3.17,9.03,5.36,-0.1,-0.02,-0.4,0.0,n
1786.0,2970.0,1327.0,4095.0,3127.0,2559.0,2869.0,2948.0,-3.92,8.76,6.03,-0.27,0.24,-0.24,0.0,n
1791.0,2983.0,1319.0,4095.0,3134.0,2559.0,2871.0,2946.0,-4.33,8.5,6.47,-0.21,-0.05,-0.14,0.0,n
1790.0,2979.0,1324.0,4095.0,3135.0,2559.0,2875.0,2950.0,-3.63,8.76,6.49,-0.07,-0.3,0.03,0.0,n
1781.0,2987.0,1328.0,4095.0,3133.0,2559.0,2877.0,2950.0,-2.61,8.77,6.36,0.04,-0.76,-0.03,0.0,n
1784.0,2992.0,1325.0,4095.0,3130.0,2559.0,2870.0,2947.0,-2.95,8.86,6.04,-0.03,-0.29,-0.06,0.0,n
1782.0,2979.0,1318.0,4095.0,3129.0,2559.0,2873.0,2943.0,-3.21,8.67,6.59,-0.05,-0.87,0.02,0.0,n
1783.0,2986.0,1329.0,4095.0,3133.0,2559.0,2871.0,2945.0,-2.12,9.01,6.69,0.06,-1.35,-0.07,0.0,n
1786.0,2993.0,1327.0,4095.0,3135.0,2559.0,2877.0,2957.0,-2.7,9.63,6.29,-0.09,0.1,-0.06,0.0,n
1786.0,2990.0,1328.0,4095.0,3135.0,2559.0,2878.0,2945.0,-3.36,9.29,7.01,-0.2,0.31,-0.0,0.0,n
1791.0,2982.0,1328.0,4095.0,3136.0,2559.0,2869.0,2947.0,-2.51,9.34,6.76,-0.14,0.15,-0.08,0.0,n
1790.0,2981.0,1328.0,4095.0,3135.0,2559.0,2871.0,2942.0,-3.3,9.15,6.93,-0.2,0.16,0.01,0.0,n
1787.0,2987.0,1328.0,4095.0,3137.0,2559.0,2871.0,2951.0,-1.96,9.16,6.86,-0.12,-0.12,-0.14,0.0,n
1790.0,2990.0,1329.0,4095.0,3131.0,2559.0,2864.0,2939.0,-3.15,9.12,7.38,-0.13,-0.58,0.29,0.0,n
1791.0,2983.0,1326.0,4095.0,3133.0,2559.0,2869.0,2954.0,-2.27,8.89,7.35,0.09,0.2,-0.18,0.0,n
1789.0,2983.0,1321.0,4095.0,3129.0,2559.0,2873.0,2958.0,-1.74,9.74,6.85,-0.09,0.56,0.13,0.0,n
1787.0,2991.0,1325.0,4095.0,3119.0,2559.0,2869.0,2947.0,-2.23,9.46,7.07,-0.18,1.26,0.04,0.0,n
1790.0,2977.0,1327.0,4095.0,3122.0,2559.0,2870.0,2957.0,-2.1,9.31,7.32,-0.2,1.08,-0.02,0.0,n
1776.0,2985.0,1329.0,4095.0,3127.0,2559.0,2870.0,2957.0,-2.38,9.17,7.34,-0.06,0.54,-0.08,0.0,n
1791.0,2979.0,1324.0,4095.0,3133.0,2559.0,2879.0,2958.0,-2.67,9.22,6.88,-0.08,1.02,-0.15,0.0,n
1778.0,2975.0,1326.0,4095.0,3135.0,2559.0,2876.0,2960.0,-2.69,9.19,6.57,-0.09,0.76,-0.17,0.0,n
1787.0,2977.0,1332.0,4095.0,3136.0,2559.0,2870.0,2957.0,-2.41,9.05,6.71,-0.15,0.64,-0.21,0.0,n
1785.0,2986.0,1328.0,4095.0,3133.0,2559.0,2871.0,2959.0,-3.31,8.99,6.89,-0.25,1.04,-0.2,0.0,n
1778.0,2979.0,1329.0,4095.0,3134.0,2559.0,2881.0,2950.0,-3.46,8.9,6.66,-0.34,1.57,-0.29,0.0,n
1783.0,2989.0,1323.0,4095.0,3131.0,2559.0,2876.0,2954.0,-3.69,8.83,6.89,-0.22,1.01,-0.32,0.0,n
1778.0,2989.0,1325.0,4095.0,3136.0,2559.0,2874.0,2953.0,-2.82,9.01,6.85,-0.04,0.44,-0.18,0.0,n
1774.0,2979.0,1328.0,4095.0,3135.0,2559.0,2878.0,2950.0,-3.26,8.89,6.28,0.01,0.78,-0.18,0.0,n
1773.0,2977.0,1323.0,4095.0,3137.0,2559.0,2879.0,2953.0,-3.85,8.83,6.27,0.03,0.52,-0.21,0.0,n
1776.0,2991.0,1317.0,4095.0,3136.0,2559.0,2880.0,2955.0,-4.72,8.87,5.7,-0.03,0.98,-0.12,0.0,n
1774.0,2978.0,1321.0,4095.0,3140.0,2559.0,2882.0,2955.0,-4.06,8.79,5.69,-0.14,0.84,-0.01,0.0,n
1776.0,2991.0,1330.0,4095.0,3138.0,2559.0,2881.0,2944.0,-4.06,8.72,6.13,-0.25,1.32,0.1,0.0,n
1781.0,2978.0,1325.0,4095.0,3133.0,2559.0,2879.0,2934.0,-3.41,8.3,6.71,0.12,0.55,0.3,0.0,n
1780.0,2982.0,1326.0,4095.0,3143.0,2559.0,2878.0,2922.0,-3.36,8.92,5.58,0.2,0.47,0.12,0.0,n
1781.0,2989.0,1322.0,4095.0,3139.0,2559.0,2881.0,2931.0,-3.7,9.23,4.78,0.16,0.57,-0.02,0.0,n
1783.0,2990.0,1321.0,4095.0,3136.0,2559.0,2884.0,2941.0,-4.82,8.93,4.81,0.14,0.49,-0.14,0.0,n
1776.0,2989.0,1328.0,4095.0,3136.0,2559.0,2883.0,2934.0,-4.13,8.99,4.58,0.18,0.23,0.1,0.0,n
1776.0,2989.0,1319.0,4095.0,3133.0,2559.0,2885.0,2938.0,-3.02,9.39,4.44,-0.22,0.52,0.14,0.0,n
1780.0,2985.0,1315.0,4095.0,3127.0,2559.0,2883.0,2950.0,-1.99,9.4,5.18,-0.21,0.36,0.19,0.0,n
1778.0,2989.0,1326.0,4095.0,3141.0,2559.0,2885.0,2954.0,-1.32,9.39,5.54,-0.18,0.3,0.08,0.0,n
1776.0,2991.0,1327.0,4095.0,3142.0,2559.0,2887.0,2955.0,-2.73,9.04,5.35,0.04,0.3,-0.34,0.0,n
1763.0,2984.0,1330.0,4095.0,3146.0,2559.0,2890.0,2958.0,-4.07,9.23,4.52,0.07,0.24,-0.3,0.0,n
1778.0,2983.0,1326.0,4095.0,3147.0,2582.0,2890.0,2959.0,-4.2,9.15,4.4,-0.04,0.26,-0.1,0.0,n
1775.0,2992.0,1321.0,4095.0,3148.0,2580.0,2894.0,2950.0,-4.29,9.11,4.71,-0.09,0.59,0.45,0.0,n
1776.0,2973.0,1328.0,4095.0,3139.0,2559.0,2888.0,2925.0,-2.65,9.07,4.92,-0.14,0.35,0.52,0.0,n
1766.0,2978.0,1327.0,4095.0,3143.0,2559.0,2895.0,2919.0,-1.75,9.25,4.72,-0.09,0.12,0.39,0.0,n
1770.0,2985.0,1326.0,4095.0,3142.0,2559.0,2896.0,2917.0,-1.03,9.17,5.12,-0.27,-0.0,0.13,0.0,n
1781.0,2976.0,1328.0,4095.0,3152.0,2559.0,2896.0,2928.0,-0.91,9.3,5.6,-0.15,-0.07,-0.2,0.0,n
1779.0,2988.0,1329.0,4095.0,3145.0,2559.0,2891.0,2939.0,-2.51,9.8,5.17,-0.06,0.16,-0.32,0.0,n
1773.0,2985.0,1325.0,4095.0,3151.0,2559.0,2896.0,2945.0,-2.94,9.81,5.28,0.04,-0.08,-0.26,0.0,n
1771.0,2980.0,1317.0,4095.0,3147.0,2559.0,2890.0,2949.0,-2.53,10.35,4.28,0.19,-0.1,-0.14,0.0,n
1766.0,2985.0,1321.0,4095.0,3147.0,2559.0,2890.0,2949.0,-2.75,10.2,4.03,0.09,-0.06,-0.19,0.0,n
1774.0,2982.0,1328.0,4095.0,3150.0,2559.0,2892.0,2951.0,-2.43,10.15,4.22,0.02,-0.24,-0.27,0.0,n
1766.0,2982.0,1323.0,4095.0,3149.0,2559.0,2890.0,2944.0,-2.15,9.67,5.07,0.04,-0.22,-0.27,0.0,n
1772.0,2993.0,1326.0,4095.0,3151.0,2559.0,2881.0,2949.0,-2.92,9.44,5.3,0.15,-0.15,-0.26,0.0,n
1774.0,2976.0,1328.0,4095.0,3147.0,2559.0,2889.0,2953.0,-2.56,9.35,5.11,0.21,-0.19,-0.16,0.0,n
1782.0,2992.0,1325.0,4095.0,3151.0,2581.0,2892.0,2953.0,-2.7,9.49,4.9,0.22,-0.18,-0.11,0.0,n
1771.0,2982.0,1325.0,4095.0,3148.0,2581.0,2892.0,2956.0,-2.69,9.37,4.62,0.18,-0.21,-0.12,0.0,n
1771.0,2983.0,1317.0,4095.0,3149.0,2559.0,2891.0,2957.0,-2.41,9.31,4.74,0.07,-0.24,-0.14,0.0,n
1776.0,2992.0,1318.0,4095.0,3152.0,2559.0,2885.0,2948.0,-2.28,9.44,4.84,0.07,-0.04,-0.18,0.0,n
1768.0,2983.0,1318.0,4095.0,3152.0,2579.0,2894.0,2957.0,-2.41,9.51,4.72,0.06,-0.17,-0.17,0.0,n
1765.0,2991.0,1329.0,4095.0,3153.0,2581.0,2889.0,2954.0,-2.56,9.21,5.08,0.05,-0.09,-0.15,0.0,n
1772.0,2987.0,1332.0,4095.0,3149.0,2559.0,2887.0,2952.0,-2.25,9.65,4.46,0.17,-0.25,-0.18,0.0,n
1782.0,2987.0,1328.0,4095.0,3152.0,2579.0,2889.0,2951.0,-2.14,9.42,4.46,0.06,-0.25,-0.2,0.0,n
1773.0,2992.0,1328.0,4095.0,3149.0,2559.0,2890.0,2959.0,-2.38,9.37,4.64,0.01,-0.19,-0.19,0.0,n
1765.0,2987.0,1331.0,4095.0,3157.0,2579.0,2887.0,2951.0,-2.6,9.17,5.07,0.08,-0.21,-0.13,0.0,n
1775.0,2981.0,1335.0,4095.0,3151.0,2559.0,2882.0,2949.0,-2.64,9.42,4.74,0.12,-0.14,-0.15,0.0,n
1771.0,2978.0,1330.0,4095.0,3149.0,2559.0,2885.0,2953.0,-2.74,9.6,4.62,0.14,-0.17,-0.16,0.0,n
1776.0,2976.0,1325.0,4095.0,3149.0,2559.0,2886.0,2954.0,-2.77,9.56,4.57,0.06,-0.21,-0.14,0.0,n
1776.0,2978.0,1321.0,4095.0,3153.0,2583.0,2886.0,2954.0,-2.22,9.53,4.53,0.04,-0.16,-0.17,0.0,n
1770.0,2989.0,1322.0,4095.0,3146.0,2559.0,2883.0,2951.0,-2.87,9.15,5.07,0.02,-0.14,-0.13,0.0,n
1776.0,2987.0,1327.0,4095.0,3152.0,2559.0,2889.0,2961.0,-2.46,9.49,4.82,0.1,-0.18,-0.15,0.0,n
1767.0,2990.0,1328.0,4095.0,3153.0,2579.0,2886.0,2959.0,-2.65,9.63,4.7,0.09,-0.21,-0.05,0.0,n
1773.0,2987.0,1331.0,4095.0,3152.0,2581.0,2887.0,2957.0,-1.98,9.35,4.52,0.13,-0.31,-0.01,0.0,n
1776.0,2979.0,1328.0,4095.0,3151.0,2559.0,2885.0,2957.0,-2.08,9.74,4.35,0.05,-0.23,-0.21,0.0,n
1769.0,2986.0,1333.0,4095.0,3151.0,2559.0,2891.0,2955.0,-3.19,9.59,4.86,0.05,-0.2,-0.17,0.0,n
1771.0,2976.0,1328.0,4095.0,3149.0,2559.0,2893.0,2960.0,-1.84,9.62,4.6,0.07,-0.34,-0.2,0.0,n
1773.0,2987.0,1325.0,4095.0,3150.0,2581.0,2889.0,2960.0,-1.95,9.6,4.64,0.04,-0.23,-0.28,0.0,n
1771.0,2976.0,1334.0,4095.0,3153.0,2582.0,2889.0,2960.0,-2.73,9.24,5.04,0.06,-0.21,-0.29,0.0,n
1775.0,2982.0,1328.0,4095.0,3149.0,2559.0,2889.0,2958.0,-2.66,9.62,4.57,0.08,-0.2,-0.23,0.0,n
1763.0,2975.0,1324.0,4095.0,3152.0,2581.0,2886.0,2960.0,-2.03,9.78,4.41,0.08,-0.31,-0.23,0.0,n
1778.0,2992.0,1328.0,4095.0,3151.0,2583.0,2891.0,2962.0,-2.41,9.37,5.0,0.01,-0.25,-0.25,0.0,n
1767.0,2983.0,1331.0,4095.0,3152.0,2559.0,2889.0,2960.0,-1.67,9.72,4.49,0.13,-0.54,-0.32,0.0,n
1773.0,2982.0,1330.0,4095.0,3150.0,2559.0,2889.0,2960.0,-2.72,9.21,5.2,0.07,-0.31,-0.4,0.0,n
1763.0,2976.0,1323.0,4095.0,3150.0,2580.0,2891.0,2960.0,-3.39,9.35,4.81,0.14,-0.41,-0.38,0.0,n
1767.0,2978.0,1328.0,4095.0,3152.0,2583.0,2886.0,2959.0,-3.36,9.75,4.72,0.22,-0.5,-0.14,0.0,n
1776.0,2979.0,1334.0,4095.0,3152.0,2586.0,2895.0,2962.0,-2.47,9.33,4.75,0.18,-0.39,-0.0,0.0,n
1767.0,2983.0,1321.0,4095.0,3151.0,2582.0,2889.0,2960.0,-2.44,9.53,4.5,0.19,-0.49,-0.18,0.0,n
1774.0,2981.0,1340.0,4095.0,3152.0,2586.0,2886.0,2957.0,-2.75,9.24,4.95,0.15,-0.34,-0.3,0.0,n
1767.0,2982.0,1328.0,4095.0,3155.0,2585.0,2891.0,2959.0,-3.0,9.17,4.92,0.05,-0.34,-0.27,0.0,n
1767.0,2977.0,1324.0,4095.0,3152.0,2587.0,2887.0,2962.0,-2.85,9.06,4.96,0.09,-0.41,-0.26,0.0,n
1776.0,2992.0,1332.0,4095.0,3155.0,2582.0,2893.0,2960.0,-2.88,9.04,4.87,0.02,-0.46,-0.23,0.0,n
1762.0,2982.0,1328.0,4095.0,3152.0,2581.0,2887.0,2960.0,-3.04,8.9,5.27,-0.09,-0.59,-0.33,0.0,n
1763.0,2989.0,1327.0,4095.0,3151.0,2587.0,2889.0,2960.0,-3.08,8.96,5.33,0.03,-0.39,-0.35,0.0,n
1773.0,2978.0,1334.0,4095.0,3157.0,2586.0,2892.0,2960.0,-3.63,9.19,5.23,0.05,-0.26,-0.06,0.0,n
1778.0,2979.0,1321.0,4095.0,3154.0,2583.0,2895.0,2961.0,-2.77,9.32,4.86,0.0,-0.48,-0.17,0.0,n
1763.0,2980.0,1325.0,4095.0,3153.0,2559.0,2886.0,2959.0,-2.5,9.48,5.15,-0.14,-0.42,-0.3,0.0,n
1774.0,2989.0,1329.0,4095.0,3159.0,2581.0,2885.0,2949.0,-3.51,9.34,5.61,-0.16,-0.26,-0.21,0.0,n
1759.0,2980.0,1329.0,4095.0,3152.0,2579.0,2881.0,2958.0,-3.46,9.16,6.04,-0.13,-0.09,-0.17,0.0,n
1759.0,2991.0,1331.0,4095.0,3152.0,2584.0,2882.0,2960.0,-3.13,9.15,5.83,-0.13,0.01,-0.15,0.0,n
1773.0,2979.0,1328.0,4095.0,3152.0,2559.0,2883.0,2959.0,-2.78,9.18,5.69,-0.06,-0.38,-0.25,0.0,n
1773.0,2991.0,1331.0,4095.0,3153.0,2581.0,2886.0,2961.0,-3.65,9.05,5.96,-0.13,0.02,-0.26,0.0,n
1775.0,2982.0,1329.0,4095.0,3153.0,2581.0,2885.0,2961.0,-4.08,9.11,6.19,-0.07,-0.06,-0.05,0.0,n
1754.0,2975.0,1329.0,4095.0,3152.0,2580.0,2882.0,2960.0,-3.36,9.18,6.0,-0.02,0.05,0.02,0.0,n
1760.0,2977.0,1327.0,4095.0,3153.0,2585.0,2881.0,2960.0,-2.61,8.93,5.92,-0.08,-0.02,-0.04,0.0,n
1761.0,2985.0,1328.0,4095.0,3152.0,2581.0,2882.0,2960.0,-2.88,8.73,5.98,-0.19,0.22,-0.04,0.0,n
1762.0,2978.0,1325.0,4095.0,3149.0,2559.0,2883.0,2959.0,-3.54,8.71,5.46,-0.47,1.56,-0.08,0.0,n
1766.0,2983.0,1323.0,4095.0,3153.0,2586.0,2881.0,2954.0,-3.8,8.8,6.31,-0.45,-0.0,-0.12,0.0,n
1757.0,2990.0,1328.0,4095.0,3156.0,2587.0,2885.0,2966.0,-3.3,9.51,6.51,-0.41,0.13,0.08,0.0,n
1757.0,2986.0,1326.0,4095.0,3151.0,2559.0,2883.0,2966.0,-2.81,9.36,7.16,-0.34,0.4,0.34,0.0,n
1766.0,2989.0,1331.0,4095.0,3152.0,2582.0,2882.0,2965.0,-1.48,9.52,6.92,0.04,-0.66,0.05,0.0,n
1776.0,2992.0,1333.0,4095.0,3157.0,2589.0,2889.0,2962.0,-1.02,9.86,6.24,0.14,-0.53,-0.24,0.0,n
1770.0,2991.0,1333.0,4095.0,3161.0,2589.0,2890.0,2970.0,-2.36,9.84,6.47,0.06,-0.7,-0.39,0.0,n
1762.0,2980.0,1335.0,4095.0,3152.0,2587.0,2889.0,2971.0,-3.48,9.51,6.8,0.12,-0.53,-0.33,0.0,n
1759.0,2977.0,1337.0,4095.0,3155.0,2586.0,2887.0,2973.0,-2.3,9.39,6.81,0.24,-0.91,-0.3,0.0,n
1759.0,2991.0,1334.0,4095.0,3162.0,2585.0,2886.0,2969.0,-1.92,9.39,6.66,0.22,-1.07,-0.35,0.0,n
1759.0,2985.0,1332.0,4095.0,3163.0,2587.0,2889.0,2969.0,-1.89,9.08,6.81,0.09,-0.19,-0.49,0.0,n
1757.0,2983.0,1328.0,4095.0,3157.0,2587.0,2880.0,2970.0,-3.14,9.03,7.17,0.02,-0.08,-0.26,0.0,n
1758.0,2989.0,1325.0,4095.0,3157.0,2582.0,2881.0,2961.0,-3.34,8.7,7.6,0.2,-1.0,-0.26,0.0,n
1757.0,2987.0,1321.0,4095.0,3152.0,2583.0,2882.0,2960.0,-2.08,8.89,7.48,0.37,-1.64,-0.33,0.0,n
1763.0,2985.0,1338.0,4095.0,3159.0,2589.0,2890.0,2965.0,-1.63,9.01,6.73,0.38,-0.71,-0.42,0.0,n
1765.0,2992.0,1321.0,4095.0,3161.0,2589.0,2883.0,2964.0,-2.81,9.3,6.28,0.11,-0.19,-0.28,0.0,n
1769.0,2979.0,1331.0,4095.0,3162.0,2592.0,2886.0,2960.0,-2.89,9.14,6.93,-0.03,-0.48,-0.22,0.0,n
1766.0,2990.0,1327.0,4095.0,3162.0,2590.0,2879.0,2960.0,-2.0,9.09,7.1,0.01,-0.52,-0.23,0.0,n
1760.0,2980.0,1325.0,4095.0,3159.0,2592.0,2883.0,2962.0,-1.87,9.25,6.95,0.0,-0.37,-0.28,0.0,n
1770.0,2975.0,1330.0,4095.0,3161.0,2590.0,2880.0,2963.0,-2.47,8.99,7.34,0.01,-0.58,-0.26,0.0,n
1761.0,2981.0,1324.0,4095.0,3159.0,2585.0,2882.0,2965.0,-2.31,9.18,6.95,0.06,-0.04,-0.23,0.0,n
1760.0,2981.0,1322.0,4095.0,3159.0,2586.0,2882.0,2962.0,-2.32,9.08,7.08,0.01,-0.05,-0.15,0.0,n
1758.0,2987.0,1328.0,4095.0,3161.0,2590.0,2878.0,2960.0,-2.33,8.98,7.49,0.03,-0.78,-0.18,0.0,n
1758.0,2990.0,1332.0,4095.0,3159.0,2587.0,2879.0,2969.0,-2.16,9.17,7.5,0.08,-0.74,-0.24,0.0,n
1757.0,2990.0,1334.0,4095.0,3161.0,2580.0,2874.0,2961.0,-2.16,9.1,7.64,0.14,-1.02,-0.2,0.0,n
1770.0,2991.0,1326.0,4095.0,3162.0,2590.0,2880.0,2967.0,-1.68,9.2,7.33,0.09,-0.77,-0.27,0.0,n
1756.0,2989.0,1328.0,4095.0,3157.0,2583.0,2874.0,2965.0,-2.1,9.16,7.38,0.02,-0.37,-0.23,0.0,n
1754.0,2981.0,1331.0,4095.0,3158.0,2586.0,2877.0,2965.0,-1.82,9.07,7.65,-0.01,-0.42,-0.21,0.0,n
1771.0,2987.0,1328.0,4095.0,3157.0,2583.0,2877.0,2965.0,-2.11,9.06,7.74,0.02,-0.34,-0.17,0.0,n
1757.0,2989.0,1328.0,4095.0,3159.0,2587.0,2877.0,2971.0,-1.79,8.85,7.63,0.1,-0.45,-0.18,0.0,n
1752.0,2981.0,1332.0,4095.0,3157.0,2582.0,2877.0,2967.0,-1.45,9.46,7.08,0.17,-0.44,-0.15,0.0,n
1759.0,2979.0,1335.0,4095.0,3153.0,2587.0,2869.0,2967.0,-1.24,9.42,7.13,-0.05,0.54,-0.09,0.0,n
1766.0,2981.0,1328.0,4095.0,3163.0,2589.0,2880.0,2977.0,-1.61,8.81,7.75,-0.19,0.78,-0.11,0.0,n
1769.0,2988.0,1329.0,4095.0,3162.0,2590.0,2879.0,2977.0,-1.99,9.02,8.08,-0.15,-0.08,-0.18,0.0,n
1771.0,2983.0,1331.0,4095.0,3161.0,2586.0,2875.0,2976.0,-1.75,9.03,7.99,-0.04,0.02,-0.19,0.0,n
1773.0,2981.0,1328.0,4095.0,3161.0,2586.0,2879.0,2975.0,-1.84,9.12,7.49,0.02,0.9,-0.12,0.0,n
1754.0,2985.0,1334.0,4095.0,3162.0,2590.0,2880.0,2975.0,-2.18,9.24,7.24,-0.06,0.95,-0.07,0.0,n
1751.0,2986.0,1328.0,4095.0,3161.0,2589.0,2879.0,2976.0,-2.34,9.07,7.4,-0.07,0.56,-0.13,0.0,n
1765.0,2992.0,1328.0,4095.0,3167.0,2592.0,2881.0,2981.0,-2.24,8.93,7.66,-0.08,0.13,-0.14,0.0,n
1761.0,2988.0,1328.0,4095.0,3159.0,2587.0,2886.0,2967.0,-2.79,9.14,6.99,-0.1,1.43,-0.11,0.0,n
1751.0,2991.0,1333.0,4095.0,3159.0,2592.0,2882.0,2982.0,-2.29,8.73,7.7,-0.23,0.69,-0.04,0.0,n
1755.0,2989.0,1327.0,4095.0,3164.0,2595.0,2885.0,2981.0,-3.05,8.95,7.53,-0.13,0.7,-0.14,0.0,n
1750.0,2987.0,1338.0,4095.0,3153.0,2592.0,2882.0,2985.0,-3.01,8.91,7.95,-0.05,0.02,-0.12,0.0,n
1756.0,2976.0,1335.0,4095.0,3159.0,2592.0,2878.0,2977.0,-1.03,8.97,7.22,0.13,0.01,-0.25,0.0,n
1753.0,2987.0,1328.0,4095.0,3159.0,2590.0,2882.0,2976.0,-3.89,9.04,6.67,-0.13,1.14,-0.02,0.0,n
1747.0,2985.0,1331.0,4095.0,3164.0,2595.0,2881.0,2979.0,-2.43,8.91,6.97,-0.1,0.52,-0.19,0.0,n
1759.0,2986.0,1330.0,4095.0,3161.0,2595.0,2880.0,2980.0,-3.08,9.04,6.92,-0.23,0.97,-0.03,0.0,n
1753.0,2980.0,1329.0,4095.0,3163.0,2594.0,2883.0,2987.0,-3.48,8.62,7.6,-0.22,0.51,-0.08,0.0,n
1759.0,2977.0,1329.0,4095.0,3162.0,2592.0,2885.0,2986.0,-2.54,8.83,7.24,-0.08,0.66,-0.16,0.0,n
1751.0,2983.0,1337.0,4095.0,3167.0,2602.0,2887.0,2983.0,-3.38,8.9,6.8,-0.19,1.14,-0.02,0.0,n
1751.0,2987.0,1328.0,4095.0,3163.0,2599.0,2890.0,2977.0,-3.8,8.82,6.48,-0.33,1.32,-0.03,0.0,n
3568.0,2996.0,3286.0,3845.0,3241.0,2559.0,2603.0,2786.0,-2.75,9.56,4.47,-0.05,-0.31,-0.14,0.0,n
3581.0,2987.0,3301.0,3853.0,3246.0,2583.0,2609.0,2787.0,-2.59,9.59,4.6,0.12,-0.54,-0.2,0.0,n
3574.0,2995.0,3297.0,3843.0,3248.0,2582.0,2610.0,2796.0,-2.87,9.5,4.72,0.24,-0.57,-0.27,0.0,n
3574.0,2985.0,3303.0,3829.0,3247.0,2579.0,2609.0,2799.0,-3.0,9.16,4.59,0.23,-0.61,-0.32,0.0,n
3582.0,2986.0,3294.0,3836.0,3247.0,2582.0,2610.0,2795.0,-3.3,8.92,4.97,0.14,-0.55,-0.34,0.0,n
3573.0,2982.0,3305.0,3837.0,3248.0,2582.0,2613.0,2798.0,-3.64,8.8,4.88,0.08,-0.62,-0.43,0.0,n
3599.0,2992.0,3294.0,3863.0,3254.0,2589.0,2614.0,2801.0,-4.26,8.64,5.55,0.06,-0.6,-0.35,0.0,n
3583.0,2982.0,3308.0,3874.0,3252.0,2587.0,2613.0,2804.0,-4.1,8.64,5.84,0.12,-1.15,-0.28,0.0,n
3572.0,2988.0,3313.0,3861.0,3251.0,2559.0,2595.0,2797.0,-3.47,8.86,6.39,0.02,-0.75,-0.2,0.0,n
3578.0,2982.0,3302.0,3861.0,3260.0,2559.0,2593.0,2800.0,-4.22,8.79,6.27,-0.07,-0.06,-0.16,0.0,n
3580.0,2978.0,3299.0,3881.0,3254.0,2583.0,2597.0,2802.0,-4.03,8.89,6.29,-0.1,0.37,-0.08,0.0,n
3583.0,2993.0,3306.0,3888.0,3261.0,2587.0,2605.0,2810.0,-3.65,8.89,5.88,-0.01,-0.06,-0.13,0.0,n
3574.0,2981.0,3312.0,3884.0,3264.0,2587.0,2608.0,2813.0,-3.96,9.06,5.89,-0.12,0.11,-0.1,0.0,n
3583.0,2981.0,3296.0,3887.0,3262.0,2583.0,2608.0,2809.0,-3.88,9.12,6.19,-0.16,0.24,-0.04,0.0,n
3583.0,2983.0,3312.0,3888.0,3264.0,2593.0,2608.0,2805.0,-3.76,9.08,5.98,-0.06,0.1,0.05,0.0,n
3583.0,2981.0,3309.0,3858.0,3262.0,2591.0,2610.0,2815.0,-3.61,9.24,6.01,-0.06,0.14,0.05,0.0,n
3583.0,2979.0,3313.0,3842.0,3264.0,2593.0,2617.0,2816.0,-3.32,8.98,6.69,-0.02,0.25,0.03,0.0,n
3599.0,2982.0,3312.0,3879.0,3266.0,2597.0,2619.0,2823.0,-2.97,8.83,5.97,0.05,0.15,0.14,0.0,n
3583.0,2982.0,3304.0,3870.0,3263.0,2592.0,2615.0,2820.0,-2.55,8.72,5.65,-0.05,0.14,0.2,0.0,n
3582.0,2996.0,3308.0,3879.0,3266.0,2598.0,2619.0,2827.0,-2.14,8.89,5.69,-0.13,0.09,0.32,0.0,n
3581.0,2981.0,3312.0,3869.0,3265.0,2591.0,2619.0,2821.0,-1.25,8.67,6.37,-0.18,0.21,0.36,0.0,n
3583.0,2990.0,3307.0,3888.0,3270.0,2598.0,2622.0,2828.0,-1.26,9.59,6.83,-0.11,0.25,0.22,0.0,n
3583.0,2988.0,3312.0,3888.0,3268.0,2598.0,2624.0,2830.0,-0.58,10.09,6.01,0.0,0.02,0.02,0.0,n
3583.0,2986.0,3308.0,3871.0,3272.0,2598.0,2622.0,2826.0,-1.06,9.73,6.46,-0.06,0.15,-0.09,0.0,n
3580.0,2989.0,3301.0,3865.0,3259.0,2593.0,2620.0,2825.0,-0.85,9.72,5.93,0.12,-0.2,-0.03,0.0,n
3564.0,2980.0,3309.0,3873.0,3263.0,2595.0,2624.0,2829.0,-0.8,10.04,5.75,0.05,-0.34,-0.14,0.0,n
3571.0,2989.0,3298.0,3887.0,3273.0,2598.0,2624.0,2831.0,-0.66,10.27,5.94,-0.02,-0.44,-0.21,0.0,n
3575.0,2978.0,3307.0,3883.0,3264.0,2599.0,2624.0,2830.0,-1.11,10.14,6.32,-0.15,-0.38,-0.4,0.0,n
3583.0,2986.0,3324.0,3898.0,3273.0,2603.0,2628.0,2834.0,-1.61,10.08,5.92,-0.05,-0.52,-0.33,0.0,n
3583.0,2981.0,3301.0,3901.0,3267.0,2597.0,2624.0,2830.0,-0.43,9.27,6.75,-0.13,-0.59,-0.44,0.0,n
3603.0,2977.0,3314.0,3902.0,3273.0,2605.0,2635.0,2833.0,0.31,8.93,7.92,-0.11,-0.57,-0.51,0.0,n
3583.0,2980.0,3310.0,3906.0,3273.0,2605.0,2634.0,2835.0,-1.07,9.09,7.26,-0.01,-0.49,-0.69,0.0,n
3583.0,2986.0,3313.0,3915.0,3278.0,2605.0,2634.0,2839.0,-2.35,8.66,7.57,-0.12,-0.24,-0.61,0.0,n
3600.0,2989.0,3306.0,3909.0,3269.0,2603.0,2634.0,2838.0,-2.21,8.14,7.87,-0.18,-0.25,-0.51,0.0,n
3603.0,2992.0,3325.0,3928.0,3278.0,2608.0,2639.0,2837.0,-2.73,8.39,7.94,-0.25,-0.07,-0.49,0.0,n
3580.0,2978.0,3323.0,3921.0,3280.0,2605.0,2638.0,2839.0,-2.96,8.32,7.54,-0.16,-0.01,-0.03,0.0,n
3583.0,2988.0,3297.0,3920.0,3273.0,2609.0,2640.0,2842.0,-3.46,8.97,8.48,-0.42,-0.12,-0.21,0.0,n
3598.0,2989.0,3309.0,3918.0,3280.0,2606.0,2637.0,2843.0,-3.4,8.21,9.1,-0.38,0.09,-0.14,0.0,n
3603.0,2983.0,3322.0,3920.0,3279.0,2606.0,2640.0,2846.0,-3.0,8.18,9.71,-0.15,0.08,-0.1,0.0,n
3573.0,2992.0,3306.0,3909.0,3272.0,2593.0,2640.0,2832.0,-3.02,8.7,9.34,0.16,-0.26,-0.44,0.0,n
3581.0,2979.0,3306.0,3920.0,3266.0,2593.0,2642.0,2830.0,-2.98,7.96,8.77,-0.17,0.6,0.05,0.0,n
3563.0,2998.0,3315.0,3927.0,3272.0,2598.0,2647.0,2837.0,-3.66,7.68,9.23,-0.28,0.64,0.11,0.0,n
3569.0,2992.0,3306.0,3926.0,3279.0,2603.0,2644.0,2835.0,-2.52,8.15,9.04,-0.35,0.47,0.3,0.0,n
3566.0,2993.0,3307.0,3927.0,3279.0,2605.0,2655.0,2841.0,-2.27,8.62,8.76,-0.2,0.26,0.22,0.0,n
3554.0,2994.0,3312.0,3943.0,3280.0,2607.0,2656.0,2841.0,-1.98,8.47,9.64,0.17,0.01,0.04,0.0,n
3567.0,2988.0,3303.0,3937.0,3280.0,2604.0,2653.0,2839.0,-2.6,8.45,9.67,0.33,0.22,-0.13,0.0,n
3569.0,2992.0,3299.0,3938.0,3280.0,2607.0,2661.0,2846.0,-2.77,8.43,8.25,0.41,0.38,-0.08,0.0,n
3567.0,2975.0,3291.0,3921.0,3273.0,2605.0,2657.0,2834.0,-2.43,8.47,7.59,0.34,0.34,-0.1,0.0,n
3553.0,2982.0,3299.0,3947.0,3279.0,2607.0,2659.0,2843.0,-2.9,8.57,7.91,0.31,0.37,-0.07,0.0,n
3568.0,2992.0,3291.0,3934.0,3275.0,2608.0,2662.0,2843.0,-2.5,9.06,7.19,0.69,0.32,0.24,0.0,n
3568.0,2986.0,3290.0,3942.0,3279.0,2603.0,2655.0,2837.0,-2.6,9.31,5.78,0.46,0.45,0.04,0.0,n
3568.0,2979.0,3292.0,3951.0,3280.0,2608.0,2659.0,2847.0,-2.61,9.59,4.99,0.27,0.3,-0.08,0.0,n
3558.0,2989.0,3297.0,3932.0,3278.0,2610.0,2657.0,2843.0,-1.64,10.47,5.21,0.05,-0.15,-0.46,0.0,n
3561.0,2983.0,3301.0,3945.0,3279.0,2611.0,2665.0,2848.0,-2.37,9.02,5.98,0.18,-0.18,-0.65,0.0,n
3564.0,2994.0,3303.0,3957.0,3281.0,2615.0,2667.0,2854.0,-3.79,8.56,5.76,0.3,-0.01,-0.5,0.0,n
3568.0,2982.0,3307.0,3949.0,3280.0,2608.0,2658.0,2845.0,-4.02,8.7,5.33,0.3,0.09,-0.3,0.0,n
3583.0,2992.0,3302.0,3952.0,3283.0,2614.0,2659.0,2849.0,-3.54,8.94,4.79,0.24,0.02,-0.26,0.0,n
3559.0,2979.0,3303.0,3950.0,3280.0,2615.0,2663.0,2848.0,-3.13,9.04,3.97,0.18,-0.19,-0.46,0.0,n
3557.0,2987.0,3310.0,3947.0,3280.0,2610.0,2653.0,2849.0,-4.48,8.46,4.72,-0.0,-0.32,-0.54,0.0,n
3571.0,2986.0,3311.0,3961.0,3283.0,2613.0,2659.0,2858.0,-4.72,8.37,5.0,0.04,-0.05,-0.32,0.0,n
3562.0,2982.0,3294.0,3952.0,3280.0,2611.0,2654.0,2853.0,-4.51,8.39,4.58,0.0,-0.2,-0.26,0.0,n
3568.0,2983.0,3311.0,3957.0,3281.0,2611.0,2656.0,2854.0,-4.85,8.33,5.16,-0.11,-0.16,-0.17,0.0,n
3567.0,2986.0,3310.0,3962.0,3281.0,2611.0,2658.0,2861.0,-4.87,8.31,5.32,-0.07,-0.21,-0.05,0.0,n
3569.0,2995.0,3305.0,3961.0,3285.0,2613.0,2661.0,2861.0,-4.75,8.32,5.59,-0.15,-0.16,-0.0,0.0,n
3568.0,2993.0,3312.0,3970.0,3293.0,2622.0,2659.0,2864.0,-4.57,8.56,6.16,-0.23,0.08,0.09,0.0,n
3575.0,2987.0,3312.0,3973.0,3286.0,2621.0,2659.0,2865.0,-3.47,8.77,6.05,-0.07,0.02,0.15,0.0,n
3568.0,2987.0,3303.0,3959.0,3282.0,2621.0,2661.0,2859.0,-3.26,8.94,5.84,-0.07,0.02,0.05,0.0,n
3559.0,2986.0,3313.0,3956.0,3290.0,2614.0,2663.0,2864.0,-3.07,9.13,5.8,0.05,-0.02,0.03,0.0,n
3582.0,2995.0,3314.0,3968.0,3289.0,2619.0,2666.0,2865.0,-3.15,9.11,5.48,-0.03,-0.03,-0.17,0.0,n
3570.0,2989.0,3310.0,3962.0,3286.0,2613.0,2661.0,2863.0,-3.64,9.46,5.79,-0.0,-0.28,-0.12,0.0,n
3573.0,2997.0,3309.0,3963.0,3291.0,2615.0,2666.0,2865.0,-3.03,9.48,5.24,0.01,-0.48,-0.26,0.0,n
3561.0,2985.0,3301.0,3959.0,3288.0,2619.0,2665.0,2860.0,-3.58,8.83,5.84,-0.42,0.38,-0.36,0.0,n
3568.0,2992.0,3305.0,3952.0,3283.0,2619.0,2663.0,2854.0,-3.58,8.1,7.18,-0.52,-1.01,-0.59,0.0,n
3574.0,2991.0,3311.0,3958.0,3295.0,2626.0,2667.0,2863.0,-5.6,8.23,9.09,-0.21,-0.39,-0.15,0.0,n
3569.0,2983.0,3310.0,3957.0,3290.0,2621.0,2667.0,2863.0,-4.18,8.71,8.53,0.04,0.15,0.13,0.0,n
3567.0,2980.0,3312.0,3966.0,3291.0,2624.0,2672.0,2864.0,-3.2,8.64,7.63,0.09,0.24,-0.01,0.0,n
3572.0,2969.0,3323.0,3935.0,3227.0,2595.0,2669.0,2865.0,-3.42,8.04,7.49,0.1,0.28,0.02,0.0,n
3574.0,2980.0,3312.0,3937.0,3229.0,2602.0,2670.0,2864.0,-3.5,8.52,7.12,0.15,0.18,0.11,0.0,n
3598.0,2993.0,3319.0,3941.0,3242.0,2608.0,2672.0,2866.0,-3.09,9.28,7.02,0.1,0.18,0.1,0.0,n
3581.0,2981.0,3305.0,3942.0,3243.0,2609.0,2672.0,2866.0,-3.23,8.77,7.17,0.05,0.32,0.05,0.0,n
3599.0,2978.0,3298.0,3941.0,3243.0,2607.0,2671.0,2865.0,-2.8,8.84,7.07,0.18,0.3,0.18,0.0,n
3583.0,2982.0,3309.0,3937.0,3242.0,2607.0,2672.0,2865.0,-2.66,9.28,6.75,0.19,0.44,0.1,0.0,n
3581.0,2995.0,3306.0,3943.0,3248.0,2612.0,2672.0,2864.0,-2.74,9.77,6.05,0.21,0.99,0.08,0.0,n
3564.0,2974.0,3303.0,3933.0,3200.0,2559.0,2606.0,2798.0,-1.66,9.04,6.04,0.17,0.41,-0.66,0.0,n
3530.0,2982.0,3325.0,3969.0,3159.0,2513.0,2559.0,2746.0,-2.97,9.76,4.02,0.23,0.6,-0.55,0.0,n
3536.0,2985.0,3336.0,3968.0,3219.0,2557.0,2617.0,2813.0,-3.4,8.49,5.52,-0.79,1.11,0.01,0.0,n
3533.0,2982.0,3328.0,3937.0,3241.0,2559.0,2615.0,2822.0,-2.27,8.94,6.36,-0.3,0.33,-0.18,0.0,n
3537.0,2993.0,3323.0,3926.0,3248.0,2559.0,2625.0,2832.0,-2.67,9.48,5.45,0.0,0.51,-0.14,0.0,n
3523.0,2977.0,3329.0,3941.0,3253.0,2559.0,2633.0,2832.0,-3.17,9.08,5.04,0.18,-0.32,-0.22,0.0,n
3536.0,2997.0,3338.0,3946.0,3265.0,2587.0,2631.0,2836.0,-1.99,8.56,5.39,0.24,-1.29,0.02,0.0,n
3536.0,2983.0,3335.0,3921.0,3255.0,2559.0,2635.0,2832.0,-1.05,9.63,5.1,0.43,-0.83,-0.07,0.0,n
3525.0,2990.0,3344.0,3963.0,3263.0,2593.0,2635.0,2835.0,-3.31,9.5,5.47,0.09,-1.09,-0.09,0.0,n
3527.0,2993.0,3329.0,3970.0,3258.0,2602.0,2640.0,2825.0,-2.31,9.81,5.04,0.2,-0.68,-0.25,0.0,n
3519.0,2992.0,3344.0,3979.0,3273.0,2606.0,2640.0,2832.0,-3.19,9.67,6.01,0.26,-0.95,-0.39,0.0,n
3520.0,2983.0,3326.0,3961.0,3263.0,2607.0,2646.0,2832.0,-1.91,9.39,5.46,0.44,-2.66,-0.49,0.0,n
3530.0,2989.0,3339.0,3959.0,3267.0,2607.0,2647.0,2833.0,-2.57,9.16,6.4,0.07,-1.59,-0.46,0.0,n
3524.0,2978.0,3350.0,3979.0,3261.0,2607.0,2647.0,2832.0,-2.01,9.07,7.03,0.01,-1.54,-0.31,0.0,n
3539.0,2999.0,3355.0,3981.0,3271.0,2608.0,2657.0,2842.0,-1.28,9.23,7.2,0.11,-0.53,-0.15,0.0,n
3526.0,2979.0,3343.0,3977.0,3266.0,2608.0,2647.0,2839.0,-1.33,9.35,7.04,0.12,-0.51,-0.28,0.0,n
3525.0,2988.0,3339.0,3959.0,3267.0,2607.0,2651.0,2837.0,-1.82,9.58,6.43,0.12,0.86,-0.21,0.0,n
3526.0,2981.0,3337.0,3945.0,3264.0,2610.0,2655.0,2832.0,-0.52,9.38,5.8,0.16,2.04,-0.25,0.0,n
3525.0,2983.0,3338.0,3952.0,3269.0,2617.0,2656.0,2841.0,-2.47,9.33,6.3,0.12,0.3,-0.18,0.0,n
3539.0,2987.0,3344.0,3949.0,3269.0,2609.0,2661.0,2832.0,-2.38,9.33,5.71,0.0,0.55,-0.21,0.0,n
3533.0,2992.0,3335.0,3951.0,3274.0,2613.0,2661.0,2838.0,-3.39,9.37,5.71,-0.05,0.62,-0.21,0.0,n
3530.0,2989.0,3344.0,3959.0,3273.0,2617.0,2665.0,2846.0,-3.6,9.51,5.68,-0.08,-0.26,-0.15,0.0,n
3536.0,2985.0,3344.0,3951.0,3269.0,2614.0,2663.0,2847.0,-2.92,9.34,5.77,-0.2,0.51,-0.04,0.0,n
3517.0,2978.0,3334.0,3947.0,3265.0,2608.0,2657.0,2840.0,-2.67,8.72,5.7,-0.21,0.41,-0.03,0.0,n
3526.0,2976.0,3339.0,3946.0,3268.0,2609.0,2658.0,2838.0,-2.55,8.77,6.11,-0.22,0.44,-0.02,0.0,n
3528.0,2992.0,3342.0,3955.0,3270.0,2612.0,2667.0,2838.0,-2.15,8.94,6.14,-0.12,-0.06,-0.01,0.0,n
3545.0,2980.0,3349.0,3952.0,3271.0,2609.0,2667.0,2839.0,-3.43,9.42,6.08,-0.21,1.42,0.04,0.0,n
3522.0,2997.0,3344.0,3952.0,3273.0,2617.0,2671.0,2844.0,-3.02,9.13,6.22,-0.22,0.47,-0.04,0.0,n
3535.0,2975.0,3343.0,3953.0,3273.0,2613.0,2667.0,2839.0,-0.94,9.13,5.91,-0.18,0.75,-0.15,0.0,n
3526.0,2987.0,3337.0,3939.0,3266.0,2607.0,2663.0,2833.0,-4.0,9.48,5.69,-0.39,1.96,-0.06,0.0,n
3522.0,2986.0,3333.0,3952.0,3261.0,2608.0,2656.0,2832.0,-2.12,9.66,5.91,-0.14,-0.13,-0.14,0.0,n
3518.0,2991.0,3335.0,3970.0,3264.0,2610.0,2662.0,2845.0,-3.26,9.5,6.68,-0.1,0.16,-0.15,0.0,n
3525.0,2991.0,3333.0,3973.0,3267.0,2608.0,2663.0,2843.0,-2.81,8.99,6.48,-0.09,0.45,-0.32,0.0,n
