hall_1_L,hall_2_L,hall_3_L,flex_t_L,flex_i_L,flex_m_L,flex_r_L,flex_p_L,accel_x_L,accel_y_L,accel_z_L,gyro_x_L,gyro_y_L,gyro_z_L,hand,hall_1_R,hall_2_R,hall_3_R,flex_t_R,flex_i_R,flex_m_R,flex_r_R,flex_p_R,accel_x_R,accel_y_R,accel_z_R,gyro_x_R,gyro_y_R,gyro_z_R,hand,sign
2949.0,4013.0,1930.0,3786.0,3134.0,2490.0,3113.0,2321.0,6.43,6.0,5.54,-0.66,-2.3,0.15,0.0,2081.0,2800.0,2279.0,3235.0,4095.0,3510.0,4095.0,4095.0,-3.49,6.35,6.59,0.37,-0.58,0.42,1.0,nice-to-meet-you
2795.0,2496.0,2704.0,4042.0,3248.0,2876.0,3767.0,2809.0,7.95,5.56,4.18,-0.35,-0.72,-0.14,0.0,1520.0,3013.0,1312.0,3309.0,4095.0,4095.0,4095.0,2695.0,-3.41,6.91,7.54,-0.19,-0.45,0.69,1.0,nice-to-meet-you
2881.0,1040.0,2816.0,4095.0,3472.0,3267.0,4095.0,3245.0,7.55,4.6,-3.04,0.0,-3.22,-0.13,0.0,1822.0,2650.0,2426.0,3358.0,4095.0,4095.0,4095.0,1110.0,9.72,3.36,8.05,-1.7,-1.41,1.37,1.0,nice-to-meet-you
2857.0,998.0,3021.0,4095.0,3567.0,3248.0,3952.0,3222.0,4.09,7.82,-3.54,-0.18,2.94,-0.47,0.0,2650.0,892.0,3145.0,3494.0,4095.0,4095.0,4095.0,2230.0,2.27,2.94,12.8,-2.01,1.95,-3.0,1.0,nice-to-meet-you
3056.0,3722.0,2894.0,3632.0,3036.0,1988.0,2033.0,1430.0,1.9,7.42,-5.74,2.14,-3.36,-0.38,0.0,2290.0,3262.0,3280.0,3696.0,4095.0,2732.0,3421.0,2042.0,-4.66,-0.29,9.74,3.73,3.72,-2.03,1.0,nice-to-meet-you
3047.0,3609.0,3301.0,3618.0,3393.0,2067.0,2149.0,1587.0,4.27,5.73,-7.15,-0.38,-1.38,0.42,0.0,2934.0,3195.0,3335.0,2821.0,4095.0,2142.0,2764.0,1443.0,1.39,6.91,2.87,-2.3,-0.91,1.22,1.0,nice-to-meet-you
3055.0,3485.0,3284.0,3414.0,2835.0,2075.0,2147.0,1605.0,8.06,3.96,-6.25,-0.51,4.34,-1.44,0.0,2943.0,3260.0,3461.0,2864.0,4095.0,2166.0,2766.0,1712.0,3.71,9.16,14.06,-1.16,1.9,0.09,1.0,nice-to-meet-you
3054.0,3583.0,3095.0,3204.0,2628.0,2155.0,2229.0,1674.0,6.5,6.29,6.02,-3.62,3.73,1.11,0.0,2899.0,3250.0,3408.0,2899.0,4095.0,2250.0,2833.0,1919.0,-7.85,-11.17,-1.24,-8.73,7.3,-7.51,1.0,nice-to-meet-you
3056.0,3664.0,3027.0,3223.0,3024.0,2246.0,2315.0,1794.0,6.27,4.89,13.96,-1.34,1.49,-0.05,0.0,2905.0,3267.0,3365.0,2950.0,4095.0,2302.0,2864.0,1862.0,-11.5,0.79,4.47,0.21,-0.81,0.26,1.0,nice-to-meet-you
3049.0,3699.0,2880.0,3298.0,2963.0,2287.0,2371.0,1887.0,6.97,4.07,10.91,0.1,-0.19,0.19,0.0,2899.0,3263.0,3355.0,2995.0,4095.0,2326.0,2880.0,2030.0,-7.67,1.38,4.04,0.27,-0.11,0.09,1.0,nice-to-meet-you
3050.0,3750.0,2789.0,3327.0,2859.0,2343.0,2410.0,1931.0,7.69,3.83,9.82,0.09,-0.18,-0.07,0.0,2894.0,3278.0,3345.0,3013.0,4095.0,2330.0,2882.0,2063.0,-8.95,0.7,4.19,-0.08,-0.01,-0.0,1.0,nice-to-meet-you
3045.0,3760.0,2761.0,3339.0,2816.0,2335.0,2422.0,1973.0,7.71,3.67,9.96,0.0,-0.11,-0.1,0.0,2906.0,3264.0,3355.0,3013.0,4095.0,2335.0,2882.0,2039.0,-8.56,0.95,4.34,-0.02,-0.11,0.03,1.0,nice-to-meet-you
3051.0,3739.0,2800.0,3376.0,2935.0,2351.0,2448.0,1985.0,7.32,3.62,9.79,-0.03,0.05,-0.2,0.0,2902.0,3269.0,3350.0,3012.0,4095.0,2339.0,2896.0,1968.0,-8.54,1.2,4.14,-0.05,0.03,0.03,1.0,nice-to-meet-you
3063.0,3755.0,2791.0,3362.0,2943.0,2366.0,2445.0,1984.0,7.58,3.55,10.08,0.02,-0.1,-0.17,0.0,2897.0,3268.0,3345.0,3026.0,4095.0,2349.0,2898.0,2008.0,-8.61,1.18,4.02,0.02,-0.07,0.02,1.0,nice-to-meet-you
3056.0,3757.0,2789.0,3392.0,2943.0,2355.0,2451.0,2000.0,7.38,3.6,10.01,0.07,-0.06,-0.17,0.0,2906.0,3264.0,3353.0,3033.0,4095.0,2352.0,2902.0,2067.0,-8.59,1.22,4.24,-0.0,-0.06,0.02,1.0,nice-to-meet-you
3056.0,3750.0,2778.0,3390.0,2960.0,2363.0,2454.0,1984.0,7.41,3.64,9.81,0.04,0.01,-0.15,0.0,2896.0,3275.0,3343.0,3039.0,4095.0,2354.0,2901.0,2159.0,-8.37,1.21,4.24,-0.1,0.03,0.06,1.0,nice-to-meet-you
3055.0,3755.0,2776.0,3374.0,2957.0,2377.0,2449.0,1997.0,7.66,3.61,9.8,-0.06,0.02,-0.13,0.0,2906.0,3264.0,3339.0,3034.0,4095.0,2356.0,2905.0,2166.0,-8.66,1.13,4.31,-0.02,-0.06,0.0,1.0,nice-to-meet-you
3063.0,3746.0,2759.0,3383.0,2972.0,2357.0,2457.0,2014.0,7.86,3.55,9.86,-0.01,-0.07,-0.09,0.0,2908.0,3264.0,3343.0,3056.0,4095.0,2367.0,2910.0,2193.0,-8.47,1.38,4.3,-0.06,-0.08,-0.02,1.0,nice-to-meet-you
3059.0,3741.0,2762.0,3390.0,2983.0,2354.0,2471.0,2022.0,7.7,3.64,9.62,-0.04,-0.03,-0.15,0.0,2896.0,3263.0,3334.0,3053.0,4095.0,2368.0,2917.0,2163.0,-8.59,1.23,4.2,-0.06,0.04,-0.01,1.0,nice-to-meet-you
3046.0,3746.0,2762.0,3404.0,3005.0,2358.0,2473.0,2011.0,7.69,3.5,9.75,-0.04,-0.02,-0.16,0.0,2902.0,3248.0,3347.0,3056.0,4095.0,2368.0,2921.0,2142.0,-8.56,1.45,4.22,-0.02,-0.07,-0.03,1.0,nice-to-meet-you
3091.0,1047.0,1258.0,3999.0,3433.0,3790.0,4095.0,3613.0,7.46,3.8,-1.51,-0.27,-1.02,-0.13,0.0,965.0,3126.0,2937.0,3011.0,4095.0,4095.0,4095.0,2652.0,-1.76,4.44,9.67,-0.54,-0.37,0.64,1.0,nice-to-meet-you
3024.0,1057.0,2135.0,4016.0,3377.0,3706.0,4095.0,3573.0,5.57,4.46,-2.73,0.32,-1.27,-0.36,0.0,1997.0,928.0,2843.0,2983.0,4095.0,4095.0,4095.0,3041.0,-1.47,3.91,10.15,-0.34,-0.69,0.92,1.0,nice-to-meet-you
2802.0,974.0,2976.0,4095.0,3417.0,3649.0,4095.0,3603.0,4.21,3.61,-4.83,-0.94,-0.82,0.17,0.0,1089.0,909.0,2801.0,3200.0,4095.0,4095.0,4095.0,3233.0,6.81,2.97,7.26,-1.52,-0.25,0.29,1.0,nice-to-meet-you
2944.0,966.0,3205.0,4095.0,3499.0,3726.0,4095.0,3536.0,6.81,2.68,-5.66,-0.19,-0.3,-0.26,0.0,1655.0,880.0,2763.0,3252.0,4095.0,4095.0,4095.0,3831.0,10.34,2.99,8.71,-1.23,0.87,-1.47,1.0,nice-to-meet-you
3008.0,993.0,3206.0,4095.0,3487.0,3488.0,4095.0,3415.0,5.71,6.8,-8.75,-0.34,1.7,-0.76,0.0,989.0,927.0,3050.0,3422.0,4095.0,4095.0,4095.0,3087.0,-1.83,-0.58,10.86,-0.76,0.12,-2.01,1.0,nice-to-meet-you
2974.0,1075.0,1590.0,4095.0,3677.0,3650.0,4095.0,3395.0,7.61,4.95,-0.06,0.32,3.28,-0.54,0.0,1084.0,1949.0,2369.0,3849.0,4095.0,3965.0,4095.0,2487.0,-1.33,-1.41,17.7,2.29,2.67,-1.95,1.0,nice-to-meet-you
3370.0,3573.0,971.0,3367.0,1903.0,2353.0,2557.0,1750.0,6.93,7.81,-6.45,-0.34,8.73,-0.52,0.0,3542.0,3264.0,3198.0,3218.0,3973.0,2307.0,3005.0,2194.0,-1.86,3.54,5.42,1.77,2.86,0.43,1.0,nice-to-meet-you
3210.0,3430.0,2778.0,2998.0,1795.0,1982.0,2225.0,1674.0,8.52,3.16,9.83,0.23,0.75,-0.93,0.0,2928.0,3046.0,3635.0,2800.0,4095.0,2205.0,2822.0,2079.0,-0.32,3.48,-0.45,-0.97,6.82,1.88,1.0,nice-to-meet-you
3088.0,4095.0,2695.0,3402.0,3580.0,2802.0,3280.0,2066.0,7.68,5.6,8.89,1.35,-6.6,-2.52,0.0,2941.0,3107.0,3361.0,2890.0,4095.0,2173.0,2797.0,2434.0,-3.8,6.11,5.12,-0.15,0.98,-1.35,1.0,nice-to-meet-you
3038.0,4095.0,3033.0,3477.0,3524.0,3425.0,4029.0,2971.0,-9.89,-2.85,24.4,2.8,-2.18,3.02,0.0,2929.0,3141.0,3677.0,2921.0,4095.0,2180.0,2795.0,2258.0,-5.3,4.79,2.06,-0.99,0.04,-0.64,1.0,nice-to-meet-you
3043.0,4095.0,1113.0,3783.0,3775.0,2477.0,2948.0,2099.0,6.3,3.46,-0.48,0.69,1.15,0.51,0.0,2943.0,3164.0,4037.0,2970.0,4095.0,2234.0,2810.0,2475.0,0.09,6.25,7.33,1.96,0.04,-0.08,1.0,nice-to-meet-you
3037.0,3983.0,944.0,3546.0,3152.0,2165.0,2385.0,1636.0,7.75,1.37,-3.77,-1.36,1.13,2.01,0.0,2938.0,3165.0,2674.0,2699.0,4095.0,2301.0,2868.0,2058.0,6.51,10.74,-10.01,0.03,3.36,-0.62,1.0,nice-to-meet-you
3055.0,4095.0,941.0,3575.0,2906.0,2309.0,2531.0,1897.0,10.07,2.05,2.9,-0.88,3.21,1.04,0.0,2906.0,3183.0,2669.0,2859.0,4095.0,2302.0,2901.0,2458.0,-9.94,-19.48,3.73,-8.73,8.73,-7.65,1.0,nice-to-meet-you
3152.0,4095.0,1002.0,3638.0,2102.0,2434.0,2720.0,2021.0,9.44,1.29,6.44,-0.6,0.93,0.2,0.0,2898.0,3161.0,3632.0,2943.0,4095.0,2303.0,2896.0,997.0,-11.63,0.13,5.34,0.5,-3.32,-0.22,1.0,nice-to-meet-you
3385.0,4095.0,1072.0,3664.0,2157.0,2497.0,2763.0,2135.0,10.24,1.5,6.27,-0.05,-0.19,0.32,0.0,2900.0,3163.0,3605.0,3039.0,4095.0,2327.0,2919.0,2805.0,-9.46,-1.13,5.72,0.64,-0.78,-0.09,1.0,nice-to-meet-you
3505.0,4095.0,1490.0,3696.0,2866.0,2497.0,2807.0,2173.0,10.43,0.44,6.78,0.14,0.02,-0.11,0.0,2909.0,3162.0,3643.0,3023.0,4095.0,2342.0,2913.0,2843.0,-7.76,0.11,4.21,0.22,-0.13,-0.03,1.0,nice-to-meet-you
3501.0,4095.0,1648.0,3667.0,2897.0,2481.0,2818.0,2192.0,10.05,0.34,6.05,0.25,-0.1,-0.23,0.0,2906.0,3165.0,3668.0,3047.0,4095.0,2357.0,2927.0,2849.0,-8.6,0.11,3.87,-0.03,0.16,0.11,1.0,nice-to-meet-you
3517.0,4095.0,1711.0,3665.0,2912.0,2493.0,2817.0,2197.0,10.0,0.2,5.99,0.21,0.01,-0.22,0.0,2906.0,3165.0,3665.0,3061.0,4095.0,2351.0,2925.0,2851.0,-8.83,-0.06,3.49,-0.1,0.13,0.06,1.0,nice-to-meet-you
3509.0,4095.0,1760.0,3692.0,2907.0,2491.0,2832.0,2210.0,9.95,0.25,5.84,0.3,-0.04,-0.3,0.0,2910.0,3159.0,3651.0,3057.0,4095.0,2352.0,2928.0,2863.0,-8.82,0.2,3.5,-0.03,-0.04,0.08,1.0,nice-to-meet-you
3501.0,4095.0,1767.0,3681.0,2907.0,2491.0,2837.0,2221.0,9.6,0.37,5.9,0.17,0.07,-0.21,0.0,2919.0,3154.0,3678.0,3059.0,4095.0,2365.0,2928.0,2870.0,-8.65,0.12,3.45,-0.08,0.03,0.14,1.0,nice-to-meet-you
3089.0,1009.0,3260.0,3937.0,2963.0,3151.0,3854.0,3170.0,10.63,3.91,3.26,-0.15,-0.29,-0.0,0.0,2061.0,3490.0,2400.0,2974.0,4095.0,4095.0,4095.0,4095.0,-3.86,3.9,7.87,-0.05,0.17,0.18,1.0,nice-to-meet-you
3088.0,995.0,3351.0,3971.0,3030.0,3087.0,3815.0,3149.0,10.45,1.4,2.71,0.01,-0.19,0.02,0.0,1854.0,3008.0,2522.0,2991.0,4095.0,4095.0,4095.0,4095.0,-4.05,1.71,8.98,0.11,-0.64,-0.32,1.0,nice-to-meet-you
3119.0,1006.0,3387.0,4007.0,3120.0,3054.0,3779.0,3111.0,10.62,1.22,0.98,0.04,-1.9,0.1,0.0,1839.0,963.0,2672.0,2972.0,4095.0,4095.0,4095.0,4095.0,-5.71,1.79,10.03,-0.47,-0.27,-0.19,1.0,nice-to-meet-you
3133.0,1031.0,3360.0,3159.0,3045.0,3023.0,3742.0,3063.0,7.85,1.57,-0.56,0.55,-3.09,-0.35,0.0,2599.0,1872.0,2637.0,2879.0,4095.0,4095.0,4095.0,4095.0,-2.84,3.34,10.28,-0.58,-0.41,0.35,1.0,nice-to-meet-you
2795.0,1051.0,2970.0,4092.0,3049.0,3056.0,3840.0,3159.0,2.31,2.61,-5.17,-1.03,-0.82,-0.21,0.0,2512.0,995.0,2743.0,3002.0,4095.0,4095.0,4095.0,3137.0,0.1,2.93,4.13,-1.68,-1.31,1.46,1.0,nice-to-meet-you
2613.0,1035.0,3056.0,4095.0,3552.0,3227.0,3781.0,2941.0,8.43,3.41,-8.2,-1.28,1.01,0.24,0.0,2265.0,1382.0,2871.0,3109.0,4095.0,4095.0,4095.0,3696.0,8.51,-5.71,33.98,0.42,-1.59,-1.21,1.0,nice-to-meet-you
3029.0,978.0,2976.0,4095.0,3695.0,3249.0,4095.0,3258.0,7.22,4.02,2.06,1.38,0.99,-0.36,0.0,2320.0,2914.0,1860.0,3474.0,4095.0,3233.0,4095.0,3140.0,-10.51,-5.23,7.52,1.32,7.56,-1.67,1.0,nice-to-meet-you
3035.0,4095.0,961.0,3088.0,3290.0,2107.0,2197.0,1453.0,3.91,4.47,-6.1,0.92,4.06,-1.33,0.0,3219.0,3153.0,3319.0,2804.0,4095.0,2145.0,2906.0,2155.0,-7.1,2.43,3.13,0.54,4.73,0.78,1.0,nice-to-meet-you
3047.0,3719.0,1535.0,2785.0,3514.0,1994.0,2127.0,1605.0,8.78,5.11,-2.57,-1.69,6.13,-0.3,0.0,2954.0,3175.0,3344.0,2785.0,4095.0,2235.0,2861.0,2135.0,-1.35,4.6,-1.02,-0.8,0.67,1.26,1.0,nice-to-meet-you
3051.0,3698.0,1575.0,2749.0,3550.0,2078.0,2156.0,1622.0,15.19,3.25,8.52,-0.5,1.56,-1.39,0.0,2919.0,3219.0,3001.0,2635.0,4095.0,2246.0,2863.0,2145.0,-0.13,2.56,5.63,-2.07,0.27,-1.95,1.0,nice-to-meet-you
3039.0,3707.0,1520.0,2912.0,3225.0,1987.0,2213.0,1728.0,11.89,-2.43,13.39,-1.5,0.98,0.46,0.0,2943.0,3219.0,3236.0,2831.0,4095.0,2252.0,2869.0,2471.0,-6.71,2.95,9.19,1.69,-2.27,1.59,1.0,nice-to-meet-you
3045.0,3824.0,1424.0,2962.0,2990.0,2103.0,2311.0,1842.0,12.03,1.74,6.96,-0.7,-0.09,1.0,0.0,2928.0,3226.0,3152.0,2799.0,4095.0,2275.0,2878.0,2382.0,1.71,8.35,-1.41,2.31,-1.53,0.31,1.0,nice-to-meet-you
3053.0,3786.0,1456.0,2974.0,2949.0,2125.0,2319.0,1897.0,8.81,0.95,6.84,-1.02,-0.75,-0.07,0.0,2929.0,3210.0,2807.0,2708.0,4095.0,2269.0,2880.0,2495.0,7.03,6.43,-3.61,-4.12,2.39,-4.57,1.0,nice-to-meet-you
3056.0,3910.0,1337.0,3504.0,2619.0,2256.0,2411.0,2000.0,9.41,0.68,9.67,0.13,-0.53,0.02,0.0,2928.0,3249.0,3276.0,2938.0,4095.0,2269.0,2892.0,2765.0,-7.67,-0.06,5.77,-0.04,-0.61,0.24,1.0,nice-to-meet-you
3045.0,3932.0,1277.0,3545.0,2624.0,2287.0,2433.0,2005.0,9.51,0.33,8.05,0.1,-0.14,-0.22,0.0,2931.0,3255.0,3312.0,2944.0,4095.0,2288.0,2896.0,2800.0,-8.0,-0.55,4.03,0.25,-0.25,0.11,1.0,nice-to-meet-you
3046.0,3979.0,1207.0,3523.0,2627.0,2317.0,2475.0,2055.0,8.68,0.32,7.7,0.19,-0.19,-0.17,0.0,2934.0,3248.0,3338.0,2955.0,4095.0,2301.0,2902.0,2832.0,-8.38,-0.23,4.2,0.06,0.08,0.06,1.0,nice-to-meet-you
3056.0,3995.0,1203.0,3550.0,2635.0,2327.0,2485.0,2055.0,9.67,0.22,8.08,0.2,-0.09,-0.03,0.0,2928.0,3248.0,3392.0,2975.0,4095.0,2306.0,2910.0,2864.0,-8.74,-0.36,4.36,-0.11,-0.07,-0.01,1.0,nice-to-meet-you
3047.0,3974.0,1200.0,3567.0,2640.0,2324.0,2486.0,2042.0,9.41,0.32,7.77,0.11,-0.04,-0.08,0.0,2928.0,3253.0,3415.0,2987.0,4095.0,2310.0,2915.0,2853.0,-8.36,-0.43,4.53,-0.04,-0.1,0.0,1.0,nice-to-meet-you
3047.0,4005.0,1191.0,3558.0,2859.0,2320.0,2497.0,2058.0,9.56,0.23,7.81,0.05,-0.08,-0.14,0.0,2935.0,3259.0,3437.0,2982.0,4095.0,2319.0,2919.0,2864.0,-8.41,-0.27,4.22,0.04,-0.07,-0.01,1.0,nice-to-meet-you
3069.0,3982.0,1187.0,3568.0,2867.0,2330.0,2498.0,2059.0,9.33,0.27,8.0,0.05,0.03,-0.17,0.0,2931.0,3257.0,3434.0,2992.0,4095.0,2320.0,2922.0,2879.0,-8.53,-0.42,4.16,0.02,-0.12,0.0,1.0,nice-to-meet-you
3261.0,4095.0,4095.0,3835.0,3309.0,3294.0,4095.0,3414.0,6.42,2.56,-3.86,-0.18,-0.44,-0.15,0.0,933.0,4095.0,911.0,3055.0,4095.0,4095.0,4095.0,2438.0,-3.02,1.67,10.89,-0.14,-0.64,0.69,1.0,nice-to-meet-you
3405.0,4095.0,4000.0,3897.0,3417.0,3473.0,4095.0,3536.0,6.14,2.48,-4.06,-0.42,-0.28,-0.1,0.0,921.0,4095.0,951.0,3033.0,4095.0,4095.0,4095.0,835.0,-0.94,2.01,10.14,0.15,-0.42,1.26,1.0,nice-to-meet-you
3462.0,4095.0,3903.0,3992.0,3504.0,3558.0,4095.0,3769.0,5.2,2.64,-3.85,-0.36,-0.54,-0.03,0.0,934.0,4095.0,1295.0,3143.0,4095.0,4095.0,4095.0,800.0,0.07,2.74,9.43,0.02,-0.34,0.78,1.0,nice-to-meet-you
3386.0,4095.0,3792.0,4020.0,3540.0,3568.0,4095.0,3758.0,4.24,3.42,-4.41,-0.46,-0.6,-0.23,0.0,939.0,4095.0,1654.0,3103.0,4095.0,4095.0,4095.0,752.0,-0.45,2.03,9.21,-0.53,-0.25,1.02,1.0,nice-to-meet-you
3328.0,1987.0,3641.0,4063.0,3536.0,3583.0,4095.0,3602.0,5.33,3.03,-5.38,-0.63,-0.68,-0.09,0.0,965.0,4095.0,2535.0,3082.0,4095.0,4095.0,4095.0,1652.0,7.48,2.15,6.46,-1.49,-0.74,-0.14,1.0,nice-to-meet-you
3083.0,992.0,1006.0,4095.0,3571.0,3516.0,4095.0,3617.0,4.59,3.95,-3.26,-0.09,0.46,-0.62,0.0,1370.0,3001.0,2609.0,3571.0,4095.0,4095.0,4095.0,2641.0,-2.43,-3.35,20.01,0.78,-0.08,-2.52,1.0,nice-to-meet-you
3055.0,3390.0,2559.0,3199.0,3521.0,1980.0,2100.0,1639.0,6.82,5.09,-5.32,0.08,-2.43,-0.93,0.0,2930.0,3115.0,3249.0,2608.0,4095.0,2207.0,2817.0,1805.0,-5.01,5.13,-4.1,-1.96,1.21,-1.01,1.0,nice-to-meet-you
3036.0,3436.0,2559.0,3343.0,3436.0,1978.0,2171.0,1731.0,4.79,4.06,-3.04,-1.04,-0.68,-0.71,0.0,2966.0,3414.0,3277.0,2801.0,4095.0,2102.0,2825.0,1870.0,-0.19,-5.85,35.91,-1.03,-0.66,-1.25,1.0,nice-to-meet-you
3039.0,3315.0,2803.0,3814.0,3503.0,1931.0,2127.0,1702.0,7.38,2.9,-4.7,-0.8,2.04,0.04,0.0,2957.0,3407.0,3246.0,2971.0,4095.0,2219.0,2832.0,2096.0,-9.3,-2.28,15.75,-0.65,0.2,1.32,1.0,nice-to-meet-you
3058.0,3472.0,2631.0,3447.0,3052.0,1988.0,2171.0,1775.0,3.2,3.91,-2.28,-3.29,6.12,1.76,0.0,2971.0,3350.0,3251.0,2885.0,4095.0,2245.0,2853.0,2010.0,-4.89,2.83,6.77,1.66,2.69,1.94,1.0,nice-to-meet-you
3071.0,3776.0,1413.0,3654.0,2829.0,2279.0,2485.0,1989.0,9.12,-2.1,12.16,-2.7,2.82,1.49,0.0,2944.0,3306.0,3282.0,2800.0,4095.0,2285.0,2863.0,2304.0,7.88,8.7,-5.71,-3.62,1.89,-4.57,1.0,nice-to-meet-you
3091.0,3941.0,1068.0,3658.0,2829.0,2406.0,2667.0,2199.0,8.09,-3.47,14.36,-1.41,0.51,0.26,0.0,2925.0,3424.0,3272.0,3040.0,4095.0,2336.0,2912.0,2357.0,-23.32,-20.14,4.15,0.81,0.91,-1.42,1.0,nice-to-meet-you
3094.0,4057.0,1023.0,3650.0,2912.0,2453.0,2729.0,2270.0,6.77,-2.46,12.39,0.22,-0.77,-0.22,0.0,2940.0,3397.0,3301.0,3042.0,4095.0,2350.0,2902.0,2551.0,-9.99,-1.25,4.96,-0.57,0.32,0.35,1.0,nice-to-meet-you
3109.0,4050.0,1015.0,3630.0,2992.0,2434.0,2746.0,2284.0,7.68,-2.72,10.16,0.32,-0.15,-0.23,0.0,2928.0,3377.0,3277.0,3027.0,4095.0,2352.0,2908.0,2549.0,-8.27,-1.13,3.65,0.22,0.05,0.13,1.0,nice-to-meet-you
3106.0,4083.0,1004.0,3603.0,2983.0,2430.0,2738.0,2284.0,8.09,-2.25,9.58,0.29,-0.06,-0.26,0.0,2920.0,3382.0,3283.0,3029.0,4095.0,2364.0,2924.0,2590.0,-8.77,-0.67,3.47,-0.01,-0.13,0.11,1.0,nice-to-meet-you
3105.0,4078.0,995.0,3626.0,2987.0,2434.0,2767.0,2301.0,8.29,-2.49,9.95,0.08,-0.26,-0.23,0.0,2928.0,3391.0,3285.0,3043.0,4095.0,2365.0,2922.0,2603.0,-8.89,-1.09,3.51,0.03,-0.05,-0.04,1.0,nice-to-meet-you
3106.0,4080.0,1009.0,3565.0,2986.0,2448.0,2756.0,2305.0,7.66,-2.2,9.87,-0.03,-0.1,-0.18,0.0,2926.0,3382.0,3291.0,3057.0,4095.0,2370.0,2928.0,2607.0,-8.85,-0.9,3.47,-0.11,0.11,0.02,1.0,nice-to-meet-you
3109.0,4093.0,999.0,3622.0,2987.0,2448.0,2767.0,2311.0,7.96,-2.28,10.0,0.01,0.02,-0.12,0.0,2926.0,3385.0,3282.0,3057.0,4095.0,2371.0,2941.0,2606.0,-8.83,-0.88,3.4,-0.12,0.05,0.04,1.0,nice-to-meet-you
3099.0,4080.0,979.0,3623.0,2986.0,2455.0,2761.0,2320.0,8.08,-2.23,9.71,-0.01,-0.06,-0.13,0.0,2922.0,3392.0,3283.0,3067.0,4095.0,2374.0,2944.0,2613.0,-8.83,-0.82,3.4,-0.07,-0.05,0.03,1.0,nice-to-meet-you
3093.0,4048.0,980.0,3629.0,2985.0,2448.0,2764.0,2331.0,8.08,-2.23,9.69,0.05,-0.08,-0.1,0.0,2927.0,3391.0,3280.0,3071.0,4095.0,2369.0,2944.0,2615.0,-9.06,-0.68,3.38,-0.04,-0.0,0.01,1.0,nice-to-meet-you
3171.0,1033.0,976.0,3893.0,3093.0,3277.0,4095.0,3366.0,9.45,-0.79,7.3,-0.01,0.15,-0.14,0.0,947.0,4095.0,874.0,3063.0,4095.0,4095.0,4095.0,3698.0,-7.1,-1.19,6.76,-0.07,0.01,-0.04,1.0,nice-to-meet-you
3216.0,1054.0,1855.0,3911.0,3105.0,3291.0,4095.0,3503.0,8.2,0.14,7.55,-0.3,-1.1,-0.36,0.0,947.0,4095.0,882.0,3106.0,4095.0,4095.0,4095.0,4042.0,-7.37,-0.92,7.1,0.13,-0.13,0.05,1.0,nice-to-meet-you
3134.0,1040.0,995.0,4001.0,3253.0,3342.0,4095.0,3286.0,10.73,1.7,1.05,-0.43,-6.09,-1.43,0.0,944.0,4095.0,936.0,2865.0,4095.0,4095.0,4095.0,2287.0,-7.38,0.34,4.63,1.17,-2.63,2.69,1.0,nice-to-meet-you
3071.0,1139.0,2403.0,4095.0,3345.0,3421.0,4095.0,3459.0,8.84,1.0,-3.54,-1.16,-3.72,-1.79,0.0,1009.0,4095.0,2931.0,2912.0,4095.0,4095.0,4095.0,1094.0,4.7,3.46,5.15,-1.22,-2.04,2.09,1.0,nice-to-meet-you
3068.0,1072.0,2974.0,4095.0,3568.0,3552.0,4095.0,3534.0,4.29,2.05,-3.74,-0.32,0.27,-0.88,0.0,1190.0,4095.0,2759.0,3049.0,4095.0,4095.0,4095.0,1840.0,-2.55,-5.76,27.07,1.69,-3.42,-0.32,1.0,nice-to-meet-you
2735.0,1060.0,2812.0,4095.0,3730.0,3513.0,4095.0,3558.0,4.78,3.01,-2.07,0.33,0.49,-0.88,0.0,1841.0,1356.0,2897.0,2976.0,4095.0,4095.0,4095.0,2288.0,8.42,2.94,8.32,-0.83,-0.16,-2.43,1.0,nice-to-meet-you
3045.0,4018.0,950.0,3915.0,3579.0,2273.0,2554.0,1839.0,8.94,4.99,-5.01,3.31,6.44,-1.63,0.0,3698.0,3108.0,3254.0,3211.0,4095.0,2399.0,3083.0,2631.0,-7.41,-0.19,4.74,1.22,3.66,0.6,1.0,nice-to-meet-you
3056.0,3600.0,1891.0,2610.0,3523.0,2006.0,2165.0,1685.0,8.88,4.14,3.43,-1.6,4.13,-0.01,0.0,3123.0,3089.0,3165.0,2801.0,4095.0,2259.0,2867.0,1980.0,-2.5,3.58,-0.93,0.24,1.69,2.15,1.0,nice-to-meet-you
3062.0,3571.0,1990.0,2622.0,3565.0,2102.0,2253.0,1669.0,12.55,2.77,7.71,-0.8,1.11,-0.75,0.0,2978.0,3108.0,3201.0,2764.0,4095.0,2288.0,2861.0,2585.0,2.21,4.31,-0.77,-2.67,1.47,-1.22,1.0,nice-to-meet-you
3059.0,3555.0,1989.0,2854.0,3290.0,2038.0,2327.0,1856.0,3.89,3.82,7.47,0.33,-1.11,0.37,0.0,2977.0,3120.0,3163.0,2839.0,4095.0,2311.0,2896.0,2697.0,-11.02,1.6,10.06,0.31,-0.12,1.73,1.0,nice-to-meet-you
3042.0,3609.0,2003.0,3119.0,2608.0,2065.0,2359.0,1877.0,8.2,0.01,6.91,-1.14,-0.45,1.07,0.0,2991.0,3109.0,3167.0,2793.0,4095.0,2325.0,2905.0,2740.0,-3.45,4.52,4.47,2.66,-1.44,1.7,1.0,nice-to-meet-you
3052.0,3579.0,2020.0,3162.0,2663.0,2104.0,2368.0,1942.0,10.35,-2.64,5.89,-1.81,-0.31,1.55,0.0,3024.0,3113.0,3182.0,2615.0,4095.0,2353.0,2905.0,2443.0,3.05,10.69,-4.07,1.83,-0.85,0.32,1.0,nice-to-meet-you
3056.0,3617.0,1805.0,3251.0,2837.0,2161.0,2421.0,1931.0,10.04,-3.52,7.89,-1.92,0.64,1.19,0.0,2942.0,3120.0,3226.0,2781.0,4095.0,2350.0,2907.0,2704.0,-0.28,-3.22,-2.6,-7.05,4.37,-6.31,1.0,nice-to-meet-you
3045.0,3734.0,1380.0,3312.0,2948.0,2287.0,2559.0,2074.0,9.18,-3.29,8.44,0.31,-0.68,-0.36,0.0,2943.0,3124.0,3230.0,2924.0,4095.0,2337.0,2909.0,2487.0,-10.72,-2.52,3.02,1.72,-4.26,-0.62,1.0,nice-to-meet-you
3056.0,3801.0,1199.0,3315.0,2933.0,2321.0,2635.0,2154.0,8.52,-3.26,7.56,0.22,-0.05,-0.29,0.0,2941.0,3136.0,3227.0,2992.0,4095.0,2367.0,2931.0,2613.0,-8.21,-0.25,4.6,-0.11,0.51,-0.01,1.0,nice-to-meet-you
3044.0,3811.0,1191.0,3293.0,2965.0,2338.0,2655.0,2159.0,8.93,-3.48,7.81,0.12,-0.12,-0.22,0.0,2935.0,3136.0,3220.0,3003.0,4095.0,2377.0,2936.0,2601.0,-8.8,-0.24,4.47,-0.16,0.34,-0.04,1.0,nice-to-meet-you
3049.0,3803.0,1196.0,3319.0,2975.0,2352.0,2653.0,2162.0,8.77,-3.21,7.69,0.06,-0.06,-0.21,0.0,2941.0,3142.0,3229.0,3003.0,4095.0,2375.0,2943.0,2608.0,-8.86,-0.19,4.35,-0.2,0.29,0.01,1.0,nice-to-meet-you
3045.0,3785.0,1187.0,3318.0,2965.0,2351.0,2663.0,2173.0,8.83,-3.11,7.78,0.04,-0.05,-0.15,0.0,2937.0,3152.0,3216.0,3006.0,4095.0,2382.0,2947.0,2619.0,-8.48,-0.05,4.23,-0.03,0.1,0.01,1.0,nice-to-meet-you
3050.0,3824.0,1185.0,3294.0,2978.0,2352.0,2674.0,2191.0,8.85,-3.12,7.81,0.02,0.04,-0.22,0.0,2939.0,3134.0,3232.0,3005.0,4095.0,2386.0,2951.0,2625.0,-8.6,-0.02,4.05,-0.05,0.04,-0.01,1.0,nice-to-meet-you
3040.0,3834.0,1201.0,3275.0,2983.0,2352.0,2671.0,2195.0,8.71,-3.02,7.98,0.04,0.01,-0.17,0.0,2941.0,3143.0,3231.0,2986.0,4095.0,2389.0,2949.0,2609.0,-8.55,-0.07,4.26,-0.06,0.02,-0.0,1.0,nice-to-meet-you
3207.0,2924.0,3878.0,4095.0,3031.0,3095.0,3842.0,3067.0,9.85,1.0,0.63,-0.12,-0.87,-0.12,0.0,969.0,3915.0,1809.0,3270.0,4095.0,4095.0,4095.0,3333.0,-2.63,3.19,9.05,-0.34,-0.09,0.46,1.0,nice-to-meet-you
3222.0,2864.0,3855.0,4095.0,2995.0,3053.0,3839.0,3015.0,9.6,1.29,-0.71,-0.25,-0.83,-0.15,0.0,973.0,4012.0,2030.0,3266.0,4095.0,4095.0,4095.0,3052.0,-2.98,2.84,9.62,-0.11,-0.4,0.57,1.0,nice-to-meet-you
3101.0,4095.0,2559.0,4095.0,3018.0,3136.0,3835.0,2978.0,8.37,2.05,-3.76,-0.66,-3.48,-0.61,0.0,1136.0,4095.0,2886.0,3046.0,4095.0,4095.0,4095.0,2384.0,3.07,3.35,5.57,-0.88,-1.03,0.46,1.0,nice-to-meet-you
2993.0,4010.0,2085.0,4095.0,3330.0,3265.0,3973.0,2938.0,13.74,0.38,1.37,-0.79,-3.19,-1.89,0.0,2311.0,4095.0,2887.0,2890.0,4095.0,4095.0,4095.0,2791.0,6.34,6.31,8.64,-2.13,4.82,-0.81,1.0,nice-to-meet-you
3023.0,4095.0,948.0,4095.0,3410.0,2611.0,3119.0,2654.0,7.4,6.06,-1.03,4.1,0.67,-3.18,0.0,1267.0,913.0,3120.0,3303.0,4095.0,4095.0,4095.0,2298.0,-1.13,-2.01,17.82,0.34,-1.96,-2.71,1.0,nice-to-meet-you
3043.0,3664.0,2439.0,3090.0,3265.0,1936.0,2002.0,1510.0,-1.47,3.12,-6.53,1.36,-0.33,-0.5,0.0,2957.0,3098.0,3667.0,2749.0,4095.0,2175.0,2799.0,1775.0,-4.63,1.89,-2.83,1.78,0.91,0.23,1.0,nice-to-meet-you
3050.0,3558.0,2987.0,3117.0,3373.0,1968.0,1997.0,1442.0,5.17,-0.28,-10.8,0.29,-1.44,-0.32,0.0,2944.0,3101.0,3522.0,2720.0,4095.0,2202.0,2838.0,1707.0,-0.11,5.18,-4.6,-2.66,-0.32,-0.17,1.0,nice-to-meet-you
3063.0,3518.0,3551.0,3171.0,3292.0,1959.0,2064.0,1562.0,6.92,0.95,3.69,-0.68,-0.84,0.0,0.0,3055.0,3156.0,3474.0,2768.0,4095.0,2192.0,2821.0,2112.0,0.68,-1.05,30.71,1.64,1.73,-0.02,1.0,nice-to-meet-you
3037.0,3691.0,3280.0,3165.0,2928.0,2065.0,2171.0,1733.0,5.98,-0.23,-3.62,-2.23,5.2,2.88,0.0,2967.0,3122.0,3671.0,2791.0,4095.0,2273.0,2856.0,2067.0,0.26,4.86,1.94,2.66,1.34,1.92,1.0,nice-to-meet-you
3050.0,3913.0,2174.0,3379.0,3010.0,2129.0,2352.0,1799.0,10.97,-0.45,-0.58,-1.8,3.64,3.41,0.0,2963.0,3118.0,3693.0,2736.0,4095.0,2289.0,2858.0,1117.0,5.45,8.52,-6.98,0.14,3.25,-0.54,1.0,nice-to-meet-you
3088.0,4095.0,1502.0,3456.0,3022.0,2218.0,2554.0,2031.0,11.49,-1.98,4.97,-0.94,4.02,1.37,0.0,2930.0,3123.0,3712.0,2827.0,4095.0,2314.0,2866.0,1587.0,4.55,0.57,-3.64,-4.85,2.17,-7.44,1.0,nice-to-meet-you
3071.0,4095.0,1011.0,3487.0,2887.0,2365.0,2762.0,2249.0,9.05,-4.05,10.25,-0.46,3.12,1.05,0.0,2940.0,3163.0,3631.0,3063.0,4095.0,2311.0,2906.0,2320.0,-21.14,-16.45,1.82,1.44,-0.84,-1.32,1.0,nice-to-meet-you
3093.0,4095.0,960.0,3539.0,3070.0,2394.0,2800.0,2304.0,8.28,-4.25,10.55,0.03,-1.12,-0.14,0.0,2925.0,3148.0,3615.0,3051.0,4095.0,2330.0,2906.0,2416.0,-10.22,-2.53,5.8,-0.08,-0.74,0.38,1.0,nice-to-meet-you
3071.0,4095.0,943.0,3523.0,3070.0,2379.0,2806.0,2308.0,8.99,-4.2,8.41,0.18,-0.57,-0.36,0.0,2917.0,3151.0,3606.0,3059.0,4095.0,2343.0,2910.0,2469.0,-8.46,-2.35,3.13,0.04,-0.09,0.19,1.0,nice-to-meet-you
3088.0,4095.0,955.0,3518.0,3071.0,2384.0,2819.0,2319.0,7.92,-4.03,8.09,0.27,0.03,-0.22,0.0,2934.0,3148.0,3602.0,3071.0,4095.0,2351.0,2919.0,2493.0,-8.68,-1.93,3.14,0.13,-0.15,0.12,1.0,nice-to-meet-you
3083.0,4095.0,945.0,3518.0,3071.0,2395.0,2813.0,2320.0,8.7,-4.36,8.08,0.2,-0.21,-0.26,0.0,2926.0,3147.0,3617.0,3071.0,4095.0,2353.0,2924.0,2518.0,-8.82,-1.46,2.99,-0.05,0.07,0.04,1.0,nice-to-meet-you
3071.0,4095.0,953.0,3551.0,3059.0,2406.0,2816.0,2351.0,8.49,-4.08,8.42,0.06,-0.01,-0.12,0.0,2912.0,3152.0,3616.0,3090.0,4095.0,2359.0,2932.0,2534.0,-8.66,-1.52,2.98,-0.11,-0.0,-0.03,1.0,nice-to-meet-you
3090.0,4095.0,945.0,3549.0,3079.0,2407.0,2832.0,2357.0,8.35,-3.83,8.04,0.11,-0.07,-0.15,0.0,2923.0,3147.0,3622.0,3093.0,4095.0,2367.0,2935.0,2544.0,-8.88,-1.64,3.1,-0.06,-0.04,-0.04,1.0,nice-to-meet-you
3067.0,4095.0,945.0,3536.0,3056.0,2416.0,2818.0,2363.0,8.47,-3.81,8.24,0.04,-0.06,-0.14,0.0,2928.0,3150.0,3617.0,3105.0,4095.0,2363.0,2932.0,2551.0,-8.73,-1.53,2.89,-0.19,0.01,0.03,1.0,nice-to-meet-you
3095.0,4095.0,947.0,3564.0,3071.0,2398.0,2832.0,2371.0,8.35,-3.78,8.24,0.07,-0.01,-0.16,0.0,2930.0,3143.0,3615.0,3109.0,4095.0,2367.0,2942.0,2559.0,-8.7,-1.45,2.93,-0.05,-0.03,-0.02,1.0,nice-to-meet-you
3148.0,1034.0,2390.0,4095.0,3286.0,3557.0,4095.0,3345.0,7.96,1.04,1.87,-0.2,-1.46,-1.01,0.0,974.0,4095.0,914.0,3167.0,4095.0,4095.0,4095.0,2522.0,-0.41,3.16,8.61,0.57,-0.55,0.42,1.0,nice-to-meet-you
3136.0,1021.0,2541.0,4041.0,3181.0,3557.0,4095.0,3463.0,8.35,1.53,0.22,0.09,-0.86,-0.4,0.0,970.0,4095.0,919.0,3152.0,4095.0,4095.0,4095.0,2501.0,-2.33,3.52,8.74,0.11,-0.34,0.23,1.0,nice-to-meet-you
3120.0,1032.0,3167.0,4023.0,3217.0,3565.0,4095.0,3318.0,7.56,2.19,-1.03,0.21,-1.93,-0.32,0.0,963.0,4095.0,1183.0,3067.0,4095.0,4095.0,4095.0,2298.0,-1.71,4.38,7.48,-0.09,-0.25,0.58,1.0,nice-to-meet-you
3117.0,1046.0,4095.0,4033.0,3289.0,3581.0,4095.0,3505.0,7.76,3.16,-3.96,-0.36,-1.99,-0.48,0.0,959.0,4095.0,2992.0,2994.0,4095.0,4095.0,4095.0,1121.0,-0.21,3.78,9.18,-0.76,-0.6,0.75,1.0,nice-to-meet-you
3138.0,1011.0,1351.0,4095.0,3499.0,3735.0,4095.0,3479.0,6.38,2.47,-0.78,-0.93,-1.83,-0.67,0.0,1032.0,4095.0,3057.0,3117.0,4095.0,4095.0,4095.0,1941.0,7.32,1.61,13.58,0.68,-0.86,-0.55,1.0,nice-to-meet-you
3013.0,1630.0,953.0,4095.0,3706.0,3729.0,4095.0,3324.0,1.94,5.86,-4.28,0.65,0.04,-0.84,0.0,2439.0,901.0,3115.0,2976.0,4095.0,4095.0,4095.0,1705.0,3.06,2.12,9.27,-1.31,1.13,-2.72,1.0,nice-to-meet-you
3121.0,3222.0,4095.0,3201.0,2983.0,1921.0,2183.0,1584.0,-1.84,3.7,-0.92,1.37,4.88,0.03,0.0,3711.0,3188.0,3186.0,2768.0,4095.0,2263.0,2878.0,2333.0,-3.03,3.17,4.32,1.52,3.58,-0.26,1.0,nice-to-meet-you
3055.0,3365.0,3551.0,3354.0,3296.0,1945.0,2105.0,1535.0,5.43,1.16,-9.13,-1.36,-0.06,-1.09,0.0,3055.0,3183.0,3165.0,2721.0,4095.0,2210.0,2811.0,1840.0,-2.92,3.95,-1.91,0.07,0.5,-0.35,1.0,nice-to-meet-you
3047.0,3310.0,3605.0,3507.0,3215.0,2061.0,2130.0,1535.0,3.82,-3.21,3.57,2.41,1.13,-0.35,0.0,3026.0,3405.0,3301.0,2798.0,4095.0,2129.0,2777.0,2164.0,-0.82,11.67,19.17,1.11,0.45,-0.26,1.0,nice-to-meet-you
3042.0,3500.0,3546.0,3504.0,2688.0,1996.0,2165.0,1642.0,4.07,-1.24,-3.87,-3.41,5.78,3.26,0.0,3020.0,3337.0,3296.0,2880.0,4095.0,2271.0,2848.0,2503.0,-1.0,5.61,1.01,1.03,2.6,1.36,1.0,nice-to-meet-you
3045.0,3583.0,3706.0,3560.0,2974.0,2093.0,2349.0,1808.0,12.0,-2.37,2.85,-2.31,5.76,2.78,0.0,2970.0,3325.0,3297.0,2675.0,4095.0,2298.0,2863.0,2390.0,5.22,8.93,-5.15,-0.8,2.32,-1.21,1.0,nice-to-meet-you
3063.0,3709.0,3509.0,3654.0,3071.0,2207.0,2589.0,1971.0,8.5,-3.86,10.19,-1.13,4.67,1.34,0.0,2938.0,3427.0,3281.0,2971.0,4095.0,2308.0,2894.0,2545.0,-17.51,-16.13,4.83,-5.76,4.79,-5.62,1.0,nice-to-meet-you
3056.0,3793.0,3339.0,3664.0,3064.0,2256.0,2643.0,2061.0,7.09,-4.27,12.17,0.01,0.39,-0.18,0.0,2933.0,3401.0,3283.0,3024.0,4095.0,2318.0,2893.0,2631.0,-12.57,-1.77,3.0,-1.14,1.5,0.3,1.0,nice-to-meet-you
3069.0,3821.0,3327.0,3651.0,2957.0,2278.0,2665.0,2082.0,7.81,-3.78,10.92,0.17,-0.48,-0.13,0.0,2928.0,3382.0,3280.0,3024.0,4095.0,2319.0,2898.0,2668.0,-8.68,-1.42,4.12,-0.27,0.57,0.13,1.0,nice-to-meet-you
3059.0,3799.0,3299.0,3617.0,2963.0,2283.0,2657.0,2095.0,7.18,-3.89,10.11,0.23,-0.08,-0.22,0.0,2936.0,3377.0,3285.0,3029.0,4095.0,2325.0,2901.0,2681.0,-8.53,-1.06,3.16,-0.0,0.09,0.09,1.0,nice-to-meet-you
3039.0,3795.0,3319.0,3621.0,3002.0,2293.0,2663.0,2096.0,7.37,-3.68,10.03,0.09,-0.27,-0.25,0.0,2926.0,3403.0,3312.0,3041.0,4095.0,2338.0,2907.0,2701.0,-8.77,-1.08,3.65,-0.03,-0.13,0.05,1.0,nice-to-meet-you
3056.0,3816.0,3273.0,3647.0,3045.0,2305.0,2679.0,2103.0,7.46,-3.61,9.67,0.07,-0.03,-0.11,0.0,2944.0,3401.0,3307.0,3040.0,4095.0,2331.0,2899.0,2700.0,-9.12,-1.21,3.55,0.03,-0.15,0.05,1.0,nice-to-meet-you
3056.0,3850.0,3271.0,3644.0,3058.0,2301.0,2673.0,2112.0,7.5,-3.28,9.57,0.05,0.03,-0.15,0.0,2937.0,3393.0,3312.0,3042.0,4095.0,2338.0,2922.0,2704.0,-8.57,-0.66,3.76,-0.08,0.03,0.05,1.0,nice-to-meet-you
3061.0,3830.0,3271.0,3638.0,3063.0,2305.0,2698.0,2125.0,7.88,-3.65,9.99,0.02,-0.06,-0.12,0.0,2925.0,3376.0,3302.0,3056.0,4095.0,2342.0,2922.0,2708.0,-8.74,-0.86,3.57,-0.05,0.05,0.01,1.0,nice-to-meet-you
3060.0,3840.0,3272.0,3660.0,3037.0,2316.0,2675.0,2121.0,7.54,-3.32,9.71,0.05,-0.08,-0.15,0.0,2947.0,3379.0,3314.0,3056.0,4095.0,2342.0,2922.0,2713.0,-8.87,-0.63,3.59,-0.17,0.14,-0.0,1.0,nice-to-meet-you
3248.0,3049.0,4095.0,3868.0,3254.0,3312.0,4095.0,3475.0,9.37,1.02,0.71,-0.84,-1.99,-0.96,0.0,945.0,4095.0,902.0,3322.0,4095.0,4095.0,4095.0,2923.0,-5.52,0.9,7.14,0.15,-1.72,1.43,1.0,nice-to-meet-you
2610.0,1057.0,2694.0,3920.0,3573.0,3874.0,4095.0,3728.0,5.37,2.76,-4.01,-0.15,-1.82,-0.67,0.0,1670.0,4095.0,2391.0,3359.0,4095.0,4095.0,4095.0,2231.0,-0.09,2.32,9.05,0.2,-0.86,1.19,1.0,nice-to-meet-you
2405.0,1055.0,2844.0,4066.0,3621.0,3866.0,4095.0,3760.0,5.23,2.94,-6.22,-0.58,-1.29,-0.26,0.0,1664.0,4095.0,2866.0,3213.0,4095.0,4095.0,4095.0,2478.0,5.09,1.19,11.42,-0.23,-0.63,-0.5,1.0,nice-to-meet-you
2781.0,1105.0,3071.0,4095.0,3747.0,3792.0,4095.0,3882.0,3.62,2.43,-2.87,0.13,0.12,-1.44,0.0,2224.0,2426.0,2837.0,3483.0,4095.0,4095.0,4095.0,2318.0,-6.1,-5.41,21.68,-0.12,3.64,-2.92,1.0,nice-to-meet-you
3054.0,3346.0,1122.0,2786.0,3392.0,2019.0,2390.0,1967.0,4.37,4.87,-2.81,2.52,3.23,-0.71,0.0,3420.0,3099.0,3279.0,3126.0,4095.0,2414.0,3011.0,2119.0,-6.64,0.15,6.07,1.63,2.73,-0.42,1.0,nice-to-meet-you
3071.0,3536.0,3551.0,3281.0,3329.0,1949.0,2043.0,1513.0,5.0,2.4,-10.13,0.15,-0.57,0.01,0.0,3187.0,3121.0,3153.0,2739.0,4095.0,2212.0,2839.0,2101.0,-3.9,4.06,-3.34,0.6,0.5,0.19,1.0,nice-to-meet-you
3054.0,3462.0,3443.0,3254.0,3422.0,1880.0,1946.0,1594.0,7.07,6.79,4.45,-1.73,-1.29,0.36,0.0,3283.0,3503.0,3149.0,2761.0,4095.0,2194.0,2805.0,2469.0,-2.14,4.89,10.25,-1.91,-0.12,0.3,1.0,nice-to-meet-you
3071.0,3636.0,3168.0,3469.0,2691.0,1939.0,2128.0,1662.0,5.75,2.52,-2.63,-0.85,4.71,0.58,0.0,3201.0,3440.0,3145.0,2913.0,4095.0,2240.0,2851.0,2530.0,-3.89,2.7,9.91,2.16,-0.51,1.51,1.0,nice-to-meet-you
3214.0,4095.0,1018.0,2320.0,2839.0,2660.0,3121.0,2351.0,7.91,-6.06,9.47,-3.68,2.32,3.78,0.0,3175.0,3389.0,3129.0,2871.0,4095.0,2320.0,2901.0,2150.0,3.39,7.92,-4.07,-0.06,0.41,-1.05,1.0,nice-to-meet-you
2924.0,1031.0,1920.0,3067.0,3318.0,3632.0,4095.0,3191.0,10.28,-9.25,11.81,-0.4,-0.76,0.9,0.0,3029.0,3466.0,3132.0,3045.0,4095.0,2336.0,2930.0,2464.0,-17.34,-15.17,5.97,-6.12,4.99,-3.51,1.0,nice-to-meet-you
3166.0,1006.0,1455.0,3103.0,3248.0,3474.0,4095.0,3365.0,7.31,-5.1,7.52,0.04,-0.28,-0.2,0.0,3033.0,3425.0,3114.0,3121.0,4095.0,2339.0,2929.0,2651.0,-10.41,0.82,3.28,-0.15,0.11,0.4,1.0,nice-to-meet-you
3206.0,1002.0,2310.0,4095.0,3214.0,3335.0,4095.0,3437.0,7.57,-5.95,7.21,0.06,-0.22,-0.27,0.0,3038.0,3411.0,3127.0,3125.0,4095.0,2352.0,2948.0,2688.0,-8.18,-0.08,3.9,0.02,0.09,0.19,1.0,nice-to-meet-you
3201.0,998.0,2250.0,4095.0,3205.0,3297.0,4095.0,3439.0,7.48,-6.26,7.2,-0.02,-0.01,-0.2,0.0,3035.0,3419.0,3122.0,3130.0,4095.0,2352.0,2944.0,2688.0,-8.45,-0.02,4.03,-0.28,0.44,0.1,1.0,nice-to-meet-you
3184.0,992.0,2559.0,4095.0,3207.0,3280.0,4095.0,3469.0,7.09,-6.2,7.28,-0.06,0.01,-0.22,0.0,3029.0,3418.0,3114.0,3127.0,4095.0,2362.0,2945.0,2694.0,-8.78,0.17,3.49,-0.01,0.1,0.02,1.0,nice-to-meet-you
3210.0,989.0,2538.0,4095.0,3211.0,3251.0,4095.0,3472.0,7.29,-6.19,7.17,-0.0,-0.0,-0.14,0.0,3029.0,3411.0,3125.0,3130.0,4095.0,2363.0,2959.0,2704.0,-8.88,0.21,3.49,-0.07,0.03,0.03,1.0,nice-to-meet-you
3206.0,989.0,2559.0,4095.0,3221.0,3234.0,4095.0,3473.0,7.39,-6.06,7.11,0.05,-0.04,-0.19,0.0,3035.0,3408.0,3130.0,3134.0,4095.0,2366.0,2959.0,2707.0,-8.88,0.2,3.64,-0.07,-0.08,0.05,1.0,nice-to-meet-you
3191.0,1001.0,2528.0,4095.0,3212.0,3206.0,4095.0,3456.0,7.19,-5.95,7.15,0.07,-0.02,-0.21,0.0,3024.0,3411.0,3120.0,3113.0,4095.0,2367.0,2960.0,2721.0,-8.69,0.37,3.75,0.0,-0.09,0.03,1.0,nice-to-meet-you
3201.0,987.0,2559.0,4095.0,3221.0,3184.0,4095.0,3428.0,7.35,-5.99,7.18,0.08,0.01,-0.17,0.0,3022.0,3423.0,3131.0,3119.0,4095.0,2368.0,2961.0,2736.0,-8.78,0.29,3.86,-0.05,-0.08,0.02,1.0,nice-to-meet-you
3182.0,1003.0,2485.0,4095.0,3227.0,3171.0,4095.0,3394.0,7.42,-5.94,7.2,0.04,-0.18,-0.18,0.0,3027.0,3409.0,3120.0,3123.0,4095.0,2369.0,2962.0,2739.0,-8.8,0.42,3.84,-0.12,0.08,0.05,1.0,nice-to-meet-you
3189.0,979.0,2416.0,4095.0,3216.0,3166.0,4095.0,3393.0,7.52,-6.09,7.21,0.04,0.03,-0.17,0.0,3034.0,3418.0,3131.0,3129.0,4095.0,2370.0,2963.0,2746.0,-8.68,0.66,3.73,-0.08,0.11,-0.01,1.0,nice-to-meet-you
2797.0,983.0,2985.0,4022.0,3305.0,3494.0,4095.0,3763.0,4.59,3.39,-2.43,0.05,-0.57,-0.68,0.0,975.0,1561.0,2294.0,2955.0,4095.0,4095.0,4095.0,2294.0,1.06,2.92,9.3,0.03,-0.67,0.84,1.0,nice-to-meet-you
2819.0,987.0,3205.0,3909.0,3312.0,3523.0,4095.0,3654.0,4.94,3.92,-2.97,0.03,-0.35,-0.19,0.0,955.0,976.0,2554.0,3131.0,4095.0,4095.0,4095.0,1267.0,1.62,2.38,10.36,-0.29,-0.03,0.35,1.0,nice-to-meet-you
2975.0,969.0,3373.0,4014.0,3389.0,3537.0,4095.0,3667.0,4.24,5.11,-4.25,-0.09,-0.59,-0.13,0.0,946.0,960.0,2559.0,3120.0,4095.0,4095.0,4095.0,1473.0,2.19,3.09,8.58,-0.64,-0.16,0.31,1.0,nice-to-meet-you
3147.0,988.0,3190.0,4045.0,3454.0,3648.0,4095.0,3765.0,3.68,3.75,-2.85,-0.19,0.19,-0.61,0.0,973.0,945.0,3277.0,3217.0,4095.0,4095.0,4095.0,2647.0,2.8,0.29,10.15,0.09,-0.24,-2.03,1.0,nice-to-meet-you
3057.0,991.0,1232.0,4095.0,3534.0,3583.0,4095.0,3786.0,2.9,4.03,-0.23,-0.11,0.84,-0.75,0.0,971.0,1063.0,2522.0,3558.0,4095.0,4095.0,4095.0,2483.0,-0.83,-2.06,19.12,1.31,-0.38,-2.55,1.0,nice-to-meet-you
3071.0,4043.0,976.0,3631.0,3295.0,2390.0,2679.0,1986.0,9.02,5.23,-1.43,3.49,6.68,-0.42,0.0,2607.0,3221.0,3553.0,2929.0,4095.0,2430.0,3028.0,1952.0,-5.26,1.13,6.19,2.78,1.77,-0.52,1.0,nice-to-meet-you
3041.0,3775.0,2707.0,2822.0,3337.0,1965.0,2125.0,1502.0,4.24,5.45,1.08,0.14,4.48,-0.96,0.0,3058.0,3238.0,3231.0,2705.0,4095.0,2224.0,2823.0,2295.0,-0.8,4.02,-3.68,1.74,0.97,-0.34,1.0,nice-to-meet-you
3054.0,3726.0,3069.0,3243.0,3486.0,1929.0,2147.0,1613.0,11.28,5.06,-3.72,0.51,-5.46,0.06,0.0,3034.0,3268.0,3258.0,2658.0,4095.0,2223.0,2819.0,2495.0,-2.96,2.94,0.65,-3.58,-1.13,-1.42,1.0,nice-to-meet-you
3043.0,3759.0,2730.0,3415.0,3117.0,2006.0,2175.0,1791.0,4.43,3.17,1.52,-2.74,7.01,3.47,0.0,3101.0,3822.0,3153.0,3030.0,4095.0,2233.0,2822.0,2496.0,-3.68,2.06,13.75,1.79,2.08,0.99,1.0,nice-to-meet-you
3120.0,4095.0,2286.0,3730.0,3312.0,2555.0,2928.0,2339.0,7.99,-1.47,10.16,-3.93,2.35,3.33,0.0,3034.0,3698.0,3139.0,2862.0,4095.0,2339.0,2873.0,1836.0,4.58,8.77,-8.9,-0.75,3.38,-0.61,1.0,nice-to-meet-you
3093.0,4095.0,951.0,3987.0,3276.0,3199.0,3805.0,2890.0,10.0,-6.93,11.75,-1.26,0.39,0.9,0.0,2939.0,3951.0,3142.0,3058.0,4095.0,2383.0,2918.0,2278.0,-11.38,-12.76,4.54,-8.38,5.19,-6.67,1.0,nice-to-meet-you
3090.0,4095.0,960.0,3916.0,3419.0,3252.0,4080.0,3159.0,7.77,-5.68,11.22,-0.33,0.11,0.01,0.0,2928.0,3911.0,3153.0,3119.0,4095.0,2390.0,2916.0,2384.0,-14.6,-3.22,4.15,0.53,-0.93,-0.12,1.0,nice-to-meet-you
3126.0,4095.0,966.0,3920.0,3244.0,3191.0,4033.0,3083.0,7.21,-4.27,9.48,0.07,-0.23,-0.02,0.0,2944.0,3881.0,3156.0,3149.0,4095.0,2403.0,2925.0,2321.0,-8.86,-1.26,4.63,0.28,-0.14,0.07,1.0,nice-to-meet-you
3153.0,4095.0,958.0,3875.0,3233.0,3199.0,4016.0,3107.0,7.64,-4.9,9.24,0.19,-0.14,-0.16,0.0,2947.0,3866.0,3149.0,3146.0,4095.0,2407.0,2929.0,2453.0,-8.78,-1.09,3.15,0.23,-0.32,0.03,1.0,nice-to-meet-you
3146.0,4095.0,978.0,3873.0,3216.0,3183.0,4014.0,3090.0,7.7,-4.67,8.69,0.16,-0.21,-0.14,0.0,2941.0,3859.0,3152.0,3152.0,4095.0,2415.0,2939.0,2444.0,-9.3,-0.93,3.55,-0.04,0.1,0.24,1.0,nice-to-meet-you
3154.0,4095.0,1255.0,3760.0,3212.0,3127.0,4005.0,3142.0,7.67,-4.8,8.55,0.05,0.05,-0.13,0.0,2949.0,3866.0,3146.0,3152.0,4095.0,2418.0,2945.0,2386.0,-8.8,-0.26,3.87,0.15,-0.27,-0.01,1.0,nice-to-meet-you
3143.0,4095.0,1294.0,3723.0,3221.0,3088.0,3963.0,3141.0,7.55,-4.82,8.76,-0.01,-0.1,-0.17,0.0,2954.0,3862.0,3154.0,3135.0,4095.0,2426.0,2946.0,2427.0,-9.03,-0.27,3.2,-0.07,0.04,0.03,1.0,nice-to-meet-you
3151.0,4095.0,1829.0,3662.0,3211.0,3056.0,3959.0,3154.0,7.53,-4.86,8.9,0.04,-0.0,-0.11,0.0,2944.0,3843.0,3157.0,3131.0,4095.0,2427.0,2937.0,2462.0,-8.87,-0.13,3.46,-0.09,0.09,-0.02,1.0,nice-to-meet-you
3162.0,4095.0,1984.0,3708.0,3216.0,3069.0,3942.0,3159.0,7.65,-4.76,8.66,0.06,0.01,-0.11,0.0,2957.0,3857.0,3152.0,3145.0,4095.0,2436.0,2950.0,2435.0,-8.87,-0.11,3.2,0.07,-0.14,-0.03,1.0,nice-to-meet-you
3155.0,4095.0,1872.0,3693.0,3230.0,3034.0,3937.0,3153.0,7.51,-4.65,8.56,0.03,-0.03,-0.16,0.0,2960.0,3862.0,3162.0,3143.0,4095.0,2432.0,2954.0,2517.0,-8.88,-0.16,3.23,0.02,-0.14,-0.02,1.0,nice-to-meet-you
3206.0,4095.0,3514.0,3856.0,3106.0,3040.0,3855.0,3216.0,8.89,1.41,1.69,-0.2,-4.79,-1.27,0.0,944.0,3749.0,1959.0,3096.0,4095.0,4095.0,4095.0,2605.0,-2.51,3.13,9.73,0.39,-0.59,1.13,1.0,nice-to-meet-you
3071.0,4095.0,2909.0,3907.0,3179.0,3209.0,4095.0,3347.0,9.7,1.87,-1.03,-0.12,-1.87,-1.28,0.0,931.0,4095.0,2169.0,3088.0,4095.0,4095.0,4095.0,1103.0,-1.39,3.13,8.49,0.17,-0.81,0.88,1.0,nice-to-meet-you
2998.0,4095.0,2928.0,4095.0,3236.0,3394.0,4095.0,3411.0,6.47,2.73,-2.24,-0.03,-2.55,-0.54,0.0,938.0,4095.0,2448.0,3103.0,4095.0,4095.0,4095.0,993.0,-0.44,3.69,8.22,-0.54,-0.93,1.08,1.0,nice-to-meet-you
2906.0,3901.0,3342.0,4095.0,3641.0,3665.0,4095.0,3639.0,4.01,3.52,-0.65,-0.28,1.41,-0.45,0.0,973.0,1079.0,2817.0,3374.0,4095.0,4095.0,4095.0,1872.0,-2.08,-2.39,15.2,-0.87,1.91,-2.99,1.0,nice-to-meet-you
3053.0,974.0,1243.0,3732.0,3489.0,2534.0,3315.0,2723.0,2.98,5.16,0.25,3.62,1.26,-1.43,0.0,1365.0,3168.0,3246.0,3491.0,4095.0,2775.0,3440.0,2738.0,-11.13,-2.15,11.39,3.93,0.02,-0.64,1.0,nice-to-meet-you
3056.0,4095.0,2276.0,3501.0,3329.0,1911.0,1997.0,1678.0,4.33,0.93,-10.4,-0.45,-0.31,-0.84,0.0,3282.0,3152.0,3243.0,2807.0,4095.0,2225.0,2830.0,1951.0,-6.46,2.36,2.24,0.54,1.21,0.2,1.0,nice-to-meet-you
3053.0,4095.0,2873.0,3718.0,3398.0,1881.0,2062.0,1557.0,6.53,1.17,-4.95,-0.04,1.33,-0.07,0.0,3177.0,3523.0,3099.0,2743.0,4095.0,2209.0,2815.0,2163.0,1.22,-7.15,40.11,1.49,-2.27,-0.96,1.0,nice-to-meet-you
3056.0,4095.0,2641.0,3450.0,2782.0,1949.0,2089.0,1654.0,4.48,1.78,-3.46,-0.6,3.72,1.82,0.0,3062.0,3390.0,3101.0,2768.0,4095.0,2311.0,2877.0,2303.0,1.81,8.99,-4.84,0.74,2.8,0.38,1.0,nice-to-meet-you
3115.0,1040.0,2868.0,3831.0,3248.0,2754.0,3271.0,2559.0,8.56,-4.33,10.41,-4.11,5.01,2.82,0.0,2974.0,3375.0,3122.0,2861.0,4095.0,2316.0,2887.0,2559.0,1.85,0.43,-2.42,-6.02,3.7,-6.29,1.0,nice-to-meet-you
3102.0,951.0,3765.0,3907.0,3339.0,3008.0,3704.0,2915.0,7.92,-6.22,13.9,-0.63,0.9,0.06,0.0,2970.0,3418.0,3111.0,3062.0,4095.0,2346.0,2897.0,2502.0,-13.11,-3.61,2.05,0.92,-1.92,-0.56,1.0,nice-to-meet-you
3135.0,949.0,3751.0,3771.0,3280.0,3051.0,3725.0,3033.0,7.5,-3.91,8.37,0.37,0.79,-0.02,0.0,2947.0,3407.0,3105.0,3058.0,4095.0,2356.0,2913.0,2678.0,-9.01,-1.15,3.51,-0.04,0.18,0.13,1.0,nice-to-meet-you
3129.0,943.0,3809.0,3749.0,3262.0,2983.0,3702.0,3047.0,8.39,-4.38,8.58,0.04,-0.37,-0.2,0.0,2957.0,3423.0,3117.0,3061.0,4095.0,2366.0,2925.0,2649.0,-8.75,-0.49,3.59,-0.06,0.17,0.06,1.0,nice-to-meet-you
3124.0,956.0,3819.0,3742.0,3271.0,2960.0,3694.0,3061.0,7.79,-4.09,8.64,-0.01,-0.08,-0.19,0.0,2971.0,3398.0,3117.0,3083.0,4095.0,2373.0,2928.0,2654.0,-8.87,-0.47,3.35,-0.04,0.24,0.05,1.0,nice-to-meet-you
3120.0,957.0,3875.0,3663.0,3276.0,2951.0,3696.0,3033.0,8.25,-4.12,8.55,0.11,-0.05,-0.18,0.0,2963.0,3408.0,3123.0,3085.0,4095.0,2372.0,2934.0,2686.0,-8.77,-0.12,3.1,0.09,-0.1,0.0,1.0,nice-to-meet-you
3143.0,947.0,3859.0,3698.0,3285.0,2946.0,3707.0,3029.0,8.15,-4.09,8.37,0.07,-0.05,-0.16,0.0,2973.0,3403.0,3101.0,3066.0,4095.0,2373.0,2937.0,2675.0,-8.78,-0.14,3.13,-0.0,-0.06,-0.04,1.0,nice-to-meet-you
3147.0,949.0,3842.0,3696.0,3279.0,2929.0,3665.0,3015.0,8.21,-4.12,8.35,0.02,0.03,-0.16,0.0,2967.0,3405.0,3113.0,3088.0,4095.0,2381.0,2940.0,2668.0,-9.09,-0.33,3.2,0.02,-0.12,-0.05,1.0,nice-to-meet-you
3134.0,956.0,3840.0,3687.0,3273.0,2915.0,3669.0,3041.0,8.14,-3.99,8.42,-0.01,-0.04,-0.18,0.0,2964.0,3414.0,3106.0,3101.0,4095.0,2375.0,2945.0,2679.0,-8.96,-0.4,3.54,-0.04,-0.06,-0.04,1.0,nice-to-meet-you
3148.0,943.0,3871.0,3651.0,3293.0,2896.0,3683.0,3021.0,8.19,-3.94,8.28,0.04,0.01,-0.14,0.0,2954.0,3407.0,3105.0,3098.0,4095.0,2368.0,2928.0,2705.0,-8.96,-0.33,3.21,-0.07,0.03,0.01,1.0,nice-to-meet-you
3146.0,943.0,3857.0,3631.0,3292.0,2877.0,3686.0,3033.0,8.26,-4.04,8.27,0.0,-0.0,-0.16,0.0,2960.0,3413.0,3107.0,3106.0,4095.0,2383.0,2955.0,2703.0,-8.8,-0.15,3.31,-0.05,0.04,-0.03,1.0,nice-to-meet-you
3134.0,953.0,3831.0,3609.0,3285.0,2901.0,3676.0,3038.0,8.21,-4.03,8.38,0.0,0.01,-0.14,0.0,2955.0,3408.0,3103.0,3113.0,4095.0,2387.0,2951.0,2677.0,-9.12,-0.26,3.29,-0.03,-0.01,-0.05,1.0,nice-to-meet-you
3206.0,938.0,3790.0,3679.0,3186.0,2896.0,3617.0,3094.0,8.77,-2.37,7.68,0.07,-0.16,-0.05,0.0,4032.0,3790.0,3265.0,3214.0,4095.0,4095.0,4095.0,3505.0,-6.87,0.88,6.96,0.11,-0.12,0.29,1.0,nice-to-meet-you
3190.0,950.0,3851.0,3782.0,3187.0,2926.0,3632.0,3070.0,12.98,-1.27,3.96,-0.77,-4.97,-1.49,0.0,4095.0,4095.0,1962.0,2992.0,4095.0,4095.0,4095.0,3242.0,-6.39,2.81,4.96,0.11,-3.51,1.28,1.0,nice-to-meet-you
3059.0,983.0,2615.0,4048.0,3299.0,3108.0,3821.0,3223.0,11.92,1.7,-4.47,-2.29,-6.26,-3.4,0.0,3562.0,1042.0,2807.0,2995.0,4095.0,4095.0,4095.0,2809.0,2.13,2.39,8.66,-0.92,-3.53,1.72,1.0,nice-to-meet-you
2870.0,971.0,2781.0,4095.0,3347.0,3367.0,4095.0,3540.0,2.58,-1.92,11.26,-0.47,-3.4,-1.67,0.0,4095.0,1394.0,2973.0,3163.0,4095.0,4095.0,4095.0,2343.0,17.23,4.56,8.71,1.95,-2.81,-1.06,1.0,nice-to-meet-you
2949.0,1023.0,3059.0,4095.0,3623.0,3626.0,4095.0,3488.0,10.07,2.39,-2.41,-1.3,0.56,-1.84,0.0,4095.0,1291.0,3088.0,2903.0,4095.0,4095.0,4095.0,2592.0,3.63,1.75,7.82,-1.84,1.45,-2.75,1.0,nice-to-meet-you
3055.0,1191.0,998.0,3642.0,3191.0,1957.0,2130.0,1876.0,-0.52,6.4,-4.33,2.3,0.49,-1.82,0.0,2674.0,3407.0,1557.0,3563.0,4095.0,3687.0,4095.0,3232.0,-9.4,-3.94,14.59,2.25,3.3,-2.59,1.0,nice-to-meet-you
3063.0,4095.0,3366.0,3375.0,3456.0,1859.0,2067.0,1472.0,9.57,2.83,10.02,1.46,-1.38,-1.08,0.0,3175.0,3130.0,3057.0,2847.0,4095.0,2231.0,2862.0,1744.0,-0.25,6.67,-3.49,-1.65,-0.57,0.41,1.0,nice-to-meet-you
3062.0,4095.0,973.0,3520.0,3445.0,1872.0,2046.0,1717.0,3.31,1.43,-2.77,-0.76,2.0,0.65,0.0,3135.0,3361.0,3037.0,3008.0,4095.0,2251.0,2853.0,2396.0,-2.21,3.16,13.37,2.23,0.86,1.4,1.0,nice-to-meet-you
3121.0,3760.0,1929.0,3505.0,2780.0,1936.0,2151.0,1829.0,3.32,2.51,-2.97,-2.91,6.34,3.47,0.0,3098.0,3339.0,3031.0,2942.0,4095.0,2262.0,2877.0,2422.0,-0.01,6.87,0.51,0.53,4.31,1.48,1.0,nice-to-meet-you
2954.0,973.0,3596.0,3535.0,3355.0,2459.0,2964.0,2310.0,8.04,1.77,4.52,-4.35,4.23,4.88,0.0,3088.0,3298.0,3041.0,2893.0,4095.0,2308.0,2891.0,1789.0,6.55,9.05,-6.08,-0.96,3.28,-1.85,1.0,nice-to-meet-you
3053.0,1008.0,2729.0,3738.0,3438.0,3169.0,3761.0,3216.0,11.31,-4.55,13.03,-2.86,2.78,1.94,0.0,2944.0,3379.0,3033.0,3088.0,4095.0,2320.0,2928.0,2277.0,-21.86,-22.62,3.3,-5.88,4.45,-6.14,1.0,nice-to-meet-you
3140.0,1616.0,2950.0,3776.0,3408.0,3271.0,4040.0,3403.0,8.58,-5.3,12.22,0.35,-0.11,-0.19,0.0,2950.0,3334.0,3050.0,3133.0,4095.0,2356.0,2926.0,2441.0,-12.48,-1.27,2.53,-1.08,0.94,0.36,1.0,nice-to-meet-you
3167.0,1498.0,3017.0,3719.0,3337.0,3184.0,4003.0,3335.0,8.52,-3.76,9.33,0.19,-0.68,-0.65,0.0,2958.0,3338.0,3034.0,3150.0,4095.0,2361.0,2933.0,2480.0,-8.77,-1.76,3.7,-0.16,0.23,0.08,1.0,nice-to-meet-you
3185.0,1535.0,3063.0,3680.0,3327.0,3161.0,3973.0,3335.0,7.89,-3.79,8.33,0.26,0.09,-0.1,0.0,2955.0,3347.0,3046.0,3136.0,4095.0,2372.0,2938.0,2378.0,-8.42,-1.3,2.83,-0.18,0.36,0.07,1.0,nice-to-meet-you
3209.0,1535.0,3085.0,3711.0,3312.0,3135.0,3923.0,3362.0,8.27,-3.9,8.26,0.2,-0.06,-0.05,0.0,2966.0,3328.0,3053.0,3153.0,4095.0,2368.0,2938.0,2409.0,-8.77,-1.17,3.05,-0.04,0.05,-0.02,1.0,nice-to-meet-you
3201.0,1554.0,3054.0,3599.0,3292.0,3113.0,3922.0,3373.0,8.42,-3.78,8.37,0.07,0.03,-0.14,0.0,2986.0,3335.0,3046.0,3166.0,4095.0,2384.0,2951.0,2526.0,-8.95,-1.1,2.96,-0.22,0.22,0.06,1.0,nice-to-meet-you
3199.0,1535.0,3067.0,3621.0,3307.0,3115.0,3941.0,3351.0,8.39,-3.91,8.52,0.1,-0.07,-0.12,0.0,2991.0,3342.0,3051.0,3167.0,4095.0,2377.0,2949.0,2537.0,-8.81,-0.85,2.91,-0.12,0.09,0.05,1.0,nice-to-meet-you
3203.0,1566.0,3055.0,3632.0,3290.0,3098.0,3952.0,3351.0,8.25,-3.87,8.18,0.13,-0.05,-0.15,0.0,2983.0,3326.0,3049.0,3165.0,4095.0,2380.0,2957.0,2522.0,-8.31,-0.81,2.93,0.34,-0.35,0.09,1.0,nice-to-meet-you
3201.0,1535.0,3056.0,3632.0,3305.0,3081.0,3904.0,3353.0,8.33,-3.84,8.1,0.06,0.0,-0.16,0.0,2978.0,3329.0,3039.0,3165.0,4095.0,2377.0,2957.0,2543.0,-9.13,-1.19,3.01,-0.01,-0.05,-0.1,1.0,nice-to-meet-you
3183.0,1558.0,3081.0,3644.0,3289.0,3051.0,3892.0,3359.0,8.16,-3.78,8.22,-0.01,-0.01,-0.14,0.0,2979.0,3326.0,3050.0,3167.0,4095.0,2381.0,2960.0,2525.0,-9.16,-0.91,2.99,-0.15,0.11,-0.03,1.0,nice-to-meet-you
3290.0,972.0,3069.0,4031.0,3292.0,3020.0,3931.0,3415.0,9.54,-1.18,7.84,-0.26,-1.56,-0.74,0.0,944.0,4095.0,1281.0,3344.0,4095.0,4095.0,4095.0,2752.0,-6.34,1.54,10.05,0.39,-0.51,-0.08,1.0,nice-to-meet-you
3226.0,1008.0,3152.0,4095.0,2899.0,3221.0,3967.0,3461.0,10.53,1.59,-0.21,-0.32,-3.21,-2.04,0.0,947.0,4095.0,1372.0,3270.0,4095.0,4095.0,4095.0,2658.0,-5.5,0.83,8.17,0.45,-0.17,0.58,1.0,nice-to-meet-you
3218.0,1008.0,3071.0,4095.0,3179.0,3248.0,3969.0,3407.0,8.04,1.55,-0.91,-0.28,-1.75,-0.96,0.0,951.0,4095.0,2047.0,3312.0,4095.0,4095.0,4095.0,2329.0,-2.32,1.7,9.02,0.02,-1.12,1.39,1.0,nice-to-meet-you
3078.0,1008.0,2973.0,4095.0,3280.0,3258.0,3987.0,3407.0,6.84,2.83,-4.5,-0.85,-2.22,-1.07,0.0,975.0,4095.0,3134.0,3237.0,4095.0,4095.0,4095.0,1136.0,5.17,3.22,6.77,-0.75,-1.34,1.11,1.0,nice-to-meet-you
3098.0,1021.0,3317.0,4095.0,3417.0,3334.0,4095.0,3165.0,9.59,1.86,-4.79,-0.29,0.79,-1.32,0.0,1101.0,4095.0,3030.0,3121.0,4095.0,4095.0,4095.0,2736.0,5.06,2.09,8.94,-0.85,1.12,-0.57,1.0,nice-to-meet-you
2950.0,1407.0,2445.0,4095.0,3611.0,3461.0,4095.0,3537.0,3.82,3.95,-2.65,0.98,2.49,-1.59,0.0,1148.0,1212.0,2784.0,3568.0,4095.0,4095.0,4095.0,3109.0,-2.14,-1.35,18.93,1.77,0.44,-2.96,1.0,nice-to-meet-you
3065.0,1005.0,1008.0,4089.0,3335.0,2032.0,2405.0,1943.0,3.97,5.75,-4.47,2.54,3.27,-2.31,0.0,3745.0,3053.0,3827.0,2890.0,4095.0,2322.0,2942.0,1653.0,-4.04,3.12,2.65,1.05,5.06,-1.53,1.0,nice-to-meet-you
3040.0,4095.0,1462.0,3472.0,3334.0,1859.0,2001.0,1600.0,6.76,2.52,-5.51,-0.32,-0.23,-0.32,0.0,3015.0,3350.0,3283.0,2892.0,4095.0,2208.0,2768.0,2306.0,0.55,-5.1,35.81,0.09,-3.11,-0.1,1.0,nice-to-meet-you
3058.0,4095.0,1789.0,3549.0,3383.0,1872.0,2081.0,1652.0,4.2,1.24,-3.31,-0.29,0.83,0.52,0.0,3005.0,3325.0,3271.0,2991.0,4095.0,2265.0,2836.0,2387.0,-9.61,-0.21,15.92,0.85,0.28,1.39,1.0,nice-to-meet-you
3552.0,3376.0,1341.0,3661.0,2922.0,1945.0,2167.0,1771.0,5.57,1.76,-3.28,-1.67,4.32,2.45,0.0,3014.0,3302.0,3325.0,2914.0,4095.0,2304.0,2855.0,2528.0,-3.08,4.81,2.69,2.09,1.07,2.52,1.0,nice-to-meet-you
2928.0,1031.0,2117.0,3787.0,3342.0,3043.0,3674.0,2899.0,9.89,-3.29,9.09,-2.5,3.99,2.11,0.0,2930.0,3334.0,3280.0,3069.0,4095.0,2331.0,2901.0,2057.0,-15.36,-19.11,4.15,-7.8,7.35,-6.71,1.0,nice-to-meet-you
2983.0,1005.0,2703.0,3807.0,3221.0,3150.0,3885.0,3215.0,8.37,-3.82,11.75,-0.48,0.56,0.28,0.0,2930.0,3312.0,3294.0,3134.0,4095.0,2343.0,2899.0,2544.0,-11.16,0.73,1.2,-0.65,0.5,0.21,1.0,nice-to-meet-you
3045.0,986.0,2815.0,3747.0,3221.0,3162.0,3920.0,3252.0,9.5,-3.45,8.89,0.33,-0.64,-0.02,0.0,2928.0,3318.0,3290.0,3158.0,4095.0,2366.0,2916.0,2514.0,-9.33,-0.8,3.7,0.28,-0.67,0.13,1.0,nice-to-meet-you
3058.0,1054.0,2923.0,3741.0,3203.0,3150.0,3927.0,3273.0,8.24,-3.42,8.42,0.18,-0.09,-0.03,0.0,2932.0,3305.0,3280.0,3157.0,4095.0,2365.0,2925.0,2527.0,-9.03,-0.49,3.31,0.17,-0.48,0.13,1.0,nice-to-meet-you
3081.0,1391.0,2967.0,3741.0,3184.0,3181.0,3974.0,3386.0,8.61,-3.62,8.2,0.3,-0.16,-0.12,0.0,2939.0,3323.0,3287.0,3163.0,4095.0,2367.0,2928.0,2485.0,-8.78,-0.3,3.2,-0.06,-0.26,0.13,1.0,nice-to-meet-you
3094.0,1446.0,3019.0,3677.0,3103.0,3181.0,3988.0,3396.0,8.68,-3.84,8.14,0.15,-0.16,-0.1,0.0,2942.0,3302.0,3267.0,3179.0,4095.0,2371.0,2931.0,2429.0,-8.88,-0.32,3.16,0.06,-0.35,0.02,1.0,nice-to-meet-you
3070.0,1629.0,3007.0,3693.0,3163.0,3153.0,4033.0,3445.0,8.39,-3.71,8.05,0.05,-0.08,-0.14,0.0,2932.0,3312.0,3273.0,3178.0,4095.0,2383.0,2934.0,2389.0,-9.17,-0.23,2.67,-0.11,0.14,0.05,1.0,nice-to-meet-you
3097.0,1690.0,3024.0,3702.0,3113.0,3133.0,4045.0,3469.0,8.55,-3.8,8.1,0.01,0.01,-0.2,0.0,2935.0,3307.0,3271.0,3184.0,4095.0,2378.0,2933.0,2515.0,-8.97,-0.14,3.11,-0.09,-0.04,0.0,1.0,nice-to-meet-you
3085.0,1713.0,3003.0,3687.0,3120.0,3125.0,4021.0,3453.0,8.3,-3.91,8.29,-0.01,0.01,-0.2,0.0,2944.0,3314.0,3280.0,3186.0,4095.0,2380.0,2941.0,2534.0,-8.89,-0.11,2.84,-0.11,-0.0,-0.01,1.0,nice-to-meet-you
3084.0,2394.0,2944.0,3706.0,3157.0,3101.0,4050.0,3434.0,8.19,-3.79,8.26,0.01,0.02,-0.15,0.0,2937.0,3310.0,3276.0,3187.0,4095.0,2379.0,2943.0,2544.0,-9.0,-0.04,2.85,-0.05,-0.04,-0.01,1.0,nice-to-meet-you
3275.0,2219.0,3485.0,3680.0,3060.0,2919.0,3925.0,3084.0,9.93,-1.93,6.72,-0.02,-1.6,-0.68,0.0,961.0,4095.0,1596.0,3232.0,4095.0,4095.0,4095.0,3209.0,-6.97,-1.02,7.54,-0.03,-0.1,0.38,1.0,nice-to-meet-you
3227.0,2098.0,3819.0,3665.0,3094.0,2957.0,3875.0,3152.0,9.58,-1.62,5.19,0.1,-1.65,-0.79,0.0,954.0,4095.0,1892.0,3242.0,4095.0,4095.0,4095.0,2964.0,-8.05,-1.02,7.65,0.65,-1.37,0.67,1.0,nice-to-meet-you
3033.0,965.0,2643.0,4095.0,3232.0,3269.0,4095.0,3234.0,9.16,1.0,-5.19,-1.31,-5.63,-2.13,0.0,994.0,4095.0,3210.0,3082.0,4095.0,4095.0,4095.0,1758.0,1.38,2.0,7.05,-0.56,-1.56,1.11,1.0,nice-to-meet-you
3089.0,989.0,2993.0,4095.0,3515.0,3583.0,4095.0,3466.0,10.3,-3.14,1.8,-1.45,1.72,-1.52,0.0,1363.0,4095.0,2966.0,2961.0,4095.0,4095.0,4095.0,3145.0,5.74,4.88,7.67,-2.77,5.77,0.03,1.0,nice-to-meet-you
3003.0,1893.0,2735.0,4095.0,3603.0,3166.0,3822.0,3493.0,6.9,3.56,-1.01,2.72,0.7,-2.55,0.0,1959.0,3069.0,1178.0,3467.0,4095.0,3223.0,4095.0,2830.0,-10.31,-3.53,12.41,2.93,1.21,-1.39,1.0,nice-to-meet-you
3063.0,4095.0,1070.0,3381.0,3402.0,1791.0,1991.0,1647.0,4.92,1.56,-8.03,-0.54,-0.19,-0.64,0.0,3278.0,3104.0,3253.0,2815.0,4095.0,2247.0,2879.0,2019.0,-7.37,1.65,-1.23,0.07,2.91,-0.22,1.0,nice-to-meet-you
3068.0,4030.0,1646.0,3402.0,3282.0,1775.0,2122.0,1557.0,7.31,2.13,2.18,-1.2,-0.63,0.44,0.0,3149.0,3348.0,3229.0,2928.0,4095.0,2256.0,2790.0,2443.0,-3.4,1.92,15.55,-0.47,-0.48,0.13,1.0,nice-to-meet-you
3121.0,4095.0,1159.0,3621.0,3201.0,1881.0,2107.0,1731.0,3.85,2.63,-3.81,-1.28,3.39,0.05,0.0,3083.0,3340.0,3246.0,3008.0,4095.0,2285.0,2864.0,2215.0,-6.69,0.86,7.38,1.87,1.21,2.58,1.0,nice-to-meet-you
3447.0,4095.0,926.0,3615.0,3101.0,2027.0,2350.0,1898.0,7.76,2.01,-0.62,-2.27,6.03,3.17,0.0,3062.0,3323.0,3265.0,2967.0,4095.0,2319.0,2891.0,2305.0,-0.55,5.26,0.85,1.09,2.3,2.11,1.0,nice-to-meet-you
3019.0,1013.0,3776.0,3728.0,3312.0,2479.0,3132.0,2497.0,10.92,-2.95,5.74,-3.22,4.46,2.54,0.0,3023.0,3312.0,3298.0,2874.0,4095.0,2328.0,2896.0,2375.0,4.98,9.83,-5.22,0.04,1.16,-1.0,1.0,nice-to-meet-you
2995.0,985.0,3056.0,3794.0,3262.0,2791.0,3467.0,2908.0,7.11,-5.09,11.85,-1.23,2.14,0.93,0.0,2960.0,3450.0,3278.0,3152.0,4095.0,2326.0,2925.0,1894.0,-21.52,-18.43,3.23,-5.63,5.13,-5.62,1.0,nice-to-meet-you
3027.0,992.0,3187.0,3764.0,3303.0,2805.0,3504.0,2931.0,8.07,-5.45,11.44,-0.16,-0.82,-0.55,0.0,2946.0,3403.0,3276.0,3155.0,4095.0,2343.0,2922.0,2747.0,-10.4,1.65,1.57,0.05,-0.3,0.26,1.0,nice-to-meet-you
3059.0,990.0,3310.0,3753.0,3232.0,2800.0,3487.0,2915.0,8.15,-4.02,10.0,0.02,-0.35,-0.15,0.0,2950.0,3390.0,3270.0,3164.0,4095.0,2355.0,2928.0,2773.0,-9.28,-0.25,3.1,0.09,-0.22,0.03,1.0,nice-to-meet-you
3071.0,985.0,3285.0,3665.0,3221.0,2751.0,3485.0,2934.0,7.85,-4.13,8.87,0.37,-0.16,-0.2,0.0,2949.0,3398.0,3278.0,3152.0,4095.0,2361.0,2941.0,2783.0,-8.64,0.52,2.51,0.05,-0.17,0.06,1.0,nice-to-meet-you
3057.0,983.0,3309.0,3683.0,3202.0,2740.0,3478.0,2937.0,8.02,-3.94,8.37,0.08,-0.14,-0.19,0.0,2960.0,3387.0,3280.0,3163.0,4095.0,2362.0,2942.0,2807.0,-9.1,-0.01,2.8,-0.02,-0.07,-0.08,1.0,nice-to-meet-you
3083.0,970.0,3273.0,3663.0,3212.0,2743.0,3519.0,2948.0,8.18,-4.05,8.81,0.05,-0.22,-0.13,0.0,2957.0,3398.0,3283.0,3184.0,4095.0,2373.0,2945.0,2815.0,-9.19,0.03,2.79,-0.08,0.02,0.01,1.0,nice-to-meet-you
3079.0,969.0,3279.0,3653.0,3227.0,2726.0,3521.0,2944.0,8.48,-3.9,8.3,0.03,-0.01,-0.15,0.0,2959.0,3387.0,3277.0,3184.0,4095.0,2381.0,2950.0,2832.0,-8.99,0.31,2.77,-0.14,-0.01,0.01,1.0,nice-to-meet-you
3094.0,963.0,3281.0,3648.0,3230.0,2713.0,3506.0,2969.0,8.15,-3.79,8.39,0.02,-0.04,-0.19,0.0,2951.0,3391.0,3262.0,3182.0,4095.0,2378.0,2960.0,2842.0,-9.1,0.22,2.72,-0.06,-0.04,-0.01,1.0,nice-to-meet-you
3118.0,960.0,3248.0,3664.0,3248.0,2735.0,3507.0,2987.0,8.13,-3.94,8.47,0.01,0.01,-0.13,0.0,2958.0,3402.0,3264.0,3184.0,4095.0,2384.0,2960.0,2843.0,-9.14,0.24,2.86,-0.02,-0.05,-0.02,1.0,nice-to-meet-you
3093.0,977.0,3242.0,3643.0,3237.0,2722.0,3524.0,2963.0,8.33,-3.85,8.25,0.04,-0.02,-0.15,0.0,2958.0,3392.0,3271.0,3180.0,4095.0,2389.0,2966.0,2845.0,-9.15,0.28,2.84,-0.06,0.04,0.0,1.0,nice-to-meet-you
3174.0,964.0,3637.0,3648.0,3200.0,2704.0,3499.0,2943.0,8.58,-3.2,7.23,0.11,-0.08,-0.24,0.0,2535.0,3171.0,2940.0,3199.0,4095.0,3390.0,4095.0,3234.0,-6.74,-1.0,6.83,0.16,-0.41,0.04,1.0,nice-to-meet-you
3197.0,960.0,3843.0,3665.0,3200.0,2724.0,3504.0,2951.0,8.97,-3.44,7.28,-0.02,0.04,-0.19,0.0,2541.0,3264.0,1830.0,3131.0,4095.0,3551.0,4095.0,3271.0,-7.37,-0.68,8.19,0.66,-0.86,0.13,1.0,nice-to-meet-you
3203.0,981.0,3959.0,3746.0,3216.0,2754.0,3502.0,2959.0,9.78,-3.19,7.17,-0.04,-0.62,-0.35,0.0,2510.0,3195.0,1676.0,2953.0,4095.0,4007.0,4095.0,4095.0,-5.78,0.75,8.66,0.91,-0.66,0.37,1.0,nice-to-meet-you
2741.0,2247.0,3536.0,4095.0,3244.0,2867.0,3763.0,3088.0,10.52,-1.3,2.43,-0.63,-7.41,-2.05,0.0,2496.0,897.0,2507.0,3009.0,4095.0,4095.0,4095.0,2931.0,-8.87,1.19,3.46,0.54,-2.58,1.15,1.0,nice-to-meet-you
2678.0,1665.0,2843.0,4095.0,3135.0,3374.0,4095.0,3467.0,9.75,0.56,-4.71,-1.6,-4.46,-2.96,0.0,1882.0,947.0,2814.0,3088.0,4095.0,4095.0,4095.0,2801.0,1.77,0.96,7.52,-1.07,-2.59,1.96,1.0,nice-to-meet-you
2887.0,1049.0,3110.0,4095.0,3678.0,3630.0,4095.0,3307.0,3.23,2.59,-2.55,-0.52,0.64,-0.51,0.0,2423.0,1309.0,3088.0,2791.0,4095.0,4095.0,4095.0,2852.0,3.64,0.36,9.22,-1.78,0.4,-2.87,1.0,nice-to-meet-you
3036.0,2435.0,993.0,4095.0,3568.0,3318.0,3767.0,3200.0,2.87,3.36,-1.67,1.88,-0.34,-2.99,0.0,2359.0,2890.0,2026.0,3741.0,4095.0,3071.0,4025.0,3475.0,-15.71,-3.91,11.68,3.97,0.32,-1.49,1.0,nice-to-meet-you
3057.0,3956.0,1153.0,3792.0,3198.0,1852.0,2031.0,1681.0,-1.61,3.17,-5.33,2.55,0.45,-1.28,0.0,3239.0,3129.0,3259.0,2803.0,4095.0,2250.0,2864.0,1703.0,-5.97,2.27,-0.16,0.7,2.53,-1.02,1.0,nice-to-meet-you
3071.0,3492.0,2606.0,3339.0,3351.0,1861.0,2064.0,1437.0,3.69,5.63,1.98,2.01,-0.41,0.17,0.0,3029.0,3185.0,3287.0,2765.0,4095.0,2259.0,2865.0,2381.0,-3.32,2.99,-2.72,-2.77,-0.09,-0.78,1.0,nice-to-meet-you
3071.0,3767.0,1872.0,3714.0,3269.0,1927.0,2091.0,1707.0,3.75,1.51,-2.66,-0.26,2.15,-0.04,0.0,3015.0,3450.0,3221.0,2992.0,4095.0,2319.0,2864.0,2559.0,-6.64,0.4,10.26,2.08,0.84,1.91,1.0,nice-to-meet-you
3103.0,4095.0,1258.0,3641.0,3169.0,1999.0,2167.0,1790.0,5.02,0.92,-2.58,-2.99,5.36,3.28,0.0,2978.0,3414.0,3232.0,3022.0,4095.0,2347.0,2896.0,2460.0,-2.15,2.57,1.39,2.07,1.43,2.57,1.0,nice-to-meet-you
3033.0,4095.0,3439.0,3687.0,3369.0,2448.0,2987.0,2291.0,12.52,-2.62,4.85,-3.2,4.1,3.43,0.0,2992.0,3395.0,3258.0,2795.0,4095.0,2355.0,2899.0,2097.0,6.43,10.77,-7.4,-0.2,2.01,-1.3,1.0,nice-to-meet-you
2890.0,989.0,3231.0,3715.0,3217.0,2942.0,3681.0,2949.0,9.79,-4.57,10.51,0.27,0.05,-0.2,0.0,2930.0,3425.0,3275.0,3091.0,4095.0,2383.0,2933.0,2606.0,-11.63,0.66,2.32,-0.41,0.61,0.35,1.0,nice-to-meet-you
2905.0,977.0,3325.0,3694.0,3206.0,2923.0,3669.0,2977.0,8.3,-3.23,8.83,0.16,-0.14,-0.03,0.0,2935.0,3440.0,3264.0,3109.0,4095.0,2389.0,2942.0,2788.0,-9.0,-1.06,3.62,0.01,-0.3,0.14,1.0,nice-to-meet-you
2901.0,983.0,3271.0,3664.0,3231.0,2934.0,3682.0,3018.0,7.93,-3.59,9.14,0.2,-0.01,-0.14,0.0,2942.0,3433.0,3275.0,3095.0,4095.0,2397.0,2945.0,2833.0,-8.86,-0.44,3.05,-0.3,0.56,0.17,1.0,nice-to-meet-you
2935.0,989.0,3287.0,3650.0,3233.0,2896.0,3678.0,2987.0,8.46,-3.64,8.51,0.1,-0.42,-0.13,0.0,2947.0,3423.0,3278.0,3117.0,4095.0,2397.0,2955.0,2864.0,-8.74,-0.29,3.12,-0.07,0.47,-0.08,1.0,nice-to-meet-you
2991.0,983.0,3359.0,3691.0,3205.0,2882.0,3661.0,3013.0,8.76,-3.55,7.88,0.13,-0.04,-0.2,0.0,2951.0,3406.0,3280.0,3119.0,4095.0,2409.0,2966.0,2869.0,-9.33,-0.31,2.73,-0.18,0.15,0.09,1.0,nice-to-meet-you
2973.0,965.0,3339.0,3647.0,3223.0,2878.0,3681.0,3039.0,8.6,-3.51,7.93,0.03,-0.09,-0.11,0.0,2955.0,3415.0,3281.0,3131.0,4095.0,2406.0,2958.0,2832.0,-8.97,-0.35,2.84,-0.09,0.11,-0.01,1.0,nice-to-meet-you
2976.0,969.0,3314.0,3657.0,3219.0,2852.0,3694.0,3025.0,8.76,-3.43,7.88,0.02,0.0,-0.13,0.0,2948.0,3410.0,3280.0,3129.0,4095.0,2407.0,2972.0,2743.0,-9.23,-0.23,2.9,-0.08,0.1,-0.07,1.0,nice-to-meet-you
2989.0,967.0,3301.0,3656.0,3223.0,2847.0,3683.0,3034.0,8.39,-3.52,8.33,0.12,0.09,-0.17,0.0,2946.0,3408.0,3273.0,3123.0,4095.0,2409.0,2974.0,2754.0,-8.82,-0.07,2.74,-0.04,-0.02,-0.05,1.0,nice-to-meet-you
3067.0,2039.0,2960.0,3729.0,3046.0,2999.0,3801.0,3229.0,10.04,-1.8,7.12,0.32,-0.36,-0.06,0.0,1447.0,4095.0,1081.0,3123.0,4095.0,4095.0,4095.0,4095.0,-6.57,-0.05,8.37,-0.11,-0.16,0.06,1.0,nice-to-meet-you
2706.0,965.0,3629.0,4003.0,3312.0,3307.0,4095.0,3511.0,9.66,-1.27,6.57,-0.26,-1.92,-0.54,0.0,950.0,4095.0,2698.0,3141.0,4095.0,4095.0,4095.0,3051.0,-11.5,0.17,8.11,0.19,0.5,0.76,1.0,nice-to-meet-you
2534.0,996.0,2609.0,4095.0,3563.0,3781.0,4095.0,3666.0,6.45,0.56,-4.37,-1.31,-1.26,-1.92,0.0,963.0,4095.0,3223.0,3050.0,4095.0,4095.0,4095.0,1926.0,-3.76,0.82,3.13,-0.1,-2.34,3.19,1.0,nice-to-meet-you
3081.0,1008.0,2985.0,4095.0,3717.0,3951.0,4095.0,3645.0,5.88,2.12,-4.93,-0.06,1.62,-1.67,0.0,1385.0,1872.0,3018.0,3049.0,4095.0,4095.0,4095.0,882.0,6.25,0.49,11.83,0.4,-1.17,-2.01,1.0,nice-to-meet-you
3059.0,1502.0,1935.0,3807.0,3421.0,2032.0,2387.0,2038.0,0.04,7.05,-3.62,2.02,3.14,-3.38,0.0,3351.0,3120.0,3246.0,2964.0,4095.0,2343.0,2954.0,2807.0,-8.82,2.67,3.18,2.59,1.17,-1.27,1.0,nice-to-meet-you
3051.0,4095.0,919.0,3477.0,3301.0,1862.0,2000.0,1711.0,0.9,1.53,-8.2,0.68,-1.33,-0.29,0.0,3007.0,3172.0,3443.0,2815.0,4095.0,2318.0,2864.0,2251.0,-5.16,2.75,-4.98,-0.0,-0.67,0.57,1.0,nice-to-meet-you
3071.0,4017.0,904.0,3658.0,3350.0,1888.0,2082.0,1698.0,6.08,0.64,-3.33,-0.32,1.47,0.27,0.0,2993.0,3427.0,3187.0,2961.0,4095.0,2332.0,2832.0,2453.0,-6.71,-1.59,17.64,1.4,-0.42,1.04,1.0,nice-to-meet-you
3123.0,4095.0,2421.0,3850.0,3255.0,1975.0,2192.0,1838.0,4.86,2.08,-4.51,-2.04,6.24,1.63,0.0,3005.0,3408.0,3214.0,2944.0,4095.0,2366.0,2875.0,2525.0,-1.04,3.93,0.96,1.0,2.76,2.61,1.0,nice-to-meet-you
2470.0,1593.0,3611.0,3824.0,3331.0,2281.0,2757.0,2131.0,7.97,0.61,2.09,-3.44,4.8,4.43,0.0,2973.0,3391.0,3215.0,2831.0,4095.0,2401.0,2885.0,2260.0,7.78,8.49,-5.86,0.83,1.69,-1.2,1.0,nice-to-meet-you
2849.0,1009.0,3477.0,3792.0,3318.0,2559.0,3198.0,2598.0,10.65,-1.71,9.96,-2.11,1.97,1.65,0.0,2927.0,3631.0,3242.0,3098.0,4095.0,2411.0,2921.0,2558.0,-21.58,-21.87,2.84,-7.9,7.46,-7.37,1.0,nice-to-meet-you
2922.0,986.0,3473.0,3757.0,3250.0,2675.0,3355.0,2707.0,9.55,-2.5,8.63,-0.01,-0.1,0.09,0.0,2935.0,3504.0,3253.0,3138.0,4095.0,2430.0,2924.0,2768.0,-8.97,-1.05,2.06,-0.04,0.33,0.21,1.0,nice-to-meet-you
2987.0,992.0,3625.0,3633.0,3286.0,2666.0,3355.0,2759.0,9.35,-3.17,6.57,0.07,-0.54,-0.09,0.0,2928.0,3511.0,3264.0,3142.0,4095.0,2441.0,2938.0,2829.0,-8.79,-0.3,2.03,0.0,-0.11,0.11,1.0,nice-to-meet-you
2977.0,985.0,3632.0,3671.0,3293.0,2667.0,3365.0,2763.0,9.45,-3.4,6.58,-0.0,0.05,-0.18,0.0,2941.0,3521.0,3254.0,3162.0,4095.0,2441.0,2938.0,2726.0,-9.28,-1.11,2.37,-0.47,0.38,0.03,1.0,nice-to-meet-you
2998.0,992.0,3645.0,3667.0,3266.0,2645.0,3388.0,2775.0,9.06,-3.35,7.05,-0.12,0.11,-0.16,0.0,2931.0,3515.0,3267.0,3174.0,4095.0,2436.0,2933.0,2718.0,-9.18,-0.41,1.94,-0.18,-0.0,-0.03,1.0,nice-to-meet-you
3008.0,989.0,3649.0,3631.0,3283.0,2662.0,3379.0,2761.0,8.92,-3.23,6.88,0.04,-0.02,-0.17,0.0,2938.0,3503.0,3251.0,3171.0,4095.0,2443.0,2939.0,2739.0,-9.21,-0.77,2.38,-0.09,0.02,-0.08,1.0,nice-to-meet-you
3022.0,972.0,3634.0,3645.0,3253.0,2651.0,3383.0,2768.0,9.06,-3.16,6.73,0.06,-0.09,-0.18,0.0,2927.0,3520.0,3263.0,3170.0,4095.0,2445.0,2941.0,2785.0,-9.45,-0.92,2.87,-0.23,0.04,-0.08,1.0,nice-to-meet-you
3047.0,974.0,3671.0,3693.0,3229.0,2649.0,3377.0,2768.0,9.11,-3.27,6.8,0.11,-0.05,-0.22,0.0,2937.0,3510.0,3264.0,3190.0,4095.0,2444.0,2946.0,2795.0,-8.93,-0.33,2.43,-0.1,0.11,-0.04,1.0,nice-to-meet-you
3088.0,970.0,3679.0,3658.0,3215.0,2648.0,3394.0,2782.0,9.15,-3.34,6.68,0.1,-0.06,-0.17,0.0,2934.0,3509.0,3269.0,3184.0,4095.0,2451.0,2946.0,2816.0,-9.29,-0.66,2.67,-0.07,0.0,-0.09,1.0,nice-to-meet-you
3117.0,970.0,3655.0,3679.0,3205.0,2639.0,3394.0,2791.0,9.03,-3.1,6.63,0.02,-0.04,-0.09,0.0,2938.0,3517.0,3280.0,3184.0,4095.0,2457.0,2955.0,2835.0,-9.36,-0.7,2.71,-0.14,0.0,0.02,1.0,nice-to-meet-you
3138.0,969.0,3635.0,3701.0,3207.0,2639.0,3392.0,2800.0,8.95,-3.17,6.85,-0.01,-0.03,-0.14,0.0,2940.0,3507.0,3270.0,3200.0,4095.0,2454.0,2960.0,2845.0,-8.73,-0.42,2.61,-0.08,-0.06,0.05,1.0,nice-to-meet-you
3696.0,998.0,3248.0,4095.0,3151.0,2896.0,3543.0,2942.0,9.31,-0.52,-0.15,-0.15,-2.5,-1.29,0.0,995.0,4095.0,2720.0,3260.0,4095.0,4095.0,4095.0,4080.0,-6.04,0.13,7.98,0.38,-0.96,0.64,1.0,nice-to-meet-you
2930.0,1011.0,3216.0,4095.0,2879.0,3043.0,3643.0,3052.0,8.14,-0.72,-0.99,-0.25,-1.46,-0.72,0.0,1067.0,4095.0,2943.0,3265.0,4095.0,4095.0,4095.0,3696.0,-2.97,0.8,9.59,-0.06,-0.86,0.64,1.0,nice-to-meet-you
2690.0,985.0,2659.0,4095.0,3466.0,3706.0,4095.0,3427.0,5.53,0.17,0.32,-1.49,-3.45,-0.84,0.0,1488.0,4095.0,2948.0,3130.0,4095.0,4095.0,4095.0,2774.0,-0.69,1.85,7.11,-0.62,-1.21,0.73,1.0,nice-to-meet-you
3067.0,1556.0,3024.0,4095.0,3703.0,3781.0,4095.0,3578.0,5.86,0.29,-1.86,-0.65,0.55,-1.78,0.0,2128.0,1127.0,3070.0,3253.0,4095.0,4095.0,4095.0,2016.0,1.82,-0.76,9.23,-0.34,-1.57,-3.18,1.0,nice-to-meet-you
3061.0,3706.0,1796.0,3783.0,3367.0,1843.0,2002.0,1670.0,1.23,3.35,-8.79,2.35,-1.91,-0.6,0.0,2128.0,3103.0,1851.0,3635.0,4095.0,3017.0,4078.0,3087.0,-15.39,-4.06,7.36,3.09,5.94,-1.18,1.0,nice-to-meet-you
3050.0,3632.0,2274.0,3518.0,3380.0,1866.0,1990.0,1643.0,3.32,-0.32,-7.2,0.16,-0.8,-0.91,0.0,3017.0,3233.0,3366.0,2801.0,4095.0,2288.0,2821.0,2390.0,-3.41,3.16,0.24,-0.97,-4.42,-1.12,1.0,nice-to-meet-you
3055.0,3498.0,3071.0,3487.0,3431.0,1831.0,2058.0,1451.0,7.04,-0.22,-1.15,-0.83,-0.81,0.42,0.0,3089.0,3415.0,3258.0,2805.0,4095.0,2262.0,2793.0,2511.0,-6.24,2.48,19.59,2.62,-4.38,0.2,1.0,nice-to-meet-you
3091.0,3963.0,1814.0,3687.0,3246.0,1959.0,2157.0,1744.0,6.01,2.18,-3.95,-3.91,6.57,1.44,0.0,3017.0,3408.0,3353.0,2869.0,4095.0,2307.0,2863.0,2384.0,-2.25,3.21,-0.29,0.44,4.8,1.96,1.0,nice-to-meet-you
2879.0,1127.0,3184.0,3673.0,3183.0,3415.0,3882.0,3051.0,10.11,-4.09,10.4,-2.87,2.39,2.33,0.0,2935.0,3517.0,3325.0,3154.0,4095.0,2339.0,2950.0,1345.0,-32.1,-22.69,4.37,-3.46,1.69,-3.91,1.0,nice-to-meet-you
2415.0,1070.0,2992.0,3733.0,3440.0,3536.0,4049.0,3239.0,9.67,-5.7,11.95,0.21,-0.08,0.39,0.0,2928.0,3446.0,3408.0,3110.0,4095.0,2383.0,2924.0,2325.0,-10.59,0.86,3.8,-0.54,1.28,0.03,1.0,nice-to-meet-you
2559.0,964.0,3343.0,3741.0,3312.0,3386.0,4095.0,3263.0,7.24,-4.35,7.94,0.29,-0.86,-0.41,0.0,2935.0,3435.0,3403.0,3117.0,4095.0,2394.0,2941.0,2754.0,-8.54,0.25,2.63,-0.07,0.1,0.55,1.0,nice-to-meet-you
2739.0,966.0,3393.0,3751.0,3266.0,3219.0,4018.0,3230.0,7.92,-4.6,7.34,-0.03,0.13,-0.28,0.0,2937.0,3452.0,3390.0,3145.0,4095.0,2397.0,2948.0,2813.0,-9.43,-0.12,3.46,-0.11,0.07,-0.01,1.0,nice-to-meet-you
2736.0,963.0,3404.0,3738.0,3275.0,3238.0,4048.0,3244.0,8.22,-4.61,7.53,-0.19,0.0,-0.22,0.0,2934.0,3440.0,3408.0,3151.0,4095.0,2404.0,2947.0,2846.0,-8.96,-0.36,3.61,0.02,-0.12,0.03,1.0,nice-to-meet-you
3071.0,971.0,3344.0,3728.0,3086.0,3200.0,3984.0,3215.0,8.21,-4.7,7.73,-0.01,0.03,-0.19,0.0,2923.0,3454.0,3408.0,3143.0,4095.0,2407.0,2952.0,2859.0,-9.13,-0.03,2.97,0.0,-0.17,-0.03,1.0,nice-to-meet-you
3099.0,960.0,3338.0,3738.0,3333.0,3143.0,3956.0,3167.0,8.24,-4.99,7.82,-0.01,0.09,-0.14,0.0,2934.0,3447.0,3392.0,3153.0,4095.0,2405.0,2950.0,2879.0,-8.76,-0.15,3.61,-0.07,-0.18,0.0,1.0,nice-to-meet-you
3087.0,968.0,3340.0,3775.0,3327.0,3136.0,3975.0,3190.0,7.73,-4.68,7.55,0.07,-0.07,-0.17,0.0,2927.0,3442.0,3408.0,3155.0,4095.0,2407.0,2960.0,2882.0,-8.88,-0.04,3.17,0.05,-0.06,-0.05,1.0,nice-to-meet-you
3104.0,961.0,3343.0,3746.0,3299.0,3136.0,3938.0,3167.0,8.04,-4.77,7.72,0.03,-0.09,-0.12,0.0,2929.0,3442.0,3408.0,3158.0,4095.0,2407.0,2956.0,2898.0,-8.88,0.09,3.18,-0.06,-0.04,-0.04,1.0,nice-to-meet-you
3103.0,953.0,3339.0,3761.0,3309.0,3113.0,3949.0,3200.0,7.93,-4.67,7.61,-0.0,-0.02,-0.12,0.0,2938.0,3459.0,3411.0,3170.0,4095.0,2406.0,2959.0,2895.0,-9.07,-0.11,3.34,-0.11,0.03,-0.04,1.0,nice-to-meet-you
3120.0,953.0,3330.0,3782.0,3280.0,3114.0,3947.0,3182.0,8.27,-4.76,7.61,0.03,-0.14,-0.09,0.0,2930.0,3440.0,3405.0,3167.0,4095.0,2415.0,2953.0,2901.0,-8.98,0.14,3.19,-0.11,-0.02,0.01,1.0,nice-to-meet-you
3136.0,961.0,3371.0,3786.0,3214.0,3116.0,3975.0,3198.0,8.24,-4.68,7.54,0.04,-0.15,-0.28,0.0,2923.0,3450.0,3406.0,3152.0,4095.0,2416.0,2961.0,2915.0,-8.92,0.14,3.21,-0.1,-0.03,0.01,1.0,nice-to-meet-you
3088.0,975.0,3171.0,3818.0,3272.0,3231.0,4055.0,3298.0,10.01,-2.44,3.68,-1.2,-3.48,-1.02,0.0,3045.0,4095.0,3088.0,3600.0,4095.0,4095.0,4095.0,3425.0,-5.32,0.17,6.77,0.38,-0.35,0.49,1.0,nice-to-meet-you
3212.0,991.0,3100.0,3977.0,3276.0,3315.0,4095.0,3344.0,9.94,-1.5,3.01,-0.19,-0.51,-0.59,0.0,3136.0,4095.0,3089.0,3607.0,4095.0,4095.0,4095.0,3675.0,-3.77,1.69,8.78,-0.17,-0.6,0.58,1.0,nice-to-meet-you
3026.0,1004.0,2978.0,4095.0,3194.0,3583.0,4095.0,3542.0,6.92,1.64,-4.67,-0.44,-3.62,-1.48,0.0,3107.0,4095.0,3094.0,3519.0,4095.0,4095.0,4095.0,3458.0,-5.52,1.88,7.69,0.21,-1.68,0.54,1.0,nice-to-meet-you
3086.0,1017.0,2545.0,4095.0,3453.0,3583.0,4095.0,3439.0,5.83,1.3,0.54,0.14,-2.58,-1.8,0.0,1014.0,4095.0,3071.0,3232.0,4095.0,4095.0,4095.0,3629.0,13.38,1.31,8.74,1.26,-5.01,-0.09,1.0,nice-to-meet-you
2967.0,1862.0,2163.0,4095.0,3654.0,3414.0,3675.0,3118.0,5.87,2.34,-1.39,3.14,1.05,-2.95,0.0,2528.0,4095.0,3005.0,3728.0,4095.0,4095.0,4095.0,3654.0,-8.86,-7.66,19.12,2.13,2.4,-2.01,1.0,nice-to-meet-you
3057.0,3806.0,1072.0,3597.0,3264.0,1840.0,2022.0,1694.0,-2.62,1.84,-7.0,1.53,1.79,-1.3,0.0,3216.0,3117.0,4095.0,2698.0,4095.0,2281.0,2941.0,2129.0,-4.34,3.14,-0.63,1.24,3.42,-0.79,1.0,nice-to-meet-you
1406.0,3470.0,2027.0,3303.0,3186.0,1718.0,1934.0,1617.0,8.95,5.8,6.27,1.41,-1.43,0.61,0.0,3113.0,3159.0,3437.0,2879.0,4095.0,2239.0,2849.0,2519.0,-6.01,0.99,20.21,0.99,-0.9,0.96,1.0,nice-to-meet-you
3130.0,3553.0,1676.0,3542.0,3131.0,1899.0,2063.0,1693.0,4.23,0.84,-3.93,-1.55,3.59,-0.44,0.0,3056.0,3161.0,3645.0,2943.0,4095.0,2288.0,2864.0,2719.0,-5.06,0.02,10.07,2.98,0.89,2.18,1.0,nice-to-meet-you
2864.0,4095.0,3631.0,3583.0,3280.0,2320.0,2820.0,2245.0,10.09,0.11,4.11,-3.56,3.41,2.73,0.0,3020.0,3154.0,4089.0,2679.0,4095.0,2346.0,2895.0,2511.0,5.5,10.11,-7.88,1.19,2.03,-0.39,1.0,nice-to-meet-you
3259.0,1312.0,3269.0,3707.0,2832.0,2802.0,3408.0,2674.0,8.94,-4.52,11.06,-1.23,2.38,0.98,0.0,2947.0,3204.0,4021.0,3008.0,4095.0,2359.0,2922.0,2449.0,-15.18,-16.12,5.61,-8.44,5.56,-7.63,1.0,nice-to-meet-you
3113.0,1138.0,3366.0,3727.0,2875.0,2864.0,3475.0,2798.0,9.75,-7.04,12.51,-0.52,0.04,0.17,0.0,2941.0,3200.0,3972.0,3101.0,4095.0,2355.0,2907.0,2862.0,-12.88,-1.31,1.55,1.41,-3.05,0.29,1.0,nice-to-meet-you
3271.0,1001.0,3565.0,3691.0,3029.0,2842.0,3491.0,2811.0,6.89,-4.08,9.79,0.03,-0.08,0.03,0.0,2965.0,3183.0,3962.0,3114.0,4095.0,2367.0,2909.0,2915.0,-9.02,-0.51,4.57,-0.22,0.41,0.28,1.0,nice-to-meet-you
3343.0,1003.0,3648.0,3696.0,3049.0,2829.0,3494.0,2832.0,7.75,-5.12,9.26,0.08,-0.22,-0.27,0.0,2959.0,3216.0,3993.0,3122.0,4095.0,2372.0,2926.0,2934.0,-8.43,-0.19,2.81,0.17,-0.53,0.03,1.0,nice-to-meet-you
3351.0,976.0,3654.0,3697.0,3030.0,2830.0,3472.0,2853.0,7.39,-4.85,8.57,0.19,-0.44,-0.19,0.0,2954.0,3205.0,4016.0,3121.0,4095.0,2384.0,2928.0,2917.0,-9.38,-1.0,3.6,0.06,-0.25,0.04,1.0,nice-to-meet-you
3376.0,977.0,3647.0,3666.0,3071.0,2794.0,3487.0,2871.0,7.71,-4.84,8.48,0.15,-0.25,-0.12,0.0,2951.0,3204.0,4034.0,3133.0,4095.0,2385.0,2929.0,2928.0,-9.02,-0.48,3.4,-0.26,0.24,0.1,1.0,nice-to-meet-you
3393.0,992.0,3650.0,3659.0,3062.0,2786.0,3471.0,2866.0,7.8,-4.58,8.22,0.07,-0.23,-0.15,0.0,2943.0,3193.0,4032.0,3134.0,4095.0,2385.0,2928.0,2929.0,-8.79,-0.31,3.17,-0.11,0.03,-0.03,1.0,nice-to-meet-you
3424.0,993.0,3663.0,3636.0,3052.0,2793.0,3496.0,2867.0,8.04,-4.65,7.98,0.12,-0.0,-0.13,0.0,2953.0,3199.0,4049.0,3135.0,4095.0,2390.0,2937.0,2938.0,-9.05,-0.4,3.13,-0.13,0.12,-0.12,1.0,nice-to-meet-you
3399.0,988.0,3667.0,3621.0,3040.0,2771.0,3486.0,2870.0,7.93,-4.62,7.91,0.04,-0.09,-0.15,0.0,2955.0,3212.0,4043.0,3150.0,4095.0,2402.0,2945.0,2947.0,-9.1,-0.48,3.26,-0.09,-0.03,-0.02,1.0,nice-to-meet-you
3395.0,982.0,3741.0,3632.0,2927.0,2781.0,3482.0,2865.0,7.96,-4.75,8.03,0.01,-0.03,-0.15,0.0,2960.0,3213.0,4075.0,3152.0,4095.0,2399.0,2949.0,2964.0,-9.14,-0.48,3.17,-0.09,-0.03,-0.03,1.0,nice-to-meet-you
3373.0,981.0,3760.0,3607.0,2992.0,2761.0,3470.0,2859.0,8.03,-4.75,7.91,0.02,-0.04,-0.12,0.0,2961.0,3205.0,4063.0,3154.0,4095.0,2405.0,2954.0,2978.0,-9.03,-0.33,3.19,-0.11,-0.0,0.02,1.0,nice-to-meet-you
3134.0,998.0,3533.0,3659.0,3088.0,2855.0,3532.0,2976.0,8.68,-3.82,7.55,0.04,-0.17,-0.21,0.0,1002.0,3763.0,880.0,3120.0,4095.0,4095.0,4095.0,3939.0,-6.89,-2.09,6.86,0.04,-0.01,-0.14,1.0,nice-to-meet-you
3153.0,1004.0,3280.0,3665.0,3264.0,3439.0,4095.0,3514.0,9.11,-3.19,7.38,0.03,-1.16,-0.59,0.0,994.0,3759.0,882.0,3095.0,4095.0,4095.0,4095.0,3934.0,-6.9,-2.11,6.73,0.05,-0.15,-0.1,1.0,nice-to-meet-you
2587.0,980.0,2971.0,3967.0,3134.0,3822.0,4095.0,3685.0,11.38,-0.98,0.92,-0.66,-7.28,-2.36,0.0,978.0,4078.0,1059.0,2999.0,4095.0,4095.0,4095.0,3451.0,-9.49,-1.07,4.67,1.58,-3.39,1.66,1.0,nice-to-meet-you
2542.0,989.0,2814.0,4095.0,3445.0,4076.0,4095.0,3568.0,3.21,-5.03,27.58,1.02,-5.3,-1.75,0.0,1013.0,4095.0,2944.0,3109.0,4095.0,4095.0,4095.0,3157.0,2.51,2.23,4.98,-0.13,-2.58,1.88,1.0,nice-to-meet-you
2553.0,1010.0,3279.0,4095.0,3670.0,3925.0,4095.0,3776.0,3.45,1.74,0.17,-0.34,1.08,-1.49,0.0,1123.0,1118.0,2847.0,3088.0,4095.0,4095.0,4095.0,2931.0,0.98,-1.67,9.27,-1.34,-0.05,-3.19,1.0,nice-to-meet-you
2659.0,4095.0,1219.0,4095.0,3467.0,3218.0,3791.0,3152.0,6.02,5.7,-1.72,3.21,5.73,-3.14,0.0,2252.0,3084.0,2511.0,3472.0,4095.0,3258.0,4095.0,3381.0,-12.28,-3.95,10.58,4.86,0.78,-1.58,1.0,nice-to-meet-you
3101.0,3374.0,1648.0,3467.0,3246.0,1792.0,2009.0,1659.0,8.18,-0.15,-7.35,-0.59,-0.97,-0.15,0.0,3015.0,3157.0,3295.0,2800.0,4095.0,2270.0,2834.0,2427.0,-1.63,3.85,2.54,-1.87,-0.46,-0.33,1.0,nice-to-meet-you
3121.0,3482.0,1922.0,3613.0,3345.0,1843.0,2047.0,1699.0,3.03,1.49,-2.03,-1.69,1.75,0.47,0.0,3087.0,3250.0,3241.0,2921.0,4095.0,2286.0,2864.0,2478.0,-8.0,0.28,12.7,2.66,-1.01,0.98,1.0,nice-to-meet-you
1328.0,3983.0,1037.0,3459.0,3318.0,2000.0,2343.0,1909.0,3.66,0.33,-0.4,-2.84,4.32,3.74,0.0,2995.0,3257.0,3267.0,2922.0,4095.0,2337.0,2880.0,2486.0,-3.97,3.07,2.08,2.84,-0.1,1.87,1.0,nice-to-meet-you
3017.0,1045.0,2175.0,3846.0,3170.0,2957.0,3700.0,3071.0,9.01,-7.08,13.68,-1.29,2.81,1.8,0.0,2949.0,3299.0,3258.0,2983.0,4095.0,2398.0,2939.0,2346.0,-19.31,-18.56,3.3,-6.85,6.88,-6.7,1.0,nice-to-meet-you
3133.0,997.0,2129.0,3658.0,3234.0,2944.0,3763.0,3125.0,7.98,-4.32,8.65,0.58,-0.44,-0.21,0.0,2928.0,3275.0,3264.0,3026.0,4095.0,2416.0,2939.0,2594.0,-11.75,-0.3,3.0,-0.39,0.69,0.02,1.0,nice-to-meet-you
3151.0,989.0,2384.0,3619.0,3223.0,2938.0,3797.0,3132.0,7.39,-4.7,8.55,0.27,-0.52,-0.28,0.0,2931.0,3280.0,3274.0,3049.0,4095.0,2428.0,2958.0,2685.0,-8.61,-0.58,2.5,-0.09,0.18,0.16,1.0,nice-to-meet-you
3158.0,976.0,2454.0,3583.0,3230.0,2906.0,3803.0,3126.0,8.12,-4.69,7.97,0.29,-0.4,-0.28,0.0,2943.0,3278.0,3269.0,3056.0,4095.0,2419.0,2960.0,2672.0,-8.81,-0.4,2.78,-0.07,0.16,0.05,1.0,nice-to-meet-you
3170.0,966.0,2493.0,3551.0,3223.0,2883.0,3763.0,3130.0,8.01,-4.36,7.8,0.09,-0.07,-0.19,0.0,2928.0,3271.0,3258.0,3059.0,4095.0,2431.0,2960.0,2687.0,-8.99,-0.48,2.77,-0.04,0.05,-0.01,1.0,nice-to-meet-you
3184.0,972.0,2514.0,3523.0,3251.0,2855.0,3765.0,3149.0,8.07,-4.41,8.13,0.08,-0.05,-0.18,0.0,2944.0,3273.0,3265.0,3071.0,4095.0,2437.0,2963.0,2706.0,-9.14,-0.68,2.77,-0.08,-0.02,-0.03,1.0,nice-to-meet-you
3189.0,959.0,2501.0,3527.0,3242.0,2871.0,3793.0,3155.0,8.11,-4.34,7.9,0.08,-0.02,-0.12,0.0,2944.0,3285.0,3277.0,3085.0,4095.0,2442.0,2967.0,2717.0,-9.04,-0.54,2.65,-0.14,-0.01,-0.01,1.0,nice-to-meet-you
3184.0,970.0,2527.0,3506.0,3248.0,2851.0,3762.0,3134.0,8.26,-4.27,7.85,0.01,-0.01,-0.14,0.0,2931.0,3280.0,3278.0,3071.0,4095.0,2439.0,2973.0,2731.0,-8.92,-0.57,2.72,-0.11,0.02,-0.03,1.0,nice-to-meet-you
3190.0,975.0,2535.0,3523.0,3259.0,2869.0,3750.0,3151.0,8.23,-4.32,7.94,0.0,-0.06,-0.14,0.0,2939.0,3283.0,3274.0,3085.0,4095.0,2439.0,2970.0,2717.0,-9.05,-0.62,2.69,-0.05,-0.02,-0.02,1.0,nice-to-meet-you
3186.0,954.0,2541.0,3511.0,3245.0,2852.0,3798.0,3149.0,8.23,-4.3,7.96,0.04,-0.0,-0.15,0.0,2935.0,3290.0,3291.0,3089.0,4095.0,2443.0,2973.0,2727.0,-9.02,-0.64,2.68,-0.05,0.01,-0.03,1.0,nice-to-meet-you
3185.0,970.0,2514.0,3543.0,3234.0,2838.0,3801.0,3152.0,8.27,-4.26,7.88,0.05,-0.02,-0.16,0.0,2942.0,3278.0,3268.0,3090.0,4095.0,2446.0,2975.0,2734.0,-9.0,-0.54,2.77,-0.03,-0.07,-0.04,1.0,nice-to-meet-you
3235.0,963.0,3950.0,3632.0,3206.0,2833.0,3792.0,3255.0,8.36,-4.11,7.73,0.04,-0.1,-0.18,0.0,975.0,4095.0,939.0,3131.0,4095.0,4095.0,4095.0,2977.0,-6.58,-3.22,6.69,-0.03,0.12,-0.17,1.0,nice-to-meet-you
3503.0,975.0,4095.0,3612.0,3198.0,2864.0,3898.0,3489.0,8.71,-4.24,7.79,0.04,-0.18,-0.2,0.0,1107.0,4095.0,925.0,3129.0,4095.0,4095.0,4095.0,2448.0,-6.53,-3.14,6.87,0.02,0.04,-0.14,1.0,nice-to-meet-you
3555.0,966.0,4095.0,3611.0,3215.0,2883.0,4020.0,3551.0,9.02,-3.92,8.22,0.18,0.18,-0.36,0.0,1905.0,4095.0,943.0,3107.0,4095.0,4095.0,4095.0,3108.0,-7.31,-3.07,7.58,0.27,-0.38,0.01,1.0,nice-to-meet-you
3469.0,1001.0,4095.0,3678.0,3258.0,3037.0,4095.0,3672.0,9.97,-2.95,8.78,0.35,-2.02,-1.23,0.0,1436.0,4095.0,3263.0,3061.0,4095.0,4095.0,4095.0,3635.0,-10.91,-2.1,8.27,1.67,-1.93,1.22,1.0,nice-to-meet-you
2928.0,1055.0,2819.0,4095.0,3440.0,3615.0,4095.0,3711.0,7.67,-0.01,-6.93,-1.56,-4.02,-3.01,0.0,2410.0,4095.0,2991.0,2816.0,4095.0,4095.0,4095.0,3484.0,7.29,2.32,6.07,-1.07,-2.68,0.98,1.0,nice-to-meet-you
2758.0,4095.0,2591.0,4095.0,3684.0,3747.0,4095.0,3412.0,10.52,0.49,-8.04,-1.18,3.55,-2.89,0.0,2842.0,1035.0,2985.0,3027.0,4095.0,4095.0,4095.0,2820.0,8.54,2.29,8.2,-0.3,-2.11,-2.46,1.0,nice-to-meet-you
3023.0,3519.0,1753.0,3866.0,3402.0,1838.0,2157.0,1776.0,0.03,4.3,-4.82,2.29,2.63,-2.02,0.0,2832.0,898.0,3218.0,3521.0,4095.0,4095.0,4095.0,3744.0,-3.0,-4.8,21.6,1.69,1.62,-3.74,1.0,nice-to-meet-you
3080.0,3381.0,3555.0,3465.0,3371.0,1766.0,1968.0,1651.0,5.34,2.17,-7.93,0.31,-0.58,-0.69,0.0,3070.0,3120.0,2598.0,2746.0,4095.0,2335.0,2910.0,2669.0,-6.18,1.52,-2.38,2.55,2.13,-1.3,1.0,nice-to-meet-you
3082.0,3409.0,3541.0,3360.0,3149.0,1787.0,1949.0,1486.0,4.26,6.92,-2.64,1.92,-0.49,0.2,0.0,2975.0,3371.0,4095.0,2821.0,4095.0,2239.0,2813.0,2249.0,-10.05,4.94,19.11,1.93,-2.67,0.97,1.0,nice-to-meet-you
3002.0,3607.0,3117.0,3671.0,3323.0,1879.0,2118.0,1711.0,3.63,2.48,-1.81,-2.63,3.24,0.57,0.0,2973.0,3348.0,4095.0,2938.0,4095.0,2318.0,2855.0,2594.0,-7.09,0.17,12.33,1.99,1.61,1.26,1.0,nice-to-meet-you
2583.0,4049.0,1462.0,3789.0,2608.0,2134.0,2631.0,2063.0,6.78,2.02,-0.3,-2.76,5.42,3.03,0.0,2961.0,3341.0,4095.0,2899.0,4095.0,2343.0,2894.0,2493.0,0.03,4.62,-1.63,2.25,1.74,1.84,1.0,nice-to-meet-you
3050.0,977.0,2790.0,3935.0,3260.0,3290.0,4095.0,3515.0,8.13,-3.87,10.05,0.09,-1.91,-0.52,0.0,2928.0,3442.0,4095.0,3259.0,4095.0,2379.0,2925.0,2765.0,-21.03,-12.96,2.67,1.63,-0.07,-0.03,1.0,nice-to-meet-you
3056.0,980.0,2992.0,3935.0,3269.0,3287.0,4095.0,3525.0,9.07,-4.66,8.65,0.22,0.1,-0.27,0.0,2929.0,3405.0,4095.0,3231.0,4095.0,2405.0,2928.0,2779.0,-8.83,-0.74,2.83,0.03,-0.09,0.07,1.0,nice-to-meet-you
3082.0,1091.0,3106.0,3888.0,3152.0,3235.0,4095.0,3532.0,8.22,-4.12,7.63,-0.03,-0.3,-0.26,0.0,2917.0,3407.0,4095.0,3253.0,4095.0,2407.0,2939.0,2875.0,-9.08,-0.48,2.55,0.11,-0.24,0.06,1.0,nice-to-meet-you
3071.0,1184.0,3071.0,3919.0,3229.0,3262.0,4095.0,3568.0,8.35,-4.3,7.8,-0.03,0.18,-0.03,0.0,2928.0,3394.0,4095.0,3269.0,4095.0,2418.0,2943.0,2898.0,-8.8,0.05,3.18,-0.09,-0.06,0.02,1.0,nice-to-meet-you
3054.0,1373.0,3088.0,3986.0,3255.0,3225.0,4095.0,3561.0,8.32,-4.12,7.99,-0.08,0.02,-0.07,0.0,2935.0,3394.0,4095.0,3275.0,4095.0,2416.0,2946.0,2926.0,-8.92,-0.24,3.04,-0.03,-0.09,-0.01,1.0,nice-to-meet-you
3050.0,1377.0,3067.0,4047.0,3274.0,3200.0,4095.0,3554.0,8.77,-4.25,8.1,-0.02,0.08,-0.14,0.0,2928.0,3385.0,4095.0,3280.0,4095.0,2423.0,2951.0,2926.0,-8.66,-0.24,2.9,-0.13,0.0,-0.07,1.0,nice-to-meet-you
3088.0,1355.0,3059.0,4027.0,3232.0,3179.0,4095.0,3547.0,8.07,-4.13,7.98,0.05,0.02,-0.18,0.0,2931.0,3389.0,4095.0,3281.0,4095.0,2421.0,2949.0,2923.0,-9.2,-0.28,2.85,-0.14,0.16,-0.08,1.0,nice-to-meet-you
3082.0,1328.0,3059.0,4066.0,3221.0,3153.0,4095.0,3521.0,8.14,-4.21,8.2,0.01,0.04,-0.13,0.0,2928.0,3391.0,4095.0,3272.0,4095.0,2431.0,2957.0,2945.0,-8.74,-0.12,3.09,-0.16,0.12,-0.03,1.0,nice-to-meet-you
3059.0,1327.0,3047.0,3991.0,3230.0,3135.0,4095.0,3541.0,8.12,-4.06,8.14,0.02,0.06,-0.08,0.0,2927.0,3389.0,4095.0,3280.0,4095.0,2432.0,2956.0,2959.0,-9.09,-0.02,2.44,-0.05,0.06,0.02,1.0,nice-to-meet-you
3147.0,1010.0,3052.0,4023.0,3231.0,2939.0,4048.0,3433.0,8.72,-3.86,7.49,0.19,-0.08,-0.13,0.0,983.0,4095.0,882.0,3088.0,4095.0,4095.0,4095.0,4095.0,-6.51,-3.11,6.76,0.01,-0.02,0.08,1.0,nice-to-meet-you
3138.0,1006.0,3067.0,4058.0,3216.0,2960.0,4095.0,3420.0,8.89,-3.81,7.62,0.14,-0.01,-0.17,0.0,980.0,4095.0,886.0,3111.0,4095.0,4095.0,4095.0,4095.0,-6.43,-2.8,6.37,0.05,-0.14,0.09,1.0,nice-to-meet-you
3164.0,1018.0,2937.0,4081.0,3118.0,3091.0,3921.0,3301.0,11.1,0.11,-1.01,-0.38,-6.97,-2.61,0.0,965.0,4095.0,848.0,3132.0,4095.0,4095.0,4095.0,4095.0,-10.74,-3.49,5.35,0.78,-1.54,0.15,1.0,nice-to-meet-you
2917.0,994.0,2843.0,4095.0,3275.0,3458.0,4095.0,3504.0,7.86,-0.28,-7.85,-1.86,-4.39,-2.59,0.0,2053.0,914.0,2921.0,2831.0,4095.0,4095.0,4095.0,4043.0,6.06,1.59,6.42,-0.65,-2.62,1.52,1.0,nice-to-meet-you
3053.0,989.0,2850.0,4095.0,3573.0,3728.0,4095.0,3491.0,7.09,0.48,-11.36,-0.07,1.13,-1.82,0.0,2479.0,2140.0,2969.0,2673.0,4095.0,4095.0,4095.0,2990.0,9.2,1.15,8.87,-1.17,1.72,-1.27,1.0,nice-to-meet-you
3024.0,3959.0,3536.0,3826.0,3569.0,2414.0,2889.0,2543.0,3.06,5.29,-3.36,3.47,4.46,-2.43,0.0,2385.0,3291.0,2937.0,3085.0,4095.0,2695.0,3313.0,3007.0,-7.36,-0.18,2.71,4.3,-0.11,-1.61,1.0,nice-to-meet-you
3152.0,3478.0,4080.0,3413.0,3401.0,1695.0,1934.0,1521.0,8.26,1.16,-2.6,-0.47,-0.41,-0.23,0.0,3285.0,3299.0,3180.0,2943.0,4095.0,2213.0,2917.0,2766.0,-1.67,-3.17,32.29,0.54,-1.32,-1.42,1.0,nice-to-meet-you
3106.0,3485.0,2864.0,3559.0,3323.0,1802.0,2014.0,1739.0,8.25,1.28,-2.14,-0.52,1.1,-0.25,0.0,3130.0,3318.0,3344.0,3100.0,4095.0,2323.0,2879.0,2819.0,-11.8,-4.28,14.82,0.84,0.95,1.34,1.0,nice-to-meet-you
1911.0,3965.0,3089.0,3709.0,3137.0,1930.0,2274.0,1931.0,5.13,2.39,-1.9,-1.85,3.52,1.79,0.0,3083.0,3300.0,3410.0,3047.0,4095.0,2382.0,2904.0,2848.0,-7.8,-0.1,3.14,1.18,2.19,2.57,1.0,nice-to-meet-you
1699.0,4095.0,3571.0,3797.0,3305.0,2289.0,2867.0,2396.0,9.0,-1.38,1.52,-2.52,2.96,4.23,0.0,3091.0,3286.0,3458.0,2932.0,4095.0,2405.0,2922.0,2757.0,3.1,7.98,-3.88,2.01,0.13,1.24,1.0,nice-to-meet-you
2874.0,1003.0,2753.0,3856.0,3446.0,2806.0,3536.0,2947.0,11.9,-4.81,9.3,-1.69,1.73,1.82,0.0,2966.0,3317.0,3546.0,2999.0,4095.0,2415.0,2933.0,2785.0,-3.72,-4.16,-1.97,-8.11,4.46,-6.17,1.0,nice-to-meet-you
2958.0,955.0,2790.0,3882.0,3404.0,3024.0,3805.0,3187.0,11.12,-5.02,8.91,-0.46,0.23,0.27,0.0,2950.0,3370.0,3571.0,3149.0,4095.0,2415.0,2928.0,2674.0,-11.94,-0.84,1.47,0.96,-2.38,-0.37,1.0,nice-to-meet-you
2978.0,958.0,2905.0,3802.0,3292.0,3049.0,3882.0,3273.0,9.1,-4.34,7.49,0.14,-0.04,-0.27,0.0,2954.0,3367.0,3559.0,3166.0,4095.0,2430.0,2948.0,2903.0,-9.48,-1.03,2.52,0.12,-0.35,0.05,1.0,nice-to-meet-you
2999.0,974.0,2919.0,3791.0,3294.0,3045.0,3920.0,3287.0,8.41,-3.84,6.67,0.18,-0.08,-0.21,0.0,2974.0,3370.0,3568.0,3187.0,4095.0,2435.0,2955.0,2911.0,-8.62,-0.45,3.19,-0.04,-0.14,0.03,1.0,nice-to-meet-you
3009.0,971.0,2893.0,3792.0,3290.0,3014.0,3907.0,3295.0,8.69,-4.2,6.72,0.06,0.0,-0.23,0.0,2990.0,3350.0,3569.0,3198.0,4095.0,2441.0,2959.0,2916.0,-8.83,-0.4,2.96,-0.24,0.32,-0.07,1.0,nice-to-meet-you
3021.0,970.0,2896.0,3777.0,3237.0,3038.0,3914.0,3303.0,8.56,-4.24,6.97,-0.07,-0.03,-0.14,0.0,2975.0,3353.0,3582.0,3199.0,4095.0,2445.0,2960.0,2922.0,-8.86,-0.41,2.78,-0.0,-0.03,-0.04,1.0,nice-to-meet-you
3021.0,974.0,2901.0,3787.0,3283.0,3042.0,3905.0,3313.0,8.5,-4.08,7.17,-0.05,-0.02,-0.12,0.0,2989.0,3358.0,3583.0,3214.0,4095.0,2442.0,2966.0,2941.0,-8.97,-0.45,2.98,-0.08,0.03,-0.02,1.0,nice-to-meet-you
3018.0,968.0,2905.0,3762.0,3289.0,3006.0,3913.0,3301.0,8.82,-4.31,7.25,-0.07,0.06,-0.1,0.0,2995.0,3360.0,3575.0,3211.0,4095.0,2447.0,2970.0,2947.0,-8.74,-0.18,2.5,0.04,-0.22,-0.11,1.0,nice-to-meet-you
3038.0,986.0,2922.0,3796.0,3265.0,2976.0,3957.0,3298.0,8.82,-4.15,6.99,0.03,-0.01,-0.13,0.0,2993.0,3359.0,3574.0,3217.0,4095.0,2451.0,2969.0,2963.0,-9.3,-0.76,3.23,-0.04,-0.08,-0.08,1.0,nice-to-meet-you
3013.0,992.0,2906.0,3775.0,3258.0,2978.0,3959.0,3312.0,8.54,-4.2,6.91,0.03,0.0,-0.18,0.0,3003.0,3351.0,3600.0,3231.0,4095.0,2451.0,2974.0,2980.0,-9.12,-0.74,3.12,-0.11,-0.06,-0.05,1.0,nice-to-meet-you
4095.0,2267.0,4095.0,3795.0,3477.0,4095.0,4095.0,3617.0,9.02,-3.25,7.01,-0.02,-0.06,-0.1,0.0,947.0,4095.0,1126.0,3675.0,4095.0,4095.0,4095.0,3833.0,-6.29,-1.98,7.18,-0.11,-0.01,-0.07,1.0,nice-to-meet-you
3199.0,1844.0,4095.0,3791.0,3481.0,3794.0,4095.0,3849.0,8.61,-3.21,6.39,0.04,-0.02,-0.18,0.0,957.0,4095.0,2558.0,3685.0,4095.0,4095.0,4095.0,4016.0,-4.99,-2.25,6.62,-0.1,-0.04,-0.64,1.0,nice-to-meet-you
3061.0,1648.0,3536.0,3814.0,3493.0,3735.0,4095.0,3826.0,8.51,-3.41,6.58,-0.03,-0.19,0.04,0.0,947.0,4095.0,3221.0,3639.0,4095.0,4095.0,4095.0,3991.0,-9.05,-3.85,8.42,-0.51,0.37,-0.27,1.0,nice-to-meet-you
2863.0,1040.0,2823.0,4095.0,3557.0,3822.0,4095.0,3712.0,10.97,-0.45,-5.59,-1.76,-5.61,-3.15,0.0,950.0,4095.0,3034.0,3185.0,4095.0,4095.0,4095.0,3961.0,-12.67,-2.87,5.06,2.04,-2.79,2.52,1.0,nice-to-meet-you
2939.0,1035.0,2655.0,4095.0,3520.0,3889.0,4095.0,3391.0,-4.39,-4.29,19.92,0.93,-6.77,-1.31,0.0,1803.0,1111.0,2990.0,3093.0,4095.0,4095.0,4095.0,3151.0,12.8,2.94,7.24,-1.62,4.41,-2.79,1.0,nice-to-meet-you
2930.0,1902.0,2903.0,4095.0,3788.0,3769.0,4095.0,3443.0,1.72,3.13,-4.6,-0.11,1.98,-0.9,0.0,1569.0,1245.0,2929.0,3218.0,4095.0,4095.0,4095.0,3071.0,-3.22,-2.93,8.55,-1.06,2.15,-3.4,1.0,nice-to-meet-you
3024.0,2944.0,2591.0,4095.0,3745.0,3251.0,3959.0,3166.0,4.11,3.56,-0.65,1.68,2.65,-2.79,0.0,1815.0,2559.0,894.0,3456.0,4095.0,3270.0,4095.0,3698.0,-15.04,-4.47,9.09,4.9,0.24,-0.83,1.0,nice-to-meet-you
3095.0,4015.0,1001.0,3809.0,3243.0,1811.0,2061.0,1671.0,4.96,3.16,-7.85,2.98,1.3,-1.36,0.0,3174.0,3233.0,3899.0,2765.0,4095.0,2247.0,2843.0,1439.0,-4.16,3.5,-3.91,0.62,1.22,0.19,1.0,nice-to-meet-you
3053.0,3502.0,1479.0,3564.0,3408.0,1779.0,1924.0,1575.0,9.54,-2.72,-6.17,-0.54,1.5,-0.71,0.0,3003.0,3268.0,3712.0,2818.0,4095.0,2282.0,2832.0,2001.0,-1.21,1.83,5.38,-3.12,-0.41,-0.48,1.0,nice-to-meet-you
3071.0,3527.0,1428.0,3554.0,3440.0,1837.0,2028.0,1686.0,3.96,0.79,-4.31,-1.63,3.97,-0.46,0.0,3038.0,3351.0,3889.0,2919.0,4095.0,2299.0,2864.0,2790.0,-8.34,-0.43,6.41,2.45,1.22,2.15,1.0,nice-to-meet-you
2624.0,3805.0,1783.0,3730.0,3344.0,2479.0,3232.0,2559.0,8.63,-2.04,9.4,-4.12,4.08,3.27,0.0,3004.0,3354.0,3850.0,2910.0,4095.0,2379.0,2927.0,2352.0,1.0,6.44,-2.58,2.81,1.03,2.01,1.0,nice-to-meet-you
3057.0,1216.0,2210.0,3827.0,3466.0,2788.0,3562.0,2791.0,11.33,-6.8,12.22,-0.72,-0.08,0.27,0.0,2955.0,3429.0,3958.0,3142.0,4095.0,2381.0,2915.0,2749.0,-16.68,-8.93,3.04,1.37,-1.25,-0.35,1.0,nice-to-meet-you
3082.0,1010.0,1888.0,3717.0,3418.0,2782.0,3574.0,2800.0,7.94,-4.38,8.94,0.06,-0.56,-0.47,0.0,2982.0,3425.0,3997.0,3152.0,4095.0,2405.0,2927.0,2789.0,-8.71,0.22,3.31,-0.13,-0.04,0.18,1.0,nice-to-meet-you
3065.0,1023.0,1813.0,3725.0,3433.0,2765.0,3573.0,2829.0,7.68,-4.22,8.55,0.06,-0.37,-0.15,0.0,2991.0,3424.0,4014.0,3170.0,4095.0,2409.0,2935.0,2850.0,-8.28,0.49,3.36,-0.16,0.29,0.1,1.0,nice-to-meet-you
3090.0,1010.0,1769.0,3712.0,3472.0,2761.0,3556.0,2825.0,8.52,-4.36,8.05,0.01,-0.28,-0.12,0.0,2992.0,3426.0,4031.0,3165.0,4095.0,2415.0,2931.0,2867.0,-8.76,0.29,3.22,-0.05,-0.09,0.01,1.0,nice-to-meet-you
3090.0,1009.0,1215.0,3732.0,3439.0,2751.0,3606.0,2928.0,8.47,-4.06,7.85,0.01,-0.03,-0.1,0.0,2990.0,3440.0,4024.0,3157.0,4095.0,2419.0,2943.0,2879.0,-8.61,0.58,3.43,-0.17,0.2,-0.07,1.0,nice-to-meet-you
3097.0,1015.0,1427.0,3723.0,3440.0,2747.0,3617.0,2922.0,8.08,-4.19,7.95,0.04,-0.06,-0.19,0.0,2986.0,3434.0,4048.0,3167.0,4095.0,2423.0,2949.0,2891.0,-9.15,0.39,3.04,-0.18,0.2,-0.01,1.0,nice-to-meet-you
3118.0,1009.0,1449.0,3731.0,3451.0,2760.0,3597.0,2942.0,8.24,-4.26,7.96,0.0,0.02,-0.13,0.0,2992.0,3451.0,4095.0,3174.0,4095.0,2431.0,2951.0,2847.0,-8.95,0.41,3.08,-0.12,0.07,0.01,1.0,nice-to-meet-you
3114.0,1009.0,1456.0,3735.0,3398.0,2752.0,3606.0,2948.0,8.5,-4.18,7.94,0.01,0.0,-0.13,0.0,2992.0,3447.0,4095.0,3165.0,4095.0,2431.0,2956.0,2938.0,-8.9,0.42,3.25,-0.06,0.05,-0.02,1.0,nice-to-meet-you
3102.0,1015.0,1437.0,3697.0,3406.0,2751.0,3604.0,2957.0,8.21,-4.15,7.85,-0.0,-0.05,-0.15,0.0,2987.0,3425.0,4095.0,3155.0,4095.0,2435.0,2960.0,2947.0,-8.78,0.43,3.15,-0.12,0.06,-0.01,1.0,nice-to-meet-you
3530.0,1006.0,4095.0,3690.0,3356.0,3411.0,4095.0,3664.0,8.59,-3.68,7.43,0.05,0.01,-0.26,0.0,971.0,4095.0,880.0,3155.0,4095.0,4095.0,4095.0,3154.0,-6.99,-2.02,5.98,0.03,0.02,0.06,1.0,nice-to-meet-you
3407.0,991.0,4095.0,3712.0,3393.0,3414.0,4095.0,3664.0,8.53,-3.79,7.55,0.05,0.05,-0.2,0.0,976.0,4095.0,875.0,3185.0,4095.0,4095.0,4095.0,3138.0,-6.9,-1.96,6.07,0.07,-0.12,-0.01,1.0,nice-to-meet-you
3331.0,1007.0,4095.0,3731.0,3409.0,3348.0,4095.0,3664.0,9.17,-3.17,7.31,-0.05,-1.46,-0.55,0.0,973.0,4095.0,894.0,3111.0,4095.0,4095.0,4095.0,3184.0,-10.33,-2.06,7.16,0.94,-1.29,0.1,1.0,nice-to-meet-you
3278.0,1014.0,4023.0,4066.0,3415.0,3408.0,4095.0,3577.0,12.18,-1.61,1.75,-0.59,-6.07,-2.15,0.0,990.0,4095.0,3185.0,2897.0,4095.0,4095.0,4095.0,2983.0,-8.11,0.12,5.13,1.23,-2.42,1.77,1.0,nice-to-meet-you
2705.0,1019.0,2775.0,4095.0,3536.0,3664.0,4095.0,3428.0,6.86,0.62,-0.68,-1.61,-1.13,-1.45,0.0,1776.0,4095.0,2996.0,3039.0,4095.0,4095.0,4095.0,3182.0,1.38,0.61,7.92,-0.64,-3.32,1.97,1.0,nice-to-meet-you
2783.0,3246.0,2889.0,4095.0,3696.0,3614.0,4095.0,3495.0,6.13,3.63,-4.13,-0.39,1.98,-1.91,0.0,2153.0,1165.0,3056.0,3157.0,4095.0,4095.0,4095.0,1877.0,2.95,0.17,13.66,-2.23,5.08,-1.28,1.0,nice-to-meet-you
3087.0,3982.0,1311.0,3431.0,3357.0,1831.0,2003.0,1679.0,1.36,-0.04,-6.75,-0.25,0.42,-0.77,0.0,3137.0,3107.0,3747.0,2838.0,4095.0,2298.0,2866.0,2352.0,-4.48,3.89,-3.99,1.84,2.27,-1.33,1.0,nice-to-meet-you
3042.0,3718.0,1823.0,3458.0,3430.0,1833.0,1993.0,1605.0,5.01,-1.73,-3.72,-0.61,1.01,0.1,0.0,3004.0,3393.0,3772.0,2853.0,4095.0,2275.0,2816.0,2659.0,-9.89,-1.25,13.59,-1.19,2.07,0.89,1.0,nice-to-meet-you
2794.0,1659.0,972.0,3802.0,3376.0,2350.0,2827.0,2153.0,8.27,1.5,0.77,-2.17,4.81,3.93,0.0,2997.0,3329.0,3857.0,2895.0,4095.0,2349.0,2885.0,2551.0,2.64,7.82,-3.24,1.79,1.07,1.48,1.0,nice-to-meet-you
3037.0,2005.0,2994.0,3727.0,3460.0,3017.0,3469.0,2880.0,10.45,-1.53,7.62,-4.29,4.2,3.43,0.0,2936.0,3335.0,3883.0,2894.0,4095.0,2373.0,2883.0,2645.0,7.62,6.95,-5.21,-4.22,1.1,-6.71,1.0,nice-to-meet-you
3102.0,3126.0,2902.0,3829.0,3127.0,3131.0,3849.0,3178.0,10.56,-3.45,8.69,0.2,-0.53,-0.29,0.0,2928.0,3455.0,3781.0,3095.0,4095.0,2399.0,2909.0,2377.0,-18.21,-8.42,3.73,2.29,-1.77,-0.79,1.0,nice-to-meet-you
3115.0,3181.0,2918.0,3855.0,3130.0,3088.0,3869.0,3187.0,9.03,-3.59,7.38,0.1,-0.3,-0.32,0.0,2925.0,3425.0,3792.0,3088.0,4095.0,2407.0,2928.0,2946.0,-9.2,-0.61,3.31,-0.15,0.08,0.02,1.0,nice-to-meet-you
3119.0,3222.0,2942.0,3850.0,3123.0,3008.0,3875.0,3171.0,8.94,-3.4,6.49,0.18,-0.02,-0.2,0.0,2927.0,3408.0,3797.0,3107.0,4095.0,2414.0,2935.0,2959.0,-8.89,0.0,3.44,-0.04,-0.35,-0.06,1.0,nice-to-meet-you
3135.0,3214.0,2941.0,3855.0,3140.0,2992.0,3921.0,3186.0,9.06,-3.65,6.59,-0.05,0.11,-0.13,0.0,2938.0,3410.0,3787.0,3134.0,4095.0,2416.0,2935.0,2962.0,-9.4,-0.52,3.32,-0.15,-0.03,-0.07,1.0,nice-to-meet-you
3137.0,3216.0,2928.0,3863.0,3141.0,2976.0,3907.0,3233.0,9.24,-3.71,6.81,-0.07,-0.05,-0.18,0.0,2928.0,3425.0,3787.0,3114.0,4095.0,2417.0,2943.0,2970.0,-9.24,-0.37,3.27,-0.07,0.08,-0.08,1.0,nice-to-meet-you
3136.0,3218.0,2953.0,3868.0,3145.0,2927.0,3895.0,3234.0,8.83,-3.5,6.95,-0.04,0.01,-0.17,0.0,2928.0,3422.0,3794.0,3135.0,4095.0,2429.0,2951.0,2991.0,-9.02,-0.32,3.26,-0.11,0.12,0.01,1.0,nice-to-meet-you
3142.0,3210.0,2971.0,3847.0,3137.0,2909.0,3931.0,3225.0,9.05,-3.73,6.97,-0.01,-0.04,-0.15,0.0,2942.0,3431.0,3795.0,3137.0,4095.0,2427.0,2949.0,2975.0,-8.87,-0.21,3.16,-0.13,0.11,-0.04,1.0,nice-to-meet-you
3135.0,3243.0,3015.0,3898.0,3136.0,2892.0,3916.0,3225.0,8.94,-3.59,6.73,0.03,-0.0,-0.15,0.0,2935.0,3422.0,3795.0,3145.0,4095.0,2430.0,2955.0,2995.0,-9.17,-0.19,3.1,-0.1,0.1,-0.04,1.0,nice-to-meet-you
3148.0,3247.0,2993.0,3904.0,3136.0,2874.0,3904.0,3226.0,8.92,-3.61,6.79,0.01,0.06,-0.15,0.0,2928.0,3437.0,3802.0,3141.0,4095.0,2432.0,2960.0,2998.0,-9.09,-0.36,3.28,-0.13,0.06,-0.0,1.0,nice-to-meet-you
3136.0,3239.0,2985.0,3909.0,3149.0,2870.0,3895.0,3219.0,8.99,-3.71,6.89,-0.02,0.05,-0.15,0.0,2931.0,3425.0,3801.0,3149.0,4095.0,2431.0,2958.0,3008.0,-8.9,-0.17,3.2,-0.1,0.12,-0.01,1.0,nice-to-meet-you
3267.0,3507.0,3463.0,3855.0,3313.0,3281.0,4095.0,3578.0,9.37,-2.87,6.86,0.07,-0.3,-0.4,0.0,960.0,4095.0,2651.0,3211.0,4095.0,4095.0,4095.0,4095.0,-6.27,-0.46,7.97,0.13,-0.07,-0.03,1.0,nice-to-meet-you
3263.0,3179.0,3409.0,3873.0,3267.0,3289.0,4095.0,3504.0,8.78,-2.76,6.4,-0.07,0.34,-0.19,0.0,965.0,4095.0,2197.0,3249.0,4095.0,4095.0,4095.0,4075.0,-6.02,0.22,7.87,0.23,-0.07,0.13,1.0,nice-to-meet-you
2985.0,1096.0,2972.0,3952.0,3250.0,3424.0,4095.0,3455.0,12.77,-0.13,-3.45,-1.26,-6.84,-2.46,0.0,971.0,4095.0,2271.0,3203.0,4095.0,4095.0,4095.0,4095.0,-7.23,1.33,6.55,0.77,-1.15,0.37,1.0,nice-to-meet-you
2806.0,1046.0,2865.0,4095.0,3451.0,3639.0,4095.0,3554.0,7.14,0.43,-5.43,-1.57,-3.58,-2.52,0.0,2001.0,912.0,2881.0,2967.0,4095.0,4095.0,4095.0,3155.0,8.95,1.68,8.27,-2.01,-2.53,0.41,1.0,nice-to-meet-you
3171.0,1009.0,2902.0,4095.0,3617.0,3805.0,4095.0,3551.0,5.27,2.88,-9.72,-0.6,0.87,-1.92,0.0,1648.0,1597.0,3071.0,3031.0,4095.0,4095.0,4095.0,1502.0,5.19,1.6,10.44,0.78,-2.88,-2.04,1.0,nice-to-meet-you
2750.0,1034.0,2663.0,4095.0,3557.0,3498.0,3977.0,3602.0,7.4,4.1,-4.72,1.58,-1.24,-3.34,0.0,2661.0,935.0,3056.0,3408.0,4095.0,4095.0,4095.0,3650.0,-9.02,-7.57,17.26,1.81,5.86,-3.69,1.0,nice-to-meet-you
3057.0,4095.0,948.0,3920.0,3280.0,1819.0,1998.0,1694.0,-2.95,3.71,-5.5,2.11,1.5,-1.76,0.0,3194.0,3102.0,3983.0,2826.0,4095.0,2273.0,2850.0,2091.0,-3.87,3.3,-5.09,2.55,1.03,-0.59,1.0,nice-to-meet-you
3070.0,3504.0,1319.0,3437.0,3328.0,1808.0,1984.0,1535.0,7.48,-1.51,-4.33,0.16,1.32,-0.66,0.0,2981.0,3158.0,4095.0,2832.0,4095.0,2268.0,2826.0,2083.0,0.23,4.47,2.85,-3.06,-0.56,-0.39,1.0,nice-to-meet-you
3082.0,3660.0,1039.0,3739.0,3254.0,1891.0,2103.0,1773.0,1.92,0.58,-3.7,-2.2,4.09,0.96,0.0,2991.0,3252.0,4095.0,3035.0,4095.0,2352.0,2906.0,2607.0,-6.2,2.37,5.72,1.25,2.79,1.77,1.0,nice-to-meet-you
1179.0,4095.0,1643.0,3783.0,3190.0,2137.0,2607.0,2090.0,9.39,1.15,-2.11,-2.9,5.01,3.17,0.0,2975.0,3242.0,4017.0,2960.0,4095.0,2384.0,2929.0,2531.0,0.18,7.96,-3.65,2.09,1.63,0.98,1.0,nice-to-meet-you
2987.0,1040.0,2019.0,3803.0,3276.0,3146.0,3756.0,3061.0,10.54,-4.07,10.09,-0.95,1.29,0.93,0.0,2927.0,3270.0,3914.0,3226.0,4095.0,2383.0,2937.0,2425.0,-17.09,-8.97,1.77,2.2,-1.09,-0.02,1.0,nice-to-meet-you
2965.0,1022.0,2302.0,3765.0,3278.0,3185.0,3831.0,3187.0,9.54,-3.34,7.92,0.28,-0.25,-0.1,0.0,2931.0,3264.0,4051.0,3210.0,4095.0,2399.0,2945.0,2647.0,-9.19,1.03,4.03,-0.13,-1.01,0.02,1.0,nice-to-meet-you
3025.0,1021.0,2434.0,3760.0,3280.0,3205.0,3841.0,3242.0,9.15,-3.94,7.0,0.16,-0.15,-0.29,0.0,2930.0,3265.0,4045.0,3202.0,4095.0,2413.0,2953.0,2690.0,-9.03,-0.28,2.87,-0.01,-0.23,0.03,1.0,nice-to-meet-you
3002.0,1011.0,2862.0,3737.0,3275.0,3152.0,3952.0,3322.0,8.51,-3.87,6.82,0.15,-0.17,-0.16,0.0,2921.0,3260.0,4069.0,3207.0,4095.0,2423.0,2959.0,2759.0,-8.62,-0.03,3.22,0.03,-0.25,-0.02,1.0,nice-to-meet-you
3024.0,1008.0,2871.0,3755.0,3292.0,3173.0,3953.0,3312.0,8.96,-3.99,6.8,0.16,-0.08,-0.14,0.0,2928.0,3261.0,4086.0,3214.0,4095.0,2428.0,2963.0,2691.0,-9.4,-0.21,3.16,0.01,-0.16,-0.05,1.0,nice-to-meet-you
3021.0,1013.0,2807.0,3715.0,3280.0,3168.0,3954.0,3311.0,8.94,-3.57,6.7,0.13,-0.02,-0.14,0.0,2940.0,3266.0,4095.0,3219.0,4095.0,2426.0,2960.0,2672.0,-9.03,-0.02,2.95,0.0,-0.07,0.03,1.0,nice-to-meet-you
3038.0,1014.0,2806.0,3727.0,3245.0,3150.0,3961.0,3314.0,9.0,-3.68,6.77,0.0,-0.08,-0.18,0.0,2928.0,3264.0,4087.0,3234.0,4095.0,2426.0,2965.0,2624.0,-8.87,0.1,2.99,0.04,-0.13,-0.04,1.0,nice-to-meet-you
3067.0,1008.0,2786.0,3673.0,3265.0,3139.0,3935.0,3302.0,8.81,-3.64,6.9,0.01,-0.05,-0.18,0.0,2930.0,3268.0,4095.0,3231.0,4095.0,2432.0,2965.0,2667.0,-8.96,0.13,3.11,-0.06,-0.08,-0.04,1.0,nice-to-meet-you
3046.0,1019.0,2797.0,3728.0,3249.0,3135.0,3936.0,3330.0,8.83,-3.67,6.9,0.05,-0.02,-0.16,0.0,2928.0,3270.0,4095.0,3235.0,4095.0,2431.0,2966.0,2679.0,-9.09,0.03,3.3,0.01,-0.11,-0.04,1.0,nice-to-meet-you
3063.0,1013.0,2795.0,3719.0,3264.0,3109.0,3922.0,3321.0,8.99,-3.65,6.83,0.03,-0.02,-0.14,0.0,2925.0,3269.0,4083.0,3239.0,4095.0,2429.0,2969.0,2624.0,-9.14,-0.09,3.17,-0.09,-0.03,-0.03,1.0,nice-to-meet-you
3313.0,961.0,3731.0,3807.0,3137.0,3056.0,4080.0,3669.0,9.11,-3.58,6.92,-0.01,-0.03,-0.17,0.0,975.0,4095.0,3186.0,3357.0,4095.0,4095.0,4095.0,2972.0,-5.67,-1.51,8.23,-0.11,-0.05,-0.05,1.0,nice-to-meet-you
3328.0,999.0,3433.0,3859.0,3149.0,3079.0,4082.0,3666.0,8.96,-3.43,7.07,0.04,-0.13,-0.23,0.0,978.0,4095.0,3213.0,3408.0,4095.0,4095.0,4095.0,3010.0,-5.5,-1.39,8.09,-0.08,-0.19,-0.05,1.0,nice-to-meet-you
3317.0,993.0,3385.0,3936.0,3149.0,3067.0,4039.0,3617.0,9.21,-3.58,7.39,0.14,-0.32,-0.27,0.0,979.0,4095.0,3275.0,3429.0,4095.0,4095.0,4095.0,3047.0,-6.71,-1.3,10.02,0.35,-0.47,0.11,1.0,nice-to-meet-you
3210.0,991.0,3243.0,4095.0,3039.0,3147.0,4095.0,3631.0,10.97,-2.08,3.66,-0.2,-5.09,-1.67,0.0,1278.0,4095.0,3231.0,3068.0,4095.0,4095.0,4095.0,3264.0,-7.5,0.26,6.88,1.82,-2.44,0.71,1.0,nice-to-meet-you
2973.0,1013.0,2769.0,4095.0,3510.0,3715.0,4095.0,3463.0,1.97,-7.71,33.47,1.22,-6.51,-1.9,0.0,2093.0,1181.0,2975.0,2880.0,4095.0,4095.0,4095.0,2481.0,10.36,1.84,9.82,-0.28,3.79,-1.21,1.0,nice-to-meet-you
3015.0,4095.0,3354.0,4095.0,3520.0,2391.0,3056.0,2512.0,4.65,5.66,-5.3,2.51,5.72,-2.38,0.0,2141.0,2365.0,2973.0,3537.0,4095.0,4095.0,4095.0,3242.0,-5.14,-3.54,7.02,-1.86,2.56,-4.03,1.0,nice-to-meet-you
3125.0,3422.0,967.0,3527.0,3325.0,1762.0,1997.0,1652.0,3.1,2.43,-7.52,1.94,-0.83,-0.78,0.0,3110.0,3120.0,3802.0,2774.0,4095.0,2252.0,2830.0,2407.0,-4.42,3.37,-8.56,-2.28,3.31,0.12,1.0,nice-to-meet-you
3137.0,3502.0,924.0,3468.0,3216.0,1744.0,1966.0,1338.0,9.31,-0.51,13.78,1.33,-0.79,-1.21,0.0,3099.0,3309.0,3487.0,2849.0,4095.0,2223.0,2799.0,2689.0,-11.9,-3.79,22.73,-2.84,6.52,-0.21,1.0,nice-to-meet-you
2205.0,4095.0,2738.0,3742.0,3121.0,2001.0,2352.0,1893.0,4.87,1.35,-1.95,-2.33,5.15,3.15,0.0,3125.0,3280.0,3729.0,3023.0,4095.0,2329.0,2861.0,2547.0,-10.86,-1.07,12.68,1.02,1.24,3.44,1.0,nice-to-meet-you
3665.0,4095.0,3361.0,3654.0,3095.0,2391.0,2931.0,2315.0,11.56,-5.11,2.5,-0.81,-0.2,2.87,0.0,3051.0,3283.0,4095.0,2918.0,4095.0,2363.0,2905.0,2549.0,12.44,12.45,-11.18,-1.98,1.63,-3.13,1.0,nice-to-meet-you
3696.0,4095.0,3296.0,3759.0,3185.0,2613.0,3155.0,2531.0,9.25,-4.14,9.67,-3.38,4.08,2.64,0.0,2940.0,3531.0,3867.0,3197.0,4095.0,2383.0,2960.0,2826.0,-24.59,-27.13,3.93,-1.52,1.89,-3.59,1.0,nice-to-meet-you
3774.0,4095.0,3233.0,3805.0,3024.0,2705.0,3298.0,2709.0,9.93,-4.11,7.95,0.07,0.87,0.03,0.0,2934.0,3465.0,4078.0,3195.0,4095.0,2389.0,2942.0,2894.0,-11.51,-0.27,2.94,-0.23,-0.19,0.49,1.0,nice-to-meet-you
3491.0,4095.0,3216.0,3853.0,3004.0,2675.0,3296.0,2718.0,8.65,-4.23,6.26,0.24,-0.27,-0.38,0.0,2946.0,3457.0,4095.0,3201.0,4095.0,2413.0,2953.0,2892.0,-8.69,-1.06,3.27,-0.06,0.12,0.13,1.0,nice-to-meet-you
3471.0,4095.0,3200.0,3813.0,3031.0,2673.0,3307.0,2743.0,8.87,-4.18,6.07,0.14,-0.21,-0.22,0.0,2946.0,3472.0,4095.0,3205.0,4095.0,2415.0,2960.0,2915.0,-8.75,-0.82,3.62,-0.37,0.37,-0.01,1.0,nice-to-meet-you
3441.0,4095.0,3210.0,3824.0,3087.0,2677.0,3321.0,2777.0,8.73,-4.05,6.23,-0.15,0.17,-0.15,0.0,2951.0,3452.0,4095.0,3210.0,4095.0,2421.0,2963.0,2929.0,-8.73,-0.4,3.36,0.02,-0.08,-0.11,1.0,nice-to-meet-you
3425.0,4095.0,3200.0,3862.0,3088.0,2705.0,3326.0,2800.0,8.96,-4.19,6.46,-0.07,0.07,-0.11,0.0,2932.0,3458.0,4095.0,3217.0,4095.0,2427.0,2975.0,2928.0,-9.09,-0.78,3.5,-0.15,0.17,0.0,1.0,nice-to-meet-you
3427.0,4095.0,3195.0,3868.0,3097.0,2688.0,3325.0,2815.0,8.94,-4.06,6.44,0.03,-0.01,-0.16,0.0,2945.0,3455.0,4095.0,3222.0,4095.0,2430.0,2977.0,2944.0,-9.05,-0.77,3.67,-0.14,0.2,-0.05,1.0,nice-to-meet-you
3421.0,4095.0,3207.0,3877.0,3097.0,2672.0,3322.0,2816.0,8.87,-4.01,6.38,0.04,-0.01,-0.21,0.0,2944.0,3473.0,4095.0,3221.0,4095.0,2435.0,2981.0,2949.0,-8.93,-0.59,3.46,-0.09,-0.03,-0.02,1.0,nice-to-meet-you
3420.0,4095.0,3215.0,3901.0,3094.0,2685.0,3317.0,2829.0,8.91,-3.95,6.45,0.05,0.02,-0.14,0.0,2954.0,3466.0,4095.0,3219.0,4095.0,2441.0,2989.0,2970.0,-9.03,-0.81,3.7,-0.04,-0.01,0.0,1.0,nice-to-meet-you
3408.0,4095.0,3206.0,3947.0,3091.0,2677.0,3343.0,2830.0,9.0,-4.0,6.48,0.01,0.01,-0.14,0.0,2942.0,3467.0,4095.0,3222.0,4095.0,2448.0,2987.0,2975.0,-9.07,-0.62,3.37,-0.08,0.05,0.01,1.0,nice-to-meet-you
3392.0,4095.0,3205.0,3922.0,3136.0,2697.0,3392.0,2899.0,8.36,-3.39,6.5,-0.01,-0.14,-0.21,0.0,2223.0,4095.0,882.0,3046.0,4095.0,4095.0,4095.0,4095.0,-7.36,-1.36,6.34,-0.03,-0.45,0.09,1.0,nice-to-meet-you
3489.0,4095.0,3184.0,3878.0,3193.0,2928.0,3850.0,3185.0,9.26,-3.58,6.56,0.07,-0.78,-0.43,0.0,976.0,4095.0,2869.0,3129.0,4095.0,4095.0,4095.0,4095.0,-10.43,-2.06,6.82,0.93,-1.76,0.78,1.0,nice-to-meet-you
3123.0,4095.0,3173.0,3902.0,2841.0,3489.0,4095.0,3479.0,11.59,-0.71,-0.29,-0.81,-6.43,-2.07,0.0,953.0,894.0,2901.0,3146.0,4095.0,4095.0,4095.0,2343.0,-6.94,0.57,4.58,0.74,-2.83,2.63,1.0,nice-to-meet-you
2848.0,4095.0,2955.0,4095.0,3381.0,3867.0,4095.0,3671.0,8.25,0.48,-4.75,-1.66,-3.57,-2.5,0.0,968.0,1061.0,2947.0,3166.0,4095.0,4095.0,4095.0,2882.0,4.9,1.83,7.19,-1.58,-1.43,2.25,1.0,nice-to-meet-you
2606.0,4095.0,2802.0,4095.0,3579.0,4013.0,4095.0,3423.0,1.11,0.26,17.47,-1.89,-2.08,-1.15,0.0,2962.0,1201.0,2983.0,2938.0,4095.0,4095.0,4095.0,2128.0,9.82,6.65,9.73,0.86,1.16,-2.39,1.0,nice-to-meet-you
3066.0,4095.0,2981.0,4095.0,3683.0,3751.0,4095.0,3657.0,7.43,3.5,-4.84,-0.36,1.58,-2.98,0.0,959.0,1232.0,2976.0,3045.0,4095.0,4095.0,4095.0,1712.0,-3.49,-2.15,14.96,-0.94,0.69,-2.8,1.0,nice-to-meet-you
3149.0,3373.0,1118.0,3775.0,3329.0,1751.0,2002.0,1681.0,5.01,2.36,-6.6,1.6,-1.88,-0.79,0.0,3315.0,3243.0,3269.0,2883.0,4095.0,2256.0,2820.0,2295.0,-5.24,4.95,-5.53,-0.63,1.72,-0.36,1.0,nice-to-meet-you
3123.0,3376.0,1685.0,3582.0,3386.0,1830.0,2029.0,1635.0,2.62,0.39,-1.36,-1.12,1.59,0.01,0.0,3271.0,3373.0,3217.0,3018.0,4095.0,2316.0,2833.0,2694.0,-4.95,0.4,15.69,0.05,4.82,1.54,1.0,nice-to-meet-you
2480.0,4095.0,1525.0,3706.0,3248.0,2302.0,2785.0,2240.0,9.42,0.18,1.93,-2.48,2.44,4.49,0.0,3146.0,3334.0,3235.0,2942.0,4095.0,2366.0,2882.0,2781.0,-2.21,5.68,0.89,3.1,-0.97,2.17,1.0,nice-to-meet-you
3058.0,1586.0,2704.0,3888.0,3258.0,2647.0,3405.0,2745.0,10.27,-5.08,9.66,-2.23,3.19,2.58,0.0,3089.0,3315.0,3265.0,2713.0,4095.0,2394.0,2883.0,2407.0,5.47,9.78,-8.89,-1.0,3.44,-0.63,1.0,nice-to-meet-you
3161.0,1200.0,3475.0,3856.0,3262.0,2679.0,3456.0,2812.0,10.33,-5.19,9.24,0.04,0.55,0.42,0.0,3007.0,3353.0,3276.0,3056.0,4095.0,2413.0,2911.0,2832.0,-11.36,0.3,0.66,-0.84,1.14,0.78,1.0,nice-to-meet-you
3247.0,1040.0,3664.0,3803.0,3138.0,2675.0,3448.0,2839.0,8.98,-4.42,6.67,0.38,0.05,-0.14,0.0,3001.0,3363.0,3296.0,3087.0,4095.0,2421.0,2901.0,2871.0,-8.27,0.06,2.36,0.09,0.3,-0.01,1.0,nice-to-meet-you
3241.0,1003.0,3777.0,3733.0,3152.0,2679.0,3479.0,2845.0,8.78,-4.64,6.75,0.31,-0.01,-0.27,0.0,3019.0,3361.0,3301.0,3089.0,4095.0,2426.0,2939.0,2874.0,-8.66,-0.44,2.49,0.16,-0.06,0.07,1.0,nice-to-meet-you
3219.0,1002.0,3741.0,3675.0,3165.0,2672.0,3498.0,2865.0,8.87,-4.31,6.55,0.11,-0.1,-0.35,0.0,3019.0,3363.0,3307.0,3093.0,4095.0,2432.0,2942.0,2893.0,-9.02,-0.26,1.96,0.16,-0.14,0.19,1.0,nice-to-meet-you
3258.0,998.0,3753.0,3644.0,3152.0,2643.0,3483.0,2869.0,8.72,-4.43,6.54,-0.17,0.19,-0.17,0.0,3039.0,3360.0,3312.0,3088.0,4095.0,2434.0,2937.0,2897.0,-8.62,-0.34,2.73,0.13,-0.2,0.04,1.0,nice-to-meet-you
3222.0,994.0,3648.0,3657.0,3178.0,2648.0,3491.0,2879.0,8.73,-4.41,6.85,-0.18,0.11,-0.11,0.0,3031.0,3367.0,3313.0,3108.0,4095.0,2442.0,2943.0,2922.0,-9.19,-0.31,2.59,-0.05,0.15,0.03,1.0,nice-to-meet-you
3223.0,1006.0,3683.0,3667.0,3163.0,2662.0,3506.0,2890.0,8.63,-4.49,6.94,-0.09,0.06,-0.15,0.0,3028.0,3357.0,3301.0,3115.0,4095.0,2437.0,2950.0,2927.0,-9.5,-0.32,2.64,0.01,0.04,-0.08,1.0,nice-to-meet-you
3257.0,1003.0,3611.0,3704.0,3181.0,2640.0,3503.0,2887.0,8.29,-4.28,6.53,-0.02,-0.06,0.02,0.0,3024.0,3360.0,3305.0,3110.0,4095.0,2446.0,2953.0,2932.0,-9.78,-0.52,2.48,-0.12,0.07,-0.02,1.0,nice-to-meet-you
3241.0,999.0,3503.0,3696.0,3170.0,2661.0,3479.0,2895.0,9.12,-4.79,7.26,0.01,0.02,-0.34,0.0,3034.0,3371.0,3311.0,3120.0,4095.0,2448.0,2956.0,2943.0,-9.66,-0.19,2.7,-0.05,0.03,-0.07,1.0,nice-to-meet-you
3258.0,1002.0,3493.0,3680.0,3170.0,2660.0,3498.0,2891.0,7.77,-4.51,6.71,0.15,-0.06,-0.22,0.0,3038.0,3361.0,3311.0,3120.0,4095.0,2453.0,2953.0,2941.0,-8.17,0.61,2.39,-0.04,0.02,0.16,1.0,nice-to-meet-you
3255.0,989.0,3732.0,3975.0,3226.0,3217.0,4042.0,3526.0,10.68,-2.14,3.81,-0.06,-0.84,-0.16,0.0,975.0,4095.0,2851.0,3222.0,4095.0,4095.0,4095.0,3779.0,-4.47,2.88,8.09,-0.23,-0.19,0.07,1.0,nice-to-meet-you
3275.0,976.0,3904.0,4020.0,3216.0,3251.0,4095.0,3577.0,9.86,-2.15,3.1,-0.06,-0.56,-0.36,0.0,979.0,4095.0,2981.0,3146.0,4095.0,4095.0,4095.0,2930.0,-4.05,2.66,9.07,-0.04,-0.63,0.09,1.0,nice-to-meet-you
3294.0,975.0,3893.0,4032.0,3201.0,3292.0,4095.0,3742.0,9.2,-2.1,2.51,-0.21,-0.65,-0.43,0.0,966.0,4095.0,3165.0,3211.0,4095.0,4095.0,4095.0,2446.0,-3.63,2.99,8.72,-0.12,-0.29,0.09,1.0,nice-to-meet-you
3280.0,971.0,3702.0,4052.0,3255.0,3349.0,4095.0,3696.0,10.01,-1.11,-0.44,-0.63,-3.01,-0.96,0.0,962.0,4095.0,3226.0,3246.0,4095.0,4095.0,4095.0,2114.0,-4.55,2.93,7.14,-0.44,-1.14,0.44,1.0,nice-to-meet-you
3056.0,986.0,3325.0,4089.0,3261.0,3569.0,4095.0,3648.0,8.89,0.99,-3.84,-1.8,-3.83,-1.86,0.0,1509.0,4095.0,3093.0,3326.0,4095.0,4095.0,4095.0,2538.0,1.74,2.32,7.53,-1.67,-2.54,0.49,1.0,nice-to-meet-you
2518.0,1279.0,2916.0,4095.0,3455.0,3853.0,4095.0,3650.0,2.74,3.17,-1.98,0.24,2.19,-2.13,0.0,1467.0,1137.0,2896.0,3338.0,4095.0,4095.0,4095.0,3332.0,-1.07,-4.02,16.65,-1.77,4.05,-3.19,1.0,nice-to-meet-you
3011.0,3903.0,2222.0,3991.0,3442.0,2702.0,3429.0,2746.0,4.64,6.28,-4.7,2.21,3.9,-2.91,0.0,2037.0,3345.0,3024.0,3543.0,4095.0,2850.0,3600.0,2963.0,-10.12,-2.96,10.9,5.92,0.43,-2.09,1.0,nice-to-meet-you
2997.0,3466.0,1328.0,3633.0,3311.0,1759.0,1971.0,1677.0,3.74,2.76,-7.85,1.35,-0.81,-1.05,0.0,3121.0,3200.0,3232.0,2767.0,4095.0,2255.0,2819.0,2160.0,-5.42,3.08,-7.76,-0.43,1.46,-0.23,1.0,nice-to-meet-you
3050.0,3474.0,1243.0,3378.0,3290.0,1691.0,1934.0,1409.0,7.46,-0.59,3.12,0.27,-1.23,-0.26,0.0,3047.0,3328.0,3147.0,2797.0,4095.0,2234.0,2815.0,2348.0,-1.51,0.8,23.9,-2.22,3.92,-1.73,1.0,nice-to-meet-you
3017.0,3473.0,1179.0,3583.0,3290.0,1808.0,2027.0,1665.0,4.02,0.34,-3.27,-0.17,1.79,-0.28,0.0,3071.0,3329.0,3168.0,3011.0,4095.0,2291.0,2842.0,2582.0,-4.94,-0.77,16.49,0.77,2.25,1.96,1.0,nice-to-meet-you
983.0,3633.0,1087.0,3839.0,3066.0,1874.0,2109.0,1717.0,3.66,1.42,-3.72,-2.66,7.44,0.94,0.0,3065.0,3312.0,3165.0,3021.0,4095.0,2335.0,2899.0,2433.0,-2.09,3.43,4.66,2.26,1.55,2.63,1.0,nice-to-meet-you
3327.0,4095.0,3712.0,3882.0,3130.0,2354.0,3002.0,2512.0,10.19,-3.07,9.96,-2.2,2.34,1.92,0.0,2946.0,3331.0,3242.0,3058.0,4095.0,2371.0,2913.0,2613.0,-5.09,-8.52,-1.34,-8.29,4.01,-8.47,1.0,nice-to-meet-you
3338.0,4095.0,3824.0,3767.0,3172.0,2479.0,3177.0,2705.0,8.2,-4.27,8.55,0.19,-0.37,-0.39,0.0,2949.0,3376.0,3235.0,3162.0,4095.0,2374.0,2905.0,2665.0,-12.55,-2.19,-0.91,1.31,-2.13,-0.27,1.0,nice-to-meet-you
3345.0,4095.0,3856.0,3753.0,3148.0,2490.0,3206.0,2713.0,7.78,-4.7,7.66,0.06,-0.11,-0.21,0.0,2963.0,3381.0,3233.0,3190.0,4095.0,2399.0,2927.0,2704.0,-8.69,-1.2,3.22,-0.08,0.03,0.12,1.0,nice-to-meet-you
3331.0,4095.0,3824.0,3724.0,3155.0,2494.0,3215.0,2725.0,8.23,-4.8,7.83,0.02,-0.07,-0.17,0.0,2963.0,3361.0,3229.0,3209.0,4095.0,2413.0,2931.0,2706.0,-9.05,-0.55,3.26,-0.19,0.17,0.07,1.0,nice-to-meet-you
3327.0,4095.0,3862.0,3760.0,3147.0,2494.0,3221.0,2729.0,7.97,-4.83,7.84,-0.04,0.05,-0.14,0.0,2967.0,3376.0,3232.0,3210.0,4095.0,2417.0,2941.0,2759.0,-9.48,-0.87,2.85,-0.17,0.19,0.01,1.0,nice-to-meet-you
3311.0,4095.0,3833.0,3761.0,3143.0,2501.0,3206.0,2734.0,7.97,-4.68,7.63,0.0,0.01,-0.14,0.0,2975.0,3373.0,3228.0,3178.0,4095.0,2419.0,2941.0,2794.0,-9.0,-0.59,3.01,-0.09,0.07,-0.04,1.0,nice-to-meet-you
3311.0,4095.0,3879.0,3763.0,3151.0,2505.0,3232.0,2729.0,7.97,-4.8,7.87,-0.04,0.01,-0.18,0.0,2958.0,3383.0,3232.0,3173.0,4095.0,2425.0,2949.0,2816.0,-8.98,-0.49,2.72,-0.08,0.01,-0.01,1.0,nice-to-meet-you
3330.0,4095.0,3850.0,3754.0,3157.0,2497.0,3205.0,2719.0,8.15,-4.86,7.84,0.01,0.02,-0.14,0.0,2973.0,3378.0,3243.0,3187.0,4095.0,2423.0,2947.0,2813.0,-9.04,-0.47,2.9,0.01,-0.08,0.0,1.0,nice-to-meet-you
3329.0,4095.0,3842.0,3774.0,3152.0,2493.0,3229.0,2715.0,7.96,-4.74,7.76,0.01,0.0,-0.14,0.0,2965.0,3376.0,3247.0,3189.0,4095.0,2431.0,2950.0,2800.0,-9.0,-0.43,2.9,0.01,-0.14,-0.03,1.0,nice-to-meet-you
4016.0,4095.0,3642.0,3754.0,3404.0,3583.0,4095.0,3622.0,8.6,-5.76,9.15,0.6,-0.45,-0.2,0.0,1119.0,4095.0,3275.0,3243.0,4095.0,4095.0,4095.0,3133.0,-6.87,-0.54,7.85,0.17,-0.1,-0.11,1.0,nice-to-meet-you
3939.0,4095.0,3648.0,3694.0,3312.0,3545.0,4095.0,3632.0,8.67,-5.04,9.05,0.9,-0.41,-0.64,0.0,1161.0,4095.0,3291.0,3134.0,4095.0,4095.0,4095.0,3396.0,-7.47,-0.33,7.59,0.3,-0.29,0.03,1.0,nice-to-meet-you
3499.0,4095.0,3745.0,3772.0,3234.0,3643.0,4095.0,3770.0,10.2,-3.15,7.88,0.63,-3.64,-2.0,0.0,1618.0,4095.0,3174.0,2992.0,4095.0,4095.0,4095.0,3703.0,-10.16,0.8,5.88,1.0,-1.99,1.18,1.0,nice-to-meet-you
2805.0,1133.0,2887.0,4095.0,3551.0,3953.0,4095.0,3573.0,6.77,1.04,-5.79,-1.77,-3.14,-2.61,0.0,2126.0,1157.0,2973.0,3184.0,4095.0,4095.0,4095.0,3969.0,10.0,-8.54,57.89,1.68,-4.49,-1.41,1.0,nice-to-meet-you
3021.0,3282.0,2950.0,4095.0,3684.0,3857.0,4095.0,3600.0,5.04,0.52,1.6,-0.82,1.14,-2.03,0.0,1053.0,1093.0,3069.0,3066.0,4095.0,4095.0,4095.0,2178.0,2.61,2.84,7.66,0.11,-1.9,-2.21,1.0,nice-to-meet-you
3002.0,2305.0,2992.0,4095.0,3366.0,2956.0,3383.0,2719.0,7.22,6.62,0.36,2.09,2.82,-3.33,0.0,2288.0,2630.0,912.0,3455.0,4095.0,3381.0,4095.0,3091.0,-11.04,-4.44,9.45,2.7,5.2,-2.07,1.0,nice-to-meet-you
3103.0,3613.0,2115.0,3622.0,3248.0,1767.0,1982.0,1691.0,4.12,2.86,-8.68,2.52,-1.7,-0.84,0.0,3107.0,3184.0,3883.0,2812.0,4095.0,2243.0,2811.0,1792.0,-3.45,4.3,-11.05,-0.22,0.95,-0.66,1.0,nice-to-meet-you
3060.0,3463.0,963.0,3522.0,3328.0,1814.0,2000.0,1728.0,2.06,0.14,-5.09,-0.05,-1.12,0.03,0.0,3121.0,3346.0,3328.0,2797.0,4095.0,2128.0,2798.0,2368.0,16.72,-5.03,50.11,-2.6,-3.14,-1.13,1.0,nice-to-meet-you
1446.0,4095.0,2428.0,3692.0,3171.0,1965.0,2207.0,1874.0,4.4,0.3,-2.67,-1.93,4.82,2.77,0.0,3116.0,3355.0,3467.0,2974.0,4095.0,2288.0,2832.0,2507.0,-4.23,0.35,16.11,2.13,-1.93,0.94,1.0,nice-to-meet-you
2417.0,4095.0,3789.0,3743.0,3255.0,2341.0,2892.0,2234.0,11.06,1.03,0.11,-3.55,4.14,4.75,0.0,3091.0,3319.0,3846.0,2739.0,4095.0,2362.0,2880.0,2133.0,6.05,10.03,-7.77,1.43,1.79,0.17,1.0,nice-to-meet-you
2815.0,1993.0,3123.0,3807.0,3311.0,2655.0,3289.0,2689.0,14.03,-1.62,7.64,-2.11,3.89,1.84,0.0,3002.0,3363.0,3792.0,3020.0,4095.0,2368.0,2899.0,2351.0,-12.25,-17.64,1.32,-7.97,6.18,-8.73,1.0,nice-to-meet-you
3089.0,1061.0,2910.0,3826.0,3198.0,2825.0,3536.0,2970.0,8.95,-3.44,8.76,0.01,0.03,0.35,0.0,3005.0,3345.0,3684.0,3221.0,4095.0,2384.0,2915.0,2843.0,-8.8,-0.56,4.7,0.38,-1.34,-0.02,1.0,nice-to-meet-you
3081.0,1053.0,2954.0,3813.0,3167.0,2832.0,3525.0,3026.0,7.92,-3.96,8.38,-0.04,-0.1,-0.18,0.0,3008.0,3354.0,3729.0,3217.0,4095.0,2394.0,2927.0,2915.0,-9.29,0.02,3.2,-0.23,0.47,0.01,1.0,nice-to-meet-you
3055.0,1045.0,2884.0,3792.0,3184.0,2832.0,3559.0,3033.0,8.3,-3.89,7.77,0.17,-0.12,-0.15,0.0,2989.0,3363.0,3745.0,3233.0,4095.0,2405.0,2928.0,2941.0,-9.06,-0.05,3.3,-0.24,0.01,-0.1,1.0,nice-to-meet-you
3071.0,1040.0,2896.0,3775.0,3218.0,2835.0,3538.0,3031.0,8.3,-3.93,7.72,-0.01,-0.07,-0.16,0.0,3009.0,3357.0,3764.0,3245.0,4095.0,2416.0,2935.0,2961.0,-9.13,-0.21,3.06,-0.12,0.07,-0.0,1.0,nice-to-meet-you
3106.0,1062.0,2912.0,3760.0,3213.0,2813.0,3523.0,3024.0,8.49,-4.04,7.78,0.02,-0.03,-0.12,0.0,3004.0,3353.0,3763.0,3247.0,4095.0,2417.0,2937.0,2967.0,-9.13,-0.47,3.35,-0.08,-0.01,-0.03,1.0,nice-to-meet-you
3104.0,1083.0,2913.0,3757.0,3230.0,2802.0,3526.0,3045.0,8.46,-4.07,7.68,0.01,-0.0,-0.13,0.0,2999.0,3354.0,3791.0,3243.0,4095.0,2407.0,2943.0,2972.0,-9.09,-0.27,2.88,-0.0,-0.18,-0.01,1.0,nice-to-meet-you
3088.0,1073.0,2883.0,3761.0,3186.0,2819.0,3535.0,3045.0,8.42,-4.08,7.73,-0.02,0.01,-0.13,0.0,2995.0,3345.0,3819.0,3256.0,4095.0,2421.0,2958.0,2965.0,-8.96,-0.2,3.02,-0.01,-0.2,-0.04,1.0,nice-to-meet-you
3114.0,1088.0,2907.0,3789.0,3207.0,2814.0,3546.0,3045.0,8.53,-4.19,7.69,0.08,-0.07,-0.14,0.0,2991.0,3359.0,3819.0,3234.0,4095.0,2431.0,2953.0,2978.0,-9.05,-0.31,3.09,-0.07,-0.06,-0.04,1.0,nice-to-meet-you
3133.0,1083.0,2943.0,3776.0,3232.0,2794.0,3520.0,3010.0,8.46,-4.11,7.62,0.02,-0.03,-0.13,0.0,2987.0,3347.0,3807.0,3248.0,4095.0,2427.0,2956.0,2983.0,-8.95,-0.34,3.3,-0.14,0.06,0.01,1.0,nice-to-meet-you
3184.0,1232.0,3376.0,3885.0,3314.0,3314.0,4095.0,3583.0,8.38,-2.32,5.71,-0.03,-0.75,-0.07,0.0,973.0,3949.0,3292.0,3340.0,4095.0,4095.0,4095.0,2584.0,-3.24,0.97,8.86,0.29,0.11,0.46,1.0,nice-to-meet-you
3120.0,1008.0,3662.0,3939.0,3375.0,3636.0,4095.0,3727.0,9.14,-2.67,5.7,-0.09,-0.1,0.28,0.0,974.0,3965.0,3280.0,3408.0,4095.0,4095.0,4095.0,2702.0,-2.38,1.6,8.54,0.16,0.11,0.37,1.0,nice-to-meet-you
3184.0,1005.0,2880.0,4095.0,3082.0,3836.0,4095.0,3774.0,14.48,0.4,-1.6,-1.18,-5.29,-2.71,0.0,967.0,3978.0,3274.0,3359.0,4095.0,4095.0,4095.0,2819.0,-6.05,2.85,8.19,0.02,0.5,0.42,1.0,nice-to-meet-you
3035.0,998.0,2811.0,4095.0,3474.0,3949.0,4095.0,3540.0,7.78,-0.4,-2.74,-2.28,-3.89,-3.16,0.0,1341.0,947.0,2654.0,3246.0,4095.0,4095.0,4095.0,3337.0,11.25,2.95,11.3,-1.35,-1.64,1.11,1.0,nice-to-meet-you
3106.0,3754.0,2785.0,4095.0,3541.0,3985.0,4095.0,3375.0,6.99,3.03,-8.53,-0.41,1.48,-3.36,0.0,2896.0,1173.0,3070.0,3262.0,4095.0,4095.0,4095.0,2083.0,1.17,-0.02,5.1,2.45,-2.73,-3.16,1.0,nice-to-meet-you
3091.0,2119.0,2480.0,4095.0,3434.0,3891.0,4095.0,3462.0,2.31,4.25,-1.41,0.71,0.66,-2.84,0.0,2319.0,2354.0,2277.0,3609.0,4095.0,4095.0,4095.0,2823.0,-13.98,-7.37,14.14,1.13,8.73,-0.64,1.0,nice-to-meet-you
3093.0,4058.0,1233.0,3773.0,3301.0,1904.0,2221.0,1871.0,-2.61,4.12,-4.83,3.03,2.6,-0.37,0.0,3413.0,3138.0,3349.0,2798.0,4095.0,2293.0,2887.0,1913.0,-3.02,3.27,-5.2,2.47,-0.12,-0.0,1.0,nice-to-meet-you
2977.0,3488.0,2131.0,3610.0,3376.0,1806.0,1962.0,1613.0,8.45,-0.55,-4.6,-0.63,0.71,0.28,0.0,3110.0,3216.0,3313.0,2834.0,4095.0,2301.0,2826.0,1761.0,1.13,5.02,1.76,-4.08,-1.17,-0.42,1.0,nice-to-meet-you
2981.0,3579.0,2054.0,3787.0,3379.0,1867.0,2093.0,1744.0,4.55,1.32,-2.69,-2.11,5.06,0.95,0.0,3120.0,3328.0,3300.0,2960.0,4095.0,2335.0,2871.0,2265.0,-2.07,2.95,4.79,1.99,3.47,1.85,1.0,nice-to-meet-you
1923.0,4095.0,975.0,3910.0,3217.0,2053.0,2484.0,2001.0,6.61,0.88,2.17,-3.28,6.53,4.14,0.0,3107.0,3328.0,3367.0,2767.0,4095.0,2384.0,2890.0,1911.0,4.63,7.9,-7.67,3.09,0.64,-0.14,1.0,nice-to-meet-you
3319.0,2327.0,3857.0,4095.0,3041.0,2672.0,3426.0,2730.0,8.83,-8.35,13.44,-0.7,0.09,0.84,0.0,3024.0,3377.0,3434.0,3142.0,4095.0,2358.0,2895.0,2496.0,-15.78,-7.24,1.3,0.97,-2.58,-0.97,1.0,nice-to-meet-you
3387.0,2767.0,3840.0,4027.0,3093.0,2651.0,3383.0,2770.0,7.57,-5.83,9.58,0.37,-0.4,-0.27,0.0,2992.0,3382.0,3406.0,3185.0,4095.0,2378.0,2910.0,2783.0,-9.01,0.13,4.22,0.47,-1.65,0.4,1.0,nice-to-meet-you
3429.0,2608.0,3840.0,3974.0,3088.0,2637.0,3376.0,2800.0,6.99,-5.75,8.33,-0.02,-0.11,-0.31,0.0,2990.0,3365.0,3419.0,3173.0,4095.0,2384.0,2918.0,2813.0,-8.48,-0.67,3.75,0.1,-0.53,0.27,1.0,nice-to-meet-you
3423.0,2538.0,3828.0,3985.0,3102.0,2633.0,3392.0,2800.0,7.18,-5.73,8.05,-0.04,-0.07,-0.32,0.0,2992.0,3349.0,3413.0,3195.0,4095.0,2403.0,2930.0,2842.0,-8.11,0.07,3.49,-0.18,0.27,0.04,1.0,nice-to-meet-you
3398.0,2510.0,3860.0,3965.0,3117.0,2631.0,3377.0,2819.0,6.76,-5.62,8.15,-0.1,0.02,-0.21,0.0,2992.0,3366.0,3423.0,3186.0,4095.0,2416.0,2935.0,2858.0,-8.78,-0.13,3.38,-0.14,0.17,0.01,1.0,nice-to-meet-you
3379.0,2507.0,3831.0,3984.0,3133.0,2639.0,3385.0,2832.0,7.17,-5.62,8.45,-0.04,-0.03,-0.13,0.0,2992.0,3371.0,3433.0,3189.0,4095.0,2409.0,2937.0,2871.0,-8.51,-0.08,3.41,-0.0,-0.16,-0.04,1.0,nice-to-meet-you
3392.0,2512.0,3825.0,3977.0,3135.0,2640.0,3402.0,2845.0,7.36,-5.86,8.19,-0.06,-0.03,-0.13,0.0,2999.0,3379.0,3516.0,3219.0,4095.0,2416.0,2951.0,2900.0,-8.99,-0.43,3.32,-0.14,-0.05,0.01,1.0,nice-to-meet-you
3397.0,2497.0,3875.0,4000.0,3138.0,2640.0,3405.0,2834.0,7.02,-5.88,8.16,-0.03,0.06,-0.15,0.0,2999.0,3391.0,3517.0,3230.0,4095.0,2416.0,2955.0,2928.0,-9.28,-0.55,3.23,-0.2,0.15,0.04,1.0,nice-to-meet-you
3382.0,2506.0,3868.0,3937.0,3149.0,2639.0,3409.0,2847.0,7.22,-5.89,8.04,0.06,-0.07,-0.15,0.0,3003.0,3383.0,3498.0,3222.0,4095.0,2429.0,2958.0,2933.0,-8.98,-0.42,3.68,-0.18,0.08,0.08,1.0,nice-to-meet-you
3383.0,2482.0,3862.0,3943.0,3138.0,2642.0,3407.0,2831.0,7.05,-5.66,8.1,0.02,0.03,-0.16,0.0,3006.0,3384.0,3514.0,3231.0,4095.0,2431.0,2960.0,2935.0,-8.97,-0.17,3.43,-0.15,0.15,0.06,1.0,nice-to-meet-you
3473.0,2201.0,3762.0,3966.0,3129.0,2635.0,3393.0,2913.0,8.75,-4.95,8.12,0.02,-0.16,-0.23,0.0,1878.0,4080.0,3856.0,3307.0,4095.0,4095.0,4095.0,2853.0,-6.02,-0.77,8.27,-0.0,-0.05,-0.22,1.0,nice-to-meet-you
3462.0,2167.0,3607.0,3987.0,3153.0,2640.0,3409.0,3061.0,8.12,-4.13,7.95,0.05,-0.11,-0.45,0.0,1531.0,4078.0,3807.0,3312.0,4095.0,4095.0,4095.0,2979.0,-6.42,-0.67,7.88,-0.31,-0.06,-0.05,1.0,nice-to-meet-you
3194.0,1535.0,3106.0,4095.0,2945.0,3095.0,3876.0,3396.0,12.69,-1.97,5.63,-0.2,-4.32,-2.61,0.0,2003.0,4095.0,2944.0,3067.0,4095.0,4095.0,4095.0,1899.0,0.9,2.32,6.4,-0.86,-2.25,1.15,1.0,nice-to-meet-you
3036.0,1006.0,2860.0,4095.0,3651.0,3986.0,4095.0,3650.0,14.15,-0.11,0.87,-0.27,0.1,-2.42,0.0,2239.0,1278.0,2928.0,2873.0,4095.0,4095.0,4095.0,3376.0,5.5,4.07,7.6,-2.53,2.75,-0.96,1.0,nice-to-meet-you
2842.0,1908.0,2448.0,4095.0,3440.0,2460.0,3061.0,2496.0,4.72,6.99,-1.88,3.09,4.2,-1.92,0.0,1981.0,3456.0,3666.0,3010.0,4095.0,2852.0,3525.0,2399.0,-7.28,0.87,3.96,4.45,-0.23,-1.68,1.0,nice-to-meet-you
3225.0,3440.0,1651.0,3559.0,3211.0,1750.0,1967.0,1651.0,5.15,3.55,-7.19,1.63,-1.14,-0.59,0.0,3179.0,3200.0,3159.0,2766.0,4095.0,2288.0,2832.0,1701.0,-4.92,5.3,-7.02,-1.59,0.93,-0.57,1.0,nice-to-meet-you
939.0,3583.0,2043.0,3654.0,3099.0,1875.0,2119.0,1654.0,4.71,2.44,-1.4,-2.26,3.35,-0.26,0.0,3184.0,3339.0,3114.0,2915.0,4095.0,2345.0,2865.0,1931.0,-7.12,0.99,8.94,1.57,2.46,2.42,1.0,nice-to-meet-you
3770.0,4095.0,3700.0,3888.0,2960.0,2256.0,2812.0,2256.0,9.59,-1.92,7.42,-3.32,3.1,4.24,0.0,3147.0,3327.0,3104.0,2889.0,4095.0,2383.0,2894.0,2195.0,3.41,7.35,-5.92,1.61,0.87,0.43,1.0,nice-to-meet-you
3676.0,4095.0,3635.0,3930.0,3066.0,2469.0,3088.0,2559.0,11.8,-5.71,10.9,-0.6,0.48,1.08,0.0,3231.0,3371.0,3104.0,3215.0,4095.0,2386.0,2927.0,2721.0,-14.1,-3.13,-0.44,1.63,-3.21,-0.83,1.0,nice-to-meet-you
3667.0,4095.0,3675.0,3918.0,3098.0,2463.0,3105.0,2635.0,8.8,-4.76,8.02,-0.02,-0.03,-0.3,0.0,3152.0,3344.0,3113.0,3194.0,4095.0,2416.0,2935.0,2746.0,-8.65,-0.64,2.44,0.24,-0.36,0.07,1.0,nice-to-meet-you
3632.0,4095.0,3697.0,3825.0,3097.0,2480.0,3104.0,2663.0,7.89,-5.29,7.68,-0.04,0.08,-0.25,0.0,3143.0,3342.0,3103.0,3214.0,4095.0,2419.0,2944.0,2765.0,-9.22,-0.31,2.28,-0.2,0.43,0.16,1.0,nice-to-meet-you
3611.0,4095.0,3696.0,3842.0,3110.0,2474.0,3123.0,2672.0,7.51,-5.04,7.67,-0.06,0.07,-0.15,0.0,3141.0,3355.0,3106.0,3218.0,4095.0,2433.0,2956.0,2814.0,-8.81,0.15,2.49,-0.08,-0.04,0.04,1.0,nice-to-meet-you
3583.0,4095.0,3717.0,3915.0,3106.0,2483.0,3117.0,2672.0,7.98,-5.04,7.78,-0.01,-0.02,-0.15,0.0,3139.0,3344.0,3119.0,3229.0,4095.0,2433.0,2960.0,2842.0,-9.26,-0.04,2.59,-0.13,-0.01,0.01,1.0,nice-to-meet-you
3583.0,4095.0,3711.0,3884.0,3104.0,2477.0,3125.0,2675.0,7.89,-5.09,7.81,0.03,-0.04,-0.16,0.0,3131.0,3349.0,3111.0,3242.0,4095.0,2439.0,2960.0,2850.0,-9.29,0.02,2.51,-0.04,-0.14,0.03,1.0,nice-to-meet-you
3581.0,4095.0,3709.0,3871.0,3114.0,2480.0,3127.0,2671.0,7.66,-4.87,7.66,0.08,-0.04,-0.18,0.0,3123.0,3356.0,3105.0,3248.0,4095.0,2443.0,2974.0,2874.0,-9.11,-0.06,2.57,-0.15,-0.07,-0.03,1.0,nice-to-meet-you
3568.0,4095.0,3695.0,3907.0,3111.0,2483.0,3105.0,2688.0,7.98,-5.04,7.68,0.02,0.03,-0.14,0.0,3136.0,3351.0,3100.0,3248.0,4095.0,2448.0,2958.0,2878.0,-9.0,0.12,2.86,-0.08,0.05,0.02,1.0,nice-to-meet-you
3565.0,4095.0,3711.0,3888.0,3123.0,2486.0,3114.0,2688.0,7.94,-4.99,7.66,-0.0,-0.04,-0.14,0.0,3131.0,3351.0,3118.0,3248.0,4095.0,2447.0,2977.0,2906.0,-9.26,0.14,2.67,-0.03,-0.03,-0.05,1.0,nice-to-meet-you
3581.0,4095.0,3701.0,3885.0,3120.0,2479.0,3119.0,2699.0,8.0,-4.92,7.61,0.01,-0.01,-0.14,0.0,3127.0,3350.0,3110.0,3253.0,4095.0,2449.0,2975.0,2903.0,-9.15,0.11,2.73,-0.03,0.0,-0.01,1.0,nice-to-meet-you
3555.0,4095.0,3719.0,3888.0,3120.0,2490.0,3141.0,2687.0,8.01,-5.02,7.65,-0.01,0.01,-0.19,0.0,3127.0,3360.0,3099.0,3257.0,4095.0,2460.0,2979.0,2923.0,-9.29,0.11,2.67,-0.11,0.02,-0.03,1.0,nice-to-meet-you
3567.0,4095.0,3706.0,3881.0,3136.0,2483.0,3136.0,2684.0,7.82,-5.03,7.67,0.01,0.03,-0.18,0.0,3134.0,3349.0,3109.0,3251.0,4095.0,2462.0,2990.0,2928.0,-9.07,0.22,2.43,-0.06,-0.01,-0.01,1.0,nice-to-meet-you
3275.0,3248.0,2275.0,3903.0,2976.0,3451.0,4058.0,3249.0,9.42,-0.17,0.84,-0.12,-4.37,-1.78,0.0,1099.0,4095.0,3189.0,3183.0,4095.0,4095.0,4095.0,2559.0,-4.79,1.88,7.41,0.08,-1.54,1.04,1.0,nice-to-meet-you
2015.0,1129.0,2761.0,4095.0,3451.0,4095.0,4095.0,3632.0,8.03,2.23,-4.98,-1.61,-2.68,-0.93,0.0,1743.0,4095.0,3023.0,3098.0,4095.0,4095.0,4095.0,3402.0,-0.66,1.34,9.6,-0.44,-1.33,1.21,1.0,nice-to-meet-you
3259.0,1055.0,2829.0,4095.0,3606.0,4095.0,4095.0,3551.0,9.31,2.87,-7.74,-0.0,1.35,-1.63,0.0,2096.0,1153.0,2973.0,2831.0,4095.0,4095.0,4095.0,3767.0,8.62,1.92,9.97,0.34,-1.57,-2.01,1.0,nice-to-meet-you
2969.0,4095.0,1059.0,4095.0,3284.0,1932.0,2256.0,1907.0,-1.94,3.63,-4.91,2.11,5.15,-1.58,0.0,1015.0,1762.0,2987.0,3764.0,4095.0,4095.0,4095.0,3568.0,-8.02,-6.99,22.42,2.9,1.08,-3.54,1.0,nice-to-meet-you
3063.0,3357.0,1172.0,3793.0,3328.0,1766.0,1984.0,1638.0,4.38,1.39,-9.1,0.64,-1.15,-0.9,0.0,3269.0,3255.0,3222.0,2895.0,4095.0,2275.0,2825.0,2461.0,-0.78,5.79,0.4,-1.63,-1.31,-0.79,1.0,nice-to-meet-you
3059.0,3378.0,1273.0,3635.0,3405.0,1843.0,1993.0,1690.0,2.32,1.38,-2.22,-1.58,1.92,0.77,0.0,3237.0,3342.0,3200.0,2999.0,4095.0,2307.0,2864.0,2752.0,-6.66,1.58,8.3,2.45,0.24,2.16,1.0,nice-to-meet-you
1811.0,3570.0,1090.0,3469.0,3006.0,1919.0,2156.0,1845.0,4.45,1.98,-0.42,-2.74,6.06,3.64,0.0,3174.0,3340.0,3195.0,2928.0,4095.0,2357.0,2909.0,2798.0,-1.06,5.1,-1.86,2.15,1.04,1.31,1.0,nice-to-meet-you
3149.0,4095.0,3745.0,3750.0,3296.0,2465.0,3145.0,2590.0,10.4,-5.8,13.48,-1.6,1.46,1.69,0.0,3130.0,3315.0,3234.0,2873.0,4095.0,2371.0,2900.0,2627.0,5.78,9.02,-6.71,-2.72,1.62,-2.37,1.0,nice-to-meet-you
3177.0,3787.0,3858.0,3785.0,3281.0,2519.0,3223.0,2639.0,9.85,-5.59,10.98,0.23,-0.44,-0.23,0.0,3184.0,3415.0,3248.0,3178.0,4095.0,2379.0,2929.0,2777.0,-28.81,-22.52,4.67,-0.51,1.22,-2.19,1.0,nice-to-meet-you
3185.0,3763.0,3863.0,3758.0,3193.0,2501.0,3248.0,2682.0,8.05,-4.15,8.26,0.22,-0.23,-0.37,0.0,3149.0,3362.0,3254.0,3168.0,4095.0,2409.0,2932.0,2900.0,-8.39,-0.06,2.83,-0.11,0.46,0.01,1.0,nice-to-meet-you
3177.0,3329.0,3903.0,3735.0,3214.0,2522.0,3263.0,2693.0,7.92,-4.4,7.54,0.05,-0.33,-0.24,0.0,3150.0,3373.0,3254.0,3184.0,4095.0,2415.0,2945.0,2925.0,-9.03,0.03,2.91,0.04,-0.1,0.0,1.0,nice-to-meet-you
3194.0,2878.0,3906.0,3702.0,3223.0,2512.0,3260.0,2736.0,8.2,-4.49,7.83,0.02,-0.06,-0.15,0.0,3152.0,3366.0,3242.0,3183.0,4095.0,2416.0,2943.0,2926.0,-8.91,-0.04,2.86,-0.08,-0.02,-0.01,1.0,nice-to-meet-you
3197.0,2815.0,3903.0,3683.0,3211.0,2513.0,3269.0,2742.0,8.29,-4.62,7.91,0.03,0.0,-0.11,0.0,3150.0,3364.0,3257.0,3189.0,4095.0,2431.0,2946.0,2935.0,-8.75,0.16,2.75,-0.05,-0.05,-0.03,1.0,nice-to-meet-you
