hall_1,hall_2,hall_3,flex_t,flex_i,flex_m,flex_r,flex_p,accel_x,accel_y,accel_z,gyro_x,gyro_y,gyro_z,sign
2823.0,1968.0,2454.0,2954.0,3123.0,3466.0,2735.0,3423.0,-0.25,6.84,6.87,-0.02,-0.13,-0.1,o
2816.0,1977.0,2453.0,2949.0,3121.0,3469.0,2736.0,3425.0,0.09,7.37,5.87,0.23,0.11,-0.04,o
2813.0,1971.0,2451.0,2949.0,3122.0,3462.0,2732.0,3421.0,-0.32,7.59,5.47,-0.04,0.27,-0.06,o
2816.0,1975.0,2451.0,2951.0,3123.0,3469.0,2732.0,3427.0,-1.55,7.18,6.16,-0.0,0.3,-0.01,o
2816.0,1975.0,2448.0,2948.0,3122.0,3467.0,2730.0,3419.0,-1.18,6.83,5.43,-0.02,0.01,0.1,o
2816.0,1970.0,2451.0,2950.0,3120.0,3466.0,2732.0,3422.0,-0.8,6.99,5.94,0.05,0.28,0.08,o
2815.0,1968.0,2449.0,2957.0,3120.0,3463.0,2733.0,3429.0,-1.12,7.78,6.21,0.24,-0.06,0.08,o
2823.0,1969.0,2462.0,2967.0,3137.0,3487.0,2744.0,3437.0,-0.52,7.6,5.88,0.3,-0.16,0.25,o
2821.0,1968.0,2452.0,2959.0,3133.0,3472.0,2737.0,3431.0,-0.54,8.03,4.94,0.35,0.46,0.05,o
2819.0,1971.0,2450.0,2961.0,3134.0,3477.0,2736.0,3426.0,-1.13,7.65,4.21,0.29,0.24,0.12,o
2817.0,1971.0,2451.0,2960.0,3133.0,3472.0,2736.0,3421.0,-0.6,8.49,4.31,-0.21,0.01,-0.01,o
2824.0,1970.0,2448.0,2963.0,3137.0,3472.0,2738.0,3437.0,-0.92,7.92,5.52,-0.11,-0.04,-0.12,o
2818.0,1971.0,2455.0,2971.0,3127.0,3471.0,2736.0,3430.0,-0.7,7.81,5.43,0.06,-0.13,-0.01,o
2819.0,1973.0,2455.0,2970.0,3131.0,3475.0,2739.0,3433.0,-0.56,8.5,5.08,0.02,-0.18,-0.04,o
2826.0,1967.0,2450.0,2971.0,3131.0,3472.0,2736.0,3430.0,-0.42,8.22,4.39,0.05,-0.25,0.0,o
2818.0,1970.0,2448.0,2963.0,3130.0,3481.0,2736.0,3424.0,-0.48,7.77,3.92,-0.02,-0.29,0.04,o
2817.0,1968.0,2453.0,2970.0,3136.0,3469.0,2736.0,3423.0,0.02,8.18,4.71,-0.11,-0.2,-0.07,o
2816.0,1968.0,2448.0,2966.0,3131.0,3472.0,2737.0,3425.0,0.21,8.52,5.28,0.01,-0.13,-0.07,o
2818.0,1968.0,2450.0,2969.0,3128.0,3465.0,2730.0,3415.0,-0.17,8.8,4.38,-0.84,0.25,-0.22,o
2805.0,1977.0,2448.0,2960.0,3125.0,3444.0,2720.0,3435.0,-0.53,6.65,5.53,-2.19,0.61,-0.7,o
2789.0,1968.0,2448.0,2974.0,3136.0,3440.0,2714.0,3454.0,-1.68,5.26,7.59,-1.31,0.26,-0.32,o
2791.0,1972.0,2454.0,2988.0,3136.0,3450.0,2717.0,3461.0,-1.47,4.47,7.65,-0.46,0.27,-0.19,o
2783.0,1981.0,2458.0,2992.0,3143.0,3466.0,2735.0,3473.0,-1.9,3.95,8.85,-0.47,-0.01,-0.23,o
2780.0,1990.0,2457.0,3011.0,3149.0,3471.0,2738.0,3477.0,-2.12,4.42,8.55,0.47,-0.09,0.3,o
2779.0,1981.0,2466.0,3006.0,3142.0,3462.0,2740.0,3431.0,-0.95,5.46,7.42,1.1,-0.19,0.55,o
2802.0,1974.0,2465.0,2978.0,3141.0,3463.0,2741.0,3391.0,-0.51,6.47,6.37,1.41,-0.23,0.41,o
2803.0,1975.0,2460.0,2970.0,3132.0,3455.0,2740.0,3365.0,-0.2,7.74,5.19,1.24,-0.16,0.19,o
2855.0,1968.0,2458.0,2981.0,3129.0,3457.0,2738.0,3355.0,0.12,8.41,4.8,0.47,-0.04,0.04,o
2866.0,1968.0,2448.0,2977.0,3130.0,3457.0,2731.0,3354.0,0.19,8.34,4.59,0.42,-0.43,0.08,o
2877.0,1960.0,2448.0,3021.0,3142.0,3469.0,2753.0,3376.0,1.61,9.32,4.3,0.62,-0.99,0.2,o
2887.0,1968.0,2448.0,3043.0,3145.0,3484.0,2762.0,3394.0,0.75,8.87,3.17,0.16,-0.12,0.05,o
2891.0,1967.0,2449.0,3042.0,3152.0,3494.0,2774.0,3411.0,0.54,8.83,3.64,-0.4,0.09,-0.23,o
2884.0,1973.0,2446.0,3041.0,3157.0,3503.0,2783.0,3445.0,0.2,8.76,4.4,-0.9,0.02,-0.1,o
2887.0,1970.0,2448.0,3051.0,3174.0,3508.0,2791.0,3471.0,-0.14,7.95,5.33,-0.74,0.15,-0.04,o
2892.0,2029.0,2493.0,3037.0,3167.0,3537.0,2814.0,3515.0,-0.23,7.07,5.75,-0.73,0.64,0.11,o
2882.0,1942.0,2427.0,3015.0,3168.0,3497.0,2770.0,3495.0,-0.91,6.63,6.43,-1.14,0.46,-0.08,o
2880.0,1942.0,2429.0,3005.0,3165.0,3501.0,2777.0,3515.0,-1.43,5.51,7.37,-1.05,-0.32,-0.69,o
2864.0,1943.0,2431.0,3010.0,3164.0,3494.0,2772.0,3521.0,-1.16,4.57,8.3,-0.43,-1.05,-1.2,o
2862.0,1943.0,2417.0,3047.0,3173.0,3491.0,2768.0,3519.0,-1.35,4.9,8.04,0.35,-1.03,-0.9,o
2854.0,1974.0,2458.0,3083.0,3184.0,3519.0,2802.0,3542.0,-0.03,5.37,7.75,0.72,-1.39,-0.46,o
2855.0,1966.0,2448.0,3105.0,3189.0,3505.0,2799.0,3509.0,0.91,5.75,7.5,1.22,-0.46,0.36,o
2864.0,1965.0,2440.0,3111.0,3193.0,3520.0,2806.0,3493.0,0.98,6.94,6.45,1.38,1.4,0.95,o
2883.0,1962.0,2431.0,3114.0,3191.0,3530.0,2824.0,3504.0,0.67,7.73,5.58,0.77,1.79,0.69,o
2875.0,1975.0,2434.0,3111.0,3191.0,3539.0,2830.0,3515.0,0.03,7.97,4.79,0.13,1.24,0.34,o
2876.0,1953.0,2409.0,3098.0,3184.0,3517.0,2815.0,3515.0,-0.66,7.85,4.82,-0.36,1.33,0.28,o
2860.0,1951.0,2391.0,3088.0,3184.0,3519.0,2822.0,3541.0,-1.78,7.4,5.63,-0.78,1.37,0.12,o
2863.0,1952.0,2393.0,3068.0,3185.0,3535.0,2817.0,3557.0,-1.7,6.78,6.28,-0.84,-0.34,-0.51,o
2862.0,1951.0,2391.0,3054.0,3182.0,3517.0,2803.0,3539.0,-1.97,6.02,6.99,-0.52,-1.28,-0.98,o
2855.0,1949.0,2394.0,3050.0,3172.0,3498.0,2767.0,3485.0,-1.74,5.95,7.22,0.16,-1.34,-0.51,o
2859.0,1937.0,2400.0,3058.0,3181.0,3504.0,2777.0,3478.0,-0.76,6.37,6.9,0.26,-1.2,-0.18,o
2855.0,1936.0,2406.0,3061.0,3184.0,3504.0,2782.0,3455.0,0.53,6.29,6.66,0.27,-1.17,0.07,o
2864.0,1936.0,2400.0,3051.0,3177.0,3504.0,2791.0,3458.0,1.8,6.5,6.59,0.27,-0.49,0.27,o
2876.0,1925.0,2396.0,3043.0,3180.0,3517.0,2790.0,3470.0,2.02,6.5,6.76,0.33,1.49,0.37,o
2864.0,1940.0,2401.0,3063.0,3185.0,3535.0,2817.0,3507.0,-0.31,7.07,6.2,0.12,1.95,0.33,o
2854.0,1943.0,2400.0,3081.0,3195.0,3551.0,2824.0,3526.0,-1.17,6.96,5.95,-0.33,0.74,-0.06,o
2845.0,1942.0,2405.0,3085.0,3195.0,3549.0,2825.0,3537.0,-1.3,6.54,6.82,0.05,-0.07,-0.12,o
2856.0,1940.0,2382.0,3215.0,3226.0,3583.0,2881.0,3631.0,-1.05,7.24,6.06,0.55,-0.36,-0.05,o
2869.0,1955.0,2368.0,3392.0,3255.0,3634.0,2964.0,3725.0,-0.61,7.59,5.57,0.19,-0.16,-0.07,o
2878.0,2075.0,2445.0,3614.0,3285.0,3765.0,3121.0,3890.0,-0.6,7.52,5.52,0.04,0.02,-0.05,o
2871.0,2087.0,2424.0,3740.0,3322.0,3803.0,3155.0,3911.0,-0.51,7.62,5.67,-0.05,-0.02,-0.06,o
2864.0,2103.0,2429.0,3711.0,3321.0,3805.0,3154.0,3910.0,-0.82,7.45,5.76,-0.1,0.03,-0.03,o
2845.0,2065.0,2443.0,3371.0,3267.0,3713.0,2983.0,3698.0,-0.65,7.47,5.78,-0.02,-0.05,0.02,o
2816.0,1984.0,2418.0,3122.0,3175.0,3600.0,2841.0,3552.0,-0.6,7.52,5.56,-0.04,-0.03,0.03,o
2797.0,1942.0,2429.0,2945.0,3098.0,3499.0,2711.0,3426.0,-0.5,7.44,5.71,-0.1,-0.08,0.02,o
2759.0,1936.0,2448.0,2783.0,2998.0,3390.0,2590.0,3344.0,-0.55,7.41,5.96,-0.04,0.02,0.0,o
2757.0,1941.0,2450.0,2703.0,2939.0,3312.0,2480.0,3265.0,-0.36,7.41,5.84,-0.05,0.01,-0.02,o
2722.0,1955.0,2451.0,2663.0,2922.0,3263.0,2416.0,3215.0,-0.4,7.35,5.95,-0.05,-0.01,-0.02,o
2726.0,1943.0,2459.0,2674.0,2933.0,3280.0,2448.0,3239.0,-0.51,7.37,5.85,-0.01,-0.02,-0.02,o
2767.0,1936.0,2446.0,2800.0,3006.0,3364.0,2559.0,3349.0,-0.6,7.37,5.91,-0.01,0.04,-0.03,o
2865.0,1922.0,2403.0,3042.0,3123.0,3520.0,2782.0,3607.0,-0.68,7.47,5.65,-0.18,0.08,-0.04,o
2879.0,1935.0,2398.0,3098.0,3139.0,3543.0,2818.0,3642.0,-0.61,7.37,5.79,-0.13,0.05,-0.04,o
2859.0,1936.0,2416.0,3009.0,3110.0,3502.0,2736.0,3515.0,-0.57,7.36,5.89,-0.05,-0.0,0.0,o
2810.0,1935.0,2432.0,2877.0,3039.0,3430.0,2627.0,3410.0,-0.55,7.39,5.82,-0.06,-0.0,0.01,o
2799.0,1936.0,2443.0,2785.0,2970.0,3336.0,2499.0,3302.0,-0.45,7.29,5.9,-0.06,-0.02,-0.01,o
2812.0,1952.0,2451.0,2706.0,2922.0,3273.0,2418.0,3232.0,-0.49,7.25,5.92,-0.08,-0.01,-0.03,o
2663.0,1951.0,2450.0,2674.0,2909.0,3246.0,2385.0,3195.0,-0.45,7.23,6.09,-0.08,-0.01,-0.04,o
2676.0,1955.0,2444.0,2727.0,2933.0,3280.0,2427.0,3234.0,-0.6,7.16,6.1,0.0,-0.02,-0.01,o
2638.0,1921.0,2436.0,2908.0,3030.0,3398.0,2594.0,3409.0,-0.51,7.34,5.83,-0.05,-0.02,0.01,o
2337.0,1919.0,2426.0,2996.0,3088.0,3437.0,2663.0,3499.0,0.01,7.43,5.94,-0.09,-0.29,-0.0,o
2236.0,2014.0,2432.0,3015.0,3090.0,3502.0,2731.0,3575.0,-0.44,7.23,5.96,-0.1,-0.22,0.05,o
2220.0,2014.0,2378.0,3015.0,3102.0,3508.0,2741.0,3690.0,0.17,7.37,5.97,-0.09,-0.24,-0.03,o
2218.0,2007.0,2265.0,3017.0,3099.0,3503.0,2746.0,3782.0,-0.1,7.3,6.07,-0.12,-0.23,-0.02,o
2275.0,2033.0,2221.0,2991.0,3092.0,3507.0,2787.0,3839.0,0.18,7.13,6.11,-0.24,-0.43,0.03,o
2302.0,2041.0,2229.0,2952.0,3089.0,3517.0,2800.0,3815.0,1.06,6.97,6.2,-0.38,-0.85,0.0,o
2358.0,1968.0,2239.0,2923.0,3083.0,3451.0,2719.0,3570.0,1.53,6.63,6.71,-0.14,0.07,0.03,o
2380.0,1965.0,2269.0,2880.0,3062.0,3436.0,2677.0,3488.0,1.27,6.73,6.52,-0.03,-0.02,-0.08,o
2400.0,1959.0,2290.0,2832.0,3053.0,3428.0,2659.0,3473.0,1.33,6.97,6.62,-0.05,-0.16,-0.02,o
2412.0,2020.0,2263.0,2865.0,3056.0,3490.0,2736.0,3760.0,1.41,6.85,6.49,0.1,-0.1,0.07,o
2419.0,2015.0,2189.0,2887.0,3068.0,3510.0,2767.0,3897.0,1.59,6.63,6.24,-0.06,0.03,0.04,o
2438.0,2002.0,2106.0,2896.0,3069.0,3509.0,2804.0,4095.0,1.53,6.74,6.46,-0.07,0.02,-0.05,o
2442.0,1983.0,2251.0,2897.0,3071.0,3515.0,2819.0,4095.0,1.3,6.82,6.53,-0.05,0.01,-0.03,o
2453.0,1997.0,4095.0,2896.0,3071.0,3513.0,2835.0,4095.0,1.44,6.64,6.6,-0.01,-0.0,-0.01,o
2448.0,1997.0,4095.0,2897.0,3067.0,3504.0,2859.0,4095.0,1.38,6.83,6.45,0.01,0.07,0.02,o
2437.0,1927.0,4095.0,2896.0,3058.0,3470.0,2828.0,4095.0,1.46,6.72,6.37,-0.02,0.01,-0.0,o
2333.0,1873.0,4095.0,2902.0,3071.0,3473.0,2835.0,3987.0,1.22,6.71,6.52,-0.03,0.07,-0.08,o
2054.0,1893.0,2005.0,2903.0,3070.0,3466.0,2814.0,3791.0,1.28,6.85,6.56,-0.01,0.05,-0.08,o
1670.0,2378.0,2033.0,2909.0,3084.0,3511.0,2819.0,3703.0,1.44,6.8,6.54,0.0,0.08,0.02,o
1618.0,2640.0,1974.0,2915.0,3090.0,3488.0,2813.0,3626.0,1.36,6.75,6.42,-0.02,0.02,-0.02,o
1779.0,2665.0,1968.0,2922.0,3094.0,3491.0,2832.0,3583.0,1.19,6.8,6.69,0.03,-0.08,0.0,o
2180.0,2699.0,2099.0,2912.0,3088.0,3526.0,2906.0,3735.0,1.37,6.77,6.52,-0.05,-0.13,0.01,o
2531.0,2704.0,3215.0,2906.0,3095.0,3526.0,2953.0,3872.0,1.25,6.8,6.45,-0.02,-0.03,-0.02,o
2723.0,2699.0,4095.0,2913.0,3105.0,3531.0,2966.0,3904.0,1.34,6.82,6.41,-0.03,0.01,0.0,o
2738.0,2697.0,4095.0,2909.0,3103.0,3535.0,2962.0,3881.0,1.23,6.64,6.5,-0.04,0.01,-0.02,o
2768.0,2688.0,4095.0,2903.0,3104.0,3543.0,2990.0,3883.0,1.22,6.76,6.44,-0.04,0.01,-0.02,o
2810.0,2688.0,4095.0,2910.0,3102.0,3546.0,3055.0,3897.0,1.33,6.77,6.48,-0.05,0.0,-0.03,o
2799.0,2693.0,4095.0,2911.0,3105.0,3547.0,3041.0,4035.0,1.19,6.81,6.4,-0.13,0.12,-0.07,o
2802.0,2703.0,4095.0,2909.0,3103.0,3543.0,3046.0,4095.0,1.28,6.75,6.58,-0.01,-0.0,0.0,o
2807.0,2711.0,4095.0,2919.0,3103.0,3549.0,3058.0,4095.0,1.2,6.76,6.52,-0.05,0.04,-0.01,o
2816.0,2709.0,4095.0,2918.0,3105.0,3546.0,3086.0,4095.0,1.3,6.7,6.59,0.02,0.0,0.01,o
2816.0,2691.0,4095.0,2927.0,3118.0,3552.0,3051.0,3951.0,1.36,6.72,6.57,0.07,-0.04,0.03,o
2814.0,2645.0,2086.0,2924.0,3111.0,3513.0,3001.0,3624.0,1.2,6.72,6.46,0.05,0.01,0.04,o
2799.0,2624.0,2201.0,2927.0,3119.0,3503.0,2936.0,3456.0,1.36,6.73,6.41,0.02,-0.01,-0.03,o
2713.0,2609.0,2429.0,2933.0,3120.0,3506.0,2880.0,3351.0,1.31,6.88,6.49,0.09,0.04,0.04,o
2218.0,2606.0,2485.0,2943.0,3118.0,3502.0,2847.0,3359.0,1.37,6.86,6.19,-0.08,0.04,-0.09,o
1964.0,2621.0,2397.0,2928.0,3117.0,3504.0,2876.0,3457.0,1.03,6.85,6.59,-0.05,-0.09,-0.07,o
1759.0,2682.0,2220.0,2918.0,3110.0,3568.0,2950.0,3699.0,1.17,6.8,6.4,-0.04,-0.06,0.0,o
1725.0,2687.0,2650.0,2901.0,3103.0,3566.0,2979.0,3919.0,1.38,6.71,6.51,-0.0,-0.08,-0.04,o
2446.0,2657.0,2545.0,2896.0,3102.0,3554.0,2973.0,3966.0,1.31,6.84,6.41,-0.11,0.0,-0.04,o
2544.0,2651.0,2008.0,2907.0,3111.0,3567.0,2981.0,3915.0,1.18,6.77,6.53,-0.02,0.04,-0.01,o
2543.0,2638.0,1931.0,2912.0,3111.0,3539.0,2987.0,3831.0,1.2,6.7,6.58,-0.07,0.03,0.0,o
2368.0,2621.0,1903.0,2923.0,3120.0,3530.0,2978.0,3763.0,1.11,6.82,6.65,-0.03,-0.0,-0.0,o
2087.0,2615.0,2096.0,2928.0,3128.0,3517.0,2929.0,3564.0,1.15,6.71,6.53,-0.03,0.12,0.0,o
2110.0,2605.0,2262.0,2930.0,3134.0,3506.0,2832.0,3339.0,1.07,6.84,6.57,0.0,0.12,0.01,o
2611.0,2602.0,2298.0,2941.0,3136.0,3504.0,2709.0,3221.0,1.22,6.73,6.45,-0.07,0.1,-0.03,o
3147.0,2607.0,2306.0,2959.0,3142.0,3502.0,2699.0,3195.0,0.87,6.69,6.6,0.02,0.06,-0.03,o
3296.0,2597.0,2301.0,2971.0,3156.0,3503.0,2704.0,3181.0,0.86,6.77,6.49,0.0,0.16,-0.05,o
3368.0,2624.0,2349.0,2987.0,3162.0,3506.0,2703.0,3163.0,0.75,6.73,6.59,0.04,0.07,-0.06,o
3381.0,2627.0,2437.0,2992.0,3172.0,3511.0,2704.0,3143.0,0.79,6.79,6.44,-0.02,-0.01,-0.03,o
3467.0,2631.0,2170.0,2996.0,3180.0,3519.0,2751.0,3337.0,0.83,6.74,6.41,-0.0,-0.11,0.02,o
3445.0,2668.0,2199.0,2992.0,3173.0,3581.0,2848.0,3498.0,0.98,6.86,6.35,0.03,-0.08,-0.01,o
2909.0,2656.0,2194.0,2978.0,3169.0,3583.0,2864.0,3578.0,1.06,6.92,6.42,0.01,-0.17,0.02,o
2133.0,2646.0,2215.0,2967.0,3159.0,3580.0,2873.0,3686.0,1.18,6.98,6.3,-0.07,-0.08,0.02,o
1798.0,2635.0,2198.0,2947.0,3120.0,3575.0,2908.0,3783.0,1.18,6.75,6.5,-0.01,-0.09,0.01,o
1901.0,2641.0,2218.0,2930.0,3120.0,3558.0,2912.0,3842.0,1.02,6.74,6.46,0.08,-0.12,0.05,o
2895.0,2635.0,2271.0,2927.0,3107.0,3554.0,2903.0,3874.0,1.31,6.87,6.25,-0.04,-0.06,0.02,o
2895.0,2638.0,2268.0,2917.0,3111.0,3554.0,2901.0,3922.0,1.35,6.78,6.38,-0.11,-0.01,-0.04,o
2913.0,2635.0,2192.0,2912.0,3093.0,3557.0,2907.0,4095.0,1.23,6.8,6.47,-0.06,0.05,-0.04,o
2913.0,2635.0,2220.0,2928.0,3118.0,3548.0,2913.0,4095.0,1.34,6.8,6.44,0.01,0.06,0.01,o
2897.0,2626.0,2206.0,2939.0,3124.0,3554.0,2915.0,4095.0,1.29,6.79,6.33,-0.01,0.04,-0.01,o
2879.0,2603.0,2379.0,2944.0,3131.0,3530.0,2864.0,3766.0,1.33,6.91,6.35,-0.04,0.09,0.02,o
2901.0,2599.0,2512.0,2941.0,3133.0,3504.0,2815.0,3553.0,1.21,6.8,6.43,-0.06,0.06,-0.01,o
2964.0,2589.0,2532.0,2928.0,3120.0,3486.0,2783.0,3504.0,1.31,6.7,6.47,-0.09,0.05,-0.03,o
2998.0,2590.0,2549.0,2907.0,3109.0,3429.0,2704.0,3408.0,1.13,6.65,6.49,-0.12,0.03,-0.06,o
2919.0,2581.0,2559.0,2898.0,3103.0,3363.0,2590.0,3249.0,1.12,6.75,6.68,-0.08,0.01,-0.01,o
2893.0,2580.0,2559.0,2905.0,3113.0,3325.0,2510.0,3142.0,1.18,6.79,6.61,0.08,0.01,0.03,o
2715.0,2587.0,2559.0,2912.0,3120.0,3295.0,2475.0,3089.0,1.2,6.59,6.43,0.04,0.06,0.01,o
2483.0,2585.0,2559.0,2919.0,3132.0,3294.0,2471.0,3091.0,1.27,6.84,6.41,-0.03,0.01,-0.03,o
2213.0,2584.0,2559.0,2935.0,3143.0,3295.0,2474.0,3101.0,1.04,6.79,6.55,-0.05,0.08,-0.03,o
1853.0,2579.0,2550.0,2957.0,3155.0,3307.0,2483.0,3117.0,1.16,6.83,6.48,-0.03,0.02,-0.04,o
1690.0,2559.0,2529.0,2967.0,3165.0,3312.0,2496.0,3126.0,1.05,6.73,6.56,-0.02,0.05,-0.02,o
1469.0,2559.0,2529.0,2979.0,3168.0,3325.0,2497.0,3135.0,1.07,6.79,6.45,-0.06,0.03,-0.04,o
2965.0,2559.0,2522.0,3002.0,3189.0,3376.0,2522.0,3126.0,1.25,6.54,6.41,-0.05,0.15,0.0,o
3194.0,2559.0,2522.0,3011.0,3196.0,3385.0,2535.0,3136.0,1.11,6.79,6.49,-0.04,0.01,-0.01,o
3282.0,2559.0,2527.0,2992.0,3186.0,3367.0,2531.0,3156.0,1.06,6.58,6.63,-0.07,-0.09,-0.03,o
2853.0,2555.0,2522.0,2943.0,3159.0,3362.0,2531.0,3164.0,1.03,6.57,6.64,-0.07,-0.03,-0.1,o
2820.0,2557.0,2525.0,2883.0,3136.0,3349.0,2534.0,3178.0,1.0,6.77,6.69,0.01,-0.04,0.01,o
2787.0,2559.0,2521.0,2883.0,3137.0,3346.0,2525.0,3169.0,1.05,6.71,6.57,-0.08,-0.01,-0.01,o
2784.0,2559.0,2523.0,2897.0,3135.0,3344.0,2525.0,3174.0,1.02,6.74,6.65,-0.04,-0.01,0.02,o
2758.0,2555.0,2530.0,2913.0,3138.0,3344.0,2524.0,3171.0,1.21,6.68,6.41,0.0,0.01,0.03,o
2751.0,2554.0,2527.0,2909.0,3138.0,3343.0,2513.0,3165.0,1.32,6.7,6.51,-0.07,0.02,-0.05,o
2754.0,2559.0,2522.0,2911.0,3136.0,3347.0,2525.0,3179.0,1.06,6.83,6.62,-0.04,0.0,-0.01,o
2758.0,2559.0,2524.0,2913.0,3141.0,3347.0,2527.0,3182.0,1.11,6.58,6.6,-0.01,-0.0,0.02,o
2768.0,2559.0,2525.0,2911.0,3138.0,3344.0,2531.0,3183.0,1.21,6.74,6.51,-0.03,0.04,-0.0,o
2781.0,2557.0,2526.0,2907.0,3145.0,3359.0,2542.0,3186.0,0.65,6.68,6.8,0.07,1.04,0.3,o
2752.0,2546.0,2519.0,2887.0,3136.0,3369.0,2559.0,3204.0,-0.11,7.03,6.55,0.22,1.77,0.86,o
2739.0,2559.0,2525.0,2880.0,3136.0,3376.0,2559.0,3216.0,0.39,6.83,6.27,0.03,1.08,0.65,o
2736.0,2550.0,2518.0,2883.0,3136.0,3371.0,2559.0,3216.0,0.25,6.78,6.25,-0.05,0.42,0.23,o
2736.0,2555.0,2521.0,2895.0,3152.0,3382.0,2559.0,3216.0,0.1,6.73,6.26,-0.07,-0.12,-0.13,o
2734.0,2558.0,2525.0,2905.0,3152.0,3381.0,2559.0,3221.0,-0.54,6.93,6.6,-0.06,0.03,-0.19,o
2742.0,2558.0,2518.0,2909.0,3151.0,3379.0,2579.0,3227.0,-0.39,7.4,6.4,-0.14,0.01,-0.06,o
2739.0,2554.0,2513.0,2909.0,3151.0,3385.0,2581.0,3227.0,-0.04,7.17,6.06,-0.18,0.07,0.14,o
2735.0,2554.0,2523.0,2911.0,3152.0,3378.0,2581.0,3219.0,0.09,6.08,6.46,-0.09,0.13,-0.08,o
2736.0,2555.0,2522.0,2918.0,3152.0,3377.0,2581.0,3231.0,-0.48,6.57,7.09,0.02,-0.08,-0.27,o
2737.0,2553.0,2525.0,2917.0,3154.0,3383.0,2581.0,3222.0,-0.25,6.45,6.79,-0.21,0.1,-0.03,o
2742.0,2559.0,2523.0,2919.0,3151.0,3376.0,2582.0,3230.0,-0.5,5.9,7.48,-0.22,-0.14,-0.17,o
2741.0,2549.0,2521.0,2923.0,3156.0,3383.0,2578.0,3223.0,-0.35,5.8,6.29,0.14,0.24,-0.14,o
2736.0,2549.0,2521.0,2922.0,3154.0,3381.0,2582.0,3226.0,-1.2,7.22,6.67,0.16,0.17,-0.27,o
2738.0,2556.0,2524.0,2925.0,3154.0,3379.0,2586.0,3233.0,-1.78,6.89,6.85,0.1,-0.17,-0.16,o
2747.0,2551.0,2521.0,2919.0,3155.0,3389.0,2588.0,3233.0,-1.01,6.56,5.92,0.07,-0.18,-0.19,o
2739.0,2549.0,2521.0,2928.0,3157.0,3391.0,2587.0,3230.0,-1.23,6.28,6.11,-0.08,-0.06,-0.47,o
2736.0,2547.0,2521.0,2928.0,3157.0,3385.0,2590.0,3232.0,-1.28,5.67,6.42,-0.03,-0.01,-0.56,o
2742.0,2559.0,2527.0,2926.0,3161.0,3387.0,2589.0,3235.0,-1.87,9.02,6.7,0.17,-0.03,-0.29,o
2736.0,2551.0,2516.0,2928.0,3155.0,3383.0,2592.0,3248.0,-2.23,7.74,6.51,-0.23,-0.87,0.66,o
2737.0,2559.0,2512.0,2935.0,3161.0,3385.0,2594.0,3251.0,-0.63,6.09,5.41,-0.08,0.13,0.75,o
2752.0,2559.0,2507.0,2950.0,3169.0,3401.0,2607.0,3271.0,-0.5,4.22,6.77,-0.46,0.19,0.17,o
2757.0,2559.0,2512.0,2960.0,3182.0,3397.0,2611.0,3279.0,-0.54,4.95,8.05,0.15,0.34,-0.47,o
2763.0,2557.0,2509.0,2960.0,3173.0,3405.0,2618.0,3281.0,-1.58,6.9,7.62,0.35,0.12,-0.51,o
2761.0,2559.0,2510.0,2960.0,3180.0,3402.0,2619.0,3302.0,-1.35,7.85,8.47,0.16,-0.61,-0.14,o
2758.0,2556.0,2493.0,2960.0,3181.0,3410.0,2633.0,3321.0,-2.33,7.62,5.51,0.28,-0.7,0.46,o
2782.0,2579.0,2469.0,2974.0,3194.0,3435.0,2688.0,3370.0,0.29,6.87,3.98,-0.03,-0.09,0.71,o
2803.0,2559.0,2463.0,3003.0,3204.0,3453.0,2718.0,3405.0,0.74,5.53,5.85,-0.73,0.13,0.13,o
2802.0,2581.0,2467.0,3008.0,3207.0,3449.0,2709.0,3415.0,0.26,4.93,8.37,-0.3,0.35,-0.43,o
2815.0,2559.0,2462.0,2991.0,3211.0,3451.0,2713.0,3419.0,-1.34,6.73,8.11,0.21,0.08,-0.61,o
2866.0,2559.0,2465.0,2911.0,3187.0,3440.0,2702.0,3410.0,-0.97,7.19,7.19,0.2,-0.81,-0.32,o
2895.0,2559.0,2464.0,2892.0,3183.0,3428.0,2687.0,3401.0,-0.4,6.53,6.48,0.17,-0.43,0.05,o
2896.0,2582.0,2470.0,2902.0,3183.0,3430.0,2690.0,3391.0,0.12,6.39,6.33,0.07,0.02,0.1,o
2884.0,2559.0,2471.0,2907.0,3182.0,3418.0,2658.0,3338.0,0.02,6.57,6.71,-0.02,0.03,-0.11,o
2883.0,2559.0,2471.0,2898.0,3175.0,3421.0,2652.0,3328.0,-0.29,6.7,6.7,0.02,-0.03,-0.05,o
2865.0,2559.0,2477.0,2893.0,3166.0,3406.0,2624.0,3301.0,-0.25,6.8,6.58,-0.04,0.05,0.04,o
2855.0,2559.0,2487.0,2871.0,3163.0,3391.0,2598.0,3260.0,-0.17,6.63,6.63,-0.09,-0.13,-0.01,o
2881.0,2559.0,2485.0,2828.0,3134.0,3359.0,2542.0,3187.0,0.14,6.59,6.68,-0.21,-0.5,-0.03,o
2901.0,2559.0,2506.0,2767.0,3088.0,3314.0,2454.0,3093.0,0.48,6.35,6.78,-0.13,-0.31,-0.03,o
2955.0,2559.0,2512.0,2726.0,3043.0,3266.0,2380.0,3005.0,0.4,6.38,6.83,-0.03,-0.21,-0.01,o
2959.0,2559.0,2512.0,2752.0,3056.0,3283.0,2406.0,3029.0,0.63,6.2,7.16,0.04,-0.16,0.03,o
3080.0,2559.0,2483.0,2889.0,3126.0,3393.0,2603.0,3249.0,0.85,6.63,6.72,0.13,-0.02,0.02,o
3088.0,2615.0,2479.0,3030.0,3200.0,3520.0,2833.0,3579.0,0.95,6.8,6.67,0.13,-0.02,0.0,o
3071.0,2620.0,2449.0,3054.0,3212.0,3537.0,2885.0,3583.0,0.91,6.78,6.54,-0.04,-0.02,-0.01,o
3037.0,2611.0,2479.0,2967.0,3184.0,3501.0,2759.0,3392.0,0.94,6.63,6.74,-0.12,-0.08,-0.04,o
3030.0,2607.0,2505.0,2837.0,3111.0,3399.0,2603.0,3251.0,0.96,6.68,6.72,-0.07,-0.02,-0.0,o
3031.0,2595.0,2512.0,2770.0,3056.0,3342.0,2524.0,3189.0,0.89,6.62,6.61,-0.06,-0.01,-0.02,o
3043.0,2602.0,2507.0,2810.0,3071.0,3379.0,2586.0,3250.0,0.93,6.44,6.76,0.05,-0.0,-0.0,o
3131.0,2611.0,2479.0,2983.0,3166.0,3504.0,2789.0,3515.0,0.99,7.01,6.58,0.1,0.08,0.01,o
3156.0,2603.0,2448.0,3024.0,3187.0,3543.0,2855.0,3598.0,0.94,6.79,6.49,-0.0,0.05,-0.0,o
3136.0,2608.0,2467.0,2992.0,3183.0,3514.0,2789.0,3482.0,0.94,6.65,6.7,-0.09,0.03,-0.03,o
3094.0,2601.0,2491.0,2843.0,3109.0,3418.0,2628.0,3321.0,0.82,6.67,6.64,-0.1,0.01,-0.03,o
3088.0,2603.0,2493.0,2828.0,3089.0,3397.0,2603.0,3298.0,0.94,6.62,6.65,-0.04,0.02,-0.01,o
3098.0,2610.0,2494.0,2833.0,3097.0,3395.0,2601.0,3301.0,0.9,6.61,6.69,-0.09,0.02,-0.03,o
3100.0,2606.0,2496.0,2831.0,3093.0,3393.0,2603.0,3291.0,0.84,6.53,6.76,-0.03,0.0,-0.01,o
3104.0,2603.0,2493.0,2833.0,3092.0,3406.0,2610.0,3307.0,0.96,6.57,6.61,-0.03,0.02,0.0,o
3136.0,2559.0,2487.0,2770.0,3051.0,3328.0,2498.0,3167.0,0.89,6.48,6.76,-0.06,0.01,-0.02,o
3152.0,2559.0,2502.0,2719.0,2998.0,3264.0,2405.0,3083.0,0.91,6.49,6.83,-0.04,0.0,0.0,o
3147.0,2559.0,2495.0,2693.0,2982.0,3248.0,2372.0,3056.0,0.9,6.53,6.77,-0.01,-0.01,-0.01,o
3155.0,2559.0,2514.0,2659.0,2959.0,3203.0,2309.0,2999.0,0.93,6.45,6.8,-0.07,0.01,-0.03,o
3165.0,2559.0,2511.0,2672.0,2970.0,3223.0,2329.0,3007.0,0.85,6.41,6.8,0.05,-0.01,0.01,o
3226.0,2559.0,2496.0,2752.0,3022.0,3290.0,2426.0,3103.0,0.96,6.54,6.79,0.12,-0.03,0.03,o
3135.0,2608.0,2512.0,2864.0,3102.0,3423.0,2613.0,3316.0,1.11,6.66,6.88,0.28,-0.12,0.03,o
3070.0,2606.0,2491.0,2942.0,3131.0,3475.0,2724.0,3433.0,1.44,7.02,6.62,0.56,0.67,-0.01,o
3066.0,2611.0,2492.0,2960.0,3138.0,3477.0,2725.0,3403.0,0.57,7.65,5.83,0.54,-0.13,-0.54,o
3071.0,2612.0,2496.0,2976.0,3137.0,3483.0,2734.0,3391.0,-0.0,7.68,5.25,0.42,0.69,-0.37,o
3085.0,2607.0,2490.0,3008.0,3143.0,3472.0,2725.0,3383.0,-1.75,7.88,4.92,0.28,0.22,-0.19,o
3086.0,2613.0,2482.0,3058.0,3169.0,3495.0,2768.0,3434.0,-0.96,7.87,4.88,-0.07,-0.04,0.03,o
3011.0,2615.0,2452.0,3150.0,3222.0,3549.0,2866.0,3559.0,-0.72,7.63,5.32,-0.19,-0.21,0.12,o
2854.0,2608.0,2448.0,3185.0,3234.0,3573.0,2886.0,3600.0,-0.54,7.58,5.33,-0.1,-0.06,0.07,o
2171.0,2613.0,2446.0,3197.0,3243.0,3573.0,2887.0,3627.0,-0.53,7.62,5.61,-0.07,-0.07,0.04,o
1983.0,2613.0,2320.0,3195.0,3236.0,3583.0,2940.0,3687.0,-0.24,7.69,5.55,-0.08,0.02,0.01,o
1969.0,2613.0,2215.0,3194.0,3234.0,3575.0,2973.0,3814.0,-0.41,7.65,5.58,-0.05,-0.05,0.01,o
1936.0,2608.0,2227.0,3184.0,3231.0,3582.0,2981.0,3826.0,-0.42,7.69,5.6,-0.1,0.01,0.05,o
1887.0,2599.0,2215.0,3188.0,3235.0,3602.0,3007.0,3849.0,-0.28,7.62,5.65,-0.1,-0.08,0.03,o
623.0,2583.0,2253.0,3184.0,3233.0,3583.0,3011.0,3856.0,-0.15,7.53,5.63,-0.13,-0.02,-0.03,o
1665.0,2586.0,2231.0,3184.0,3231.0,3583.0,3047.0,3913.0,-0.2,7.46,5.83,-0.12,-0.1,0.02,o
1655.0,2597.0,2202.0,3171.0,3232.0,3602.0,3069.0,4002.0,-0.05,7.39,5.89,-0.05,-0.05,0.04,o
1666.0,2590.0,2190.0,3165.0,3232.0,3608.0,3087.0,4029.0,-0.12,7.27,5.89,-0.02,-0.02,0.04,o
1725.0,2597.0,2199.0,3159.0,3227.0,3603.0,3085.0,3995.0,0.04,7.36,5.86,-0.03,-0.06,0.04,o
1712.0,2608.0,2235.0,3158.0,3227.0,3602.0,3071.0,3896.0,0.11,7.35,5.89,-0.06,-0.05,0.0,o
1695.0,2610.0,2286.0,3143.0,3230.0,3607.0,3077.0,3873.0,0.08,7.4,5.92,-0.05,0.09,0.06,o
1656.0,2607.0,2374.0,3123.0,3230.0,3632.0,3098.0,3811.0,0.05,7.24,5.93,-0.05,-0.03,0.04,o
1658.0,2609.0,2466.0,3120.0,3229.0,3626.0,3088.0,3722.0,0.33,7.26,5.98,-0.01,-0.01,0.02,o
1488.0,2622.0,2493.0,3119.0,3230.0,3639.0,3088.0,3725.0,0.32,7.34,5.96,-0.03,0.01,-0.02,o
1423.0,2621.0,2480.0,3099.0,3213.0,3630.0,3039.0,3687.0,0.16,7.34,5.75,-0.06,-0.01,-0.0,o
1446.0,2611.0,2486.0,3056.0,3189.0,3583.0,2944.0,3545.0,0.34,7.23,6.11,-0.05,-0.06,0.0,o
1462.0,2608.0,2490.0,3009.0,3155.0,3538.0,2814.0,3439.0,0.28,7.3,5.93,-0.05,-0.01,-0.01,o
1472.0,2599.0,2503.0,2966.0,3136.0,3504.0,2739.0,3373.0,0.28,7.26,6.04,-0.04,-0.02,-0.01,o
1483.0,2608.0,2495.0,2970.0,3143.0,3521.0,2767.0,3408.0,0.36,7.31,6.09,0.01,0.04,-0.01,o
1559.0,2618.0,2459.0,3001.0,3155.0,3617.0,2951.0,3622.0,0.24,7.3,5.86,-0.02,0.09,-0.03,o
1609.0,2617.0,2399.0,3042.0,3183.0,3654.0,3055.0,3785.0,0.22,7.27,5.96,-0.02,0.03,0.01,o
1626.0,2622.0,2352.0,3066.0,3194.0,3671.0,3071.0,3909.0,0.29,7.34,5.95,-0.03,0.02,-0.01,o
1658.0,2615.0,2285.0,3071.0,3200.0,3674.0,3152.0,4023.0,0.23,7.26,6.0,-0.01,-0.05,0.02,o
1757.0,2583.0,2282.0,3088.0,3205.0,3700.0,3231.0,3998.0,0.38,7.35,5.88,-0.07,0.09,-0.04,o
1786.0,2422.0,2057.0,3107.0,3214.0,3726.0,3260.0,3957.0,0.1,7.36,6.0,-0.07,-0.01,-0.04,o
1821.0,2559.0,2058.0,3103.0,3211.0,3719.0,3308.0,3991.0,0.3,7.27,6.09,-0.07,0.03,0.02,o
1894.0,2587.0,2094.0,3098.0,3216.0,3718.0,3280.0,3929.0,0.25,7.37,5.96,-0.06,0.04,0.01,o
2322.0,2594.0,2143.0,3105.0,3217.0,3739.0,3264.0,3861.0,0.28,7.26,6.15,-0.08,-0.04,0.01,o
2860.0,2591.0,2154.0,3099.0,3216.0,3747.0,3238.0,3819.0,0.39,7.32,6.1,-0.06,-0.02,-0.0,o
2869.0,2586.0,2159.0,3101.0,3222.0,3731.0,3195.0,3771.0,0.29,7.14,6.04,-0.07,0.01,0.01,o
2875.0,2596.0,2183.0,3107.0,3223.0,3732.0,3119.0,3693.0,0.32,6.95,6.24,-0.07,0.02,0.01,o
2733.0,2603.0,2180.0,3109.0,3226.0,3725.0,3121.0,3728.0,0.34,7.14,6.24,-0.02,-0.02,-0.05,o
2593.0,2599.0,2166.0,3071.0,3216.0,3728.0,3157.0,3820.0,0.26,7.26,6.34,-0.09,-0.05,-0.07,o
2433.0,2607.0,2176.0,3084.0,3216.0,3728.0,3148.0,3809.0,0.11,7.05,6.57,-0.04,-0.22,0.0,o
2384.0,2608.0,2182.0,3079.0,3216.0,3705.0,3105.0,3765.0,0.65,7.09,5.65,0.0,-0.01,0.06,o
2323.0,2593.0,2253.0,3045.0,3189.0,3645.0,2937.0,3551.0,0.56,7.12,6.44,-0.08,-0.01,-0.04,o
2242.0,2587.0,2393.0,2967.0,3151.0,3558.0,2746.0,3379.0,0.41,7.09,6.14,-0.02,0.06,-0.02,o
2229.0,2592.0,2423.0,2928.0,3133.0,3533.0,2726.0,3373.0,0.4,7.13,6.3,-0.08,-0.02,-0.03,o
2225.0,2594.0,2433.0,2907.0,3117.0,3529.0,2723.0,3370.0,0.57,6.9,6.32,-0.04,0.03,-0.0,o
2224.0,2582.0,2434.0,2910.0,3126.0,3536.0,2735.0,3376.0,0.36,7.09,6.16,-0.06,0.01,-0.05,o
2231.0,2585.0,2448.0,2915.0,3137.0,3540.0,2743.0,3389.0,0.53,7.21,6.83,-0.1,-0.04,0.04,o
2229.0,2586.0,2471.0,2928.0,3137.0,3549.0,2743.0,3367.0,0.51,6.79,5.98,-0.01,-0.01,0.1,o
2227.0,2582.0,2483.0,2944.0,3142.0,3557.0,2750.0,3359.0,0.46,6.6,6.24,-0.04,-0.01,-0.07,o
2245.0,2586.0,2485.0,2960.0,3151.0,3566.0,2772.0,3408.0,1.28,7.24,7.33,0.12,-0.2,-0.08,o
2279.0,2559.0,2480.0,3006.0,3167.0,3603.0,2839.0,3477.0,0.15,7.77,5.97,0.12,-0.09,0.04,o
2306.0,2580.0,2459.0,3055.0,3188.0,3633.0,2893.0,3519.0,0.72,6.7,4.61,-0.18,0.2,0.3,o
2354.0,2591.0,2450.0,3070.0,3214.0,3671.0,2974.0,3568.0,1.38,6.05,6.35,-0.34,0.19,-0.06,o
2343.0,2597.0,2480.0,3056.0,3205.0,3654.0,2925.0,3485.0,0.93,6.17,7.93,-0.1,-0.17,-0.44,o
2323.0,2587.0,2498.0,3026.0,3199.0,3628.0,2864.0,3401.0,-1.59,8.48,6.86,0.4,-0.7,-0.21,o
2311.0,2582.0,2495.0,3015.0,3193.0,3627.0,2852.0,3387.0,1.05,7.44,5.88,-0.07,-1.36,-0.13,o
2320.0,2592.0,2496.0,3014.0,3194.0,3619.0,2848.0,3386.0,1.89,6.54,5.16,0.06,-0.18,0.18,o
2303.0,2589.0,2498.0,3001.0,3185.0,3622.0,2842.0,3369.0,2.07,6.07,5.86,0.04,1.07,0.35,o
2295.0,2586.0,2496.0,2994.0,3194.0,3630.0,2846.0,3389.0,2.63,6.16,7.18,0.04,1.31,0.0,o
2292.0,2559.0,2492.0,2992.0,3189.0,3619.0,2833.0,3376.0,0.65,7.22,6.56,0.26,1.22,-0.22,o
2289.0,2549.0,2479.0,2993.0,3191.0,3600.0,2832.0,3387.0,-0.5,7.6,6.11,0.22,0.72,-0.18,o
2291.0,2544.0,2465.0,2993.0,3189.0,3606.0,2850.0,3402.0,-1.31,7.52,5.36,0.28,0.83,0.16,o
2298.0,2550.0,2469.0,2998.0,3195.0,3609.0,2863.0,3416.0,-1.12,7.52,5.37,-0.28,-1.31,-0.49,o
2304.0,2550.0,2461.0,3003.0,3194.0,3610.0,2864.0,3419.0,-0.13,7.16,6.01,-0.58,-2.32,-0.85,o
2313.0,2582.0,2494.0,2987.0,3189.0,3625.0,2886.0,3440.0,1.7,6.95,7.07,-0.65,-2.58,-0.7,o
2315.0,2584.0,2475.0,2971.0,3185.0,3630.0,2895.0,3489.0,1.39,6.98,7.07,0.66,1.59,0.72,o
2341.0,2583.0,2454.0,2973.0,3185.0,3639.0,2928.0,3555.0,0.26,6.97,5.59,0.5,1.75,1.02,o
2341.0,2581.0,2455.0,2995.0,3188.0,3651.0,2950.0,3574.0,0.86,6.41,5.45,0.13,1.31,0.56,o
2380.0,2583.0,2448.0,3046.0,3210.0,3666.0,2960.0,3583.0,0.24,6.78,5.87,-0.15,0.67,-0.09,o
2448.0,2582.0,2448.0,3071.0,3227.0,3677.0,2971.0,3595.0,-0.5,7.85,6.61,-0.22,-0.23,-0.46,o
2503.0,2592.0,2444.0,3099.0,3236.0,3674.0,2998.0,3614.0,-0.58,8.24,6.76,-0.2,-1.49,-0.42,o
2526.0,2581.0,2433.0,3093.0,3231.0,3680.0,3040.0,3660.0,-0.01,7.38,5.17,-0.06,-1.95,0.04,o
