hall_1,hall_2,hall_3,flex_t,flex_i,flex_m,flex_r,flex_p,accel_x,accel_y,accel_z,gyro_x,gyro_y,gyro_z,hand,sign
3110.0,4095.0,1869.0,2743.0,3712.0,3120.0,3479.0,3401.0,1.0,8.33,5.7,-0.18,-0.0,0.11,1.0,o
3121.0,4095.0,1877.0,2757.0,3742.0,3133.0,3495.0,3402.0,1.08,8.19,5.86,-0.2,0.02,0.14,1.0,o
3110.0,4095.0,1877.0,2750.0,3711.0,3131.0,3481.0,3397.0,1.64,8.15,6.48,-0.16,-0.13,0.05,1.0,o
3120.0,4095.0,1882.0,2757.0,3737.0,3135.0,3490.0,3412.0,1.27,8.15,6.07,-0.11,0.12,0.02,1.0,o
3117.0,4095.0,1877.0,2748.0,3728.0,3122.0,3474.0,3418.0,1.25,8.16,6.17,-0.14,0.01,0.0,1.0,o
3120.0,4095.0,1877.0,2737.0,3737.0,3142.0,3499.0,3423.0,1.37,7.94,6.24,-0.17,0.06,0.03,1.0,o
3105.0,4095.0,1873.0,2735.0,3737.0,3137.0,3502.0,3407.0,1.27,7.77,6.46,-0.16,0.13,0.0,1.0,o
3118.0,4095.0,1878.0,2742.0,3763.0,3142.0,3493.0,3436.0,1.43,7.53,6.58,-0.09,0.14,-0.04,1.0,o
3127.0,4095.0,1866.0,2751.0,3746.0,3139.0,3499.0,3405.0,0.19,8.08,7.11,0.19,-0.19,0.26,1.0,o
3119.0,4095.0,1872.0,2754.0,3779.0,3143.0,3497.0,3427.0,1.2,7.41,7.02,-0.22,0.15,-0.04,1.0,o
3124.0,4095.0,1882.0,2761.0,3795.0,3161.0,3515.0,3447.0,1.07,7.69,6.74,-0.08,0.05,-0.08,1.0,o
3116.0,4095.0,1871.0,2755.0,3782.0,3147.0,3498.0,3437.0,0.97,7.71,6.68,-0.04,-0.03,-0.12,1.0,o
3124.0,4095.0,1873.0,2759.0,3807.0,3151.0,3506.0,3439.0,1.03,7.72,6.74,-0.03,-0.04,-0.1,1.0,o
3120.0,4095.0,1879.0,2759.0,3818.0,3147.0,3493.0,3409.0,0.97,7.79,6.57,-0.09,0.05,-0.16,1.0,o
3130.0,4095.0,1876.0,2765.0,3815.0,3152.0,3520.0,3373.0,0.6,7.74,6.74,-0.11,0.04,-0.13,1.0,o
3118.0,4095.0,1868.0,2768.0,3813.0,3151.0,3495.0,3392.0,0.59,7.69,6.73,-0.1,0.02,-0.1,1.0,o
3126.0,4095.0,1883.0,2778.0,3830.0,3154.0,3503.0,3419.0,0.58,7.74,6.82,-0.05,-0.04,-0.1,1.0,o
3113.0,4095.0,1872.0,2773.0,3824.0,3151.0,3503.0,3397.0,0.54,7.72,6.73,-0.03,-0.02,-0.12,1.0,o
3120.0,4095.0,1885.0,2786.0,3839.0,3155.0,3507.0,3408.0,0.57,7.78,6.59,-0.05,-0.01,-0.15,1.0,o
3120.0,4095.0,1877.0,2785.0,3840.0,3159.0,3506.0,3394.0,0.4,7.73,6.71,-0.06,-0.01,-0.16,1.0,o
3121.0,4095.0,1892.0,2783.0,3812.0,3170.0,3519.0,3407.0,-0.34,8.24,5.9,0.02,0.0,-0.06,1.0,o
3120.0,4095.0,1894.0,2781.0,3799.0,3159.0,3504.0,3367.0,-0.24,8.18,6.12,-0.01,-0.07,-0.03,1.0,o
3120.0,4095.0,1901.0,2783.0,3831.0,3174.0,3519.0,3346.0,-0.04,8.2,6.1,-0.01,-0.06,0.01,1.0,o
3117.0,4095.0,1898.0,2781.0,3830.0,3152.0,3499.0,3401.0,-0.01,8.21,6.08,0.02,-0.08,0.0,1.0,o
3123.0,4095.0,1894.0,2797.0,3839.0,3162.0,3513.0,3440.0,0.03,8.27,6.0,0.03,-0.07,0.01,1.0,o
3120.0,4095.0,1902.0,2782.0,3827.0,3155.0,3522.0,3456.0,0.09,8.38,5.77,0.02,-0.0,0.04,1.0,o
3110.0,4095.0,1885.0,2786.0,3824.0,3162.0,3513.0,3440.0,0.16,8.5,5.71,-0.1,0.02,0.13,1.0,o
3110.0,4095.0,1911.0,2791.0,3815.0,3184.0,3519.0,3457.0,0.31,8.44,5.67,0.04,-0.03,0.07,1.0,o
3119.0,4095.0,1912.0,2786.0,3796.0,3172.0,3515.0,3453.0,0.47,8.52,5.62,0.05,-0.0,0.08,1.0,o
3121.0,4095.0,1917.0,2786.0,3811.0,3184.0,3532.0,3498.0,0.61,8.57,5.51,0.03,-0.01,0.07,1.0,o
3105.0,4095.0,1914.0,2787.0,3792.0,3184.0,3511.0,3463.0,0.74,8.62,5.43,0.03,-0.03,0.06,1.0,o
3121.0,4095.0,1929.0,2796.0,3824.0,3184.0,3527.0,3464.0,0.8,8.64,5.35,-0.01,0.03,0.04,1.0,o
3109.0,4095.0,1921.0,2791.0,3783.0,3184.0,3521.0,3466.0,0.82,8.68,5.37,-0.0,0.02,0.04,1.0,o
3124.0,4095.0,1926.0,2797.0,3823.0,3191.0,3535.0,3475.0,0.81,8.66,5.28,-0.01,0.0,0.04,1.0,o
3111.0,4095.0,1930.0,2789.0,3803.0,3186.0,3524.0,3449.0,0.85,8.71,5.22,-0.02,0.01,0.04,1.0,o
3120.0,4095.0,1936.0,2806.0,3821.0,3195.0,3533.0,3447.0,0.91,8.74,5.12,-0.04,0.02,0.05,1.0,o
3109.0,4095.0,1927.0,2800.0,3821.0,3187.0,3520.0,3440.0,1.02,8.74,5.21,-0.05,0.02,0.07,1.0,o
3117.0,4095.0,1935.0,2800.0,3836.0,3187.0,3522.0,3422.0,1.16,8.73,5.25,-0.05,0.03,0.07,1.0,o
3121.0,4095.0,1941.0,2798.0,3835.0,3193.0,3535.0,3433.0,1.24,8.69,5.26,-0.03,0.02,0.05,1.0,o
3113.0,4095.0,1931.0,2803.0,3809.0,3190.0,3521.0,3418.0,1.26,8.72,5.15,-0.05,0.06,0.06,1.0,o
3109.0,4095.0,1965.0,2807.0,3836.0,3198.0,3535.0,3393.0,1.53,8.61,5.17,-0.1,0.09,0.04,1.0,o
3125.0,4095.0,1968.0,2813.0,3852.0,3199.0,3531.0,3415.0,1.63,8.61,5.27,-0.13,0.07,0.06,1.0,o
3121.0,4095.0,1975.0,2807.0,3849.0,3186.0,3517.0,3408.0,1.73,8.51,5.43,-0.16,0.09,0.08,1.0,o
3122.0,4095.0,1972.0,2812.0,3856.0,3207.0,3539.0,3417.0,1.75,8.36,5.66,-0.21,0.07,0.08,1.0,o
3119.0,4095.0,1980.0,2815.0,3851.0,3197.0,3531.0,3402.0,1.96,8.26,5.93,-0.16,0.06,0.06,1.0,o
3120.0,4095.0,1979.0,2817.0,3856.0,3205.0,3550.0,3408.0,1.88,8.24,5.84,-0.12,0.05,0.01,1.0,o
3119.0,4095.0,1981.0,2819.0,3854.0,3198.0,3535.0,3406.0,1.87,8.24,5.81,-0.11,0.0,0.02,1.0,o
3123.0,4095.0,1986.0,2825.0,3866.0,3201.0,3541.0,3409.0,1.9,8.22,5.86,-0.12,0.04,0.02,1.0,o
3110.0,4095.0,1981.0,2821.0,3860.0,3207.0,3555.0,3413.0,1.92,8.2,5.79,-0.12,0.03,-0.0,1.0,o
3131.0,4095.0,1994.0,2828.0,3869.0,3206.0,3545.0,3411.0,1.94,8.13,6.0,-0.13,0.02,-0.01,1.0,o
3115.0,4095.0,1986.0,2829.0,3863.0,3210.0,3549.0,3475.0,1.91,8.06,6.12,-0.12,0.03,-0.01,1.0,o
3115.0,4095.0,1986.0,2830.0,3860.0,3214.0,3538.0,3459.0,1.97,8.09,6.07,-0.11,0.03,0.02,1.0,o
3108.0,4095.0,1987.0,2839.0,3889.0,3219.0,3549.0,3453.0,2.09,7.99,6.22,-0.09,0.01,-0.01,1.0,o
3109.0,4095.0,1985.0,2832.0,3871.0,3211.0,3536.0,3458.0,1.97,7.96,6.21,-0.1,0.0,-0.04,1.0,o
3118.0,4095.0,1994.0,2841.0,3893.0,3221.0,3551.0,3468.0,2.0,7.91,6.36,-0.06,0.02,-0.07,1.0,o
3127.0,4095.0,1995.0,2832.0,3859.0,3214.0,3536.0,3467.0,1.75,7.94,6.21,-0.02,-0.03,-0.09,1.0,o
3125.0,4095.0,2000.0,2842.0,3886.0,3216.0,3543.0,3473.0,1.74,8.08,5.98,-0.03,-0.05,-0.03,1.0,o
3117.0,4095.0,1996.0,2838.0,3874.0,3207.0,3536.0,3454.0,2.08,8.05,6.06,-0.06,-0.0,-0.01,1.0,o
3119.0,4095.0,1993.0,2846.0,3883.0,3216.0,3542.0,3447.0,2.04,7.96,6.24,-0.07,0.01,-0.06,1.0,o
3119.0,4095.0,1991.0,2832.0,3861.0,3216.0,3543.0,3467.0,1.69,8.01,6.1,-0.04,0.04,-0.06,1.0,o
3120.0,4095.0,1994.0,2838.0,3887.0,3216.0,3545.0,3451.0,1.93,8.06,6.11,-0.11,0.02,-0.03,1.0,o
3121.0,4095.0,2001.0,2845.0,3854.0,3214.0,3562.0,3443.0,1.85,7.99,6.18,-0.11,0.01,-0.04,1.0,o
3127.0,4095.0,2006.0,2845.0,3880.0,3222.0,3558.0,3455.0,2.05,8.05,6.11,-0.1,-0.01,-0.08,1.0,o
3120.0,4095.0,2005.0,2846.0,3875.0,3216.0,3536.0,3460.0,1.82,7.83,6.39,-0.13,-0.04,-0.13,1.0,o
3122.0,4095.0,2007.0,2850.0,3871.0,3219.0,3545.0,3488.0,1.4,7.78,6.54,-0.09,-0.04,-0.09,1.0,o
3114.0,4095.0,2007.0,2837.0,3879.0,3227.0,3536.0,3467.0,1.77,7.95,6.16,-0.03,-0.01,0.02,1.0,o
3111.0,4095.0,2002.0,2842.0,3875.0,3219.0,3551.0,3466.0,2.15,7.94,6.22,-0.08,0.01,-0.0,1.0,o
3115.0,4095.0,2007.0,2843.0,3886.0,3216.0,3549.0,3452.0,2.23,7.98,6.24,-0.05,0.01,-0.06,1.0,o
3117.0,4095.0,2007.0,2845.0,3871.0,3224.0,3549.0,3462.0,1.63,7.88,6.26,-0.14,0.01,-0.1,1.0,o
3121.0,4095.0,2018.0,2854.0,3883.0,3227.0,3553.0,3449.0,1.56,7.71,6.77,-0.1,-0.01,-0.04,1.0,o
3107.0,4095.0,2017.0,2845.0,3863.0,3220.0,3542.0,3434.0,1.71,7.82,6.41,-0.02,-0.02,-0.02,1.0,o
3125.0,4095.0,2017.0,2849.0,3886.0,3228.0,3563.0,3441.0,1.88,7.89,6.28,-0.04,-0.01,-0.04,1.0,o
3120.0,4095.0,2022.0,2843.0,3863.0,3216.0,3550.0,3435.0,1.76,7.89,6.3,-0.07,0.0,-0.02,1.0,o
3120.0,4095.0,2021.0,2852.0,3878.0,3233.0,3559.0,3413.0,1.78,7.8,6.44,-0.07,-0.01,-0.05,1.0,o
3120.0,4095.0,2018.0,2851.0,3844.0,3222.0,3542.0,3407.0,1.76,7.91,6.33,-0.03,0.0,-0.03,1.0,o
3127.0,4095.0,2027.0,2850.0,3857.0,3230.0,3557.0,3412.0,1.85,7.87,6.33,-0.06,-0.0,-0.03,1.0,o
3111.0,4095.0,2023.0,2850.0,3867.0,3216.0,3548.0,3407.0,1.8,7.89,6.34,-0.05,-0.0,-0.04,1.0,o
3133.0,4095.0,2021.0,2850.0,3858.0,3231.0,3540.0,3408.0,1.72,7.87,6.34,-0.07,-0.02,-0.03,1.0,o
3109.0,4095.0,2017.0,2854.0,3862.0,3221.0,3542.0,3393.0,1.91,7.89,6.31,-0.08,0.0,-0.02,1.0,o
3120.0,4095.0,2028.0,2850.0,3865.0,3229.0,3568.0,3403.0,1.9,7.87,6.37,-0.06,-0.0,-0.03,1.0,o
3122.0,4095.0,2033.0,2853.0,3877.0,3236.0,3568.0,3387.0,1.98,8.12,6.02,0.06,0.02,-0.05,1.0,o
3117.0,4095.0,2032.0,2850.0,3856.0,3227.0,3540.0,3394.0,1.63,8.02,6.06,-0.04,-0.04,-0.02,1.0,o
3119.0,4095.0,2033.0,2862.0,3888.0,3237.0,3562.0,3393.0,1.98,8.14,5.84,-0.05,0.05,0.01,1.0,o
3107.0,4095.0,2031.0,2854.0,3868.0,3232.0,3543.0,3392.0,2.05,8.0,6.1,-0.13,-0.0,-0.02,1.0,o
3127.0,4095.0,2032.0,2859.0,3870.0,3230.0,3568.0,3406.0,1.95,7.96,6.18,-0.12,0.02,-0.03,1.0,o
3118.0,4095.0,2030.0,2855.0,3871.0,3231.0,3551.0,3438.0,1.85,7.89,6.38,-0.13,0.02,-0.02,1.0,o
3113.0,4095.0,2033.0,2855.0,3859.0,3235.0,3563.0,3435.0,1.82,7.86,6.35,-0.1,0.02,-0.01,1.0,o
3122.0,4095.0,2041.0,2853.0,3857.0,3219.0,3545.0,3436.0,2.03,7.84,6.51,-0.06,0.0,-0.02,1.0,o
3109.0,4095.0,2032.0,2861.0,3856.0,3223.0,3557.0,3435.0,1.87,7.88,6.3,-0.06,-0.0,-0.05,1.0,o
3127.0,4095.0,2035.0,2864.0,3855.0,3228.0,3561.0,3451.0,1.82,7.89,6.29,-0.05,-0.01,-0.03,1.0,o
3120.0,4095.0,2032.0,2858.0,3856.0,3226.0,3554.0,3441.0,1.94,7.86,6.31,-0.04,0.0,-0.02,1.0,o
3115.0,4095.0,2035.0,2861.0,3856.0,3226.0,3570.0,3442.0,1.94,7.9,6.33,-0.05,-0.01,-0.05,1.0,o
3105.0,4095.0,2032.0,2858.0,3852.0,3231.0,3553.0,3438.0,1.87,7.93,6.2,-0.07,-0.01,-0.03,1.0,o
3126.0,4095.0,2032.0,2864.0,3877.0,3234.0,3568.0,3449.0,1.97,7.86,6.31,-0.08,0.01,-0.02,1.0,o
3107.0,4095.0,2035.0,2855.0,3855.0,3235.0,3559.0,3430.0,1.95,7.86,6.31,-0.07,0.01,-0.03,1.0,o
3115.0,4095.0,2034.0,2865.0,3869.0,3241.0,3575.0,3458.0,1.87,7.85,6.37,-0.07,-0.01,-0.04,1.0,o
3111.0,4095.0,2033.0,2861.0,3841.0,3231.0,3551.0,3440.0,1.95,7.86,6.35,-0.05,-0.01,-0.04,1.0,o
3119.0,4095.0,2032.0,2864.0,3856.0,3230.0,3558.0,3439.0,1.89,7.87,6.27,-0.07,-0.0,-0.03,1.0,o
3120.0,4095.0,2032.0,2859.0,3851.0,3229.0,3554.0,3422.0,2.03,7.85,6.39,-0.04,0.01,-0.03,1.0,o
3134.0,4095.0,2036.0,2860.0,3856.0,3239.0,3568.0,3424.0,1.85,7.9,6.24,-0.07,-0.02,-0.05,1.0,o
3120.0,4095.0,2032.0,2859.0,3859.0,3237.0,3561.0,3428.0,1.93,7.88,6.24,-0.07,-0.02,-0.03,1.0,o
3127.0,4095.0,2038.0,2862.0,3863.0,3234.0,3567.0,3425.0,1.97,7.87,6.34,-0.06,0.0,-0.04,1.0,o
3115.0,4095.0,2033.0,2858.0,3856.0,3229.0,3549.0,3439.0,1.96,7.86,6.26,-0.07,-0.01,-0.03,1.0,o
3121.0,4095.0,2034.0,2863.0,3862.0,3238.0,3575.0,3443.0,1.94,7.78,6.49,-0.07,-0.0,-0.03,1.0,o
3115.0,4095.0,2037.0,2864.0,3857.0,3232.0,3555.0,3425.0,1.9,7.78,6.41,-0.04,-0.0,-0.04,1.0,o
3120.0,4095.0,2039.0,2874.0,3869.0,3243.0,3567.0,3431.0,1.89,7.89,6.2,-0.05,0.0,-0.03,1.0,o
3119.0,4095.0,2032.0,2862.0,3851.0,3228.0,3559.0,3422.0,1.94,7.83,6.37,-0.08,0.02,-0.03,1.0,o
3122.0,4095.0,2033.0,2867.0,3882.0,3248.0,3571.0,3426.0,1.97,7.82,6.43,-0.05,-0.02,-0.04,1.0,o
3119.0,4095.0,2032.0,2864.0,3855.0,3231.0,3549.0,3407.0,1.86,7.95,6.16,-0.06,0.01,-0.04,1.0,o
3120.0,4095.0,2035.0,2866.0,3870.0,3239.0,3574.0,3424.0,1.85,7.84,6.43,-0.08,-0.01,-0.01,1.0,o
3111.0,4095.0,2032.0,2858.0,3853.0,3246.0,3571.0,3434.0,2.08,7.79,6.44,-0.05,0.02,-0.02,1.0,o
3115.0,4095.0,2039.0,2862.0,3856.0,3234.0,3553.0,3389.0,1.98,8.05,5.94,-0.08,0.03,-0.03,1.0,o
3109.0,4095.0,2039.0,2866.0,3858.0,3250.0,3578.0,3446.0,1.73,7.62,6.75,-0.15,-0.05,-0.07,1.0,o
3113.0,4095.0,2032.0,2867.0,3857.0,3231.0,3559.0,3407.0,2.16,7.89,6.39,0.03,-0.03,-0.01,1.0,o
3124.0,4095.0,2042.0,2873.0,3898.0,3242.0,3570.0,3423.0,1.95,7.97,5.98,-0.07,-0.0,-0.01,1.0,o
3120.0,4095.0,2031.0,2864.0,3859.0,3235.0,3555.0,3417.0,1.9,7.73,6.58,-0.1,-0.03,-0.05,1.0,o
3118.0,4095.0,2033.0,2871.0,3877.0,3241.0,3559.0,3440.0,2.0,7.85,6.35,-0.04,0.02,-0.04,1.0,o
3106.0,4095.0,2033.0,2864.0,3863.0,3231.0,3561.0,3455.0,1.85,7.9,6.22,-0.09,-0.0,-0.09,1.0,o
3120.0,4095.0,2035.0,2873.0,3872.0,3239.0,3568.0,3471.0,1.67,7.72,6.53,-0.12,0.01,0.01,1.0,o
3121.0,4095.0,2032.0,2867.0,3861.0,3232.0,3558.0,3452.0,2.09,7.59,6.75,-0.05,-0.01,-0.07,1.0,o
3111.0,4095.0,2033.0,2874.0,3867.0,3232.0,3563.0,3458.0,1.59,7.87,6.31,-0.1,0.07,-0.05,1.0,o
3127.0,4095.0,2032.0,2871.0,3877.0,3251.0,3583.0,3514.0,1.76,7.6,6.63,-0.17,0.1,0.0,1.0,o
3114.0,4095.0,2023.0,2865.0,3867.0,3235.0,3567.0,3506.0,1.73,7.59,6.89,-0.09,-0.07,-0.09,1.0,o
3120.0,4095.0,2032.0,2876.0,3907.0,3248.0,3583.0,3511.0,1.74,7.86,6.14,-0.16,0.02,0.05,1.0,o
3104.0,4095.0,2031.0,2867.0,3873.0,3246.0,3564.0,3503.0,2.36,7.44,6.89,-0.25,0.1,-0.07,1.0,o
3125.0,4095.0,2037.0,2878.0,3886.0,3246.0,3570.0,3522.0,1.66,7.4,6.94,-0.22,0.01,-0.21,1.0,o
3109.0,4095.0,2032.0,2871.0,3899.0,3246.0,3569.0,3517.0,1.34,7.26,7.13,-0.19,0.12,-0.12,1.0,o
3120.0,4095.0,2039.0,2882.0,3899.0,3248.0,3574.0,3520.0,1.26,7.18,7.27,-0.16,0.06,-0.12,1.0,o
3109.0,4095.0,2037.0,2877.0,3898.0,3248.0,3573.0,3522.0,1.44,7.19,7.31,-0.09,-0.07,-0.2,1.0,o
3119.0,4095.0,2037.0,2887.0,3888.0,3261.0,3565.0,3554.0,1.02,7.22,7.1,-0.13,0.03,-0.1,1.0,o
3121.0,4095.0,2043.0,2880.0,3902.0,3251.0,3581.0,3562.0,1.14,7.1,7.36,-0.15,0.03,-0.08,1.0,o
3104.0,4095.0,2047.0,2875.0,3888.0,3248.0,3562.0,3527.0,1.04,7.01,7.42,-0.13,0.01,-0.08,1.0,o
3121.0,4095.0,2055.0,2882.0,3888.0,3258.0,3580.0,3566.0,0.9,7.04,7.43,-0.13,-0.0,-0.02,1.0,o
3106.0,4095.0,2047.0,2881.0,3888.0,3247.0,3568.0,3549.0,1.03,6.99,7.44,-0.12,0.03,0.03,1.0,o
3120.0,4095.0,2047.0,2893.0,3893.0,3248.0,3569.0,3561.0,1.15,6.96,7.44,-0.12,0.02,0.03,1.0,o
3118.0,4095.0,2047.0,2887.0,3895.0,3248.0,3571.0,3545.0,1.21,6.85,7.56,-0.13,0.04,0.02,1.0,o
3115.0,4095.0,2060.0,2885.0,3892.0,3258.0,3583.0,3567.0,1.09,6.78,7.71,-0.08,0.04,-0.01,1.0,o
3115.0,4095.0,2047.0,2885.0,3886.0,3250.0,3568.0,3546.0,1.04,6.83,7.56,-0.1,0.02,0.03,1.0,o
3133.0,4095.0,2063.0,2894.0,3904.0,3266.0,3575.0,3569.0,1.36,6.75,7.69,-0.09,-0.02,0.04,1.0,o
3120.0,4095.0,2064.0,2889.0,3883.0,3261.0,3563.0,3537.0,1.26,6.78,7.61,-0.07,0.0,-0.03,1.0,o
3107.0,4095.0,2087.0,2895.0,3933.0,3271.0,3580.0,3557.0,1.7,6.73,7.57,-0.03,-0.02,0.01,1.0,o
3115.0,4095.0,2079.0,2895.0,3898.0,3258.0,3569.0,3553.0,1.6,6.68,7.7,-0.07,-0.04,-0.03,1.0,o
3116.0,4095.0,2086.0,2893.0,3910.0,3274.0,3583.0,3569.0,1.54,6.67,7.65,-0.05,-0.01,-0.01,1.0,o
3117.0,4095.0,2077.0,2887.0,3885.0,3259.0,3579.0,3536.0,1.59,6.62,7.72,-0.03,-0.04,0.02,1.0,o
3125.0,4095.0,2080.0,2898.0,3914.0,3266.0,3583.0,3566.0,1.67,6.73,7.63,0.06,-0.07,0.03,1.0,o
3121.0,4095.0,2076.0,2896.0,3906.0,3258.0,3569.0,3551.0,1.99,6.85,7.4,0.01,-0.04,0.02,1.0,o
3120.0,4095.0,2083.0,2895.0,3920.0,3264.0,3571.0,3564.0,2.04,6.87,7.38,-0.04,-0.02,-0.01,1.0,o
3120.0,4095.0,2086.0,2896.0,3923.0,3268.0,3583.0,3574.0,1.94,6.83,7.51,-0.05,-0.01,-0.03,1.0,o
3122.0,4095.0,2078.0,2886.0,3902.0,3258.0,3580.0,3566.0,1.79,6.79,7.55,-0.02,-0.03,-0.02,1.0,o
3115.0,4095.0,2080.0,2896.0,3918.0,3265.0,3579.0,3568.0,1.89,6.82,7.49,0.01,-0.05,0.02,1.0,o
3117.0,4095.0,2081.0,2891.0,3893.0,3267.0,3582.0,3562.0,2.04,6.89,7.36,0.02,-0.08,0.03,1.0,o
3107.0,4095.0,2080.0,2895.0,3893.0,3269.0,3582.0,3557.0,2.28,6.98,7.25,0.03,-0.03,0.01,1.0,o
3117.0,4095.0,2074.0,2897.0,3902.0,3259.0,3569.0,3541.0,2.22,7.09,7.11,0.01,-0.04,-0.02,1.0,o
3106.0,4095.0,2087.0,2901.0,3914.0,3277.0,3579.0,3542.0,2.21,7.04,7.21,-0.0,-0.03,-0.01,1.0,o
3113.0,4095.0,2071.0,2895.0,3891.0,3265.0,3583.0,3553.0,2.32,7.04,7.13,-0.01,-0.04,-0.01,1.0,o
3116.0,4095.0,2086.0,2899.0,3904.0,3267.0,3583.0,3549.0,2.29,7.09,7.12,-0.01,-0.02,-0.03,1.0,o
3119.0,4095.0,2079.0,2896.0,3891.0,3255.0,3598.0,3508.0,2.34,7.15,7.11,0.03,-0.03,-0.03,1.0,o
3119.0,4095.0,2066.0,2896.0,3891.0,3265.0,3603.0,3503.0,2.37,7.22,6.94,0.02,-0.04,-0.03,1.0,o
3114.0,4095.0,2080.0,2896.0,3891.0,3268.0,3598.0,3487.0,2.43,7.28,6.87,0.04,-0.02,-0.03,1.0,o
3114.0,4095.0,2077.0,2901.0,3891.0,3271.0,3574.0,3497.0,2.46,7.36,6.84,0.02,-0.03,-0.04,1.0,o
3120.0,4095.0,2090.0,2902.0,3904.0,3275.0,3599.0,3504.0,2.49,7.72,6.35,-0.02,-0.01,-0.06,1.0,o
3120.0,4095.0,2095.0,2896.0,3913.0,3267.0,3605.0,3504.0,2.46,7.75,6.33,-0.05,-0.02,-0.05,1.0,o
3115.0,4095.0,2087.0,2896.0,3908.0,3268.0,3583.0,3495.0,2.43,7.74,6.31,-0.03,-0.03,-0.05,1.0,o
3109.0,4095.0,2089.0,2896.0,3899.0,3264.0,3581.0,3488.0,2.43,7.79,6.24,-0.02,-0.02,-0.06,1.0,o
3121.0,4095.0,2093.0,2909.0,3920.0,3274.0,3583.0,3501.0,2.47,7.81,6.21,-0.0,-0.05,-0.08,1.0,o
3116.0,4095.0,2099.0,2896.0,3903.0,3264.0,3600.0,3478.0,2.41,7.87,6.14,-0.01,-0.04,-0.08,1.0,o
3119.0,4095.0,2107.0,2899.0,3895.0,3281.0,3607.0,3487.0,2.43,7.9,6.16,-0.0,-0.04,-0.08,1.0,o
3120.0,4095.0,2101.0,2903.0,3923.0,3264.0,3583.0,3473.0,2.32,7.94,6.05,-0.01,-0.01,-0.07,1.0,o
3122.0,4095.0,2107.0,2907.0,3920.0,3271.0,3598.0,3477.0,2.35,8.02,5.98,-0.01,0.01,-0.04,1.0,o
3111.0,4095.0,2097.0,2907.0,3920.0,3269.0,3599.0,3473.0,2.43,8.02,5.99,-0.01,-0.06,-0.07,1.0,o
3115.0,4095.0,2099.0,2917.0,3934.0,3280.0,3600.0,3456.0,2.36,8.04,5.95,-0.01,-0.03,-0.08,1.0,o
3120.0,4095.0,2103.0,2899.0,3899.0,3263.0,3583.0,3433.0,2.31,8.1,5.83,-0.01,0.02,-0.05,1.0,o
3122.0,4095.0,2101.0,2912.0,3920.0,3277.0,3600.0,3408.0,2.38,8.12,5.85,-0.02,-0.04,-0.08,1.0,o
3107.0,4095.0,2102.0,2902.0,3901.0,3268.0,3598.0,3387.0,2.3,8.15,5.77,-0.01,0.01,-0.09,1.0,o
3120.0,4095.0,2102.0,2911.0,3895.0,3263.0,3583.0,3387.0,2.25,8.17,5.8,0.0,-0.01,-0.09,1.0,o
3120.0,4095.0,2099.0,2903.0,3927.0,3273.0,3618.0,3408.0,2.22,8.27,5.71,-0.02,-0.0,-0.08,1.0,o
3118.0,4095.0,2098.0,2906.0,3941.0,3263.0,3583.0,3394.0,2.2,8.3,5.57,-0.0,-0.07,-0.13,1.0,o
3125.0,4095.0,2106.0,2912.0,3967.0,3275.0,3627.0,3408.0,1.92,8.4,5.45,0.0,-0.03,-0.12,1.0,o
3120.0,4095.0,2103.0,2905.0,3961.0,3276.0,3603.0,3407.0,2.03,8.43,5.44,-0.0,-0.03,-0.07,1.0,o
3125.0,4095.0,2109.0,2915.0,3966.0,3280.0,3607.0,3378.0,2.11,8.41,5.51,-0.03,-0.06,-0.08,1.0,o
3116.0,4095.0,2107.0,2909.0,3984.0,3283.0,3599.0,3423.0,1.08,8.89,4.89,0.22,0.13,-0.06,1.0,o
3111.0,4095.0,2103.0,2907.0,3968.0,3279.0,3583.0,3456.0,1.31,8.71,5.28,-0.09,-0.08,-0.08,1.0,o
3118.0,4095.0,2117.0,2919.0,3990.0,3277.0,3583.0,3460.0,1.39,8.71,5.26,-0.03,-0.0,-0.08,1.0,o
3106.0,4095.0,2112.0,2909.0,3984.0,3285.0,3600.0,3445.0,1.35,8.77,5.15,-0.04,-0.02,-0.08,1.0,o
3120.0,4095.0,2111.0,2913.0,3983.0,3294.0,3615.0,3456.0,1.26,8.74,5.16,-0.02,-0.04,-0.12,1.0,o
3113.0,4095.0,2117.0,2910.0,3943.0,3286.0,3583.0,3447.0,1.23,8.82,4.98,0.0,-0.06,-0.12,1.0,o
3114.0,4095.0,2115.0,2912.0,3982.0,3298.0,3607.0,3440.0,1.14,8.88,4.9,-0.03,-0.06,-0.11,1.0,o
3118.0,4095.0,2116.0,2907.0,3967.0,3282.0,3583.0,3456.0,1.15,8.84,5.05,-0.01,-0.08,-0.12,1.0,o
3121.0,4095.0,2114.0,2912.0,3983.0,3292.0,3607.0,3451.0,1.23,8.9,4.9,-0.0,-0.04,-0.13,1.0,o
3110.0,4095.0,2117.0,2910.0,3984.0,3293.0,3600.0,3449.0,1.08,9.0,4.65,-0.07,-0.04,-0.1,1.0,o
3125.0,4095.0,2125.0,2917.0,3997.0,3285.0,3599.0,3472.0,1.21,8.87,5.1,-0.13,-0.03,-0.11,1.0,o
3109.0,4095.0,2112.0,2909.0,3964.0,3286.0,3598.0,3466.0,0.77,8.81,5.06,-0.09,0.05,-0.08,1.0,o
3107.0,4095.0,2126.0,2912.0,3980.0,3294.0,3583.0,3440.0,1.06,8.82,5.14,-0.03,-0.04,-0.1,1.0,o
3122.0,4095.0,2125.0,2909.0,3987.0,3301.0,3618.0,3467.0,1.03,8.92,4.97,-0.05,-0.03,-0.13,1.0,o
3104.0,4095.0,2124.0,2907.0,3973.0,3287.0,3597.0,3454.0,0.63,8.9,4.89,-0.06,0.04,-0.15,1.0,o
3121.0,4095.0,2128.0,2917.0,4001.0,3291.0,3599.0,3446.0,0.49,8.79,5.15,-0.05,-0.05,-0.15,1.0,o
3115.0,4095.0,2125.0,2909.0,3973.0,3291.0,3602.0,3471.0,0.37,8.93,4.91,0.01,-0.01,-0.13,1.0,o
3118.0,4095.0,2135.0,2918.0,3998.0,3287.0,3600.0,3472.0,0.35,8.98,4.74,-0.02,-0.08,-0.1,1.0,o
3115.0,4095.0,2128.0,2906.0,3984.0,3293.0,3602.0,3447.0,0.5,8.98,4.92,-0.04,-0.07,-0.09,1.0,o
3121.0,4095.0,2137.0,2916.0,3984.0,3295.0,3605.0,3445.0,0.43,8.97,4.84,-0.05,-0.03,-0.09,1.0,o
3109.0,4095.0,2146.0,2915.0,3989.0,3296.0,3605.0,3446.0,0.19,8.96,4.81,-0.06,0.0,-0.08,1.0,o
3120.0,4095.0,2149.0,2915.0,3996.0,3305.0,3619.0,3449.0,0.19,8.96,4.87,-0.07,-0.02,-0.09,1.0,o
3104.0,4095.0,2151.0,2917.0,3987.0,3295.0,3600.0,3410.0,0.06,8.97,4.68,-0.09,0.05,-0.07,1.0,o
3121.0,4095.0,2161.0,2926.0,4001.0,3297.0,3600.0,3431.0,0.13,8.92,4.89,-0.1,0.02,-0.09,1.0,o
3118.0,4095.0,2152.0,2913.0,3979.0,3290.0,3610.0,3462.0,-0.06,8.94,4.89,-0.1,0.04,-0.1,1.0,o
3119.0,4095.0,2164.0,2919.0,4000.0,3302.0,3583.0,3467.0,-0.07,8.85,5.05,-0.11,0.03,-0.11,1.0,o
3099.0,4095.0,2159.0,2930.0,3983.0,3291.0,3583.0,3462.0,-0.32,8.85,4.98,-0.12,0.04,-0.07,1.0,o
3125.0,4095.0,2173.0,2923.0,3991.0,3307.0,3613.0,3504.0,-0.27,8.8,5.04,-0.1,0.03,-0.05,1.0,o
3113.0,4095.0,2175.0,2913.0,3966.0,3295.0,3615.0,3479.0,-0.25,8.82,5.08,-0.11,0.03,-0.03,1.0,o
3119.0,4095.0,2183.0,2926.0,3989.0,3300.0,3606.0,3486.0,-0.29,8.75,5.15,-0.12,0.02,-0.04,1.0,o
3113.0,4095.0,2174.0,2921.0,3962.0,3291.0,3583.0,3470.0,-0.18,8.71,5.28,-0.12,0.02,-0.06,1.0,o
3122.0,4095.0,2178.0,2928.0,4007.0,3312.0,3614.0,3488.0,-0.25,8.7,5.27,-0.11,0.02,-0.06,1.0,o
3119.0,4095.0,2181.0,2930.0,3995.0,3312.0,3615.0,3476.0,-0.27,8.66,5.38,-0.1,-0.01,-0.06,1.0,o
3101.0,4095.0,2175.0,2919.0,3981.0,3297.0,3622.0,3479.0,-0.26,8.6,5.47,-0.1,0.01,-0.06,1.0,o
3125.0,4095.0,2187.0,2931.0,3981.0,3302.0,3630.0,3483.0,-0.24,8.57,5.51,-0.07,-0.01,-0.06,1.0,o
3113.0,4095.0,2178.0,2921.0,3979.0,3298.0,3607.0,3456.0,-0.45,8.61,5.43,-0.06,0.0,-0.06,1.0,o
3122.0,4095.0,2183.0,2930.0,3987.0,3312.0,3630.0,3472.0,-0.4,8.63,5.39,-0.06,-0.0,-0.05,1.0,o
3120.0,4095.0,2189.0,2928.0,3959.0,3306.0,3602.0,3470.0,-0.34,8.66,5.27,-0.08,0.01,-0.03,1.0,o
3121.0,4095.0,2190.0,2935.0,4012.0,3311.0,3627.0,3461.0,-0.36,8.6,5.41,-0.09,-0.0,-0.06,1.0,o
3108.0,4095.0,2192.0,2928.0,3963.0,3299.0,3601.0,3460.0,-0.51,8.59,5.4,-0.08,0.02,-0.05,1.0,o
3116.0,4095.0,2214.0,2942.0,3997.0,3308.0,3605.0,3407.0,-0.34,7.72,6.72,-0.11,0.04,0.01,1.0,o
3126.0,4095.0,2217.0,2942.0,4009.0,3313.0,3629.0,3423.0,-0.4,7.59,6.9,-0.11,-0.04,-0.02,1.0,o
3107.0,4095.0,2206.0,2941.0,3998.0,3313.0,3611.0,3425.0,-0.14,7.61,6.91,-0.05,-0.02,0.02,1.0,o
3123.0,4095.0,2213.0,2944.0,3991.0,3312.0,3613.0,3460.0,-0.41,7.6,7.0,0.03,-0.07,0.04,1.0,o
3108.0,4095.0,2211.0,2933.0,3999.0,3309.0,3608.0,3470.0,-0.09,7.93,6.16,-0.01,0.04,0.03,1.0,o
3133.0,4095.0,2214.0,2944.0,4017.0,3314.0,3621.0,3474.0,0.25,7.77,6.56,-0.15,0.02,-0.06,1.0,o
3120.0,4095.0,2215.0,2945.0,4000.0,3312.0,3583.0,3467.0,-0.33,7.52,7.07,-0.13,-0.05,-0.15,1.0,o
3122.0,4095.0,2222.0,2946.0,3999.0,3311.0,3607.0,3429.0,-0.18,7.85,6.7,0.0,-0.05,-0.01,1.0,o
3111.0,4095.0,2214.0,2938.0,3994.0,3311.0,3610.0,3429.0,0.06,7.83,6.29,-0.08,0.05,-0.01,1.0,o
3108.0,4095.0,2220.0,2950.0,3997.0,3312.0,3599.0,3439.0,-0.1,7.54,7.07,-0.14,-0.02,-0.08,1.0,o
3120.0,4095.0,2211.0,2948.0,4018.0,3314.0,3619.0,3463.0,-0.34,7.59,6.85,-0.06,0.01,-0.04,1.0,o
3113.0,4095.0,2211.0,2941.0,4011.0,3311.0,3611.0,3444.0,-0.25,7.59,6.8,-0.07,0.03,-0.02,1.0,o
3119.0,4095.0,2217.0,2946.0,4016.0,3323.0,3614.0,3468.0,-0.12,7.65,6.82,-0.07,-0.02,-0.03,1.0,o
3114.0,4095.0,2219.0,2940.0,4000.0,3310.0,3583.0,3424.0,-0.03,7.38,7.28,-0.01,-0.06,-0.06,1.0,o
3124.0,4095.0,2218.0,2946.0,4013.0,3317.0,3616.0,3413.0,-0.13,7.82,6.53,0.03,0.07,-0.09,1.0,o
3107.0,4095.0,2211.0,2949.0,4003.0,3311.0,3603.0,3440.0,-0.47,7.86,6.31,-0.04,0.02,-0.09,1.0,o
3115.0,4095.0,2219.0,2955.0,4016.0,3311.0,3630.0,3445.0,-0.37,7.65,6.84,-0.08,-0.03,0.01,1.0,o
3111.0,4095.0,2211.0,2944.0,4010.0,3313.0,3600.0,3450.0,-0.22,7.63,6.78,-0.06,-0.02,-0.05,1.0,o
3125.0,4095.0,2219.0,2954.0,4020.0,3314.0,3611.0,3451.0,-0.34,7.78,6.58,-0.06,-0.02,-0.0,1.0,o
3120.0,4095.0,2220.0,2951.0,4009.0,3312.0,3601.0,3440.0,-0.11,7.78,6.49,-0.09,0.01,-0.0,1.0,o
3127.0,4095.0,2246.0,2950.0,4016.0,3315.0,3610.0,3476.0,-0.11,7.47,6.99,-0.11,0.01,0.02,1.0,o
3115.0,4095.0,2241.0,2942.0,4002.0,3309.0,3598.0,3473.0,-0.13,7.48,6.93,-0.11,-0.0,0.02,1.0,o
3117.0,4095.0,2244.0,2951.0,4016.0,3312.0,3614.0,3469.0,-0.11,7.42,7.07,-0.14,0.02,0.05,1.0,o
3117.0,4095.0,2246.0,2953.0,4013.0,3313.0,3600.0,3454.0,0.11,7.39,7.09,-0.14,0.01,0.06,1.0,o
3119.0,4095.0,2252.0,2954.0,4015.0,3317.0,3610.0,3472.0,0.1,7.25,7.32,-0.14,0.01,0.03,1.0,o
3122.0,4095.0,2247.0,2950.0,4001.0,3311.0,3601.0,3460.0,0.09,7.3,7.23,-0.11,0.03,0.05,1.0,o
3125.0,4095.0,2255.0,2951.0,4022.0,3322.0,3618.0,3459.0,0.02,7.23,7.26,-0.12,0.04,0.07,1.0,o
3106.0,4095.0,2269.0,2957.0,4023.0,3311.0,3610.0,3492.0,0.2,7.17,7.39,-0.08,-0.02,0.05,1.0,o
3111.0,4095.0,2260.0,2946.0,4016.0,3311.0,3602.0,3472.0,0.56,7.24,7.28,-0.04,0.01,0.04,1.0,o
3121.0,4095.0,2269.0,2948.0,4028.0,3314.0,3615.0,3474.0,0.29,7.19,7.27,-0.07,0.01,-0.03,1.0,o
3117.0,4095.0,2275.0,2951.0,4018.0,3314.0,3583.0,3479.0,0.22,7.19,7.4,0.03,-0.0,-0.01,1.0,o
3118.0,4095.0,2272.0,2957.0,4037.0,3317.0,3607.0,3475.0,0.24,7.34,7.05,-0.01,-0.01,0.04,1.0,o
3119.0,4095.0,2279.0,2946.0,4018.0,3314.0,3603.0,3499.0,0.52,7.35,7.13,-0.04,-0.02,0.04,1.0,o
3115.0,4095.0,2275.0,2955.0,4034.0,3319.0,3616.0,3509.0,0.48,7.31,7.22,-0.05,-0.03,0.01,1.0,o
3111.0,4095.0,2276.0,2957.0,4015.0,3313.0,3607.0,3483.0,0.52,7.31,7.2,-0.02,-0.01,0.0,1.0,o
3115.0,4095.0,2282.0,2951.0,4019.0,3321.0,3611.0,3499.0,0.5,7.4,7.06,-0.0,-0.01,0.03,1.0,o
3119.0,4095.0,2287.0,2953.0,4016.0,3312.0,3599.0,3477.0,0.62,7.42,7.04,-0.02,-0.03,0.04,1.0,o
3123.0,4095.0,2288.0,2958.0,4039.0,3325.0,3610.0,3503.0,0.72,7.44,7.07,-0.02,-0.02,0.02,1.0,o
3115.0,4095.0,2275.0,2946.0,4016.0,3319.0,3609.0,3503.0,0.8,7.49,6.96,-0.01,-0.01,0.01,1.0,o
3119.0,4095.0,2278.0,2946.0,4023.0,3313.0,3606.0,3472.0,0.85,7.54,6.9,-0.04,-0.03,0.01,1.0,o
3120.0,4095.0,2293.0,2959.0,4023.0,3326.0,3617.0,3535.0,1.3,7.88,6.4,-0.02,-0.01,0.03,1.0,o
3115.0,4095.0,2282.0,2958.0,4022.0,3318.0,3607.0,3516.0,1.42,7.79,6.65,-0.0,-0.05,-0.02,1.0,o
3120.0,4095.0,2288.0,2960.0,4032.0,3314.0,3599.0,3504.0,1.4,7.93,6.35,0.04,-0.03,-0.04,1.0,o
3117.0,4095.0,2288.0,2957.0,4032.0,3329.0,3629.0,3519.0,1.44,7.94,6.48,0.02,-0.04,-0.07,1.0,o
3119.0,4095.0,2287.0,2959.0,4016.0,3311.0,3615.0,3533.0,1.13,8.02,6.21,0.05,-0.01,-0.13,1.0,o
3118.0,4095.0,2285.0,2960.0,4033.0,3315.0,3616.0,3534.0,1.13,8.14,6.09,0.07,-0.0,-0.08,1.0,o
3119.0,4095.0,2288.0,2951.0,4010.0,3312.0,3620.0,3542.0,1.18,8.08,6.28,0.04,-0.09,-0.06,1.0,o
3114.0,4095.0,2287.0,2962.0,4043.0,3327.0,3627.0,3557.0,1.41,8.27,5.97,0.14,-0.07,-0.11,1.0,o
3120.0,4095.0,2282.0,2957.0,4023.0,3321.0,3611.0,3550.0,1.23,8.36,5.69,0.17,-0.19,-0.25,1.0,o
3129.0,4095.0,2288.0,2960.0,4042.0,3326.0,3621.0,3564.0,0.96,8.59,5.35,0.1,-0.12,-0.2,1.0,o
3118.0,4095.0,2288.0,2959.0,4030.0,3318.0,3608.0,3553.0,0.97,8.68,5.23,0.09,-0.02,-0.14,1.0,o
3120.0,4095.0,2287.0,2962.0,4047.0,3328.0,3621.0,3564.0,0.96,8.74,5.16,0.02,-0.09,-0.07,1.0,o
3122.0,4095.0,2288.0,2959.0,4019.0,3304.0,3602.0,3539.0,0.91,8.78,5.07,-0.01,-0.03,-0.07,1.0,o
3118.0,4095.0,2289.0,2969.0,4042.0,3327.0,3617.0,3559.0,0.96,8.78,5.18,-0.06,-0.05,-0.11,1.0,o
3123.0,4095.0,2291.0,2960.0,4022.0,3328.0,3632.0,3563.0,0.76,8.82,5.05,-0.06,0.05,-0.09,1.0,o
3110.0,4095.0,2283.0,2951.0,4032.0,3322.0,3610.0,3551.0,0.68,8.71,5.23,-0.11,-0.08,-0.05,1.0,o
3117.0,4095.0,2298.0,2960.0,4033.0,3328.0,3628.0,3535.0,1.05,8.77,5.13,-0.05,0.02,-0.01,1.0,o
3111.0,4095.0,2288.0,2956.0,4015.0,3318.0,3611.0,3541.0,0.98,8.71,5.28,-0.06,0.0,-0.07,1.0,o
3110.0,4095.0,2288.0,2961.0,4046.0,3330.0,3625.0,3536.0,0.74,8.71,5.27,-0.06,-0.0,-0.06,1.0,o
3120.0,4095.0,2288.0,2960.0,4016.0,3313.0,3601.0,3535.0,0.78,8.77,5.13,-0.07,0.04,-0.03,1.0,o
3121.0,4095.0,2298.0,2960.0,4037.0,3323.0,3620.0,3527.0,1.31,8.92,4.9,0.07,-0.07,0.04,1.0,o
3111.0,4095.0,2289.0,2958.0,4028.0,3319.0,3618.0,3542.0,1.36,9.06,4.53,0.06,0.04,-0.01,1.0,o
3117.0,4095.0,2294.0,2961.0,4035.0,3327.0,3632.0,3548.0,1.17,9.12,4.46,0.01,-0.02,-0.09,1.0,o
3107.0,4095.0,2294.0,2960.0,4027.0,3317.0,3611.0,3515.0,0.92,9.04,4.68,-0.02,0.02,-0.07,1.0,o
3123.0,4095.0,2295.0,2966.0,4046.0,3323.0,3619.0,3538.0,0.99,9.12,4.48,0.02,-0.01,-0.06,1.0,o
3113.0,4095.0,2290.0,2960.0,4023.0,3323.0,3609.0,3513.0,0.9,9.16,4.39,0.01,-0.03,-0.07,1.0,o
3113.0,4095.0,2292.0,2963.0,4021.0,3327.0,3612.0,3515.0,1.03,9.13,4.5,0.01,-0.05,-0.07,1.0,o
3127.0,4095.0,2286.0,2960.0,4037.0,3334.0,3623.0,3541.0,0.92,9.25,4.16,0.01,-0.06,-0.11,1.0,o
3112.0,4095.0,2320.0,2960.0,4017.0,3317.0,3614.0,3504.0,0.88,9.22,4.41,-0.02,-0.04,-0.07,1.0,o
3119.0,4095.0,2416.0,2967.0,4064.0,3353.0,3645.0,3442.0,0.55,9.17,4.35,-0.09,-0.06,-0.1,1.0,o
3114.0,4095.0,2499.0,2960.0,4076.0,3344.0,3661.0,3399.0,1.19,9.28,4.17,-0.03,-0.01,-0.06,1.0,o
3120.0,4095.0,2511.0,2965.0,4080.0,3361.0,3669.0,3494.0,0.71,9.23,4.22,-0.04,-0.05,-0.13,1.0,o
3115.0,4095.0,2511.0,2960.0,4090.0,3356.0,3665.0,3510.0,0.63,9.29,4.05,0.04,-0.05,-0.1,1.0,o
3119.0,4095.0,2522.0,2973.0,4095.0,3377.0,3683.0,3534.0,0.67,9.33,4.0,0.01,-0.02,-0.08,1.0,o
3122.0,4095.0,2522.0,2970.0,4079.0,3362.0,3664.0,3529.0,0.86,9.31,4.12,-0.03,-0.06,-0.09,1.0,o
3120.0,4095.0,2535.0,2971.0,4093.0,3376.0,3691.0,3554.0,0.46,9.33,3.99,-0.04,-0.04,-0.1,1.0,o
3122.0,4095.0,2526.0,2967.0,4080.0,3357.0,3669.0,3535.0,0.58,9.32,4.08,-0.0,-0.04,-0.1,1.0,o
3129.0,4095.0,2539.0,2977.0,4092.0,3366.0,3673.0,3547.0,0.52,9.41,3.86,-0.03,-0.07,-0.08,1.0,o
3125.0,4095.0,2547.0,2974.0,4082.0,3371.0,3681.0,3542.0,0.58,9.37,3.97,-0.01,-0.05,-0.1,1.0,o
3120.0,4095.0,2541.0,2965.0,4081.0,3376.0,3671.0,3539.0,0.54,9.41,3.81,-0.06,-0.04,-0.11,1.0,o
3109.0,4095.0,2559.0,2979.0,4095.0,3378.0,3680.0,3541.0,-0.01,9.42,3.81,-0.06,0.02,-0.05,1.0,o
3120.0,4095.0,2557.0,2977.0,4095.0,3380.0,3695.0,3539.0,0.19,9.36,3.98,-0.05,-0.03,-0.06,1.0,o
3120.0,4095.0,2559.0,2983.0,4095.0,3378.0,3675.0,3531.0,0.01,9.49,3.61,-0.1,0.04,-0.09,1.0,o
3118.0,4095.0,2559.0,2981.0,4095.0,3389.0,3699.0,3561.0,-0.11,9.38,3.88,-0.08,-0.0,-0.13,1.0,o
3116.0,4095.0,2559.0,2982.0,4075.0,3376.0,3682.0,3566.0,-0.23,9.43,3.71,-0.14,-0.02,-0.08,1.0,o
3121.0,4095.0,2581.0,2992.0,4095.0,3395.0,3708.0,3567.0,0.1,9.25,4.19,-0.11,-0.07,-0.12,1.0,o
3107.0,4095.0,2559.0,2983.0,4094.0,3379.0,3685.0,3561.0,-0.36,9.34,3.92,-0.1,0.03,-0.16,1.0,o
3116.0,4095.0,2580.0,2999.0,4095.0,3389.0,3684.0,3566.0,-0.81,9.22,4.14,-0.18,-0.03,-0.14,1.0,o
3120.0,4095.0,2559.0,2992.0,4095.0,3378.0,3677.0,3563.0,-0.48,9.16,4.39,-0.07,-0.05,-0.08,1.0,o
3120.0,4095.0,2581.0,2990.0,4095.0,3378.0,3679.0,3568.0,-0.51,9.29,4.03,-0.05,-0.05,-0.1,1.0,o
3121.0,4095.0,2559.0,2993.0,4095.0,3395.0,3705.0,3572.0,-0.29,9.16,4.33,-0.01,-0.36,-0.23,1.0,o
3109.0,4095.0,2608.0,2990.0,4086.0,3377.0,3671.0,3579.0,-0.54,9.27,4.12,0.04,-0.07,-0.24,1.0,o
3118.0,4095.0,2652.0,2998.0,4095.0,3397.0,3690.0,3603.0,-0.94,9.27,3.79,-0.03,-0.0,-0.17,1.0,o
3118.0,4095.0,2660.0,2990.0,4095.0,3380.0,3683.0,3568.0,-0.89,9.29,3.94,-0.08,0.01,-0.14,1.0,o
3134.0,4095.0,2667.0,3003.0,4095.0,3394.0,3670.0,3583.0,-1.07,9.24,3.98,-0.06,-0.02,-0.14,1.0,o
3119.0,4095.0,2662.0,2991.0,4094.0,3383.0,3664.0,3600.0,-1.26,9.24,3.9,-0.07,0.02,-0.11,1.0,o
3121.0,4095.0,2671.0,3009.0,4095.0,3392.0,3696.0,3611.0,-1.22,9.18,4.09,-0.08,-0.03,-0.08,1.0,o
3119.0,4095.0,2675.0,2998.0,4095.0,3379.0,3683.0,3559.0,-1.24,9.17,4.11,-0.05,0.01,-0.05,1.0,o
3123.0,4095.0,2673.0,2999.0,4095.0,3408.0,3693.0,3568.0,-1.22,9.22,4.03,-0.0,-0.03,-0.08,1.0,o
3120.0,4095.0,2679.0,2999.0,4095.0,3376.0,3671.0,3552.0,-1.35,9.21,3.98,0.01,-0.02,-0.1,1.0,o
3120.0,4095.0,2741.0,3007.0,4095.0,3376.0,3691.0,3643.0,-1.07,9.62,2.87,0.01,0.05,-0.02,1.0,o
3110.0,4095.0,2735.0,3002.0,4095.0,3367.0,3681.0,3646.0,-1.23,9.57,2.97,-0.05,0.05,0.02,1.0,o
3118.0,4095.0,2736.0,3007.0,4095.0,3382.0,3696.0,3653.0,-1.11,9.62,2.85,-0.03,0.12,0.07,1.0,o
3118.0,4095.0,2741.0,3003.0,4095.0,3373.0,3674.0,3641.0,-1.0,9.67,2.76,-0.04,0.04,0.03,1.0,o
3120.0,4095.0,2736.0,3017.0,4095.0,3382.0,3696.0,3632.0,-0.83,9.91,2.18,-0.07,0.11,0.03,1.0,o
3113.0,4095.0,2736.0,3002.0,4095.0,3385.0,3686.0,3652.0,-0.8,9.65,2.51,-0.33,0.29,0.06,1.0,o
3123.0,4095.0,2746.0,3003.0,4095.0,3377.0,3679.0,3611.0,-1.2,9.18,4.16,-0.21,-0.3,-0.19,1.0,o
3127.0,4095.0,2746.0,3008.0,4095.0,3389.0,3700.0,3652.0,-1.07,9.46,3.15,0.05,0.1,0.06,1.0,o
3114.0,4095.0,2736.0,3006.0,4095.0,3381.0,3688.0,3646.0,-0.86,9.72,2.79,-0.04,0.06,0.06,1.0,o
3120.0,4095.0,2737.0,3007.0,4095.0,3395.0,3683.0,3637.0,-0.68,9.54,3.15,-0.05,0.04,0.02,1.0,o
3123.0,4095.0,2737.0,3003.0,4095.0,3373.0,3673.0,3642.0,-0.95,9.55,3.21,-0.06,-0.01,-0.03,1.0,o
3117.0,4095.0,2742.0,3008.0,4095.0,3389.0,3697.0,3647.0,-0.82,9.64,2.9,0.0,-0.0,0.01,1.0,o
3107.0,4095.0,2734.0,3002.0,4095.0,3375.0,3685.0,3612.0,-0.92,9.74,2.53,-0.04,0.12,0.08,1.0,o
3117.0,4095.0,2736.0,3008.0,4095.0,3377.0,3690.0,3626.0,-0.72,9.62,3.06,-0.11,0.02,0.07,1.0,o
3118.0,4095.0,2733.0,3003.0,4095.0,3367.0,3679.0,3627.0,-0.65,9.81,2.51,-0.09,0.11,0.06,1.0,o
3130.0,4095.0,2746.0,3009.0,4095.0,3386.0,3697.0,3655.0,-0.61,9.54,3.23,-0.14,-0.02,0.08,1.0,o
3112.0,4095.0,2735.0,3002.0,4095.0,3373.0,3678.0,3649.0,-0.1,9.5,3.58,-0.08,-0.08,0.1,1.0,o
3120.0,4095.0,2742.0,3011.0,4095.0,3391.0,3701.0,3647.0,-0.15,9.69,2.91,-0.04,0.39,0.15,1.0,o
3121.0,4095.0,2737.0,3010.0,4095.0,3390.0,3705.0,3649.0,-0.38,9.68,2.91,-0.03,-0.13,-0.1,1.0,o
3114.0,4095.0,2736.0,3005.0,4095.0,3380.0,3691.0,3633.0,-0.31,9.62,3.16,-0.05,0.02,0.03,1.0,o
3118.0,4095.0,2735.0,3005.0,4095.0,3367.0,3694.0,3647.0,-0.11,9.82,2.58,-0.06,0.05,0.0,1.0,o
3126.0,4095.0,2741.0,3010.0,4095.0,3374.0,3698.0,3650.0,-0.16,9.79,2.67,-0.11,0.03,0.05,1.0,o
3118.0,4095.0,2733.0,3003.0,4095.0,3374.0,3690.0,3647.0,0.07,9.62,3.17,-0.13,-0.07,0.06,1.0,o
3118.0,4095.0,2736.0,3008.0,4095.0,3377.0,3702.0,3659.0,0.38,9.63,3.13,-0.03,-0.05,-0.02,1.0,o
3120.0,4095.0,2738.0,3019.0,4095.0,3377.0,3690.0,3642.0,0.31,9.75,2.81,-0.05,0.03,0.02,1.0,o
3121.0,4095.0,2736.0,3006.0,4095.0,3373.0,3685.0,3637.0,0.23,9.7,2.97,-0.11,0.03,0.02,1.0,o
3110.0,4095.0,2750.0,3017.0,4095.0,3388.0,3703.0,3658.0,0.24,9.67,3.07,-0.08,-0.03,-0.01,1.0,o
3103.0,4095.0,2736.0,3012.0,4095.0,3376.0,3679.0,3633.0,0.26,9.69,3.02,-0.12,-0.01,0.04,1.0,o
3120.0,4095.0,2744.0,3010.0,4095.0,3377.0,3676.0,3664.0,0.41,9.68,3.05,-0.15,-0.06,0.04,1.0,o
3114.0,4095.0,2736.0,3005.0,4095.0,3370.0,3675.0,3658.0,0.57,9.57,3.31,-0.17,-0.01,0.08,1.0,o
3117.0,4095.0,2735.0,3007.0,4095.0,3376.0,3691.0,3652.0,0.76,9.56,3.4,-0.15,0.03,0.09,1.0,o
3107.0,4095.0,2736.0,3007.0,4095.0,3371.0,3679.0,3647.0,0.91,9.52,3.53,-0.12,-0.01,0.07,1.0,o
3123.0,4095.0,2743.0,3018.0,4095.0,3393.0,3703.0,3660.0,0.98,9.47,3.59,-0.1,-0.03,0.01,1.0,o
3117.0,4095.0,2726.0,3005.0,4095.0,3379.0,3675.0,3643.0,0.92,9.52,3.47,-0.08,0.03,0.02,1.0,o
3118.0,4095.0,2736.0,3012.0,4095.0,3382.0,3695.0,3645.0,0.89,9.52,3.44,-0.1,0.03,0.03,1.0,o
3108.0,4095.0,2736.0,3007.0,4095.0,3378.0,3694.0,3634.0,0.96,9.5,3.51,-0.11,0.1,0.06,1.0,o
3111.0,4095.0,2731.0,3017.0,4095.0,3383.0,3681.0,3632.0,1.14,9.48,3.58,-0.12,0.05,0.06,1.0,o
3119.0,4095.0,2739.0,3015.0,4095.0,3381.0,3703.0,3645.0,1.21,9.36,3.84,-0.14,0.02,0.04,1.0,o
3117.0,4095.0,2736.0,3011.0,4095.0,3376.0,3674.0,3615.0,1.22,9.31,3.95,-0.08,0.02,-0.01,1.0,o
3119.0,4095.0,2741.0,3023.0,4095.0,3389.0,3691.0,3613.0,1.19,9.39,3.73,-0.06,0.03,-0.02,1.0,o
3120.0,4095.0,2732.0,3007.0,4095.0,3382.0,3688.0,3600.0,1.31,9.32,3.93,-0.08,0.04,0.01,1.0,o
3120.0,4095.0,2732.0,3022.0,4095.0,3396.0,3699.0,3580.0,1.39,9.24,4.07,-0.12,0.03,0.01,1.0,o
3125.0,4095.0,2738.0,3013.0,4095.0,3391.0,3687.0,3604.0,1.41,9.2,4.24,-0.14,0.02,0.02,1.0,o
3110.0,4095.0,2729.0,3021.0,4095.0,3378.0,3671.0,3559.0,1.51,9.1,4.41,-0.11,-0.04,0.0,1.0,o
3129.0,4095.0,2731.0,3012.0,4095.0,3387.0,3699.0,3583.0,1.57,9.18,4.24,-0.07,0.03,0.01,1.0,o
3120.0,4095.0,2734.0,3008.0,4095.0,3376.0,3690.0,3568.0,1.53,9.16,4.24,-0.09,0.01,-0.0,1.0,o
3120.0,4095.0,2735.0,3009.0,4095.0,3392.0,3695.0,3575.0,1.53,9.11,4.37,-0.1,0.01,0.0,1.0,o
3119.0,4095.0,2723.0,3011.0,4095.0,3381.0,3678.0,3549.0,1.6,9.12,4.34,-0.07,-0.0,-0.03,1.0,o
3118.0,4095.0,2733.0,3009.0,4095.0,3393.0,3689.0,3567.0,1.47,9.11,4.3,-0.08,0.01,-0.02,1.0,o
3110.0,4095.0,2730.0,3011.0,4095.0,3377.0,3696.0,3546.0,1.57,9.11,4.36,-0.09,0.03,0.0,1.0,o
3120.0,4095.0,2738.0,3015.0,4095.0,3392.0,3690.0,3554.0,1.58,9.04,4.46,-0.09,0.0,-0.0,1.0,o
3113.0,4095.0,2725.0,3013.0,4095.0,3388.0,3691.0,3565.0,1.64,9.08,4.4,-0.07,0.0,-0.02,1.0,o
3120.0,4095.0,2729.0,3015.0,4095.0,3393.0,3695.0,3564.0,1.63,9.1,4.39,-0.08,0.02,-0.01,1.0,o
3116.0,4095.0,2721.0,3014.0,4095.0,3385.0,3696.0,3533.0,1.64,9.03,4.49,-0.1,0.02,-0.01,1.0,o
3120.0,4095.0,2733.0,3012.0,4095.0,3379.0,3681.0,3534.0,1.65,9.01,4.53,-0.08,0.01,-0.01,1.0,o
3118.0,4095.0,2733.0,3021.0,4095.0,3381.0,3689.0,3534.0,1.71,9.05,4.48,-0.08,0.0,-0.03,1.0,o
3107.0,4095.0,2735.0,3010.0,4095.0,3380.0,3679.0,3536.0,1.66,9.04,4.47,-0.08,0.02,-0.02,1.0,o
3114.0,4095.0,2729.0,3023.0,4095.0,3385.0,3690.0,3552.0,1.66,9.0,4.58,-0.11,0.03,0.01,1.0,o
3113.0,4095.0,2726.0,3006.0,4095.0,3379.0,3690.0,3531.0,1.81,8.99,4.58,-0.09,0.01,-0.01,1.0,o
3136.0,4095.0,2723.0,3018.0,4095.0,3395.0,3710.0,3549.0,1.79,8.94,4.67,-0.1,-0.01,-0.02,1.0,o
3115.0,4095.0,2727.0,3007.0,4095.0,3383.0,3681.0,3562.0,1.8,8.91,4.69,-0.1,0.02,-0.03,1.0,o
3120.0,4095.0,2735.0,3019.0,4095.0,3404.0,3702.0,3570.0,1.78,8.89,4.79,-0.09,0.0,-0.04,1.0,o
3117.0,4095.0,2725.0,3010.0,4095.0,3380.0,3680.0,3551.0,1.76,8.85,4.77,-0.08,0.01,-0.03,1.0,o
3120.0,4095.0,2736.0,3017.0,4095.0,3390.0,3694.0,3550.0,1.75,8.87,4.77,-0.08,0.01,-0.02,1.0,o
3105.0,4095.0,2722.0,3008.0,4095.0,3392.0,3691.0,3519.0,1.77,8.85,4.85,-0.07,0.02,-0.03,1.0,o
3120.0,4095.0,2735.0,3024.0,4095.0,3383.0,3691.0,3551.0,1.72,8.83,4.84,-0.08,0.01,-0.03,1.0,o
3117.0,4095.0,2734.0,3015.0,4095.0,3386.0,3681.0,3537.0,1.79,8.81,4.92,-0.07,0.01,-0.02,1.0,o
3124.0,4095.0,2727.0,3018.0,4095.0,3391.0,3702.0,3539.0,1.73,8.77,4.94,-0.08,-0.01,-0.04,1.0,o
3117.0,4095.0,2726.0,3011.0,4095.0,3385.0,3673.0,3497.0,1.76,8.81,4.92,-0.06,-0.0,-0.04,1.0,o
3119.0,4095.0,2724.0,3018.0,4095.0,3406.0,3697.0,3527.0,1.75,8.78,4.94,-0.06,-0.01,-0.04,1.0,o
3114.0,4095.0,2720.0,3018.0,4095.0,3380.0,3675.0,3534.0,1.75,8.82,4.88,-0.06,0.0,-0.04,1.0,o
3121.0,4095.0,2724.0,3015.0,4095.0,3381.0,3686.0,3548.0,1.82,8.82,4.9,-0.07,0.0,-0.04,1.0,o
3120.0,4095.0,2733.0,3024.0,4095.0,3383.0,3677.0,3520.0,1.79,8.79,4.92,-0.07,-0.0,-0.05,1.0,o
3114.0,4095.0,2725.0,3008.0,4095.0,3390.0,3684.0,3471.0,1.75,8.77,4.97,-0.08,-0.0,-0.05,1.0,o
3107.0,4095.0,2730.0,3021.0,4095.0,3401.0,3680.0,3568.0,1.71,8.79,4.98,-0.08,0.0,-0.04,1.0,o
3111.0,4095.0,2723.0,3010.0,4095.0,3379.0,3681.0,3557.0,1.7,8.81,4.94,-0.07,-0.0,-0.04,1.0,o
3118.0,4095.0,2734.0,3024.0,4095.0,3398.0,3680.0,3568.0,1.73,8.78,4.98,-0.07,-0.0,-0.04,1.0,o
3119.0,4095.0,2733.0,3011.0,4095.0,3389.0,3693.0,3563.0,1.71,8.75,5.02,-0.07,-0.01,-0.05,1.0,o
3120.0,4095.0,2731.0,3024.0,4095.0,3404.0,3699.0,3566.0,1.7,8.81,4.92,-0.08,0.02,-0.03,1.0,o
3109.0,4095.0,2725.0,3014.0,4095.0,3386.0,3664.0,3570.0,1.79,8.77,4.98,-0.06,0.01,-0.06,1.0,o
3806.0,864.0,3470.0,2901.0,4095.0,3358.0,3579.0,3071.0,-0.11,7.8,6.59,-0.06,0.06,-0.02,1.0,o
3792.0,871.0,3473.0,2896.0,4089.0,3360.0,3581.0,3066.0,-0.04,7.75,6.6,-0.07,-0.03,-0.06,1.0,o
3791.0,870.0,3470.0,2895.0,4095.0,3374.0,3600.0,3071.0,-0.11,7.76,6.62,-0.05,0.02,-0.06,1.0,o
3792.0,874.0,3472.0,2902.0,4066.0,3357.0,3569.0,3049.0,-0.2,7.78,6.52,-0.06,0.0,-0.05,1.0,o
3806.0,877.0,3474.0,2901.0,4095.0,3351.0,3581.0,3057.0,-0.17,7.76,6.62,-0.07,-0.02,-0.05,1.0,o
3771.0,868.0,3447.0,2895.0,4095.0,3359.0,3583.0,3030.0,-0.06,7.74,6.7,-0.04,-0.02,-0.06,1.0,o
3794.0,870.0,3475.0,2926.0,4095.0,3374.0,3611.0,3136.0,-0.09,7.74,6.71,-0.03,-0.03,-0.07,1.0,o
3800.0,871.0,3462.0,2917.0,4081.0,3358.0,3581.0,3187.0,-0.19,7.73,6.71,-0.06,-0.01,-0.11,1.0,o
3797.0,867.0,3472.0,2928.0,4071.0,3361.0,3600.0,3186.0,-0.05,7.87,6.39,-0.06,0.01,-0.1,1.0,o
3801.0,870.0,3458.0,2937.0,4048.0,3357.0,3606.0,3207.0,-0.26,7.72,6.58,-0.12,-0.03,-0.15,1.0,o
3789.0,876.0,3447.0,2939.0,4002.0,3359.0,3583.0,3226.0,-0.25,7.68,6.69,-0.12,-0.03,-0.14,1.0,o
3793.0,871.0,3470.0,2959.0,4071.0,3377.0,3606.0,3233.0,-0.5,7.59,6.85,-0.1,0.01,-0.13,1.0,o
3781.0,867.0,3462.0,2940.0,4070.0,3367.0,3578.0,3220.0,-0.61,7.42,7.13,-0.06,-0.04,-0.16,1.0,o
3815.0,871.0,3471.0,2943.0,4092.0,3376.0,3601.0,3243.0,-0.62,7.6,6.72,-0.03,0.05,-0.11,1.0,o
3775.0,874.0,3457.0,2957.0,4085.0,3376.0,3600.0,3244.0,-0.87,7.65,6.66,-0.08,0.01,-0.11,1.0,o
3798.0,867.0,3467.0,2965.0,4095.0,3376.0,3599.0,3234.0,-0.86,7.55,6.85,-0.04,0.04,-0.06,1.0,o
3786.0,874.0,3457.0,2965.0,4095.0,3366.0,3581.0,3243.0,-0.74,7.52,6.88,-0.04,-0.05,-0.1,1.0,o
3791.0,864.0,3458.0,2968.0,4095.0,3375.0,3601.0,3263.0,-0.7,7.6,6.68,-0.04,-0.02,-0.1,1.0,o
3766.0,869.0,3438.0,2959.0,4095.0,3376.0,3599.0,3281.0,-0.9,7.63,6.62,-0.09,0.07,-0.09,1.0,o
3807.0,864.0,3468.0,2975.0,4095.0,3389.0,3601.0,3265.0,-0.89,7.45,7.07,-0.07,-0.08,-0.1,1.0,o
3702.0,868.0,3399.0,3069.0,4095.0,3418.0,3621.0,3280.0,-0.64,7.34,6.96,0.11,-0.21,0.02,1.0,o
3735.0,860.0,3407.0,3087.0,4095.0,3427.0,3631.0,3280.0,-0.45,7.35,7.22,0.16,-0.32,-0.07,1.0,o
3724.0,871.0,3395.0,3079.0,4095.0,3411.0,3607.0,3273.0,-0.55,7.86,6.24,0.11,-0.05,0.02,1.0,o
3718.0,875.0,3408.0,3088.0,4095.0,3437.0,3626.0,3299.0,-0.24,7.83,6.42,-0.05,-0.17,0.04,1.0,o
3714.0,859.0,3398.0,3065.0,4095.0,3422.0,3605.0,3275.0,0.04,7.75,6.71,-0.04,-0.1,0.02,1.0,o
3724.0,868.0,3408.0,3083.0,4095.0,3434.0,3629.0,3282.0,0.13,7.78,6.69,0.01,-0.02,0.02,1.0,o
3725.0,859.0,3395.0,3071.0,4095.0,3417.0,3622.0,3273.0,0.01,7.7,6.74,0.0,-0.01,-0.06,1.0,o
3728.0,862.0,3403.0,3071.0,4095.0,3439.0,3638.0,3284.0,-0.1,7.79,6.74,0.05,-0.1,-0.05,1.0,o
3713.0,863.0,3401.0,3071.0,4095.0,3419.0,3619.0,3269.0,-0.28,7.95,6.42,0.07,0.01,-0.02,1.0,o
3739.0,861.0,3413.0,3066.0,4095.0,3415.0,3620.0,3247.0,0.04,8.1,6.17,0.07,-0.1,0.05,1.0,o
3710.0,864.0,3408.0,3085.0,4095.0,3419.0,3632.0,3248.0,0.31,8.1,6.17,0.06,-0.08,-0.0,1.0,o
3712.0,864.0,3393.0,3081.0,4095.0,3424.0,3628.0,3222.0,0.26,8.2,6.09,0.07,-0.06,-0.01,1.0,o
3717.0,860.0,3407.0,3071.0,4095.0,3431.0,3642.0,3232.0,0.37,8.31,5.92,0.04,-0.0,0.0,1.0,o
3719.0,864.0,3394.0,3063.0,4095.0,3424.0,3627.0,3213.0,0.33,8.15,6.4,0.01,-0.07,-0.03,1.0,o
3730.0,868.0,3395.0,3071.0,4095.0,3429.0,3630.0,3221.0,0.14,8.43,5.67,0.14,0.1,-0.07,1.0,o
3711.0,867.0,3402.0,3071.0,4095.0,3423.0,3611.0,3235.0,0.11,8.46,5.69,0.09,-0.09,0.01,1.0,o
3724.0,863.0,3397.0,3071.0,4095.0,3425.0,3642.0,3247.0,0.33,8.61,5.47,0.11,-0.09,0.04,1.0,o
3712.0,862.0,3394.0,3062.0,4095.0,3417.0,3613.0,3298.0,0.39,8.86,5.01,0.04,-0.02,0.12,1.0,o
3728.0,866.0,3393.0,3071.0,4095.0,3419.0,3631.0,3379.0,0.76,8.72,5.36,-0.06,-0.06,0.11,1.0,o
3707.0,863.0,3408.0,3068.0,4095.0,3421.0,3623.0,3450.0,0.97,8.75,5.18,-0.03,-0.07,0.04,1.0,o
3711.0,871.0,3389.0,3071.0,4095.0,3425.0,3623.0,3473.0,1.97,8.45,5.47,-0.04,-0.0,0.1,1.0,o
3723.0,861.0,3405.0,3071.0,4095.0,3438.0,3639.0,3443.0,2.14,8.42,5.67,-0.04,-0.05,0.03,1.0,o
3715.0,866.0,3391.0,3085.0,4095.0,3440.0,3639.0,3563.0,1.6,8.5,5.5,-0.01,0.16,0.03,1.0,o
3739.0,866.0,3408.0,3103.0,4095.0,3437.0,3649.0,3546.0,2.01,8.6,5.26,0.08,-0.08,0.0,1.0,o
3710.0,869.0,3399.0,3081.0,4095.0,3434.0,3632.0,3439.0,2.27,8.57,5.28,0.02,-0.02,-0.03,1.0,o
3728.0,867.0,3399.0,3088.0,4095.0,3430.0,3642.0,3565.0,1.95,8.6,5.21,0.04,0.04,-0.07,1.0,o
3709.0,864.0,3392.0,3099.0,4095.0,3425.0,3637.0,3605.0,1.41,8.69,5.14,0.04,0.14,-0.1,1.0,o
3710.0,864.0,3389.0,3099.0,4095.0,3410.0,3633.0,3579.0,1.4,8.68,5.15,0.08,0.11,0.09,1.0,o
3728.0,874.0,3404.0,3089.0,4095.0,3426.0,3659.0,3578.0,1.87,8.86,4.72,0.08,0.16,0.19,1.0,o
3711.0,865.0,3385.0,3090.0,4095.0,3430.0,3622.0,3539.0,2.15,8.91,4.66,0.07,0.03,0.12,1.0,o
3707.0,869.0,3392.0,3101.0,4095.0,3422.0,3654.0,3610.0,2.54,8.84,4.88,0.02,0.12,0.04,1.0,o
3700.0,870.0,3389.0,3085.0,4095.0,3408.0,3639.0,3495.0,2.13,8.75,4.82,0.08,0.5,0.09,1.0,o
3717.0,859.0,3407.0,3099.0,4095.0,3410.0,3641.0,3565.0,1.84,8.99,4.4,0.05,0.29,-0.02,1.0,o
3708.0,855.0,3393.0,3085.0,4095.0,3408.0,3641.0,3557.0,1.87,9.1,4.29,0.04,-0.16,-0.16,1.0,o
3712.0,859.0,3405.0,3102.0,4095.0,3415.0,3659.0,3555.0,1.86,8.88,4.74,0.0,-0.1,-0.19,1.0,o
3713.0,868.0,3397.0,3093.0,4095.0,3406.0,3637.0,3539.0,1.81,8.95,4.62,0.2,-0.13,-0.22,1.0,o
3715.0,858.0,3408.0,3095.0,4095.0,3411.0,3647.0,3579.0,1.54,9.29,3.8,0.17,-0.12,-0.26,1.0,o
3701.0,866.0,3399.0,3088.0,4095.0,3401.0,3635.0,3583.0,1.46,9.44,3.63,0.1,-0.07,-0.2,1.0,o
3712.0,867.0,3386.0,3089.0,4095.0,3408.0,3633.0,3607.0,1.28,9.46,3.58,0.01,-0.05,-0.23,1.0,o
3706.0,865.0,3408.0,3105.0,4095.0,3428.0,3653.0,3600.0,1.15,9.49,3.49,0.0,0.01,-0.21,1.0,o
3711.0,854.0,3409.0,3120.0,4095.0,3437.0,3662.0,3582.0,0.18,9.47,3.64,-0.2,0.02,-0.08,1.0,o
3682.0,867.0,3391.0,3107.0,4095.0,3429.0,3643.0,3561.0,0.38,9.22,4.25,-0.12,-0.15,-0.18,1.0,o
3705.0,868.0,3391.0,3106.0,4095.0,3434.0,3656.0,3583.0,0.4,9.39,3.96,-0.05,-0.01,-0.11,1.0,o
3693.0,861.0,3390.0,3109.0,4095.0,3425.0,3639.0,3613.0,0.16,9.36,3.95,-0.06,0.01,-0.16,1.0,o
3700.0,868.0,3399.0,3119.0,4095.0,3440.0,3659.0,3643.0,-0.19,9.34,3.91,-0.05,-0.03,-0.17,1.0,o
3711.0,854.0,3411.0,3117.0,4095.0,3439.0,3648.0,3639.0,-0.31,9.36,3.85,-0.03,-0.02,-0.11,1.0,o
3687.0,855.0,3382.0,3106.0,4095.0,3423.0,3654.0,3659.0,-0.29,9.4,3.85,-0.07,-0.03,-0.06,1.0,o
3701.0,867.0,3413.0,3119.0,4095.0,3441.0,3654.0,3661.0,-0.01,9.36,3.95,-0.08,0.01,-0.04,1.0,o
3695.0,854.0,3382.0,3105.0,4095.0,3434.0,3650.0,3661.0,-0.06,9.33,4.04,-0.09,-0.06,-0.09,1.0,o
3689.0,855.0,3395.0,3120.0,4095.0,3445.0,3667.0,3683.0,-0.13,9.4,3.82,-0.07,0.04,-0.09,1.0,o
3690.0,865.0,3396.0,3113.0,4095.0,3439.0,3646.0,3654.0,-0.36,9.37,3.9,-0.11,0.0,-0.11,1.0,o
3694.0,861.0,3402.0,3115.0,4095.0,3441.0,3661.0,3693.0,-0.25,9.29,4.04,-0.12,0.06,-0.11,1.0,o
3691.0,863.0,3383.0,3119.0,4095.0,3427.0,3663.0,3669.0,-0.55,9.28,4.02,-0.07,-0.01,-0.14,1.0,o
3712.0,860.0,3388.0,3119.0,4095.0,3437.0,3663.0,3695.0,-0.7,9.36,3.84,-0.13,0.06,-0.12,1.0,o
3697.0,868.0,3392.0,3113.0,4095.0,3428.0,3658.0,3671.0,-0.8,9.21,4.11,-0.15,0.07,-0.05,1.0,o
3703.0,855.0,3395.0,3120.0,4095.0,3447.0,3669.0,3721.0,-0.9,9.19,4.18,-0.16,0.05,-0.07,1.0,o
3696.0,867.0,3386.0,3120.0,4095.0,3441.0,3663.0,3728.0,-0.71,9.14,4.27,-0.12,0.03,-0.01,1.0,o
3691.0,854.0,3390.0,3118.0,4095.0,3422.0,3647.0,3728.0,-0.86,9.17,4.26,-0.14,0.03,-0.01,1.0,o
3690.0,866.0,3391.0,3119.0,4095.0,3440.0,3664.0,3733.0,-0.8,9.11,4.3,-0.18,0.1,0.03,1.0,o
3684.0,859.0,3381.0,3115.0,4095.0,3429.0,3650.0,3705.0,-0.8,8.97,4.67,-0.21,-0.0,0.02,1.0,o
3679.0,863.0,3391.0,3109.0,4095.0,3441.0,3652.0,3690.0,-0.03,8.5,5.64,-0.08,-0.03,0.03,1.0,o
3696.0,863.0,3398.0,3115.0,4095.0,3456.0,3663.0,3717.0,0.12,8.41,5.78,-0.08,-0.02,0.02,1.0,o
3669.0,859.0,3383.0,3109.0,4095.0,3438.0,3639.0,3693.0,0.21,8.53,5.6,-0.01,-0.03,0.01,1.0,o
3695.0,861.0,3401.0,3123.0,4095.0,3450.0,3659.0,3703.0,0.13,8.57,5.48,-0.07,-0.03,0.0,1.0,o
3687.0,857.0,3393.0,3109.0,4095.0,3439.0,3651.0,3699.0,0.17,8.49,5.62,-0.09,0.02,0.03,1.0,o
3691.0,859.0,3387.0,3109.0,4095.0,3453.0,3664.0,3701.0,0.2,8.41,5.85,-0.06,-0.1,0.0,1.0,o
3679.0,854.0,3382.0,3107.0,4095.0,3446.0,3662.0,3665.0,0.39,8.51,5.61,-0.02,0.0,0.04,1.0,o
3683.0,864.0,3395.0,3118.0,4095.0,3455.0,3648.0,3651.0,0.5,8.55,5.6,-0.01,-0.05,0.04,1.0,o
3714.0,860.0,3391.0,3120.0,4095.0,3451.0,3662.0,3682.0,0.51,8.46,5.73,-0.01,-0.02,0.02,1.0,o
3677.0,854.0,3392.0,3110.0,4095.0,3441.0,3646.0,3679.0,0.58,8.59,5.5,0.03,0.0,0.06,1.0,o
3690.0,857.0,3403.0,3123.0,4095.0,3471.0,3663.0,3647.0,0.65,8.71,5.26,-0.04,0.02,0.05,1.0,o
3683.0,861.0,3375.0,3110.0,4095.0,3446.0,3651.0,3647.0,0.84,8.72,5.26,-0.04,0.07,0.03,1.0,o
3699.0,859.0,3394.0,3122.0,4095.0,3456.0,3660.0,3645.0,0.64,8.53,5.61,-0.05,0.01,-0.04,1.0,o
3682.0,849.0,3386.0,3118.0,4095.0,3443.0,3658.0,3631.0,0.69,8.73,5.21,-0.01,0.11,0.06,1.0,o
3691.0,870.0,3408.0,3133.0,4095.0,3457.0,3664.0,3657.0,0.74,8.59,5.53,-0.04,-0.06,0.01,1.0,o
3682.0,862.0,3383.0,3120.0,4095.0,3434.0,3639.0,3672.0,0.83,8.67,5.37,-0.0,0.05,-0.01,1.0,o
3696.0,853.0,3392.0,3124.0,4095.0,3444.0,3664.0,3734.0,0.57,8.72,5.28,0.02,-0.08,-0.02,1.0,o
3680.0,854.0,3382.0,3111.0,4095.0,3440.0,3648.0,3731.0,0.82,8.94,4.84,0.04,0.1,0.1,1.0,o
3693.0,854.0,3395.0,3131.0,4095.0,3446.0,3667.0,3734.0,1.23,8.77,5.14,-0.13,-0.08,-0.03,1.0,o
3674.0,855.0,3379.0,3120.0,4095.0,3447.0,3659.0,3728.0,1.18,8.77,5.12,-0.12,0.04,-0.08,1.0,o
3670.0,850.0,3366.0,3120.0,4095.0,3461.0,3654.0,3745.0,-0.38,8.49,5.61,0.02,-0.04,-0.03,1.0,o
3693.0,855.0,3376.0,3135.0,4095.0,3465.0,3643.0,3731.0,-0.41,8.52,5.53,-0.01,-0.02,-0.0,1.0,o
3684.0,853.0,3365.0,3126.0,4095.0,3463.0,3633.0,3713.0,-0.22,8.49,5.57,-0.0,0.0,0.01,1.0,o
3694.0,848.0,3367.0,3127.0,4095.0,3460.0,3655.0,3723.0,-0.23,8.58,5.48,0.02,-0.05,-0.09,1.0,o
3696.0,861.0,3379.0,3136.0,4095.0,3467.0,3664.0,3739.0,-0.42,8.59,5.44,-0.03,0.01,-0.09,1.0,o
3669.0,849.0,3359.0,3131.0,4095.0,3457.0,3662.0,3725.0,-0.42,8.57,5.49,-0.05,-0.05,-0.02,1.0,o
3680.0,863.0,3387.0,3134.0,4095.0,3463.0,3657.0,3723.0,-0.33,8.69,5.24,-0.03,0.01,-0.05,1.0,o
3664.0,859.0,3363.0,3125.0,4095.0,3466.0,3660.0,3719.0,-0.35,8.6,5.45,-0.09,0.03,-0.06,1.0,o
3683.0,851.0,3377.0,3136.0,4095.0,3474.0,3674.0,3756.0,-0.57,8.62,5.41,-0.05,-0.04,-0.04,1.0,o
3664.0,849.0,3363.0,3126.0,4095.0,3457.0,3656.0,3741.0,-0.34,8.51,5.52,-0.07,0.06,-0.03,1.0,o
3683.0,848.0,3366.0,3132.0,4095.0,3458.0,3664.0,3728.0,-0.4,8.53,5.66,-0.03,-0.1,-0.03,1.0,o
3674.0,851.0,3361.0,3125.0,4095.0,3468.0,3663.0,3715.0,-0.43,8.87,4.83,-0.06,0.08,0.01,1.0,o
3686.0,857.0,3380.0,3140.0,4095.0,3471.0,3664.0,3713.0,-0.4,8.43,5.79,-0.14,-0.05,-0.05,1.0,o
3671.0,849.0,3355.0,3130.0,4095.0,3467.0,3650.0,3712.0,-0.44,8.56,5.56,0.03,-0.01,-0.04,1.0,o
3690.0,858.0,3387.0,3140.0,4095.0,3469.0,3670.0,3728.0,-0.36,8.81,4.98,-0.06,0.06,-0.01,1.0,o
3675.0,850.0,3371.0,3139.0,4095.0,3467.0,3674.0,3716.0,-0.54,8.42,5.81,-0.14,-0.1,-0.04,1.0,o
3671.0,848.0,3363.0,3139.0,4095.0,3460.0,3650.0,3725.0,-0.44,8.66,5.32,0.02,0.03,-0.02,1.0,o
3686.0,849.0,3383.0,3146.0,4095.0,3472.0,3664.0,3717.0,-0.34,8.71,5.18,-0.08,-0.02,-0.03,1.0,o
3669.0,860.0,3353.0,3134.0,4095.0,3453.0,3663.0,3721.0,-0.45,8.5,5.63,-0.09,-0.01,-0.04,1.0,o
3693.0,857.0,3371.0,3137.0,4095.0,3461.0,3668.0,3721.0,-0.33,8.72,5.2,-0.05,0.03,-0.01,1.0,o
3678.0,848.0,3376.0,3154.0,4095.0,3472.0,3664.0,3669.0,-0.13,8.7,5.32,-0.15,0.01,0.04,1.0,o
3667.0,855.0,3370.0,3146.0,4095.0,3472.0,3655.0,3659.0,-0.04,8.6,5.51,-0.1,-0.01,0.03,1.0,o
3685.0,850.0,3378.0,3152.0,4095.0,3475.0,3654.0,3664.0,-0.06,8.7,5.33,-0.04,0.01,0.03,1.0,o
3670.0,855.0,3369.0,3148.0,4095.0,3472.0,3665.0,3671.0,-0.05,8.67,5.36,-0.07,0.05,0.07,1.0,o
3679.0,861.0,3365.0,3141.0,4095.0,3455.0,3651.0,3648.0,0.05,8.71,5.28,-0.05,0.0,0.06,1.0,o
3691.0,853.0,3379.0,3154.0,4095.0,3472.0,3663.0,3637.0,0.21,8.71,5.28,-0.04,-0.02,0.05,1.0,o
3654.0,849.0,3365.0,3145.0,4095.0,3468.0,3664.0,3611.0,0.34,8.75,5.21,-0.05,-0.02,0.04,1.0,o
3685.0,853.0,3376.0,3146.0,4095.0,3472.0,3663.0,3643.0,0.42,8.69,5.27,-0.05,-0.01,-0.0,1.0,o
3673.0,855.0,3362.0,3141.0,4095.0,3467.0,3664.0,3673.0,0.35,8.75,5.24,-0.05,0.0,0.01,1.0,o
3681.0,859.0,3371.0,3152.0,4095.0,3472.0,3664.0,3707.0,0.37,8.73,5.21,-0.03,0.03,0.03,1.0,o
3665.0,848.0,3362.0,3143.0,4095.0,3462.0,3657.0,3686.0,0.39,8.76,5.19,-0.03,0.03,0.03,1.0,o
3681.0,851.0,3367.0,3147.0,4095.0,3462.0,3665.0,3686.0,0.46,8.75,5.23,-0.01,-0.03,0.02,1.0,o
3668.0,848.0,3357.0,3136.0,4095.0,3462.0,3666.0,3643.0,0.57,8.85,5.05,-0.02,0.03,0.02,1.0,o
3666.0,849.0,3381.0,3149.0,4095.0,3478.0,3670.0,3632.0,0.64,8.79,5.17,-0.01,-0.04,-0.03,1.0,o
3659.0,852.0,3359.0,3136.0,4095.0,3472.0,3657.0,3630.0,0.58,8.85,5.05,-0.02,-0.05,-0.08,1.0,o
3672.0,847.0,3362.0,3138.0,4095.0,3462.0,3661.0,3610.0,0.5,8.86,5.03,-0.01,-0.04,-0.07,1.0,o
3687.0,856.0,3377.0,3147.0,4095.0,3473.0,3688.0,3627.0,0.55,8.95,4.86,-0.01,-0.03,-0.05,1.0,o
3666.0,859.0,3365.0,3142.0,4095.0,3458.0,3655.0,3562.0,0.62,8.96,4.87,-0.05,-0.02,-0.04,1.0,o
3696.0,859.0,3363.0,3139.0,4095.0,3472.0,3664.0,3643.0,0.58,8.93,4.9,-0.07,0.01,-0.04,1.0,o
3692.0,859.0,3375.0,3137.0,4095.0,3461.0,3658.0,3645.0,0.39,8.9,4.91,-0.1,0.0,-0.04,1.0,o
3583.0,849.0,3373.0,3189.0,4095.0,3468.0,3671.0,3687.0,0.63,8.56,5.48,-0.1,-0.03,0.01,1.0,o
3568.0,851.0,3370.0,3184.0,4095.0,3474.0,3683.0,3681.0,0.89,8.73,5.24,-0.03,0.02,0.05,1.0,o
3575.0,855.0,3365.0,3184.0,4095.0,3475.0,3665.0,3687.0,0.96,8.79,5.13,-0.06,-0.01,0.02,1.0,o
3583.0,851.0,3375.0,3189.0,4095.0,3502.0,3682.0,3721.0,0.8,8.72,5.28,-0.11,-0.03,-0.02,1.0,o
3569.0,857.0,3376.0,3183.0,4095.0,3465.0,3664.0,3706.0,0.86,8.63,5.43,-0.12,0.05,0.0,1.0,o
3578.0,850.0,3383.0,3190.0,4095.0,3481.0,3681.0,3707.0,0.77,8.67,5.34,-0.08,-0.01,0.0,1.0,o
3557.0,847.0,3371.0,3186.0,4095.0,3466.0,3667.0,3702.0,1.0,8.78,5.07,-0.12,-0.01,-0.04,1.0,o
3569.0,849.0,3371.0,3184.0,4095.0,3474.0,3674.0,3735.0,0.91,8.64,5.36,-0.21,0.0,0.04,1.0,o
3575.0,849.0,3363.0,3178.0,4095.0,3475.0,3678.0,3728.0,0.96,8.37,5.91,-0.23,0.02,-0.03,1.0,o
3567.0,850.0,3371.0,3184.0,4095.0,3471.0,3660.0,3708.0,1.04,8.32,5.88,-0.16,-0.04,0.01,1.0,o
3577.0,853.0,3370.0,3196.0,4095.0,3475.0,3657.0,3718.0,1.08,8.31,5.93,-0.12,0.02,-0.05,1.0,o
3570.0,858.0,3371.0,3184.0,4095.0,3461.0,3661.0,3703.0,1.04,8.25,6.03,-0.12,-0.02,-0.11,1.0,o
3562.0,848.0,3374.0,3190.0,4095.0,3478.0,3683.0,3715.0,0.9,8.31,5.84,-0.09,0.0,-0.09,1.0,o
3567.0,855.0,3361.0,3184.0,4095.0,3470.0,3654.0,3705.0,0.77,8.34,5.82,-0.1,0.03,-0.04,1.0,o
3579.0,858.0,3374.0,3189.0,4095.0,3475.0,3677.0,3714.0,0.98,8.14,6.22,-0.09,-0.05,-0.09,1.0,o
3565.0,854.0,3353.0,3181.0,4095.0,3472.0,3670.0,3712.0,1.11,8.32,5.83,-0.07,0.1,-0.15,1.0,o
3581.0,850.0,3368.0,3189.0,4095.0,3469.0,3673.0,3719.0,0.61,8.27,5.91,-0.13,0.07,-0.2,1.0,o
3553.0,857.0,3365.0,3184.0,4095.0,3470.0,3664.0,3695.0,0.28,8.05,6.36,-0.12,0.04,-0.19,1.0,o
3570.0,857.0,3354.0,3184.0,4095.0,3479.0,3677.0,3725.0,0.15,8.13,6.2,-0.04,0.01,-0.15,1.0,o
3568.0,848.0,3359.0,3179.0,4095.0,3474.0,3666.0,3684.0,0.12,8.2,6.03,-0.05,0.01,-0.1,1.0,o
3568.0,854.0,3366.0,3184.0,4095.0,3472.0,3670.0,3675.0,0.27,8.31,5.87,0.05,-0.04,-0.06,1.0,o
3583.0,865.0,3367.0,3186.0,4095.0,3478.0,3674.0,3679.0,0.16,8.42,5.65,-0.03,-0.01,-0.1,1.0,o
3556.0,861.0,3358.0,3175.0,4095.0,3471.0,3667.0,3681.0,0.04,8.3,5.94,-0.07,0.04,-0.09,1.0,o
3578.0,858.0,3373.0,3183.0,4095.0,3473.0,3685.0,3702.0,0.08,8.18,6.23,0.03,-0.05,-0.15,1.0,o
3557.0,848.0,3374.0,3185.0,4095.0,3470.0,3665.0,3664.0,-0.28,8.42,5.69,0.02,0.01,-0.13,1.0,o
3583.0,853.0,3374.0,3187.0,4095.0,3471.0,3669.0,3680.0,-0.35,8.35,5.82,-0.04,0.01,-0.06,1.0,o
3583.0,849.0,3353.0,3184.0,4095.0,3466.0,3669.0,3664.0,-0.22,8.34,5.9,0.01,-0.05,-0.08,1.0,o
3568.0,849.0,3371.0,3186.0,4095.0,3479.0,3685.0,3685.0,-0.07,8.51,5.5,0.02,-0.01,-0.1,1.0,o
3583.0,848.0,3373.0,3191.0,4095.0,3487.0,3677.0,3685.0,-0.13,8.47,5.66,0.0,-0.01,-0.11,1.0,o
3566.0,848.0,3363.0,3184.0,4095.0,3467.0,3662.0,3670.0,-0.32,8.4,5.78,0.01,-0.02,-0.16,1.0,o
3579.0,861.0,3376.0,3190.0,4095.0,3470.0,3683.0,3677.0,-0.46,8.52,5.56,0.08,-0.02,-0.13,1.0,o
3569.0,857.0,3353.0,3185.0,4095.0,3459.0,3653.0,3664.0,-0.55,8.69,5.19,0.02,-0.03,-0.14,1.0,o
3582.0,850.0,3379.0,3191.0,4095.0,3462.0,3666.0,3686.0,-0.54,8.61,5.43,-0.01,-0.04,-0.09,1.0,o
3558.0,852.0,3365.0,3184.0,4095.0,3465.0,3669.0,3671.0,-0.61,8.58,5.41,0.0,-0.01,-0.14,1.0,o
3568.0,850.0,3370.0,3188.0,4095.0,3474.0,3689.0,3691.0,-0.82,8.66,5.25,0.07,0.04,-0.08,1.0,o
3568.0,858.0,3371.0,3183.0,4095.0,3466.0,3653.0,3698.0,-0.85,8.79,5.04,0.03,-0.02,-0.07,1.0,o
3579.0,849.0,3370.0,3184.0,4095.0,3462.0,3677.0,3711.0,-0.7,8.88,4.9,0.07,-0.01,-0.06,1.0,o
3558.0,853.0,3362.0,3184.0,4095.0,3468.0,3664.0,3701.0,-0.64,8.86,4.91,-0.0,0.01,-0.05,1.0,o
3582.0,853.0,3377.0,3186.0,4095.0,3489.0,3681.0,3731.0,-0.85,8.8,5.04,-0.04,-0.03,-0.1,1.0,o
3551.0,848.0,3356.0,3183.0,4095.0,3491.0,3696.0,3723.0,-0.81,8.79,4.99,0.02,-0.03,-0.07,1.0,o
3571.0,848.0,3367.0,3198.0,4095.0,3476.0,3666.0,3728.0,-0.96,8.94,4.7,-0.04,0.03,-0.02,1.0,o
3557.0,851.0,3360.0,3187.0,4095.0,3472.0,3667.0,3739.0,-0.87,9.05,4.48,0.01,0.02,-0.01,1.0,o
3562.0,845.0,3381.0,3195.0,4095.0,3479.0,3687.0,3747.0,-0.87,9.03,4.49,-0.03,0.03,0.04,1.0,o
3557.0,848.0,3361.0,3186.0,4095.0,3472.0,3671.0,3740.0,-0.82,8.99,4.6,-0.04,-0.02,0.01,1.0,o
3583.0,851.0,3376.0,3187.0,4095.0,3472.0,3681.0,3744.0,-0.76,9.12,4.35,0.02,-0.01,0.04,1.0,o
3559.0,847.0,3364.0,3184.0,4095.0,3468.0,3666.0,3742.0,-0.74,9.17,4.32,-0.07,0.02,0.1,1.0,o
3566.0,853.0,3370.0,3182.0,4095.0,3465.0,3678.0,3734.0,-0.41,9.06,4.58,-0.07,-0.01,0.09,1.0,o
3568.0,857.0,3359.0,3186.0,4095.0,3483.0,3683.0,3753.0,-0.38,9.13,4.46,0.0,-0.05,0.04,1.0,o
3551.0,849.0,3365.0,3184.0,4095.0,3472.0,3663.0,3731.0,-0.2,9.32,4.05,0.02,0.12,0.09,1.0,o
3562.0,852.0,3377.0,3193.0,4095.0,3491.0,3655.0,3748.0,-0.19,9.18,4.33,-0.1,-0.03,0.03,1.0,o
3558.0,850.0,3369.0,3181.0,4095.0,3463.0,3666.0,3743.0,-0.14,9.15,4.42,-0.06,0.02,0.0,1.0,o
3574.0,851.0,3378.0,3196.0,4095.0,3479.0,3678.0,3749.0,-0.33,9.25,4.21,-0.04,-0.02,-0.01,1.0,o
3566.0,852.0,3366.0,3185.0,4095.0,3461.0,3665.0,3760.0,-0.59,9.14,4.38,-0.06,-0.12,0.14,1.0,o
3574.0,849.0,3363.0,3189.0,4095.0,3486.0,3678.0,3778.0,0.47,9.14,4.51,-0.08,-0.11,0.13,1.0,o
3549.0,857.0,3364.0,3187.0,4095.0,3472.0,3669.0,3725.0,0.68,9.31,4.11,-0.04,0.0,0.08,1.0,o
3558.0,850.0,3365.0,3189.0,4095.0,3486.0,3686.0,3755.0,0.48,9.29,4.14,-0.12,0.04,0.01,1.0,o
3557.0,845.0,3358.0,3184.0,4095.0,3473.0,3675.0,3735.0,0.2,9.11,4.55,-0.12,0.03,0.02,1.0,o
3583.0,848.0,3369.0,3201.0,4095.0,3479.0,3677.0,3735.0,0.39,9.22,4.32,-0.07,0.03,0.07,1.0,o
3571.0,851.0,3365.0,3193.0,4095.0,3485.0,3683.0,3743.0,0.73,9.15,4.42,-0.15,0.03,0.06,1.0,o
3563.0,857.0,3365.0,3187.0,4095.0,3475.0,3679.0,3748.0,0.63,9.22,4.34,-0.19,0.17,0.04,1.0,o
2929.0,3279.0,3388.0,2830.0,4095.0,2955.0,3153.0,2800.0,1.04,9.31,4.0,-0.05,-0.02,0.02,1.0,o
2930.0,3271.0,3378.0,2810.0,4095.0,2959.0,3147.0,2793.0,1.16,9.23,4.09,-0.06,0.04,0.03,1.0,o
2938.0,3269.0,3366.0,2807.0,4095.0,2958.0,3149.0,2784.0,0.97,9.31,3.93,-0.16,0.08,0.02,1.0,o
2926.0,3266.0,3363.0,2818.0,4095.0,2956.0,3150.0,2809.0,1.14,9.25,3.99,-0.14,-0.01,0.02,1.0,o
2943.0,3270.0,3380.0,2834.0,4095.0,2960.0,3152.0,2849.0,1.09,9.16,4.21,-0.18,0.08,0.04,1.0,o
2930.0,3261.0,3361.0,2827.0,4095.0,2960.0,3151.0,2819.0,1.25,9.1,4.41,-0.13,0.07,0.03,1.0,o
2934.0,3277.0,3372.0,2834.0,4095.0,2958.0,3151.0,2802.0,1.37,9.09,4.46,-0.16,0.03,0.01,1.0,o
2925.0,3259.0,3357.0,2832.0,4095.0,2955.0,3143.0,2811.0,1.38,8.95,4.88,-0.08,-0.02,-0.03,1.0,o
2939.0,3280.0,3366.0,2839.0,4095.0,2950.0,3146.0,2758.0,1.47,9.07,4.54,-0.06,-0.04,-0.0,1.0,o
2938.0,3264.0,3354.0,2837.0,4095.0,2955.0,3147.0,2771.0,1.44,9.02,4.57,-0.17,0.02,-0.03,1.0,o
2933.0,3267.0,3350.0,2851.0,4095.0,2958.0,3153.0,2828.0,1.36,8.77,4.77,-0.24,-0.06,-0.09,1.0,o
2930.0,3270.0,3365.0,2854.0,4095.0,2954.0,3152.0,2768.0,1.41,8.82,4.97,-0.19,0.0,-0.01,1.0,o
2924.0,3268.0,3363.0,2857.0,4095.0,2956.0,3147.0,2827.0,1.39,8.8,5.07,-0.11,0.03,-0.04,1.0,o
2938.0,3276.0,3376.0,2843.0,4095.0,2960.0,3152.0,2839.0,1.36,8.8,5.0,-0.13,-0.01,-0.06,1.0,o
2935.0,3273.0,3361.0,2837.0,4095.0,2953.0,3147.0,2853.0,1.35,8.74,5.11,-0.12,0.01,-0.08,1.0,o
2937.0,3274.0,3370.0,2851.0,4095.0,2955.0,3152.0,2836.0,1.27,8.73,5.16,-0.07,0.08,-0.07,1.0,o
2928.0,3264.0,3349.0,2841.0,4095.0,2945.0,3147.0,2819.0,1.28,8.67,5.31,-0.07,-0.02,-0.09,1.0,o
2931.0,3280.0,3372.0,2839.0,4095.0,2957.0,3154.0,2839.0,1.15,8.82,4.95,-0.07,0.13,-0.05,1.0,o
2928.0,3262.0,3355.0,2832.0,4095.0,2955.0,3142.0,2842.0,1.19,8.71,5.35,-0.11,-0.04,-0.1,1.0,o
2940.0,3274.0,3362.0,2855.0,4095.0,2960.0,3154.0,2865.0,0.97,8.79,5.04,-0.11,0.08,-0.09,1.0,o
2927.0,3264.0,3353.0,2873.0,4095.0,2960.0,3152.0,2875.0,0.64,8.61,5.41,-0.13,-0.01,-0.11,1.0,o
2930.0,3264.0,3360.0,2882.0,4095.0,2961.0,3152.0,2885.0,0.81,8.55,5.69,-0.07,0.02,-0.11,1.0,o
2921.0,3258.0,3344.0,2880.0,4095.0,2962.0,3150.0,2882.0,0.59,8.69,5.28,-0.06,-0.02,-0.11,1.0,o
2941.0,3272.0,3369.0,2893.0,4095.0,2960.0,3147.0,2896.0,0.39,8.62,5.41,-0.1,-0.09,-0.1,1.0,o
2929.0,3267.0,3355.0,2881.0,4095.0,2960.0,3152.0,2890.0,0.7,8.54,5.71,-0.07,-0.05,-0.11,1.0,o
2947.0,3280.0,3367.0,2895.0,4095.0,2962.0,3152.0,2901.0,0.44,8.57,5.48,-0.01,0.04,-0.13,1.0,o
2935.0,3264.0,3354.0,2896.0,4095.0,2971.0,3146.0,2896.0,0.31,8.56,5.61,-0.02,-0.05,-0.12,1.0,o
2935.0,3280.0,3360.0,2897.0,4095.0,2969.0,3154.0,2907.0,0.2,8.64,5.44,0.01,-0.01,-0.1,1.0,o
2941.0,3275.0,3355.0,2895.0,4095.0,2960.0,3151.0,2878.0,0.13,8.72,5.24,0.03,-0.01,-0.07,1.0,o
2941.0,3277.0,3353.0,2909.0,4095.0,2960.0,3140.0,2896.0,0.28,8.72,5.25,0.01,-0.01,-0.12,1.0,o
2931.0,3264.0,3364.0,2910.0,4095.0,2967.0,3164.0,2901.0,0.26,8.82,5.16,0.03,0.0,-0.13,1.0,o
2927.0,3256.0,3359.0,2906.0,4095.0,2961.0,3152.0,2880.0,0.09,8.83,5.05,0.01,-0.02,-0.11,1.0,o
2950.0,3267.0,3353.0,2911.0,4095.0,2969.0,3152.0,2887.0,0.11,8.77,5.0,-0.02,-0.03,-0.09,1.0,o
2930.0,3269.0,3355.0,2928.0,4095.0,2968.0,3152.0,2881.0,-0.03,8.87,5.03,-0.02,-0.03,-0.09,1.0,o
2933.0,3279.0,3367.0,2939.0,4095.0,2969.0,3159.0,2880.0,-0.05,8.85,5.0,-0.02,0.01,-0.08,1.0,o
2928.0,3266.0,3346.0,2941.0,4095.0,2963.0,3152.0,2873.0,-0.11,8.82,5.15,-0.01,-0.04,-0.11,1.0,o
2943.0,3277.0,3362.0,2951.0,4095.0,2975.0,3163.0,2886.0,-0.03,8.88,5.01,0.07,-0.06,-0.07,1.0,o
2928.0,3274.0,3355.0,2958.0,4095.0,2965.0,3148.0,2879.0,-0.17,9.09,4.49,0.01,-0.03,-0.1,1.0,o
2934.0,3267.0,3357.0,2960.0,4095.0,2975.0,3165.0,2891.0,-0.23,9.01,4.71,-0.02,-0.02,-0.07,1.0,o
2927.0,3263.0,3339.0,2961.0,4095.0,2962.0,3152.0,2881.0,-0.22,9.01,4.82,-0.01,-0.05,-0.05,1.0,o
2931.0,3263.0,3358.0,2982.0,4095.0,2977.0,3158.0,2855.0,-0.27,9.37,3.9,-0.02,-0.04,-0.0,1.0,o
2928.0,3257.0,3357.0,2970.0,4095.0,2974.0,3158.0,2873.0,-0.37,9.17,4.26,-0.06,0.04,-0.08,1.0,o
2942.0,3276.0,3359.0,2975.0,4095.0,2983.0,3151.0,2875.0,-0.99,9.21,4.18,0.03,0.01,-0.05,1.0,o
2933.0,3264.0,3359.0,2960.0,4095.0,2974.0,3154.0,2871.0,-0.53,9.37,3.74,0.01,0.07,-0.03,1.0,o
2940.0,3262.0,3355.0,2963.0,4095.0,2976.0,3159.0,2861.0,-0.58,9.33,3.92,-0.07,0.0,0.01,1.0,o
2927.0,3263.0,3362.0,2972.0,4095.0,2975.0,3151.0,2853.0,-0.43,9.33,3.97,-0.06,-0.01,-0.0,1.0,o
2924.0,3262.0,3361.0,2971.0,4095.0,2975.0,3152.0,2833.0,-0.42,9.36,3.94,-0.02,-0.05,-0.01,1.0,o
2929.0,3278.0,3376.0,2969.0,4095.0,2987.0,3162.0,2837.0,-0.7,9.49,3.44,-0.08,0.14,0.12,1.0,o
2929.0,3265.0,3357.0,2958.0,4095.0,2975.0,3154.0,2832.0,-0.16,9.26,4.14,-0.11,-0.01,0.09,1.0,o
2944.0,3268.0,3361.0,2967.0,4095.0,2982.0,3159.0,2842.0,-0.29,9.19,4.32,-0.03,0.05,0.04,1.0,o
2931.0,3273.0,3345.0,2961.0,4095.0,2978.0,3151.0,2822.0,-0.37,9.4,3.83,0.0,0.02,0.02,1.0,o
2934.0,3263.0,3349.0,2974.0,4095.0,2991.0,3167.0,2828.0,-0.15,9.4,3.81,0.02,-0.01,0.05,1.0,o
2931.0,3270.0,3361.0,2968.0,4095.0,2977.0,3152.0,2837.0,0.08,9.42,3.78,0.01,-0.05,-0.01,1.0,o
2945.0,3277.0,3355.0,2965.0,4095.0,2986.0,3159.0,2827.0,0.26,9.59,3.36,-0.01,-0.03,-0.02,1.0,o
2930.0,3262.0,3344.0,2965.0,4095.0,2992.0,3157.0,2846.0,0.23,9.51,3.62,-0.03,-0.02,-0.07,1.0,o
2938.0,3265.0,3360.0,2978.0,4095.0,2992.0,3165.0,2864.0,-0.09,9.4,3.87,-0.04,0.07,-0.04,1.0,o
2937.0,3264.0,3348.0,2979.0,4095.0,2979.0,3152.0,2851.0,-0.3,9.44,3.7,0.01,-0.04,-0.0,1.0,o
2929.0,3269.0,3374.0,2986.0,4095.0,2983.0,3153.0,2834.0,-0.24,9.52,3.41,-0.04,0.09,0.05,1.0,o
2943.0,3277.0,3363.0,2983.0,4095.0,2992.0,3155.0,2858.0,0.06,9.53,3.51,-0.04,0.02,0.02,1.0,o
2930.0,3278.0,3367.0,2978.0,4095.0,2977.0,3152.0,2867.0,0.23,9.45,3.79,-0.02,-0.05,-0.01,1.0,o
2945.0,3279.0,3354.0,2990.0,4095.0,2985.0,3163.0,2894.0,-0.03,9.66,3.06,-0.02,0.02,-0.09,1.0,o
2935.0,3265.0,3349.0,2981.0,4095.0,2975.0,3152.0,2894.0,-0.16,9.53,3.43,-0.01,0.04,-0.03,1.0,o
2932.0,3271.0,3371.0,2989.0,4095.0,2989.0,3163.0,2882.0,0.01,9.7,2.85,0.02,-0.04,0.05,1.0,o
2928.0,3263.0,3347.0,2989.0,4095.0,2982.0,3163.0,2871.0,0.15,9.66,3.03,-0.04,0.03,0.02,1.0,o
2941.0,3279.0,3354.0,2976.0,4095.0,2983.0,3162.0,2862.0,0.36,9.72,2.89,-0.05,0.03,0.05,1.0,o
2919.0,3271.0,3361.0,2986.0,4095.0,2989.0,3163.0,2775.0,0.41,9.59,3.25,0.01,-0.04,-0.08,1.0,o
2930.0,3269.0,3344.0,2981.0,4095.0,2980.0,3159.0,2895.0,0.22,9.74,2.75,0.05,-0.01,-0.04,1.0,o
2939.0,3280.0,3361.0,2991.0,4095.0,2991.0,3163.0,2894.0,0.07,9.83,2.56,-0.04,0.0,-0.03,1.0,o
2933.0,3278.0,3347.0,2988.0,4095.0,2981.0,3153.0,2895.0,0.18,9.7,2.91,-0.04,-0.03,-0.01,1.0,o
2942.0,3281.0,3371.0,2988.0,4095.0,2989.0,3157.0,2895.0,0.23,9.72,2.83,0.01,-0.03,0.02,1.0,o
2935.0,3259.0,3337.0,2985.0,4095.0,2983.0,3163.0,2900.0,0.2,9.83,2.48,-0.02,-0.06,-0.03,1.0,o
2933.0,3269.0,3350.0,2990.0,4095.0,2992.0,3158.0,2914.0,0.45,9.76,2.76,0.01,-0.08,0.06,1.0,o
2929.0,3264.0,3338.0,2981.0,4095.0,2983.0,3157.0,2893.0,0.54,9.79,2.58,-0.02,-0.02,0.05,1.0,o
2938.0,3273.0,3359.0,2991.0,4095.0,2991.0,3168.0,2896.0,0.64,9.84,2.44,-0.07,-0.0,0.06,1.0,o
2930.0,3263.0,3333.0,2983.0,4095.0,2991.0,3159.0,2887.0,0.75,9.75,2.78,-0.09,0.05,0.03,1.0,o
2932.0,3270.0,3353.0,2992.0,4095.0,2985.0,3167.0,2891.0,0.85,9.76,2.68,-0.06,-0.03,0.04,1.0,o
2925.0,3253.0,3344.0,2978.0,4095.0,2987.0,3161.0,2897.0,0.71,9.81,2.51,-0.08,0.03,0.03,1.0,o
2942.0,3275.0,3344.0,2989.0,4095.0,2978.0,3154.0,2910.0,0.8,9.77,2.58,-0.09,0.1,0.04,1.0,o
2929.0,3272.0,3343.0,2995.0,4095.0,2991.0,3163.0,2927.0,0.97,9.66,2.91,-0.07,-0.06,0.01,1.0,o
2926.0,3270.0,3344.0,2985.0,4095.0,2979.0,3159.0,2918.0,1.1,9.77,2.7,-0.11,0.01,0.02,1.0,o
2938.0,3279.0,3342.0,2992.0,4095.0,3002.0,3169.0,2880.0,1.47,9.64,2.83,-0.08,0.06,0.07,1.0,o
2934.0,3266.0,3333.0,2987.0,4095.0,2983.0,3157.0,2862.0,1.56,9.55,3.1,-0.08,0.08,0.01,1.0,o
2935.0,3277.0,3344.0,2995.0,4095.0,2992.0,3168.0,2880.0,1.37,9.65,2.79,-0.06,0.04,0.02,1.0,o
2946.0,3286.0,3347.0,2997.0,4095.0,2991.0,3161.0,2887.0,1.54,9.6,2.95,-0.12,-0.05,0.07,1.0,o
2944.0,3279.0,3343.0,2991.0,4095.0,2983.0,3166.0,2885.0,1.91,9.55,3.17,-0.09,-0.01,0.05,1.0,o
2934.0,3277.0,3343.0,2991.0,4095.0,2991.0,3153.0,2874.0,1.73,9.51,3.09,-0.04,0.01,0.01,1.0,o
2937.0,3275.0,3338.0,2983.0,4095.0,2983.0,3159.0,2867.0,1.83,9.6,2.88,-0.06,0.04,0.04,1.0,o
2930.0,3281.0,3347.0,2992.0,4095.0,2991.0,3165.0,2864.0,2.03,9.56,3.07,-0.1,-0.01,0.05,1.0,o
2933.0,3269.0,3341.0,2992.0,4095.0,2987.0,3167.0,2819.0,1.98,9.44,3.26,-0.13,0.01,0.03,1.0,o
2938.0,3269.0,3337.0,2997.0,4095.0,2992.0,3171.0,2802.0,2.12,9.56,3.01,-0.09,-0.04,-0.0,1.0,o
2933.0,3275.0,3328.0,2985.0,4095.0,2988.0,3167.0,2787.0,2.24,9.36,3.47,-0.14,-0.07,0.02,1.0,o
2935.0,3271.0,3339.0,2990.0,4095.0,2991.0,3172.0,2851.0,2.32,9.32,3.66,-0.09,-0.1,-0.07,1.0,o
2928.0,3261.0,3334.0,2991.0,4095.0,2993.0,3164.0,2863.0,2.11,9.51,3.0,-0.09,0.03,-0.06,1.0,o
2943.0,3280.0,3333.0,2991.0,4095.0,2993.0,3174.0,2882.0,1.99,9.36,3.49,-0.14,0.02,-0.01,1.0,o
2941.0,3276.0,3345.0,2996.0,4095.0,2990.0,3166.0,2875.0,2.09,9.3,3.73,-0.07,0.03,0.0,1.0,o
2927.0,3264.0,3334.0,2991.0,4095.0,2991.0,3167.0,2864.0,2.16,9.45,3.15,-0.03,-0.02,0.01,1.0,o
2928.0,3268.0,3326.0,2986.0,4095.0,2998.0,3170.0,2905.0,2.16,9.43,3.22,-0.15,0.06,0.02,1.0,o
2938.0,3273.0,3324.0,2986.0,4095.0,2989.0,3164.0,2909.0,2.13,9.28,3.63,-0.12,0.02,-0.0,1.0,o
2935.0,3280.0,3343.0,2996.0,4095.0,2995.0,3171.0,2901.0,2.22,9.25,3.56,-0.14,-0.1,0.01,1.0,o
2930.0,3273.0,3323.0,2985.0,4095.0,2991.0,3169.0,2910.0,2.37,9.29,3.59,-0.14,0.04,0.05,1.0,o
2931.0,3265.0,3325.0,2997.0,4095.0,2992.0,3171.0,2909.0,2.06,8.59,5.37,-0.08,-0.03,-0.11,1.0,o
2935.0,3274.0,3316.0,3009.0,4095.0,2999.0,3168.0,2898.0,1.92,8.71,5.01,-0.04,-0.01,-0.09,1.0,o
2935.0,3277.0,3339.0,3014.0,4095.0,3008.0,3176.0,2911.0,1.95,8.69,5.12,-0.09,0.03,-0.07,1.0,o
2928.0,3270.0,3323.0,3008.0,4095.0,3003.0,3170.0,2905.0,1.85,8.63,5.21,-0.09,0.01,-0.12,1.0,o
2929.0,3283.0,3329.0,3011.0,4095.0,2997.0,3167.0,2915.0,1.76,8.7,5.11,-0.09,-0.0,-0.12,1.0,o
2928.0,3280.0,3321.0,3007.0,4095.0,2993.0,3170.0,2917.0,1.68,8.62,5.26,-0.1,0.02,-0.13,1.0,o
2927.0,3278.0,3342.0,3013.0,4095.0,3005.0,3172.0,2914.0,1.59,8.61,5.41,-0.06,-0.01,-0.16,1.0,o
2928.0,3257.0,3312.0,3005.0,4095.0,3002.0,3173.0,2916.0,1.47,8.68,5.2,-0.03,-0.02,-0.15,1.0,o
2944.0,3267.0,3321.0,3008.0,4095.0,3003.0,3173.0,2919.0,1.32,8.71,5.21,-0.06,0.02,-0.16,1.0,o
2928.0,3264.0,3329.0,3007.0,4095.0,2997.0,3170.0,2914.0,1.18,8.65,5.32,-0.04,-0.04,-0.17,1.0,o
2949.0,3275.0,3334.0,3015.0,4095.0,3006.0,3179.0,2913.0,1.06,8.74,5.12,-0.02,0.02,-0.14,1.0,o
2933.0,3277.0,3321.0,3008.0,4095.0,2998.0,3167.0,2903.0,0.99,8.72,5.15,-0.03,0.01,-0.14,1.0,o
2936.0,3278.0,3330.0,3024.0,4095.0,3005.0,3169.0,2909.0,0.89,8.77,5.14,0.0,-0.02,-0.15,1.0,o
2928.0,3272.0,3332.0,3013.0,4095.0,3004.0,3174.0,2911.0,0.8,8.85,4.99,0.0,-0.03,-0.15,1.0,o
2938.0,3269.0,3327.0,3008.0,4095.0,3002.0,3168.0,2900.0,0.85,8.74,5.32,0.01,-0.15,-0.19,1.0,o
2939.0,3277.0,3338.0,3029.0,4095.0,2999.0,3177.0,2912.0,0.61,8.91,4.89,0.06,-0.0,-0.14,1.0,o
2939.0,3271.0,3339.0,3025.0,4095.0,2999.0,3165.0,2909.0,0.46,8.99,4.67,0.03,-0.06,-0.12,1.0,o
2938.0,3273.0,3335.0,3024.0,4095.0,3010.0,3182.0,2908.0,0.48,8.99,4.79,-0.01,-0.07,-0.09,1.0,o
2941.0,3279.0,3333.0,3024.0,4095.0,2997.0,3170.0,2918.0,0.6,9.04,4.73,0.03,-0.05,-0.1,1.0,o
2930.0,3268.0,3339.0,3031.0,4095.0,3008.0,3187.0,2924.0,0.54,9.11,4.55,-0.01,-0.03,-0.07,1.0,o
2944.0,3283.0,3350.0,3031.0,4095.0,3008.0,3182.0,2928.0,0.09,9.16,4.33,0.06,0.01,0.0,1.0,o
2935.0,3266.0,3334.0,3026.0,4095.0,2998.0,3171.0,2925.0,0.55,9.21,4.4,0.02,-0.03,0.0,1.0,o
2924.0,3265.0,3335.0,3028.0,4095.0,3011.0,3185.0,2923.0,0.6,9.31,4.08,0.04,0.08,0.05,1.0,o
2937.0,3277.0,3326.0,3030.0,4095.0,3001.0,3173.0,2919.0,0.52,9.46,3.73,0.03,0.17,0.08,1.0,o
2944.0,3276.0,3329.0,3038.0,4095.0,3007.0,3173.0,2923.0,0.66,9.35,4.02,-0.07,-0.04,-0.08,1.0,o
2930.0,3271.0,3310.0,3024.0,4095.0,3003.0,3180.0,2915.0,0.65,9.42,3.86,-0.01,0.13,0.06,1.0,o
2943.0,3286.0,3328.0,3006.0,4095.0,3008.0,3180.0,2735.0,0.44,9.44,3.87,-0.22,1.92,0.52,1.0,o
2927.0,3264.0,3343.0,3021.0,4095.0,2998.0,3165.0,2883.0,0.79,9.25,4.21,-0.11,0.55,0.25,1.0,o
2938.0,3278.0,3343.0,3021.0,4095.0,3008.0,3171.0,2803.0,0.94,9.57,3.81,-0.19,0.21,-0.05,1.0,o
2939.0,3269.0,3344.0,3014.0,4095.0,3008.0,3179.0,2849.0,0.22,9.28,4.16,-0.05,0.48,0.05,1.0,o
2929.0,3262.0,3329.0,2893.0,4095.0,3017.0,3175.0,2847.0,0.67,9.27,4.18,0.04,-0.6,-0.34,1.0,o
2939.0,3275.0,3312.0,2814.0,4095.0,3019.0,3179.0,2707.0,-0.23,9.23,4.13,0.27,0.56,0.07,1.0,o
2928.0,3254.0,3309.0,2784.0,4095.0,3022.0,3182.0,2811.0,-0.51,9.54,3.37,0.18,0.16,0.03,1.0,o
2935.0,3259.0,3307.0,2736.0,4095.0,3019.0,3182.0,2863.0,-0.17,9.58,3.34,-0.14,-0.05,0.05,1.0,o
2930.0,3259.0,3298.0,2737.0,4095.0,3019.0,3175.0,2835.0,0.02,9.44,3.71,-0.19,-0.06,0.1,1.0,o
2940.0,3273.0,3307.0,2771.0,4095.0,3023.0,3183.0,2854.0,0.51,9.47,3.72,-0.13,-0.01,0.07,1.0,o
2929.0,3255.0,3303.0,2801.0,4095.0,3022.0,3184.0,2802.0,0.49,9.45,3.66,-0.1,0.07,0.04,1.0,o
2929.0,3259.0,3312.0,2823.0,4095.0,3026.0,3187.0,2800.0,0.63,9.41,3.87,-0.09,0.0,-0.06,1.0,o
2934.0,3263.0,3309.0,2827.0,4095.0,3019.0,3175.0,2805.0,0.25,9.42,3.91,-0.06,0.04,-0.06,1.0,o
2933.0,3267.0,3313.0,2842.0,4095.0,3024.0,3184.0,2815.0,0.07,9.39,3.92,-0.06,-0.04,-0.07,1.0,o
2929.0,3263.0,3361.0,2941.0,4095.0,3024.0,3199.0,3051.0,0.63,8.74,5.24,-0.03,-0.04,-0.12,1.0,o
2928.0,3255.0,3360.0,2944.0,4095.0,3021.0,3190.0,3039.0,0.45,8.72,5.3,0.05,-0.13,-0.15,1.0,o
2931.0,3259.0,3369.0,2950.0,4095.0,3027.0,3191.0,3046.0,0.63,8.98,4.8,0.02,-0.01,-0.08,1.0,o
2928.0,3257.0,3346.0,2941.0,4095.0,3035.0,3184.0,3046.0,0.54,8.9,4.96,-0.03,-0.09,-0.09,1.0,o
2937.0,3266.0,3360.0,2947.0,4095.0,3024.0,3183.0,3046.0,0.57,8.97,4.86,-0.04,-0.06,-0.05,1.0,o
2932.0,3266.0,3353.0,2954.0,4095.0,3024.0,3195.0,3054.0,0.67,8.93,4.9,-0.1,0.0,-0.03,1.0,o
2931.0,3258.0,3355.0,2946.0,4095.0,3018.0,3183.0,3037.0,0.63,8.83,5.05,-0.09,-0.08,-0.14,1.0,o
2933.0,3263.0,3367.0,2946.0,4095.0,3024.0,3189.0,3053.0,0.5,8.88,4.9,-0.12,-0.02,-0.07,1.0,o
2928.0,3248.0,3344.0,2939.0,4095.0,3027.0,3191.0,3048.0,0.64,8.83,5.11,-0.08,-0.06,-0.05,1.0,o
2937.0,3264.0,3363.0,2947.0,4095.0,3027.0,3198.0,3052.0,0.39,8.83,5.02,-0.1,0.1,-0.04,1.0,o
2928.0,3258.0,3362.0,2957.0,4095.0,3025.0,3189.0,3040.0,0.42,8.75,5.25,-0.1,0.02,-0.0,1.0,o
2942.0,3258.0,3371.0,2955.0,4095.0,3024.0,3191.0,3055.0,0.66,8.77,5.15,-0.14,0.03,0.0,1.0,o
2939.0,3265.0,3351.0,2955.0,4095.0,3019.0,3187.0,3042.0,0.79,8.6,5.58,-0.11,-0.02,-0.04,1.0,o
2937.0,3266.0,3372.0,2959.0,4095.0,3021.0,3184.0,3051.0,0.56,8.73,5.26,-0.03,0.04,-0.06,1.0,o
2934.0,3264.0,3357.0,2960.0,4095.0,3018.0,3185.0,3043.0,0.37,8.7,5.28,-0.07,-0.01,-0.06,1.0,o
2940.0,3273.0,3367.0,2961.0,4095.0,3024.0,3189.0,3046.0,0.55,8.61,5.6,-0.06,-0.04,-0.09,1.0,o
2933.0,3262.0,3359.0,2962.0,4095.0,3024.0,3199.0,3053.0,0.45,8.8,5.1,-0.01,0.01,-0.06,1.0,o
2937.0,3255.0,3351.0,2957.0,4095.0,3021.0,3188.0,3047.0,0.42,8.73,5.21,-0.09,0.01,-0.06,1.0,o
2945.0,3265.0,3376.0,2970.0,4095.0,3027.0,3184.0,3039.0,0.3,8.65,5.39,-0.03,-0.02,-0.07,1.0,o
2929.0,3263.0,3367.0,2965.0,4095.0,3014.0,3184.0,3039.0,0.4,8.8,5.1,-0.06,-0.04,0.0,1.0,o
2946.0,3260.0,3370.0,2975.0,4095.0,3025.0,3195.0,3055.0,0.42,8.74,5.21,-0.04,-0.02,-0.02,1.0,o
2930.0,3248.0,3359.0,2963.0,4095.0,3023.0,3186.0,3057.0,0.51,8.78,5.21,-0.04,-0.01,-0.02,1.0,o
2930.0,3258.0,3348.0,2955.0,4095.0,3023.0,3191.0,3046.0,0.53,8.79,5.16,-0.07,-0.02,-0.04,1.0,o
2939.0,3253.0,3370.0,2970.0,4095.0,3024.0,3188.0,3051.0,0.4,8.69,5.32,-0.08,0.01,-0.04,1.0,o
2938.0,3264.0,3346.0,2965.0,4095.0,3023.0,3188.0,3050.0,0.4,8.76,5.21,-0.04,0.01,-0.03,1.0,o
2939.0,3255.0,3363.0,2969.0,4095.0,3018.0,3195.0,3051.0,0.42,8.77,5.19,-0.06,-0.02,-0.02,1.0,o
2925.0,3253.0,3353.0,2967.0,4095.0,3022.0,3191.0,3047.0,0.61,8.74,5.28,-0.09,-0.01,-0.03,1.0,o
2941.0,3271.0,3358.0,2971.0,4095.0,3024.0,3199.0,3060.0,0.48,8.7,5.32,-0.04,0.01,-0.04,1.0,o
2929.0,3253.0,3359.0,2965.0,4095.0,3024.0,3185.0,3054.0,0.41,8.75,5.26,-0.01,-0.0,-0.05,1.0,o
2928.0,3261.0,3357.0,2971.0,4095.0,3023.0,3195.0,3056.0,0.47,8.86,5.01,-0.02,-0.01,-0.05,1.0,o
2927.0,3264.0,3356.0,2965.0,4095.0,3013.0,3185.0,3053.0,0.32,8.86,4.93,-0.07,0.01,-0.03,1.0,o
2938.0,3257.0,3359.0,2972.0,4095.0,3024.0,3201.0,3061.0,0.3,8.78,5.1,-0.13,0.02,-0.01,1.0,o
2928.0,3261.0,3346.0,2965.0,4095.0,3024.0,3189.0,3040.0,0.46,8.69,5.35,-0.05,-0.11,-0.05,1.0,o
2936.0,3260.0,3371.0,2973.0,4095.0,3029.0,3195.0,3058.0,0.46,8.86,4.9,-0.08,0.11,-0.0,1.0,o
2933.0,3249.0,3359.0,2966.0,4095.0,3025.0,3200.0,3061.0,0.21,8.7,5.3,-0.2,0.01,0.03,1.0,o
2930.0,3261.0,3354.0,2971.0,4095.0,3022.0,3189.0,3053.0,0.52,8.57,5.57,-0.12,0.04,0.05,1.0,o
2935.0,3258.0,3359.0,2970.0,4095.0,3034.0,3199.0,3056.0,0.5,8.59,5.46,-0.06,0.05,0.02,1.0,o
2928.0,3249.0,3349.0,2961.0,4095.0,3020.0,3197.0,3050.0,0.87,8.65,5.44,-0.22,0.06,0.15,1.0,o
2945.0,3273.0,3373.0,2972.0,4095.0,3027.0,3194.0,3054.0,1.03,8.33,6.07,-0.13,-0.07,-0.02,1.0,o
2928.0,3258.0,3359.0,2963.0,4095.0,3024.0,3184.0,3049.0,0.87,8.49,5.71,-0.06,0.1,-0.05,1.0,o
2928.0,3251.0,3343.0,3023.0,4095.0,3024.0,3193.0,3069.0,0.84,8.53,5.35,0.02,-0.57,0.25,1.0,o
2939.0,3273.0,3358.0,3025.0,4095.0,3027.0,3195.0,3071.0,1.27,8.68,5.25,-0.29,-0.09,0.11,1.0,o
2928.0,3260.0,3338.0,3024.0,4095.0,3025.0,3197.0,3071.0,0.91,8.47,5.55,-0.31,-0.12,-0.05,1.0,o
2943.0,3264.0,3359.0,3035.0,4095.0,3024.0,3194.0,3086.0,0.94,8.26,6.2,-0.17,-0.11,0.05,1.0,o
2927.0,3251.0,3360.0,3031.0,4095.0,3047.0,3190.0,3065.0,1.07,8.4,5.69,-0.03,-0.05,0.0,1.0,o
2938.0,3259.0,3344.0,3026.0,4095.0,3034.0,3199.0,3083.0,1.24,8.4,5.69,-0.11,-0.25,0.04,1.0,o
2928.0,3253.0,3347.0,3025.0,4095.0,3025.0,3195.0,3067.0,1.77,8.42,5.71,0.07,-0.16,-0.04,1.0,o
2940.0,3254.0,3345.0,3031.0,4095.0,3038.0,3204.0,3083.0,1.5,8.6,5.36,-0.01,-0.31,-0.2,1.0,o
2931.0,3246.0,3340.0,3026.0,4095.0,3024.0,3189.0,3071.0,1.7,8.66,5.37,0.03,-0.37,-0.25,1.0,o
2938.0,3280.0,3348.0,3051.0,4095.0,3030.0,3193.0,3068.0,1.19,8.59,5.43,-0.09,0.37,-0.02,1.0,o
2935.0,3251.0,3340.0,3027.0,4095.0,3039.0,3203.0,3088.0,1.05,8.55,5.43,-0.02,0.01,-0.14,1.0,o
2928.0,3248.0,3342.0,3026.0,4095.0,3033.0,3199.0,3071.0,0.89,8.6,5.4,-0.06,0.25,-0.05,1.0,o
2934.0,3264.0,3361.0,3030.0,4095.0,3037.0,3199.0,3083.0,0.83,8.62,5.4,-0.02,0.07,-0.05,1.0,o
2923.0,3250.0,3341.0,3024.0,4095.0,3027.0,3195.0,3071.0,0.98,8.67,5.23,-0.06,0.13,0.02,1.0,o
2928.0,3269.0,3353.0,3038.0,4095.0,3040.0,3199.0,3088.0,1.06,8.63,5.4,-0.1,0.07,-0.14,1.0,o
2930.0,3258.0,3329.0,3019.0,4095.0,3024.0,3195.0,3071.0,1.04,8.71,5.29,-0.13,-0.21,-0.24,1.0,o
2930.0,3260.0,3344.0,3011.0,4095.0,3039.0,3198.0,3071.0,0.57,8.63,5.28,-0.2,0.22,-0.13,1.0,o
2928.0,3262.0,3346.0,3008.0,4095.0,3024.0,3190.0,3058.0,0.4,8.54,5.72,-0.12,-0.01,-0.25,1.0,o
2935.0,3268.0,3377.0,2918.0,4095.0,3027.0,3197.0,3047.0,0.2,8.51,5.33,-0.17,-1.22,-0.82,1.0,o
2931.0,3261.0,3376.0,2982.0,4095.0,3025.0,3184.0,3058.0,0.57,8.53,5.59,-0.2,-1.22,-0.72,1.0,o
1939.0,871.0,4095.0,3082.0,4095.0,3292.0,3538.0,4095.0,-0.77,9.07,4.6,-0.05,-0.13,-0.0,1.0,o
1941.0,875.0,4095.0,3085.0,4095.0,3303.0,3553.0,4095.0,-0.72,9.0,4.51,-0.14,0.14,0.04,1.0,o
1936.0,871.0,4095.0,3087.0,4095.0,3282.0,3539.0,4095.0,-0.8,8.83,5.21,0.06,-0.2,-0.05,1.0,o
1935.0,864.0,4095.0,3071.0,4095.0,3317.0,3553.0,4095.0,-0.55,9.12,4.15,0.05,0.06,0.11,1.0,o
1936.0,875.0,4095.0,3088.0,4095.0,3328.0,3565.0,4095.0,-0.37,9.02,4.76,-0.05,-0.0,0.12,1.0,o
1917.0,875.0,4095.0,3082.0,4095.0,3338.0,3568.0,4095.0,-0.05,9.1,4.5,0.02,-0.04,0.07,1.0,o
1898.0,875.0,4095.0,3057.0,4095.0,3322.0,3536.0,4095.0,-0.18,9.19,4.26,0.07,0.08,-0.12,1.0,o
1898.0,879.0,4095.0,3063.0,4095.0,3326.0,3550.0,4095.0,0.15,9.13,4.64,-0.12,-0.01,0.03,1.0,o
1893.0,877.0,4095.0,3071.0,4095.0,3325.0,3550.0,4095.0,-0.18,9.24,4.22,-0.14,0.04,-0.02,1.0,o
1900.0,875.0,4095.0,3095.0,4095.0,3334.0,3565.0,4095.0,-0.4,9.04,4.57,-0.08,-0.06,-0.05,1.0,o
1895.0,867.0,4095.0,3094.0,4095.0,3318.0,3552.0,4095.0,-0.13,9.04,4.63,-0.08,0.04,-0.04,1.0,o
1904.0,877.0,4095.0,3111.0,4095.0,3340.0,3566.0,4095.0,-0.11,9.16,4.42,-0.11,-0.01,-0.0,1.0,o
1894.0,870.0,4095.0,3098.0,4095.0,3331.0,3553.0,4095.0,-0.2,9.1,4.51,-0.1,-0.02,-0.04,1.0,o
1904.0,874.0,4095.0,3101.0,4095.0,3328.0,3562.0,4095.0,-0.19,9.01,4.68,-0.14,0.07,-0.01,1.0,o
1905.0,871.0,4095.0,3102.0,4095.0,3337.0,3560.0,4095.0,0.02,9.03,4.67,-0.16,0.0,-0.01,1.0,o
1905.0,875.0,4095.0,3106.0,4095.0,3331.0,3570.0,4095.0,-0.22,8.84,5.04,-0.17,0.04,-0.05,1.0,o
1900.0,879.0,4095.0,3102.0,4095.0,3339.0,3557.0,4095.0,-0.31,8.76,5.37,-0.03,-0.07,-0.05,1.0,o
1904.0,867.0,4095.0,3108.0,4095.0,3334.0,3559.0,4095.0,-0.15,8.94,4.85,0.06,-0.21,-0.06,1.0,o
1913.0,878.0,4095.0,3114.0,4095.0,3346.0,3573.0,4095.0,-0.06,9.04,4.57,-0.02,-0.03,0.02,1.0,o
1905.0,870.0,4095.0,3109.0,4095.0,3330.0,3559.0,4095.0,0.18,9.12,4.48,-0.04,0.01,-0.02,1.0,o
1915.0,874.0,4095.0,3091.0,4095.0,3359.0,3583.0,4058.0,-0.22,9.14,4.3,-0.07,0.0,0.08,1.0,o
1907.0,871.0,4095.0,3090.0,4095.0,3361.0,3568.0,4055.0,-0.48,8.83,5.07,-0.16,-0.01,-0.03,1.0,o
1915.0,868.0,4095.0,3095.0,4095.0,3361.0,3567.0,4095.0,-0.3,8.88,5.04,-0.03,-0.04,-0.04,1.0,o
1922.0,869.0,4095.0,3104.0,4095.0,3357.0,3571.0,4095.0,-0.25,9.03,4.62,-0.04,-0.04,-0.08,1.0,o
1919.0,874.0,4095.0,3091.0,4095.0,3370.0,3583.0,4095.0,-0.59,8.92,4.81,-0.08,0.03,-0.08,1.0,o
1916.0,878.0,4095.0,3102.0,4095.0,3373.0,3583.0,4095.0,-0.66,8.89,4.88,-0.02,-0.03,-0.08,1.0,o
1914.0,878.0,4095.0,3088.0,4095.0,3359.0,3574.0,4095.0,-0.5,9.08,4.5,-0.07,0.01,0.0,1.0,o
1923.0,871.0,4095.0,3098.0,4095.0,3372.0,3583.0,4095.0,-0.52,8.9,4.96,-0.11,-0.02,-0.03,1.0,o
1921.0,867.0,4095.0,3095.0,4095.0,3351.0,3561.0,4095.0,-0.34,9.01,4.66,-0.01,0.02,-0.04,1.0,o
1925.0,870.0,4095.0,3099.0,4095.0,3365.0,3583.0,4095.0,-0.51,8.94,4.84,-0.1,0.01,-0.06,1.0,o
1928.0,865.0,4095.0,3094.0,4095.0,3357.0,3563.0,4095.0,-0.72,8.87,4.94,-0.09,0.03,-0.03,1.0,o
1934.0,873.0,4095.0,3101.0,4095.0,3375.0,3583.0,4095.0,-0.52,8.95,4.75,-0.0,-0.07,-0.07,1.0,o
1983.0,877.0,4095.0,3094.0,4095.0,3359.0,3567.0,4095.0,-0.38,8.96,4.74,-0.08,0.01,-0.03,1.0,o
2112.0,874.0,4095.0,3114.0,4095.0,3362.0,3579.0,4094.0,-0.49,8.92,4.93,-0.05,-0.03,-0.07,1.0,o
2130.0,874.0,4095.0,3103.0,4095.0,3374.0,3568.0,4095.0,-0.16,8.95,4.75,-0.09,0.03,-0.18,1.0,o
2141.0,863.0,4095.0,3097.0,4095.0,3359.0,3566.0,4091.0,-0.54,8.98,4.67,-0.07,0.03,-0.17,1.0,o
2432.0,870.0,4095.0,3094.0,4095.0,3366.0,3583.0,4095.0,-0.95,8.77,5.01,-0.06,-0.01,-0.23,1.0,o
2462.0,873.0,4095.0,3086.0,4095.0,3361.0,3579.0,4095.0,-1.06,8.78,4.92,-0.05,0.03,-0.16,1.0,o
2461.0,877.0,4095.0,3090.0,4095.0,3360.0,3581.0,4095.0,-1.03,8.92,4.56,-0.05,0.09,-0.14,1.0,o
2466.0,875.0,4095.0,3090.0,4095.0,3362.0,3575.0,4095.0,-1.32,8.73,5.02,-0.21,-0.22,-0.08,1.0,o
2681.0,877.0,4095.0,3100.0,4095.0,3361.0,3567.0,4095.0,-1.13,8.03,6.25,-0.03,-0.04,0.07,1.0,o
2683.0,877.0,4095.0,3109.0,4095.0,3373.0,3577.0,4095.0,-0.85,8.12,5.95,0.0,-0.1,0.11,1.0,o
2674.0,878.0,4095.0,3105.0,4095.0,3370.0,3569.0,4095.0,-0.57,8.12,6.15,0.01,-0.05,0.08,1.0,o
2672.0,871.0,4095.0,3120.0,4095.0,3382.0,3583.0,4095.0,-0.45,8.33,5.84,0.1,-0.11,0.04,1.0,o
2672.0,873.0,4095.0,3114.0,4095.0,3373.0,3568.0,4095.0,-0.34,8.36,5.82,-0.03,-0.04,0.05,1.0,o
2685.0,871.0,4095.0,3115.0,4095.0,3378.0,3599.0,4095.0,-0.25,8.36,5.84,-0.03,-0.04,-0.0,1.0,o
2679.0,869.0,4095.0,3110.0,4095.0,3371.0,3575.0,4095.0,-0.18,8.37,5.79,-0.02,-0.06,-0.02,1.0,o
2672.0,873.0,4095.0,3119.0,4095.0,3385.0,3599.0,4095.0,-0.29,8.39,5.74,-0.06,0.01,-0.01,1.0,o
2677.0,867.0,4095.0,3109.0,4095.0,3364.0,3578.0,4095.0,-0.23,8.4,5.77,-0.07,-0.01,-0.04,1.0,o
2681.0,879.0,4095.0,3133.0,4095.0,3376.0,3583.0,4095.0,-0.31,8.28,6.03,-0.05,-0.03,-0.04,1.0,o
2670.0,875.0,4095.0,3123.0,4095.0,3381.0,3583.0,4095.0,-0.26,8.39,5.78,0.04,-0.04,-0.01,1.0,o
2672.0,880.0,4095.0,3115.0,4095.0,3375.0,3583.0,4095.0,-0.34,8.57,5.39,0.03,-0.01,0.01,1.0,o
2682.0,869.0,4095.0,3125.0,4095.0,3379.0,3600.0,4095.0,-0.26,8.55,5.47,-0.07,0.02,0.07,1.0,o
2666.0,879.0,4095.0,3109.0,4095.0,3367.0,3577.0,4095.0,-0.0,8.52,5.62,-0.08,-0.06,0.06,1.0,o
2678.0,868.0,4095.0,3120.0,4095.0,3386.0,3606.0,4095.0,0.18,8.41,5.9,0.0,-0.01,0.03,1.0,o
2672.0,877.0,4095.0,3117.0,4095.0,3367.0,3582.0,4095.0,0.04,8.58,5.47,0.18,0.03,0.06,1.0,o
2724.0,878.0,4095.0,3131.0,4095.0,3377.0,3582.0,4095.0,0.08,8.72,5.2,0.0,-0.03,0.08,1.0,o
2718.0,870.0,4095.0,3127.0,4095.0,3379.0,3583.0,4095.0,0.44,8.74,5.31,-0.0,-0.04,0.02,1.0,o
2729.0,878.0,4095.0,3131.0,4095.0,3380.0,3583.0,4095.0,0.4,8.75,5.2,0.03,-0.06,-0.01,1.0,o
2720.0,875.0,4095.0,3120.0,4095.0,3373.0,3583.0,4095.0,0.42,8.81,5.12,0.01,-0.02,-0.04,1.0,o
2789.0,875.0,4095.0,3142.0,4095.0,3373.0,3575.0,4095.0,0.56,8.95,4.92,0.05,-0.05,-0.03,1.0,o
2785.0,878.0,4095.0,3148.0,4095.0,3377.0,3611.0,4095.0,0.66,9.12,4.41,0.05,0.03,-0.05,1.0,o
2793.0,874.0,4095.0,3148.0,4095.0,3371.0,3573.0,4095.0,0.62,9.17,4.42,0.01,-0.07,-0.06,1.0,o
2786.0,878.0,4095.0,3141.0,4095.0,3377.0,3600.0,4095.0,0.49,9.22,4.48,-0.09,-0.14,-0.01,1.0,o
2800.0,867.0,4095.0,3143.0,4095.0,3366.0,3575.0,4095.0,0.71,9.25,4.26,-0.07,0.04,-0.1,1.0,o
2791.0,875.0,4095.0,3152.0,4095.0,3389.0,3605.0,4095.0,1.1,9.14,4.59,-0.12,-0.31,-0.15,1.0,o
2805.0,873.0,4095.0,3139.0,4095.0,3392.0,3583.0,4095.0,0.88,8.98,5.01,0.09,-0.31,-0.26,1.0,o
2794.0,878.0,4095.0,3127.0,4095.0,3359.0,3583.0,4095.0,-0.04,9.24,3.98,-0.07,0.25,0.06,1.0,o
2816.0,865.0,4095.0,3152.0,4095.0,3376.0,3581.0,4095.0,0.74,9.24,4.25,-0.0,0.02,0.04,1.0,o
2801.0,873.0,4095.0,3142.0,4095.0,3370.0,3583.0,4095.0,0.71,9.38,4.01,-0.11,0.38,-0.08,1.0,o
2807.0,873.0,4095.0,3155.0,4095.0,3378.0,3583.0,4095.0,0.52,9.1,4.36,0.02,-0.14,-0.14,1.0,o
2811.0,878.0,4095.0,3152.0,4095.0,3365.0,3575.0,4095.0,0.74,9.11,4.7,0.11,0.02,-0.11,1.0,o
2810.0,869.0,4095.0,3161.0,4095.0,3391.0,3597.0,4095.0,0.3,9.28,4.11,0.05,0.12,-0.08,1.0,o
2806.0,871.0,4095.0,3153.0,4095.0,3371.0,3574.0,4095.0,0.27,9.12,4.56,0.12,-0.23,-0.07,1.0,o
2821.0,869.0,4095.0,3159.0,4095.0,3377.0,3599.0,4095.0,0.57,9.45,3.89,0.02,-0.03,0.02,1.0,o
2815.0,875.0,4095.0,3155.0,4095.0,3375.0,3575.0,4095.0,0.53,9.28,4.23,-0.01,-0.15,-0.1,1.0,o
2825.0,879.0,4095.0,3169.0,4095.0,3380.0,3583.0,4095.0,0.14,9.41,3.82,-0.01,-0.04,-0.06,1.0,o
2823.0,879.0,4095.0,3154.0,4095.0,3387.0,3600.0,4095.0,0.36,9.36,3.9,0.01,-0.13,-0.07,1.0,o
2828.0,869.0,4095.0,3152.0,4095.0,3363.0,3583.0,4095.0,0.44,9.45,3.7,-0.02,-0.01,-0.02,1.0,o
2826.0,878.0,4095.0,3161.0,4095.0,3378.0,3583.0,4095.0,0.28,9.36,3.9,0.03,-0.09,-0.07,1.0,o
2832.0,876.0,4095.0,3165.0,4095.0,3366.0,3575.0,4095.0,0.54,9.59,3.39,-0.03,-0.12,-0.03,1.0,o
2845.0,878.0,4095.0,3165.0,4095.0,3387.0,3583.0,4095.0,0.57,9.63,3.31,-0.05,0.08,-0.02,1.0,o
2848.0,869.0,4095.0,3165.0,4095.0,3383.0,3579.0,4095.0,0.15,9.49,3.63,-0.01,-0.11,-0.09,1.0,o
2854.0,877.0,4095.0,3179.0,4095.0,3380.0,3583.0,4095.0,0.39,9.61,3.28,-0.01,-0.02,-0.02,1.0,o
2841.0,883.0,4095.0,3164.0,4095.0,3376.0,3571.0,4095.0,0.42,9.65,3.16,-0.04,-0.02,-0.02,1.0,o
2862.0,871.0,4095.0,3162.0,4095.0,3367.0,3577.0,4095.0,0.31,9.56,3.5,-0.07,-0.02,-0.07,1.0,o
2866.0,877.0,4095.0,3158.0,4095.0,3381.0,3597.0,4095.0,0.29,9.53,3.5,0.09,-0.04,-0.11,1.0,o
3088.0,874.0,4095.0,3143.0,4095.0,3381.0,3600.0,4095.0,0.26,9.73,2.77,0.01,-0.13,-0.11,1.0,o
3127.0,876.0,4095.0,3152.0,4095.0,3373.0,3598.0,4095.0,0.33,9.7,3.08,-0.07,0.04,-0.04,1.0,o
3126.0,866.0,4095.0,3141.0,4095.0,3376.0,3583.0,4095.0,0.22,9.58,3.28,-0.03,-0.04,-0.19,1.0,o
3259.0,874.0,4095.0,3148.0,4095.0,3381.0,3601.0,4095.0,0.12,9.68,2.97,0.04,0.02,-0.11,1.0,o
3349.0,880.0,4095.0,3157.0,4095.0,3373.0,3601.0,4095.0,0.0,9.77,2.73,0.05,0.02,-0.14,1.0,o
3405.0,870.0,4095.0,3156.0,4095.0,3376.0,3600.0,4095.0,-0.31,9.71,2.93,-0.01,0.07,-0.13,1.0,o
3406.0,877.0,4095.0,3158.0,4095.0,3374.0,3582.0,4095.0,-0.45,9.74,2.72,-0.02,0.02,-0.13,1.0,o
3439.0,867.0,4095.0,3162.0,4095.0,3376.0,3605.0,4095.0,-0.55,9.74,2.61,-0.05,-0.06,-0.09,1.0,o
3439.0,880.0,4095.0,3155.0,4095.0,3371.0,3598.0,4095.0,-0.38,9.7,2.87,-0.12,0.0,-0.05,1.0,o
3478.0,872.0,4095.0,3168.0,4095.0,3386.0,3621.0,4095.0,-0.29,9.67,3.03,-0.02,-0.03,-0.09,1.0,o
3533.0,862.0,4095.0,3168.0,4095.0,3394.0,3627.0,4095.0,-0.17,9.67,2.96,0.01,-0.04,-0.05,1.0,o
3534.0,880.0,4095.0,3166.0,4095.0,3377.0,3601.0,4095.0,-0.76,9.8,2.36,0.02,0.06,-0.13,1.0,o
3548.0,877.0,4095.0,3178.0,4095.0,3376.0,3606.0,4095.0,-1.03,9.71,2.48,-0.05,-0.09,-0.13,1.0,o
3561.0,880.0,4095.0,3183.0,4095.0,3375.0,3610.0,4095.0,-1.05,9.77,2.29,0.01,0.03,-0.05,1.0,o
3538.0,871.0,4095.0,3177.0,4095.0,3376.0,3632.0,4095.0,-1.16,9.8,2.18,-0.08,0.07,0.01,1.0,o
3555.0,873.0,4095.0,3184.0,4095.0,3376.0,3603.0,4095.0,-1.01,9.73,2.45,0.02,-0.04,0.01,1.0,o
3575.0,880.0,4095.0,3178.0,4095.0,3382.0,3617.0,4095.0,-1.0,9.8,2.2,-0.04,-0.02,0.01,1.0,o
3554.0,880.0,4095.0,3169.0,4095.0,3375.0,3603.0,4074.0,-0.73,9.86,2.01,0.07,0.07,0.04,1.0,o
3569.0,868.0,4095.0,3186.0,4095.0,3383.0,3610.0,4095.0,-0.79,9.78,2.15,-0.08,-0.06,0.02,1.0,o
3565.0,874.0,4095.0,3173.0,4095.0,3375.0,3614.0,4095.0,-0.68,9.9,2.04,-0.04,0.24,0.06,1.0,o
3579.0,875.0,4095.0,3184.0,4095.0,3385.0,3611.0,4095.0,-0.74,9.77,2.27,0.05,-0.12,-0.05,1.0,o
3568.0,879.0,4095.0,3171.0,4095.0,3376.0,3605.0,4095.0,-0.87,9.99,1.41,-0.03,0.09,0.12,1.0,o
3569.0,871.0,4095.0,3193.0,4095.0,3385.0,3606.0,4095.0,-0.44,9.78,2.36,-0.02,-0.12,0.06,1.0,o
3573.0,878.0,4095.0,3167.0,4095.0,3367.0,3606.0,4095.0,-0.38,10.01,1.52,0.04,0.08,0.07,1.0,o
3583.0,871.0,4095.0,3179.0,4095.0,3376.0,3621.0,4095.0,-0.36,9.93,1.78,0.0,-0.02,0.0,1.0,o
3573.0,870.0,4095.0,3177.0,4095.0,3376.0,3607.0,4095.0,-0.18,10.03,1.42,-0.02,0.06,0.0,1.0,o
3583.0,877.0,4095.0,3184.0,4095.0,3372.0,3616.0,4095.0,-0.18,9.97,1.66,-0.12,-0.01,-0.05,1.0,o
3577.0,874.0,4095.0,3185.0,4095.0,3376.0,3605.0,4095.0,-0.5,9.91,1.87,-0.15,0.04,0.01,1.0,o
3569.0,875.0,4095.0,3182.0,4095.0,3377.0,3602.0,4095.0,-0.36,9.85,2.08,-0.02,-0.03,0.0,1.0,o
3604.0,871.0,4095.0,3183.0,4095.0,3379.0,3615.0,4095.0,-0.26,10.01,1.49,-0.1,-0.05,0.0,1.0,o
3583.0,867.0,4095.0,3182.0,4095.0,3375.0,3601.0,4095.0,-0.03,9.92,1.92,-0.17,-0.0,0.03,1.0,o
3600.0,868.0,4095.0,3184.0,4095.0,3389.0,3619.0,4095.0,-0.12,9.84,2.28,-0.1,0.02,0.04,1.0,o
3597.0,867.0,4095.0,3174.0,4095.0,3383.0,3615.0,4095.0,-0.11,9.97,1.87,-0.1,0.0,0.04,1.0,o
3605.0,866.0,4095.0,3182.0,4095.0,3376.0,3610.0,4095.0,0.22,10.01,1.82,-0.2,0.09,-0.01,1.0,o
3630.0,880.0,4095.0,3184.0,4095.0,3392.0,3622.0,4095.0,0.19,9.76,2.7,-0.3,0.05,0.09,1.0,o
3614.0,866.0,4095.0,3179.0,4095.0,3383.0,3606.0,4095.0,0.44,9.81,2.68,-0.07,-0.03,0.02,1.0,o
3598.0,875.0,4095.0,3167.0,4095.0,3383.0,3617.0,4095.0,0.41,9.82,2.48,-0.1,-0.08,-0.04,1.0,o
3608.0,877.0,4095.0,3184.0,4095.0,3391.0,3620.0,4095.0,0.36,9.8,2.63,-0.1,0.07,-0.03,1.0,o
3601.0,867.0,4095.0,3174.0,4095.0,3377.0,3601.0,4095.0,0.25,9.73,2.79,-0.05,-0.06,-0.11,1.0,o
3615.0,874.0,4095.0,3184.0,4095.0,3387.0,3622.0,4095.0,0.48,9.84,2.47,0.0,0.01,-0.02,1.0,o
3610.0,863.0,4095.0,3179.0,4095.0,3376.0,3600.0,4095.0,0.15,9.73,2.63,-0.12,0.01,-0.01,1.0,o
3617.0,878.0,4095.0,3184.0,4095.0,3381.0,3605.0,4095.0,0.48,9.87,2.58,-0.02,0.11,0.0,1.0,o
3607.0,870.0,4095.0,3173.0,4095.0,3373.0,3613.0,4095.0,0.2,9.83,2.34,-0.05,-0.05,-0.05,1.0,o
3605.0,879.0,4095.0,3177.0,4095.0,3393.0,3623.0,4095.0,0.11,9.85,2.39,-0.15,0.06,0.01,1.0,o
3599.0,878.0,4095.0,3183.0,4095.0,3383.0,3607.0,4095.0,0.36,9.58,3.35,-0.13,0.05,0.05,1.0,o
3612.0,866.0,4095.0,3184.0,4095.0,3393.0,3629.0,4095.0,0.38,9.74,2.41,-0.09,-0.0,0.1,1.0,o
3610.0,879.0,4095.0,3170.0,4095.0,3378.0,3603.0,4095.0,1.06,9.88,2.66,-0.15,0.12,-0.02,1.0,o
3614.0,879.0,4095.0,3182.0,4095.0,3381.0,3609.0,4095.0,0.34,9.67,3.0,-0.11,-0.01,-0.09,1.0,o
3632.0,880.0,4095.0,3190.0,4095.0,3388.0,3616.0,4095.0,0.14,9.73,2.62,-0.12,0.05,-0.04,1.0,o
3613.0,873.0,4095.0,3185.0,4095.0,3385.0,3613.0,4095.0,0.37,9.67,3.01,-0.16,0.06,0.09,1.0,o
3631.0,864.0,4095.0,3186.0,4095.0,3385.0,3626.0,4095.0,0.54,9.62,3.19,-0.09,-0.03,0.01,1.0,o
3619.0,868.0,4095.0,3190.0,4095.0,3376.0,3600.0,4095.0,0.7,9.62,3.17,-0.11,0.05,-0.02,1.0,o
3614.0,878.0,4095.0,3194.0,4095.0,3397.0,3623.0,4095.0,0.79,9.56,3.31,-0.16,-0.07,0.04,1.0,o
3614.0,875.0,4095.0,3189.0,4095.0,3378.0,3613.0,4095.0,0.98,9.35,3.96,-0.14,0.02,-0.01,1.0,o
3634.0,877.0,4095.0,3198.0,4095.0,3376.0,3623.0,4095.0,0.81,9.24,4.19,-0.12,-0.01,-0.05,1.0,o
3614.0,877.0,4095.0,3187.0,4095.0,3378.0,3610.0,4095.0,0.74,9.31,4.07,-0.05,0.05,0.01,1.0,o
3621.0,866.0,4095.0,3200.0,4095.0,3399.0,3628.0,4095.0,1.07,9.34,3.93,-0.06,-0.03,0.01,1.0,o
3615.0,869.0,4095.0,3190.0,4095.0,3378.0,3622.0,4095.0,1.14,9.28,4.14,-0.1,0.04,-0.04,1.0,o
3629.0,874.0,4095.0,3191.0,4095.0,3375.0,3611.0,4095.0,0.9,9.26,4.21,-0.04,0.02,-0.03,1.0,o
3644.0,869.0,4095.0,3184.0,4095.0,3376.0,3605.0,4095.0,0.88,9.36,3.87,-0.05,-0.01,-0.07,1.0,o
3648.0,869.0,4095.0,3196.0,4095.0,3384.0,3612.0,4095.0,1.01,9.33,4.03,-0.09,0.02,-0.02,1.0,o
3657.0,866.0,4095.0,3188.0,4095.0,3385.0,3634.0,4095.0,0.83,9.21,4.23,-0.07,-0.06,-0.08,1.0,o
3671.0,867.0,4095.0,3175.0,4095.0,3374.0,3614.0,4095.0,0.96,9.38,3.95,-0.03,0.01,-0.04,1.0,o
3690.0,867.0,4095.0,3186.0,4095.0,3383.0,3629.0,4095.0,1.01,9.35,3.99,-0.06,-0.02,-0.06,1.0,o
3695.0,880.0,4095.0,3184.0,4095.0,3371.0,3607.0,4095.0,0.83,9.27,4.19,-0.1,-0.02,-0.07,1.0,o
3699.0,867.0,4095.0,3187.0,4095.0,3378.0,3632.0,4095.0,0.85,9.25,4.16,-0.03,-0.07,-0.07,1.0,o
3686.0,864.0,4095.0,3184.0,4095.0,3369.0,3619.0,4095.0,0.88,9.4,3.83,-0.05,-0.01,-0.06,1.0,o
3717.0,877.0,4095.0,3193.0,4095.0,3386.0,3632.0,4095.0,0.85,9.37,3.98,-0.08,0.05,-0.06,1.0,o
3697.0,878.0,4095.0,3185.0,4095.0,3376.0,3607.0,4095.0,0.62,9.23,4.2,-0.09,-0.05,-0.09,1.0,o
3701.0,869.0,4095.0,3200.0,4095.0,3383.0,3625.0,4095.0,0.67,9.32,4.06,-0.06,0.0,-0.07,1.0,o
3705.0,867.0,4095.0,3186.0,4095.0,3370.0,3605.0,4095.0,0.77,9.34,4.02,-0.09,0.02,-0.02,1.0,o
3725.0,869.0,4095.0,3185.0,4095.0,3374.0,3632.0,4095.0,0.65,9.17,4.41,-0.07,-0.04,-0.07,1.0,o
3693.0,871.0,4095.0,3189.0,4095.0,3373.0,3625.0,4095.0,0.71,9.35,3.95,-0.02,0.03,-0.03,1.0,o
3728.0,871.0,4095.0,3199.0,4095.0,3387.0,3631.0,4095.0,0.57,9.27,4.21,-0.13,0.03,-0.03,1.0,o
3707.0,870.0,4095.0,3193.0,4095.0,3365.0,3612.0,4095.0,0.58,9.19,4.45,-0.1,0.02,-0.08,1.0,o
3714.0,868.0,4095.0,3213.0,4095.0,3377.0,3623.0,4095.0,0.39,9.13,4.49,-0.05,0.02,-0.08,1.0,o
3697.0,873.0,4095.0,3191.0,4095.0,3379.0,3621.0,4095.0,0.37,9.29,4.08,-0.06,-0.05,-0.06,1.0,o
3709.0,871.0,4095.0,3207.0,4095.0,3376.0,3601.0,4095.0,0.39,9.17,4.41,-0.1,0.03,-0.06,1.0,o
3701.0,869.0,4095.0,3207.0,4095.0,3387.0,3633.0,4095.0,0.38,9.14,4.51,-0.04,-0.01,-0.05,1.0,o
3683.0,865.0,4095.0,3191.0,4095.0,3376.0,3621.0,4095.0,0.36,9.26,4.17,-0.06,-0.02,-0.08,1.0,o
3727.0,866.0,4095.0,3207.0,4095.0,3379.0,3617.0,4095.0,0.34,9.22,4.3,-0.1,0.08,-0.05,1.0,o
3702.0,879.0,4095.0,3192.0,4095.0,3372.0,3614.0,4091.0,0.21,9.13,4.53,-0.1,-0.04,-0.1,1.0,o
3713.0,870.0,4095.0,3216.0,4095.0,3388.0,3626.0,4063.0,0.22,9.17,4.4,-0.08,0.03,-0.06,1.0,o
3713.0,874.0,4095.0,3205.0,4095.0,3369.0,3611.0,4037.0,0.16,9.12,4.53,-0.05,0.03,-0.02,1.0,o
3696.0,880.0,4095.0,3206.0,4095.0,3376.0,3631.0,4075.0,0.15,9.41,3.7,-0.08,-0.04,-0.04,1.0,o
3702.0,865.0,4095.0,3201.0,4095.0,3377.0,3609.0,4090.0,1.18,9.06,5.24,0.0,-0.3,-0.36,1.0,o
3733.0,871.0,4095.0,3216.0,4095.0,3385.0,3618.0,4095.0,-0.41,8.86,4.79,-0.01,0.18,-0.24,1.0,o
3729.0,876.0,4095.0,3211.0,4095.0,3387.0,3603.0,4095.0,-0.17,9.28,4.23,0.11,-0.27,-0.03,1.0,o
3757.0,870.0,4095.0,3216.0,4095.0,3393.0,3632.0,4095.0,-0.38,9.37,3.67,-0.11,0.24,-0.05,1.0,o
3760.0,866.0,4095.0,3222.0,4095.0,3388.0,3630.0,4095.0,-0.1,9.23,4.36,-0.08,-0.07,-0.02,1.0,o
3734.0,867.0,4095.0,3213.0,4095.0,3387.0,3614.0,4095.0,-0.16,9.22,4.22,-0.11,0.01,0.03,1.0,o
3741.0,867.0,4095.0,3212.0,4095.0,3393.0,3631.0,4095.0,-0.05,9.17,4.42,-0.11,-0.03,-0.02,1.0,o
3762.0,875.0,4095.0,3213.0,4095.0,3399.0,3623.0,4095.0,-0.25,9.21,4.23,-0.11,0.02,-0.0,1.0,o
4095.0,863.0,4095.0,3218.0,4095.0,3391.0,3633.0,4095.0,0.06,9.16,4.38,-0.02,-0.0,-0.0,1.0,o
4077.0,877.0,4095.0,3205.0,4095.0,3382.0,3623.0,4095.0,0.26,9.27,4.19,-0.09,-0.02,-0.0,1.0,o
4095.0,865.0,4095.0,3213.0,4095.0,3391.0,3633.0,4095.0,0.2,9.02,4.77,-0.11,-0.01,-0.06,1.0,o
4084.0,866.0,4095.0,3211.0,4095.0,3381.0,3629.0,4095.0,0.02,9.1,4.56,-0.05,0.04,-0.03,1.0,o
4095.0,865.0,4095.0,3216.0,4095.0,3390.0,3625.0,4095.0,0.19,9.17,4.4,-0.02,-0.04,-0.04,1.0,o
4076.0,874.0,4095.0,3214.0,4095.0,3382.0,3629.0,4095.0,0.19,9.15,4.5,-0.1,-0.0,-0.05,1.0,o
4095.0,876.0,4095.0,3223.0,4095.0,3391.0,3631.0,4095.0,0.1,9.03,4.83,-0.03,-0.03,-0.06,1.0,o
4064.0,876.0,4095.0,3215.0,4095.0,3383.0,3617.0,4095.0,0.12,9.24,4.24,-0.03,-0.01,-0.07,1.0,o
4083.0,868.0,4095.0,3215.0,4095.0,3390.0,3626.0,4095.0,0.06,9.21,4.3,-0.07,0.03,-0.05,1.0,o
4078.0,866.0,4095.0,3213.0,4095.0,3381.0,3611.0,4095.0,-0.29,8.99,4.81,-0.09,-0.03,-0.03,1.0,o
4071.0,866.0,4095.0,3217.0,4095.0,3399.0,3632.0,4095.0,0.01,9.2,4.34,-0.03,0.03,0.06,1.0,o
4095.0,878.0,4095.0,3219.0,4095.0,3385.0,3635.0,4095.0,0.35,9.32,4.24,-0.06,-0.02,0.02,1.0,o
4077.0,875.0,4095.0,3216.0,4095.0,3374.0,3606.0,4095.0,0.25,9.15,4.45,-0.09,0.01,-0.03,1.0,o
4084.0,865.0,4095.0,3227.0,4095.0,3392.0,3633.0,4095.0,0.17,9.08,4.68,-0.01,-0.02,-0.06,1.0,o
4081.0,866.0,4095.0,3215.0,4095.0,3371.0,3619.0,4095.0,0.19,9.18,4.36,-0.04,-0.02,-0.07,1.0,o
4066.0,869.0,4095.0,3220.0,4095.0,3392.0,3637.0,4095.0,0.11,9.17,4.38,-0.03,0.02,-0.05,1.0,o
4051.0,864.0,4095.0,3217.0,4095.0,3376.0,3625.0,4095.0,-0.01,9.12,4.53,-0.03,-0.05,-0.08,1.0,o
4061.0,870.0,4095.0,3218.0,4095.0,3385.0,3642.0,4095.0,0.16,9.19,4.38,0.05,-0.03,-0.03,1.0,o
4032.0,866.0,4095.0,3218.0,4095.0,3377.0,3631.0,4095.0,0.24,9.31,4.05,0.02,-0.06,-0.08,1.0,o
4069.0,863.0,4095.0,3213.0,4095.0,3382.0,3635.0,4095.0,0.06,9.27,4.18,-0.05,0.01,-0.08,1.0,o
