hall_1,hall_2,hall_3,flex_t,flex_i,flex_m,flex_r,flex_p,accel_x,accel_y,accel_z,gyro_x,gyro_y,gyro_z,sign
2960.0,2961.0,2859.0,4095.0,4095.0,2875.0,3062.0,2807.0,3.98,-2.47,12.88,-0.35,-0.19,0.19,p
2966.0,2975.0,2856.0,4095.0,4095.0,2887.0,3071.0,2815.0,4.57,-2.89,13.25,-0.41,0.0,0.13,p
2960.0,2983.0,2857.0,4095.0,4095.0,2908.0,3070.0,2816.0,4.38,-3.23,13.36,0.01,-0.04,-0.21,p
2960.0,2991.0,2864.0,4095.0,4095.0,2919.0,3071.0,2819.0,4.18,-2.98,12.79,0.13,-0.02,-0.23,p
2969.0,2973.0,2857.0,4095.0,4095.0,2913.0,3071.0,2811.0,4.36,-2.71,13.01,0.08,-0.02,-0.33,p
2965.0,2983.0,2861.0,4095.0,4095.0,2924.0,3081.0,2817.0,4.18,-2.66,12.72,0.16,-0.01,-0.29,p
2967.0,2979.0,2852.0,4095.0,4095.0,2919.0,3082.0,2814.0,4.26,-2.68,12.98,-0.03,0.04,-0.29,p
2961.0,2976.0,2860.0,4095.0,4095.0,2899.0,3082.0,2816.0,4.07,-2.79,12.94,0.01,-0.01,-0.35,p
2959.0,2974.0,2861.0,4095.0,4095.0,2905.0,3069.0,2818.0,4.24,-2.47,12.77,0.0,0.03,-0.22,p
2960.0,2971.0,2853.0,4095.0,4095.0,2899.0,3067.0,2814.0,4.24,-2.55,12.93,-0.06,0.01,-0.2,p
2960.0,2973.0,2848.0,4095.0,4095.0,2906.0,3067.0,2815.0,4.15,-2.87,13.04,-0.08,-0.01,-0.12,p
2961.0,2987.0,2865.0,4095.0,4095.0,2916.0,3071.0,2818.0,4.3,-2.69,13.18,0.03,0.02,-0.06,p
2962.0,2983.0,2851.0,4095.0,4095.0,2915.0,3082.0,2815.0,4.2,-2.6,12.78,0.08,-0.07,-0.18,p
2950.0,2990.0,2860.0,4095.0,4095.0,2928.0,3071.0,2816.0,4.4,-2.62,12.8,-0.04,-0.02,-0.1,p
2977.0,2980.0,2864.0,4095.0,4095.0,2921.0,3083.0,2812.0,4.47,-2.96,12.92,-0.02,0.0,-0.18,p
2970.0,2973.0,2858.0,4095.0,4095.0,2919.0,3071.0,2816.0,4.2,-2.76,12.99,0.01,0.03,-0.17,p
2972.0,2971.0,2860.0,4095.0,4095.0,2930.0,3081.0,2817.0,4.15,-2.51,12.82,-0.02,0.02,-0.1,p
2960.0,2983.0,2845.0,4095.0,4095.0,2934.0,3066.0,2812.0,4.27,-2.83,13.0,-0.07,-0.01,-0.16,p
2960.0,2985.0,2851.0,4095.0,4095.0,2950.0,3071.0,2807.0,4.45,-2.91,13.03,-0.05,-0.07,-0.28,p
2960.0,2960.0,2890.0,4095.0,4095.0,2850.0,2902.0,2622.0,3.99,-2.43,13.04,-0.03,-0.0,-0.2,p
2957.0,2953.0,2890.0,4095.0,4095.0,2849.0,2902.0,2621.0,3.89,-2.43,13.24,0.08,0.07,-0.15,p
2956.0,2957.0,2880.0,4095.0,4095.0,2849.0,2898.0,2622.0,3.84,-2.34,13.16,0.01,-0.03,-0.13,p
2962.0,2960.0,2884.0,4095.0,4095.0,2845.0,2901.0,2624.0,3.85,-2.26,12.69,-0.22,0.02,0.11,p
2965.0,2954.0,2880.0,4095.0,4095.0,2855.0,2902.0,2632.0,3.86,-2.82,13.43,-0.41,-0.04,-0.08,p
2965.0,2950.0,2891.0,4095.0,4095.0,2837.0,2902.0,2639.0,3.62,-2.86,13.28,-0.11,0.03,-0.0,p
2949.0,2948.0,2880.0,4095.0,4095.0,2819.0,2909.0,2640.0,3.75,-2.81,13.24,-0.19,-0.03,-0.07,p
2955.0,2960.0,2882.0,4095.0,4095.0,2797.0,2906.0,2643.0,3.71,-2.96,13.0,0.02,-0.03,0.01,p
2959.0,2960.0,2880.0,4095.0,4095.0,2778.0,2911.0,2648.0,3.5,-2.8,12.66,-0.12,-0.17,0.22,p
2962.0,2947.0,2865.0,4095.0,4095.0,2779.0,2906.0,2653.0,4.03,-3.06,13.04,-0.24,-0.13,0.36,p
2963.0,2954.0,2886.0,4095.0,4095.0,2795.0,2911.0,2666.0,4.18,-3.49,13.43,0.05,-0.04,-0.15,p
2947.0,2961.0,2886.0,4095.0,4095.0,2786.0,2913.0,2660.0,3.71,-3.07,12.78,0.1,0.02,-0.19,p
2953.0,2945.0,2881.0,4095.0,4095.0,2787.0,2910.0,2666.0,3.64,-3.18,13.38,0.18,-0.03,-0.36,p
2960.0,2963.0,2885.0,4095.0,4095.0,2781.0,2919.0,2672.0,3.68,-2.96,13.21,0.34,-0.01,-0.38,p
2955.0,2961.0,2899.0,4095.0,4095.0,2771.0,2909.0,2672.0,4.03,-2.82,13.06,0.47,-0.0,-0.31,p
2947.0,2954.0,2886.0,4095.0,4095.0,2766.0,2915.0,2670.0,4.02,-2.61,13.17,0.41,-0.02,-0.33,p
2957.0,2955.0,2879.0,4095.0,4095.0,2760.0,2914.0,2677.0,4.12,-2.37,13.28,0.49,0.12,-0.45,p
2949.0,2958.0,2885.0,4095.0,4095.0,2752.0,2923.0,2673.0,3.94,-2.02,12.92,0.4,-0.01,-0.47,p
2943.0,2948.0,2894.0,4095.0,4095.0,2763.0,2918.0,2679.0,3.72,-1.7,13.18,0.21,-0.05,-0.37,p
2960.0,2955.0,2880.0,4095.0,4095.0,2757.0,2925.0,2678.0,3.71,-1.67,13.04,-0.02,0.03,-0.14,p
2955.0,2957.0,2883.0,4095.0,4095.0,2823.0,2947.0,2736.0,3.88,-3.58,13.45,0.39,0.0,-0.36,p
2970.0,2957.0,2883.0,4095.0,4095.0,2823.0,2949.0,2736.0,3.69,-3.14,12.86,0.48,0.02,-0.41,p
2960.0,2963.0,2895.0,4095.0,4095.0,2827.0,2955.0,2736.0,3.8,-2.81,12.82,0.32,0.03,-0.34,p
2949.0,2957.0,2878.0,4095.0,4095.0,2817.0,2948.0,2733.0,3.91,-2.77,13.14,0.17,-0.01,-0.35,p
2967.0,2959.0,2896.0,4095.0,4095.0,2819.0,2950.0,2736.0,3.82,-2.73,13.22,0.31,-0.03,-0.35,p
2965.0,2962.0,2896.0,4095.0,4095.0,2821.0,2960.0,2740.0,3.94,-2.5,13.09,0.2,-0.0,-0.33,p
2963.0,2959.0,2894.0,4095.0,4095.0,2821.0,2958.0,2737.0,3.88,-2.29,13.16,0.38,-0.02,-0.32,p
2959.0,2949.0,2890.0,4095.0,4095.0,2813.0,2959.0,2734.0,3.85,-2.06,12.89,0.12,-0.05,-0.24,p
2945.0,2944.0,2887.0,4095.0,4095.0,2815.0,2951.0,2736.0,4.03,-2.06,13.35,0.07,0.0,-0.21,p
2962.0,2963.0,2890.0,4095.0,4095.0,2822.0,2950.0,2736.0,3.9,-2.08,13.18,0.18,-0.02,-0.26,p
2966.0,2957.0,2888.0,4095.0,4095.0,2815.0,2960.0,2734.0,3.75,-1.9,13.09,-0.01,-0.02,-0.17,p
2959.0,2950.0,2892.0,4095.0,4095.0,2817.0,2976.0,2737.0,3.8,-1.84,13.0,-0.06,-0.01,-0.04,p
2960.0,2963.0,2890.0,4095.0,4095.0,2822.0,2955.0,2735.0,3.81,-2.0,12.88,-0.34,-0.01,0.17,p
2955.0,2961.0,2887.0,4095.0,4095.0,2817.0,2954.0,2736.0,3.92,-2.42,13.33,-0.39,0.07,0.25,p
2960.0,2948.0,2889.0,4095.0,4095.0,2819.0,2960.0,2742.0,4.09,-2.99,13.62,-0.25,0.08,-0.06,p
2961.0,2959.0,2889.0,4095.0,4095.0,2827.0,2970.0,2745.0,3.88,-2.99,13.36,-0.03,-0.02,-0.28,p
2945.0,2956.0,2887.0,4095.0,4095.0,2818.0,2960.0,2743.0,3.61,-2.75,13.2,-0.03,0.0,-0.32,p
2958.0,2950.0,2885.0,4095.0,4095.0,2813.0,2960.0,2750.0,3.65,-2.66,13.23,-0.03,-0.07,-0.24,p
2960.0,2960.0,2899.0,4095.0,4095.0,2810.0,2961.0,2752.0,3.78,-2.63,13.11,-0.01,-0.01,-0.11,p
2959.0,2973.0,2894.0,4095.0,4095.0,2816.0,2958.0,2752.0,3.93,-2.71,13.11,0.05,-0.03,-0.15,p
2953.0,2954.0,2880.0,4095.0,4095.0,2823.0,2966.0,2750.0,3.7,-0.88,12.83,0.75,-0.01,-0.38,p
2965.0,2960.0,2895.0,4095.0,4095.0,2829.0,2967.0,2752.0,3.93,-0.52,13.07,0.51,0.01,-0.29,p
2967.0,2947.0,2903.0,4095.0,4095.0,2820.0,2970.0,2746.0,3.95,-0.61,13.43,0.35,0.04,-0.32,p
2956.0,2954.0,2894.0,4095.0,4095.0,2837.0,2975.0,2757.0,3.92,-0.35,13.32,0.34,0.04,-0.25,p
2960.0,2974.0,2895.0,4095.0,4095.0,2833.0,2981.0,2751.0,3.68,-0.04,13.2,0.12,-0.01,-0.09,p
2964.0,2956.0,2894.0,4095.0,4095.0,2833.0,2971.0,2750.0,3.26,-0.1,12.68,-0.36,-0.09,0.32,p
2959.0,2957.0,2885.0,4095.0,4095.0,2836.0,2970.0,2749.0,3.83,-0.68,13.21,-1.01,0.24,0.45,p
2964.0,2954.0,2885.0,4095.0,4095.0,2842.0,2974.0,2749.0,4.22,-1.78,13.78,-0.9,-0.03,0.13,p
2961.0,2958.0,2889.0,4095.0,4095.0,2849.0,2971.0,2758.0,4.37,-2.12,13.62,-0.58,0.01,0.08,p
2971.0,2962.0,2888.0,4095.0,4095.0,2832.0,2976.0,2757.0,3.72,-2.14,13.69,-0.28,-0.06,-0.13,p
2965.0,2951.0,2887.0,4095.0,4095.0,2807.0,2977.0,2758.0,3.63,-2.05,13.26,-0.2,0.09,0.01,p
2962.0,2957.0,2892.0,4095.0,4095.0,2810.0,2975.0,2769.0,3.74,-2.26,13.53,-0.14,-0.01,-0.07,p
2955.0,2953.0,2899.0,4095.0,4095.0,2783.0,2965.0,2747.0,3.78,-2.54,13.11,-0.09,-0.02,-0.1,p
2961.0,2969.0,2883.0,4095.0,4095.0,2774.0,2949.0,2743.0,3.85,-2.6,13.56,-0.11,0.05,-0.21,p
2959.0,2957.0,2889.0,4095.0,4095.0,2771.0,2928.0,2743.0,3.68,-2.54,13.34,0.18,-0.02,-0.26,p
2958.0,2974.0,2891.0,4095.0,4095.0,2774.0,2896.0,2727.0,3.78,-2.39,13.46,0.23,-0.07,-0.29,p
2962.0,2974.0,2895.0,4095.0,4095.0,2779.0,2890.0,2731.0,3.7,-2.25,13.36,0.38,-0.03,-0.22,p
2960.0,2970.0,2886.0,4095.0,4095.0,2749.0,2893.0,2719.0,3.86,-1.88,12.88,0.14,-0.03,-0.27,p
2973.0,2961.0,2886.0,4095.0,4095.0,2681.0,2863.0,2708.0,4.02,-1.96,13.31,-0.07,-0.05,-0.21,p
2961.0,2966.0,2885.0,4095.0,4095.0,2655.0,2839.0,2692.0,3.75,-1.87,12.98,-0.12,0.03,-0.17,p
2978.0,2960.0,2866.0,4095.0,4095.0,3094.0,3254.0,2943.0,3.6,-1.44,13.83,0.17,-0.08,-0.23,p
2973.0,2955.0,2864.0,4095.0,4095.0,3103.0,3255.0,2947.0,3.85,-1.43,13.14,0.05,-0.15,-0.13,p
2970.0,2960.0,2880.0,4095.0,4095.0,3013.0,3207.0,2925.0,3.86,-1.48,13.38,-0.28,-0.18,-0.16,p
2975.0,2951.0,2882.0,4095.0,4095.0,2864.0,3088.0,2871.0,4.15,-1.92,13.26,-0.25,-0.15,-0.13,p
2970.0,2961.0,2891.0,4095.0,4095.0,2778.0,2972.0,2826.0,3.88,-1.63,13.39,-0.11,-0.04,-0.18,p
2965.0,2958.0,2886.0,4095.0,4095.0,2711.0,2890.0,2751.0,3.87,-1.68,13.46,-0.06,0.08,-0.15,p
2969.0,2944.0,2896.0,4095.0,4095.0,2678.0,2826.0,2716.0,3.92,-1.79,13.34,-0.04,0.03,-0.13,p
2974.0,2961.0,2894.0,4095.0,4095.0,2611.0,2772.0,2669.0,3.99,-1.98,13.33,0.06,0.05,-0.19,p
2967.0,2962.0,2896.0,4095.0,4095.0,2592.0,2775.0,2663.0,4.01,-1.86,13.22,0.04,-0.01,-0.23,p
2962.0,2961.0,2894.0,4095.0,4095.0,2592.0,2786.0,2672.0,3.85,-1.81,13.3,-0.05,0.1,-0.23,p
2963.0,2965.0,2895.0,4095.0,4095.0,2559.0,2782.0,2671.0,3.78,-1.71,13.51,-0.01,0.1,-0.14,p
2961.0,2966.0,2896.0,4095.0,4095.0,2555.0,2770.0,2643.0,3.76,-1.98,13.57,-0.04,0.06,-0.17,p
2960.0,2971.0,2898.0,4095.0,4095.0,2587.0,2785.0,2659.0,3.65,-1.98,13.6,0.25,0.05,-0.16,p
2971.0,2958.0,2896.0,4095.0,4095.0,2609.0,2791.0,2658.0,3.79,-1.67,13.12,0.03,-0.05,-0.18,p
2960.0,2962.0,2896.0,4095.0,4095.0,2671.0,2810.0,2679.0,3.9,-1.64,13.71,0.31,-0.01,-0.17,p
2960.0,2960.0,2883.0,4095.0,4095.0,2704.0,2821.0,2685.0,3.48,-1.53,12.73,-0.07,0.01,-0.13,p
2954.0,2959.0,2882.0,4095.0,4095.0,2741.0,2818.0,2683.0,3.9,-1.52,13.86,-0.08,0.02,-0.16,p
2954.0,2959.0,2896.0,4095.0,4095.0,2759.0,2827.0,2684.0,3.68,-1.76,13.29,-0.09,-0.02,-0.16,p
2958.0,2963.0,2885.0,4095.0,4095.0,2768.0,2826.0,2691.0,3.74,-1.71,13.72,0.12,0.03,-0.18,p
2955.0,2965.0,2893.0,4095.0,4067.0,2768.0,2830.0,2694.0,3.71,-1.53,13.18,0.04,0.04,-0.1,p
2960.0,2957.0,2882.0,4095.0,4095.0,2825.0,2898.0,2735.0,3.87,-1.11,13.43,0.04,0.03,-0.14,p
2956.0,2969.0,2889.0,4095.0,4095.0,2823.0,2899.0,2735.0,3.85,-1.13,13.45,-0.0,0.02,-0.15,p
2954.0,2951.0,2887.0,4095.0,4095.0,2818.0,2902.0,2734.0,3.76,-1.15,13.44,0.03,0.03,-0.14,p
2965.0,2960.0,2893.0,4095.0,4095.0,2827.0,2905.0,2738.0,3.75,-1.13,13.48,-0.02,-0.01,-0.14,p
2960.0,2957.0,2883.0,4095.0,4095.0,2815.0,2900.0,2736.0,3.85,-1.22,13.61,0.08,-0.02,-0.18,p
2958.0,2970.0,2886.0,4095.0,4095.0,2807.0,2911.0,2736.0,3.72,-1.08,13.45,0.05,-0.03,-0.15,p
2961.0,2963.0,2895.0,4095.0,4095.0,2809.0,2910.0,2736.0,3.77,-1.03,13.45,0.02,-0.01,-0.14,p
2963.0,2961.0,2885.0,4095.0,4095.0,2810.0,2913.0,2739.0,3.85,-1.21,13.54,0.03,-0.02,-0.13,p
2961.0,2964.0,2895.0,4095.0,4095.0,2803.0,2919.0,2737.0,3.95,-1.11,13.58,0.11,-0.07,-0.22,p
2960.0,2953.0,2890.0,4095.0,4095.0,2799.0,2910.0,2737.0,3.77,-1.02,13.39,0.09,-0.03,-0.17,p
2966.0,2967.0,2893.0,4095.0,4095.0,2799.0,2923.0,2749.0,3.9,-0.91,13.58,0.11,-0.06,-0.19,p
2971.0,2950.0,2886.0,4095.0,4095.0,2786.0,2922.0,2741.0,3.87,-0.91,13.36,0.06,-0.02,-0.17,p
2959.0,2953.0,2892.0,4095.0,4095.0,2789.0,2928.0,2749.0,3.99,-0.87,13.41,-0.01,-0.01,-0.17,p
2969.0,2962.0,2887.0,4095.0,4095.0,2787.0,2929.0,2743.0,3.82,-0.91,13.58,0.08,-0.04,-0.18,p
2969.0,2973.0,2886.0,4095.0,4095.0,2800.0,2934.0,2761.0,3.77,-0.94,13.52,0.01,0.0,-0.12,p
2962.0,2966.0,2887.0,4095.0,4095.0,2797.0,2931.0,2754.0,4.05,-0.92,13.57,0.09,-0.0,-0.15,p
2960.0,2957.0,2878.0,4095.0,4095.0,2785.0,2931.0,2752.0,3.94,-0.91,13.32,0.02,-0.01,-0.17,p
2975.0,2959.0,2894.0,4095.0,4095.0,2791.0,2934.0,2755.0,3.95,-0.75,13.54,0.01,0.01,-0.19,p
2966.0,2951.0,2884.0,4095.0,4095.0,2783.0,2930.0,2749.0,3.8,-0.85,13.23,-0.11,0.04,-0.13,p
2964.0,2964.0,2896.0,4095.0,4095.0,2785.0,2942.0,2753.0,3.91,-0.89,13.78,-0.06,0.05,-0.15,p
2963.0,2955.0,2890.0,4095.0,4095.0,2784.0,2945.0,2762.0,3.93,-0.88,13.5,-0.09,0.04,-0.13,p
2961.0,2960.0,2885.0,4095.0,4095.0,2786.0,2941.0,2749.0,3.95,-0.93,13.51,0.02,-0.01,-0.17,p
2960.0,2974.0,2887.0,4095.0,4095.0,2791.0,2942.0,2756.0,3.81,-0.96,13.42,-0.02,0.01,-0.14,p
2953.0,2958.0,2875.0,4095.0,4095.0,2784.0,2938.0,2755.0,4.01,-1.01,13.79,0.04,-0.02,-0.17,p
2960.0,2957.0,2881.0,4095.0,4095.0,2790.0,2928.0,2768.0,3.78,-0.98,13.34,0.11,-0.01,-0.18,p
2968.0,2960.0,2896.0,4095.0,4095.0,2787.0,2946.0,2758.0,4.07,-0.88,13.65,0.09,-0.01,-0.19,p
2955.0,2963.0,2896.0,4095.0,4095.0,2789.0,2957.0,2755.0,3.89,-0.91,13.49,0.2,-0.02,-0.23,p
2960.0,2961.0,2891.0,4095.0,4095.0,2750.0,2945.0,2752.0,3.93,-0.67,13.16,0.05,-0.01,-0.15,p
2969.0,2959.0,2891.0,4095.0,4095.0,2694.0,2934.0,2756.0,3.83,-0.67,13.38,-0.19,-0.01,-0.14,p
2964.0,2960.0,2887.0,4095.0,4095.0,2672.0,2944.0,2761.0,4.02,-0.83,13.58,-0.07,0.01,-0.12,p
2973.0,2969.0,2887.0,4095.0,4095.0,2669.0,2944.0,2753.0,3.83,-0.83,13.46,-0.08,-0.02,-0.18,p
2958.0,2957.0,2887.0,4095.0,4095.0,2666.0,2937.0,2754.0,3.92,-1.08,13.68,0.04,-0.01,-0.12,p
2961.0,2955.0,2896.0,4095.0,4095.0,2665.0,2933.0,2753.0,4.01,-0.81,13.37,-0.0,-0.0,-0.1,p
2960.0,2965.0,2896.0,4095.0,4095.0,2661.0,2954.0,2757.0,3.95,-0.96,13.52,0.1,-0.02,-0.15,p
2967.0,2958.0,2879.0,4095.0,4095.0,2666.0,2946.0,2751.0,3.91,-0.85,13.28,-0.06,0.02,-0.09,p
2971.0,2957.0,2896.0,4095.0,4095.0,2671.0,2946.0,2755.0,4.0,-0.93,13.45,-0.01,-0.03,-0.16,p
2975.0,2965.0,2899.0,4095.0,4095.0,2688.0,2941.0,2763.0,4.01,-1.01,13.44,-0.11,0.03,-0.14,p
2972.0,2967.0,2896.0,4095.0,4095.0,2710.0,2935.0,2754.0,4.3,-1.12,13.73,0.02,-0.02,-0.2,p
2969.0,2967.0,2881.0,4095.0,4095.0,2757.0,2941.0,2753.0,3.8,-0.95,13.3,0.13,-0.01,-0.22,p
2967.0,2951.0,2881.0,4095.0,4095.0,2786.0,2937.0,2758.0,3.96,-0.86,13.51,-0.02,0.03,-0.15,p
2971.0,2960.0,2891.0,4095.0,4095.0,2858.0,2985.0,2810.0,3.56,-2.43,13.36,-0.04,0.06,-0.09,p
2965.0,2957.0,2886.0,4095.0,4095.0,2872.0,2986.0,2790.0,3.75,-2.67,13.35,-0.0,0.06,-0.04,p
2965.0,2963.0,2896.0,4095.0,4095.0,2827.0,2983.0,2800.0,3.72,-2.6,13.54,0.07,-0.02,-0.14,p
2971.0,2962.0,2877.0,4095.0,4095.0,2813.0,2992.0,2803.0,3.49,-2.21,13.17,0.06,-0.03,-0.19,p
2965.0,2967.0,2892.0,4095.0,4095.0,2850.0,2988.0,2802.0,3.57,-2.04,13.16,-0.11,0.02,-0.15,p
2973.0,2957.0,2878.0,4095.0,4095.0,2896.0,2975.0,2783.0,3.56,-2.33,13.26,-0.11,0.01,-0.13,p
2979.0,2955.0,2883.0,4095.0,4095.0,2942.0,2983.0,2802.0,3.6,-2.62,13.32,-0.08,0.01,-0.12,p
2973.0,2969.0,2895.0,4095.0,4095.0,2950.0,2981.0,2803.0,3.7,-2.81,13.48,0.0,-0.01,-0.16,p
2976.0,2954.0,2885.0,4095.0,4095.0,2807.0,2987.0,2800.0,3.64,-2.6,13.49,0.15,-0.05,-0.18,p
2983.0,2954.0,2891.0,4095.0,4095.0,2719.0,2988.0,2800.0,3.67,-2.33,13.34,0.15,-0.08,-0.23,p
2967.0,2953.0,2886.0,4095.0,4095.0,2672.0,2982.0,2800.0,3.64,-1.96,12.91,0.12,0.0,-0.15,p
2951.0,2966.0,2883.0,4095.0,4095.0,2672.0,2981.0,2795.0,3.53,-2.15,13.35,-0.02,-0.04,-0.2,p
2967.0,2965.0,2882.0,4095.0,4095.0,2670.0,2981.0,2798.0,3.65,-2.25,13.16,-0.0,-0.02,-0.18,p
2963.0,2960.0,2886.0,4095.0,4095.0,2671.0,2991.0,2800.0,3.68,-2.34,13.3,-0.06,0.02,-0.18,p
2977.0,2957.0,2897.0,4095.0,4095.0,2703.0,2978.0,2800.0,3.61,-2.65,13.53,-0.11,-0.01,-0.19,p
2959.0,2951.0,2889.0,4095.0,4095.0,2725.0,2983.0,2800.0,3.68,-2.51,13.31,0.03,-0.01,-0.19,p
2966.0,2960.0,2891.0,4095.0,4095.0,2784.0,2985.0,2806.0,3.7,-2.41,13.24,-0.03,0.02,-0.16,p
2992.0,2959.0,2883.0,4095.0,4095.0,2841.0,2981.0,2805.0,3.84,-2.35,13.3,0.1,-0.02,-0.19,p
2981.0,2959.0,2887.0,4095.0,4095.0,2880.0,2987.0,2807.0,3.68,-2.19,12.84,-0.0,0.01,-0.14,p
2994.0,2952.0,2884.0,4095.0,4095.0,2893.0,2981.0,2803.0,3.78,-2.27,13.31,-0.06,0.02,-0.16,p
2967.0,2954.0,2873.0,4095.0,4095.0,2732.0,3001.0,2832.0,3.89,-2.94,13.53,0.2,-0.2,-0.21,p
2965.0,2958.0,2892.0,4095.0,4095.0,2725.0,2994.0,2817.0,3.88,-2.22,13.04,0.42,-0.22,-0.18,p
2960.0,2951.0,2881.0,4095.0,4095.0,2703.0,3003.0,2823.0,3.85,-1.91,12.9,0.3,-0.12,-0.02,p
2962.0,2960.0,2888.0,4095.0,4095.0,2702.0,3004.0,2827.0,4.24,-2.03,13.01,0.2,-0.15,0.0,p
2959.0,2947.0,2877.0,4095.0,4095.0,2692.0,2998.0,2822.0,4.46,-2.5,13.13,0.13,-0.18,-0.14,p
2965.0,2951.0,2880.0,4095.0,4095.0,2697.0,2999.0,2823.0,4.31,-2.2,13.29,0.19,-0.17,-0.26,p
2967.0,2957.0,2889.0,4095.0,4095.0,2699.0,3007.0,2830.0,4.13,-1.58,12.68,0.21,-0.15,-0.21,p
2964.0,2958.0,2882.0,4095.0,4095.0,2695.0,3004.0,2831.0,4.38,-1.44,12.67,0.01,-0.08,-0.12,p
2967.0,2947.0,2880.0,4095.0,4095.0,2698.0,3005.0,2829.0,4.5,-1.74,12.93,0.0,-0.01,-0.06,p
2969.0,2949.0,2881.0,4095.0,4095.0,2693.0,3003.0,2823.0,4.51,-2.15,13.2,-0.02,-0.01,-0.08,p
2968.0,2951.0,2875.0,4095.0,4095.0,2709.0,2999.0,2829.0,4.2,-2.07,13.22,0.02,-0.09,-0.13,p
2970.0,2959.0,2880.0,4095.0,4095.0,2716.0,3003.0,2831.0,4.28,-1.86,12.96,-0.08,-0.07,-0.13,p
2965.0,2956.0,2885.0,4095.0,4095.0,2727.0,3009.0,2837.0,4.51,-1.82,13.07,-0.06,0.02,-0.06,p
2961.0,2949.0,2886.0,4095.0,4095.0,2723.0,3004.0,2832.0,4.6,-1.94,12.87,0.05,0.03,-0.13,p
2961.0,2959.0,2880.0,4095.0,4095.0,2725.0,3002.0,2833.0,4.5,-2.01,12.87,-0.03,0.07,-0.13,p
2960.0,2957.0,2893.0,4095.0,4095.0,2733.0,3014.0,2835.0,4.32,-2.0,12.83,-0.09,0.08,-0.15,p
2962.0,2972.0,2880.0,4095.0,4095.0,2736.0,3009.0,2831.0,4.17,-2.22,12.87,-0.29,0.07,-0.09,p
2967.0,2955.0,2887.0,4095.0,4095.0,2734.0,3003.0,2838.0,4.21,-2.62,13.32,-0.39,0.09,-0.07,p
2966.0,2951.0,2885.0,4095.0,4095.0,2732.0,3010.0,2843.0,4.06,-3.09,13.47,-0.18,0.05,-0.15,p
2962.0,2943.0,2878.0,4095.0,4095.0,2704.0,2999.0,2833.0,3.97,-2.7,13.22,0.06,0.06,-0.11,p
3022.0,2960.0,2886.0,4095.0,4095.0,2979.0,3009.0,2851.0,3.96,-2.55,13.12,0.08,0.02,-0.14,p
3002.0,2960.0,2881.0,4095.0,4095.0,2965.0,3008.0,2843.0,4.09,-2.42,13.12,0.19,-0.01,-0.14,p
3006.0,2967.0,2882.0,4095.0,4095.0,2969.0,3013.0,2850.0,4.07,-2.5,12.8,0.04,-0.02,-0.15,p
3012.0,2958.0,2880.0,4095.0,4095.0,2976.0,3007.0,2847.0,4.24,-2.56,13.1,-0.05,0.01,-0.15,p
3003.0,2956.0,2881.0,4095.0,4095.0,2961.0,3008.0,2841.0,4.09,-2.59,13.02,0.01,-0.01,-0.17,p
2987.0,2958.0,2885.0,4095.0,4095.0,2957.0,3011.0,2838.0,4.15,-2.47,13.0,0.01,-0.0,-0.12,p
2997.0,2951.0,2877.0,4095.0,4095.0,2951.0,3007.0,2839.0,4.29,-2.76,13.01,-0.04,-0.02,-0.13,p
3015.0,2952.0,2881.0,4095.0,4095.0,2955.0,3011.0,2843.0,4.3,-2.83,13.27,0.06,-0.03,-0.24,p
3001.0,2950.0,2896.0,4095.0,4095.0,2922.0,3011.0,2842.0,4.13,-2.49,12.9,0.07,0.01,-0.23,p
2999.0,2950.0,2893.0,4095.0,4095.0,2911.0,3015.0,2842.0,4.06,-2.38,13.12,0.03,-0.04,-0.2,p
2996.0,2964.0,2882.0,4095.0,4095.0,2906.0,3015.0,2844.0,4.15,-2.49,12.91,0.02,0.01,-0.12,p
2986.0,2957.0,2882.0,4095.0,4095.0,2902.0,3023.0,2837.0,4.17,-2.9,13.33,0.03,-0.0,-0.12,p
2987.0,2948.0,2876.0,4095.0,4095.0,2890.0,3019.0,2838.0,3.91,-2.01,12.9,0.07,-0.06,-0.18,p
2982.0,2951.0,2881.0,4095.0,4095.0,2883.0,3015.0,2843.0,4.15,-1.96,12.63,-0.03,0.01,-0.03,p
2995.0,2960.0,2879.0,4095.0,4095.0,2889.0,3021.0,2850.0,4.23,-3.31,13.29,-0.14,-0.04,-0.12,p
2995.0,2962.0,2872.0,4095.0,4095.0,2890.0,3024.0,2849.0,4.55,-2.98,13.3,0.05,0.01,-0.07,p
2992.0,2963.0,2880.0,4095.0,4095.0,2893.0,3024.0,2846.0,4.36,-1.55,12.5,0.12,0.03,-0.21,p
2992.0,2960.0,2877.0,4095.0,4095.0,2885.0,3024.0,2849.0,4.21,-2.18,12.69,-0.21,0.04,-0.17,p
2991.0,2960.0,2886.0,4095.0,4095.0,2883.0,3027.0,2849.0,4.15,-3.26,13.52,-0.14,0.03,-0.19,p
2988.0,2951.0,2879.0,4095.0,4095.0,2880.0,3022.0,2848.0,4.06,-3.39,13.33,0.13,0.01,-0.17,p
2971.0,2954.0,2874.0,4095.0,4095.0,2832.0,3037.0,2863.0,4.24,-3.32,12.76,-0.06,-0.02,0.05,p
2971.0,2954.0,2874.0,4095.0,4095.0,2832.0,3037.0,2863.0,4.24,-3.32,12.76,-0.06,-0.02,0.05,p
2973.0,2966.0,2886.0,4095.0,4095.0,2832.0,3041.0,2864.0,4.34,-3.4,13.03,-0.16,0.01,-0.05,p
2975.0,2947.0,2875.0,4095.0,4095.0,2831.0,3031.0,2863.0,4.15,-3.4,13.4,0.04,-0.11,-0.33,p
2990.0,2954.0,2883.0,4095.0,4095.0,2837.0,3039.0,2864.0,3.77,-2.81,12.31,0.19,-0.04,-0.27,p
2967.0,2955.0,2879.0,4095.0,4095.0,2834.0,3038.0,2862.0,3.78,-2.7,12.45,-0.15,0.01,-0.07,p
2985.0,2960.0,2889.0,4095.0,4095.0,2838.0,3043.0,2868.0,4.13,-3.15,13.04,-0.1,0.04,0.03,p
2973.0,2958.0,2878.0,4095.0,4095.0,2837.0,3034.0,2863.0,4.07,-3.5,13.02,0.01,0.03,-0.03,p
2981.0,2960.0,2877.0,4095.0,4095.0,2833.0,3041.0,2865.0,3.95,-3.56,12.97,-0.06,0.02,-0.06,p
2977.0,2955.0,2883.0,4095.0,4095.0,2832.0,3035.0,2863.0,4.11,-3.33,13.2,0.01,-0.05,-0.25,p
2965.0,2945.0,2886.0,4095.0,4095.0,2830.0,3031.0,2862.0,3.99,-3.16,12.68,0.14,0.03,-0.21,p
2987.0,2951.0,2883.0,4095.0,4095.0,2831.0,3041.0,2867.0,3.96,-3.21,12.63,-0.02,0.07,-0.21,p
2983.0,2955.0,2886.0,4095.0,4095.0,2821.0,3033.0,2862.0,3.97,-3.47,12.98,-0.09,0.05,-0.18,p
2984.0,2960.0,2883.0,4095.0,4095.0,2802.0,3025.0,2862.0,3.98,-3.06,13.01,0.04,0.04,-0.22,p
2969.0,2955.0,2877.0,4095.0,4095.0,2797.0,3026.0,2859.0,3.64,-3.2,12.9,0.01,-0.01,-0.21,p
2971.0,2949.0,2886.0,4095.0,4095.0,2800.0,3025.0,2859.0,3.74,-2.92,13.17,0.06,-0.01,-0.13,p
2963.0,2955.0,2874.0,4095.0,4095.0,2799.0,3027.0,2863.0,3.86,-3.18,12.75,0.12,-0.03,-0.14,p
2962.0,2960.0,2891.0,4095.0,4095.0,2806.0,3024.0,2864.0,3.96,-3.35,12.85,-0.05,-0.05,-0.13,p
2975.0,2951.0,2880.0,4095.0,4095.0,2809.0,3029.0,2863.0,4.08,-3.29,12.97,0.05,-0.01,-0.14,p
2981.0,2961.0,2879.0,4095.0,4095.0,2804.0,3027.0,2861.0,3.9,-3.12,12.72,0.05,0.0,-0.14,p
2977.0,3047.0,2896.0,4095.0,4095.0,3525.0,2917.0,2512.0,2.38,5.36,12.65,-0.02,0.03,-0.15,p
2983.0,3050.0,2901.0,4095.0,4095.0,3536.0,2926.0,2511.0,2.54,5.23,12.51,0.01,0.04,-0.15,p
2969.0,3045.0,2880.0,4095.0,4095.0,3533.0,2922.0,2510.0,2.56,5.08,12.37,0.06,0.05,-0.17,p
2981.0,3041.0,2903.0,4095.0,4095.0,3549.0,2923.0,2512.0,2.65,5.09,12.42,0.07,0.01,-0.19,p
3002.0,3024.0,2902.0,4095.0,4095.0,3542.0,2925.0,2513.0,2.52,5.3,12.34,0.05,0.02,-0.16,p
2974.0,3028.0,2889.0,4095.0,4095.0,3555.0,2925.0,2511.0,2.46,5.3,12.3,0.0,-0.03,-0.18,p
2979.0,3043.0,2899.0,4095.0,4095.0,3498.0,2922.0,2514.0,2.3,5.33,12.4,-0.07,-0.04,-0.14,p
2981.0,3031.0,2893.0,4095.0,4095.0,3275.0,2912.0,2512.0,2.65,5.12,12.5,-0.14,-0.06,-0.1,p
2974.0,3053.0,2896.0,4095.0,4095.0,3191.0,2916.0,2512.0,2.4,5.2,12.41,0.0,-0.05,-0.15,p
2965.0,3043.0,2900.0,4095.0,4095.0,3116.0,2906.0,2512.0,2.59,5.12,12.52,-0.07,-0.02,-0.14,p
2971.0,3056.0,2899.0,4095.0,4095.0,3107.0,2921.0,2514.0,2.47,5.15,12.4,0.06,-0.03,-0.17,p
2988.0,3056.0,2890.0,4095.0,4095.0,3046.0,2921.0,2513.0,2.71,5.11,12.56,-0.13,-0.06,-0.16,p
2990.0,3055.0,2895.0,4095.0,4095.0,3027.0,2919.0,2512.0,2.67,5.07,12.44,0.11,-0.03,-0.19,p
2974.0,3056.0,2889.0,4095.0,4095.0,3007.0,2915.0,2512.0,2.51,5.15,12.47,0.03,-0.06,-0.17,p
2983.0,3062.0,2889.0,4095.0,4095.0,3008.0,2919.0,2515.0,2.62,5.25,12.44,0.05,-0.02,-0.14,p
2977.0,3061.0,2895.0,4095.0,4095.0,2992.0,2928.0,2515.0,2.5,5.19,12.33,-0.03,-0.04,-0.14,p
2977.0,3046.0,2893.0,4095.0,4095.0,2956.0,2918.0,2512.0,2.57,5.08,12.53,0.03,-0.0,-0.16,p
2976.0,3056.0,2896.0,4095.0,4095.0,2927.0,2921.0,2512.0,2.55,5.24,12.48,-0.01,-0.04,-0.13,p
2969.0,3053.0,2895.0,4095.0,4095.0,2870.0,2925.0,2513.0,2.64,5.12,12.54,-0.0,-0.05,-0.15,p
2966.0,3045.0,2896.0,4095.0,4095.0,2845.0,2917.0,2512.0,2.51,5.11,12.46,0.04,-0.01,-0.14,p
2989.0,3023.0,2894.0,4095.0,4095.0,3343.0,2929.0,2529.0,2.46,5.3,12.47,0.04,0.0,-0.13,p
2989.0,3024.0,2896.0,4095.0,4095.0,3234.0,2927.0,2525.0,2.56,5.33,12.26,-0.0,-0.01,-0.14,p
2986.0,3021.0,2891.0,4095.0,4095.0,3190.0,2928.0,2526.0,2.56,5.38,12.17,-0.03,-0.01,-0.14,p
2986.0,3041.0,2895.0,4095.0,4095.0,3111.0,2927.0,2523.0,2.49,5.31,12.37,-0.06,-0.03,-0.15,p
2988.0,3026.0,2903.0,4095.0,4095.0,3056.0,2928.0,2523.0,2.51,5.22,12.37,-0.1,-0.06,-0.11,p
2981.0,3025.0,2895.0,4095.0,4095.0,3017.0,2928.0,2528.0,2.68,5.25,12.54,-0.01,-0.02,-0.15,p
2971.0,3037.0,2896.0,4095.0,4095.0,2978.0,2927.0,2522.0,2.6,5.18,12.45,0.01,-0.02,-0.15,p
2982.0,3024.0,2909.0,4095.0,4095.0,2942.0,2931.0,2523.0,2.59,5.18,12.58,0.04,-0.03,-0.2,p
2974.0,3031.0,2897.0,4095.0,4095.0,2917.0,2928.0,2523.0,2.49,5.27,12.34,0.03,0.0,-0.16,p
2971.0,3024.0,2889.0,4095.0,4095.0,2870.0,2928.0,2531.0,2.6,5.2,12.36,0.03,-0.01,-0.15,p
2984.0,3033.0,2895.0,4095.0,4095.0,2835.0,2925.0,2522.0,2.64,5.19,12.34,-0.01,-0.03,-0.15,p
2990.0,3019.0,2887.0,4095.0,4095.0,2779.0,2926.0,2519.0,2.34,5.13,12.43,-0.06,-0.02,-0.16,p
2972.0,3035.0,2900.0,4095.0,4095.0,2800.0,2927.0,2523.0,2.44,5.15,12.73,0.03,-0.0,-0.17,p
2971.0,3017.0,2898.0,4095.0,4095.0,2815.0,2928.0,2523.0,2.59,5.21,12.45,0.04,0.01,-0.14,p
2975.0,3025.0,2899.0,4095.0,4095.0,2858.0,2925.0,2522.0,2.49,5.13,12.43,0.12,0.05,-0.19,p
2983.0,3030.0,2896.0,4095.0,4095.0,2983.0,2930.0,2527.0,2.51,5.33,12.41,-0.01,0.03,-0.13,p
2974.0,3030.0,2885.0,4095.0,4095.0,3070.0,2925.0,2525.0,2.56,5.19,12.4,0.02,-0.0,-0.16,p
2982.0,3025.0,2887.0,4095.0,4095.0,3207.0,2926.0,2525.0,2.37,5.27,12.41,0.01,0.08,-0.13,p
2987.0,3024.0,2897.0,4095.0,4095.0,3267.0,2913.0,2522.0,2.45,5.26,12.38,-0.12,0.08,-0.06,p
2992.0,3013.0,2903.0,4095.0,4095.0,3261.0,2913.0,2526.0,2.51,4.94,12.34,-0.39,0.01,-0.11,p
2967.0,3015.0,2895.0,4095.0,4095.0,3071.0,2922.0,2533.0,2.59,4.87,12.65,-0.09,0.01,-0.09,p
2987.0,3019.0,2896.0,4095.0,4095.0,3088.0,2928.0,2535.0,2.53,4.75,12.7,-0.05,-0.02,-0.14,p
2979.0,3012.0,2886.0,4095.0,4095.0,3098.0,2929.0,2542.0,2.52,4.81,12.91,-0.04,-0.03,-0.13,p
2974.0,3013.0,2896.0,4095.0,4095.0,3105.0,2916.0,2538.0,2.47,4.86,12.72,-0.06,0.02,-0.12,p
2985.0,3023.0,2898.0,4095.0,4095.0,3113.0,2928.0,2535.0,2.5,4.75,12.84,-0.01,-0.02,-0.14,p
2989.0,3024.0,2896.0,4095.0,4095.0,3120.0,2928.0,2544.0,2.61,4.66,12.75,-0.02,-0.0,-0.12,p
2989.0,3021.0,2896.0,4095.0,3973.0,3137.0,2927.0,2543.0,2.52,4.74,12.6,0.03,-0.02,-0.17,p
2992.0,3023.0,2899.0,4095.0,3834.0,3141.0,2926.0,2544.0,2.57,4.66,12.68,-0.02,0.0,-0.12,p
2989.0,3031.0,2896.0,4095.0,3744.0,3149.0,2928.0,2542.0,2.57,4.67,12.78,0.02,-0.03,-0.16,p
2998.0,3027.0,2897.0,4095.0,3773.0,3152.0,2927.0,2543.0,2.53,4.63,12.92,-0.01,0.03,-0.12,p
2990.0,3023.0,2896.0,4095.0,3780.0,3152.0,2927.0,2541.0,2.62,4.7,12.79,0.06,-0.02,-0.18,p
2993.0,3018.0,2899.0,4095.0,3943.0,3155.0,2931.0,2544.0,2.54,4.71,12.79,0.1,0.06,-0.15,p
2982.0,3017.0,2896.0,4095.0,4095.0,3153.0,2924.0,2541.0,2.48,4.74,12.67,0.05,0.02,-0.15,p
2992.0,3015.0,2898.0,4095.0,4095.0,3187.0,2929.0,2543.0,2.76,4.73,12.74,0.13,0.0,-0.18,p
3007.0,3019.0,2897.0,4095.0,4095.0,3232.0,2927.0,2539.0,2.42,4.89,12.64,0.24,0.02,-0.26,p
3001.0,3008.0,2899.0,4095.0,4095.0,3287.0,2929.0,2537.0,2.37,4.79,12.42,0.14,0.0,-0.23,p
3002.0,3014.0,2896.0,4095.0,4095.0,3392.0,2939.0,2542.0,2.33,5.18,12.52,0.1,0.05,-0.17,p
3007.0,3008.0,2898.0,4095.0,4095.0,3519.0,2946.0,2545.0,2.46,4.98,12.48,-0.06,-0.02,-0.11,p
3024.0,3010.0,2897.0,4095.0,4095.0,3733.0,2956.0,2551.0,2.41,4.97,12.63,-0.04,-0.04,-0.14,p
3020.0,3010.0,2887.0,4095.0,4095.0,3877.0,2942.0,2550.0,2.52,4.82,12.58,-0.16,-0.11,-0.13,p
2974.0,3002.0,2883.0,4095.0,4095.0,3536.0,2889.0,2533.0,2.57,4.83,12.74,0.05,-0.03,-0.12,p
2978.0,3028.0,2894.0,4095.0,4095.0,3419.0,2880.0,2539.0,2.63,4.66,12.71,-0.06,-0.05,-0.11,p
2970.0,3031.0,2891.0,4095.0,4095.0,3389.0,2865.0,2527.0,2.64,4.64,12.84,0.11,0.04,-0.27,p
2971.0,3023.0,2891.0,4095.0,4095.0,3437.0,2879.0,2532.0,2.6,4.8,12.77,0.09,0.01,-0.24,p
2960.0,3023.0,2883.0,4095.0,4095.0,3505.0,2887.0,2538.0,2.49,5.0,12.48,0.09,0.02,-0.19,p
2970.0,3018.0,2896.0,4095.0,4095.0,3520.0,2891.0,2533.0,2.54,4.92,12.56,-0.07,-0.02,-0.13,p
2971.0,3012.0,2899.0,4095.0,4095.0,3500.0,2887.0,2539.0,2.53,4.6,12.7,-0.09,0.0,-0.1,p
2976.0,3015.0,2895.0,4095.0,4095.0,3408.0,2894.0,2535.0,2.62,4.59,12.84,0.05,-0.01,-0.21,p
2975.0,3034.0,2893.0,4095.0,4095.0,3344.0,2895.0,2534.0,2.51,4.82,12.61,-0.06,-0.06,-0.13,p
2973.0,3025.0,2884.0,4095.0,4095.0,3328.0,2889.0,2529.0,2.59,4.71,12.72,0.09,-0.01,-0.2,p
2973.0,3012.0,2895.0,4095.0,4095.0,3370.0,2896.0,2533.0,2.4,4.87,12.69,-0.0,-0.01,-0.15,p
2980.0,3003.0,2896.0,4095.0,4095.0,3379.0,2892.0,2532.0,2.46,4.81,12.58,-0.08,-0.02,-0.15,p
2965.0,3003.0,2880.0,4095.0,4095.0,3399.0,2890.0,2527.0,2.57,4.67,12.76,-0.06,-0.02,-0.15,p
2973.0,3003.0,2893.0,4095.0,4095.0,3406.0,2885.0,2530.0,2.52,4.74,12.75,-0.04,-0.01,-0.16,p
2974.0,3006.0,2898.0,4095.0,4095.0,3405.0,2889.0,2530.0,2.5,4.74,12.71,-0.08,-0.03,-0.13,p
2973.0,3006.0,2878.0,4095.0,4095.0,3405.0,2879.0,2526.0,2.55,4.62,12.89,0.03,0.02,-0.14,p
2976.0,3007.0,2897.0,4095.0,4095.0,3408.0,2895.0,2527.0,2.54,4.58,12.91,0.09,0.04,-0.16,p
2963.0,3013.0,2896.0,4095.0,4095.0,3402.0,2889.0,2528.0,2.52,4.8,12.59,0.05,0.0,-0.13,p
2977.0,3011.0,2884.0,4095.0,4095.0,3419.0,2886.0,2527.0,2.44,4.84,12.57,0.04,0.02,-0.13,p
2975.0,2997.0,2896.0,4095.0,4095.0,3431.0,2881.0,2531.0,2.48,4.73,12.67,-0.17,-0.01,-0.08,p
2773.0,2989.0,2896.0,4095.0,4095.0,3968.0,2926.0,2533.0,1.81,2.95,13.86,-0.13,0.11,-0.13,p
2293.0,2992.0,2898.0,4095.0,4095.0,3971.0,2931.0,2535.0,2.04,3.03,13.77,0.07,0.07,-0.1,p
2313.0,2975.0,2893.0,4095.0,4095.0,3979.0,2930.0,2545.0,1.8,3.35,13.5,0.08,0.09,-0.12,p
2329.0,2970.0,2901.0,4095.0,4095.0,3984.0,2930.0,2544.0,1.96,3.54,13.38,0.08,0.05,-0.13,p
2331.0,2977.0,2899.0,4095.0,4095.0,3986.0,2933.0,2543.0,1.88,3.94,13.28,0.02,0.13,-0.06,p
2585.0,2981.0,2895.0,4095.0,4095.0,3968.0,2932.0,2544.0,1.67,3.61,13.42,0.1,0.07,-0.12,p
2771.0,2965.0,2896.0,4095.0,4095.0,3984.0,2937.0,2542.0,1.66,3.57,13.31,-0.02,0.04,-0.05,p
2825.0,2977.0,2887.0,4095.0,4095.0,3984.0,2944.0,2541.0,1.74,3.38,13.33,0.12,0.04,-0.07,p
2823.0,2979.0,2897.0,4095.0,4095.0,3978.0,2939.0,2545.0,1.72,3.43,13.52,0.04,0.01,-0.07,p
2800.0,2971.0,2894.0,4095.0,4095.0,3984.0,2933.0,2545.0,1.89,3.59,13.49,0.12,0.02,-0.11,p
2741.0,2976.0,2880.0,4095.0,4095.0,3971.0,2935.0,2544.0,1.73,3.78,13.33,0.1,0.04,-0.08,p
2714.0,2979.0,2884.0,4095.0,4095.0,3983.0,2928.0,2544.0,1.73,3.79,13.31,0.07,-0.01,-0.09,p
2521.0,2974.0,2891.0,4095.0,4095.0,3972.0,2935.0,2545.0,1.81,3.84,13.35,0.04,0.03,-0.09,p
2581.0,2986.0,2896.0,4095.0,4095.0,3984.0,2940.0,2555.0,2.12,3.75,13.21,-0.02,0.01,-0.11,p
2679.0,2991.0,2902.0,4095.0,4095.0,3974.0,2944.0,2551.0,2.07,3.7,13.39,-0.01,-0.0,-0.21,p
2754.0,2981.0,2899.0,4095.0,4095.0,3971.0,2943.0,2549.0,1.9,3.68,13.55,0.04,0.02,-0.24,p
2759.0,2980.0,2887.0,4095.0,4095.0,3947.0,2934.0,2548.0,1.47,3.59,13.54,0.04,-0.06,-0.28,p
2751.0,2979.0,2894.0,4095.0,4095.0,3951.0,2935.0,2547.0,1.44,3.59,13.55,0.07,0.01,-0.17,p
2793.0,2975.0,2891.0,4095.0,4095.0,3950.0,2939.0,2546.0,1.48,3.7,13.38,0.04,-0.11,-0.21,p
3055.0,2983.0,2906.0,4095.0,4095.0,3924.0,2943.0,2553.0,1.74,3.65,13.38,0.05,-0.09,-0.23,p
3087.0,3036.0,2896.0,4095.0,4095.0,3648.0,2928.0,2558.0,1.8,3.96,13.21,0.06,-0.01,-0.16,p
3069.0,3050.0,2896.0,4095.0,4095.0,3653.0,2929.0,2554.0,1.87,3.92,13.27,-0.01,-0.03,-0.15,p
3069.0,3031.0,2886.0,4095.0,4095.0,3648.0,2922.0,2554.0,1.84,3.82,13.24,0.01,-0.0,-0.17,p
3056.0,3040.0,2887.0,4095.0,4095.0,3663.0,2928.0,2559.0,1.74,3.88,13.21,0.01,0.01,-0.13,p
3066.0,3054.0,2902.0,4095.0,4095.0,3641.0,2928.0,2555.0,1.85,3.94,13.4,-0.01,0.02,-0.11,p
3059.0,3040.0,2896.0,4095.0,4095.0,3635.0,2928.0,2558.0,1.78,3.87,13.37,0.08,0.02,-0.16,p
3047.0,3040.0,2889.0,4095.0,4095.0,3639.0,2930.0,2559.0,1.88,3.96,13.29,0.01,0.0,-0.15,p
3043.0,3042.0,2901.0,4095.0,4095.0,3641.0,2929.0,2558.0,1.77,3.93,13.23,0.03,0.02,-0.17,p
3055.0,3038.0,2896.0,4095.0,4095.0,3645.0,2928.0,2554.0,1.8,3.85,13.3,0.03,-0.0,-0.18,p
3042.0,3024.0,2887.0,4095.0,4095.0,3617.0,2928.0,2553.0,1.74,3.91,13.25,0.06,0.02,-0.13,p
3047.0,3037.0,2895.0,4095.0,4095.0,3629.0,2928.0,2559.0,1.82,4.02,13.24,0.07,-0.01,-0.18,p
3035.0,3040.0,2900.0,4095.0,4095.0,3639.0,2932.0,2559.0,1.7,3.99,13.19,-0.04,-0.01,-0.13,p
3050.0,3030.0,2887.0,4095.0,4095.0,3634.0,2933.0,2558.0,1.71,3.99,13.33,-0.03,-0.01,-0.15,p
3043.0,3038.0,2895.0,4095.0,4095.0,3641.0,2928.0,2559.0,1.63,3.85,13.39,-0.07,0.0,-0.09,p
3057.0,3039.0,2905.0,4095.0,4095.0,3637.0,2929.0,2559.0,1.78,3.83,13.43,-0.05,0.01,-0.1,p
3061.0,3034.0,2895.0,4095.0,4095.0,3629.0,2931.0,2554.0,1.81,3.85,13.13,-0.01,0.01,-0.09,p
3066.0,3022.0,2903.0,4095.0,4095.0,3606.0,2930.0,2559.0,1.96,3.86,13.37,-0.01,-0.02,-0.16,p
3071.0,3044.0,2895.0,4095.0,4095.0,3623.0,2930.0,2558.0,1.76,3.87,13.25,-0.07,-0.01,-0.15,p
3115.0,3034.0,2902.0,4095.0,4095.0,3620.0,2939.0,2554.0,1.78,3.77,13.45,-0.02,-0.06,-0.18,p
3103.0,3043.0,2882.0,4095.0,4095.0,3613.0,2933.0,2559.0,1.74,3.78,13.45,-0.02,0.04,-0.14,p
3800.0,2992.0,2897.0,4095.0,4095.0,3605.0,2951.0,2559.0,1.6,3.96,13.27,0.04,-0.0,-0.13,p
3812.0,2981.0,2886.0,4095.0,4095.0,3599.0,2946.0,2553.0,1.69,3.95,13.3,0.01,-0.01,-0.16,p
3787.0,2986.0,2898.0,4095.0,4095.0,3607.0,2944.0,2550.0,1.65,3.82,13.3,-0.01,0.03,-0.14,p
3804.0,2992.0,2896.0,4095.0,4095.0,3615.0,2953.0,2558.0,1.75,3.8,13.41,-0.04,-0.03,-0.16,p
3812.0,2987.0,2898.0,4095.0,4095.0,3600.0,2945.0,2555.0,1.53,3.89,13.3,0.0,0.04,-0.12,p
3915.0,2987.0,2890.0,4095.0,4095.0,3615.0,2956.0,2558.0,1.9,3.79,13.45,-0.09,0.02,-0.07,p
3739.0,2987.0,2899.0,4095.0,4095.0,3646.0,2955.0,2559.0,1.75,3.84,13.35,-0.0,-0.03,-0.16,p
3714.0,2978.0,2889.0,4095.0,4095.0,3631.0,2942.0,2556.0,1.73,3.74,13.54,0.0,-0.07,-0.18,p
3875.0,2991.0,2901.0,4095.0,4095.0,3633.0,2957.0,2555.0,1.61,3.79,13.48,0.09,-0.02,-0.18,p
3834.0,2987.0,2900.0,4095.0,4095.0,3583.0,2953.0,2551.0,1.65,3.85,13.22,-0.02,-0.05,-0.09,p
3446.0,2990.0,2895.0,4095.0,4095.0,3514.0,2960.0,2559.0,1.85,3.75,13.31,0.04,-0.05,-0.17,p
3409.0,2998.0,2894.0,4095.0,4095.0,3504.0,2948.0,2559.0,1.68,3.73,13.37,0.01,0.01,-0.13,p
3344.0,2994.0,2895.0,4095.0,4095.0,3466.0,2957.0,2557.0,1.74,3.81,13.34,0.01,0.0,-0.12,p
3303.0,2992.0,2893.0,4095.0,4095.0,3439.0,2959.0,2559.0,1.83,3.84,13.27,0.01,-0.0,-0.14,p
3309.0,2995.0,2897.0,4095.0,4095.0,3441.0,2955.0,2559.0,1.69,3.79,13.34,-0.01,-0.01,-0.19,p
3313.0,2999.0,2893.0,4095.0,4095.0,3472.0,2960.0,2559.0,1.62,3.76,13.53,-0.01,-0.03,-0.16,p
3314.0,2997.0,2897.0,4095.0,4095.0,3511.0,2960.0,2559.0,1.63,3.7,13.57,0.04,-0.03,-0.14,p
3295.0,3008.0,2893.0,4095.0,4095.0,3562.0,2958.0,2551.0,1.91,3.74,13.36,-0.0,-0.02,-0.13,p
3285.0,3006.0,2906.0,4095.0,4095.0,3620.0,2959.0,2558.0,1.79,3.71,13.34,-0.01,-0.04,-0.13,p
3273.0,3003.0,2895.0,4095.0,4095.0,3654.0,2962.0,2559.0,1.88,3.65,13.42,0.08,0.02,-0.17,p
3350.0,2995.0,2896.0,4095.0,4095.0,3583.0,2965.0,2551.0,-0.57,3.56,12.91,0.32,-0.12,0.89,p
3331.0,2986.0,2893.0,4095.0,4095.0,3576.0,2960.0,2557.0,-0.92,3.23,14.17,0.16,0.39,0.14,p
3347.0,2992.0,2896.0,4095.0,4095.0,3568.0,2961.0,2556.0,-1.08,3.15,13.88,0.37,0.0,0.13,p
3341.0,2992.0,2901.0,4095.0,4095.0,3550.0,2961.0,2551.0,-1.06,3.59,13.52,-0.03,-0.44,0.25,p
3349.0,2983.0,2889.0,4095.0,4095.0,3552.0,2956.0,2551.0,-0.47,3.55,13.89,-0.05,-0.26,0.21,p
3378.0,2974.0,2896.0,4095.0,4095.0,3552.0,2959.0,2554.0,0.03,3.64,13.43,-0.13,-0.22,0.21,p
3381.0,2973.0,2896.0,4095.0,4095.0,3567.0,2965.0,2559.0,0.46,3.35,13.58,-0.11,-0.32,-0.11,p
3385.0,2987.0,2899.0,4095.0,4095.0,3569.0,2967.0,2559.0,0.4,3.06,13.7,-0.12,-0.34,-0.26,p
3403.0,2982.0,2887.0,4095.0,4095.0,3559.0,2971.0,2557.0,0.5,2.94,13.81,-0.04,-0.28,-0.21,p
3406.0,2992.0,2890.0,4095.0,4095.0,3561.0,2963.0,2559.0,0.35,3.47,13.5,0.03,-0.09,-0.05,p
3421.0,2990.0,2903.0,4095.0,4095.0,3580.0,2961.0,2559.0,0.79,3.45,13.47,-0.06,0.12,-0.05,p
3436.0,2993.0,2896.0,4095.0,4095.0,3581.0,2973.0,2559.0,0.61,3.44,13.46,0.01,-0.16,-0.34,p
3440.0,2983.0,2894.0,4095.0,4095.0,3568.0,2963.0,2559.0,0.79,3.2,13.67,-0.15,-0.19,-0.32,p
3433.0,2981.0,2895.0,4095.0,4095.0,3575.0,2960.0,2558.0,0.28,3.01,14.22,0.03,-0.19,-0.45,p
3412.0,2994.0,2899.0,4095.0,4095.0,3578.0,2968.0,2559.0,0.48,3.12,13.68,0.22,0.08,-0.17,p
3417.0,2976.0,2896.0,4095.0,4095.0,3575.0,2960.0,2559.0,0.5,3.46,13.61,0.08,0.0,-0.1,p
3406.0,2979.0,2895.0,4095.0,4095.0,3598.0,2970.0,2559.0,0.44,3.48,13.44,-0.04,0.12,0.02,p
3387.0,2992.0,2899.0,4095.0,4095.0,3568.0,2962.0,2559.0,0.24,3.12,14.16,-0.04,-0.11,-0.33,p
3326.0,2991.0,2896.0,4095.0,4095.0,3554.0,2960.0,2559.0,0.45,3.33,13.39,0.08,0.08,-0.19,p
3301.0,2995.0,2895.0,4095.0,4095.0,3551.0,2963.0,2559.0,0.64,3.22,13.71,-0.13,-0.1,-0.31,p
3186.0,3030.0,2900.0,4095.0,4095.0,3639.0,2967.0,2581.0,0.11,2.91,13.86,-0.01,-0.0,-0.13,p
3186.0,3030.0,2900.0,4095.0,4095.0,3639.0,2967.0,2581.0,0.11,2.91,13.86,-0.01,-0.0,-0.13,p
3190.0,3019.0,2901.0,4095.0,4095.0,3648.0,2969.0,2559.0,0.17,2.83,13.81,-0.01,-0.03,-0.15,p
3184.0,3024.0,2897.0,4095.0,4095.0,3650.0,2969.0,2559.0,0.14,2.72,13.82,-0.02,-0.02,-0.14,p
3186.0,3022.0,2901.0,4095.0,4095.0,3642.0,2964.0,2559.0,0.11,2.75,13.92,0.01,0.0,-0.18,p
3195.0,3006.0,2898.0,4095.0,4095.0,3645.0,2957.0,2559.0,0.18,2.84,13.8,0.08,-0.0,-0.17,p
3195.0,3014.0,2896.0,4095.0,4095.0,3649.0,2975.0,2559.0,-0.02,2.96,13.79,0.0,0.0,-0.15,p
3194.0,3022.0,2897.0,4095.0,4095.0,3660.0,2972.0,2559.0,0.21,2.73,13.91,0.01,-0.02,-0.16,p
3199.0,3018.0,2893.0,4095.0,4095.0,3648.0,2967.0,2559.0,0.12,2.81,13.92,-0.0,-0.0,-0.18,p
3191.0,3008.0,2910.0,4095.0,4095.0,3662.0,2969.0,2559.0,0.14,2.78,13.75,0.06,-0.04,-0.18,p
3215.0,3018.0,2901.0,4095.0,4095.0,3663.0,2972.0,2559.0,0.16,2.82,13.87,0.02,-0.05,-0.19,p
3210.0,3002.0,2895.0,4095.0,4095.0,3663.0,2969.0,2559.0,0.11,2.83,13.69,0.03,-0.03,-0.15,p
3190.0,3011.0,2889.0,4095.0,4095.0,3655.0,2965.0,2559.0,0.22,2.84,13.77,0.0,-0.03,-0.14,p
3195.0,3008.0,2898.0,4095.0,4095.0,3655.0,2962.0,2559.0,0.09,2.75,13.85,-0.0,-0.05,-0.21,p
3196.0,3012.0,2896.0,4095.0,4095.0,3652.0,2969.0,2559.0,0.04,2.88,13.75,-0.03,0.04,-0.13,p
3195.0,3019.0,2895.0,4095.0,4095.0,3664.0,2965.0,2559.0,0.09,2.69,14.03,-0.01,-0.04,-0.15,p
3174.0,3027.0,2895.0,4095.0,4095.0,3581.0,2966.0,2559.0,0.27,2.79,13.59,-0.14,0.08,-0.11,p
3131.0,3034.0,2882.0,4095.0,4095.0,3475.0,2957.0,2559.0,0.3,2.61,13.92,-0.13,0.0,-0.15,p
3126.0,3040.0,2896.0,4095.0,4095.0,3477.0,2961.0,2559.0,-0.05,2.53,14.06,-0.01,0.0,-0.19,p
3139.0,3043.0,2891.0,4095.0,4095.0,3522.0,2960.0,2559.0,0.11,2.59,13.9,0.06,-0.05,-0.18,p
3122.0,3024.0,2897.0,4095.0,4095.0,3606.0,2973.0,2582.0,0.37,1.93,14.07,-0.04,0.01,-0.13,p
3125.0,3015.0,2900.0,4095.0,4095.0,3600.0,2965.0,2583.0,0.36,1.9,13.92,0.06,0.02,-0.16,p
3120.0,3024.0,2896.0,4095.0,4095.0,3611.0,2963.0,2587.0,0.05,2.09,13.68,-0.02,-0.04,-0.23,p
3132.0,3024.0,2898.0,4095.0,4095.0,3615.0,2966.0,2585.0,0.05,2.3,13.8,-0.07,-0.06,-0.21,p
3133.0,3024.0,2899.0,4095.0,4095.0,3610.0,2967.0,2591.0,0.41,2.24,14.23,-0.15,-0.02,-0.12,p
3130.0,3031.0,2907.0,4095.0,4095.0,3612.0,2977.0,2592.0,0.48,1.7,14.52,-0.06,0.0,-0.09,p
3131.0,3029.0,2893.0,4095.0,4095.0,3610.0,2974.0,2592.0,0.3,1.34,14.45,0.02,0.02,-0.07,p
3131.0,3024.0,2892.0,4095.0,4095.0,3603.0,2971.0,2583.0,0.22,1.36,14.29,0.17,-0.02,-0.14,p
3134.0,3024.0,2903.0,4095.0,4095.0,3600.0,2971.0,2588.0,0.2,1.77,13.85,0.17,0.03,-0.14,p
3123.0,3025.0,2901.0,4095.0,4095.0,3602.0,2971.0,2585.0,0.3,2.16,13.67,0.05,-0.03,-0.2,p
3122.0,3024.0,2894.0,4095.0,4095.0,3583.0,2972.0,2585.0,0.13,2.49,13.67,-0.04,-0.0,-0.19,p
3120.0,3008.0,2896.0,4095.0,4095.0,3566.0,2960.0,2582.0,0.19,2.55,13.87,-0.1,0.04,-0.08,p
3115.0,3018.0,2901.0,4095.0,4095.0,3536.0,2966.0,2559.0,0.36,1.96,14.3,-0.12,0.04,-0.08,p
3120.0,3023.0,2892.0,4095.0,4095.0,3502.0,2966.0,2594.0,0.52,1.38,14.42,0.0,0.06,-0.09,p
3117.0,3024.0,2893.0,4095.0,4095.0,3522.0,2963.0,2587.0,0.35,1.39,14.1,0.07,-0.02,-0.17,p
3120.0,3029.0,2892.0,4095.0,4095.0,3514.0,2971.0,2585.0,0.21,1.72,13.97,0.11,-0.06,-0.24,p
3103.0,3015.0,2883.0,4095.0,4095.0,3504.0,2969.0,2586.0,0.02,1.93,13.87,0.07,-0.1,-0.24,p
3099.0,3015.0,2887.0,4095.0,4095.0,3494.0,2966.0,2559.0,0.04,2.18,14.13,0.08,-0.05,-0.17,p
3107.0,3034.0,2893.0,4095.0,4095.0,3501.0,2967.0,2585.0,0.29,2.16,14.18,0.03,-0.07,-0.22,p
3101.0,3033.0,2905.0,4095.0,4095.0,3515.0,2974.0,2586.0,0.42,2.01,14.22,0.02,-0.02,-0.18,p
2970.0,2928.0,2897.0,4095.0,4095.0,3569.0,2982.0,2691.0,4.69,1.95,12.86,-0.07,-0.09,-0.26,p
2971.0,2925.0,2896.0,4095.0,4095.0,3577.0,2981.0,2694.0,4.73,1.93,13.04,0.02,-0.03,-0.24,p
2971.0,2934.0,2887.0,4095.0,4095.0,3571.0,2989.0,2697.0,4.65,1.89,12.91,-0.01,-0.06,-0.25,p
2986.0,2928.0,2886.0,4095.0,4095.0,3571.0,2991.0,2698.0,4.69,2.0,12.9,-0.02,-0.05,-0.24,p
2974.0,2938.0,2896.0,4095.0,4095.0,3583.0,2987.0,2700.0,4.93,2.08,12.68,-0.09,-0.11,-0.29,p
2975.0,2944.0,2895.0,4095.0,4095.0,3565.0,2983.0,2698.0,4.77,1.92,12.94,-0.1,-0.11,-0.34,p
2969.0,2937.0,2895.0,4095.0,4095.0,3534.0,2983.0,2698.0,4.66,1.79,12.98,-0.05,-0.0,-0.25,p
2975.0,2931.0,2889.0,4095.0,4095.0,3536.0,2990.0,2703.0,4.72,1.72,13.06,-0.06,-0.02,-0.22,p
2971.0,2945.0,2885.0,4095.0,4095.0,3535.0,2987.0,2703.0,4.62,1.69,13.11,0.01,-0.01,-0.21,p
2972.0,2932.0,2889.0,4095.0,4095.0,3546.0,2987.0,2700.0,4.36,1.92,12.62,-0.08,0.02,-0.1,p
2983.0,2942.0,2895.0,4095.0,4095.0,3551.0,2982.0,2704.0,4.9,1.7,13.1,-0.13,0.01,-0.1,p
2975.0,2935.0,2885.0,4095.0,4095.0,3545.0,2976.0,2694.0,4.74,1.72,13.0,-0.05,0.01,-0.15,p
2976.0,2927.0,2885.0,4095.0,4095.0,3549.0,2979.0,2703.0,4.62,1.64,13.15,-0.03,-0.03,-0.17,p
2971.0,2942.0,2903.0,4095.0,4095.0,3550.0,2985.0,2704.0,4.75,1.66,12.92,0.05,0.01,-0.14,p
2971.0,2929.0,2887.0,4095.0,4095.0,3557.0,2989.0,2704.0,4.76,1.7,13.01,-0.01,-0.02,-0.17,p
2962.0,2928.0,2890.0,4095.0,4095.0,3536.0,2989.0,2709.0,4.72,1.59,13.08,-0.01,-0.04,-0.17,p
2986.0,2929.0,2894.0,4095.0,4095.0,3545.0,2988.0,2704.0,4.63,1.78,12.95,0.09,-0.01,-0.16,p
2967.0,2930.0,2893.0,4095.0,4095.0,3549.0,2992.0,2709.0,4.74,1.81,12.97,-0.03,-0.03,-0.12,p
2965.0,2928.0,2885.0,4095.0,4095.0,3540.0,2991.0,2707.0,4.83,1.65,13.01,0.07,-0.03,-0.18,p
2955.0,2934.0,2895.0,4095.0,4095.0,3509.0,2989.0,2705.0,4.85,1.77,12.96,0.01,-0.03,-0.16,p
2995.0,2921.0,2895.0,4095.0,4095.0,3724.0,3030.0,2661.0,4.89,2.55,12.75,-0.14,-0.06,-0.06,p
3014.0,2915.0,2906.0,4095.0,4095.0,3804.0,3035.0,2667.0,4.94,2.4,13.02,0.02,-0.01,-0.16,p
3010.0,2933.0,2895.0,4095.0,4095.0,3829.0,3042.0,2668.0,4.63,2.72,12.42,0.1,-0.05,-0.2,p
3010.0,2915.0,2901.0,4095.0,4095.0,3855.0,3039.0,2670.0,4.68,2.83,12.63,-0.0,-0.05,-0.15,p
3013.0,2922.0,2896.0,4095.0,4095.0,3862.0,3041.0,2683.0,4.79,2.67,12.49,-0.04,0.0,-0.1,p
3011.0,2923.0,2906.0,4095.0,4095.0,3897.0,3039.0,2672.0,5.01,2.43,12.88,0.0,0.01,-0.1,p
3010.0,2911.0,2905.0,4095.0,4095.0,3920.0,3038.0,2672.0,5.04,2.44,12.73,0.07,0.02,-0.16,p
2994.0,2915.0,2908.0,4095.0,4095.0,3953.0,3043.0,2673.0,4.95,2.61,12.68,-0.02,0.02,-0.12,p
3001.0,2910.0,2901.0,4095.0,4095.0,3984.0,3043.0,2672.0,4.87,2.5,12.7,-0.0,-0.02,-0.19,p
2994.0,2912.0,2895.0,4095.0,4095.0,3984.0,3047.0,2672.0,4.78,2.62,12.7,0.01,0.08,-0.17,p
2987.0,2914.0,2896.0,4095.0,4095.0,3947.0,3044.0,2670.0,4.75,2.58,12.76,0.04,0.01,-0.21,p
2975.0,2917.0,2894.0,4095.0,4095.0,3811.0,3029.0,2662.0,4.78,2.56,12.84,0.01,0.0,-0.18,p
2970.0,2926.0,2903.0,4095.0,4095.0,3641.0,3024.0,2672.0,4.75,2.55,12.63,0.01,-0.07,-0.15,p
2973.0,2923.0,2895.0,4095.0,4095.0,3513.0,3011.0,2666.0,4.81,2.55,12.85,0.03,-0.02,-0.17,p
2989.0,2926.0,2896.0,4095.0,4095.0,3504.0,3010.0,2672.0,4.77,2.68,12.68,0.09,-0.04,-0.18,p
2974.0,2923.0,2896.0,4095.0,4095.0,3533.0,3013.0,2668.0,4.69,2.73,12.58,0.02,0.01,-0.11,p
2971.0,2909.0,2893.0,4095.0,4095.0,3557.0,3021.0,2672.0,4.62,2.63,12.9,-0.01,0.03,-0.13,p
2985.0,2925.0,2893.0,4095.0,4095.0,3637.0,3024.0,2677.0,4.73,2.58,12.62,0.02,0.03,-0.14,p
2991.0,2912.0,2891.0,4095.0,4095.0,3677.0,3013.0,2672.0,4.82,2.63,12.85,-0.06,0.06,-0.16,p
2997.0,2918.0,2897.0,4095.0,4095.0,3719.0,3024.0,2679.0,4.73,2.62,12.67,-0.05,-0.01,-0.15,p
2985.0,2911.0,2887.0,4095.0,4095.0,3767.0,3023.0,2707.0,4.68,2.77,12.72,-0.02,0.06,-0.15,p
2999.0,2919.0,2896.0,4095.0,4095.0,3801.0,3024.0,2707.0,4.6,2.83,12.63,-0.01,0.03,-0.16,p
2992.0,2926.0,2896.0,4095.0,4095.0,3792.0,3022.0,2711.0,4.72,2.71,12.75,-0.03,-0.02,-0.16,p
3003.0,2918.0,2894.0,4095.0,4095.0,3809.0,3022.0,2710.0,4.72,2.59,12.73,-0.01,-0.03,-0.15,p
2992.0,2921.0,2881.0,4095.0,4095.0,3760.0,3010.0,2710.0,4.65,2.68,12.77,-0.04,-0.04,-0.13,p
2987.0,2919.0,2902.0,4095.0,4095.0,3663.0,3014.0,2705.0,4.87,2.6,12.76,-0.06,0.03,-0.09,p
2992.0,2913.0,2896.0,4095.0,4095.0,3648.0,3022.0,2712.0,4.97,2.5,12.92,0.12,0.1,-0.12,p
2992.0,2908.0,2893.0,4095.0,4095.0,3698.0,3019.0,2706.0,4.66,2.59,12.63,0.05,0.1,-0.16,p
3005.0,2924.0,2899.0,4095.0,4095.0,3785.0,3021.0,2709.0,4.7,2.69,12.72,-0.02,0.03,-0.26,p
3006.0,2921.0,2895.0,4095.0,4095.0,3813.0,3018.0,2706.0,4.39,2.86,12.61,-0.01,-0.04,-0.23,p
3008.0,2926.0,2890.0,4095.0,4095.0,3842.0,3027.0,2708.0,4.37,2.95,12.67,-0.08,-0.01,-0.18,p
3004.0,2923.0,2895.0,4095.0,4095.0,3852.0,3026.0,2708.0,4.48,2.54,12.99,-0.04,-0.02,-0.13,p
3017.0,2917.0,2892.0,4095.0,4095.0,3899.0,3024.0,2689.0,4.33,2.36,13.24,0.04,0.2,0.04,p
3045.0,2901.0,2896.0,4095.0,4095.0,3971.0,3024.0,2672.0,4.62,2.3,12.97,0.29,0.21,0.02,p
3053.0,2903.0,2891.0,4095.0,4095.0,3980.0,3035.0,2651.0,4.32,2.87,12.41,0.07,0.17,0.09,p
3053.0,2906.0,2886.0,4095.0,4095.0,3990.0,3020.0,2647.0,4.69,2.68,12.91,-0.01,0.02,-0.11,p
3045.0,2909.0,2880.0,4095.0,4095.0,3982.0,3003.0,2637.0,4.92,2.45,12.97,-0.09,-0.02,-0.17,p
3055.0,2902.0,2893.0,4095.0,4095.0,3997.0,3010.0,2640.0,4.09,2.59,13.3,0.05,-0.15,-0.38,p
3039.0,2908.0,2899.0,4095.0,4095.0,3999.0,3014.0,2637.0,3.86,2.69,13.0,0.01,-0.08,-0.19,p
3040.0,2903.0,2891.0,4095.0,4095.0,3987.0,3015.0,2629.0,3.98,2.81,12.74,0.09,-0.1,-0.1,p
3106.0,2915.0,2894.0,4095.0,4095.0,3716.0,2981.0,2693.0,4.58,2.1,13.05,0.05,-0.02,-0.2,p
3107.0,2912.0,2886.0,4095.0,4095.0,3705.0,2976.0,2694.0,4.67,2.6,12.87,0.05,-0.05,-0.21,p
3113.0,2896.0,2891.0,4095.0,4095.0,3687.0,2977.0,2693.0,4.61,2.73,12.53,0.04,-0.02,-0.15,p
3107.0,2906.0,2895.0,4095.0,4095.0,3679.0,2978.0,2693.0,4.61,2.7,12.71,0.02,-0.02,-0.13,p
3096.0,2903.0,2884.0,4095.0,4095.0,3680.0,2973.0,2689.0,4.76,2.4,12.88,0.06,-0.03,-0.1,p
3105.0,2901.0,2895.0,4095.0,4095.0,3685.0,2978.0,2688.0,4.86,2.52,12.63,0.01,-0.06,-0.07,p
3114.0,2914.0,2896.0,4095.0,4095.0,3691.0,2983.0,2692.0,5.16,2.52,12.4,0.0,0.06,-0.02,p
3097.0,2917.0,2883.0,4095.0,4095.0,3681.0,2974.0,2688.0,4.99,2.29,12.7,-0.04,0.05,-0.11,p
3101.0,2910.0,2896.0,4095.0,4095.0,3693.0,2982.0,2689.0,4.87,2.1,13.0,-0.04,0.01,-0.17,p
3110.0,2909.0,2889.0,4095.0,4095.0,3700.0,2981.0,2701.0,4.64,2.2,13.17,0.03,-0.02,-0.21,p
3089.0,2898.0,2884.0,4095.0,4095.0,3693.0,2970.0,2689.0,4.62,2.45,12.73,0.08,-0.04,-0.2,p
3094.0,2915.0,2887.0,4095.0,4095.0,3683.0,2983.0,2693.0,4.85,2.5,12.73,0.03,-0.02,-0.12,p
3087.0,2913.0,2891.0,4095.0,4095.0,3694.0,2992.0,2688.0,4.98,2.39,12.7,0.04,-0.02,-0.11,p
3087.0,2911.0,2896.0,4095.0,4095.0,3655.0,2980.0,2691.0,4.97,2.56,12.47,0.0,-0.02,-0.12,p
3085.0,2914.0,2885.0,4095.0,4095.0,3633.0,2978.0,2695.0,5.0,2.43,12.52,-0.12,-0.02,-0.15,p
3090.0,2907.0,2894.0,4095.0,4095.0,3638.0,2977.0,2697.0,5.02,2.34,13.0,0.03,0.05,-0.2,p
3071.0,2899.0,2890.0,4095.0,4095.0,3649.0,2986.0,2699.0,4.54,1.99,13.0,-0.05,-0.06,-0.21,p
3082.0,2909.0,2891.0,4095.0,4095.0,3636.0,2978.0,2694.0,4.73,2.44,13.09,0.13,0.0,-0.16,p
3085.0,2913.0,2898.0,4095.0,4095.0,3634.0,2983.0,2693.0,4.77,3.09,11.68,0.06,0.13,-0.07,p
3085.0,2906.0,2878.0,4095.0,4095.0,3633.0,2973.0,2694.0,4.9,2.35,12.97,-0.21,0.02,-0.16,p
3039.0,2903.0,2895.0,4095.0,4095.0,3968.0,2997.0,2723.0,4.46,2.39,13.05,0.09,-0.02,-0.28,p
3042.0,2910.0,2889.0,4095.0,4095.0,3984.0,2992.0,2721.0,3.98,2.92,12.51,0.03,0.04,-0.18,p
3053.0,2923.0,2906.0,4095.0,4095.0,3999.0,3001.0,2727.0,4.28,2.72,13.1,-0.03,-0.05,-0.26,p
3056.0,2919.0,2896.0,4095.0,4095.0,4017.0,2998.0,2730.0,4.26,2.55,12.96,0.08,-0.01,-0.2,p
3055.0,2913.0,2896.0,4095.0,4095.0,4064.0,3002.0,2723.0,4.46,2.45,13.3,-0.03,-0.09,-0.2,p
3059.0,2911.0,2890.0,4095.0,4095.0,4087.0,2999.0,2730.0,4.5,2.68,12.68,0.15,-0.02,-0.17,p
3066.0,2909.0,2899.0,4095.0,4095.0,4095.0,3005.0,2731.0,4.15,2.93,12.73,-0.02,-0.04,-0.15,p
3055.0,2925.0,2895.0,4095.0,4095.0,4079.0,2994.0,2722.0,4.29,2.99,12.46,0.06,-0.01,-0.07,p
3058.0,2918.0,2899.0,4095.0,4095.0,4091.0,3004.0,2732.0,4.92,2.9,12.47,-0.11,0.01,0.05,p
3049.0,2913.0,2893.0,4095.0,4095.0,4065.0,2998.0,2731.0,4.86,2.6,12.54,0.01,0.09,-0.08,p
3047.0,2913.0,2898.0,4095.0,4095.0,4061.0,3008.0,2727.0,4.62,2.18,13.27,-0.15,0.07,-0.15,p
3047.0,2912.0,2890.0,4095.0,4095.0,4054.0,2998.0,2723.0,4.56,1.85,13.4,-0.08,-0.11,-0.23,p
3058.0,2916.0,2901.0,4095.0,4095.0,4064.0,2996.0,2730.0,4.32,2.41,13.11,0.05,-0.07,-0.22,p
3055.0,2913.0,2898.0,4095.0,4095.0,4085.0,2990.0,2726.0,4.45,2.51,12.67,0.01,-0.04,-0.16,p
3051.0,2907.0,2891.0,4095.0,4095.0,4075.0,3003.0,2723.0,4.72,2.43,13.22,0.09,0.06,-0.1,p
3056.0,2910.0,2891.0,4095.0,4095.0,4057.0,2995.0,2727.0,4.7,2.69,12.74,0.12,-0.01,-0.15,p
3047.0,2903.0,2894.0,4095.0,4095.0,4074.0,2997.0,2727.0,4.66,2.98,12.3,0.08,-0.0,-0.14,p
3053.0,2905.0,2883.0,4095.0,4095.0,4067.0,3002.0,2730.0,4.47,2.62,12.69,-0.08,-0.06,-0.22,p
3049.0,2919.0,2897.0,4095.0,4095.0,4074.0,2998.0,2733.0,4.6,2.3,13.07,0.01,0.03,-0.14,p
3055.0,2911.0,2905.0,4095.0,4095.0,4080.0,3005.0,2736.0,4.53,2.57,12.74,-0.02,0.04,-0.11,p
3006.0,2909.0,2894.0,4095.0,4095.0,3445.0,2992.0,2741.0,4.84,2.58,12.53,0.09,0.0,-0.22,p
2989.0,2909.0,2896.0,4095.0,4095.0,3486.0,2990.0,2735.0,4.84,2.51,12.77,-0.01,-0.03,-0.21,p
3003.0,2906.0,2886.0,4095.0,4095.0,3509.0,2992.0,2733.0,4.69,2.37,12.96,0.08,-0.02,-0.21,p
3000.0,2914.0,2896.0,4095.0,4095.0,3550.0,2992.0,2736.0,4.5,2.75,12.81,0.1,-0.0,-0.16,p
2998.0,2911.0,2889.0,4095.0,4095.0,3566.0,2992.0,2736.0,4.6,2.7,12.47,0.05,0.02,-0.07,p
3007.0,2914.0,2896.0,4095.0,4095.0,3562.0,2986.0,2734.0,5.02,2.6,12.74,-0.03,0.01,-0.11,p
3001.0,2896.0,2891.0,4095.0,4095.0,3573.0,2990.0,2736.0,4.96,2.4,12.76,0.01,-0.03,-0.2,p
3007.0,2899.0,2891.0,4095.0,4095.0,3581.0,2991.0,2736.0,4.65,2.6,12.78,-0.0,-0.06,-0.21,p
2999.0,2904.0,2890.0,4095.0,4095.0,3570.0,2990.0,2733.0,4.56,2.71,12.73,0.01,-0.0,-0.14,p
3015.0,2905.0,2893.0,4095.0,4095.0,3601.0,2991.0,2736.0,4.67,2.63,12.73,-0.02,0.0,-0.09,p
3002.0,2909.0,2887.0,4095.0,4095.0,3583.0,2986.0,2736.0,4.82,2.48,12.77,0.01,0.01,-0.11,p
2999.0,2907.0,2891.0,4095.0,4095.0,3599.0,2992.0,2735.0,4.87,2.51,12.7,-0.05,-0.03,-0.15,p
2999.0,2910.0,2896.0,4095.0,4095.0,3603.0,2992.0,2736.0,4.89,2.48,12.78,-0.02,-0.01,-0.18,p
2997.0,2905.0,2894.0,4095.0,4095.0,3583.0,2993.0,2729.0,4.66,2.55,12.76,-0.01,0.0,-0.18,p
2998.0,2914.0,2898.0,4095.0,4095.0,3600.0,2991.0,2738.0,4.67,2.59,12.8,0.0,0.02,-0.15,p
2991.0,2909.0,2896.0,4095.0,4095.0,3583.0,2987.0,2736.0,4.68,2.49,12.75,-0.05,-0.03,-0.14,p
2994.0,2923.0,2888.0,4095.0,4095.0,3599.0,2989.0,2736.0,4.81,2.37,12.85,-0.01,-0.04,-0.15,p
3002.0,2913.0,2905.0,4095.0,4095.0,3583.0,2994.0,2738.0,4.83,2.38,12.71,-0.04,-0.02,-0.16,p
2993.0,2911.0,2891.0,4095.0,4095.0,3575.0,2992.0,2736.0,4.75,2.24,12.99,0.0,-0.06,-0.18,p
2989.0,2902.0,2896.0,4095.0,4095.0,3578.0,2996.0,2736.0,4.78,2.43,12.84,0.05,-0.01,-0.16,p
2993.0,2906.0,2893.0,4095.0,4095.0,3383.0,2992.0,2736.0,4.47,2.26,13.04,0.02,-0.05,-0.2,p
2988.0,2903.0,2896.0,4095.0,4095.0,3376.0,2989.0,2736.0,4.74,2.54,12.74,0.03,-0.11,-0.16,p
2989.0,2911.0,2893.0,4095.0,4095.0,3328.0,2987.0,2736.0,4.9,2.71,12.32,0.07,0.02,-0.09,p
2991.0,2913.0,2890.0,4095.0,4095.0,3291.0,2991.0,2723.0,5.08,2.69,12.54,-0.03,-0.0,-0.13,p
2983.0,2916.0,2887.0,4095.0,4095.0,3262.0,2990.0,2726.0,5.15,2.68,12.45,0.01,0.0,-0.16,p
2979.0,2903.0,2890.0,4095.0,4095.0,3265.0,2985.0,2725.0,4.97,2.42,12.87,-0.03,-0.08,-0.22,p
2994.0,2920.0,2887.0,4095.0,4095.0,3279.0,2992.0,2730.0,4.72,2.33,12.9,0.08,0.01,-0.2,p
2986.0,2910.0,2905.0,4095.0,4095.0,3283.0,2992.0,2733.0,4.64,2.61,12.68,0.1,0.01,-0.12,p
2996.0,2912.0,2893.0,4095.0,4095.0,3312.0,2996.0,2727.0,4.86,2.81,12.4,0.07,-0.01,-0.1,p
2987.0,2907.0,2882.0,4095.0,4095.0,3290.0,2981.0,2733.0,5.12,2.89,12.31,-0.02,-0.0,-0.12,p
2982.0,2910.0,2887.0,4095.0,4095.0,3306.0,2989.0,2730.0,5.23,2.58,12.55,-0.08,0.01,-0.13,p
2994.0,2921.0,2895.0,4095.0,4095.0,3317.0,2993.0,2735.0,4.94,2.6,12.62,-0.01,-0.0,-0.17,p
2990.0,2918.0,2889.0,4095.0,4095.0,3328.0,2992.0,2726.0,4.88,2.46,12.85,-0.07,-0.01,-0.13,p
2990.0,2911.0,2895.0,4095.0,4095.0,3303.0,2997.0,2715.0,5.0,2.16,13.08,0.04,-0.06,-0.18,p
2992.0,2911.0,2898.0,4095.0,4095.0,3330.0,3002.0,2699.0,4.61,2.49,12.72,0.11,0.01,-0.14,p
2991.0,2915.0,2896.0,4095.0,4095.0,3341.0,3003.0,2687.0,4.8,2.69,12.5,0.11,0.01,-0.18,p
2998.0,2912.0,2893.0,4095.0,4095.0,3357.0,3008.0,2665.0,4.93,2.76,12.54,0.08,-0.01,-0.2,p
2993.0,2925.0,2891.0,4095.0,4095.0,3370.0,3011.0,2655.0,5.04,2.78,12.41,0.06,-0.04,-0.23,p
2980.0,2915.0,2887.0,4095.0,4095.0,3357.0,3002.0,2649.0,5.35,2.56,12.65,0.03,-0.15,-0.24,p
2995.0,2919.0,2896.0,4095.0,4095.0,3373.0,2992.0,2649.0,5.04,2.47,12.84,0.01,-0.11,-0.26,p
3006.0,2906.0,2877.0,4095.0,4095.0,3633.0,2982.0,2691.0,4.89,3.0,12.61,0.01,-0.04,-0.13,p
3020.0,2906.0,2883.0,4095.0,4095.0,3632.0,2981.0,2689.0,4.91,3.05,12.36,0.03,0.05,-0.1,p
3008.0,2913.0,2879.0,4095.0,4095.0,3626.0,2985.0,2691.0,5.34,3.03,12.35,-0.09,-0.01,-0.11,p
3019.0,2920.0,2891.0,4095.0,4095.0,3611.0,2977.0,2691.0,4.81,2.89,12.73,0.0,0.04,-0.2,p
3018.0,2901.0,2892.0,4095.0,4095.0,3631.0,2991.0,2695.0,4.81,2.93,12.65,0.06,0.04,-0.2,p
3003.0,2909.0,2890.0,4095.0,4095.0,3615.0,2987.0,2697.0,4.59,3.13,12.47,-0.01,-0.02,-0.19,p
3019.0,2902.0,2878.0,4095.0,4095.0,3618.0,2986.0,2693.0,4.69,3.04,12.7,-0.02,0.0,-0.17,p
3007.0,2919.0,2887.0,4095.0,4095.0,3623.0,2991.0,2695.0,4.72,2.92,12.64,0.02,0.02,-0.15,p
3023.0,2913.0,2895.0,4095.0,4095.0,3629.0,2989.0,2699.0,4.91,2.96,12.53,0.0,0.03,-0.12,p
3020.0,2917.0,2885.0,4095.0,4095.0,3631.0,2992.0,2703.0,4.7,3.0,12.73,-0.03,-0.05,-0.18,p
3018.0,2910.0,2880.0,4095.0,4095.0,3632.0,2986.0,2694.0,4.63,2.85,12.73,-0.03,0.01,-0.13,p
3018.0,2911.0,2886.0,4095.0,4095.0,3675.0,2991.0,2704.0,4.91,3.0,12.63,-0.03,-0.02,-0.09,p
3015.0,2902.0,2887.0,4095.0,4095.0,3739.0,2987.0,2689.0,4.58,2.83,12.57,-0.1,-0.06,-0.01,p
3022.0,2909.0,2886.0,4095.0,4095.0,3846.0,2969.0,2698.0,4.84,2.77,13.02,-0.16,-0.22,-0.09,p
3015.0,2917.0,2889.0,4095.0,4095.0,3891.0,2955.0,2701.0,5.28,2.73,12.49,0.1,-0.26,-0.22,p
3009.0,2909.0,2894.0,4095.0,4095.0,3930.0,2958.0,2705.0,4.97,3.0,12.58,-0.01,-0.02,-0.17,p
3017.0,2912.0,2897.0,4095.0,4095.0,3935.0,2960.0,2708.0,5.04,2.79,12.43,0.02,0.01,-0.14,p
3024.0,2917.0,2890.0,4095.0,4095.0,3945.0,2965.0,2711.0,4.9,2.73,12.64,-0.02,0.01,-0.15,p
3009.0,2906.0,2896.0,4095.0,4095.0,3903.0,2967.0,2709.0,4.9,2.89,12.49,0.04,-0.03,-0.16,p
3015.0,2905.0,2897.0,4095.0,4095.0,3913.0,2976.0,2705.0,5.06,2.89,12.33,-0.03,-0.0,-0.09,p
2996.0,2925.0,2895.0,4095.0,4095.0,3881.0,2995.0,2750.0,4.72,2.85,12.38,-0.08,0.03,-0.23,p
2998.0,2922.0,2887.0,4095.0,4095.0,3867.0,3003.0,2738.0,4.76,2.66,12.94,-0.05,0.0,-0.24,p
2998.0,2921.0,2896.0,4095.0,4095.0,3888.0,3002.0,2742.0,4.54,2.77,12.7,-0.05,-0.05,-0.2,p
2992.0,2915.0,2885.0,4095.0,4095.0,3870.0,2996.0,2738.0,4.74,2.73,12.87,0.02,-0.01,-0.14,p
2996.0,2935.0,2874.0,4095.0,4095.0,3874.0,2997.0,2741.0,4.8,2.72,12.65,0.06,0.02,-0.12,p
2999.0,2914.0,2887.0,4095.0,4095.0,3877.0,2995.0,2741.0,5.02,2.76,12.65,0.06,0.01,-0.13,p
2997.0,2913.0,2886.0,4095.0,4095.0,3850.0,2991.0,2739.0,5.0,2.78,12.49,0.03,-0.04,-0.15,p
2992.0,2922.0,2896.0,4095.0,4095.0,3853.0,2995.0,2746.0,4.85,2.89,12.69,0.04,-0.05,-0.19,p
2992.0,2917.0,2889.0,4095.0,4095.0,3822.0,2994.0,2736.0,4.96,2.88,12.48,0.06,-0.02,-0.14,p
2999.0,2911.0,2895.0,4095.0,4095.0,3821.0,2997.0,2748.0,5.01,2.91,12.48,0.03,0.0,-0.13,p
2990.0,2918.0,2887.0,4095.0,4095.0,3794.0,2990.0,2737.0,4.95,2.85,12.44,-0.03,-0.01,-0.14,p
2992.0,2914.0,2891.0,4095.0,4095.0,3821.0,2992.0,2749.0,4.9,2.8,12.67,-0.02,-0.06,-0.19,p
2989.0,2917.0,2896.0,4095.0,4095.0,3815.0,2992.0,2742.0,4.87,2.62,12.79,0.01,-0.04,-0.16,p
2992.0,2913.0,2896.0,4095.0,4095.0,3805.0,2996.0,2747.0,4.75,2.73,12.71,0.06,-0.06,-0.13,p
2980.0,2915.0,2891.0,4095.0,4095.0,3792.0,2990.0,2742.0,4.96,2.91,12.46,0.11,0.01,-0.1,p
2994.0,2923.0,2882.0,4095.0,4095.0,3791.0,2986.0,2736.0,5.24,3.56,11.43,0.06,0.16,-0.04,p
2992.0,2915.0,2901.0,4095.0,4095.0,3777.0,2991.0,2737.0,4.77,3.79,11.71,-0.22,0.05,-0.03,p
3005.0,2915.0,2894.0,4095.0,4095.0,3783.0,2994.0,2738.0,4.81,2.62,13.09,-0.3,0.07,0.02,p
2997.0,2925.0,2887.0,4095.0,4095.0,3765.0,3003.0,2735.0,4.86,1.78,13.48,-0.09,-0.03,-0.07,p
2992.0,2915.0,2896.0,4095.0,4095.0,3774.0,2995.0,2741.0,4.72,1.84,13.01,0.0,0.07,0.12,p
2966.0,2907.0,2895.0,4095.0,4095.0,3345.0,3056.0,2754.0,3.43,5.38,12.26,0.04,-0.03,-0.2,p
2963.0,2916.0,2892.0,4095.0,4095.0,3231.0,3086.0,2757.0,3.33,5.2,11.99,0.0,-0.18,-0.21,p
2944.0,2925.0,2907.0,4095.0,4095.0,3234.0,3088.0,2752.0,3.66,5.43,12.01,0.04,-0.08,-0.22,p
2970.0,2921.0,2905.0,4095.0,4095.0,3235.0,3091.0,2755.0,3.52,5.41,11.87,0.11,-0.03,-0.22,p
2959.0,2923.0,2907.0,4095.0,4095.0,3156.0,3091.0,2743.0,3.48,5.43,11.69,0.01,-0.08,-0.29,p
2974.0,2902.0,2896.0,4095.0,4095.0,3091.0,3055.0,2721.0,3.55,5.48,11.93,0.01,-0.04,-0.29,p
2957.0,2909.0,2897.0,4095.0,4095.0,3137.0,2980.0,2672.0,3.15,5.5,11.81,0.06,-0.1,-0.28,p
2966.0,2905.0,2895.0,4095.0,4095.0,3164.0,2954.0,2647.0,3.47,5.51,11.7,-0.09,-0.09,-0.08,p
2965.0,2938.0,2898.0,4095.0,4095.0,3142.0,2918.0,2624.0,3.02,5.32,12.03,-0.07,-0.15,-0.07,p
2969.0,2907.0,2895.0,4095.0,4095.0,3152.0,2880.0,2617.0,4.54,5.13,12.1,-0.2,-0.07,-0.04,p
2960.0,2912.0,2896.0,4095.0,4095.0,3106.0,2868.0,2629.0,3.52,5.22,11.68,0.01,-0.1,-0.21,p
2974.0,2915.0,2897.0,4095.0,4095.0,3125.0,2880.0,2624.0,3.75,5.37,12.11,-0.03,-0.02,-0.11,p
2971.0,2913.0,2897.0,4095.0,4095.0,3139.0,2895.0,2643.0,3.02,5.41,11.83,0.12,0.0,-0.21,p
2973.0,2909.0,2885.0,4095.0,4095.0,3225.0,2896.0,2639.0,4.06,5.16,12.36,0.04,0.01,-0.17,p
2977.0,2917.0,2897.0,4095.0,4095.0,3568.0,2864.0,2646.0,3.67,5.49,11.74,0.14,0.02,-0.24,p
2961.0,2897.0,2896.0,4095.0,4095.0,3634.0,2880.0,2650.0,3.8,5.45,12.04,0.05,0.05,-0.21,p
2960.0,2915.0,2893.0,4095.0,4095.0,3429.0,2911.0,2650.0,3.56,5.56,11.51,0.29,0.18,-0.41,p
2961.0,2911.0,2896.0,4095.0,4095.0,3216.0,2949.0,2650.0,3.64,5.5,11.73,-0.14,-0.11,-0.21,p
2949.0,2914.0,2898.0,4095.0,4095.0,3234.0,2960.0,2651.0,3.51,5.39,12.19,0.12,-0.07,-0.28,p
2963.0,2906.0,2896.0,4095.0,4095.0,3315.0,2944.0,2647.0,3.63,5.5,11.82,0.0,0.07,-0.17,p
2966.0,2912.0,2896.0,4095.0,4095.0,3136.0,2945.0,2733.0,3.85,5.63,11.45,-0.08,0.09,0.13,p
2965.0,2915.0,2903.0,4095.0,4095.0,3163.0,2946.0,2736.0,4.24,5.51,11.72,0.11,0.21,-0.09,p
2973.0,2902.0,2897.0,4095.0,4095.0,3145.0,2946.0,2727.0,4.08,5.44,11.62,0.02,-0.07,-0.21,p
2962.0,2917.0,2886.0,4095.0,4095.0,3091.0,2949.0,2715.0,4.06,5.54,11.62,-0.02,-0.07,-0.28,p
2969.0,2907.0,2893.0,4095.0,4095.0,3044.0,2949.0,2701.0,3.9,5.45,11.72,-0.01,-0.08,-0.34,p
2962.0,2911.0,2889.0,4095.0,4095.0,3027.0,2940.0,2677.0,3.76,5.68,11.51,-0.07,-0.12,-0.32,p
2963.0,2906.0,2886.0,4095.0,4095.0,3045.0,2915.0,2654.0,3.7,5.49,11.47,-0.14,-0.17,-0.2,p
2975.0,2912.0,2887.0,4095.0,4095.0,3047.0,2922.0,2654.0,3.55,5.41,11.73,-0.13,-0.03,-0.16,p
2965.0,2919.0,2884.0,4095.0,4095.0,3045.0,2915.0,2654.0,3.96,5.15,12.25,-0.02,0.02,-0.18,p
2960.0,2907.0,2877.0,4095.0,4095.0,3088.0,2909.0,2647.0,3.77,5.41,11.61,0.11,0.02,-0.2,p
2975.0,2910.0,2889.0,4095.0,4095.0,3174.0,2903.0,2663.0,4.16,5.41,11.84,0.02,0.04,-0.16,p
2978.0,2909.0,2891.0,4095.0,4095.0,3280.0,2896.0,2669.0,3.53,5.43,11.69,0.24,0.09,-0.3,p
2985.0,2917.0,2887.0,4095.0,4095.0,3375.0,2893.0,2666.0,3.99,5.31,11.98,-0.06,-0.11,-0.24,p
2992.0,2902.0,2888.0,4095.0,4095.0,3563.0,2890.0,2672.0,3.8,5.16,12.13,0.08,-0.01,-0.28,p
3007.0,2910.0,2906.0,4095.0,4095.0,3730.0,2887.0,2672.0,3.6,5.43,12.04,0.16,0.15,-0.25,p
3022.0,2915.0,2884.0,4095.0,4095.0,3765.0,2890.0,2672.0,3.43,5.53,11.67,0.08,-0.01,-0.18,p
2992.0,2906.0,2897.0,4095.0,4095.0,3634.0,2909.0,2675.0,3.57,5.71,11.71,0.12,0.01,-0.12,p
2975.0,2903.0,2891.0,4095.0,4095.0,3376.0,2914.0,2679.0,3.68,5.71,11.53,-0.01,-0.13,-0.1,p
2965.0,2908.0,2909.0,4095.0,4095.0,3293.0,2938.0,2682.0,3.86,5.62,11.62,0.07,-0.03,-0.19,p
2960.0,2925.0,2896.0,4095.0,4095.0,3327.0,2957.0,2688.0,3.76,5.63,11.65,0.1,-0.03,-0.18,p
3003.0,2915.0,2889.0,4095.0,4095.0,3662.0,2995.0,2713.0,2.98,6.29,11.83,0.18,0.08,-0.17,p
3018.0,2901.0,2893.0,4095.0,4095.0,3843.0,2993.0,2707.0,2.78,6.4,11.07,-0.05,0.06,-0.09,p
3045.0,2909.0,2893.0,4095.0,4095.0,3966.0,2997.0,2722.0,2.89,6.35,11.78,0.07,-0.02,-0.3,p
3039.0,2906.0,2901.0,4095.0,4095.0,4049.0,2987.0,2721.0,2.88,6.33,11.33,0.06,-0.05,-0.25,p
3100.0,2912.0,2911.0,4095.0,4095.0,4095.0,2959.0,2717.0,2.45,6.54,11.27,0.06,-0.04,-0.22,p
3415.0,2907.0,2901.0,4095.0,4095.0,4095.0,2931.0,2725.0,3.15,6.41,11.37,-0.12,0.02,-0.09,p
3349.0,2896.0,2893.0,4095.0,4095.0,4095.0,2931.0,2714.0,2.57,6.32,11.54,0.0,0.0,-0.19,p
3135.0,2897.0,2899.0,4095.0,4095.0,4095.0,2945.0,2714.0,2.75,6.4,11.56,-0.06,-0.06,-0.11,p
3055.0,2906.0,2902.0,4095.0,4095.0,4095.0,2960.0,2733.0,2.73,6.34,11.48,-0.0,-0.1,-0.18,p
2998.0,2897.0,2899.0,4095.0,4095.0,3924.0,2973.0,2727.0,2.81,6.38,11.29,-0.08,-0.23,-0.02,p
2992.0,2909.0,2899.0,4095.0,4095.0,3889.0,2993.0,2736.0,2.97,6.27,11.55,0.01,-0.05,-0.12,p
2991.0,2911.0,2894.0,4095.0,4095.0,3802.0,2994.0,2736.0,2.99,6.17,11.51,-0.04,-0.08,-0.11,p
2991.0,2918.0,2896.0,4095.0,4095.0,3696.0,2999.0,2740.0,2.99,6.28,11.57,0.03,-0.05,-0.17,p
2978.0,2912.0,2897.0,4095.0,4095.0,3583.0,3002.0,2741.0,3.1,6.26,11.39,-0.03,-0.12,-0.14,p
2975.0,2930.0,2903.0,4095.0,4095.0,3494.0,3024.0,2735.0,3.15,6.24,11.46,0.0,0.0,-0.16,p
2960.0,2913.0,2896.0,4095.0,4095.0,3435.0,3025.0,2738.0,2.81,6.28,11.3,0.04,0.02,-0.2,p
2963.0,2911.0,2884.0,4095.0,4095.0,3455.0,3041.0,2748.0,3.07,6.26,11.53,-0.02,0.02,-0.13,p
2986.0,2912.0,2898.0,4095.0,4095.0,3658.0,3005.0,2743.0,3.05,6.19,11.45,0.03,0.07,-0.14,p
3011.0,2903.0,2890.0,4095.0,4095.0,4046.0,2954.0,2767.0,2.91,6.25,11.45,-0.0,0.1,-0.07,p
3013.0,2907.0,2899.0,4095.0,4095.0,4095.0,2967.0,2754.0,3.0,6.3,11.46,0.02,-0.03,-0.15,p
2978.0,2899.0,2906.0,4095.0,4095.0,3398.0,3010.0,2707.0,3.42,5.83,11.72,-0.02,0.03,-0.11,p
2978.0,2899.0,2906.0,4095.0,4095.0,3398.0,3010.0,2707.0,3.42,5.83,11.72,-0.02,0.03,-0.11,p
2992.0,2915.0,2901.0,4095.0,4095.0,3475.0,3019.0,2717.0,3.54,5.74,11.78,0.04,0.13,-0.16,p
2995.0,2901.0,2900.0,4095.0,4095.0,3558.0,3019.0,2715.0,3.12,5.85,11.67,0.02,0.09,-0.15,p
3006.0,2907.0,2909.0,4095.0,4095.0,3680.0,3022.0,2723.0,3.19,5.83,11.82,0.03,0.11,-0.15,p
3027.0,2907.0,2922.0,4095.0,4095.0,3769.0,3028.0,2726.0,2.69,5.97,11.83,0.16,0.14,-0.2,p
3039.0,2910.0,2903.0,4095.0,4095.0,3856.0,3026.0,2719.0,2.92,6.13,11.4,-0.01,0.06,-0.07,p
3040.0,2910.0,2905.0,4095.0,4095.0,3919.0,3029.0,2731.0,3.01,5.83,11.86,0.04,0.12,-0.05,p
3002.0,2899.0,2898.0,4095.0,4095.0,3775.0,3035.0,2731.0,3.33,5.69,11.95,-0.04,-0.03,-0.04,p
2982.0,2912.0,2905.0,4095.0,4095.0,3461.0,3053.0,2733.0,3.28,5.85,11.77,0.03,-0.06,-0.08,p
2983.0,2914.0,2911.0,4095.0,4095.0,3314.0,3059.0,2731.0,3.56,5.83,11.93,0.05,-0.12,-0.18,p
2977.0,2913.0,2908.0,4095.0,4095.0,3309.0,3070.0,2736.0,3.15,5.93,11.56,0.16,-0.0,-0.25,p
2965.0,2911.0,2907.0,4095.0,4095.0,3335.0,3067.0,2736.0,3.05,6.07,11.4,0.0,0.01,-0.16,p
2977.0,2914.0,2910.0,4095.0,4095.0,3385.0,3065.0,2738.0,3.1,5.97,11.68,-0.01,0.01,-0.14,p
2978.0,2923.0,2897.0,4095.0,4095.0,3437.0,3051.0,2748.0,3.41,5.79,11.81,-0.03,-0.09,-0.17,p
2969.0,2918.0,2906.0,4095.0,4095.0,3466.0,3027.0,2746.0,3.23,5.84,11.8,0.04,0.0,-0.17,p
2985.0,2912.0,2910.0,4095.0,4095.0,3535.0,3023.0,2742.0,3.29,5.9,11.63,-0.04,-0.06,-0.12,p
2978.0,2912.0,2909.0,4095.0,4095.0,3607.0,3015.0,2758.0,3.19,5.96,11.68,0.02,0.04,-0.19,p
2981.0,2906.0,2906.0,4095.0,4095.0,3673.0,3013.0,2752.0,3.16,5.94,11.6,-0.03,-0.02,-0.15,p
2978.0,2910.0,2909.0,4095.0,4095.0,3691.0,3018.0,2750.0,3.16,5.92,11.77,0.02,-0.02,-0.2,p
2971.0,2921.0,2907.0,4095.0,4095.0,3472.0,2976.0,2704.0,3.17,5.79,11.63,0.05,-0.03,-0.1,p
2975.0,2909.0,2896.0,4095.0,4095.0,3470.0,2977.0,2708.0,3.45,5.95,11.46,-0.01,0.04,-0.03,p
2970.0,2898.0,2896.0,4095.0,4095.0,3477.0,2972.0,2718.0,3.49,5.67,11.81,0.0,-0.04,-0.13,p
2975.0,2907.0,2896.0,4095.0,4095.0,3472.0,2981.0,2717.0,3.53,5.66,11.87,0.02,0.01,-0.08,p
2973.0,2923.0,2905.0,4095.0,4095.0,3475.0,2993.0,2733.0,3.55,5.64,11.52,0.04,0.03,-0.11,p
2976.0,2902.0,2894.0,4095.0,4095.0,3451.0,2992.0,2724.0,3.57,5.68,11.76,-0.0,0.0,-0.14,p
2965.0,2923.0,2891.0,4095.0,4095.0,3414.0,2992.0,2725.0,3.39,5.74,11.55,-0.01,0.08,-0.11,p
2976.0,2913.0,2907.0,4095.0,4095.0,3412.0,2992.0,2736.0,3.54,5.66,11.83,-0.05,0.08,-0.12,p
2978.0,2914.0,2903.0,4095.0,4095.0,3425.0,2994.0,2729.0,3.04,5.53,12.12,-0.01,-0.02,-0.17,p
2976.0,2910.0,2914.0,4095.0,4095.0,3440.0,2994.0,2735.0,3.24,5.6,11.98,0.02,0.01,-0.07,p
2973.0,2917.0,2903.0,4095.0,4095.0,3446.0,2993.0,2733.0,3.69,5.54,11.79,0.03,0.0,-0.15,p
2971.0,2921.0,2903.0,4095.0,4095.0,3440.0,2992.0,2723.0,3.65,5.7,11.86,-0.06,0.03,-0.13,p
2972.0,2912.0,2902.0,4095.0,4095.0,3434.0,2992.0,2723.0,3.42,5.81,11.49,0.07,0.12,-0.14,p
2969.0,2907.0,2899.0,4095.0,4095.0,3451.0,3005.0,2732.0,3.45,5.77,11.61,-0.05,0.04,-0.15,p
2988.0,2911.0,2899.0,4095.0,4095.0,3446.0,3006.0,2735.0,3.43,5.52,12.01,-0.05,-0.06,-0.22,p
2969.0,2918.0,2905.0,4095.0,4095.0,3440.0,3007.0,2737.0,3.11,5.5,12.2,0.0,-0.05,-0.22,p
2965.0,2915.0,2907.0,4095.0,4095.0,3418.0,3003.0,2731.0,3.03,5.66,11.88,0.02,-0.05,-0.14,p
2975.0,2909.0,2896.0,4095.0,4095.0,3393.0,3004.0,2735.0,3.27,5.77,11.64,-0.0,0.01,-0.05,p
2979.0,2917.0,2910.0,4095.0,4095.0,3383.0,3008.0,2743.0,3.6,5.51,11.89,-0.04,0.01,-0.1,p
2962.0,2919.0,2896.0,4095.0,4095.0,3358.0,3002.0,2733.0,3.56,5.34,12.15,-0.01,-0.07,-0.19,p
2962.0,2901.0,2906.0,4095.0,4095.0,3252.0,3061.0,2771.0,3.71,5.17,11.97,-0.01,0.01,-0.05,p
2981.0,2913.0,2903.0,4095.0,4095.0,3242.0,3061.0,2781.0,3.9,4.96,12.11,-0.02,0.02,-0.12,p
2975.0,2903.0,2903.0,4095.0,4095.0,3238.0,3056.0,2775.0,3.96,4.59,12.71,0.02,-0.04,-0.2,p
2969.0,2909.0,2893.0,4095.0,4095.0,3235.0,3055.0,2777.0,3.66,4.87,12.23,0.07,-0.09,-0.23,p
2967.0,2909.0,2896.0,4095.0,4095.0,3230.0,3055.0,2773.0,3.37,5.14,11.72,0.08,0.04,-0.16,p
2970.0,2897.0,2896.0,4095.0,4095.0,3225.0,3056.0,2775.0,3.42,4.98,12.37,-0.04,0.03,-0.07,p
2972.0,2910.0,2902.0,4095.0,4095.0,3220.0,3057.0,2780.0,3.61,4.79,12.46,0.08,0.07,-0.01,p
2961.0,2909.0,2911.0,4095.0,4095.0,3218.0,3055.0,2783.0,3.71,5.55,11.65,0.13,0.09,0.03,p
2975.0,2909.0,2901.0,4095.0,4095.0,3245.0,3057.0,2774.0,4.09,5.46,11.13,0.03,0.11,0.03,p
2983.0,2906.0,2903.0,4095.0,4095.0,3281.0,3049.0,2770.0,3.84,4.83,12.14,-0.19,0.18,-0.02,p
2975.0,2905.0,2907.0,4095.0,4095.0,3333.0,3051.0,2786.0,4.0,4.35,13.22,0.0,0.22,-0.09,p
2974.0,2917.0,2914.0,4095.0,4095.0,3311.0,3060.0,2783.0,3.41,4.69,12.58,-0.02,-0.04,-0.15,p
2966.0,2909.0,2910.0,4095.0,4095.0,3216.0,3061.0,2778.0,3.09,5.01,12.17,0.03,0.15,-0.11,p
2960.0,2901.0,2899.0,4095.0,4095.0,3184.0,3066.0,2778.0,3.51,4.9,12.48,0.05,0.13,-0.1,p
2963.0,2925.0,2907.0,4095.0,4095.0,3219.0,3065.0,2778.0,3.18,5.36,11.87,0.24,0.27,-0.27,p
2977.0,2923.0,2899.0,4095.0,4095.0,3257.0,3061.0,2785.0,3.49,5.48,11.68,-0.12,-0.11,-0.26,p
2978.0,2914.0,2907.0,4095.0,4095.0,3315.0,3025.0,2782.0,3.12,5.36,12.08,-0.1,-0.09,-0.35,p
2974.0,2912.0,2902.0,4095.0,4095.0,3367.0,3027.0,2781.0,3.08,5.56,12.09,-0.24,-0.07,-0.01,p
2983.0,2923.0,2909.0,4095.0,4095.0,3383.0,3052.0,2783.0,2.94,5.33,11.75,-0.17,0.04,-0.16,p
2965.0,2912.0,2900.0,4095.0,4095.0,3303.0,3056.0,2777.0,3.02,4.8,12.23,-0.42,-0.06,-0.16,p
2958.0,2913.0,2893.0,4095.0,4095.0,3252.0,3024.0,2752.0,4.18,4.29,12.86,-0.05,0.0,-0.2,p
2970.0,2913.0,2897.0,4095.0,4095.0,3263.0,3024.0,2749.0,3.81,4.15,12.44,-0.03,-0.06,-0.19,p
2976.0,2903.0,2897.0,4095.0,4095.0,3251.0,3024.0,2752.0,4.18,4.12,12.7,-0.01,-0.09,-0.09,p
2962.0,2912.0,2898.0,4095.0,4095.0,3229.0,3025.0,2752.0,4.4,3.96,12.59,0.09,0.02,-0.14,p
2973.0,2909.0,2906.0,4095.0,4095.0,3228.0,3027.0,2752.0,4.32,4.23,12.25,0.09,-0.01,-0.18,p
2966.0,2909.0,2896.0,4095.0,4095.0,3227.0,3026.0,2752.0,4.24,4.35,12.28,0.03,-0.01,-0.22,p
2967.0,2913.0,2891.0,4095.0,4095.0,3216.0,3024.0,2753.0,4.27,4.16,12.48,0.06,-0.05,-0.28,p
2953.0,2906.0,2897.0,4095.0,4095.0,3200.0,3024.0,2743.0,3.91,4.45,12.41,0.07,-0.04,-0.23,p
2963.0,2913.0,2906.0,4095.0,4095.0,3201.0,3024.0,2751.0,3.94,4.73,12.22,0.08,0.02,-0.14,p
2960.0,2913.0,2896.0,4095.0,4095.0,3201.0,3026.0,2751.0,3.85,4.81,11.84,0.1,0.01,-0.11,p
2961.0,2915.0,2906.0,4095.0,4095.0,3231.0,3034.0,2758.0,4.25,4.71,12.18,0.03,-0.0,-0.16,p
2969.0,2918.0,2895.0,4095.0,4095.0,3235.0,3023.0,2753.0,4.07,4.58,12.12,0.04,-0.01,-0.15,p
2967.0,2911.0,2898.0,4095.0,4095.0,3236.0,3029.0,2752.0,4.16,4.6,12.25,0.02,-0.02,-0.2,p
2957.0,2909.0,2887.0,4095.0,4095.0,3239.0,3024.0,2752.0,4.06,4.59,12.06,0.01,-0.04,-0.19,p
2960.0,2911.0,2896.0,4095.0,4095.0,3248.0,3033.0,2759.0,4.13,4.53,12.14,-0.07,-0.04,-0.14,p
2960.0,2911.0,2901.0,4095.0,4095.0,3248.0,3029.0,2757.0,4.3,4.42,12.35,-0.01,-0.03,-0.17,p
2974.0,2912.0,2899.0,4095.0,4095.0,3239.0,3026.0,2755.0,4.18,4.43,12.27,0.0,-0.07,-0.22,p
2964.0,2917.0,2896.0,4095.0,4095.0,3249.0,3031.0,2763.0,4.05,4.6,12.24,0.03,-0.07,-0.22,p
2960.0,2916.0,2901.0,4095.0,4095.0,3246.0,3024.0,2755.0,3.9,4.7,12.02,0.04,0.01,-0.16,p
2963.0,2913.0,2910.0,4095.0,4095.0,3253.0,3028.0,2755.0,4.13,4.71,12.06,-0.01,0.01,-0.14,p
2963.0,2909.0,2896.0,4095.0,4095.0,3235.0,3039.0,2763.0,4.08,4.63,12.24,-0.02,-0.05,-0.22,p
2960.0,2916.0,2898.0,4095.0,4095.0,3227.0,3030.0,2761.0,3.91,4.55,12.44,-0.01,0.0,-0.18,p
2966.0,2915.0,2900.0,4095.0,4095.0,3234.0,3033.0,2766.0,3.99,4.62,12.23,0.05,-0.0,-0.14,p
2957.0,2917.0,2899.0,4095.0,4095.0,3223.0,3035.0,2761.0,4.09,4.66,12.2,0.04,0.0,-0.12,p
2960.0,2913.0,2896.0,4095.0,4095.0,3213.0,3031.0,2764.0,4.13,4.78,11.83,0.05,-0.03,-0.16,p
2979.0,2925.0,2901.0,4095.0,4095.0,3214.0,3034.0,2768.0,4.25,4.76,11.99,0.0,-0.06,-0.19,p
2962.0,2915.0,2897.0,4095.0,4095.0,3205.0,3034.0,2762.0,4.07,4.72,12.08,-0.05,0.0,-0.14,p
2965.0,2911.0,2892.0,4095.0,4095.0,3201.0,3029.0,2768.0,4.07,4.58,12.29,-0.01,-0.06,-0.22,p
2971.0,2926.0,2899.0,4095.0,4095.0,3216.0,3031.0,2763.0,3.89,4.68,12.28,0.02,-0.03,-0.14,p
2965.0,2909.0,2903.0,4095.0,4095.0,3213.0,3030.0,2761.0,3.94,4.72,12.05,0.03,0.03,-0.01,p
2972.0,2917.0,2895.0,4095.0,4095.0,3216.0,3038.0,2768.0,4.25,4.69,11.89,-0.01,0.1,0.03,p
2962.0,2915.0,2896.0,4095.0,4095.0,3223.0,3039.0,2766.0,4.41,4.43,12.28,-0.0,0.09,-0.04,p
2960.0,2903.0,2896.0,4095.0,4095.0,3223.0,3031.0,2765.0,4.07,4.24,12.53,0.04,0.07,0.04,p
2969.0,2897.0,2897.0,4095.0,4095.0,3355.0,2960.0,2768.0,4.63,4.23,12.79,0.1,-0.09,-0.2,p
2975.0,2896.0,2896.0,4095.0,4095.0,3541.0,2940.0,2773.0,4.1,4.37,12.37,0.23,0.03,-0.29,p
2966.0,2901.0,2901.0,4095.0,4095.0,3642.0,2943.0,2753.0,3.79,4.84,11.84,0.13,0.01,-0.2,p
2951.0,2901.0,2889.0,4095.0,4095.0,3521.0,2960.0,2757.0,4.1,4.98,11.97,0.01,0.07,-0.11,p
2959.0,2896.0,2891.0,4095.0,4095.0,3375.0,2963.0,2742.0,4.1,4.68,11.92,-0.03,-0.02,-0.04,p
2963.0,2907.0,2896.0,4095.0,4095.0,3313.0,2975.0,2737.0,4.51,4.4,12.43,-0.06,-0.05,-0.07,p
2962.0,2910.0,2907.0,4095.0,4095.0,3358.0,2978.0,2736.0,4.44,4.57,12.14,0.09,0.02,-0.15,p
2986.0,2907.0,2893.0,4095.0,4095.0,3527.0,2960.0,2736.0,3.8,4.18,12.83,-0.48,-0.74,-1.57,p
2990.0,2901.0,2896.0,4095.0,4095.0,3492.0,2960.0,2736.0,0.64,4.72,13.08,-0.4,-0.25,-1.06,p
2982.0,2903.0,2880.0,4095.0,4095.0,3487.0,2961.0,2737.0,1.53,4.54,13.17,-0.37,-0.16,-0.31,p
2978.0,2914.0,2909.0,4095.0,4095.0,3490.0,2967.0,2737.0,4.64,4.09,11.94,-0.38,0.41,0.32,p
2983.0,2896.0,2895.0,4095.0,4095.0,3504.0,2960.0,2735.0,5.02,3.06,13.26,-0.38,0.38,-0.31,p
2994.0,2916.0,2897.0,4095.0,4095.0,3557.0,2963.0,2747.0,3.05,3.18,13.69,-0.23,-0.26,-0.72,p
2987.0,2912.0,2885.0,4095.0,4095.0,3603.0,2973.0,2743.0,1.05,4.16,13.65,-0.01,-0.04,-0.41,p
2989.0,2901.0,2899.0,4095.0,4095.0,3727.0,2963.0,2745.0,2.2,4.02,13.03,-0.05,-0.07,0.07,p
2996.0,2915.0,2883.0,4095.0,4095.0,3935.0,2950.0,2740.0,3.45,3.76,13.1,-0.1,0.09,0.27,p
3003.0,2902.0,2894.0,4095.0,4095.0,4063.0,2947.0,2739.0,4.16,3.24,13.22,0.06,0.02,0.08,p
2992.0,2917.0,2896.0,4095.0,4095.0,4095.0,2960.0,2739.0,3.86,3.63,13.02,0.15,-0.05,-0.11,p
2991.0,2908.0,2899.0,4095.0,4095.0,4007.0,2967.0,2751.0,3.41,3.91,12.51,0.09,-0.08,-0.12,p
2989.0,2902.0,2905.0,4095.0,4095.0,3634.0,2992.0,2753.0,3.65,3.77,12.8,0.02,-0.1,-0.15,p
2969.0,2925.0,2895.0,4095.0,4095.0,3456.0,3003.0,2755.0,3.74,3.72,12.96,0.02,-0.1,-0.16,p
2960.0,2914.0,2897.0,4095.0,4095.0,3321.0,3015.0,2754.0,3.75,3.65,12.96,0.05,-0.15,-0.24,p
2965.0,2911.0,2896.0,4095.0,4095.0,3292.0,3017.0,2754.0,3.66,3.88,12.67,0.03,-0.14,-0.28,p
2957.0,2909.0,2889.0,4095.0,4095.0,3319.0,3024.0,2753.0,3.89,3.85,12.92,0.1,-0.14,-0.35,p
2960.0,2911.0,2901.0,4095.0,4095.0,3461.0,3004.0,2763.0,3.74,3.98,12.79,0.12,-0.13,-0.38,p
2967.0,2912.0,2881.0,4095.0,4095.0,3733.0,2976.0,2763.0,3.69,4.22,12.32,0.1,-0.14,-0.36,p
2981.0,2903.0,2895.0,4095.0,4095.0,3978.0,2958.0,2756.0,3.95,4.09,12.77,0.04,-0.04,-0.24,p
3055.0,2902.0,2895.0,4095.0,4095.0,4095.0,2971.0,2778.0,4.51,3.28,12.98,-0.01,0.12,-0.18,p
3066.0,2911.0,2902.0,4095.0,4095.0,4095.0,2971.0,2768.0,3.94,3.47,12.47,-0.1,-0.1,-0.3,p
3045.0,2902.0,2896.0,4095.0,4095.0,4095.0,2992.0,2774.0,3.86,3.29,12.7,-0.22,-0.04,-0.18,p
2992.0,2917.0,2905.0,4095.0,4095.0,4036.0,2992.0,2773.0,3.87,3.01,13.29,-0.27,-0.15,-0.11,p
2982.0,2925.0,2901.0,4095.0,4095.0,3411.0,3015.0,2775.0,4.28,2.62,13.43,-0.07,-0.13,-0.06,p
2969.0,2921.0,2897.0,4095.0,4095.0,3311.0,3021.0,2775.0,4.28,2.83,13.09,0.08,-0.09,-0.15,p
2975.0,2912.0,2896.0,4095.0,4095.0,3298.0,3025.0,2774.0,4.3,3.18,12.8,0.16,-0.02,-0.14,p
2975.0,2927.0,2896.0,4095.0,4095.0,3355.0,3033.0,2779.0,4.14,3.17,12.87,0.22,0.01,-0.12,p
2975.0,2911.0,2896.0,4095.0,4095.0,3602.0,3012.0,2778.0,4.25,3.31,12.71,0.19,0.03,-0.14,p
2980.0,2914.0,2891.0,4095.0,4095.0,3808.0,3004.0,2779.0,4.0,3.39,12.73,0.13,0.05,-0.1,p
2989.0,2925.0,2901.0,4095.0,4095.0,3907.0,3010.0,2778.0,3.91,3.37,12.95,0.1,-0.0,-0.08,p
2974.0,2912.0,2896.0,4095.0,4095.0,3925.0,3008.0,2781.0,3.88,3.42,13.05,0.23,0.12,0.0,p
2977.0,2907.0,2903.0,4095.0,4095.0,3927.0,3022.0,2784.0,4.14,3.65,12.58,0.19,0.12,0.12,p
2976.0,2915.0,2903.0,4095.0,4095.0,3777.0,3025.0,2781.0,4.07,3.71,12.72,0.31,0.11,0.16,p
2981.0,2912.0,2895.0,4095.0,4095.0,3821.0,3023.0,2773.0,4.5,3.66,12.67,0.38,0.18,0.07,p
2998.0,2916.0,2894.0,4095.0,4095.0,3987.0,2993.0,2783.0,4.4,3.8,12.4,0.35,0.13,-0.09,p
3010.0,2912.0,2900.0,4095.0,4095.0,4095.0,2983.0,2783.0,4.11,3.8,12.53,0.21,0.12,-0.09,p
3017.0,2901.0,2905.0,4095.0,4095.0,4095.0,2988.0,2785.0,3.93,3.9,12.94,0.38,0.08,-0.19,p
3009.0,2915.0,2895.0,4095.0,4095.0,4095.0,2998.0,2784.0,3.72,4.27,12.26,0.26,0.13,-0.05,p
2992.0,2896.0,2897.0,4095.0,4095.0,4090.0,2999.0,2781.0,3.82,4.61,12.38,0.35,0.16,-0.1,p
2965.0,2914.0,2896.0,4095.0,4095.0,3637.0,3052.0,2790.0,4.39,3.95,12.63,-0.01,0.02,-0.18,p
2962.0,2914.0,2887.0,4095.0,4095.0,3649.0,3054.0,2790.0,3.98,3.86,12.81,0.1,-0.04,-0.27,p
2960.0,2914.0,2899.0,4095.0,4095.0,3641.0,3043.0,2785.0,4.06,4.12,12.38,0.11,0.02,-0.17,p
2967.0,2907.0,2910.0,4095.0,4095.0,3637.0,3051.0,2786.0,4.23,4.45,11.88,0.04,0.1,-0.09,p
2960.0,2913.0,2896.0,4095.0,4095.0,3632.0,3049.0,2782.0,4.37,4.06,12.45,-0.12,0.07,-0.15,p
2979.0,2915.0,2896.0,4095.0,4095.0,3647.0,3051.0,2787.0,3.94,3.89,12.79,0.01,0.04,-0.21,p
2963.0,2928.0,2899.0,4095.0,4095.0,3648.0,3049.0,2790.0,4.34,4.14,12.12,0.01,-0.01,-0.12,p
2960.0,2923.0,2909.0,4095.0,4095.0,3647.0,3041.0,2783.0,4.88,4.14,12.09,-0.24,0.05,-0.23,p
2961.0,2910.0,2897.0,4095.0,4095.0,3611.0,3043.0,2785.0,4.2,3.81,12.85,-0.18,-0.08,-0.43,p
2976.0,2915.0,2899.0,4095.0,4095.0,3598.0,3052.0,2786.0,3.17,4.11,12.63,-0.07,0.04,-0.31,p
2960.0,2918.0,2896.0,4095.0,4095.0,3571.0,3052.0,2785.0,3.43,4.03,12.73,-0.1,-0.04,-0.18,p
2971.0,2906.0,2886.0,4095.0,4095.0,3575.0,3050.0,2797.0,4.08,3.76,12.63,-0.13,-0.04,-0.16,p
2957.0,2925.0,2880.0,4095.0,4095.0,3564.0,3042.0,2794.0,4.24,3.68,12.98,-0.04,-0.02,-0.2,p
2962.0,2917.0,2898.0,4095.0,4095.0,3558.0,3050.0,2786.0,3.79,3.86,12.57,-0.1,-0.07,-0.14,p
2963.0,2917.0,2899.0,4095.0,4095.0,3539.0,3041.0,2789.0,3.87,3.81,12.96,-0.0,-0.01,-0.19,p
2967.0,2909.0,2896.0,4095.0,4095.0,3535.0,3042.0,2789.0,3.75,3.76,12.73,-0.01,-0.06,-0.15,p
2970.0,2916.0,2896.0,4095.0,4095.0,3531.0,3037.0,2794.0,4.03,3.71,12.81,-0.02,0.02,0.01,p
2989.0,2918.0,2889.0,4095.0,4095.0,3523.0,3035.0,2796.0,3.98,3.61,12.84,0.13,0.01,-0.07,p
2973.0,2912.0,2883.0,4095.0,4095.0,3477.0,3029.0,2793.0,4.34,3.79,12.52,0.0,-0.02,-0.06,p
2962.0,2910.0,2887.0,4095.0,4095.0,3472.0,3027.0,2787.0,4.31,3.81,12.43,0.07,-0.01,-0.15,p
2974.0,2910.0,2899.0,4095.0,4095.0,3555.0,3013.0,2809.0,3.98,4.4,12.85,0.21,-0.23,-0.58,p
2993.0,2897.0,2897.0,4095.0,4095.0,3568.0,3038.0,2832.0,3.81,4.32,13.2,0.78,-0.09,-0.88,p
2995.0,2913.0,2893.0,4095.0,4095.0,3583.0,3137.0,2887.0,3.05,4.97,13.03,1.52,-0.24,-1.16,p
2992.0,2907.0,2913.0,4095.0,4095.0,3583.0,3225.0,2943.0,3.37,5.97,10.78,1.78,-0.25,-1.14,p
3007.0,2906.0,2914.0,4095.0,4095.0,3578.0,3267.0,2951.0,3.1,7.51,8.97,1.06,-0.15,-0.72,p
3005.0,2911.0,2910.0,4095.0,4095.0,3568.0,3262.0,2957.0,3.26,7.73,8.8,0.01,-0.32,-0.29,p
3008.0,2910.0,2910.0,4095.0,4095.0,3583.0,3271.0,2958.0,3.17,7.21,10.49,-0.18,-0.06,-0.35,p
2999.0,2915.0,2911.0,4095.0,4095.0,3552.0,3223.0,2937.0,2.63,6.91,10.53,-0.32,-0.07,-0.11,p
2997.0,2918.0,2912.0,4095.0,4095.0,3573.0,3229.0,2945.0,3.14,6.73,11.3,-0.35,0.01,-0.0,p
2999.0,2907.0,2896.0,4095.0,4095.0,3617.0,3216.0,2935.0,2.58,6.65,11.03,-0.19,0.26,0.22,p
2982.0,2907.0,2910.0,4095.0,4095.0,3537.0,3152.0,2890.0,2.93,6.43,11.26,-0.36,0.68,0.38,p
2987.0,2898.0,2896.0,4095.0,4095.0,3449.0,2999.0,2783.0,3.25,6.24,11.34,-0.53,0.37,0.42,p
2989.0,2911.0,2895.0,4095.0,4095.0,3510.0,2961.0,2768.0,3.66,5.8,11.95,-0.48,0.02,0.25,p
2977.0,2923.0,2896.0,4095.0,4095.0,3501.0,2957.0,2755.0,3.93,5.44,12.04,-0.2,-0.25,-0.12,p
2973.0,2902.0,2896.0,4095.0,4095.0,3494.0,2954.0,2743.0,3.5,5.69,11.79,-0.13,-0.13,-0.18,p
2974.0,2919.0,2897.0,4095.0,4095.0,3500.0,2969.0,2750.0,3.64,5.75,11.58,-0.01,-0.11,-0.23,p
2961.0,2910.0,2883.0,4095.0,4095.0,3437.0,2965.0,2738.0,3.09,5.83,11.7,-0.08,0.08,-0.07,p
2965.0,2912.0,2896.0,4095.0,4095.0,3428.0,2971.0,2732.0,3.44,5.77,11.62,-0.06,-0.03,-0.09,p
2959.0,2918.0,2898.0,4095.0,4095.0,3398.0,2961.0,2708.0,3.35,5.73,11.84,-0.17,0.03,0.04,p
2967.0,2918.0,2896.0,4095.0,4095.0,3397.0,2959.0,2694.0,3.69,5.43,11.85,-0.14,0.0,-0.14,p
2971.0,2988.0,2896.0,4095.0,4095.0,3376.0,3066.0,2854.0,5.16,0.14,13.04,-0.04,-0.02,-0.16,p
2965.0,2978.0,2894.0,4095.0,4095.0,3359.0,3056.0,2849.0,5.07,0.06,13.1,0.05,-0.01,-0.2,p
2955.0,2978.0,2883.0,4095.0,4095.0,3365.0,3056.0,2854.0,4.81,0.21,12.97,0.0,-0.04,-0.19,p
2960.0,2970.0,2896.0,4095.0,4095.0,3353.0,3054.0,2847.0,5.06,0.21,13.0,0.02,-0.0,-0.16,p
2972.0,2969.0,2885.0,4095.0,4095.0,3367.0,3067.0,2854.0,5.21,0.34,12.77,0.01,0.0,-0.17,p
2965.0,2962.0,2885.0,4095.0,4095.0,3373.0,3061.0,2855.0,5.17,0.33,12.77,-0.01,-0.0,-0.23,p
2965.0,2979.0,2895.0,4095.0,4095.0,3367.0,3056.0,2854.0,4.95,0.24,12.98,-0.11,0.01,-0.23,p
2967.0,2961.0,2897.0,4095.0,4095.0,3362.0,3059.0,2859.0,4.92,0.12,12.93,-0.07,-0.01,-0.22,p
2963.0,2987.0,2886.0,4095.0,4095.0,3335.0,3059.0,2854.0,5.06,0.04,13.01,-0.1,0.03,-0.17,p
2960.0,2973.0,2883.0,4095.0,4095.0,3290.0,3055.0,2851.0,5.14,-0.27,13.11,-0.05,0.02,-0.18,p
2961.0,2983.0,2897.0,4095.0,4095.0,3254.0,3071.0,2851.0,5.0,-0.14,12.94,-0.05,0.02,-0.18,p
2961.0,2979.0,2883.0,4095.0,4095.0,3261.0,3053.0,2854.0,5.03,0.0,13.01,0.0,0.05,-0.19,p
2973.0,2973.0,2885.0,4095.0,4095.0,3269.0,3053.0,2854.0,5.02,-0.04,13.09,-0.01,0.07,-0.2,p
2967.0,2976.0,2889.0,4095.0,4095.0,3274.0,3057.0,2853.0,4.84,0.2,12.94,-0.02,0.05,-0.17,p
2963.0,2973.0,2895.0,4095.0,4095.0,3278.0,3056.0,2853.0,4.78,0.12,13.14,-0.04,0.08,-0.16,p
2975.0,2979.0,2887.0,4095.0,4095.0,3287.0,3055.0,2854.0,4.62,-0.08,13.26,-0.02,0.03,-0.17,p
2962.0,2961.0,2890.0,4095.0,4095.0,3282.0,3059.0,2851.0,4.75,-0.01,13.19,0.0,0.01,-0.17,p
2967.0,2977.0,2882.0,4095.0,4095.0,3296.0,3056.0,2858.0,4.74,0.04,13.08,0.04,0.02,-0.13,p
2970.0,2975.0,2896.0,4095.0,4095.0,3271.0,3058.0,2859.0,4.77,0.02,13.04,-0.05,-0.04,-0.08,p
2956.0,2971.0,2893.0,4095.0,4095.0,3228.0,3053.0,2853.0,4.98,-0.21,13.23,-0.02,-0.02,-0.13,p
2966.0,2973.0,2896.0,4095.0,4095.0,3468.0,3069.0,2863.0,4.64,-0.13,12.94,0.01,0.04,-0.13,p
2959.0,2967.0,2896.0,4095.0,4095.0,3461.0,3063.0,2861.0,5.05,-0.07,12.98,-0.04,0.08,-0.11,p
2959.0,2976.0,2890.0,4095.0,4095.0,3458.0,3069.0,2861.0,4.72,-0.11,13.11,-0.03,-0.01,-0.15,p
2973.0,2966.0,2896.0,4095.0,4095.0,3452.0,3079.0,2865.0,4.88,-0.28,13.21,0.01,0.06,-0.1,p
2960.0,2967.0,2889.0,4095.0,4095.0,3450.0,3069.0,2854.0,4.85,-0.16,13.02,0.05,-0.02,-0.12,p
2975.0,2958.0,2893.0,4095.0,4095.0,3482.0,3063.0,2851.0,4.78,-0.09,12.86,0.0,0.01,-0.06,p
2962.0,2957.0,2895.0,4095.0,4095.0,3506.0,3056.0,2817.0,4.59,0.01,12.49,-0.27,0.04,0.1,p
2960.0,2969.0,2896.0,4095.0,4095.0,3536.0,3066.0,2806.0,5.26,-0.69,13.72,-0.08,0.21,0.22,p
2975.0,2960.0,2895.0,4095.0,4095.0,3559.0,3067.0,2800.0,5.18,-0.82,13.43,0.16,-0.18,-0.26,p
2982.0,2941.0,2883.0,4095.0,4095.0,3695.0,3069.0,2800.0,4.75,-0.32,13.48,0.67,0.14,-0.57,p
2976.0,2943.0,2897.0,4095.0,4095.0,3939.0,3087.0,2805.0,4.56,0.48,13.11,0.89,0.06,-0.69,p
2993.0,2935.0,2893.0,4095.0,4095.0,4095.0,3094.0,2819.0,4.06,1.1,12.94,0.77,-0.02,-0.65,p
2992.0,2927.0,2887.0,4095.0,4095.0,4095.0,3087.0,2811.0,4.7,1.17,12.88,0.28,-0.12,-0.5,p
3012.0,2931.0,2884.0,4095.0,4095.0,4095.0,3088.0,2815.0,4.37,1.38,12.72,0.22,0.03,-0.21,p
3047.0,2928.0,2893.0,4095.0,4095.0,4095.0,3093.0,2814.0,4.1,1.64,12.93,-0.01,0.02,-0.01,p
3040.0,2914.0,2889.0,4095.0,4095.0,4095.0,3094.0,2815.0,4.68,1.3,13.11,-0.18,0.04,0.0,p
3034.0,2926.0,2893.0,4095.0,4095.0,4095.0,3088.0,2818.0,4.5,1.22,12.82,-0.33,0.03,0.07,p
3013.0,2914.0,2901.0,4095.0,4095.0,4095.0,3083.0,2825.0,4.57,0.89,13.28,-0.45,0.01,0.13,p
2995.0,2919.0,2892.0,4095.0,4095.0,4092.0,3083.0,2826.0,4.47,0.64,13.4,-0.25,-0.13,0.13,p
2987.0,2928.0,2896.0,4095.0,4095.0,3975.0,3071.0,2832.0,5.02,0.27,13.53,-0.08,0.05,0.02,p
2982.0,2927.0,2883.0,4095.0,4095.0,3469.0,3015.0,2837.0,4.38,0.06,13.01,-0.47,-0.11,0.04,p
2965.0,2927.0,2879.0,4095.0,4095.0,3441.0,3008.0,2843.0,4.8,-0.33,13.51,-0.39,-0.0,0.05,p
2987.0,2928.0,2896.0,4095.0,4095.0,3470.0,3019.0,2847.0,4.92,-0.74,14.01,0.05,-0.06,-0.26,p
2981.0,2920.0,2887.0,4095.0,4095.0,3599.0,3014.0,2836.0,5.04,-0.55,13.81,0.9,0.1,-0.56,p
2993.0,2927.0,2891.0,4095.0,4095.0,3781.0,3034.0,2843.0,3.93,0.53,12.5,0.76,-0.05,-0.44,p
2995.0,2906.0,2895.0,4095.0,4095.0,3891.0,3041.0,2839.0,4.61,0.99,12.79,0.29,0.07,-0.13,p
3008.0,2934.0,2891.0,4095.0,4095.0,4095.0,3040.0,2839.0,4.65,0.66,12.9,0.1,0.02,-0.14,p
3035.0,2927.0,2886.0,4095.0,4095.0,4095.0,3047.0,2845.0,4.7,0.59,13.42,0.17,0.07,-0.27,p
3035.0,2911.0,2879.0,4095.0,4095.0,4095.0,3049.0,2842.0,4.61,0.83,13.2,0.29,0.01,-0.3,p
3026.0,2913.0,2888.0,4095.0,4095.0,4095.0,3047.0,2839.0,4.16,1.18,12.82,-0.09,0.03,-0.12,p
3024.0,2918.0,2889.0,4095.0,4095.0,4095.0,3044.0,2847.0,4.63,0.94,13.26,-0.21,-0.03,-0.07,p
3034.0,2919.0,2890.0,4095.0,4095.0,4095.0,3047.0,2845.0,4.47,0.67,12.93,-0.36,-0.15,-0.0,p
3012.0,2924.0,2896.0,4095.0,4095.0,4095.0,3053.0,2851.0,4.71,0.5,13.56,-0.11,0.03,-0.12,p
3014.0,2912.0,2897.0,4095.0,4095.0,4095.0,3046.0,2847.0,4.09,0.54,12.84,-0.2,-0.03,0.02,p
3009.0,2921.0,2887.0,4095.0,4095.0,4085.0,3047.0,2847.0,4.61,0.58,12.64,-0.65,-0.09,0.44,p
2995.0,2914.0,2890.0,4095.0,4095.0,4031.0,3044.0,2851.0,4.62,-0.21,13.63,-0.53,-0.05,0.11,p
3007.0,2909.0,2892.0,4095.0,4095.0,3971.0,3050.0,2857.0,4.83,-0.74,13.14,-0.42,-0.14,0.01,p
3008.0,2906.0,2882.0,4095.0,4095.0,4001.0,3041.0,2850.0,4.81,-0.74,13.56,-0.15,-0.04,-0.21,p
3003.0,2918.0,2887.0,4095.0,4095.0,4026.0,3038.0,2855.0,5.06,-0.82,13.52,0.07,0.04,-0.27,p
2999.0,2922.0,2883.0,4095.0,4095.0,4018.0,3053.0,2857.0,4.74,-0.41,14.05,0.87,0.16,-0.66,p
2990.0,2918.0,2897.0,4095.0,4095.0,3998.0,3039.0,2821.0,4.63,0.27,13.1,0.11,-0.01,-0.16,p
2985.0,2925.0,2896.0,4095.0,4095.0,4063.0,3050.0,2832.0,4.81,0.46,13.11,0.09,0.02,-0.18,p
2992.0,2927.0,2909.0,4095.0,4095.0,4035.0,3056.0,2835.0,4.41,0.6,12.66,-0.17,-0.05,0.05,p
2985.0,2929.0,2899.0,4095.0,4095.0,4046.0,3053.0,2840.0,4.74,0.13,13.52,-0.08,-0.0,-0.13,p
2992.0,2919.0,2887.0,4095.0,4095.0,4034.0,3050.0,2835.0,4.85,0.13,12.7,-0.31,0.1,-0.05,p
2983.0,2922.0,2898.0,4095.0,4095.0,4003.0,3041.0,2833.0,4.77,-0.12,13.95,-0.26,0.02,-0.11,p
2987.0,2919.0,2896.0,4095.0,4095.0,4028.0,3053.0,2838.0,4.17,-0.21,13.14,0.08,0.09,-0.1,p
2983.0,2913.0,2887.0,4095.0,4095.0,3988.0,3056.0,2839.0,4.56,-0.11,13.48,-0.04,-0.04,-0.11,p
2974.0,2926.0,2885.0,4095.0,4095.0,3965.0,3053.0,2840.0,4.57,-0.11,13.13,0.19,-0.05,-0.18,p
2978.0,2927.0,2885.0,4095.0,4095.0,3904.0,3055.0,2842.0,4.78,0.11,13.1,0.0,-0.1,-0.16,p
2981.0,2922.0,2899.0,4095.0,4095.0,3875.0,3049.0,2851.0,5.04,-0.06,13.29,0.1,-0.11,-0.28,p
2973.0,2916.0,2893.0,4095.0,4095.0,3849.0,3051.0,2843.0,4.59,0.15,12.93,0.05,0.12,-0.25,p
2987.0,2912.0,2882.0,4095.0,4095.0,3830.0,3044.0,2842.0,4.41,0.12,13.27,-0.13,0.13,-0.07,p
2975.0,2914.0,2896.0,4095.0,4095.0,3857.0,3056.0,2845.0,4.38,-0.07,13.37,-0.06,0.08,-0.12,p
2988.0,2927.0,2890.0,4095.0,4095.0,3844.0,3056.0,2846.0,4.41,-0.16,13.22,-0.09,0.0,-0.09,p
2983.0,2913.0,2899.0,4095.0,4095.0,3849.0,3056.0,2839.0,4.56,-0.17,13.6,0.01,-0.03,-0.15,p
2973.0,2914.0,2880.0,4095.0,4095.0,3830.0,3055.0,2845.0,4.19,0.03,12.85,0.01,-0.02,-0.12,p
2990.0,2923.0,2896.0,4095.0,4095.0,3843.0,3060.0,2850.0,4.56,0.6,13.05,-0.2,-0.08,-0.0,p
2995.0,2914.0,2897.0,4095.0,4095.0,3846.0,3071.0,2849.0,3.72,0.19,12.9,-0.44,-0.13,0.1,p
2971.0,2922.0,2884.0,4095.0,4095.0,3819.0,3062.0,2847.0,4.18,-0.6,13.34,-0.48,-0.04,0.39,p
2977.0,2960.0,2893.0,4095.0,4095.0,3068.0,3020.0,2890.0,4.99,-0.49,13.07,-0.05,-0.14,-0.3,p
2977.0,2960.0,2893.0,4095.0,4095.0,3068.0,3020.0,2890.0,4.99,-0.49,13.07,-0.05,-0.14,-0.3,p
2960.0,2951.0,2896.0,4095.0,4095.0,3104.0,3024.0,2889.0,4.55,-0.61,12.93,0.12,0.03,-0.18,p
2963.0,2970.0,2905.0,4095.0,4095.0,3119.0,3028.0,2894.0,4.83,-0.76,12.97,-0.05,0.01,-0.11,p
2965.0,2957.0,2883.0,4095.0,4095.0,3117.0,3031.0,2896.0,5.06,-0.78,12.95,-0.05,0.09,-0.02,p
2966.0,2953.0,2893.0,4095.0,4095.0,3119.0,3029.0,2897.0,4.97,-1.03,12.95,-0.08,-0.06,-0.15,p
2964.0,2950.0,2887.0,4095.0,4095.0,3123.0,3026.0,2895.0,4.85,-1.15,13.29,-0.11,-0.02,-0.19,p
2959.0,2965.0,2891.0,4095.0,4095.0,3130.0,3027.0,2897.0,4.56,-0.92,12.93,0.04,0.01,-0.17,p
2963.0,2963.0,2889.0,4095.0,4095.0,3123.0,3024.0,2897.0,4.77,-0.8,12.82,-0.05,0.02,-0.03,p
2962.0,2941.0,2883.0,4095.0,4095.0,3119.0,3025.0,2896.0,4.97,-1.19,13.09,-0.11,0.04,-0.14,p
2960.0,2946.0,2897.0,4095.0,4095.0,3121.0,3031.0,2896.0,4.92,-1.13,13.24,0.03,-0.01,-0.21,p
2974.0,2951.0,2894.0,4095.0,4095.0,3134.0,3019.0,2897.0,4.81,-1.0,13.06,0.13,-0.07,-0.24,p
2961.0,2951.0,2891.0,4095.0,4095.0,3135.0,3024.0,2886.0,4.91,-0.83,12.85,0.16,-0.05,-0.24,p
2964.0,2945.0,2891.0,4095.0,4095.0,3136.0,3027.0,2891.0,4.88,-0.78,12.85,0.0,0.03,-0.13,p
2980.0,2944.0,2894.0,4095.0,4095.0,3142.0,3024.0,2894.0,4.85,-0.78,13.04,0.01,-0.03,-0.18,p
2961.0,2931.0,2896.0,4095.0,4095.0,3141.0,3025.0,2895.0,4.64,-1.05,13.02,-0.02,0.06,-0.15,p
2965.0,2960.0,2889.0,4095.0,4095.0,3151.0,3031.0,2896.0,4.94,-0.77,13.07,0.06,0.07,-0.12,p
2958.0,2953.0,2894.0,4095.0,4095.0,3142.0,3026.0,2895.0,4.86,-0.84,12.79,-0.04,-0.04,-0.16,p
2962.0,2957.0,2879.0,4095.0,4095.0,3145.0,3024.0,2895.0,4.9,-1.01,13.35,0.04,-0.0,-0.19,p
2972.0,2944.0,2887.0,4095.0,4095.0,3143.0,3035.0,2890.0,4.87,-0.75,12.75,0.04,-0.01,-0.18,p
2973.0,2935.0,2892.0,4095.0,4095.0,3265.0,3071.0,2913.0,5.15,-0.83,13.01,0.04,0.02,-0.12,p
2970.0,2928.0,2892.0,4095.0,4095.0,3260.0,3067.0,2910.0,5.27,-0.99,13.08,0.03,-0.02,-0.18,p
2971.0,2937.0,2887.0,4095.0,4095.0,3258.0,3071.0,2915.0,5.27,-0.65,13.03,0.11,0.0,-0.23,p
2969.0,2947.0,2896.0,4095.0,4095.0,3246.0,3071.0,2910.0,5.15,-0.06,12.47,0.1,0.05,-0.2,p
2959.0,2938.0,2894.0,4095.0,4095.0,3245.0,3071.0,2917.0,4.95,-0.08,12.68,-0.08,0.04,-0.18,p
2967.0,2934.0,2887.0,4095.0,4095.0,3237.0,3061.0,2919.0,4.98,-0.49,12.99,-0.06,0.01,-0.19,p
2966.0,2938.0,2890.0,4095.0,4095.0,3235.0,3081.0,2918.0,5.03,-0.6,13.08,-0.01,0.03,-0.16,p
2964.0,2955.0,2893.0,4095.0,4095.0,3245.0,3069.0,2922.0,5.06,-0.59,12.93,-0.03,-0.01,-0.14,p
2973.0,2945.0,2891.0,4095.0,4095.0,3234.0,3071.0,2918.0,5.12,-0.53,12.92,0.03,-0.01,-0.15,p
2960.0,2935.0,2893.0,4095.0,4095.0,3232.0,3071.0,2919.0,5.22,-0.46,12.74,0.02,0.01,-0.12,p
2967.0,2941.0,2898.0,4095.0,4095.0,3239.0,3087.0,2919.0,5.25,-0.55,12.84,0.0,-0.08,-0.2,p
2974.0,2937.0,2894.0,4095.0,4095.0,3229.0,3071.0,2915.0,5.14,-0.66,13.0,0.06,-0.03,-0.22,p
2971.0,2933.0,2884.0,4095.0,4095.0,3231.0,3081.0,2919.0,5.25,-0.64,12.94,0.01,-0.04,-0.18,p
2960.0,2937.0,2885.0,4095.0,4095.0,3230.0,3071.0,2913.0,5.12,-0.42,12.9,0.14,-0.03,-0.18,p
2974.0,2931.0,2896.0,4095.0,4095.0,3222.0,3081.0,2918.0,5.21,-0.29,12.67,0.01,-0.02,-0.15,p
2973.0,2941.0,2896.0,4095.0,4095.0,3223.0,3071.0,2925.0,5.29,-0.3,12.77,0.02,-0.03,-0.19,p
2964.0,2943.0,2896.0,4095.0,4095.0,3222.0,3069.0,2914.0,5.07,-0.39,12.69,-0.08,-0.03,-0.11,p
2967.0,2946.0,2887.0,4095.0,4095.0,3229.0,3071.0,2916.0,5.11,-0.51,13.09,-0.08,0.05,-0.09,p
2987.0,2947.0,2891.0,4095.0,4095.0,3229.0,3085.0,2921.0,5.13,-0.63,12.89,0.01,0.04,-0.04,p
2955.0,2924.0,2891.0,4095.0,4095.0,3232.0,3071.0,2916.0,5.2,-0.6,12.96,0.03,0.02,-0.08,p
2970.0,2928.0,2899.0,4095.0,4095.0,3376.0,3036.0,2833.0,5.16,-0.44,13.0,-0.16,-0.14,-0.05,p
2974.0,2927.0,2885.0,4095.0,4095.0,3363.0,3031.0,2824.0,5.22,-0.58,13.08,-0.01,-0.03,-0.19,p
2972.0,2929.0,2880.0,4095.0,4095.0,3405.0,3034.0,2823.0,5.2,-0.38,12.94,0.11,-0.05,-0.18,p
2980.0,2923.0,2881.0,4095.0,4095.0,3423.0,3043.0,2829.0,5.27,-0.4,12.63,0.12,-0.04,-0.22,p
2976.0,2927.0,2896.0,4095.0,4095.0,3453.0,3047.0,2831.0,5.2,-0.57,13.09,0.05,0.04,-0.17,p
2963.0,2921.0,2886.0,4095.0,4095.0,3437.0,3047.0,2825.0,5.49,-0.74,13.52,0.22,0.11,-0.31,p
2976.0,2925.0,2895.0,4095.0,4095.0,3441.0,3045.0,2821.0,5.51,-0.47,13.23,0.41,0.08,-0.48,p
2982.0,2926.0,2880.0,4095.0,4095.0,3431.0,3055.0,2827.0,5.27,0.17,12.83,0.63,-0.0,-0.59,p
2976.0,2928.0,2883.0,4095.0,4095.0,3423.0,3053.0,2821.0,4.84,0.91,12.46,0.63,-0.07,-0.54,p
2973.0,2928.0,2880.0,4095.0,4095.0,3426.0,3045.0,2818.0,4.59,1.44,12.13,0.17,-0.05,-0.25,p
2967.0,2922.0,2885.0,4095.0,4095.0,3423.0,3043.0,2815.0,4.95,1.17,12.83,-0.08,-0.01,-0.09,p
2971.0,2927.0,2886.0,4095.0,4095.0,3332.0,3055.0,2819.0,4.64,0.89,12.43,-0.36,-0.1,0.2,p
2972.0,2925.0,2882.0,4095.0,4095.0,3310.0,3042.0,2821.0,5.03,0.47,13.07,-0.68,0.14,0.3,p
2963.0,2943.0,2891.0,4095.0,4095.0,3311.0,3047.0,2827.0,5.95,-0.7,13.74,-0.1,-0.13,-0.07,p
2975.0,2928.0,2894.0,4095.0,4095.0,3349.0,3049.0,2830.0,4.74,0.11,12.67,0.12,0.02,-0.06,p
2965.0,2928.0,2881.0,4095.0,4095.0,3438.0,3055.0,2832.0,5.48,0.23,12.99,-0.22,0.07,0.02,p
2992.0,2927.0,2880.0,4095.0,4095.0,3615.0,3047.0,2825.0,5.1,-0.02,12.83,0.15,0.0,-0.06,p
2981.0,2924.0,2887.0,4095.0,4095.0,3778.0,3049.0,2828.0,5.09,-0.11,12.97,-0.13,0.02,-0.14,p
2992.0,2928.0,2895.0,4095.0,4095.0,3918.0,3063.0,2837.0,5.31,-0.11,13.18,0.13,-0.02,-0.15,p
2986.0,2927.0,2881.0,4095.0,4095.0,3969.0,3065.0,2831.0,4.96,0.02,12.7,0.05,-0.1,-0.18,p
2960.0,2939.0,2896.0,4095.0,4095.0,3598.0,3115.0,2894.0,5.69,-0.15,12.81,0.07,-0.15,-0.34,p
2966.0,2929.0,2880.0,4095.0,4095.0,3567.0,3108.0,2896.0,5.39,-0.0,12.36,-0.02,-0.18,-0.37,p
2951.0,2928.0,2896.0,4095.0,4095.0,3568.0,3113.0,2898.0,5.59,0.15,12.71,-0.04,0.11,-0.06,p
2970.0,2927.0,2885.0,4095.0,4095.0,3568.0,3110.0,2896.0,5.54,-0.19,12.81,0.07,0.07,-0.18,p
2966.0,2928.0,2896.0,4095.0,4095.0,3575.0,3115.0,2898.0,5.49,-0.06,12.56,0.05,0.2,-0.05,p
2955.0,2928.0,2886.0,4095.0,4095.0,3571.0,3106.0,2898.0,5.41,0.03,12.73,-0.12,0.04,-0.16,p
2977.0,2938.0,2897.0,4095.0,4095.0,3568.0,3117.0,2891.0,5.3,0.02,12.57,-0.09,0.11,0.03,p
2982.0,2927.0,2889.0,4095.0,4095.0,3557.0,3109.0,2892.0,5.17,0.03,12.92,-0.04,0.04,-0.01,p
2953.0,2927.0,2879.0,4095.0,4095.0,3556.0,3106.0,2891.0,5.52,-0.51,12.84,0.04,-0.02,-0.08,p
2960.0,2934.0,2881.0,4095.0,4095.0,3557.0,3118.0,2895.0,5.45,-0.31,12.92,0.04,-0.08,-0.13,p
2960.0,2933.0,2883.0,4095.0,4095.0,3550.0,3119.0,2897.0,5.48,-0.31,12.73,0.03,-0.08,-0.2,p
2955.0,2931.0,2879.0,4095.0,4095.0,3550.0,3122.0,2900.0,5.58,-0.26,12.95,0.06,-0.02,-0.22,p
2963.0,2928.0,2896.0,4095.0,4095.0,3571.0,3120.0,2902.0,5.39,-0.04,12.64,0.12,-0.01,-0.16,p
2962.0,2925.0,2891.0,4095.0,4095.0,3573.0,3118.0,2897.0,5.32,-0.01,12.75,0.08,0.11,-0.16,p
2963.0,2927.0,2897.0,4095.0,4095.0,3605.0,3120.0,2897.0,5.34,-0.04,12.75,0.11,0.08,-0.2,p
2963.0,2928.0,2900.0,4095.0,4095.0,3639.0,3120.0,2901.0,5.28,0.16,12.43,-0.03,0.09,-0.12,p
2971.0,2928.0,2886.0,4095.0,4095.0,3664.0,3120.0,2895.0,5.36,-0.08,12.8,-0.17,0.0,-0.16,p
2971.0,2933.0,2896.0,4095.0,4095.0,3695.0,3117.0,2896.0,5.35,-0.35,13.01,-0.03,0.16,-0.1,p
2958.0,2928.0,2893.0,4095.0,4095.0,3693.0,3120.0,2891.0,5.03,-0.25,13.09,0.01,-0.01,-0.22,p
2972.0,2923.0,2887.0,4095.0,4095.0,3689.0,3115.0,2893.0,4.9,-0.02,12.68,0.0,-0.03,-0.12,p
