hall_1,hall_2,hall_3,flex_t,flex_i,flex_m,flex_r,flex_p,accel_x,accel_y,accel_z,gyro_x,gyro_y,gyro_z,hand,sign
3062.0,3010.0,3006.0,4095.0,4095.0,3255.0,2803.0,2621.0,1.88,2.75,13.65,-0.01,-0.02,-0.15,0.0,p
3069.0,3003.0,2993.0,4095.0,4095.0,3248.0,2799.0,2612.0,2.0,2.75,13.59,0.02,0.03,-0.11,0.0,p
3061.0,3007.0,2978.0,4095.0,4095.0,3247.0,2800.0,2614.0,2.02,2.85,13.51,-0.0,0.04,-0.12,0.0,p
3066.0,2998.0,2997.0,4095.0,4095.0,3254.0,2802.0,2621.0,1.82,3.15,13.36,-0.15,0.05,-0.13,0.0,p
3054.0,2993.0,2978.0,4095.0,4095.0,3248.0,2799.0,2614.0,1.7,2.54,13.76,-0.23,0.05,-0.01,0.0,p
3061.0,2995.0,2994.0,4095.0,4095.0,3266.0,2806.0,2618.0,1.98,1.81,13.93,-0.18,0.01,-0.04,0.0,p
3050.0,2992.0,2982.0,4095.0,4095.0,3274.0,2801.0,2620.0,1.83,1.92,13.97,-0.1,0.0,-0.11,0.0,p
3054.0,3010.0,2990.0,4095.0,4095.0,3278.0,2800.0,2615.0,1.9,1.85,14.0,-0.03,0.06,-0.0,0.0,p
3051.0,2995.0,2985.0,4095.0,4095.0,3275.0,2802.0,2613.0,1.94,1.76,13.95,-0.05,0.03,-0.08,0.0,p
3057.0,2996.0,2992.0,4095.0,4095.0,3287.0,2810.0,2619.0,1.72,1.65,14.08,0.04,0.03,-0.12,0.0,p
3058.0,3007.0,2993.0,4095.0,4095.0,3279.0,2803.0,2619.0,1.77,1.91,13.84,0.08,0.02,-0.16,0.0,p
3061.0,2998.0,2993.0,4095.0,4095.0,3279.0,2811.0,2620.0,1.88,1.92,13.7,0.03,-0.0,-0.19,0.0,p
3049.0,2997.0,2983.0,4095.0,4095.0,3287.0,2810.0,2619.0,1.83,1.73,14.1,0.04,0.0,-0.24,0.0,p
3056.0,2993.0,2992.0,4095.0,4095.0,3273.0,2800.0,2619.0,1.72,1.7,14.15,0.13,0.02,-0.24,0.0,p
3054.0,3016.0,2991.0,4095.0,4095.0,3277.0,2809.0,2627.0,1.56,2.3,13.79,0.22,0.02,-0.26,0.0,p
3045.0,2998.0,2987.0,4095.0,4095.0,3277.0,2803.0,2621.0,1.49,2.49,13.74,0.17,0.01,-0.2,0.0,p
3056.0,3007.0,2995.0,4095.0,4095.0,3277.0,2810.0,2626.0,1.69,2.57,13.8,0.15,0.02,-0.21,0.0,p
3046.0,2997.0,2981.0,4095.0,4095.0,3257.0,2800.0,2621.0,1.48,2.8,13.66,0.13,0.02,-0.25,0.0,p
3051.0,3010.0,2999.0,4095.0,4095.0,3254.0,2803.0,2624.0,1.35,2.82,13.75,0.07,0.01,-0.2,0.0,p
3045.0,2995.0,2987.0,4095.0,4095.0,3261.0,2805.0,2621.0,1.5,2.68,13.8,0.09,-0.0,-0.13,0.0,p
3050.0,3001.0,2987.0,4095.0,4095.0,3255.0,2813.0,2634.0,1.65,3.06,13.66,0.04,-0.01,-0.1,0.0,p
3051.0,3013.0,2995.0,4095.0,4095.0,3253.0,2814.0,2640.0,1.58,3.16,13.55,0.01,-0.02,-0.18,0.0,p
3055.0,2997.0,3003.0,4095.0,4095.0,3246.0,2810.0,2634.0,1.38,3.07,13.69,0.02,0.01,-0.18,0.0,p
3053.0,3002.0,3000.0,4095.0,4095.0,3233.0,2820.0,2640.0,1.77,3.0,13.59,0.04,0.0,-0.19,0.0,p
3056.0,2993.0,2994.0,4095.0,4095.0,3234.0,2818.0,2631.0,1.33,3.25,13.56,0.08,-0.02,-0.21,0.0,p
3066.0,3019.0,2992.0,4095.0,4095.0,3238.0,2818.0,2640.0,1.38,3.34,13.52,0.06,-0.03,-0.13,0.0,p
3056.0,2992.0,2986.0,4095.0,4095.0,3229.0,2815.0,2631.0,1.52,3.27,13.59,0.04,-0.03,-0.1,0.0,p
3066.0,3015.0,3006.0,4095.0,4095.0,3248.0,2821.0,2640.0,1.56,3.22,13.68,0.09,-0.03,-0.11,0.0,p
3051.0,3008.0,2996.0,4095.0,4095.0,3233.0,2811.0,2637.0,1.54,3.43,13.41,0.12,-0.04,-0.11,0.0,p
3056.0,3005.0,2991.0,4095.0,4095.0,3247.0,2822.0,2640.0,1.79,3.54,13.36,0.07,-0.01,-0.12,0.0,p
3056.0,2998.0,3002.0,4095.0,4095.0,3247.0,2819.0,2641.0,1.64,3.52,13.43,0.02,-0.02,-0.18,0.0,p
3065.0,2999.0,2994.0,4095.0,4095.0,3237.0,2816.0,2640.0,1.57,3.55,13.46,0.06,-0.01,-0.17,0.0,p
3054.0,3022.0,3001.0,4095.0,4095.0,3241.0,2817.0,2642.0,1.67,3.61,13.43,0.04,0.0,-0.12,0.0,p
3062.0,2993.0,2990.0,4095.0,4095.0,3245.0,2815.0,2640.0,1.79,3.56,13.35,0.02,-0.0,-0.15,0.0,p
3054.0,3009.0,3002.0,4095.0,4095.0,3248.0,2822.0,2642.0,1.56,3.58,13.45,0.02,0.01,-0.16,0.0,p
3059.0,3011.0,2991.0,4095.0,4095.0,3235.0,2815.0,2642.0,1.64,3.53,13.41,0.01,0.0,-0.14,0.0,p
3061.0,3019.0,2999.0,4095.0,4095.0,3248.0,2819.0,2649.0,1.65,3.54,13.47,0.03,-0.01,-0.15,0.0,p
3063.0,2997.0,2990.0,4095.0,4095.0,3239.0,2814.0,2643.0,1.7,3.63,13.41,0.04,0.01,-0.13,0.0,p
3056.0,3002.0,2998.0,4095.0,4095.0,3248.0,2817.0,2650.0,1.71,3.64,13.38,0.0,-0.01,-0.18,0.0,p
3056.0,3010.0,2994.0,4095.0,4095.0,3242.0,2815.0,2643.0,1.64,3.64,13.42,-0.01,-0.01,-0.2,0.0,p
3050.0,3008.0,2991.0,4095.0,4095.0,3205.0,2833.0,2661.0,1.5,3.48,13.48,-0.01,-0.02,-0.17,0.0,p
3081.0,3010.0,2995.0,4095.0,4095.0,3207.0,2839.0,2671.0,1.53,3.48,13.52,0.04,-0.02,-0.13,0.0,p
3056.0,2997.0,2989.0,4095.0,4095.0,3203.0,2835.0,2667.0,1.75,3.58,13.41,0.02,0.02,-0.12,0.0,p
3046.0,3002.0,2995.0,4095.0,4095.0,3205.0,2835.0,2666.0,1.55,3.52,13.46,0.03,0.02,-0.16,0.0,p
3057.0,2992.0,2994.0,4095.0,4095.0,3215.0,2834.0,2663.0,1.52,3.55,13.47,0.01,0.01,-0.14,0.0,p
3059.0,3008.0,2983.0,4095.0,4095.0,3214.0,2843.0,2669.0,1.61,3.46,13.48,0.01,-0.04,-0.19,0.0,p
3054.0,3005.0,3006.0,4095.0,4095.0,3221.0,2842.0,2672.0,1.57,3.51,13.46,-0.05,-0.04,-0.15,0.0,p
3043.0,2992.0,2989.0,4095.0,4095.0,3213.0,2832.0,2662.0,1.6,3.51,13.46,0.02,0.01,-0.14,0.0,p
3056.0,3017.0,2995.0,4095.0,4095.0,3226.0,2837.0,2669.0,1.59,3.53,13.39,-0.03,0.01,-0.14,0.0,p
3057.0,3005.0,2995.0,4095.0,4095.0,3214.0,2835.0,2660.0,1.52,3.44,13.51,0.01,-0.0,-0.17,0.0,p
3055.0,3007.0,2997.0,4095.0,4095.0,3223.0,2837.0,2675.0,1.49,3.47,13.48,0.01,-0.02,-0.15,0.0,p
3055.0,2991.0,2994.0,4095.0,4095.0,3223.0,2837.0,2668.0,1.64,3.5,13.39,0.02,0.01,-0.13,0.0,p
3066.0,3014.0,2993.0,4095.0,4095.0,3221.0,2846.0,2675.0,1.49,3.48,13.53,0.03,0.02,-0.15,0.0,p
3042.0,2992.0,2992.0,4095.0,4095.0,3216.0,2835.0,2669.0,1.52,3.51,13.48,0.03,-0.01,-0.16,0.0,p
3071.0,3010.0,2993.0,4095.0,4095.0,3218.0,2846.0,2677.0,1.62,3.53,13.39,0.01,-0.01,-0.14,0.0,p
3055.0,2996.0,2996.0,4095.0,4095.0,3226.0,2838.0,2679.0,1.58,3.43,13.52,0.01,-0.03,-0.18,0.0,p
3050.0,3002.0,2990.0,4095.0,4095.0,3219.0,2842.0,2672.0,1.51,3.58,13.44,0.03,-0.0,-0.13,0.0,p
3066.0,3004.0,2999.0,4095.0,4095.0,3232.0,2849.0,2681.0,1.63,3.51,13.44,0.01,0.0,-0.16,0.0,p
3046.0,2992.0,2991.0,4095.0,4095.0,3225.0,2842.0,2672.0,1.57,3.44,13.53,0.0,-0.01,-0.17,0.0,p
3069.0,3017.0,2992.0,4095.0,4095.0,3226.0,2849.0,2683.0,1.55,3.42,13.51,0.01,0.0,-0.15,0.0,p
3060.0,2998.0,2997.0,4095.0,4095.0,3202.0,2838.0,2679.0,1.58,3.38,13.51,0.01,-0.01,-0.17,0.0,p
3059.0,3010.0,2992.0,4095.0,4095.0,3210.0,2847.0,2679.0,1.48,3.38,13.5,0.01,-0.01,-0.17,0.0,p
3054.0,2995.0,2994.0,4095.0,4095.0,3202.0,2836.0,2675.0,1.55,3.42,13.48,0.03,-0.01,-0.13,0.0,p
3056.0,3018.0,2996.0,4095.0,4095.0,3202.0,2848.0,2686.0,1.73,3.37,13.52,-0.0,-0.0,-0.14,0.0,p
3055.0,3001.0,2990.0,4095.0,4095.0,3205.0,2844.0,2679.0,1.57,3.4,13.51,0.01,-0.01,-0.15,0.0,p
3054.0,3022.0,2998.0,4095.0,4095.0,3203.0,2854.0,2688.0,1.57,3.35,13.56,0.01,0.02,-0.13,0.0,p
3049.0,2994.0,2992.0,4095.0,4095.0,3201.0,2849.0,2678.0,1.51,3.41,13.52,0.02,-0.0,-0.14,0.0,p
3057.0,3013.0,2994.0,4095.0,4095.0,3211.0,2848.0,2685.0,1.67,3.38,13.49,0.01,0.02,-0.09,0.0,p
3050.0,3005.0,2998.0,4095.0,4095.0,3200.0,2845.0,2677.0,1.78,3.35,13.45,-0.0,-0.01,-0.18,0.0,p
3052.0,2999.0,2988.0,4095.0,4095.0,3207.0,2844.0,2678.0,1.52,3.37,13.55,-0.0,-0.01,-0.17,0.0,p
3070.0,3007.0,2992.0,4095.0,4095.0,3205.0,2853.0,2691.0,1.64,3.38,13.47,0.01,0.0,-0.15,0.0,p
3047.0,2997.0,2993.0,4095.0,4095.0,3206.0,2845.0,2672.0,1.49,3.38,13.53,0.03,-0.01,-0.17,0.0,p
3058.0,3011.0,2992.0,4095.0,4095.0,3213.0,2849.0,2687.0,1.6,3.38,13.56,0.05,-0.01,-0.14,0.0,p
3047.0,3009.0,2992.0,4095.0,4095.0,3201.0,2841.0,2675.0,1.66,3.55,13.34,0.05,0.02,-0.15,0.0,p
3053.0,3003.0,2992.0,4095.0,4095.0,3211.0,2849.0,2685.0,1.54,3.39,13.44,-0.02,-0.01,-0.19,0.0,p
3062.0,3007.0,2995.0,4095.0,4095.0,3206.0,2847.0,2683.0,1.46,3.46,13.47,0.04,0.03,-0.11,0.0,p
3057.0,3003.0,3005.0,4095.0,4095.0,3217.0,2854.0,2690.0,1.58,3.34,13.62,0.05,0.02,-0.11,0.0,p
3047.0,2992.0,2992.0,4095.0,4095.0,3214.0,2848.0,2686.0,1.6,3.52,13.37,0.05,-0.01,-0.15,0.0,p
3058.0,3017.0,2995.0,4095.0,4095.0,3221.0,2848.0,2686.0,1.6,3.54,13.38,0.02,-0.01,-0.19,0.0,p
3055.0,2997.0,2992.0,4095.0,4095.0,3216.0,2843.0,2679.0,1.54,3.45,13.5,0.0,0.01,-0.19,0.0,p
3063.0,3002.0,2994.0,4095.0,4095.0,3229.0,2860.0,2688.0,1.56,3.49,13.34,0.02,-0.02,-0.76,0.0,p
3039.0,3003.0,2987.0,4095.0,4095.0,3218.0,2848.0,2685.0,0.48,3.56,13.69,-0.36,-0.88,-1.5,0.0,p
3059.0,2994.0,2987.0,4095.0,4095.0,3229.0,2858.0,2683.0,2.13,3.0,13.65,0.03,-0.24,-0.8,0.0,p
3043.0,3007.0,2994.0,4095.0,4095.0,3221.0,2856.0,2681.0,1.02,4.24,13.33,0.39,0.65,0.25,0.0,p
3055.0,3005.0,3008.0,4095.0,4095.0,3226.0,2864.0,2693.0,1.16,3.88,13.28,0.1,0.49,-0.35,0.0,p
3050.0,2992.0,2992.0,4095.0,4095.0,3220.0,2858.0,2692.0,-0.33,4.04,13.71,0.0,0.12,-0.53,0.0,p
3056.0,2999.0,3002.0,4095.0,4095.0,3216.0,2851.0,2679.0,-0.4,4.03,13.27,0.06,0.17,-0.29,0.0,p
3061.0,3006.0,2997.0,4095.0,4095.0,3229.0,2861.0,2690.0,-0.16,4.11,13.3,0.14,0.24,-0.01,0.0,p
3045.0,3003.0,2990.0,4095.0,4095.0,3217.0,2851.0,2682.0,-0.56,4.15,13.39,0.0,-0.0,-0.33,0.0,p
3055.0,3001.0,2992.0,4095.0,4095.0,3232.0,2861.0,2692.0,-0.34,4.2,13.2,0.02,0.05,-0.15,0.0,p
3056.0,2998.0,2997.0,4095.0,4095.0,3225.0,2857.0,2686.0,-0.28,3.77,13.55,0.04,-0.02,-0.18,0.0,p
3055.0,3008.0,2992.0,4095.0,4095.0,3233.0,2864.0,2691.0,-0.59,4.6,13.04,0.07,-0.01,-0.2,0.0,p
3063.0,3006.0,2997.0,4095.0,4095.0,3215.0,2855.0,2691.0,-0.46,4.34,13.07,0.14,0.28,0.16,0.0,p
3049.0,3007.0,2993.0,4095.0,4095.0,3191.0,2855.0,2689.0,-0.26,4.33,13.03,0.14,0.23,0.18,0.0,p
3043.0,3001.0,2980.0,4095.0,4095.0,3198.0,2864.0,2691.0,-0.28,4.24,13.1,-0.08,-0.1,-0.27,0.0,p
3056.0,3007.0,2998.0,4095.0,4095.0,3202.0,2863.0,2694.0,-0.69,4.32,13.17,-0.02,-0.06,-0.2,0.0,p
3056.0,3010.0,2987.0,4095.0,4095.0,3191.0,2854.0,2689.0,-0.46,4.43,13.08,0.04,0.01,-0.11,0.0,p
3054.0,3002.0,2990.0,4095.0,4095.0,3206.0,2864.0,2691.0,-0.46,4.48,13.05,-0.03,-0.04,-0.18,0.0,p
3059.0,3015.0,2995.0,4095.0,4095.0,3203.0,2864.0,2699.0,-0.64,4.39,13.24,-0.01,-0.04,-0.14,0.0,p
3054.0,2994.0,2995.0,4095.0,4095.0,3207.0,2861.0,2690.0,-0.5,4.39,13.18,0.03,-0.01,-0.07,0.0,p
3071.0,3017.0,3002.0,4095.0,4095.0,3215.0,2871.0,2691.0,1.32,4.99,12.7,-0.01,0.06,-0.04,0.0,p
3060.0,2998.0,3002.0,4095.0,4095.0,3202.0,2863.0,2690.0,1.16,4.82,12.8,0.04,0.03,-0.1,0.0,p
3053.0,3015.0,2993.0,4095.0,4095.0,3203.0,2875.0,2698.0,1.46,5.0,12.72,0.07,0.16,0.04,0.0,p
3058.0,3001.0,3005.0,4095.0,4095.0,3201.0,2869.0,2692.0,1.23,5.1,12.62,-0.08,0.01,-0.2,0.0,p
3059.0,3005.0,3007.0,4095.0,4095.0,3198.0,2869.0,2698.0,0.96,4.7,12.95,0.05,0.08,-0.06,0.0,p
3053.0,3002.0,2997.0,4095.0,4095.0,3197.0,2864.0,2691.0,1.04,4.78,12.91,0.06,0.01,-0.07,0.0,p
3047.0,2998.0,2996.0,4095.0,4095.0,3203.0,2878.0,2698.0,1.29,5.17,12.51,0.08,0.04,-0.07,0.0,p
3049.0,3003.0,2992.0,4095.0,4095.0,3200.0,2866.0,2701.0,1.14,5.06,12.81,0.12,0.13,-0.11,0.0,p
3055.0,3006.0,2998.0,4095.0,4095.0,3204.0,2871.0,2703.0,0.89,4.97,13.01,-0.02,-0.09,-0.3,0.0,p
3056.0,3009.0,2996.0,4095.0,4095.0,3200.0,2874.0,2703.0,0.94,5.36,12.62,0.12,0.01,-0.12,0.0,p
3051.0,2999.0,2987.0,4095.0,4095.0,3205.0,2869.0,2695.0,0.95,5.34,12.52,0.07,-0.0,-0.09,0.0,p
3055.0,3010.0,2997.0,4095.0,4095.0,3216.0,2874.0,2699.0,1.01,5.43,12.49,0.04,-0.03,-0.09,0.0,p
3058.0,3007.0,2983.0,4095.0,4095.0,3213.0,2867.0,2691.0,1.2,5.62,12.22,-0.02,-0.03,-0.1,0.0,p
3058.0,3007.0,3002.0,4095.0,4095.0,3216.0,2875.0,2699.0,1.19,5.02,12.84,-0.04,0.02,-0.14,0.0,p
3056.0,3007.0,2992.0,4095.0,4095.0,3207.0,2867.0,2693.0,1.16,5.14,12.78,0.05,0.05,-0.11,0.0,p
3056.0,2999.0,2992.0,4095.0,4095.0,3219.0,2871.0,2701.0,1.04,5.09,12.74,-0.02,0.01,-0.16,0.0,p
3043.0,3009.0,2986.0,4095.0,4095.0,3214.0,2867.0,2701.0,1.12,5.14,12.68,0.04,0.05,-0.09,0.0,p
3053.0,3008.0,2992.0,4095.0,4095.0,3217.0,2873.0,2701.0,1.02,5.23,12.6,0.03,-0.02,-0.2,0.0,p
3055.0,2994.0,2992.0,4095.0,4095.0,3207.0,2870.0,2695.0,0.96,5.29,12.62,0.0,-0.03,-0.16,0.0,p
3056.0,3020.0,3015.0,4095.0,4095.0,3216.0,2873.0,2703.0,1.26,5.12,12.72,-0.02,0.02,-0.12,0.0,p
3053.0,3007.0,2989.0,4095.0,4095.0,3206.0,2871.0,2703.0,1.07,5.06,12.77,0.04,-0.01,-0.17,0.0,p
3057.0,3011.0,3003.0,4095.0,4095.0,3222.0,2879.0,2707.0,0.96,5.31,12.61,0.04,0.03,-0.13,0.0,p
3051.0,3003.0,2998.0,4095.0,4095.0,3211.0,2869.0,2703.0,1.1,5.15,12.69,-0.01,0.02,-0.12,0.0,p
3066.0,3010.0,2999.0,4095.0,4095.0,3225.0,2883.0,2707.0,0.89,5.11,12.82,-0.02,-0.01,-0.15,0.0,p
3053.0,3002.0,2987.0,4095.0,4095.0,3212.0,2869.0,2704.0,1.05,5.28,12.58,-0.03,0.04,-0.09,0.0,p
3056.0,3007.0,2999.0,4095.0,4095.0,3214.0,2879.0,2709.0,0.4,4.96,13.01,-0.09,0.01,-0.02,0.0,p
3054.0,3006.0,2995.0,4095.0,4095.0,3219.0,2880.0,2711.0,1.12,5.1,12.61,-0.04,0.01,0.11,0.0,p
3063.0,3012.0,2992.0,4095.0,4095.0,3214.0,2873.0,2704.0,1.25,5.06,12.55,-0.19,0.12,0.23,0.0,p
3057.0,3005.0,3001.0,4095.0,4095.0,3212.0,2875.0,2705.0,0.85,5.18,12.55,-0.46,0.12,0.39,0.0,p
3053.0,2996.0,2992.0,4095.0,4095.0,3193.0,2873.0,2703.0,1.86,3.14,13.76,-0.71,-0.04,0.18,0.0,p
3052.0,3008.0,3008.0,4095.0,4095.0,3203.0,2873.0,2705.0,2.03,2.7,13.72,-0.3,0.07,0.1,0.0,p
3056.0,3008.0,2984.0,4095.0,4095.0,3209.0,2864.0,2704.0,1.27,2.65,14.11,-0.27,-0.04,-0.09,0.0,p
3067.0,3003.0,3003.0,4095.0,4095.0,3213.0,2869.0,2707.0,1.81,2.64,13.78,-0.02,0.07,-0.06,0.0,p
3047.0,3010.0,2992.0,4033.0,4095.0,3202.0,2865.0,2710.0,1.74,2.73,13.68,-0.04,0.03,-0.2,0.0,p
3062.0,3005.0,2992.0,4085.0,4095.0,3210.0,2870.0,2715.0,1.35,2.55,13.94,0.04,-0.01,-0.24,0.0,p
3058.0,3002.0,2987.0,4095.0,4095.0,3207.0,2877.0,2710.0,1.46,2.64,13.78,0.03,0.01,-0.11,0.0,p
3062.0,3011.0,2998.0,4095.0,4095.0,3213.0,2878.0,2708.0,1.68,2.6,13.8,0.05,0.0,-0.15,0.0,p
3039.0,2998.0,2995.0,4095.0,4095.0,3204.0,2877.0,2717.0,1.48,2.59,13.83,0.07,-0.02,-0.21,0.0,p
3051.0,3006.0,2987.0,4095.0,4095.0,3206.0,2885.0,2713.0,1.52,2.79,13.71,0.2,0.03,-0.17,0.0,p
3056.0,3005.0,2992.0,4095.0,4095.0,3212.0,2885.0,2721.0,1.48,3.23,13.46,0.15,0.04,-0.2,0.0,p
3061.0,2997.0,2985.0,4095.0,4095.0,3209.0,2886.0,2720.0,1.43,3.12,13.59,0.05,0.02,-0.14,0.0,p
3050.0,2995.0,2987.0,4095.0,4095.0,3200.0,2885.0,2717.0,1.33,3.1,13.65,0.04,-0.0,-0.15,0.0,p
3059.0,3013.0,3003.0,4095.0,4095.0,3216.0,2890.0,2727.0,1.44,3.11,13.6,0.03,-0.01,-0.17,0.0,p
3043.0,3006.0,2992.0,4095.0,4095.0,3198.0,2884.0,2717.0,1.37,3.15,13.58,0.02,-0.01,-0.18,0.0,p
3055.0,3015.0,3003.0,4095.0,4095.0,3202.0,2895.0,2732.0,1.26,3.09,13.65,-0.01,0.0,-0.16,0.0,p
3063.0,2997.0,2992.0,4095.0,4095.0,3199.0,2883.0,2719.0,1.31,3.01,13.75,0.01,0.02,-0.13,0.0,p
3056.0,3007.0,2999.0,4095.0,4095.0,3203.0,2891.0,2723.0,1.28,3.25,13.49,0.04,0.01,-0.13,0.0,p
3056.0,3014.0,2994.0,4095.0,4095.0,3203.0,2887.0,2730.0,1.41,3.03,13.67,0.01,0.0,-0.14,0.0,p
3056.0,3010.0,2992.0,4095.0,4095.0,3201.0,2884.0,2725.0,1.42,3.02,13.61,0.01,0.01,-0.18,0.0,p
3057.0,3008.0,3005.0,4095.0,4095.0,3205.0,2891.0,2728.0,1.23,3.13,13.63,0.03,0.01,-0.16,0.0,p
3043.0,2998.0,2987.0,4095.0,4095.0,3202.0,2893.0,2725.0,1.28,3.09,13.65,-0.01,0.01,-0.13,0.0,p
3054.0,3008.0,2992.0,4095.0,4095.0,3211.0,2895.0,2725.0,1.41,3.06,13.63,0.03,0.02,-0.16,0.0,p
3056.0,3003.0,2992.0,4095.0,4095.0,3194.0,2885.0,2726.0,1.26,3.07,13.67,0.03,0.0,-0.17,0.0,p
3056.0,3002.0,3001.0,4095.0,4095.0,3205.0,2893.0,2733.0,1.24,3.07,13.63,0.01,0.01,-0.13,0.0,p
3051.0,3001.0,2990.0,4095.0,4095.0,3199.0,2894.0,2727.0,1.35,3.07,13.63,0.03,0.0,-0.14,0.0,p
3051.0,3008.0,2992.0,4095.0,4095.0,3200.0,2896.0,2733.0,1.3,3.04,13.66,0.02,-0.0,-0.17,0.0,p
3055.0,3013.0,3006.0,4095.0,4095.0,3191.0,2886.0,2724.0,1.18,3.06,13.63,-0.01,-0.01,-0.15,0.0,p
3059.0,3002.0,2991.0,4095.0,4095.0,3203.0,2896.0,2733.0,1.37,3.01,13.63,0.05,0.01,-0.12,0.0,p
3051.0,3014.0,3005.0,4095.0,4095.0,3203.0,2895.0,2735.0,1.36,3.09,13.64,0.01,-0.02,-0.18,0.0,p
3056.0,3002.0,2997.0,4095.0,4095.0,3184.0,2890.0,2735.0,1.21,3.07,13.69,0.01,-0.0,-0.15,0.0,p
3056.0,3010.0,3002.0,4095.0,4095.0,3183.0,2892.0,2742.0,1.29,3.0,13.7,-0.0,-0.0,-0.15,0.0,p
3063.0,3012.0,2997.0,4095.0,4095.0,3161.0,2887.0,2734.0,1.28,3.07,13.62,0.01,-0.01,-0.16,0.0,p
3055.0,3015.0,2993.0,4095.0,4095.0,3181.0,2897.0,2739.0,1.23,3.08,13.63,0.01,0.02,-0.11,0.0,p
3059.0,3010.0,2997.0,4095.0,4095.0,3168.0,2892.0,2737.0,1.3,3.1,13.58,0.04,-0.0,-0.13,0.0,p
3052.0,2999.0,2999.0,4095.0,4095.0,3174.0,2894.0,2736.0,1.33,3.02,13.66,-0.02,-0.02,-0.17,0.0,p
3056.0,2993.0,2986.0,4095.0,4095.0,3167.0,2886.0,2738.0,1.31,2.99,13.71,0.02,0.0,-0.16,0.0,p
3049.0,3008.0,2992.0,4095.0,4095.0,3163.0,2887.0,2736.0,1.21,3.07,13.65,0.01,0.02,-0.14,0.0,p
3054.0,3001.0,2992.0,4095.0,4095.0,3183.0,2896.0,2742.0,1.23,2.95,13.74,0.02,-0.02,-0.17,0.0,p
3052.0,3009.0,2994.0,4095.0,4095.0,3164.0,2885.0,2737.0,1.2,3.01,13.69,0.03,-0.04,-0.17,0.0,p
3057.0,3005.0,3005.0,4095.0,4095.0,3178.0,2894.0,2742.0,1.38,3.15,13.47,0.03,0.01,-0.12,0.0,p
3052.0,3013.0,2990.0,4095.0,4095.0,3174.0,2890.0,2736.0,1.25,3.09,13.62,0.02,-0.0,-0.16,0.0,p
3053.0,3004.0,2991.0,4095.0,4095.0,3184.0,2896.0,2738.0,1.29,2.97,13.75,0.01,-0.0,-0.14,0.0,p
3049.0,3004.0,2990.0,4095.0,4095.0,3182.0,2885.0,2736.0,1.28,3.04,13.69,0.05,-0.0,-0.16,0.0,p
3068.0,3008.0,2992.0,4095.0,4095.0,3183.0,2896.0,2742.0,1.26,3.22,13.56,0.03,-0.01,-0.13,0.0,p
3056.0,3004.0,2995.0,4095.0,4095.0,3181.0,2893.0,2737.0,1.44,3.04,13.63,0.01,-0.01,-0.16,0.0,p
3063.0,3002.0,2998.0,4095.0,4095.0,3184.0,2901.0,2748.0,1.27,3.11,13.58,0.06,-0.02,-0.22,0.0,p
3047.0,3008.0,2992.0,4095.0,4095.0,3183.0,2893.0,2736.0,1.21,3.17,13.6,0.02,-0.01,-0.16,0.0,p
3050.0,2992.0,2995.0,4095.0,4095.0,3183.0,2894.0,2734.0,1.29,3.15,13.65,0.05,-0.0,-0.13,0.0,p
3057.0,3003.0,3006.0,4095.0,4095.0,3185.0,2901.0,2741.0,1.3,3.15,13.77,0.02,-0.01,-0.15,0.0,p
3045.0,3006.0,2994.0,4095.0,4095.0,3175.0,2890.0,2735.0,1.25,3.11,13.68,-0.01,0.0,-0.17,0.0,p
3046.0,2995.0,2996.0,3982.0,4095.0,3165.0,2898.0,2736.0,1.42,3.1,13.58,0.02,0.01,-0.15,0.0,p
3059.0,3011.0,2997.0,4003.0,4095.0,3171.0,2913.0,2746.0,1.33,3.07,13.71,0.02,0.01,-0.16,0.0,p
3056.0,3003.0,2990.0,4011.0,4095.0,3166.0,2896.0,2736.0,1.3,3.17,13.57,0.04,0.0,-0.14,0.0,p
3069.0,3024.0,2997.0,4013.0,4095.0,3171.0,2911.0,2742.0,1.37,3.08,13.62,0.04,0.01,-0.18,0.0,p
3057.0,3014.0,2989.0,4014.0,4095.0,3168.0,2896.0,2743.0,1.33,3.1,13.63,0.01,-0.01,-0.18,0.0,p
3042.0,3011.0,2993.0,4048.0,4095.0,3170.0,2898.0,2746.0,1.3,3.11,13.6,0.03,-0.0,-0.15,0.0,p
3058.0,3009.0,2985.0,4039.0,4095.0,3168.0,2898.0,2746.0,1.34,3.17,13.53,0.03,0.0,-0.16,0.0,p
3055.0,2999.0,2989.0,4045.0,4095.0,3166.0,2901.0,2740.0,1.25,3.14,13.59,0.01,-0.01,-0.17,0.0,p
3059.0,3009.0,3009.0,4060.0,4095.0,3169.0,2907.0,2750.0,1.26,3.14,13.63,0.05,0.01,-0.12,0.0,p
3059.0,3008.0,2985.0,4048.0,4095.0,3177.0,2901.0,2740.0,1.32,3.15,13.58,0.01,-0.0,-0.15,0.0,p
3069.0,3003.0,3003.0,4068.0,4095.0,3169.0,2907.0,2751.0,1.24,3.16,13.67,0.01,0.0,-0.16,0.0,p
3058.0,3001.0,2986.0,4065.0,4095.0,3173.0,2901.0,2747.0,1.26,3.2,13.54,0.01,0.01,-0.15,0.0,p
3058.0,3016.0,2998.0,4076.0,4095.0,3182.0,2912.0,2751.0,1.24,3.18,13.62,0.01,0.01,-0.13,0.0,p
3055.0,3007.0,2995.0,4061.0,4095.0,3177.0,2899.0,2743.0,1.27,3.15,13.58,0.02,-0.0,-0.15,0.0,p
3056.0,3009.0,2996.0,4080.0,4095.0,3175.0,2907.0,2753.0,1.25,3.21,13.58,0.02,0.0,-0.16,0.0,p
3053.0,3006.0,2992.0,4079.0,4095.0,3170.0,2902.0,2746.0,1.25,3.18,13.63,0.03,0.01,-0.15,0.0,p
3050.0,3018.0,3015.0,4083.0,4095.0,3177.0,2896.0,2753.0,1.21,3.17,13.64,0.02,-0.0,-0.14,0.0,p
3059.0,2997.0,2985.0,4080.0,4095.0,3178.0,2906.0,2746.0,1.31,3.16,13.62,0.02,-0.01,-0.15,0.0,p
3061.0,3003.0,2994.0,4095.0,4095.0,3180.0,2901.0,2743.0,1.22,3.22,13.58,0.01,-0.01,-0.16,0.0,p
3053.0,3007.0,3003.0,4095.0,4095.0,3180.0,2911.0,2750.0,1.32,3.27,13.57,0.05,0.02,-0.13,0.0,p
3055.0,3001.0,2938.0,3963.0,4095.0,2975.0,2701.0,2297.0,1.16,2.86,13.72,0.0,-0.0,-0.16,0.0,p
3057.0,3004.0,2942.0,3953.0,4095.0,2986.0,2704.0,2300.0,1.09,2.9,13.63,0.0,-0.0,-0.11,0.0,p
3038.0,2995.0,2935.0,3934.0,4095.0,2977.0,2704.0,2299.0,1.28,2.78,13.8,0.05,-0.0,-0.16,0.0,p
3043.0,3013.0,2935.0,3945.0,4095.0,2982.0,2705.0,2303.0,1.15,2.83,13.77,0.04,0.0,-0.16,0.0,p
3043.0,3009.0,2933.0,3923.0,4095.0,2981.0,2707.0,2305.0,1.21,2.33,14.18,0.09,0.07,-0.03,0.0,p
3057.0,3007.0,2950.0,3948.0,4095.0,2992.0,2715.0,2309.0,1.13,2.63,13.99,0.26,0.07,-0.03,0.0,p
3050.0,2994.0,2943.0,3939.0,4095.0,2974.0,2704.0,2313.0,1.2,2.95,13.75,0.3,0.05,-0.07,0.0,p
3048.0,3010.0,2943.0,3955.0,4095.0,2955.0,2719.0,2315.0,1.15,3.44,13.4,0.34,0.05,-0.04,0.0,p
3046.0,2999.0,2939.0,3952.0,4095.0,2965.0,2713.0,2311.0,1.2,3.84,13.18,0.25,-0.05,-0.25,0.0,p
3043.0,3014.0,2958.0,3985.0,4095.0,2950.0,2719.0,2320.0,1.01,4.04,13.13,0.18,0.01,-0.17,0.0,p
3050.0,2999.0,2941.0,3952.0,4095.0,2928.0,2710.0,2315.0,1.01,4.11,13.07,0.06,-0.01,-0.14,0.0,p
3056.0,2994.0,2957.0,3973.0,4095.0,2907.0,2716.0,2316.0,1.06,4.07,13.26,0.09,-0.01,-0.18,0.0,p
3049.0,3003.0,2951.0,3975.0,4095.0,2928.0,2720.0,2320.0,1.01,4.0,13.43,0.1,-0.0,-0.14,0.0,p
3046.0,2994.0,2950.0,3962.0,4095.0,2939.0,2707.0,2315.0,0.91,4.18,13.29,0.13,0.02,-0.06,0.0,p
3039.0,3009.0,2949.0,3993.0,4095.0,2944.0,2718.0,2320.0,1.19,4.3,13.19,0.12,-0.08,-0.17,0.0,p
3051.0,2998.0,2947.0,3970.0,4095.0,2929.0,2717.0,2319.0,1.3,4.42,13.04,0.07,0.01,-0.08,0.0,p
3057.0,3004.0,2960.0,3989.0,4095.0,2930.0,2722.0,2322.0,1.2,4.46,12.9,0.02,0.04,-0.1,0.0,p
3047.0,2998.0,2956.0,3970.0,4095.0,2918.0,2721.0,2320.0,1.12,4.41,13.1,0.02,-0.04,-0.25,0.0,p
3042.0,2998.0,2957.0,3995.0,4095.0,2926.0,2726.0,2330.0,1.1,4.37,13.08,-0.05,-0.05,-0.19,0.0,p
3039.0,2998.0,2949.0,3981.0,4095.0,2922.0,2715.0,2320.0,1.16,4.25,13.2,-0.01,0.03,-0.08,0.0,p
3031.0,3000.0,2944.0,3989.0,4095.0,2903.0,2723.0,2334.0,1.15,3.56,13.54,-0.14,-0.02,-0.07,0.0,p
3046.0,3005.0,2953.0,3986.0,4095.0,2912.0,2730.0,2337.0,1.07,3.57,13.33,-0.24,-0.1,-0.03,0.0,p
3046.0,3001.0,2937.0,3972.0,4095.0,2915.0,2725.0,2334.0,1.48,3.2,13.59,-0.08,-0.03,-0.06,0.0,p
3047.0,3001.0,2951.0,3998.0,4095.0,2919.0,2730.0,2339.0,1.39,2.99,13.48,-0.22,0.01,0.1,0.0,p
3035.0,2993.0,2938.0,3915.0,4095.0,2912.0,2725.0,2341.0,1.61,2.64,13.83,-0.01,-0.03,-0.17,0.0,p
3059.0,3009.0,2951.0,3908.0,4095.0,2922.0,2736.0,2349.0,1.53,2.8,13.65,0.08,-0.01,-0.22,0.0,p
3047.0,3003.0,2944.0,3902.0,4095.0,2915.0,2730.0,2345.0,1.33,2.94,13.73,-0.09,-0.02,-0.17,0.0,p
3047.0,3007.0,2939.0,3917.0,4095.0,2925.0,2733.0,2353.0,1.44,2.42,13.96,0.04,-0.02,-0.14,0.0,p
3045.0,3006.0,2933.0,3915.0,4095.0,2923.0,2735.0,2352.0,1.69,2.66,13.8,0.22,-0.02,-0.13,0.0,p
3051.0,3003.0,2942.0,3922.0,4095.0,2923.0,2733.0,2353.0,1.76,2.91,13.73,0.36,0.04,-0.28,0.0,p
3046.0,2989.0,2935.0,3914.0,4095.0,2926.0,2727.0,2352.0,1.23,3.63,13.37,0.37,-0.03,-0.4,0.0,p
3042.0,3004.0,2949.0,3913.0,4095.0,2926.0,2730.0,2349.0,1.11,4.01,13.22,0.31,0.0,-0.23,0.0,p
3057.0,2995.0,2936.0,3921.0,4095.0,2934.0,2738.0,2362.0,1.17,4.25,13.12,0.25,-0.01,-0.09,0.0,p
3061.0,2999.0,2956.0,3934.0,4095.0,2935.0,2739.0,2363.0,1.53,4.46,12.97,0.13,-0.0,-0.08,0.0,p
3041.0,2992.0,2939.0,3921.0,4095.0,2933.0,2738.0,2366.0,1.38,4.68,12.78,0.12,-0.02,-0.08,0.0,p
3052.0,2996.0,2946.0,3531.0,4095.0,2902.0,2742.0,2365.0,1.59,4.68,13.03,0.03,-0.05,-0.18,0.0,p
3045.0,2992.0,2934.0,3606.0,4095.0,2881.0,2737.0,2355.0,1.32,4.79,12.9,0.09,-0.02,-0.13,0.0,p
3045.0,3015.0,2953.0,3613.0,4095.0,2894.0,2743.0,2361.0,1.4,4.93,12.67,0.0,-0.03,-0.1,0.0,p
3047.0,3007.0,2942.0,3575.0,4095.0,2891.0,2737.0,2362.0,1.58,4.79,12.78,0.05,0.0,-0.12,0.0,p
3041.0,3003.0,2945.0,3601.0,4095.0,2906.0,2745.0,2365.0,1.68,4.81,12.7,0.11,-0.02,-0.21,0.0,p
3055.0,3010.0,2960.0,3673.0,4095.0,2913.0,2764.0,2381.0,1.56,4.76,12.72,0.01,0.01,-0.17,0.0,p
3049.0,2999.0,2941.0,3669.0,4095.0,2922.0,2763.0,2379.0,1.36,4.67,12.88,-0.04,-0.02,-0.22,0.0,p
3035.0,2992.0,2947.0,3664.0,4095.0,2918.0,2752.0,2375.0,1.4,4.6,12.92,-0.04,0.01,-0.17,0.0,p
3054.0,3006.0,2945.0,3674.0,4095.0,2928.0,2761.0,2384.0,1.44,4.41,13.1,-0.06,0.03,-0.14,0.0,p
3037.0,2994.0,2944.0,3664.0,4095.0,2928.0,2755.0,2375.0,1.28,4.39,13.18,-0.04,0.01,-0.11,0.0,p
3045.0,3003.0,2947.0,4021.0,4095.0,2929.0,2759.0,2375.0,1.33,4.54,12.97,0.03,0.02,-0.11,0.0,p
3051.0,2995.0,2935.0,3959.0,4095.0,2928.0,2754.0,2374.0,1.43,4.47,12.99,-0.05,0.01,-0.12,0.0,p
3047.0,2997.0,2950.0,3952.0,4095.0,2941.0,2767.0,2386.0,1.36,4.27,13.15,-0.09,-0.0,-0.18,0.0,p
3043.0,2998.0,2940.0,3981.0,4095.0,2937.0,2762.0,2375.0,1.24,4.26,13.14,-0.06,-0.0,-0.15,0.0,p
3055.0,3003.0,2953.0,3995.0,4095.0,2932.0,2768.0,2385.0,1.29,4.21,13.13,-0.02,0.03,-0.09,0.0,p
3045.0,2997.0,2935.0,3980.0,4095.0,2942.0,2755.0,2375.0,1.28,4.17,13.28,-0.02,0.01,-0.13,0.0,p
3058.0,3003.0,2947.0,3974.0,4095.0,2943.0,2767.0,2390.0,1.52,3.97,13.31,-0.07,0.02,-0.08,0.0,p
3050.0,2992.0,2941.0,3971.0,4095.0,2945.0,2763.0,2382.0,1.42,4.01,13.15,-0.11,-0.02,-0.18,0.0,p
3046.0,3011.0,2931.0,3966.0,4095.0,2942.0,2766.0,2378.0,1.34,3.82,13.33,-0.05,-0.01,-0.2,0.0,p
3043.0,3008.0,2946.0,3972.0,4095.0,2953.0,2777.0,2384.0,1.21,3.91,13.3,0.04,0.03,-0.18,0.0,p
3040.0,2995.0,2949.0,3962.0,4095.0,2943.0,2768.0,2383.0,1.45,3.86,13.35,-0.01,0.03,-0.19,0.0,p
3045.0,2998.0,2944.0,3984.0,4095.0,2958.0,2774.0,2391.0,1.27,3.73,13.48,-0.01,0.02,-0.22,0.0,p
3041.0,2995.0,2946.0,3981.0,4095.0,2946.0,2767.0,2385.0,1.12,3.83,13.46,0.03,-0.01,-0.23,0.0,p
3043.0,3014.0,2948.0,3987.0,4095.0,2958.0,2777.0,2396.0,1.11,3.91,13.32,0.02,-0.02,-0.2,0.0,p
3045.0,3007.0,2946.0,3971.0,4095.0,2949.0,2777.0,2398.0,1.07,3.95,13.28,0.07,-0.02,-0.18,0.0,p
3042.0,2997.0,2951.0,4053.0,4095.0,2944.0,2806.0,2439.0,1.36,3.96,13.33,0.06,-0.0,-0.1,0.0,p
3049.0,2993.0,2949.0,4039.0,4095.0,2937.0,2800.0,2434.0,1.28,4.02,13.18,0.03,-0.02,-0.18,0.0,p
3052.0,3007.0,2943.0,4044.0,4095.0,2951.0,2810.0,2447.0,1.27,4.07,13.31,0.06,-0.01,-0.1,0.0,p
3050.0,2992.0,2939.0,4046.0,4095.0,2939.0,2803.0,2446.0,1.45,4.04,13.18,-0.06,-0.01,-0.11,0.0,p
3057.0,3006.0,2955.0,4038.0,4095.0,2903.0,2814.0,2427.0,1.24,4.04,13.29,0.08,-0.01,-0.08,0.0,p
3053.0,3007.0,2951.0,3997.0,4095.0,2943.0,2812.0,2432.0,1.22,4.18,13.28,0.04,-0.04,-0.1,0.0,p
3044.0,2996.0,2950.0,4023.0,4095.0,3029.0,2805.0,2433.0,1.19,4.38,12.99,0.13,-0.06,-0.05,0.0,p
3042.0,2996.0,2932.0,4014.0,4095.0,3040.0,2809.0,2427.0,1.78,4.36,12.97,-0.02,-0.01,0.04,0.0,p
3045.0,3010.0,2946.0,4038.0,4095.0,3054.0,2817.0,2434.0,1.86,4.22,12.99,-0.02,0.0,-0.11,0.0,p
3053.0,3014.0,2953.0,4025.0,4095.0,3045.0,2806.0,2437.0,1.57,4.09,13.23,-0.01,-0.02,-0.19,0.0,p
3044.0,2997.0,2941.0,4019.0,4095.0,3047.0,2810.0,2433.0,1.63,4.2,13.15,-0.0,-0.0,-0.15,0.0,p
3045.0,3008.0,2957.0,4038.0,4095.0,3061.0,2812.0,2435.0,1.61,4.21,13.13,-0.01,0.03,-0.14,0.0,p
3037.0,3003.0,2946.0,4016.0,4095.0,3054.0,2811.0,2433.0,1.42,4.08,13.33,-0.04,-0.0,-0.16,0.0,p
3039.0,2999.0,2956.0,4025.0,4095.0,3059.0,2816.0,2439.0,1.59,4.15,13.08,-0.04,-0.01,-0.12,0.0,p
3037.0,2996.0,2948.0,3991.0,4095.0,3058.0,2806.0,2435.0,1.49,4.06,13.19,-0.0,-0.02,-0.11,0.0,p
3053.0,3009.0,2953.0,3968.0,4095.0,3084.0,2817.0,2443.0,1.91,4.14,13.11,0.01,0.01,-0.12,0.0,p
3030.0,2990.0,2944.0,3966.0,4095.0,3071.0,2812.0,2434.0,1.54,3.93,13.35,-0.01,-0.02,-0.27,0.0,p
3054.0,3001.0,2959.0,3975.0,4095.0,3085.0,2818.0,2439.0,1.5,4.1,13.19,0.01,0.03,-0.13,0.0,p
3045.0,2992.0,2950.0,3968.0,4095.0,3062.0,2804.0,2431.0,1.5,3.99,13.3,0.03,-0.07,-0.22,0.0,p
3063.0,3008.0,2943.0,3982.0,4095.0,3069.0,2814.0,2443.0,1.68,3.93,13.41,0.09,0.01,-0.1,0.0,p
3047.0,2994.0,2943.0,3982.0,4095.0,3056.0,2816.0,2448.0,1.42,4.24,13.11,0.11,-0.06,-0.14,0.0,p
3044.0,3010.0,2946.0,4000.0,4095.0,3051.0,2815.0,2448.0,1.48,4.12,13.36,0.11,-0.01,-0.11,0.0,p
3044.0,3006.0,2946.0,4017.0,4095.0,3068.0,2819.0,2460.0,1.71,4.46,12.78,0.13,0.01,-0.09,0.0,p
3039.0,2992.0,2939.0,4003.0,4095.0,3057.0,2814.0,2448.0,1.61,4.06,13.48,0.08,-0.03,-0.2,0.0,p
3046.0,2997.0,2946.0,4039.0,4095.0,3071.0,2818.0,2449.0,1.67,4.41,13.03,0.09,0.03,-0.13,0.0,p
3040.0,3007.0,2949.0,4029.0,4095.0,3037.0,2823.0,2448.0,1.51,4.47,13.05,0.09,-0.07,-0.2,0.0,p
3049.0,3007.0,2954.0,4037.0,4095.0,3051.0,2814.0,2449.0,1.66,4.6,12.75,0.03,-0.03,-0.15,0.0,p
3045.0,3004.0,2956.0,4025.0,4095.0,3050.0,2809.0,2449.0,1.66,4.54,12.84,0.04,-0.03,-0.17,0.0,p
3058.0,3011.0,2946.0,4030.0,4095.0,3066.0,2822.0,2457.0,1.7,4.36,13.1,-0.0,-0.01,-0.17,0.0,p
3041.0,2992.0,2949.0,4033.0,4095.0,3066.0,2817.0,2453.0,1.64,4.7,12.81,0.04,-0.01,-0.14,0.0,p
3041.0,2994.0,2950.0,4054.0,4095.0,3067.0,2818.0,2457.0,1.73,4.41,13.04,-0.0,0.0,-0.13,0.0,p
3031.0,2995.0,2942.0,4018.0,4095.0,3061.0,2820.0,2457.0,1.86,4.54,12.89,0.03,0.02,-0.19,0.0,p
3057.0,3007.0,2944.0,4029.0,4095.0,3068.0,2826.0,2457.0,1.38,4.55,13.15,-0.02,0.02,-0.2,0.0,p
3055.0,2994.0,2946.0,4035.0,4095.0,3071.0,2827.0,2462.0,1.49,4.46,13.09,0.04,0.01,-0.12,0.0,p
3041.0,2994.0,2939.0,3998.0,4095.0,3061.0,2818.0,2459.0,1.75,4.6,12.87,-0.01,0.01,-0.17,0.0,p
3055.0,3002.0,2954.0,4034.0,4095.0,3063.0,2817.0,2458.0,1.47,4.47,13.11,0.0,-0.01,-0.21,0.0,p
3056.0,3004.0,2942.0,4001.0,4095.0,3065.0,2820.0,2455.0,1.55,4.61,12.91,0.01,-0.01,-0.13,0.0,p
3051.0,2999.0,2957.0,4027.0,4095.0,3066.0,2820.0,2465.0,1.71,4.46,13.07,0.02,0.01,-0.14,0.0,p
3039.0,2994.0,2937.0,4018.0,4095.0,3065.0,2816.0,2455.0,1.54,4.59,12.98,0.0,0.04,-0.16,0.0,p
3056.0,3008.0,2948.0,4023.0,4095.0,3069.0,2825.0,2461.0,1.57,4.48,13.04,0.01,-0.02,-0.23,0.0,p
3056.0,3021.0,2947.0,4039.0,4095.0,3088.0,2833.0,2477.0,1.36,4.75,12.86,0.04,-0.08,-0.08,0.0,p
3043.0,3003.0,2943.0,4028.0,4095.0,3089.0,2826.0,2465.0,2.22,4.95,12.43,0.09,-0.01,0.05,0.0,p
3051.0,3011.0,2954.0,4043.0,4095.0,3103.0,2835.0,2471.0,2.2,4.64,12.83,0.0,0.03,-0.08,0.0,p
3031.0,2993.0,2951.0,4039.0,4095.0,3097.0,2832.0,2464.0,2.04,4.78,12.67,-0.01,-0.01,-0.19,0.0,p
3055.0,3008.0,2948.0,4050.0,4095.0,3106.0,2835.0,2470.0,1.86,4.76,12.84,-0.01,-0.01,-0.17,0.0,p
3040.0,2993.0,2931.0,4031.0,4095.0,3089.0,2832.0,2468.0,2.04,4.86,12.64,0.04,0.04,-0.09,0.0,p
3054.0,2997.0,2957.0,4051.0,4095.0,3102.0,2839.0,2471.0,2.02,4.73,12.82,0.0,-0.01,-0.18,0.0,p
3050.0,3008.0,2935.0,4033.0,4095.0,3093.0,2834.0,2468.0,1.96,4.9,12.62,0.02,0.06,-0.11,0.0,p
3046.0,3019.0,2961.0,4046.0,4095.0,3093.0,2834.0,2473.0,1.88,4.65,12.87,-0.01,-0.0,-0.18,0.0,p
3029.0,2992.0,2943.0,4026.0,4095.0,3091.0,2831.0,2463.0,1.95,4.62,12.9,-0.01,-0.0,-0.2,0.0,p
3043.0,2997.0,2959.0,4059.0,4095.0,3101.0,2846.0,2470.0,1.9,4.77,12.76,0.02,-0.01,-0.17,0.0,p
3047.0,3001.0,2952.0,4054.0,4095.0,3100.0,2839.0,2474.0,1.89,4.74,12.77,0.03,-0.0,-0.19,0.0,p
3046.0,2988.0,2942.0,4035.0,4095.0,3098.0,2837.0,2473.0,1.87,4.75,12.78,0.0,-0.01,-0.18,0.0,p
3053.0,2997.0,2960.0,4057.0,4095.0,3098.0,2835.0,2477.0,1.76,4.74,12.82,0.0,-0.01,-0.14,0.0,p
3041.0,3007.0,2946.0,4049.0,4095.0,3088.0,2832.0,2469.0,2.11,4.69,12.65,-0.04,0.01,-0.15,0.0,p
3053.0,3008.0,2960.0,4048.0,4095.0,3101.0,2835.0,2480.0,1.71,4.62,12.94,0.01,-0.02,-0.18,0.0,p
3055.0,2990.0,2941.0,4034.0,4095.0,3097.0,2834.0,2474.0,1.87,4.9,12.69,0.02,-0.01,-0.13,0.0,p
3046.0,3010.0,2946.0,4038.0,4095.0,3102.0,2842.0,2480.0,1.91,4.69,12.82,0.01,0.04,-0.1,0.0,p
3045.0,2999.0,2941.0,4043.0,4095.0,3094.0,2832.0,2471.0,1.86,4.74,12.82,-0.02,-0.02,-0.16,0.0,p
3054.0,2996.0,2953.0,4052.0,4095.0,3102.0,2835.0,2482.0,1.79,4.6,12.96,0.04,-0.03,-0.16,0.0,p
3045.0,2998.0,2949.0,4053.0,4095.0,3088.0,2834.0,2482.0,1.82,4.64,12.96,-0.03,-0.02,-0.09,0.0,p
3051.0,3001.0,2947.0,4055.0,4095.0,3088.0,2835.0,2479.0,2.11,4.64,12.93,0.04,0.01,-0.14,0.0,p
3058.0,3002.0,2942.0,4056.0,4095.0,3107.0,2834.0,2482.0,1.77,4.64,12.78,-0.02,-0.01,-0.21,0.0,p
3055.0,3001.0,2945.0,4051.0,4095.0,3098.0,2832.0,2476.0,1.91,4.9,12.66,0.02,0.03,-0.12,0.0,p
3047.0,3013.0,2956.0,4076.0,4095.0,3100.0,2849.0,2480.0,1.95,4.59,12.87,-0.07,0.02,-0.17,0.0,p
3043.0,2992.0,2943.0,4055.0,4095.0,3109.0,2843.0,2480.0,1.77,4.74,12.78,-0.07,-0.0,-0.16,0.0,p
3052.0,3010.0,2947.0,4074.0,4095.0,3103.0,2843.0,2484.0,1.68,3.87,13.62,-0.08,0.03,-0.02,0.0,p
3047.0,3002.0,2943.0,4061.0,4095.0,3101.0,2845.0,2486.0,2.21,4.16,13.18,0.12,-0.04,-0.13,0.0,p
3059.0,3012.0,2949.0,4062.0,4095.0,3105.0,2857.0,2487.0,2.09,4.67,12.68,0.07,-0.06,-0.23,0.0,p
3049.0,2995.0,2946.0,4053.0,4095.0,3102.0,2845.0,2483.0,2.18,4.53,12.9,-0.02,-0.05,-0.29,0.0,p
3043.0,3008.0,2949.0,4079.0,4095.0,3104.0,2847.0,2481.0,1.59,4.79,12.82,-0.1,-0.0,-0.26,0.0,p
3045.0,3006.0,2934.0,4049.0,4095.0,3094.0,2845.0,2490.0,1.59,4.79,12.93,-0.16,0.07,-0.01,0.0,p
3050.0,3014.0,2958.0,4079.0,4095.0,3095.0,2852.0,2486.0,1.93,4.51,12.73,-0.22,0.09,0.03,0.0,p
3043.0,3003.0,2938.0,4084.0,4095.0,3105.0,2847.0,2486.0,1.97,3.75,13.32,-0.28,0.08,0.01,0.0,p
3053.0,3005.0,2939.0,4053.0,4095.0,3092.0,2842.0,2483.0,1.92,2.8,13.9,-0.13,0.06,0.0,0.0,p
3054.0,2994.0,2959.0,4095.0,4095.0,3088.0,2837.0,2482.0,2.07,3.47,13.34,0.07,0.01,-0.13,0.0,p
3040.0,2990.0,2951.0,4095.0,4095.0,3088.0,2838.0,2480.0,1.86,3.6,13.39,0.08,-0.02,-0.23,0.0,p
3060.0,3006.0,2944.0,4094.0,4095.0,3099.0,2854.0,2485.0,1.68,3.87,13.3,0.07,-0.09,-0.24,0.0,p
3050.0,2995.0,2947.0,4093.0,4095.0,3088.0,2843.0,2480.0,1.78,3.92,13.32,0.13,-0.1,-0.19,0.0,p
3049.0,3008.0,2945.0,4095.0,4095.0,3094.0,2844.0,2481.0,2.01,4.17,13.05,0.19,-0.06,-0.2,0.0,p
3054.0,3003.0,2953.0,4095.0,4095.0,3115.0,2852.0,2486.0,1.47,4.35,13.25,0.08,-0.01,-0.09,0.0,p
3056.0,3010.0,2949.0,4095.0,4095.0,3111.0,2846.0,2486.0,1.63,4.64,12.92,0.03,-0.05,-0.09,0.0,p
3051.0,3006.0,2951.0,4095.0,4095.0,3119.0,2853.0,2490.0,1.64,4.86,12.58,-0.06,0.01,-0.05,0.0,p
3051.0,3002.0,2934.0,4095.0,4095.0,3110.0,2850.0,2493.0,1.8,4.21,13.1,-0.16,0.13,0.08,0.0,p
3053.0,3011.0,2951.0,4095.0,4095.0,3120.0,2859.0,2495.0,1.73,3.5,13.64,-0.07,0.07,-0.03,0.0,p
3041.0,2999.0,2938.0,4095.0,4095.0,3106.0,2845.0,2490.0,1.97,4.08,13.08,0.17,-0.03,-0.22,0.0,p
3056.0,2998.0,2959.0,4095.0,4095.0,3118.0,2848.0,2496.0,1.47,4.53,12.97,0.02,-0.06,-0.31,0.0,p
3054.0,3003.0,2929.0,4095.0,4095.0,3114.0,2850.0,2494.0,1.64,4.31,12.99,-0.0,0.01,-0.15,0.0,p
3056.0,3001.0,2940.0,4095.0,4095.0,3109.0,2857.0,2493.0,1.66,4.0,13.28,-0.0,-0.0,-0.18,0.0,p
3046.0,3003.0,2954.0,4095.0,4095.0,3121.0,2858.0,2499.0,1.29,4.05,13.51,0.11,0.02,-0.1,0.0,p
3046.0,3003.0,2939.0,4093.0,4095.0,3111.0,2847.0,2495.0,1.86,4.67,12.7,0.38,0.32,0.28,0.0,p
3046.0,2994.0,2944.0,4095.0,4095.0,3120.0,2861.0,2499.0,1.42,4.2,13.36,-0.18,-0.17,-0.34,0.0,p
3046.0,2998.0,2933.0,4095.0,4095.0,3120.0,2851.0,2483.0,1.95,3.54,13.53,0.47,0.03,-0.33,0.0,p
3049.0,3011.0,2949.0,4095.0,4095.0,3108.0,2857.0,2485.0,1.34,5.33,12.34,0.31,-0.03,-0.36,0.0,p
3050.0,2994.0,2943.0,4086.0,4095.0,3104.0,2846.0,2481.0,1.47,5.44,12.32,-0.03,0.04,-0.23,0.0,p
3046.0,3001.0,2960.0,4095.0,4095.0,3097.0,2845.0,2466.0,1.1,4.83,12.72,-0.03,-0.18,-0.4,0.0,p
3039.0,2993.0,2934.0,4091.0,4095.0,3102.0,2839.0,2474.0,0.56,5.04,13.35,-0.02,-0.3,-0.21,0.0,p
3045.0,3003.0,2945.0,4095.0,4095.0,3099.0,2843.0,2479.0,2.78,5.11,11.89,0.02,0.08,0.11,0.0,p
3050.0,3004.0,2946.0,4083.0,4095.0,3095.0,2845.0,2480.0,1.43,4.61,13.15,-0.11,-0.1,-0.37,0.0,p
3056.0,3009.0,2938.0,4095.0,4095.0,3103.0,2842.0,2481.0,1.41,4.67,13.17,0.11,0.1,-0.05,0.0,p
3050.0,3009.0,2939.0,4092.0,4095.0,3091.0,2846.0,2484.0,2.09,4.33,12.65,-0.15,0.05,0.17,0.0,p
3056.0,2999.0,2949.0,4095.0,4095.0,3109.0,2855.0,2485.0,1.88,4.34,13.1,0.06,-0.03,-0.02,0.0,p
3037.0,2999.0,2942.0,4093.0,4095.0,3093.0,2845.0,2481.0,2.15,4.82,12.43,-0.18,0.1,0.02,0.0,p
3040.0,3002.0,2948.0,4095.0,4095.0,3102.0,2853.0,2486.0,1.92,3.61,13.39,-0.16,0.09,-0.05,0.0,p
3055.0,3002.0,2941.0,4089.0,4095.0,3098.0,2849.0,2487.0,1.91,3.56,13.53,-0.02,0.06,-0.18,0.0,p
3053.0,3006.0,2955.0,4095.0,4095.0,3099.0,2853.0,2493.0,1.7,4.43,12.9,0.12,0.12,-0.14,0.0,p
3045.0,2992.0,2949.0,4089.0,4095.0,3107.0,2858.0,2487.0,1.94,4.4,12.68,-0.11,0.18,-0.17,0.0,p
3038.0,3007.0,2947.0,4079.0,4095.0,3090.0,2848.0,2491.0,0.94,3.5,13.92,-0.1,-0.04,-0.39,0.0,p
3055.0,2997.0,2939.0,4095.0,4095.0,3105.0,2854.0,2485.0,0.95,4.04,13.32,0.03,0.01,-0.06,0.0,p
3041.0,3001.0,2950.0,4084.0,4095.0,3098.0,2855.0,2489.0,1.95,3.73,13.4,0.0,-0.05,-0.17,0.0,p
3055.0,3010.0,2954.0,4084.0,4095.0,3105.0,2858.0,2496.0,1.32,3.85,13.43,0.21,-0.08,-0.32,0.0,p
3035.0,2998.0,2941.0,4095.0,4095.0,3102.0,2852.0,2491.0,1.32,4.47,12.97,0.1,-0.07,-0.23,0.0,p
3059.0,3008.0,2957.0,4087.0,4095.0,3103.0,2857.0,2499.0,1.72,4.29,13.01,0.05,-0.06,-0.24,0.0,p
3040.0,2995.0,2941.0,4078.0,4095.0,3105.0,2851.0,2493.0,1.44,4.17,13.3,0.07,-0.13,-0.31,0.0,p
3053.0,3010.0,2951.0,4095.0,4095.0,3106.0,2857.0,2497.0,1.67,4.42,12.96,0.14,-0.01,-0.14,0.0,p
3035.0,2991.0,2945.0,4095.0,4095.0,3106.0,2850.0,2491.0,1.53,4.47,13.1,0.09,-0.04,-0.17,0.0,p
3056.0,2999.0,2954.0,4095.0,4095.0,3110.0,2859.0,2497.0,1.81,4.73,12.76,0.09,-0.0,-0.14,0.0,p
3044.0,3010.0,2944.0,4095.0,4095.0,3098.0,2852.0,2491.0,1.57,4.78,12.76,0.01,0.02,-0.24,0.0,p
3056.0,3003.0,2942.0,4086.0,4095.0,3099.0,2853.0,2496.0,0.86,4.7,13.07,0.02,0.02,-0.14,0.0,p
3053.0,3004.0,2951.0,4095.0,4095.0,3111.0,2859.0,2495.0,1.78,4.38,13.09,0.06,0.08,0.17,0.0,p
3056.0,3009.0,2947.0,4095.0,4095.0,3124.0,2861.0,2502.0,1.64,4.53,12.95,0.0,0.02,-0.15,0.0,p
3053.0,3014.0,2939.0,4093.0,4095.0,3115.0,2854.0,2498.0,1.58,4.5,13.1,0.02,-0.02,-0.17,0.0,p
3046.0,2998.0,2951.0,4095.0,4095.0,3113.0,2854.0,2495.0,1.59,4.77,12.72,0.04,-0.02,-0.14,0.0,p
3041.0,2994.0,2937.0,4095.0,4095.0,3109.0,2850.0,2499.0,1.68,4.75,12.81,-0.04,0.0,-0.13,0.0,p
3056.0,2998.0,2937.0,4095.0,4095.0,3122.0,2859.0,2496.0,1.83,4.34,13.07,-0.06,0.01,-0.17,0.0,p
3037.0,2999.0,2945.0,4095.0,4095.0,3117.0,2858.0,2497.0,1.58,4.05,13.45,-0.02,0.01,-0.17,0.0,p
3044.0,3003.0,2931.0,4095.0,4095.0,3119.0,2858.0,2498.0,1.6,4.56,12.88,0.05,0.02,-0.15,0.0,p
3045.0,2997.0,2955.0,4095.0,4095.0,3122.0,2858.0,2496.0,1.43,4.85,12.68,0.02,-0.01,-0.23,0.0,p
3049.0,2996.0,2943.0,4095.0,4095.0,3118.0,2855.0,2499.0,1.55,4.46,13.02,-0.05,0.0,-0.19,0.0,p
3042.0,3002.0,2946.0,4095.0,4095.0,3121.0,2858.0,2499.0,1.65,4.32,12.97,-0.04,0.03,-0.16,0.0,p
3055.0,2999.0,2942.0,4095.0,4095.0,3118.0,2852.0,2502.0,1.27,4.21,13.28,-0.03,-0.02,-0.17,0.0,p
3039.0,2992.0,2947.0,4095.0,4095.0,3123.0,2854.0,2496.0,1.63,4.27,13.13,0.04,-0.02,-0.12,0.0,p
3043.0,3005.0,2937.0,4095.0,4095.0,3122.0,2838.0,2496.0,1.36,4.47,13.06,0.12,-0.12,-0.25,0.0,p
3053.0,3009.0,2949.0,4095.0,4095.0,3131.0,2846.0,2494.0,1.64,4.77,12.76,0.13,-0.04,-0.09,0.0,p
3049.0,3005.0,2945.0,4095.0,4095.0,3122.0,2843.0,2498.0,2.31,4.74,12.42,0.03,0.03,-0.2,0.0,p
3039.0,3015.0,2956.0,4095.0,4095.0,3134.0,2853.0,2502.0,1.46,4.58,12.9,-0.09,-0.01,-0.38,0.0,p
3038.0,2992.0,2939.0,4095.0,4095.0,3134.0,2847.0,2497.0,1.13,4.72,13.08,-0.03,0.07,-0.15,0.0,p
3046.0,2989.0,2949.0,4095.0,4095.0,3121.0,2849.0,2495.0,1.4,4.44,13.03,-0.07,0.01,-0.19,0.0,p
3051.0,3003.0,2947.0,4095.0,4095.0,3133.0,2849.0,2500.0,1.35,4.43,13.02,0.03,-0.05,-0.25,0.0,p
3052.0,3004.0,2935.0,4095.0,4095.0,3122.0,2847.0,2503.0,1.24,4.64,12.96,0.07,-0.04,-0.23,0.0,p
3053.0,2994.0,2949.0,4095.0,4095.0,3306.0,2723.0,2326.0,1.71,2.9,13.61,0.04,-0.02,-0.14,0.0,p
3051.0,3006.0,2947.0,4095.0,4095.0,3323.0,2718.0,2325.0,1.69,2.89,13.69,0.07,-0.04,-0.16,0.0,p
3053.0,2992.0,2944.0,4095.0,4095.0,3315.0,2726.0,2322.0,1.58,3.03,13.59,0.08,-0.03,-0.16,0.0,p
3045.0,3007.0,2958.0,4095.0,4095.0,3278.0,2727.0,2333.0,1.77,3.14,13.55,0.03,0.01,-0.09,0.0,p
3042.0,2991.0,2945.0,4095.0,4095.0,3280.0,2726.0,2330.0,1.83,2.94,13.63,0.03,-0.01,-0.15,0.0,p
3054.0,2986.0,2930.0,4095.0,4095.0,3299.0,2725.0,2325.0,1.81,2.91,13.61,-0.08,0.03,-0.14,0.0,p
3055.0,2997.0,2941.0,4095.0,4095.0,3342.0,2733.0,2336.0,1.56,2.88,13.63,-0.02,-0.03,-0.19,0.0,p
3045.0,2981.0,2947.0,4095.0,4095.0,3332.0,2723.0,2332.0,1.57,2.89,13.75,0.01,-0.01,-0.09,0.0,p
3041.0,2987.0,2950.0,4095.0,4095.0,3341.0,2732.0,2334.0,1.92,2.94,13.44,0.07,-0.01,-0.12,0.0,p
3037.0,2990.0,2945.0,4095.0,4095.0,3322.0,2725.0,2337.0,1.71,2.88,13.69,-0.0,-0.02,-0.18,0.0,p
3047.0,2995.0,2949.0,4095.0,4095.0,3312.0,2727.0,2338.0,1.66,3.0,13.62,0.07,-0.01,-0.17,0.0,p
3046.0,2992.0,2949.0,4095.0,4095.0,3312.0,2728.0,2331.0,1.86,3.08,13.52,0.07,-0.02,-0.19,0.0,p
3053.0,2991.0,2948.0,4095.0,4095.0,3325.0,2729.0,2336.0,1.73,3.08,13.66,0.01,0.01,-0.15,0.0,p
3037.0,2990.0,2939.0,4095.0,4095.0,3303.0,2725.0,2331.0,1.87,3.08,13.58,-0.03,-0.0,-0.13,0.0,p
3054.0,2997.0,2942.0,4095.0,4095.0,3318.0,2735.0,2336.0,1.8,3.07,13.5,0.01,-0.01,-0.18,0.0,p
3035.0,2986.0,2945.0,4095.0,4095.0,3299.0,2730.0,2339.0,1.72,3.03,13.65,-0.05,0.01,-0.15,0.0,p
3043.0,2992.0,2960.0,4095.0,4095.0,3296.0,2733.0,2336.0,1.71,2.95,13.71,0.04,-0.02,-0.2,0.0,p
3045.0,2995.0,2943.0,4095.0,4095.0,3291.0,2734.0,2347.0,1.6,3.19,13.48,0.05,-0.03,-0.18,0.0,p
3049.0,2979.0,2945.0,4095.0,4095.0,3283.0,2727.0,2337.0,1.8,3.03,13.68,0.0,-0.01,-0.15,0.0,p
3041.0,2989.0,2939.0,4095.0,4095.0,3282.0,2735.0,2340.0,1.83,3.07,13.56,0.0,0.01,-0.16,0.0,p
3046.0,2987.0,2944.0,4095.0,4095.0,3255.0,2731.0,2351.0,1.71,2.98,13.58,-0.01,0.02,-0.14,0.0,p
3055.0,2987.0,2950.0,4095.0,4095.0,3260.0,2727.0,2352.0,1.69,3.04,13.53,0.02,-0.0,-0.19,0.0,p
3046.0,2992.0,2949.0,4095.0,4095.0,3264.0,2735.0,2357.0,1.58,2.95,13.72,0.01,0.01,-0.15,0.0,p
3046.0,2992.0,2948.0,4095.0,4095.0,3269.0,2734.0,2352.0,1.61,3.06,13.63,0.05,-0.03,-0.15,0.0,p
3051.0,2986.0,2937.0,4095.0,4095.0,3254.0,2730.0,2351.0,1.75,2.98,13.66,0.01,-0.02,-0.18,0.0,p
3051.0,2992.0,2943.0,4095.0,4095.0,3250.0,2732.0,2355.0,1.58,3.02,13.69,0.03,0.01,-0.15,0.0,p
3037.0,2982.0,2949.0,4095.0,4095.0,3230.0,2724.0,2354.0,1.68,3.06,13.6,0.04,0.02,-0.15,0.0,p
3050.0,2988.0,2955.0,4095.0,4095.0,3237.0,2737.0,2362.0,1.6,3.06,13.52,-0.02,-0.01,-0.19,0.0,p
3039.0,2992.0,2941.0,4095.0,4095.0,3228.0,2729.0,2352.0,1.52,3.06,13.59,0.05,-0.0,-0.14,0.0,p
3055.0,2989.0,2959.0,4095.0,4095.0,3219.0,2737.0,2362.0,1.65,3.06,13.54,0.02,-0.03,-0.15,0.0,p
3046.0,2991.0,2942.0,4095.0,4095.0,3214.0,2732.0,2355.0,1.73,3.09,13.59,0.03,-0.01,-0.17,0.0,p
3045.0,2992.0,2960.0,4095.0,4095.0,3213.0,2736.0,2363.0,1.59,3.05,13.67,0.03,0.0,-0.17,0.0,p
3039.0,2984.0,2939.0,4095.0,4095.0,3207.0,2734.0,2354.0,1.65,3.06,13.63,0.0,0.0,-0.14,0.0,p
3039.0,2995.0,2942.0,4095.0,4095.0,3202.0,2738.0,2365.0,1.66,3.05,13.66,0.0,0.0,-0.14,0.0,p
3034.0,2994.0,2947.0,4095.0,4095.0,3175.0,2737.0,2367.0,1.64,3.1,13.56,0.02,-0.01,-0.16,0.0,p
3043.0,2993.0,2939.0,4095.0,4095.0,3148.0,2735.0,2362.0,1.64,3.07,13.67,0.02,-0.01,-0.17,0.0,p
3057.0,2996.0,2942.0,4095.0,4095.0,3153.0,2743.0,2368.0,1.55,3.04,13.7,0.04,-0.01,-0.16,0.0,p
3051.0,2987.0,2943.0,4095.0,4095.0,3152.0,2738.0,2366.0,1.7,3.1,13.58,0.03,0.02,-0.14,0.0,p
3041.0,2995.0,2951.0,4095.0,4095.0,3155.0,2739.0,2368.0,1.64,3.11,13.59,-0.01,0.01,-0.14,0.0,p
3042.0,2980.0,2947.0,4095.0,4095.0,3153.0,2739.0,2364.0,1.65,3.06,13.57,0.02,-0.0,-0.15,0.0,p
3041.0,2994.0,2942.0,4095.0,4095.0,3147.0,2739.0,2371.0,1.42,3.06,13.66,-0.01,0.02,-0.17,0.0,p
3036.0,2987.0,2947.0,4095.0,4095.0,3142.0,2739.0,2366.0,1.49,2.99,13.71,-0.01,-0.01,-0.12,0.0,p
3046.0,2994.0,2946.0,4095.0,4095.0,3152.0,2748.0,2375.0,1.63,3.06,13.53,0.01,-0.03,-0.13,0.0,p
3037.0,2983.0,2953.0,4095.0,4095.0,3142.0,2749.0,2381.0,1.75,2.89,13.67,0.04,-0.07,-0.23,0.0,p
3042.0,2981.0,2948.0,4095.0,4095.0,3141.0,2748.0,2382.0,1.62,3.14,13.46,0.06,-0.03,-0.17,0.0,p
3056.0,2992.0,2943.0,4095.0,4095.0,3155.0,2753.0,2384.0,1.56,3.07,13.64,0.02,0.0,-0.11,0.0,p
3047.0,2997.0,2941.0,4095.0,4095.0,3149.0,2746.0,2382.0,1.81,3.1,13.51,0.05,0.01,-0.12,0.0,p
3057.0,2997.0,2950.0,4095.0,4095.0,3164.0,2755.0,2383.0,1.76,3.06,13.67,0.01,0.01,-0.16,0.0,p
3053.0,2985.0,2944.0,4095.0,4095.0,3153.0,2745.0,2383.0,1.7,3.11,13.54,-0.01,0.01,-0.16,0.0,p
3058.0,2992.0,2947.0,4095.0,4095.0,3157.0,2751.0,2385.0,1.66,2.99,13.67,-0.03,0.01,-0.19,0.0,p
3047.0,2985.0,2949.0,4095.0,4095.0,3152.0,2748.0,2387.0,1.67,3.06,13.45,0.01,0.02,-0.17,0.0,p
3061.0,2992.0,2953.0,4095.0,4095.0,3158.0,2755.0,2390.0,1.55,2.87,13.9,-0.01,0.04,-0.14,0.0,p
3038.0,2978.0,2939.0,4095.0,4095.0,3159.0,2753.0,2386.0,1.62,2.95,13.73,-0.02,-0.0,-0.13,0.0,p
3052.0,2994.0,2950.0,4095.0,4095.0,3152.0,2757.0,2391.0,1.67,3.08,13.6,0.03,0.01,-0.14,0.0,p
3034.0,3002.0,2941.0,4095.0,4095.0,3150.0,2758.0,2390.0,1.54,3.03,13.57,0.04,-0.0,-0.14,0.0,p
3050.0,2983.0,2937.0,4095.0,4095.0,3152.0,2753.0,2387.0,1.61,3.12,13.48,0.05,-0.01,-0.14,0.0,p
3051.0,2991.0,2941.0,4095.0,4095.0,3152.0,2757.0,2387.0,1.66,3.05,13.69,-0.0,-0.01,-0.14,0.0,p
3038.0,2988.0,2943.0,4095.0,4095.0,3151.0,2752.0,2387.0,1.53,3.11,13.59,0.03,-0.0,-0.16,0.0,p
3056.0,2986.0,2939.0,4095.0,4095.0,3155.0,2761.0,2394.0,1.59,3.11,13.63,0.02,0.01,-0.13,0.0,p
3037.0,2992.0,2945.0,4095.0,4095.0,3147.0,2747.0,2384.0,1.65,3.06,13.69,0.02,-0.0,-0.13,0.0,p
3041.0,2975.0,2935.0,4095.0,4095.0,3167.0,2762.0,2390.0,1.57,3.18,13.52,0.02,0.01,-0.16,0.0,p
3046.0,2986.0,2950.0,4095.0,4095.0,3163.0,2757.0,2389.0,1.47,3.04,13.62,-0.03,-0.01,-0.15,0.0,p
3050.0,2999.0,2962.0,4095.0,4095.0,3168.0,2759.0,2399.0,1.56,3.0,13.68,-0.01,-0.01,-0.15,0.0,p
3045.0,2977.0,2950.0,4095.0,4095.0,3167.0,2761.0,2394.0,1.62,3.04,13.57,0.02,-0.02,-0.16,0.0,p
3041.0,2990.0,2951.0,4095.0,4095.0,3173.0,2768.0,2398.0,1.59,3.01,13.66,0.02,0.01,-0.16,0.0,p
3051.0,2983.0,2947.0,4095.0,4095.0,3163.0,2756.0,2394.0,1.51,3.11,13.65,0.03,-0.0,-0.16,0.0,p
3045.0,2985.0,2957.0,4095.0,4095.0,3173.0,2763.0,2401.0,1.58,3.05,13.56,-0.01,-0.01,-0.14,0.0,p
3035.0,2992.0,2939.0,4095.0,4095.0,3166.0,2764.0,2399.0,1.68,2.94,13.68,-0.02,-0.01,-0.16,0.0,p
3065.0,2990.0,2949.0,4095.0,4095.0,3171.0,2768.0,2399.0,1.57,3.13,13.56,0.03,0.01,-0.16,0.0,p
3051.0,2992.0,2945.0,4095.0,4095.0,3168.0,2757.0,2403.0,1.51,2.95,13.75,0.01,-0.01,-0.16,0.0,p
3061.0,2992.0,2959.0,4095.0,4095.0,3169.0,2763.0,2411.0,1.51,3.0,13.61,0.01,-0.02,-0.14,0.0,p
3056.0,2992.0,2954.0,4095.0,4095.0,3173.0,2767.0,2402.0,1.51,3.25,13.44,-0.01,-0.0,-0.13,0.0,p
3051.0,2993.0,2962.0,4095.0,4095.0,3168.0,2761.0,2410.0,1.62,3.38,13.2,-0.17,0.01,-0.07,0.0,p
3037.0,2992.0,2955.0,4095.0,4095.0,3179.0,2768.0,2407.0,1.53,2.83,13.64,-0.32,0.0,-0.11,0.0,p
3043.0,2987.0,2944.0,4095.0,4095.0,3169.0,2767.0,2403.0,1.08,2.14,13.99,-0.31,0.01,0.02,0.0,p
3055.0,2993.0,2949.0,4095.0,4095.0,3171.0,2768.0,2408.0,1.18,1.5,14.56,-0.02,-0.04,0.23,0.0,p
3033.0,2991.0,2951.0,4095.0,4095.0,3167.0,2755.0,2405.0,2.4,1.53,14.18,0.19,0.12,0.37,0.0,p
3053.0,2997.0,2954.0,4095.0,4095.0,3175.0,2768.0,2414.0,2.22,2.18,13.68,0.25,0.06,0.09,0.0,p
3046.0,2987.0,2951.0,4095.0,4095.0,3162.0,2755.0,2407.0,2.05,2.44,13.71,0.12,0.08,-0.08,0.0,p
3045.0,3003.0,2954.0,4095.0,4095.0,3183.0,2771.0,2416.0,1.64,2.47,13.81,0.1,0.02,-0.33,0.0,p
3051.0,2986.0,2945.0,4095.0,4095.0,3175.0,2758.0,2414.0,1.18,2.77,13.76,0.13,-0.02,-0.3,0.0,p
3047.0,2983.0,2945.0,4095.0,4095.0,3183.0,2768.0,2416.0,1.31,2.9,13.58,0.13,-0.01,-0.19,0.0,p
3034.0,2991.0,2944.0,4095.0,4095.0,3169.0,2765.0,2409.0,1.59,3.03,13.48,0.07,-0.01,-0.16,0.0,p
3038.0,2981.0,2950.0,4095.0,4095.0,3181.0,2767.0,2415.0,1.68,2.83,13.73,-0.01,0.02,-0.19,0.0,p
3050.0,2989.0,2946.0,4095.0,4095.0,3171.0,2766.0,2418.0,1.45,2.76,13.75,0.02,0.06,-0.25,0.0,p
3031.0,2992.0,2946.0,4095.0,4095.0,3167.0,2766.0,2413.0,1.61,2.82,13.79,0.06,0.08,-0.14,0.0,p
3043.0,2992.0,2938.0,4095.0,4095.0,3177.0,2770.0,2417.0,1.35,2.83,13.74,0.03,0.02,-0.26,0.0,p
3038.0,2990.0,2944.0,4095.0,4095.0,3165.0,2767.0,2416.0,1.46,2.54,14.05,0.17,0.08,-0.23,0.0,p
3036.0,2983.0,2960.0,4095.0,4095.0,3170.0,2767.0,2418.0,1.08,3.43,13.3,0.1,-0.02,-0.32,0.0,p
3033.0,2989.0,2939.0,4095.0,4095.0,3149.0,2770.0,2418.0,0.72,3.6,13.53,0.07,0.06,-0.21,0.0,p
3055.0,2993.0,2953.0,4095.0,4095.0,3154.0,2772.0,2422.0,1.03,3.33,13.54,-0.02,0.04,-0.14,0.0,p
3043.0,2991.0,2944.0,4095.0,4095.0,3152.0,2768.0,2416.0,1.22,3.2,13.52,-0.1,0.02,-0.18,0.0,p
3061.0,3004.0,2949.0,4095.0,4095.0,3153.0,2774.0,2421.0,0.93,2.87,13.87,-0.05,0.02,-0.22,0.0,p
3056.0,2992.0,2943.0,4095.0,4095.0,3149.0,2770.0,2419.0,0.82,3.05,13.73,-0.01,0.01,-0.13,0.0,p
3044.0,2998.0,2955.0,4095.0,4095.0,3152.0,2782.0,2426.0,0.62,3.05,13.77,-0.03,-0.02,-0.07,0.0,p
3040.0,2993.0,2955.0,4095.0,4095.0,3149.0,2769.0,2420.0,1.12,2.83,13.8,0.07,-0.03,0.03,0.0,p
3057.0,2981.0,2951.0,4095.0,4095.0,3149.0,2769.0,2417.0,1.57,2.92,13.63,0.15,0.01,-0.08,0.0,p
3055.0,2997.0,2945.0,4095.0,4095.0,3161.0,2782.0,2426.0,1.13,3.25,13.46,0.06,-0.01,-0.19,0.0,p
3039.0,2993.0,2947.0,4095.0,4095.0,3152.0,2768.0,2419.0,1.03,3.25,13.54,-0.02,0.0,-0.12,0.0,p
3045.0,3001.0,2944.0,4095.0,4095.0,3158.0,2781.0,2432.0,1.09,3.02,13.87,0.02,-0.01,-0.17,0.0,p
3053.0,2998.0,2951.0,4095.0,4095.0,3209.0,2793.0,2444.0,-0.13,2.83,13.74,0.03,-0.07,-0.2,0.0,p
3039.0,2977.0,2930.0,4095.0,4095.0,3206.0,2786.0,2448.0,0.21,2.5,14.14,0.11,-0.13,-0.18,0.0,p
3047.0,3003.0,2942.0,4095.0,4095.0,3213.0,2790.0,2435.0,0.33,3.08,13.23,0.2,-0.11,-0.12,0.0,p
3056.0,2997.0,2941.0,4095.0,4095.0,3201.0,2784.0,2435.0,0.45,2.85,13.81,-0.05,-0.11,-0.16,0.0,p
3055.0,2992.0,2943.0,4095.0,4095.0,3215.0,2795.0,2442.0,0.92,2.79,13.69,0.06,-0.02,-0.14,0.0,p
3043.0,2991.0,2949.0,4095.0,4095.0,3205.0,2786.0,2439.0,0.87,2.53,13.75,-0.09,-0.15,-0.41,0.0,p
3056.0,2996.0,2955.0,4095.0,4095.0,3210.0,2794.0,2448.0,0.62,2.89,13.99,0.09,-0.02,-0.36,0.0,p
3038.0,2994.0,2944.0,4095.0,4095.0,3209.0,2783.0,2438.0,0.29,3.09,13.56,0.11,-0.03,-0.26,0.0,p
3057.0,2992.0,2959.0,4095.0,4095.0,3215.0,2791.0,2443.0,0.62,2.87,13.73,0.06,-0.02,-0.34,0.0,p
3049.0,2998.0,2939.0,4095.0,4095.0,3200.0,2789.0,2448.0,0.17,2.91,13.78,0.05,0.05,-0.18,0.0,p
3045.0,2992.0,2945.0,4095.0,4095.0,3193.0,2790.0,2446.0,0.39,3.28,13.51,0.1,0.01,-0.13,0.0,p
3049.0,2996.0,2946.0,4095.0,4095.0,3207.0,2797.0,2448.0,0.58,3.17,13.59,-0.0,-0.03,-0.16,0.0,p
3043.0,2982.0,2941.0,4095.0,4095.0,3211.0,2794.0,2448.0,0.67,2.96,13.58,-0.04,-0.0,-0.18,0.0,p
3045.0,2994.0,2948.0,4095.0,4095.0,3211.0,2795.0,2448.0,0.72,3.04,13.72,-0.03,0.09,-0.23,0.0,p
3045.0,2992.0,2931.0,4095.0,4095.0,3203.0,2796.0,2447.0,-0.01,3.19,13.68,-0.05,0.04,-0.3,0.0,p
3041.0,2990.0,2944.0,4095.0,4095.0,3207.0,2799.0,2448.0,-0.4,2.99,13.97,0.0,0.03,-0.05,0.0,p
3044.0,2990.0,2943.0,4095.0,4095.0,3205.0,2798.0,2447.0,0.37,2.49,14.12,0.05,0.02,0.06,0.0,p
3056.0,2993.0,2947.0,4095.0,4095.0,3206.0,2798.0,2450.0,0.64,2.83,13.78,0.1,-0.02,-0.07,0.0,p
3039.0,2993.0,2935.0,4095.0,4095.0,3205.0,2794.0,2447.0,0.23,3.06,13.75,0.09,-0.07,-0.19,0.0,p
3050.0,2990.0,2944.0,4095.0,4095.0,3203.0,2794.0,2449.0,0.45,3.34,13.57,0.11,-0.0,-0.13,0.0,p
3054.0,2994.0,2937.0,4095.0,4095.0,3164.0,2809.0,2459.0,-0.2,3.51,13.58,-0.0,0.05,-0.32,0.0,p
3030.0,2992.0,2941.0,4095.0,4095.0,3163.0,2803.0,2450.0,0.2,3.4,13.42,-0.19,0.15,-0.15,0.0,p
3037.0,2998.0,2942.0,4095.0,4095.0,3169.0,2802.0,2455.0,-0.41,3.32,13.67,0.04,-0.01,-0.31,0.0,p
3049.0,2998.0,2948.0,4095.0,4095.0,3162.0,2801.0,2451.0,-0.37,3.55,13.39,0.0,0.06,-0.22,0.0,p
3046.0,2995.0,2960.0,4095.0,4095.0,3170.0,2811.0,2463.0,-0.61,3.58,13.37,-0.05,-0.02,-0.18,0.0,p
3028.0,2977.0,2947.0,4095.0,4095.0,3165.0,2806.0,2455.0,-0.54,3.03,13.91,-0.13,-0.15,-0.16,0.0,p
3051.0,3005.0,2955.0,4095.0,4095.0,3183.0,2815.0,2462.0,0.09,3.16,13.49,0.14,0.09,0.03,0.0,p
3046.0,2991.0,2938.0,4095.0,4095.0,3173.0,2810.0,2459.0,-0.02,3.53,13.29,0.03,-0.06,-0.21,0.0,p
3043.0,3014.0,2957.0,4095.0,4095.0,3173.0,2810.0,2463.0,-0.13,3.29,13.67,0.02,0.0,-0.17,0.0,p
3054.0,2992.0,2945.0,4095.0,4095.0,3169.0,2811.0,2459.0,-0.35,3.34,13.69,0.04,-0.03,-0.17,0.0,p
3054.0,2992.0,2957.0,4095.0,4095.0,3175.0,2810.0,2463.0,-0.03,3.34,13.57,-0.01,-0.06,-0.18,0.0,p
3042.0,2992.0,2937.0,4095.0,4095.0,3174.0,2813.0,2460.0,0.09,3.14,13.8,-0.06,-0.24,-0.42,0.0,p
3056.0,2996.0,2943.0,4095.0,4095.0,3169.0,2813.0,2454.0,-0.11,3.52,13.47,0.13,0.09,-0.11,0.0,p
3049.0,2992.0,2953.0,4095.0,4095.0,3168.0,2814.0,2459.0,0.1,3.31,13.6,-0.01,-0.01,-0.18,0.0,p
3042.0,2985.0,2945.0,4095.0,4095.0,3163.0,2807.0,2454.0,-0.08,3.35,13.56,0.01,0.0,-0.19,0.0,p
3046.0,2993.0,2946.0,4095.0,4095.0,3177.0,2815.0,2462.0,-0.07,3.27,13.69,-0.01,-0.0,-0.16,0.0,p
3045.0,2983.0,2945.0,4095.0,4095.0,3170.0,2817.0,2462.0,-0.1,3.23,13.67,-0.0,-0.05,-0.21,0.0,p
3056.0,2992.0,2957.0,4095.0,4095.0,3178.0,2816.0,2471.0,0.0,3.08,13.87,0.04,-0.24,-0.41,0.0,p
3054.0,2992.0,2942.0,4095.0,4095.0,3175.0,2815.0,2459.0,0.12,3.56,13.27,0.13,0.08,-0.07,0.0,p
3059.0,2989.0,2940.0,4095.0,4095.0,3182.0,2826.0,2467.0,0.12,3.56,13.4,-0.03,-0.02,-0.16,0.0,p
3056.0,2995.0,2949.0,4095.0,4095.0,3184.0,2816.0,2462.0,0.13,3.28,13.58,-0.01,-0.01,-0.18,0.0,p
3052.0,2997.0,2943.0,4095.0,4095.0,3184.0,2818.0,2463.0,-0.01,3.22,13.72,0.01,0.02,-0.14,0.0,p
3051.0,2989.0,2943.0,4095.0,4095.0,3178.0,2816.0,2465.0,0.05,3.31,13.58,-0.01,-0.01,-0.16,0.0,p
3058.0,2999.0,2958.0,4095.0,4095.0,3179.0,2817.0,2469.0,0.06,3.24,13.64,0.02,0.01,-0.15,0.0,p
3051.0,2995.0,2939.0,4095.0,4095.0,3167.0,2815.0,2461.0,0.03,3.31,13.52,0.04,0.01,-0.14,0.0,p
3055.0,2995.0,2953.0,4095.0,4095.0,3193.0,2820.0,2465.0,0.07,3.27,13.63,0.02,-0.01,-0.16,0.0,p
3042.0,2996.0,2944.0,4095.0,4095.0,3179.0,2815.0,2462.0,0.02,3.34,13.62,0.02,0.01,-0.13,0.0,p
3054.0,3005.0,2959.0,4095.0,4095.0,3183.0,2820.0,2470.0,0.02,3.34,13.59,0.01,0.02,-0.12,0.0,p
3040.0,2986.0,2938.0,4095.0,4095.0,3181.0,2815.0,2463.0,0.02,3.28,13.62,0.01,-0.0,-0.14,0.0,p
3058.0,2991.0,2951.0,4095.0,4095.0,3184.0,2820.0,2471.0,0.01,3.29,13.63,0.03,-0.0,-0.16,0.0,p
3045.0,2979.0,2942.0,4095.0,4095.0,3183.0,2814.0,2464.0,-0.02,3.32,13.63,0.01,-0.02,-0.16,0.0,p
3053.0,2999.0,2960.0,4095.0,4095.0,3182.0,2818.0,2471.0,0.0,3.28,13.59,0.01,0.0,-0.15,0.0,p
3049.0,2983.0,2943.0,4095.0,4095.0,3183.0,2827.0,2473.0,-0.02,3.31,13.53,0.01,-0.01,-0.15,0.0,p
3039.0,2992.0,2946.0,4095.0,4095.0,3183.0,2815.0,2465.0,0.04,3.3,13.6,0.01,-0.01,-0.16,0.0,p
3060.0,2993.0,2964.0,4095.0,4095.0,3186.0,2821.0,2476.0,-0.02,3.34,13.64,0.04,0.0,-0.16,0.0,p
3043.0,2979.0,2937.0,4095.0,4095.0,3183.0,2815.0,2469.0,-0.06,3.26,13.7,0.02,-0.01,-0.16,0.0,p
3054.0,2992.0,2951.0,4095.0,4095.0,3184.0,2819.0,2471.0,0.08,3.32,13.57,0.01,-0.01,-0.14,0.0,p
3043.0,2983.0,2943.0,4095.0,4095.0,3184.0,2817.0,2475.0,0.04,3.29,13.61,0.02,-0.01,-0.17,0.0,p
3046.0,2992.0,2959.0,4095.0,4095.0,3183.0,2817.0,2480.0,-0.08,3.33,13.65,0.02,0.0,-0.15,0.0,p
3053.0,2992.0,2954.0,4095.0,4095.0,3184.0,2813.0,2476.0,0.05,3.28,13.69,0.03,-0.0,-0.14,0.0,p
3049.0,2981.0,2929.0,4095.0,4095.0,3184.0,2816.0,2475.0,0.13,3.29,13.63,0.01,-0.02,-0.16,0.0,p
3061.0,2993.0,2944.0,4095.0,4095.0,3189.0,2826.0,2480.0,0.06,3.32,13.58,0.01,-0.01,-0.19,0.0,p
3041.0,2988.0,2941.0,4095.0,4095.0,3181.0,2814.0,2480.0,-0.18,3.3,13.68,0.01,-0.0,-0.15,0.0,p
3056.0,2990.0,2951.0,4095.0,4095.0,3184.0,2819.0,2483.0,0.04,3.28,13.65,0.02,-0.01,-0.13,0.0,p
3038.0,2992.0,2951.0,4095.0,4095.0,3184.0,2816.0,2470.0,0.14,3.32,13.55,0.01,-0.01,-0.16,0.0,p
3049.0,2991.0,2954.0,4095.0,4095.0,3189.0,2825.0,2480.0,-0.03,3.33,13.64,0.01,-0.0,-0.16,0.0,p
3045.0,3000.0,2958.0,4095.0,4095.0,3184.0,2814.0,2480.0,0.06,3.29,13.62,0.01,0.01,-0.14,0.0,p
3038.0,2992.0,2948.0,4095.0,4095.0,3184.0,2813.0,2480.0,-0.02,3.32,13.63,-0.02,-0.03,-0.2,0.0,p
3050.0,2997.0,2943.0,4095.0,4095.0,3186.0,2821.0,2480.0,-0.09,3.28,13.66,0.03,0.01,-0.11,0.0,p
3043.0,2993.0,2941.0,4095.0,4095.0,3183.0,2821.0,2478.0,0.14,3.31,13.57,0.04,0.02,-0.1,0.0,p
3049.0,2994.0,2955.0,4095.0,4095.0,3184.0,2822.0,2480.0,0.07,3.3,13.63,0.02,-0.02,-0.18,0.0,p
3051.0,2999.0,2943.0,4095.0,4095.0,3181.0,2816.0,2476.0,-0.05,3.32,13.57,0.01,-0.02,-0.18,0.0,p
3056.0,2991.0,2944.0,4095.0,4095.0,3190.0,2826.0,2480.0,0.04,3.31,13.6,0.03,0.02,-0.12,0.0,p
3046.0,2986.0,2934.0,4095.0,4095.0,3179.0,2818.0,2478.0,0.0,3.34,13.6,0.01,-0.01,-0.16,0.0,p
3053.0,2999.0,2950.0,4095.0,4095.0,3185.0,2817.0,2480.0,-0.01,3.32,13.67,0.01,-0.01,-0.16,0.0,p
3036.0,2994.0,2948.0,4095.0,4095.0,3184.0,2822.0,2480.0,-0.03,3.36,13.51,0.02,-0.09,-0.2,0.0,p
3054.0,2999.0,2951.0,4095.0,4095.0,3192.0,2825.0,2486.0,0.2,3.4,13.35,-0.01,-0.1,-0.2,0.0,p
3051.0,2992.0,2945.0,4095.0,4095.0,3167.0,2822.0,2480.0,0.38,3.14,13.7,0.04,-0.05,-0.26,0.0,p
3051.0,2993.0,2945.0,4095.0,4095.0,3167.0,2822.0,2480.0,-0.02,3.06,13.83,-0.05,-0.05,-0.29,0.0,p
3049.0,2993.0,2947.0,4095.0,4095.0,3178.0,2826.0,2483.0,-0.24,3.27,13.74,0.12,-0.12,-0.28,0.0,p
3039.0,2998.0,2949.0,4095.0,4095.0,3210.0,2875.0,2559.0,-0.14,2.49,13.96,0.08,-0.02,-0.18,0.0,p
3053.0,2995.0,2943.0,4095.0,4095.0,3221.0,2881.0,2558.0,0.22,2.8,13.67,0.07,-0.0,-0.12,0.0,p
3046.0,2991.0,2950.0,4095.0,4095.0,3218.0,2875.0,2559.0,0.13,2.74,13.82,0.03,-0.01,-0.16,0.0,p
3046.0,2992.0,2951.0,4095.0,4095.0,3211.0,2877.0,2551.0,0.0,2.76,13.81,0.05,0.0,-0.14,0.0,p
3056.0,2997.0,2946.0,4095.0,4095.0,3218.0,2883.0,2559.0,0.21,2.93,13.63,0.03,-0.02,-0.1,0.0,p
3039.0,2981.0,2951.0,4095.0,4095.0,3219.0,2874.0,2549.0,0.34,2.86,13.64,-0.04,0.01,-0.15,0.0,p
3056.0,3007.0,2953.0,4095.0,4095.0,3223.0,2879.0,2559.0,0.14,2.59,13.94,-0.03,0.01,-0.19,0.0,p
3041.0,2996.0,2950.0,4095.0,4095.0,3221.0,2874.0,2557.0,0.05,2.61,13.9,0.03,0.02,-0.16,0.0,p
3050.0,2993.0,2945.0,4095.0,4095.0,3216.0,2875.0,2555.0,-0.05,2.76,13.82,0.03,0.0,-0.16,0.0,p
3039.0,2994.0,2946.0,4095.0,4095.0,3221.0,2878.0,2558.0,0.1,2.69,13.75,0.01,-0.02,-0.16,0.0,p
3050.0,2987.0,2952.0,4095.0,4095.0,3215.0,2879.0,2555.0,0.16,2.79,13.68,0.03,0.0,-0.16,0.0,p
3050.0,3003.0,2944.0,4095.0,4095.0,3226.0,2879.0,2559.0,0.04,2.58,13.95,0.03,-0.01,-0.18,0.0,p
3037.0,2983.0,2937.0,4095.0,4095.0,3213.0,2869.0,2553.0,0.01,2.9,13.75,0.01,-0.02,-0.12,0.0,p
3050.0,2983.0,2944.0,4095.0,4095.0,3223.0,2882.0,2553.0,0.2,2.53,14.15,0.01,-0.17,-0.13,0.0,p
3038.0,2992.0,2942.0,4095.0,4095.0,3218.0,2870.0,2550.0,0.13,2.9,13.32,0.13,-0.11,-0.21,0.0,p
3044.0,3004.0,2944.0,4095.0,4095.0,3223.0,2881.0,2553.0,0.58,2.83,13.77,-0.06,0.01,-0.16,0.0,p
3047.0,2993.0,2937.0,4095.0,4095.0,3219.0,2879.0,2555.0,0.35,2.67,13.89,0.02,0.02,-0.23,0.0,p
3056.0,2992.0,2949.0,4095.0,4095.0,3230.0,2886.0,2559.0,0.14,2.94,13.75,-0.01,0.02,-0.16,0.0,p
3038.0,3002.0,2939.0,4095.0,4095.0,3226.0,2879.0,2559.0,0.16,2.71,13.69,-0.01,0.02,-0.12,0.0,p
3037.0,2992.0,2954.0,4095.0,4095.0,3211.0,2871.0,2558.0,0.26,2.68,13.88,0.0,0.03,-0.11,0.0,p
3056.0,2989.0,2969.0,4095.0,4095.0,3017.0,2706.0,2285.0,-0.88,4.53,13.02,-0.02,-0.02,-0.2,0.0,p
3039.0,3004.0,2967.0,4095.0,4095.0,3031.0,2711.0,2290.0,-0.86,4.53,13.1,0.02,-0.04,-0.2,0.0,p
3046.0,2997.0,2951.0,4095.0,4095.0,3024.0,2707.0,2289.0,-0.84,4.58,13.01,0.03,-0.02,-0.16,0.0,p
3046.0,2992.0,2966.0,4095.0,4095.0,3035.0,2715.0,2294.0,-0.84,4.65,13.0,0.07,0.05,-0.14,0.0,p
3037.0,2992.0,2962.0,4095.0,4095.0,3031.0,2718.0,2291.0,-0.71,4.68,12.79,0.01,-0.0,-0.16,0.0,p
3056.0,2995.0,2964.0,4095.0,4095.0,3029.0,2722.0,2304.0,-0.86,4.61,12.98,-0.01,-0.04,-0.18,0.0,p
3041.0,2994.0,2960.0,4095.0,4095.0,3030.0,2717.0,2302.0,-0.81,4.59,12.97,0.01,0.01,-0.13,0.0,p
3037.0,2983.0,2954.0,4095.0,4095.0,3028.0,2718.0,2305.0,-0.74,4.64,12.91,0.02,-0.02,-0.16,0.0,p
3058.0,2989.0,2961.0,4095.0,4095.0,3041.0,2727.0,2307.0,-0.81,4.64,12.95,-0.02,-0.16,-0.25,0.0,p
3042.0,2992.0,2962.0,4095.0,4095.0,3034.0,2723.0,2303.0,-0.15,4.25,13.35,-0.27,-1.49,-1.06,0.0,p
3050.0,3001.0,2966.0,4095.0,4095.0,3053.0,2733.0,2307.0,0.36,4.33,13.08,0.01,-0.06,-0.22,0.0,p
3042.0,2998.0,2961.0,4095.0,4095.0,3055.0,2727.0,2301.0,0.17,4.38,13.04,-0.04,0.01,-0.13,0.0,p
3050.0,2991.0,2960.0,4095.0,4095.0,3056.0,2732.0,2307.0,0.41,4.07,13.4,-0.0,0.17,-0.07,0.0,p
3039.0,2986.0,2960.0,4095.0,4095.0,3056.0,2722.0,2303.0,0.1,4.13,13.3,0.02,-0.03,-0.21,0.0,p
3045.0,3002.0,2963.0,4095.0,4095.0,3058.0,2736.0,2315.0,-0.05,4.21,13.3,0.02,0.0,-0.14,0.0,p
3041.0,3003.0,2958.0,4095.0,4095.0,3056.0,2731.0,2309.0,0.13,4.17,13.25,0.03,-0.0,-0.12,0.0,p
3041.0,2997.0,2954.0,4095.0,4095.0,3061.0,2734.0,2314.0,0.16,4.24,13.2,0.02,-0.02,-0.12,0.0,p
3049.0,2988.0,2963.0,4095.0,4095.0,3056.0,2725.0,2311.0,0.29,4.21,13.07,-0.01,-0.02,-0.16,0.0,p
3036.0,2992.0,2966.0,4095.0,4095.0,3055.0,2729.0,2306.0,0.28,4.18,13.24,-0.0,-0.01,-0.17,0.0,p
3052.0,2995.0,2960.0,4095.0,4095.0,3056.0,2736.0,2314.0,0.11,4.09,13.34,-0.02,0.0,-0.19,0.0,p
3039.0,3005.0,2956.0,4095.0,4095.0,2946.0,2736.0,2353.0,0.59,4.53,13.13,0.12,0.02,-0.15,0.0,p
3047.0,3005.0,2960.0,4095.0,4095.0,2970.0,2741.0,2353.0,0.82,4.49,13.27,0.1,0.07,-0.05,0.0,p
3047.0,2991.0,2950.0,4095.0,4095.0,2961.0,2742.0,2352.0,0.88,4.97,12.48,0.0,-0.04,-0.14,0.0,p
3060.0,2998.0,2969.0,4095.0,4095.0,2942.0,2738.0,2357.0,0.96,4.53,13.04,-0.08,-0.04,-0.17,0.0,p
3049.0,2989.0,2963.0,4095.0,4095.0,2955.0,2746.0,2352.0,1.02,4.43,13.13,-0.1,0.08,-0.12,0.0,p
3042.0,2992.0,2959.0,4095.0,4095.0,2959.0,2746.0,2352.0,0.88,4.26,13.25,-0.04,0.07,-0.19,0.0,p
3035.0,2995.0,2960.0,4095.0,4095.0,2957.0,2746.0,2358.0,0.77,4.47,13.05,-0.09,0.1,-0.17,0.0,p
3044.0,3009.0,2962.0,4095.0,4095.0,2970.0,2748.0,2359.0,0.37,4.18,13.3,-0.08,0.03,-0.27,0.0,p
3045.0,3006.0,2960.0,4095.0,4095.0,2966.0,2748.0,2355.0,0.27,4.15,13.34,-0.01,0.02,-0.19,0.0,p
3050.0,2998.0,2969.0,4095.0,4095.0,2976.0,2752.0,2361.0,0.5,4.25,13.2,-0.01,0.04,-0.13,0.0,p
3056.0,2994.0,2956.0,4095.0,4095.0,2980.0,2753.0,2363.0,0.56,4.1,13.27,-0.07,0.01,-0.19,0.0,p
3041.0,2996.0,2954.0,4095.0,4095.0,2969.0,2743.0,2355.0,0.39,3.9,13.47,-0.06,0.02,-0.18,0.0,p
3049.0,3001.0,2955.0,4095.0,4095.0,2976.0,2751.0,2362.0,0.28,3.88,13.44,0.02,0.02,-0.18,0.0,p
3040.0,2999.0,2960.0,4095.0,4095.0,2963.0,2748.0,2358.0,0.18,4.01,13.37,0.05,-0.02,-0.14,0.0,p
3054.0,2997.0,2960.0,4095.0,4095.0,2971.0,2754.0,2367.0,0.54,4.03,13.36,0.05,0.01,-0.1,0.0,p
3037.0,2983.0,2956.0,4095.0,4095.0,2973.0,2751.0,2361.0,0.42,4.06,13.35,0.07,-0.02,-0.15,0.0,p
3047.0,2993.0,2963.0,4095.0,4095.0,2978.0,2750.0,2363.0,0.5,4.18,13.17,0.06,-0.01,-0.13,0.0,p
3043.0,2991.0,2955.0,4095.0,4095.0,2966.0,2740.0,2355.0,0.58,4.16,13.17,0.03,-0.01,-0.17,0.0,p
3043.0,3005.0,2969.0,4095.0,4095.0,2971.0,2752.0,2368.0,0.39,4.24,13.22,0.02,-0.02,-0.18,0.0,p
3045.0,2997.0,2960.0,4095.0,4095.0,2970.0,2747.0,2363.0,0.48,4.07,13.32,-0.03,-0.0,-0.15,0.0,p
3054.0,2989.0,2960.0,4095.0,4095.0,2959.0,2757.0,2373.0,0.31,4.27,13.12,0.05,0.02,-0.15,0.0,p
3056.0,2994.0,2963.0,4095.0,4095.0,2965.0,2753.0,2371.0,0.5,4.15,13.33,-0.03,0.01,-0.14,0.0,p
3055.0,3007.0,2973.0,4095.0,4095.0,2968.0,2762.0,2374.0,0.45,4.12,13.31,0.02,0.0,-0.19,0.0,p
3043.0,2995.0,2957.0,4095.0,4095.0,2955.0,2752.0,2370.0,0.21,4.16,13.35,0.03,0.02,-0.18,0.0,p
3042.0,2999.0,2961.0,4095.0,4095.0,2948.0,2756.0,2374.0,0.21,4.17,13.28,0.03,0.01,-0.12,0.0,p
3047.0,2998.0,2966.0,4095.0,4095.0,2949.0,2752.0,2374.0,0.36,4.17,13.26,0.05,0.02,-0.1,0.0,p
3059.0,2992.0,2961.0,4095.0,4095.0,2941.0,2761.0,2381.0,0.42,4.22,13.22,0.04,-0.01,-0.14,0.0,p
3050.0,2993.0,2959.0,4095.0,4095.0,2939.0,2758.0,2382.0,0.34,4.18,13.38,0.03,-0.02,-0.16,0.0,p
3053.0,3015.0,2963.0,4095.0,4095.0,2946.0,2758.0,2384.0,0.44,4.27,13.11,0.03,-0.02,-0.14,0.0,p
3047.0,2999.0,2953.0,4095.0,4095.0,2935.0,2755.0,2377.0,0.54,4.28,13.25,0.02,0.02,-0.13,0.0,p
3046.0,2993.0,2960.0,4095.0,4095.0,2946.0,2762.0,2382.0,0.3,4.31,13.14,0.03,0.02,-0.15,0.0,p
3039.0,2993.0,2957.0,4095.0,4095.0,2943.0,2756.0,2375.0,0.32,4.22,13.36,-0.02,-0.0,-0.13,0.0,p
3049.0,2995.0,2963.0,4095.0,4095.0,2951.0,2766.0,2384.0,0.37,4.3,13.13,0.03,-0.01,-0.14,0.0,p
3056.0,3007.0,2960.0,4095.0,4095.0,2944.0,2767.0,2387.0,0.43,4.2,13.28,0.0,-0.02,-0.17,0.0,p
3050.0,2991.0,2955.0,4095.0,4095.0,2944.0,2759.0,2384.0,0.3,4.21,13.29,0.02,-0.0,-0.17,0.0,p
3049.0,2999.0,2969.0,4095.0,4095.0,2953.0,2758.0,2385.0,0.3,4.25,13.25,-0.0,-0.0,-0.12,0.0,p
3043.0,2986.0,2960.0,4095.0,4095.0,2949.0,2755.0,2375.0,0.46,4.23,13.21,0.0,-0.0,-0.12,0.0,p
3056.0,3007.0,2960.0,4095.0,4095.0,2955.0,2766.0,2389.0,0.5,4.15,13.3,0.0,-0.03,-0.15,0.0,p
3045.0,2997.0,2960.0,4095.0,4095.0,2942.0,2758.0,2383.0,0.34,4.28,13.08,0.01,-0.03,-0.14,0.0,p
3046.0,3008.0,2960.0,4095.0,4095.0,3001.0,2762.0,2384.0,0.42,4.2,13.2,-0.13,-0.12,0.03,0.0,p
3040.0,2995.0,2958.0,4095.0,4095.0,3542.0,2784.0,2421.0,1.02,3.0,13.69,0.0,0.0,-0.18,0.0,p
3056.0,2992.0,2957.0,4095.0,4095.0,3551.0,2787.0,2423.0,0.82,2.95,13.75,-0.02,0.01,-0.2,0.0,p
3051.0,2992.0,2960.0,4095.0,4095.0,3539.0,2794.0,2432.0,0.7,2.85,13.81,-0.02,0.01,-0.18,0.0,p
3031.0,2999.0,2965.0,4095.0,4095.0,3521.0,2783.0,2427.0,0.85,2.78,13.94,-0.02,0.01,-0.17,0.0,p
3045.0,2991.0,2974.0,4095.0,4095.0,3526.0,2799.0,2428.0,0.82,2.86,13.71,0.05,0.02,-0.16,0.0,p
3039.0,2992.0,2948.0,4095.0,4095.0,3487.0,2788.0,2429.0,0.73,2.98,13.68,0.01,-0.0,-0.16,0.0,p
3044.0,2993.0,2962.0,4095.0,4095.0,3479.0,2795.0,2430.0,0.7,2.89,13.74,0.0,-0.02,-0.13,0.0,p
3044.0,2998.0,2960.0,4095.0,4095.0,3456.0,2801.0,2434.0,1.0,2.99,13.62,0.04,0.01,-0.13,0.0,p
3052.0,2993.0,2960.0,4095.0,4095.0,3440.0,2793.0,2431.0,1.08,2.99,13.64,-0.01,0.08,-0.18,0.0,p
3043.0,2992.0,2957.0,4095.0,4095.0,3424.0,2793.0,2432.0,0.13,2.74,14.12,0.01,-0.02,-0.23,0.0,p
3056.0,2986.0,2965.0,4095.0,4095.0,3440.0,2800.0,2436.0,0.55,2.93,13.72,0.06,-0.01,-0.03,0.0,p
3039.0,2993.0,2960.0,4095.0,4095.0,3426.0,2799.0,2437.0,1.24,3.04,13.51,0.06,0.01,-0.11,0.0,p
3056.0,3007.0,2969.0,4095.0,4095.0,3426.0,2801.0,2445.0,0.72,2.88,13.85,-0.0,0.01,-0.17,0.0,p
3056.0,2996.0,2960.0,4095.0,4095.0,3413.0,2800.0,2446.0,0.75,2.94,13.72,0.02,-0.01,-0.17,0.0,p
3042.0,2985.0,2947.0,4095.0,4095.0,3403.0,2807.0,2448.0,0.78,3.03,13.62,0.01,-0.0,-0.15,0.0,p
3049.0,2994.0,2960.0,4095.0,4095.0,3391.0,2800.0,2448.0,0.73,2.97,13.79,0.01,-0.01,-0.17,0.0,p
3050.0,2993.0,2960.0,4095.0,4095.0,3393.0,2790.0,2434.0,0.66,2.94,13.75,-0.0,-0.01,-0.14,0.0,p
3045.0,2993.0,2960.0,4095.0,4095.0,3406.0,2805.0,2446.0,0.58,2.98,13.79,0.09,-0.05,-0.14,0.0,p
3038.0,2990.0,2963.0,4095.0,4095.0,3371.0,2795.0,2438.0,0.77,3.09,13.62,0.04,-0.02,-0.02,0.0,p
3051.0,2992.0,2957.0,4095.0,4095.0,3361.0,2797.0,2446.0,1.34,3.0,13.64,0.05,0.01,-0.09,0.0,p
3041.0,2993.0,2960.0,4095.0,4095.0,3319.0,2795.0,2441.0,0.84,3.11,13.7,0.04,-0.05,-0.19,0.0,p
3057.0,3003.0,2960.0,4095.0,4095.0,3326.0,2801.0,2449.0,0.74,3.29,13.55,0.06,-0.01,-0.13,0.0,p
3038.0,2982.0,2954.0,4095.0,4095.0,3312.0,2800.0,2449.0,1.12,3.13,13.68,0.02,-0.04,-0.22,0.0,p
3057.0,2999.0,2960.0,4095.0,4095.0,3305.0,2802.0,2451.0,0.48,3.41,13.43,0.03,-0.12,-0.32,0.0,p
3052.0,2992.0,2955.0,4095.0,4095.0,3297.0,2797.0,2443.0,0.9,3.06,13.79,-0.11,0.09,-0.08,0.0,p
3043.0,3001.0,2967.0,4095.0,4095.0,3313.0,2801.0,2448.0,1.12,2.99,13.72,0.03,0.03,-0.27,0.0,p
3052.0,2983.0,2970.0,4095.0,4095.0,3303.0,2799.0,2439.0,0.47,3.28,13.75,0.07,0.04,-0.25,0.0,p
3049.0,2995.0,2966.0,4095.0,4095.0,3313.0,2803.0,2449.0,0.46,3.18,13.65,0.0,0.05,-0.13,0.0,p
3049.0,2999.0,2965.0,4095.0,4095.0,3301.0,2797.0,2444.0,0.7,3.03,13.76,0.01,0.05,-0.12,0.0,p
3050.0,3005.0,2979.0,4095.0,4095.0,3312.0,2807.0,2452.0,0.61,3.11,13.7,0.05,0.02,-0.19,0.0,p
3045.0,2995.0,2963.0,4095.0,4095.0,3325.0,2804.0,2445.0,0.34,3.24,13.63,0.03,-0.01,-0.16,0.0,p
3037.0,2995.0,2959.0,4095.0,4095.0,3312.0,2798.0,2445.0,0.57,3.17,13.72,0.05,0.01,-0.1,0.0,p
3042.0,2991.0,2955.0,4095.0,4095.0,3318.0,2803.0,2450.0,0.62,3.29,13.61,0.06,-0.01,-0.14,0.0,p
3051.0,2986.0,2950.0,4095.0,4095.0,3312.0,2795.0,2448.0,0.74,3.37,13.48,0.02,0.02,-0.12,0.0,p
3058.0,2993.0,2960.0,4095.0,4095.0,3319.0,2804.0,2449.0,0.62,3.21,13.7,-0.03,0.01,-0.17,0.0,p
3041.0,2985.0,2960.0,4095.0,4095.0,3311.0,2797.0,2448.0,0.49,3.14,13.72,-0.02,0.0,-0.16,0.0,p
3050.0,2995.0,2960.0,4095.0,4095.0,3323.0,2800.0,2450.0,0.56,3.18,13.7,0.02,-0.0,-0.14,0.0,p
3039.0,2992.0,2961.0,4095.0,4095.0,3315.0,2800.0,2448.0,0.57,3.26,13.55,0.02,-0.01,-0.14,0.0,p
3047.0,2995.0,2957.0,4095.0,4095.0,3321.0,2800.0,2449.0,0.52,3.1,13.82,0.05,-0.05,-0.17,0.0,p
3038.0,2999.0,2960.0,4095.0,4095.0,3311.0,2794.0,2450.0,0.69,3.29,13.56,0.07,-0.03,-0.11,0.0,p
3043.0,2983.0,2960.0,4095.0,4095.0,3282.0,2803.0,2461.0,0.91,2.93,13.76,0.03,-0.04,-0.19,0.0,p
3049.0,2992.0,2953.0,4095.0,4095.0,3287.0,2805.0,2463.0,0.9,2.98,13.73,-0.01,0.0,-0.23,0.0,p
3037.0,2992.0,2955.0,4095.0,4095.0,3281.0,2801.0,2459.0,0.57,2.94,13.82,-0.03,-0.03,-0.24,0.0,p
3058.0,3007.0,2963.0,4095.0,4095.0,3283.0,2803.0,2465.0,0.09,2.95,13.5,-0.17,-0.21,-0.18,0.0,p
3043.0,2998.0,2953.0,4095.0,4095.0,3280.0,2804.0,2460.0,1.33,2.34,13.95,0.01,0.09,0.09,0.0,p
3056.0,3003.0,2970.0,4095.0,4095.0,3285.0,2809.0,2462.0,1.36,2.66,13.78,-0.01,-0.04,-0.2,0.0,p
3047.0,3003.0,2960.0,4095.0,4095.0,3280.0,2803.0,2459.0,1.02,2.57,13.83,-0.05,0.02,-0.22,0.0,p
3051.0,3009.0,2963.0,4095.0,4095.0,3285.0,2810.0,2473.0,0.6,2.46,14.0,-0.02,0.07,-0.19,0.0,p
3047.0,2999.0,2961.0,4095.0,4095.0,3281.0,2800.0,2465.0,0.68,2.47,13.92,0.04,0.03,-0.12,0.0,p
3051.0,3009.0,2955.0,4095.0,4095.0,3282.0,2807.0,2467.0,0.81,2.51,13.76,0.02,-0.02,-0.14,0.0,p
3050.0,2992.0,2960.0,4095.0,4095.0,3293.0,2810.0,2470.0,0.93,2.51,13.84,0.08,-0.04,-0.2,0.0,p
3043.0,2979.0,2960.0,4095.0,4095.0,3285.0,2799.0,2468.0,0.92,2.7,13.63,0.03,0.03,-0.2,0.0,p
3051.0,2993.0,2962.0,4095.0,4095.0,3292.0,2815.0,2474.0,0.79,2.59,13.73,-0.02,0.01,-0.2,0.0,p
3042.0,2993.0,2954.0,4095.0,4095.0,3280.0,2803.0,2474.0,0.68,2.55,13.86,0.03,0.02,-0.19,0.0,p
3047.0,3008.0,2971.0,4095.0,4095.0,3265.0,2811.0,2478.0,0.55,2.62,13.88,0.04,-0.01,-0.15,0.0,p
3035.0,2998.0,2970.0,4095.0,4095.0,3248.0,2802.0,2470.0,0.74,2.65,13.83,0.02,-0.01,-0.11,0.0,p
3053.0,3008.0,2973.0,4095.0,4095.0,3250.0,2805.0,2475.0,0.85,2.58,13.91,0.05,-0.0,-0.15,0.0,p
3041.0,2992.0,2956.0,4095.0,4095.0,3255.0,2805.0,2480.0,0.74,2.57,13.82,0.01,0.0,-0.17,0.0,p
3052.0,2998.0,2960.0,4095.0,4095.0,3263.0,2807.0,2478.0,0.77,2.82,13.75,0.04,-0.0,-0.14,0.0,p
3041.0,2990.0,2961.0,4095.0,4095.0,3253.0,2800.0,2473.0,0.61,2.51,13.91,-0.07,-0.05,-0.2,0.0,p
3043.0,3001.0,2962.0,4095.0,4095.0,3250.0,2811.0,2484.0,0.89,2.74,13.8,0.01,0.03,-0.14,0.0,p
3053.0,2989.0,2959.0,4095.0,4095.0,3248.0,2811.0,2480.0,0.81,2.7,13.77,-0.02,0.01,-0.19,0.0,p
3056.0,2987.0,2966.0,4095.0,4095.0,3264.0,2813.0,2481.0,0.61,2.59,14.02,0.0,-0.01,-0.15,0.0,p
3046.0,2985.0,2957.0,4095.0,4095.0,3263.0,2815.0,2480.0,0.9,2.73,13.64,0.01,-0.01,-0.13,0.0,p
3055.0,2992.0,2960.0,4095.0,4095.0,3255.0,2810.0,2480.0,0.82,2.52,14.0,0.01,-0.0,-0.17,0.0,p
3039.0,2990.0,2960.0,4095.0,4095.0,3262.0,2817.0,2480.0,0.77,2.76,13.75,0.05,-0.01,-0.14,0.0,p
3053.0,2981.0,2959.0,4095.0,4095.0,3258.0,2814.0,2480.0,0.93,2.83,13.64,-0.01,-0.01,-0.12,0.0,p
3049.0,2993.0,2959.0,4095.0,4095.0,3269.0,2815.0,2481.0,0.83,2.61,13.86,0.01,-0.02,-0.16,0.0,p
3052.0,2992.0,2959.0,4095.0,4095.0,3258.0,2811.0,2477.0,0.83,2.71,13.85,0.06,-0.02,-0.15,0.0,p
3048.0,2985.0,2971.0,4095.0,4095.0,3271.0,2816.0,2480.0,0.94,2.75,13.71,0.0,-0.01,-0.17,0.0,p
3054.0,3007.0,2958.0,4095.0,4095.0,3251.0,2809.0,2480.0,0.78,2.76,13.74,-0.0,-0.0,-0.16,0.0,p
3053.0,2993.0,2965.0,4095.0,4095.0,3263.0,2814.0,2484.0,0.78,2.71,13.79,0.02,0.0,-0.14,0.0,p
3056.0,2987.0,2955.0,4095.0,4095.0,3261.0,2811.0,2482.0,0.89,2.65,13.9,0.02,0.01,-0.15,0.0,p
3063.0,2992.0,2970.0,4095.0,4095.0,3263.0,2815.0,2483.0,0.75,2.79,13.73,0.01,-0.0,-0.16,0.0,p
3031.0,2983.0,2957.0,4095.0,4095.0,3262.0,2815.0,2480.0,0.83,2.67,13.86,0.01,-0.01,-0.13,0.0,p
3059.0,3002.0,2964.0,4095.0,4095.0,3257.0,2815.0,2483.0,0.97,2.61,13.81,0.02,-0.0,-0.16,0.0,p
3055.0,2989.0,2965.0,4095.0,4095.0,3264.0,2817.0,2480.0,0.71,2.79,13.59,0.01,0.01,-0.15,0.0,p
3039.0,2986.0,2965.0,4095.0,4095.0,3255.0,2809.0,2482.0,0.85,2.64,13.79,0.03,-0.01,-0.16,0.0,p
3053.0,3001.0,2966.0,4095.0,4095.0,3257.0,2814.0,2487.0,0.81,2.78,13.73,0.04,-0.01,-0.14,0.0,p
3051.0,2985.0,2965.0,4095.0,4095.0,3251.0,2811.0,2480.0,0.76,2.72,13.91,0.03,-0.02,-0.14,0.0,p
3045.0,3003.0,2965.0,4095.0,4095.0,3247.0,2819.0,2490.0,0.51,2.77,13.98,0.01,0.02,-0.16,0.0,p
3045.0,2987.0,2957.0,4095.0,4095.0,3233.0,2816.0,2483.0,0.58,2.84,13.86,0.03,0.0,-0.15,0.0,p
3056.0,3000.0,2960.0,4095.0,4095.0,3242.0,2821.0,2490.0,0.62,2.78,13.84,-0.0,-0.02,-0.12,0.0,p
3039.0,2998.0,2963.0,4095.0,4095.0,3230.0,2810.0,2480.0,0.78,2.74,13.84,0.03,-0.03,-0.16,0.0,p
3055.0,3008.0,2965.0,4095.0,4095.0,3236.0,2819.0,2487.0,0.74,2.82,13.81,0.04,-0.01,-0.15,0.0,p
3031.0,2994.0,2960.0,4095.0,4095.0,3233.0,2822.0,2490.0,0.8,2.87,13.72,0.03,-0.0,-0.15,0.0,p
3046.0,2991.0,2961.0,4095.0,4095.0,3235.0,2815.0,2481.0,0.77,2.83,13.82,0.02,0.0,-0.14,0.0,p
3056.0,2992.0,2965.0,4095.0,4095.0,3235.0,2818.0,2494.0,0.7,2.94,13.69,0.02,-0.0,-0.15,0.0,p
3035.0,2991.0,2959.0,4095.0,4095.0,3232.0,2813.0,2492.0,0.76,2.74,13.85,0.01,-0.01,-0.16,0.0,p
3035.0,2985.0,2969.0,4095.0,4095.0,3239.0,2822.0,2496.0,0.73,2.81,13.79,0.0,-0.01,-0.16,0.0,p
3046.0,2988.0,2961.0,4095.0,4095.0,3232.0,2818.0,2489.0,0.77,2.79,13.81,0.04,-0.01,-0.15,0.0,p
3056.0,2993.0,2966.0,4095.0,4095.0,3243.0,2816.0,2483.0,0.79,3.0,13.56,0.02,-0.01,-0.16,0.0,p
3039.0,2990.0,2971.0,4095.0,4095.0,3235.0,2813.0,2482.0,0.85,2.9,13.54,-0.06,-0.0,-0.18,0.0,p
3047.0,2992.0,2951.0,4095.0,4095.0,3237.0,2823.0,2496.0,0.66,2.66,13.96,-0.01,0.03,-0.18,0.0,p
3053.0,2996.0,2960.0,4095.0,4095.0,3231.0,2819.0,2490.0,0.34,2.82,13.8,0.02,0.01,-0.14,0.0,p
3056.0,2992.0,2976.0,4095.0,4095.0,3239.0,2822.0,2487.0,0.84,2.75,13.81,-0.0,0.02,-0.07,0.0,p
3041.0,2992.0,2960.0,4095.0,4095.0,3236.0,2820.0,2486.0,0.85,2.71,13.83,0.03,-0.02,-0.2,0.0,p
3051.0,2996.0,2967.0,4095.0,4095.0,3234.0,2815.0,2491.0,0.46,2.82,13.79,0.01,-0.01,-0.16,0.0,p
3061.0,2994.0,2967.0,4095.0,4095.0,3248.0,2837.0,2496.0,0.69,2.66,13.96,0.05,-0.01,-0.12,0.0,p
3056.0,2991.0,2958.0,4095.0,4095.0,3235.0,2814.0,2493.0,0.87,3.09,13.54,0.06,0.01,-0.14,0.0,p
3051.0,3009.0,2972.0,4095.0,4095.0,3237.0,2820.0,2503.0,0.63,2.73,13.9,0.03,-0.01,-0.15,0.0,p
3054.0,2985.0,2959.0,4095.0,4095.0,3246.0,2822.0,2502.0,0.8,2.95,13.57,-0.01,0.02,-0.1,0.0,p
3047.0,2992.0,2956.0,4095.0,4095.0,3234.0,2816.0,2491.0,0.9,2.67,13.86,-0.03,0.01,-0.19,0.0,p
3047.0,3001.0,2977.0,4095.0,4095.0,3245.0,2817.0,2499.0,0.49,2.73,13.75,0.02,-0.03,-0.2,0.0,p
3055.0,2988.0,2960.0,4095.0,4095.0,3234.0,2819.0,2495.0,0.63,2.77,13.76,0.01,-0.01,-0.12,0.0,p
3040.0,2992.0,2966.0,4095.0,4095.0,3243.0,2814.0,2496.0,0.75,2.73,13.8,0.05,-0.01,-0.15,0.0,p
3038.0,2983.0,2960.0,4095.0,4095.0,3236.0,2816.0,2496.0,0.69,2.9,13.64,0.02,0.0,-0.15,0.0,p
3056.0,2990.0,2960.0,4095.0,4095.0,3245.0,2827.0,2505.0,0.64,2.81,13.85,0.03,0.0,-0.17,0.0,p
3050.0,2987.0,2959.0,4095.0,4095.0,3242.0,2819.0,2494.0,0.64,2.79,13.83,0.02,0.01,-0.13,0.0,p
3048.0,2999.0,2959.0,4095.0,4095.0,3250.0,2826.0,2501.0,0.71,2.86,13.73,0.02,-0.01,-0.14,0.0,p
3042.0,2980.0,2959.0,4095.0,4095.0,3244.0,2823.0,2496.0,0.68,2.81,13.77,0.01,-0.01,-0.17,0.0,p
3045.0,2992.0,2971.0,4095.0,4095.0,3251.0,2825.0,2502.0,0.62,2.81,13.85,0.01,0.01,-0.16,0.0,p
3039.0,2995.0,2967.0,4095.0,4095.0,3234.0,2819.0,2497.0,0.61,2.77,13.86,-0.02,0.0,-0.14,0.0,p
3054.0,2997.0,2960.0,4095.0,4095.0,3241.0,2819.0,2498.0,0.64,2.72,13.84,-0.0,-0.01,-0.15,0.0,p
3045.0,2999.0,2960.0,4095.0,4095.0,3248.0,2829.0,2500.0,0.64,2.83,13.67,0.04,-0.01,-0.15,0.0,p
3049.0,2996.0,2964.0,4095.0,4095.0,3234.0,2821.0,2496.0,0.68,2.77,13.83,0.05,-0.02,-0.18,0.0,p
3044.0,2996.0,2960.0,4095.0,4095.0,3248.0,2832.0,2507.0,0.62,2.9,13.78,0.02,0.01,-0.15,0.0,p
3036.0,3001.0,2960.0,4095.0,4095.0,3241.0,2819.0,2495.0,0.71,2.74,13.88,-0.02,0.02,-0.15,0.0,p
3049.0,3008.0,2958.0,4095.0,4095.0,3248.0,2829.0,2505.0,0.54,2.8,13.81,0.02,0.0,-0.15,0.0,p
3038.0,2982.0,2954.0,4095.0,4095.0,3242.0,2825.0,2502.0,0.66,2.86,13.71,0.03,0.0,-0.12,0.0,p
3037.0,2997.0,2958.0,4095.0,4095.0,3234.0,2823.0,2505.0,0.42,2.86,13.78,0.06,-0.03,-0.14,0.0,p
3047.0,2995.0,2957.0,4095.0,4095.0,3254.0,2832.0,2511.0,0.7,2.96,13.58,0.05,-0.06,-0.13,0.0,p
3053.0,2992.0,2960.0,4095.0,4095.0,3234.0,2825.0,2507.0,0.77,2.87,13.75,0.05,-0.04,-0.14,0.0,p
3051.0,2997.0,2963.0,4095.0,4095.0,3242.0,2830.0,2511.0,0.96,3.0,13.58,0.02,0.0,-0.13,0.0,p
3034.0,3005.0,2956.0,4095.0,4095.0,3239.0,2826.0,2503.0,0.89,2.84,13.74,0.01,0.01,-0.2,0.0,p
3042.0,2997.0,2960.0,4095.0,4095.0,3245.0,2830.0,2511.0,0.62,2.85,13.76,-0.0,0.01,-0.18,0.0,p
3041.0,2990.0,2965.0,4095.0,4095.0,3241.0,2826.0,2501.0,0.47,2.62,13.88,-0.04,-0.03,-0.12,0.0,p
3034.0,2982.0,2960.0,4095.0,4095.0,3231.0,2821.0,2507.0,0.7,3.24,12.92,0.18,-0.09,-0.17,0.0,p
3039.0,3004.0,2971.0,4095.0,4095.0,3231.0,2823.0,2508.0,0.87,2.88,13.73,0.05,-0.04,-0.15,0.0,p
3046.0,2986.0,2947.0,4095.0,4095.0,3222.0,2827.0,2503.0,0.75,2.8,13.84,0.01,-0.01,-0.17,0.0,p
3049.0,2993.0,2960.0,4095.0,4095.0,3211.0,2830.0,2509.0,0.78,2.84,13.72,-0.04,0.02,-0.11,0.0,p
3045.0,2989.0,2953.0,4095.0,4095.0,3213.0,2826.0,2506.0,0.95,2.72,13.89,0.01,-0.0,-0.2,0.0,p
3047.0,2992.0,2959.0,4095.0,4095.0,3216.0,2825.0,2507.0,0.63,2.87,13.78,-0.02,-0.0,-0.18,0.0,p
3052.0,2996.0,2955.0,4095.0,4095.0,3219.0,2827.0,2507.0,0.71,2.87,13.71,0.03,-0.01,-0.17,0.0,p
3047.0,2990.0,2962.0,4095.0,4095.0,3232.0,2830.0,2509.0,0.78,2.79,13.79,-0.01,-0.0,-0.14,0.0,p
3035.0,2978.0,2950.0,4095.0,4095.0,3227.0,2827.0,2503.0,0.74,2.78,13.72,-0.0,-0.01,-0.14,0.0,p
3045.0,2992.0,2968.0,4095.0,4095.0,3224.0,2832.0,2511.0,0.83,2.83,13.72,-0.01,-0.02,-0.15,0.0,p
3047.0,2996.0,2966.0,4095.0,4095.0,3216.0,2826.0,2509.0,0.79,2.76,13.84,0.06,-0.02,-0.18,0.0,p
3064.0,2993.0,2963.0,4095.0,4095.0,3231.0,2832.0,2505.0,0.71,2.84,13.86,0.03,0.0,-0.15,0.0,p
3056.0,2994.0,2964.0,4095.0,4095.0,3239.0,2832.0,2512.0,0.74,2.84,13.78,0.05,0.0,-0.14,0.0,p
3051.0,3009.0,2949.0,4095.0,4095.0,3442.0,2681.0,2217.0,-0.4,3.17,13.52,0.02,-0.01,-0.12,0.0,p
3051.0,3007.0,2961.0,4095.0,4095.0,3413.0,2672.0,2231.0,-0.27,3.25,13.54,0.01,0.03,-0.13,0.0,p
3037.0,2997.0,2959.0,4095.0,4095.0,3365.0,2675.0,2235.0,-0.51,3.11,13.78,0.02,0.02,-0.16,0.0,p
3042.0,3006.0,2965.0,4095.0,4095.0,3370.0,2686.0,2241.0,-0.51,3.31,13.5,0.02,0.05,-0.07,0.0,p
3037.0,3001.0,2947.0,4095.0,4095.0,3398.0,2678.0,2245.0,-0.21,3.16,13.66,0.04,0.03,-0.11,0.0,p
3045.0,3006.0,2963.0,4095.0,4095.0,3418.0,2687.0,2246.0,-0.3,3.2,13.56,0.0,-0.0,-0.2,0.0,p
3031.0,3002.0,2957.0,4095.0,4095.0,3408.0,2679.0,2247.0,-0.51,3.16,13.65,0.0,0.01,-0.15,0.0,p
3053.0,2998.0,2955.0,4095.0,4095.0,3427.0,2695.0,2257.0,-0.59,3.17,13.7,0.03,-0.01,-0.15,0.0,p
3041.0,2996.0,2960.0,4095.0,4095.0,3409.0,2687.0,2257.0,-0.34,3.24,13.54,0.01,-0.04,-0.14,0.0,p
3057.0,2992.0,2959.0,4095.0,4095.0,3412.0,2695.0,2266.0,-0.34,3.2,13.56,0.01,-0.0,-0.17,0.0,p
3049.0,2992.0,2943.0,4095.0,4095.0,3424.0,2694.0,2270.0,-0.46,3.15,13.63,0.05,0.01,-0.18,0.0,p
3043.0,2992.0,2963.0,4095.0,4095.0,3436.0,2694.0,2272.0,-0.41,3.16,13.64,0.01,-0.0,-0.18,0.0,p
3041.0,2998.0,2954.0,4095.0,4095.0,3425.0,2704.0,2286.0,-0.57,3.23,13.68,0.04,0.01,-0.17,0.0,p
3043.0,3008.0,2949.0,4095.0,4095.0,3420.0,2699.0,2279.0,-0.49,3.21,13.57,0.07,0.02,-0.14,0.0,p
3043.0,3003.0,2962.0,4095.0,4095.0,3439.0,2706.0,2288.0,-0.47,3.28,13.6,0.03,0.0,-0.15,0.0,p
3037.0,2991.0,2960.0,4095.0,4095.0,3439.0,2704.0,2286.0,-0.43,3.29,13.51,0.02,0.01,-0.18,0.0,p
3046.0,2992.0,2951.0,4095.0,4095.0,3441.0,2704.0,2289.0,-0.83,3.27,13.63,0.02,0.0,-0.15,0.0,p
3039.0,3001.0,2951.0,4095.0,4095.0,3425.0,2708.0,2291.0,-0.38,3.18,13.59,0.03,0.01,-0.1,0.0,p
3048.0,2992.0,2957.0,4095.0,4095.0,3422.0,2713.0,2297.0,-0.3,3.22,13.64,0.03,0.02,-0.15,0.0,p
3041.0,2987.0,2960.0,4095.0,4095.0,3394.0,2706.0,2293.0,-0.56,3.37,13.46,0.03,-0.0,-0.18,0.0,p
3041.0,3007.0,2967.0,4095.0,4095.0,3358.0,2726.0,2319.0,-0.51,3.21,13.66,0.02,-0.01,-0.19,0.0,p
3039.0,2997.0,2945.0,4095.0,4095.0,3343.0,2720.0,2310.0,-0.65,3.33,13.56,0.01,0.0,-0.14,0.0,p
3052.0,2997.0,2962.0,4095.0,4095.0,3343.0,2729.0,2320.0,-0.57,3.21,13.64,-0.01,-0.03,-0.14,0.0,p
3052.0,2992.0,2960.0,4095.0,4095.0,3353.0,2729.0,2315.0,-0.31,3.2,13.55,0.02,0.01,-0.16,0.0,p
3053.0,2996.0,2955.0,4095.0,4095.0,3365.0,2736.0,2322.0,-0.54,3.34,13.49,-0.0,-0.01,-0.18,0.0,p
3039.0,2991.0,2959.0,4095.0,4095.0,3358.0,2725.0,2319.0,-0.64,3.0,13.76,-0.05,-0.05,-0.14,0.0,p
3037.0,3002.0,2970.0,4095.0,4095.0,3376.0,2726.0,2329.0,-0.55,3.14,13.76,0.21,-0.03,-0.06,0.0,p
3055.0,2991.0,2941.0,4095.0,4095.0,3365.0,2735.0,2322.0,-0.11,3.59,13.29,0.07,0.01,-0.13,0.0,p
3056.0,2999.0,2947.0,4095.0,4095.0,3375.0,2736.0,2320.0,-0.38,3.27,13.59,-0.05,-0.01,-0.18,0.0,p
3042.0,3009.0,2960.0,4095.0,4095.0,3376.0,2733.0,2330.0,-0.45,3.23,13.68,0.0,-0.03,-0.17,0.0,p
3051.0,2991.0,2956.0,4095.0,4095.0,3361.0,2730.0,2327.0,-0.35,3.32,13.7,0.06,0.01,-0.14,0.0,p
3051.0,3005.0,2969.0,4095.0,4095.0,3347.0,2736.0,2330.0,-0.43,3.46,13.42,0.01,0.02,-0.17,0.0,p
3040.0,2998.0,2948.0,4095.0,4095.0,3345.0,2735.0,2331.0,-0.65,3.41,13.46,-0.01,0.0,-0.17,0.0,p
3053.0,3005.0,2963.0,4095.0,4095.0,3344.0,2736.0,2334.0,-0.35,3.35,13.47,-0.01,0.05,-0.08,0.0,p
3036.0,2985.0,2962.0,4095.0,4095.0,3322.0,2739.0,2331.0,-0.39,3.05,13.88,0.01,-0.03,-0.2,0.0,p
3055.0,3004.0,2947.0,4095.0,4095.0,3327.0,2736.0,2342.0,-0.6,3.34,13.46,0.05,-0.03,-0.19,0.0,p
3049.0,3007.0,2962.0,4095.0,4095.0,3300.0,2738.0,2343.0,-0.23,3.32,13.36,-0.03,0.02,-0.17,0.0,p
3050.0,2997.0,2960.0,4095.0,4095.0,3332.0,2745.0,2343.0,-0.74,3.07,13.82,0.05,-0.0,-0.24,0.0,p
3047.0,2981.0,2955.0,4095.0,4095.0,3328.0,2737.0,2337.0,-0.53,3.29,13.55,-0.0,-0.01,-0.13,0.0,p
3055.0,3005.0,2957.0,4095.0,4095.0,3334.0,2736.0,2343.0,-0.4,3.39,13.34,0.03,0.0,-0.13,0.0,p
3055.0,3007.0,2951.0,4095.0,4095.0,3247.0,2759.0,2365.0,-0.46,3.64,13.35,0.04,-0.01,-0.14,0.0,p
3051.0,2983.0,2960.0,4095.0,4095.0,3248.0,2751.0,2353.0,-0.53,3.38,13.56,-0.06,-0.04,-0.23,0.0,p
3046.0,2994.0,2960.0,4095.0,4095.0,3261.0,2764.0,2362.0,-0.5,3.42,13.59,0.05,-0.01,-0.29,0.0,p
3053.0,2992.0,2961.0,4095.0,4095.0,3259.0,2763.0,2356.0,-0.79,3.63,13.17,-0.07,0.01,-0.21,0.0,p
3056.0,3011.0,2954.0,4095.0,4095.0,3276.0,2767.0,2368.0,-0.66,2.98,13.92,-0.06,-0.06,-0.16,0.0,p
3033.0,2992.0,2945.0,4095.0,4095.0,3254.0,2764.0,2365.0,-0.55,3.26,13.66,0.1,-0.02,-0.26,0.0,p
3046.0,3003.0,2951.0,4095.0,4095.0,3263.0,2757.0,2367.0,-0.79,3.51,13.47,0.03,0.01,-0.23,0.0,p
3046.0,2998.0,2946.0,4095.0,4095.0,3264.0,2763.0,2368.0,-0.8,3.37,13.46,-0.02,-0.02,-0.24,0.0,p
3055.0,2999.0,2963.0,4095.0,4095.0,3277.0,2764.0,2366.0,-0.99,3.56,13.41,-0.07,-0.12,-0.18,0.0,p
3047.0,2990.0,2955.0,4095.0,4095.0,3258.0,2765.0,2359.0,-0.85,3.16,13.67,-0.16,-0.04,-0.09,0.0,p
3040.0,3001.0,2955.0,4095.0,4095.0,3242.0,2767.0,2375.0,-0.31,2.64,14.02,-0.18,-0.24,-0.2,0.0,p
3040.0,2992.0,2943.0,4095.0,4095.0,3264.0,2769.0,2372.0,-0.32,3.04,13.67,0.07,0.17,0.01,0.0,p
3035.0,2992.0,2949.0,4095.0,4095.0,3292.0,2763.0,2369.0,-0.86,3.12,13.57,0.04,0.27,0.06,0.0,p
3056.0,2992.0,2955.0,4095.0,4095.0,3328.0,2771.0,2378.0,-0.55,3.0,13.73,0.02,0.09,-0.04,0.0,p
3050.0,3002.0,2953.0,4095.0,4095.0,3329.0,2768.0,2371.0,-0.35,3.09,13.46,-0.11,-0.12,-0.2,0.0,p
3037.0,2992.0,2960.0,4095.0,4095.0,3337.0,2773.0,2376.0,-0.64,2.69,13.88,-0.17,-0.24,-0.29,0.0,p
3035.0,2992.0,2945.0,4095.0,4095.0,3298.0,2759.0,2372.0,-0.63,2.55,14.13,-0.15,-0.58,-0.4,0.0,p
3043.0,2999.0,2961.0,4095.0,4095.0,3293.0,2763.0,2372.0,0.7,2.63,13.63,0.12,-0.26,-0.23,0.0,p
3040.0,2994.0,2959.0,4095.0,4095.0,3278.0,2758.0,2375.0,0.36,3.21,13.22,0.01,0.09,-0.09,0.0,p
3040.0,2992.0,2955.0,4095.0,4095.0,3303.0,2768.0,2383.0,0.06,2.57,13.93,-0.05,0.06,-0.17,0.0,p
3036.0,2994.0,2954.0,4095.0,4095.0,3216.0,2770.0,2378.0,0.03,2.51,13.73,0.05,-0.0,-0.15,0.0,p
3049.0,2994.0,2957.0,4095.0,4095.0,3209.0,2774.0,2382.0,-0.54,2.45,13.92,-0.02,-0.06,-0.24,0.0,p
3050.0,2989.0,2955.0,4095.0,4095.0,3199.0,2772.0,2384.0,-0.7,2.34,13.89,0.01,-0.01,-0.13,0.0,p
3053.0,2992.0,2955.0,4095.0,4095.0,3205.0,2768.0,2384.0,-0.13,2.44,13.84,0.05,0.03,-0.09,0.0,p
3054.0,2997.0,2958.0,4095.0,4095.0,3218.0,2770.0,2381.0,-0.16,2.39,13.82,0.02,0.01,-0.17,0.0,p
3050.0,3001.0,2947.0,4095.0,4095.0,3213.0,2772.0,2386.0,-0.43,2.41,13.95,-0.01,0.01,-0.17,0.0,p
3038.0,2992.0,2943.0,4095.0,4095.0,3205.0,2769.0,2386.0,-0.48,2.47,13.89,0.03,-0.02,-0.16,0.0,p
3053.0,2993.0,2947.0,4095.0,4095.0,3172.0,2774.0,2384.0,-0.18,2.53,13.67,0.01,0.05,-0.13,0.0,p
3033.0,3008.0,2966.0,4095.0,4095.0,3185.0,2773.0,2387.0,-0.36,2.16,14.16,0.0,0.03,-0.18,0.0,p
3051.0,2998.0,2947.0,4095.0,4095.0,3193.0,2770.0,2384.0,-0.63,2.44,13.9,0.06,-0.02,-0.19,0.0,p
3045.0,3006.0,2960.0,4095.0,4095.0,3205.0,2778.0,2389.0,-0.41,2.55,13.58,0.01,0.05,-0.06,0.0,p
3045.0,2988.0,2949.0,4095.0,4095.0,3200.0,2779.0,2390.0,-0.22,2.35,13.9,-0.01,-0.0,-0.14,0.0,p
3058.0,2999.0,2963.0,4095.0,4095.0,3196.0,2784.0,2393.0,-0.39,2.3,13.96,0.04,0.0,-0.18,0.0,p
3031.0,2985.0,2960.0,4095.0,4095.0,3198.0,2772.0,2385.0,-0.54,2.53,13.83,0.06,0.02,-0.15,0.0,p
3054.0,2997.0,2955.0,4095.0,4095.0,3207.0,2779.0,2395.0,-0.36,2.49,13.8,-0.01,-0.01,-0.15,0.0,p
3042.0,2992.0,2955.0,4095.0,4095.0,3195.0,2773.0,2387.0,-0.51,2.4,13.91,0.01,-0.01,-0.14,0.0,p
3040.0,3011.0,2963.0,4095.0,4095.0,3209.0,2770.0,2385.0,-0.3,2.43,13.88,0.0,-0.03,-0.12,0.0,p
3043.0,3002.0,2960.0,4095.0,4095.0,3208.0,2764.0,2385.0,-0.34,2.47,13.8,0.02,0.01,-0.15,0.0,p
3063.0,2999.0,2950.0,4095.0,4095.0,3216.0,2781.0,2390.0,-0.4,2.36,13.9,0.01,-0.01,-0.15,0.0,p
3041.0,2991.0,2944.0,4095.0,4095.0,3215.0,2780.0,2392.0,-0.29,2.09,14.24,-0.02,-0.02,-0.18,0.0,p
3040.0,2987.0,2951.0,4095.0,4095.0,3199.0,2784.0,2390.0,-0.3,2.47,13.78,-0.01,0.02,-0.17,0.0,p
3062.0,2998.0,2959.0,4095.0,4095.0,3205.0,2788.0,2396.0,-0.1,2.48,13.81,-0.04,0.01,-0.18,0.0,p
3043.0,2987.0,2955.0,4095.0,4095.0,3199.0,2788.0,2395.0,-0.07,2.24,13.84,-0.1,0.02,-0.17,0.0,p
3051.0,3003.0,2966.0,4095.0,4095.0,3209.0,2789.0,2387.0,-0.48,2.1,14.25,-0.05,0.02,-0.14,0.0,p
3037.0,2989.0,2951.0,4095.0,4095.0,3201.0,2789.0,2394.0,-0.21,2.09,14.0,0.03,0.01,-0.15,0.0,p
3057.0,3007.0,2950.0,4095.0,4095.0,3205.0,2791.0,2396.0,-0.19,2.19,14.03,0.06,-0.03,-0.21,0.0,p
3056.0,2992.0,2951.0,4095.0,4095.0,3210.0,2800.0,2401.0,-0.16,2.3,13.8,0.02,-0.01,-0.17,0.0,p
3040.0,2992.0,2943.0,4095.0,4095.0,3185.0,2797.0,2400.0,-0.23,2.23,13.97,0.03,-0.01,-0.16,0.0,p
3043.0,2993.0,2960.0,4095.0,4095.0,3189.0,2795.0,2401.0,-0.24,2.17,13.97,0.01,-0.03,-0.06,0.0,p
3042.0,2995.0,2949.0,4095.0,4095.0,3181.0,2787.0,2402.0,-0.17,2.3,13.89,0.11,-0.06,-0.13,0.0,p
3058.0,2992.0,2960.0,4095.0,4095.0,3185.0,2793.0,2399.0,0.15,2.38,13.77,0.03,-0.03,-0.14,0.0,p
3040.0,2992.0,2949.0,4095.0,4095.0,3185.0,2790.0,2406.0,0.09,2.37,13.81,0.08,-0.01,-0.23,0.0,p
3051.0,3003.0,2960.0,4095.0,4095.0,3195.0,2794.0,2409.0,-0.27,2.44,13.78,-0.02,0.01,-0.14,0.0,p
3037.0,3007.0,2956.0,4095.0,4095.0,3188.0,2793.0,2404.0,0.03,2.36,13.87,-0.02,0.02,-0.13,0.0,p
3039.0,2995.0,2960.0,4095.0,4095.0,3201.0,2795.0,2401.0,-0.11,2.37,13.91,0.01,0.02,-0.18,0.0,p
3038.0,3004.0,2949.0,4095.0,4095.0,3184.0,2789.0,2399.0,-0.26,2.36,13.86,-0.01,0.0,-0.17,0.0,p
3043.0,3008.0,2961.0,4095.0,4095.0,3193.0,2799.0,2411.0,-0.18,2.21,13.97,0.01,0.01,-0.15,0.0,p
3055.0,2992.0,2946.0,4095.0,4095.0,3191.0,2795.0,2417.0,-0.14,2.28,13.95,0.05,-0.01,-0.17,0.0,p
3031.0,2992.0,2949.0,4095.0,4095.0,3198.0,2794.0,2402.0,-0.25,2.42,13.78,0.04,0.01,-0.13,0.0,p
3063.0,2993.0,2957.0,4095.0,4095.0,3209.0,2800.0,2414.0,-0.13,2.3,13.95,0.02,0.01,-0.14,0.0,p
3036.0,2991.0,2949.0,4095.0,4095.0,3201.0,2793.0,2402.0,-0.2,2.38,13.82,-0.01,0.01,-0.15,0.0,p
3058.0,2998.0,2955.0,4095.0,4095.0,3214.0,2800.0,2414.0,-0.24,2.35,13.87,0.02,-0.01,-0.15,0.0,p
3033.0,3006.0,2956.0,4095.0,4095.0,3206.0,2799.0,2410.0,-0.2,2.42,13.8,-0.0,0.04,-0.11,0.0,p
3041.0,2999.0,2965.0,4095.0,4095.0,3195.0,2795.0,2410.0,-0.28,2.16,14.06,-0.03,0.01,-0.16,0.0,p
3050.0,3004.0,2958.0,4095.0,4095.0,3211.0,2802.0,2415.0,-0.36,2.15,14.03,0.03,0.02,-0.14,0.0,p
3056.0,2992.0,2947.0,4095.0,4095.0,3202.0,2795.0,2415.0,-0.87,2.29,14.16,0.09,-0.04,-0.1,0.0,p
3039.0,3001.0,2969.0,4095.0,4095.0,3211.0,2800.0,2414.0,-0.01,2.41,13.73,0.02,-0.09,-0.02,0.0,p
3040.0,2987.0,2945.0,4095.0,4095.0,3204.0,2797.0,2415.0,0.15,2.42,13.85,0.04,-0.05,-0.13,0.0,p
3047.0,2999.0,2960.0,4095.0,4095.0,3175.0,2798.0,2413.0,0.01,2.44,13.77,-0.02,-0.03,-0.14,0.0,p
3055.0,2994.0,2963.0,4095.0,4095.0,3183.0,2800.0,2416.0,0.14,2.42,13.76,-0.09,-0.03,-0.21,0.0,p
3042.0,3005.0,2961.0,4095.0,4095.0,3196.0,2798.0,2415.0,-0.25,2.08,14.02,-0.07,-0.02,-0.22,0.0,p
3051.0,2992.0,2945.0,4095.0,4095.0,3203.0,2800.0,2413.0,-0.24,2.15,14.02,-0.0,-0.01,-0.14,0.0,p
3053.0,2993.0,2949.0,4095.0,4095.0,3206.0,2803.0,2418.0,0.01,2.15,13.99,0.02,0.02,-0.13,0.0,p
3041.0,2988.0,2953.0,4095.0,4095.0,3211.0,2799.0,2416.0,-0.14,2.3,13.79,0.02,0.01,-0.17,0.0,p
3056.0,2999.0,2951.0,4095.0,4095.0,3213.0,2801.0,2411.0,-0.19,2.17,13.94,0.01,0.01,-0.18,0.0,p
3056.0,3003.0,2960.0,4095.0,4095.0,3216.0,2802.0,2416.0,-0.18,2.05,14.09,-0.0,0.02,-0.19,0.0,p
3042.0,2990.0,2960.0,4095.0,4095.0,3211.0,2802.0,2415.0,-0.31,2.14,13.95,-0.01,0.0,-0.14,0.0,p
3043.0,2998.0,2947.0,4095.0,4095.0,3231.0,2809.0,2420.0,-0.15,2.05,14.08,0.05,0.02,-0.09,0.0,p
3047.0,3002.0,2951.0,4095.0,4095.0,3202.0,2800.0,2416.0,-0.23,2.13,14.01,0.09,-0.01,-0.14,0.0,p
3045.0,2992.0,2962.0,4095.0,4095.0,3210.0,2805.0,2416.0,-0.15,2.47,13.8,0.03,0.01,-0.16,0.0,p
3035.0,2992.0,2944.0,4095.0,4095.0,3197.0,2803.0,2423.0,-0.24,2.31,13.89,0.04,0.02,-0.13,0.0,p
3043.0,2999.0,2956.0,4095.0,4095.0,3190.0,2798.0,2417.0,-0.12,2.32,13.92,0.01,0.01,-0.16,0.0,p
3055.0,2998.0,2962.0,4095.0,4095.0,3199.0,2801.0,2417.0,-0.37,2.23,13.99,0.01,-0.01,-0.16,0.0,p
3035.0,2990.0,2943.0,4095.0,4095.0,3202.0,2798.0,2416.0,-0.27,2.32,13.91,0.03,-0.01,-0.11,0.0,p
3056.0,3001.0,2965.0,4095.0,4095.0,3210.0,2805.0,2418.0,-0.14,2.24,13.97,0.03,-0.01,-0.14,0.0,p
3041.0,2992.0,2949.0,4095.0,4095.0,3211.0,2806.0,2426.0,-0.07,2.34,13.85,0.03,0.02,-0.14,0.0,p
3049.0,2993.0,2951.0,4095.0,4095.0,3203.0,2803.0,2429.0,-0.23,2.44,13.76,0.03,0.02,-0.17,0.0,p
3038.0,2997.0,2942.0,4095.0,4095.0,3201.0,2812.0,2421.0,-0.21,2.29,13.94,0.0,0.0,-0.17,0.0,p
3046.0,3002.0,2955.0,4095.0,4095.0,3201.0,2813.0,2427.0,-0.3,2.26,13.98,0.01,0.02,-0.14,0.0,p
3038.0,2992.0,2955.0,4095.0,4095.0,3201.0,2805.0,2418.0,-0.25,2.35,13.85,0.03,-0.01,-0.14,0.0,p
3053.0,3009.0,2961.0,4095.0,4095.0,3214.0,2814.0,2431.0,-0.25,2.36,13.86,0.01,-0.01,-0.12,0.0,p
3045.0,2992.0,2944.0,4095.0,4095.0,3205.0,2806.0,2422.0,-0.15,2.33,13.95,0.02,0.0,-0.14,0.0,p
3042.0,3001.0,2971.0,4095.0,4095.0,3212.0,2800.0,2422.0,-0.22,2.39,13.9,0.0,0.01,-0.16,0.0,p
3039.0,2999.0,2967.0,4095.0,4095.0,3203.0,2814.0,2431.0,-0.28,2.31,13.93,-0.01,-0.03,-0.17,0.0,p
3045.0,2982.0,2959.0,4095.0,4095.0,3199.0,2799.0,2416.0,-0.19,2.34,13.83,0.0,-0.0,-0.13,0.0,p
3051.0,3003.0,2966.0,4095.0,4095.0,3215.0,2810.0,2426.0,-0.2,2.37,13.85,0.02,0.01,-0.16,0.0,p
3040.0,2989.0,2949.0,4095.0,4095.0,3202.0,2805.0,2418.0,-0.37,2.29,13.97,0.01,0.0,-0.16,0.0,p
3041.0,3007.0,2959.0,4095.0,4095.0,3216.0,2817.0,2427.0,-0.24,2.3,13.95,-0.0,0.0,-0.15,0.0,p
3034.0,2991.0,2951.0,4095.0,4095.0,3208.0,2801.0,2419.0,-0.16,2.33,13.87,0.02,0.01,-0.15,0.0,p
3046.0,2991.0,2960.0,4095.0,4095.0,3200.0,2809.0,2427.0,-0.05,2.39,13.75,-0.04,-0.02,-0.19,0.0,p
3056.0,2996.0,2947.0,4095.0,4095.0,3227.0,2812.0,2429.0,-0.21,2.08,14.02,-0.02,0.0,-0.18,0.0,p
3056.0,2997.0,2960.0,4095.0,4095.0,3216.0,2820.0,2432.0,-0.37,2.05,14.05,0.0,-0.0,-0.15,0.0,p
3036.0,2997.0,2944.0,4095.0,4095.0,3217.0,2815.0,2426.0,-0.2,2.07,13.93,0.02,-0.0,-0.14,0.0,p
3045.0,3003.0,2954.0,4095.0,4095.0,3219.0,2813.0,2427.0,-0.16,2.1,13.91,0.02,0.0,-0.13,0.0,p
3043.0,2990.0,2949.0,4095.0,4095.0,3217.0,2813.0,2423.0,-0.15,2.05,13.96,-0.03,-0.02,-0.14,0.0,p
3046.0,3008.0,2958.0,4095.0,4095.0,3217.0,2813.0,2427.0,-0.22,2.04,13.95,0.0,-0.03,-0.17,0.0,p
3050.0,2989.0,2956.0,4095.0,4095.0,3214.0,2816.0,2423.0,-0.27,1.99,14.01,0.02,-0.03,-0.15,0.0,p
3055.0,3007.0,2949.0,4095.0,4095.0,3189.0,2805.0,2421.0,-0.21,2.08,13.97,0.12,0.01,-0.15,0.0,p
3059.0,2997.0,2958.0,4095.0,4095.0,3197.0,2814.0,2431.0,-0.15,2.18,13.91,-0.0,0.01,-0.13,0.0,p
3043.0,2992.0,2950.0,4095.0,4095.0,3210.0,2805.0,2423.0,-0.14,2.1,13.84,0.02,0.0,-0.14,0.0,p
3039.0,2998.0,2947.0,4095.0,4095.0,3222.0,2815.0,2435.0,-0.09,2.07,13.95,0.0,0.02,-0.15,0.0,p
3030.0,2989.0,2948.0,4095.0,4095.0,3221.0,2811.0,2425.0,-0.25,2.09,13.95,0.04,0.01,-0.17,0.0,p
3047.0,3007.0,2960.0,4095.0,4095.0,3234.0,2819.0,2426.0,-0.24,2.09,13.97,0.01,0.0,-0.14,0.0,p
3055.0,2994.0,2951.0,4095.0,4095.0,3226.0,2814.0,2431.0,-0.17,2.11,13.95,0.02,-0.01,-0.15,0.0,p
3053.0,2998.0,2942.0,4095.0,4095.0,3229.0,2815.0,2431.0,-0.19,2.09,14.02,0.03,0.03,-0.18,0.0,p
3040.0,3005.0,2945.0,4095.0,4095.0,3232.0,2815.0,2433.0,-0.45,2.15,13.93,0.02,0.0,-0.17,0.0,p
3043.0,2991.0,2953.0,4095.0,4095.0,3230.0,2829.0,2434.0,-0.3,2.09,14.0,0.02,-0.0,-0.13,0.0,p
3047.0,3009.0,2961.0,4095.0,4095.0,3237.0,2820.0,2435.0,-0.11,2.16,13.9,0.03,0.01,-0.15,0.0,p
3053.0,3005.0,2959.0,4095.0,4095.0,3230.0,2822.0,2436.0,-0.31,2.17,13.92,0.01,0.01,-0.15,0.0,p
3046.0,2992.0,2949.0,4095.0,4095.0,3216.0,2816.0,2432.0,-0.21,2.06,13.98,0.03,0.01,-0.16,0.0,p
3054.0,2998.0,2963.0,4095.0,4095.0,3227.0,2826.0,2439.0,-0.37,2.18,13.87,0.02,0.02,-0.12,0.0,p
3041.0,2999.0,2943.0,4095.0,4095.0,3223.0,2818.0,2436.0,-0.27,2.11,13.99,0.03,0.01,-0.15,0.0,p
3056.0,2992.0,2955.0,4095.0,4095.0,3235.0,2830.0,2442.0,-0.26,2.12,13.98,-0.0,-0.01,-0.15,0.0,p
3043.0,2991.0,2955.0,4095.0,4095.0,3242.0,2822.0,2432.0,-0.32,2.12,13.9,0.02,-0.01,-0.16,0.0,p
3056.0,2992.0,2950.0,4095.0,4095.0,3228.0,2814.0,2431.0,-0.29,2.1,13.93,-0.01,-0.01,-0.14,0.0,p
3056.0,3003.0,2949.0,4095.0,4095.0,3222.0,2827.0,2430.0,-0.26,2.11,13.95,0.02,0.0,-0.15,0.0,p
3045.0,3005.0,2945.0,4095.0,4095.0,3229.0,2819.0,2430.0,-0.3,2.18,13.8,-0.01,-0.0,-0.16,0.0,p
3056.0,3008.0,2959.0,4095.0,4095.0,3227.0,2822.0,2437.0,-0.4,2.02,13.98,0.02,-0.01,-0.18,0.0,p
3034.0,2991.0,2957.0,4095.0,4095.0,3232.0,2822.0,2433.0,-0.31,2.13,13.9,0.0,0.0,-0.13,0.0,p
3056.0,3001.0,2960.0,4095.0,4095.0,3237.0,2822.0,2437.0,-0.23,2.13,13.9,0.02,0.01,-0.16,0.0,p
3038.0,2993.0,2943.0,4095.0,4095.0,3229.0,2822.0,2437.0,-0.35,2.09,13.97,0.0,-0.01,-0.17,0.0,p
3052.0,3001.0,2960.0,4095.0,4095.0,3235.0,2832.0,2447.0,-0.35,2.14,13.9,0.01,-0.01,-0.13,0.0,p
3035.0,2992.0,2949.0,4095.0,4095.0,3237.0,2827.0,2433.0,-0.18,2.13,13.89,0.01,-0.01,-0.14,0.0,p
3054.0,3008.0,2953.0,4095.0,4095.0,3240.0,2828.0,2444.0,-0.31,2.12,13.89,0.0,-0.01,-0.18,0.0,p
3042.0,2999.0,2948.0,4095.0,4095.0,3230.0,2820.0,2437.0,-0.44,2.1,14.04,0.02,-0.01,-0.14,0.0,p
3045.0,3013.0,2959.0,4095.0,4095.0,3228.0,2816.0,2442.0,-0.26,2.12,13.94,0.02,0.01,-0.11,0.0,p
3054.0,2992.0,2955.0,4095.0,4095.0,3242.0,2825.0,2444.0,-0.26,2.17,13.89,0.03,0.01,-0.15,0.0,p
3049.0,2992.0,2959.0,4095.0,4095.0,3230.0,2820.0,2438.0,-0.28,2.16,13.87,0.02,0.0,-0.18,0.0,p
3045.0,3009.0,2960.0,4095.0,4095.0,3213.0,2829.0,2444.0,-0.35,2.11,14.01,0.01,-0.01,-0.16,0.0,p
3056.0,2989.0,2946.0,4095.0,4095.0,3194.0,2818.0,2438.0,-0.34,2.19,13.88,0.02,-0.01,-0.14,0.0,p
3055.0,3003.0,2946.0,4095.0,4095.0,3213.0,2822.0,2448.0,-0.34,2.15,13.93,0.01,-0.01,-0.14,0.0,p
3056.0,2990.0,2959.0,4095.0,4095.0,3216.0,2831.0,2448.0,-0.28,2.14,13.95,0.02,0.0,-0.16,0.0,p
3056.0,3000.0,2946.0,4095.0,4095.0,3205.0,2822.0,2448.0,-0.41,2.19,13.89,0.05,0.02,-0.14,0.0,p
3040.0,3008.0,2955.0,4095.0,4095.0,3216.0,2827.0,2448.0,-0.28,2.17,14.05,0.06,-0.03,-0.22,0.0,p
3051.0,2994.0,2939.0,4095.0,4095.0,3206.0,2825.0,2448.0,-0.5,2.3,13.84,-0.02,-0.03,-0.15,0.0,p
3046.0,3002.0,2962.0,4095.0,4095.0,3214.0,2817.0,2448.0,-0.29,2.15,13.98,-0.05,-0.04,-0.13,0.0,p
3046.0,2995.0,2947.0,4095.0,4095.0,3213.0,2819.0,2443.0,-0.25,2.12,13.9,0.0,-0.02,-0.15,0.0,p
3043.0,3007.0,2954.0,4095.0,4095.0,3218.0,2832.0,2449.0,-0.38,2.2,13.91,0.03,0.02,-0.14,0.0,p
3056.0,2988.0,2941.0,4095.0,4095.0,3199.0,2823.0,2448.0,-0.43,2.2,13.91,0.03,-0.01,-0.12,0.0,p
3047.0,2993.0,2950.0,4095.0,4095.0,3216.0,2830.0,2448.0,-0.19,2.08,13.99,-0.04,0.01,-0.09,0.0,p
3047.0,2995.0,2943.0,4095.0,4095.0,3216.0,2823.0,2442.0,-0.38,2.14,14.01,0.04,-0.02,-0.14,0.0,p
3055.0,3008.0,2959.0,4095.0,4095.0,3216.0,2817.0,2447.0,-0.3,2.07,14.03,0.01,-0.03,-0.1,0.0,p
3038.0,2991.0,2939.0,4095.0,4095.0,3216.0,2832.0,2450.0,-0.13,2.17,13.94,0.09,-0.04,-0.14,0.0,p
3035.0,3003.0,2954.0,4095.0,4095.0,3211.0,2826.0,2447.0,-0.2,2.32,13.86,0.04,-0.01,-0.12,0.0,p
3056.0,3003.0,2951.0,4095.0,4095.0,3217.0,2831.0,2447.0,-0.19,2.18,14.03,0.09,0.02,-0.1,0.0,p
3035.0,2997.0,2960.0,4095.0,4095.0,3210.0,2829.0,2448.0,-0.24,2.28,14.02,0.12,0.01,-0.1,0.0,p
3037.0,3001.0,2962.0,4095.0,4095.0,3216.0,2831.0,2448.0,-0.11,2.51,13.85,0.12,-0.04,-0.15,0.0,p
3045.0,2992.0,2947.0,4095.0,4095.0,3207.0,2825.0,2448.0,-0.15,2.75,13.66,0.12,-0.03,-0.16,0.0,p
3046.0,3007.0,2960.0,4095.0,4095.0,3218.0,2832.0,2451.0,0.01,2.69,13.77,0.05,-0.03,-0.2,0.0,p
3055.0,2999.0,2957.0,4095.0,4095.0,3208.0,2832.0,2449.0,0.06,2.5,13.98,0.12,0.0,-0.27,0.0,p
