hall_1,hall_2,hall_3,flex_t,flex_i,flex_m,flex_r,flex_p,accel_x,accel_y,accel_z,gyro_x,gyro_y,gyro_z,sign
3058.0,2877.0,2925.0,4095.0,4095.0,4095.0,2689.0,2930.0,-2.37,-0.17,9.08,-0.01,0.1,0.05,p
3061.0,2877.0,2923.0,4095.0,4095.0,4095.0,2688.0,2965.0,-2.82,-0.46,9.04,-0.08,-0.02,-0.02,p
3066.0,2870.0,2924.0,4095.0,4095.0,4095.0,2704.0,2987.0,-2.37,-0.25,8.81,-0.13,-0.04,-0.05,p
3056.0,2876.0,2918.0,4095.0,4095.0,4095.0,2703.0,2986.0,-2.32,-0.34,9.03,-0.17,0.13,0.04,p
3065.0,2874.0,2928.0,4095.0,4095.0,4095.0,2717.0,2991.0,-2.51,-0.74,9.31,-0.15,-0.04,-0.14,p
3071.0,2875.0,2925.0,4095.0,4095.0,4095.0,2721.0,3001.0,-2.6,-0.38,8.89,-0.0,0.05,0.04,p
3059.0,2875.0,2930.0,4095.0,4095.0,4095.0,2721.0,3003.0,-2.55,-0.48,9.03,-0.08,-0.06,-0.08,p
3071.0,2879.0,2922.0,4095.0,4095.0,4095.0,2734.0,2998.0,-2.64,-0.74,9.19,-0.03,0.04,-0.0,p
3070.0,2875.0,2925.0,4095.0,4095.0,4095.0,2736.0,2991.0,-2.5,-0.3,8.74,-0.01,0.03,0.03,p
3081.0,2867.0,2909.0,4095.0,4095.0,4095.0,2736.0,2999.0,-2.59,-0.52,8.97,-0.07,-0.02,-0.08,p
3071.0,2879.0,2918.0,4095.0,4095.0,4095.0,2737.0,3002.0,-2.69,-0.4,8.8,-0.02,0.09,0.08,p
3071.0,2876.0,2919.0,4095.0,4095.0,4095.0,2737.0,2994.0,-2.48,-0.59,9.1,0.0,-0.11,-0.07,p
3071.0,2880.0,2917.0,4095.0,4095.0,4095.0,2739.0,2987.0,-2.67,-0.47,8.92,0.06,0.1,0.08,p
3065.0,2875.0,2925.0,4095.0,4095.0,4095.0,2752.0,2992.0,-2.54,-0.34,8.74,-0.03,-0.07,-0.1,p
3069.0,2874.0,2915.0,4095.0,4095.0,4095.0,2743.0,2992.0,-2.68,-0.37,8.92,0.02,0.07,0.07,p
3065.0,2870.0,2928.0,4095.0,4095.0,4095.0,2745.0,2982.0,-2.69,-0.3,8.77,-0.02,-0.02,-0.06,p
3070.0,2879.0,2923.0,4095.0,4095.0,4095.0,2741.0,2982.0,-2.42,-0.43,9.09,0.06,-0.03,0.01,p
3067.0,2877.0,2921.0,4095.0,4095.0,4095.0,2745.0,2983.0,-2.75,-0.37,8.82,-0.04,0.01,-0.04,p
3062.0,2876.0,2921.0,4095.0,4095.0,4095.0,2752.0,2979.0,-2.44,-0.5,9.04,0.02,-0.0,-0.02,p
3056.0,2875.0,2919.0,4095.0,4095.0,4095.0,2754.0,2978.0,-2.76,-0.28,8.84,-0.06,0.06,-0.02,p
3061.0,2875.0,2925.0,4095.0,4095.0,4095.0,2755.0,2981.0,-2.51,-0.4,9.01,0.02,-0.02,-0.02,p
3067.0,2878.0,2914.0,4095.0,4095.0,4095.0,2754.0,2990.0,-2.68,-0.38,8.89,-0.05,0.03,-0.03,p
3069.0,2877.0,2925.0,4095.0,4095.0,4095.0,2757.0,2982.0,-2.57,-0.23,8.75,-0.07,0.02,-0.02,p
3071.0,2876.0,2926.0,4095.0,4095.0,4095.0,2756.0,2990.0,-2.65,-0.48,9.08,0.03,-0.06,-0.04,p
3067.0,2879.0,2928.0,4095.0,4095.0,4095.0,2762.0,2986.0,-2.64,-0.44,8.96,-0.07,0.08,0.03,p
3071.0,2877.0,2928.0,4095.0,4095.0,4095.0,2764.0,2989.0,-2.47,-0.39,8.97,-0.0,-0.05,-0.04,p
3069.0,2881.0,2919.0,4095.0,4095.0,4095.0,2759.0,2981.0,-2.54,-0.37,8.94,-0.02,0.06,0.04,p
3070.0,2875.0,2925.0,4095.0,4095.0,4095.0,2766.0,2991.0,-2.6,-0.42,8.94,-0.05,-0.01,-0.06,p
3070.0,2870.0,2913.0,4095.0,4095.0,4095.0,2767.0,2992.0,-2.57,-0.38,8.89,-0.01,-0.02,-0.03,p
3071.0,2882.0,2926.0,4095.0,4095.0,4095.0,2768.0,2992.0,-2.55,-0.36,9.05,0.03,-0.02,-0.03,p
3068.0,2877.0,2913.0,4095.0,4095.0,4095.0,2771.0,3003.0,-2.68,-0.26,8.67,-0.11,0.05,-0.05,p
3071.0,2881.0,2923.0,4095.0,4095.0,4095.0,2769.0,3006.0,-2.77,-0.44,8.89,-0.05,-0.0,-0.08,p
3071.0,2869.0,2923.0,4095.0,4095.0,4095.0,2777.0,2999.0,-2.87,-0.68,9.28,0.01,0.02,0.06,p
3069.0,2883.0,2911.0,4095.0,4095.0,4095.0,2780.0,2997.0,-2.57,-0.4,8.91,0.03,0.05,0.05,p
3063.0,2882.0,2917.0,4095.0,4095.0,4095.0,2782.0,2993.0,-2.43,-0.23,8.77,-0.01,-0.02,-0.02,p
3071.0,2870.0,2929.0,4095.0,4095.0,4095.0,2779.0,2997.0,-2.58,-0.36,9.12,0.04,-0.03,-0.04,p
3070.0,2870.0,2917.0,4095.0,4095.0,4095.0,2791.0,3003.0,-2.79,-0.26,8.85,-0.05,0.1,0.02,p
3090.0,2876.0,2922.0,4095.0,4095.0,4095.0,2789.0,3007.0,-2.65,-0.24,8.82,0.01,-0.05,-0.02,p
3105.0,2873.0,2927.0,4095.0,4095.0,4095.0,2799.0,3022.0,-2.67,-0.33,9.07,0.01,0.07,0.03,p
3123.0,2867.0,2927.0,4095.0,4095.0,4095.0,2791.0,3023.0,-2.63,-0.09,8.67,-0.07,0.07,-0.01,p
3120.0,2878.0,2927.0,4095.0,4095.0,4095.0,2800.0,3024.0,-2.54,-0.24,8.83,0.03,-0.04,-0.02,p
3129.0,2878.0,2931.0,4095.0,4095.0,4095.0,2800.0,3031.0,-2.89,-0.37,9.08,-0.01,0.03,-0.01,p
3121.0,2868.0,2926.0,4095.0,4095.0,4095.0,2802.0,3025.0,-2.54,-0.23,8.82,-0.04,0.08,0.0,p
3120.0,2877.0,2914.0,4095.0,4095.0,4095.0,2807.0,3035.0,-2.87,-0.33,8.91,-0.05,0.0,-0.04,p
3120.0,2870.0,2926.0,4095.0,4095.0,4095.0,2806.0,3028.0,-2.66,-0.23,8.86,-0.02,-0.01,-0.03,p
3115.0,2869.0,2916.0,4095.0,4095.0,4095.0,2817.0,3042.0,-2.75,-0.28,8.99,-0.01,0.05,0.05,p
3121.0,2866.0,2919.0,4095.0,4095.0,4095.0,2817.0,3049.0,-2.78,-0.05,8.61,-0.05,0.01,-0.03,p
3127.0,2880.0,2931.0,4095.0,4095.0,4095.0,2826.0,3046.0,-2.68,-0.24,8.87,-0.03,-0.01,-0.03,p
3122.0,2870.0,2915.0,4095.0,4095.0,4095.0,2826.0,3049.0,-2.83,-0.35,9.0,-0.07,0.07,-0.01,p
3123.0,2864.0,2924.0,4095.0,4095.0,4095.0,2839.0,3054.0,-2.91,-0.41,9.02,0.03,-0.06,-0.06,p
3126.0,2885.0,2927.0,4095.0,4095.0,4095.0,2850.0,3052.0,-3.08,-0.28,8.87,-0.07,0.1,0.04,p
3123.0,2883.0,2941.0,4095.0,4095.0,4095.0,2864.0,3051.0,-2.62,-0.18,8.7,-0.1,0.03,-0.03,p
3125.0,2873.0,2923.0,4095.0,4095.0,4095.0,2877.0,3055.0,-2.75,-0.35,9.06,0.06,-0.03,0.0,p
3123.0,2875.0,2928.0,4095.0,4095.0,4095.0,2891.0,3051.0,-2.75,-0.17,8.76,-0.16,0.03,-0.07,p
3120.0,2864.0,2922.0,4095.0,4095.0,4095.0,2890.0,3051.0,-2.9,-0.51,9.09,-0.02,-0.02,-0.02,p
3125.0,2877.0,2923.0,4095.0,4095.0,4095.0,2897.0,3054.0,-2.91,-0.23,8.66,-0.06,0.03,-0.01,p
3120.0,2879.0,2926.0,4095.0,4095.0,4095.0,2902.0,3054.0,-2.62,-0.18,8.79,-0.06,0.05,0.01,p
3127.0,2873.0,2928.0,4095.0,4095.0,4095.0,2909.0,3050.0,-2.92,-0.42,8.97,-0.03,-0.01,-0.04,p
3127.0,2871.0,2929.0,4095.0,4095.0,4095.0,2921.0,3058.0,-2.81,-0.55,9.11,-0.05,-0.01,-0.02,p
3131.0,2879.0,2930.0,4095.0,4095.0,4095.0,2917.0,3054.0,-3.0,-0.45,8.85,-0.01,-0.03,-0.06,p
3120.0,2882.0,2917.0,4095.0,4095.0,4095.0,2998.0,3053.0,-2.73,-0.41,8.95,-0.01,0.06,0.02,p
3123.0,2874.0,2922.0,4095.0,4095.0,4095.0,2801.0,3056.0,-2.87,-0.31,8.74,0.03,-0.07,-0.06,p
3126.0,2876.0,2925.0,4095.0,4095.0,4095.0,2800.0,3055.0,-2.96,-0.4,9.0,-0.04,0.05,-0.0,p
3121.0,2879.0,2919.0,4095.0,4095.0,4095.0,2803.0,3053.0,-2.68,-0.19,8.59,-0.07,0.03,-0.03,p
3131.0,2865.0,2927.0,4095.0,4095.0,4095.0,2800.0,3056.0,-2.8,-0.53,9.12,-0.03,-0.05,-0.04,p
3117.0,2864.0,2925.0,4095.0,4095.0,4095.0,2801.0,3056.0,-2.83,-0.33,8.77,-0.02,0.01,-0.0,p
3121.0,2864.0,2928.0,4095.0,4095.0,4095.0,2800.0,3053.0,-2.84,-0.35,8.78,-0.03,-0.0,-0.03,p
3118.0,2864.0,2920.0,4095.0,4095.0,4095.0,2800.0,3056.0,-2.77,-0.43,8.95,-0.02,-0.02,-0.04,p
3120.0,2878.0,2910.0,4095.0,4095.0,4095.0,2807.0,3056.0,-2.8,-0.39,8.97,0.02,0.0,0.0,p
3119.0,2871.0,2919.0,4095.0,4095.0,4095.0,2806.0,3057.0,-2.84,-0.34,8.88,-0.03,-0.02,-0.05,p
3127.0,2871.0,2919.0,4095.0,4095.0,4095.0,2800.0,3056.0,-2.95,-0.34,8.72,-0.03,0.04,-0.01,p
3121.0,2873.0,2925.0,4095.0,4095.0,4095.0,2809.0,3066.0,-2.77,-0.38,8.92,-0.02,-0.0,-0.01,p
3121.0,2875.0,2922.0,4095.0,4095.0,4095.0,2815.0,3071.0,-2.96,-0.39,8.91,0.01,-0.03,-0.02,p
3121.0,2874.0,2928.0,4095.0,4095.0,4095.0,2813.0,3067.0,-2.76,-0.3,8.75,-0.09,0.04,-0.02,p
3126.0,2870.0,2925.0,4095.0,4095.0,4095.0,2813.0,3061.0,-2.79,-0.34,8.95,0.02,-0.07,-0.03,p
3120.0,2866.0,2922.0,4095.0,4095.0,4095.0,2805.0,3065.0,-2.72,-0.45,8.86,-0.11,0.09,0.0,p
3124.0,2875.0,2917.0,4095.0,4095.0,4095.0,2817.0,3071.0,-2.83,-0.46,8.87,-0.02,-0.04,-0.05,p
3120.0,2874.0,2927.0,4095.0,4095.0,4095.0,2813.0,3067.0,-2.84,-0.33,8.87,0.04,-0.0,-0.0,p
3123.0,2861.0,2923.0,4095.0,4095.0,4095.0,2810.0,3071.0,-2.81,-0.4,8.93,-0.07,0.06,-0.0,p
3113.0,2866.0,2927.0,4095.0,4095.0,4095.0,2813.0,3066.0,-2.71,-0.35,8.83,0.04,-0.03,-0.02,p
3123.0,2870.0,2923.0,4095.0,4095.0,4095.0,2807.0,3063.0,-2.94,-0.41,9.03,0.04,-0.05,-0.03,p
3120.0,2864.0,2911.0,4095.0,4095.0,4095.0,2817.0,3071.0,-2.8,-0.21,8.73,-0.04,0.07,0.01,p
3119.0,2870.0,2907.0,4095.0,4095.0,4095.0,2818.0,3065.0,-2.81,-0.34,8.89,0.09,-0.09,-0.02,p
3115.0,2876.0,2919.0,4095.0,4095.0,4095.0,2823.0,3063.0,-2.9,-0.29,8.87,-0.03,0.02,-0.02,p
3117.0,2869.0,2921.0,4095.0,4095.0,4095.0,2819.0,3070.0,-2.68,-0.21,8.82,-0.02,0.02,0.01,p
3119.0,2877.0,2915.0,4095.0,4095.0,4095.0,2823.0,3068.0,-2.84,-0.27,8.85,-0.02,-0.01,-0.04,p
3120.0,2874.0,2915.0,4095.0,4095.0,4095.0,2817.0,3068.0,-2.72,-0.25,8.89,-0.05,0.05,0.0,p
3121.0,2866.0,2921.0,4095.0,4095.0,4095.0,2825.0,3067.0,-2.89,-0.38,8.96,-0.03,0.01,-0.02,p
3117.0,2864.0,2925.0,4095.0,4095.0,4095.0,2821.0,3067.0,-2.83,-0.14,8.62,-0.02,0.02,-0.01,p
3127.0,2863.0,2923.0,4095.0,4095.0,4095.0,2830.0,3071.0,-2.97,-0.29,8.93,-0.12,-0.02,-0.06,p
3122.0,2865.0,2918.0,4095.0,4095.0,4095.0,2825.0,3071.0,-2.73,-0.33,8.86,-0.04,0.04,-0.0,p
3123.0,2870.0,2926.0,4095.0,4095.0,4095.0,2828.0,3079.0,-2.85,-0.36,8.91,0.03,-0.03,-0.02,p
3119.0,2870.0,2916.0,4095.0,4095.0,4095.0,2827.0,3083.0,-3.0,-0.19,8.77,-0.05,-0.02,-0.05,p
3120.0,2863.0,2928.0,4095.0,4095.0,4095.0,2828.0,3069.0,-2.68,-0.19,8.82,0.01,0.04,0.03,p
3121.0,2870.0,2922.0,4095.0,4095.0,4095.0,2831.0,3067.0,-2.9,-0.2,8.76,-0.04,-0.05,-0.06,p
3121.0,2868.0,2919.0,4095.0,4095.0,4095.0,2832.0,3071.0,-2.77,-0.47,9.2,-0.02,0.04,0.04,p
3120.0,2869.0,2918.0,4095.0,4095.0,4095.0,2822.0,3071.0,-2.76,-0.23,8.68,-0.06,-0.03,-0.08,p
3119.0,2878.0,2926.0,4095.0,4095.0,4095.0,2825.0,3067.0,-2.75,-0.37,9.05,0.01,0.01,0.01,p
3114.0,2873.0,2928.0,4095.0,4095.0,4095.0,2830.0,3071.0,-2.87,-0.31,8.88,-0.02,-0.02,-0.05,p
3128.0,2867.0,2918.0,4095.0,4095.0,4095.0,2832.0,3070.0,-2.73,-0.33,8.94,-0.05,-0.0,-0.04,p
3122.0,2870.0,2925.0,4095.0,4095.0,4095.0,2831.0,3083.0,-2.93,-0.27,8.77,-0.05,0.03,-0.0,p
3120.0,2871.0,2925.0,4095.0,4095.0,4095.0,2833.0,3083.0,-2.79,-0.28,8.88,0.01,-0.02,-0.03,p
3120.0,2871.0,2928.0,4095.0,4095.0,4095.0,2826.0,3071.0,-2.83,-0.29,8.85,-0.04,0.01,-0.01,p
3120.0,2864.0,2917.0,4095.0,4095.0,4095.0,2826.0,3083.0,-2.78,-0.32,8.88,-0.06,0.01,-0.01,p
3122.0,2858.0,2929.0,4095.0,4095.0,4095.0,2830.0,3087.0,-2.76,-0.31,8.99,0.01,0.01,0.02,p
3127.0,2875.0,2922.0,4095.0,4095.0,4095.0,2829.0,3070.0,-2.68,-0.2,8.78,-0.01,-0.04,-0.08,p
3124.0,2864.0,2930.0,4095.0,4095.0,4095.0,2832.0,3083.0,-2.92,-0.31,8.89,-0.07,0.08,0.03,p
3123.0,2867.0,2928.0,4095.0,4095.0,4095.0,2832.0,3086.0,-2.89,-0.27,8.78,-0.04,-0.02,-0.04,p
3120.0,2879.0,2927.0,4095.0,4095.0,4095.0,2833.0,3080.0,-2.74,-0.32,8.92,-0.03,0.02,0.02,p
3126.0,2869.0,2909.0,4095.0,4095.0,4095.0,2833.0,3071.0,-2.65,-0.31,8.93,-0.01,-0.04,-0.05,p
3120.0,2880.0,2929.0,4095.0,4095.0,4095.0,2842.0,3088.0,-2.83,-0.33,8.91,0.03,0.03,0.02,p
3134.0,2867.0,2922.0,4095.0,4095.0,4095.0,2838.0,3088.0,-2.75,-0.11,8.64,-0.07,-0.05,-0.08,p
3135.0,2871.0,2916.0,4095.0,4095.0,4095.0,2843.0,3081.0,-2.86,-0.27,8.9,-0.01,0.05,0.03,p
3130.0,2882.0,2919.0,4095.0,4095.0,4095.0,2853.0,3087.0,-2.7,-0.22,8.81,-0.05,-0.03,-0.04,p
3126.0,2875.0,2925.0,4095.0,4095.0,4095.0,2850.0,3080.0,-2.81,-0.25,8.88,0.01,0.01,0.0,p
3130.0,2864.0,2916.0,4095.0,4095.0,4095.0,2855.0,3071.0,-2.69,-0.34,8.92,-0.02,-0.03,-0.05,p
3136.0,2867.0,2921.0,4095.0,4095.0,4095.0,2867.0,3071.0,-2.88,-0.23,8.83,-0.01,0.06,0.03,p
3141.0,2874.0,2919.0,4095.0,4095.0,4095.0,2895.0,3083.0,-2.69,-0.23,8.83,-0.02,-0.01,-0.02,p
3141.0,2869.0,2926.0,4095.0,4095.0,4095.0,3043.0,3086.0,-2.79,-0.23,8.95,-0.01,-0.01,-0.03,p
3137.0,2875.0,2927.0,4095.0,4095.0,4095.0,2845.0,3071.0,-2.97,-0.2,8.87,-0.04,0.04,-0.0,p
3135.0,2871.0,2917.0,4095.0,4095.0,4095.0,2842.0,3083.0,-2.74,-0.22,8.75,-0.05,-0.01,-0.04,p
3137.0,2870.0,2921.0,4095.0,4095.0,4095.0,2838.0,3071.0,-2.7,-0.31,9.05,-0.0,-0.0,0.0,p
3131.0,2871.0,2919.0,4095.0,4095.0,4095.0,2837.0,3087.0,-2.82,-0.23,8.87,-0.08,-0.0,-0.03,p
3142.0,2864.0,2929.0,4095.0,4095.0,4095.0,2839.0,3071.0,-3.02,-0.26,8.82,-0.05,0.07,0.04,p
3136.0,2863.0,2921.0,4095.0,4095.0,4095.0,2844.0,3081.0,-2.73,-0.2,8.86,-0.02,-0.06,-0.07,p
3135.0,2869.0,2926.0,4095.0,4095.0,4095.0,2852.0,3071.0,-2.79,-0.31,8.93,-0.04,0.07,0.04,p
3136.0,2877.0,2910.0,4095.0,4095.0,4095.0,2848.0,3084.0,-2.72,-0.3,8.97,0.02,-0.08,-0.09,p
3134.0,2868.0,2928.0,4095.0,4095.0,4095.0,2851.0,3084.0,-2.85,-0.14,8.77,-0.05,0.06,0.01,p
3137.0,2879.0,2923.0,4095.0,4095.0,4095.0,2860.0,3083.0,-2.81,-0.3,9.02,-0.03,-0.02,-0.02,p
3138.0,2863.0,2930.0,4095.0,4095.0,4095.0,2862.0,3079.0,-2.79,-0.2,8.84,-0.03,0.04,-0.01,p
3126.0,2866.0,2928.0,4095.0,4095.0,4095.0,2861.0,3071.0,-2.67,-0.23,8.87,-0.03,0.02,-0.02,p
3143.0,2864.0,2925.0,4095.0,4095.0,4095.0,2863.0,3088.0,-2.84,-0.32,8.96,0.02,-0.0,-0.04,p
3139.0,2865.0,2919.0,4095.0,4095.0,4095.0,2865.0,3088.0,-3.01,-0.25,8.86,-0.07,0.04,-0.0,p
3133.0,2881.0,2921.0,4095.0,4095.0,4095.0,2870.0,3083.0,-2.79,-0.2,8.78,-0.03,-0.02,-0.05,p
3137.0,2882.0,2928.0,4095.0,4095.0,4095.0,2870.0,3088.0,-2.71,-0.23,8.95,0.01,0.02,0.02,p
3137.0,2873.0,2922.0,4095.0,4095.0,4095.0,2871.0,3090.0,-2.77,-0.18,8.85,-0.04,-0.03,-0.05,p
3143.0,2864.0,2913.0,4095.0,4095.0,4095.0,2880.0,3085.0,-2.96,-0.31,8.87,-0.04,0.02,-0.02,p
3138.0,2869.0,2926.0,4095.0,4095.0,4095.0,2885.0,3083.0,-2.76,-0.22,8.83,-0.01,0.01,0.0,p
3133.0,2880.0,2922.0,4095.0,4095.0,4095.0,2896.0,3087.0,-2.94,-0.22,8.86,-0.05,-0.03,-0.03,p
3137.0,2864.0,2927.0,4095.0,4095.0,4095.0,2894.0,3088.0,-2.75,-0.33,9.03,-0.04,0.01,-0.0,p
3127.0,2871.0,2921.0,4095.0,4095.0,4095.0,2896.0,3089.0,-2.77,-0.25,8.83,-0.03,-0.0,-0.02,p
3130.0,2873.0,2919.0,4095.0,4095.0,4095.0,2905.0,3088.0,-2.91,-0.16,8.76,-0.08,-0.02,-0.03,p
3136.0,2864.0,2919.0,4095.0,4095.0,4095.0,2923.0,3088.0,-2.77,-0.36,9.0,-0.02,0.01,0.04,p
3135.0,2863.0,2924.0,4095.0,4095.0,4095.0,2927.0,3083.0,-2.58,-0.34,8.92,-0.03,-0.03,-0.03,p
3143.0,2873.0,2926.0,4095.0,4095.0,4095.0,2969.0,3088.0,-2.77,-0.33,8.93,-0.04,0.02,-0.02,p
3141.0,2875.0,2929.0,4095.0,4095.0,4095.0,3118.0,3086.0,-2.72,-0.25,8.84,0.02,-0.01,-0.02,p
3136.0,2880.0,2918.0,4095.0,4095.0,4095.0,2859.0,3088.0,-2.92,-0.34,8.97,-0.06,0.03,-0.01,p
3146.0,2869.0,2924.0,4095.0,4095.0,4095.0,2863.0,3088.0,-2.7,-0.27,8.76,-0.06,0.07,0.05,p
3135.0,2864.0,2927.0,4095.0,4095.0,4095.0,2861.0,3069.0,-2.83,-0.27,8.87,-0.04,-0.04,-0.05,p
3137.0,2867.0,2925.0,4095.0,4095.0,4095.0,2857.0,3066.0,-2.62,-0.42,9.0,-0.05,-0.02,-0.03,p
3143.0,2869.0,2914.0,4095.0,4095.0,4095.0,2864.0,3070.0,-2.93,-0.33,8.81,0.02,0.07,0.04,p
3136.0,2866.0,2928.0,4095.0,4095.0,4095.0,2854.0,3071.0,-2.84,-0.27,8.84,-0.03,0.0,0.02,p
3137.0,2874.0,2914.0,4095.0,4095.0,4095.0,2864.0,3063.0,-2.79,-0.24,8.77,-0.03,-0.0,-0.04,p
3140.0,2881.0,2928.0,4095.0,4095.0,4095.0,2864.0,3071.0,-2.77,-0.26,9.03,0.01,-0.01,-0.06,p
3143.0,2871.0,2921.0,4095.0,4095.0,4095.0,2862.0,3067.0,-2.88,-0.34,8.87,-0.07,0.06,0.01,p
3142.0,2876.0,2928.0,4095.0,4095.0,4095.0,2861.0,3066.0,-2.74,-0.31,8.95,0.05,-0.07,-0.08,p
3139.0,2870.0,2931.0,4095.0,4095.0,4076.0,2864.0,3057.0,-2.89,-0.24,8.85,-0.02,0.05,0.0,p
3135.0,2864.0,2918.0,4095.0,4095.0,4093.0,2847.0,3050.0,-2.72,-0.1,8.77,0.05,-0.04,-0.04,p
3147.0,2873.0,2923.0,4095.0,4095.0,4095.0,2849.0,3045.0,-2.87,-0.34,9.02,-0.05,-0.01,-0.03,p
3139.0,2867.0,2923.0,4095.0,4095.0,4080.0,2859.0,3051.0,-2.85,-0.3,8.87,-0.0,-0.03,-0.02,p
3145.0,2877.0,2925.0,4095.0,4095.0,4066.0,2854.0,3053.0,-2.76,-0.4,9.07,0.0,-0.01,-0.0,p
3137.0,2862.0,2919.0,4095.0,4095.0,4082.0,2861.0,3058.0,-2.74,-0.23,8.79,0.04,-0.01,-0.03,p
3142.0,2867.0,2925.0,4095.0,4095.0,4095.0,2863.0,3057.0,-2.89,-0.26,8.83,-0.02,0.04,-0.02,p
3139.0,2864.0,2918.0,4095.0,4095.0,4095.0,2864.0,3062.0,-2.91,-0.27,8.93,-0.01,0.0,-0.02,p
3143.0,2868.0,2926.0,4095.0,4095.0,4095.0,2863.0,3063.0,-2.8,-0.1,8.74,0.01,0.02,0.0,p
3136.0,2870.0,2911.0,4095.0,4095.0,4095.0,2868.0,3059.0,-2.71,0.0,8.73,-0.03,-0.03,-0.02,p
3138.0,2870.0,2910.0,4095.0,4095.0,4095.0,2870.0,3067.0,-2.93,-0.3,8.94,-0.07,0.01,0.01,p
3137.0,2869.0,2926.0,4095.0,4095.0,4095.0,2866.0,3057.0,-2.78,-0.37,8.97,-0.06,0.05,0.0,p
3141.0,2869.0,2914.0,4095.0,4095.0,4095.0,2864.0,3063.0,-2.85,-0.48,9.11,-0.0,-0.01,-0.04,p
3143.0,2871.0,2927.0,4095.0,4095.0,4095.0,2866.0,3069.0,-2.7,-0.28,8.93,0.05,0.02,-0.01,p
3145.0,2876.0,2928.0,4095.0,4095.0,4095.0,2864.0,3068.0,-2.83,-0.2,8.93,0.03,-0.01,-0.07,p
3137.0,2869.0,2919.0,4095.0,4095.0,4095.0,2865.0,3063.0,-2.79,0.09,8.6,0.04,0.02,-0.02,p
3130.0,2874.0,2922.0,4095.0,4095.0,4095.0,2867.0,3068.0,-2.87,-0.19,8.94,0.02,-0.02,-0.02,p
3137.0,2866.0,2918.0,4095.0,4095.0,4095.0,2875.0,3059.0,-2.78,-0.02,8.8,-0.01,0.08,0.06,p
3138.0,2867.0,2925.0,4095.0,4095.0,4095.0,2875.0,3063.0,-2.79,0.03,8.77,0.03,-0.11,-0.13,p
3135.0,2871.0,2914.0,4095.0,4095.0,4095.0,2870.0,3069.0,-2.92,0.11,8.64,-0.01,0.09,0.03,p
3142.0,2875.0,2925.0,4095.0,4095.0,4095.0,2875.0,3071.0,-2.88,-0.07,8.9,-0.02,-0.08,-0.07,p
3146.0,2873.0,2913.0,4095.0,4095.0,4095.0,2878.0,3059.0,-2.78,-0.18,8.98,-0.03,0.07,0.03,p
3136.0,2878.0,2926.0,4095.0,4095.0,4095.0,2877.0,3071.0,-2.75,0.01,8.77,-0.02,-0.03,-0.06,p
3138.0,2871.0,2918.0,4095.0,4095.0,4095.0,2880.0,3066.0,-2.82,0.03,8.84,0.0,0.0,-0.0,p
3141.0,2871.0,2930.0,4095.0,4095.0,4095.0,2875.0,3071.0,-2.93,0.06,8.63,-0.04,0.0,-0.0,p
3139.0,2867.0,2928.0,4095.0,4095.0,4095.0,2877.0,3068.0,-2.8,-0.07,8.96,-0.02,-0.05,-0.04,p
3141.0,2880.0,2923.0,4095.0,4095.0,4095.0,2872.0,3071.0,-2.84,0.07,8.58,-0.1,0.04,0.0,p
3138.0,2866.0,2912.0,4095.0,4095.0,4095.0,2877.0,3062.0,-2.99,-0.24,9.17,-0.04,-0.05,-0.04,p
3141.0,2873.0,2922.0,4095.0,4095.0,4095.0,2881.0,3082.0,-2.58,0.0,8.79,-0.09,0.06,0.04,p
3141.0,2867.0,2926.0,4095.0,4095.0,4095.0,2871.0,3061.0,-2.57,-0.09,8.8,-0.09,-0.01,-0.08,p
3139.0,2864.0,2933.0,4095.0,4095.0,4095.0,2873.0,3066.0,-2.9,-0.42,9.29,-0.0,0.05,0.01,p
3137.0,2875.0,2910.0,4095.0,4095.0,4095.0,2871.0,3058.0,-2.97,-0.45,9.05,-0.05,0.06,-0.01,p
3140.0,2865.0,2927.0,4095.0,4095.0,4095.0,2878.0,3063.0,-2.92,-0.18,8.78,0.01,0.01,-0.03,p
3126.0,2873.0,2921.0,4095.0,4095.0,4095.0,2880.0,3071.0,-2.95,-0.07,8.82,-0.01,0.0,-0.01,p
3143.0,2877.0,2928.0,4095.0,4095.0,4095.0,2879.0,3061.0,-2.74,0.0,8.82,-0.01,0.02,0.03,p
3136.0,2864.0,2910.0,4095.0,4095.0,4095.0,2877.0,3062.0,-3.07,-0.12,8.79,-0.05,0.04,0.03,p
3134.0,2875.0,2923.0,4095.0,4095.0,4095.0,2886.0,3060.0,-2.76,-0.15,8.74,-0.08,0.0,-0.04,p
3139.0,2869.0,2917.0,4095.0,4095.0,4095.0,2881.0,3066.0,-2.93,-0.17,8.85,-0.05,-0.01,-0.03,p
3143.0,2869.0,2921.0,4095.0,4095.0,4095.0,2894.0,3070.0,-2.81,-0.09,8.8,-0.0,0.01,0.03,p
3138.0,2871.0,2925.0,4095.0,4095.0,4095.0,2883.0,3071.0,-2.71,-0.16,8.9,-0.03,-0.02,-0.06,p
3135.0,2871.0,2919.0,4095.0,4095.0,4095.0,2891.0,3066.0,-2.89,-0.04,8.76,-0.02,0.04,-0.01,p
3132.0,2874.0,2924.0,4095.0,4095.0,4095.0,2880.0,3061.0,-2.95,-0.07,8.78,-0.0,-0.09,-0.07,p
3138.0,2879.0,2928.0,4095.0,4095.0,4095.0,2883.0,3066.0,-3.04,-0.18,8.87,-0.09,0.07,0.01,p
3134.0,2864.0,2924.0,4095.0,4095.0,4095.0,2880.0,3071.0,-2.68,-0.11,8.71,-0.07,-0.01,-0.04,p
3142.0,2871.0,2928.0,4095.0,4095.0,4095.0,2870.0,3058.0,-2.89,-0.18,8.96,-0.09,0.07,0.08,p
3145.0,2867.0,2923.0,4095.0,4095.0,4095.0,2865.0,3056.0,-2.83,-0.53,9.07,-0.08,-0.06,-0.13,p
3136.0,2871.0,2923.0,4095.0,4095.0,4095.0,2863.0,3052.0,-3.22,-0.34,9.0,-0.04,0.08,0.04,p
3145.0,2871.0,2925.0,4095.0,4095.0,4095.0,2864.0,3053.0,-2.95,-0.07,8.55,-0.08,-0.0,-0.03,p
3136.0,2864.0,2916.0,4095.0,4095.0,4095.0,2864.0,3056.0,-2.97,-0.37,9.01,0.05,-0.04,-0.01,p
3152.0,2877.0,2921.0,4095.0,4095.0,4095.0,2867.0,3056.0,-3.07,-0.29,8.89,-0.05,0.03,0.01,p
3147.0,2864.0,2925.0,4095.0,4095.0,4095.0,2864.0,3056.0,-2.7,-0.07,8.71,0.03,-0.01,0.04,p
3141.0,2879.0,2923.0,4095.0,4095.0,4095.0,2864.0,3056.0,-2.75,-0.35,8.98,-0.05,0.01,-0.04,p
3154.0,2878.0,2915.0,4095.0,4095.0,4095.0,2862.0,3056.0,-3.08,-0.24,8.81,-0.03,0.04,-0.04,p
3145.0,2881.0,2925.0,4095.0,4095.0,4095.0,2863.0,3057.0,-2.8,-0.17,8.97,-0.02,-0.03,-0.05,p
3151.0,2864.0,2925.0,4095.0,4095.0,4095.0,2864.0,3052.0,-2.9,0.04,8.57,0.0,0.06,0.02,p
3149.0,2865.0,2928.0,4095.0,4095.0,4095.0,2870.0,3057.0,-2.94,-0.03,8.68,-0.07,-0.05,-0.07,p
3139.0,2864.0,2912.0,4095.0,4095.0,4095.0,2861.0,3054.0,-2.85,-0.24,8.77,-0.07,0.01,0.0,p
3139.0,2870.0,2920.0,4095.0,4095.0,4095.0,2872.0,3057.0,-2.83,-0.28,8.93,-0.07,0.01,-0.01,p
3139.0,2864.0,2916.0,4095.0,4095.0,4095.0,2866.0,3055.0,-3.07,-0.43,8.95,-0.02,0.01,-0.01,p
3144.0,2873.0,2927.0,4095.0,4095.0,4095.0,2864.0,3058.0,-2.88,-0.33,8.96,0.05,0.0,0.01,p
3140.0,2869.0,2919.0,4095.0,4095.0,4095.0,2864.0,3059.0,-2.88,0.02,8.58,-0.03,0.05,0.01,p
3145.0,2871.0,2927.0,4095.0,4095.0,4095.0,2864.0,3058.0,-2.81,-0.12,8.81,0.0,-0.03,-0.02,p
3146.0,2873.0,2910.0,4095.0,4095.0,4095.0,2870.0,3057.0,-3.08,-0.15,8.78,-0.03,0.01,-0.02,p
3152.0,2871.0,2915.0,4095.0,4095.0,4095.0,2864.0,3059.0,-2.8,-0.08,8.78,-0.05,-0.02,0.01,p
3149.0,2867.0,2926.0,4095.0,4095.0,4095.0,2870.0,3061.0,-2.92,-0.15,8.73,-0.08,0.04,0.01,p
3140.0,2874.0,2921.0,4095.0,4095.0,4095.0,2868.0,3067.0,-2.92,-0.38,8.95,-0.08,-0.02,-0.02,p
3142.0,2879.0,2914.0,4095.0,4095.0,4095.0,2865.0,3067.0,-3.0,-0.4,8.95,-0.03,0.03,0.01,p
3145.0,2871.0,2929.0,4095.0,4095.0,4095.0,2869.0,3071.0,-2.83,-0.31,8.95,0.0,-0.0,-0.04,p
3150.0,2877.0,2928.0,4095.0,4095.0,4095.0,2863.0,3070.0,-2.99,-0.16,8.78,0.02,0.02,0.02,p
3151.0,2870.0,2914.0,4095.0,4095.0,4095.0,2864.0,3071.0,-2.84,-0.08,8.69,-0.06,0.02,-0.04,p
3152.0,2875.0,2915.0,4095.0,4095.0,4095.0,2875.0,3071.0,-3.04,-0.38,8.99,-0.02,0.03,-0.02,p
3151.0,2871.0,2917.0,4095.0,4095.0,4095.0,2864.0,3070.0,-2.89,-0.13,8.77,-0.01,-0.01,-0.01,p
3151.0,2869.0,2910.0,4095.0,4095.0,4095.0,2874.0,3071.0,-2.82,-0.11,8.77,-0.03,-0.0,-0.03,p
3150.0,2875.0,2913.0,4095.0,4095.0,4095.0,2868.0,3079.0,-3.14,-0.24,8.86,-0.03,0.02,0.0,p
3146.0,2864.0,2928.0,4095.0,4095.0,4095.0,2871.0,3071.0,-2.88,-0.25,8.88,-0.03,0.01,-0.01,p
3137.0,2864.0,2920.0,4095.0,4095.0,4095.0,2868.0,3065.0,-2.78,-0.07,8.77,0.01,-0.03,-0.02,p
3141.0,2875.0,2911.0,4095.0,4095.0,4095.0,2866.0,3069.0,-2.99,-0.25,8.89,-0.07,0.02,-0.02,p
3146.0,2879.0,2928.0,4095.0,4095.0,4095.0,2869.0,3079.0,-3.04,-0.14,8.69,-0.03,-0.02,-0.02,p
3151.0,2867.0,2928.0,4095.0,4095.0,4095.0,2864.0,3069.0,-2.8,-0.19,8.88,-0.05,0.0,-0.03,p
3147.0,2871.0,2918.0,4095.0,4095.0,4095.0,2868.0,3081.0,-3.05,-0.36,8.96,-0.05,-0.02,-0.03,p
3142.0,2873.0,2915.0,4095.0,4095.0,4095.0,2878.0,3082.0,-2.88,-0.27,8.88,-0.02,-0.0,-0.01,p
3152.0,2864.0,2923.0,4095.0,4095.0,4095.0,2871.0,3088.0,-2.87,-0.16,8.76,-0.04,-0.01,-0.06,p
3141.0,2865.0,2921.0,4095.0,4095.0,4095.0,2874.0,3070.0,-2.92,-0.29,8.91,-0.04,0.05,0.0,p
