hall_1,hall_2,hall_3,flex_t,flex_i,flex_m,flex_r,flex_p,accel_x,accel_y,accel_z,gyro_x,gyro_y,gyro_z,hand,sign
3021.0,2992.0,3449.0,4095.0,4095.0,4095.0,3202.0,2609.0,1.66,-7.54,10.48,-0.07,0.09,-0.14,0.0,p
3024.0,2991.0,3447.0,4095.0,4095.0,4095.0,3199.0,2610.0,1.48,-7.56,10.15,-0.21,0.06,-0.15,0.0,p
3011.0,2995.0,3442.0,4095.0,4095.0,4095.0,3200.0,2609.0,1.43,-7.86,10.62,-0.18,-0.05,-0.23,0.0,p
3021.0,3007.0,3453.0,4095.0,4095.0,4095.0,3205.0,2614.0,0.99,-7.69,10.0,0.11,0.01,-0.23,0.0,p
3024.0,3003.0,3442.0,4095.0,4095.0,4095.0,3207.0,2611.0,1.31,-7.65,9.77,-0.06,0.07,-0.2,0.0,p
3024.0,2994.0,3455.0,4095.0,4095.0,4095.0,3189.0,2610.0,1.37,-7.81,10.06,-0.14,-0.06,-0.22,0.0,p
3021.0,2993.0,3454.0,4095.0,4095.0,4095.0,3201.0,2611.0,1.55,-8.14,10.13,-0.07,0.03,-0.24,0.0,p
3030.0,2993.0,3457.0,4095.0,4095.0,4095.0,3205.0,2619.0,1.26,-8.17,9.76,0.02,0.11,-0.17,0.0,p
3025.0,3004.0,3440.0,4095.0,4095.0,4095.0,3210.0,2617.0,1.51,-8.06,9.58,0.01,0.02,-0.13,0.0,p
3029.0,3007.0,3443.0,4095.0,4095.0,4095.0,3206.0,2620.0,1.34,-8.0,9.69,-0.02,-0.0,-0.16,0.0,p
3034.0,2998.0,3456.0,4095.0,4095.0,4095.0,3201.0,2613.0,1.37,-8.05,9.81,0.03,0.01,-0.15,0.0,p
3030.0,2998.0,3456.0,4095.0,4095.0,4095.0,3206.0,2617.0,1.53,-8.06,9.74,0.02,0.0,-0.15,0.0,p
3022.0,3001.0,3459.0,4095.0,4095.0,4095.0,3200.0,2617.0,1.44,-8.05,9.8,0.04,-0.01,-0.12,0.0,p
3023.0,2992.0,3450.0,4095.0,4095.0,4095.0,3207.0,2621.0,1.44,-7.94,9.65,-0.01,0.07,-0.12,0.0,p
3024.0,3008.0,3458.0,4095.0,4095.0,4095.0,3215.0,2626.0,1.51,-8.02,9.77,0.0,0.01,-0.18,0.0,p
3024.0,2992.0,3441.0,4095.0,4095.0,4095.0,3215.0,2620.0,1.41,-8.03,9.85,-0.05,-0.02,-0.15,0.0,p
3029.0,3002.0,3438.0,4095.0,4095.0,4095.0,3213.0,2627.0,1.43,-8.0,9.9,0.07,-0.05,-0.16,0.0,p
3023.0,3002.0,3451.0,4095.0,4095.0,4095.0,3217.0,2626.0,1.53,-8.01,9.74,0.05,-0.0,-0.16,0.0,p
3024.0,2994.0,3447.0,4095.0,4095.0,4095.0,3214.0,2622.0,1.43,-8.07,9.85,0.03,0.06,-0.16,0.0,p
3033.0,2990.0,3445.0,4095.0,4095.0,4095.0,3211.0,2621.0,1.41,-8.06,9.68,0.02,0.06,-0.14,0.0,p
3014.0,2992.0,3431.0,4095.0,4095.0,4095.0,3222.0,2622.0,1.36,-8.0,9.83,0.02,0.02,-0.13,0.0,p
3024.0,2989.0,3431.0,4095.0,4095.0,4095.0,3221.0,2620.0,1.6,-7.95,9.69,0.12,-0.39,-0.23,0.0,p
3011.0,2993.0,3444.0,4095.0,4095.0,4095.0,3227.0,2624.0,1.84,-8.04,9.9,0.03,-0.64,-0.26,0.0,p
3024.0,2999.0,3443.0,4095.0,4095.0,4095.0,3233.0,2625.0,2.08,-8.02,9.92,0.04,-0.19,-0.15,0.0,p
3022.0,2992.0,3442.0,4095.0,4095.0,4095.0,3229.0,2626.0,2.1,-7.88,9.89,0.05,-0.32,-0.26,0.0,p
3014.0,2993.0,3440.0,4095.0,4095.0,4095.0,3215.0,2621.0,2.31,-7.75,9.36,0.05,-0.38,-0.25,0.0,p
3029.0,3005.0,3440.0,4095.0,4095.0,4095.0,3215.0,2622.0,2.8,-7.83,9.64,-0.04,-0.03,-0.14,0.0,p
3017.0,2994.0,3445.0,4095.0,4095.0,4095.0,3218.0,2626.0,2.68,-7.77,9.41,-0.02,0.14,-0.15,0.0,p
3018.0,2991.0,3426.0,4095.0,4095.0,4095.0,3216.0,2628.0,2.72,-7.86,9.76,0.0,0.04,-0.2,0.0,p
3027.0,2986.0,3443.0,4095.0,4095.0,4095.0,3216.0,2622.0,2.73,-7.7,9.63,0.03,0.12,-0.26,0.0,p
3023.0,2996.0,3431.0,4095.0,4095.0,4095.0,3223.0,2627.0,2.83,-7.81,10.15,-0.03,0.31,-0.23,0.0,p
3028.0,2994.0,3442.0,4095.0,4095.0,4095.0,3221.0,2626.0,2.25,-7.81,9.84,-0.04,0.18,-0.09,0.0,p
3018.0,2999.0,3441.0,4095.0,4095.0,4095.0,3225.0,2626.0,2.22,-7.81,9.53,-0.06,-0.01,-0.11,0.0,p
3029.0,2993.0,3425.0,4095.0,4095.0,4095.0,3223.0,2630.0,2.6,-7.88,9.8,-0.08,0.14,-0.11,0.0,p
3024.0,3003.0,3438.0,4095.0,4095.0,4095.0,3230.0,2636.0,2.34,-7.76,9.63,-0.06,0.16,-0.15,0.0,p
3011.0,2987.0,3427.0,4095.0,4095.0,4095.0,3222.0,2628.0,2.07,-7.92,9.68,-0.08,0.05,-0.17,0.0,p
3018.0,2998.0,3440.0,4095.0,4095.0,4095.0,3230.0,2631.0,2.17,-7.87,9.6,-0.03,0.65,-0.01,0.0,p
3024.0,2998.0,3437.0,4095.0,4095.0,4095.0,3227.0,2631.0,2.02,-8.09,9.89,-0.04,-0.23,-0.23,0.0,p
3025.0,2987.0,3445.0,4095.0,4095.0,4095.0,3233.0,2638.0,1.5,-8.0,9.79,-0.05,0.13,-0.09,0.0,p
3022.0,2991.0,3441.0,4095.0,4095.0,4095.0,3234.0,2634.0,1.41,-7.89,9.49,-0.07,0.06,-0.12,0.0,p
3031.0,2992.0,3443.0,4095.0,4095.0,4095.0,3238.0,2634.0,1.71,-8.19,9.89,-0.09,0.18,-0.12,0.0,p
3014.0,2996.0,3423.0,4095.0,4095.0,4095.0,3228.0,2631.0,1.46,-8.17,9.58,0.06,-0.02,-0.17,0.0,p
3024.0,2991.0,3435.0,4095.0,4095.0,4095.0,3230.0,2634.0,1.36,-8.09,9.39,0.06,-0.06,-0.18,0.0,p
3023.0,2992.0,3445.0,4095.0,4095.0,4095.0,3229.0,2640.0,1.47,-8.22,9.64,-0.03,-0.11,-0.12,0.0,p
3028.0,2995.0,3440.0,4095.0,4095.0,4095.0,3233.0,2639.0,1.44,-8.27,9.57,0.12,-0.15,-0.11,0.0,p
3021.0,2996.0,3429.0,4095.0,4095.0,4095.0,3227.0,2637.0,1.39,-7.95,9.53,0.01,-0.18,-0.04,0.0,p
3009.0,2987.0,3422.0,4095.0,4095.0,4095.0,3218.0,2635.0,2.13,-8.08,9.84,0.09,-0.53,-0.21,0.0,p
3015.0,2987.0,3438.0,4095.0,4095.0,4095.0,3218.0,2637.0,1.84,-8.01,9.44,0.04,0.04,-0.09,0.0,p
3026.0,2992.0,3438.0,4095.0,4095.0,4095.0,3228.0,2639.0,1.75,-8.16,9.95,-0.04,-0.22,-0.15,0.0,p
3014.0,3003.0,3426.0,4095.0,4095.0,4095.0,3219.0,2638.0,2.1,-8.15,8.99,0.02,-0.35,-0.18,0.0,p
3034.0,3005.0,3435.0,4095.0,4095.0,4095.0,3229.0,2640.0,1.96,-8.02,9.45,0.07,-0.88,-0.33,0.0,p
3021.0,2989.0,3433.0,4095.0,4095.0,4095.0,3223.0,2636.0,2.99,-7.92,9.61,0.12,-0.72,-0.28,0.0,p
3019.0,2992.0,3434.0,4095.0,4095.0,4095.0,3222.0,2640.0,3.2,-7.83,8.81,-0.05,-0.6,-0.12,0.0,p
3028.0,2993.0,3439.0,4095.0,4095.0,4095.0,3207.0,2633.0,3.72,-7.92,9.27,-0.0,0.1,-0.12,0.0,p
3019.0,2992.0,3439.0,4095.0,4095.0,4095.0,3216.0,2640.0,3.18,-7.94,9.11,0.06,0.43,-0.17,0.0,p
3024.0,2999.0,3433.0,4095.0,4095.0,4095.0,3216.0,2635.0,3.18,-7.87,9.22,0.02,0.33,-0.18,0.0,p
3026.0,2992.0,3436.0,4095.0,4095.0,4095.0,3216.0,2630.0,2.75,-7.96,9.6,0.02,0.3,-0.24,0.0,p
3024.0,3002.0,3423.0,4095.0,4095.0,4095.0,3216.0,2634.0,2.06,-7.93,9.44,-0.09,0.38,-0.1,0.0,p
3031.0,3001.0,3429.0,4095.0,4095.0,4095.0,3216.0,2639.0,2.37,-7.91,9.49,-0.08,0.27,-0.09,0.0,p
3011.0,3007.0,3431.0,4095.0,4095.0,4095.0,3216.0,2637.0,2.37,-8.1,9.7,0.03,0.05,-0.22,0.0,p
3027.0,2993.0,3419.0,4095.0,4095.0,4095.0,3216.0,2641.0,1.89,-7.94,9.47,-0.24,0.36,-0.05,0.0,p
3019.0,3003.0,3430.0,4095.0,4095.0,4095.0,3218.0,2640.0,1.65,-8.07,9.39,-0.08,0.07,-0.12,0.0,p
3019.0,2991.0,3423.0,4095.0,4095.0,4095.0,3232.0,2641.0,2.17,-8.08,9.25,-0.06,0.05,-0.14,0.0,p
3031.0,2990.0,3429.0,4095.0,4095.0,4095.0,3228.0,2640.0,1.94,-8.33,9.58,0.06,-0.15,-0.23,0.0,p
3020.0,2993.0,3409.0,4095.0,4095.0,4095.0,3226.0,2639.0,1.89,-8.27,9.35,0.1,-0.08,-0.1,0.0,p
3024.0,3003.0,3423.0,4095.0,4095.0,4095.0,3231.0,2640.0,2.29,-8.14,9.64,0.06,-0.34,-0.11,0.0,p
3025.0,2994.0,3435.0,4095.0,4095.0,4095.0,3232.0,2638.0,2.2,-7.87,9.18,0.19,-0.56,-0.19,0.0,p
3030.0,2992.0,3421.0,4095.0,4095.0,4095.0,3242.0,2629.0,2.79,-8.04,9.0,0.05,-0.59,-0.05,0.0,p
3027.0,2996.0,3437.0,4095.0,4095.0,4095.0,3237.0,2628.0,3.34,-7.93,9.28,0.11,-0.67,-0.12,0.0,p
3018.0,2992.0,3423.0,4095.0,4095.0,4095.0,3243.0,2608.0,3.65,-7.85,9.2,0.03,-0.27,-0.04,0.0,p
3031.0,3006.0,3424.0,4095.0,4095.0,4095.0,3247.0,2605.0,3.35,-7.89,9.31,-0.07,-0.02,-0.12,0.0,p
3023.0,3006.0,3420.0,4095.0,4095.0,4095.0,3251.0,2606.0,3.49,-7.94,9.19,0.02,0.25,-0.2,0.0,p
3024.0,2989.0,3430.0,4095.0,4095.0,4095.0,3249.0,2606.0,3.07,-8.0,9.29,-0.06,0.25,-0.15,0.0,p
3026.0,2992.0,3423.0,4095.0,4095.0,3840.0,3255.0,2618.0,3.01,-7.99,9.41,0.05,0.32,-0.17,0.0,p
3009.0,2989.0,3422.0,4095.0,4095.0,3765.0,3253.0,2623.0,3.1,-7.93,9.22,0.03,0.12,-0.12,0.0,p
3023.0,2992.0,3424.0,4095.0,4095.0,3820.0,3261.0,2624.0,3.29,-7.96,9.23,-0.03,0.03,-0.18,0.0,p
3018.0,3007.0,3431.0,4095.0,4095.0,3844.0,3255.0,2614.0,2.6,-7.96,9.24,-0.04,0.17,-0.18,0.0,p
3027.0,3002.0,3440.0,4095.0,4095.0,3920.0,3259.0,2613.0,2.63,-7.82,9.28,0.08,0.41,-0.19,0.0,p
3027.0,2992.0,3431.0,4095.0,4095.0,3973.0,3249.0,2590.0,2.06,-7.45,9.86,0.6,1.46,-0.38,0.0,p
3024.0,2988.0,3438.0,4095.0,4095.0,4095.0,3242.0,2599.0,2.89,-7.81,9.96,0.09,0.34,-0.52,0.0,p
3019.0,2995.0,3426.0,4095.0,4095.0,4095.0,3239.0,2604.0,2.04,-7.84,9.93,-0.11,0.04,-0.25,0.0,p
3013.0,2991.0,3438.0,4095.0,4095.0,4095.0,3242.0,2606.0,1.77,-8.02,10.36,-0.05,0.01,-0.05,0.0,p
3019.0,2992.0,3430.0,4095.0,4095.0,4095.0,3236.0,2592.0,2.03,-7.59,9.93,0.11,-0.06,-0.08,0.0,p
3031.0,2997.0,3427.0,4095.0,4095.0,4095.0,3233.0,2601.0,2.34,-7.73,9.98,0.12,-0.38,-0.05,0.0,p
3020.0,3003.0,3430.0,4095.0,4095.0,4095.0,3235.0,2606.0,2.43,-7.65,10.41,0.03,-0.49,-0.05,0.0,p
3010.0,2999.0,3442.0,4095.0,4095.0,4095.0,3239.0,2603.0,2.43,-7.79,9.83,0.0,-0.22,-0.05,0.0,p
3030.0,2982.0,3426.0,4095.0,4095.0,4095.0,3238.0,2606.0,2.93,-7.83,9.97,-0.0,-0.61,-0.06,0.0,p
3026.0,2987.0,3417.0,4095.0,4095.0,4095.0,3241.0,2608.0,2.67,-7.6,9.69,-0.03,0.06,-0.01,0.0,p
3021.0,2993.0,3440.0,4095.0,4095.0,4095.0,3239.0,2609.0,2.7,-7.54,9.46,-0.1,0.21,-0.07,0.0,p
3022.0,2990.0,3439.0,4095.0,4095.0,4063.0,3246.0,2611.0,2.61,-7.86,9.89,0.01,-0.15,-0.23,0.0,p
3019.0,2996.0,3434.0,4095.0,4095.0,3995.0,3240.0,2614.0,2.58,-7.78,9.83,0.04,-0.17,-0.18,0.0,p
3019.0,3005.0,3421.0,4095.0,4095.0,3969.0,3242.0,2613.0,2.96,-7.66,9.6,-0.02,0.08,-0.18,0.0,p
3026.0,2991.0,3435.0,4095.0,4095.0,3974.0,3239.0,2613.0,2.87,-7.88,9.87,0.05,0.07,-0.21,0.0,p
3024.0,3003.0,3435.0,4095.0,4095.0,4015.0,3248.0,2616.0,3.12,-7.69,9.69,0.09,0.24,-0.21,0.0,p
3013.0,2998.0,3435.0,4095.0,4095.0,4049.0,3238.0,2615.0,2.6,-7.56,9.72,0.02,0.21,-0.19,0.0,p
3022.0,2995.0,3408.0,4095.0,4095.0,4080.0,3232.0,2613.0,2.66,-7.88,9.88,-0.04,0.01,-0.18,0.0,p
3025.0,2990.0,3432.0,4095.0,4095.0,4087.0,3234.0,2611.0,2.66,-7.55,9.93,-0.05,0.06,-0.19,0.0,p
3015.0,2997.0,3426.0,4095.0,4095.0,4095.0,3238.0,2613.0,2.55,-7.85,10.12,-0.1,0.37,-0.2,0.0,p
3019.0,2991.0,3424.0,4095.0,4095.0,4095.0,3229.0,2608.0,1.81,-7.75,9.7,-0.01,0.65,-0.14,0.0,p
3024.0,2995.0,3429.0,4095.0,4095.0,4095.0,3231.0,2608.0,2.07,-7.73,9.75,0.01,0.24,-0.17,0.0,p
3025.0,2994.0,3429.0,4095.0,4095.0,4095.0,3221.0,2594.0,1.61,-7.63,9.6,-0.09,0.46,-0.09,0.0,p
3019.0,3008.0,3440.0,4095.0,4095.0,4095.0,3223.0,2606.0,1.46,-7.95,10.1,-0.08,0.25,-0.14,0.0,p
3024.0,3002.0,3424.0,4095.0,4095.0,4095.0,3221.0,2606.0,1.36,-7.78,9.98,0.05,0.08,-0.23,0.0,p
3022.0,2991.0,3423.0,4095.0,4095.0,4095.0,3219.0,2607.0,1.2,-7.85,9.7,0.05,0.19,-0.1,0.0,p
3018.0,3004.0,3433.0,4095.0,4095.0,4095.0,3218.0,2603.0,1.4,-7.82,9.95,0.1,-0.07,-0.16,0.0,p
3016.0,2998.0,3417.0,4095.0,4095.0,4095.0,3218.0,2608.0,1.28,-7.92,10.07,0.07,-0.05,-0.15,0.0,p
3027.0,3005.0,3427.0,4095.0,4095.0,4026.0,3225.0,2610.0,1.45,-7.83,10.14,-0.04,-0.1,-0.1,0.0,p
3035.0,3010.0,3426.0,4095.0,4095.0,4007.0,3222.0,2611.0,1.48,-8.02,10.25,0.04,-0.04,-0.17,0.0,p
3018.0,2999.0,3423.0,4095.0,4095.0,3735.0,3226.0,2611.0,1.45,-7.79,9.81,-0.01,-0.0,-0.14,0.0,p
3029.0,2992.0,3414.0,4095.0,4095.0,3759.0,3222.0,2608.0,1.57,-7.97,10.17,0.04,-0.12,-0.18,0.0,p
3023.0,2999.0,3409.0,4095.0,4095.0,3795.0,3221.0,2608.0,1.41,-7.87,9.93,0.09,-0.06,-0.14,0.0,p
3022.0,3004.0,3426.0,4095.0,4095.0,3888.0,3225.0,2608.0,1.33,-7.83,9.92,0.14,-0.5,-0.11,0.0,p
3029.0,2986.0,3430.0,4095.0,4095.0,3914.0,3211.0,2581.0,1.85,-7.91,10.07,0.09,-0.52,-0.08,0.0,p
3028.0,2993.0,3431.0,4095.0,4095.0,3933.0,3215.0,2591.0,2.72,-7.82,9.45,-0.09,-0.7,-0.06,0.0,p
3031.0,2995.0,3440.0,4095.0,4095.0,3949.0,3216.0,2598.0,1.82,-7.65,9.23,0.01,-0.44,-0.09,0.0,p
3024.0,2991.0,3435.0,4095.0,4095.0,3954.0,3223.0,2607.0,2.77,-7.88,9.84,0.03,-0.5,-0.15,0.0,p
