hall_1_L,hall_2_L,hall_3_L,flex_t_L,flex_i_L,flex_m_L,flex_r_L,flex_p_L,accel_x_L,accel_y_L,accel_z_L,gyro_x_L,gyro_y_L,gyro_z_L,hand,hall_1_R,hall_2_R,hall_3_R,flex_t_R,flex_i_R,flex_m_R,flex_r_R,flex_p_R,accel_x_R,accel_y_R,accel_z_R,gyro_x_R,gyro_y_R,gyro_z_R,hand,sign
3171.0,1584.0,3123.0,3146.0,3648.0,4082.0,4095.0,4095.0,6.09,6.32,8.65,-0.05,-0.09,-0.1,0.0,4095.0,4095.0,974.0,2960.0,4095.0,4095.0,4095.0,3582.0,-7.5,3.06,5.55,-0.12,0.06,0.05,1.0,person
3174.0,1596.0,3127.0,3145.0,3662.0,4095.0,4095.0,4095.0,7.0,6.8,8.51,0.03,0.11,-0.19,0.0,4095.0,4095.0,982.0,2951.0,4095.0,4095.0,4095.0,3600.0,-7.68,3.2,5.43,-0.06,0.0,0.02,1.0,person
3157.0,1584.0,3119.0,3149.0,3664.0,4095.0,4095.0,4095.0,8.77,7.02,8.83,0.03,0.12,-0.73,0.0,4095.0,4095.0,975.0,2965.0,4095.0,4095.0,4095.0,3655.0,-8.88,2.48,5.86,-0.02,-0.07,0.22,1.0,person
3184.0,1535.0,3105.0,3069.0,3691.0,4091.0,4095.0,4095.0,-13.62,3.26,2.78,-0.48,0.92,1.51,0.0,4095.0,4095.0,959.0,2961.0,4095.0,4095.0,4095.0,3503.0,-6.22,4.21,5.34,0.51,-0.58,0.54,1.0,person
3157.0,1965.0,3111.0,3071.0,3757.0,4095.0,4095.0,4095.0,5.28,-13.3,3.65,-2.12,-2.91,6.07,0.0,4095.0,4095.0,962.0,2919.0,4095.0,4095.0,4095.0,3522.0,7.92,8.42,2.79,-0.21,0.73,-1.01,1.0,person
3149.0,2284.0,3115.0,3150.0,3745.0,4095.0,4095.0,4095.0,24.89,-8.53,4.09,-1.34,-3.06,4.2,0.0,4095.0,4095.0,1073.0,3002.0,4095.0,4095.0,4095.0,3444.0,-18.75,-26.66,-5.5,-0.32,1.35,-5.76,1.0,person
3159.0,2548.0,3109.0,3184.0,3765.0,4095.0,4095.0,4095.0,9.7,-3.55,4.71,0.27,-0.04,-0.58,0.0,4095.0,4095.0,1059.0,3011.0,4095.0,4095.0,4095.0,3511.0,-14.25,-11.48,1.43,-0.31,0.25,-0.14,1.0,person
3167.0,2582.0,3108.0,3175.0,3728.0,4095.0,4095.0,4095.0,8.06,-3.84,3.79,0.02,0.07,-0.33,0.0,4095.0,4095.0,1034.0,2991.0,4095.0,4095.0,4095.0,3782.0,-4.64,-6.83,-0.37,0.08,-0.0,0.25,1.0,person
3168.0,2590.0,3103.0,3186.0,3727.0,4095.0,4095.0,4095.0,8.79,-4.12,4.51,-0.04,-0.02,-0.16,0.0,4095.0,4095.0,1053.0,2997.0,4095.0,4095.0,4095.0,3659.0,-5.57,-7.78,-1.57,-0.12,0.03,0.06,1.0,person
3164.0,2583.0,3095.0,3184.0,3724.0,4095.0,4095.0,4095.0,9.06,-4.1,4.62,-0.03,-0.1,-0.16,0.0,4095.0,4095.0,1040.0,3017.0,4095.0,4095.0,4095.0,3696.0,-5.43,-7.54,-1.03,-0.01,0.01,0.07,1.0,person
3170.0,2592.0,3111.0,3195.0,3733.0,4095.0,4095.0,4095.0,8.99,-3.92,4.71,-0.05,-0.1,-0.17,0.0,4095.0,4095.0,1040.0,3007.0,4095.0,4095.0,4095.0,3611.0,-5.74,-7.49,-1.16,0.01,-0.05,-0.06,1.0,person
3158.0,2559.0,3102.0,3191.0,3735.0,4091.0,4095.0,4095.0,9.26,-3.99,4.62,-0.03,-0.08,-0.14,0.0,4095.0,4095.0,1045.0,3018.0,4095.0,4095.0,4095.0,3603.0,-5.69,-7.42,-0.88,-0.01,-0.04,-0.08,1.0,person
3158.0,2595.0,3105.0,3186.0,3725.0,4085.0,4095.0,4095.0,8.98,-3.96,4.67,-0.01,-0.05,-0.13,0.0,4095.0,4095.0,1042.0,3015.0,4095.0,4095.0,4095.0,3687.0,-5.75,-7.56,-0.95,-0.02,-0.01,-0.05,1.0,person
3170.0,2559.0,3098.0,3195.0,3734.0,4091.0,4095.0,4095.0,9.2,-4.02,4.36,0.03,-0.02,-0.1,0.0,4095.0,4095.0,1050.0,3022.0,4095.0,4095.0,4095.0,3694.0,-5.67,-7.39,-0.97,-0.08,0.01,-0.03,1.0,person
3184.0,2559.0,3097.0,3200.0,3729.0,4087.0,4095.0,4095.0,9.15,-3.93,4.44,0.02,-0.02,-0.13,0.0,4095.0,4095.0,1045.0,3024.0,4095.0,4095.0,4095.0,3801.0,-5.76,-7.5,-0.94,-0.05,-0.01,-0.05,1.0,person
3161.0,2585.0,3105.0,3195.0,3735.0,4082.0,4095.0,4095.0,9.17,-4.04,4.46,0.02,-0.05,-0.15,0.0,4095.0,4095.0,1051.0,3024.0,4095.0,4095.0,4095.0,3670.0,-5.88,-7.57,-1.0,-0.05,-0.02,-0.04,1.0,person
3172.0,2580.0,3098.0,3199.0,3759.0,4071.0,4095.0,4095.0,9.02,-3.99,4.42,0.01,-0.01,-0.14,0.0,4095.0,4095.0,1040.0,3024.0,4095.0,4095.0,4095.0,3699.0,-5.75,-7.65,-0.95,-0.05,-0.03,-0.07,1.0,person
3166.0,2559.0,3101.0,3191.0,3755.0,4066.0,4095.0,4095.0,8.96,-3.98,4.45,-0.01,-0.01,-0.12,0.0,4095.0,4095.0,1050.0,3025.0,4095.0,4095.0,4095.0,3683.0,-5.76,-7.66,-1.09,-0.09,0.07,-0.03,1.0,person
3178.0,2559.0,3095.0,3207.0,3761.0,4077.0,4095.0,4095.0,9.18,-4.09,4.4,0.03,-0.0,-0.12,0.0,4095.0,4095.0,1061.0,3027.0,4095.0,4095.0,4095.0,3680.0,-5.63,-7.49,-1.01,-0.05,0.01,-0.02,1.0,person
3165.0,2559.0,3097.0,3203.0,3759.0,4070.0,4095.0,4095.0,9.0,-3.96,4.41,0.05,-0.06,-0.15,0.0,4095.0,4095.0,1056.0,3025.0,4095.0,4095.0,4095.0,3668.0,-5.76,-7.51,-1.1,-0.07,0.01,-0.03,1.0,person
3190.0,2655.0,3066.0,3337.0,3734.0,4078.0,4095.0,4095.0,5.33,7.27,8.67,0.02,-0.01,-0.16,0.0,4095.0,4095.0,979.0,3123.0,4095.0,4095.0,4095.0,4095.0,-7.12,3.92,5.45,-0.06,0.02,-0.02,1.0,person
3182.0,2656.0,3066.0,3335.0,3735.0,4083.0,4095.0,4095.0,5.48,7.25,8.66,0.02,-0.02,-0.16,0.0,4095.0,4095.0,991.0,3122.0,4095.0,4095.0,4095.0,4095.0,-7.18,3.84,5.35,-0.05,0.02,-0.02,1.0,person
3179.0,2647.0,3063.0,3333.0,3747.0,4076.0,4095.0,4095.0,5.37,7.24,8.75,0.0,-0.02,-0.16,0.0,4095.0,4095.0,991.0,3119.0,4095.0,4095.0,4095.0,4095.0,-7.16,3.91,5.35,-0.05,0.02,-0.05,1.0,person
3181.0,2670.0,3069.0,3336.0,3743.0,4074.0,4095.0,4095.0,5.54,7.2,8.68,0.03,0.0,-0.15,0.0,4095.0,4095.0,988.0,3120.0,4095.0,4095.0,4095.0,4095.0,-7.25,3.83,5.41,-0.06,-0.0,-0.03,1.0,person
3184.0,2659.0,3060.0,3335.0,3745.0,4074.0,4095.0,4095.0,5.57,7.41,8.66,0.03,-0.02,-0.16,0.0,4095.0,4095.0,995.0,3123.0,4095.0,4095.0,4095.0,4095.0,-7.52,3.83,5.44,-0.05,-0.01,-0.03,1.0,person
3182.0,2654.0,3068.0,3342.0,3740.0,4071.0,4095.0,4095.0,6.17,7.45,8.87,0.04,0.04,-0.45,0.0,4095.0,4095.0,978.0,3124.0,4095.0,4095.0,4095.0,4095.0,-7.62,3.93,5.41,-0.01,-0.1,0.17,1.0,person
3195.0,2642.0,3071.0,3317.0,3741.0,4075.0,4095.0,4095.0,-4.31,6.81,5.87,-0.07,-0.27,0.46,0.0,4095.0,4095.0,993.0,3123.0,4095.0,4095.0,4095.0,4095.0,-0.59,6.38,4.29,-0.08,0.23,-0.32,1.0,person
3183.0,2673.0,3046.0,3261.0,3763.0,4070.0,4095.0,4095.0,-6.59,-3.0,3.12,-1.37,-0.95,4.42,0.0,4095.0,4095.0,983.0,3091.0,4095.0,4095.0,4095.0,4095.0,7.47,1.73,0.21,-0.54,1.3,-3.92,1.0,person
3182.0,2926.0,3056.0,3308.0,3743.0,4035.0,4095.0,4095.0,24.94,-15.66,8.2,-1.43,-1.25,3.27,0.0,4095.0,4095.0,1059.0,3127.0,4095.0,4095.0,4095.0,4095.0,-14.74,-25.06,-3.85,0.15,-0.52,-5.17,1.0,person
3169.0,2898.0,3043.0,3311.0,3750.0,4048.0,4095.0,4095.0,13.38,-5.5,8.08,-0.15,-0.54,-0.14,0.0,4095.0,4095.0,1015.0,3141.0,4095.0,4095.0,4095.0,4095.0,-11.11,-13.55,0.76,-0.16,0.4,0.07,1.0,person
3175.0,2887.0,3042.0,3312.0,3782.0,4063.0,4095.0,4095.0,7.13,-4.8,5.33,0.09,0.01,-0.38,0.0,4095.0,4095.0,1023.0,3132.0,4095.0,4095.0,4095.0,4095.0,-4.05,-8.15,-1.28,0.01,-0.06,0.19,1.0,person
3185.0,2882.0,3042.0,3315.0,3760.0,4071.0,4095.0,4095.0,7.73,-6.03,4.51,0.13,0.01,-0.25,0.0,4095.0,4095.0,1021.0,3123.0,4095.0,4095.0,4095.0,4095.0,-3.68,-8.82,-1.67,0.02,0.0,0.19,1.0,person
3184.0,2879.0,3045.0,3319.0,3766.0,4061.0,4095.0,4095.0,7.66,-5.9,4.82,0.1,0.06,-0.27,0.0,4095.0,4095.0,1015.0,3115.0,4095.0,4095.0,4095.0,4095.0,-3.43,-8.45,-1.27,-0.05,-0.04,0.13,1.0,person
3182.0,2879.0,3056.0,3318.0,3765.0,4067.0,4095.0,4095.0,7.9,-5.61,4.92,0.02,-0.01,-0.21,0.0,4095.0,4095.0,1015.0,3124.0,4095.0,4095.0,4095.0,4095.0,-3.66,-8.43,-1.26,-0.08,-0.05,0.07,1.0,person
3175.0,2877.0,3055.0,3315.0,3766.0,4060.0,4095.0,4095.0,8.06,-6.08,4.88,0.03,0.02,-0.22,0.0,4095.0,4095.0,945.0,3132.0,4095.0,4095.0,4095.0,4095.0,-4.4,-8.77,-1.34,-0.05,0.08,-0.01,1.0,person
3190.0,2869.0,3047.0,3328.0,3767.0,4058.0,4095.0,4095.0,7.97,-5.75,4.87,-0.02,-0.04,-0.21,0.0,4095.0,4095.0,932.0,3141.0,4095.0,4095.0,4095.0,4095.0,-4.04,-8.51,-1.25,-0.06,0.01,0.0,1.0,person
3175.0,2871.0,3037.0,3314.0,3760.0,4077.0,4095.0,4095.0,8.02,-5.78,5.07,0.01,-0.06,-0.12,0.0,4095.0,4095.0,935.0,3132.0,4095.0,4095.0,4095.0,4095.0,-3.97,-8.34,-1.31,-0.02,0.03,-0.02,1.0,person
3194.0,2880.0,3053.0,3317.0,3769.0,4054.0,4095.0,4095.0,8.09,-5.83,4.98,0.01,-0.01,-0.17,0.0,4095.0,4095.0,941.0,3139.0,4095.0,4095.0,4095.0,4095.0,-4.11,-8.56,-1.37,-0.02,-0.02,-0.03,1.0,person
3178.0,2891.0,3043.0,3314.0,3773.0,4063.0,4095.0,4095.0,8.13,-5.72,4.84,0.01,-0.01,-0.17,0.0,4095.0,4095.0,944.0,3138.0,4095.0,4095.0,4095.0,4095.0,-4.14,-8.43,-1.24,-0.06,0.02,-0.04,1.0,person
3179.0,2875.0,3056.0,3318.0,3767.0,4064.0,4095.0,4095.0,8.12,-5.77,4.95,0.03,0.03,-0.14,0.0,4095.0,4095.0,941.0,3139.0,4095.0,4095.0,4095.0,4095.0,-4.28,-8.61,-1.26,-0.05,-0.01,-0.02,1.0,person
3191.0,3699.0,3051.0,3309.0,3700.0,4017.0,4095.0,4095.0,5.7,7.05,8.6,0.02,-0.03,-0.18,0.0,942.0,4095.0,971.0,3117.0,4095.0,4095.0,4095.0,4095.0,-6.98,4.08,5.21,-0.08,-0.01,-0.04,1.0,person
3203.0,3709.0,3066.0,3313.0,3697.0,4016.0,4095.0,4095.0,5.63,7.17,8.57,0.01,0.02,-0.24,0.0,934.0,4095.0,976.0,3120.0,4095.0,4095.0,4095.0,4095.0,-7.15,4.18,5.32,-0.06,-0.01,0.05,1.0,person
3206.0,3726.0,3069.0,3317.0,3697.0,4030.0,4095.0,4095.0,-0.46,6.11,7.09,-0.09,-0.31,0.21,0.0,934.0,4095.0,962.0,3122.0,4095.0,4095.0,4095.0,4095.0,-2.89,5.26,4.26,-0.15,0.24,-0.41,1.0,person
3201.0,3713.0,3045.0,3270.0,3729.0,4021.0,4095.0,4095.0,-6.15,-0.12,3.72,-0.74,-0.67,3.7,0.0,956.0,4095.0,982.0,3091.0,4095.0,4095.0,4095.0,4095.0,6.4,2.99,0.64,-0.98,1.23,-3.09,1.0,person
3226.0,3753.0,3046.0,3266.0,3751.0,3984.0,4095.0,4095.0,5.66,-13.59,0.37,-1.76,-3.73,5.73,0.0,961.0,4095.0,979.0,3021.0,4095.0,4095.0,4095.0,4095.0,4.04,-11.51,-5.92,-2.02,2.98,-6.09,1.0,person
3195.0,3723.0,3056.0,3298.0,3704.0,3978.0,4095.0,4095.0,31.02,-14.69,4.63,-1.03,-2.57,2.36,0.0,994.0,4095.0,1050.0,3109.0,4095.0,4095.0,4095.0,4095.0,-22.42,-25.75,-2.6,-0.44,-0.02,-3.8,1.0,person
3222.0,3724.0,3043.0,3328.0,3727.0,4007.0,4095.0,4095.0,14.23,-2.25,7.6,0.0,-0.61,-0.29,0.0,976.0,4095.0,999.0,3122.0,4095.0,4095.0,4095.0,4095.0,-12.17,-9.07,0.92,-0.09,0.38,0.31,1.0,person
3216.0,3723.0,3049.0,3313.0,3728.0,4016.0,4095.0,4095.0,8.32,-3.89,4.3,0.03,0.21,-0.58,0.0,979.0,4095.0,1008.0,3117.0,4095.0,4095.0,4095.0,4095.0,-4.4,-6.87,-1.71,0.11,-0.21,0.15,1.0,person
3230.0,3731.0,3044.0,3319.0,3734.0,3998.0,4095.0,4095.0,7.85,-5.01,4.14,0.04,0.06,-0.38,0.0,987.0,4095.0,997.0,3125.0,4095.0,4095.0,4095.0,4095.0,-4.53,-7.92,-1.84,-0.03,0.06,0.06,1.0,person
3216.0,3721.0,3044.0,3313.0,3734.0,4007.0,4095.0,4095.0,8.53,-4.76,4.46,0.0,-0.04,-0.22,0.0,979.0,4095.0,995.0,3127.0,4095.0,4095.0,4095.0,4095.0,-4.95,-7.87,-1.39,-0.07,-0.03,-0.0,1.0,person
3217.0,3729.0,3054.0,3327.0,3729.0,4005.0,4095.0,4095.0,8.43,-4.68,4.68,-0.09,0.07,-0.08,0.0,977.0,4095.0,1011.0,3132.0,4095.0,4095.0,4095.0,4095.0,-5.12,-7.91,-1.05,-0.1,0.02,0.01,1.0,person
3234.0,3723.0,3053.0,3326.0,3735.0,3994.0,4095.0,4095.0,8.78,-5.01,4.94,-0.08,-0.04,-0.09,0.0,986.0,4095.0,1014.0,3136.0,4095.0,4095.0,4095.0,4095.0,-5.2,-7.64,-1.15,-0.09,-0.07,-0.02,1.0,person
3229.0,3725.0,3041.0,3325.0,3737.0,3990.0,4095.0,4095.0,9.0,-4.98,4.66,0.03,-0.03,-0.16,0.0,975.0,4095.0,1003.0,3141.0,4095.0,4095.0,4095.0,4095.0,-5.26,-7.67,-1.48,-0.06,0.04,0.01,1.0,person
3221.0,3707.0,3052.0,3323.0,3743.0,4002.0,4095.0,4095.0,8.69,-4.86,4.59,0.01,-0.03,-0.14,0.0,980.0,4095.0,1006.0,3134.0,4095.0,4095.0,4095.0,4095.0,-5.32,-7.77,-1.22,-0.09,-0.01,0.01,1.0,person
3222.0,3727.0,3043.0,3313.0,3736.0,3986.0,4095.0,4095.0,8.88,-4.81,4.63,0.05,-0.04,-0.12,0.0,981.0,4095.0,1009.0,3136.0,4095.0,4095.0,4095.0,4095.0,-5.35,-7.74,-1.27,-0.09,0.06,0.01,1.0,person
3216.0,3711.0,3047.0,3313.0,3734.0,4007.0,4095.0,4095.0,8.75,-4.7,4.6,0.03,-0.02,-0.14,0.0,978.0,4095.0,986.0,3136.0,4095.0,4095.0,4095.0,4095.0,-5.33,-7.61,-1.36,-0.08,0.05,-0.01,1.0,person
3216.0,3717.0,3045.0,3318.0,3741.0,4013.0,4095.0,4095.0,8.71,-4.75,4.74,0.01,0.04,-0.17,0.0,962.0,4095.0,1008.0,3137.0,4095.0,4095.0,4095.0,4095.0,-5.41,-7.64,-1.26,-0.08,-0.08,-0.09,1.0,person
3221.0,3717.0,3046.0,3313.0,3728.0,4027.0,4095.0,4095.0,8.83,-4.92,4.62,0.03,0.0,-0.19,0.0,982.0,4095.0,1008.0,3136.0,4095.0,4095.0,4095.0,4095.0,-5.5,-7.7,-1.23,-0.04,-0.04,-0.04,1.0,person
3221.0,3717.0,3043.0,3325.0,3741.0,4013.0,4095.0,4095.0,8.61,-4.69,4.66,0.02,-0.02,-0.17,0.0,965.0,4095.0,991.0,3137.0,4095.0,4095.0,4095.0,4095.0,-5.5,-7.84,-1.31,-0.07,-0.03,-0.03,1.0,person
3216.0,3711.0,3040.0,3317.0,3734.0,4016.0,4095.0,4095.0,8.6,-4.81,4.69,0.06,-0.02,-0.19,0.0,976.0,4095.0,991.0,3135.0,4095.0,4095.0,4095.0,4095.0,-5.3,-7.57,-1.19,-0.07,-0.01,-0.01,1.0,person
3239.0,3809.0,3054.0,3318.0,3747.0,4095.0,4095.0,4095.0,4.88,7.8,8.31,0.01,0.01,-0.18,0.0,922.0,4095.0,954.0,3097.0,4095.0,4095.0,4095.0,4095.0,-6.67,5.35,4.88,-0.12,-0.01,-0.01,1.0,person
3248.0,3812.0,3047.0,3321.0,3745.0,4095.0,4095.0,4095.0,5.64,7.75,8.44,0.01,-0.02,-0.28,0.0,931.0,4095.0,962.0,3104.0,4095.0,4095.0,4095.0,4095.0,-7.17,5.21,5.07,-0.05,-0.04,0.06,1.0,person
3258.0,3807.0,3041.0,3321.0,3738.0,4095.0,4095.0,4095.0,1.69,7.75,7.81,0.02,-0.07,-0.2,0.0,944.0,4095.0,970.0,3095.0,4095.0,4095.0,4095.0,4095.0,-4.22,6.35,4.71,0.01,0.01,0.02,1.0,person
3245.0,3813.0,3039.0,3297.0,3762.0,4095.0,4095.0,4095.0,-3.68,4.01,5.4,-0.45,-0.47,1.76,0.0,948.0,4095.0,964.0,3063.0,4095.0,4095.0,4095.0,4095.0,5.65,-2.36,-2.46,-1.59,2.5,-4.64,1.0,person
3241.0,3839.0,3040.0,3287.0,3751.0,4095.0,4095.0,4095.0,15.59,-8.31,4.45,-0.48,-2.29,4.52,0.0,997.0,4095.0,1035.0,3088.0,4095.0,4095.0,4095.0,4095.0,-13.77,-19.41,-4.95,-1.62,2.54,-5.62,1.0,person
3228.0,3850.0,3043.0,3298.0,3713.0,4090.0,4095.0,4095.0,21.44,-5.72,5.59,-0.02,-1.13,1.72,0.0,994.0,4095.0,1039.0,3132.0,4095.0,4095.0,4095.0,4095.0,-20.27,-16.42,-0.59,-1.36,1.8,-1.46,1.0,person
3227.0,3867.0,3040.0,3292.0,3739.0,4095.0,4095.0,4095.0,12.1,-2.62,4.16,0.14,-0.19,-0.26,0.0,999.0,4095.0,1011.0,3138.0,4095.0,4095.0,4095.0,4095.0,-8.88,-6.99,0.1,-0.12,0.11,0.2,1.0,person
3247.0,3871.0,3038.0,3295.0,3744.0,4095.0,4095.0,4095.0,8.51,-3.27,3.38,0.07,-0.1,-0.4,0.0,1007.0,4095.0,999.0,3137.0,4095.0,4095.0,4095.0,4095.0,-5.35,-6.91,-0.9,-0.07,0.08,0.22,1.0,person
3243.0,3869.0,3038.0,3293.0,3756.0,4089.0,4095.0,4095.0,9.1,-3.9,3.28,-0.11,0.07,-0.15,0.0,997.0,4095.0,1007.0,3127.0,4095.0,4095.0,4095.0,4095.0,-5.63,-7.19,-1.21,-0.05,-0.05,0.01,1.0,person
3248.0,3869.0,3033.0,3293.0,3759.0,4095.0,4095.0,4095.0,9.28,-3.76,3.74,-0.07,0.22,-0.11,0.0,1005.0,4095.0,1008.0,3135.0,4095.0,4095.0,4095.0,4095.0,-5.7,-7.26,-0.92,-0.1,-0.02,0.0,1.0,person
3245.0,3859.0,3049.0,3302.0,3758.0,4095.0,4095.0,4095.0,9.18,-3.62,3.81,-0.02,0.03,-0.18,0.0,1008.0,4095.0,1015.0,3133.0,4095.0,4095.0,4095.0,4095.0,-5.98,-7.23,-0.88,-0.09,-0.03,-0.05,1.0,person
3239.0,3862.0,3033.0,3295.0,3770.0,4095.0,4095.0,4095.0,9.14,-3.74,3.71,-0.04,0.03,-0.16,0.0,987.0,4095.0,994.0,3138.0,4095.0,4095.0,4095.0,4095.0,-5.95,-7.31,-0.74,-0.06,-0.03,-0.06,1.0,person
3230.0,3854.0,3038.0,3307.0,3759.0,4095.0,4095.0,4095.0,9.23,-3.7,3.79,-0.01,-0.02,-0.13,0.0,991.0,4095.0,1011.0,3138.0,4095.0,4095.0,4095.0,4095.0,-6.05,-7.36,-0.85,-0.04,0.01,-0.05,1.0,person
3231.0,3856.0,3035.0,3309.0,3766.0,4095.0,4095.0,4095.0,9.45,-3.81,3.66,-0.0,-0.01,-0.16,0.0,998.0,4095.0,989.0,3142.0,4095.0,4095.0,4095.0,4095.0,-6.04,-7.2,-0.97,-0.08,0.03,-0.04,1.0,person
3241.0,3853.0,3045.0,3307.0,3761.0,4073.0,4095.0,4095.0,9.11,-3.82,3.78,0.01,0.02,-0.13,0.0,1003.0,4095.0,993.0,3139.0,4095.0,4095.0,4095.0,4095.0,-6.05,-7.24,-0.96,-0.08,0.0,-0.04,1.0,person
3239.0,3856.0,3026.0,3309.0,3767.0,4070.0,4095.0,4095.0,9.27,-3.71,3.65,-0.01,0.02,-0.13,0.0,994.0,4095.0,992.0,3141.0,4095.0,4095.0,4095.0,4095.0,-6.05,-7.31,-0.92,-0.07,-0.03,-0.03,1.0,person
3226.0,3869.0,3036.0,3310.0,3767.0,4075.0,4095.0,4095.0,9.34,-3.71,3.73,-0.01,0.0,-0.13,0.0,993.0,4095.0,1001.0,3143.0,4095.0,4095.0,4095.0,4095.0,-5.88,-7.25,-0.87,-0.07,0.04,-0.02,1.0,person
3246.0,3867.0,3034.0,3312.0,3753.0,4066.0,4095.0,4095.0,9.24,-3.71,3.72,-0.01,-0.01,-0.15,0.0,1004.0,4095.0,994.0,3152.0,4095.0,4095.0,4095.0,4095.0,-5.94,-7.29,-0.99,-0.09,0.03,-0.04,1.0,person
3243.0,3855.0,3039.0,3311.0,3760.0,4072.0,4095.0,4095.0,9.19,-3.72,3.71,0.0,-0.03,-0.15,0.0,990.0,4095.0,991.0,3149.0,4095.0,4095.0,4095.0,4095.0,-5.93,-7.23,-0.95,-0.06,-0.01,-0.03,1.0,person
3237.0,3843.0,3047.0,3307.0,3775.0,4065.0,4095.0,4095.0,9.28,-3.72,3.62,0.02,-0.05,-0.18,0.0,988.0,4095.0,991.0,3152.0,4095.0,4095.0,4095.0,4095.0,-5.93,-7.2,-0.98,-0.09,0.02,-0.02,1.0,person
3258.0,3837.0,3046.0,3348.0,3727.0,4048.0,4095.0,4095.0,5.07,7.86,8.01,-0.01,-0.02,-0.12,0.0,1008.0,4095.0,1007.0,3125.0,4095.0,4095.0,4095.0,4095.0,-6.85,5.07,5.11,-0.06,-0.03,-0.01,1.0,person
3263.0,3833.0,3051.0,3312.0,3727.0,4064.0,4095.0,4095.0,5.26,7.78,8.23,-0.05,-0.02,-0.15,0.0,1022.0,4095.0,1008.0,3110.0,4095.0,4095.0,4095.0,4095.0,-6.86,4.83,5.14,-0.08,0.03,0.03,1.0,person
3259.0,3857.0,3041.0,3264.0,3687.0,4064.0,4095.0,4095.0,1.52,7.25,7.43,0.03,-0.16,0.07,0.0,995.0,4095.0,999.0,3105.0,4095.0,4095.0,4095.0,4095.0,-3.16,5.9,4.63,-0.11,0.12,-0.32,1.0,person
3263.0,3884.0,3051.0,3243.0,3691.0,4037.0,4095.0,4095.0,-6.32,1.27,3.71,-0.66,-0.65,3.18,0.0,995.0,4095.0,986.0,3095.0,4095.0,4095.0,4095.0,4095.0,4.69,4.14,3.1,-0.54,1.35,-2.71,1.0,person
3248.0,3869.0,3040.0,3247.0,3696.0,4021.0,4095.0,4095.0,7.52,-9.25,2.93,-1.19,-2.59,5.15,0.0,1040.0,4095.0,1036.0,3085.0,4095.0,4095.0,4095.0,4095.0,1.12,-7.57,-5.8,-1.34,2.77,-5.48,1.0,person
3230.0,3908.0,3038.0,3275.0,3695.0,3982.0,4095.0,4095.0,19.45,-3.3,4.03,0.2,-0.35,0.34,0.0,1039.0,4095.0,1047.0,3111.0,4095.0,4095.0,4095.0,4095.0,-14.84,-11.05,1.45,-0.18,-0.18,-0.87,1.0,person
3239.0,3909.0,3039.0,3273.0,3707.0,4006.0,4095.0,4095.0,7.53,-2.85,4.25,0.14,0.1,-0.46,0.0,1040.0,4095.0,1050.0,3117.0,4095.0,4095.0,4095.0,4095.0,-6.22,-6.47,0.1,0.22,0.09,0.04,1.0,person
3234.0,3889.0,3050.0,3274.0,3719.0,3993.0,4095.0,4095.0,8.65,-3.95,2.89,0.07,0.02,-0.14,0.0,1042.0,4095.0,1058.0,3120.0,4095.0,4095.0,4095.0,4095.0,-6.21,-7.65,-1.39,0.21,-0.02,0.05,1.0,person
3233.0,3901.0,3045.0,3269.0,3714.0,4003.0,4095.0,4095.0,9.27,-4.09,3.81,-0.03,-0.04,-0.15,0.0,1037.0,4095.0,1040.0,3136.0,4095.0,4095.0,4095.0,4095.0,-5.81,-7.17,-0.96,-0.01,0.04,0.03,1.0,person
3243.0,3879.0,3039.0,3280.0,3725.0,4001.0,4095.0,4095.0,9.21,-4.07,3.71,-0.04,0.08,-0.14,0.0,1045.0,4095.0,1051.0,3133.0,4095.0,4095.0,4095.0,4095.0,-6.01,-7.24,-0.96,-0.05,0.06,0.02,1.0,person
3245.0,3902.0,3039.0,3287.0,3721.0,4007.0,4095.0,4095.0,9.11,-4.02,3.82,-0.04,0.01,-0.14,0.0,1042.0,4095.0,1054.0,3136.0,4095.0,4095.0,4095.0,4095.0,-6.06,-7.19,-0.97,-0.09,0.01,-0.03,1.0,person
3235.0,3904.0,3026.0,3289.0,3728.0,4007.0,4095.0,4095.0,9.29,-4.04,3.73,0.02,0.1,-0.15,0.0,1041.0,4095.0,1034.0,3144.0,4095.0,4095.0,4095.0,4095.0,-6.25,-7.27,-1.23,-0.07,0.02,-0.01,1.0,person
3233.0,3893.0,3035.0,3287.0,3728.0,4002.0,4095.0,4095.0,8.99,-3.97,3.82,0.04,0.04,-0.15,0.0,1052.0,4095.0,1046.0,3139.0,4095.0,4095.0,4095.0,4095.0,-6.1,-7.14,-1.0,-0.09,0.02,-0.02,1.0,person
3246.0,3893.0,3035.0,3296.0,3728.0,4003.0,4095.0,4095.0,9.17,-4.03,3.76,0.02,0.02,-0.16,0.0,1039.0,4095.0,1060.0,3141.0,4095.0,4095.0,4095.0,4095.0,-6.02,-7.15,-1.11,-0.06,0.03,-0.01,1.0,person
3239.0,3904.0,3041.0,3295.0,3735.0,4006.0,4095.0,4095.0,9.07,-3.97,3.72,0.03,-0.0,-0.18,0.0,1034.0,4095.0,1040.0,3152.0,4095.0,4095.0,4095.0,4095.0,-6.03,-7.05,-1.11,-0.09,0.01,-0.01,1.0,person
3239.0,3891.0,3047.0,3301.0,3728.0,4013.0,4095.0,4095.0,9.17,-3.98,3.71,0.02,-0.02,-0.17,0.0,1058.0,4095.0,1047.0,3151.0,4095.0,4095.0,4095.0,4095.0,-6.07,-7.13,-1.0,-0.06,0.02,-0.03,1.0,person
3245.0,3886.0,3028.0,3302.0,3734.0,3997.0,4095.0,4095.0,9.09,-3.94,3.73,0.03,0.02,-0.13,0.0,1042.0,4095.0,1038.0,3149.0,4095.0,4095.0,4095.0,4095.0,-6.12,-7.12,-1.02,-0.06,0.0,-0.03,1.0,person
3244.0,3917.0,3034.0,3303.0,3741.0,4011.0,4095.0,4095.0,9.18,-3.94,3.81,0.02,-0.02,-0.16,0.0,1043.0,4095.0,1041.0,3150.0,4095.0,4095.0,4095.0,4095.0,-6.13,-7.15,-0.99,-0.07,0.01,-0.02,1.0,person
3229.0,3910.0,3024.0,3307.0,3735.0,3994.0,4095.0,4095.0,9.05,-3.96,3.81,0.01,0.03,-0.11,0.0,1041.0,4095.0,1042.0,3152.0,4095.0,4095.0,4095.0,4095.0,-6.01,-6.97,-1.12,-0.09,-0.03,-0.04,1.0,person
3235.0,3890.0,3036.0,3311.0,3741.0,4005.0,4095.0,4095.0,9.18,-4.1,3.86,0.02,-0.03,-0.16,0.0,1056.0,4095.0,1046.0,3154.0,4095.0,4095.0,4095.0,4095.0,-6.12,-7.12,-1.05,-0.07,0.0,-0.04,1.0,person
3261.0,3895.0,3024.0,3330.0,3729.0,4048.0,4095.0,4095.0,5.48,7.77,8.29,0.02,-0.11,-0.22,0.0,999.0,4095.0,1008.0,3157.0,4095.0,4095.0,4095.0,4095.0,-6.86,5.11,5.09,-0.11,0.03,0.04,1.0,person
3253.0,3889.0,3027.0,3344.0,3726.0,4062.0,4095.0,4095.0,0.1,7.33,7.1,0.0,-0.44,-0.07,0.0,1003.0,4095.0,985.0,3153.0,4095.0,4095.0,4095.0,4095.0,-2.35,6.67,4.78,-0.21,0.4,-0.14,1.0,person
3277.0,3902.0,3027.0,3312.0,3734.0,4065.0,4095.0,4095.0,-5.12,0.83,3.58,-0.97,-0.99,3.02,0.0,1010.0,4095.0,1002.0,3135.0,4095.0,4095.0,4095.0,4095.0,6.17,3.37,1.3,-0.57,1.1,-3.23,1.0,person
3255.0,3889.0,3037.0,3312.0,3730.0,4061.0,4095.0,4095.0,4.03,-7.43,3.07,-1.61,-2.77,5.2,0.0,1059.0,4095.0,1022.0,3155.0,4095.0,4095.0,4095.0,4095.0,-2.16,-9.06,-2.98,-1.24,2.52,-5.5,1.0,person
3238.0,3888.0,3037.0,3306.0,3713.0,4021.0,4095.0,4095.0,29.19,-10.57,1.61,-0.31,-2.24,3.62,0.0,1056.0,4095.0,1072.0,3164.0,4095.0,4095.0,4095.0,4095.0,-17.3,-18.61,-4.19,-0.74,1.09,-4.53,1.0,person
3232.0,3915.0,3037.0,3312.0,3727.0,4045.0,4095.0,4095.0,19.15,-3.06,5.31,0.22,-0.76,0.06,0.0,1054.0,4095.0,1056.0,3167.0,4095.0,4095.0,4095.0,4095.0,-14.87,-12.47,0.74,0.0,0.13,-1.08,1.0,person
3246.0,3910.0,3023.0,3310.0,3730.0,4065.0,4095.0,4095.0,8.38,-2.23,4.44,0.05,-0.15,-0.52,0.0,1072.0,4095.0,1064.0,3169.0,4095.0,4095.0,4095.0,4095.0,-7.7,-7.14,0.01,0.1,0.06,0.15,1.0,person
3248.0,3916.0,3034.0,3314.0,3742.0,4048.0,4095.0,4095.0,8.53,-3.83,3.68,-0.1,-0.17,-0.19,0.0,1067.0,4095.0,1057.0,3171.0,4095.0,4095.0,4095.0,4095.0,-5.83,-7.81,-1.04,0.01,-0.02,0.18,1.0,person
3237.0,3914.0,3034.0,3315.0,3747.0,4048.0,4095.0,4095.0,9.34,-3.79,3.92,-0.02,-0.12,-0.13,0.0,1070.0,4095.0,1057.0,3177.0,4095.0,4095.0,4095.0,4095.0,-5.34,-7.18,-0.85,-0.07,-0.04,0.1,1.0,person
3248.0,3908.0,3037.0,3317.0,3742.0,4047.0,4095.0,4095.0,9.39,-3.62,3.9,0.02,-0.07,-0.22,0.0,1071.0,4095.0,1059.0,3182.0,4095.0,4095.0,4095.0,4095.0,-5.59,-7.23,-0.67,-0.03,-0.02,0.0,1.0,person
3245.0,3904.0,3035.0,3317.0,3747.0,4048.0,4095.0,4095.0,9.12,-3.57,3.89,-0.03,0.02,-0.16,0.0,1070.0,4095.0,1054.0,3170.0,4095.0,4095.0,4095.0,4095.0,-5.7,-7.29,-0.57,-0.1,-0.01,-0.02,1.0,person
3253.0,3888.0,3031.0,3319.0,3743.0,4061.0,4095.0,4095.0,9.42,-3.65,3.82,0.03,-0.02,-0.14,0.0,1074.0,4095.0,1049.0,3179.0,4095.0,4095.0,4095.0,4095.0,-5.74,-7.38,-0.6,-0.11,-0.01,-0.01,1.0,person
3250.0,3899.0,3024.0,3316.0,3743.0,4045.0,4095.0,4095.0,9.34,-3.61,3.77,0.02,-0.02,-0.16,0.0,1072.0,4095.0,1054.0,3175.0,4095.0,4095.0,4095.0,4095.0,-6.05,-7.48,-0.57,-0.1,0.04,0.0,1.0,person
3241.0,3891.0,3035.0,3319.0,3747.0,4046.0,4095.0,4095.0,9.42,-3.61,3.73,0.04,0.0,-0.15,0.0,1054.0,4095.0,1058.0,3177.0,4095.0,4095.0,4095.0,4095.0,-6.0,-7.44,-0.61,-0.09,-0.04,-0.03,1.0,person
3246.0,3915.0,3031.0,3323.0,3751.0,4041.0,4095.0,4095.0,9.35,-3.59,3.78,0.03,0.02,-0.16,0.0,1055.0,4095.0,1051.0,3182.0,4095.0,4095.0,4095.0,4095.0,-5.99,-7.39,-0.59,-0.02,-0.02,-0.03,1.0,person
3248.0,3919.0,3026.0,3325.0,3758.0,4033.0,4095.0,4095.0,9.2,-3.51,3.71,0.05,-0.0,-0.13,0.0,1056.0,4095.0,1064.0,3180.0,4095.0,4095.0,4095.0,4095.0,-5.95,-7.23,-0.65,-0.03,-0.06,-0.03,1.0,person
3239.0,3904.0,3026.0,3323.0,3747.0,4039.0,4095.0,4095.0,9.36,-3.63,3.71,0.0,-0.02,-0.14,0.0,1069.0,4095.0,1047.0,3181.0,4095.0,4095.0,4095.0,4095.0,-5.93,-7.31,-0.64,-0.03,0.01,-0.03,1.0,person
3251.0,3900.0,3039.0,3330.0,3748.0,4043.0,4095.0,4095.0,9.3,-3.63,3.86,0.01,-0.01,-0.15,0.0,1066.0,4095.0,1046.0,3183.0,4095.0,4095.0,4095.0,4095.0,-6.0,-7.4,-0.68,-0.08,0.04,-0.04,1.0,person
3242.0,3909.0,3030.0,3329.0,3754.0,4045.0,4095.0,4095.0,9.26,-3.68,3.79,0.0,0.0,-0.15,0.0,1069.0,4095.0,1051.0,3187.0,4095.0,4095.0,4095.0,4095.0,-5.98,-7.25,-0.66,-0.08,0.0,-0.02,1.0,person
3248.0,3910.0,3034.0,3327.0,3759.0,4039.0,4095.0,4095.0,9.27,-3.66,3.8,-0.01,0.02,-0.15,0.0,1057.0,4095.0,1047.0,3186.0,4095.0,4095.0,4095.0,4095.0,-5.96,-7.24,-0.61,-0.11,0.01,-0.02,1.0,person
3273.0,3866.0,3025.0,3358.0,3734.0,4053.0,4095.0,4095.0,6.22,7.14,8.15,-0.0,-0.04,-0.12,0.0,996.0,4095.0,991.0,3173.0,4095.0,4095.0,4095.0,4095.0,-7.86,3.82,4.46,-0.12,0.02,-0.09,1.0,person
3269.0,3855.0,3043.0,3319.0,3728.0,4055.0,4095.0,4095.0,6.21,7.25,8.2,0.02,-0.03,-0.17,0.0,1009.0,4095.0,988.0,3126.0,4095.0,4095.0,4095.0,4095.0,-7.92,3.7,4.63,-0.06,0.03,-0.08,1.0,person
3277.0,3867.0,3035.0,3303.0,3730.0,4063.0,4095.0,4095.0,5.75,7.21,7.92,0.02,0.02,-0.32,0.0,1008.0,4095.0,1005.0,3109.0,4095.0,4095.0,4095.0,4095.0,-8.4,3.48,4.57,-0.13,0.1,0.18,1.0,person
3277.0,3861.0,3038.0,3302.0,3723.0,4059.0,4095.0,4095.0,-2.7,4.35,5.56,-0.33,-0.07,0.86,0.0,1010.0,4095.0,1014.0,3106.0,4095.0,4095.0,4095.0,4095.0,4.94,1.22,0.15,-1.26,1.61,-4.26,1.0,person
3238.0,3881.0,3034.0,3270.0,3731.0,4035.0,4095.0,4095.0,19.2,-5.47,3.95,-0.19,-0.05,4.47,0.0,1067.0,4095.0,1057.0,3143.0,4095.0,4095.0,4095.0,4095.0,-13.19,-16.8,-2.17,-0.62,0.79,-5.23,1.0,person
3236.0,3872.0,3021.0,3275.0,3727.0,4016.0,4095.0,4095.0,22.12,-0.91,4.43,0.19,0.13,1.03,0.0,1072.0,4095.0,1074.0,3171.0,4095.0,4095.0,4095.0,4095.0,-19.09,-12.66,0.71,-0.33,0.23,-0.78,1.0,person
3248.0,3905.0,3031.0,3283.0,3731.0,4032.0,4095.0,4095.0,9.84,-0.26,4.57,-0.1,0.22,-0.24,0.0,1061.0,4095.0,1046.0,3159.0,4095.0,4095.0,4095.0,4095.0,-7.62,-4.88,1.42,-0.05,-0.11,0.22,1.0,person
3242.0,3897.0,3018.0,3293.0,3727.0,4031.0,4095.0,4095.0,9.19,-2.06,4.42,0.0,0.17,-0.07,0.0,1067.0,4095.0,1055.0,3166.0,4095.0,4095.0,4095.0,4095.0,-6.79,-6.68,0.36,-0.01,-0.17,-0.07,1.0,person
3246.0,3909.0,3026.0,3294.0,3755.0,4032.0,4095.0,4095.0,10.03,-1.93,4.33,-0.0,0.1,-0.09,0.0,1052.0,4095.0,1073.0,3165.0,4095.0,4095.0,4095.0,4095.0,-7.15,-6.58,0.65,-0.11,-0.07,0.03,1.0,person
3241.0,3902.0,3029.0,3302.0,3744.0,4044.0,4095.0,4095.0,9.74,-1.77,4.61,0.02,0.13,-0.12,0.0,1054.0,4095.0,1039.0,3163.0,4095.0,4095.0,4095.0,4095.0,-6.7,-6.07,0.7,-0.05,-0.03,0.01,1.0,person
3243.0,3871.0,3023.0,3299.0,3735.0,4032.0,4095.0,4095.0,9.81,-1.97,4.45,0.04,0.01,-0.13,0.0,1053.0,4095.0,1047.0,3164.0,4095.0,4095.0,4095.0,4095.0,-6.85,-6.24,0.49,-0.1,-0.07,-0.08,1.0,person
3251.0,3898.0,3031.0,3309.0,3741.0,4035.0,4095.0,4095.0,9.97,-1.91,4.36,0.0,0.02,-0.12,0.0,1051.0,4095.0,1055.0,3180.0,4095.0,4095.0,4095.0,4095.0,-7.2,-6.42,0.74,-0.08,-0.01,-0.08,1.0,person
3253.0,3908.0,3022.0,3303.0,3727.0,4048.0,4095.0,4095.0,9.79,-1.88,4.56,-0.01,0.05,-0.11,0.0,1067.0,4095.0,1054.0,3181.0,4095.0,4095.0,4095.0,4095.0,-7.08,-6.23,0.67,-0.08,0.02,-0.02,1.0,person
3251.0,3894.0,3019.0,3313.0,3729.0,4028.0,4095.0,4095.0,9.97,-1.92,4.32,0.01,0.01,-0.16,0.0,1057.0,4095.0,1051.0,3175.0,4095.0,4095.0,4095.0,4095.0,-6.95,-6.3,0.59,-0.07,-0.02,-0.03,1.0,person
3248.0,3904.0,3024.0,3312.0,3728.0,4034.0,4095.0,4095.0,9.92,-2.03,4.48,0.03,-0.01,-0.17,0.0,1073.0,4095.0,1061.0,3173.0,4095.0,4095.0,4095.0,4095.0,-7.06,-6.39,0.5,-0.09,0.05,-0.02,1.0,person
3248.0,3898.0,3019.0,3316.0,3730.0,4033.0,4095.0,4095.0,9.73,-1.89,4.52,0.02,-0.01,-0.18,0.0,1077.0,4095.0,1057.0,3169.0,4095.0,4095.0,4095.0,4095.0,-6.95,-6.33,0.71,-0.07,0.0,-0.04,1.0,person
3252.0,3904.0,3024.0,3315.0,3731.0,4021.0,4095.0,4095.0,9.78,-1.87,4.4,0.02,0.02,-0.16,0.0,1059.0,4095.0,1048.0,3181.0,4095.0,4095.0,4095.0,4095.0,-6.99,-6.31,0.57,-0.07,0.06,-0.03,1.0,person
3248.0,3899.0,3031.0,3331.0,3736.0,4031.0,4095.0,4095.0,9.88,-1.87,4.49,0.0,0.05,-0.15,0.0,1072.0,4095.0,1043.0,3175.0,4095.0,4095.0,4095.0,4095.0,-7.05,-6.27,0.6,-0.1,0.05,-0.01,1.0,person
3254.0,3902.0,3019.0,3319.0,3731.0,4031.0,4095.0,4095.0,9.85,-1.88,4.48,0.02,-0.0,-0.16,0.0,1052.0,4095.0,1046.0,3180.0,4095.0,4095.0,4095.0,4095.0,-7.04,-6.3,0.54,-0.06,0.03,-0.01,1.0,person
3243.0,3901.0,3031.0,3317.0,3736.0,4020.0,4095.0,4095.0,9.67,-1.88,4.53,-0.02,0.04,-0.15,0.0,1062.0,4095.0,1057.0,3180.0,4095.0,4095.0,4095.0,4095.0,-7.03,-6.32,0.54,-0.08,0.04,-0.04,1.0,person
3250.0,3863.0,3024.0,3352.0,3709.0,4057.0,4095.0,4095.0,4.9,8.11,7.56,0.02,-0.05,-0.17,0.0,991.0,4095.0,1011.0,3152.0,4095.0,4095.0,4095.0,4095.0,-6.38,6.01,4.51,-0.04,0.02,-0.04,1.0,person
3263.0,3866.0,3041.0,3354.0,3707.0,4060.0,4095.0,4095.0,5.04,8.15,7.32,-0.05,-0.1,-0.15,0.0,987.0,4095.0,1023.0,3152.0,4095.0,4095.0,4095.0,4095.0,-6.61,5.61,4.71,-0.14,-0.03,-0.08,1.0,person
3258.0,3858.0,3023.0,3349.0,3710.0,4067.0,4095.0,4095.0,5.07,8.23,7.53,-0.05,-0.1,-0.14,0.0,996.0,4095.0,1019.0,3152.0,4095.0,4095.0,4095.0,4095.0,-6.42,5.86,4.56,-0.02,-0.01,-0.01,1.0,person
3255.0,3869.0,3023.0,3369.0,3711.0,4073.0,4095.0,4095.0,-1.69,6.13,5.95,-0.11,-0.26,0.34,0.0,997.0,4095.0,1017.0,3153.0,4095.0,4095.0,4095.0,4095.0,-1.33,6.88,3.62,-0.16,0.12,-0.57,1.0,person
3264.0,3878.0,3026.0,3280.0,3755.0,4095.0,4095.0,4095.0,-6.8,-0.67,4.36,-1.28,-1.21,4.26,0.0,1061.0,4095.0,1034.0,3138.0,4095.0,4095.0,4095.0,4095.0,7.71,1.93,0.29,-1.2,0.64,-4.77,1.0,person
3215.0,3863.0,3036.0,3313.0,3755.0,4095.0,4095.0,4095.0,17.2,-7.03,3.04,-0.55,-2.6,4.46,0.0,1044.0,4095.0,1056.0,3167.0,4095.0,4095.0,4095.0,4095.0,-8.89,-13.67,-0.32,-1.81,1.92,-5.41,1.0,person
3227.0,3776.0,3029.0,3349.0,3682.0,4083.0,4095.0,4095.0,23.53,-2.07,4.5,-0.09,-0.84,1.11,0.0,1062.0,4095.0,1069.0,3171.0,4095.0,4095.0,4095.0,4095.0,-22.06,-14.17,0.18,-1.21,1.25,-1.29,1.0,person
3233.0,3780.0,3034.0,3357.0,3760.0,4084.0,4095.0,4095.0,10.77,-0.04,4.91,-0.09,-0.14,-0.36,0.0,1535.0,4095.0,1008.0,3169.0,4095.0,4095.0,4095.0,4095.0,-8.33,-5.13,3.43,-0.51,0.28,0.13,1.0,person
3227.0,3785.0,3031.0,3363.0,3767.0,4095.0,4095.0,4095.0,8.65,-1.51,4.79,-0.15,-0.09,-0.22,0.0,1398.0,4095.0,1040.0,3169.0,4095.0,4095.0,4095.0,4095.0,-7.39,-6.4,1.01,-0.09,0.15,0.03,1.0,person
3219.0,3761.0,3028.0,3359.0,3762.0,4092.0,4095.0,4095.0,10.16,-1.74,4.57,-0.03,-0.06,-0.15,0.0,1147.0,4095.0,1040.0,3179.0,4095.0,4095.0,4095.0,4095.0,-7.2,-5.9,0.79,0.01,-0.04,-0.0,1.0,person
3243.0,3774.0,3034.0,3364.0,3769.0,4095.0,4095.0,4095.0,10.19,-1.51,4.72,-0.03,0.08,-0.17,0.0,1088.0,4095.0,1043.0,3177.0,4095.0,4095.0,4095.0,4095.0,-7.17,-6.11,0.99,-0.03,0.02,-0.07,1.0,person
3231.0,3763.0,3024.0,3359.0,3769.0,4094.0,4095.0,4095.0,9.85,-1.41,4.63,0.08,0.16,-0.17,0.0,1072.0,4095.0,1047.0,3179.0,4095.0,4095.0,4095.0,4095.0,-7.19,-5.88,0.77,-0.05,0.06,-0.02,1.0,person
3223.0,3774.0,3018.0,3358.0,3774.0,4095.0,4095.0,4095.0,9.89,-1.51,4.58,0.04,0.1,-0.15,0.0,1062.0,4095.0,1050.0,3183.0,4095.0,4095.0,4095.0,4095.0,-7.35,-6.04,0.79,-0.07,0.01,-0.05,1.0,person
3221.0,3780.0,3031.0,3371.0,3770.0,4093.0,4095.0,4095.0,9.68,-1.42,4.61,0.08,0.03,-0.17,0.0,1072.0,4095.0,1043.0,3168.0,4095.0,4095.0,4095.0,4095.0,-7.47,-6.03,0.74,-0.06,0.01,-0.02,1.0,person
3231.0,3792.0,3029.0,3363.0,3774.0,4095.0,4095.0,4095.0,9.78,-1.38,4.63,0.02,0.01,-0.14,0.0,1061.0,4095.0,1023.0,3185.0,4095.0,4095.0,4095.0,4095.0,-7.37,-5.84,0.61,-0.06,-0.08,-0.04,1.0,person
3229.0,3793.0,3024.0,3372.0,3761.0,4095.0,4095.0,4095.0,9.79,-1.41,4.6,0.03,0.01,-0.1,0.0,1067.0,4095.0,1050.0,3181.0,4095.0,4095.0,4095.0,4095.0,-7.36,-6.06,0.85,-0.06,-0.13,-0.09,1.0,person
3225.0,3777.0,3025.0,3385.0,3765.0,4095.0,4095.0,4095.0,9.83,-1.49,4.57,0.01,0.05,-0.14,0.0,1068.0,4095.0,1043.0,3178.0,4095.0,4095.0,4095.0,4095.0,-7.43,-5.97,1.02,-0.04,-0.14,-0.07,1.0,person
3235.0,3783.0,3029.0,3375.0,3760.0,4089.0,4095.0,4095.0,9.85,-1.53,4.85,-0.05,0.07,-0.08,0.0,1054.0,4095.0,1040.0,3189.0,4095.0,4095.0,4095.0,4095.0,-7.21,-5.87,1.13,0.02,-0.09,-0.06,1.0,person
3236.0,3772.0,3023.0,3374.0,3776.0,4080.0,4095.0,4095.0,10.12,-1.7,4.91,-0.01,0.03,-0.15,0.0,1058.0,4095.0,1043.0,3183.0,4095.0,4095.0,4095.0,4095.0,-7.32,-5.99,0.74,-0.01,0.0,-0.01,1.0,person
3232.0,3790.0,3026.0,3381.0,3775.0,4075.0,4095.0,4095.0,9.88,-1.72,4.98,0.01,0.09,-0.12,0.0,1047.0,4095.0,1044.0,3178.0,4095.0,4095.0,4095.0,4095.0,-7.15,-5.75,1.03,-0.03,-0.01,-0.04,1.0,person
3181.0,1083.0,3174.0,3248.0,3750.0,4095.0,4095.0,4095.0,5.03,7.95,8.15,0.01,-0.0,-0.21,0.0,998.0,4095.0,999.0,3115.0,4095.0,4095.0,4095.0,4095.0,-6.49,5.15,5.16,-0.06,-0.03,-0.0,1.0,person
3190.0,1104.0,3166.0,3247.0,3744.0,4095.0,4095.0,4095.0,4.58,7.77,8.09,-0.01,0.04,-0.17,0.0,1013.0,4095.0,1002.0,3114.0,4095.0,4095.0,4095.0,4095.0,-6.34,5.03,5.3,-0.01,-0.04,-0.07,1.0,person
3179.0,1201.0,3168.0,3243.0,3752.0,4095.0,4095.0,4095.0,2.31,7.16,6.88,-0.03,-0.04,0.23,0.0,1005.0,4095.0,1008.0,3111.0,4095.0,4095.0,4095.0,4095.0,-4.35,5.28,5.01,-0.06,0.06,-0.35,1.0,person
3189.0,1299.0,3163.0,3233.0,3753.0,4095.0,4095.0,4095.0,-3.05,4.1,4.77,-0.69,-0.24,1.84,0.0,1005.0,4095.0,989.0,3093.0,4095.0,4095.0,4095.0,4095.0,2.93,4.99,2.61,-0.34,0.11,-2.2,1.0,person
3190.0,1573.0,3127.0,3184.0,3754.0,4083.0,4095.0,4095.0,2.58,-9.27,3.74,-2.29,-1.65,4.88,0.0,995.0,4095.0,1014.0,3088.0,4095.0,4095.0,4095.0,4095.0,3.8,-6.15,-4.45,-2.2,1.77,-5.12,1.0,person
3153.0,1266.0,3122.0,3225.0,3687.0,4057.0,4095.0,4095.0,34.04,-3.26,6.93,-0.4,-1.05,2.84,0.0,1023.0,4095.0,1063.0,3122.0,4095.0,4095.0,4095.0,4095.0,-30.32,-18.58,-0.67,-1.31,2.65,-1.9,1.0,person
3184.0,1255.0,3123.0,3248.0,3739.0,4095.0,4095.0,4095.0,14.58,2.55,8.28,0.47,-0.01,-0.31,0.0,974.0,4095.0,1019.0,3155.0,4095.0,4095.0,4095.0,4095.0,-11.08,-4.31,4.83,-0.17,0.1,0.05,1.0,person
3185.0,1381.0,3111.0,3273.0,3745.0,4095.0,4095.0,4095.0,9.42,-0.19,4.99,0.32,0.47,-0.54,0.0,965.0,4095.0,1022.0,3141.0,4095.0,4095.0,4095.0,4095.0,-6.65,-4.13,0.48,-0.2,0.17,-0.01,1.0,person
3181.0,1430.0,3121.0,3310.0,3743.0,4090.0,4095.0,4095.0,9.4,-1.58,4.76,-0.02,0.42,-0.01,0.0,962.0,4095.0,1023.0,3183.0,4095.0,4095.0,4095.0,4095.0,-8.21,-6.27,0.58,-0.16,0.14,-0.0,1.0,person
3187.0,1478.0,3118.0,3321.0,3734.0,4083.0,4095.0,4095.0,10.08,-0.93,5.86,-0.03,0.06,-0.04,0.0,959.0,4095.0,1013.0,3183.0,4095.0,4095.0,4095.0,4095.0,-7.79,-5.43,1.24,-0.08,0.05,0.04,1.0,person
3167.0,1489.0,3114.0,3333.0,3747.0,4091.0,4095.0,4095.0,10.11,-0.96,5.62,-0.0,0.07,-0.14,0.0,973.0,4095.0,1010.0,3179.0,4095.0,4095.0,4095.0,4095.0,-8.01,-5.56,0.9,-0.03,-0.07,-0.06,1.0,person
3170.0,1492.0,3114.0,3337.0,3741.0,4075.0,4095.0,4095.0,9.9,-0.84,5.83,-0.05,-0.01,-0.14,0.0,962.0,4095.0,1011.0,3173.0,4095.0,4095.0,4095.0,4095.0,-7.77,-5.35,1.12,-0.06,0.0,0.01,1.0,person
3170.0,1494.0,3120.0,3333.0,3744.0,4082.0,4095.0,4095.0,9.79,-1.02,5.95,-0.0,-0.05,-0.12,0.0,947.0,4095.0,997.0,3167.0,4095.0,4095.0,4095.0,4095.0,-7.68,-5.2,0.92,-0.03,0.08,-0.03,1.0,person
3167.0,1517.0,3122.0,3338.0,3743.0,4095.0,4095.0,4095.0,9.73,-0.93,5.9,-0.01,-0.04,-0.14,0.0,966.0,4095.0,997.0,3157.0,4095.0,4095.0,4095.0,4095.0,-7.94,-5.4,0.96,-0.09,0.1,-0.01,1.0,person
3184.0,1505.0,3115.0,3337.0,3734.0,4077.0,4095.0,4095.0,10.02,-1.11,5.74,0.02,-0.0,-0.1,0.0,963.0,4095.0,989.0,3156.0,4095.0,4095.0,4095.0,4095.0,-7.87,-5.26,0.91,-0.04,0.04,-0.01,1.0,person
3179.0,1526.0,3108.0,3338.0,3729.0,4068.0,4095.0,4095.0,10.17,-1.12,5.97,-0.02,0.02,-0.13,0.0,957.0,4095.0,1008.0,3158.0,4095.0,4095.0,4095.0,4095.0,-7.89,-5.16,0.88,-0.07,0.02,0.01,1.0,person
3180.0,1535.0,3119.0,3342.0,3735.0,4085.0,4095.0,4095.0,9.92,-1.13,5.92,0.02,-0.01,-0.18,0.0,951.0,4095.0,1015.0,3152.0,4095.0,4095.0,4095.0,4095.0,-7.79,-5.15,1.09,-0.09,0.02,-0.01,1.0,person
3189.0,1535.0,3099.0,3351.0,3745.0,4082.0,4095.0,4095.0,9.8,-1.09,5.81,-0.01,-0.03,-0.16,0.0,944.0,4095.0,1001.0,3158.0,4095.0,4095.0,4095.0,4095.0,-7.94,-5.26,0.91,-0.08,0.04,-0.03,1.0,person
3175.0,1535.0,3105.0,3344.0,3739.0,4082.0,4095.0,4095.0,9.84,-1.09,5.94,-0.0,-0.09,-0.15,0.0,953.0,4095.0,1007.0,3159.0,4095.0,4095.0,4095.0,4095.0,-7.96,-5.24,1.02,-0.13,0.01,-0.11,1.0,person
3178.0,1535.0,3107.0,3349.0,3749.0,4075.0,4095.0,4095.0,10.03,-1.11,5.88,0.0,-0.09,-0.18,0.0,960.0,4095.0,1008.0,3159.0,4095.0,4095.0,4095.0,4095.0,-7.8,-5.37,1.18,-0.12,0.03,-0.03,1.0,person
3138.0,976.0,3248.0,3423.0,3778.0,4095.0,4095.0,4095.0,4.41,8.1,7.98,0.04,0.01,-0.15,0.0,912.0,4095.0,970.0,3181.0,4095.0,4095.0,4095.0,4095.0,-6.3,5.62,5.04,-0.13,0.04,0.03,1.0,person
3139.0,969.0,3232.0,3407.0,3789.0,4095.0,4095.0,4095.0,4.56,8.23,7.84,0.01,0.03,-0.14,0.0,926.0,4095.0,967.0,3173.0,4095.0,4095.0,4095.0,4095.0,-6.23,5.54,5.16,-0.08,-0.0,0.01,1.0,person
3136.0,974.0,3216.0,3376.0,3765.0,4095.0,4095.0,4095.0,4.02,8.28,7.79,0.01,0.03,-0.16,0.0,930.0,4095.0,976.0,3183.0,4095.0,4095.0,4095.0,4095.0,-5.46,5.72,4.95,-0.04,0.02,-0.02,1.0,person
3149.0,970.0,3189.0,3366.0,3786.0,4091.0,4095.0,4095.0,-4.28,3.36,5.57,-0.72,-0.28,1.06,0.0,939.0,4095.0,973.0,3167.0,4095.0,4095.0,4095.0,4095.0,3.08,5.13,2.83,-0.42,0.34,-1.5,1.0,person
3152.0,981.0,3172.0,3376.0,3827.0,4095.0,4095.0,4095.0,0.99,-2.14,4.65,-0.89,-1.54,4.27,0.0,934.0,4095.0,981.0,3170.0,4095.0,4095.0,4095.0,4095.0,3.53,-1.22,-1.4,-1.36,1.87,-4.39,1.0,person
3129.0,977.0,3132.0,3395.0,3773.0,4080.0,4095.0,4095.0,14.82,-5.09,4.8,-0.86,-2.69,4.29,0.0,953.0,4095.0,995.0,3205.0,4095.0,4095.0,4095.0,4095.0,-11.44,-14.96,1.26,-0.67,0.42,-6.4,1.0,person
3123.0,993.0,3149.0,3395.0,3809.0,4095.0,4095.0,4095.0,22.98,-1.22,5.03,0.15,0.33,0.96,0.0,949.0,4095.0,1007.0,3239.0,4095.0,4095.0,4095.0,4095.0,-19.32,-12.04,3.47,-0.74,0.73,-0.71,1.0,person
3127.0,990.0,3131.0,3395.0,3798.0,4095.0,4095.0,4095.0,11.17,-0.62,5.97,-0.16,0.3,-0.1,0.0,950.0,4095.0,985.0,3223.0,4095.0,4095.0,4095.0,4095.0,-6.45,-6.3,0.63,0.03,-0.02,-0.09,1.0,person
3137.0,1008.0,3138.0,3399.0,3806.0,4094.0,4095.0,4095.0,9.93,-1.53,4.99,0.07,0.31,-0.21,0.0,953.0,4095.0,990.0,3235.0,4095.0,4095.0,4095.0,4095.0,-6.86,-6.32,0.77,-0.07,-0.06,-0.05,1.0,person
3139.0,1015.0,3149.0,3412.0,3818.0,4095.0,4095.0,4095.0,9.59,-1.57,4.83,-0.01,0.12,-0.11,0.0,955.0,4095.0,1010.0,3229.0,4095.0,4095.0,4095.0,4095.0,-7.31,-6.47,0.84,-0.05,-0.02,-0.05,1.0,person
3132.0,1056.0,3136.0,3407.0,3834.0,4095.0,4095.0,4095.0,9.87,-1.82,4.93,-0.07,0.08,-0.09,0.0,949.0,4095.0,995.0,3248.0,4095.0,4095.0,4095.0,4095.0,-7.18,-6.17,0.92,0.06,-0.0,-0.04,1.0,person
3131.0,1061.0,3129.0,3414.0,3829.0,4095.0,4095.0,4095.0,9.79,-1.87,4.79,-0.07,0.02,-0.13,0.0,954.0,4095.0,993.0,3237.0,4095.0,4095.0,4095.0,4095.0,-7.14,-6.12,0.85,-0.04,-0.02,0.01,1.0,person
3134.0,1125.0,3138.0,3418.0,3829.0,4095.0,4095.0,4095.0,9.73,-1.85,4.95,-0.02,-0.02,-0.12,0.0,951.0,4095.0,994.0,3243.0,4095.0,4095.0,4095.0,4095.0,-7.08,-6.03,0.82,-0.08,-0.06,0.03,1.0,person
3141.0,1136.0,3133.0,3412.0,3834.0,4095.0,4095.0,4095.0,9.68,-1.8,4.99,-0.01,-0.01,-0.12,0.0,963.0,4095.0,990.0,3241.0,4095.0,4095.0,4095.0,4095.0,-7.05,-6.06,0.99,-0.05,-0.05,-0.01,1.0,person
3136.0,1162.0,3129.0,3422.0,3827.0,4095.0,4095.0,4095.0,9.9,-1.79,4.79,-0.07,0.06,-0.1,0.0,954.0,4095.0,993.0,3246.0,4095.0,4095.0,4095.0,4095.0,-6.94,-6.02,1.03,-0.1,0.0,-0.02,1.0,person
3137.0,1238.0,3144.0,3434.0,3822.0,4090.0,4095.0,4095.0,9.87,-1.95,5.01,-0.0,0.05,-0.1,0.0,959.0,4095.0,1007.0,3232.0,4095.0,4095.0,4095.0,4095.0,-7.05,-6.14,1.08,-0.07,-0.01,-0.06,1.0,person
3127.0,1254.0,3128.0,3434.0,3824.0,4095.0,4095.0,4095.0,9.78,-1.87,5.06,-0.0,-0.01,-0.16,0.0,958.0,4095.0,976.0,3247.0,4095.0,4095.0,4095.0,4095.0,-7.2,-6.15,1.08,-0.03,0.02,-0.04,1.0,person
3136.0,1246.0,3131.0,3441.0,3823.0,4095.0,4095.0,4095.0,9.71,-1.91,4.92,-0.01,-0.06,-0.16,0.0,955.0,4095.0,998.0,3243.0,4095.0,4095.0,4095.0,4095.0,-7.18,-6.12,1.05,-0.08,-0.03,-0.04,1.0,person
3131.0,1250.0,3130.0,3439.0,3814.0,4095.0,4095.0,4095.0,9.75,-1.87,4.87,0.02,-0.08,-0.19,0.0,947.0,4095.0,990.0,3250.0,4095.0,4095.0,4095.0,4095.0,-6.97,-6.18,1.08,-0.05,-0.02,-0.02,1.0,person
3123.0,1267.0,3139.0,3435.0,3811.0,4095.0,4095.0,4095.0,9.83,-1.88,4.81,0.01,-0.08,-0.15,0.0,971.0,4095.0,989.0,3265.0,4095.0,4095.0,4095.0,4095.0,-7.06,-6.07,0.95,-0.09,0.06,-0.01,1.0,person
3179.0,973.0,4095.0,3266.0,3670.0,3961.0,4095.0,4095.0,6.11,6.79,8.11,0.04,0.02,-0.14,0.0,907.0,4095.0,907.0,3211.0,4095.0,4095.0,4095.0,4095.0,-7.88,3.52,4.67,-0.09,-0.01,0.03,1.0,person
3182.0,976.0,4095.0,3251.0,3673.0,3958.0,4095.0,4095.0,6.16,6.71,8.11,-0.01,-0.02,-0.16,0.0,896.0,4095.0,910.0,3221.0,4095.0,4095.0,4095.0,4095.0,-7.18,4.17,4.5,-0.08,0.1,-0.0,1.0,person
3189.0,982.0,4095.0,3218.0,3685.0,3931.0,4095.0,4095.0,-0.76,3.95,6.24,-0.36,-0.15,0.33,0.0,882.0,4095.0,909.0,3221.0,4095.0,4095.0,4095.0,4095.0,0.1,4.0,3.96,-0.3,0.21,-0.9,1.0,person
3181.0,983.0,4095.0,3258.0,3664.0,3915.0,4095.0,4095.0,-2.35,-2.65,3.55,-1.17,-2.01,4.16,0.0,898.0,4095.0,906.0,3215.0,4095.0,4095.0,4095.0,4095.0,5.98,-0.76,-2.48,-0.48,1.7,-4.11,1.0,person
3139.0,1503.0,3714.0,3316.0,3623.0,3903.0,4095.0,4095.0,27.99,-6.08,1.0,-0.57,-3.65,3.21,0.0,909.0,4095.0,918.0,3291.0,4095.0,4095.0,4095.0,4095.0,-14.65,-6.12,2.5,-0.56,0.3,-0.66,1.0,person
3152.0,1634.0,3497.0,3369.0,3675.0,3903.0,4095.0,4095.0,19.51,-0.59,6.12,0.06,-1.56,0.39,0.0,895.0,4095.0,928.0,3297.0,4095.0,4095.0,4095.0,4095.0,-8.26,-4.8,0.83,-0.19,-0.55,-0.4,1.0,person
3162.0,1021.0,3463.0,3369.0,3726.0,3922.0,4095.0,4095.0,8.87,-1.4,4.66,-0.17,0.19,-0.32,0.0,902.0,4095.0,922.0,3311.0,4095.0,4095.0,4095.0,4095.0,-7.74,-5.65,0.63,0.02,-0.18,-0.1,1.0,person
3167.0,984.0,3447.0,3353.0,3717.0,3929.0,4095.0,4095.0,9.84,-1.43,4.91,0.01,0.03,-0.17,0.0,895.0,4095.0,914.0,3312.0,4095.0,4095.0,4095.0,4095.0,-7.62,-5.39,0.31,-0.03,-0.1,0.03,1.0,person
3159.0,993.0,3453.0,3350.0,3718.0,3932.0,4095.0,4095.0,9.73,-1.51,4.92,0.01,0.03,-0.17,0.0,896.0,4095.0,928.0,3318.0,4095.0,4095.0,4095.0,4095.0,-7.47,-5.45,0.6,-0.04,-0.12,-0.06,1.0,person
3165.0,992.0,3445.0,3362.0,3715.0,3937.0,4095.0,4095.0,9.75,-1.41,5.26,0.03,0.06,-0.13,0.0,889.0,4095.0,926.0,3320.0,4095.0,4095.0,4095.0,4095.0,-7.87,-5.59,0.6,-0.04,0.1,0.02,1.0,person
3180.0,978.0,3393.0,3359.0,3712.0,3928.0,4095.0,4095.0,9.72,-1.45,5.24,-0.01,0.03,-0.1,0.0,886.0,4095.0,933.0,3317.0,4095.0,4095.0,4095.0,4095.0,-7.78,-5.37,0.45,-0.02,0.05,0.05,1.0,person
3170.0,986.0,3359.0,3361.0,3718.0,3936.0,4095.0,4095.0,9.99,-1.53,5.28,-0.01,-0.01,-0.11,0.0,885.0,4095.0,932.0,3311.0,4095.0,4095.0,4095.0,4095.0,-7.75,-5.43,0.6,-0.1,-0.02,0.0,1.0,person
3167.0,989.0,3334.0,3370.0,3717.0,3924.0,4095.0,4095.0,9.76,-1.57,5.43,0.01,-0.03,-0.12,0.0,891.0,4095.0,931.0,3325.0,4095.0,4095.0,4095.0,4095.0,-7.69,-5.22,0.57,-0.06,0.06,-0.02,1.0,person
3171.0,983.0,3341.0,3368.0,3713.0,3927.0,4095.0,4095.0,9.96,-1.62,5.39,-0.04,-0.03,-0.14,0.0,885.0,4095.0,937.0,3314.0,4095.0,4095.0,4095.0,4095.0,-7.76,-5.19,0.62,-0.13,0.05,-0.01,1.0,person
3177.0,987.0,3325.0,3373.0,3714.0,3920.0,4095.0,4095.0,10.02,-1.63,5.51,0.01,-0.06,-0.16,0.0,902.0,4095.0,938.0,3327.0,4095.0,4095.0,4095.0,4095.0,-7.57,-5.14,0.6,-0.09,0.09,0.02,1.0,person
3169.0,981.0,3335.0,3371.0,3718.0,3917.0,4095.0,4095.0,9.92,-1.53,5.31,0.02,-0.02,-0.14,0.0,892.0,4095.0,928.0,3333.0,4095.0,4095.0,4095.0,4095.0,-7.68,-5.21,0.68,-0.12,0.06,-0.06,1.0,person
3162.0,985.0,3327.0,3376.0,3717.0,3909.0,4095.0,4095.0,9.77,-1.57,5.56,0.04,-0.05,-0.16,0.0,887.0,4095.0,935.0,3328.0,4095.0,4095.0,4095.0,4095.0,-7.66,-5.33,0.78,-0.07,0.04,-0.01,1.0,person
3164.0,981.0,3316.0,3376.0,3707.0,3833.0,4095.0,4095.0,9.71,-1.49,5.53,-0.01,-0.0,-0.19,0.0,898.0,4095.0,928.0,3329.0,4095.0,4095.0,4095.0,4095.0,-7.73,-5.32,0.66,-0.07,0.05,-0.06,1.0,person
3167.0,985.0,3319.0,3379.0,3670.0,3837.0,4095.0,4095.0,9.83,-1.69,5.33,-0.04,0.08,-0.12,0.0,890.0,4095.0,930.0,3323.0,4095.0,4095.0,4095.0,4095.0,-7.59,-5.25,0.68,-0.09,-0.01,-0.07,1.0,person
3158.0,985.0,3318.0,3378.0,3677.0,3845.0,4095.0,4095.0,9.87,-1.64,5.34,-0.03,0.0,-0.14,0.0,891.0,4095.0,930.0,3334.0,4095.0,4095.0,4095.0,4095.0,-7.88,-5.37,0.44,-0.04,0.01,-0.07,1.0,person
3206.0,989.0,3486.0,3273.0,3578.0,3873.0,4095.0,4095.0,5.27,7.6,8.24,-0.01,0.01,-0.18,0.0,1293.0,4095.0,976.0,3108.0,4095.0,4095.0,4095.0,4095.0,-7.24,4.82,4.85,-0.03,0.02,0.04,1.0,person
3214.0,994.0,3468.0,3280.0,3582.0,3884.0,4095.0,4095.0,5.4,7.54,8.06,0.03,-0.0,-0.18,0.0,1303.0,4095.0,979.0,3120.0,4095.0,4095.0,4095.0,4095.0,-7.13,4.58,4.94,-0.15,0.06,0.06,1.0,person
3215.0,997.0,3482.0,3283.0,3579.0,3875.0,4095.0,4095.0,2.39,6.57,7.21,0.03,-0.01,-0.03,0.0,1301.0,4095.0,976.0,3133.0,4095.0,4095.0,4095.0,4095.0,-4.3,5.26,4.22,-0.07,0.12,-0.06,1.0,person
3207.0,991.0,3383.0,3255.0,3602.0,3869.0,4095.0,4095.0,-3.55,1.18,4.93,-0.71,-0.91,2.54,0.0,1374.0,4095.0,967.0,3114.0,4095.0,4095.0,4095.0,4095.0,5.35,3.37,1.73,-0.64,0.75,-2.63,1.0,person
3213.0,993.0,3344.0,3257.0,3605.0,3856.0,4095.0,4095.0,7.24,-3.66,5.41,-0.96,-1.56,4.19,0.0,1417.0,4095.0,987.0,3132.0,4095.0,4095.0,4095.0,4095.0,-1.73,-5.36,-1.27,-1.7,2.3,-4.64,1.0,person
3195.0,977.0,3303.0,3254.0,3583.0,3845.0,4095.0,4095.0,21.11,-0.76,6.22,-0.33,-0.79,2.48,0.0,1292.0,4095.0,1009.0,3181.0,4095.0,4095.0,4095.0,4095.0,-23.62,-14.56,-1.41,0.66,-0.07,-4.01,1.0,person
3205.0,974.0,3290.0,3279.0,3599.0,3860.0,4095.0,4095.0,14.58,0.07,6.91,-0.07,0.12,0.16,0.0,1072.0,4095.0,987.0,3184.0,4095.0,4095.0,4095.0,4095.0,-12.52,-6.12,2.4,0.12,-0.23,-0.18,1.0,person
3215.0,976.0,3280.0,3296.0,3616.0,3857.0,4095.0,4095.0,9.31,-0.96,4.92,0.02,-0.0,-0.11,0.0,989.0,4095.0,1003.0,3170.0,4095.0,4095.0,4095.0,4095.0,-8.16,-6.08,0.63,-0.09,0.04,-0.02,1.0,person
3216.0,977.0,3266.0,3307.0,3617.0,3862.0,4095.0,4095.0,10.21,-1.19,5.23,-0.02,0.0,-0.08,0.0,986.0,4095.0,1002.0,3195.0,4095.0,4095.0,4095.0,4095.0,-7.86,-5.51,0.97,-0.09,-0.08,0.06,1.0,person
3219.0,976.0,3277.0,3313.0,3616.0,3857.0,4095.0,4095.0,9.9,-1.18,5.12,0.0,0.0,-0.14,0.0,982.0,4095.0,993.0,3175.0,4095.0,4095.0,4095.0,4095.0,-7.59,-5.26,0.68,-0.04,-0.16,0.0,1.0,person
3213.0,976.0,3273.0,3312.0,3610.0,3862.0,4095.0,4095.0,9.81,-1.18,5.29,0.05,0.06,-0.16,0.0,991.0,4095.0,978.0,3191.0,4095.0,4095.0,4095.0,4095.0,-7.67,-5.4,0.84,-0.11,-0.09,-0.03,1.0,person
3213.0,980.0,3276.0,3313.0,3618.0,3865.0,4095.0,4095.0,9.96,-1.16,5.0,0.07,0.01,-0.14,0.0,973.0,4095.0,991.0,3200.0,4095.0,4095.0,4095.0,4095.0,-7.77,-5.42,0.85,-0.06,-0.06,-0.03,1.0,person
3226.0,976.0,3280.0,3319.0,3630.0,3868.0,4095.0,4095.0,9.92,-1.1,4.97,0.01,-0.01,-0.14,0.0,1001.0,4095.0,1005.0,3199.0,4095.0,4095.0,4095.0,4095.0,-7.76,-5.39,0.82,-0.09,0.0,-0.04,1.0,person
3233.0,978.0,3265.0,3336.0,3619.0,3879.0,4095.0,4095.0,9.98,-1.1,5.07,0.01,-0.0,-0.13,0.0,965.0,4095.0,1002.0,3199.0,4095.0,4095.0,4095.0,4095.0,-7.84,-5.4,0.74,-0.07,0.03,-0.04,1.0,person
3205.0,976.0,3277.0,3332.0,3609.0,3867.0,4095.0,4095.0,10.04,-1.25,5.02,-0.01,0.0,-0.16,0.0,971.0,4095.0,977.0,3199.0,4095.0,4095.0,4095.0,4095.0,-7.84,-5.37,0.8,-0.07,0.01,-0.04,1.0,person
3221.0,976.0,3279.0,3327.0,3621.0,3872.0,4095.0,4095.0,9.83,-1.16,5.09,-0.0,0.01,-0.1,0.0,976.0,4095.0,1010.0,3196.0,4095.0,4095.0,4095.0,4095.0,-7.82,-5.32,0.81,-0.03,-0.02,-0.02,1.0,person
3204.0,970.0,3268.0,3333.0,3618.0,3879.0,4095.0,4095.0,10.0,-1.18,4.87,-0.0,0.06,-0.14,0.0,963.0,4095.0,1007.0,3210.0,4095.0,4095.0,4095.0,4095.0,-7.65,-5.46,0.82,-0.07,-0.02,-0.04,1.0,person
3216.0,971.0,3267.0,3344.0,3622.0,3871.0,4095.0,4095.0,9.88,-1.19,5.1,0.01,0.03,-0.12,0.0,962.0,4095.0,976.0,3222.0,4095.0,4095.0,4095.0,4095.0,-7.81,-5.44,0.82,-0.06,-0.0,-0.05,1.0,person
3205.0,987.0,3261.0,3350.0,3614.0,3872.0,4095.0,4095.0,9.85,-1.18,4.98,-0.01,-0.01,-0.15,0.0,949.0,4095.0,991.0,3214.0,4095.0,4095.0,4095.0,4095.0,-7.75,-5.4,0.84,-0.06,-0.04,-0.06,1.0,person
3215.0,979.0,3260.0,3343.0,3623.0,3867.0,4095.0,4095.0,9.85,-1.25,4.95,0.0,-0.01,-0.13,0.0,960.0,4095.0,997.0,3216.0,4095.0,4095.0,4095.0,4095.0,-7.73,-5.44,0.81,-0.04,-0.05,-0.05,1.0,person
3345.0,998.0,3204.0,3319.0,3659.0,3958.0,4095.0,4095.0,5.14,7.92,7.83,0.0,-0.02,-0.14,0.0,912.0,4095.0,935.0,3152.0,4095.0,4095.0,4095.0,4095.0,-6.93,5.04,4.8,-0.11,0.07,-0.03,1.0,person
3339.0,993.0,3209.0,3318.0,3657.0,3952.0,4095.0,4095.0,5.04,7.85,7.95,0.01,0.03,-0.11,0.0,911.0,4095.0,934.0,3168.0,4095.0,4095.0,4095.0,4095.0,-7.02,4.77,4.91,-0.09,0.02,0.0,1.0,person
3358.0,993.0,3206.0,3313.0,3664.0,3953.0,4095.0,4095.0,-0.85,5.71,6.65,-0.1,-0.74,0.05,0.0,911.0,4095.0,944.0,3171.0,4095.0,4095.0,4095.0,4095.0,-1.87,6.34,3.78,-0.07,0.14,-0.23,1.0,person
3376.0,986.0,3185.0,3266.0,3667.0,3937.0,4095.0,4095.0,-4.58,-0.22,4.69,-0.58,-0.47,3.15,0.0,943.0,4095.0,940.0,3147.0,4095.0,4095.0,4095.0,4095.0,5.06,2.01,0.39,-0.29,0.59,-3.03,1.0,person
3363.0,996.0,3171.0,3264.0,3682.0,3920.0,4095.0,4095.0,11.13,-9.45,3.81,-0.79,-1.78,4.07,0.0,1328.0,4095.0,960.0,3152.0,4095.0,4095.0,4095.0,4095.0,-3.58,-12.79,-3.69,-1.27,1.04,-5.49,1.0,person
3327.0,983.0,3179.0,3312.0,3639.0,3943.0,4095.0,4095.0,26.0,-0.8,6.27,0.05,-1.05,2.32,0.0,1418.0,4095.0,999.0,3212.0,4095.0,4095.0,4095.0,4095.0,-23.05,-14.45,1.79,-0.89,1.04,-2.51,1.0,person
3345.0,983.0,3159.0,3313.0,3635.0,3950.0,4095.0,4095.0,14.42,0.85,6.06,-0.35,-0.04,0.03,0.0,1226.0,4095.0,962.0,3221.0,4095.0,4095.0,4095.0,4095.0,-12.85,-6.21,4.25,-0.04,0.32,-0.09,1.0,person
3372.0,977.0,3174.0,3321.0,3653.0,3950.0,4095.0,4095.0,8.98,-1.7,5.3,-0.07,0.07,-0.25,0.0,1047.0,4095.0,959.0,3203.0,4095.0,4095.0,4095.0,4095.0,-7.37,-6.31,0.59,0.11,-0.07,0.02,1.0,person
3375.0,976.0,3174.0,3322.0,3662.0,3943.0,4095.0,4095.0,9.58,-1.88,5.07,-0.01,-0.11,-0.31,0.0,1023.0,4095.0,976.0,3211.0,4095.0,4095.0,4095.0,4095.0,-7.09,-5.96,0.85,-0.02,-0.08,0.04,1.0,person
3362.0,981.0,3165.0,3323.0,3647.0,3938.0,4095.0,4095.0,9.51,-1.65,5.11,0.0,0.04,-0.13,0.0,1006.0,4095.0,974.0,3216.0,4095.0,4095.0,4095.0,4095.0,-7.34,-6.13,0.65,-0.03,0.15,0.04,1.0,person
3347.0,969.0,3168.0,3325.0,3651.0,3931.0,4095.0,4095.0,9.85,-1.69,4.97,0.01,0.03,-0.09,0.0,1002.0,4095.0,955.0,3230.0,4095.0,4095.0,4095.0,4095.0,-7.39,-6.05,0.91,-0.14,0.02,0.04,1.0,person
3362.0,983.0,3171.0,3327.0,3655.0,3937.0,4095.0,4095.0,9.76,-1.71,5.21,0.01,0.03,-0.14,0.0,977.0,4095.0,959.0,3226.0,4095.0,4095.0,4095.0,4095.0,-7.3,-6.01,1.0,-0.1,-0.04,0.05,1.0,person
3360.0,976.0,3158.0,3330.0,3661.0,3947.0,4095.0,4095.0,10.13,-1.75,4.84,0.06,0.06,-0.14,0.0,954.0,4095.0,946.0,3229.0,4095.0,4095.0,4095.0,4095.0,-7.24,-6.01,0.88,-0.05,-0.0,0.0,1.0,person
3349.0,971.0,3171.0,3333.0,3661.0,3945.0,4095.0,4095.0,10.1,-1.73,4.94,0.02,0.1,-0.18,0.0,929.0,4095.0,944.0,3236.0,4095.0,4095.0,4095.0,4095.0,-7.31,-5.81,0.64,-0.04,0.02,0.03,1.0,person
3365.0,975.0,3162.0,3341.0,3662.0,3943.0,4095.0,4095.0,9.85,-1.63,5.05,0.02,0.09,-0.16,0.0,915.0,4095.0,958.0,3238.0,4095.0,4095.0,4095.0,4095.0,-7.32,-5.83,0.81,-0.06,0.0,-0.01,1.0,person
3371.0,976.0,3170.0,3343.0,3664.0,3943.0,4095.0,4095.0,9.87,-1.73,5.04,0.02,0.11,-0.16,0.0,916.0,4095.0,960.0,3235.0,4095.0,4095.0,4095.0,4095.0,-7.28,-5.84,0.95,-0.08,0.05,0.0,1.0,person
3359.0,966.0,3167.0,3344.0,3664.0,3946.0,4095.0,4095.0,9.68,-1.71,5.07,0.02,0.05,-0.16,0.0,923.0,4095.0,957.0,3239.0,4095.0,4095.0,4095.0,4095.0,-7.35,-5.75,0.73,-0.12,0.04,-0.02,1.0,person
3373.0,970.0,3170.0,3355.0,3664.0,3929.0,4095.0,4095.0,9.79,-1.69,5.13,-0.01,0.02,-0.17,0.0,913.0,4095.0,951.0,3245.0,4095.0,4095.0,4095.0,4095.0,-7.38,-5.79,0.86,-0.11,0.03,-0.03,1.0,person
3362.0,969.0,3159.0,3351.0,3664.0,3925.0,4095.0,4095.0,9.9,-1.67,4.99,-0.01,-0.06,-0.17,0.0,915.0,4095.0,930.0,3245.0,4095.0,4095.0,4095.0,4095.0,-7.4,-5.82,0.8,-0.1,0.08,-0.0,1.0,person
3374.0,962.0,3168.0,3346.0,3663.0,3915.0,4095.0,4095.0,9.73,-1.59,5.15,-0.02,-0.02,-0.15,0.0,916.0,4095.0,956.0,3239.0,4095.0,4095.0,4095.0,4095.0,-7.38,-5.8,0.91,-0.1,0.1,0.01,1.0,person
3138.0,978.0,4095.0,3286.0,3649.0,4055.0,4095.0,4095.0,4.99,7.68,7.77,0.04,0.12,-0.1,0.0,3821.0,4095.0,4095.0,3221.0,4095.0,4095.0,4095.0,4095.0,-6.82,4.83,5.08,-0.11,-0.01,0.01,1.0,person
3143.0,977.0,4095.0,3283.0,3660.0,4011.0,4095.0,4095.0,4.87,7.26,7.66,-0.0,0.05,-0.05,0.0,3818.0,4095.0,4095.0,3215.0,4095.0,4095.0,4095.0,4095.0,-5.83,4.77,4.93,-0.03,-0.04,-0.08,1.0,person
3161.0,976.0,4095.0,3280.0,3633.0,3989.0,4095.0,4095.0,-1.82,3.76,5.63,-0.31,0.32,0.84,0.0,3863.0,4095.0,4095.0,3204.0,4095.0,4095.0,4095.0,4095.0,1.29,4.49,2.15,-0.27,0.33,-1.3,1.0,person
3141.0,967.0,3575.0,3257.0,3679.0,3947.0,4095.0,4095.0,0.5,-1.85,3.07,-1.61,-1.03,3.19,0.0,3886.0,4095.0,4095.0,3223.0,4095.0,4095.0,4095.0,4095.0,3.77,-0.67,0.11,-1.5,0.99,-4.12,1.0,person
3141.0,970.0,3498.0,3277.0,3663.0,3934.0,4095.0,4095.0,20.44,-5.26,7.46,-0.81,-3.09,3.19,0.0,3829.0,4095.0,4095.0,3257.0,4095.0,4095.0,4095.0,4095.0,-16.75,-13.89,0.67,-1.23,1.73,-4.1,1.0,person
3155.0,977.0,3632.0,3298.0,3663.0,3926.0,4095.0,4095.0,20.4,2.52,9.19,0.17,-0.8,0.64,0.0,3792.0,4095.0,4095.0,3312.0,4095.0,4095.0,4095.0,4095.0,-14.68,-7.23,5.06,-1.04,0.78,-0.54,1.0,person
3165.0,971.0,3630.0,3307.0,3697.0,3905.0,4095.0,4095.0,10.47,1.74,4.72,0.43,-0.26,-0.61,0.0,3714.0,4095.0,4095.0,3347.0,4095.0,4095.0,4095.0,4095.0,-9.29,-4.19,1.41,0.02,0.04,-0.19,1.0,person
3165.0,976.0,3614.0,3296.0,3696.0,3922.0,4095.0,4095.0,8.88,-0.5,4.74,-0.06,-0.07,-0.26,0.0,3622.0,4095.0,4095.0,3372.0,4095.0,4095.0,4095.0,4095.0,-8.83,-5.86,0.59,0.08,-0.02,-0.05,1.0,person
3151.0,971.0,3659.0,3312.0,3693.0,3906.0,4095.0,4095.0,9.92,-0.61,5.19,-0.08,-0.16,-0.15,0.0,3600.0,4095.0,4095.0,3340.0,4095.0,4095.0,4095.0,4095.0,-7.5,-5.23,1.08,0.05,0.0,0.01,1.0,person
3152.0,963.0,3664.0,3312.0,3695.0,3919.0,4095.0,4095.0,10.02,-0.61,5.57,-0.09,-0.12,-0.25,0.0,3579.0,4095.0,4095.0,3347.0,4095.0,4095.0,4095.0,4095.0,-7.97,-5.5,1.07,0.07,-0.08,-0.04,1.0,person
3152.0,960.0,3671.0,3319.0,3697.0,3917.0,4095.0,4095.0,9.84,-0.86,5.57,-0.05,0.12,-0.07,0.0,3538.0,4095.0,4095.0,3354.0,4095.0,4095.0,4095.0,4095.0,-7.75,-5.12,1.33,-0.02,-0.06,0.02,1.0,person
3159.0,964.0,3664.0,3323.0,3687.0,3899.0,4095.0,4095.0,9.8,-0.92,5.6,0.01,0.09,-0.08,0.0,3553.0,4095.0,4095.0,3347.0,4095.0,4095.0,4095.0,4095.0,-7.68,-5.05,1.19,-0.01,0.02,0.02,1.0,person
3152.0,971.0,3671.0,3316.0,3696.0,3919.0,4095.0,4095.0,9.85,-0.71,5.5,0.01,0.01,-0.11,0.0,3513.0,4095.0,4095.0,3344.0,4095.0,4095.0,4095.0,4095.0,-7.66,-4.96,1.13,-0.03,0.01,-0.03,1.0,person
3152.0,969.0,3674.0,3331.0,3696.0,3898.0,4095.0,4095.0,9.91,-0.78,5.32,-0.04,-0.0,-0.13,0.0,3518.0,4095.0,4095.0,3353.0,4095.0,4095.0,4095.0,4095.0,-7.75,-5.03,1.09,-0.03,0.05,-0.03,1.0,person
3152.0,960.0,3662.0,3341.0,3696.0,3905.0,4095.0,4095.0,9.73,-0.79,5.63,-0.04,0.01,-0.13,0.0,3352.0,4095.0,4095.0,3344.0,4095.0,4095.0,4095.0,4095.0,-7.9,-5.13,1.07,-0.05,0.07,-0.02,1.0,person
3150.0,955.0,3669.0,3341.0,3700.0,3917.0,4095.0,4095.0,10.13,-0.9,5.49,-0.01,-0.07,-0.16,0.0,3094.0,4095.0,4095.0,3354.0,4095.0,4095.0,4095.0,4095.0,-7.72,-5.15,1.24,-0.08,0.04,-0.05,1.0,person
3147.0,971.0,3664.0,3339.0,3673.0,3920.0,4095.0,4095.0,9.79,-0.87,5.5,-0.03,-0.01,-0.13,0.0,3091.0,4095.0,4095.0,3344.0,4095.0,4095.0,4095.0,4095.0,-7.93,-5.09,1.06,-0.07,0.05,-0.06,1.0,person
3155.0,960.0,3679.0,3330.0,3677.0,3915.0,4095.0,4095.0,9.83,-0.91,5.53,-0.01,-0.03,-0.14,0.0,3053.0,4095.0,4095.0,3317.0,4095.0,4095.0,4095.0,4095.0,-7.93,-5.05,1.08,-0.08,0.04,0.0,1.0,person
3161.0,969.0,3664.0,3323.0,3675.0,3914.0,4095.0,4095.0,9.91,-0.92,5.67,0.0,-0.02,-0.12,0.0,3047.0,4095.0,4095.0,3309.0,4095.0,4095.0,4095.0,4095.0,-8.04,-5.14,1.08,-0.1,0.02,-0.02,1.0,person
3153.0,961.0,3671.0,3315.0,3678.0,3920.0,4095.0,4095.0,10.17,-0.93,5.52,0.03,0.02,-0.14,0.0,3039.0,4095.0,4095.0,3295.0,4095.0,4095.0,4095.0,4095.0,-8.01,-5.08,1.12,-0.08,-0.03,-0.03,1.0,person
3295.0,991.0,3504.0,3223.0,3666.0,4009.0,4095.0,4095.0,5.77,7.5,7.93,0.04,-0.06,-0.17,0.0,1322.0,4095.0,959.0,3270.0,4095.0,4095.0,4095.0,4095.0,-7.1,4.57,4.81,-0.04,-0.07,-0.02,1.0,person
3306.0,994.0,3487.0,3236.0,3674.0,3985.0,4095.0,4095.0,5.0,7.57,7.66,0.02,-0.01,-0.12,0.0,1291.0,4095.0,962.0,3294.0,4095.0,4095.0,4095.0,4095.0,-1.73,4.67,4.05,-0.12,0.03,-0.69,1.0,person
3317.0,1005.0,3376.0,3234.0,3651.0,3987.0,4095.0,4095.0,-4.27,-1.74,2.56,-1.27,-0.58,2.73,0.0,1040.0,4095.0,976.0,3259.0,4095.0,4095.0,4095.0,4095.0,4.3,1.25,-0.77,-1.16,0.87,-3.19,1.0,person
3281.0,967.0,3274.0,3260.0,3653.0,3969.0,4095.0,4095.0,26.31,-0.27,9.09,0.03,-1.38,1.74,0.0,1067.0,4095.0,1022.0,3317.0,4095.0,4095.0,4095.0,4095.0,-23.1,-13.37,3.13,-1.03,0.94,-1.99,1.0,person
3325.0,973.0,3265.0,3264.0,3649.0,3990.0,4095.0,4095.0,12.35,0.49,6.21,-0.13,-0.23,-0.2,0.0,990.0,4095.0,1020.0,3330.0,4095.0,4095.0,4095.0,4095.0,-11.08,-5.26,3.28,-0.19,0.27,0.04,1.0,person
3322.0,974.0,3265.0,3271.0,3653.0,3990.0,4095.0,4095.0,8.92,-1.3,5.53,0.04,-0.12,-0.16,0.0,971.0,4095.0,1014.0,3330.0,4095.0,4095.0,4095.0,4095.0,-7.54,-6.3,0.98,0.18,0.05,0.21,1.0,person
3327.0,970.0,3280.0,3267.0,3648.0,4001.0,4095.0,4095.0,10.52,-1.8,5.2,-0.02,0.01,-0.12,0.0,963.0,4095.0,999.0,3338.0,4095.0,4095.0,4095.0,4095.0,-7.4,-5.79,0.66,0.06,-0.03,0.18,1.0,person
3323.0,972.0,3266.0,3287.0,3663.0,3987.0,4095.0,4095.0,9.72,-1.76,5.75,-0.06,-0.04,-0.19,0.0,958.0,4095.0,1004.0,3328.0,4095.0,4095.0,4095.0,4095.0,-7.4,-5.68,1.1,-0.2,0.09,0.07,1.0,person
3315.0,963.0,3259.0,3280.0,3666.0,3991.0,4095.0,4095.0,9.79,-1.7,5.67,0.02,-0.06,-0.18,0.0,976.0,4095.0,995.0,3341.0,4095.0,4095.0,4095.0,4095.0,-7.42,-5.54,1.15,-0.15,-0.04,0.01,1.0,person
3311.0,971.0,3263.0,3288.0,3664.0,4000.0,4095.0,4095.0,9.85,-1.69,5.4,0.05,0.0,-0.11,0.0,964.0,4095.0,1003.0,3345.0,4095.0,4095.0,4095.0,4095.0,-7.4,-5.37,1.01,-0.04,0.04,-0.04,1.0,person
3318.0,976.0,3263.0,3286.0,3659.0,3998.0,4095.0,4095.0,9.93,-1.69,5.47,0.01,-0.0,-0.11,0.0,970.0,4095.0,999.0,3330.0,4095.0,4095.0,4095.0,4095.0,-7.5,-5.57,1.04,-0.09,-0.02,-0.07,1.0,person
3310.0,973.0,3264.0,3282.0,3659.0,3998.0,4095.0,4095.0,9.81,-1.68,5.33,0.0,0.06,-0.13,0.0,967.0,4095.0,1021.0,3341.0,4095.0,4095.0,4095.0,4095.0,-7.58,-5.59,0.99,-0.08,0.04,-0.05,1.0,person
3306.0,974.0,3275.0,3290.0,3664.0,3984.0,4095.0,4095.0,9.68,-1.75,5.47,-0.02,0.05,-0.1,0.0,945.0,4095.0,997.0,3344.0,4095.0,4095.0,4095.0,4095.0,-7.53,-5.61,0.97,-0.09,0.06,-0.02,1.0,person
3313.0,973.0,3257.0,3289.0,3667.0,3991.0,4095.0,4095.0,9.75,-1.6,5.44,0.01,0.05,0.02,0.0,971.0,4095.0,1005.0,3342.0,4095.0,4095.0,4095.0,4095.0,-7.52,-5.58,0.79,-0.09,0.02,-0.09,1.0,person
3313.0,976.0,3255.0,3297.0,3670.0,3984.0,4095.0,4095.0,10.14,-1.92,5.48,0.02,-0.09,-0.18,0.0,967.0,4095.0,995.0,3349.0,4095.0,4095.0,4095.0,4095.0,-7.48,-5.58,1.09,-0.12,-0.05,-0.06,1.0,person
3312.0,980.0,3262.0,3301.0,3675.0,3984.0,4095.0,4095.0,9.28,-1.66,5.58,-0.03,-0.08,-0.11,0.0,961.0,4095.0,1010.0,3360.0,4095.0,4095.0,4095.0,4095.0,-7.81,-5.71,0.7,-0.18,0.13,-0.01,1.0,person
3312.0,974.0,3263.0,3293.0,3673.0,3982.0,4095.0,4095.0,9.94,-2.03,5.28,0.02,0.0,-0.11,0.0,961.0,4095.0,998.0,3344.0,4095.0,4095.0,4095.0,4095.0,-7.57,-5.66,0.95,-0.13,-0.0,-0.06,1.0,person
3317.0,967.0,3263.0,3295.0,3670.0,3984.0,4095.0,4095.0,9.69,-1.92,5.34,-0.01,-0.04,-0.15,0.0,969.0,4095.0,1008.0,3345.0,4095.0,4095.0,4095.0,4095.0,-7.45,-5.73,0.81,-0.11,-0.07,-0.07,1.0,person
3302.0,976.0,3264.0,3301.0,3677.0,3982.0,4095.0,4095.0,9.69,-2.05,5.53,-0.02,-0.02,-0.14,0.0,958.0,4095.0,1002.0,3350.0,4095.0,4095.0,4095.0,4095.0,-7.3,-5.74,0.75,-0.1,0.04,-0.05,1.0,person
3315.0,960.0,3259.0,3311.0,3673.0,3991.0,4095.0,4095.0,9.79,-2.02,5.4,0.01,-0.01,-0.16,0.0,944.0,4095.0,962.0,3348.0,4095.0,4095.0,4095.0,4095.0,-7.16,-5.7,0.93,-0.07,0.01,-0.09,1.0,person
3278.0,976.0,3665.0,3290.0,3693.0,3906.0,4095.0,4095.0,5.51,7.77,7.66,0.03,0.04,-0.13,0.0,873.0,4095.0,909.0,3250.0,4095.0,4095.0,4095.0,4095.0,-6.62,4.95,4.97,-0.08,0.03,-0.04,1.0,person
3281.0,979.0,3658.0,3255.0,3690.0,3919.0,4095.0,4095.0,4.7,7.69,7.26,-0.02,0.01,-0.05,0.0,885.0,4095.0,909.0,3255.0,4095.0,4095.0,4095.0,4095.0,-6.62,4.88,5.02,-0.02,0.04,-0.08,1.0,person
3290.0,994.0,3639.0,3244.0,3696.0,3920.0,4095.0,4095.0,0.42,6.04,6.94,-0.3,0.09,0.82,0.0,880.0,4095.0,915.0,3241.0,4095.0,4095.0,4095.0,4095.0,-1.61,5.96,4.06,0.33,-0.57,-1.04,1.0,person
3292.0,980.0,3613.0,3210.0,3671.0,3917.0,4095.0,4095.0,-1.14,-1.07,4.41,-1.29,-0.48,2.49,0.0,880.0,4095.0,913.0,3244.0,4095.0,4095.0,4095.0,4095.0,1.3,-0.8,0.99,-1.16,1.38,-2.74,1.0,person
3285.0,980.0,3622.0,3202.0,3675.0,3909.0,4095.0,4095.0,13.27,-6.09,4.38,-0.98,-2.69,3.78,0.0,886.0,4095.0,913.0,3283.0,4095.0,4095.0,4095.0,4095.0,-9.13,-7.37,0.88,-1.82,1.91,-4.89,1.0,person
3296.0,991.0,3605.0,3209.0,3667.0,3913.0,4095.0,4095.0,12.36,1.05,6.16,-0.16,0.19,0.06,0.0,877.0,4095.0,917.0,3280.0,4095.0,4095.0,4095.0,4095.0,-11.42,-4.99,2.57,-0.31,0.34,-0.31,1.0,person
3278.0,989.0,3574.0,3221.0,3673.0,3907.0,4095.0,4095.0,10.05,-1.02,5.21,-0.02,0.18,-0.31,0.0,878.0,4095.0,919.0,3245.0,4095.0,4095.0,4095.0,4095.0,-8.65,-5.32,0.99,-0.01,0.04,0.17,1.0,person
3277.0,986.0,3578.0,3230.0,3677.0,3918.0,4095.0,4095.0,9.53,-1.7,5.31,-0.04,0.01,-0.22,0.0,879.0,4095.0,915.0,3301.0,4095.0,4095.0,4095.0,4095.0,-7.56,-5.12,0.71,-0.07,-0.11,0.15,1.0,person
3289.0,991.0,3555.0,3234.0,3672.0,3911.0,4095.0,4095.0,9.71,-1.66,5.79,-0.13,-0.03,-0.11,0.0,880.0,4095.0,912.0,3310.0,4095.0,4095.0,4095.0,4095.0,-7.92,-5.32,0.89,-0.05,0.02,0.08,1.0,person
3277.0,995.0,3555.0,3243.0,3696.0,3895.0,4095.0,4095.0,9.81,-1.57,5.71,-0.1,0.07,-0.15,0.0,868.0,4095.0,922.0,3307.0,4095.0,4095.0,4095.0,4095.0,-8.16,-5.04,0.78,-0.1,-0.07,-0.0,1.0,person
3283.0,981.0,3545.0,3248.0,3695.0,3891.0,4095.0,4095.0,9.75,-1.63,5.83,-0.06,0.01,-0.16,0.0,870.0,4095.0,918.0,3312.0,4095.0,4095.0,4095.0,4095.0,-7.91,-5.0,0.89,-0.09,-0.0,-0.04,1.0,person
3271.0,992.0,3545.0,3245.0,3697.0,3892.0,4095.0,4095.0,9.98,-1.6,5.82,-0.02,-0.06,-0.21,0.0,870.0,4095.0,915.0,3321.0,4095.0,4095.0,4095.0,4095.0,-8.05,-5.08,0.87,-0.13,0.01,-0.07,1.0,person
3269.0,998.0,3504.0,3248.0,3705.0,3907.0,4095.0,4095.0,9.94,-1.74,5.73,-0.0,-0.02,-0.17,0.0,884.0,4095.0,928.0,3325.0,4095.0,4095.0,4095.0,4095.0,-8.06,-5.05,0.88,-0.1,-0.06,-0.1,1.0,person
3291.0,976.0,3511.0,3253.0,3697.0,3888.0,4095.0,4095.0,9.83,-1.43,5.73,0.03,-0.0,-0.14,0.0,879.0,4095.0,918.0,3327.0,4095.0,4095.0,4095.0,4095.0,-8.13,-5.23,0.67,-0.07,-0.05,-0.07,1.0,person
3280.0,988.0,3511.0,3258.0,3697.0,3890.0,4095.0,4095.0,9.96,-1.48,5.74,0.01,0.04,-0.14,0.0,880.0,4095.0,910.0,3318.0,4095.0,4095.0,4095.0,4095.0,-7.86,-5.15,0.91,-0.06,-0.03,-0.03,1.0,person
3275.0,985.0,3530.0,3260.0,3707.0,3892.0,4095.0,4095.0,9.78,-1.47,5.82,-0.01,0.01,-0.18,0.0,869.0,4095.0,913.0,3319.0,4095.0,4095.0,4095.0,4095.0,-7.9,-5.22,0.86,-0.05,0.01,0.0,1.0,person
3271.0,973.0,3509.0,3261.0,3698.0,3888.0,4095.0,4095.0,9.79,-1.48,5.81,0.0,0.01,-0.16,0.0,879.0,4095.0,914.0,3328.0,4095.0,4095.0,4095.0,4095.0,-7.94,-5.11,0.75,-0.08,-0.03,-0.03,1.0,person
3285.0,990.0,3509.0,3257.0,3698.0,3895.0,4095.0,4095.0,9.73,-1.52,5.89,-0.0,-0.02,-0.17,0.0,873.0,4095.0,921.0,3327.0,4095.0,4095.0,4095.0,4095.0,-8.01,-5.1,0.79,-0.05,0.03,-0.03,1.0,person
3286.0,992.0,3504.0,3267.0,3708.0,3886.0,4095.0,4095.0,9.9,-1.52,5.66,-0.02,0.02,-0.18,0.0,875.0,4095.0,915.0,3328.0,4095.0,4095.0,4095.0,4095.0,-7.94,-5.12,0.85,-0.11,0.03,0.03,1.0,person
3281.0,977.0,3501.0,3265.0,3709.0,3885.0,4095.0,4095.0,9.77,-1.49,5.78,-0.01,-0.04,-0.14,0.0,880.0,4095.0,928.0,3351.0,4095.0,4095.0,4095.0,4095.0,-7.86,-5.04,0.75,-0.06,0.02,0.0,1.0,person
3318.0,998.0,3197.0,3280.0,3716.0,4068.0,4095.0,4095.0,5.93,7.36,7.97,-0.02,-0.09,-0.19,0.0,910.0,3975.0,4095.0,3239.0,4095.0,4095.0,4095.0,4095.0,-6.95,4.69,5.15,-0.1,0.02,-0.05,1.0,person
3319.0,998.0,3187.0,3285.0,3718.0,4085.0,4095.0,4095.0,5.35,7.53,7.7,-0.02,-0.02,-0.15,0.0,897.0,3971.0,4095.0,3234.0,4095.0,4095.0,4095.0,4095.0,-6.74,4.64,5.18,-0.08,0.13,0.02,1.0,person
3315.0,978.0,3183.0,3282.0,3686.0,4067.0,4095.0,4095.0,2.81,5.79,6.68,-0.04,-0.06,0.1,0.0,891.0,3954.0,4095.0,3233.0,4095.0,4095.0,4095.0,4095.0,-3.45,4.98,4.16,-0.24,0.23,-0.32,1.0,person
3323.0,985.0,3180.0,2935.0,3692.0,4067.0,4095.0,4095.0,-4.81,1.38,4.81,-1.13,-0.11,2.41,0.0,899.0,3976.0,4095.0,3183.0,4095.0,4095.0,4095.0,4095.0,4.04,1.72,0.43,-0.38,0.09,-2.79,1.0,person
3318.0,991.0,3180.0,3247.0,3708.0,4007.0,4095.0,4095.0,9.9,-4.14,3.45,-1.38,-0.01,4.37,0.0,899.0,3985.0,4095.0,3213.0,4095.0,4095.0,4095.0,4095.0,-4.29,-8.94,0.87,-2.2,1.82,-4.9,1.0,person
3326.0,983.0,3183.0,3277.0,3685.0,4043.0,4095.0,4095.0,26.51,-3.98,12.19,-0.59,-1.35,2.26,0.0,896.0,4009.0,4095.0,3262.0,4095.0,4095.0,4095.0,4095.0,-20.14,-12.18,4.85,-1.21,2.34,-1.58,1.0,person
3341.0,973.0,3179.0,3280.0,3714.0,4048.0,4095.0,4095.0,13.59,0.94,7.79,0.14,-0.17,-0.02,0.0,897.0,3979.0,4095.0,3275.0,4095.0,4095.0,4095.0,4095.0,-11.42,-4.77,3.39,-0.07,0.45,-0.22,1.0,person
3344.0,975.0,3184.0,3309.0,3693.0,4048.0,4095.0,4095.0,9.01,-1.25,6.33,0.08,0.46,-0.12,0.0,912.0,3979.0,4095.0,3271.0,4095.0,4095.0,4095.0,4095.0,-7.44,-5.1,1.53,0.05,-0.03,-0.04,1.0,person
3360.0,979.0,3182.0,3312.0,3696.0,4034.0,4095.0,4095.0,9.89,-1.26,5.39,0.11,-0.16,-0.31,0.0,910.0,4001.0,4095.0,3279.0,4095.0,4095.0,4095.0,4095.0,-8.23,-5.84,1.28,-0.18,0.28,0.1,1.0,person
3351.0,976.0,3186.0,3312.0,3707.0,4025.0,4095.0,4095.0,9.83,-1.43,6.15,-0.01,-0.11,-0.23,0.0,898.0,3983.0,4095.0,3282.0,4095.0,4095.0,4095.0,4095.0,-7.81,-5.41,1.44,-0.12,-0.05,0.08,1.0,person
3356.0,975.0,3189.0,3317.0,3712.0,4016.0,4095.0,4095.0,9.71,-1.56,5.9,-0.1,0.01,-0.22,0.0,901.0,3998.0,4095.0,3280.0,4095.0,4095.0,4095.0,4095.0,-7.55,-5.31,1.5,-0.1,0.09,0.07,1.0,person
3345.0,975.0,3182.0,3318.0,3725.0,4029.0,4095.0,4095.0,9.48,-1.85,6.39,-0.04,-0.05,-0.22,0.0,898.0,3984.0,4095.0,3287.0,4095.0,4095.0,4095.0,4095.0,-7.85,-5.37,1.22,-0.05,0.03,0.06,1.0,person
3354.0,978.0,3187.0,3321.0,3728.0,4017.0,4095.0,4095.0,9.75,-1.47,6.11,0.0,-0.06,-0.15,0.0,916.0,4017.0,4095.0,3294.0,4095.0,4095.0,4095.0,4095.0,-7.26,-5.0,1.56,0.09,-0.26,-0.17,1.0,person
3353.0,964.0,3187.0,3323.0,3731.0,4031.0,4095.0,4095.0,9.77,-1.48,6.11,0.03,-0.03,-0.18,0.0,911.0,4025.0,4095.0,3301.0,4095.0,4095.0,4095.0,4095.0,-8.06,-5.4,1.26,-0.05,-0.07,-0.04,1.0,person
3357.0,971.0,3184.0,3322.0,3725.0,4022.0,4095.0,4095.0,9.91,-1.31,5.89,-0.04,-0.02,-0.12,0.0,908.0,3988.0,4095.0,3293.0,4095.0,4095.0,4095.0,4095.0,-7.85,-5.32,1.67,-0.13,-0.09,-0.04,1.0,person
3354.0,982.0,3181.0,3335.0,3726.0,3982.0,4095.0,4095.0,9.77,-1.57,6.04,-0.02,-0.09,-0.21,0.0,912.0,4032.0,4095.0,3299.0,4095.0,4095.0,4095.0,4095.0,-7.47,-5.18,1.71,-0.05,-0.09,0.0,1.0,person
3344.0,972.0,3189.0,3338.0,3724.0,3986.0,4095.0,4095.0,9.65,-1.52,6.19,-0.05,-0.05,-0.14,0.0,915.0,4031.0,4095.0,3307.0,4095.0,4095.0,4095.0,4095.0,-7.51,-5.16,1.51,-0.0,0.01,0.03,1.0,person
3340.0,977.0,3185.0,3338.0,3727.0,3983.0,4095.0,4095.0,9.86,-1.55,6.31,0.06,0.04,-0.13,0.0,913.0,4011.0,4095.0,3301.0,4095.0,4095.0,4095.0,4095.0,-7.62,-5.09,1.64,-0.06,-0.04,-0.02,1.0,person
3332.0,976.0,3184.0,3341.0,3727.0,3972.0,4095.0,4095.0,9.87,-1.46,5.86,0.07,-0.02,-0.16,0.0,909.0,4017.0,4095.0,3303.0,4095.0,4095.0,4095.0,4095.0,-7.52,-5.17,1.72,-0.07,0.03,-0.01,1.0,person
3333.0,976.0,3178.0,3342.0,3727.0,3974.0,4095.0,4095.0,9.8,-1.28,5.76,-0.12,0.02,-0.18,0.0,899.0,4000.0,4095.0,3295.0,4095.0,4095.0,4095.0,4095.0,-7.59,-5.32,1.61,-0.0,0.04,0.05,1.0,person
3268.0,994.0,3871.0,3292.0,3541.0,4016.0,4095.0,4095.0,5.12,7.61,8.29,0.06,-0.01,-0.17,0.0,982.0,4095.0,903.0,3190.0,4095.0,4095.0,4095.0,4095.0,-7.74,4.57,4.78,0.0,-0.03,-0.03,1.0,person
3265.0,976.0,3858.0,3289.0,3553.0,4000.0,4095.0,4095.0,4.72,7.5,8.25,0.04,-0.03,-0.17,0.0,976.0,4095.0,898.0,3199.0,4095.0,4095.0,4095.0,4095.0,-6.87,4.59,4.75,-0.03,-0.11,-0.01,1.0,person
3267.0,990.0,3851.0,3282.0,3563.0,3997.0,4095.0,4095.0,3.22,6.38,7.34,-0.13,-0.11,0.04,0.0,911.0,4095.0,899.0,3195.0,4095.0,4095.0,4095.0,4095.0,-5.04,5.05,3.86,-0.17,-0.02,-0.22,1.0,person
3283.0,977.0,3818.0,3266.0,3597.0,3982.0,4095.0,4095.0,-3.26,0.76,3.5,-0.63,-0.41,1.87,0.0,897.0,4095.0,896.0,3157.0,4095.0,4095.0,4095.0,4095.0,5.36,1.38,2.08,-0.75,0.52,-2.23,1.0,person
3277.0,979.0,3778.0,3238.0,3599.0,3979.0,4095.0,4095.0,6.45,-5.52,4.68,-2.09,-1.89,4.53,0.0,926.0,4095.0,908.0,3147.0,4095.0,4095.0,4095.0,4095.0,3.89,-6.92,-2.18,-1.63,1.97,-5.4,1.0,person
3274.0,975.0,3838.0,3271.0,3555.0,3999.0,4095.0,4095.0,20.31,-2.15,11.37,-1.02,-1.35,3.16,0.0,894.0,4095.0,914.0,3216.0,4095.0,4095.0,4095.0,4095.0,-23.34,-18.82,0.85,0.01,0.45,-3.67,1.0,person
3309.0,983.0,3840.0,3239.0,3577.0,3926.0,4095.0,4095.0,10.65,-1.56,6.35,0.16,-0.17,-0.47,0.0,912.0,4095.0,923.0,3223.0,4095.0,4095.0,4095.0,4095.0,-7.81,-5.46,0.67,-0.18,0.08,0.28,1.0,person
3312.0,976.0,3827.0,3245.0,3583.0,3934.0,4095.0,4095.0,9.73,-2.18,5.56,0.04,0.07,-0.2,0.0,912.0,4095.0,909.0,3203.0,4095.0,4095.0,4095.0,4095.0,-7.48,-6.27,0.24,-0.04,-0.12,0.28,1.0,person
3321.0,976.0,3856.0,3247.0,3563.0,3920.0,4095.0,4095.0,9.39,-1.96,5.42,-0.03,-0.08,-0.26,0.0,907.0,4095.0,915.0,3206.0,4095.0,4095.0,4095.0,4095.0,-7.03,-5.97,0.95,-0.1,-0.07,0.3,1.0,person
3323.0,971.0,3847.0,3243.0,3566.0,3921.0,4095.0,4095.0,9.44,-2.03,6.21,-0.1,-0.07,-0.12,0.0,925.0,4095.0,921.0,3205.0,4095.0,4095.0,4095.0,4095.0,-6.55,-5.24,0.66,-0.12,0.12,0.24,1.0,person
3318.0,971.0,3870.0,3249.0,3568.0,3920.0,4095.0,4095.0,9.88,-2.09,5.9,-0.04,0.1,-0.12,0.0,927.0,4095.0,915.0,3219.0,4095.0,4095.0,4095.0,4095.0,-7.54,-6.0,0.46,0.04,-0.06,-0.09,1.0,person
3312.0,971.0,3838.0,3257.0,3578.0,3888.0,4095.0,4095.0,9.28,-1.74,5.67,-0.02,0.04,-0.12,0.0,930.0,4095.0,915.0,3226.0,4095.0,4095.0,4095.0,4095.0,-7.39,-5.81,0.62,0.06,-0.22,0.01,1.0,person
3329.0,976.0,3830.0,3261.0,3579.0,3900.0,4095.0,4095.0,9.9,-2.1,6.14,0.01,-0.05,-0.16,0.0,927.0,4095.0,913.0,3238.0,4095.0,4095.0,4095.0,4095.0,-7.08,-5.5,0.62,-0.02,-0.05,0.02,1.0,person
3309.0,961.0,3833.0,3264.0,3579.0,3901.0,4095.0,4095.0,9.41,-2.01,5.95,0.03,0.01,-0.15,0.0,922.0,4095.0,913.0,3227.0,4095.0,4095.0,4095.0,4095.0,-7.45,-5.55,0.55,-0.01,0.02,-0.05,1.0,person
3321.0,970.0,3823.0,3270.0,3583.0,3919.0,4095.0,4095.0,9.62,-1.99,6.05,0.05,-0.04,-0.17,0.0,914.0,4095.0,909.0,3241.0,4095.0,4095.0,4095.0,4095.0,-7.72,-5.81,0.79,-0.06,-0.01,-0.01,1.0,person
3328.0,962.0,3824.0,3269.0,3579.0,3899.0,4095.0,4095.0,9.86,-2.02,5.81,0.06,0.08,-0.13,0.0,927.0,4095.0,914.0,3237.0,4095.0,4095.0,4095.0,4095.0,-7.61,-5.54,0.55,-0.02,0.03,-0.01,1.0,person
3331.0,966.0,3824.0,3278.0,3575.0,3886.0,4095.0,4095.0,9.63,-2.0,5.73,0.07,0.0,-0.15,0.0,921.0,4095.0,925.0,3242.0,4095.0,4095.0,4095.0,4095.0,-7.42,-5.48,0.72,-0.12,0.03,0.01,1.0,person
3328.0,966.0,3809.0,3280.0,3573.0,3879.0,4095.0,4095.0,9.91,-1.97,5.79,0.02,0.03,-0.17,0.0,918.0,4095.0,912.0,3235.0,4095.0,4095.0,4095.0,4095.0,-7.57,-5.78,0.74,-0.11,-0.06,-0.06,1.0,person
3321.0,966.0,3822.0,3280.0,3573.0,3875.0,4095.0,4095.0,9.48,-1.96,5.76,0.04,-0.0,-0.14,0.0,915.0,4095.0,911.0,3235.0,4095.0,4095.0,4095.0,4095.0,-7.52,-5.79,0.67,-0.07,-0.1,-0.1,1.0,person
3317.0,964.0,3803.0,3282.0,3578.0,3833.0,4095.0,4095.0,10.0,-2.14,5.92,-0.02,0.02,-0.14,0.0,918.0,4095.0,928.0,3247.0,4095.0,4095.0,4095.0,4095.0,-7.32,-5.68,0.78,-0.09,-0.06,-0.1,1.0,person
3267.0,1360.0,3682.0,3388.0,3620.0,3883.0,4095.0,4095.0,5.96,7.14,7.81,-0.0,0.01,-0.18,0.0,871.0,4095.0,931.0,3195.0,4095.0,4095.0,4095.0,4095.0,-7.52,3.88,4.76,-0.06,0.01,-0.0,1.0,person
3269.0,1358.0,3674.0,3386.0,3610.0,3878.0,4095.0,4095.0,5.75,7.09,7.83,-0.01,-0.03,-0.13,0.0,867.0,4095.0,932.0,3185.0,4095.0,4095.0,4095.0,4095.0,-6.93,4.2,4.86,-0.08,0.01,-0.03,1.0,person
3280.0,1348.0,3673.0,3386.0,3632.0,3875.0,4095.0,4095.0,1.96,5.21,6.27,-0.06,-0.05,0.11,0.0,859.0,4095.0,932.0,3193.0,4095.0,4095.0,4095.0,4095.0,-4.54,4.1,3.41,-0.18,0.07,-0.39,1.0,person
3279.0,1243.0,3583.0,3331.0,3614.0,3863.0,4095.0,4095.0,-1.5,-1.31,5.82,-1.01,-0.85,2.38,0.0,880.0,4095.0,935.0,3183.0,4095.0,4095.0,4095.0,4095.0,-10.06,-8.15,0.4,-1.61,2.08,-4.14,1.0,person
3284.0,1248.0,3669.0,3307.0,3604.0,3870.0,4095.0,4095.0,10.17,-4.73,6.22,-1.05,-1.19,3.89,0.0,867.0,4095.0,944.0,3227.0,4095.0,4095.0,4095.0,4095.0,-18.06,-4.94,3.84,-0.52,1.29,-1.72,1.0,person
3250.0,986.0,3686.0,3376.0,3628.0,3856.0,4095.0,4095.0,11.91,1.34,6.43,-0.23,0.26,-0.42,0.0,861.0,4095.0,942.0,3227.0,4095.0,4095.0,4095.0,4095.0,-10.82,-7.0,2.12,-0.29,0.19,-0.69,1.0,person
3266.0,975.0,3657.0,3379.0,3612.0,3863.0,4095.0,4095.0,8.29,-0.7,6.01,0.02,0.46,-0.15,0.0,869.0,4095.0,939.0,3219.0,4095.0,4095.0,4095.0,4095.0,-8.18,-5.48,1.1,-0.11,0.02,-0.13,1.0,person
3262.0,976.0,3624.0,3387.0,3599.0,3856.0,4095.0,4095.0,10.39,-1.01,6.43,-0.09,0.07,-0.09,0.0,871.0,4095.0,939.0,3231.0,4095.0,4095.0,4095.0,4095.0,-7.89,-5.27,1.34,-0.09,0.02,0.14,1.0,person
3266.0,973.0,3599.0,3386.0,3600.0,3853.0,4095.0,4095.0,10.03,-1.12,6.26,-0.11,-0.14,-0.26,0.0,869.0,4095.0,942.0,3227.0,4095.0,4095.0,4095.0,4095.0,-7.86,-5.29,1.55,0.04,-0.1,0.15,1.0,person
3265.0,981.0,3581.0,3389.0,3583.0,3853.0,4095.0,4095.0,9.94,-1.2,6.38,-0.02,-0.07,-0.18,0.0,880.0,4095.0,941.0,3226.0,4095.0,4095.0,4095.0,4095.0,-7.97,-4.84,1.31,0.12,-0.05,0.1,1.0,person
3274.0,983.0,3600.0,3390.0,3583.0,3843.0,4095.0,4095.0,9.84,-0.95,6.43,-0.02,0.09,-0.18,0.0,886.0,4095.0,941.0,3234.0,4095.0,4095.0,4095.0,4095.0,-8.49,-4.85,1.17,0.03,-0.08,0.15,1.0,person
3278.0,973.0,3568.0,3390.0,3607.0,3842.0,4095.0,4095.0,9.63,-1.17,6.52,0.03,-0.07,-0.18,0.0,894.0,4095.0,944.0,3245.0,4095.0,4095.0,4095.0,4095.0,-8.01,-4.05,1.39,-0.07,0.05,0.04,1.0,person
3275.0,981.0,3610.0,3390.0,3600.0,3823.0,4095.0,4095.0,9.5,-0.87,6.55,0.02,0.06,0.01,0.0,883.0,4095.0,939.0,3235.0,4095.0,4095.0,4095.0,4095.0,-8.31,-4.7,1.19,-0.08,0.11,0.05,1.0,person
3290.0,975.0,3632.0,3385.0,3611.0,3823.0,4095.0,4095.0,10.07,-1.02,6.3,0.04,-0.03,-0.18,0.0,885.0,4095.0,945.0,3239.0,4095.0,4095.0,4095.0,4095.0,-8.1,-4.3,1.17,-0.09,0.15,-0.01,1.0,person
3297.0,978.0,3636.0,3387.0,3618.0,3814.0,4095.0,4095.0,9.61,-0.89,6.53,0.01,0.02,-0.19,0.0,884.0,4095.0,947.0,3245.0,4095.0,4095.0,4095.0,4095.0,-8.21,-4.4,1.42,-0.11,0.04,-0.0,1.0,person
3280.0,971.0,3660.0,3392.0,3628.0,3819.0,4095.0,4095.0,9.94,-0.98,6.44,-0.01,-0.06,-0.17,0.0,880.0,4095.0,944.0,3246.0,4095.0,4095.0,4095.0,4095.0,-8.44,-4.53,1.14,-0.08,0.05,-0.02,1.0,person
3280.0,981.0,3664.0,3391.0,3615.0,3829.0,4095.0,4095.0,9.97,-1.08,6.67,-0.01,0.06,-0.17,0.0,883.0,4095.0,930.0,3239.0,4095.0,4095.0,4095.0,4095.0,-8.33,-4.48,1.38,-0.08,0.12,0.01,1.0,person
3286.0,979.0,3674.0,3383.0,3617.0,3823.0,4095.0,4095.0,9.75,-0.89,6.52,0.02,0.04,-0.14,0.0,895.0,4095.0,939.0,3258.0,4095.0,4095.0,4095.0,4095.0,-8.26,-4.41,1.37,-0.08,0.04,-0.02,1.0,person
3275.0,977.0,3674.0,3379.0,3618.0,3810.0,4095.0,4095.0,9.84,-1.08,6.62,0.09,-0.06,-0.17,0.0,883.0,4095.0,933.0,3248.0,4095.0,4095.0,4095.0,4095.0,-8.27,-4.43,1.29,-0.07,0.01,-0.04,1.0,person
3277.0,979.0,3670.0,3377.0,3619.0,3820.0,4095.0,4095.0,9.63,-0.75,6.5,0.05,-0.07,-0.18,0.0,893.0,4095.0,937.0,3249.0,4095.0,4095.0,4095.0,4095.0,-8.34,-4.34,1.24,-0.04,0.02,-0.04,1.0,person
3335.0,1008.0,3682.0,3302.0,3621.0,3925.0,4095.0,4095.0,5.7,7.42,8.12,0.02,-0.06,-0.13,0.0,4095.0,4095.0,1184.0,3254.0,4095.0,4095.0,4095.0,4095.0,-6.77,4.71,5.09,-0.09,0.0,-0.01,1.0,person
3323.0,1015.0,3668.0,3302.0,3623.0,3940.0,4095.0,4095.0,5.69,7.42,8.25,-0.01,-0.02,-0.17,0.0,4095.0,4095.0,1155.0,3248.0,4095.0,4095.0,4095.0,4095.0,-6.85,4.67,5.12,-0.05,-0.02,-0.06,1.0,person
3338.0,999.0,3673.0,3301.0,3622.0,3915.0,4095.0,4095.0,4.69,6.85,7.64,-0.02,-0.0,-0.06,0.0,4095.0,4095.0,1134.0,3255.0,4095.0,4095.0,4095.0,4095.0,-5.64,4.83,4.84,-0.11,0.07,-0.16,1.0,person
3333.0,1002.0,3543.0,3254.0,3611.0,3872.0,4095.0,4095.0,-5.87,0.19,4.5,-0.6,0.04,1.35,0.0,4095.0,4095.0,944.0,3237.0,4095.0,4095.0,4095.0,4095.0,4.68,2.89,0.2,-0.34,-0.13,-1.66,1.0,person
3335.0,1023.0,3487.0,3263.0,3641.0,3895.0,4095.0,4095.0,5.78,-3.39,5.04,-0.21,-0.25,4.02,0.0,4095.0,4095.0,914.0,3280.0,4095.0,4095.0,4095.0,4095.0,-2.06,-5.7,-0.42,-2.26,2.44,-4.39,1.0,person
3286.0,994.0,3440.0,3238.0,3568.0,3767.0,4095.0,4095.0,25.08,-6.35,7.47,-0.94,-1.17,3.71,0.0,4095.0,4095.0,911.0,3292.0,4095.0,4095.0,4095.0,4095.0,-18.11,-15.49,3.16,-0.38,1.49,-3.55,1.0,person
3297.0,985.0,3427.0,3265.0,3563.0,3799.0,4095.0,4095.0,18.51,2.16,8.47,-0.33,-0.07,0.94,0.0,4095.0,4095.0,910.0,3275.0,4095.0,4095.0,4095.0,4095.0,-18.13,-6.17,3.04,-0.71,0.85,-0.19,1.0,person
3316.0,979.0,3396.0,3266.0,3578.0,3809.0,4095.0,4095.0,10.11,-0.94,6.35,-0.1,0.28,-0.38,0.0,4095.0,4095.0,905.0,3273.0,4095.0,4095.0,4095.0,4095.0,-7.85,-4.84,1.71,-0.19,0.06,0.26,1.0,person
3309.0,976.0,3374.0,3281.0,3610.0,3793.0,4095.0,4095.0,9.28,-1.53,5.45,-0.07,0.11,-0.2,0.0,4095.0,4095.0,906.0,3265.0,4095.0,4095.0,4095.0,4095.0,-7.03,-5.31,1.77,-0.18,-0.11,0.07,1.0,person
3307.0,979.0,3382.0,3281.0,3623.0,3790.0,4095.0,4095.0,9.79,-1.7,5.74,0.03,-0.02,-0.16,0.0,4095.0,4095.0,915.0,3275.0,4095.0,4095.0,4095.0,4095.0,-7.56,-5.1,1.4,-0.1,-0.08,0.01,1.0,person
3312.0,976.0,3362.0,3283.0,3609.0,3792.0,4095.0,4095.0,9.93,-1.54,5.77,-0.05,-0.01,-0.17,0.0,4095.0,4095.0,917.0,3293.0,4095.0,4095.0,4095.0,4095.0,-7.83,-5.13,1.88,-0.06,-0.08,-0.1,1.0,person
3311.0,975.0,3360.0,3291.0,3616.0,3785.0,4095.0,4095.0,9.7,-1.59,5.92,-0.01,0.04,-0.22,0.0,4095.0,4095.0,913.0,3291.0,4095.0,4095.0,4095.0,4095.0,-7.7,-5.21,1.74,-0.01,-0.08,-0.07,1.0,person
3305.0,967.0,3367.0,3297.0,3617.0,3791.0,4095.0,4095.0,9.76,-1.58,5.8,0.02,0.0,-0.17,0.0,4095.0,4095.0,915.0,3307.0,4095.0,4095.0,4095.0,4095.0,-7.89,-5.32,1.82,-0.03,-0.04,-0.0,1.0,person
3321.0,977.0,3381.0,3299.0,3623.0,3791.0,4095.0,4095.0,9.79,-1.59,5.84,0.03,-0.05,-0.2,0.0,4095.0,4095.0,914.0,3311.0,4095.0,4095.0,4095.0,4095.0,-7.82,-5.09,1.58,-0.08,-0.0,-0.01,1.0,person
3321.0,971.0,3367.0,3303.0,3627.0,3793.0,4095.0,4095.0,9.69,-1.55,5.81,0.01,-0.01,-0.19,0.0,4095.0,4095.0,914.0,3309.0,4095.0,4095.0,4095.0,4095.0,-8.04,-5.18,1.39,-0.05,-0.03,-0.04,1.0,person
3312.0,967.0,3376.0,3307.0,3620.0,3795.0,4095.0,4095.0,9.78,-1.41,5.67,-0.01,-0.04,-0.17,0.0,4095.0,4095.0,913.0,3311.0,4095.0,4095.0,4095.0,4095.0,-7.74,-5.14,1.53,-0.09,-0.02,0.0,1.0,person
3313.0,979.0,3373.0,3307.0,3622.0,3795.0,4095.0,4095.0,9.79,-1.57,5.99,-0.05,-0.01,-0.16,0.0,4095.0,4095.0,919.0,3303.0,4095.0,4095.0,4095.0,4095.0,-7.91,-5.45,1.78,-0.15,-0.01,-0.04,1.0,person
3323.0,981.0,3355.0,3306.0,3629.0,3793.0,4095.0,4095.0,9.77,-1.49,5.92,0.01,-0.01,-0.17,0.0,4095.0,4095.0,912.0,3318.0,4095.0,4095.0,4095.0,4095.0,-7.89,-5.2,1.74,-0.06,0.0,0.0,1.0,person
3311.0,976.0,3362.0,3310.0,3627.0,3788.0,4095.0,4095.0,9.62,-1.34,5.66,0.01,-0.01,-0.17,0.0,4095.0,4095.0,911.0,3319.0,4095.0,4095.0,4095.0,4095.0,-7.65,-5.01,1.7,-0.06,-0.03,-0.04,1.0,person
3312.0,968.0,3364.0,3310.0,3628.0,3774.0,4095.0,4095.0,9.85,-1.53,5.89,-0.01,-0.01,-0.12,0.0,4095.0,4095.0,914.0,3311.0,4095.0,4095.0,4095.0,4095.0,-7.79,-5.28,1.71,-0.07,0.07,-0.04,1.0,person
3093.0,1039.0,3013.0,4095.0,3226.0,3095.0,4095.0,3648.0,7.39,-4.72,8.88,0.0,0.18,-0.26,0.0,947.0,3723.0,3138.0,3382.0,4095.0,4095.0,4095.0,4095.0,-7.83,-5.46,3.28,-0.01,0.57,-0.27,1.0,person
3152.0,1012.0,2960.0,4095.0,3243.0,3119.0,4095.0,3689.0,8.56,-4.43,8.98,0.51,-0.32,-0.33,0.0,951.0,3735.0,3169.0,3372.0,4095.0,4095.0,4095.0,4095.0,-7.55,-5.73,2.9,0.04,0.37,0.01,1.0,person
3175.0,1023.0,3143.0,4095.0,3263.0,3179.0,4095.0,3805.0,10.05,-4.03,9.67,0.37,-0.94,-0.6,0.0,971.0,4095.0,3279.0,3277.0,4095.0,4095.0,4095.0,4095.0,-8.2,-4.93,3.57,-0.14,0.29,0.09,1.0,person
3186.0,1023.0,3287.0,4095.0,3288.0,3281.0,4095.0,4095.0,12.38,-2.74,8.01,1.58,-0.86,-3.35,0.0,904.0,4095.0,2949.0,2987.0,4095.0,4095.0,4095.0,4095.0,-11.83,-6.95,2.91,-0.39,1.82,1.22,1.0,person
3152.0,1139.0,3483.0,3691.0,3286.0,3363.0,4095.0,4095.0,11.45,3.12,5.35,1.92,-0.11,-5.43,0.0,902.0,4095.0,3150.0,2432.0,4095.0,4095.0,4095.0,4095.0,-10.86,-5.9,0.63,1.01,1.29,4.96,1.0,person
3282.0,993.0,3662.0,3579.0,3410.0,3547.0,4095.0,4095.0,1.04,3.73,6.5,0.57,0.55,-2.13,0.0,939.0,3951.0,2736.0,2495.0,4095.0,4095.0,4095.0,0.0,-0.53,3.12,0.37,-0.02,-1.07,0.41,1.0,person
3410.0,991.0,3605.0,3401.0,3499.0,3818.0,4095.0,4095.0,-2.14,3.59,5.87,-0.77,-2.22,3.66,0.0,1980.0,3879.0,2650.0,2309.0,4095.0,4095.0,4095.0,879.0,-0.59,-4.01,1.52,-3.05,1.72,-7.96,1.0,person
3253.0,969.0,3617.0,3017.0,3554.0,4095.0,4095.0,4095.0,9.38,-1.42,3.44,0.1,-0.33,-0.26,0.0,3303.0,3917.0,2873.0,2283.0,4095.0,4095.0,4095.0,4095.0,-8.81,-4.2,0.24,-0.19,0.37,0.11,1.0,person
3228.0,976.0,3622.0,3033.0,3511.0,4039.0,4095.0,4095.0,9.66,-2.13,3.48,0.27,0.05,-0.01,0.0,3289.0,3904.0,2815.0,2289.0,4095.0,4095.0,4095.0,4095.0,-8.47,-4.99,-0.27,-0.27,0.24,0.04,1.0,person
3247.0,960.0,3600.0,3051.0,3455.0,3999.0,4095.0,4095.0,9.89,-2.17,4.1,0.22,-0.01,-0.05,0.0,3290.0,3888.0,2742.0,2290.0,4095.0,4095.0,4095.0,4095.0,-7.78,-4.38,-0.08,-0.18,0.1,0.07,1.0,person
3259.0,967.0,3610.0,3056.0,3459.0,4003.0,4095.0,4095.0,10.19,-2.25,3.82,0.2,-0.1,-0.1,0.0,3307.0,3903.0,2723.0,2306.0,4095.0,4095.0,4095.0,4095.0,-8.32,-4.43,-0.19,-0.03,-0.04,0.07,1.0,person
3237.0,967.0,3612.0,3104.0,3507.0,3961.0,4095.0,4095.0,10.19,-2.19,3.62,0.01,-0.12,-0.21,0.0,3301.0,3905.0,2715.0,2307.0,4095.0,4095.0,4095.0,4095.0,-8.28,-4.24,-0.18,-0.15,0.07,0.02,1.0,person
3236.0,970.0,3604.0,3088.0,3503.0,3907.0,4095.0,4095.0,9.55,-2.01,3.65,0.06,-0.03,-0.18,0.0,3305.0,3909.0,2432.0,2319.0,4095.0,4095.0,4095.0,4095.0,-8.34,-4.35,-0.48,-0.06,0.08,-0.02,1.0,person
3258.0,975.0,3606.0,3114.0,3505.0,3927.0,4095.0,4095.0,10.1,-2.07,3.57,0.06,-0.02,-0.12,0.0,3293.0,3920.0,2131.0,2311.0,4095.0,4095.0,4095.0,4095.0,-8.37,-4.35,-0.39,-0.16,0.12,0.0,1.0,person
3258.0,983.0,3615.0,3119.0,3536.0,3863.0,4095.0,4095.0,9.73,-2.01,3.67,0.01,0.01,-0.18,0.0,3293.0,3914.0,1794.0,2313.0,4095.0,4095.0,4095.0,4095.0,-8.43,-4.37,-0.44,-0.08,0.04,-0.02,1.0,person
3248.0,975.0,3611.0,3093.0,3519.0,3866.0,4095.0,4095.0,9.54,-1.79,3.62,-0.0,0.06,-0.15,0.0,3295.0,3902.0,1265.0,2305.0,4095.0,4095.0,4095.0,4095.0,-8.24,-4.08,-0.31,-0.06,-0.01,-0.02,1.0,person
3251.0,976.0,3601.0,3121.0,3525.0,3876.0,4095.0,4095.0,9.67,-2.04,3.65,0.01,0.07,-0.14,0.0,3297.0,3913.0,1082.0,2320.0,4095.0,4095.0,4095.0,4095.0,-8.32,-4.22,-0.32,0.04,-0.03,-0.01,1.0,person
3261.0,988.0,3620.0,3105.0,3549.0,3825.0,4095.0,4095.0,9.79,-2.02,3.6,-0.02,-0.01,-0.12,0.0,3297.0,3905.0,1003.0,2327.0,4095.0,4095.0,4095.0,4095.0,-8.32,-4.2,-0.55,-0.08,0.04,-0.04,1.0,person
3236.0,979.0,3618.0,3136.0,3519.0,3856.0,4095.0,4095.0,9.73,-2.04,3.6,-0.01,-0.1,-0.21,0.0,3280.0,3882.0,992.0,2326.0,4095.0,4095.0,4095.0,4095.0,-8.25,-4.01,-0.51,0.06,-0.04,-0.04,1.0,person
3260.0,993.0,3605.0,3134.0,3521.0,3827.0,4095.0,4095.0,9.8,-1.92,3.54,-0.01,-0.04,-0.15,0.0,3286.0,3888.0,977.0,2339.0,4095.0,4095.0,4095.0,4095.0,-8.74,-4.49,-0.46,0.03,-0.07,-0.09,1.0,person
3189.0,1013.0,2385.0,3883.0,3095.0,3120.0,4095.0,3408.0,7.72,-4.56,6.71,0.09,-0.05,-0.12,0.0,2707.0,3655.0,1090.0,3217.0,4095.0,4095.0,4095.0,4095.0,-6.23,-6.04,1.96,0.17,-0.03,-0.02,1.0,person
3184.0,1344.0,2427.0,3940.0,3126.0,3142.0,4095.0,3479.0,9.14,-6.05,7.73,-0.02,-0.04,0.07,0.0,2685.0,3859.0,1008.0,3215.0,4095.0,4095.0,4095.0,4095.0,-6.34,-6.2,2.18,0.07,-0.01,-0.2,1.0,person
3186.0,1714.0,2545.0,3949.0,3141.0,3245.0,4095.0,3536.0,12.19,-6.66,8.9,0.35,-0.32,-0.78,0.0,1362.0,4095.0,954.0,2938.0,4095.0,4095.0,4095.0,4095.0,-15.15,-10.34,2.78,0.16,1.33,1.81,1.0,person
3181.0,1281.0,2816.0,3917.0,3150.0,3326.0,4095.0,3677.0,12.35,-5.8,9.56,2.23,0.41,-3.03,0.0,912.0,4095.0,971.0,2491.0,4095.0,4095.0,4095.0,4095.0,-9.85,-5.48,1.16,1.3,-0.12,4.37,1.0,person
3202.0,983.0,3039.0,3071.0,3365.0,3795.0,4095.0,4095.0,2.21,3.41,6.11,0.99,-0.0,-4.22,0.0,938.0,4095.0,3025.0,2453.0,4095.0,4095.0,4095.0,0.0,-2.51,4.17,-0.0,-0.08,0.65,1.09,1.0,person
3539.0,973.0,3199.0,3005.0,3467.0,4095.0,4095.0,3743.0,3.79,5.08,5.71,0.56,-0.96,-0.65,0.0,916.0,4095.0,3166.0,2538.0,4095.0,4095.0,4095.0,0.0,-3.5,5.16,0.51,-0.27,0.01,-0.31,1.0,person
3767.0,976.0,3209.0,3069.0,3399.0,4095.0,4095.0,4095.0,-1.61,3.03,6.69,0.19,-1.11,2.7,0.0,2704.0,4095.0,3142.0,2470.0,2722.0,4095.0,4095.0,1147.0,0.72,0.39,0.76,-1.75,-0.28,-5.97,1.0,person
3834.0,1006.0,3257.0,3089.0,3475.0,4095.0,4095.0,4095.0,17.76,-4.66,3.33,-0.36,-0.71,0.98,0.0,3399.0,3974.0,3387.0,2336.0,4095.0,4095.0,4095.0,4095.0,-18.65,-12.37,2.05,-1.87,1.45,-3.31,1.0,person
3870.0,977.0,3198.0,3071.0,3461.0,4095.0,4095.0,4095.0,9.46,-2.31,3.83,0.16,-0.01,-0.34,0.0,3415.0,3997.0,3145.0,2399.0,4095.0,4095.0,4095.0,4095.0,-7.91,-4.37,-0.39,-0.07,0.06,-0.03,1.0,person
3873.0,982.0,3217.0,3111.0,3408.0,4095.0,4095.0,4095.0,9.74,-2.59,3.82,0.08,0.22,-0.21,0.0,3426.0,3984.0,3056.0,2403.0,4095.0,4095.0,4095.0,4095.0,-8.13,-5.11,-0.03,-0.17,0.08,-0.05,1.0,person
3858.0,976.0,3197.0,3122.0,3525.0,4095.0,4095.0,4095.0,9.63,-2.39,3.81,0.03,-0.11,-0.17,0.0,3408.0,3970.0,3054.0,2421.0,4095.0,4095.0,4095.0,4095.0,-8.01,-4.62,-0.4,-0.1,0.02,-0.03,1.0,person
3897.0,987.0,3211.0,3117.0,3521.0,4095.0,4095.0,4095.0,9.83,-2.46,3.85,0.09,-0.06,-0.13,0.0,3431.0,3978.0,3053.0,2419.0,4095.0,4095.0,4095.0,4095.0,-8.18,-4.72,-0.29,-0.1,0.05,-0.04,1.0,person
3877.0,983.0,3216.0,3102.0,3504.0,4095.0,4095.0,4095.0,9.58,-2.4,3.84,0.05,-0.05,-0.18,0.0,3430.0,3978.0,3061.0,2426.0,4095.0,4095.0,4095.0,4095.0,-8.18,-4.77,-0.34,-0.09,0.0,-0.04,1.0,person
3888.0,998.0,3217.0,3125.0,3509.0,4095.0,4095.0,4095.0,9.57,-2.37,3.79,0.03,-0.01,-0.16,0.0,3422.0,3970.0,3050.0,2421.0,4095.0,4095.0,4095.0,4095.0,-8.05,-4.85,-0.43,-0.07,-0.0,-0.06,1.0,person
3878.0,979.0,3217.0,3110.0,3511.0,4095.0,4095.0,4095.0,9.75,-2.38,3.81,0.0,-0.02,-0.16,0.0,3418.0,3994.0,3056.0,2419.0,4095.0,4095.0,4095.0,4095.0,-7.98,-4.64,-0.41,-0.1,0.04,-0.01,1.0,person
3885.0,999.0,3218.0,3114.0,3487.0,4095.0,4095.0,4095.0,9.85,-2.42,3.73,-0.02,0.01,-0.11,0.0,3418.0,4003.0,3056.0,2431.0,4095.0,4095.0,4095.0,4095.0,-7.97,-4.77,-0.38,-0.07,0.03,-0.03,1.0,person
3856.0,990.0,3242.0,3118.0,3502.0,4095.0,4095.0,4095.0,9.75,-2.37,3.74,0.01,-0.07,-0.13,0.0,3418.0,3992.0,3058.0,2439.0,4095.0,4095.0,4095.0,4095.0,-8.05,-4.81,-0.5,-0.04,0.02,-0.05,1.0,person
3878.0,1008.0,3231.0,3121.0,3516.0,4095.0,4095.0,4095.0,9.64,-2.47,3.84,0.02,0.04,-0.12,0.0,3415.0,3962.0,3049.0,2443.0,4095.0,4095.0,4095.0,4095.0,-8.01,-4.74,-0.52,-0.08,0.01,-0.06,1.0,person
3838.0,1001.0,3244.0,3109.0,3484.0,4095.0,4095.0,4095.0,9.78,-2.55,3.82,0.06,-0.03,-0.12,0.0,3423.0,3984.0,3056.0,2445.0,4095.0,4095.0,4095.0,4095.0,-7.93,-4.76,-0.56,-0.09,0.04,-0.05,1.0,person
3865.0,997.0,3255.0,3117.0,3485.0,4095.0,4095.0,4095.0,9.83,-2.53,3.7,0.0,-0.1,-0.2,0.0,3408.0,3979.0,3051.0,2443.0,4095.0,4095.0,4095.0,4095.0,-7.94,-4.78,-0.58,-0.11,0.02,-0.03,1.0,person
3188.0,969.0,2645.0,4095.0,3150.0,3187.0,4060.0,3473.0,9.6,-3.39,6.01,0.01,0.04,-0.15,0.0,1904.0,3647.0,1007.0,3190.0,4095.0,4095.0,4095.0,4095.0,-7.41,-5.89,0.98,-0.03,-0.0,-0.04,1.0,person
3195.0,976.0,2527.0,4095.0,3162.0,3184.0,4046.0,3413.0,10.13,-3.36,6.54,0.01,-0.03,-0.24,0.0,2085.0,3502.0,1499.0,3151.0,4095.0,4095.0,4095.0,4095.0,-8.04,-5.94,1.18,-0.08,0.01,0.03,1.0,person
3161.0,997.0,2352.0,4095.0,3169.0,3202.0,4015.0,3418.0,14.6,-3.21,8.22,0.17,0.14,-0.95,0.0,2007.0,3642.0,1523.0,3071.0,4095.0,4095.0,4095.0,4095.0,-10.42,-6.24,1.72,-0.12,0.27,0.5,1.0,person
3119.0,976.0,2591.0,3947.0,3209.0,3322.0,4095.0,3684.0,12.14,-1.83,6.88,1.42,1.34,-3.77,0.0,1170.0,4095.0,963.0,2837.0,4095.0,4095.0,4095.0,4095.0,-8.54,-3.63,0.35,0.48,-0.03,3.56,1.0,person
3184.0,1031.0,2742.0,3312.0,3243.0,3485.0,4095.0,4095.0,7.66,0.95,4.35,1.43,-0.06,-4.46,0.0,915.0,4095.0,941.0,2316.0,4095.0,4095.0,4095.0,4095.0,-4.73,0.03,1.3,0.28,0.12,2.74,1.0,person
4095.0,976.0,3733.0,2999.0,3504.0,4095.0,4095.0,4095.0,4.06,6.05,6.7,0.05,0.06,-0.34,0.0,931.0,4095.0,967.0,2370.0,4095.0,4095.0,4095.0,4095.0,-4.72,3.29,1.36,-0.01,-0.1,0.77,1.0,person
4095.0,977.0,3762.0,3039.0,3533.0,4095.0,4095.0,4095.0,-0.63,4.32,6.05,-0.1,-0.87,2.18,0.0,917.0,4095.0,986.0,2427.0,4095.0,4095.0,4095.0,4095.0,-3.86,5.02,1.63,0.11,-0.22,-0.32,1.0,person
4025.0,970.0,3632.0,2892.0,3345.0,4067.0,4095.0,4095.0,5.45,-2.26,3.47,-1.33,-2.04,6.69,0.0,931.0,4095.0,982.0,2455.0,4095.0,4095.0,4095.0,4095.0,2.16,1.15,0.21,-0.53,0.14,-4.18,1.0,person
3700.0,959.0,3482.0,3019.0,3437.0,4095.0,4095.0,4095.0,24.03,-5.79,1.22,0.44,-0.37,1.49,0.0,975.0,4095.0,1451.0,2403.0,4095.0,4095.0,4095.0,4095.0,-13.85,-6.83,0.15,-0.22,0.64,-0.5,1.0,person
3729.0,970.0,3343.0,3024.0,3375.0,4095.0,4095.0,4095.0,11.51,-1.41,4.61,0.15,-0.15,-0.48,0.0,1038.0,4095.0,1360.0,2409.0,4095.0,4095.0,4095.0,4095.0,-8.29,-4.65,-0.06,-0.14,0.4,0.09,1.0,person
3785.0,960.0,3305.0,3036.0,3420.0,4095.0,4095.0,4095.0,9.83,-1.85,3.78,-0.03,-0.12,-0.14,0.0,1037.0,4095.0,1304.0,2419.0,4095.0,4095.0,4095.0,4095.0,-7.89,-4.97,0.05,-0.01,0.27,0.0,1.0,person
3782.0,963.0,3294.0,3029.0,3377.0,4095.0,4095.0,4095.0,9.73,-1.71,3.95,0.04,-0.18,-0.21,0.0,1043.0,4095.0,1278.0,2442.0,4095.0,4095.0,4095.0,4095.0,-8.05,-4.75,-0.22,-0.05,0.08,0.01,1.0,person
3757.0,959.0,3301.0,3049.0,3374.0,4079.0,4095.0,4095.0,9.61,-1.85,3.77,0.07,0.1,-0.16,0.0,1056.0,4095.0,1265.0,2448.0,4095.0,4095.0,4095.0,4095.0,-8.15,-4.85,-0.25,-0.06,-0.03,-0.03,1.0,person
3786.0,959.0,3292.0,3046.0,3374.0,4066.0,4095.0,4095.0,10.04,-2.0,3.58,0.07,0.1,-0.12,0.0,1073.0,4095.0,1254.0,2454.0,4095.0,4095.0,4095.0,4095.0,-8.05,-4.77,-0.22,-0.1,0.02,-0.05,1.0,person
3786.0,965.0,3312.0,3062.0,3375.0,4095.0,4095.0,4095.0,10.11,-1.96,3.53,0.06,0.03,-0.12,0.0,1091.0,4095.0,1248.0,2457.0,4095.0,4095.0,4095.0,4095.0,-8.14,-4.87,-0.2,-0.12,-0.03,-0.04,1.0,person
3773.0,970.0,3298.0,3065.0,3347.0,4063.0,4095.0,4095.0,9.96,-1.93,3.69,0.04,-0.04,-0.15,0.0,1085.0,4095.0,1247.0,2459.0,4095.0,4095.0,4095.0,4095.0,-8.11,-4.86,-0.16,-0.09,0.04,-0.03,1.0,person
3799.0,966.0,3283.0,3050.0,3376.0,4095.0,4095.0,4095.0,9.84,-1.8,3.45,0.03,-0.02,-0.15,0.0,1095.0,4095.0,1231.0,2462.0,4095.0,4095.0,4095.0,4095.0,-7.97,-4.77,-0.27,-0.09,0.05,-0.02,1.0,person
3762.0,964.0,3295.0,3056.0,3365.0,4060.0,4095.0,4095.0,9.73,-1.83,3.61,0.02,0.0,-0.15,0.0,1098.0,4095.0,1232.0,2458.0,4095.0,4095.0,4095.0,4095.0,-8.07,-4.85,-0.31,-0.07,0.04,-0.03,1.0,person
3801.0,965.0,3290.0,3060.0,3387.0,4078.0,4095.0,4095.0,9.84,-1.87,3.62,0.01,-0.07,-0.18,0.0,1102.0,4095.0,1230.0,2463.0,4095.0,4095.0,4095.0,4095.0,-8.09,-4.82,-0.28,-0.03,0.05,-0.03,1.0,person
3823.0,963.0,3311.0,3058.0,3376.0,4069.0,4095.0,4095.0,9.63,-1.82,3.65,-0.02,-0.07,-0.17,0.0,1127.0,4095.0,1215.0,2460.0,4095.0,4095.0,4095.0,4095.0,-8.04,-4.82,-0.33,-0.08,0.02,-0.03,1.0,person
3224.0,962.0,2888.0,3861.0,3056.0,3207.0,4071.0,3445.0,9.73,-3.06,4.8,-0.04,0.01,-0.12,0.0,2463.0,3509.0,1275.0,3222.0,4095.0,4095.0,4095.0,4095.0,-7.93,-6.22,0.46,0.2,-0.18,0.06,1.0,person
3209.0,960.0,2871.0,3933.0,3061.0,3229.0,4019.0,3472.0,10.51,-3.11,5.1,0.08,0.18,-0.39,0.0,2603.0,3114.0,1919.0,3223.0,4095.0,4095.0,4095.0,4095.0,-7.43,-5.91,0.35,0.19,-0.05,-0.1,1.0,person
3189.0,962.0,2924.0,4095.0,3085.0,3274.0,4095.0,3553.0,14.73,-3.27,6.68,0.24,0.35,-1.32,0.0,2190.0,3826.0,1343.0,3265.0,4095.0,4095.0,4095.0,4095.0,-10.54,-7.22,0.31,0.02,0.15,0.17,1.0,person
3155.0,1008.0,2923.0,4095.0,3130.0,3335.0,4095.0,3641.0,13.69,-1.34,4.77,0.74,0.64,-3.8,0.0,1927.0,4095.0,967.0,3280.0,4095.0,4095.0,4095.0,4095.0,-16.24,-9.09,0.48,0.13,-0.03,3.05,1.0,person
3123.0,1040.0,2750.0,3920.0,3200.0,3408.0,4095.0,3954.0,7.0,0.65,4.71,1.27,1.48,-5.57,0.0,1975.0,4095.0,975.0,3035.0,4095.0,4095.0,4095.0,4095.0,-8.72,-5.12,0.96,0.3,0.06,6.06,1.0,person
3683.0,976.0,3547.0,3201.0,3362.0,3626.0,4095.0,3876.0,-2.97,4.61,5.6,-0.08,0.7,-2.26,0.0,920.0,4095.0,1262.0,2502.0,2950.0,4095.0,4095.0,2749.0,1.59,1.18,0.15,-0.01,-0.8,3.53,1.0,person
3810.0,977.0,3634.0,3008.0,3420.0,4080.0,4095.0,4090.0,3.48,7.76,7.02,-0.09,0.03,0.74,0.0,917.0,4095.0,998.0,2510.0,2913.0,4095.0,4095.0,1558.0,-4.57,5.97,1.63,-0.16,-0.22,-0.62,1.0,person
4053.0,974.0,3822.0,2997.0,3467.0,4017.0,4095.0,4095.0,0.45,-3.76,3.41,-0.54,-3.43,6.98,0.0,1885.0,4095.0,1017.0,2480.0,4095.0,4095.0,4095.0,809.0,5.04,1.31,-0.04,-0.64,-0.3,-3.97,1.0,person
3487.0,963.0,3781.0,3039.0,3285.0,3983.0,4095.0,4095.0,28.0,-7.72,2.84,0.27,0.49,0.78,0.0,3781.0,4095.0,1502.0,2398.0,4095.0,4095.0,4095.0,4095.0,-14.52,-6.98,-0.23,-1.01,1.55,-0.42,1.0,person
3566.0,963.0,3483.0,3056.0,3363.0,4080.0,4095.0,4095.0,10.07,-0.76,5.03,0.13,0.19,-0.29,0.0,3761.0,4095.0,1437.0,2418.0,4095.0,4095.0,4095.0,4095.0,-6.96,-4.18,0.02,-0.04,0.3,0.03,1.0,person
3571.0,975.0,3410.0,3071.0,3330.0,4080.0,4095.0,4095.0,9.2,-1.61,4.21,0.08,-0.19,-0.23,0.0,3771.0,4095.0,1426.0,2437.0,4095.0,4095.0,4095.0,4095.0,-8.09,-5.57,-0.07,-0.13,0.1,0.01,1.0,person
3565.0,992.0,3422.0,3089.0,3417.0,4000.0,4095.0,4095.0,9.9,-1.7,4.23,0.01,0.03,-0.05,0.0,3787.0,4095.0,1398.0,2448.0,4095.0,4095.0,4095.0,4095.0,-7.77,-4.94,0.3,0.14,-0.03,0.12,1.0,person
3555.0,973.0,3423.0,3071.0,3420.0,4043.0,4095.0,4095.0,10.06,-1.92,4.04,-0.02,-0.04,-0.11,0.0,4095.0,4095.0,1230.0,2465.0,4095.0,4095.0,4095.0,4095.0,-7.8,-4.98,-0.15,-0.02,0.05,0.03,1.0,person
3531.0,976.0,3408.0,3101.0,3408.0,4019.0,4095.0,4095.0,9.91,-1.98,3.88,-0.05,-0.01,-0.12,0.0,4095.0,4095.0,1200.0,2455.0,4095.0,4095.0,4095.0,4095.0,-7.84,-4.76,0.01,0.01,0.07,0.0,1.0,person
3568.0,974.0,3417.0,3097.0,3399.0,4027.0,4095.0,4095.0,9.93,-2.04,3.83,-0.07,0.01,-0.08,0.0,4095.0,4095.0,1139.0,2455.0,4095.0,4095.0,4095.0,4095.0,-8.15,-4.92,-0.13,-0.02,0.13,0.03,1.0,person
3557.0,976.0,3440.0,3100.0,3425.0,4011.0,4095.0,4095.0,9.99,-2.15,3.89,-0.1,0.19,-0.08,0.0,4095.0,4095.0,1142.0,2455.0,4095.0,4095.0,4095.0,4095.0,-8.08,-4.75,0.09,0.01,0.05,0.03,1.0,person
3557.0,976.0,3443.0,3101.0,3434.0,4032.0,4095.0,4095.0,9.62,-1.98,4.08,-0.03,0.04,-0.13,0.0,4095.0,4095.0,1152.0,2465.0,4095.0,4095.0,4095.0,4095.0,-8.03,-4.75,-0.17,-0.02,0.1,0.01,1.0,person
3537.0,965.0,3429.0,3099.0,3433.0,3970.0,4095.0,4095.0,9.97,-2.1,3.93,-0.0,0.05,-0.18,0.0,4095.0,4095.0,1131.0,2471.0,4095.0,4095.0,4095.0,4095.0,-7.96,-4.73,-0.15,-0.04,-0.0,-0.02,1.0,person
3563.0,980.0,3451.0,3094.0,3403.0,3991.0,4095.0,4095.0,9.75,-2.19,4.04,0.0,0.17,-0.12,0.0,4022.0,4095.0,1091.0,2464.0,4095.0,4095.0,4095.0,4095.0,-7.82,-4.76,-0.11,-0.06,-0.05,-0.07,1.0,person
3536.0,953.0,3443.0,3093.0,3405.0,3981.0,4095.0,4095.0,9.89,-2.24,4.11,0.0,0.07,-0.1,0.0,3996.0,4095.0,1072.0,2450.0,4095.0,4095.0,4095.0,4095.0,-8.04,-4.77,0.01,-0.07,-0.05,-0.07,1.0,person
3169.0,934.0,2918.0,4029.0,3070.0,3235.0,3956.0,4046.0,1.81,-5.65,11.8,-0.04,-0.68,0.55,0.0,1974.0,3057.0,2240.0,3323.0,4095.0,4090.0,4095.0,4095.0,-2.26,-2.87,6.61,0.69,0.97,-2.1,1.0,person
3181.0,946.0,2929.0,4017.0,3087.0,3234.0,3989.0,4010.0,4.2,-5.18,11.53,0.18,-1.76,0.33,0.0,976.0,3776.0,944.0,3297.0,4095.0,4095.0,4095.0,4095.0,-6.84,-4.27,5.58,0.03,1.67,-1.93,1.0,person
3174.0,944.0,3031.0,4023.0,3087.0,3230.0,4049.0,3981.0,6.2,-5.51,10.9,0.08,-2.23,-0.08,0.0,961.0,3740.0,940.0,3265.0,4095.0,4095.0,4095.0,4095.0,-6.74,-4.28,3.97,-0.2,1.56,-1.62,1.0,person
3195.0,953.0,3312.0,4045.0,3103.0,3215.0,4014.0,3813.0,5.83,-5.81,8.84,-1.37,0.85,0.19,0.0,979.0,3555.0,945.0,3248.0,4095.0,4095.0,4095.0,4095.0,-8.39,-7.71,5.76,-0.52,-0.16,-1.4,1.0,person
3218.0,960.0,3121.0,4095.0,2989.0,3200.0,4047.0,3855.0,5.41,-7.18,9.26,-0.4,-0.06,-0.39,0.0,976.0,3642.0,937.0,3223.0,4095.0,4095.0,4095.0,4095.0,-6.02,-6.11,4.22,-0.25,0.65,0.44,1.0,person
3209.0,963.0,3115.0,4095.0,3022.0,3216.0,4057.0,3827.0,5.66,-7.47,9.18,-0.16,-0.13,-0.2,0.0,969.0,3539.0,940.0,3165.0,4095.0,4095.0,4095.0,4095.0,-4.88,-6.2,5.87,-0.58,-0.37,-0.13,1.0,person
3215.0,981.0,3119.0,4095.0,3021.0,3200.0,4050.0,3850.0,5.39,-7.1,8.39,0.24,-0.38,-0.13,0.0,975.0,3568.0,951.0,3199.0,4095.0,4095.0,4095.0,4095.0,-4.63,-6.04,4.9,-0.3,0.12,-0.27,1.0,person
3225.0,976.0,3175.0,4095.0,3031.0,3213.0,4001.0,3774.0,5.98,-7.5,8.84,0.59,-0.24,-0.16,0.0,991.0,3569.0,947.0,3275.0,4095.0,4095.0,4095.0,4095.0,-4.65,-6.28,3.74,-0.03,0.09,0.18,1.0,person
3237.0,966.0,3130.0,4095.0,2943.0,3205.0,3990.0,3741.0,5.86,-7.32,8.53,0.08,-0.03,0.08,0.0,1003.0,3580.0,957.0,3247.0,4095.0,4095.0,4095.0,4095.0,-5.55,-7.32,3.95,-0.23,0.02,-0.14,1.0,person
3232.0,986.0,3057.0,4095.0,2998.0,3184.0,4014.0,3776.0,5.54,-6.75,8.6,0.12,0.0,-0.16,0.0,969.0,4095.0,945.0,3333.0,4095.0,4095.0,4095.0,4095.0,-5.96,-7.33,3.8,0.05,0.16,0.13,1.0,person
3225.0,981.0,2886.0,4095.0,3007.0,3169.0,4007.0,3726.0,5.53,-6.63,8.75,-0.09,0.11,-0.02,0.0,1168.0,4095.0,1023.0,3321.0,4095.0,4095.0,4095.0,4095.0,-5.37,-6.99,3.82,-0.13,-0.17,0.05,1.0,person
3205.0,979.0,2716.0,4095.0,2992.0,3207.0,4001.0,3762.0,5.61,-6.63,9.16,-0.02,0.1,-0.11,0.0,1319.0,3803.0,1324.0,3289.0,4095.0,4095.0,4095.0,4095.0,-4.8,-6.12,3.75,-0.0,0.17,-0.11,1.0,person
3207.0,987.0,2727.0,4095.0,2957.0,3209.0,4031.0,3747.0,6.43,-7.22,9.01,0.15,-0.11,-0.09,0.0,951.0,3953.0,946.0,2940.0,4095.0,3931.0,4095.0,4095.0,-5.65,-7.21,3.93,-0.11,-0.21,-0.16,1.0,person
3207.0,991.0,2723.0,4095.0,2963.0,3219.0,4007.0,3745.0,6.02,-6.7,9.2,0.36,-0.27,-0.32,0.0,945.0,4022.0,941.0,2834.0,4095.0,3952.0,4095.0,4095.0,-5.4,-6.55,4.22,-0.14,-0.04,0.02,1.0,person
3225.0,977.0,2690.0,4095.0,2992.0,3205.0,4021.0,3753.0,6.53,-6.45,9.35,0.26,-0.08,-0.19,0.0,944.0,3991.0,937.0,2867.0,4095.0,4000.0,4095.0,4095.0,-5.89,-7.57,4.33,-0.09,-0.08,-0.01,1.0,person
3158.0,959.0,2666.0,4095.0,3186.0,3255.0,4037.0,3675.0,16.78,-12.27,14.01,1.51,-2.11,-2.83,0.0,958.0,3998.0,939.0,2991.0,4095.0,4095.0,4095.0,4095.0,-14.91,-12.7,6.93,0.5,1.19,1.7,1.0,person
3027.0,3248.0,2437.0,3491.0,3280.0,3529.0,4095.0,4095.0,6.53,-7.97,3.83,5.09,2.95,-8.73,0.0,946.0,4095.0,938.0,2483.0,2996.0,4095.0,4095.0,1713.0,8.98,-2.76,0.21,1.16,-2.12,4.26,1.0,person
3392.0,960.0,4095.0,2981.0,3363.0,4080.0,4095.0,4095.0,18.42,-7.72,-1.78,-3.46,-3.79,8.73,0.0,931.0,4095.0,944.0,2435.0,3214.0,4095.0,4095.0,3054.0,6.26,0.35,0.08,-2.74,0.86,-5.05,1.0,person
3444.0,970.0,3952.0,3088.0,3362.0,4095.0,4095.0,4095.0,10.14,-3.22,5.75,0.33,-0.23,-0.28,0.0,911.0,4095.0,949.0,2287.0,4095.0,4095.0,4095.0,4095.0,-12.46,-6.91,1.78,-0.07,0.89,-0.29,1.0,person
3471.0,973.0,3794.0,3119.0,3419.0,4072.0,4095.0,4095.0,8.94,-3.14,5.18,-0.01,-0.13,-0.21,0.0,912.0,4095.0,950.0,2365.0,4095.0,4095.0,4095.0,4095.0,-7.49,-5.45,0.89,0.0,0.03,-0.03,1.0,person
3293.0,976.0,3221.0,3936.0,3094.0,3244.0,4095.0,3859.0,6.38,-7.31,6.11,0.5,-0.07,-0.22,0.0,3614.0,4081.0,951.0,3194.0,4095.0,4095.0,4095.0,4095.0,-4.58,-7.52,2.62,0.09,-0.06,0.06,1.0,person
3277.0,965.0,3207.0,3951.0,3097.0,3239.0,4095.0,3888.0,6.09,-6.86,6.13,0.33,-0.19,-0.25,0.0,3600.0,4065.0,954.0,3198.0,4095.0,4095.0,4095.0,4095.0,-4.83,-7.52,2.47,0.08,0.11,-0.06,1.0,person
3280.0,967.0,3219.0,3993.0,3120.0,3244.0,4095.0,3853.0,6.46,-6.63,6.51,0.12,-0.27,-0.08,0.0,3600.0,4035.0,957.0,3187.0,4095.0,4064.0,4095.0,4095.0,-4.91,-7.52,2.3,0.02,0.07,-0.07,1.0,person
3275.0,971.0,3230.0,3943.0,3107.0,3217.0,4095.0,3858.0,7.27,-7.07,7.27,-0.08,-0.83,-0.27,0.0,3395.0,3924.0,957.0,3179.0,4095.0,4095.0,4095.0,4095.0,-6.3,-8.45,3.77,-0.12,0.32,0.19,1.0,person
3045.0,1018.0,3051.0,3979.0,3318.0,3351.0,4095.0,3873.0,14.76,-6.69,9.18,1.29,-0.28,-2.23,0.0,1999.0,3374.0,1603.0,3237.0,4095.0,4095.0,4095.0,4095.0,-11.18,-7.03,7.34,0.89,0.45,0.72,1.0,person
3098.0,1361.0,2878.0,4095.0,3237.0,3468.0,4095.0,3999.0,4.95,-1.19,2.7,1.84,1.5,-5.96,0.0,2793.0,4095.0,959.0,3120.0,4095.0,4095.0,4095.0,4095.0,-4.57,-7.56,1.1,1.44,1.29,5.37,1.0,person
3280.0,1008.0,3025.0,3439.0,3291.0,3497.0,4095.0,4095.0,0.85,4.26,4.73,-0.01,1.25,-1.57,0.0,1783.0,4095.0,1319.0,2358.0,3050.0,4095.0,4095.0,4095.0,-0.43,1.19,0.11,0.14,1.69,2.84,1.0,person
3865.0,981.0,3408.0,3029.0,3389.0,3838.0,4095.0,4095.0,-4.32,4.1,4.83,-0.54,-1.16,1.65,0.0,1441.0,4095.0,1088.0,2369.0,4095.0,4095.0,4095.0,4095.0,-5.62,5.22,0.64,-0.27,0.07,-0.14,1.0,person
3569.0,976.0,3456.0,3097.0,3440.0,4095.0,4095.0,4095.0,11.21,-1.2,6.39,0.08,0.07,-0.88,0.0,4095.0,4095.0,1213.0,2369.0,4095.0,4095.0,4095.0,4095.0,-14.41,-6.38,0.34,-0.61,1.24,-0.12,1.0,person
3571.0,972.0,3407.0,3118.0,3440.0,4095.0,4095.0,4095.0,8.82,-1.85,6.57,0.08,-0.05,-0.34,0.0,1329.0,4095.0,1110.0,2393.0,4095.0,4095.0,4095.0,4095.0,-7.89,-3.26,0.33,0.11,0.06,0.23,1.0,person
3583.0,971.0,3428.0,3121.0,3485.0,4095.0,4095.0,4095.0,9.57,-1.98,6.55,0.06,-0.33,-0.27,0.0,1282.0,4095.0,985.0,2410.0,4095.0,4095.0,4095.0,4095.0,-8.29,-4.02,-0.15,0.02,0.02,0.05,1.0,person
3600.0,961.0,3423.0,3136.0,3489.0,4095.0,4095.0,4095.0,9.59,-1.3,5.87,0.14,-0.1,-0.25,0.0,1248.0,4095.0,991.0,2402.0,4095.0,4095.0,4095.0,4095.0,-8.37,-4.06,-0.15,-0.1,-0.0,0.02,1.0,person
3581.0,963.0,3435.0,3130.0,3459.0,4095.0,4095.0,4095.0,9.83,-1.48,5.89,0.05,-0.15,-0.18,0.0,1262.0,4095.0,983.0,2416.0,4095.0,4095.0,4095.0,4095.0,-8.66,-4.02,-0.21,-0.1,-0.02,0.01,1.0,person
3613.0,954.0,3440.0,3135.0,3471.0,4095.0,4095.0,4095.0,10.0,-1.44,5.93,0.06,-0.05,-0.16,0.0,1246.0,4095.0,988.0,2420.0,4095.0,4095.0,4095.0,4095.0,-8.49,-4.15,0.25,-0.04,-0.06,-0.0,1.0,person
3602.0,960.0,3455.0,3148.0,3494.0,4095.0,4095.0,4095.0,9.56,-1.51,6.03,0.07,0.01,-0.15,0.0,1232.0,4095.0,962.0,2417.0,4095.0,4095.0,4095.0,4095.0,-8.67,-4.19,0.09,-0.09,0.06,-0.02,1.0,person
3601.0,966.0,3440.0,3152.0,3487.0,4095.0,4095.0,4095.0,9.8,-1.55,5.97,0.04,-0.04,-0.19,0.0,1231.0,4095.0,976.0,2423.0,4095.0,4095.0,4095.0,4095.0,-8.51,-4.28,0.19,-0.09,-0.05,-0.05,1.0,person
3571.0,962.0,3467.0,3147.0,3486.0,4087.0,4095.0,4095.0,9.5,-1.33,5.86,0.08,-0.06,-0.16,0.0,1237.0,4095.0,987.0,2416.0,4095.0,4095.0,4095.0,4095.0,-8.41,-3.95,-0.04,-0.06,-0.05,-0.02,1.0,person
3629.0,976.0,3450.0,3148.0,3444.0,4044.0,4095.0,4095.0,9.72,-1.66,6.0,0.01,-0.03,-0.13,0.0,1222.0,4095.0,976.0,2425.0,4095.0,4095.0,4095.0,4095.0,-8.26,-4.11,0.03,-0.04,-0.04,-0.03,1.0,person
3583.0,967.0,3459.0,3141.0,3433.0,4054.0,4095.0,4095.0,9.96,-1.41,5.98,-0.06,0.05,-0.14,0.0,1202.0,4095.0,993.0,2421.0,4095.0,4095.0,4095.0,4095.0,-8.5,-4.21,0.11,-0.08,0.03,-0.06,1.0,person
3583.0,975.0,3439.0,3166.0,3456.0,4050.0,4095.0,4095.0,9.86,-1.42,5.76,-0.0,0.04,-0.12,0.0,1210.0,4095.0,979.0,2427.0,4095.0,4095.0,4095.0,4095.0,-8.37,-4.16,0.12,-0.07,0.03,-0.03,1.0,person
3103.0,947.0,3102.0,4095.0,3085.0,3017.0,3677.0,3511.0,2.17,-6.08,10.16,1.49,-0.25,-0.05,0.0,4023.0,3493.0,1040.0,3281.0,4095.0,3029.0,4095.0,4095.0,0.68,-4.1,10.37,-0.86,-0.78,0.82,1.0,person
3119.0,960.0,3087.0,4095.0,2863.0,2994.0,3659.0,3456.0,0.35,-4.42,9.92,-0.09,-2.16,0.03,0.0,942.0,3159.0,2271.0,3274.0,4095.0,2641.0,3888.0,4095.0,-4.76,-2.27,8.3,0.11,0.23,0.26,1.0,person
3119.0,951.0,3131.0,4095.0,2966.0,2988.0,3646.0,3454.0,5.52,-7.1,10.48,0.12,-2.42,0.35,0.0,1264.0,3234.0,1042.0,3395.0,4095.0,3143.0,4095.0,4095.0,-1.05,-1.38,8.92,0.9,0.85,-1.35,1.0,person
3095.0,947.0,3200.0,4095.0,2896.0,3115.0,3787.0,3547.0,11.83,-6.9,15.2,1.77,-1.42,-0.37,0.0,1939.0,3327.0,1232.0,3649.0,4095.0,4095.0,4095.0,4095.0,-8.85,-3.0,12.3,0.23,1.33,-1.85,1.0,person
3041.0,1046.0,3202.0,4007.0,2896.0,3293.0,3963.0,3601.0,12.93,-4.94,8.97,3.42,-1.5,-4.2,0.0,2309.0,3583.0,997.0,2438.0,4095.0,4095.0,4095.0,4095.0,-8.18,-2.49,0.65,1.58,3.23,3.82,1.0,person
3317.0,963.0,3213.0,3333.0,3468.0,4023.0,4095.0,4095.0,-1.24,2.86,4.53,0.57,-0.53,-1.72,0.0,1706.0,3582.0,1296.0,2363.0,4095.0,4095.0,4095.0,4095.0,-2.13,2.11,0.65,0.52,0.14,2.4,1.0,person
3429.0,1001.0,3521.0,2997.0,3509.0,4095.0,4095.0,4095.0,-4.32,1.46,4.08,0.18,-2.94,4.29,0.0,1527.0,3583.0,1451.0,2397.0,4095.0,4095.0,4095.0,1967.0,1.7,4.72,0.83,-0.16,0.02,-0.59,1.0,person
3286.0,967.0,3611.0,3039.0,3466.0,4095.0,4095.0,4095.0,17.9,-3.99,4.05,-2.77,1.63,5.6,0.0,1599.0,3532.0,1438.0,2416.0,4095.0,4095.0,4095.0,4095.0,-20.15,-11.52,0.98,0.62,-0.06,-1.08,1.0,person
3350.0,951.0,3464.0,3145.0,3523.0,4095.0,4095.0,4095.0,9.9,-1.07,5.67,0.22,-0.02,-0.17,0.0,1639.0,3539.0,1127.0,2453.0,4095.0,4095.0,4095.0,4095.0,-7.29,-3.2,1.18,-0.2,0.02,-0.04,1.0,person
3365.0,956.0,3439.0,3169.0,3503.0,4095.0,4095.0,4095.0,9.95,-1.84,5.64,0.12,-0.16,-0.09,0.0,1657.0,3536.0,1104.0,2466.0,4095.0,4095.0,4095.0,4095.0,-9.0,-4.46,0.86,-0.19,0.01,-0.08,1.0,person
3342.0,967.0,3429.0,3169.0,3508.0,4095.0,4095.0,4095.0,9.41,-1.3,5.24,0.13,-0.18,-0.18,0.0,1680.0,3536.0,1091.0,2458.0,4095.0,4095.0,4095.0,4095.0,-8.55,-3.98,0.64,-0.17,0.14,0.05,1.0,person
3357.0,971.0,3437.0,3187.0,3511.0,4095.0,4095.0,4095.0,9.93,-1.5,5.18,0.08,0.17,-0.07,0.0,1702.0,3537.0,1091.0,2455.0,4095.0,4095.0,4095.0,4095.0,-8.63,-4.09,0.42,-0.19,0.08,0.06,1.0,person
3378.0,975.0,3440.0,3186.0,3502.0,4074.0,4095.0,4095.0,9.8,-1.43,5.18,-0.01,0.01,-0.16,0.0,1738.0,3543.0,1088.0,2449.0,4095.0,4095.0,4095.0,4095.0,-8.39,-4.03,0.62,-0.1,0.0,-0.02,1.0,person
3377.0,972.0,3454.0,3191.0,3475.0,4059.0,4095.0,4095.0,9.76,-1.54,5.34,-0.0,0.0,-0.07,0.0,1840.0,3547.0,1040.0,2457.0,4095.0,4095.0,4095.0,4095.0,-8.5,-4.13,0.49,-0.14,-0.06,-0.04,1.0,person
3359.0,963.0,3440.0,3199.0,3510.0,4043.0,4095.0,4095.0,9.64,-1.47,5.25,-0.0,0.1,-0.17,0.0,1866.0,3536.0,1003.0,2466.0,4095.0,4095.0,4095.0,4095.0,-8.54,-3.98,0.61,-0.09,-0.02,-0.06,1.0,person
3358.0,963.0,3439.0,3184.0,3500.0,4081.0,4095.0,4095.0,10.41,-1.57,5.22,0.05,0.16,-0.12,0.0,2453.0,3536.0,946.0,2471.0,4095.0,4095.0,4095.0,4095.0,-8.46,-4.02,0.45,0.0,0.06,-0.06,1.0,person
3383.0,957.0,3361.0,3193.0,3569.0,4048.0,4095.0,4095.0,9.88,-1.6,5.45,0.0,-0.0,-0.15,0.0,2462.0,3541.0,944.0,2480.0,4095.0,4095.0,4095.0,4095.0,-8.39,-3.94,0.58,-0.03,-0.04,-0.03,1.0,person
3361.0,959.0,3349.0,3194.0,3579.0,4009.0,4095.0,4095.0,9.78,-1.72,5.42,-0.0,-0.05,-0.1,0.0,2545.0,3527.0,941.0,2487.0,4095.0,4095.0,4095.0,4095.0,-8.65,-4.38,0.55,-0.12,0.08,-0.09,1.0,person
3355.0,966.0,3329.0,3200.0,3549.0,3998.0,4095.0,4095.0,10.02,-1.7,5.36,-0.01,-0.09,-0.11,0.0,2545.0,3534.0,944.0,2479.0,4095.0,4095.0,4095.0,4095.0,-8.45,-4.28,0.55,-0.04,0.08,-0.06,1.0,person
3374.0,956.0,3344.0,3196.0,3566.0,4016.0,4095.0,4095.0,9.67,-1.52,5.38,-0.0,-0.06,-0.18,0.0,2559.0,3530.0,933.0,2491.0,4095.0,4095.0,4095.0,4095.0,-8.39,-4.12,0.5,-0.0,-0.04,-0.06,1.0,person
3209.0,1009.0,3182.0,3825.0,3084.0,3174.0,4095.0,3527.0,7.59,-5.29,7.59,0.62,-0.12,-0.28,0.0,3709.0,3658.0,927.0,2825.0,4095.0,4095.0,4095.0,4095.0,-5.5,-7.75,4.56,0.0,0.3,-0.38,1.0,person
3219.0,1008.0,3216.0,3812.0,3057.0,3152.0,4063.0,3535.0,7.44,-4.87,6.92,0.07,0.01,-0.06,0.0,3794.0,3653.0,923.0,2753.0,4095.0,4095.0,4095.0,4095.0,-4.61,-7.28,4.02,0.05,0.07,0.14,1.0,person
2928.0,1642.0,3007.0,3909.0,3339.0,3381.0,4095.0,3887.0,10.13,-6.82,12.26,0.11,-0.79,-0.57,0.0,4095.0,3825.0,930.0,3043.0,4095.0,4095.0,4095.0,4095.0,-7.28,-7.07,5.32,-0.31,1.34,0.52,1.0,person
3104.0,1008.0,2434.0,4095.0,3183.0,3579.0,4095.0,4030.0,9.24,0.82,4.97,2.79,-0.27,-6.43,0.0,3030.0,4095.0,943.0,3521.0,4095.0,4095.0,4095.0,4095.0,-10.01,-8.17,3.56,1.18,1.87,4.4,1.0,person
3563.0,989.0,2447.0,3152.0,3283.0,3601.0,4095.0,4095.0,1.16,2.51,5.3,0.51,0.66,-2.96,0.0,3712.0,4095.0,932.0,2416.0,4095.0,4095.0,4095.0,1494.0,-0.63,3.39,-0.47,0.37,-0.85,1.47,1.0,person
4035.0,970.0,3627.0,3095.0,3462.0,3952.0,4095.0,4095.0,1.76,6.13,6.13,0.2,-1.31,1.45,0.0,3671.0,4095.0,937.0,2443.0,4095.0,4095.0,4095.0,1680.0,3.9,3.05,0.13,-0.37,-0.51,-3.32,1.0,person
3953.0,973.0,3961.0,2987.0,3420.0,3978.0,4095.0,4095.0,2.55,-1.71,3.06,-1.44,-3.46,7.28,0.0,3539.0,4095.0,1535.0,2398.0,4095.0,4095.0,4095.0,4095.0,-22.62,-15.36,0.97,-3.35,-0.13,-6.58,1.0,person
3514.0,951.0,3729.0,3041.0,3487.0,4095.0,4095.0,4095.0,9.4,-0.6,5.04,0.09,0.15,-0.75,0.0,3457.0,4095.0,1674.0,2443.0,4095.0,4095.0,4095.0,4095.0,-11.88,-5.03,1.24,-0.1,0.5,-0.46,1.0,person
3503.0,966.0,3715.0,3024.0,3519.0,4087.0,4095.0,4095.0,8.32,-0.93,4.48,-0.32,0.05,0.0,0.0,3449.0,4095.0,1685.0,2451.0,4095.0,4095.0,4095.0,4095.0,-8.61,-5.32,0.58,-0.09,-0.06,0.21,1.0,person
3497.0,958.0,3711.0,3063.0,3504.0,4095.0,4095.0,4095.0,10.4,-1.16,4.81,0.03,-0.14,-0.2,0.0,3445.0,4095.0,1607.0,2437.0,4095.0,4095.0,4095.0,4095.0,-8.36,-4.25,0.48,-0.06,0.16,0.08,1.0,person
3504.0,950.0,3706.0,3050.0,3525.0,4095.0,4095.0,4095.0,9.73,-1.13,4.51,-0.03,0.05,-0.21,0.0,3437.0,4095.0,1604.0,2444.0,4095.0,4095.0,4095.0,4095.0,-8.33,-4.19,0.43,-0.03,0.04,-0.0,1.0,person
3521.0,959.0,3738.0,3061.0,3536.0,4090.0,4095.0,4095.0,10.01,-1.18,4.42,-0.03,0.1,-0.14,0.0,3450.0,4095.0,1614.0,2439.0,4095.0,4095.0,4095.0,4095.0,-8.39,-4.16,0.6,-0.02,-0.11,0.01,1.0,person
3516.0,944.0,3697.0,3089.0,3542.0,4071.0,4095.0,4095.0,10.13,-0.95,4.47,0.03,0.06,-0.12,0.0,3470.0,4095.0,1601.0,2447.0,4095.0,4095.0,4095.0,4095.0,-8.43,-4.22,0.6,0.04,-0.04,-0.0,1.0,person
3537.0,949.0,3712.0,3095.0,3537.0,4063.0,4095.0,4095.0,9.84,-0.95,4.46,0.02,-0.0,-0.18,0.0,3429.0,4095.0,1601.0,2433.0,4095.0,4095.0,4095.0,4095.0,-8.54,-4.14,0.5,-0.09,0.04,-0.03,1.0,person
3516.0,948.0,3731.0,3071.0,3536.0,4053.0,4095.0,4095.0,10.0,-0.96,4.41,0.04,0.06,-0.12,0.0,3447.0,4095.0,1606.0,2431.0,4095.0,4095.0,4095.0,4095.0,-8.53,-4.2,0.51,-0.08,0.03,-0.02,1.0,person
3536.0,961.0,3741.0,3089.0,3545.0,4047.0,4095.0,4095.0,9.98,-1.03,4.53,0.01,0.05,-0.14,0.0,3434.0,4095.0,1606.0,2439.0,4095.0,4095.0,4095.0,4095.0,-8.42,-4.05,0.54,-0.04,-0.03,-0.01,1.0,person
3536.0,966.0,3707.0,3094.0,3550.0,4037.0,4095.0,4095.0,9.93,-1.04,4.43,0.01,-0.04,-0.16,0.0,3441.0,4095.0,1586.0,2437.0,4095.0,4095.0,4095.0,4095.0,-8.36,-3.95,0.37,-0.09,0.1,-0.04,1.0,person
3558.0,961.0,3728.0,3086.0,3515.0,4050.0,4095.0,4095.0,10.0,-1.08,4.39,-0.0,-0.02,-0.12,0.0,3447.0,4095.0,1453.0,2436.0,4095.0,4095.0,4095.0,4095.0,-8.44,-4.04,0.37,-0.04,-0.01,-0.03,1.0,person
3547.0,961.0,3712.0,3087.0,3509.0,4016.0,4095.0,4095.0,10.12,-0.99,4.35,-0.01,-0.03,-0.15,0.0,3440.0,4095.0,1407.0,2441.0,4095.0,4095.0,4095.0,4095.0,-8.48,-4.0,0.45,-0.05,0.01,-0.02,1.0,person
3546.0,957.0,3727.0,3111.0,3522.0,4013.0,4095.0,4095.0,10.07,-1.06,4.41,0.01,0.03,-0.15,0.0,3432.0,4095.0,1418.0,2443.0,4095.0,4095.0,4095.0,4095.0,-8.45,-3.99,0.4,-0.07,-0.03,-0.01,1.0,person
3280.0,983.0,3664.0,3869.0,3090.0,3153.0,4070.0,3536.0,7.24,-6.29,6.48,0.22,-0.01,-0.37,0.0,2480.0,3943.0,953.0,3261.0,4095.0,4095.0,4095.0,4095.0,-4.13,-9.2,2.8,-0.26,0.32,0.23,1.0,person
3313.0,991.0,3731.0,3839.0,3123.0,3150.0,4071.0,3582.0,7.26,-6.21,6.66,0.04,0.06,-0.19,0.0,2604.0,3955.0,941.0,3255.0,4095.0,4095.0,4095.0,4095.0,-4.32,-8.59,2.01,-0.09,0.06,0.43,1.0,person
3306.0,966.0,3898.0,3878.0,3141.0,3214.0,4095.0,3605.0,9.06,-7.37,8.3,-0.17,-0.36,-0.39,0.0,2525.0,3995.0,942.0,3241.0,4095.0,4095.0,4095.0,4095.0,-6.83,-7.38,3.86,0.08,1.07,0.73,1.0,person
3306.0,977.0,3760.0,3955.0,3183.0,3235.0,4095.0,3558.0,9.98,-6.56,9.76,0.68,-0.74,-1.14,0.0,939.0,4095.0,954.0,3216.0,4095.0,4095.0,4095.0,4095.0,-10.94,-8.7,1.93,1.41,0.82,1.63,1.0,person
3211.0,995.0,2975.0,3719.0,3251.0,3465.0,4095.0,4095.0,10.3,-4.18,4.12,2.49,-0.34,-5.75,0.0,4095.0,4095.0,931.0,2464.0,4095.0,4095.0,4095.0,2519.0,-3.82,-2.89,-0.53,0.27,-0.19,4.88,1.0,person
3457.0,960.0,3430.0,3189.0,3472.0,4095.0,4095.0,4095.0,0.82,4.21,6.08,0.1,-0.05,-0.65,0.0,4095.0,4095.0,961.0,2423.0,4095.0,4095.0,4095.0,1602.0,-1.99,2.67,0.68,-0.06,0.26,1.61,1.0,person
3634.0,970.0,3431.0,3216.0,3477.0,4095.0,4095.0,4095.0,-2.3,2.76,6.15,0.35,-1.32,3.79,0.0,3696.0,4095.0,958.0,2495.0,4095.0,4095.0,4095.0,1646.0,-0.02,-0.25,0.4,-1.44,0.28,-6.28,1.0,person
3519.0,981.0,3385.0,3152.0,3538.0,4095.0,4095.0,4095.0,15.68,-1.85,4.3,-0.12,-0.01,0.13,0.0,3449.0,3786.0,1168.0,2412.0,4095.0,4095.0,4095.0,2497.0,-22.43,-15.17,1.89,0.3,-0.52,-0.53,1.0,person
3583.0,994.0,3363.0,3134.0,3532.0,4095.0,4095.0,4095.0,9.63,-0.01,4.57,0.14,0.18,-0.38,0.0,3429.0,3805.0,999.0,2432.0,4095.0,4095.0,4095.0,4095.0,-9.44,-3.39,1.82,0.1,0.05,0.49,1.0,person
3616.0,981.0,3339.0,3140.0,3541.0,4095.0,4095.0,4095.0,10.06,-0.93,4.44,-0.05,0.23,-0.12,0.0,3454.0,3820.0,967.0,2450.0,4095.0,4095.0,4095.0,4095.0,-8.67,-3.96,1.24,-0.09,-0.05,0.07,1.0,person
3571.0,975.0,3342.0,3163.0,3554.0,4095.0,4095.0,4095.0,9.9,-0.92,4.6,0.01,0.09,-0.08,0.0,3439.0,3792.0,971.0,2454.0,4095.0,4095.0,4095.0,4095.0,-8.35,-3.62,1.19,-0.04,-0.04,-0.03,1.0,person
3575.0,987.0,3344.0,3152.0,3536.0,4095.0,4095.0,4095.0,9.96,-0.87,4.44,-0.07,0.18,-0.05,0.0,3451.0,3823.0,958.0,2441.0,4095.0,4095.0,4095.0,4095.0,-8.46,-3.61,1.07,-0.1,0.05,-0.0,1.0,person
3598.0,983.0,3323.0,3169.0,3525.0,4095.0,4095.0,4095.0,9.98,-0.95,4.44,-0.01,-0.04,-0.11,0.0,3437.0,3824.0,955.0,2442.0,4095.0,4095.0,4095.0,4095.0,-8.54,-3.65,1.11,-0.13,0.08,-0.02,1.0,person
3583.0,972.0,3321.0,3159.0,3471.0,4048.0,4095.0,4095.0,9.98,-1.02,4.47,-0.01,-0.04,-0.14,0.0,3459.0,3789.0,965.0,2441.0,4095.0,4095.0,4095.0,4095.0,-8.61,-3.67,0.94,-0.09,-0.03,-0.02,1.0,person
3610.0,973.0,3331.0,3175.0,3504.0,4051.0,4095.0,4095.0,9.75,-0.98,4.47,0.04,0.03,-0.14,0.0,3447.0,3792.0,973.0,2442.0,4095.0,4095.0,4095.0,4095.0,-8.69,-3.72,0.99,-0.06,-0.02,-0.05,1.0,person
3597.0,976.0,3347.0,3181.0,3517.0,4020.0,4095.0,4095.0,10.06,-1.01,4.45,0.0,0.05,-0.14,0.0,3462.0,3808.0,959.0,2447.0,4095.0,4095.0,4095.0,4095.0,-8.58,-3.69,1.08,-0.05,-0.02,-0.04,1.0,person
3599.0,979.0,3325.0,3170.0,3505.0,4055.0,4095.0,4095.0,10.04,-1.0,4.42,-0.02,-0.05,-0.18,0.0,3444.0,3815.0,955.0,2448.0,4095.0,4095.0,4095.0,4095.0,-8.56,-3.69,1.02,-0.07,0.03,-0.03,1.0,person
3583.0,982.0,3341.0,3189.0,3472.0,4049.0,4095.0,4095.0,9.87,-0.97,4.47,-0.02,-0.09,-0.17,0.0,3439.0,3805.0,963.0,2454.0,4095.0,4095.0,4095.0,4095.0,-8.43,-3.6,1.03,-0.07,0.01,-0.03,1.0,person
3603.0,983.0,3344.0,3191.0,3461.0,4032.0,4095.0,4095.0,9.94,-1.01,4.44,0.01,-0.01,-0.14,0.0,3464.0,3810.0,965.0,2453.0,4095.0,4095.0,4095.0,4095.0,-8.61,-3.75,0.91,-0.05,0.03,-0.06,1.0,person
3597.0,975.0,3325.0,3165.0,3446.0,4054.0,4095.0,4095.0,10.1,-0.99,4.4,0.04,0.03,-0.14,0.0,3445.0,3790.0,964.0,2462.0,4095.0,4095.0,4095.0,4095.0,-8.59,-3.53,0.96,-0.07,0.03,-0.05,1.0,person
3409.0,991.0,3422.0,3982.0,3161.0,3184.0,4095.0,3631.0,6.87,-6.46,7.38,0.33,-0.03,-0.18,0.0,2735.0,3133.0,930.0,3111.0,4095.0,4095.0,4095.0,4095.0,-5.07,-7.34,2.36,0.07,0.18,-0.05,1.0,person
3477.0,999.0,3875.0,4012.0,3157.0,3154.0,4095.0,3652.0,7.47,-6.6,7.29,0.11,-0.02,-0.06,0.0,2753.0,3434.0,947.0,3071.0,4095.0,4095.0,4095.0,4095.0,-5.69,-8.12,2.64,-0.02,0.07,0.01,1.0,person
3369.0,989.0,4095.0,3995.0,3175.0,3213.0,4095.0,3678.0,9.73,-7.36,9.82,-0.26,-0.93,-0.34,0.0,3094.0,3664.0,960.0,3070.0,4095.0,4095.0,4095.0,4095.0,-6.26,-7.1,3.7,-0.33,0.48,0.11,1.0,person
3258.0,1002.0,3425.0,4082.0,3184.0,3283.0,4095.0,3676.0,14.07,-8.77,9.33,1.49,-0.74,-2.29,0.0,1718.0,3910.0,944.0,3233.0,4095.0,4095.0,4095.0,4095.0,-11.97,-11.96,2.09,1.06,0.32,3.66,1.0,person
3373.0,1022.0,2261.0,3536.0,3148.0,3347.0,4095.0,4087.0,4.05,-0.7,3.81,1.87,2.47,-5.08,0.0,1566.0,3846.0,935.0,3068.0,4095.0,4095.0,4095.0,4049.0,-6.25,-6.87,1.1,1.11,0.09,5.24,1.0,person
4041.0,965.0,3419.0,3242.0,3280.0,3725.0,4095.0,4095.0,1.03,3.45,6.23,1.05,0.25,-3.02,0.0,1047.0,3809.0,935.0,2551.0,4095.0,4095.0,4095.0,3962.0,-3.48,0.04,1.21,0.43,0.06,3.28,1.0,person
4095.0,950.0,3411.0,2945.0,3351.0,4010.0,4095.0,4095.0,1.35,0.26,5.96,-0.27,-4.05,6.31,0.0,3019.0,3780.0,928.0,2525.0,4095.0,4095.0,4095.0,2131.0,4.02,4.84,1.17,-0.09,-0.01,-2.65,1.0,person
3805.0,980.0,3715.0,3085.0,3433.0,4095.0,4095.0,4095.0,20.78,-6.03,6.34,-1.3,-0.63,2.89,0.0,3568.0,3689.0,931.0,2474.0,4095.0,4095.0,4095.0,4095.0,-15.13,-6.43,0.11,-0.11,-0.16,-0.67,1.0,person
3938.0,983.0,3529.0,3132.0,3472.0,4095.0,4095.0,4095.0,13.04,-0.94,5.62,-0.16,-1.17,-0.37,0.0,3561.0,3690.0,928.0,2496.0,4095.0,4095.0,4095.0,4095.0,-8.65,-3.16,0.75,0.16,0.11,0.08,1.0,person
4051.0,977.0,3501.0,3141.0,3521.0,4060.0,4095.0,4095.0,9.51,-1.17,5.34,-0.01,-0.04,-0.14,0.0,3557.0,3686.0,930.0,2505.0,4095.0,4095.0,4095.0,4095.0,-8.39,-3.96,0.2,-0.06,0.04,-0.06,1.0,person
4046.0,983.0,3481.0,3151.0,3504.0,4095.0,4095.0,4095.0,10.19,-1.2,5.09,0.05,-0.08,-0.07,0.0,3573.0,3666.0,921.0,2508.0,4095.0,4095.0,4095.0,4095.0,-8.57,-3.95,0.18,-0.01,-0.0,-0.05,1.0,person
4031.0,974.0,3504.0,3166.0,3523.0,4036.0,4095.0,4095.0,9.78,-0.88,5.11,-0.01,-0.14,-0.24,0.0,3554.0,3666.0,930.0,2509.0,4095.0,4095.0,4095.0,4095.0,-8.52,-4.05,0.27,-0.11,0.07,0.06,1.0,person
4034.0,965.0,3501.0,3161.0,3504.0,4033.0,4095.0,4095.0,9.84,-0.92,5.29,0.02,0.03,-0.14,0.0,3571.0,3678.0,929.0,2512.0,4095.0,4095.0,4095.0,4095.0,-8.36,-4.04,0.31,-0.08,-0.02,0.04,1.0,person
3994.0,979.0,3475.0,3158.0,3521.0,4075.0,4095.0,4095.0,9.61,-0.91,5.14,0.05,0.04,-0.2,0.0,3554.0,3654.0,923.0,2512.0,4095.0,4095.0,4095.0,4095.0,-8.38,-3.74,0.17,-0.03,-0.04,-0.05,1.0,person
4015.0,980.0,3501.0,3172.0,3505.0,4016.0,4095.0,4095.0,9.66,-1.01,5.26,-0.07,-0.08,-0.18,0.0,3564.0,3662.0,921.0,2512.0,4095.0,4095.0,4095.0,4095.0,-8.44,-3.9,0.42,-0.05,0.05,0.0,1.0,person
4001.0,980.0,3494.0,3158.0,3513.0,4032.0,4095.0,4095.0,10.14,-1.07,5.09,-0.0,-0.02,-0.14,0.0,3551.0,3649.0,923.0,2519.0,4095.0,4095.0,4095.0,4095.0,-8.42,-3.92,0.29,-0.08,0.04,0.03,1.0,person
4021.0,985.0,3493.0,3180.0,3514.0,4004.0,4095.0,4095.0,10.37,-1.29,4.9,0.08,0.01,-0.01,0.0,3567.0,3683.0,929.0,2513.0,4095.0,4095.0,4095.0,4095.0,-8.59,-3.67,0.19,-0.01,0.04,-0.04,1.0,person
3975.0,987.0,3504.0,3186.0,3493.0,4026.0,4095.0,4095.0,10.24,-1.29,5.13,-0.01,-0.08,-0.11,0.0,3541.0,3669.0,919.0,2512.0,4095.0,4095.0,4095.0,4095.0,-8.42,-3.66,0.41,-0.03,-0.01,-0.01,1.0,person
3999.0,981.0,3491.0,3184.0,3489.0,4011.0,4095.0,4095.0,9.72,-1.15,5.1,-0.04,-0.04,-0.21,0.0,3557.0,3659.0,929.0,2508.0,4095.0,4095.0,4095.0,4095.0,-8.32,-3.53,0.3,-0.02,0.03,-0.08,1.0,person
4048.0,983.0,3506.0,3185.0,3488.0,4016.0,4095.0,4095.0,9.7,-1.12,5.1,-0.04,0.0,-0.13,0.0,3554.0,3659.0,927.0,2514.0,4095.0,4095.0,4095.0,4095.0,-8.57,-3.95,0.34,-0.04,0.06,-0.0,1.0,person
3564.0,965.0,3185.0,3581.0,3137.0,3402.0,4095.0,4095.0,10.4,1.91,7.94,0.66,-0.42,-1.84,0.0,1110.0,3751.0,981.0,2468.0,4095.0,4095.0,4095.0,4095.0,-10.09,1.16,0.39,-0.34,0.17,1.08,1.0,person
3746.0,989.0,3429.0,3153.0,3293.0,3634.0,4095.0,4095.0,7.96,6.62,6.83,0.3,-0.65,-1.25,0.0,963.0,3799.0,1185.0,2480.0,4095.0,4095.0,4095.0,4095.0,-8.39,1.76,1.02,-0.36,0.19,0.23,1.0,person
4095.0,981.0,3455.0,3139.0,3345.0,3735.0,4095.0,4095.0,8.13,7.0,6.54,0.32,-0.34,-1.09,0.0,1341.0,3777.0,1366.0,2486.0,4095.0,4095.0,4095.0,2693.0,-8.27,4.25,-0.61,0.08,0.06,1.04,1.0,person
4031.0,972.0,3450.0,3175.0,3436.0,3977.0,4095.0,4095.0,4.64,5.93,5.79,0.05,-0.13,0.47,0.0,1258.0,3781.0,1360.0,2515.0,4095.0,4095.0,4095.0,2559.0,-6.18,4.71,-0.33,-0.45,-0.41,0.3,1.0,person
4015.0,979.0,3472.0,3174.0,3441.0,3953.0,4095.0,4095.0,-1.45,2.98,6.22,0.06,-0.03,4.38,0.0,1535.0,3714.0,1312.0,2383.0,4095.0,4095.0,4095.0,3967.0,-1.91,-2.68,-0.72,-1.96,0.15,-6.85,1.0,person
3889.0,1011.0,3489.0,2960.0,3364.0,3936.0,4095.0,4095.0,17.3,-3.2,3.3,-1.64,-1.34,4.54,0.0,958.0,3686.0,1535.0,2446.0,4095.0,4095.0,4095.0,4095.0,-16.32,-10.76,-0.04,0.51,-0.34,-1.6,1.0,person
4075.0,1009.0,3397.0,3045.0,3427.0,4043.0,4095.0,4095.0,9.34,-0.11,4.22,0.18,-0.1,-0.51,0.0,951.0,3664.0,1505.0,2443.0,4095.0,4095.0,4095.0,4095.0,-10.77,-4.96,0.83,-0.19,0.53,0.34,1.0,person
4019.0,1019.0,3373.0,3039.0,3441.0,4042.0,4095.0,4095.0,9.47,-0.61,4.4,-0.01,-0.01,-0.17,0.0,965.0,3670.0,1211.0,2454.0,4095.0,4095.0,4095.0,4095.0,-8.0,-4.49,0.34,-0.03,-0.03,0.03,1.0,person
4048.0,1015.0,3365.0,3056.0,3435.0,4019.0,4095.0,4095.0,9.64,-0.69,4.47,0.09,0.08,-0.05,0.0,1077.0,3685.0,1005.0,2465.0,4095.0,4095.0,4095.0,4095.0,-8.73,-4.61,0.12,-0.01,-0.02,-0.02,1.0,person
4048.0,1015.0,3376.0,3070.0,3474.0,4005.0,4095.0,4095.0,9.96,-0.64,4.23,0.0,0.04,-0.14,0.0,1104.0,3651.0,986.0,2463.0,4095.0,4095.0,4095.0,4095.0,-8.37,-4.26,0.51,-0.08,0.02,0.0,1.0,person
4071.0,1008.0,3376.0,3089.0,3475.0,3982.0,4095.0,4095.0,10.03,-0.91,4.3,-0.07,0.09,-0.12,0.0,1234.0,3664.0,983.0,2458.0,4095.0,4095.0,4095.0,4095.0,-8.5,-4.37,0.31,-0.05,-0.01,0.02,1.0,person
4068.0,1035.0,3379.0,3097.0,3468.0,3966.0,4095.0,4095.0,10.28,-1.2,4.28,-0.0,0.01,-0.05,0.0,1260.0,3684.0,990.0,2459.0,4095.0,4095.0,4095.0,4095.0,-8.36,-4.23,0.19,-0.07,-0.02,0.02,1.0,person
4065.0,1009.0,3362.0,3088.0,3465.0,3962.0,4095.0,4095.0,9.96,-0.81,4.34,-0.02,-0.1,-0.18,0.0,1264.0,3670.0,999.0,2459.0,4095.0,4095.0,4095.0,4095.0,-8.22,-4.32,0.48,-0.02,0.0,-0.02,1.0,person
4016.0,1010.0,3378.0,3107.0,3483.0,3972.0,4095.0,4095.0,9.96,-0.98,4.43,-0.02,-0.08,-0.08,0.0,1267.0,3682.0,998.0,2467.0,4095.0,4095.0,4095.0,4095.0,-8.63,-4.52,0.24,-0.06,0.0,-0.01,1.0,person
4078.0,1010.0,3373.0,3118.0,3466.0,3984.0,4095.0,4095.0,9.5,-1.07,4.48,-0.01,-0.0,-0.15,0.0,1293.0,3681.0,1008.0,2466.0,4095.0,4095.0,4095.0,4095.0,-8.14,-3.94,0.31,-0.0,-0.01,0.03,1.0,person
4030.0,1014.0,3375.0,3124.0,3491.0,3961.0,4095.0,4095.0,9.85,-1.01,4.52,-0.02,0.01,-0.15,0.0,1415.0,3685.0,981.0,2462.0,4095.0,4095.0,4095.0,4095.0,-8.26,-4.04,0.38,-0.06,-0.03,-0.02,1.0,person
4057.0,1008.0,3365.0,3121.0,3478.0,3997.0,4095.0,4095.0,10.01,-0.91,4.28,-0.03,0.01,-0.16,0.0,1425.0,3682.0,977.0,2462.0,4095.0,4095.0,4095.0,4095.0,-8.6,-4.39,0.33,-0.09,-0.01,-0.04,1.0,person
4089.0,1012.0,3353.0,3109.0,3466.0,3951.0,4095.0,4095.0,9.75,-1.07,4.39,-0.01,0.08,-0.18,0.0,1426.0,3678.0,982.0,2469.0,4095.0,4095.0,4095.0,4095.0,-8.51,-4.49,0.35,-0.05,-0.02,-0.07,1.0,person
4045.0,1012.0,3378.0,3131.0,3493.0,3977.0,4095.0,4095.0,9.74,-0.91,4.39,0.03,0.02,-0.19,0.0,1435.0,3675.0,976.0,2467.0,4095.0,4095.0,4095.0,4095.0,-8.35,-3.92,0.35,0.0,-0.05,-0.09,1.0,person
4038.0,1019.0,3383.0,3136.0,3475.0,3935.0,4095.0,4095.0,9.95,-0.99,4.39,0.04,0.02,-0.09,0.0,1482.0,3664.0,973.0,2480.0,4095.0,4095.0,4095.0,4095.0,-8.83,-4.6,0.36,-0.04,0.02,-0.03,1.0,person
3324.0,1057.0,2953.0,4095.0,3196.0,3179.0,4095.0,3519.0,6.83,-5.27,8.44,0.16,-0.08,-0.22,0.0,2594.0,3326.0,988.0,3394.0,4095.0,4095.0,4095.0,4095.0,-6.25,-6.28,4.85,-0.11,0.03,-0.18,1.0,person
3299.0,1051.0,3204.0,4095.0,3187.0,3162.0,4095.0,3571.0,7.26,-5.17,8.55,0.09,-0.31,-0.23,0.0,2583.0,3322.0,990.0,3391.0,4095.0,4095.0,4095.0,4095.0,-5.87,-5.82,4.29,-0.11,0.02,-0.15,1.0,person
3314.0,1023.0,4095.0,4095.0,3191.0,3184.0,4095.0,3740.0,9.11,-5.69,9.93,0.1,-0.71,-0.52,0.0,2743.0,3339.0,977.0,3408.0,4095.0,4095.0,4095.0,4095.0,-6.5,-6.34,5.33,-0.04,0.18,-0.08,1.0,person
3344.0,1018.0,3615.0,4010.0,3199.0,3199.0,4095.0,4087.0,12.12,-3.48,6.79,2.31,-1.83,-4.08,0.0,919.0,3600.0,963.0,2727.0,4095.0,4095.0,4095.0,4095.0,-13.75,-9.69,4.03,1.21,-0.47,3.36,1.0,person
3200.0,4095.0,4068.0,3533.0,2939.0,3308.0,4095.0,4095.0,5.6,1.3,3.74,1.4,0.49,-5.93,0.0,3139.0,3534.0,931.0,2448.0,4095.0,4095.0,4095.0,4095.0,-2.55,1.15,0.73,0.43,0.63,2.29,1.0,person
