hall_1_L,hall_2_L,hall_3_L,flex_t_L,flex_i_L,flex_m_L,flex_r_L,flex_p_L,accel_x_L,accel_y_L,accel_z_L,gyro_x_L,gyro_y_L,gyro_z_L,hand,hall_1_R,hall_2_R,hall_3_R,flex_t_R,flex_i_R,flex_m_R,flex_r_R,flex_p_R,accel_x_R,accel_y_R,accel_z_R,gyro_x_R,gyro_y_R,gyro_z_R,hand,sign
3440.0,4095.0,939.0,4095.0,3273.0,2858.0,3184.0,2832.0,-2.35,9.41,6.07,0.01,-0.04,-0.18,0.0,3163.0,3955.0,3451.0,4031.0,4095.0,3671.0,3983.0,4095.0,-0.0,9.67,3.11,-0.07,-0.03,-0.03,1.0,professor
3449.0,4095.0,917.0,4095.0,3265.0,2858.0,3195.0,2837.0,-2.04,9.36,6.08,0.0,-0.04,-0.18,0.0,3168.0,3981.0,3450.0,4034.0,4095.0,3669.0,3975.0,4095.0,0.21,9.54,3.21,-0.07,-0.03,0.02,1.0,professor
3445.0,4095.0,928.0,4095.0,3248.0,2863.0,3191.0,2835.0,-1.28,9.21,6.34,0.02,-0.09,-0.32,0.0,3153.0,3965.0,3445.0,4019.0,4095.0,3680.0,3984.0,4095.0,-0.75,9.21,3.31,-0.04,-0.03,0.12,1.0,professor
3452.0,4095.0,934.0,4095.0,3248.0,2852.0,3171.0,2818.0,-8.49,9.4,5.95,0.07,0.09,-0.35,0.0,3159.0,3971.0,3462.0,3942.0,4095.0,3645.0,3918.0,4009.0,7.9,11.71,1.68,0.1,0.32,0.29,1.0,professor
3444.0,4095.0,935.0,4095.0,3257.0,2859.0,3174.0,2814.0,-3.45,7.93,5.88,0.12,0.73,2.35,0.0,3179.0,3953.0,3461.0,3920.0,4095.0,3644.0,3927.0,4045.0,-3.54,7.54,3.43,-0.54,-0.53,-2.14,1.0,professor
3421.0,4095.0,917.0,4095.0,3199.0,2813.0,3141.0,2718.0,12.32,9.17,6.36,0.3,-0.88,-1.54,0.0,3335.0,3936.0,3429.0,3967.0,4095.0,3686.0,3936.0,4095.0,-9.46,6.36,5.6,0.45,-0.22,1.53,1.0,professor
3458.0,4095.0,930.0,4095.0,3121.0,2832.0,3143.0,2747.0,-15.11,9.24,4.37,0.29,0.83,-1.7,0.0,3343.0,3968.0,3504.0,3931.0,4095.0,3561.0,3902.0,4005.0,16.9,13.59,-1.49,0.54,-0.57,0.79,1.0,professor
3440.0,4095.0,926.0,4095.0,3170.0,2811.0,3115.0,2783.0,0.99,4.51,5.98,-0.58,-0.04,2.38,0.0,3386.0,3976.0,3458.0,3923.0,4095.0,3608.0,3962.0,4039.0,-3.85,3.18,5.31,-0.39,-0.09,-2.1,1.0,professor
3303.0,4095.0,2000.0,3914.0,3123.0,3013.0,3403.0,2758.0,-4.05,2.6,-0.72,-1.36,0.13,2.37,0.0,3854.0,4016.0,3535.0,3737.0,4095.0,3679.0,4095.0,3851.0,11.27,6.99,-3.61,-0.09,-0.02,-3.47,1.0,professor
2871.0,2884.0,2878.0,2763.0,3679.0,3429.0,4095.0,3623.0,-2.5,-5.99,3.24,-2.77,-0.65,5.04,0.0,2671.0,2830.0,2826.0,2815.0,4095.0,4095.0,4095.0,4095.0,6.15,-8.27,-1.64,-4.28,0.83,-7.55,1.0,professor
2979.0,2672.0,2849.0,3541.0,3820.0,3660.0,4093.0,3490.0,20.79,-8.88,8.73,-1.24,-2.4,5.93,0.0,2695.0,2919.0,2714.0,2942.0,4095.0,4095.0,4095.0,4095.0,-14.97,-26.62,-0.97,-3.88,2.98,-6.71,1.0,professor
2980.0,2559.0,2823.0,3769.0,3879.0,3917.0,4095.0,3632.0,24.99,-2.07,11.42,-0.85,0.74,1.79,0.0,2614.0,2833.0,2514.0,3113.0,4095.0,4095.0,4095.0,4095.0,-19.65,-15.08,3.3,-0.86,0.23,-2.25,1.0,professor
2946.0,2222.0,2799.0,3627.0,3696.0,3579.0,4095.0,3630.0,9.75,-1.83,7.13,-0.06,0.06,-0.18,0.0,2338.0,2845.0,2512.0,3130.0,4095.0,4095.0,4095.0,4095.0,-6.69,-7.71,0.62,-0.03,0.03,-0.06,1.0,professor
2941.0,2151.0,2784.0,3719.0,3606.0,3583.0,4095.0,3674.0,9.45,-2.91,7.21,-0.13,0.24,-0.22,0.0,2239.0,2842.0,2487.0,3135.0,4095.0,4095.0,4095.0,4095.0,-6.08,-7.72,0.48,0.09,-0.05,0.07,1.0,professor
2946.0,2098.0,2781.0,3743.0,3573.0,3563.0,4095.0,3680.0,8.81,-2.81,7.36,0.02,0.11,-0.24,0.0,2203.0,2822.0,2480.0,3066.0,4095.0,4095.0,4095.0,4095.0,-5.63,-7.31,0.61,0.02,-0.18,0.07,1.0,professor
2954.0,2065.0,2771.0,3758.0,3559.0,3559.0,4095.0,3664.0,9.16,-2.77,7.45,0.04,-0.01,-0.2,0.0,2128.0,2736.0,2453.0,3091.0,4095.0,4095.0,4095.0,4095.0,-5.44,-7.32,0.74,-0.07,0.04,0.03,1.0,professor
2961.0,2018.0,2779.0,3758.0,3582.0,3554.0,4095.0,3667.0,9.06,-2.53,7.37,-0.02,0.02,-0.19,0.0,2017.0,2749.0,2447.0,3123.0,4095.0,4095.0,4095.0,4095.0,-5.68,-7.57,0.65,-0.11,0.07,-0.05,1.0,professor
2955.0,1994.0,2778.0,3725.0,3583.0,3550.0,4095.0,3679.0,9.12,-2.53,7.51,0.04,0.07,-0.15,0.0,1925.0,2736.0,2393.0,3137.0,4095.0,4095.0,4095.0,4095.0,-5.78,-7.45,0.81,-0.07,-0.03,-0.02,1.0,professor
2954.0,1911.0,2781.0,3751.0,3568.0,3554.0,4095.0,3682.0,9.2,-2.49,7.47,0.03,0.03,-0.17,0.0,1853.0,2713.0,2383.0,3142.0,4095.0,4095.0,4095.0,4095.0,-5.8,-7.42,0.76,-0.06,-0.05,-0.04,1.0,professor
2960.0,1893.0,2784.0,3765.0,3562.0,3549.0,4095.0,3734.0,9.11,-2.48,7.49,0.04,-0.02,-0.16,0.0,1810.0,2673.0,2361.0,3137.0,4095.0,4095.0,4095.0,4095.0,-5.81,-7.5,0.83,-0.05,0.05,-0.02,1.0,professor
3839.0,3289.0,934.0,3857.0,2991.0,2832.0,3117.0,2621.0,-1.69,9.5,6.25,0.05,0.03,-0.23,0.0,3971.0,3994.0,3680.0,3462.0,4095.0,3696.0,4095.0,3846.0,0.12,9.75,2.85,-0.01,-0.22,-0.02,1.0,professor
3856.0,3387.0,941.0,3789.0,2975.0,2799.0,3103.0,2587.0,0.72,8.86,6.99,0.25,-0.49,-0.92,0.0,3965.0,3978.0,3671.0,3473.0,4095.0,3696.0,4095.0,3863.0,-0.36,9.65,2.95,-0.06,-0.08,0.04,1.0,professor
3952.0,3402.0,928.0,3766.0,2983.0,2768.0,3049.0,2559.0,-18.33,9.41,3.2,0.03,2.17,0.29,0.0,3968.0,3989.0,3675.0,3492.0,4095.0,3687.0,4083.0,3866.0,-2.1,8.37,4.3,0.26,-0.15,0.57,1.0,professor
3634.0,3411.0,949.0,3696.0,2928.0,2797.0,3088.0,2596.0,12.26,6.57,8.18,-0.27,-0.8,2.45,0.0,4070.0,3989.0,3671.0,3559.0,4095.0,3773.0,4095.0,3705.0,-13.21,2.01,8.72,-0.48,-0.72,-1.58,1.0,professor
3551.0,3489.0,983.0,3701.0,2945.0,2768.0,3083.0,2627.0,8.74,9.13,5.67,0.56,-1.23,-2.78,0.0,4017.0,4007.0,3679.0,3600.0,4095.0,3749.0,4054.0,3523.0,-5.48,7.3,4.35,0.8,0.71,2.42,1.0,professor
4063.0,3662.0,923.0,3787.0,3024.0,2755.0,3017.0,2668.0,-27.76,9.37,1.39,0.14,0.92,-0.28,0.0,3922.0,4014.0,3691.0,3335.0,4095.0,3583.0,3999.0,3823.0,22.29,15.52,-6.52,-0.37,0.08,-0.31,1.0,professor
3487.0,3680.0,991.0,3619.0,2863.0,2737.0,3039.0,2590.0,17.84,5.19,8.76,0.15,-0.62,1.38,0.0,4016.0,3971.0,3664.0,3649.0,4095.0,3760.0,3983.0,3738.0,-17.92,0.94,12.53,0.09,-0.18,-0.36,1.0,professor
3453.0,4095.0,925.0,3737.0,3005.0,2720.0,3084.0,2653.0,-3.75,6.29,3.73,0.12,-0.5,-1.97,0.0,4034.0,4095.0,1803.0,3017.0,4095.0,4095.0,4095.0,4095.0,14.3,4.95,-5.65,-2.7,-0.04,-5.14,1.0,professor
2799.0,2681.0,2678.0,3653.0,3579.0,3419.0,4095.0,3454.0,0.51,-8.49,2.14,-3.17,-2.43,6.75,0.0,2585.0,2847.0,2726.0,2602.0,4095.0,4095.0,4095.0,4095.0,5.43,-10.31,-3.63,-4.18,3.26,-8.09,1.0,professor
2962.0,2549.0,2730.0,3504.0,3707.0,3782.0,4027.0,3459.0,23.5,-9.05,8.32,-2.28,-1.39,6.17,0.0,2510.0,2855.0,2507.0,3136.0,4095.0,4095.0,4095.0,4095.0,-21.25,-25.36,-3.04,-1.76,2.18,-6.16,1.0,professor
2959.0,2606.0,2773.0,3656.0,3775.0,4014.0,4095.0,3522.0,23.4,-2.46,14.43,-1.01,0.46,1.6,0.0,2335.0,2807.0,2425.0,3280.0,4095.0,4095.0,4095.0,4095.0,-18.28,-12.65,5.63,-0.59,0.11,-1.23,1.0,professor
2935.0,2409.0,2787.0,3686.0,3568.0,3763.0,4095.0,3674.0,11.14,-0.39,9.15,0.12,0.07,-0.24,0.0,2133.0,2830.0,2489.0,3231.0,4095.0,4095.0,4095.0,4095.0,-7.69,-6.02,2.27,0.02,0.02,-0.16,1.0,professor
2944.0,2224.0,2778.0,3648.0,3583.0,3632.0,4095.0,3760.0,9.26,-2.02,8.27,0.07,-0.11,-0.06,0.0,2002.0,2781.0,2451.0,3237.0,4095.0,4095.0,4095.0,4095.0,-6.94,-6.97,0.94,-0.02,0.1,-0.04,1.0,professor
2949.0,2160.0,2769.0,3635.0,3543.0,3536.0,4095.0,3739.0,9.45,-1.86,8.16,0.04,-0.02,-0.2,0.0,1969.0,2782.0,2407.0,3150.0,4095.0,4095.0,4095.0,4095.0,-6.45,-6.96,1.41,-0.07,0.04,0.04,1.0,professor
2934.0,2124.0,2768.0,3639.0,3524.0,3531.0,4095.0,3745.0,8.76,-1.96,8.0,0.05,-0.08,-0.24,0.0,1936.0,2768.0,2382.0,3159.0,4095.0,4095.0,4095.0,4095.0,-6.18,-6.79,1.37,-0.05,0.06,0.0,1.0,professor
2930.0,2079.0,2768.0,3665.0,3517.0,3515.0,4095.0,3771.0,9.14,-2.09,7.8,-0.05,-0.01,-0.14,0.0,1939.0,2746.0,2342.0,3138.0,4095.0,4095.0,4095.0,4095.0,-6.3,-6.88,1.29,-0.02,-0.04,-0.08,1.0,professor
2945.0,2081.0,2766.0,3647.0,3527.0,3504.0,4095.0,3787.0,8.98,-2.03,8.18,-0.01,0.01,-0.14,0.0,1909.0,2761.0,2320.0,3188.0,4095.0,4095.0,4095.0,4095.0,-6.56,-6.96,1.18,-0.09,0.03,-0.06,1.0,professor
2941.0,2064.0,2764.0,3664.0,3526.0,3493.0,4095.0,3787.0,9.06,-1.91,8.04,-0.03,0.04,-0.13,0.0,1858.0,2752.0,2301.0,3164.0,4095.0,4095.0,4095.0,4095.0,-6.51,-6.89,1.23,-0.07,0.04,-0.02,1.0,professor
2950.0,2035.0,2765.0,3658.0,3535.0,3504.0,4095.0,3787.0,9.23,-1.91,8.08,0.02,-0.03,-0.12,0.0,1807.0,2737.0,2290.0,3152.0,4095.0,4095.0,4095.0,4095.0,-6.4,-6.91,1.19,-0.04,-0.03,-0.08,1.0,professor
2939.0,2011.0,2768.0,3648.0,3523.0,3489.0,4095.0,3792.0,9.08,-1.91,7.93,0.04,-0.02,-0.17,0.0,1755.0,2747.0,2255.0,3184.0,4095.0,4095.0,4095.0,4095.0,-6.37,-6.95,1.27,-0.09,-0.01,-0.04,1.0,professor
3321.0,2735.0,3316.0,4095.0,2951.0,3071.0,3411.0,2757.0,-1.6,9.61,6.11,-0.15,0.13,-0.19,0.0,902.0,926.0,4095.0,3541.0,4095.0,4095.0,4095.0,3507.0,-0.49,9.77,3.0,-0.16,0.25,0.03,1.0,professor
3473.0,2681.0,4095.0,4010.0,2981.0,2875.0,3245.0,2591.0,-2.15,9.23,6.74,-0.01,-0.03,-0.35,0.0,915.0,1411.0,2864.0,3473.0,4095.0,3885.0,4095.0,4083.0,-0.08,9.42,3.18,-0.15,-0.02,0.18,1.0,professor
3515.0,2705.0,4095.0,3966.0,2992.0,2802.0,3182.0,2579.0,-2.78,9.08,6.31,0.04,0.07,-0.14,0.0,1698.0,1697.0,2543.0,3482.0,4095.0,3749.0,4095.0,3996.0,0.99,9.68,2.85,0.01,-0.04,-0.01,1.0,professor
3571.0,2786.0,4095.0,3935.0,3008.0,2790.0,3183.0,2583.0,-1.99,9.34,6.3,0.06,0.06,-0.13,0.0,1934.0,1655.0,3134.0,3502.0,4095.0,3693.0,4045.0,3962.0,0.14,9.71,2.69,-0.11,-0.08,-0.12,1.0,professor
3568.0,2800.0,4095.0,3921.0,3019.0,2795.0,3188.0,2588.0,-1.75,9.36,6.53,0.02,0.02,-0.21,0.0,1998.0,1585.0,3469.0,3571.0,4095.0,3744.0,4095.0,3965.0,1.06,9.39,2.74,-0.04,0.14,0.21,1.0,professor
3536.0,2800.0,4095.0,3946.0,3101.0,2831.0,3231.0,2640.0,-16.12,4.42,2.89,-0.59,1.11,3.08,0.0,2191.0,1663.0,1051.0,3563.0,4095.0,3749.0,4095.0,3926.0,15.49,9.16,-2.22,-0.89,-0.48,-3.41,1.0,professor
3583.0,2763.0,3951.0,3818.0,2879.0,2784.0,3119.0,2581.0,0.95,7.6,6.05,0.38,0.05,-3.63,0.0,2039.0,1519.0,4095.0,3617.0,4095.0,3572.0,3919.0,3851.0,3.45,6.44,1.92,0.68,-0.98,2.38,1.0,professor
3574.0,2992.0,4095.0,3863.0,3088.0,2763.0,3040.0,2559.0,-21.82,8.58,1.19,-0.76,0.47,1.22,0.0,1793.0,1595.0,4095.0,3463.0,4095.0,3545.0,4035.0,3789.0,13.01,11.66,-1.99,-2.17,0.04,-1.94,1.0,professor
3539.0,973.0,3095.0,3811.0,3126.0,2899.0,3270.0,2800.0,-16.95,7.3,2.74,-0.36,0.2,0.21,0.0,947.0,1818.0,896.0,3399.0,4095.0,3760.0,4095.0,3435.0,18.28,14.11,-5.79,0.15,-0.3,-1.1,1.0,professor
2640.0,2405.0,2647.0,3317.0,3466.0,3409.0,3805.0,3297.0,-7.21,-3.69,2.35,-2.8,-0.31,5.12,0.0,2067.0,2183.0,2023.0,3101.0,4095.0,4095.0,4095.0,4095.0,9.07,-1.58,-5.15,-4.46,1.44,-6.32,1.0,professor
2876.0,2525.0,2794.0,3450.0,3632.0,3515.0,4095.0,3478.0,9.58,-14.64,4.2,-3.28,-3.45,6.84,0.0,2636.0,2811.0,2604.0,2909.0,4095.0,4095.0,4095.0,4095.0,-1.82,-20.12,-1.23,-4.1,2.18,-8.09,1.0,professor
2970.0,2480.0,2794.0,3618.0,3791.0,4002.0,4095.0,3471.0,30.7,-9.87,12.33,-1.11,-0.44,4.07,0.0,2490.0,2762.0,2244.0,3147.0,4095.0,4095.0,4095.0,4095.0,-22.91,-22.98,1.93,-0.71,1.58,-3.23,1.0,professor
2961.0,2449.0,2815.0,3600.0,3792.0,3961.0,4095.0,3658.0,17.36,-0.29,9.96,0.65,-0.51,-0.09,0.0,2238.0,2740.0,2276.0,3207.0,4095.0,4095.0,4095.0,4095.0,-5.9,-7.59,0.58,0.17,-0.32,-0.34,1.0,professor
2912.0,2246.0,2811.0,3546.0,3654.0,3760.0,4095.0,3749.0,9.43,-2.34,6.23,0.34,0.27,-0.68,0.0,2150.0,2714.0,2239.0,3194.0,4095.0,4095.0,4095.0,4095.0,-4.86,-8.59,0.79,-0.1,0.12,-0.07,1.0,professor
2910.0,2032.0,2806.0,3479.0,3633.0,3616.0,4095.0,3773.0,9.07,-3.12,7.24,-0.14,0.06,-0.09,0.0,2110.0,2706.0,2244.0,3191.0,4095.0,4095.0,4095.0,4095.0,-5.39,-7.86,0.68,-0.11,0.0,-0.01,1.0,professor
2908.0,1936.0,2810.0,3453.0,3612.0,3598.0,4095.0,3786.0,9.53,-2.75,6.98,-0.08,-0.01,-0.09,0.0,2117.0,2695.0,2235.0,3187.0,4095.0,4095.0,4095.0,4095.0,-5.18,-8.16,0.9,-0.04,-0.02,-0.01,1.0,professor
2915.0,1891.0,2809.0,3495.0,3575.0,3616.0,4095.0,3787.0,9.08,-2.78,6.92,-0.08,0.02,-0.11,0.0,2041.0,2639.0,2219.0,3169.0,4095.0,4095.0,4095.0,4095.0,-5.03,-7.91,0.98,-0.05,0.06,0.01,1.0,professor
2928.0,1958.0,2816.0,3497.0,3577.0,3578.0,4095.0,3795.0,9.59,-3.05,6.94,-0.02,-0.1,-0.17,0.0,2074.0,2615.0,2202.0,3143.0,4095.0,4095.0,4095.0,4095.0,-5.1,-8.02,1.06,-0.1,0.02,-0.02,1.0,professor
2939.0,1957.0,2807.0,3520.0,3561.0,3554.0,4095.0,3793.0,9.33,-3.07,6.96,-0.02,0.01,-0.13,0.0,2001.0,2506.0,2190.0,3167.0,4095.0,4095.0,4095.0,4095.0,-5.25,-7.9,0.97,-0.07,0.02,0.03,1.0,professor
2934.0,1922.0,2806.0,3519.0,3533.0,3534.0,4095.0,3797.0,9.17,-3.06,6.95,0.01,0.01,-0.16,0.0,2207.0,2391.0,2163.0,3178.0,4095.0,4095.0,4095.0,4095.0,-5.36,-7.83,0.83,-0.04,-0.01,0.03,1.0,professor
3490.0,4095.0,1686.0,3799.0,2954.0,2750.0,3157.0,2775.0,-1.68,9.31,6.41,-0.06,0.05,-0.12,0.0,924.0,4095.0,2749.0,3824.0,4095.0,3583.0,4080.0,3968.0,0.01,9.54,3.2,-0.09,-0.02,-0.02,1.0,professor
3509.0,4095.0,1712.0,3820.0,2960.0,2752.0,3155.0,2782.0,-0.67,9.16,6.51,0.02,-0.02,-0.45,0.0,911.0,4095.0,2747.0,3853.0,4095.0,3573.0,4064.0,3965.0,-0.43,9.17,3.17,-0.07,0.05,0.21,1.0,professor
3499.0,4095.0,1009.0,3780.0,2982.0,2758.0,3161.0,2800.0,-10.15,9.64,6.03,0.07,0.76,0.66,0.0,913.0,4095.0,1910.0,3893.0,4095.0,3568.0,4055.0,3950.0,7.17,11.41,1.58,-0.44,-0.23,-1.2,1.0,professor
3485.0,4095.0,2641.0,3664.0,2929.0,2709.0,3099.0,2718.0,12.88,8.0,6.6,0.24,-0.88,0.81,0.0,913.0,4095.0,2435.0,3837.0,4095.0,3602.0,4031.0,3922.0,-13.64,5.34,6.91,0.07,-0.12,0.12,1.0,professor
3507.0,4095.0,2467.0,3735.0,2951.0,2736.0,3147.0,2800.0,-0.51,8.75,6.18,0.03,0.09,-2.21,0.0,912.0,4095.0,1708.0,3889.0,4095.0,3566.0,4035.0,3916.0,5.07,9.75,1.57,0.5,-0.07,1.78,1.0,professor
3517.0,4095.0,974.0,3778.0,2993.0,2736.0,3179.0,2747.0,-14.06,9.56,4.95,-0.09,0.61,0.67,0.0,912.0,4095.0,1002.0,3859.0,4095.0,3541.0,4067.0,3952.0,7.68,10.29,2.5,-1.04,-0.21,-1.62,1.0,professor
3462.0,4013.0,3225.0,3682.0,2950.0,2735.0,3099.0,2740.0,11.33,6.51,7.33,0.08,-0.06,0.37,0.0,903.0,4095.0,2064.0,3947.0,4095.0,3598.0,4069.0,3970.0,-9.96,5.44,6.06,0.59,0.34,0.4,1.0,professor
3312.0,1697.0,1215.0,3728.0,3117.0,2999.0,3385.0,2906.0,-6.15,7.23,4.32,-0.11,0.13,-1.05,0.0,916.0,4095.0,895.0,3795.0,4095.0,3520.0,4095.0,3904.0,8.7,9.94,0.04,0.25,0.2,-0.4,1.0,professor
2832.0,1498.0,2606.0,3229.0,3545.0,3453.0,4070.0,3269.0,-9.16,4.25,3.29,-1.66,0.36,2.5,0.0,1826.0,2893.0,2528.0,3302.0,4095.0,4095.0,4095.0,4095.0,7.64,6.79,0.02,-2.08,0.26,-4.05,1.0,professor
2919.0,2399.0,2734.0,3289.0,3675.0,3596.0,4095.0,3374.0,-1.75,-4.55,3.5,-2.47,-1.85,5.47,0.0,2336.0,2810.0,2622.0,2710.0,4095.0,4095.0,4095.0,4095.0,1.36,-3.99,-0.89,-2.25,1.51,-6.29,1.0,professor
3009.0,2515.0,2809.0,3722.0,3871.0,4095.0,4095.0,3651.0,23.37,3.08,11.06,0.09,-1.51,1.13,0.0,1408.0,2847.0,2438.0,3062.0,4095.0,4095.0,4095.0,4095.0,-19.27,-10.04,4.36,-0.4,-0.09,-1.57,1.0,professor
3007.0,2379.0,2822.0,3718.0,3821.0,4095.0,4095.0,3750.0,10.84,2.46,7.77,0.34,0.19,-0.62,0.0,1252.0,2864.0,2450.0,3098.0,4095.0,4095.0,4095.0,4095.0,-9.66,-4.58,3.08,-0.02,-0.28,-0.09,1.0,professor
2993.0,2289.0,2833.0,3675.0,3741.0,3937.0,4095.0,3766.0,8.38,0.18,6.05,-0.02,0.13,-0.36,0.0,1014.0,2829.0,2437.0,3150.0,4095.0,4095.0,4095.0,4095.0,-7.65,-5.42,2.37,-0.14,-0.01,-0.09,1.0,professor
2983.0,2250.0,2818.0,3695.0,3695.0,3888.0,4095.0,3850.0,9.54,0.13,7.03,-0.09,0.1,-0.02,0.0,979.0,2806.0,2433.0,3154.0,4095.0,4095.0,4095.0,4095.0,-7.64,-5.4,2.0,-0.07,0.18,0.0,1.0,professor
2986.0,2175.0,2826.0,3679.0,3677.0,3857.0,4095.0,3888.0,9.93,0.45,7.03,0.01,-0.02,-0.12,0.0,980.0,2813.0,2422.0,3163.0,4095.0,4095.0,4095.0,4095.0,-7.61,-5.15,1.94,-0.05,-0.0,0.01,1.0,professor
2995.0,2058.0,2836.0,3696.0,3664.0,3855.0,4095.0,3903.0,9.79,0.51,6.78,0.03,-0.05,-0.15,0.0,969.0,2805.0,2428.0,3163.0,4095.0,4095.0,4095.0,4095.0,-7.67,-5.21,1.98,-0.02,0.0,-0.08,1.0,professor
2995.0,1987.0,2837.0,3622.0,3662.0,3840.0,4095.0,3887.0,9.74,0.48,6.8,-0.01,-0.02,-0.15,0.0,974.0,2804.0,2429.0,3155.0,4095.0,4095.0,4095.0,4095.0,-7.86,-5.26,1.7,-0.03,-0.05,-0.07,1.0,professor
2997.0,1987.0,2822.0,3676.0,3661.0,3826.0,4095.0,3888.0,9.81,0.46,6.82,0.03,0.03,-0.15,0.0,976.0,2784.0,2415.0,3166.0,4095.0,4095.0,4095.0,4095.0,-7.83,-5.21,1.8,-0.1,-0.01,0.01,1.0,professor
2992.0,1943.0,2833.0,3670.0,3662.0,3835.0,4095.0,3910.0,9.68,0.53,6.72,0.01,0.0,-0.14,0.0,976.0,2785.0,2413.0,3184.0,4095.0,4095.0,4095.0,4095.0,-7.69,-5.14,1.86,-0.07,0.0,-0.01,1.0,professor
2986.0,1941.0,2848.0,3675.0,3650.0,3824.0,4095.0,3915.0,9.69,0.51,6.8,0.02,0.02,-0.13,0.0,976.0,2749.0,2405.0,3178.0,4095.0,4095.0,4095.0,4095.0,-7.74,-5.24,1.85,-0.09,-0.02,-0.01,1.0,professor
3583.0,4095.0,4095.0,3835.0,2897.0,2770.0,3205.0,2559.0,-2.2,9.49,6.1,0.01,-0.04,-0.19,0.0,1841.0,4095.0,932.0,3757.0,4095.0,3559.0,3955.0,3825.0,0.16,9.66,2.99,-0.03,-0.02,-0.01,1.0,professor
3573.0,4095.0,4095.0,3865.0,2906.0,2768.0,3205.0,2590.0,-3.13,8.69,6.11,-0.06,0.04,-0.14,0.0,1948.0,4095.0,920.0,3749.0,4095.0,3559.0,3949.0,3830.0,1.03,9.24,2.6,-0.09,-0.07,-0.05,1.0,professor
3557.0,4095.0,4095.0,3609.0,2747.0,2748.0,3125.0,2595.0,16.11,9.28,7.44,-0.06,-0.38,-0.3,0.0,1972.0,4095.0,895.0,3729.0,4095.0,3551.0,3957.0,3793.0,6.15,10.79,1.75,-0.56,-0.06,-2.0,1.0,professor
3574.0,4095.0,3216.0,3870.0,2896.0,2753.0,3198.0,2679.0,-1.93,8.73,6.33,0.07,-0.17,-2.29,0.0,2066.0,4095.0,918.0,3695.0,4095.0,3583.0,3919.0,3776.0,-14.75,5.87,6.68,0.17,-0.3,0.21,1.0,professor
3583.0,4095.0,938.0,3904.0,2967.0,2745.0,3147.0,2639.0,-15.75,9.27,4.03,-0.17,0.64,1.2,0.0,2402.0,4095.0,879.0,3751.0,4095.0,3561.0,3967.0,3840.0,7.35,10.72,1.68,-1.04,-0.07,-1.56,1.0,professor
3395.0,4095.0,4095.0,3597.0,2928.0,2731.0,3119.0,2699.0,17.81,5.46,7.04,0.0,-0.22,1.19,0.0,2462.0,4095.0,887.0,3824.0,4095.0,3611.0,3953.0,3836.0,-12.71,3.84,7.25,0.19,0.22,0.24,1.0,professor
3399.0,4095.0,3129.0,3911.0,2987.0,2765.0,3214.0,2832.0,-1.61,7.72,6.13,-0.01,-0.89,-1.66,0.0,2530.0,4095.0,878.0,3792.0,4095.0,3524.0,3991.0,3907.0,6.24,8.64,1.09,-0.03,0.48,0.41,1.0,professor
3307.0,3475.0,1319.0,3667.0,3014.0,2906.0,3328.0,2832.0,-12.28,5.77,3.31,-0.35,1.62,1.71,0.0,966.0,4095.0,903.0,3620.0,4095.0,3613.0,4095.0,4042.0,9.25,5.77,0.14,-1.42,0.78,-3.62,1.0,professor
2639.0,2110.0,2471.0,2948.0,3471.0,3313.0,3837.0,3137.0,-2.26,-1.42,2.68,-2.24,-1.48,4.99,0.0,1885.0,1456.0,2175.0,2974.0,4095.0,4095.0,4095.0,4095.0,0.43,-2.71,-0.57,-2.22,1.81,-6.29,1.0,professor
2914.0,2378.0,2766.0,3704.0,3728.0,3877.0,4095.0,3731.0,15.07,-6.54,7.22,-2.31,-1.16,6.31,0.0,1908.0,2825.0,2448.0,2883.0,4095.0,4095.0,4095.0,4095.0,-12.26,-13.24,-0.43,-1.8,1.83,-6.13,1.0,professor
3001.0,2211.0,2800.0,3771.0,3953.0,4095.0,4095.0,3780.0,24.41,-0.3,10.69,-0.61,-0.52,2.14,0.0,1846.0,2960.0,2401.0,3108.0,4095.0,4095.0,4095.0,4095.0,-19.13,-12.64,3.43,-1.36,-0.1,-2.72,1.0,professor
2987.0,2161.0,2813.0,3766.0,3852.0,4067.0,4095.0,3933.0,13.47,1.0,8.54,-0.01,-0.2,-0.04,0.0,1520.0,3023.0,2433.0,3203.0,4095.0,4095.0,4095.0,4095.0,-11.54,-6.59,3.11,-0.39,0.27,-0.09,1.0,professor
2989.0,2000.0,2821.0,3811.0,3718.0,3867.0,4095.0,3955.0,9.42,-0.88,6.9,0.02,-0.11,-0.16,0.0,1196.0,2896.0,2405.0,3185.0,4095.0,4095.0,4095.0,4095.0,-6.8,-5.99,1.33,-0.01,0.06,0.03,1.0,professor
2992.0,1913.0,2822.0,3788.0,3683.0,3869.0,4095.0,3953.0,9.84,-0.68,6.78,-0.01,-0.08,-0.14,0.0,1104.0,2739.0,2384.0,3186.0,4095.0,4095.0,4095.0,4095.0,-7.11,-6.1,1.35,-0.07,0.04,-0.1,1.0,professor
2989.0,1886.0,2819.0,3813.0,3676.0,3850.0,4095.0,3959.0,9.79,-0.62,6.61,0.04,-0.04,-0.09,0.0,1177.0,2608.0,2378.0,3186.0,4095.0,4095.0,4095.0,4095.0,-7.22,-6.06,1.42,-0.09,-0.12,-0.05,1.0,professor
2992.0,1872.0,2825.0,3806.0,3646.0,3826.0,4095.0,3952.0,9.65,-0.64,6.53,0.02,0.03,-0.13,0.0,1424.0,2411.0,2353.0,3177.0,4095.0,4095.0,4095.0,4095.0,-7.13,-6.15,1.58,-0.1,-0.04,-0.09,1.0,professor
3008.0,1866.0,2823.0,3808.0,3567.0,3789.0,4095.0,3935.0,9.74,-0.71,6.48,0.01,-0.01,-0.11,0.0,1515.0,2290.0,2368.0,3182.0,4095.0,4095.0,4095.0,4095.0,-7.12,-5.96,1.52,0.01,-0.06,0.04,1.0,professor
2993.0,1869.0,2818.0,3776.0,3549.0,3781.0,4095.0,3942.0,9.85,-0.81,6.63,-0.03,-0.03,-0.16,0.0,1424.0,2224.0,2358.0,3193.0,4095.0,4095.0,4095.0,4095.0,-7.19,-6.14,1.51,-0.07,0.04,0.03,1.0,professor
3008.0,1852.0,2818.0,3773.0,3583.0,3778.0,4095.0,3918.0,9.66,-0.68,6.73,0.07,0.02,-0.18,0.0,1775.0,2142.0,2353.0,3217.0,4095.0,4095.0,4095.0,4095.0,-7.09,-5.95,1.48,-0.09,0.02,-0.04,1.0,professor
3005.0,1789.0,2815.0,3781.0,3614.0,3765.0,4095.0,3920.0,9.62,-0.66,6.48,0.05,-0.07,-0.17,0.0,1920.0,1977.0,2334.0,3239.0,4095.0,4095.0,4095.0,4095.0,-7.14,-6.0,1.54,-0.05,0.01,-0.03,1.0,professor
3565.0,4095.0,1101.0,3873.0,2865.0,2729.0,3222.0,2631.0,-1.34,9.67,5.77,-0.05,-0.07,-0.23,0.0,1217.0,3387.0,1109.0,3721.0,4095.0,3504.0,3786.0,3767.0,-1.14,9.54,3.29,-0.02,0.01,0.06,1.0,professor
3575.0,4095.0,1040.0,3840.0,2858.0,2736.0,3226.0,2640.0,-0.41,9.46,5.88,0.04,-0.12,-0.32,0.0,1296.0,3394.0,1097.0,3717.0,4095.0,3519.0,3820.0,3770.0,-1.26,9.31,3.17,-0.03,0.04,0.12,1.0,professor
3601.0,4095.0,1033.0,3841.0,2868.0,2729.0,3211.0,2665.0,-6.81,9.54,5.51,-0.04,0.37,-0.33,0.0,1342.0,3389.0,958.0,3662.0,4095.0,3507.0,3778.0,3749.0,6.17,10.91,0.7,0.2,-0.51,-0.08,1.0,professor
3613.0,4095.0,1017.0,3918.0,2857.0,2724.0,3147.0,2694.0,-2.8,8.58,5.8,-0.09,0.06,1.95,0.0,1446.0,3387.0,955.0,3726.0,4095.0,3508.0,3822.0,3777.0,-5.31,6.47,4.71,-0.72,-0.13,-2.37,1.0,professor
3517.0,4095.0,997.0,3707.0,2835.0,2669.0,3121.0,2672.0,10.72,9.42,6.88,0.11,-0.01,-0.82,0.0,1730.0,3267.0,1008.0,3728.0,4095.0,3551.0,3799.0,3807.0,-10.41,7.13,6.93,0.14,0.55,1.28,1.0,professor
3633.0,4095.0,1008.0,3813.0,2896.0,2670.0,3151.0,2737.0,-7.95,9.21,5.67,0.14,0.33,-2.03,0.0,2204.0,3326.0,934.0,3710.0,4095.0,3536.0,3845.0,3803.0,8.54,12.05,-0.29,0.63,-0.3,1.35,1.0,professor
3716.0,4095.0,1036.0,3888.0,2912.0,2688.0,3165.0,2656.0,-8.58,8.1,4.53,-0.34,-0.2,1.53,0.0,2351.0,3349.0,919.0,3763.0,4095.0,3538.0,3872.0,3894.0,2.09,8.45,3.56,-1.04,0.09,-1.74,1.0,professor
3600.0,4095.0,996.0,3749.0,2899.0,2706.0,3152.0,2701.0,11.93,7.81,7.3,0.08,-0.23,-0.65,0.0,2419.0,3163.0,989.0,3791.0,4095.0,3575.0,3868.0,3911.0,-9.68,5.7,6.23,0.32,0.47,1.09,1.0,professor
3606.0,4095.0,990.0,3906.0,2931.0,2715.0,3235.0,2774.0,-5.59,7.13,5.29,0.25,-0.19,-1.37,0.0,2452.0,3217.0,951.0,3650.0,4095.0,3526.0,3860.0,3845.0,8.12,9.66,0.33,0.37,-0.02,0.33,1.0,professor
3582.0,4095.0,944.0,3957.0,3001.0,2799.0,3237.0,2708.0,-12.05,4.77,3.51,-0.51,0.17,2.7,0.0,1982.0,3026.0,926.0,3669.0,4095.0,3583.0,3973.0,3982.0,9.18,6.34,0.04,-0.97,0.44,-3.81,1.0,professor
2743.0,2378.0,2673.0,3407.0,3419.0,3373.0,3951.0,3193.0,-0.0,-2.89,3.34,-2.66,-0.83,5.9,0.0,1985.0,1936.0,2469.0,3399.0,4095.0,4095.0,4095.0,4095.0,0.71,-2.32,-1.66,-3.14,0.88,-6.58,1.0,professor
2951.0,2285.0,2782.0,3711.0,4011.0,4095.0,4095.0,3938.0,26.13,-1.93,7.87,-0.65,-1.15,2.81,0.0,2271.0,2801.0,2126.0,3208.0,4095.0,4095.0,4095.0,4095.0,-20.64,-15.32,3.22,-0.73,0.67,-2.35,1.0,professor
2959.0,2279.0,2797.0,3811.0,3907.0,4095.0,4095.0,3985.0,15.34,1.27,7.8,0.24,-0.08,0.0,0.0,2087.0,2726.0,2160.0,3255.0,4095.0,4095.0,4095.0,4095.0,-11.2,-7.72,4.07,-0.31,0.31,-0.05,1.0,professor
2929.0,2153.0,2810.0,3779.0,3878.0,4070.0,4095.0,4032.0,9.25,-0.42,5.28,0.07,0.31,-0.54,0.0,1923.0,2629.0,2169.0,3231.0,4095.0,4095.0,4095.0,4095.0,-6.16,-6.44,1.17,0.14,-0.12,0.02,1.0,professor
2938.0,2141.0,2816.0,3731.0,3863.0,4018.0,4095.0,4027.0,9.37,-1.19,5.82,-0.1,0.17,-0.18,0.0,1845.0,2485.0,2178.0,3246.0,4095.0,4095.0,4095.0,4095.0,-6.46,-6.77,1.32,0.11,-0.01,0.01,1.0,professor
2927.0,2197.0,2821.0,3696.0,3843.0,3980.0,4095.0,4061.0,9.7,-1.22,6.45,-0.07,0.08,-0.22,0.0,1662.0,2413.0,2175.0,3243.0,4095.0,4095.0,4095.0,4095.0,-6.51,-6.94,1.55,0.0,0.06,-0.02,1.0,professor
2907.0,2176.0,2832.0,3728.0,3835.0,3987.0,4095.0,4037.0,9.7,-0.84,6.2,0.0,0.11,-0.07,0.0,1642.0,2291.0,2151.0,3239.0,4095.0,4095.0,4095.0,4095.0,-6.71,-6.35,1.59,0.0,0.11,0.03,1.0,professor
2911.0,2163.0,2820.0,3728.0,3820.0,3978.0,4095.0,4020.0,9.96,-1.18,6.38,-0.07,0.25,-0.19,0.0,1455.0,2249.0,2142.0,3245.0,4095.0,4095.0,4095.0,4095.0,-7.0,-6.66,1.47,-0.04,0.04,0.23,1.0,professor
2927.0,2112.0,2827.0,3717.0,3824.0,3967.0,4095.0,4016.0,9.63,-1.15,6.4,-0.05,-0.09,-0.24,0.0,1221.0,2224.0,2137.0,3245.0,4095.0,4095.0,4095.0,4095.0,-6.87,-6.88,1.23,-0.04,-0.09,0.08,1.0,professor
2910.0,2095.0,2835.0,3729.0,3834.0,3995.0,4095.0,4040.0,9.39,-1.09,6.64,0.01,0.01,-0.2,0.0,1126.0,2193.0,2143.0,3235.0,4095.0,4095.0,4095.0,4095.0,-6.76,-5.89,1.28,-0.11,-0.11,-0.02,1.0,professor
3487.0,4095.0,949.0,3839.0,2874.0,2734.0,3108.0,2599.0,-2.21,9.39,5.95,0.02,0.0,-0.19,0.0,1602.0,4095.0,901.0,3869.0,4095.0,3410.0,3851.0,3829.0,-0.75,9.78,2.9,-0.08,0.0,-0.01,1.0,professor
3481.0,4095.0,938.0,3840.0,2880.0,2736.0,3100.0,2599.0,-1.86,9.42,5.9,0.01,-0.03,-0.23,0.0,1616.0,4095.0,896.0,3873.0,4095.0,3423.0,3842.0,3824.0,-0.84,9.56,2.77,-0.07,-0.02,0.02,1.0,professor
3495.0,4095.0,941.0,3845.0,2907.0,2736.0,3105.0,2611.0,-5.71,8.83,5.68,-0.11,0.19,-0.15,0.0,1634.0,4095.0,906.0,3881.0,4095.0,3418.0,3853.0,3840.0,1.87,9.79,2.04,-0.15,0.04,0.07,1.0,professor
3530.0,4095.0,944.0,3886.0,2910.0,2745.0,3107.0,2631.0,-6.66,8.44,5.3,-0.22,0.41,1.99,0.0,1643.0,4095.0,911.0,3876.0,4095.0,3428.0,3882.0,3868.0,4.66,10.56,1.99,-0.51,-0.05,-1.93,1.0,professor
3262.0,4095.0,912.0,3773.0,2880.0,2743.0,3071.0,2585.0,15.65,8.55,7.3,-0.04,0.06,0.48,0.0,2046.0,4095.0,913.0,3760.0,4095.0,3467.0,3893.0,3839.0,-15.13,3.87,6.73,-0.03,-0.34,-0.52,1.0,professor
3330.0,4095.0,921.0,3813.0,2893.0,2769.0,3121.0,2640.0,2.6,9.38,6.67,0.25,-0.61,-2.37,0.0,2112.0,4095.0,882.0,3836.0,4095.0,3481.0,3920.0,3920.0,-2.46,8.1,3.24,0.42,-0.37,2.15,1.0,professor
3677.0,4095.0,999.0,3929.0,2887.0,2739.0,3091.0,2430.0,-17.7,9.76,3.15,0.12,0.66,0.05,0.0,2195.0,4095.0,870.0,3728.0,4095.0,3440.0,3926.0,3840.0,13.64,13.87,-0.41,-0.32,-0.05,-0.49,1.0,professor
3489.0,4095.0,977.0,3951.0,2870.0,2768.0,3134.0,2664.0,6.7,7.75,6.71,-0.08,-0.2,1.65,0.0,2352.0,4095.0,878.0,3800.0,4095.0,3473.0,3927.0,3944.0,-12.27,2.38,6.11,-0.34,0.29,-1.97,1.0,professor
3395.0,4095.0,951.0,3851.0,2918.0,2754.0,3118.0,2609.0,5.68,8.93,6.59,0.11,-0.6,-1.62,0.0,2370.0,4095.0,869.0,3828.0,4095.0,3492.0,3917.0,3966.0,-4.6,6.92,3.82,0.24,0.14,1.85,1.0,professor
3534.0,4095.0,986.0,3968.0,2923.0,2743.0,3124.0,2689.0,-12.47,6.71,5.75,0.27,0.66,-1.01,0.0,2367.0,4095.0,868.0,3711.0,4095.0,3434.0,3897.0,3911.0,11.44,11.23,0.47,0.37,-0.21,-0.21,1.0,professor
3095.0,4095.0,2786.0,3952.0,3248.0,3331.0,3616.0,2911.0,-8.73,2.44,1.34,-1.46,0.19,3.63,0.0,1438.0,4095.0,880.0,3455.0,4095.0,3701.0,4095.0,4087.0,7.44,4.29,-0.5,-1.36,1.15,-4.46,1.0,professor
2835.0,2423.0,2825.0,3578.0,3533.0,3648.0,4095.0,3523.0,2.35,-5.61,4.25,-2.36,-0.98,5.61,0.0,2399.0,2935.0,1997.0,2710.0,4095.0,4095.0,4095.0,4095.0,0.83,-5.77,0.37,-2.23,1.85,-6.44,1.0,professor
2946.0,2526.0,2845.0,3620.0,3867.0,4095.0,4095.0,3790.0,19.54,-7.15,7.52,-1.5,-2.41,5.63,0.0,2288.0,3057.0,2019.0,3114.0,4095.0,4095.0,4095.0,4095.0,-13.01,-16.0,-0.09,-1.66,0.95,-6.16,1.0,professor
3006.0,2469.0,2859.0,3727.0,3958.0,4095.0,4095.0,3733.0,26.06,-0.01,9.84,-0.1,-0.47,1.98,0.0,2276.0,3050.0,2064.0,3146.0,4095.0,4095.0,4095.0,4095.0,-18.83,-12.83,3.08,-0.84,0.52,-2.25,1.0,professor
2974.0,2405.0,2848.0,3725.0,3927.0,4095.0,4095.0,3895.0,12.8,1.2,6.85,0.11,0.18,-0.28,0.0,2121.0,3046.0,2123.0,3222.0,4095.0,4095.0,4095.0,4095.0,-9.57,-6.65,3.13,0.08,0.14,-0.27,1.0,professor
2960.0,2283.0,2860.0,3684.0,3847.0,3985.0,4095.0,3931.0,8.27,-0.51,5.68,-0.1,0.14,-0.24,0.0,1723.0,3015.0,2091.0,3219.0,4095.0,4095.0,4095.0,4095.0,-6.81,-6.72,1.4,-0.02,-0.12,-0.14,1.0,professor
2960.0,2228.0,2848.0,3703.0,3817.0,3951.0,4095.0,3919.0,9.84,-1.27,6.34,-0.1,0.03,-0.02,0.0,1462.0,3089.0,2064.0,3248.0,4095.0,4095.0,4095.0,4095.0,-6.73,-6.71,1.12,-0.1,0.12,-0.04,1.0,professor
2972.0,2227.0,2859.0,3696.0,3787.0,3878.0,4095.0,3906.0,9.93,-1.02,6.37,-0.01,-0.06,-0.1,0.0,1136.0,3011.0,2046.0,3251.0,4095.0,4095.0,4095.0,4095.0,-6.63,-6.73,1.37,-0.04,-0.05,-0.07,1.0,professor
2957.0,2192.0,2854.0,3681.0,3769.0,3868.0,4095.0,3936.0,9.66,-0.98,6.53,0.01,0.02,-0.12,0.0,1019.0,2943.0,2024.0,3264.0,4095.0,4095.0,4095.0,4095.0,-7.02,-6.8,1.44,-0.13,0.01,-0.03,1.0,professor
2954.0,2160.0,2864.0,3692.0,3757.0,3851.0,4095.0,3920.0,10.03,-1.24,6.19,0.02,0.02,-0.14,0.0,973.0,2896.0,2028.0,3279.0,4095.0,4095.0,4095.0,4095.0,-6.9,-6.74,1.31,-0.09,-0.01,-0.02,1.0,professor
3943.0,4095.0,916.0,3694.0,2881.0,2651.0,2969.0,2559.0,-2.38,9.49,5.71,-0.01,0.0,-0.17,0.0,3849.0,4095.0,875.0,3623.0,4095.0,3455.0,3795.0,3719.0,-0.37,9.39,3.73,-0.08,-0.07,-0.0,1.0,professor
3957.0,4095.0,918.0,3696.0,2877.0,2654.0,2969.0,2559.0,-0.17,9.16,6.36,-0.02,-0.24,-0.41,0.0,3845.0,4095.0,862.0,3611.0,4095.0,3467.0,3807.0,3722.0,-3.82,8.08,4.07,0.05,-0.06,0.28,1.0,professor
3967.0,4095.0,927.0,3695.0,2879.0,2659.0,2967.0,2597.0,-8.63,8.64,5.46,0.1,0.24,-0.66,0.0,3826.0,4095.0,873.0,3536.0,4095.0,3446.0,3804.0,3698.0,9.59,12.02,1.83,0.25,0.13,0.58,1.0,professor
3964.0,4095.0,931.0,3753.0,2892.0,2669.0,2983.0,2639.0,-6.56,8.49,4.85,-0.09,0.05,1.95,0.0,3889.0,4095.0,874.0,3583.0,4095.0,3442.0,3852.0,3761.0,1.06,8.19,3.27,-0.62,-0.14,-2.57,1.0,professor
3939.0,4095.0,921.0,3495.0,2841.0,2649.0,2955.0,2594.0,14.01,9.05,7.08,-0.03,-0.37,-0.02,0.0,3963.0,4095.0,866.0,3662.0,4095.0,3503.0,3837.0,3756.0,-13.08,5.93,7.08,0.25,-0.05,0.81,1.0,professor
3970.0,4095.0,919.0,3831.0,2917.0,2669.0,2988.0,2656.0,-15.15,9.3,3.96,0.0,0.12,0.39,0.0,3954.0,4095.0,880.0,3583.0,4095.0,3474.0,3867.0,3780.0,9.95,12.15,0.59,-0.87,-0.18,-1.5,1.0,professor
3902.0,4095.0,919.0,3598.0,2864.0,2649.0,2961.0,2638.0,13.26,7.87,7.55,0.17,-0.12,0.44,0.0,4049.0,4095.0,862.0,3664.0,4095.0,3505.0,3816.0,3705.0,-15.68,3.01,8.7,0.57,-0.03,0.04,1.0,professor
3903.0,4095.0,921.0,3766.0,2905.0,2631.0,2987.0,2703.0,-3.98,7.44,4.81,0.21,-0.32,-1.99,0.0,4095.0,4095.0,873.0,3614.0,4095.0,3463.0,3811.0,3718.0,4.7,9.13,0.7,0.59,0.06,1.7,1.0,professor
3904.0,4095.0,912.0,3771.0,2939.0,2624.0,3001.0,2692.0,-17.47,4.49,3.31,-0.2,0.63,1.84,0.0,4094.0,4095.0,887.0,3442.0,4095.0,3411.0,3836.0,3766.0,14.41,8.69,-1.75,-0.89,0.24,-2.48,1.0,professor
3379.0,4095.0,2902.0,3644.0,3034.0,3094.0,3450.0,2935.0,-1.45,-2.73,1.5,-1.27,-0.1,5.24,0.0,4095.0,3634.0,910.0,3493.0,4095.0,3926.0,4095.0,4095.0,2.0,-3.25,-1.79,-2.62,1.6,-6.34,1.0,professor
2901.0,2707.0,2693.0,3796.0,3639.0,3556.0,4095.0,3540.0,12.59,-6.97,7.69,-2.23,-1.65,5.5,0.0,2727.0,2778.0,2320.0,2926.0,4095.0,4095.0,4095.0,4095.0,-9.5,-12.09,0.07,-1.9,1.9,-6.23,1.0,professor
2916.0,2581.0,2699.0,3600.0,3797.0,3927.0,4095.0,3743.0,20.57,-2.02,8.26,-0.71,-1.17,4.24,0.0,2672.0,2843.0,2317.0,3038.0,4095.0,4095.0,4095.0,4095.0,-14.86,-12.48,2.27,-1.49,1.21,-4.14,1.0,professor
2946.0,2447.0,2689.0,3696.0,3823.0,3941.0,4095.0,3671.0,20.4,0.53,9.95,-0.5,-0.05,1.52,0.0,2431.0,2788.0,2159.0,3203.0,4095.0,4095.0,4095.0,4095.0,-16.16,-10.38,4.86,-0.71,0.49,-1.22,1.0,professor
2927.0,2363.0,2707.0,3743.0,3786.0,3812.0,4095.0,3684.0,12.37,0.94,7.18,0.09,0.16,-0.24,0.0,2415.0,2802.0,2192.0,3234.0,4095.0,4095.0,4095.0,4095.0,-9.16,-5.81,3.01,0.35,-0.11,-0.06,1.0,professor
2896.0,2352.0,2719.0,3694.0,3753.0,3734.0,4095.0,3711.0,8.74,-0.51,5.99,0.03,0.15,-0.36,0.0,2364.0,2762.0,2160.0,3174.0,4095.0,4095.0,4095.0,4095.0,-6.29,-6.52,1.33,0.03,-0.04,0.04,1.0,professor
2895.0,2345.0,2714.0,3700.0,3745.0,3731.0,4095.0,3728.0,9.42,-1.17,6.51,-0.06,0.12,-0.18,0.0,2366.0,2705.0,2130.0,3185.0,4095.0,4095.0,4095.0,4095.0,-6.23,-6.36,1.38,-0.16,0.12,-0.04,1.0,professor
2891.0,2304.0,2729.0,3685.0,3756.0,3722.0,4095.0,3727.0,10.0,-0.93,6.85,0.01,-0.13,-0.21,0.0,2352.0,2672.0,2119.0,3217.0,4095.0,4095.0,4095.0,4095.0,-6.74,-6.64,1.65,-0.13,0.14,-0.05,1.0,professor
2889.0,2266.0,2743.0,3696.0,3760.0,3707.0,4095.0,3721.0,9.59,-0.81,6.62,-0.05,-0.06,-0.2,0.0,2352.0,2635.0,2112.0,3223.0,4095.0,4095.0,4095.0,4095.0,-6.84,-6.42,1.4,-0.1,0.05,-0.03,1.0,professor
2896.0,2223.0,2735.0,3633.0,3737.0,3687.0,4095.0,3728.0,9.68,-0.94,6.78,-0.06,-0.06,-0.18,0.0,2357.0,2627.0,2097.0,3209.0,4095.0,4095.0,4095.0,4095.0,-6.89,-6.56,1.39,-0.09,0.04,-0.02,1.0,professor
2882.0,2215.0,2742.0,3669.0,3697.0,3664.0,4095.0,3744.0,9.72,-0.79,6.68,0.01,-0.05,-0.17,0.0,2395.0,2585.0,2086.0,3214.0,4095.0,4095.0,4095.0,4095.0,-6.86,-6.57,1.53,-0.11,0.01,0.03,1.0,professor
3650.0,4095.0,929.0,3632.0,2841.0,2694.0,3088.0,2631.0,-2.27,9.54,5.53,-0.01,-0.03,-0.15,0.0,1613.0,4095.0,867.0,3465.0,4095.0,3488.0,3797.0,3701.0,-0.9,9.51,3.22,-0.08,-0.02,-0.01,1.0,professor
3658.0,4095.0,925.0,3650.0,2851.0,2699.0,3090.0,2654.0,-2.03,9.44,5.86,-0.05,-0.01,-0.22,0.0,1673.0,4095.0,867.0,3470.0,4095.0,3489.0,3807.0,3712.0,-1.61,9.38,3.28,-0.01,-0.07,0.04,1.0,professor
3665.0,4095.0,921.0,3655.0,2843.0,2703.0,3093.0,2662.0,-0.24,8.72,5.7,-0.02,-0.22,-0.69,0.0,1765.0,4095.0,871.0,3405.0,4095.0,3473.0,3789.0,3679.0,12.87,14.14,-0.53,-0.39,-0.25,-1.43,1.0,professor
3662.0,4095.0,973.0,3664.0,2858.0,2702.0,3086.0,2699.0,6.74,6.66,7.7,-0.12,0.46,2.42,0.0,1881.0,4095.0,866.0,3421.0,4095.0,3520.0,3798.0,3687.0,-15.5,2.26,6.25,-0.16,-0.43,-1.71,1.0,professor
3664.0,4095.0,935.0,3600.0,2875.0,2682.0,3066.0,2751.0,-12.87,7.85,3.43,0.44,1.0,-2.27,0.0,1965.0,4095.0,870.0,3498.0,4095.0,3543.0,3809.0,3767.0,-6.89,7.66,4.55,0.39,0.29,1.99,1.0,professor
3664.0,4095.0,966.0,3697.0,2893.0,2706.0,3088.0,2784.0,-6.93,7.67,5.5,-0.49,-0.72,2.18,0.0,2103.0,4095.0,863.0,3525.0,4095.0,3523.0,3834.0,3776.0,-3.17,7.1,4.08,-1.08,-0.16,-2.41,1.0,professor
3614.0,4095.0,2375.0,3463.0,2835.0,2677.0,3042.0,2750.0,10.85,8.91,7.09,0.11,-0.07,-1.21,0.0,2149.0,4095.0,869.0,3567.0,4095.0,3581.0,3837.0,3792.0,-9.03,6.45,5.73,0.44,0.76,1.78,1.0,professor
3666.0,4095.0,934.0,3583.0,2874.0,2665.0,3055.0,2769.0,-10.23,6.59,4.78,0.11,0.03,-1.54,0.0,2063.0,4095.0,878.0,3466.0,4095.0,3504.0,3824.0,3747.0,11.44,10.74,-0.18,0.43,-0.24,0.75,1.0,professor
3522.0,4095.0,3024.0,3553.0,2956.0,2847.0,3297.0,2772.0,-11.69,1.94,1.32,-1.11,-1.06,3.87,0.0,912.0,4095.0,878.0,3437.0,4095.0,3616.0,4021.0,3930.0,11.39,4.7,-1.77,-1.63,1.11,-4.49,1.0,professor
2935.0,2673.0,2539.0,3248.0,3462.0,3269.0,4004.0,3310.0,2.31,-4.96,5.81,-2.35,0.05,5.96,0.0,2559.0,2559.0,2015.0,2798.0,4095.0,4095.0,4095.0,4095.0,0.19,-6.47,1.17,-2.98,0.93,-7.03,1.0,professor
2949.0,2630.0,2708.0,3686.0,3727.0,3621.0,4095.0,3568.0,14.51,-7.45,6.97,-0.84,-2.19,5.33,0.0,2688.0,2852.0,2117.0,3025.0,4095.0,4095.0,4095.0,4095.0,-11.99,-15.64,-1.42,-1.99,1.83,-5.58,1.0,professor
2991.0,2347.0,2775.0,3689.0,3866.0,3911.0,4095.0,3709.0,27.04,-0.39,8.59,-0.27,-1.35,2.67,0.0,2644.0,2818.0,1961.0,3253.0,4095.0,4095.0,4095.0,4095.0,-19.16,-15.24,5.32,-1.71,0.58,-2.63,1.0,professor
2974.0,2332.0,2795.0,3761.0,3841.0,3915.0,4095.0,3801.0,15.67,2.08,8.14,0.2,-0.37,0.04,0.0,2556.0,2827.0,2032.0,3254.0,4095.0,4095.0,4095.0,4095.0,-11.45,-7.82,4.23,-0.04,-0.27,-0.38,1.0,professor
2960.0,2317.0,2806.0,3706.0,3773.0,3807.0,4095.0,3840.0,8.73,-0.43,5.94,-0.06,0.25,-0.44,0.0,2465.0,2839.0,2043.0,3184.0,4095.0,4095.0,4095.0,4095.0,-6.99,-6.92,1.67,0.14,0.07,0.1,1.0,professor
2943.0,2335.0,2800.0,3679.0,3760.0,3792.0,4095.0,3892.0,9.45,-1.26,6.14,-0.01,0.14,-0.1,0.0,2370.0,2793.0,2030.0,3166.0,4095.0,4095.0,4095.0,4095.0,-6.6,-6.98,1.34,0.04,0.25,0.08,1.0,professor
2943.0,2307.0,2815.0,3681.0,3751.0,3792.0,4095.0,3917.0,9.76,-1.01,6.25,0.04,0.01,-0.15,0.0,2314.0,2750.0,2000.0,3125.0,4095.0,4095.0,4095.0,4095.0,-6.3,-6.54,1.58,-0.04,0.03,0.04,1.0,professor
2958.0,2298.0,2805.0,3701.0,3717.0,3763.0,4095.0,3900.0,9.61,-0.9,6.27,-0.04,-0.03,-0.1,0.0,2259.0,2725.0,1974.0,3071.0,4095.0,4095.0,4095.0,4095.0,-6.69,-6.68,1.78,-0.12,0.06,-0.02,1.0,professor
2949.0,2263.0,2805.0,3712.0,3705.0,3749.0,4095.0,3898.0,9.84,-0.99,6.35,-0.02,-0.02,-0.11,0.0,2251.0,2685.0,1965.0,3028.0,4095.0,4095.0,4095.0,4095.0,-6.63,-6.63,1.63,-0.07,0.01,-0.01,1.0,professor
2960.0,2273.0,2815.0,3677.0,3698.0,3735.0,4095.0,3916.0,9.85,-1.0,6.43,0.03,-0.01,-0.12,0.0,2256.0,2661.0,1936.0,3130.0,4095.0,4095.0,4095.0,4095.0,-6.45,-6.56,1.75,-0.08,-0.01,-0.01,1.0,professor
2946.0,2253.0,2823.0,3641.0,3707.0,3733.0,4095.0,3918.0,9.97,-1.06,6.23,-0.0,-0.0,-0.14,0.0,2268.0,2614.0,1954.0,3136.0,4095.0,4095.0,4095.0,4095.0,-6.46,-6.62,1.73,-0.0,-0.05,-0.04,1.0,professor
3582.0,4095.0,919.0,4095.0,3008.0,2835.0,3267.0,2741.0,-2.05,9.45,5.75,-0.02,-0.03,-0.21,0.0,3342.0,4095.0,865.0,3581.0,4095.0,3459.0,3824.0,3781.0,1.32,9.44,3.04,-0.03,0.04,0.1,1.0,professor
3583.0,4095.0,934.0,4095.0,3005.0,2835.0,3271.0,2762.0,-3.13,8.9,5.63,-0.02,-0.05,-0.37,0.0,3360.0,4095.0,877.0,3565.0,4095.0,3458.0,3839.0,3787.0,8.89,11.69,1.26,-0.65,-0.09,-2.8,1.0,professor
3184.0,4095.0,4095.0,3879.0,2899.0,2784.0,3173.0,2800.0,24.33,7.43,5.87,0.09,-0.27,0.47,0.0,3520.0,4095.0,849.0,3527.0,4095.0,3536.0,3826.0,3761.0,-22.73,2.69,6.9,0.32,-0.17,0.05,1.0,professor
3291.0,4095.0,2384.0,3935.0,3028.0,2832.0,3243.0,2903.0,-1.12,8.47,7.07,0.2,-0.26,-2.79,0.0,3664.0,4095.0,864.0,3632.0,4095.0,3535.0,3865.0,3797.0,3.77,9.17,1.64,0.54,-0.37,2.16,1.0,professor
3747.0,4095.0,930.0,4095.0,3063.0,2807.0,3162.0,2742.0,-18.34,9.4,3.0,-0.21,0.51,1.38,0.0,3717.0,4095.0,878.0,3555.0,4095.0,3507.0,3887.0,3826.0,9.67,11.55,1.7,-1.37,-0.05,-1.94,1.0,professor
3014.0,4095.0,4095.0,4045.0,3019.0,2804.0,3194.0,2864.0,19.73,7.94,6.03,0.12,-0.55,-0.3,0.0,3777.0,4095.0,862.0,3633.0,4095.0,3574.0,3879.0,3827.0,-18.09,2.42,7.72,0.6,0.51,0.66,1.0,professor
3382.0,4095.0,2854.0,4085.0,3026.0,2857.0,3287.0,2957.0,-9.23,7.62,5.39,0.18,-0.09,-1.86,0.0,3905.0,4095.0,869.0,3618.0,4095.0,3527.0,3914.0,3807.0,10.74,11.09,-0.27,0.72,-0.09,0.9,1.0,professor
3106.0,4095.0,2021.0,3649.0,3179.0,3067.0,3519.0,3038.0,-12.02,2.32,1.92,-0.62,0.52,3.35,0.0,3635.0,4095.0,884.0,3470.0,4095.0,3636.0,4095.0,4028.0,9.27,6.23,-1.74,-1.78,1.53,-3.95,1.0,professor
2941.0,2559.0,2721.0,3829.0,3712.0,3559.0,4095.0,3675.0,15.33,-8.23,7.79,-1.07,-2.04,5.63,0.0,2421.0,2919.0,2554.0,2765.0,4095.0,4095.0,4095.0,4095.0,-6.21,-16.75,-2.02,-1.18,1.91,-6.69,1.0,professor
2993.0,2387.0,2834.0,3868.0,3809.0,3839.0,4095.0,3769.0,24.92,-1.19,8.03,-0.56,-1.02,3.09,0.0,2176.0,2829.0,2275.0,3037.0,4095.0,4095.0,4095.0,4095.0,-19.83,-15.03,2.37,-0.39,0.06,-3.05,1.0,professor
2990.0,2338.0,2861.0,3938.0,3776.0,3901.0,4095.0,3939.0,15.88,1.93,7.39,0.24,-0.21,0.26,0.0,2086.0,2800.0,2255.0,3212.0,4095.0,4095.0,4095.0,4095.0,-13.12,-7.86,3.45,0.15,0.24,-0.38,1.0,professor
2974.0,2297.0,2864.0,3919.0,3711.0,3835.0,4095.0,3909.0,9.99,-0.65,5.95,0.03,0.14,-0.36,0.0,1904.0,2739.0,2233.0,3212.0,4095.0,4095.0,4095.0,4095.0,-7.33,-6.52,1.69,-0.03,-0.19,-0.08,1.0,professor
2976.0,2263.0,2865.0,3871.0,3719.0,3802.0,4095.0,4016.0,9.97,-1.69,5.82,-0.06,0.1,-0.18,0.0,1878.0,2675.0,2199.0,3195.0,4095.0,4095.0,4095.0,4095.0,-6.62,-6.84,0.81,0.07,0.17,0.12,1.0,professor
2958.0,2263.0,2874.0,3857.0,3685.0,3745.0,4095.0,4021.0,9.66,-1.4,5.92,-0.01,0.01,-0.24,0.0,1830.0,2553.0,2181.0,3187.0,4095.0,4095.0,4095.0,4095.0,-6.64,-6.68,1.13,0.06,-0.02,0.07,1.0,professor
2958.0,2267.0,2863.0,3836.0,3651.0,3710.0,4095.0,4041.0,9.69,-1.43,5.97,-0.08,-0.05,-0.24,0.0,1829.0,2483.0,2167.0,3199.0,4095.0,4095.0,4095.0,4095.0,-6.62,-6.63,1.52,-0.02,-0.07,0.09,1.0,professor
2941.0,2226.0,2869.0,3811.0,3648.0,3691.0,4095.0,4039.0,9.65,-1.38,6.02,-0.01,0.04,-0.2,0.0,1792.0,2427.0,2158.0,3211.0,4095.0,4095.0,4095.0,4095.0,-6.41,-6.47,1.65,-0.08,-0.07,-0.02,1.0,professor
2961.0,2188.0,2869.0,3802.0,3583.0,3667.0,4095.0,4048.0,9.73,-1.24,6.04,0.03,-0.01,-0.19,0.0,1771.0,2384.0,2134.0,3205.0,4095.0,4095.0,4095.0,4095.0,-6.55,-6.45,1.59,-0.07,-0.01,-0.03,1.0,professor
2944.0,2172.0,2864.0,3799.0,3583.0,3664.0,4095.0,4047.0,9.86,-1.15,5.91,0.01,0.04,-0.16,0.0,1721.0,2382.0,2135.0,3210.0,4095.0,4095.0,4095.0,4095.0,-6.64,-6.51,1.59,-0.08,0.06,-0.03,1.0,professor
2939.0,2171.0,2869.0,3777.0,3616.0,3673.0,4095.0,4077.0,9.69,-0.99,5.79,0.03,0.09,-0.17,0.0,1762.0,2319.0,2132.0,3214.0,4095.0,4095.0,4095.0,4095.0,-6.76,-6.56,1.47,0.01,0.01,-0.02,1.0,professor
2954.0,2175.0,2871.0,3797.0,3607.0,3650.0,4095.0,4080.0,10.08,-1.2,6.0,0.11,-0.06,-0.14,0.0,1763.0,2480.0,2144.0,3212.0,4095.0,4095.0,4095.0,4095.0,-6.51,-6.54,1.61,0.01,0.13,-0.01,1.0,professor
3619.0,4095.0,1638.0,3775.0,2898.0,2784.0,3216.0,2767.0,-2.05,9.18,5.99,0.05,0.08,-0.1,0.0,3950.0,4095.0,899.0,3549.0,4095.0,3440.0,3921.0,3547.0,-0.57,9.67,2.25,-0.06,-0.05,-0.05,1.0,professor
3637.0,4095.0,1647.0,3794.0,2906.0,2797.0,3223.0,2765.0,-5.52,8.16,5.4,0.09,0.18,-0.45,0.0,3934.0,4095.0,896.0,3602.0,4095.0,3456.0,3898.0,3549.0,1.94,9.27,1.38,-0.07,0.01,0.13,1.0,professor
3682.0,4095.0,1668.0,3934.0,2945.0,2802.0,3173.0,2785.0,-9.49,6.09,6.36,-0.5,0.71,3.6,0.0,3931.0,4095.0,878.0,3700.0,4095.0,3458.0,3920.0,3546.0,6.84,8.73,1.79,-1.47,-0.15,-3.9,1.0,professor
3145.0,4095.0,1583.0,3845.0,2775.0,2767.0,3166.0,2720.0,19.54,10.44,5.65,-0.15,0.04,-1.41,0.0,3953.0,4095.0,881.0,3769.0,4095.0,3459.0,3917.0,3661.0,-18.21,4.96,6.43,0.11,0.24,1.67,1.0,professor
3621.0,4095.0,1683.0,3887.0,3014.0,2794.0,3141.0,2767.0,-9.61,4.86,5.41,-0.18,-0.32,2.66,0.0,3888.0,4095.0,879.0,3792.0,4095.0,3462.0,3935.0,3700.0,3.03,6.88,2.52,-0.92,0.01,-2.44,1.0,professor
2862.0,4095.0,1553.0,3694.0,2934.0,2793.0,3203.0,2839.0,12.59,8.57,5.88,-0.11,0.4,-1.0,0.0,3919.0,4095.0,884.0,3757.0,4095.0,3487.0,3908.0,3683.0,-12.58,4.85,5.24,0.4,0.78,1.27,1.0,professor
3280.0,4095.0,1535.0,3877.0,2843.0,2816.0,3255.0,2926.0,-10.95,7.59,4.22,-0.02,-0.39,-0.06,0.0,3900.0,4095.0,864.0,3536.0,4095.0,3499.0,3969.0,3751.0,11.51,11.47,-1.23,-0.27,0.65,0.47,1.0,professor
2480.0,2851.0,2469.0,3510.0,3282.0,3216.0,3941.0,3047.0,-8.6,-0.15,2.77,-2.42,-0.23,5.06,0.0,4095.0,4095.0,1170.0,2989.0,4095.0,4095.0,4095.0,3664.0,8.15,1.93,-2.15,-3.0,1.28,-5.64,1.0,professor
2928.0,2655.0,2854.0,3535.0,3619.0,3494.0,4095.0,3558.0,6.98,-9.95,4.55,-2.16,-2.08,6.97,0.0,2709.0,2790.0,2435.0,3049.0,4095.0,4095.0,4095.0,4095.0,-1.44,-13.11,-1.44,-2.5,2.37,-7.61,1.0,professor
2997.0,2383.0,2860.0,3751.0,3886.0,4095.0,4095.0,3968.0,27.66,-9.23,6.96,-0.66,-1.08,4.85,0.0,2522.0,2775.0,2241.0,3156.0,4095.0,4095.0,4095.0,4095.0,-21.15,-23.23,-0.64,-1.07,0.65,-5.05,1.0,professor
2999.0,2363.0,2879.0,3788.0,3837.0,4095.0,4095.0,3955.0,20.45,-0.15,9.97,-0.01,-0.69,0.93,0.0,2373.0,2546.0,2192.0,3264.0,4095.0,4095.0,4095.0,4095.0,-7.27,-6.81,2.21,-0.29,0.23,-0.19,1.0,professor
2960.0,2275.0,2884.0,3699.0,3727.0,3776.0,4095.0,3903.0,8.89,-2.56,5.98,0.15,0.14,-0.48,0.0,2270.0,2525.0,2173.0,3303.0,4095.0,4095.0,4095.0,4095.0,-6.14,-7.62,1.37,0.09,-0.0,-0.08,1.0,professor
2942.0,2206.0,2885.0,3647.0,3673.0,3671.0,4095.0,3951.0,9.03,-2.17,5.87,0.06,0.07,-0.32,0.0,2158.0,2478.0,2127.0,3317.0,4095.0,4095.0,4095.0,4095.0,-5.94,-7.48,0.68,0.09,0.11,0.09,1.0,professor
2923.0,2214.0,2869.0,3625.0,3682.0,3685.0,4095.0,3967.0,9.61,-2.04,6.21,0.05,0.11,-0.27,0.0,2067.0,2437.0,2125.0,3298.0,4095.0,4095.0,4095.0,4095.0,-5.81,-7.29,1.01,-0.11,0.03,-0.05,1.0,professor
2926.0,2189.0,2885.0,3642.0,3663.0,3687.0,4095.0,3954.0,9.52,-2.05,6.23,-0.04,0.05,-0.16,0.0,1985.0,2475.0,2245.0,3303.0,4095.0,4095.0,4095.0,4095.0,-6.23,-7.6,1.17,-0.19,0.06,0.02,1.0,professor
2928.0,2196.0,2881.0,3653.0,3621.0,3678.0,4095.0,3988.0,9.79,-2.01,6.32,0.02,0.04,-0.15,0.0,1999.0,2411.0,2186.0,3312.0,4095.0,4095.0,4095.0,4095.0,-5.96,-7.32,1.15,-0.09,0.06,0.07,1.0,professor
2929.0,2201.0,2890.0,3656.0,3674.0,3681.0,4095.0,4001.0,9.77,-1.9,6.33,-0.02,0.04,-0.17,0.0,2002.0,2357.0,2167.0,3342.0,4095.0,4095.0,4095.0,4095.0,-5.9,-7.25,1.12,-0.09,-0.01,0.04,1.0,professor
2927.0,2187.0,2891.0,3665.0,3652.0,3671.0,4095.0,4016.0,9.7,-1.85,6.28,0.02,-0.06,-0.19,0.0,2030.0,2322.0,2155.0,3348.0,4095.0,4095.0,4095.0,4095.0,-5.97,-7.2,1.14,-0.06,0.05,0.02,1.0,professor
2930.0,2191.0,2894.0,3677.0,3670.0,3684.0,4095.0,4035.0,9.67,-1.8,6.2,0.01,-0.02,-0.2,0.0,2065.0,2282.0,2137.0,3350.0,4095.0,4095.0,4095.0,4095.0,-6.11,-7.2,0.97,-0.04,0.03,0.03,1.0,professor
2940.0,2178.0,2886.0,3674.0,3668.0,3677.0,4095.0,4036.0,9.47,-1.82,6.43,0.0,0.0,-0.19,0.0,2011.0,2256.0,2115.0,3373.0,4095.0,4095.0,4095.0,4095.0,-6.22,-7.24,1.05,-0.03,0.06,0.04,1.0,professor
3730.0,4095.0,2135.0,3843.0,3094.0,2867.0,3235.0,2742.0,-1.15,9.51,6.17,-0.01,-0.04,-0.22,0.0,3870.0,4095.0,893.0,3568.0,4095.0,3545.0,3930.0,3801.0,-1.4,9.4,3.24,-0.04,0.01,0.07,1.0,professor
3689.0,4095.0,2297.0,3841.0,3067.0,2864.0,3237.0,2748.0,0.87,9.4,6.02,0.02,-0.23,-0.66,0.0,3842.0,4095.0,885.0,3582.0,4095.0,3536.0,3909.0,3799.0,-2.77,8.5,3.73,-0.01,0.0,0.32,1.0,professor
3611.0,4095.0,2685.0,3792.0,3071.0,2852.0,3191.0,2737.0,2.78,7.6,5.49,0.41,-0.19,2.25,0.0,3903.0,4095.0,864.0,3573.0,4095.0,3520.0,3949.0,3791.0,-11.25,3.44,5.1,-0.33,-0.23,-2.16,1.0,professor
3687.0,4095.0,1515.0,3858.0,3099.0,2850.0,3151.0,2755.0,-17.0,9.23,6.7,0.05,0.58,-1.71,0.0,3885.0,4095.0,874.0,3469.0,4095.0,3491.0,3920.0,3763.0,14.08,14.72,-0.14,0.47,-0.63,0.32,1.0,professor
3503.0,4095.0,3038.0,3847.0,3100.0,2816.0,3141.0,2758.0,3.41,6.84,5.56,0.43,-0.24,1.81,0.0,3927.0,4095.0,863.0,3683.0,4095.0,3474.0,3919.0,3838.0,-8.85,3.61,5.95,-0.57,-0.48,-2.17,1.0,professor
3681.0,4095.0,3849.0,4079.0,3177.0,2958.0,3344.0,2989.0,-11.6,4.24,4.68,-0.01,0.68,1.72,0.0,3780.0,4095.0,885.0,3485.0,4095.0,3434.0,3874.0,3789.0,12.9,9.66,-1.01,0.09,-0.64,-1.78,1.0,professor
2938.0,2291.0,2793.0,3631.0,3632.0,3621.0,4095.0,3501.0,14.8,-4.47,6.45,-1.51,-1.7,6.91,0.0,2375.0,2688.0,2183.0,2889.0,4095.0,4095.0,4095.0,4095.0,-7.15,-14.11,0.41,-1.65,1.2,-8.29,1.0,professor
2987.0,2319.0,2817.0,3733.0,3798.0,3839.0,4095.0,3767.0,25.18,-0.41,6.8,-0.59,-0.63,2.58,0.0,2514.0,2698.0,1936.0,3238.0,4095.0,4095.0,4095.0,4095.0,-20.75,-17.46,2.04,-0.44,0.15,-3.63,1.0,professor
2979.0,2275.0,2828.0,3728.0,3805.0,3804.0,4095.0,3883.0,14.66,2.04,7.94,-0.03,-0.4,0.27,0.0,2370.0,2612.0,1936.0,3274.0,4095.0,4095.0,4095.0,4095.0,-13.7,-8.1,3.1,-0.21,0.43,-0.13,1.0,professor
2971.0,2146.0,2826.0,3677.0,3744.0,3718.0,4095.0,3841.0,10.33,0.81,6.34,0.12,0.08,-0.36,0.0,2150.0,2481.0,1955.0,3291.0,4095.0,4095.0,4095.0,4095.0,-7.67,-5.71,2.24,-0.31,0.15,0.22,1.0,professor
2985.0,2017.0,2850.0,3722.0,3708.0,3710.0,4095.0,3872.0,9.45,-0.31,6.06,0.01,0.16,-0.33,0.0,2015.0,2399.0,1936.0,3262.0,4095.0,4095.0,4095.0,4095.0,-7.37,-5.94,1.21,0.04,-0.18,0.09,1.0,professor
2966.0,1979.0,2847.0,3742.0,3697.0,3687.0,4095.0,3869.0,9.61,-0.35,6.04,-0.03,0.15,-0.2,0.0,1991.0,2354.0,1938.0,3291.0,4095.0,4095.0,4095.0,4095.0,-7.44,-5.9,1.57,-0.01,-0.05,0.19,1.0,professor
2966.0,1969.0,2844.0,3719.0,3668.0,3675.0,4095.0,3895.0,9.88,-0.37,6.35,-0.11,0.03,-0.14,0.0,1910.0,2341.0,1931.0,3280.0,4095.0,4095.0,4095.0,4095.0,-7.1,-5.6,1.36,-0.1,0.06,0.06,1.0,professor
2989.0,1968.0,2860.0,3760.0,3666.0,3654.0,4095.0,3898.0,9.9,-0.34,6.33,-0.07,0.04,-0.16,0.0,1810.0,2267.0,1933.0,3301.0,4095.0,4095.0,4095.0,4095.0,-7.12,-5.72,1.54,-0.03,0.02,-0.07,1.0,professor
2987.0,1891.0,2846.0,3701.0,3627.0,3621.0,4095.0,3909.0,9.89,-0.36,6.28,0.06,0.03,-0.15,0.0,1744.0,2243.0,1930.0,3299.0,4095.0,4095.0,4095.0,4095.0,-7.42,-5.82,1.39,-0.03,-0.05,-0.09,1.0,professor
2990.0,1887.0,2846.0,3710.0,3627.0,3632.0,4095.0,3893.0,10.01,-0.24,6.23,0.04,0.01,-0.14,0.0,1749.0,2193.0,1919.0,3325.0,4095.0,4095.0,4095.0,4095.0,-7.35,-5.78,1.55,0.0,-0.03,-0.02,1.0,professor
2977.0,1887.0,2859.0,3699.0,3630.0,3622.0,4095.0,3891.0,9.92,-0.14,6.25,0.03,-0.03,-0.14,0.0,1771.0,2169.0,1922.0,3344.0,4095.0,4095.0,4095.0,4095.0,-7.33,-5.74,1.68,-0.04,-0.0,0.0,1.0,professor
2971.0,1887.0,2848.0,3696.0,3627.0,3616.0,4095.0,3887.0,9.81,-0.24,6.2,-0.0,-0.01,-0.16,0.0,1789.0,2115.0,1899.0,3361.0,4095.0,4095.0,4095.0,4095.0,-7.54,-5.73,1.55,-0.05,-0.03,-0.02,1.0,professor
2984.0,1877.0,2854.0,3709.0,3632.0,3627.0,4095.0,3891.0,9.71,-0.3,6.36,-0.01,-0.06,-0.17,0.0,1804.0,2100.0,1906.0,3367.0,4095.0,4095.0,4095.0,4095.0,-7.39,-5.59,1.55,-0.05,-0.01,-0.0,1.0,professor
2975.0,1910.0,2846.0,3702.0,3630.0,3623.0,4095.0,3891.0,9.94,-0.23,6.37,0.04,-0.02,-0.17,0.0,1795.0,2106.0,1904.0,3376.0,4095.0,4095.0,4095.0,4095.0,-7.49,-5.54,1.54,-0.04,-0.02,-0.0,1.0,professor
3184.0,4095.0,1131.0,3568.0,2624.0,2661.0,3149.0,2731.0,-2.3,9.41,5.91,-0.0,-0.03,-0.24,0.0,4064.0,4095.0,877.0,3535.0,4095.0,3581.0,3927.0,3700.0,-0.6,9.52,3.22,-0.02,-0.01,0.06,1.0,professor
3175.0,4095.0,1098.0,3570.0,2629.0,2663.0,3139.0,2736.0,-2.55,9.08,6.07,0.03,-0.01,-0.26,0.0,4043.0,4095.0,881.0,3521.0,4095.0,3579.0,3922.0,3712.0,-0.44,9.37,3.01,-0.01,-0.05,0.09,1.0,professor
3248.0,4095.0,1037.0,3632.0,2428.0,2683.0,3120.0,2734.0,-11.5,9.28,6.15,0.09,0.63,1.17,0.0,4055.0,4095.0,891.0,3483.0,4095.0,3539.0,3917.0,3705.0,8.51,12.33,1.69,0.05,-0.17,-1.07,1.0,professor
2993.0,4095.0,994.0,3475.0,2853.0,2642.0,3098.0,2658.0,15.44,8.15,5.28,0.48,-1.65,1.24,0.0,4095.0,4095.0,874.0,3451.0,4095.0,3572.0,3871.0,3600.0,-18.41,3.16,4.72,0.12,-0.24,-0.37,1.0,professor
3024.0,4095.0,992.0,3513.0,2886.0,2660.0,3108.0,2759.0,0.82,9.28,4.53,-0.02,0.12,-2.19,0.0,4079.0,4095.0,875.0,3568.0,4095.0,3583.0,3909.0,3715.0,-1.1,8.86,2.54,0.15,-0.05,1.97,1.0,professor
2942.0,4095.0,989.0,3501.0,2875.0,2631.0,3038.0,2703.0,11.62,7.44,6.07,0.42,-1.44,0.85,0.0,4029.0,4095.0,879.0,3478.0,4095.0,3562.0,3908.0,3711.0,12.41,14.05,0.21,-0.21,-0.52,-0.81,1.0,professor
3056.0,4095.0,1007.0,3547.0,2899.0,2626.0,3047.0,2734.0,-3.1,7.82,4.63,0.03,0.2,-1.71,0.0,4055.0,4095.0,874.0,3600.0,4095.0,3582.0,3883.0,3723.0,5.16,9.02,1.25,0.51,0.25,1.91,1.0,professor
2416.0,4095.0,2510.0,2521.0,3314.0,3235.0,3798.0,3039.0,-2.77,-2.03,2.37,-1.72,-0.28,5.07,0.0,4095.0,3379.0,1023.0,3248.0,4095.0,4080.0,4095.0,4095.0,1.75,-2.13,-3.24,-2.66,0.79,-6.32,1.0,professor
2895.0,2061.0,2771.0,3413.0,3607.0,3571.0,4095.0,3458.0,10.08,-6.34,6.66,-1.43,-1.56,6.1,0.0,2433.0,2738.0,2178.0,3041.0,4095.0,4095.0,4095.0,4095.0,-9.79,-14.05,0.61,-2.44,1.31,-6.36,1.0,professor
3005.0,2544.0,2863.0,3583.0,3718.0,3997.0,4095.0,3559.0,30.76,5.31,7.66,-0.12,-0.06,2.44,0.0,2303.0,2673.0,2001.0,3312.0,4095.0,4095.0,4095.0,4095.0,-22.23,-10.61,6.38,-0.53,0.66,-2.52,1.0,professor
2999.0,2450.0,2873.0,3531.0,3639.0,3888.0,4095.0,3701.0,12.59,5.13,6.78,-0.03,-0.06,-0.03,0.0,2227.0,2697.0,2047.0,3375.0,4095.0,4095.0,4095.0,4095.0,-12.35,-3.34,4.88,0.15,-0.53,-0.25,1.0,professor
3008.0,2317.0,2868.0,3547.0,3581.0,3748.0,4095.0,3799.0,8.02,1.96,6.18,-0.04,0.08,-0.13,0.0,1873.0,2619.0,2042.0,3371.0,4095.0,4095.0,4095.0,4095.0,-8.25,-4.07,2.41,0.13,0.03,0.18,1.0,professor
3003.0,2346.0,2864.0,3579.0,3575.0,3709.0,4095.0,3810.0,10.09,1.89,6.47,-0.08,-0.12,-0.01,0.0,1712.0,2512.0,2018.0,3343.0,4095.0,4095.0,4095.0,4095.0,-8.09,-3.99,2.64,0.02,0.14,0.13,1.0,professor
3005.0,2310.0,2871.0,3583.0,3559.0,3695.0,4095.0,3833.0,9.96,1.93,6.74,0.04,-0.07,-0.2,0.0,1623.0,2428.0,2017.0,3318.0,4095.0,4095.0,4095.0,4095.0,-8.02,-3.59,2.72,-0.04,0.01,-0.04,1.0,professor
3008.0,2271.0,2875.0,3571.0,3568.0,3618.0,4095.0,3823.0,9.73,1.89,6.4,0.06,-0.09,-0.17,0.0,1507.0,2386.0,2018.0,3354.0,4095.0,4095.0,4095.0,4095.0,-8.24,-4.02,2.78,-0.05,-0.03,-0.13,1.0,professor
2992.0,2256.0,2869.0,3569.0,3568.0,3642.0,4095.0,3850.0,9.61,1.94,6.29,0.05,0.06,-0.17,0.0,1522.0,2352.0,2025.0,3365.0,4095.0,4095.0,4095.0,4095.0,-8.33,-3.73,2.4,-0.09,0.04,-0.02,1.0,professor
2993.0,2256.0,2867.0,3580.0,3583.0,3632.0,4095.0,3843.0,9.61,1.85,6.28,0.03,0.09,-0.12,0.0,1600.0,2320.0,2021.0,3355.0,4095.0,4095.0,4095.0,4095.0,-8.39,-3.85,2.36,-0.09,0.07,-0.05,1.0,professor
2979.0,2214.0,2874.0,3583.0,3583.0,3628.0,4095.0,3837.0,9.72,1.82,6.42,0.02,0.06,-0.17,0.0,1600.0,2297.0,2019.0,3373.0,4095.0,4095.0,4095.0,4095.0,-8.45,-3.98,2.46,-0.11,0.05,-0.05,1.0,professor
2990.0,2182.0,2874.0,3583.0,3583.0,3633.0,4095.0,3839.0,9.75,1.84,6.22,-0.01,0.07,-0.15,0.0,1627.0,2286.0,2019.0,3381.0,4095.0,4095.0,4095.0,4095.0,-8.21,-3.85,2.44,-0.08,0.05,-0.03,1.0,professor
2993.0,2173.0,2883.0,3568.0,3578.0,3627.0,4095.0,3833.0,9.79,1.72,6.29,-0.03,0.01,-0.13,0.0,1660.0,2256.0,2011.0,3391.0,4095.0,4095.0,4095.0,4095.0,-8.35,-4.08,2.56,-0.04,0.02,-0.03,1.0,professor
3306.0,3952.0,1565.0,3757.0,2946.0,2689.0,3090.0,2791.0,-2.34,9.56,5.82,0.02,0.01,-0.28,0.0,3366.0,912.0,895.0,3315.0,4095.0,3810.0,3978.0,3757.0,-0.67,9.4,3.59,-0.06,-0.02,0.18,1.0,professor
3295.0,3978.0,1568.0,3770.0,2951.0,2693.0,3103.0,2797.0,-2.81,9.16,6.0,0.0,0.06,-0.35,0.0,3355.0,897.0,895.0,3351.0,4095.0,3824.0,3966.0,3743.0,0.34,9.58,2.98,-0.01,-0.03,0.18,1.0,professor
3304.0,3970.0,1572.0,3767.0,2951.0,2694.0,3103.0,2768.0,-5.93,8.29,5.94,-0.14,0.36,-0.03,0.0,3348.0,889.0,901.0,3359.0,4095.0,3819.0,3946.0,3728.0,2.8,10.03,2.29,-0.03,0.07,0.04,1.0,professor
3286.0,3958.0,1587.0,3792.0,2951.0,2689.0,3070.0,2726.0,-6.48,8.59,5.61,0.01,0.14,2.01,0.0,3341.0,887.0,897.0,3346.0,4095.0,3809.0,3961.0,3742.0,3.56,10.15,2.97,-0.7,0.17,-2.18,1.0,professor
2627.0,4005.0,1508.0,3911.0,2946.0,2679.0,3093.0,2732.0,13.84,9.48,6.63,0.18,0.42,-0.81,0.0,3317.0,893.0,890.0,3389.0,4095.0,3901.0,3939.0,3709.0,-12.98,5.86,5.14,0.49,-0.3,0.69,1.0,professor
2686.0,4001.0,1535.0,3681.0,2973.0,2682.0,3106.0,2822.0,-3.41,8.53,5.6,0.35,-0.33,-2.54,0.0,3347.0,889.0,884.0,3368.0,4095.0,3853.0,3962.0,3743.0,5.62,10.79,0.76,0.45,-0.53,1.67,1.0,professor
2855.0,3973.0,1648.0,3699.0,2823.0,2662.0,3045.0,2791.0,-16.05,9.54,2.55,-0.17,0.84,0.81,0.0,3292.0,880.0,895.0,3369.0,4095.0,3801.0,3995.0,3760.0,7.71,11.9,1.3,-1.67,0.02,-2.13,1.0,professor
2201.0,4071.0,1488.0,3858.0,2962.0,2637.0,3085.0,2786.0,16.47,5.48,6.66,0.32,-1.02,0.85,0.0,2943.0,878.0,880.0,3462.0,4095.0,3857.0,3952.0,3755.0,-14.13,2.38,6.28,0.91,0.33,0.42,1.0,professor
1628.0,4095.0,1450.0,3759.0,2928.0,2747.0,3206.0,2864.0,-4.65,7.79,5.75,0.14,-0.94,-1.29,0.0,3010.0,883.0,885.0,3362.0,4095.0,3696.0,3941.0,3734.0,9.31,9.17,0.12,0.7,-0.38,0.95,1.0,professor
3071.0,4095.0,1361.0,3674.0,3011.0,3069.0,3520.0,3044.0,-13.5,3.51,2.37,-0.85,1.31,3.09,0.0,2635.0,875.0,897.0,3099.0,4095.0,3874.0,4095.0,4077.0,11.14,6.81,-3.27,-2.05,0.69,-4.05,1.0,professor
2741.0,2430.0,2714.0,2763.0,3549.0,3376.0,4007.0,3109.0,1.08,-4.22,2.61,-2.57,-0.89,5.36,0.0,2366.0,1973.0,2288.0,2979.0,4095.0,4095.0,4095.0,4095.0,2.57,-6.4,-0.17,-4.11,1.55,-6.59,1.0,professor
2944.0,2466.0,2815.0,3847.0,3856.0,4023.0,4095.0,3696.0,19.59,-6.56,10.77,-1.33,-2.35,5.4,0.0,2688.0,2903.0,2670.0,3010.0,4095.0,4095.0,4095.0,4095.0,-16.89,-17.93,-0.23,-1.8,1.72,-5.95,1.0,professor
2983.0,2383.0,2864.0,4046.0,3855.0,4095.0,4095.0,3668.0,24.88,5.48,9.85,-0.09,-0.53,1.6,0.0,2619.0,2807.0,2405.0,3086.0,4095.0,4095.0,4095.0,4095.0,-22.73,-11.28,6.48,-0.67,0.42,-1.85,1.0,professor
2978.0,2259.0,2885.0,3950.0,3714.0,3863.0,4095.0,3904.0,8.67,1.37,6.9,0.07,0.21,-0.33,0.0,2455.0,2775.0,2355.0,3039.0,4095.0,4095.0,4095.0,4095.0,-11.69,-4.02,3.91,0.05,-0.27,-0.12,1.0,professor
2982.0,2202.0,2880.0,3825.0,3697.0,3799.0,4095.0,3888.0,9.85,1.13,6.62,0.05,0.05,-0.18,0.0,2188.0,2608.0,2267.0,3127.0,4095.0,4095.0,4095.0,4095.0,-7.74,-4.6,2.16,0.06,0.01,0.2,1.0,professor
2983.0,2128.0,2885.0,3835.0,3673.0,3773.0,4095.0,3856.0,9.39,1.21,6.72,-0.11,-0.03,-0.19,0.0,2093.0,2461.0,2258.0,3136.0,4095.0,4095.0,4095.0,4095.0,-7.58,-4.55,2.84,0.01,-0.18,0.12,1.0,professor
2990.0,2112.0,2890.0,3856.0,3668.0,3761.0,4095.0,3858.0,9.93,1.3,6.83,-0.1,0.01,-0.07,0.0,2070.0,2349.0,2254.0,3160.0,4095.0,4095.0,4095.0,4095.0,-7.98,-4.61,2.87,-0.09,0.08,0.07,1.0,professor
2991.0,2092.0,2890.0,3854.0,3664.0,3762.0,4095.0,3859.0,9.53,0.95,7.42,-0.02,0.08,-0.21,0.0,2003.0,2263.0,2237.0,3167.0,4095.0,4095.0,4095.0,4095.0,-8.04,-4.5,3.01,-0.03,0.11,0.08,1.0,professor
2992.0,2109.0,2887.0,3839.0,3631.0,3719.0,4095.0,3889.0,9.81,1.44,6.61,0.08,-0.11,-0.06,0.0,1966.0,2149.0,2224.0,3171.0,4095.0,4095.0,4095.0,4095.0,-8.18,-4.07,2.85,0.06,0.05,0.03,1.0,professor
3027.0,2102.0,2885.0,3861.0,3499.0,3727.0,4095.0,3923.0,10.01,1.26,7.11,-0.2,0.18,-0.14,0.0,1871.0,2099.0,2222.0,3182.0,4095.0,4095.0,4095.0,4095.0,-7.92,-4.11,2.52,0.03,0.14,0.14,1.0,professor
4043.0,4095.0,3546.0,3555.0,2966.0,2725.0,3122.0,2869.0,-2.74,9.18,5.77,0.02,0.05,-0.12,0.0,3673.0,1889.0,873.0,3383.0,4095.0,3621.0,3965.0,3845.0,-0.52,9.67,3.27,0.02,0.08,-0.01,1.0,professor
4063.0,4095.0,3467.0,3546.0,2970.0,2720.0,3123.0,2875.0,-1.31,8.99,5.64,0.01,-0.19,-0.26,0.0,3661.0,1896.0,876.0,3376.0,4095.0,3634.0,3958.0,3841.0,-1.41,8.94,3.11,0.01,0.06,0.15,1.0,professor
4095.0,4095.0,3016.0,3684.0,2945.0,2709.0,3088.0,2746.0,-12.52,9.51,5.45,-0.07,0.76,0.64,0.0,3659.0,1847.0,879.0,3338.0,4095.0,3582.0,3929.0,3811.0,8.2,12.53,1.11,0.03,0.11,-0.38,1.0,professor
4095.0,4095.0,3956.0,3806.0,2755.0,2677.0,3045.0,2801.0,7.02,7.19,7.17,0.01,-1.04,2.23,0.0,3642.0,1707.0,865.0,3365.0,4095.0,3577.0,3941.0,3664.0,-10.69,4.25,5.71,-0.53,-0.93,-1.63,1.0,professor
4095.0,4095.0,3757.0,3786.0,2909.0,2671.0,3065.0,2863.0,4.0,8.91,5.77,-0.04,0.12,-2.25,0.0,3667.0,1689.0,867.0,3430.0,4095.0,3689.0,3934.0,3850.0,-3.16,8.16,4.68,0.5,0.21,1.74,1.0,professor
4095.0,4095.0,2479.0,3599.0,2899.0,2685.0,3037.0,2746.0,-15.96,8.89,4.83,0.69,0.86,-1.4,0.0,3874.0,1676.0,886.0,3307.0,4095.0,3637.0,4030.0,3847.0,13.21,15.02,-2.1,0.16,-0.65,-0.11,1.0,professor
4095.0,4095.0,3189.0,3597.0,2919.0,2704.0,3043.0,2857.0,-2.15,7.48,5.02,-0.16,-1.32,1.92,0.0,3885.0,1534.0,874.0,3456.0,4095.0,3757.0,4021.0,3875.0,-10.65,3.24,7.3,-0.79,-0.59,-1.22,1.0,professor
4095.0,4095.0,3754.0,3758.0,2922.0,2649.0,3025.0,2895.0,6.27,8.87,5.5,0.3,0.31,-1.74,0.0,3882.0,1466.0,868.0,3494.0,4095.0,3794.0,4034.0,3919.0,0.04,7.87,2.87,0.64,0.47,1.78,1.0,professor
4095.0,4095.0,3059.0,3557.0,2949.0,2671.0,3036.0,2802.0,-16.85,6.54,4.73,0.44,0.59,-0.51,0.0,3859.0,1495.0,869.0,3335.0,4095.0,3663.0,4000.0,3861.0,14.58,11.62,-2.07,-0.53,0.03,-1.39,1.0,professor
4095.0,4095.0,3888.0,3505.0,2934.0,2688.0,3108.0,2765.0,-8.2,0.22,1.61,-1.2,-0.17,4.42,0.0,3872.0,1345.0,880.0,3366.0,4095.0,3686.0,4095.0,3923.0,5.72,1.66,-2.24,-1.56,1.46,-4.73,1.0,professor
2428.0,989.0,2416.0,3581.0,3309.0,3200.0,3658.0,3088.0,4.01,-5.01,2.82,-2.99,0.23,5.55,0.0,2441.0,2260.0,2527.0,2812.0,4095.0,4095.0,4095.0,4095.0,-2.28,-9.14,1.44,-3.5,1.2,-6.78,1.0,professor
2942.0,2503.0,2789.0,3515.0,3817.0,4046.0,4095.0,3846.0,20.85,-4.43,7.71,-0.97,-2.9,5.19,0.0,2467.0,2827.0,2352.0,3123.0,4095.0,4095.0,4095.0,4095.0,-19.51,-15.97,3.04,-1.87,1.48,-4.28,1.0,professor
2990.0,2607.0,2843.0,3645.0,3952.0,4095.0,4095.0,3926.0,25.97,1.87,10.69,0.09,-0.95,1.82,0.0,2230.0,2768.0,2286.0,3216.0,4095.0,4095.0,4095.0,4095.0,-17.49,-7.62,4.02,-0.41,0.44,-1.19,1.0,professor
2963.0,2544.0,2842.0,3633.0,3882.0,4095.0,4095.0,4076.0,12.29,2.48,7.0,0.23,-0.06,-0.37,0.0,2207.0,2753.0,2279.0,3261.0,4095.0,4095.0,4095.0,4095.0,-9.54,-4.63,4.11,-0.06,0.0,-0.14,1.0,professor
2965.0,2477.0,2861.0,3637.0,3795.0,3973.0,4095.0,4016.0,9.08,0.2,5.93,0.18,0.03,-0.39,0.0,2002.0,2643.0,2227.0,3274.0,4095.0,4095.0,4095.0,4095.0,-8.38,-5.67,2.13,0.12,0.11,0.09,1.0,professor
2942.0,2342.0,2866.0,3646.0,3771.0,3893.0,4095.0,4090.0,9.71,0.38,6.0,0.01,0.03,-0.23,0.0,1928.0,2454.0,2211.0,3270.0,4095.0,4095.0,4095.0,4095.0,-7.69,-4.79,1.9,0.17,0.0,0.23,1.0,professor
2951.0,2393.0,2867.0,3649.0,3717.0,3851.0,4095.0,4095.0,9.48,0.11,6.66,-0.13,0.04,-0.15,0.0,1808.0,2225.0,2176.0,3266.0,4095.0,4095.0,4095.0,4095.0,-7.75,-4.72,1.99,0.14,-0.04,0.08,1.0,professor
2941.0,2394.0,2859.0,3618.0,3728.0,3839.0,4095.0,4095.0,10.2,0.03,6.82,-0.11,-0.0,-0.13,0.0,2010.0,1983.0,2158.0,3246.0,4095.0,4095.0,4095.0,4095.0,-8.0,-4.56,2.28,0.05,0.09,0.01,1.0,professor
2941.0,2381.0,2873.0,3639.0,3723.0,3826.0,4095.0,4095.0,9.99,0.17,6.79,0.1,-0.13,-0.21,0.0,1967.0,1893.0,2143.0,3217.0,4095.0,4095.0,4095.0,4095.0,-8.15,-4.72,2.08,0.02,0.07,0.0,1.0,professor
2943.0,2412.0,2865.0,3636.0,3664.0,3823.0,4095.0,4087.0,9.69,0.43,6.3,-0.04,0.06,-0.29,0.0,1904.0,1837.0,2105.0,3231.0,4095.0,4095.0,4095.0,4095.0,-7.93,-4.84,2.21,0.0,-0.08,0.13,1.0,professor
3381.0,4095.0,944.0,3248.0,2879.0,2862.0,3098.0,2582.0,-1.79,9.67,5.59,0.02,-0.12,-0.19,0.0,3019.0,883.0,951.0,3435.0,4095.0,3581.0,3930.0,3825.0,-1.41,9.39,3.21,-0.04,-0.02,0.08,1.0,professor
3395.0,4095.0,943.0,3257.0,2928.0,2861.0,3099.0,2592.0,-1.22,9.33,5.52,-0.01,-0.05,-0.26,0.0,3024.0,895.0,953.0,3455.0,4095.0,3623.0,3941.0,3833.0,-1.57,9.14,3.0,-0.05,-0.08,0.14,1.0,professor
3399.0,4095.0,946.0,3280.0,2927.0,2849.0,2993.0,2579.0,-8.08,8.84,5.09,0.12,0.5,-0.15,0.0,3024.0,879.0,934.0,3440.0,4095.0,3583.0,3927.0,3827.0,5.57,11.4,1.43,0.16,-0.06,0.2,1.0,professor
3471.0,4095.0,951.0,3287.0,3006.0,2860.0,3021.0,2528.0,-1.67,8.48,5.13,-0.07,0.43,2.44,0.0,3143.0,878.0,918.0,3439.0,4095.0,3616.0,3922.0,3836.0,-4.75,6.18,3.43,-1.3,0.1,-3.22,1.0,professor
3238.0,4095.0,937.0,3445.0,2945.0,2844.0,3043.0,2542.0,11.19,10.55,7.27,0.11,-0.78,-1.46,0.0,3053.0,886.0,955.0,3485.0,4095.0,3664.0,3936.0,3840.0,-12.61,4.84,7.25,-0.19,0.62,2.13,1.0,professor
3408.0,4095.0,955.0,3437.0,3001.0,2834.0,3019.0,2533.0,-7.78,8.02,4.88,0.37,0.07,-2.54,0.0,3101.0,886.0,902.0,3406.0,4095.0,3575.0,3907.0,3797.0,11.27,12.87,-0.25,1.05,-0.48,1.52,1.0,professor
3600.0,4095.0,974.0,3426.0,3007.0,2822.0,2985.0,2479.0,-11.41,8.33,3.56,-0.35,0.25,1.63,0.0,3119.0,886.0,899.0,3495.0,4095.0,3621.0,3927.0,3886.0,-0.36,8.02,4.02,-1.1,-0.13,-2.25,1.0,professor
3294.0,4095.0,928.0,3392.0,2924.0,2759.0,2985.0,2449.0,13.3,8.09,7.15,0.14,-0.16,-0.75,0.0,2992.0,897.0,951.0,3501.0,4095.0,3628.0,3916.0,3865.0,-9.89,5.31,5.44,0.6,0.75,2.16,1.0,professor
2837.0,4095.0,2375.0,3693.0,3229.0,3267.0,3477.0,2541.0,-10.53,4.07,0.07,-1.27,1.03,2.14,0.0,1311.0,893.0,948.0,3010.0,4095.0,3760.0,4095.0,4095.0,6.31,6.19,-1.81,-2.17,0.92,-3.49,1.0,professor
2803.0,2282.0,2781.0,3633.0,3545.0,3482.0,4095.0,3213.0,-0.98,-3.17,3.39,-2.5,-0.78,4.52,0.0,2462.0,2711.0,2657.0,2623.0,4095.0,4095.0,4095.0,4095.0,2.5,-2.38,1.07,-2.52,0.58,-5.44,1.0,professor
2991.0,2634.0,2841.0,4036.0,3793.0,4042.0,4095.0,3788.0,30.22,0.7,13.4,-0.21,-1.72,3.25,0.0,2261.0,2886.0,2618.0,3139.0,4095.0,4095.0,4095.0,4095.0,-4.98,-14.39,-1.43,-1.87,1.2,-6.92,1.0,professor
2982.0,2685.0,2863.0,4035.0,3799.0,4067.0,4095.0,3915.0,16.14,3.21,8.71,0.33,-0.5,0.21,0.0,2166.0,2449.0,2366.0,3343.0,4095.0,4095.0,4095.0,4095.0,-13.6,-5.68,4.6,-0.14,0.24,-0.19,1.0,professor
2960.0,2474.0,2867.0,3882.0,3714.0,3966.0,4095.0,4083.0,9.1,0.75,7.35,0.45,-0.25,-0.63,0.0,2029.0,2163.0,2358.0,3271.0,4095.0,4095.0,4095.0,4095.0,-8.45,-4.91,1.94,-0.08,0.02,0.29,1.0,professor
2960.0,1794.0,2881.0,3834.0,3655.0,3910.0,4095.0,4019.0,9.72,0.3,6.22,0.14,-0.08,-0.26,0.0,1872.0,1822.0,2298.0,3265.0,4095.0,4095.0,4095.0,4095.0,-7.51,-4.67,2.32,-0.03,-0.03,0.11,1.0,professor
2953.0,1370.0,2887.0,3759.0,3650.0,3888.0,4095.0,3936.0,9.6,0.51,6.54,-0.03,0.1,-0.22,0.0,1881.0,1761.0,2293.0,3291.0,4095.0,4095.0,4095.0,4095.0,-7.78,-4.81,2.45,-0.09,0.0,-0.0,1.0,professor
2963.0,1652.0,2883.0,3763.0,3631.0,3860.0,4095.0,3870.0,9.68,0.59,6.67,-0.03,0.01,-0.11,0.0,1873.0,1703.0,2275.0,3294.0,4095.0,4095.0,4095.0,4095.0,-7.77,-4.83,2.32,-0.06,0.04,-0.04,1.0,professor
2960.0,1703.0,2882.0,3770.0,3626.0,3822.0,4095.0,4014.0,9.74,0.73,6.52,-0.05,0.0,-0.12,0.0,1872.0,1674.0,2276.0,3299.0,4095.0,4095.0,4095.0,4095.0,-7.87,-4.82,2.21,-0.06,0.0,0.0,1.0,professor
2961.0,1691.0,2867.0,3743.0,3632.0,3811.0,4095.0,4095.0,9.68,0.75,6.43,0.04,-0.05,-0.16,0.0,1841.0,1711.0,2256.0,3283.0,4095.0,4095.0,4095.0,4095.0,-7.86,-4.88,2.25,-0.15,-0.0,0.06,1.0,professor
2961.0,1477.0,2880.0,3702.0,3633.0,3767.0,4095.0,4095.0,9.87,0.85,6.53,0.09,0.02,-0.16,0.0,1666.0,1727.0,2256.0,3271.0,4095.0,4095.0,4095.0,4095.0,-7.9,-4.79,2.15,-0.13,-0.07,-0.01,1.0,professor
2965.0,1420.0,2883.0,3699.0,3636.0,3773.0,4095.0,4095.0,10.22,0.8,6.41,0.13,-0.04,-0.14,0.0,1625.0,1736.0,2254.0,3279.0,4095.0,4095.0,4095.0,4095.0,-7.67,-4.65,2.34,-0.03,0.08,-0.01,1.0,professor
3894.0,4095.0,1152.0,3486.0,3008.0,2852.0,3152.0,2909.0,-2.75,9.34,5.7,0.05,-0.02,-0.14,0.0,3651.0,4046.0,3231.0,3157.0,4095.0,3843.0,4095.0,3927.0,0.6,9.56,3.34,-0.03,0.03,-0.03,1.0,professor
3888.0,4095.0,1147.0,3497.0,3012.0,2859.0,3158.0,2928.0,-2.71,9.28,5.77,0.01,0.01,-0.18,0.0,3646.0,4074.0,3231.0,3174.0,4095.0,3832.0,4095.0,3906.0,0.59,9.52,3.43,-0.09,-0.03,-0.02,1.0,professor
3903.0,4095.0,1139.0,3491.0,3011.0,2849.0,3153.0,2928.0,-2.79,9.14,5.66,0.06,-0.02,-0.19,0.0,3663.0,4065.0,3221.0,3161.0,4095.0,3833.0,4095.0,3911.0,0.71,9.3,3.49,-0.01,0.03,0.0,1.0,professor
3930.0,4095.0,937.0,3514.0,3035.0,2832.0,3097.0,2845.0,-12.56,8.96,5.24,0.09,0.68,0.54,0.0,3657.0,4083.0,2834.0,3115.0,4095.0,3792.0,4095.0,3968.0,9.56,12.31,0.72,-0.28,0.21,-0.72,1.0,professor
3098.0,4095.0,990.0,3393.0,3082.0,2855.0,3120.0,2865.0,7.11,7.81,6.24,-0.2,-0.91,2.27,0.0,3709.0,4050.0,3440.0,3218.0,4095.0,3889.0,4095.0,3951.0,-17.02,1.95,6.53,0.04,0.45,-1.28,1.0,professor
2876.0,4095.0,1146.0,3345.0,2922.0,2874.0,3136.0,2896.0,6.89,9.8,6.04,0.2,-1.05,-2.02,0.0,3731.0,4080.0,3554.0,3234.0,4095.0,3841.0,4095.0,4043.0,-2.46,7.28,4.44,0.62,-0.08,2.31,1.0,professor
3344.0,4095.0,931.0,3396.0,3048.0,2843.0,3082.0,2773.0,-17.73,8.75,3.8,0.83,0.92,-1.31,0.0,3699.0,4075.0,2742.0,3071.0,4095.0,3734.0,4095.0,3998.0,16.02,14.64,-1.11,-0.0,-0.45,-0.39,1.0,professor
3381.0,4095.0,922.0,3447.0,3100.0,2869.0,3125.0,2896.0,-3.72,6.73,4.85,-0.53,-0.89,2.44,0.0,3748.0,4055.0,3247.0,3234.0,4095.0,3802.0,4095.0,4030.0,-9.19,3.93,6.38,-0.48,0.14,-1.5,1.0,professor
3061.0,4095.0,1299.0,3351.0,3003.0,2774.0,3103.0,2878.0,10.58,8.55,7.06,0.02,-1.03,-1.14,0.0,3769.0,4038.0,3520.0,3257.0,4095.0,3871.0,4095.0,4035.0,-3.34,6.45,3.86,0.94,0.21,1.91,1.0,professor
3344.0,4095.0,913.0,3467.0,3065.0,2841.0,3163.0,2834.0,-16.73,7.86,4.23,0.35,0.56,-0.6,0.0,3742.0,4055.0,1944.0,3136.0,4095.0,3739.0,4095.0,3991.0,14.3,12.33,-2.19,0.5,-0.28,-0.66,1.0,professor
1083.0,928.0,2589.0,3709.0,3462.0,3499.0,3747.0,3005.0,-7.83,3.19,1.17,-2.1,0.05,3.22,0.0,3499.0,3916.0,3082.0,2996.0,4095.0,4095.0,4095.0,4095.0,5.6,4.57,-2.85,-2.58,1.29,-4.55,1.0,professor
2863.0,1843.0,2837.0,3509.0,3909.0,3908.0,4095.0,3566.0,4.55,-5.44,6.01,-2.54,-1.07,5.06,0.0,2588.0,2695.0,2631.0,3153.0,4095.0,4095.0,4095.0,4095.0,-2.33,-8.56,0.04,-2.96,2.34,-5.98,1.0,professor
2965.0,1964.0,2864.0,3764.0,3901.0,4095.0,4095.0,3787.0,13.86,-1.41,6.55,-0.53,-2.74,4.43,0.0,2605.0,2690.0,2524.0,3280.0,4095.0,4095.0,4095.0,4095.0,-13.53,-9.64,2.06,-0.65,0.98,-4.71,1.0,professor
3008.0,2586.0,2879.0,3804.0,3945.0,4095.0,4095.0,3654.0,28.49,4.57,9.16,0.42,-0.87,1.66,0.0,2551.0,2412.0,2515.0,3408.0,4095.0,4095.0,4095.0,4095.0,-19.86,-8.8,5.27,-0.23,-0.03,-1.89,1.0,professor
2994.0,2473.0,2878.0,3649.0,3843.0,4063.0,4095.0,3728.0,11.73,4.66,5.93,0.07,0.09,-0.33,0.0,2444.0,2061.0,2513.0,3453.0,4095.0,4095.0,4095.0,4095.0,-11.18,-3.69,3.78,0.21,-0.24,-0.43,1.0,professor
2991.0,2288.0,2885.0,3659.0,3742.0,3934.0,4095.0,3781.0,8.65,1.92,6.21,0.09,0.22,-0.39,0.0,2311.0,1869.0,2496.0,3447.0,4095.0,4095.0,4095.0,4095.0,-8.74,-5.22,2.51,0.02,0.01,0.11,1.0,professor
2977.0,2214.0,2895.0,3659.0,3730.0,3888.0,4095.0,3787.0,9.33,1.64,6.07,0.08,-0.03,-0.23,0.0,2115.0,1744.0,2480.0,3427.0,4095.0,4095.0,4095.0,4095.0,-7.54,-4.13,1.99,-0.06,0.16,0.15,1.0,professor
2975.0,2041.0,2893.0,3632.0,3680.0,3829.0,4095.0,3792.0,9.53,1.8,6.39,-0.11,0.01,-0.11,0.0,1859.0,1535.0,2331.0,3423.0,4095.0,4095.0,4095.0,4095.0,-8.02,-4.24,2.39,-0.03,-0.03,-0.07,1.0,professor
2977.0,2010.0,2883.0,3609.0,3681.0,3817.0,4095.0,3824.0,9.67,1.61,6.62,0.01,-0.0,-0.12,0.0,1953.0,951.0,2017.0,3408.0,4095.0,4095.0,4095.0,4095.0,-8.24,-4.39,2.13,-0.05,0.09,-0.05,1.0,professor
2975.0,1980.0,2895.0,3614.0,3665.0,3811.0,4095.0,3814.0,10.02,1.62,6.49,-0.03,-0.04,-0.09,0.0,1904.0,927.0,1958.0,3402.0,4095.0,4095.0,4095.0,4095.0,-8.15,-4.28,2.05,-0.1,0.05,-0.03,1.0,professor
4095.0,4059.0,1901.0,3642.0,2846.0,2652.0,3050.0,2754.0,-3.09,9.25,5.36,0.03,0.01,-0.17,0.0,4080.0,3568.0,1140.0,3440.0,4095.0,3791.0,4016.0,3920.0,0.1,9.57,3.33,-0.08,0.0,-0.01,1.0,professor
4095.0,4066.0,1889.0,3641.0,2852.0,2654.0,3056.0,2752.0,-3.03,9.01,5.31,0.01,-0.06,-0.23,0.0,4077.0,3562.0,1136.0,3450.0,4095.0,3791.0,4014.0,3940.0,-0.02,9.37,3.34,-0.07,0.03,0.04,1.0,professor
4095.0,4050.0,2032.0,3632.0,2789.0,2630.0,2911.0,2628.0,-12.67,9.44,3.62,0.13,0.55,0.75,0.0,4045.0,3495.0,989.0,3383.0,4095.0,3714.0,4001.0,3774.0,9.06,12.82,0.95,0.01,0.21,-0.69,1.0,professor
4051.0,4095.0,1968.0,3657.0,2875.0,2630.0,2991.0,2683.0,4.83,6.75,6.71,-0.28,-1.26,2.41,0.0,4090.0,3055.0,971.0,3394.0,4095.0,3759.0,3995.0,3862.0,-10.17,2.89,6.69,-0.68,0.48,-1.78,1.0,professor
3877.0,4095.0,2069.0,3581.0,2850.0,2598.0,2973.0,2731.0,8.67,9.87,7.42,-0.03,-0.29,-1.6,0.0,4080.0,2901.0,969.0,3366.0,4095.0,3801.0,3979.0,3920.0,-6.82,6.64,5.13,0.48,-0.16,1.73,1.0,professor
4006.0,4095.0,2476.0,3641.0,2771.0,2559.0,2928.0,2655.0,-13.95,8.11,3.7,0.55,0.94,-2.16,0.0,4016.0,3018.0,950.0,3280.0,4021.0,3749.0,3977.0,3905.0,12.94,13.72,-0.67,0.97,-0.82,0.75,1.0,professor
4084.0,4095.0,2478.0,3680.0,2847.0,2614.0,2939.0,2687.0,-7.51,6.88,4.18,-0.73,-0.98,2.2,0.0,4029.0,3007.0,931.0,3340.0,4095.0,3759.0,3982.0,3908.0,-1.27,7.18,2.92,-1.7,0.91,-2.01,1.0,professor
3818.0,4095.0,2224.0,3582.0,2877.0,2583.0,2960.0,2690.0,9.96,8.18,6.67,0.01,0.06,-1.13,0.0,4090.0,2773.0,991.0,3440.0,4095.0,3792.0,3991.0,3781.0,-5.85,5.94,5.0,0.71,0.61,1.34,1.0,professor
3494.0,4095.0,977.0,3504.0,2887.0,3030.0,3417.0,2763.0,-7.73,0.21,0.36,-1.35,-0.34,3.98,0.0,4070.0,2284.0,897.0,3041.0,4095.0,3887.0,4095.0,4095.0,7.62,3.29,-3.51,-2.98,1.09,-4.66,1.0,professor
2851.0,2683.0,2832.0,3600.0,3531.0,3520.0,4095.0,3711.0,4.91,-5.51,7.2,-2.96,0.13,6.14,0.0,2640.0,2559.0,2704.0,3155.0,4095.0,4095.0,4095.0,4095.0,-0.2,-9.79,1.07,-3.24,1.83,-6.36,1.0,professor
2953.0,2442.0,2864.0,3731.0,3806.0,4015.0,4095.0,3764.0,22.78,-2.16,9.14,-0.52,-2.5,4.68,0.0,2739.0,2688.0,2390.0,3363.0,4095.0,4095.0,4095.0,4095.0,-22.15,-16.61,2.41,-1.49,0.83,-4.58,1.0,professor
2978.0,2384.0,2871.0,3729.0,3824.0,4038.0,4095.0,3742.0,20.51,4.83,9.47,0.09,-0.35,1.36,0.0,2657.0,2556.0,2320.0,3439.0,4095.0,4095.0,4095.0,4095.0,-18.7,-7.18,5.35,-0.46,0.93,-0.71,1.0,professor
2955.0,2436.0,2875.0,3685.0,3774.0,3923.0,4095.0,3853.0,10.76,3.17,6.75,-0.1,0.19,-0.27,0.0,2522.0,2461.0,2288.0,3425.0,4095.0,4095.0,4095.0,4095.0,-8.69,-3.36,4.31,-0.41,0.05,0.1,1.0,professor
2951.0,2416.0,2871.0,3663.0,3706.0,3858.0,4095.0,3737.0,9.44,1.26,6.56,0.09,0.02,-0.31,0.0,2437.0,2368.0,2268.0,3393.0,4095.0,4095.0,4095.0,4095.0,-8.83,-4.78,2.38,0.09,0.22,-0.05,1.0,professor
2966.0,2373.0,2877.0,3650.0,3683.0,3831.0,4095.0,3743.0,10.04,1.33,6.21,0.12,0.01,-0.28,0.0,2349.0,2270.0,2256.0,3406.0,4095.0,4095.0,4095.0,4095.0,-8.09,-4.43,2.21,0.11,0.02,0.08,1.0,professor
2942.0,2334.0,2879.0,3607.0,3676.0,3803.0,4095.0,3771.0,9.48,1.46,6.24,-0.02,0.07,-0.18,0.0,2273.0,2215.0,2253.0,3408.0,4095.0,4095.0,4095.0,4095.0,-7.92,-4.24,2.41,0.04,0.05,0.02,1.0,professor
2961.0,2302.0,2881.0,3622.0,3664.0,3793.0,4095.0,3895.0,9.91,1.33,6.25,0.01,-0.06,-0.15,0.0,2160.0,2177.0,2226.0,3395.0,4095.0,4095.0,4095.0,4095.0,-8.01,-4.47,2.38,0.0,-0.0,-0.03,1.0,professor
2959.0,2290.0,2867.0,3632.0,3622.0,3792.0,4095.0,3899.0,9.61,1.43,6.36,-0.0,-0.01,-0.12,0.0,2144.0,2119.0,2212.0,3392.0,4095.0,4095.0,4095.0,4095.0,-8.18,-4.3,2.29,-0.02,0.06,0.0,1.0,professor
2955.0,2298.0,2874.0,3655.0,3614.0,3770.0,4095.0,3901.0,9.74,1.45,6.52,0.03,-0.0,-0.16,0.0,2123.0,2067.0,2205.0,3399.0,4095.0,4095.0,4095.0,4095.0,-8.23,-4.35,2.3,-0.05,0.07,-0.01,1.0,professor
2960.0,2271.0,2871.0,3649.0,3631.0,3753.0,4095.0,3901.0,9.64,1.45,6.33,0.02,-0.0,-0.16,0.0,2113.0,2014.0,2194.0,3413.0,4095.0,4095.0,4095.0,4095.0,-8.09,-4.27,2.48,-0.0,0.01,-0.03,1.0,professor
4095.0,4048.0,960.0,3575.0,2863.0,2685.0,3035.0,2683.0,-3.24,9.22,4.9,0.01,-0.01,-0.16,0.0,3495.0,3525.0,884.0,3281.0,4095.0,3907.0,4010.0,3830.0,0.09,9.41,3.69,-0.05,-0.01,-0.02,1.0,professor
4095.0,4048.0,962.0,3579.0,2865.0,2688.0,3029.0,2688.0,-2.96,9.18,4.97,0.03,-0.05,-0.18,0.0,3509.0,3519.0,889.0,3283.0,4095.0,3920.0,4016.0,3813.0,-0.07,9.47,3.47,-0.06,0.01,-0.03,1.0,professor
4095.0,4032.0,949.0,3583.0,2864.0,2689.0,3031.0,2688.0,-6.37,8.62,4.45,0.04,0.18,-0.17,0.0,3504.0,3520.0,884.0,3282.0,4095.0,3917.0,4005.0,3831.0,3.51,10.42,2.82,-0.02,0.08,-0.1,1.0,professor
4095.0,4027.0,956.0,3583.0,2843.0,2656.0,2979.0,2625.0,-7.15,8.75,3.35,-0.84,0.28,2.32,0.0,3489.0,3500.0,885.0,3277.0,4095.0,3885.0,4002.0,3810.0,0.91,9.46,2.83,-0.85,0.22,-2.05,1.0,professor
4095.0,4095.0,944.0,3558.0,2758.0,2637.0,2965.0,2611.0,14.69,9.68,7.68,0.22,-0.46,-1.01,0.0,3285.0,3329.0,879.0,3327.0,4095.0,3965.0,3972.0,3815.0,-12.09,4.76,7.08,0.53,-0.06,0.92,1.0,professor
4095.0,4082.0,951.0,3575.0,2865.0,2646.0,3015.0,2705.0,-9.96,7.54,4.45,0.56,0.58,-2.58,0.0,3358.0,3398.0,886.0,3261.0,4095.0,3859.0,3907.0,3733.0,9.64,12.21,0.43,0.82,-0.46,1.43,1.0,professor
4095.0,4021.0,1013.0,3573.0,2814.0,2638.0,2985.0,2641.0,-10.87,7.05,2.93,-0.72,-0.54,2.03,0.0,3408.0,3409.0,887.0,3253.0,4095.0,3830.0,3951.0,3746.0,4.04,10.09,1.71,-1.6,0.29,-1.98,1.0,professor
4095.0,4095.0,1018.0,3613.0,2832.0,2593.0,2985.0,2667.0,11.47,9.1,6.82,-0.1,-0.38,-0.84,0.0,2960.0,3019.0,875.0,3344.0,4095.0,3904.0,3968.0,3771.0,-8.43,4.62,7.06,0.58,0.53,1.1,1.0,professor
4095.0,4095.0,1036.0,3615.0,2857.0,2674.0,3097.0,2725.0,-11.61,7.8,4.85,0.72,0.51,-1.45,0.0,3250.0,3085.0,893.0,3218.0,4095.0,3888.0,3987.0,3458.0,10.63,11.86,-0.13,0.24,0.03,0.37,1.0,professor
4032.0,4095.0,1070.0,3554.0,3083.0,3067.0,3487.0,2879.0,-12.22,3.98,0.21,-0.93,0.03,2.43,0.0,2736.0,1632.0,936.0,2847.0,4095.0,4095.0,4095.0,4095.0,6.67,8.12,-0.93,-1.75,0.78,-3.11,1.0,professor
2704.0,4095.0,2807.0,3666.0,3467.0,3425.0,4095.0,3556.0,-2.76,-3.44,3.92,-3.17,-0.14,5.41,0.0,2376.0,2514.0,2738.0,2928.0,4095.0,4095.0,4095.0,4095.0,2.0,-0.87,0.56,-2.39,1.36,-4.86,1.0,professor
2964.0,2545.0,2874.0,3919.0,3870.0,4095.0,4095.0,3906.0,26.53,2.39,9.75,-0.05,-1.13,2.58,0.0,2315.0,2484.0,2480.0,3220.0,4095.0,4095.0,4095.0,4095.0,-21.65,-10.76,6.0,-1.14,1.58,-2.89,1.0,professor
2972.0,2522.0,2880.0,3920.0,3794.0,4095.0,4095.0,4033.0,15.12,4.67,8.54,-0.13,0.04,0.13,0.0,2207.0,2054.0,2407.0,3175.0,4095.0,4095.0,4095.0,4095.0,-8.01,-2.78,2.76,-0.03,-0.19,0.11,1.0,professor
2956.0,2415.0,2886.0,3825.0,3701.0,4046.0,4095.0,4048.0,9.57,1.17,6.54,0.17,0.13,-0.22,0.0,1932.0,1986.0,2405.0,3237.0,4095.0,4095.0,4095.0,4095.0,-8.61,-4.17,2.34,0.09,0.35,-0.07,1.0,professor
2951.0,2407.0,2880.0,3824.0,3695.0,4000.0,4095.0,4043.0,9.96,1.34,6.81,0.06,0.04,-0.16,0.0,1865.0,1935.0,2380.0,3247.0,4095.0,4095.0,4095.0,4095.0,-8.45,-3.79,2.27,-0.06,0.06,-0.06,1.0,professor
2939.0,2397.0,2879.0,3840.0,3664.0,3933.0,4095.0,3999.0,9.32,1.52,6.63,-0.02,-0.09,-0.15,0.0,1743.0,1922.0,2371.0,3248.0,4095.0,4095.0,4095.0,4095.0,-8.48,-3.98,2.41,-0.08,0.02,-0.15,1.0,professor
2950.0,2320.0,2870.0,3840.0,3629.0,3895.0,4095.0,3983.0,10.3,1.04,6.77,0.17,-0.19,-0.12,0.0,1479.0,1997.0,2352.0,3257.0,4095.0,4095.0,4095.0,4095.0,-8.58,-4.52,2.47,0.15,-0.01,-0.11,1.0,professor
2951.0,2205.0,2883.0,3826.0,3626.0,3900.0,4095.0,3963.0,9.97,1.44,6.75,0.11,-0.06,-0.21,0.0,1331.0,1984.0,2372.0,3250.0,4095.0,4095.0,4095.0,4095.0,-8.0,-3.73,2.3,0.02,-0.03,-0.06,1.0,professor
2945.0,2202.0,2895.0,3819.0,3606.0,3903.0,4095.0,3970.0,9.57,1.45,6.76,0.08,0.16,-0.23,0.0,1270.0,1936.0,2359.0,3259.0,4095.0,4095.0,4095.0,4095.0,-8.08,-4.01,2.6,0.02,-0.06,-0.08,1.0,professor
2944.0,2199.0,2884.0,3792.0,3568.0,3818.0,4095.0,3989.0,9.6,1.34,6.98,0.04,0.04,-0.17,0.0,1243.0,1920.0,2365.0,3265.0,4095.0,4095.0,4095.0,4095.0,-8.46,-4.12,2.63,0.05,0.14,0.11,1.0,professor
3518.0,4095.0,2256.0,3631.0,2967.0,2736.0,3125.0,2687.0,-3.01,9.26,5.58,0.02,-0.01,-0.15,0.0,3741.0,3147.0,880.0,3211.0,4095.0,4019.0,3985.0,3811.0,0.03,9.49,3.59,-0.07,0.0,-0.03,1.0,professor
3506.0,4095.0,2255.0,3627.0,2966.0,2736.0,3133.0,2687.0,-2.88,9.23,5.37,0.04,-0.05,-0.15,0.0,3758.0,3133.0,880.0,3216.0,4095.0,4018.0,4018.0,3818.0,0.04,9.47,3.58,-0.05,-0.0,-0.04,1.0,professor
3515.0,4095.0,2256.0,3633.0,2973.0,2742.0,3136.0,2685.0,-3.23,9.03,5.33,-0.03,0.01,-0.21,0.0,3744.0,3141.0,884.0,3215.0,4095.0,4031.0,4014.0,3820.0,0.17,9.32,3.22,-0.07,0.03,0.0,1.0,professor
3727.0,4095.0,2486.0,3561.0,2917.0,2683.0,3005.0,2512.0,-14.78,9.4,2.8,-0.17,0.88,1.22,0.0,3732.0,3165.0,890.0,3169.0,4095.0,3852.0,3900.0,3729.0,7.88,12.52,0.9,-0.45,0.34,-1.22,1.0,professor
3515.0,4095.0,2101.0,3565.0,2910.0,2679.0,3045.0,2629.0,15.18,7.38,9.05,0.31,-1.24,1.03,0.0,3695.0,2935.0,879.0,3150.0,4095.0,3899.0,3885.0,3664.0,-18.45,-0.46,9.29,0.19,1.37,-0.76,1.0,professor
3186.0,4095.0,2143.0,3600.0,2922.0,2657.0,3050.0,2682.0,3.57,8.34,7.98,0.24,0.03,-2.25,0.0,3647.0,3056.0,884.0,3253.0,4095.0,3833.0,3856.0,3771.0,-1.52,7.51,3.74,0.75,-0.53,2.18,1.0,professor
3511.0,4095.0,2129.0,3553.0,2735.0,2707.0,3005.0,2549.0,-24.58,9.27,1.18,0.33,1.07,-0.11,0.0,3742.0,3287.0,882.0,3028.0,4095.0,3668.0,3825.0,2480.0,15.65,16.45,-3.33,0.67,-0.64,0.01,1.0,professor
3109.0,4095.0,2033.0,3642.0,2967.0,2689.0,3083.0,2721.0,7.93,7.04,7.88,0.09,-0.67,1.78,0.0,3746.0,3145.0,880.0,3233.0,4095.0,3728.0,3826.0,3735.0,-12.01,3.17,6.53,-0.46,0.03,-0.91,1.0,professor
3090.0,4095.0,2178.0,3649.0,2958.0,2667.0,3086.0,2753.0,6.08,8.92,5.21,-0.0,-0.35,-2.33,0.0,3747.0,2928.0,879.0,3337.0,4095.0,3773.0,3823.0,3733.0,-5.29,6.42,4.84,0.86,0.08,2.15,1.0,professor
3519.0,4095.0,2624.0,3543.0,2941.0,2753.0,3110.0,2709.0,-19.14,6.29,4.52,0.53,0.77,-1.25,0.0,3716.0,2250.0,2832.0,3161.0,4095.0,3911.0,4095.0,4023.0,7.82,5.24,-0.85,-1.59,0.82,-3.7,1.0,professor
2735.0,2138.0,2811.0,3343.0,3543.0,3505.0,3984.0,3391.0,2.72,-5.78,5.34,-2.88,0.29,5.61,0.0,2790.0,2096.0,2559.0,3149.0,4095.0,4095.0,4095.0,4095.0,1.46,-4.43,0.08,-2.79,2.36,-5.65,1.0,professor
2933.0,2615.0,2864.0,3526.0,3840.0,4019.0,4095.0,3819.0,15.0,-5.73,8.27,-1.11,-1.69,5.61,0.0,2742.0,2592.0,2288.0,3120.0,4095.0,4095.0,4095.0,4095.0,-13.17,-10.75,0.01,-1.68,1.12,-5.53,1.0,professor
2991.0,2635.0,2871.0,3669.0,3888.0,4095.0,4095.0,3843.0,25.5,1.88,7.94,-0.1,-1.05,2.97,0.0,2663.0,2423.0,2275.0,3234.0,4095.0,4095.0,4095.0,4095.0,-19.65,-8.03,5.32,-1.44,0.7,-2.54,1.0,professor
2972.0,2599.0,2850.0,3671.0,3903.0,4095.0,4095.0,3856.0,15.5,3.13,8.41,-0.22,-0.04,0.41,0.0,2583.0,2131.0,2224.0,3250.0,4095.0,4095.0,4095.0,4095.0,-12.03,-4.05,4.27,-0.49,0.08,-0.62,1.0,professor
2966.0,2583.0,2851.0,3696.0,3819.0,3991.0,4095.0,3805.0,10.9,0.92,6.63,0.42,-0.16,-0.46,0.0,2549.0,2068.0,2219.0,3214.0,4095.0,4095.0,4095.0,4095.0,-8.59,-4.2,2.85,-0.13,-0.16,-0.42,1.0,professor
2949.0,2579.0,2842.0,3613.0,3815.0,3939.0,4095.0,3782.0,9.42,0.67,6.58,-0.06,0.13,-0.33,0.0,2514.0,1874.0,2199.0,3298.0,4095.0,4095.0,4095.0,4095.0,-8.82,-5.46,2.22,-0.11,0.06,-0.21,1.0,professor
2948.0,2542.0,2842.0,3683.0,3808.0,3904.0,4095.0,3788.0,9.38,0.15,6.67,0.01,-0.02,-0.24,0.0,2496.0,1789.0,2150.0,3321.0,4095.0,4095.0,4095.0,4095.0,-8.09,-5.07,1.71,-0.11,0.1,-0.0,1.0,professor
2947.0,2518.0,2839.0,3636.0,3761.0,3885.0,4095.0,3767.0,9.33,0.23,6.69,-0.02,0.08,-0.16,0.0,2405.0,1600.0,2035.0,3275.0,4095.0,4095.0,4095.0,4095.0,-7.75,-5.17,2.14,-0.05,0.09,-0.01,1.0,professor
2944.0,2494.0,2837.0,3658.0,3728.0,3825.0,4095.0,3760.0,9.79,0.23,6.51,0.0,0.1,-0.16,0.0,2677.0,1268.0,1861.0,3307.0,4095.0,4095.0,4095.0,4095.0,-7.79,-4.95,1.84,-0.03,-0.1,-0.03,1.0,professor
2960.0,2469.0,2853.0,3643.0,3706.0,3824.0,4095.0,3760.0,9.74,0.26,6.72,-0.05,-0.01,-0.15,0.0,2652.0,1240.0,1904.0,3319.0,4095.0,4095.0,4095.0,4095.0,-7.87,-4.78,1.87,-0.03,0.05,-0.04,1.0,professor
3147.0,938.0,3009.0,3669.0,1855.0,2944.0,3341.0,3081.0,8.08,1.57,10.97,1.73,1.37,-2.16,0.0,2027.0,3082.0,3131.0,3952.0,4095.0,3792.0,4095.0,3631.0,-11.25,-2.13,2.71,-0.38,0.8,3.36,1.0,professor
3214.0,958.0,3068.0,3280.0,2496.0,2828.0,3227.0,2687.0,3.24,6.2,7.48,1.96,0.65,-2.57,0.0,991.0,3490.0,3173.0,3860.0,4095.0,3521.0,4095.0,3534.0,-7.86,1.93,2.53,-0.15,0.44,4.31,1.0,professor
3243.0,965.0,3214.0,4020.0,2503.0,2834.0,3174.0,2480.0,1.82,7.63,7.3,1.13,0.25,-1.59,0.0,939.0,3696.0,3166.0,3583.0,4095.0,3163.0,3632.0,3101.0,-3.64,4.47,1.02,0.25,-0.64,3.55,1.0,professor
3327.0,967.0,3858.0,4095.0,2467.0,2641.0,3056.0,2313.0,1.25,7.15,6.47,0.7,-0.61,-1.48,0.0,911.0,3935.0,3152.0,3601.0,3679.0,3059.0,3318.0,3135.0,-0.77,4.33,1.25,0.24,-0.36,2.35,1.0,professor
3668.0,976.0,958.0,3921.0,1825.0,2107.0,2557.0,1994.0,-19.58,8.62,1.98,-0.02,2.4,0.05,0.0,918.0,3988.0,3162.0,3350.0,3674.0,3027.0,3265.0,3025.0,5.21,6.33,1.12,0.37,-0.16,1.84,1.0,professor
3602.0,1002.0,915.0,3943.0,2122.0,2179.0,2553.0,1985.0,19.38,8.14,9.35,0.18,-3.58,1.18,0.0,928.0,4013.0,3161.0,3504.0,3749.0,2915.0,3306.0,3010.0,-21.54,8.03,4.53,0.08,0.79,1.21,1.0,professor
3595.0,971.0,939.0,3991.0,1693.0,2204.0,2594.0,2135.0,-3.17,6.94,6.09,-0.07,1.1,-2.55,0.0,919.0,3920.0,3170.0,3760.0,3759.0,2877.0,3207.0,3062.0,11.71,6.69,-2.1,0.71,0.28,1.19,1.0,professor
3616.0,978.0,3337.0,3367.0,2291.0,2224.0,2743.0,2357.0,-16.23,5.38,2.14,-0.34,0.87,1.48,0.0,987.0,3568.0,3132.0,2865.0,4065.0,3167.0,3696.0,3006.0,8.87,2.0,-0.32,-0.76,0.98,-4.02,1.0,professor
2519.0,986.0,2901.0,3695.0,2967.0,2881.0,3625.0,3120.0,0.32,-5.26,0.84,-2.37,-2.66,5.39,0.0,2224.0,4095.0,2770.0,2800.0,4095.0,4095.0,4095.0,4095.0,2.46,-5.65,-1.58,-0.84,0.12,-7.22,1.0,professor
3195.0,4066.0,3303.0,4014.0,3456.0,4095.0,4095.0,4095.0,26.08,3.5,7.09,0.12,-0.16,1.56,0.0,931.0,4095.0,2685.0,2883.0,4095.0,4095.0,4095.0,4095.0,-20.44,-13.92,4.77,-3.0,1.71,-8.26,1.0,professor
3248.0,4080.0,3322.0,4095.0,3489.0,4095.0,4095.0,4095.0,13.02,3.18,6.97,-0.14,-0.24,-0.26,0.0,958.0,4095.0,2401.0,2803.0,4095.0,4095.0,4095.0,4095.0,-10.82,-1.35,1.24,0.35,0.2,0.33,1.0,professor
3300.0,4048.0,3327.0,4095.0,3458.0,3969.0,4095.0,4095.0,9.19,0.38,6.4,0.05,0.1,-0.22,0.0,957.0,4095.0,2551.0,2836.0,4095.0,4095.0,4095.0,4095.0,-8.67,-2.46,0.43,-0.05,-0.03,0.22,1.0,professor
3295.0,3942.0,3358.0,4095.0,3406.0,3867.0,4095.0,4095.0,9.99,0.71,6.12,0.15,0.04,-0.1,0.0,952.0,4095.0,2736.0,2875.0,4095.0,4095.0,4095.0,4095.0,-9.06,-2.77,0.55,-0.17,0.18,0.18,1.0,professor
3278.0,3757.0,3349.0,4095.0,3378.0,3798.0,4095.0,4095.0,9.79,0.98,6.4,0.04,0.13,-0.15,0.0,956.0,4095.0,3057.0,2976.0,4095.0,4095.0,4095.0,4095.0,-9.2,-2.4,0.15,-0.01,-0.08,-0.07,1.0,professor
3271.0,3632.0,3262.0,4095.0,3311.0,3602.0,4095.0,4095.0,9.31,0.99,6.42,0.05,-0.07,-0.09,0.0,949.0,4095.0,3121.0,2983.0,4095.0,4095.0,4095.0,4095.0,-9.22,-2.32,0.06,-0.09,0.17,-0.03,1.0,professor
3251.0,3359.0,2960.0,3895.0,3263.0,3440.0,4095.0,4095.0,9.94,0.85,6.36,0.04,0.09,-0.07,0.0,946.0,4095.0,2981.0,2960.0,4095.0,4095.0,4095.0,4095.0,-9.01,-2.3,0.03,-0.02,-0.09,0.02,1.0,professor
3223.0,3351.0,2964.0,3968.0,3275.0,3451.0,4095.0,4095.0,9.88,0.98,6.43,0.05,0.23,-0.06,0.0,959.0,4095.0,2879.0,2935.0,4095.0,4095.0,4095.0,4095.0,-9.33,-2.63,0.1,-0.1,-0.16,0.01,1.0,professor
3253.0,3344.0,2941.0,3977.0,3269.0,3441.0,4095.0,4095.0,9.94,0.74,6.61,-0.02,0.07,-0.12,0.0,967.0,3995.0,2766.0,2954.0,4095.0,4095.0,4095.0,4095.0,-9.13,-2.28,0.16,-0.04,-0.03,0.03,1.0,professor
3244.0,3329.0,2930.0,3931.0,3275.0,3440.0,4095.0,4095.0,9.71,0.82,6.6,-0.14,0.05,-0.09,0.0,960.0,3967.0,2721.0,2943.0,4095.0,4095.0,4095.0,4095.0,-8.87,-2.23,0.33,0.03,-0.03,-0.03,1.0,professor
3252.0,3310.0,2943.0,3984.0,3254.0,3425.0,4095.0,4095.0,10.04,0.49,6.84,-0.09,0.05,-0.18,0.0,964.0,4017.0,2673.0,2962.0,4095.0,4095.0,4095.0,4095.0,-9.04,-2.17,-0.04,-0.07,0.0,-0.02,1.0,professor
3248.0,926.0,3237.0,4087.0,2367.0,2742.0,2959.0,2944.0,3.93,4.07,13.49,2.56,-1.12,-1.85,0.0,1776.0,3343.0,3091.0,3734.0,4095.0,3484.0,4042.0,3937.0,-7.89,4.73,1.77,0.34,0.74,3.03,1.0,professor
3261.0,977.0,4095.0,4003.0,2387.0,2590.0,2809.0,2496.0,-0.85,7.42,4.62,2.0,-0.54,-1.18,0.0,916.0,3562.0,3049.0,3926.0,4095.0,3155.0,3521.0,3150.0,0.29,6.89,0.97,0.28,-0.41,1.88,1.0,professor
3358.0,971.0,917.0,4095.0,2625.0,2303.0,2592.0,2263.0,-10.11,9.35,4.13,-0.37,0.17,-0.8,0.0,935.0,3707.0,3035.0,3911.0,3781.0,2944.0,3173.0,2663.0,6.15,7.99,-0.67,-0.06,-0.49,1.49,1.0,professor
3361.0,950.0,1840.0,4095.0,2783.0,2344.0,2598.0,2192.0,-12.24,7.49,6.64,-0.45,-0.17,2.48,0.0,915.0,3738.0,3035.0,3893.0,3785.0,2950.0,3210.0,3057.0,-1.69,8.46,3.58,-0.32,-0.29,-2.55,1.0,professor
3333.0,951.0,985.0,4095.0,2457.0,2352.0,2630.0,2179.0,21.71,10.73,4.72,0.14,-0.22,-0.31,0.0,916.0,3742.0,3036.0,3671.0,3774.0,3003.0,3222.0,3009.0,-9.84,9.11,1.97,0.1,0.09,2.01,1.0,professor
3375.0,944.0,1006.0,4095.0,2417.0,2370.0,2631.0,2288.0,-5.77,6.85,5.05,0.02,-0.13,-2.05,0.0,922.0,3759.0,3040.0,4062.0,3824.0,2896.0,3159.0,3043.0,12.66,7.7,-0.11,0.07,0.67,0.68,1.0,professor
3391.0,938.0,1315.0,4095.0,2559.0,2255.0,2607.0,2352.0,-12.64,3.32,3.26,-0.35,0.27,1.39,0.0,944.0,3655.0,3062.0,3659.0,3887.0,2992.0,3341.0,2819.0,10.97,2.83,-2.44,-0.24,0.48,-4.11,1.0,professor
3241.0,976.0,2272.0,3614.0,2975.0,2640.0,3317.0,3069.0,-2.04,-2.93,1.84,-3.05,-0.08,5.98,0.0,2342.0,4095.0,3187.0,2771.0,4095.0,4095.0,4095.0,3888.0,1.43,-7.82,-0.23,-1.48,1.05,-7.2,1.0,professor
2897.0,2021.0,2765.0,4095.0,3527.0,3579.0,4095.0,4095.0,11.93,-9.79,8.31,-3.31,-2.4,7.22,0.0,1968.0,3632.0,2608.0,3089.0,4095.0,4095.0,4095.0,4095.0,-21.71,-15.58,0.86,-2.14,1.22,-7.58,1.0,professor
3120.0,2437.0,2900.0,4095.0,3598.0,4095.0,4095.0,4095.0,35.73,0.98,10.62,-0.02,-1.09,1.51,0.0,884.0,4095.0,2066.0,3163.0,4095.0,4095.0,4095.0,4095.0,-22.94,-3.92,2.34,0.25,0.01,-0.81,1.0,professor
3153.0,3646.0,2881.0,4095.0,3393.0,4095.0,4095.0,4095.0,10.15,2.07,7.42,-0.01,-0.13,-0.82,0.0,913.0,4095.0,2998.0,3051.0,4095.0,4095.0,4095.0,4095.0,-10.68,-1.79,1.66,-0.15,0.11,0.44,1.0,professor
3248.0,3741.0,2863.0,4095.0,3355.0,3815.0,4095.0,4095.0,9.58,0.4,6.69,0.08,0.2,-0.16,0.0,922.0,4095.0,3218.0,3008.0,4095.0,4095.0,4095.0,4095.0,-9.2,-3.13,0.57,0.21,0.1,0.28,1.0,professor
3264.0,3632.0,3127.0,4095.0,3312.0,3703.0,4095.0,4095.0,9.59,0.55,7.03,-0.05,0.02,-0.08,0.0,915.0,4095.0,3415.0,3031.0,4095.0,4095.0,4095.0,4095.0,-8.96,-1.85,0.36,0.03,-0.0,0.06,1.0,professor
3237.0,3294.0,3059.0,4095.0,3187.0,3577.0,4095.0,4095.0,9.61,0.47,6.58,0.02,-0.05,-0.01,0.0,918.0,4095.0,3114.0,3008.0,4095.0,4095.0,4095.0,4095.0,-9.09,-1.83,0.72,-0.04,-0.35,-0.02,1.0,professor
3243.0,3303.0,3302.0,4028.0,3287.0,3558.0,4095.0,4095.0,9.97,0.43,7.02,-0.02,0.23,-0.12,0.0,928.0,4095.0,3188.0,3010.0,4095.0,4095.0,4095.0,4095.0,-9.25,-1.87,0.74,0.06,-0.15,0.01,1.0,professor
3239.0,3273.0,3354.0,4011.0,3287.0,3561.0,4095.0,4095.0,9.22,0.55,6.79,0.08,0.01,-0.17,0.0,925.0,4095.0,2983.0,3001.0,4095.0,4095.0,4095.0,4095.0,-9.19,-1.52,0.9,-0.13,-0.08,0.03,1.0,professor
3189.0,3241.0,3387.0,4087.0,3169.0,3635.0,4095.0,4095.0,10.04,0.34,6.99,-0.01,-0.07,-0.15,0.0,931.0,3674.0,2763.0,2995.0,4095.0,4095.0,4095.0,4095.0,-9.41,-1.64,0.85,-0.02,-0.02,0.05,1.0,professor
3211.0,3241.0,3379.0,4085.0,3344.0,3665.0,4095.0,4095.0,9.65,0.46,7.15,0.0,0.08,-0.16,0.0,945.0,3048.0,3301.0,3010.0,4095.0,4095.0,4095.0,4095.0,-9.33,-1.67,0.81,-0.15,0.06,-0.05,1.0,professor
3216.0,3231.0,3370.0,4073.0,3280.0,3635.0,4095.0,4095.0,9.75,0.45,7.03,-0.09,0.0,-0.17,0.0,938.0,2983.0,3246.0,3024.0,4095.0,4095.0,4095.0,4095.0,-9.34,-1.75,0.99,-0.07,0.19,0.06,1.0,professor
3216.0,3211.0,3363.0,4095.0,3253.0,3602.0,4095.0,4095.0,9.68,0.39,7.17,-0.08,-0.03,-0.2,0.0,937.0,3142.0,3239.0,3038.0,4095.0,4095.0,4095.0,4095.0,-9.59,-1.88,0.74,-0.03,0.01,-0.07,1.0,professor
3162.0,3088.0,2009.0,4087.0,2867.0,2723.0,3184.0,2877.0,3.79,5.21,6.36,0.92,-0.13,-3.23,0.0,1899.0,3059.0,3024.0,3717.0,4095.0,3506.0,4095.0,3968.0,-0.21,4.35,0.95,0.74,-0.88,3.85,1.0,professor
3186.0,4095.0,2013.0,4095.0,2817.0,2631.0,3120.0,2928.0,-0.75,7.09,7.02,0.71,0.27,-2.44,0.0,1377.0,3271.0,3035.0,3823.0,4095.0,3331.0,3872.0,3301.0,3.77,7.71,2.3,0.68,-0.65,2.36,1.0,professor
3312.0,1767.0,989.0,4095.0,2643.0,2368.0,2752.0,2487.0,-2.77,9.41,6.06,0.53,-0.53,-1.28,0.0,912.0,3504.0,3006.0,3833.0,3824.0,2938.0,3270.0,2474.0,3.88,10.09,-0.09,0.39,0.06,0.98,1.0,professor
3378.0,1183.0,1013.0,4095.0,2518.0,2262.0,2619.0,2380.0,-5.09,8.5,5.76,0.18,-0.4,-1.15,0.0,942.0,3600.0,3006.0,3791.0,3712.0,2893.0,3198.0,2320.0,6.9,8.58,0.1,-0.14,0.21,-0.42,1.0,professor
3394.0,1042.0,1045.0,4095.0,2614.0,2282.0,2654.0,2411.0,-14.02,7.53,5.86,-0.17,1.13,1.62,0.0,938.0,3615.0,3006.0,3915.0,3726.0,2890.0,3200.0,2383.0,7.18,9.9,1.84,-1.01,-0.11,-2.9,1.0,professor
3287.0,1020.0,1008.0,4095.0,2514.0,2275.0,2645.0,2288.0,12.28,9.17,5.47,0.57,-0.72,2.11,0.0,956.0,3647.0,3004.0,3490.0,3754.0,2926.0,3226.0,2987.0,-21.05,8.26,2.62,-0.21,-0.02,0.33,1.0,professor
3355.0,1023.0,1147.0,4095.0,2639.0,2299.0,2624.0,2448.0,-12.56,4.75,6.11,-0.24,0.68,-1.02,0.0,936.0,3508.0,2999.0,3834.0,3758.0,2880.0,3245.0,2453.0,11.81,6.6,-0.79,-0.33,0.06,-1.28,1.0,professor
2319.0,2223.0,2893.0,4095.0,3343.0,3359.0,3948.0,3891.0,-0.43,-3.66,6.03,-2.35,-0.13,5.92,0.0,2127.0,4095.0,2768.0,2763.0,4095.0,4095.0,4095.0,3846.0,-0.08,-4.87,1.3,-1.04,1.77,-6.84,1.0,professor
3111.0,1280.0,3071.0,4095.0,3376.0,4095.0,4095.0,4095.0,24.74,4.32,7.06,0.26,-0.38,0.7,0.0,1185.0,4095.0,3615.0,2690.0,4095.0,4095.0,4095.0,4095.0,-19.62,-11.93,-0.11,-0.88,1.85,-6.8,1.0,professor
3167.0,983.0,2749.0,4095.0,3479.0,4080.0,4095.0,4095.0,9.78,2.8,7.51,0.12,-0.01,-0.49,0.0,934.0,4095.0,4095.0,2921.0,4095.0,4095.0,4095.0,4095.0,-10.97,-1.88,-0.36,0.01,-0.09,0.39,1.0,professor
3226.0,985.0,2718.0,4095.0,3533.0,3911.0,4095.0,4095.0,8.97,-0.19,6.42,-0.22,-0.2,-0.19,0.0,955.0,4095.0,4064.0,2928.0,4095.0,4095.0,4095.0,4095.0,-8.81,-3.3,0.12,-0.06,0.02,0.44,1.0,professor
3204.0,980.0,2945.0,4095.0,3568.0,3875.0,4095.0,4095.0,10.18,0.79,6.26,-0.04,0.05,-0.12,0.0,960.0,4095.0,4095.0,2962.0,4095.0,4095.0,4095.0,4095.0,-8.5,-2.29,-0.25,-0.04,-0.05,0.25,1.0,professor
3231.0,962.0,3105.0,4095.0,3551.0,3883.0,4095.0,4095.0,9.96,0.62,6.26,-0.12,-0.01,-0.11,0.0,960.0,4095.0,4095.0,2965.0,4095.0,4095.0,4095.0,4095.0,-8.64,-2.25,-0.4,-0.07,0.05,0.09,1.0,professor
3229.0,963.0,3259.0,4095.0,3546.0,3839.0,4095.0,4095.0,9.84,0.68,6.3,0.08,-0.12,-0.2,0.0,957.0,4095.0,4095.0,2979.0,4095.0,4095.0,4095.0,4095.0,-9.33,-2.23,-0.24,-0.08,-0.09,-0.04,1.0,professor
3231.0,977.0,3189.0,4095.0,3514.0,3827.0,4095.0,4095.0,9.64,0.67,6.17,0.03,-0.04,-0.16,0.0,960.0,4095.0,4095.0,2992.0,4095.0,4095.0,4095.0,4095.0,-9.26,-2.12,-0.28,-0.02,-0.09,-0.01,1.0,professor
3218.0,963.0,3326.0,4095.0,3518.0,3817.0,4095.0,4095.0,9.74,0.7,6.07,0.03,0.1,-0.15,0.0,960.0,4095.0,4095.0,2985.0,4095.0,4095.0,4095.0,4095.0,-9.16,-2.16,-0.35,-0.06,0.01,-0.03,1.0,professor
3217.0,973.0,3393.0,4095.0,3522.0,3799.0,4095.0,4095.0,10.36,0.56,5.96,-0.03,-0.11,-0.1,0.0,957.0,4095.0,4095.0,2988.0,4095.0,4095.0,4095.0,4095.0,-9.11,-2.03,-0.35,-0.09,0.05,-0.01,1.0,professor
3221.0,960.0,3483.0,4095.0,3520.0,3760.0,4095.0,4095.0,9.89,0.53,6.12,-0.02,0.03,-0.2,0.0,961.0,4095.0,4095.0,2985.0,4095.0,4095.0,4095.0,4095.0,-9.25,-2.15,-0.17,-0.02,-0.12,-0.05,1.0,professor
3214.0,983.0,3604.0,4095.0,3497.0,3727.0,4095.0,4095.0,10.03,0.47,6.03,0.01,0.04,-0.17,0.0,959.0,4095.0,4095.0,2992.0,4095.0,4095.0,4095.0,4095.0,-9.13,-2.14,-0.18,-0.06,-0.04,-0.03,1.0,professor
3194.0,976.0,3632.0,4095.0,3473.0,3717.0,4095.0,4095.0,9.97,0.53,6.19,0.02,-0.02,-0.2,0.0,965.0,4095.0,4080.0,2992.0,4095.0,4095.0,4095.0,4095.0,-9.07,-2.05,-0.11,-0.07,0.04,-0.03,1.0,professor
3342.0,1053.0,3083.0,4095.0,2589.0,2352.0,2765.0,2479.0,1.21,6.45,4.96,0.95,-1.34,-2.79,0.0,906.0,4095.0,3666.0,3630.0,3749.0,2910.0,3167.0,2930.0,2.09,6.34,1.78,-0.1,0.36,2.56,1.0,professor
3408.0,962.0,922.0,4095.0,2519.0,2300.0,2559.0,2378.0,-11.24,7.69,6.45,0.07,0.01,-0.78,0.0,912.0,4095.0,3988.0,3762.0,3735.0,2934.0,3182.0,2939.0,5.85,9.08,1.71,0.38,-0.01,1.19,1.0,professor
3418.0,938.0,921.0,4095.0,2618.0,2304.0,2559.0,2404.0,-8.84,6.94,5.22,-0.07,-0.24,2.61,0.0,941.0,4095.0,4010.0,3984.0,3689.0,2958.0,3219.0,2981.0,-2.14,8.13,2.7,-0.76,-0.34,-2.53,1.0,professor
3422.0,912.0,929.0,4095.0,2274.0,2355.0,2624.0,2357.0,-1.31,7.28,6.18,-0.41,0.3,-2.06,0.0,961.0,4095.0,4016.0,3760.0,3710.0,2988.0,3231.0,3088.0,-13.91,7.54,1.88,-0.12,-0.02,1.35,1.0,professor
3454.0,944.0,949.0,4095.0,2542.0,2305.0,2617.0,2429.0,-13.56,4.76,5.54,-0.38,0.73,0.1,0.0,924.0,4095.0,3987.0,3696.0,3666.0,2919.0,3257.0,2946.0,11.45,6.29,-0.53,-0.42,0.23,-2.51,1.0,professor
3596.0,963.0,975.0,3568.0,2579.0,2345.0,2866.0,2765.0,-6.16,-0.09,2.42,-1.34,-0.06,4.24,0.0,2277.0,4095.0,3023.0,2857.0,4095.0,3947.0,4095.0,3661.0,6.07,-0.34,-0.39,-1.38,0.71,-5.88,1.0,professor
2455.0,986.0,2763.0,3600.0,3344.0,3137.0,3943.0,4095.0,5.88,-7.88,3.76,-2.51,-1.45,6.99,0.0,959.0,4095.0,3599.0,2874.0,4095.0,4095.0,4095.0,4091.0,-5.69,-10.17,0.21,-2.08,1.38,-7.94,1.0,professor
3289.0,1680.0,3954.0,3529.0,3376.0,4095.0,4095.0,4095.0,17.39,3.29,8.99,0.07,-0.11,0.06,0.0,901.0,4095.0,3231.0,2777.0,4095.0,4095.0,4095.0,4095.0,-14.26,-2.25,1.96,-0.19,0.27,0.31,1.0,professor
3389.0,1569.0,4095.0,3583.0,3632.0,4095.0,4095.0,4095.0,9.36,0.32,5.48,0.01,-0.03,-0.42,0.0,911.0,4095.0,3174.0,2818.0,4095.0,4095.0,4095.0,4095.0,-8.55,-2.37,0.55,0.15,-0.03,0.35,1.0,professor
3377.0,1503.0,4095.0,3583.0,3614.0,4095.0,4095.0,4095.0,9.54,0.7,5.57,0.02,-0.11,-0.29,0.0,922.0,4095.0,3120.0,2823.0,4095.0,4095.0,4095.0,4095.0,-8.78,-2.22,0.21,0.08,0.01,0.24,1.0,professor
3363.0,1466.0,4095.0,3583.0,3561.0,4063.0,4095.0,4095.0,9.67,0.9,5.35,0.0,0.16,-0.21,0.0,913.0,4095.0,3179.0,2821.0,4095.0,4095.0,4095.0,4095.0,-8.74,-1.84,0.09,-0.0,0.08,0.05,1.0,professor
3389.0,1443.0,4095.0,3626.0,3565.0,3991.0,4095.0,4095.0,9.75,0.93,5.62,-0.03,0.07,-0.15,0.0,917.0,4095.0,3227.0,2801.0,4095.0,4095.0,4095.0,4095.0,-9.37,-1.83,0.04,-0.1,0.09,0.06,1.0,professor
3403.0,1410.0,4095.0,3601.0,3538.0,3984.0,4095.0,4095.0,9.88,1.06,5.52,0.04,-0.09,-0.15,0.0,918.0,4095.0,3310.0,2820.0,4095.0,4095.0,4095.0,4095.0,-9.22,-1.67,0.04,-0.03,-0.04,-0.01,1.0,professor
3377.0,1421.0,4095.0,3623.0,3551.0,3949.0,4095.0,4095.0,10.03,0.91,5.55,0.04,-0.06,-0.16,0.0,925.0,4095.0,3267.0,2818.0,4095.0,4095.0,4095.0,4095.0,-9.4,-1.7,0.09,-0.08,0.03,-0.03,1.0,professor
3378.0,1402.0,4095.0,3579.0,3563.0,3920.0,4095.0,4095.0,10.01,0.94,5.47,-0.01,0.14,-0.07,0.0,922.0,4095.0,3270.0,2825.0,4095.0,4095.0,4095.0,4095.0,-9.3,-1.75,0.08,-0.07,0.12,-0.05,1.0,professor
3373.0,1372.0,4095.0,3602.0,3536.0,3894.0,4095.0,4095.0,9.81,1.02,5.6,-0.08,0.05,-0.15,0.0,934.0,4095.0,3307.0,2815.0,4095.0,4095.0,4095.0,4095.0,-9.34,-1.81,0.07,-0.02,0.06,-0.06,1.0,professor
3393.0,1366.0,4095.0,3600.0,3501.0,3861.0,4095.0,4095.0,9.97,1.04,5.55,0.03,-0.03,-0.16,0.0,924.0,4095.0,3348.0,2813.0,4095.0,4095.0,4095.0,4095.0,-9.41,-1.86,0.07,-0.12,-0.0,-0.03,1.0,professor
3379.0,1344.0,4095.0,3597.0,3465.0,3840.0,4095.0,4095.0,9.79,1.13,5.58,0.01,-0.05,-0.18,0.0,924.0,4095.0,3407.0,2831.0,4095.0,4095.0,4095.0,4095.0,-9.15,-1.72,0.2,-0.11,-0.0,-0.08,1.0,professor
3387.0,1349.0,4095.0,3610.0,3465.0,3813.0,4095.0,4095.0,9.74,0.91,5.82,-0.08,0.09,-0.13,0.0,921.0,4095.0,3331.0,2835.0,4095.0,4095.0,4095.0,4095.0,-9.09,-1.8,0.33,-0.07,0.0,-0.02,1.0,professor
3410.0,1360.0,4095.0,3583.0,3486.0,3797.0,4095.0,4095.0,10.21,0.73,5.66,0.05,0.01,-0.13,0.0,918.0,4095.0,3239.0,2832.0,4095.0,4095.0,4095.0,4095.0,-9.35,-1.97,0.32,-0.05,0.03,-0.05,1.0,professor
3053.0,2096.0,2747.0,4095.0,2982.0,2885.0,3405.0,3227.0,1.37,10.1,7.61,0.33,0.18,0.37,0.0,2751.0,2942.0,2970.0,3533.0,4095.0,4095.0,4095.0,4095.0,-0.86,10.39,3.88,-0.3,-0.54,-0.93,1.0,professor
3206.0,4095.0,2355.0,4095.0,2962.0,2722.0,3148.0,2909.0,0.97,9.78,6.83,0.16,-0.17,-0.56,0.0,2480.0,3157.0,3031.0,3627.0,4095.0,3711.0,4095.0,3825.0,-3.47,9.81,1.7,-0.95,-0.37,0.23,1.0,professor
3173.0,3191.0,1987.0,4095.0,2711.0,2483.0,2894.0,2529.0,0.45,7.75,5.71,0.66,-0.39,-2.4,0.0,937.0,3548.0,2992.0,3857.0,3553.0,2927.0,3255.0,2800.0,2.66,6.7,-0.03,1.33,0.39,2.54,1.0,professor
3337.0,3035.0,1747.0,4095.0,2316.0,2224.0,2550.0,2219.0,-6.82,7.78,6.34,0.14,-0.17,-1.8,0.0,946.0,3607.0,2983.0,3975.0,3792.0,2913.0,3207.0,2559.0,11.32,8.71,0.53,0.41,0.23,0.44,1.0,professor
3381.0,2817.0,1419.0,4095.0,2289.0,2361.0,2736.0,2339.0,0.43,6.4,5.83,0.34,-0.71,3.33,0.0,946.0,3623.0,2993.0,3994.0,3821.0,2951.0,3241.0,2736.0,11.21,8.97,-0.04,-0.2,-0.48,-2.23,1.0,professor
3345.0,2811.0,1391.0,4095.0,2294.0,2340.0,2710.0,2251.0,11.22,11.46,3.38,-0.73,1.13,-1.69,0.0,927.0,3643.0,3003.0,4093.0,3837.0,3024.0,3271.0,3106.0,0.83,9.11,1.63,0.52,0.16,1.86,1.0,professor
3376.0,2817.0,1733.0,4095.0,2368.0,2370.0,2755.0,2265.0,-11.72,6.79,5.46,-0.15,-0.13,-1.18,0.0,944.0,3597.0,3002.0,3923.0,3757.0,2858.0,3182.0,2687.0,10.96,8.07,0.76,-0.24,0.17,-0.21,1.0,professor
3417.0,2799.0,1677.0,3979.0,2533.0,2297.0,2807.0,2494.0,-8.85,3.59,3.08,-1.87,1.9,2.14,0.0,1124.0,3599.0,3071.0,2602.0,4042.0,3147.0,3597.0,3024.0,5.49,4.2,-0.26,-0.71,0.15,-3.3,1.0,professor
3229.0,966.0,2559.0,3898.0,3515.0,3781.0,4095.0,4095.0,6.74,-3.3,5.7,-1.16,-3.53,6.05,0.0,949.0,4048.0,4095.0,2764.0,4095.0,4095.0,4095.0,3815.0,-15.6,-11.41,0.06,-1.19,3.24,-7.54,1.0,professor
3159.0,2451.0,3714.0,3776.0,3532.0,4095.0,4095.0,4095.0,33.48,1.87,7.1,0.63,-0.31,2.19,0.0,916.0,4095.0,4095.0,2933.0,4095.0,4095.0,4095.0,3583.0,-24.74,-5.58,-0.05,-0.16,-0.18,-1.73,1.0,professor
3262.0,2559.0,3817.0,3865.0,3393.0,4095.0,4095.0,4095.0,8.43,0.85,5.79,0.02,-0.23,-0.45,0.0,918.0,4061.0,4095.0,2957.0,4095.0,4095.0,4095.0,4095.0,-11.08,-1.23,1.64,-0.15,-0.15,0.09,1.0,professor
3249.0,2497.0,3864.0,3852.0,3314.0,4095.0,4095.0,4095.0,9.95,0.85,5.31,0.04,-0.15,-0.18,0.0,940.0,4055.0,4095.0,2976.0,4095.0,4095.0,4095.0,4095.0,-8.72,-2.32,0.61,0.12,0.2,0.19,1.0,professor
3248.0,2393.0,4095.0,3856.0,3317.0,4082.0,4095.0,4095.0,9.96,0.95,5.62,-0.13,-0.08,-0.17,0.0,934.0,4047.0,4095.0,2989.0,4095.0,4095.0,4095.0,4095.0,-8.9,-2.15,0.51,0.13,0.17,-0.02,1.0,professor
3252.0,2310.0,4065.0,3864.0,3291.0,4055.0,4095.0,4095.0,9.65,0.82,5.7,-0.0,0.02,-0.15,0.0,944.0,4079.0,4095.0,2955.0,4095.0,4095.0,4095.0,4095.0,-9.13,-2.12,0.51,0.09,0.16,-0.04,1.0,professor
3248.0,2288.0,4030.0,3887.0,3315.0,4023.0,4095.0,4095.0,10.08,0.74,5.69,-0.02,0.02,-0.09,0.0,935.0,4058.0,4095.0,2942.0,4095.0,4095.0,4095.0,4095.0,-8.78,-2.1,0.49,0.03,-0.06,-0.02,1.0,professor
3264.0,2263.0,4016.0,3831.0,3155.0,3985.0,4095.0,4095.0,10.21,0.68,5.64,-0.04,-0.03,-0.14,0.0,939.0,4063.0,4095.0,2951.0,4095.0,4095.0,4095.0,4095.0,-9.08,-1.87,0.25,0.01,-0.03,-0.03,1.0,professor
3251.0,2285.0,4034.0,3859.0,3501.0,3998.0,4095.0,4095.0,9.95,0.75,5.52,0.05,-0.03,-0.1,0.0,933.0,4042.0,4095.0,2945.0,4095.0,4095.0,4095.0,4095.0,-9.35,-1.84,0.31,-0.05,0.1,0.02,1.0,professor
3255.0,2317.0,3823.0,3857.0,3437.0,3974.0,4095.0,4095.0,9.99,0.5,5.57,0.03,0.02,-0.09,0.0,935.0,4040.0,4095.0,2977.0,4095.0,4095.0,4095.0,4095.0,-9.09,-1.71,0.29,-0.11,0.03,0.05,1.0,professor
3269.0,2320.0,3813.0,3852.0,3454.0,3984.0,4095.0,4095.0,9.86,0.69,5.66,0.03,0.01,-0.15,0.0,938.0,4042.0,4095.0,2998.0,4095.0,4095.0,4095.0,4095.0,-8.8,-1.66,0.74,-0.14,0.14,-0.01,1.0,professor
3261.0,2315.0,3867.0,3862.0,3477.0,3976.0,4095.0,4095.0,9.9,0.68,5.68,0.03,0.02,-0.18,0.0,921.0,4038.0,4095.0,3009.0,4095.0,4095.0,4095.0,4095.0,-9.38,-1.86,0.42,-0.04,-0.17,-0.05,1.0,professor
3149.0,977.0,3066.0,3717.0,3037.0,2917.0,3487.0,3505.0,11.88,2.84,8.26,0.67,0.42,-2.16,0.0,1416.0,3371.0,943.0,3511.0,4095.0,4095.0,4095.0,4095.0,-13.18,-1.47,6.48,2.44,3.76,3.57,1.0,professor
3152.0,980.0,3065.0,3484.0,3026.0,2849.0,3312.0,3215.0,9.96,3.52,7.66,0.59,0.21,-3.15,0.0,912.0,3983.0,3857.0,3650.0,4095.0,3374.0,3796.0,3488.0,-8.1,1.82,1.5,0.84,1.5,4.04,1.0,professor
3125.0,1035.0,2691.0,3718.0,2860.0,2667.0,3108.0,2802.0,7.75,4.19,6.28,0.58,1.18,-2.89,0.0,1214.0,4083.0,3696.0,3707.0,4095.0,3235.0,3637.0,3106.0,-4.28,2.92,1.37,0.72,0.15,3.73,1.0,professor
3395.0,1488.0,927.0,4095.0,2467.0,2237.0,2654.0,2352.0,-0.5,5.43,5.25,0.87,-0.16,-3.13,0.0,933.0,4017.0,3447.0,3389.0,3833.0,3120.0,3374.0,2963.0,0.19,4.3,-1.12,0.82,0.48,2.68,1.0,professor
3391.0,944.0,3418.0,4095.0,2361.0,2326.0,2745.0,2403.0,11.71,11.18,4.29,-0.58,0.97,-1.38,0.0,912.0,4016.0,3471.0,3995.0,3728.0,3098.0,3293.0,3087.0,2.21,8.35,0.23,0.45,0.17,1.84,1.0,professor
3648.0,976.0,2752.0,3950.0,2864.0,2837.0,3583.0,3764.0,-8.94,4.16,5.04,-1.7,0.24,2.29,0.0,1983.0,4095.0,2559.0,2221.0,4095.0,4095.0,4095.0,4095.0,6.63,5.69,1.21,-0.83,-0.65,-3.18,1.0,professor
3381.0,976.0,2918.0,3934.0,3501.0,3613.0,4095.0,4095.0,-0.98,0.55,4.25,-1.45,-1.55,4.4,0.0,932.0,4095.0,2554.0,2540.0,4095.0,4095.0,4095.0,3984.0,1.7,-1.04,-0.6,-0.84,-0.05,-5.37,1.0,professor
3421.0,1123.0,3649.0,3887.0,3578.0,4095.0,4095.0,4095.0,8.52,-2.24,4.54,-0.75,-2.54,5.21,0.0,916.0,4095.0,1713.0,2707.0,4095.0,4095.0,4095.0,4095.0,-9.94,-8.67,1.82,-2.17,2.43,-7.59,1.0,professor
3338.0,1440.0,3641.0,3872.0,3599.0,4095.0,4095.0,4095.0,28.25,2.05,6.15,0.17,-1.64,2.38,0.0,911.0,4095.0,1510.0,2670.0,4095.0,4095.0,4095.0,4095.0,-23.12,-3.77,0.96,0.11,0.43,-2.08,1.0,professor
3374.0,1427.0,3627.0,3927.0,3665.0,4095.0,4095.0,4095.0,8.83,1.39,6.05,-0.05,0.3,-0.59,0.0,898.0,4095.0,1519.0,2704.0,4095.0,4095.0,4095.0,4095.0,-11.72,0.45,1.69,-0.03,-0.16,0.07,1.0,professor
3358.0,1439.0,3599.0,3931.0,3676.0,4095.0,4095.0,4095.0,9.47,0.78,5.54,0.01,-0.09,-0.31,0.0,903.0,4095.0,1377.0,2763.0,4095.0,4095.0,4095.0,4095.0,-9.06,-1.51,0.94,0.07,-0.12,0.06,1.0,professor
3376.0,1441.0,3623.0,3937.0,3667.0,4095.0,4095.0,4095.0,9.67,1.43,5.66,0.04,0.03,-0.21,0.0,905.0,4095.0,1233.0,2767.0,4095.0,4095.0,4095.0,4095.0,-8.95,-1.52,0.6,0.05,0.1,0.02,1.0,professor
3376.0,1424.0,3616.0,3902.0,3671.0,4095.0,4095.0,4095.0,9.61,1.48,5.66,0.01,-0.07,-0.16,0.0,897.0,4095.0,1189.0,2768.0,4095.0,4095.0,4095.0,4095.0,-9.34,-1.52,0.45,-0.05,0.08,-0.11,1.0,professor
3347.0,1418.0,3651.0,3876.0,3647.0,4095.0,4095.0,4095.0,9.99,1.4,5.45,0.01,-0.11,-0.15,0.0,912.0,4095.0,1229.0,2767.0,4095.0,4095.0,4095.0,4095.0,-9.5,-1.41,0.66,-0.04,-0.03,-0.0,1.0,professor
3380.0,1417.0,3632.0,3900.0,3632.0,4095.0,4095.0,4095.0,9.74,1.43,5.51,0.0,-0.06,-0.15,0.0,909.0,4095.0,1255.0,2768.0,4095.0,4095.0,4095.0,4095.0,-9.33,-1.28,0.41,-0.09,-0.09,-0.05,1.0,professor
3362.0,1422.0,3630.0,3891.0,3654.0,4095.0,4095.0,4095.0,9.66,1.25,5.6,0.01,0.08,-0.09,0.0,912.0,4095.0,1271.0,2775.0,4095.0,4095.0,4095.0,4095.0,-9.28,-1.38,0.41,-0.08,-0.04,0.01,1.0,professor
3387.0,1420.0,3654.0,3930.0,3648.0,4095.0,4095.0,4095.0,9.84,1.25,5.56,-0.01,0.0,-0.09,0.0,905.0,4095.0,1285.0,2781.0,4095.0,4095.0,4095.0,4095.0,-9.34,-1.32,0.59,-0.07,-0.02,0.03,1.0,professor
3371.0,1417.0,3661.0,3904.0,3647.0,4095.0,4095.0,4095.0,9.94,1.28,5.58,0.01,-0.05,-0.15,0.0,917.0,4095.0,1248.0,2790.0,4095.0,4095.0,4095.0,4095.0,-9.31,-1.29,0.63,-0.09,0.1,-0.01,1.0,professor
3376.0,1422.0,3635.0,3934.0,3664.0,4095.0,4095.0,4095.0,9.82,1.25,5.55,0.06,-0.06,-0.15,0.0,915.0,4095.0,1235.0,2806.0,4095.0,4095.0,4095.0,4095.0,-9.26,-1.2,0.67,-0.06,-0.01,-0.02,1.0,professor
3402.0,1404.0,3637.0,3920.0,3677.0,4095.0,4095.0,4095.0,9.79,1.23,5.47,0.01,-0.06,-0.16,0.0,914.0,4095.0,1237.0,2809.0,4095.0,4095.0,4095.0,4095.0,-9.29,-1.2,0.55,-0.06,-0.0,-0.0,1.0,professor
3252.0,960.0,3559.0,3551.0,2833.0,2719.0,3290.0,3069.0,3.39,5.92,6.3,0.05,0.93,-2.65,0.0,939.0,3845.0,3418.0,3457.0,4095.0,3425.0,3795.0,3616.0,-2.82,5.56,2.06,0.09,0.1,2.44,1.0,professor
3223.0,976.0,4095.0,4095.0,2721.0,2655.0,2936.0,2694.0,2.11,7.99,6.34,0.42,-0.02,-1.33,0.0,943.0,3853.0,3434.0,3650.0,4095.0,3354.0,3763.0,3342.0,-1.11,8.28,2.0,0.07,-0.38,1.58,1.0,professor
3307.0,1013.0,4095.0,4095.0,2528.0,2321.0,2705.0,2479.0,0.03,7.81,6.62,0.26,-0.15,-2.14,0.0,919.0,3995.0,3489.0,3739.0,3839.0,3056.0,3367.0,3107.0,4.29,8.03,1.23,0.41,-0.16,1.79,1.0,professor
3478.0,963.0,3370.0,4095.0,2457.0,2256.0,2640.0,2368.0,-12.13,7.98,7.24,0.2,0.45,-0.73,0.0,918.0,4009.0,3632.0,3797.0,3876.0,3071.0,3376.0,3088.0,13.46,10.07,-1.47,0.1,-0.3,-0.88,1.0,professor
3462.0,935.0,4095.0,4095.0,2466.0,2303.0,2559.0,2432.0,-7.11,6.7,6.02,0.04,-0.56,2.85,0.0,917.0,4031.0,3605.0,3734.0,3857.0,3119.0,3425.0,2935.0,-3.91,8.15,2.42,-0.33,-0.58,-2.72,1.0,professor
3431.0,943.0,3055.0,4095.0,2487.0,2342.0,2640.0,2512.0,-8.3,4.94,6.81,-0.1,0.45,-2.68,0.0,945.0,4019.0,3706.0,3850.0,3777.0,2960.0,3313.0,3066.0,10.59,7.64,0.28,0.6,-0.36,1.38,1.0,professor
3459.0,974.0,1439.0,4095.0,2559.0,2295.0,2714.0,2618.0,-13.78,3.34,5.17,-0.61,0.94,1.54,0.0,949.0,4095.0,4087.0,3472.0,4095.0,3467.0,4053.0,2859.0,10.55,5.89,-0.08,-0.45,0.19,-2.68,1.0,professor
3285.0,1084.0,2331.0,4095.0,2786.0,2607.0,3359.0,3219.0,-3.75,-1.61,2.38,-2.09,-0.26,5.26,0.0,1648.0,4095.0,3140.0,2822.0,4095.0,4095.0,4095.0,3364.0,3.05,-0.41,0.33,-0.58,-0.47,-5.8,1.0,professor
3175.0,1036.0,3357.0,4095.0,3518.0,4095.0,4095.0,4095.0,28.62,-0.4,9.35,-0.28,-0.73,3.08,0.0,915.0,4095.0,3846.0,3043.0,4095.0,4095.0,4095.0,4095.0,-8.45,-10.48,0.08,-0.83,1.65,-7.57,1.0,professor
3216.0,1006.0,3372.0,4095.0,3536.0,4095.0,4095.0,4095.0,15.86,3.27,8.25,0.1,-0.01,-0.07,0.0,913.0,4095.0,3722.0,3221.0,4095.0,4095.0,4095.0,4095.0,-14.1,-0.52,0.77,0.17,0.17,0.23,1.0,professor
3280.0,979.0,3370.0,4095.0,3504.0,3874.0,4095.0,4095.0,9.58,0.7,6.06,0.08,-0.26,-0.3,0.0,917.0,4095.0,2965.0,2992.0,4095.0,4095.0,4095.0,4095.0,-8.54,-1.78,-0.15,0.03,0.05,0.28,1.0,professor
3279.0,987.0,3739.0,4095.0,3455.0,3727.0,4095.0,4095.0,10.02,1.02,5.73,-0.04,0.07,-0.12,0.0,919.0,4095.0,2641.0,2915.0,4095.0,4095.0,4095.0,4095.0,-9.29,-1.52,-0.33,-0.07,-0.09,-0.08,1.0,professor
3275.0,1003.0,3919.0,4095.0,3465.0,3648.0,4095.0,4095.0,9.96,1.16,5.66,0.05,-0.12,-0.19,0.0,927.0,4095.0,2559.0,3135.0,4095.0,4095.0,4095.0,4095.0,-9.16,-1.46,-0.21,-0.02,-0.04,-0.02,1.0,professor
3274.0,981.0,4033.0,4095.0,3466.0,3687.0,4095.0,4095.0,9.77,1.16,5.54,0.05,-0.15,-0.15,0.0,925.0,4095.0,2549.0,3142.0,4095.0,4095.0,4095.0,4095.0,-9.32,-1.54,-0.1,-0.06,-0.03,-0.02,1.0,professor
3283.0,990.0,4083.0,4095.0,3461.0,3657.0,4095.0,4095.0,9.94,1.06,5.69,-0.03,0.0,-0.12,0.0,921.0,4095.0,2527.0,3206.0,4095.0,4095.0,4095.0,4095.0,-9.33,-1.43,-0.14,-0.0,0.03,0.0,1.0,professor
3287.0,976.0,4095.0,4095.0,3475.0,3632.0,4095.0,4095.0,9.8,1.12,5.5,-0.03,0.02,-0.15,0.0,921.0,4095.0,2593.0,3253.0,4095.0,4095.0,4095.0,4095.0,-9.3,-1.41,-0.27,-0.05,-0.05,0.01,1.0,professor
3280.0,976.0,4095.0,4095.0,3456.0,3618.0,4095.0,4095.0,9.82,1.17,5.69,-0.07,0.04,-0.12,0.0,922.0,4095.0,2701.0,3268.0,4095.0,4095.0,4095.0,4095.0,-9.35,-1.63,-0.09,-0.07,0.02,-0.0,1.0,professor
3274.0,966.0,4095.0,4095.0,3469.0,3613.0,4095.0,4095.0,9.92,1.15,5.66,-0.04,0.01,-0.14,0.0,928.0,4095.0,2715.0,3269.0,4095.0,4095.0,4095.0,4095.0,-9.35,-1.6,-0.02,-0.1,-0.01,-0.02,1.0,professor
3263.0,976.0,4095.0,4095.0,3459.0,3618.0,4095.0,4095.0,10.06,1.07,5.66,0.07,-0.1,-0.14,0.0,918.0,4095.0,2919.0,3286.0,4095.0,4095.0,4095.0,4095.0,-9.38,-1.5,0.06,-0.12,0.01,-0.06,1.0,professor
3271.0,976.0,4095.0,4095.0,3473.0,3622.0,4095.0,4095.0,10.03,1.24,5.62,0.07,-0.06,-0.13,0.0,930.0,4095.0,2923.0,3285.0,4095.0,4095.0,4095.0,4095.0,-9.08,-1.33,0.15,-0.08,0.08,-0.06,1.0,professor
3282.0,4095.0,2357.0,4095.0,2480.0,2255.0,2729.0,2249.0,-7.79,8.51,6.64,0.39,-0.2,-1.32,0.0,942.0,4077.0,3145.0,3734.0,3691.0,2889.0,3210.0,3007.0,4.16,8.33,1.11,0.5,0.02,1.76,1.0,professor
3330.0,4095.0,2259.0,4095.0,2461.0,2231.0,2615.0,2285.0,-11.3,8.52,6.15,0.05,0.9,0.64,0.0,924.0,4083.0,3131.0,3836.0,3760.0,2918.0,3206.0,2860.0,11.89,9.66,-1.15,0.24,0.18,-1.61,1.0,professor
3232.0,4095.0,2701.0,4095.0,2511.0,2337.0,2678.0,2306.0,21.1,11.83,3.05,-0.64,-0.01,-1.02,0.0,932.0,4095.0,3136.0,3485.0,3762.0,2975.0,3250.0,3129.0,-13.72,4.03,4.67,-0.52,-0.61,-3.47,1.0,professor
3263.0,4095.0,3568.0,4095.0,2559.0,2362.0,2693.0,2357.0,-1.95,8.2,6.33,0.01,-0.56,-2.66,0.0,928.0,4091.0,3137.0,4095.0,3807.0,3033.0,3245.0,2864.0,4.63,7.75,1.27,0.11,0.23,1.85,1.0,professor
3376.0,4095.0,2322.0,3984.0,2579.0,2298.0,2847.0,2558.0,-6.68,2.64,3.56,-0.47,0.24,3.41,0.0,2231.0,3997.0,3376.0,3057.0,4095.0,3330.0,3871.0,3184.0,5.12,3.31,0.73,-0.73,0.61,-4.22,1.0,professor
3302.0,4095.0,3888.0,4095.0,3533.0,4095.0,4095.0,4095.0,16.69,-3.62,4.13,-1.03,-2.79,5.24,0.0,2223.0,4095.0,2928.0,2747.0,4095.0,4095.0,4095.0,4095.0,0.81,-4.52,-1.15,-0.69,0.35,-6.44,1.0,professor
3482.0,4095.0,3767.0,4095.0,3522.0,4095.0,4095.0,4095.0,25.88,4.04,7.75,0.2,-0.51,0.78,0.0,919.0,4095.0,3241.0,2965.0,4095.0,4095.0,4095.0,4095.0,-25.47,-15.54,-1.29,-0.76,-0.06,-6.63,1.0,professor
3623.0,4095.0,3810.0,4095.0,3571.0,4095.0,4095.0,4095.0,9.37,2.03,6.4,-0.03,0.26,-0.49,0.0,926.0,4095.0,3034.0,2967.0,4095.0,4095.0,4095.0,4095.0,-9.25,-1.55,0.85,-0.09,0.08,0.12,1.0,professor
3603.0,4095.0,3883.0,4095.0,3714.0,4095.0,4095.0,4095.0,9.82,0.68,5.47,0.02,-0.07,-0.1,0.0,929.0,4095.0,2873.0,3023.0,4095.0,4095.0,4095.0,4095.0,-8.75,-2.17,0.1,0.02,0.1,0.07,1.0,professor
3599.0,4095.0,3885.0,4095.0,3698.0,4095.0,4095.0,4095.0,9.88,0.95,5.29,0.01,-0.12,-0.14,0.0,940.0,4095.0,2787.0,3039.0,4095.0,4095.0,4095.0,4095.0,-8.87,-2.24,0.14,0.1,0.05,0.02,1.0,professor
3583.0,4095.0,4016.0,4080.0,3662.0,4001.0,4095.0,4095.0,9.81,0.84,5.45,0.04,0.1,-0.17,0.0,936.0,4095.0,2685.0,3047.0,4095.0,4095.0,4095.0,4095.0,-9.0,-2.18,-0.06,-0.05,0.02,0.01,1.0,professor
3618.0,4095.0,4015.0,4095.0,3676.0,4000.0,4095.0,4095.0,9.98,0.89,5.2,0.07,0.12,-0.19,0.0,943.0,4095.0,2430.0,3053.0,4095.0,4095.0,4095.0,4095.0,-9.16,-2.3,-0.09,-0.02,-0.05,-0.02,1.0,professor
3634.0,4095.0,3991.0,4095.0,3615.0,3901.0,4095.0,4095.0,10.12,0.81,5.24,0.03,-0.04,-0.13,0.0,927.0,4095.0,2324.0,3054.0,4095.0,4095.0,4095.0,4095.0,-9.08,-2.44,-0.19,-0.06,-0.03,-0.05,1.0,professor
3638.0,4095.0,4036.0,4087.0,3627.0,3766.0,4095.0,4095.0,9.77,0.7,4.97,-0.03,0.02,-0.13,0.0,935.0,4095.0,2235.0,3071.0,4095.0,4095.0,4095.0,4095.0,-9.21,-2.01,-0.06,-0.03,-0.01,0.01,1.0,professor
3630.0,4095.0,4016.0,4095.0,3626.0,3750.0,4095.0,4095.0,9.9,0.78,5.17,0.01,-0.02,-0.12,0.0,933.0,4095.0,2217.0,3066.0,4095.0,4095.0,4095.0,4095.0,-9.25,-2.17,-0.17,-0.12,0.07,-0.02,1.0,professor
3617.0,4095.0,4039.0,4095.0,3649.0,3749.0,4095.0,4095.0,9.84,0.81,5.24,0.02,0.04,-0.12,0.0,938.0,4095.0,2182.0,3079.0,4095.0,4095.0,4095.0,4095.0,-8.91,-2.0,-0.32,-0.03,-0.07,0.02,1.0,professor
3610.0,4095.0,4003.0,4095.0,3661.0,3747.0,4095.0,4095.0,10.1,0.72,5.26,-0.0,-0.01,-0.12,0.0,932.0,4095.0,2182.0,3071.0,4095.0,4095.0,4095.0,4095.0,-9.14,-1.96,-0.24,0.02,-0.15,0.01,1.0,professor
3568.0,4095.0,4059.0,4095.0,3618.0,3709.0,4095.0,4095.0,9.86,0.77,5.29,-0.01,0.03,-0.15,0.0,942.0,4095.0,2174.0,3082.0,4095.0,4095.0,4095.0,4095.0,-9.26,-2.09,-0.24,-0.05,-0.1,0.01,1.0,professor
3583.0,4095.0,4095.0,4095.0,3623.0,3685.0,4095.0,4095.0,9.96,0.62,5.24,0.04,0.04,-0.15,0.0,939.0,4095.0,2179.0,3071.0,4095.0,4095.0,4095.0,4095.0,-9.21,-2.02,-0.31,-0.09,-0.02,-0.01,1.0,professor
3567.0,4095.0,4095.0,4095.0,3627.0,3683.0,4095.0,4095.0,10.07,0.63,5.26,-0.0,0.0,-0.15,0.0,928.0,4095.0,2174.0,3093.0,4095.0,4095.0,4095.0,4095.0,-9.29,-2.2,-0.26,-0.12,0.06,-0.04,1.0,professor
3150.0,1018.0,3799.0,3781.0,3141.0,2901.0,3490.0,3303.0,10.96,-0.85,10.31,-0.1,0.7,-0.28,0.0,944.0,3548.0,2333.0,3223.0,4095.0,3607.0,4095.0,4095.0,-11.35,-3.92,2.52,1.24,0.32,0.52,1.0,professor
3147.0,1039.0,3709.0,3777.0,3134.0,2931.0,3536.0,3327.0,11.89,-1.76,10.61,0.82,-0.12,-1.02,0.0,1072.0,3507.0,2096.0,3212.0,4095.0,3523.0,4095.0,4062.0,-13.86,-3.44,0.84,1.01,0.12,1.64,1.0,professor
3120.0,1494.0,3835.0,3468.0,3036.0,2708.0,3313.0,3152.0,13.56,2.08,1.98,0.01,-0.14,-3.38,0.0,1949.0,3461.0,2302.0,3294.0,4095.0,3454.0,4090.0,3975.0,-14.49,-2.09,-1.61,0.07,0.3,2.91,1.0,professor
3125.0,2657.0,3605.0,3429.0,2991.0,2702.0,3289.0,3144.0,6.99,3.16,3.68,-0.39,1.96,-3.67,0.0,1463.0,3490.0,3312.0,3371.0,4095.0,3385.0,3931.0,3561.0,-3.59,2.48,1.75,-0.06,-0.36,4.38,1.0,professor
3187.0,3071.0,3360.0,3691.0,2885.0,2694.0,3195.0,3039.0,1.58,3.26,5.78,0.55,1.83,-3.85,0.0,917.0,4085.0,3216.0,3702.0,4091.0,3407.0,3666.0,3055.0,3.92,7.23,0.37,0.65,-0.09,2.18,1.0,professor
3517.0,3858.0,4095.0,4095.0,2624.0,2328.0,2727.0,2422.0,-5.53,7.05,5.66,0.27,-0.88,-1.86,0.0,904.0,4047.0,3184.0,3938.0,3810.0,3169.0,3359.0,3058.0,5.55,9.22,-0.55,0.23,0.39,0.57,1.0,professor
3629.0,3938.0,2655.0,4095.0,2559.0,2342.0,2643.0,2354.0,-9.42,8.66,6.97,0.06,0.28,-0.57,0.0,907.0,4042.0,3184.0,3937.0,3771.0,3145.0,3306.0,3113.0,7.78,9.17,-0.88,0.09,0.01,-0.25,1.0,professor
3631.0,3901.0,2475.0,4095.0,2439.0,2367.0,2659.0,2397.0,-16.55,6.93,5.94,-0.38,1.16,2.52,0.0,910.0,4050.0,3184.0,4067.0,3779.0,3185.0,3337.0,3155.0,8.0,9.89,1.39,-1.05,-0.38,-3.37,1.0,professor
3670.0,3898.0,2378.0,4095.0,2617.0,2423.0,2709.0,2389.0,-1.99,6.72,7.72,-0.37,0.08,-2.66,0.0,1175.0,4011.0,3243.0,4087.0,3771.0,3071.0,3251.0,3071.0,8.37,7.13,0.37,0.12,0.35,1.84,1.0,professor
3684.0,3877.0,979.0,4095.0,2544.0,2418.0,2738.0,2465.0,-11.8,5.2,6.26,0.38,0.2,-0.56,0.0,903.0,3894.0,3320.0,3728.0,3711.0,2910.0,3247.0,3068.0,9.06,7.64,0.46,-0.11,-0.17,-1.17,1.0,professor
3262.0,1070.0,2451.0,4095.0,3451.0,3526.0,4095.0,4095.0,0.18,-4.08,2.29,-2.58,-1.22,5.46,0.0,1406.0,4095.0,4095.0,2780.0,4095.0,4095.0,4095.0,3568.0,2.29,-6.2,-1.18,-0.91,0.32,-6.91,1.0,professor
3200.0,1663.0,3537.0,4095.0,3696.0,4095.0,4095.0,4095.0,27.64,4.54,8.85,0.52,-0.29,0.36,0.0,940.0,4095.0,3280.0,3002.0,4095.0,4095.0,4095.0,4095.0,-22.72,-2.67,1.45,-0.47,0.53,-0.28,1.0,professor
3226.0,1584.0,3498.0,4095.0,3702.0,4095.0,4095.0,4095.0,6.96,2.07,6.08,-0.0,0.25,-0.49,0.0,959.0,4095.0,3264.0,3057.0,4095.0,4095.0,4095.0,4095.0,-7.09,-0.87,0.83,-0.03,-0.23,0.27,1.0,professor
3228.0,1553.0,3532.0,4095.0,3713.0,4095.0,4095.0,4095.0,9.61,0.64,5.79,-0.01,-0.08,0.03,0.0,962.0,4095.0,3206.0,3111.0,4095.0,4095.0,4095.0,4095.0,-9.45,-1.92,0.66,0.03,-0.18,0.12,1.0,professor
3231.0,1464.0,3525.0,4095.0,3561.0,4095.0,4095.0,4095.0,9.44,1.38,5.55,0.09,-0.28,-0.28,0.0,960.0,4095.0,3190.0,3123.0,4095.0,4095.0,4095.0,4095.0,-8.68,-1.61,0.51,-0.09,-0.06,0.14,1.0,professor
3216.0,1442.0,3522.0,4095.0,3583.0,4095.0,4095.0,4095.0,9.68,1.15,5.37,0.01,-0.11,-0.2,0.0,966.0,4095.0,3028.0,3115.0,4095.0,4095.0,4095.0,4095.0,-9.91,-1.76,-0.05,-0.06,0.24,-0.03,1.0,professor
3247.0,1614.0,3545.0,4095.0,3547.0,4095.0,4095.0,4095.0,9.77,1.01,5.1,-0.02,-0.02,-0.08,0.0,955.0,4095.0,3042.0,3104.0,4095.0,4095.0,4095.0,4095.0,-9.18,-1.54,0.52,-0.06,0.04,-0.03,1.0,professor
3242.0,1613.0,3571.0,4095.0,3522.0,4095.0,4095.0,4095.0,9.93,1.13,5.15,-0.01,-0.11,-0.12,0.0,944.0,4095.0,3042.0,3135.0,4095.0,4095.0,4095.0,4095.0,-9.26,-1.63,0.25,-0.02,-0.04,-0.01,1.0,professor
3248.0,1574.0,3543.0,4095.0,3561.0,4095.0,4095.0,4095.0,10.16,0.95,5.23,0.02,-0.03,-0.13,0.0,955.0,4095.0,3058.0,3146.0,4095.0,4095.0,4095.0,4095.0,-9.09,-1.64,0.11,-0.03,-0.04,0.0,1.0,professor
3266.0,1584.0,3569.0,4095.0,3565.0,4095.0,4095.0,4095.0,9.88,1.03,5.24,0.05,0.01,-0.14,0.0,955.0,4095.0,3054.0,3146.0,4095.0,4095.0,4095.0,4095.0,-9.1,-1.61,0.21,-0.1,0.02,-0.03,1.0,professor
3255.0,989.0,4095.0,3851.0,2959.0,2951.0,3655.0,3519.0,8.59,-2.01,8.35,0.16,0.32,-0.5,0.0,1186.0,3867.0,2554.0,3231.0,4095.0,3629.0,4095.0,3973.0,-7.2,-2.68,3.03,0.19,0.1,0.15,1.0,professor
3250.0,982.0,4095.0,3815.0,2954.0,2963.0,3635.0,3521.0,9.05,-1.74,8.81,0.19,-0.11,-0.31,0.0,1422.0,3682.0,2960.0,3346.0,4095.0,3611.0,4095.0,3919.0,-9.02,-3.23,3.06,0.21,0.48,0.1,1.0,professor
3237.0,987.0,4095.0,3871.0,2951.0,2952.0,3648.0,3520.0,9.63,-1.04,10.33,-0.11,-0.96,-0.18,0.0,1123.0,3392.0,3457.0,3392.0,4095.0,3711.0,4095.0,3852.0,-13.63,-2.91,4.99,-0.09,1.05,0.41,1.0,professor
3173.0,1023.0,3255.0,3943.0,3152.0,2999.0,3638.0,3457.0,19.1,-3.92,11.45,0.05,-1.76,-2.24,0.0,1306.0,3435.0,3796.0,3194.0,4095.0,3583.0,4095.0,3805.0,-20.66,-5.32,1.28,0.61,0.35,3.55,1.0,professor
3195.0,1013.0,4032.0,3504.0,3060.0,2786.0,3439.0,3237.0,14.62,-1.83,3.2,2.01,1.95,-4.75,0.0,1241.0,3642.0,3536.0,3104.0,3903.0,3189.0,3759.0,3419.0,-10.66,-4.5,-0.62,0.3,-0.7,6.06,1.0,professor
3582.0,1747.0,945.0,3952.0,2475.0,2257.0,2640.0,2332.0,-0.93,3.38,3.68,1.27,0.74,-4.58,0.0,944.0,3728.0,3537.0,3562.0,3677.0,3024.0,3375.0,2823.0,2.29,2.48,-0.08,1.02,-0.2,3.67,1.0,professor
3669.0,1014.0,973.0,4095.0,2536.0,2305.0,2606.0,2279.0,-6.98,5.54,5.87,0.59,0.99,-2.98,0.0,954.0,3713.0,3579.0,3934.0,3687.0,3013.0,3344.0,2910.0,8.29,7.16,1.09,0.44,-0.53,1.57,1.0,professor
3603.0,944.0,1087.0,4095.0,2559.0,2398.0,2659.0,2306.0,-1.33,5.99,5.64,0.4,-0.38,2.94,0.0,945.0,3707.0,3658.0,3966.0,3703.0,3005.0,3323.0,2915.0,11.65,10.56,-1.24,-0.03,-0.39,-1.45,1.0,professor
3569.0,952.0,1078.0,4080.0,2224.0,2481.0,2757.0,2397.0,-7.36,6.24,6.75,-0.07,-0.2,-2.35,0.0,919.0,3728.0,3687.0,3923.0,3662.0,3010.0,3325.0,2983.0,-3.68,8.2,0.92,0.1,0.01,2.45,1.0,professor
3483.0,962.0,1778.0,3509.0,2620.0,2442.0,2864.0,2544.0,-13.74,4.98,3.18,-1.37,1.34,0.58,0.0,2169.0,3503.0,3287.0,2851.0,4095.0,3538.0,4095.0,2719.0,9.97,5.45,-0.56,-0.76,0.89,-2.36,1.0,professor
2202.0,1015.0,2544.0,3835.0,3166.0,3046.0,3843.0,3926.0,-4.85,-0.33,2.79,-2.15,-1.37,4.16,0.0,2625.0,3709.0,2745.0,2800.0,4095.0,4095.0,4095.0,3687.0,5.19,-1.94,-0.3,-1.44,-0.09,-6.15,1.0,professor
2518.0,1017.0,2805.0,4095.0,3542.0,3629.0,4095.0,4095.0,4.52,-5.79,1.67,-0.81,-3.3,6.4,0.0,952.0,4095.0,3419.0,3136.0,4095.0,4095.0,4095.0,4095.0,-1.41,-11.94,0.25,-1.38,1.79,-8.72,1.0,professor
3243.0,1010.0,3779.0,4095.0,3520.0,4095.0,4095.0,4095.0,33.07,-1.11,6.56,0.27,-1.31,4.68,0.0,877.0,4095.0,2991.0,3200.0,4095.0,4095.0,4095.0,4095.0,-35.16,-12.22,-1.23,0.59,0.31,-2.58,1.0,professor
3383.0,1045.0,3932.0,4095.0,3599.0,4095.0,4095.0,4095.0,17.54,4.39,6.61,0.08,-0.06,0.29,0.0,908.0,4095.0,2971.0,3253.0,4095.0,4095.0,4095.0,4095.0,-14.13,-1.87,1.52,-0.18,0.44,0.21,1.0,professor
3536.0,1040.0,3919.0,4095.0,3583.0,4095.0,4095.0,4095.0,8.35,1.33,5.86,-0.14,0.12,-0.44,0.0,919.0,4095.0,2858.0,3229.0,4095.0,4095.0,4095.0,4095.0,-8.1,-2.06,0.89,-0.03,0.07,0.32,1.0,professor
3536.0,1023.0,3979.0,4095.0,3583.0,4095.0,4095.0,4095.0,10.28,0.62,4.95,0.05,0.11,-0.23,0.0,915.0,4095.0,2539.0,3250.0,4095.0,4095.0,4095.0,4095.0,-8.69,-2.03,0.36,0.31,0.06,0.12,1.0,professor
3530.0,993.0,4083.0,4095.0,3605.0,4080.0,4095.0,4095.0,10.41,0.51,5.25,-0.0,-0.03,-0.17,0.0,934.0,4095.0,2543.0,3258.0,4095.0,4095.0,4095.0,2433.0,-8.85,-1.84,0.52,-0.11,0.06,0.05,1.0,professor
3511.0,990.0,4095.0,4095.0,3555.0,4095.0,4095.0,4095.0,9.86,0.65,5.31,0.0,0.04,-0.11,0.0,927.0,4095.0,2559.0,3261.0,4095.0,4095.0,4095.0,4095.0,-9.11,-1.96,0.51,-0.04,-0.12,-0.02,1.0,professor
3484.0,999.0,4095.0,4095.0,3570.0,4083.0,4095.0,4095.0,9.89,0.72,5.24,0.01,-0.03,-0.17,0.0,929.0,4095.0,2543.0,3264.0,4095.0,4095.0,4095.0,4095.0,-9.17,-1.91,0.51,-0.04,-0.1,-0.07,1.0,professor
3525.0,1001.0,4095.0,4095.0,3570.0,4041.0,4095.0,4095.0,10.17,0.65,5.21,0.08,-0.07,-0.19,0.0,928.0,4095.0,2559.0,3270.0,4095.0,4095.0,4095.0,4095.0,-9.14,-1.93,0.61,-0.07,-0.06,-0.04,1.0,professor
3232.0,976.0,3744.0,3699.0,2928.0,2819.0,3439.0,3337.0,9.0,-1.7,8.85,0.07,0.12,-0.1,0.0,966.0,3687.0,2605.0,3385.0,4095.0,3697.0,4095.0,4095.0,-8.53,-4.19,2.66,0.14,0.1,-0.09,1.0,professor
3216.0,989.0,3563.0,3749.0,2947.0,2833.0,3437.0,3375.0,9.09,-1.66,9.74,-0.31,0.72,0.28,0.0,934.0,4005.0,2966.0,3413.0,4095.0,3744.0,4095.0,4095.0,-9.31,-3.85,2.66,0.2,0.11,0.44,1.0,professor
3187.0,1008.0,3255.0,3690.0,3031.0,2832.0,3479.0,3446.0,8.91,-2.26,11.08,-0.28,0.03,0.37,0.0,1380.0,3810.0,3071.0,3382.0,4095.0,3761.0,4095.0,4070.0,-11.37,-2.89,3.54,0.03,1.36,0.36,1.0,professor
3200.0,1020.0,3750.0,4027.0,2899.0,2750.0,3364.0,3168.0,17.7,-1.71,4.42,2.15,0.66,-4.75,0.0,1840.0,4095.0,3525.0,3749.0,4095.0,3401.0,3872.0,3447.0,-21.49,-9.6,-0.24,0.97,-0.58,5.64,1.0,professor
3277.0,1008.0,1036.0,4001.0,2699.0,2590.0,3152.0,2771.0,8.85,-2.95,3.28,1.78,1.7,-6.24,0.0,2751.0,4095.0,3904.0,3774.0,4095.0,3399.0,3824.0,1891.0,-1.38,-4.31,0.9,0.96,-0.92,6.38,1.0,professor
3517.0,993.0,1351.0,4017.0,2515.0,2353.0,2832.0,2432.0,-3.22,0.98,4.71,1.22,1.34,-4.85,0.0,3326.0,4095.0,4092.0,3794.0,3821.0,3087.0,3412.0,2954.0,5.35,2.02,-0.0,1.28,0.1,4.03,1.0,professor
3667.0,946.0,1535.0,4095.0,2559.0,2352.0,2662.0,2311.0,-16.55,7.3,3.91,-0.08,0.32,0.57,0.0,3403.0,4095.0,4095.0,3857.0,3799.0,3062.0,3335.0,3005.0,13.11,10.57,-1.57,-0.43,-0.2,-2.23,1.0,professor
3676.0,958.0,1491.0,4095.0,2551.0,2401.0,2693.0,2323.0,0.01,7.1,6.64,0.51,-1.17,3.07,0.0,3455.0,4095.0,4095.0,3507.0,3780.0,3097.0,3378.0,2643.0,-18.25,5.68,3.31,-0.17,-0.66,-1.61,1.0,professor
3475.0,948.0,1350.0,4095.0,2474.0,2383.0,2685.0,2281.0,16.14,11.59,2.3,-0.68,0.09,-1.21,0.0,3499.0,4095.0,4095.0,3799.0,3785.0,3118.0,3361.0,3223.0,-1.92,8.61,1.7,0.16,-0.11,2.59,1.0,professor
3494.0,953.0,1493.0,4095.0,2551.0,2317.0,2772.0,2369.0,-7.64,5.92,6.72,-0.47,-0.21,-2.66,0.0,3430.0,4095.0,4095.0,4004.0,3700.0,2943.0,3275.0,3041.0,11.72,7.66,-0.1,0.14,0.31,1.1,1.0,professor
3627.0,1019.0,2012.0,3970.0,2901.0,2755.0,3454.0,3262.0,-6.58,-1.9,3.67,-1.93,-0.27,4.84,0.0,2317.0,4095.0,3583.0,2639.0,4095.0,4095.0,4095.0,3790.0,5.25,-2.9,0.41,-1.65,0.65,-6.12,1.0,professor
3175.0,1008.0,3378.0,4095.0,3275.0,4095.0,4095.0,4095.0,38.08,0.37,5.01,0.02,-1.56,3.52,0.0,903.0,4095.0,3175.0,3070.0,4095.0,4095.0,4095.0,4095.0,-29.4,-9.98,-1.17,0.34,-0.1,-2.0,1.0,professor
3236.0,1019.0,3369.0,4095.0,3529.0,4095.0,4095.0,4095.0,14.72,3.74,6.64,0.27,-0.42,-0.17,0.0,931.0,4095.0,3071.0,3049.0,4095.0,4095.0,4095.0,4095.0,-12.9,-0.98,1.52,0.2,-0.34,0.09,1.0,professor
3266.0,992.0,3413.0,4095.0,3537.0,4095.0,4095.0,4095.0,9.16,1.49,5.2,-0.2,0.47,-0.07,0.0,924.0,4095.0,3013.0,3081.0,4095.0,4095.0,4095.0,4095.0,-9.54,-2.09,0.52,-0.0,0.13,0.15,1.0,professor
3257.0,987.0,3422.0,4095.0,3541.0,4095.0,4095.0,4095.0,9.68,1.17,5.34,0.01,-0.07,-0.22,0.0,917.0,4095.0,2927.0,3098.0,4095.0,4095.0,4095.0,4095.0,-9.16,-1.93,0.34,-0.02,0.35,0.17,1.0,professor
3241.0,1008.0,3445.0,4095.0,3546.0,4077.0,4095.0,4095.0,9.66,1.21,5.52,-0.03,-0.1,-0.15,0.0,918.0,4095.0,2883.0,3089.0,4095.0,4095.0,4095.0,4095.0,-9.09,-1.99,-0.02,-0.01,0.07,-0.01,1.0,professor
