hall_1,hall_2,hall_3,flex_t,flex_i,flex_m,flex_r,flex_p,accel_x,accel_y,accel_z,gyro_x,gyro_y,gyro_z,hand,sign
2948.0,3293.0,961.0,4095.0,4095.0,3034.0,3201.0,3229.0,3.93,-1.08,9.17,0.0,0.0,-0.1,1.0,q
2944.0,3279.0,959.0,4095.0,4095.0,3036.0,3203.0,3232.0,3.74,-1.3,9.38,-0.08,-0.02,-0.07,1.0,q
2939.0,3275.0,971.0,4095.0,4095.0,3037.0,3189.0,3227.0,3.95,-1.22,9.29,-0.04,-0.05,-0.12,1.0,q
2944.0,3267.0,960.0,4095.0,4095.0,3038.0,3196.0,3232.0,3.9,-1.13,9.3,-0.06,0.01,-0.07,1.0,q
2948.0,3271.0,972.0,4095.0,4095.0,3037.0,3191.0,3231.0,3.98,-1.18,9.44,-0.02,0.01,-0.07,1.0,q
2943.0,3264.0,960.0,4095.0,4095.0,3035.0,3191.0,3226.0,3.88,-1.24,9.4,-0.14,0.02,0.01,1.0,q
2941.0,3278.0,967.0,4095.0,4095.0,3046.0,3210.0,3243.0,3.96,-1.36,9.45,-0.07,-0.03,-0.08,1.0,q
2943.0,3264.0,957.0,4095.0,4095.0,3039.0,3200.0,3231.0,3.87,-1.19,9.35,-0.03,-0.0,-0.01,1.0,q
2947.0,3285.0,956.0,4095.0,4095.0,3040.0,3200.0,3235.0,3.96,-1.24,9.43,-0.04,0.05,0.02,1.0,q
2944.0,3272.0,955.0,4095.0,4095.0,3039.0,3216.0,3227.0,4.03,-1.31,9.45,-0.05,0.01,-0.03,1.0,q
2928.0,3269.0,959.0,4095.0,4095.0,3036.0,3197.0,3232.0,3.89,-1.29,9.46,-0.06,0.04,-0.01,1.0,q
2944.0,3274.0,960.0,4095.0,4095.0,3043.0,3216.0,3245.0,3.94,-1.18,9.34,-0.06,0.02,-0.0,1.0,q
2948.0,3284.0,951.0,4095.0,4095.0,3033.0,3202.0,3239.0,4.01,-1.28,9.5,-0.07,0.05,0.04,1.0,q
2953.0,3280.0,955.0,4095.0,4095.0,3043.0,3206.0,3247.0,4.24,-1.3,9.61,0.06,-0.0,-0.07,1.0,q
2939.0,3261.0,960.0,4095.0,4095.0,3039.0,3210.0,3223.0,3.75,-1.09,9.35,-0.02,0.03,-0.1,1.0,q
2947.0,3282.0,960.0,4095.0,4095.0,3039.0,3207.0,3245.0,3.59,-1.09,9.39,-0.08,0.01,-0.01,1.0,q
2944.0,3271.0,960.0,4095.0,4095.0,3039.0,3207.0,3233.0,3.83,-1.2,9.41,-0.04,0.0,-0.0,1.0,q
2943.0,3280.0,951.0,4095.0,4095.0,3044.0,3211.0,3243.0,4.01,-1.12,9.4,-0.07,-0.01,-0.01,1.0,q
2934.0,3268.0,951.0,4095.0,4095.0,3040.0,3205.0,3233.0,3.85,-1.21,9.52,-0.04,0.0,-0.07,1.0,q
2944.0,3280.0,959.0,4095.0,4095.0,3035.0,3202.0,3239.0,3.85,-0.92,9.18,0.07,-0.01,-0.11,1.0,q
2943.0,3280.0,961.0,4095.0,4095.0,3042.0,3216.0,3248.0,3.94,-1.16,9.56,-0.06,-0.0,-0.03,1.0,q
2937.0,3261.0,960.0,4095.0,4095.0,3038.0,3205.0,3247.0,3.85,-1.05,9.46,-0.05,0.06,-0.0,1.0,q
2946.0,3275.0,951.0,4095.0,4095.0,3047.0,3215.0,3250.0,3.67,-1.05,9.31,-0.07,-0.03,-0.06,1.0,q
2929.0,3278.0,959.0,4095.0,4095.0,3042.0,3207.0,3246.0,3.95,-1.1,9.58,-0.1,-0.04,-0.07,1.0,q
2949.0,3279.0,957.0,4095.0,4095.0,3046.0,3221.0,3254.0,3.83,-1.25,9.49,-0.06,0.02,-0.02,1.0,q
2938.0,3266.0,957.0,4095.0,4095.0,3042.0,3206.0,3248.0,3.8,-1.03,9.43,-0.09,0.08,0.14,1.0,q
2941.0,3277.0,957.0,4095.0,4095.0,3049.0,3214.0,3235.0,3.97,-1.6,9.64,-0.05,-0.02,-0.03,1.0,q
2933.0,3278.0,957.0,4095.0,4095.0,3042.0,3211.0,3235.0,4.04,-1.44,9.6,-0.02,0.07,-0.05,1.0,q
2947.0,3278.0,955.0,4095.0,4095.0,3049.0,3216.0,3247.0,3.4,-0.94,9.23,-0.02,0.03,-0.04,1.0,q
2930.0,3267.0,965.0,4095.0,4095.0,3055.0,3216.0,3248.0,3.77,-1.28,9.58,-0.07,0.03,-0.01,1.0,q
2938.0,3269.0,960.0,4095.0,4095.0,3043.0,3205.0,3235.0,4.26,-1.32,9.65,-0.04,0.02,-0.05,1.0,q
2943.0,3280.0,955.0,4095.0,4095.0,3054.0,3215.0,3253.0,3.8,-1.28,9.7,0.01,0.1,-0.17,1.0,q
2935.0,3260.0,959.0,4095.0,4095.0,3046.0,3217.0,3248.0,3.19,-0.71,9.34,-0.06,0.03,-0.12,1.0,q
2941.0,3280.0,959.0,4095.0,4095.0,3051.0,3219.0,3250.0,3.55,-1.58,9.84,-0.08,0.02,-0.01,1.0,q
2937.0,3259.0,960.0,4095.0,4095.0,3049.0,3205.0,3249.0,3.66,-0.72,9.44,0.04,-0.02,-0.1,1.0,q
2939.0,3280.0,959.0,4095.0,4095.0,3049.0,3216.0,3260.0,3.59,-1.01,9.49,-0.12,-0.04,0.01,1.0,q
2934.0,3264.0,965.0,4095.0,4095.0,3042.0,3217.0,3262.0,3.72,-1.97,10.44,-0.07,0.0,0.04,1.0,q
2939.0,3280.0,959.0,4095.0,4095.0,3045.0,3225.0,3269.0,3.72,-0.35,8.95,0.16,-0.02,-0.08,1.0,q
2938.0,3275.0,961.0,4095.0,4095.0,3038.0,3207.0,3265.0,3.27,-0.52,9.17,-0.15,-0.1,-0.03,1.0,q
2950.0,3269.0,971.0,4095.0,4095.0,3050.0,3227.0,3276.0,4.1,-1.3,9.87,-0.07,-0.03,0.08,1.0,q
2928.0,3264.0,959.0,4095.0,4095.0,3055.0,3228.0,3278.0,4.06,-0.87,9.44,-0.09,-0.01,-0.04,1.0,q
2928.0,3273.0,964.0,4095.0,4095.0,3045.0,3211.0,3263.0,4.02,-0.88,9.41,-0.07,-0.0,-0.06,1.0,q
2938.0,3275.0,954.0,4095.0,4095.0,3053.0,3222.0,3289.0,4.08,-1.12,9.62,-0.09,0.01,-0.03,1.0,q
2935.0,3252.0,959.0,4095.0,4095.0,3047.0,3216.0,3274.0,3.93,-0.59,9.29,-0.05,-0.03,-0.1,1.0,q
2949.0,3277.0,954.0,4095.0,4095.0,3056.0,3218.0,3277.0,4.17,-1.14,9.62,-0.05,-0.05,-0.15,1.0,q
2941.0,3262.0,960.0,4095.0,4095.0,3047.0,3209.0,3271.0,3.94,-0.39,9.1,-0.05,0.06,-0.04,1.0,q
2943.0,3273.0,959.0,4095.0,4095.0,3056.0,3216.0,3280.0,4.12,-1.35,9.54,-0.1,0.0,-0.05,1.0,q
2941.0,3275.0,959.0,4095.0,4095.0,3043.0,3216.0,3270.0,4.17,-0.52,9.49,-0.03,0.05,0.05,1.0,q
2941.0,3276.0,962.0,4095.0,4095.0,3055.0,3219.0,3286.0,3.96,-1.21,9.45,-0.07,-0.02,-0.02,1.0,q
2941.0,3265.0,965.0,4095.0,4095.0,3056.0,3221.0,3279.0,4.03,-1.08,9.78,0.06,0.07,0.05,1.0,q
2945.0,3280.0,956.0,4095.0,4095.0,3050.0,3216.0,3275.0,4.31,-1.89,10.17,0.21,0.47,0.09,1.0,q
2940.0,3279.0,959.0,4095.0,4095.0,3056.0,3219.0,3292.0,3.13,1.04,8.89,0.14,-0.09,-0.4,1.0,q
2938.0,3262.0,957.0,4095.0,4095.0,3054.0,3216.0,3280.0,2.84,0.14,9.13,-0.24,-0.03,-0.24,1.0,q
2939.0,3266.0,957.0,4095.0,4095.0,3060.0,3227.0,3286.0,3.96,-1.02,10.2,-0.18,-0.06,-0.01,1.0,q
2931.0,3261.0,955.0,4095.0,4095.0,3056.0,3216.0,3280.0,3.52,-0.35,9.31,-0.17,-0.04,-0.09,1.0,q
2944.0,3280.0,960.0,4095.0,4095.0,3056.0,3223.0,3291.0,3.63,-0.69,9.68,-0.15,-0.05,-0.01,1.0,q
2931.0,3261.0,961.0,4095.0,4095.0,3055.0,3218.0,3275.0,3.83,-0.72,9.56,-0.12,0.01,-0.03,1.0,q
2947.0,3280.0,955.0,4095.0,4095.0,3068.0,3231.0,3291.0,3.65,-0.65,9.66,-0.07,-0.0,0.01,1.0,q
2939.0,3279.0,960.0,4095.0,4095.0,3055.0,3218.0,3280.0,3.89,-0.76,9.53,-0.08,-0.0,0.04,1.0,q
2943.0,3264.0,965.0,4095.0,4095.0,3053.0,3227.0,3293.0,3.84,-0.62,9.51,-0.05,0.01,0.03,1.0,q
2959.0,3280.0,955.0,4095.0,4095.0,3056.0,3232.0,3296.0,4.08,-0.6,9.55,-0.08,0.03,-0.17,1.0,q
2939.0,3263.0,960.0,4095.0,4095.0,3053.0,3228.0,3295.0,3.65,-0.49,9.46,-0.08,0.03,-0.31,1.0,q
2939.0,3279.0,959.0,4095.0,4095.0,3056.0,3225.0,3309.0,2.85,-0.26,9.34,-0.04,-0.05,-0.03,1.0,q
2955.0,3273.0,963.0,4095.0,4095.0,3057.0,3225.0,3294.0,4.26,-1.04,9.69,-0.05,0.0,0.13,1.0,q
2943.0,3282.0,954.0,4095.0,4095.0,3069.0,3243.0,3309.0,3.9,-0.61,9.53,-0.02,0.02,-0.03,1.0,q
2935.0,3271.0,956.0,4095.0,4095.0,3056.0,3228.0,3302.0,3.71,-0.47,9.51,-0.01,0.02,-0.0,1.0,q
2950.0,3280.0,959.0,4095.0,4095.0,3056.0,3223.0,3295.0,3.75,-0.59,9.47,-0.04,0.04,0.03,1.0,q
2929.0,3264.0,956.0,4095.0,4095.0,3055.0,3223.0,3292.0,3.98,-0.52,9.6,-0.06,-0.0,-0.05,1.0,q
2941.0,3275.0,959.0,4095.0,4095.0,3053.0,3230.0,3293.0,3.6,-0.51,9.52,-0.06,0.02,-0.06,1.0,q
2928.0,3257.0,957.0,4095.0,4095.0,3056.0,3223.0,3295.0,3.67,-0.37,9.51,-0.04,-0.04,-0.08,1.0,q
2933.0,3275.0,967.0,4095.0,4095.0,3056.0,3220.0,3282.0,4.02,-0.47,9.53,-0.18,0.06,0.04,1.0,q
2952.0,3271.0,954.0,4095.0,4095.0,3056.0,3228.0,3299.0,3.66,-0.74,9.66,-0.1,-0.01,-0.09,1.0,q
2933.0,3259.0,961.0,4095.0,4095.0,3055.0,3225.0,3297.0,3.56,-0.79,9.7,-0.07,-0.01,-0.11,1.0,q
2953.0,3266.0,957.0,4095.0,4095.0,3061.0,3239.0,3312.0,3.76,-0.63,9.49,-0.02,0.05,0.01,1.0,q
2935.0,3269.0,963.0,4095.0,4095.0,3055.0,3225.0,3297.0,3.73,-0.81,9.61,-0.11,0.04,-0.08,1.0,q
2944.0,3268.0,961.0,4095.0,4095.0,3057.0,3233.0,3310.0,3.46,-0.87,9.8,-0.04,0.02,-0.09,1.0,q
2933.0,3263.0,959.0,4095.0,4095.0,3062.0,3234.0,3310.0,3.33,-0.53,9.26,-0.08,-0.04,-0.13,1.0,q
2950.0,3283.0,959.0,4095.0,4095.0,3063.0,3235.0,3314.0,3.81,-0.75,9.85,-0.03,0.06,0.01,1.0,q
2931.0,3265.0,948.0,4095.0,4095.0,3059.0,3229.0,3300.0,3.4,-0.54,9.48,-0.1,-0.02,-0.01,1.0,q
2947.0,3277.0,950.0,4095.0,4095.0,3066.0,3244.0,3314.0,3.85,-0.9,9.85,-0.01,0.03,0.05,1.0,q
2953.0,3271.0,955.0,4095.0,4095.0,3071.0,3248.0,3323.0,3.79,-0.62,9.62,-0.06,0.01,-0.03,1.0,q
2943.0,3263.0,962.0,4095.0,4095.0,3055.0,3229.0,3307.0,3.72,-0.63,9.69,-0.05,0.02,-0.03,1.0,q
2948.0,3280.0,959.0,4095.0,4095.0,3056.0,3235.0,3312.0,3.66,-0.48,9.5,-0.04,0.01,-0.05,1.0,q
2934.0,3259.0,955.0,4095.0,4095.0,3061.0,3237.0,3303.0,3.67,-0.51,9.55,-0.04,-0.0,-0.02,1.0,q
2943.0,3273.0,960.0,4095.0,4095.0,3070.0,3235.0,3317.0,3.79,-0.49,9.59,-0.08,0.02,-0.05,1.0,q
2941.0,3251.0,959.0,4095.0,4095.0,3057.0,3242.0,3303.0,3.72,-0.63,9.7,-0.05,0.04,-0.04,1.0,q
2944.0,3282.0,967.0,4095.0,4095.0,3055.0,3243.0,3309.0,3.71,-0.36,9.54,0.0,0.05,-0.07,1.0,q
2932.0,3259.0,963.0,4095.0,4095.0,3059.0,3226.0,3299.0,3.55,-0.43,9.59,-0.08,0.01,-0.07,1.0,q
2955.0,3265.0,969.0,4095.0,4095.0,3063.0,3241.0,3322.0,3.43,-0.49,9.6,-0.06,0.0,-0.01,1.0,q
2947.0,3278.0,960.0,4095.0,4095.0,3071.0,3248.0,3318.0,3.77,-0.54,9.69,-0.05,-0.01,-0.0,1.0,q
2928.0,3266.0,962.0,4095.0,4095.0,3061.0,3231.0,3302.0,3.64,-0.34,9.49,-0.04,0.02,-0.07,1.0,q
2941.0,3279.0,952.0,4095.0,4095.0,3059.0,3238.0,3304.0,3.62,-0.48,9.63,-0.05,0.04,-0.06,1.0,q
2939.0,3274.0,960.0,4095.0,4095.0,3056.0,3231.0,3312.0,3.42,-0.3,9.6,-0.07,-0.0,-0.05,1.0,q
2938.0,3274.0,965.0,4095.0,4095.0,3065.0,3247.0,3316.0,3.51,-0.62,9.74,-0.1,-0.01,0.0,1.0,q
2935.0,3264.0,958.0,4095.0,4095.0,3056.0,3233.0,3315.0,3.65,-0.56,9.74,-0.03,-0.01,-0.03,1.0,q
2939.0,3263.0,958.0,4095.0,4095.0,3066.0,3234.0,3313.0,3.48,-0.42,9.56,-0.02,0.0,-0.06,1.0,q
2930.0,3268.0,960.0,4095.0,4095.0,3060.0,3230.0,3312.0,3.46,-0.37,9.62,-0.04,-0.01,-0.03,1.0,q
2944.0,3280.0,960.0,4095.0,4095.0,3068.0,3243.0,3321.0,3.69,-0.33,9.55,-0.07,-0.0,-0.04,1.0,q
2941.0,3274.0,960.0,4095.0,4095.0,3059.0,3233.0,3316.0,3.52,-0.51,9.72,-0.06,-0.0,-0.06,1.0,q
2944.0,3279.0,953.0,4095.0,4095.0,3062.0,3239.0,3312.0,3.36,-0.42,9.56,-0.07,-0.02,-0.03,1.0,q
2931.0,3258.0,951.0,4095.0,4095.0,3068.0,3233.0,3317.0,4.11,-0.76,9.82,-0.22,-0.01,-0.04,1.0,q
2942.0,3263.0,955.0,4095.0,4095.0,3071.0,3245.0,3319.0,3.41,-0.42,9.83,-0.05,0.02,-0.06,1.0,q
2942.0,3255.0,959.0,4095.0,4095.0,3069.0,3237.0,3315.0,3.62,-0.12,9.4,-0.07,0.0,0.04,1.0,q
2947.0,3275.0,946.0,4095.0,4095.0,3083.0,3249.0,3338.0,3.96,-0.49,9.56,-0.1,0.02,0.02,1.0,q
2943.0,3268.0,954.0,4095.0,4095.0,3071.0,3237.0,3315.0,3.87,-0.39,9.59,-0.04,0.02,-0.08,1.0,q
2955.0,3265.0,953.0,4095.0,4095.0,3071.0,3245.0,3321.0,3.5,-0.32,9.58,-0.09,0.01,-0.05,1.0,q
2935.0,3263.0,960.0,4095.0,4095.0,3069.0,3236.0,3313.0,3.69,-0.24,9.41,-0.07,0.01,0.05,1.0,q
2950.0,3280.0,956.0,4095.0,4095.0,3071.0,3247.0,3322.0,3.72,-0.69,9.87,-0.12,-0.06,-0.07,1.0,q
2937.0,3271.0,950.0,4095.0,4095.0,3071.0,3245.0,3322.0,3.75,-0.63,9.71,-0.01,0.04,-0.03,1.0,q
2938.0,3273.0,958.0,4095.0,4095.0,3070.0,3233.0,3316.0,3.64,-0.3,9.46,-0.04,0.0,-0.07,1.0,q
2941.0,3275.0,954.0,4095.0,4095.0,3071.0,3247.0,3327.0,3.63,-0.4,9.57,-0.1,-0.04,-0.08,1.0,q
2929.0,3259.0,947.0,4095.0,4095.0,3069.0,3241.0,3311.0,3.58,-0.66,9.8,-0.09,0.01,0.01,1.0,q
2931.0,3278.0,955.0,4095.0,4095.0,3071.0,3248.0,3327.0,3.9,-0.29,9.48,-0.03,0.01,-0.01,1.0,q
2931.0,3261.0,955.0,4095.0,4095.0,3069.0,3234.0,3319.0,3.65,-0.49,9.68,-0.09,-0.01,-0.03,1.0,q
2944.0,3274.0,961.0,4095.0,4095.0,3082.0,3246.0,3328.0,3.73,-0.51,9.62,-0.06,0.01,-0.02,1.0,q
2943.0,3271.0,957.0,4095.0,4095.0,3064.0,3239.0,3315.0,3.66,-0.45,9.59,-0.07,-0.0,-0.03,1.0,q
2948.0,3264.0,963.0,4095.0,4095.0,3088.0,3243.0,3326.0,3.72,-0.59,9.78,-0.02,0.01,0.01,1.0,q
2937.0,3274.0,965.0,4095.0,4095.0,3071.0,3245.0,3318.0,3.65,-0.16,9.27,-0.05,0.03,-0.08,1.0,q
2933.0,3273.0,944.0,4095.0,4095.0,3083.0,3251.0,3327.0,3.48,-0.54,9.76,-0.08,-0.02,-0.04,1.0,q
2942.0,3254.0,970.0,4095.0,4095.0,3063.0,3235.0,3314.0,3.71,-0.42,9.53,-0.06,-0.0,-0.04,1.0,q
2936.0,3243.0,948.0,4095.0,4095.0,3132.0,3261.0,3365.0,3.98,-0.43,9.3,-0.14,-0.01,-0.02,1.0,q
2941.0,3248.0,950.0,4095.0,4095.0,3141.0,3273.0,3367.0,4.04,-0.34,9.28,-0.05,-0.02,-0.06,1.0,q
2939.0,3243.0,944.0,4095.0,4095.0,3137.0,3270.0,3366.0,4.28,-0.52,9.53,-0.11,-0.01,-0.07,1.0,q
2935.0,3252.0,947.0,4095.0,4095.0,3141.0,3279.0,3376.0,4.03,-0.47,9.29,-0.11,0.08,-0.03,1.0,q
2937.0,3248.0,954.0,4095.0,4095.0,3137.0,3268.0,3371.0,4.2,-0.15,8.98,-0.22,0.15,0.02,1.0,q
2943.0,3250.0,959.0,4095.0,4095.0,3139.0,3279.0,3375.0,3.85,-1.52,10.2,-0.19,0.12,-0.07,1.0,q
2941.0,3238.0,947.0,4095.0,4095.0,3135.0,3278.0,3379.0,3.6,-0.97,9.45,-0.03,-0.02,-0.13,1.0,q
2943.0,3245.0,945.0,4095.0,4095.0,3135.0,3265.0,3371.0,4.06,-0.77,9.49,-0.05,0.01,-0.15,1.0,q
2942.0,3262.0,950.0,4095.0,4095.0,3152.0,3281.0,3376.0,3.67,-0.78,9.56,-0.0,-0.01,-0.11,1.0,q
2933.0,3253.0,959.0,4095.0,4095.0,3139.0,3275.0,3369.0,3.92,-0.85,9.47,-0.09,0.02,-0.06,1.0,q
2937.0,3249.0,953.0,4095.0,4095.0,3143.0,3277.0,3375.0,3.67,-0.76,9.46,-0.06,0.0,-0.1,1.0,q
2937.0,3248.0,944.0,4095.0,4095.0,3141.0,3280.0,3371.0,3.88,-0.89,9.56,-0.04,0.03,-0.01,1.0,q
2935.0,3248.0,959.0,4095.0,4095.0,3146.0,3276.0,3376.0,3.63,-0.68,9.54,-0.05,0.03,-0.11,1.0,q
2933.0,3237.0,945.0,4095.0,4095.0,3142.0,3276.0,3374.0,3.54,-0.42,9.2,-0.12,-0.01,-0.06,1.0,q
2941.0,3239.0,953.0,4095.0,4095.0,3149.0,3281.0,3375.0,3.85,-1.0,9.87,-0.04,0.02,0.02,1.0,q
2931.0,3244.0,946.0,4095.0,4095.0,3138.0,3280.0,3367.0,3.64,-0.7,9.38,-0.09,-0.02,-0.0,1.0,q
2935.0,3243.0,954.0,4095.0,4095.0,3147.0,3282.0,3376.0,3.84,-0.92,9.55,-0.07,-0.03,0.01,1.0,q
2933.0,3249.0,957.0,4095.0,4095.0,3129.0,3274.0,3366.0,3.89,-0.8,9.52,-0.06,0.0,-0.02,1.0,q
2939.0,3251.0,957.0,4095.0,4095.0,3147.0,3281.0,3377.0,3.8,-0.83,9.58,-0.06,-0.01,-0.05,1.0,q
2931.0,3248.0,950.0,4095.0,4095.0,3143.0,3289.0,3387.0,3.9,-0.81,9.56,-0.07,0.01,-0.05,1.0,q
2938.0,3248.0,953.0,4095.0,4095.0,3136.0,3278.0,3375.0,3.76,-0.72,9.43,-0.03,0.0,-0.01,1.0,q
2944.0,3259.0,949.0,4095.0,4095.0,3142.0,3281.0,3388.0,3.84,-0.87,9.61,-0.04,0.04,-0.04,1.0,q
2927.0,3255.0,949.0,4095.0,4095.0,3138.0,3277.0,3378.0,3.65,-0.71,9.44,-0.07,-0.0,-0.06,1.0,q
2943.0,3265.0,959.0,4095.0,4095.0,3136.0,3281.0,3387.0,3.7,-0.82,9.5,-0.05,0.0,-0.03,1.0,q
2943.0,3245.0,944.0,4095.0,4095.0,3137.0,3281.0,3385.0,3.72,-0.8,9.5,-0.05,0.01,-0.03,1.0,q
2947.0,3259.0,950.0,4095.0,4095.0,3137.0,3274.0,3378.0,3.68,-0.77,9.49,-0.04,0.0,-0.04,1.0,q
2944.0,3247.0,953.0,4095.0,4095.0,3141.0,3291.0,3400.0,3.73,-0.75,9.52,-0.07,-0.0,-0.04,1.0,q
2930.0,3244.0,956.0,4095.0,4095.0,3136.0,3281.0,3391.0,3.62,-0.83,9.59,-0.06,-0.0,-0.02,1.0,q
2941.0,3249.0,946.0,4095.0,4095.0,3136.0,3289.0,3402.0,3.92,-0.53,9.44,-0.04,-0.02,-0.07,1.0,q
2948.0,3257.0,953.0,4095.0,4095.0,3125.0,3279.0,3390.0,3.7,-1.18,9.72,-0.16,0.01,-0.09,1.0,q
2944.0,3251.0,948.0,4095.0,4095.0,3132.0,3284.0,3401.0,3.39,-0.81,9.79,0.06,-0.1,-0.12,1.0,q
2928.0,3243.0,949.0,4095.0,4095.0,3131.0,3280.0,3381.0,3.75,-0.4,8.67,-0.15,0.02,0.04,1.0,q
2943.0,3253.0,944.0,4095.0,4095.0,3136.0,3281.0,3395.0,4.3,-1.66,10.5,-0.09,-0.04,-0.1,1.0,q
2930.0,3248.0,956.0,4095.0,4095.0,3134.0,3274.0,3380.0,3.58,0.07,8.95,0.03,0.0,0.01,1.0,q
2945.0,3250.0,954.0,4095.0,4095.0,3140.0,3280.0,3399.0,4.04,-1.18,9.89,-0.21,-0.12,0.09,1.0,q
2934.0,3250.0,949.0,4095.0,4095.0,3133.0,3278.0,3382.0,4.1,-1.04,9.97,0.12,-0.08,-0.14,1.0,q
2935.0,3248.0,958.0,4095.0,4095.0,3147.0,3290.0,3390.0,3.88,-0.25,8.61,-0.14,0.06,0.0,1.0,q
2928.0,3240.0,951.0,4095.0,4095.0,3136.0,3280.0,3383.0,4.12,-1.59,10.22,-0.08,0.01,-0.03,1.0,q
2930.0,3230.0,957.0,4095.0,4095.0,3134.0,3283.0,3390.0,3.94,-0.09,8.96,0.04,-0.02,-0.03,1.0,q
2938.0,3248.0,960.0,4095.0,4095.0,3145.0,3285.0,3398.0,4.16,-1.05,9.73,-0.21,0.02,0.02,1.0,q
2939.0,3264.0,961.0,4095.0,4095.0,3131.0,3280.0,3395.0,3.96,-0.35,9.2,0.1,-0.01,-0.03,1.0,q
2939.0,3253.0,948.0,4095.0,4095.0,3135.0,3280.0,3390.0,3.97,-0.74,9.14,-0.22,-0.03,-0.05,1.0,q
2938.0,3246.0,949.0,4095.0,4095.0,3145.0,3283.0,3395.0,3.66,-1.54,10.07,-0.1,-0.06,-0.03,1.0,q
2931.0,3254.0,944.0,4095.0,4095.0,3132.0,3275.0,3379.0,4.36,-0.45,9.17,0.09,0.06,0.1,1.0,q
2941.0,3265.0,959.0,4095.0,4095.0,3136.0,3287.0,3397.0,4.0,-0.88,9.43,-0.03,0.0,-0.06,1.0,q
2937.0,3248.0,950.0,4095.0,4095.0,3133.0,3280.0,3385.0,3.9,-0.81,9.48,-0.04,0.03,-0.0,1.0,q
2942.0,3261.0,955.0,4095.0,4095.0,3145.0,3287.0,3381.0,4.32,-0.84,9.48,-0.08,0.04,-0.04,1.0,q
2941.0,3237.0,959.0,4095.0,4095.0,3143.0,3295.0,3401.0,3.72,-0.77,9.55,0.01,0.06,-0.12,1.0,q
2931.0,3245.0,961.0,4095.0,4095.0,3134.0,3283.0,3391.0,3.7,-0.7,9.66,0.02,0.0,-0.1,1.0,q
2935.0,3251.0,960.0,4095.0,4095.0,3138.0,3284.0,3399.0,3.81,-0.41,9.43,0.04,0.01,-0.03,1.0,q
2942.0,3248.0,946.0,4095.0,4095.0,3133.0,3278.0,3389.0,3.78,-0.13,9.23,-0.06,-0.03,-0.06,1.0,q
2944.0,3265.0,945.0,4095.0,4095.0,3138.0,3287.0,3399.0,4.03,-0.47,9.39,-0.16,-0.02,-0.05,1.0,q
2931.0,3239.0,949.0,4095.0,4095.0,3131.0,3279.0,3381.0,3.95,-0.71,9.61,-0.13,0.0,-0.03,1.0,q
2937.0,3257.0,950.0,4095.0,4095.0,3141.0,3285.0,3389.0,3.97,-0.61,9.58,-0.04,-0.01,-0.08,1.0,q
2934.0,3257.0,944.0,4095.0,4095.0,3132.0,3285.0,3387.0,3.82,-0.58,9.5,-0.06,-0.02,-0.05,1.0,q
2939.0,3253.0,950.0,4095.0,4095.0,3139.0,3280.0,3387.0,3.92,-0.52,9.45,-0.06,0.03,-0.03,1.0,q
2938.0,3237.0,950.0,4095.0,4095.0,3136.0,3276.0,3385.0,3.88,-0.7,9.52,-0.06,-0.05,-0.07,1.0,q
2942.0,3262.0,946.0,4095.0,4095.0,3139.0,3287.0,3394.0,3.95,-0.44,9.37,-0.04,-0.0,-0.05,1.0,q
2934.0,3248.0,949.0,4095.0,4095.0,3135.0,3289.0,3398.0,4.02,-0.74,9.64,-0.09,-0.01,-0.01,1.0,q
2943.0,3249.0,955.0,4095.0,4095.0,3136.0,3285.0,3391.0,3.86,-0.56,9.34,-0.06,0.0,-0.04,1.0,q
2930.0,3248.0,949.0,4095.0,4095.0,3137.0,3285.0,3390.0,3.95,-0.52,9.37,-0.05,-0.0,-0.06,1.0,q
2942.0,3262.0,957.0,4095.0,4095.0,3141.0,3285.0,3392.0,3.89,-0.63,9.54,-0.07,-0.0,-0.02,1.0,q
2928.0,3242.0,949.0,4095.0,4095.0,3139.0,3281.0,3383.0,4.03,-0.59,9.47,-0.06,0.01,-0.04,1.0,q
2941.0,3248.0,950.0,4095.0,4095.0,3154.0,3296.0,3397.0,3.9,-0.6,9.49,-0.07,-0.01,-0.05,1.0,q
2944.0,3244.0,951.0,4095.0,4095.0,3136.0,3282.0,3403.0,3.9,-0.58,9.41,-0.06,-0.01,-0.03,1.0,q
2951.0,3254.0,945.0,4095.0,4095.0,3145.0,3285.0,3399.0,4.07,-0.66,9.52,-0.08,0.02,-0.03,1.0,q
2950.0,3251.0,951.0,4095.0,4095.0,3129.0,3280.0,3395.0,4.0,-0.61,9.44,-0.05,-0.01,-0.06,1.0,q
2943.0,3249.0,954.0,4095.0,4095.0,3145.0,3289.0,3393.0,3.99,-0.64,9.56,-0.03,0.02,-0.05,1.0,q
2931.0,3247.0,954.0,4095.0,4095.0,3146.0,3287.0,3391.0,3.93,-0.49,9.36,-0.05,-0.01,-0.04,1.0,q
2946.0,3254.0,955.0,4095.0,4095.0,3131.0,3280.0,3389.0,3.93,-0.72,9.52,-0.06,0.0,-0.02,1.0,q
2943.0,3253.0,957.0,4095.0,4095.0,3143.0,3286.0,3386.0,4.05,-0.56,9.4,-0.03,0.0,-0.03,1.0,q
2944.0,3249.0,951.0,4095.0,4095.0,3130.0,3279.0,3382.0,4.06,-0.59,9.46,-0.05,0.02,-0.04,1.0,q
2933.0,3248.0,950.0,4095.0,4095.0,3152.0,3287.0,3395.0,3.9,-0.52,9.44,-0.05,0.03,-0.04,1.0,q
2930.0,3248.0,954.0,4095.0,4095.0,3136.0,3283.0,3383.0,3.93,-0.49,9.44,-0.04,-0.0,-0.04,1.0,q
2929.0,3245.0,952.0,4095.0,4095.0,3151.0,3295.0,3398.0,3.96,-0.57,9.51,-0.06,0.01,-0.01,1.0,q
2949.0,3251.0,950.0,4095.0,4095.0,3137.0,3283.0,3395.0,3.91,-0.47,9.42,-0.06,0.02,-0.03,1.0,q
2935.0,3254.0,945.0,4095.0,4095.0,3133.0,3282.0,3383.0,3.93,-0.57,9.61,-0.05,0.01,-0.02,1.0,q
2934.0,3248.0,944.0,4095.0,4095.0,3130.0,3283.0,3394.0,3.99,-0.57,9.57,-0.04,0.02,-0.03,1.0,q
2934.0,3248.0,953.0,4095.0,4095.0,3142.0,3289.0,3403.0,4.03,-0.53,9.53,-0.07,0.01,-0.03,1.0,q
2931.0,3248.0,947.0,4095.0,4095.0,3138.0,3281.0,3390.0,3.83,-0.55,9.56,-0.06,0.04,-0.02,1.0,q
2945.0,3365.0,989.0,4095.0,4095.0,3169.0,3280.0,3306.0,4.42,-0.85,9.0,-0.3,0.14,-0.07,1.0,q
2938.0,3362.0,976.0,4095.0,4095.0,3183.0,3274.0,3294.0,3.86,-0.72,8.99,-0.22,-0.08,-0.23,1.0,q
2939.0,3345.0,983.0,4095.0,4095.0,3183.0,3277.0,3305.0,4.23,-0.72,10.01,-0.14,0.02,-0.21,1.0,q
2928.0,3349.0,978.0,4095.0,4095.0,3170.0,3264.0,3297.0,4.42,-0.81,9.33,0.05,0.07,-0.26,1.0,q
2941.0,3366.0,976.0,4095.0,4095.0,3164.0,3266.0,3291.0,3.93,-0.87,9.33,-0.04,0.01,-0.26,1.0,q
2944.0,3358.0,981.0,4095.0,4095.0,3183.0,3280.0,3312.0,3.85,-0.86,9.55,0.06,-0.01,-0.15,1.0,q
2929.0,3350.0,981.0,4095.0,4095.0,3174.0,3273.0,3293.0,4.02,-0.48,9.4,0.02,0.03,-0.06,1.0,q
2946.0,3361.0,985.0,4095.0,4095.0,3186.0,3280.0,3319.0,4.11,-0.45,9.47,0.07,-0.03,-0.01,1.0,q
2930.0,3351.0,980.0,4095.0,4095.0,3179.0,3270.0,3307.0,4.11,-0.29,9.4,0.09,0.02,0.03,1.0,q
2938.0,3376.0,980.0,4095.0,4095.0,3179.0,3273.0,3309.0,3.92,-0.19,9.43,0.07,0.01,0.03,1.0,q
2928.0,3344.0,986.0,4095.0,4095.0,3184.0,3275.0,3307.0,4.02,-0.15,9.45,0.12,-0.03,0.11,1.0,q
2934.0,3359.0,979.0,4095.0,4095.0,3184.0,3280.0,3312.0,4.37,0.06,9.33,-0.0,0.1,0.1,1.0,q
2944.0,3351.0,983.0,4095.0,4095.0,3152.0,3277.0,3311.0,3.64,0.14,9.25,-0.08,-0.06,0.2,1.0,q
2954.0,3359.0,980.0,4095.0,4095.0,3155.0,3285.0,3311.0,4.14,-0.13,9.44,-0.07,-0.05,0.29,1.0,q
2941.0,3349.0,978.0,4095.0,4095.0,3143.0,3281.0,3303.0,4.8,-0.37,9.54,-0.07,-0.02,0.25,1.0,q
2946.0,3380.0,982.0,4095.0,4095.0,3150.0,3274.0,3293.0,4.22,-0.38,9.29,-0.02,-0.06,0.16,1.0,q
2939.0,3379.0,979.0,4095.0,4095.0,3153.0,3283.0,3302.0,4.06,-0.4,9.25,-0.02,-0.08,0.15,1.0,q
2935.0,3371.0,979.0,4095.0,4095.0,3152.0,3278.0,3285.0,4.3,-0.47,9.16,-0.08,-0.05,0.15,1.0,q
2939.0,3376.0,977.0,4095.0,4095.0,3152.0,3285.0,3318.0,4.23,-0.6,9.36,-0.11,-0.13,0.11,1.0,q
2935.0,3362.0,980.0,4095.0,4095.0,3152.0,3279.0,3311.0,4.66,-0.72,9.25,-0.09,-0.0,0.15,1.0,q
2945.0,3371.0,992.0,4095.0,4095.0,3150.0,3277.0,3314.0,4.7,-1.52,9.07,-0.14,0.03,-0.02,1.0,q
2944.0,3381.0,976.0,4095.0,4095.0,3152.0,3281.0,3320.0,4.73,-1.39,8.84,-0.17,-0.0,-0.09,1.0,q
2939.0,3370.0,986.0,4095.0,4095.0,3158.0,3280.0,3317.0,4.71,-1.64,9.05,-0.18,0.01,-0.14,1.0,q
2950.0,3381.0,975.0,4095.0,4095.0,3153.0,3280.0,3338.0,4.6,-1.75,9.17,-0.08,0.03,-0.1,1.0,q
2940.0,3376.0,976.0,4095.0,4095.0,3167.0,3286.0,3314.0,4.41,-1.66,9.0,-0.12,0.0,-0.11,1.0,q
2950.0,3389.0,976.0,4095.0,4095.0,3166.0,3293.0,3323.0,4.63,-1.7,9.11,-0.13,0.0,-0.09,1.0,q
2943.0,3374.0,975.0,4095.0,4095.0,3165.0,3279.0,3311.0,4.62,-1.86,9.0,-0.11,0.04,-0.11,1.0,q
2951.0,3389.0,974.0,4095.0,4095.0,3158.0,3280.0,3323.0,4.67,-1.77,8.95,-0.14,0.0,-0.15,1.0,q
2934.0,3364.0,976.0,4095.0,4095.0,3155.0,3280.0,3318.0,4.8,-1.82,9.06,-0.14,0.05,-0.17,1.0,q
2939.0,3375.0,976.0,4095.0,4095.0,3162.0,3282.0,3328.0,4.81,-1.85,9.01,-0.19,0.06,-0.27,1.0,q
2935.0,3377.0,982.0,4095.0,4095.0,3155.0,3275.0,3311.0,4.59,-1.89,9.07,-0.2,0.05,-0.3,1.0,q
2937.0,3363.0,970.0,4095.0,4095.0,3167.0,3280.0,3313.0,4.26,-1.93,9.07,-0.11,0.08,-0.23,1.0,q
2932.0,3375.0,986.0,4095.0,4095.0,3166.0,3279.0,3324.0,4.37,-1.79,9.07,-0.12,0.06,-0.16,1.0,q
2930.0,3363.0,976.0,4095.0,4095.0,3159.0,3277.0,3312.0,4.53,-1.85,9.08,-0.12,0.05,-0.15,1.0,q
2942.0,3367.0,977.0,4095.0,4095.0,3168.0,3282.0,3318.0,4.39,-1.74,9.07,-0.07,0.03,-0.13,1.0,q
2939.0,3369.0,981.0,4095.0,4095.0,3158.0,3279.0,3313.0,4.33,-1.73,9.09,-0.08,0.05,-0.08,1.0,q
2943.0,3376.0,990.0,4095.0,4095.0,3169.0,3294.0,3326.0,4.55,-1.79,9.19,-0.06,0.03,-0.17,1.0,q
2940.0,3371.0,981.0,4095.0,4095.0,3163.0,3282.0,3327.0,4.33,-1.66,9.14,-0.05,0.04,-0.19,1.0,q
2935.0,3374.0,981.0,4095.0,4095.0,3175.0,3287.0,3325.0,4.17,-1.67,9.22,-0.04,0.05,-0.13,1.0,q
2933.0,3376.0,982.0,4095.0,4095.0,3158.0,3280.0,3315.0,4.14,-1.56,9.22,0.03,0.05,-0.08,1.0,q
2944.0,3407.0,976.0,4095.0,4095.0,3183.0,3299.0,3340.0,4.31,-0.03,9.33,0.04,0.0,-0.0,1.0,q
2930.0,3381.0,975.0,4095.0,4095.0,3178.0,3290.0,3327.0,4.05,0.06,9.3,0.01,0.01,-0.05,1.0,q
2938.0,3392.0,976.0,4095.0,4095.0,3182.0,3294.0,3338.0,4.05,0.1,9.36,0.01,-0.04,-0.03,1.0,q
2933.0,3382.0,973.0,4095.0,4095.0,3177.0,3287.0,3322.0,4.25,0.14,9.44,0.02,-0.02,-0.01,1.0,q
2943.0,3393.0,971.0,4095.0,4095.0,3181.0,3291.0,3327.0,4.14,0.16,9.36,0.01,0.0,0.02,1.0,q
2944.0,3402.0,976.0,4095.0,4095.0,3184.0,3291.0,3337.0,4.22,0.21,9.39,0.02,-0.0,-0.01,1.0,q
2935.0,3389.0,985.0,4095.0,4095.0,3179.0,3285.0,3317.0,4.28,0.32,9.36,-0.02,0.01,0.01,1.0,q
2941.0,3391.0,976.0,4095.0,4095.0,3185.0,3297.0,3330.0,4.43,0.42,9.29,-0.02,0.02,-0.07,1.0,q
2933.0,3381.0,976.0,4095.0,4095.0,3175.0,3282.0,3328.0,4.21,0.44,9.3,-0.07,0.03,-0.11,1.0,q
2944.0,3389.0,976.0,4095.0,4095.0,3190.0,3301.0,3338.0,4.15,0.5,9.27,-0.09,0.08,-0.07,1.0,q
2935.0,3376.0,975.0,4095.0,4095.0,3179.0,3285.0,3324.0,4.04,0.23,9.56,-0.12,0.25,0.14,1.0,q
2944.0,3403.0,976.0,4095.0,4095.0,3184.0,3301.0,3329.0,3.76,0.31,9.39,-0.12,-0.02,-0.17,1.0,q
2940.0,3375.0,974.0,4095.0,4095.0,3183.0,3300.0,3327.0,3.79,0.27,9.41,-0.18,0.04,-0.1,1.0,q
2942.0,3395.0,978.0,4095.0,4095.0,3187.0,3301.0,3327.0,3.66,-0.01,9.59,-0.15,0.02,-0.09,1.0,q
2932.0,3390.0,982.0,4095.0,4095.0,3184.0,3294.0,3328.0,3.75,-0.07,9.52,-0.2,0.08,-0.02,1.0,q
2939.0,3405.0,976.0,4095.0,4095.0,3183.0,3296.0,3328.0,3.64,-0.19,9.46,-0.17,-0.01,-0.08,1.0,q
2928.0,3385.0,975.0,4095.0,4095.0,3180.0,3281.0,3325.0,3.81,-0.28,9.51,-0.18,-0.07,-0.13,1.0,q
2945.0,3385.0,974.0,4095.0,4095.0,3184.0,3294.0,3322.0,3.85,-0.46,9.55,-0.21,0.01,-0.04,1.0,q
2935.0,3379.0,975.0,4095.0,4095.0,3193.0,3302.0,3330.0,3.69,-0.39,9.41,-0.15,0.02,-0.03,1.0,q
2929.0,3376.0,978.0,4095.0,4095.0,3186.0,3291.0,3319.0,3.83,-0.85,9.66,-0.2,-0.01,-0.04,1.0,q
2941.0,3388.0,976.0,4095.0,4095.0,3195.0,3294.0,3327.0,4.02,-1.32,9.47,-0.16,-0.02,0.0,1.0,q
2935.0,3379.0,971.0,4095.0,4095.0,3189.0,3293.0,3321.0,3.83,-1.33,9.42,-0.14,0.01,0.01,1.0,q
2948.0,3385.0,976.0,4095.0,4095.0,3186.0,3303.0,3333.0,3.86,-1.37,9.45,-0.11,0.01,0.02,1.0,q
2931.0,3393.0,975.0,4095.0,4095.0,3190.0,3290.0,3327.0,3.88,-1.5,9.43,-0.1,-0.0,-0.01,1.0,q
2932.0,3381.0,976.0,4095.0,4095.0,3184.0,3287.0,3318.0,3.83,-1.54,9.45,-0.06,-0.03,0.03,1.0,q
2933.0,3399.0,975.0,4095.0,4095.0,3194.0,3299.0,3335.0,3.93,-1.48,9.3,-0.08,-0.01,0.05,1.0,q
2930.0,3394.0,974.0,4095.0,4095.0,3177.0,3291.0,3333.0,3.95,-1.55,9.33,-0.12,-0.05,0.01,1.0,q
2949.0,3397.0,976.0,4095.0,4095.0,3184.0,3290.0,3338.0,4.01,-1.74,9.46,-0.06,-0.02,0.02,1.0,q
2934.0,3389.0,982.0,4095.0,4095.0,3182.0,3287.0,3329.0,4.1,-1.66,9.36,-0.06,-0.03,0.01,1.0,q
2947.0,3392.0,977.0,4095.0,4095.0,3190.0,3302.0,3343.0,3.93,-1.62,9.24,-0.07,-0.04,-0.02,1.0,q
2944.0,3390.0,979.0,4095.0,4095.0,3184.0,3280.0,3329.0,4.04,-1.68,9.33,-0.06,-0.0,0.01,1.0,q
2945.0,3391.0,979.0,4095.0,4095.0,3195.0,3303.0,3344.0,4.01,-1.75,9.33,-0.05,-0.04,0.01,1.0,q
2945.0,3406.0,976.0,4095.0,4095.0,3187.0,3284.0,3328.0,4.12,-1.71,9.22,-0.05,-0.03,-0.02,1.0,q
2939.0,3401.0,974.0,4095.0,4095.0,3187.0,3296.0,3341.0,4.03,-1.75,9.28,-0.07,-0.02,-0.01,1.0,q
2935.0,3381.0,976.0,4095.0,4095.0,3181.0,3283.0,3334.0,4.01,-1.75,9.19,-0.06,-0.03,-0.0,1.0,q
2939.0,3389.0,972.0,4095.0,4095.0,3190.0,3293.0,3335.0,4.2,-1.75,9.26,-0.07,-0.0,0.01,1.0,q
2938.0,3408.0,975.0,4095.0,4095.0,3184.0,3299.0,3335.0,4.12,-1.75,9.25,-0.04,-0.02,-0.0,1.0,q
2932.0,3396.0,970.0,4095.0,4095.0,3178.0,3290.0,3331.0,4.16,-1.64,9.05,-0.04,-0.03,-0.04,1.0,q
2944.0,3392.0,975.0,4095.0,4095.0,3188.0,3294.0,3341.0,4.07,-1.81,9.25,-0.09,-0.01,0.03,1.0,q
2939.0,3386.0,969.0,4095.0,4095.0,3182.0,3291.0,3335.0,4.18,-1.81,9.2,-0.04,-0.03,0.0,1.0,q
2933.0,3391.0,982.0,4095.0,4095.0,3180.0,3298.0,3366.0,4.08,-1.84,9.19,-0.06,-0.01,0.04,1.0,q
2925.0,3371.0,976.0,4095.0,4095.0,3187.0,3297.0,3346.0,4.25,-1.88,9.19,-0.05,0.01,0.06,1.0,q
2941.0,3382.0,976.0,4095.0,4095.0,3197.0,3306.0,3358.0,4.1,-1.91,9.28,-0.04,-0.0,0.03,1.0,q
2933.0,3383.0,976.0,4095.0,4095.0,3184.0,3293.0,3347.0,4.36,-1.9,9.22,-0.05,-0.0,0.02,1.0,q
2944.0,3391.0,978.0,4095.0,4095.0,3190.0,3299.0,3349.0,4.25,-1.75,9.29,-0.01,-0.02,-0.1,1.0,q
2928.0,3385.0,976.0,4095.0,4095.0,3184.0,3294.0,3347.0,3.8,-1.76,9.08,-0.12,0.11,0.09,1.0,q
2954.0,3394.0,976.0,4095.0,4095.0,3194.0,3306.0,3355.0,3.74,-2.18,9.55,0.0,-0.09,-0.01,1.0,q
2943.0,3383.0,974.0,4095.0,4095.0,3181.0,3295.0,3350.0,4.05,-2.1,9.44,0.1,-0.18,-0.19,1.0,q
2931.0,3382.0,967.0,4095.0,4095.0,3196.0,3301.0,3353.0,4.52,-1.32,9.11,0.11,0.01,0.09,1.0,q
2938.0,3373.0,976.0,4095.0,4095.0,3186.0,3296.0,3350.0,4.16,-1.72,9.14,0.05,0.09,0.06,1.0,q
2944.0,3389.0,976.0,4095.0,4095.0,3191.0,3296.0,3344.0,4.08,-1.48,9.41,0.04,0.08,0.09,1.0,q
2939.0,3407.0,974.0,4095.0,4095.0,3180.0,3301.0,3351.0,4.37,-1.31,9.1,0.13,-0.1,-0.05,1.0,q
2944.0,3389.0,976.0,4095.0,4095.0,3200.0,3312.0,3361.0,4.45,-1.29,9.53,0.13,0.01,-0.1,1.0,q
2935.0,3387.0,976.0,4095.0,4095.0,3197.0,3306.0,3344.0,4.34,-0.83,9.27,0.14,0.12,-0.1,1.0,q
2941.0,3380.0,979.0,4095.0,4095.0,3184.0,3295.0,3351.0,4.05,-0.6,9.23,0.09,0.01,-0.17,1.0,q
2945.0,3402.0,976.0,4095.0,4095.0,3188.0,3302.0,3355.0,3.85,-0.51,9.31,0.04,0.01,-0.12,1.0,q
2940.0,3388.0,976.0,4095.0,4095.0,3190.0,3301.0,3350.0,4.04,-0.5,9.49,0.0,0.0,-0.08,1.0,q
2950.0,3385.0,976.0,4095.0,4095.0,3194.0,3303.0,3351.0,4.18,-0.3,9.36,-0.04,0.01,-0.05,1.0,q
2940.0,3382.0,976.0,4095.0,4095.0,3184.0,3296.0,3343.0,4.2,-0.4,9.43,-0.03,0.03,-0.08,1.0,q
2944.0,3399.0,981.0,4095.0,4095.0,3188.0,3301.0,3351.0,4.16,-0.36,9.6,-0.04,0.02,-0.1,1.0,q
2940.0,3520.0,978.0,4095.0,4095.0,3134.0,3287.0,3351.0,3.9,-2.93,8.61,0.02,-0.06,-0.18,1.0,q
2944.0,3507.0,981.0,4095.0,4095.0,3143.0,3297.0,3365.0,3.98,-2.9,8.77,-0.01,-0.01,-0.21,1.0,q
2945.0,3520.0,981.0,4095.0,4095.0,3141.0,3289.0,3358.0,3.77,-2.67,8.85,-0.01,-0.01,-0.25,1.0,q
2947.0,3499.0,982.0,4095.0,4095.0,3152.0,3307.0,3377.0,3.93,-2.7,8.94,-0.09,0.03,-0.18,1.0,q
2934.0,3493.0,983.0,4095.0,4095.0,3152.0,3297.0,3371.0,3.91,-2.64,8.83,-0.07,0.06,-0.08,1.0,q
2944.0,3511.0,977.0,4095.0,4095.0,3158.0,3301.0,3376.0,4.09,-2.72,8.91,-0.08,0.04,-0.04,1.0,q
2943.0,3503.0,978.0,4095.0,4095.0,3152.0,3299.0,3371.0,3.98,-2.61,8.74,0.05,0.03,-0.17,1.0,q
2954.0,3527.0,979.0,4095.0,4095.0,3152.0,3295.0,3362.0,3.82,-2.93,9.07,-0.09,0.04,-0.03,1.0,q
2943.0,3520.0,976.0,4095.0,4095.0,3155.0,3297.0,3370.0,3.97,-2.84,8.98,-0.16,0.03,0.03,1.0,q
2951.0,3509.0,981.0,4095.0,4095.0,3159.0,3306.0,3361.0,3.95,-3.12,9.04,-0.15,0.0,-0.08,1.0,q
2947.0,3521.0,986.0,4095.0,4095.0,3159.0,3305.0,3365.0,3.73,-3.2,8.93,-0.15,-0.03,0.01,1.0,q
2945.0,3530.0,983.0,4095.0,4095.0,3152.0,3287.0,3374.0,3.94,-3.24,8.77,-0.16,-0.02,0.01,1.0,q
2944.0,3530.0,978.0,4095.0,4095.0,3159.0,3300.0,3375.0,3.89,-3.23,8.72,-0.14,-0.02,0.0,1.0,q
2943.0,3505.0,979.0,4095.0,4095.0,3167.0,3298.0,3374.0,3.88,-3.45,8.83,-0.14,-0.01,0.01,1.0,q
2954.0,3515.0,980.0,4095.0,4095.0,3174.0,3309.0,3377.0,3.79,-3.48,8.81,-0.08,-0.03,-0.01,1.0,q
2942.0,3520.0,981.0,4095.0,4095.0,3155.0,3295.0,3365.0,3.9,-3.55,8.71,-0.12,-0.05,0.02,1.0,q
2953.0,3519.0,983.0,4095.0,4095.0,3174.0,3311.0,3378.0,4.1,-3.68,8.79,-0.13,-0.01,0.04,1.0,q
2935.0,3504.0,976.0,4095.0,4095.0,3168.0,3299.0,3370.0,4.07,-3.71,8.6,-0.12,-0.03,-0.03,1.0,q
2949.0,3523.0,978.0,4095.0,4095.0,3175.0,3312.0,3388.0,3.97,-3.68,8.63,-0.12,-0.01,-0.03,1.0,q
2948.0,3527.0,975.0,4095.0,4095.0,3161.0,3295.0,3381.0,3.95,-3.69,8.51,-0.05,0.01,-0.01,1.0,q
2931.0,3495.0,981.0,4095.0,4095.0,3175.0,3305.0,3381.0,4.06,-3.92,8.52,-0.15,0.01,0.03,1.0,q
2951.0,3514.0,977.0,4095.0,4095.0,3179.0,3307.0,3393.0,3.94,-3.91,8.55,-0.0,-0.01,-0.03,1.0,q
2944.0,3511.0,983.0,4095.0,4095.0,3163.0,3302.0,3379.0,4.07,-3.95,8.5,-0.06,-0.05,0.0,1.0,q
2960.0,3520.0,977.0,4095.0,4095.0,3179.0,3305.0,3389.0,4.4,-3.88,8.46,-0.04,-0.03,-0.03,1.0,q
2939.0,3511.0,984.0,4095.0,4095.0,3181.0,3309.0,3379.0,4.12,-3.99,8.51,-0.06,0.05,-0.04,1.0,q
2943.0,3504.0,979.0,4095.0,4095.0,3169.0,3305.0,3383.0,3.92,-3.91,8.58,-0.06,-0.01,-0.01,1.0,q
2944.0,3519.0,983.0,4095.0,4095.0,3178.0,3312.0,3399.0,4.13,-3.93,8.53,-0.02,-0.04,-0.03,1.0,q
2942.0,3514.0,976.0,4095.0,4095.0,3174.0,3300.0,3376.0,4.0,-3.87,8.48,-0.04,-0.0,0.03,1.0,q
2943.0,3504.0,976.0,4095.0,4095.0,3184.0,3313.0,3392.0,4.0,-3.88,8.4,-0.06,-0.02,-0.02,1.0,q
2952.0,3517.0,976.0,4095.0,4095.0,3174.0,3303.0,3395.0,4.02,-3.93,8.54,-0.04,-0.02,-0.03,1.0,q
2939.0,3510.0,976.0,4095.0,4095.0,3182.0,3310.0,3392.0,4.18,-3.92,8.54,-0.03,0.01,-0.01,1.0,q
2944.0,3500.0,976.0,4095.0,4095.0,3175.0,3307.0,3383.0,3.94,-3.81,8.41,-0.06,-0.01,-0.01,1.0,q
2934.0,3521.0,978.0,4095.0,4095.0,3181.0,3309.0,3390.0,4.1,-3.95,8.48,-0.05,-0.02,0.01,1.0,q
2944.0,3507.0,975.0,4095.0,4095.0,3175.0,3307.0,3392.0,4.1,-3.92,8.48,-0.02,-0.03,-0.04,1.0,q
2961.0,3519.0,977.0,4095.0,4095.0,3179.0,3312.0,3394.0,4.12,-3.74,8.37,-0.02,-0.03,-0.03,1.0,q
2938.0,3520.0,976.0,4095.0,4095.0,3169.0,3293.0,3379.0,4.09,-3.76,8.46,-0.02,0.02,-0.03,1.0,q
2943.0,3522.0,976.0,4095.0,4095.0,3171.0,3299.0,3390.0,4.07,-3.89,8.54,-0.06,-0.02,-0.04,1.0,q
2946.0,3506.0,975.0,4095.0,4095.0,3182.0,3312.0,3403.0,4.12,-3.88,8.48,-0.04,0.02,-0.0,1.0,q
2942.0,3515.0,975.0,4095.0,4095.0,3171.0,3312.0,3397.0,4.04,-3.89,8.56,-0.06,0.02,0.04,1.0,q
2944.0,3523.0,978.0,4095.0,4095.0,3185.0,3298.0,3392.0,3.96,-3.78,8.43,-0.05,-0.03,-0.1,1.0,q
2945.0,3520.0,976.0,4095.0,4095.0,3170.0,3298.0,3391.0,4.1,-3.78,8.54,-0.08,0.01,-0.07,1.0,q
2943.0,3509.0,987.0,4095.0,4095.0,3191.0,3323.0,3407.0,4.0,-3.87,8.59,-0.09,0.03,-0.03,1.0,q
2937.0,3518.0,979.0,4095.0,4095.0,3169.0,3297.0,3393.0,4.04,-3.91,8.66,-0.0,0.03,-0.08,1.0,q
2939.0,3519.0,971.0,4095.0,4095.0,3184.0,3313.0,3408.0,4.0,-3.79,8.53,-0.06,0.02,-0.07,1.0,q
2946.0,3530.0,974.0,4095.0,4095.0,3178.0,3312.0,3412.0,4.12,-3.68,8.57,-0.07,0.03,-0.08,1.0,q
2943.0,3511.0,976.0,4095.0,4095.0,3170.0,3305.0,3399.0,3.9,-3.78,8.59,-0.09,0.04,-0.06,1.0,q
2954.0,3525.0,979.0,4095.0,4095.0,3174.0,3306.0,3408.0,3.88,-3.79,8.63,-0.09,-0.01,-0.09,1.0,q
2934.0,3504.0,975.0,4095.0,4095.0,3175.0,3306.0,3399.0,4.03,-3.75,8.53,-0.1,0.03,-0.04,1.0,q
2944.0,3509.0,983.0,4095.0,4095.0,3175.0,3313.0,3412.0,3.83,-3.95,8.69,-0.05,-0.01,-0.07,1.0,q
2935.0,3523.0,970.0,4095.0,4095.0,3178.0,3297.0,3403.0,4.12,-3.78,8.53,-0.08,-0.01,-0.05,1.0,q
2945.0,3534.0,979.0,4095.0,4095.0,3178.0,3307.0,3408.0,3.82,-3.64,8.55,-0.07,-0.02,-0.05,1.0,q
2937.0,3517.0,973.0,4095.0,4095.0,3175.0,3303.0,3398.0,4.2,-3.93,8.69,-0.07,0.01,-0.03,1.0,q
2957.0,3517.0,973.0,4095.0,4095.0,3181.0,3312.0,3408.0,3.9,-3.77,8.48,-0.06,-0.0,-0.07,1.0,q
2943.0,3513.0,975.0,4095.0,4095.0,3181.0,3310.0,3408.0,4.08,-3.88,8.6,-0.06,0.01,-0.06,1.0,q
2937.0,3515.0,971.0,4095.0,4095.0,3178.0,3312.0,3408.0,4.05,-3.82,8.59,-0.05,0.02,-0.02,1.0,q
2946.0,3521.0,974.0,4095.0,4095.0,3171.0,3302.0,3397.0,4.03,-3.84,8.54,-0.07,0.02,-0.06,1.0,q
2951.0,3514.0,976.0,4095.0,4095.0,3183.0,3314.0,3407.0,4.04,-3.8,8.58,-0.05,0.03,-0.02,1.0,q
2949.0,3519.0,976.0,4095.0,4095.0,3184.0,3322.0,3418.0,4.07,-3.79,8.56,-0.04,0.01,-0.04,1.0,q
2944.0,3522.0,976.0,4095.0,4095.0,3172.0,3312.0,3409.0,3.91,-3.83,8.57,-0.06,0.0,-0.02,1.0,q
2948.0,3525.0,975.0,4095.0,4095.0,3194.0,3319.0,3419.0,4.07,-3.9,8.59,-0.06,-0.01,-0.03,1.0,q
2954.0,3515.0,971.0,4095.0,4095.0,3179.0,3318.0,3423.0,3.88,-3.79,8.65,-0.03,-0.02,-0.06,1.0,q
2947.0,3502.0,973.0,4095.0,4095.0,3171.0,3307.0,3407.0,4.03,-3.87,8.62,-0.06,0.0,-0.07,1.0,q
2946.0,3497.0,973.0,4095.0,4095.0,3184.0,3317.0,3428.0,3.96,-3.86,8.62,-0.07,-0.01,-0.06,1.0,q
2938.0,3507.0,976.0,4095.0,4095.0,3177.0,3312.0,3410.0,4.04,-3.82,8.57,-0.06,0.04,-0.05,1.0,q
2950.0,3511.0,967.0,4095.0,4095.0,3179.0,3312.0,3421.0,3.95,-3.66,8.6,-0.05,0.03,-0.08,1.0,q
2943.0,3506.0,966.0,4095.0,4095.0,3172.0,3311.0,3397.0,3.92,-3.7,8.62,-0.05,0.02,-0.08,1.0,q
2954.0,3517.0,977.0,4095.0,4095.0,3181.0,3314.0,3422.0,3.87,-3.74,8.62,-0.06,0.02,-0.07,1.0,q
2936.0,3498.0,976.0,4095.0,4095.0,3170.0,3303.0,3413.0,3.81,-3.75,8.64,-0.07,-0.01,-0.06,1.0,q
2957.0,3525.0,970.0,4095.0,4095.0,3179.0,3319.0,3425.0,4.04,-3.76,8.63,-0.05,0.02,-0.03,1.0,q
2945.0,3511.0,980.0,4095.0,4095.0,3183.0,3312.0,3415.0,4.12,-3.64,8.59,-0.03,0.07,-0.09,1.0,q
2941.0,3527.0,976.0,4095.0,4095.0,3178.0,3314.0,3415.0,3.83,-3.5,8.55,-0.11,0.06,-0.08,1.0,q
2956.0,3527.0,978.0,4095.0,4095.0,3175.0,3318.0,3424.0,3.64,-3.75,8.72,-0.08,0.02,-0.07,1.0,q
2945.0,3520.0,973.0,4095.0,4095.0,3171.0,3312.0,3421.0,3.74,-3.85,8.72,-0.09,0.0,-0.04,1.0,q
2943.0,3511.0,975.0,4095.0,4095.0,3184.0,3315.0,3417.0,3.68,-3.83,8.6,-0.06,-0.03,-0.02,1.0,q
2946.0,3516.0,973.0,4095.0,4095.0,3176.0,3312.0,3423.0,3.73,-3.9,8.63,-0.04,-0.07,-0.01,1.0,q
2951.0,3520.0,975.0,4095.0,4095.0,3179.0,3322.0,3424.0,4.1,-4.02,8.64,-0.04,0.0,-0.05,1.0,q
2944.0,3507.0,973.0,4095.0,4095.0,3181.0,3313.0,3410.0,3.51,-3.79,8.48,-0.04,-0.01,0.03,1.0,q
2955.0,3517.0,973.0,4095.0,4095.0,3183.0,3326.0,3431.0,4.15,-3.82,8.66,0.01,-0.16,-0.09,1.0,q
2949.0,3501.0,974.0,4095.0,4095.0,3179.0,3311.0,3415.0,4.06,-3.4,8.17,-0.1,-0.07,-0.06,1.0,q
2945.0,3511.0,977.0,4095.0,4095.0,3187.0,3317.0,3433.0,3.99,-3.94,8.48,-0.11,-0.07,0.0,1.0,q
2949.0,3514.0,973.0,4095.0,4095.0,3184.0,3324.0,3426.0,4.24,-3.89,8.53,-0.11,0.06,-0.04,1.0,q
2939.0,3504.0,976.0,4095.0,4095.0,3183.0,3312.0,3421.0,3.93,-3.94,8.56,-0.05,0.15,0.07,1.0,q
2951.0,3520.0,976.0,4095.0,4095.0,3184.0,3319.0,3438.0,4.41,-3.86,8.86,0.07,0.14,-0.04,1.0,q
2943.0,3505.0,976.0,4095.0,4095.0,3179.0,3309.0,3429.0,3.46,-3.65,8.55,0.14,0.1,-0.13,1.0,q
2944.0,3504.0,978.0,4095.0,4095.0,3187.0,3316.0,3431.0,2.89,-2.82,8.59,-0.06,-0.03,-0.03,1.0,q
2947.0,3504.0,972.0,4095.0,4095.0,3181.0,3307.0,3430.0,3.97,-3.78,8.71,-0.18,-0.05,0.1,1.0,q
2954.0,3521.0,970.0,4095.0,4095.0,3185.0,3324.0,3441.0,3.77,-4.24,8.93,-0.11,-0.05,-0.08,1.0,q
2941.0,3516.0,975.0,4095.0,4095.0,3184.0,3306.0,3423.0,3.67,-3.65,8.61,0.01,-0.03,-0.02,1.0,q
2954.0,3519.0,976.0,4095.0,4095.0,3188.0,3316.0,3439.0,3.81,-3.64,8.59,-0.03,-0.09,-0.03,1.0,q
2942.0,3511.0,972.0,4095.0,4095.0,3181.0,3312.0,3433.0,4.02,-3.51,8.54,-0.07,-0.07,0.04,1.0,q
2941.0,3504.0,976.0,4095.0,4095.0,3194.0,3312.0,3433.0,4.02,-3.86,8.59,-0.12,-0.05,-0.06,1.0,q
2950.0,3515.0,975.0,4095.0,4095.0,3197.0,3317.0,3431.0,4.07,-3.83,8.65,-0.08,-0.06,-0.01,1.0,q
2946.0,3530.0,976.0,4095.0,4095.0,3184.0,3312.0,3430.0,4.13,-3.97,8.59,-0.09,-0.07,-0.11,1.0,q
2942.0,3520.0,981.0,4095.0,4095.0,3185.0,3316.0,3440.0,4.15,-3.88,8.53,-0.05,0.02,0.0,1.0,q
2940.0,3518.0,969.0,4095.0,4095.0,3183.0,3309.0,3428.0,4.34,-3.8,8.52,-0.07,0.08,0.01,1.0,q
2950.0,3543.0,978.0,4095.0,4095.0,3184.0,3312.0,3438.0,4.15,-4.12,8.9,0.05,0.01,-0.12,1.0,q
2938.0,3516.0,972.0,4095.0,4095.0,3187.0,3317.0,3436.0,3.75,-3.17,8.45,0.15,-0.16,-0.18,1.0,q
2945.0,3511.0,973.0,4095.0,4095.0,3195.0,3325.0,3437.0,4.26,-3.23,8.43,-0.01,0.04,0.12,1.0,q
2929.0,3511.0,971.0,4095.0,4095.0,3182.0,3313.0,3437.0,4.21,-3.34,8.56,-0.04,0.05,0.03,1.0,q
2944.0,3500.0,976.0,4095.0,4095.0,3185.0,3312.0,3433.0,4.11,-3.63,8.74,-0.1,0.09,0.12,1.0,q
2949.0,3482.0,4001.0,4095.0,4095.0,3111.0,3185.0,3152.0,4.52,-1.56,8.77,-0.11,-0.0,0.02,1.0,q
2944.0,3492.0,4016.0,4095.0,4095.0,3118.0,3183.0,3145.0,4.68,-1.51,8.77,-0.12,-0.03,-0.0,1.0,q
2944.0,3491.0,4015.0,4095.0,4095.0,3120.0,3185.0,3151.0,4.89,-1.92,9.15,0.0,0.03,-0.05,1.0,q
2954.0,3474.0,3988.0,4095.0,4095.0,3123.0,3191.0,3149.0,4.73,-1.86,9.04,-0.06,0.03,-0.02,1.0,q
2935.0,3472.0,3958.0,4095.0,4095.0,3117.0,3184.0,3151.0,4.62,-1.77,8.98,-0.03,-0.03,-0.01,1.0,q
2948.0,3507.0,4029.0,4095.0,4095.0,3120.0,3184.0,3154.0,4.81,-1.63,9.02,0.05,0.02,-0.04,1.0,q
2943.0,3509.0,3985.0,4095.0,4095.0,3119.0,3187.0,3157.0,4.57,-1.58,8.96,-0.07,0.02,0.04,1.0,q
2947.0,3503.0,4009.0,4095.0,4095.0,3127.0,3195.0,3170.0,4.56,-1.52,8.86,-0.07,-0.05,-0.07,1.0,q
2930.0,3513.0,3999.0,4095.0,4095.0,3125.0,3184.0,3169.0,4.64,-1.72,9.02,-0.06,-0.02,-0.02,1.0,q
2939.0,3510.0,3994.0,4095.0,4095.0,3122.0,3199.0,3183.0,4.63,-1.78,9.06,-0.03,-0.0,-0.01,1.0,q
2947.0,3532.0,3984.0,4095.0,4095.0,3120.0,3190.0,3177.0,4.66,-1.65,8.96,-0.06,-0.01,-0.01,1.0,q
2938.0,3514.0,4007.0,4095.0,4095.0,3133.0,3196.0,3183.0,4.61,-1.62,8.93,-0.05,0.03,-0.04,1.0,q
2934.0,3497.0,3974.0,4095.0,4095.0,3127.0,3189.0,3184.0,4.51,-1.71,9.03,-0.09,0.0,-0.05,1.0,q
2957.0,3529.0,4003.0,4095.0,4095.0,3125.0,3190.0,3184.0,4.68,-1.75,9.01,-0.06,0.04,-0.01,1.0,q
2944.0,3503.0,4002.0,4095.0,4095.0,3125.0,3184.0,3191.0,4.57,-1.65,8.94,-0.07,-0.02,-0.1,1.0,q
2937.0,3506.0,4012.0,4095.0,4095.0,3125.0,3197.0,3183.0,4.45,-1.62,8.94,-0.07,0.01,-0.1,1.0,q
2943.0,3517.0,3995.0,4095.0,4095.0,3133.0,3198.0,3193.0,4.7,-1.8,9.2,-0.04,0.02,0.02,1.0,q
2949.0,3499.0,3997.0,4095.0,4095.0,3120.0,3187.0,3184.0,4.7,-1.67,8.95,-0.06,0.03,-0.03,1.0,q
2944.0,3517.0,4015.0,4095.0,4095.0,3130.0,3195.0,3202.0,4.74,-1.58,9.01,-0.07,-0.02,-0.03,1.0,q
2934.0,3505.0,3991.0,4095.0,4095.0,3133.0,3199.0,3187.0,4.6,-1.72,9.02,-0.08,-0.03,-0.09,1.0,q
2928.0,3518.0,3991.0,4095.0,4095.0,3136.0,3207.0,3198.0,4.64,-1.83,9.13,-0.06,0.0,-0.04,1.0,q
2951.0,3529.0,4016.0,4095.0,4095.0,3129.0,3210.0,3199.0,4.48,-1.74,8.95,-0.07,0.01,-0.02,1.0,q
2928.0,3519.0,3993.0,4095.0,4095.0,3138.0,3206.0,3194.0,4.8,-1.81,9.08,-0.12,0.03,-0.05,1.0,q
2937.0,3520.0,3984.0,4095.0,4095.0,3123.0,3201.0,3195.0,4.66,-1.98,9.03,-0.12,-0.01,-0.06,1.0,q
2949.0,3533.0,4011.0,4095.0,4095.0,3135.0,3199.0,3198.0,4.33,-1.75,8.96,-0.1,0.04,0.05,1.0,q
2938.0,3504.0,3984.0,4095.0,4095.0,3129.0,3207.0,3199.0,4.74,-2.01,9.02,-0.09,0.01,0.07,1.0,q
2944.0,3536.0,4009.0,4095.0,4095.0,3137.0,3209.0,3200.0,4.61,-1.82,8.91,-0.02,0.04,0.0,1.0,q
2953.0,3529.0,4000.0,4095.0,4095.0,3126.0,3200.0,3200.0,4.51,-1.89,9.0,-0.07,0.06,-0.04,1.0,q
2943.0,3539.0,4034.0,4095.0,4095.0,3122.0,3200.0,3197.0,4.2,-2.06,9.05,-0.06,0.0,-0.02,1.0,q
2943.0,3517.0,3995.0,4095.0,4095.0,3126.0,3205.0,3203.0,4.35,-1.99,9.09,-0.09,0.11,0.12,1.0,q
2949.0,3531.0,4001.0,4095.0,4095.0,3126.0,3207.0,3213.0,4.47,-1.97,8.94,-0.06,-0.03,-0.12,1.0,q
2949.0,3520.0,3995.0,4095.0,4095.0,3121.0,3201.0,3205.0,4.15,-2.17,9.12,-0.1,0.01,-0.05,1.0,q
2945.0,3521.0,3999.0,4095.0,4095.0,3133.0,3211.0,3216.0,4.34,-1.87,9.08,-0.03,0.07,-0.03,1.0,q
2943.0,3530.0,3987.0,4095.0,4095.0,3126.0,3205.0,3211.0,4.04,-1.92,8.98,-0.11,-0.03,-0.02,1.0,q
2947.0,3520.0,3985.0,4095.0,4095.0,3125.0,3207.0,3218.0,4.39,-2.17,9.24,-0.05,0.04,-0.03,1.0,q
2945.0,3520.0,3999.0,4095.0,4095.0,3141.0,3217.0,3227.0,4.25,-2.02,9.1,-0.08,0.01,-0.03,1.0,q
2943.0,3504.0,3990.0,4095.0,4095.0,3123.0,3200.0,3219.0,4.09,-1.96,9.1,-0.09,0.01,-0.02,1.0,q
2945.0,3520.0,4013.0,4095.0,4095.0,3134.0,3215.0,3229.0,4.17,-2.18,9.19,-0.08,0.01,-0.01,1.0,q
2939.0,3505.0,3984.0,4095.0,4095.0,3133.0,3212.0,3219.0,4.27,-2.19,9.26,-0.11,0.05,0.03,1.0,q
2936.0,3522.0,4005.0,4095.0,4095.0,3132.0,3216.0,3224.0,4.23,-2.16,9.2,-0.08,0.01,-0.03,1.0,q
2943.0,3514.0,3978.0,4095.0,4095.0,3127.0,3211.0,3223.0,4.19,-2.17,9.23,-0.03,0.03,-0.06,1.0,q
2951.0,3519.0,4012.0,4095.0,4095.0,3136.0,3216.0,3229.0,3.91,-2.12,9.05,-0.06,0.02,-0.01,1.0,q
2939.0,3507.0,3990.0,4095.0,4095.0,3143.0,3219.0,3232.0,4.13,-2.07,9.24,-0.05,-0.01,-0.01,1.0,q
2945.0,3504.0,3984.0,4095.0,4095.0,3130.0,3211.0,3219.0,4.44,-2.32,9.05,0.02,0.03,-0.03,1.0,q
2944.0,3521.0,4016.0,4095.0,4095.0,3131.0,3216.0,3217.0,4.1,-1.95,9.1,-0.06,0.01,-0.08,1.0,q
2941.0,3511.0,3982.0,4095.0,4095.0,3130.0,3215.0,3217.0,4.01,-1.98,9.17,-0.1,0.02,-0.01,1.0,q
2946.0,3504.0,3989.0,4095.0,4095.0,3136.0,3215.0,3216.0,4.3,-2.09,9.09,-0.04,0.03,-0.04,1.0,q
2943.0,3520.0,3997.0,4095.0,4095.0,3133.0,3206.0,3211.0,4.16,-2.01,8.94,-0.17,0.02,-0.01,1.0,q
2943.0,3527.0,4010.0,4095.0,4095.0,3137.0,3216.0,3229.0,4.11,-2.19,9.21,-0.02,-0.01,-0.09,1.0,q
2943.0,3491.0,3975.0,4095.0,4095.0,3136.0,3216.0,3229.0,4.0,-2.25,9.22,-0.02,0.05,0.04,1.0,q
2946.0,3511.0,3988.0,4095.0,4095.0,3135.0,3214.0,3233.0,4.09,-2.19,9.16,-0.07,-0.03,-0.05,1.0,q
2942.0,3520.0,3976.0,4095.0,4095.0,3128.0,3215.0,3230.0,4.16,-2.23,9.25,-0.02,0.02,-0.03,1.0,q
2943.0,3526.0,4006.0,4095.0,4095.0,3147.0,3216.0,3230.0,3.96,-2.02,9.02,-0.03,0.02,-0.07,1.0,q
2941.0,3499.0,3996.0,4095.0,4095.0,3131.0,3211.0,3227.0,3.99,-2.09,9.1,-0.07,-0.01,-0.02,1.0,q
2946.0,3509.0,4012.0,4095.0,4095.0,3133.0,3217.0,3246.0,4.2,-2.17,9.17,-0.07,-0.03,-0.02,1.0,q
2944.0,3511.0,3991.0,4095.0,4095.0,3137.0,3219.0,3231.0,4.44,-2.12,9.14,-0.09,-0.01,-0.09,1.0,q
2928.0,3503.0,3985.0,4095.0,4095.0,3133.0,3211.0,3232.0,4.44,-2.23,9.32,-0.05,0.09,-0.18,1.0,q
2949.0,3507.0,3981.0,4095.0,4095.0,3138.0,3219.0,3248.0,3.56,-1.84,9.03,-0.06,0.05,-0.13,1.0,q
2941.0,3504.0,3986.0,4095.0,4095.0,3127.0,3216.0,3243.0,3.82,-2.11,9.19,-0.09,-0.01,0.02,1.0,q
2941.0,3519.0,4002.0,4095.0,4095.0,3135.0,3217.0,3239.0,4.34,-2.08,9.33,-0.01,0.01,-0.01,1.0,q
2944.0,3506.0,3997.0,4095.0,4095.0,3129.0,3217.0,3254.0,4.2,-1.85,9.3,-0.07,0.02,-0.05,1.0,q
2943.0,3495.0,3991.0,4095.0,4095.0,3133.0,3221.0,3248.0,4.02,-1.85,9.2,-0.01,0.02,-0.08,1.0,q
2949.0,3535.0,4010.0,4095.0,4095.0,3139.0,3228.0,3250.0,3.87,-1.87,9.24,-0.08,-0.01,-0.07,1.0,q
2944.0,3494.0,3990.0,4095.0,4095.0,3136.0,3223.0,3251.0,3.96,-2.03,9.38,-0.1,-0.01,0.02,1.0,q
2943.0,3519.0,4002.0,4095.0,4095.0,3137.0,3218.0,3261.0,4.17,-1.81,9.21,-0.02,0.02,0.0,1.0,q
2934.0,3517.0,3994.0,4095.0,4095.0,3143.0,3231.0,3261.0,3.98,-1.85,9.49,-0.02,0.05,-0.03,1.0,q
2935.0,3495.0,3994.0,4095.0,4095.0,3130.0,3215.0,3253.0,3.78,-2.2,9.22,0.04,0.11,0.18,1.0,q
2951.0,3515.0,3997.0,4095.0,4095.0,3146.0,3234.0,3257.0,4.53,-1.71,9.5,0.08,0.14,0.09,1.0,q
2925.0,3505.0,3986.0,4095.0,4095.0,3137.0,3223.0,3248.0,2.92,-1.27,9.05,-0.09,-0.02,-0.18,1.0,q
2942.0,3494.0,3997.0,4095.0,4095.0,3151.0,3230.0,3257.0,3.06,-2.12,9.22,-0.04,-0.22,-0.06,1.0,q
2942.0,3504.0,3984.0,4095.0,4095.0,3139.0,3221.0,3251.0,4.63,-2.01,9.64,-0.09,0.13,0.23,1.0,q
2947.0,3510.0,4016.0,4095.0,4095.0,3144.0,3219.0,3266.0,3.75,-1.71,9.31,-0.01,0.06,-0.12,1.0,q
2938.0,3499.0,3974.0,4095.0,4095.0,3141.0,3219.0,3250.0,3.25,-1.69,9.54,0.05,0.01,-0.11,1.0,q
2938.0,3514.0,4018.0,4095.0,4095.0,3143.0,3220.0,3259.0,3.64,-1.57,9.32,-0.09,0.03,0.04,1.0,q
2943.0,3502.0,3988.0,4095.0,4095.0,3137.0,3218.0,3263.0,3.94,-1.85,9.69,-0.05,0.0,0.04,1.0,q
2946.0,3505.0,3991.0,4095.0,4095.0,3140.0,3234.0,3278.0,3.54,-1.95,9.54,-0.04,-0.01,-0.06,1.0,q
2940.0,3509.0,3984.0,4095.0,4095.0,3138.0,3216.0,3267.0,3.66,-1.53,9.25,-0.07,0.04,-0.01,1.0,q
2950.0,3511.0,3990.0,4095.0,4095.0,3131.0,3222.0,3265.0,3.43,-1.98,9.65,-0.13,0.07,-0.04,1.0,q
2965.0,3511.0,3984.0,4095.0,4095.0,3147.0,3235.0,3279.0,3.51,-2.0,9.68,0.08,0.06,0.04,1.0,q
2951.0,3503.0,3984.0,4095.0,4095.0,3136.0,3219.0,3267.0,3.47,-1.47,9.36,0.08,0.18,0.11,1.0,q
2949.0,3520.0,3987.0,4095.0,4095.0,3158.0,3226.0,3278.0,3.22,-1.96,9.27,-0.14,-0.2,-0.06,1.0,q
2938.0,3502.0,3981.0,4095.0,4095.0,3159.0,3233.0,3268.0,3.78,-2.43,9.3,-0.12,-0.13,-0.05,1.0,q
2949.0,3518.0,4012.0,4095.0,4095.0,3159.0,3219.0,3275.0,4.46,-2.3,10.02,0.11,0.02,0.01,1.0,q
2939.0,3527.0,4002.0,4095.0,4095.0,3152.0,3228.0,3274.0,3.84,-1.37,9.64,0.29,0.2,-0.18,1.0,q
2938.0,3496.0,3973.0,4095.0,4095.0,3152.0,3224.0,3274.0,3.91,-1.81,9.1,-0.06,0.22,-0.07,1.0,q
2939.0,3515.0,4001.0,4095.0,4095.0,3165.0,3238.0,3275.0,3.1,-1.71,9.97,-0.03,0.08,-0.15,1.0,q
2935.0,3513.0,3990.0,4095.0,4095.0,3152.0,3226.0,3270.0,2.43,-1.05,9.62,0.16,0.03,-0.24,1.0,q
2947.0,3504.0,4014.0,4095.0,4095.0,3155.0,3227.0,3280.0,2.32,-0.49,8.73,0.08,0.15,0.18,1.0,q
2934.0,3521.0,4007.0,4095.0,4095.0,3152.0,3223.0,3280.0,3.87,-1.34,10.02,-0.15,0.13,0.12,1.0,q
2946.0,3518.0,4000.0,4095.0,4095.0,3152.0,3226.0,3280.0,2.97,-0.91,9.87,-0.04,0.15,-0.06,1.0,q
2941.0,3508.0,3984.0,4095.0,4095.0,3153.0,3219.0,3275.0,2.03,-0.77,9.5,-0.03,0.12,-0.02,1.0,q
2937.0,3536.0,4009.0,4095.0,4095.0,3151.0,3234.0,3280.0,2.22,-0.86,9.66,-0.06,0.03,0.08,1.0,q
2933.0,3504.0,3981.0,4095.0,4095.0,3154.0,3227.0,3279.0,2.55,-0.85,9.87,-0.1,-0.05,-0.02,1.0,q
2943.0,3513.0,4002.0,4095.0,4095.0,3162.0,3237.0,3279.0,2.36,-0.89,9.71,-0.13,-0.01,0.02,1.0,q
2944.0,3503.0,3987.0,4095.0,4095.0,3152.0,3237.0,3282.0,2.32,-1.47,9.76,-0.12,0.09,0.06,1.0,q
2945.0,3511.0,3985.0,4095.0,4095.0,3152.0,3242.0,3274.0,1.85,-1.7,10.05,-0.16,0.04,0.07,1.0,q
2955.0,3513.0,3979.0,4095.0,4095.0,3157.0,3248.0,3280.0,1.98,-1.88,10.17,-0.04,0.0,0.12,1.0,q
2954.0,3504.0,3984.0,4095.0,4095.0,3159.0,3235.0,3280.0,2.41,-1.78,9.6,0.01,-0.19,0.17,1.0,q
2941.0,3546.0,3999.0,4095.0,4095.0,3167.0,3239.0,3269.0,3.52,-2.43,10.44,0.01,-0.82,-0.08,1.0,q
2946.0,3546.0,4002.0,4095.0,4095.0,3169.0,3229.0,3254.0,3.22,-1.03,9.64,0.06,-0.13,-0.09,1.0,q
2946.0,3532.0,3983.0,4095.0,4095.0,3174.0,3234.0,3274.0,2.61,-1.71,9.52,-0.2,-0.28,-0.28,1.0,q
2944.0,3535.0,3973.0,4095.0,4095.0,3178.0,3248.0,3275.0,2.75,-2.75,9.81,-0.28,-0.22,0.29,1.0,q
2943.0,3525.0,3993.0,4095.0,4095.0,3187.0,3248.0,3280.0,3.71,-2.77,9.84,-0.03,0.01,-0.07,1.0,q
2933.0,3541.0,3984.0,4095.0,4095.0,3183.0,3235.0,3281.0,3.38,-2.6,9.63,-0.1,0.02,-0.0,1.0,q
2937.0,3551.0,3974.0,4095.0,4095.0,3184.0,3248.0,3280.0,3.6,-2.48,9.63,0.11,0.05,-0.02,1.0,q
2943.0,3523.0,3977.0,4095.0,4095.0,3173.0,3238.0,3271.0,3.68,-2.23,9.72,0.16,0.2,0.03,1.0,q
2958.0,3551.0,4018.0,4095.0,4095.0,3168.0,3241.0,3291.0,2.93,-1.51,9.27,0.11,0.16,-0.09,1.0,q
2942.0,3545.0,3982.0,4095.0,4095.0,3171.0,3239.0,3280.0,2.92,-1.36,9.48,-0.2,-0.01,-0.12,1.0,q
2935.0,3543.0,4003.0,4095.0,4095.0,3182.0,3247.0,3274.0,2.37,-2.33,10.01,-0.0,0.05,-0.22,1.0,q
2941.0,3551.0,3984.0,4095.0,4095.0,3175.0,3238.0,3278.0,2.66,-1.65,9.54,-0.08,-0.06,-0.14,1.0,q
2953.0,3539.0,3988.0,4095.0,4095.0,3184.0,3250.0,3280.0,3.25,-1.65,9.67,-0.17,-0.08,-0.15,1.0,q
2944.0,3530.0,4001.0,4095.0,4095.0,3179.0,3247.0,3280.0,3.75,-1.72,9.23,-0.12,0.08,-0.24,1.0,q
2946.0,3536.0,3997.0,4095.0,4095.0,3189.0,3254.0,3287.0,3.16,-2.01,9.92,-0.28,0.02,-0.28,1.0,q
2939.0,3551.0,3995.0,4095.0,4095.0,3168.0,3248.0,3277.0,2.42,-2.09,9.87,-0.06,-0.2,-0.42,1.0,q
2946.0,3548.0,4003.0,4095.0,4095.0,3177.0,3243.0,3287.0,3.26,-1.93,9.4,-0.04,-0.07,-0.11,1.0,q
2951.0,3541.0,3995.0,4095.0,4095.0,3177.0,3261.0,3295.0,3.63,-1.76,9.4,-0.06,-0.11,-0.05,1.0,q
2929.0,3529.0,3983.0,4095.0,4095.0,3171.0,3249.0,3282.0,3.43,-1.62,9.34,-0.03,-0.09,0.18,1.0,q
2941.0,3545.0,4007.0,4095.0,4095.0,3177.0,3247.0,3281.0,4.09,-1.72,9.27,0.0,0.01,0.19,1.0,q
2939.0,3533.0,3967.0,4095.0,4095.0,3168.0,3244.0,3280.0,3.85,-2.04,9.69,-0.14,0.08,0.01,1.0,q
2945.0,3531.0,4007.0,4095.0,4095.0,3177.0,3247.0,3285.0,3.56,-2.1,9.46,-0.02,0.07,0.0,1.0,q
2943.0,3522.0,3989.0,4095.0,4095.0,3164.0,3233.0,3280.0,3.09,-2.26,9.56,-0.1,-0.08,-0.06,1.0,q
2943.0,3523.0,3994.0,4095.0,4095.0,3178.0,3249.0,3290.0,3.46,-2.17,9.59,-0.11,0.03,0.01,1.0,q
2944.0,3531.0,3999.0,4095.0,4095.0,3163.0,3235.0,3281.0,3.34,-2.02,9.39,-0.05,-0.07,-0.07,1.0,q
2945.0,3536.0,3995.0,4095.0,4095.0,3183.0,3243.0,3287.0,3.79,-2.01,9.36,-0.08,-0.05,-0.12,1.0,q
2941.0,3509.0,4009.0,4095.0,4095.0,3179.0,3244.0,3280.0,3.72,-2.15,9.69,-0.07,-0.02,-0.05,1.0,q
2937.0,3523.0,4005.0,4095.0,4095.0,3182.0,3243.0,3280.0,3.27,-1.62,8.99,-0.05,0.09,-0.06,1.0,q
2943.0,3517.0,3998.0,4095.0,4095.0,3178.0,3243.0,3286.0,3.37,-2.07,9.65,-0.14,0.04,-0.01,1.0,q
2947.0,3531.0,3986.0,4095.0,4095.0,3184.0,3250.0,3301.0,3.38,-2.07,9.36,-0.07,0.07,0.02,1.0,q
2933.0,3520.0,4013.0,4095.0,4095.0,3169.0,3246.0,3294.0,3.28,-2.11,9.51,-0.07,-0.01,-0.1,1.0,q
2944.0,3526.0,4013.0,4095.0,4095.0,3184.0,3254.0,3295.0,3.25,-2.13,9.64,-0.06,0.02,-0.06,1.0,q
2934.0,3515.0,3968.0,4095.0,4095.0,3168.0,3243.0,3292.0,3.08,-2.17,9.47,-0.05,0.07,-0.12,1.0,q
2938.0,3508.0,3989.0,4095.0,4095.0,3174.0,3238.0,3287.0,3.05,-2.11,9.69,0.0,0.05,0.06,1.0,q
2941.0,3504.0,4001.0,4095.0,4095.0,3165.0,3254.0,3301.0,3.52,-1.65,9.39,0.06,0.07,0.03,1.0,q
2934.0,3495.0,3986.0,4095.0,4095.0,3167.0,3243.0,3294.0,2.92,-1.49,9.22,-0.06,0.01,-0.11,1.0,q
2944.0,3504.0,4014.0,4095.0,4095.0,3174.0,3249.0,3301.0,2.73,-2.5,9.86,-0.11,-0.1,-0.11,1.0,q
2939.0,3505.0,3991.0,4095.0,4095.0,3159.0,3248.0,3293.0,3.06,-1.86,9.53,-0.02,-0.0,-0.04,1.0,q
2947.0,3511.0,4003.0,4095.0,4095.0,3178.0,3251.0,3293.0,3.41,-2.0,9.61,-0.07,-0.05,-0.0,1.0,q
2944.0,3525.0,4017.0,4095.0,4095.0,3164.0,3248.0,3297.0,3.33,-1.81,9.49,-0.06,0.02,-0.02,1.0,q
2958.0,3518.0,3987.0,4095.0,4095.0,3188.0,3259.0,3317.0,3.25,-1.86,9.54,-0.03,0.01,-0.11,1.0,q
2945.0,3518.0,3984.0,4095.0,4095.0,3167.0,3249.0,3307.0,3.08,-1.78,9.58,0.01,0.08,-0.03,1.0,q
2942.0,3506.0,3995.0,4095.0,4095.0,3156.0,3247.0,3315.0,3.02,-1.84,9.61,-0.08,-0.01,-0.06,1.0,q
2950.0,3519.0,3990.0,4095.0,4095.0,3158.0,3250.0,3313.0,2.82,-1.86,9.46,-0.1,0.01,-0.05,1.0,q
2960.0,3532.0,3998.0,4095.0,4095.0,3171.0,3258.0,3325.0,2.67,-1.92,9.6,-0.09,-0.01,-0.07,1.0,q
2946.0,3519.0,3985.0,4095.0,4095.0,3171.0,3248.0,3315.0,2.84,-1.79,9.64,-0.15,-0.01,-0.03,1.0,q
2941.0,3531.0,4005.0,4095.0,4095.0,3169.0,3245.0,3311.0,3.31,-2.12,9.41,-0.14,-0.17,0.0,1.0,q
2939.0,3525.0,4002.0,4095.0,4095.0,3159.0,3247.0,3311.0,3.33,-2.32,9.72,-0.06,-0.04,-0.12,1.0,q
2941.0,3525.0,4016.0,4095.0,4095.0,3181.0,3259.0,3325.0,3.01,-1.79,9.5,-0.04,0.01,-0.1,1.0,q
2943.0,3507.0,3986.0,4095.0,4095.0,3171.0,3250.0,3315.0,3.03,-2.12,9.56,-0.05,0.04,0.0,1.0,q
2939.0,3533.0,4016.0,4095.0,4095.0,3174.0,3257.0,3314.0,3.11,-1.92,9.59,-0.01,0.0,0.02,1.0,q
2929.0,3504.0,3978.0,4095.0,4095.0,3173.0,3250.0,3314.0,3.04,-1.92,9.47,-0.02,-0.03,-0.03,1.0,q
2951.0,3511.0,3997.0,4095.0,4095.0,3172.0,3257.0,3330.0,3.2,-1.95,9.65,-0.1,0.03,-0.01,1.0,q
2941.0,3514.0,3985.0,4095.0,4095.0,3169.0,3247.0,3319.0,3.21,-1.94,9.6,-0.04,0.02,-0.04,1.0,q
2946.0,3507.0,3983.0,4095.0,4095.0,3175.0,3254.0,3328.0,3.04,-1.91,9.45,-0.09,-0.02,-0.1,1.0,q
2941.0,3505.0,3979.0,4095.0,4095.0,3165.0,3254.0,3327.0,2.91,-1.86,9.5,-0.1,-0.02,-0.03,1.0,q
2933.0,3504.0,3994.0,4095.0,4095.0,3161.0,3249.0,3316.0,3.24,-2.44,9.71,-0.08,0.01,-0.0,1.0,q
2955.0,3522.0,4016.0,4095.0,4095.0,3169.0,3252.0,3338.0,3.39,-1.95,9.81,-0.08,0.1,0.02,1.0,q
2935.0,3519.0,3985.0,4095.0,4095.0,3162.0,3251.0,3321.0,2.93,-1.93,9.46,-0.03,0.03,-0.05,1.0,q
2935.0,3520.0,4021.0,4095.0,4095.0,3172.0,3248.0,3333.0,2.73,-1.87,9.22,-0.12,-0.18,-0.18,1.0,q
2935.0,3504.0,3977.0,4095.0,4095.0,3167.0,3249.0,3319.0,3.33,-2.53,9.78,-0.21,-0.03,-0.04,1.0,q
2941.0,3532.0,4018.0,4095.0,4095.0,3167.0,3248.0,3319.0,2.88,-1.98,9.39,0.07,0.02,-0.06,1.0,q
2938.0,3504.0,3989.0,4095.0,4095.0,3164.0,3255.0,3324.0,2.44,-1.57,9.53,0.05,-0.09,0.04,1.0,q
2930.0,3509.0,3993.0,4095.0,4095.0,3165.0,3261.0,3338.0,2.61,-2.03,10.24,-0.09,-0.08,0.17,1.0,q
2943.0,3522.0,3997.0,4095.0,4095.0,3166.0,3249.0,3328.0,1.96,-1.9,10.13,0.04,-0.11,0.27,1.0,q
2953.0,3517.0,4016.0,4095.0,4095.0,3175.0,3254.0,3329.0,3.14,-0.87,8.91,0.01,0.13,0.34,1.0,q
2945.0,3518.0,3990.0,4095.0,4095.0,3162.0,3247.0,3329.0,2.34,-0.64,8.98,-0.48,0.45,0.23,1.0,q
2947.0,3523.0,4013.0,4095.0,4095.0,3170.0,3249.0,3322.0,1.27,-3.04,10.35,0.15,-0.57,-0.58,1.0,q
2943.0,3513.0,4007.0,4095.0,4095.0,3164.0,3251.0,3323.0,1.98,-2.33,10.4,-0.12,0.1,0.33,1.0,q
2947.0,3522.0,4003.0,4095.0,4095.0,3162.0,3263.0,3341.0,2.46,-1.2,9.54,0.09,-0.01,-0.0,1.0,q
2943.0,3511.0,4019.0,4095.0,4095.0,3173.0,3262.0,3331.0,2.41,-2.04,9.58,-0.14,-0.16,-0.12,1.0,q
2940.0,3489.0,3986.0,4095.0,4095.0,3170.0,3247.0,3312.0,3.02,-2.25,9.81,-0.37,-0.02,0.01,1.0,q
2943.0,3518.0,3989.0,4095.0,4095.0,3184.0,3255.0,3337.0,2.41,-2.23,9.84,-0.07,-0.26,-0.12,1.0,q
2955.0,3510.0,3982.0,4095.0,4095.0,3181.0,3250.0,3327.0,2.25,-2.17,9.36,-0.15,-0.23,-0.09,1.0,q
2942.0,3529.0,3984.0,4095.0,4095.0,3182.0,3260.0,3340.0,2.58,-2.84,10.35,-0.1,-0.08,0.03,1.0,q
2931.0,3516.0,4004.0,4095.0,4095.0,3181.0,3257.0,3329.0,2.2,-2.33,10.06,0.16,0.08,0.09,1.0,q
2942.0,3509.0,3995.0,4095.0,4095.0,3175.0,3262.0,3338.0,2.37,-2.26,8.67,0.07,0.09,0.24,1.0,q
2932.0,3511.0,4015.0,4095.0,4095.0,3169.0,3248.0,3316.0,3.56,-2.85,9.53,-0.15,0.11,-0.01,1.0,q
2949.0,3518.0,4007.0,4095.0,4095.0,3155.0,3238.0,3325.0,2.5,-2.06,9.45,-0.12,0.0,-0.19,1.0,q
2940.0,3510.0,4006.0,4095.0,4095.0,3170.0,3253.0,3331.0,2.53,-2.22,9.54,-0.19,0.3,0.06,1.0,q
2949.0,3520.0,4001.0,4095.0,4095.0,3166.0,3249.0,3329.0,1.76,-2.82,9.95,-0.09,0.13,-0.01,1.0,q
2941.0,3522.0,3994.0,4095.0,4095.0,3167.0,3251.0,3335.0,1.74,-1.91,9.62,0.1,0.31,0.19,1.0,q
2953.0,3502.0,3989.0,4095.0,4095.0,3188.0,3260.0,3343.0,2.83,-2.08,9.43,-0.31,-0.2,-0.01,1.0,q
2939.0,3485.0,3989.0,4095.0,4095.0,3167.0,3248.0,3331.0,3.73,-2.2,9.87,-0.24,0.1,-0.04,1.0,q
2937.0,3470.0,4000.0,4095.0,4095.0,3184.0,3261.0,3341.0,3.48,-3.47,10.3,-0.01,0.05,-0.12,1.0,q
2944.0,3485.0,3986.0,4095.0,4095.0,3173.0,3249.0,3338.0,3.33,-2.12,9.31,0.12,-0.07,-0.16,1.0,q
2942.0,3487.0,3995.0,4095.0,4095.0,3184.0,3254.0,3342.0,2.87,-2.02,9.53,-0.01,0.02,-0.07,1.0,q
2943.0,3483.0,3979.0,4095.0,4095.0,3178.0,3248.0,3339.0,3.03,-1.83,9.39,0.01,0.01,-0.07,1.0,q
2944.0,3502.0,4005.0,4095.0,4095.0,3178.0,3248.0,3330.0,3.3,-1.94,9.48,-0.05,0.12,-0.01,1.0,q
2949.0,3497.0,3994.0,4095.0,4095.0,3179.0,3259.0,3339.0,3.28,-1.21,9.21,0.01,0.04,0.02,1.0,q
2941.0,3487.0,3995.0,4095.0,4095.0,3181.0,3254.0,3340.0,2.45,-1.65,9.66,-0.04,0.01,-0.03,1.0,q
2945.0,3493.0,4011.0,4095.0,4095.0,3173.0,3262.0,3353.0,2.99,-2.18,9.46,-0.15,-0.09,0.07,1.0,q
2934.0,3472.0,3999.0,4095.0,4095.0,3175.0,3258.0,3336.0,3.53,-1.99,9.74,-0.23,-0.01,-0.07,1.0,q
2942.0,3467.0,3979.0,4095.0,4095.0,3184.0,3259.0,3342.0,2.45,-2.31,9.52,0.02,-0.04,-0.31,1.0,q
2941.0,3499.0,3994.0,4095.0,4095.0,3179.0,3259.0,3337.0,2.61,-2.19,9.58,-0.1,-0.14,-0.03,1.0,q
2944.0,3502.0,3994.0,4095.0,4095.0,3184.0,3257.0,3338.0,3.0,-1.75,9.33,-0.22,-0.2,0.25,1.0,q
2933.0,3475.0,4007.0,4095.0,4095.0,3203.0,3248.0,3323.0,4.05,-2.35,9.46,-0.12,-0.12,0.11,1.0,q
2934.0,3509.0,4010.0,4095.0,4095.0,3213.0,3257.0,3328.0,3.75,-2.33,9.35,-0.08,-0.08,-0.03,1.0,q
2929.0,3489.0,3993.0,4095.0,4095.0,3206.0,3261.0,3324.0,3.55,-2.32,9.29,-0.1,0.02,-0.12,1.0,q
2944.0,3510.0,4010.0,4095.0,4095.0,3201.0,3259.0,3332.0,3.77,-2.36,9.53,-0.02,-0.04,-0.03,1.0,q
2938.0,3503.0,3999.0,4095.0,4095.0,3209.0,3265.0,3339.0,3.58,-2.03,8.88,-0.11,0.02,-0.01,1.0,q
2933.0,3502.0,4011.0,4095.0,4095.0,3193.0,3253.0,3323.0,3.71,-2.98,9.97,0.07,-0.02,0.01,1.0,q
2950.0,3056.0,3686.0,4095.0,4095.0,3399.0,3375.0,3322.0,2.53,-2.43,9.45,-0.05,0.06,-0.12,1.0,q
2941.0,3057.0,3710.0,4095.0,4095.0,3397.0,3369.0,3322.0,2.79,-2.5,9.62,-0.03,-0.01,-0.18,1.0,q
2944.0,3071.0,3681.0,4095.0,4095.0,3391.0,3376.0,3332.0,2.14,-2.41,8.97,-0.14,0.05,-0.01,1.0,q
2943.0,3055.0,3685.0,4095.0,4095.0,3397.0,3369.0,3323.0,2.65,-2.78,9.72,-0.08,-0.23,0.22,1.0,q
2943.0,3071.0,3679.0,4095.0,4095.0,3399.0,3376.0,3336.0,3.17,-2.42,9.22,-0.08,-0.17,0.17,1.0,q
2926.0,3062.0,3679.0,4095.0,4095.0,3406.0,3373.0,3332.0,3.51,-2.45,9.21,-0.15,-0.2,0.06,1.0,q
2944.0,3056.0,3697.0,4095.0,4095.0,3408.0,3376.0,3332.0,3.22,-2.77,9.1,-0.25,-0.08,0.11,1.0,q
2943.0,3081.0,3664.0,4095.0,4095.0,3392.0,3376.0,3333.0,3.59,-3.09,9.31,-0.14,-0.06,-0.0,1.0,q
2939.0,3071.0,3690.0,4095.0,4095.0,3408.0,3376.0,3329.0,3.18,-2.92,9.01,-0.17,-0.05,0.04,1.0,q
2927.0,3057.0,3666.0,4095.0,4095.0,3399.0,3382.0,3327.0,3.37,-3.3,9.22,-0.18,-0.1,-0.02,1.0,q
2947.0,3066.0,3690.0,4095.0,4095.0,3411.0,3389.0,3343.0,3.58,-3.49,8.98,-0.09,-0.18,0.01,1.0,q
2942.0,3056.0,3663.0,4095.0,4095.0,3403.0,3389.0,3332.0,3.8,-3.61,8.88,-0.2,-0.05,-0.01,1.0,q
2939.0,3071.0,3686.0,4095.0,4095.0,3408.0,3393.0,3349.0,3.7,-3.64,8.83,-0.2,-0.01,-0.07,1.0,q
2946.0,3063.0,3658.0,4095.0,4095.0,3408.0,3392.0,3345.0,3.65,-3.68,8.72,-0.19,-0.0,-0.11,1.0,q
2934.0,3056.0,3681.0,4095.0,4095.0,3405.0,3383.0,3336.0,3.77,-4.11,8.87,-0.23,0.05,-0.1,1.0,q
2939.0,3070.0,3698.0,4095.0,4095.0,3410.0,3391.0,3339.0,3.7,-4.0,8.66,-0.23,0.05,-0.13,1.0,q
2937.0,3066.0,3693.0,4095.0,4095.0,3403.0,3378.0,3318.0,3.58,-4.05,8.73,-0.16,0.07,-0.15,1.0,q
2940.0,3070.0,3682.0,4095.0,4095.0,3409.0,3390.0,3341.0,3.49,-4.11,8.67,-0.13,0.08,-0.1,1.0,q
2925.0,3059.0,3687.0,4095.0,4095.0,3411.0,3383.0,3327.0,3.55,-4.29,8.86,-0.02,0.07,-0.13,1.0,q
2935.0,3059.0,3692.0,4095.0,4095.0,3420.0,3387.0,3342.0,3.57,-4.01,8.55,-0.09,0.07,-0.1,1.0,q
2949.0,3071.0,3683.0,4095.0,4095.0,3438.0,3405.0,3378.0,3.67,-3.61,8.97,0.03,0.01,-0.09,1.0,q
2935.0,3071.0,3706.0,4095.0,4095.0,3428.0,3399.0,3374.0,3.39,-3.46,8.88,0.0,0.03,-0.05,1.0,q
2948.0,3067.0,3691.0,4095.0,4095.0,3439.0,3408.0,3379.0,3.59,-3.44,8.93,-0.01,-0.01,-0.06,1.0,q
2927.0,3071.0,3677.0,4095.0,4095.0,3425.0,3399.0,3376.0,3.49,-3.6,9.22,0.07,-0.01,-0.06,1.0,q
2953.0,3069.0,3701.0,4095.0,4095.0,3431.0,3393.0,3375.0,3.7,-3.12,9.01,0.14,-0.0,-0.12,1.0,q
2930.0,3059.0,3679.0,4095.0,4095.0,3435.0,3399.0,3376.0,3.61,-2.8,8.94,0.02,-0.01,-0.03,1.0,q
2943.0,3071.0,3679.0,4095.0,4095.0,3434.0,3397.0,3374.0,3.68,-2.98,9.08,0.05,-0.03,-0.06,1.0,q
2945.0,3066.0,3697.0,4095.0,4095.0,3439.0,3405.0,3381.0,3.91,-2.92,9.09,-0.0,-0.01,-0.04,1.0,q
2943.0,3059.0,3687.0,4095.0,4095.0,3440.0,3404.0,3370.0,3.69,-2.89,9.22,0.02,0.02,-0.06,1.0,q
2940.0,3070.0,3680.0,4095.0,4095.0,3461.0,3410.0,3379.0,3.7,-2.75,9.13,0.04,-0.01,-0.1,1.0,q
2953.0,3059.0,3687.0,4095.0,4095.0,3429.0,3399.0,3377.0,3.77,-2.7,9.23,0.02,-0.0,0.01,1.0,q
2939.0,3071.0,3694.0,4095.0,4095.0,3453.0,3408.0,3386.0,3.68,-2.59,9.31,-0.03,-0.06,-0.04,1.0,q
2933.0,3062.0,3689.0,4095.0,4095.0,3435.0,3406.0,3377.0,3.83,-2.59,9.37,0.04,-0.04,0.01,1.0,q
2941.0,3066.0,3683.0,4095.0,4095.0,3452.0,3426.0,3376.0,3.7,-2.49,9.19,0.06,-0.0,-0.03,1.0,q
2937.0,3058.0,3664.0,4095.0,4095.0,3440.0,3403.0,3374.0,3.75,-2.23,9.12,0.06,0.01,-0.01,1.0,q
2944.0,3057.0,3691.0,4095.0,4095.0,3440.0,3420.0,3393.0,3.84,-2.3,9.28,0.01,0.02,0.01,1.0,q
2933.0,3056.0,3683.0,4095.0,4095.0,3436.0,3398.0,3376.0,3.79,-2.28,9.23,-0.01,0.03,-0.0,1.0,q
2939.0,3088.0,3697.0,4095.0,4095.0,3451.0,3410.0,3387.0,3.71,-2.09,9.31,0.01,0.01,-0.05,1.0,q
2951.0,3066.0,3698.0,4095.0,4095.0,3440.0,3406.0,3392.0,3.67,-2.03,9.38,-0.03,0.04,0.0,1.0,q
2931.0,3058.0,3699.0,4095.0,4095.0,3435.0,3392.0,3387.0,3.6,-2.17,9.58,-0.02,0.04,0.04,1.0,q
2933.0,3059.0,3691.0,4095.0,4095.0,3429.0,3397.0,3405.0,3.65,-2.73,9.06,-0.18,0.04,-0.05,1.0,q
2945.0,3085.0,3711.0,4095.0,4095.0,3438.0,3408.0,3415.0,3.72,-3.05,9.09,-0.18,-0.01,-0.05,1.0,q
2944.0,3067.0,3675.0,4095.0,4095.0,3427.0,3413.0,3427.0,3.56,-3.09,9.14,-0.14,0.01,-0.07,1.0,q
2947.0,3071.0,3693.0,4095.0,4095.0,3440.0,3414.0,3425.0,3.71,-2.85,9.08,-0.12,0.02,-0.04,1.0,q
2944.0,3066.0,3689.0,4095.0,4095.0,3434.0,3408.0,3415.0,3.66,-3.17,9.22,-0.14,0.0,-0.1,1.0,q
2944.0,3070.0,3693.0,4095.0,4095.0,3441.0,3411.0,3414.0,3.76,-3.27,9.16,0.01,0.04,-0.12,1.0,q
2935.0,3056.0,3691.0,4095.0,4095.0,3434.0,3405.0,3405.0,3.44,-3.02,8.92,-0.05,-0.01,-0.11,1.0,q
2949.0,3063.0,3681.0,4095.0,4095.0,3443.0,3422.0,3426.0,3.64,-2.86,8.78,-0.06,0.08,-0.06,1.0,q
2942.0,3058.0,3683.0,4095.0,4095.0,3431.0,3408.0,3410.0,3.39,-3.23,9.11,-0.12,0.1,-0.12,1.0,q
2944.0,3057.0,3715.0,4095.0,4095.0,3442.0,3402.0,3423.0,3.5,-2.94,9.07,-0.16,0.01,-0.03,1.0,q
2928.0,3056.0,3696.0,4095.0,4095.0,3443.0,3405.0,3408.0,3.58,-3.14,9.39,-0.11,0.04,-0.09,1.0,q
2943.0,3071.0,3711.0,4095.0,4095.0,3446.0,3413.0,3410.0,3.48,-3.46,10.36,0.01,0.11,-0.28,1.0,q
2935.0,3061.0,3685.0,4095.0,4095.0,3446.0,3415.0,3423.0,2.74,-2.67,8.78,0.23,-0.04,-0.2,1.0,q
2933.0,3056.0,3680.0,4095.0,4095.0,3442.0,3407.0,3413.0,3.58,-2.49,8.5,0.15,0.04,-0.18,1.0,q
2939.0,3066.0,3671.0,4095.0,4095.0,3458.0,3413.0,3429.0,3.31,-2.57,8.75,-0.09,0.22,-0.02,1.0,q
2937.0,3065.0,3686.0,4095.0,4095.0,3441.0,3410.0,3413.0,3.85,-2.74,9.46,-0.21,-0.07,0.02,1.0,q
2935.0,3081.0,3702.0,4095.0,4095.0,3447.0,3415.0,3441.0,3.59,-3.05,9.5,-0.09,0.05,-0.09,1.0,q
2934.0,3079.0,3695.0,4095.0,4095.0,3440.0,3395.0,3428.0,3.27,-2.6,8.93,-0.13,0.0,-0.03,1.0,q
2943.0,3079.0,3699.0,4095.0,4095.0,3453.0,3415.0,3430.0,3.48,-3.15,9.2,-0.23,0.07,0.02,1.0,q
2928.0,3062.0,3679.0,4095.0,4095.0,3440.0,3412.0,3421.0,3.18,-2.93,9.05,-0.19,-0.01,-0.05,1.0,q
2960.0,3069.0,3716.0,4095.0,4095.0,3449.0,3419.0,3453.0,3.29,-3.73,9.1,-0.07,0.02,-0.06,1.0,q
2931.0,3054.0,3696.0,4095.0,4095.0,3446.0,3406.0,3423.0,3.25,-3.78,9.03,-0.09,0.0,-0.01,1.0,q
2931.0,3061.0,3696.0,4095.0,4095.0,3465.0,3415.0,3433.0,3.36,-3.56,8.89,-0.0,0.02,-0.05,1.0,q
2930.0,3086.0,3686.0,4095.0,4095.0,3447.0,3401.0,3430.0,3.4,-3.41,8.86,-0.04,0.03,-0.09,1.0,q
2942.0,3082.0,3708.0,4095.0,4095.0,3459.0,3413.0,3435.0,3.23,-3.4,8.81,-0.1,-0.03,-0.14,1.0,q
2937.0,3056.0,3678.0,4095.0,4095.0,3456.0,3411.0,3421.0,3.33,-3.68,9.03,-0.08,0.04,-0.04,1.0,q
2945.0,3082.0,3680.0,4095.0,4095.0,3469.0,3423.0,3443.0,3.3,-3.66,8.98,-0.06,0.06,-0.13,1.0,q
2934.0,3058.0,3685.0,4095.0,4095.0,3458.0,3407.0,3422.0,3.26,-3.8,9.22,-0.03,0.11,-0.06,1.0,q
2944.0,3069.0,3690.0,4095.0,4095.0,3459.0,3408.0,3433.0,3.22,-3.38,8.84,-0.08,0.04,-0.06,1.0,q
2928.0,3071.0,3707.0,4095.0,4095.0,3454.0,3411.0,3436.0,3.27,-3.5,9.05,-0.07,0.03,-0.08,1.0,q
2941.0,3062.0,3691.0,4095.0,4095.0,3440.0,3402.0,3440.0,3.17,-3.55,9.07,-0.07,0.05,-0.12,1.0,q
2940.0,3064.0,3691.0,4095.0,4095.0,3457.0,3411.0,3440.0,3.18,-3.5,9.0,-0.05,0.07,-0.08,1.0,q
2941.0,3055.0,3687.0,4095.0,4095.0,3447.0,3412.0,3438.0,3.16,-3.38,9.06,0.03,0.04,-0.08,1.0,q
2932.0,3063.0,3697.0,4095.0,4095.0,3463.0,3413.0,3438.0,2.99,-3.23,8.94,-0.09,0.03,-0.07,1.0,q
2937.0,3067.0,3696.0,4095.0,4095.0,3459.0,3408.0,3430.0,3.17,-3.41,9.12,-0.08,0.03,-0.09,1.0,q
2942.0,3060.0,3706.0,4095.0,4095.0,3463.0,3412.0,3441.0,2.98,-3.41,9.23,-0.04,0.02,-0.01,1.0,q
2944.0,3055.0,3696.0,4095.0,4095.0,3448.0,3411.0,3436.0,3.07,-3.62,9.3,0.02,0.04,0.02,1.0,q
2947.0,3071.0,3699.0,4095.0,4095.0,3461.0,3421.0,3451.0,2.94,-3.02,9.01,-0.0,0.05,-0.01,1.0,q
2939.0,3061.0,3701.0,4095.0,4095.0,3450.0,3405.0,3437.0,3.21,-3.06,9.13,-0.06,0.01,-0.02,1.0,q
2939.0,3063.0,3702.0,4095.0,4095.0,3456.0,3413.0,3456.0,2.82,-3.34,9.26,-0.07,-0.0,-0.06,1.0,q
2933.0,3065.0,3696.0,4095.0,4095.0,3472.0,3410.0,3440.0,2.95,-2.17,9.42,-0.07,-0.02,0.04,1.0,q
2928.0,3057.0,3693.0,4095.0,4095.0,3488.0,3427.0,3456.0,2.98,-2.36,9.57,0.02,-0.08,0.08,1.0,q
2942.0,3056.0,3691.0,4095.0,4095.0,3475.0,3413.0,3447.0,3.5,-2.11,9.56,-0.04,-0.05,0.05,1.0,q
2943.0,3066.0,3709.0,4095.0,4095.0,3479.0,3418.0,3439.0,3.25,-1.92,9.29,-0.1,0.01,0.07,1.0,q
2935.0,3052.0,3682.0,4095.0,4095.0,3435.0,3411.0,3414.0,3.11,-2.12,9.44,-0.1,0.02,0.07,1.0,q
2941.0,3087.0,3704.0,4095.0,4095.0,3443.0,3419.0,3426.0,2.98,-2.14,9.36,-0.14,-0.07,0.07,1.0,q
2943.0,3061.0,3675.0,4095.0,4095.0,3454.0,3417.0,3429.0,3.39,-2.51,9.5,-0.07,-0.06,0.06,1.0,q
2943.0,3071.0,3687.0,4095.0,4095.0,3461.0,3435.0,3442.0,3.14,-2.46,9.39,-0.02,-0.06,0.06,1.0,q
2954.0,3081.0,3686.0,4095.0,4095.0,3457.0,3426.0,3448.0,3.11,-2.19,9.0,-0.08,-0.1,0.03,1.0,q
2943.0,3053.0,3686.0,4095.0,4095.0,3456.0,3417.0,3440.0,3.35,-2.43,9.56,-0.21,-0.1,0.13,1.0,q
2935.0,3081.0,3708.0,4095.0,4095.0,3458.0,3419.0,3451.0,3.77,-2.72,9.57,-0.1,0.03,0.03,1.0,q
2933.0,3066.0,3677.0,4095.0,4095.0,3466.0,3414.0,3434.0,3.39,-2.48,8.88,-0.1,-0.05,0.0,1.0,q
2945.0,3084.0,3702.0,4095.0,4095.0,3462.0,3422.0,3449.0,3.72,-2.57,9.1,-0.2,-0.09,-0.04,1.0,q
2938.0,3057.0,3685.0,4095.0,4095.0,3467.0,3429.0,3444.0,3.43,-2.84,9.06,-0.3,-0.02,-0.01,1.0,q
2944.0,3086.0,3707.0,4095.0,4095.0,3467.0,3419.0,3435.0,3.57,-3.22,9.16,-0.21,-0.05,-0.06,1.0,q
2933.0,3065.0,3681.0,4095.0,4095.0,3467.0,3413.0,3428.0,3.48,-3.31,9.1,-0.24,-0.01,-0.01,1.0,q
2946.0,3069.0,3701.0,4095.0,4095.0,3468.0,3431.0,3446.0,3.58,-3.28,8.96,-0.16,0.02,-0.04,1.0,q
2928.0,3047.0,3693.0,4095.0,4095.0,3469.0,3426.0,3440.0,3.68,-3.58,8.94,-0.23,-0.02,-0.07,1.0,q
2930.0,3071.0,3699.0,4095.0,4095.0,3469.0,3415.0,3442.0,3.63,-3.79,9.13,-0.15,-0.01,-0.13,1.0,q
2930.0,3057.0,3677.0,4095.0,4095.0,3470.0,3421.0,3440.0,3.45,-3.7,8.86,-0.08,0.02,-0.06,1.0,q
2942.0,3056.0,3677.0,4095.0,4095.0,3471.0,3425.0,3457.0,2.87,-3.48,9.13,-0.09,0.03,-0.05,1.0,q
2943.0,3063.0,3703.0,4095.0,4095.0,3472.0,3433.0,3463.0,3.49,-3.09,8.7,-0.17,0.1,0.12,1.0,q
2929.0,3059.0,3677.0,4095.0,4095.0,3472.0,3409.0,3456.0,3.16,-3.67,9.15,-0.12,0.04,0.02,1.0,q
2944.0,3057.0,3702.0,4095.0,4095.0,3472.0,3428.0,3469.0,3.39,-3.5,9.05,-0.04,0.16,0.01,1.0,q
2938.0,3066.0,3697.0,4095.0,4095.0,3461.0,3423.0,3458.0,3.03,-3.57,9.06,-0.08,0.31,0.06,1.0,q
2951.0,3067.0,3699.0,4095.0,4095.0,3489.0,3435.0,3469.0,2.44,-3.37,9.12,0.01,0.05,-0.02,1.0,q
2926.0,3056.0,3699.0,4095.0,4095.0,3472.0,3417.0,3449.0,2.55,-3.32,8.94,-0.09,0.03,0.07,1.0,q
2949.0,3059.0,3696.0,4095.0,4095.0,3492.0,3429.0,3457.0,2.71,-3.32,9.17,-0.11,0.03,0.04,1.0,q
2939.0,3071.0,3695.0,4095.0,4095.0,3467.0,3419.0,3463.0,2.85,-4.09,9.3,-0.11,-0.04,-0.06,1.0,q
2944.0,3071.0,3702.0,4095.0,4095.0,3485.0,3421.0,3466.0,2.38,-3.73,9.27,-0.09,0.07,-0.14,1.0,q
2943.0,3058.0,3702.0,4095.0,4095.0,3472.0,3407.0,3459.0,2.27,-4.14,9.27,-0.06,0.09,-0.12,1.0,q
2931.0,3062.0,3680.0,4095.0,4095.0,3454.0,3414.0,3458.0,2.54,-3.61,8.96,-0.0,-0.07,-0.0,1.0,q
2949.0,3056.0,3691.0,4095.0,4095.0,3471.0,3424.0,3469.0,2.62,-3.63,9.09,-0.02,-0.08,0.06,1.0,q
2942.0,3071.0,3681.0,4095.0,4095.0,3469.0,3417.0,3456.0,2.83,-3.65,9.12,0.04,-0.08,-0.09,1.0,q
2939.0,3079.0,3698.0,4095.0,4095.0,3472.0,3420.0,3469.0,2.63,-3.45,9.04,0.02,-0.07,-0.09,1.0,q
2943.0,3059.0,3694.0,4095.0,4095.0,3457.0,3423.0,3458.0,2.68,-3.4,9.14,-0.02,-0.08,-0.01,1.0,q
2931.0,3063.0,3698.0,4095.0,4095.0,3479.0,3420.0,3463.0,3.03,-3.6,9.35,0.04,-0.05,-0.04,1.0,q
2934.0,3057.0,3701.0,4095.0,4095.0,3469.0,3424.0,3459.0,2.77,-3.55,9.31,0.07,0.03,-0.02,1.0,q
2944.0,3071.0,3685.0,4095.0,4095.0,3483.0,3442.0,3479.0,2.77,-3.54,9.52,0.12,-0.05,0.0,1.0,q
2934.0,3065.0,3689.0,4095.0,4095.0,3467.0,3425.0,3469.0,2.84,-3.31,9.5,0.18,-0.01,0.04,1.0,q
2944.0,3069.0,3694.0,4095.0,4095.0,3475.0,3427.0,3483.0,3.11,-1.96,9.21,-0.11,-0.07,0.02,1.0,q
2940.0,3063.0,3694.0,4095.0,4095.0,3473.0,3422.0,3469.0,3.4,-2.25,9.3,-0.19,-0.02,0.07,1.0,q
2928.0,3070.0,3685.0,4095.0,4095.0,3479.0,3425.0,3470.0,3.42,-2.57,9.48,-0.13,-0.02,-0.04,1.0,q
2939.0,3065.0,3697.0,4095.0,4095.0,3466.0,3415.0,3470.0,3.25,-2.56,9.33,-0.13,0.02,-0.05,1.0,q
2948.0,3071.0,3707.0,4095.0,4095.0,3479.0,3427.0,3484.0,3.36,-2.72,9.36,-0.17,-0.03,-0.09,1.0,q
2934.0,3071.0,3679.0,4095.0,4095.0,3470.0,3422.0,3468.0,3.33,-2.42,9.19,-0.17,0.01,-0.04,1.0,q
2944.0,3063.0,3697.0,4095.0,4095.0,3486.0,3430.0,3473.0,3.41,-3.01,9.22,-0.26,-0.01,-0.07,1.0,q
2935.0,3062.0,3694.0,4095.0,4095.0,3475.0,3426.0,3472.0,3.5,-3.46,9.39,-0.24,-0.01,-0.13,1.0,q
2934.0,3071.0,3686.0,4095.0,4095.0,3477.0,3424.0,3473.0,3.31,-3.02,9.01,-0.19,-0.0,-0.06,1.0,q
2943.0,3061.0,3709.0,4095.0,4095.0,3476.0,3430.0,3462.0,3.45,-3.39,9.12,-0.24,0.08,-0.08,1.0,q
2922.0,3061.0,3696.0,4095.0,4095.0,3471.0,3419.0,3469.0,3.32,-3.05,8.99,-0.1,0.15,-0.07,1.0,q
2959.0,3083.0,3696.0,4095.0,4095.0,3475.0,3423.0,3488.0,3.1,-3.51,9.11,-0.16,0.06,-0.07,1.0,q
2947.0,3056.0,3696.0,4095.0,4095.0,3470.0,3411.0,3478.0,3.12,-3.69,9.01,-0.14,0.01,-0.02,1.0,q
2941.0,3071.0,3702.0,4095.0,4095.0,3475.0,3429.0,3475.0,3.43,-3.48,9.03,-0.13,-0.03,-0.07,1.0,q
2934.0,3063.0,3691.0,4095.0,4095.0,3465.0,3417.0,3467.0,3.57,-4.05,9.39,-0.15,0.08,-0.09,1.0,q
2937.0,3062.0,3685.0,4095.0,4095.0,3487.0,3436.0,3472.0,3.24,-3.42,8.8,-0.15,0.09,-0.22,1.0,q
2933.0,3062.0,3691.0,4095.0,4095.0,3471.0,3415.0,3472.0,3.17,-3.74,9.02,-0.15,0.09,-0.26,1.0,q
2955.0,3066.0,3696.0,4095.0,4095.0,3479.0,3438.0,3494.0,2.97,-3.58,8.9,-0.15,0.12,-0.22,1.0,q
2940.0,3059.0,3682.0,4095.0,4095.0,3463.0,3423.0,3474.0,2.89,-3.78,8.96,-0.14,0.07,-0.14,1.0,q
2948.0,3065.0,3700.0,4095.0,4095.0,3474.0,3427.0,3472.0,3.1,-3.99,8.98,-0.08,0.01,-0.11,1.0,q
2935.0,3059.0,3701.0,4095.0,4095.0,3471.0,3415.0,3468.0,3.25,-3.51,9.54,0.05,0.07,-0.0,1.0,q
2935.0,3069.0,3701.0,4095.0,4095.0,3475.0,3431.0,3479.0,3.11,-3.18,9.18,0.1,-0.01,0.01,1.0,q
2931.0,3071.0,3696.0,4095.0,4095.0,3491.0,3424.0,3467.0,3.07,-2.96,9.23,0.07,-0.05,-0.04,1.0,q
2943.0,3069.0,3699.0,4095.0,4095.0,3498.0,3441.0,3479.0,2.97,-2.83,9.29,0.05,-0.03,0.01,1.0,q
2928.0,3059.0,3685.0,4095.0,4095.0,3486.0,3427.0,3472.0,2.98,-2.55,8.88,-0.02,-0.02,-0.0,1.0,q
2950.0,3068.0,3696.0,4095.0,4095.0,3491.0,3440.0,3486.0,3.28,-3.05,9.59,-0.22,-0.18,-0.09,1.0,q
2928.0,3059.0,3696.0,4095.0,4095.0,3484.0,3418.0,3467.0,3.56,-3.09,9.62,0.01,-0.17,-0.12,1.0,q
2944.0,3061.0,3689.0,4095.0,4095.0,3494.0,3439.0,3475.0,3.64,-3.18,9.49,0.07,-0.1,-0.14,1.0,q
2943.0,3071.0,3703.0,4095.0,4095.0,3472.0,3424.0,3468.0,3.56,-2.78,9.21,0.08,-0.12,-0.15,1.0,q
2931.0,3083.0,3696.0,4095.0,4095.0,3483.0,3431.0,3478.0,3.25,-2.64,9.11,0.18,-0.13,-0.12,1.0,q
2935.0,3056.0,3694.0,4095.0,4095.0,3478.0,3423.0,3470.0,3.63,-2.42,9.03,0.03,-0.04,0.08,1.0,q
2945.0,3071.0,3697.0,4095.0,4095.0,3484.0,3431.0,3472.0,3.71,-2.06,8.98,-0.03,-0.02,0.08,1.0,q
2935.0,3071.0,3714.0,4095.0,4095.0,3475.0,3427.0,3476.0,3.42,-2.72,9.24,0.08,0.06,0.2,1.0,q
2935.0,3063.0,3687.0,4095.0,4095.0,3475.0,3427.0,3472.0,3.64,-2.6,9.33,-0.13,0.13,0.25,1.0,q
2941.0,3067.0,3685.0,4095.0,4095.0,3483.0,3438.0,3473.0,2.99,-2.25,8.61,0.29,-0.08,0.15,1.0,q
2940.0,3063.0,3690.0,4095.0,4095.0,3471.0,3420.0,3475.0,3.5,-1.94,9.42,-0.26,0.07,0.25,1.0,q
2941.0,3083.0,3701.0,4095.0,4095.0,3474.0,3427.0,3469.0,3.12,-2.86,9.11,0.07,0.01,0.13,1.0,q
2937.0,3071.0,3696.0,4095.0,4095.0,3471.0,3419.0,3466.0,3.38,-2.52,9.29,-0.17,-0.07,0.22,1.0,q
2947.0,3061.0,3699.0,4095.0,4095.0,3477.0,3431.0,3483.0,4.01,-2.94,9.46,0.0,0.06,0.12,1.0,q
2935.0,3047.0,3686.0,4095.0,4095.0,3472.0,3424.0,3465.0,3.25,-2.8,9.04,-0.12,-0.0,0.11,1.0,q
2947.0,3071.0,3699.0,4095.0,4095.0,3487.0,3442.0,3479.0,2.9,-3.38,9.08,0.05,0.07,-0.04,1.0,q
2941.0,3059.0,3682.0,4095.0,4095.0,3472.0,3431.0,3477.0,3.12,-3.23,9.01,-0.04,0.03,-0.02,1.0,q
2943.0,3063.0,3712.0,4095.0,4095.0,3483.0,3440.0,3486.0,3.13,-3.07,9.03,-0.11,0.01,-0.09,1.0,q
2943.0,3062.0,3686.0,4095.0,4095.0,3477.0,3433.0,3465.0,3.09,-3.87,9.28,-0.13,0.07,-0.09,1.0,q
2937.0,3083.0,3709.0,4095.0,4095.0,3477.0,3424.0,3475.0,3.02,-3.52,9.11,-0.15,0.04,-0.08,1.0,q
2928.0,3066.0,3697.0,4095.0,4095.0,3489.0,3442.0,3487.0,3.13,-3.2,8.99,-0.12,0.12,-0.11,1.0,q
2934.0,3056.0,3696.0,4095.0,4095.0,3472.0,3433.0,3472.0,2.94,-3.49,9.22,-0.14,0.14,-0.13,1.0,q
2942.0,3065.0,3705.0,4095.0,4095.0,3495.0,3431.0,3477.0,2.65,-3.86,9.19,-0.22,0.06,-0.14,1.0,q
2935.0,3055.0,3671.0,4095.0,4095.0,3479.0,3435.0,3473.0,2.63,-3.58,9.02,-0.1,0.1,-0.1,1.0,q
2934.0,3062.0,3684.0,4095.0,4095.0,3499.0,3441.0,3478.0,3.22,-3.73,9.23,-0.18,0.13,-0.18,1.0,q
2937.0,3049.0,3669.0,4095.0,4095.0,3483.0,3436.0,3475.0,2.14,-3.89,9.08,-0.09,0.12,-0.23,1.0,q
2949.0,3059.0,3686.0,4095.0,4095.0,3498.0,3450.0,3481.0,2.49,-4.23,9.36,0.01,0.16,-0.07,1.0,q
2927.0,3056.0,3712.0,4095.0,4095.0,3479.0,3429.0,3467.0,2.74,-2.87,8.86,0.0,-0.0,-0.2,1.0,q
2932.0,3059.0,3675.0,4095.0,4095.0,3495.0,3441.0,3479.0,3.19,-3.23,8.92,-0.12,-0.03,-0.8,1.0,q
2946.0,3056.0,3683.0,4095.0,4095.0,3477.0,3437.0,3483.0,2.1,-4.21,9.57,-0.21,0.08,-0.32,1.0,q
2947.0,3069.0,3698.0,4095.0,4095.0,3483.0,3439.0,3481.0,2.51,-3.48,9.27,-0.01,0.04,-0.15,1.0,q
2938.0,3059.0,3689.0,4095.0,4095.0,3472.0,3426.0,3472.0,2.6,-3.54,9.16,-0.0,0.02,-0.07,1.0,q
2943.0,3071.0,3687.0,4095.0,4095.0,3475.0,3423.0,3473.0,2.88,-3.35,9.29,-0.06,0.01,0.05,1.0,q
2942.0,3071.0,3696.0,4095.0,4095.0,3488.0,3444.0,3491.0,2.98,-3.4,9.2,-0.05,-0.05,0.04,1.0,q
2937.0,3067.0,3687.0,4095.0,4095.0,3477.0,3433.0,3473.0,2.99,-3.36,9.26,0.02,0.01,0.02,1.0,q
2939.0,3071.0,3696.0,4095.0,4095.0,3486.0,3437.0,3479.0,2.79,-3.15,9.36,-0.05,-0.05,0.02,1.0,q
2944.0,3083.0,3715.0,4095.0,4095.0,3503.0,3440.0,3491.0,3.0,-3.47,9.37,-0.03,-0.05,0.07,1.0,q
2938.0,3071.0,3682.0,4095.0,4095.0,3475.0,3437.0,3479.0,2.96,-3.23,9.3,-0.0,-0.02,0.03,1.0,q
2941.0,3054.0,3711.0,4095.0,4095.0,3503.0,3445.0,3493.0,2.79,-3.05,9.24,-0.01,-0.03,0.01,1.0,q
2943.0,3062.0,3677.0,4095.0,4095.0,3504.0,3442.0,3486.0,2.69,-3.14,9.28,-0.07,-0.04,0.03,1.0,q
2939.0,3067.0,3686.0,4095.0,4095.0,3485.0,3418.0,3475.0,2.96,-3.07,9.35,-0.05,-0.04,0.0,1.0,q
2941.0,3067.0,3696.0,4095.0,4095.0,3482.0,3431.0,3487.0,3.04,-3.14,9.24,-0.08,-0.04,0.0,1.0,q
2933.0,3063.0,3682.0,4095.0,4095.0,3402.0,3431.0,3443.0,2.77,-3.37,9.53,-0.11,-0.05,0.11,1.0,q
2937.0,3061.0,3694.0,4095.0,4095.0,3369.0,3425.0,3413.0,2.89,-3.22,9.16,-0.19,-0.14,0.07,1.0,q
2927.0,3058.0,3687.0,4095.0,4095.0,3359.0,3402.0,3397.0,3.14,-3.5,9.3,-0.04,0.05,0.02,1.0,q
2930.0,3063.0,3690.0,4095.0,4095.0,3377.0,3417.0,3430.0,2.57,-3.31,9.14,-0.02,-0.02,-0.05,1.0,q
2932.0,3067.0,3678.0,4095.0,4095.0,3367.0,3398.0,3434.0,2.89,-3.56,9.54,0.08,-0.01,0.02,1.0,q
2935.0,3056.0,3707.0,4095.0,4095.0,3391.0,3419.0,3440.0,2.88,-2.89,9.19,0.13,-0.03,0.01,1.0,q
2934.0,3058.0,3671.0,4095.0,4095.0,3373.0,3409.0,3431.0,2.88,-2.67,9.28,0.02,-0.06,0.02,1.0,q
2934.0,3062.0,3687.0,4095.0,4095.0,3388.0,3421.0,3450.0,2.99,-2.75,9.3,0.04,-0.03,-0.07,1.0,q
2938.0,3056.0,3663.0,4095.0,4095.0,3377.0,3411.0,3446.0,2.95,-2.79,9.44,-0.0,0.01,-0.04,1.0,q
2938.0,3057.0,3678.0,4095.0,4095.0,3385.0,3421.0,3440.0,2.68,-2.39,9.22,0.01,-0.01,0.05,1.0,q
2944.0,3063.0,3696.0,4095.0,4095.0,3389.0,3422.0,3450.0,2.96,-2.99,9.65,-0.13,-0.04,0.06,1.0,q
2935.0,3057.0,3696.0,4095.0,4095.0,3386.0,3411.0,3440.0,3.01,-2.78,9.53,-0.01,-0.01,-0.02,1.0,q
2938.0,3067.0,3705.0,4095.0,4095.0,3399.0,3425.0,3451.0,2.77,-2.63,9.32,-0.04,-0.02,0.0,1.0,q
2933.0,3056.0,3687.0,4095.0,4095.0,3386.0,3414.0,3463.0,3.11,-2.76,9.25,-0.05,-0.04,-0.05,1.0,q
2942.0,3071.0,3694.0,4095.0,4095.0,3399.0,3428.0,3470.0,3.2,-2.88,9.42,-0.14,0.03,0.02,1.0,q
2928.0,3056.0,3671.0,4095.0,4095.0,3395.0,3418.0,3469.0,3.12,-2.75,9.16,-0.09,-0.01,-0.05,1.0,q
2935.0,3063.0,3683.0,4095.0,4095.0,3392.0,3419.0,3454.0,3.11,-2.99,9.28,-0.11,0.0,-0.03,1.0,q
2942.0,3056.0,3695.0,4095.0,4095.0,3397.0,3427.0,3466.0,3.16,-2.89,9.17,-0.13,-0.01,-0.06,1.0,q
2932.0,3061.0,3696.0,4095.0,4095.0,3398.0,3411.0,3457.0,3.08,-2.92,9.16,-0.12,0.05,-0.02,1.0,q
2942.0,3071.0,3706.0,4095.0,4095.0,3407.0,3430.0,3466.0,2.85,-3.01,9.2,-0.14,0.02,-0.03,1.0,q
2928.0,3055.0,3674.0,4095.0,4095.0,3396.0,3429.0,3459.0,3.18,-3.37,9.35,-0.13,0.03,-0.03,1.0,q
2931.0,3065.0,3697.0,4095.0,4095.0,3403.0,3423.0,3469.0,2.98,-3.35,9.17,-0.13,0.03,-0.05,1.0,q
2939.0,3067.0,3698.0,4095.0,4095.0,3398.0,3418.0,3467.0,3.07,-3.17,9.15,-0.09,0.06,-0.05,1.0,q
2942.0,3071.0,3702.0,4095.0,4095.0,3395.0,3424.0,3468.0,3.22,-3.55,9.31,-0.15,0.08,-0.06,1.0,q
2943.0,3063.0,3675.0,4095.0,4095.0,3390.0,3423.0,3462.0,2.94,-3.4,9.23,-0.07,0.06,-0.16,1.0,q
2935.0,3059.0,3677.0,4095.0,4095.0,3405.0,3434.0,3473.0,2.62,-3.62,9.17,-0.05,0.01,-0.11,1.0,q
2931.0,3067.0,3662.0,4095.0,4095.0,3390.0,3420.0,3482.0,2.98,-3.19,9.12,-0.04,-0.0,-0.05,1.0,q
2942.0,3063.0,3686.0,4095.0,4095.0,3403.0,3429.0,3481.0,2.95,-3.31,9.08,-0.15,0.02,-0.03,1.0,q
2934.0,3070.0,3706.0,4095.0,4095.0,3392.0,3417.0,3455.0,2.85,-3.43,9.25,-0.12,0.03,-0.07,1.0,q
2930.0,3070.0,3674.0,4095.0,4095.0,3385.0,3415.0,3462.0,2.57,-3.82,9.15,-0.17,0.06,0.01,1.0,q
2939.0,3066.0,3695.0,4095.0,4095.0,3391.0,3426.0,3465.0,2.79,-4.1,9.62,0.05,0.08,0.11,1.0,q
2946.0,3056.0,3682.0,4095.0,4095.0,3387.0,3424.0,3462.0,2.45,-2.89,8.72,0.01,-0.07,-0.01,1.0,q
2942.0,3083.0,3696.0,4095.0,4095.0,3386.0,3423.0,3475.0,2.72,-3.83,9.39,-0.1,-0.04,0.01,1.0,q
2945.0,3514.0,3835.0,4095.0,4095.0,3120.0,3267.0,3121.0,3.55,-2.51,9.16,-0.02,-0.01,-0.08,1.0,q
2944.0,3516.0,3843.0,4095.0,4095.0,3118.0,3264.0,3125.0,3.64,-2.51,9.22,-0.11,-0.05,-0.1,1.0,q
2939.0,3509.0,3835.0,4095.0,4095.0,3131.0,3267.0,3122.0,3.35,-2.54,9.24,-0.09,-0.03,-0.03,1.0,q
2944.0,3509.0,3826.0,4095.0,4095.0,3129.0,3266.0,3140.0,3.68,-2.83,9.42,-0.06,-0.01,0.03,1.0,q
2939.0,3506.0,3824.0,4095.0,4095.0,3127.0,3275.0,3133.0,3.74,-2.8,9.33,-0.01,-0.01,-0.02,1.0,q
2942.0,3504.0,3822.0,4095.0,4095.0,3122.0,3265.0,3136.0,3.73,-2.46,9.17,0.02,0.03,-0.1,1.0,q
2938.0,3493.0,3827.0,4095.0,4095.0,3137.0,3279.0,3138.0,3.73,-2.29,9.05,-0.1,-0.02,-0.13,1.0,q
2928.0,3502.0,3819.0,4095.0,4095.0,3125.0,3266.0,3153.0,3.61,-2.72,9.49,-0.18,0.11,-0.11,1.0,q
2944.0,3520.0,3823.0,4095.0,4095.0,3127.0,3276.0,3152.0,3.49,-2.42,8.99,-0.05,0.08,-0.08,1.0,q
2934.0,3497.0,3800.0,4095.0,4095.0,3135.0,3268.0,3151.0,4.0,-2.38,8.96,-0.24,0.05,-0.06,1.0,q
2942.0,3491.0,3825.0,4095.0,4095.0,3136.0,3279.0,3175.0,3.44,-2.91,9.26,-0.24,0.06,-0.24,1.0,q
2941.0,3509.0,3818.0,4095.0,4095.0,3126.0,3277.0,3174.0,3.43,-2.95,9.39,-0.18,0.08,-0.23,1.0,q
2934.0,3518.0,3833.0,4095.0,4095.0,3134.0,3279.0,3183.0,3.1,-3.07,9.28,-0.13,0.05,-0.17,1.0,q
2934.0,3501.0,3826.0,4095.0,4095.0,3135.0,3270.0,3184.0,3.15,-2.89,9.22,-0.07,0.02,-0.11,1.0,q
2941.0,3511.0,3813.0,4095.0,4095.0,3136.0,3279.0,3200.0,3.55,-3.03,9.29,-0.07,0.0,-0.13,1.0,q
2952.0,3509.0,3817.0,4095.0,4095.0,3122.0,3273.0,3203.0,3.51,-2.97,9.22,-0.05,0.08,-0.06,1.0,q
2928.0,3499.0,3805.0,4095.0,4095.0,3138.0,3271.0,3213.0,3.29,-2.86,9.29,-0.01,0.04,-0.03,1.0,q
2950.0,3520.0,3824.0,4095.0,4095.0,3134.0,3273.0,3216.0,3.19,-2.66,9.14,0.01,-0.0,-0.05,1.0,q
2938.0,3506.0,3803.0,4095.0,4095.0,3136.0,3269.0,3216.0,3.46,-2.56,9.12,0.05,0.0,-0.05,1.0,q
2943.0,3525.0,3824.0,4095.0,4095.0,3133.0,3275.0,3220.0,3.14,-2.8,9.5,-0.08,-0.04,-0.08,1.0,q
2939.0,3529.0,3779.0,4095.0,4095.0,3131.0,3295.0,3247.0,3.32,-0.68,9.37,-0.09,-0.07,-0.03,1.0,q
2954.0,3536.0,3827.0,4095.0,4095.0,3135.0,3305.0,3249.0,3.52,-1.1,9.85,-0.1,0.05,0.03,1.0,q
2933.0,3504.0,3799.0,4095.0,4095.0,3127.0,3293.0,3246.0,3.36,-1.05,9.65,-0.06,0.02,-0.03,1.0,q
2944.0,3552.0,3836.0,4095.0,4095.0,3125.0,3291.0,3246.0,3.04,-1.13,9.71,-0.12,-0.05,0.06,1.0,q
2946.0,3530.0,3809.0,4095.0,4095.0,3123.0,3291.0,3255.0,3.11,-1.36,9.8,-0.01,-0.2,0.11,1.0,q
2948.0,3514.0,3810.0,4095.0,4095.0,3130.0,3303.0,3262.0,3.89,-0.83,9.3,-0.05,-0.13,0.2,1.0,q
2943.0,3533.0,3811.0,4095.0,4095.0,3134.0,3310.0,3265.0,4.11,-0.96,9.14,-0.18,-0.14,0.04,1.0,q
2944.0,3518.0,3808.0,4095.0,4095.0,3136.0,3302.0,3251.0,3.94,-1.56,9.54,-0.24,-0.09,-0.02,1.0,q
2942.0,3536.0,3804.0,4095.0,4095.0,3138.0,3301.0,3267.0,3.76,-1.89,10.02,-0.02,-0.02,-0.09,1.0,q
2943.0,3531.0,3795.0,4095.0,4095.0,3131.0,3291.0,3251.0,3.94,-0.99,9.08,-0.02,-0.07,-0.02,1.0,q
2935.0,3525.0,3813.0,4095.0,4095.0,3137.0,3295.0,3259.0,4.14,-1.34,9.3,-0.11,0.01,-0.02,1.0,q
2950.0,3520.0,3814.0,4095.0,4095.0,3125.0,3290.0,3251.0,3.87,-1.38,9.38,-0.1,-0.01,-0.05,1.0,q
2941.0,3543.0,3815.0,4095.0,4095.0,3143.0,3309.0,3265.0,4.26,-1.32,9.17,-0.15,0.07,-0.11,1.0,q
2942.0,3534.0,3796.0,4095.0,4095.0,3129.0,3289.0,3262.0,4.03,-1.75,9.46,-0.27,0.04,-0.15,1.0,q
2935.0,3536.0,3811.0,4095.0,4095.0,3141.0,3306.0,3261.0,3.54,-1.9,9.69,-0.18,-0.03,-0.16,1.0,q
2933.0,3536.0,3792.0,4095.0,4095.0,3136.0,3296.0,3262.0,3.73,-1.84,9.43,-0.1,0.03,0.03,1.0,q
2938.0,3525.0,3818.0,4095.0,4095.0,3136.0,3303.0,3266.0,4.1,-1.71,9.34,-0.12,-0.02,-0.04,1.0,q
2940.0,3523.0,3819.0,4095.0,4095.0,3130.0,3297.0,3263.0,4.03,-1.75,9.24,-0.11,0.04,-0.09,1.0,q
2931.0,3527.0,3829.0,4095.0,4095.0,3137.0,3306.0,3261.0,3.7,-1.77,9.19,-0.12,0.01,-0.08,1.0,q
2933.0,3522.0,3811.0,4095.0,4095.0,3136.0,3306.0,3269.0,3.77,-1.88,9.3,-0.13,0.01,-0.06,1.0,q
2926.0,3520.0,3808.0,4095.0,4095.0,3136.0,3290.0,3263.0,3.82,-1.89,9.04,0.01,-0.01,-0.08,1.0,q
2932.0,3542.0,3818.0,4095.0,4095.0,3135.0,3303.0,3280.0,3.7,-2.18,9.3,-0.11,0.02,-0.03,1.0,q
2937.0,3535.0,3811.0,4095.0,4095.0,3131.0,3294.0,3268.0,3.88,-2.25,9.45,-0.0,0.02,-0.06,1.0,q
2945.0,3530.0,3806.0,4095.0,4095.0,3152.0,3305.0,3280.0,4.04,-1.9,9.13,-0.05,0.04,-0.08,1.0,q
2933.0,3522.0,3802.0,4095.0,4095.0,3135.0,3305.0,3271.0,3.66,-1.8,9.11,-0.19,0.04,-0.08,1.0,q
2939.0,3517.0,3804.0,4095.0,4095.0,3135.0,3290.0,3271.0,3.56,-2.48,9.55,-0.11,-0.03,-0.14,1.0,q
2941.0,3546.0,3822.0,4095.0,4095.0,3142.0,3303.0,3267.0,3.81,-2.02,9.08,-0.09,0.0,-0.05,1.0,q
2928.0,3529.0,3816.0,4095.0,4095.0,3141.0,3295.0,3267.0,3.76,-2.09,8.93,-0.29,-0.07,-0.04,1.0,q
2928.0,3539.0,3819.0,4095.0,4095.0,3143.0,3295.0,3269.0,4.04,-2.98,9.5,-0.23,-0.01,-0.05,1.0,q
2926.0,3525.0,3819.0,4095.0,4095.0,3137.0,3282.0,3267.0,4.09,-2.74,9.29,-0.07,0.07,-0.1,1.0,q
2941.0,3537.0,3804.0,4095.0,4095.0,3149.0,3298.0,3279.0,3.85,-2.41,9.14,-0.05,0.04,-0.16,1.0,q
2933.0,3530.0,3802.0,4095.0,4095.0,3149.0,3291.0,3280.0,3.67,-2.73,9.21,-0.1,0.1,-0.06,1.0,q
2947.0,3533.0,3826.0,4095.0,4095.0,3147.0,3310.0,3280.0,3.69,-2.82,9.53,0.06,0.13,-0.13,1.0,q
2929.0,3530.0,3801.0,4095.0,4095.0,3149.0,3292.0,3270.0,3.34,-2.08,9.21,0.05,0.03,-0.1,1.0,q
2951.0,3542.0,3801.0,4095.0,4095.0,3149.0,3303.0,3280.0,3.25,-2.06,9.17,0.02,-0.05,-0.09,1.0,q
2935.0,3521.0,3803.0,4095.0,4095.0,3141.0,3294.0,3266.0,3.73,-2.49,9.55,-0.08,-0.0,0.03,1.0,q
2935.0,3531.0,3818.0,4095.0,4095.0,3151.0,3295.0,3275.0,3.81,-2.23,9.33,-0.04,-0.04,-0.03,1.0,q
2953.0,3520.0,3831.0,4095.0,4095.0,3150.0,3306.0,3275.0,3.75,-2.13,9.2,-0.03,-0.02,-0.04,1.0,q
2930.0,3528.0,3811.0,4095.0,4095.0,3143.0,3303.0,3264.0,3.66,-2.11,9.28,-0.04,0.03,0.02,1.0,q
2944.0,3539.0,3812.0,4095.0,4095.0,3149.0,3302.0,3280.0,3.72,-2.08,9.27,-0.04,-0.03,-0.05,1.0,q
2940.0,3541.0,3818.0,4095.0,4095.0,3152.0,3302.0,3280.0,3.49,-2.2,9.3,0.0,0.02,-0.06,1.0,q
2947.0,3532.0,3792.0,4095.0,4095.0,3139.0,3292.0,3278.0,3.69,-2.04,9.28,-0.0,0.01,-0.02,1.0,q
2944.0,3525.0,3794.0,4095.0,4095.0,3149.0,3309.0,3287.0,3.77,-1.9,9.24,-0.03,-0.04,-0.07,1.0,q
2945.0,3524.0,3792.0,4095.0,4095.0,3143.0,3300.0,3277.0,3.83,-2.09,9.46,-0.05,-0.03,-0.05,1.0,q
2939.0,3534.0,3798.0,4095.0,4095.0,3147.0,3303.0,3277.0,3.77,-1.79,9.17,-0.04,0.05,0.0,1.0,q
2934.0,3534.0,3806.0,4095.0,4095.0,3153.0,3309.0,3283.0,3.68,-1.92,9.3,-0.1,-0.03,-0.05,1.0,q
2930.0,3519.0,3790.0,4095.0,4095.0,3142.0,3298.0,3279.0,3.93,-2.14,9.54,-0.03,-0.03,-0.02,1.0,q
2938.0,3519.0,3797.0,4095.0,4095.0,3152.0,3306.0,3283.0,3.95,-1.72,9.22,-0.05,0.05,-0.03,1.0,q
2942.0,3527.0,3793.0,4095.0,4095.0,3147.0,3295.0,3280.0,3.59,-2.07,9.4,-0.1,-0.06,-0.07,1.0,q
2941.0,3541.0,3812.0,4095.0,4095.0,3139.0,3299.0,3281.0,3.86,-2.03,9.4,-0.03,0.07,0.04,1.0,q
2931.0,3520.0,3795.0,4095.0,4095.0,3146.0,3295.0,3280.0,3.73,-1.82,9.22,-0.1,0.01,-0.06,1.0,q
2938.0,3537.0,3789.0,4095.0,4095.0,3152.0,3307.0,3287.0,3.58,-2.26,9.56,-0.07,-0.02,-0.02,1.0,q
2938.0,3539.0,3799.0,4095.0,4095.0,3137.0,3294.0,3277.0,3.9,-1.92,9.19,-0.03,0.04,-0.03,1.0,q
2923.0,3536.0,3809.0,4095.0,4095.0,3157.0,3303.0,3282.0,3.51,-1.9,9.35,-0.07,-0.04,-0.1,1.0,q
2923.0,3522.0,3815.0,4095.0,4095.0,3139.0,3293.0,3277.0,3.59,-2.15,9.42,-0.08,0.02,0.04,1.0,q
2944.0,3536.0,3810.0,4095.0,4095.0,3146.0,3306.0,3283.0,3.97,-1.94,9.25,-0.06,0.01,-0.04,1.0,q
2935.0,3549.0,3824.0,4095.0,4095.0,3143.0,3301.0,3280.0,3.74,-2.04,9.38,-0.1,-0.04,-0.12,1.0,q
2934.0,3519.0,3803.0,4095.0,4095.0,3141.0,3293.0,3280.0,3.57,-2.17,9.59,-0.02,0.05,0.01,1.0,q
2932.0,3536.0,3815.0,4095.0,4095.0,3146.0,3297.0,3275.0,3.72,-1.81,9.18,-0.07,-0.02,-0.03,1.0,q
2935.0,3535.0,3789.0,4095.0,4095.0,3143.0,3293.0,3282.0,3.71,-2.33,9.5,-0.06,-0.02,-0.03,1.0,q
2946.0,3551.0,3838.0,4095.0,4095.0,3152.0,3306.0,3302.0,3.95,-2.51,9.18,-0.21,-0.24,-0.17,1.0,q
2927.0,3515.0,3795.0,4095.0,4095.0,3152.0,3308.0,3302.0,4.49,-2.22,9.19,-0.09,-0.07,-0.03,1.0,q
2939.0,3550.0,3821.0,4095.0,4095.0,3145.0,3298.0,3312.0,4.74,-2.34,9.08,-0.02,0.04,0.04,1.0,q
2929.0,3531.0,3796.0,4095.0,4095.0,3150.0,3303.0,3296.0,4.29,-2.17,9.0,-0.05,0.04,-0.03,1.0,q
2944.0,3534.0,3794.0,4095.0,4095.0,3152.0,3310.0,3311.0,4.24,-1.94,8.95,-0.05,0.1,0.03,1.0,q
2931.0,3513.0,3792.0,4095.0,4095.0,3147.0,3310.0,3299.0,4.16,-2.15,9.07,-0.08,0.06,0.03,1.0,q
2940.0,3529.0,3799.0,4095.0,4095.0,3155.0,3315.0,3312.0,4.35,-2.29,9.45,0.0,0.16,0.14,1.0,q
2940.0,3525.0,3781.0,4095.0,4095.0,3150.0,3312.0,3312.0,4.11,-1.98,8.9,-0.06,0.14,-0.01,1.0,q
2937.0,3526.0,3792.0,4095.0,4095.0,3146.0,3302.0,3307.0,3.79,-2.21,9.22,-0.15,0.03,0.01,1.0,q
2938.0,3547.0,3815.0,4095.0,4095.0,3143.0,3302.0,3310.0,4.33,-2.45,9.31,-0.11,-0.02,-0.18,1.0,q
2945.0,3536.0,3805.0,4095.0,4095.0,3139.0,3300.0,3307.0,3.42,-2.37,9.37,-0.08,0.06,-0.04,1.0,q
2938.0,3538.0,3824.0,4095.0,4095.0,3151.0,3310.0,3315.0,3.68,-2.15,9.27,-0.03,0.04,0.09,1.0,q
2938.0,3526.0,3772.0,4095.0,4095.0,3147.0,3305.0,3311.0,4.08,-2.26,9.27,-0.05,-0.02,0.08,1.0,q
2939.0,3537.0,3792.0,4095.0,4095.0,3154.0,3313.0,3312.0,3.93,-2.07,9.05,-0.06,-0.0,0.03,1.0,q
2937.0,3530.0,3797.0,4095.0,4095.0,3146.0,3301.0,3311.0,3.81,-2.22,9.17,-0.09,-0.01,-0.04,1.0,q
2939.0,3541.0,3813.0,4095.0,4095.0,3146.0,3302.0,3315.0,4.07,-2.59,9.4,-0.1,0.01,-0.01,1.0,q
2935.0,3535.0,3806.0,4095.0,4095.0,3149.0,3297.0,3301.0,3.69,-2.37,9.21,-0.06,-0.01,-0.06,1.0,q
2955.0,3536.0,3802.0,4095.0,4095.0,3153.0,3307.0,3315.0,3.63,-2.53,9.21,-0.08,0.03,-0.0,1.0,q
2943.0,3519.0,3795.0,4095.0,4095.0,3150.0,3298.0,3309.0,3.69,-2.53,9.29,-0.04,0.0,-0.04,1.0,q
2949.0,3535.0,3809.0,4095.0,4095.0,3149.0,3296.0,3321.0,3.85,-2.29,9.18,-0.04,0.06,0.01,1.0,q
2939.0,3536.0,3802.0,4095.0,4095.0,3170.0,3318.0,3341.0,4.48,-2.93,8.91,-0.08,-0.02,-0.06,1.0,q
2927.0,3537.0,3803.0,4095.0,4095.0,3163.0,3315.0,3332.0,4.62,-2.8,8.74,-0.06,0.04,-0.03,1.0,q
2921.0,3539.0,3819.0,4095.0,4095.0,3167.0,3312.0,3328.0,4.32,-2.52,8.59,-0.07,-0.0,-0.07,1.0,q
2929.0,3536.0,3802.0,4095.0,4095.0,3161.0,3311.0,3330.0,4.71,-3.03,8.95,-0.1,-0.01,-0.01,1.0,q
2936.0,3559.0,3809.0,4095.0,4095.0,3168.0,3318.0,3327.0,4.69,-2.76,8.81,-0.04,0.03,-0.12,1.0,q
2933.0,3542.0,3789.0,4095.0,4095.0,3152.0,3309.0,3332.0,4.16,-2.62,8.77,0.05,0.12,-0.12,1.0,q
2931.0,3531.0,3808.0,4095.0,4095.0,3173.0,3318.0,3334.0,4.33,-2.68,8.88,-0.05,0.01,-0.09,1.0,q
2929.0,3533.0,3792.0,4095.0,4095.0,3165.0,3312.0,3330.0,4.36,-2.58,8.86,-0.04,0.04,-0.06,1.0,q
2940.0,3566.0,3802.0,4095.0,4095.0,3161.0,3303.0,3329.0,4.52,-2.55,8.82,-0.09,0.06,-0.04,1.0,q
2931.0,3536.0,3800.0,4095.0,4095.0,3165.0,3309.0,3334.0,4.1,-2.67,8.98,-0.06,-0.02,-0.1,1.0,q
2941.0,3539.0,3789.0,4095.0,4095.0,3173.0,3322.0,3344.0,4.42,-2.77,9.13,-0.03,0.08,0.03,1.0,q
2933.0,3539.0,3795.0,4095.0,4095.0,3162.0,3303.0,3330.0,4.38,-2.46,8.76,-0.07,0.0,-0.03,1.0,q
2939.0,3536.0,3801.0,4095.0,4095.0,3165.0,3307.0,3329.0,4.23,-2.57,8.96,-0.05,0.03,-0.04,1.0,q
2938.0,3520.0,3811.0,4095.0,4095.0,3175.0,3317.0,3338.0,4.2,-2.76,9.0,-0.09,-0.02,0.0,1.0,q
2934.0,3520.0,3793.0,4095.0,4095.0,3161.0,3311.0,3329.0,4.31,-2.59,8.86,-0.05,0.06,0.03,1.0,q
2950.0,3554.0,3810.0,4095.0,4095.0,3168.0,3314.0,3342.0,4.16,-2.56,8.86,-0.1,0.01,-0.02,1.0,q
2941.0,3539.0,3798.0,4095.0,4095.0,3162.0,3312.0,3338.0,4.04,-2.85,9.02,-0.09,-0.01,0.01,1.0,q
2946.0,3548.0,3806.0,4095.0,4095.0,3166.0,3318.0,3344.0,4.26,-2.6,8.87,-0.03,0.02,0.02,1.0,q
2933.0,3535.0,3781.0,4095.0,4095.0,3163.0,3311.0,3331.0,4.22,-2.57,8.85,-0.12,0.02,-0.02,1.0,q
2942.0,3539.0,3810.0,4095.0,4095.0,3168.0,3316.0,3344.0,4.2,-2.95,9.15,-0.09,-0.03,-0.05,1.0,q
2937.0,3490.0,3870.0,4095.0,4095.0,3210.0,3347.0,3369.0,3.17,-3.19,9.88,-0.05,-0.01,-0.02,1.0,q
2942.0,3518.0,3886.0,4095.0,4095.0,3202.0,3351.0,3367.0,3.22,-2.44,9.17,-0.02,0.05,-0.04,1.0,q
2939.0,3503.0,3887.0,4095.0,4095.0,3201.0,3350.0,3367.0,2.84,-2.75,9.46,-0.09,0.0,-0.12,1.0,q
2944.0,3491.0,3861.0,4095.0,4095.0,3207.0,3371.0,3379.0,3.3,-2.76,9.51,-0.03,0.08,-0.12,1.0,q
2938.0,3490.0,3867.0,4095.0,4095.0,3201.0,3357.0,3376.0,2.81,-2.48,9.25,-0.06,0.07,-0.21,1.0,q
2944.0,3503.0,3899.0,4095.0,4095.0,3201.0,3355.0,3378.0,2.29,-2.52,9.43,-0.06,0.02,-0.09,1.0,q
2939.0,3490.0,3855.0,4095.0,4095.0,3210.0,3366.0,3381.0,2.78,-2.69,9.47,-0.1,-0.05,0.04,1.0,q
2944.0,3483.0,3850.0,4095.0,4095.0,3199.0,3359.0,3376.0,3.17,-2.68,9.57,-0.04,0.01,0.02,1.0,q
2931.0,3504.0,3855.0,4095.0,4095.0,3210.0,3363.0,3383.0,2.79,-2.4,9.19,-0.09,-0.03,-0.04,1.0,q
2937.0,3486.0,3869.0,4095.0,4095.0,3205.0,3350.0,3380.0,2.8,-2.97,9.66,-0.1,-0.03,0.02,1.0,q
2928.0,3504.0,3888.0,4095.0,4095.0,3204.0,3358.0,3383.0,3.02,-2.65,9.35,-0.01,0.01,-0.03,1.0,q
2930.0,3485.0,3859.0,4095.0,4095.0,3198.0,3363.0,3381.0,2.85,-2.71,9.49,-0.06,-0.04,-0.04,1.0,q
2947.0,3504.0,3869.0,4095.0,4095.0,3210.0,3376.0,3403.0,2.94,-2.92,9.41,-0.07,0.01,-0.03,1.0,q
2928.0,3486.0,3866.0,4095.0,4095.0,3201.0,3355.0,3387.0,2.9,-2.52,9.31,-0.01,0.05,-0.07,1.0,q
2941.0,3483.0,3872.0,4095.0,4095.0,3210.0,3360.0,3393.0,2.64,-2.6,9.29,-0.13,-0.07,-0.04,1.0,q
2939.0,3477.0,3844.0,4095.0,4095.0,3202.0,3359.0,3376.0,3.21,-3.0,9.79,-0.07,-0.04,-0.0,1.0,q
2939.0,3501.0,3875.0,4095.0,4095.0,3205.0,3365.0,3390.0,3.18,-2.5,9.3,-0.05,0.02,-0.05,1.0,q
2935.0,3489.0,3841.0,4095.0,4095.0,3210.0,3362.0,3381.0,2.81,-2.73,9.26,-0.11,-0.08,-0.04,1.0,q
2941.0,3504.0,3879.0,4095.0,4095.0,3202.0,3354.0,3377.0,3.02,-2.84,9.52,-0.01,-0.04,-0.03,1.0,q
2946.0,3504.0,3873.0,4095.0,4095.0,3207.0,3374.0,3392.0,3.13,-2.6,9.32,-0.05,-0.01,-0.01,1.0,q
2937.0,3485.0,3859.0,4095.0,4095.0,3217.0,3376.0,3366.0,3.34,-3.45,9.63,-0.03,0.04,0.04,1.0,q
2939.0,3499.0,3882.0,4095.0,4095.0,3227.0,3386.0,3376.0,3.14,-2.84,8.83,-0.03,0.03,-0.04,1.0,q
2941.0,3496.0,3875.0,4095.0,4095.0,3216.0,3367.0,3378.0,3.18,-3.19,9.51,-0.07,0.03,-0.01,1.0,q
2936.0,3505.0,3889.0,4095.0,4095.0,3225.0,3378.0,3375.0,3.27,-3.08,9.23,-0.03,-0.01,-0.02,1.0,q
2943.0,3504.0,3879.0,4095.0,4095.0,3217.0,3376.0,3390.0,3.12,-2.89,9.06,-0.06,0.06,-0.03,1.0,q
2937.0,3493.0,3877.0,4095.0,4095.0,3216.0,3375.0,3374.0,2.86,-3.17,9.45,-0.05,0.02,-0.04,1.0,q
2942.0,3509.0,3876.0,4095.0,4095.0,3217.0,3383.0,3391.0,3.03,-2.8,9.06,-0.06,-0.03,0.01,1.0,q
2932.0,3495.0,3859.0,4095.0,4095.0,3215.0,3375.0,3375.0,3.29,-3.25,9.39,-0.11,0.04,-0.03,1.0,q
2941.0,3507.0,3883.0,4095.0,4095.0,3216.0,3375.0,3367.0,2.77,-3.07,9.27,-0.01,-0.03,-0.12,1.0,q
2931.0,3495.0,3856.0,4095.0,4095.0,3220.0,3376.0,3376.0,2.89,-2.81,8.92,-0.11,-0.09,-0.01,1.0,q
2930.0,3481.0,3869.0,4095.0,4095.0,3226.0,3381.0,3376.0,3.42,-3.7,9.82,-0.11,0.02,0.03,1.0,q
2933.0,3484.0,3856.0,4095.0,4095.0,3219.0,3376.0,3378.0,3.15,-2.51,8.96,0.05,-0.05,-0.04,1.0,q
2931.0,3493.0,3876.0,4095.0,4095.0,3231.0,3386.0,3390.0,3.29,-3.32,9.02,-0.23,0.01,-0.0,1.0,q
2928.0,3489.0,3867.0,4095.0,4095.0,3223.0,3375.0,3376.0,3.21,-3.75,9.91,0.09,0.12,-0.05,1.0,q
2930.0,3498.0,3870.0,4095.0,4095.0,3233.0,3389.0,3393.0,3.05,-2.01,8.31,-0.01,-0.04,-0.05,1.0,q
2945.0,3497.0,3871.0,4095.0,4095.0,3216.0,3376.0,3382.0,3.36,-3.67,9.79,-0.22,-0.14,-0.13,1.0,q
2929.0,3509.0,3858.0,4095.0,4095.0,3216.0,3376.0,3390.0,3.31,-2.56,8.9,0.08,0.03,-0.04,1.0,q
2953.0,3514.0,3885.0,4095.0,4095.0,3223.0,3383.0,3407.0,3.24,-3.14,9.17,-0.2,0.0,0.02,1.0,q
2928.0,3494.0,3880.0,4095.0,4095.0,3219.0,3371.0,3387.0,3.51,-3.54,9.61,0.03,0.03,-0.07,1.0,q
2939.0,3504.0,3866.0,4095.0,4095.0,3222.0,3381.0,3405.0,3.07,-2.58,8.66,-0.08,-0.03,-0.07,1.0,q
2931.0,3490.0,3856.0,4095.0,4095.0,3225.0,3375.0,3382.0,3.39,-2.97,9.12,0.02,0.05,-0.1,1.0,q
2929.0,3483.0,3873.0,4095.0,4095.0,3233.0,3374.0,3391.0,3.19,-2.91,9.3,-0.0,0.05,-0.08,1.0,q
2922.0,3485.0,3839.0,4095.0,4095.0,3218.0,3377.0,3383.0,3.27,-2.84,9.2,0.0,0.05,-0.01,1.0,q
2937.0,3510.0,3869.0,4095.0,4095.0,3223.0,3379.0,3386.0,3.28,-2.67,9.27,0.04,-0.04,-0.09,1.0,q
2926.0,3491.0,3865.0,4095.0,4095.0,3223.0,3377.0,3391.0,3.29,-2.64,9.25,-0.04,0.02,-0.01,1.0,q
2940.0,3504.0,3867.0,4095.0,4095.0,3230.0,3379.0,3390.0,3.41,-2.64,9.29,-0.02,-0.0,-0.04,1.0,q
2944.0,3479.0,3862.0,4095.0,4095.0,3225.0,3376.0,3387.0,3.23,-2.53,9.33,-0.01,-0.02,-0.05,1.0,q
2943.0,3487.0,3850.0,4095.0,4095.0,3237.0,3392.0,3403.0,3.42,-2.66,9.43,-0.02,-0.02,-0.03,1.0,q
2934.0,3497.0,3857.0,4095.0,4095.0,3229.0,3367.0,3386.0,3.5,-2.55,9.36,0.02,-0.01,-0.08,1.0,q
2931.0,3504.0,3861.0,4095.0,4095.0,3231.0,3383.0,3392.0,3.22,-2.37,9.23,-0.01,0.0,-0.03,1.0,q
2928.0,3490.0,3861.0,4095.0,4095.0,3223.0,3376.0,3388.0,3.43,-2.42,9.42,-0.03,-0.0,-0.02,1.0,q
2935.0,3499.0,3881.0,4095.0,4095.0,3222.0,3385.0,3381.0,3.31,-2.4,9.36,-0.05,0.03,0.02,1.0,q
2943.0,3487.0,3877.0,4095.0,4095.0,3230.0,3393.0,3404.0,3.18,-2.36,9.37,-0.02,-0.03,0.03,1.0,q
2933.0,3489.0,3873.0,4095.0,4095.0,3226.0,3376.0,3390.0,3.64,-2.51,9.53,0.01,-0.03,-0.01,1.0,q
2943.0,3504.0,3867.0,4095.0,4095.0,3231.0,3397.0,3408.0,3.17,-2.08,9.42,0.03,-0.09,-0.05,1.0,q
2937.0,3490.0,3874.0,4095.0,4095.0,3226.0,3385.0,3382.0,3.33,-2.18,9.0,-0.08,0.02,0.11,1.0,q
2939.0,3506.0,3877.0,4095.0,4095.0,3233.0,3392.0,3406.0,3.42,-2.48,9.54,-0.03,-0.06,0.05,1.0,q
2935.0,3495.0,3862.0,4095.0,4095.0,3229.0,3379.0,3392.0,3.38,-2.58,8.87,-0.2,0.17,-0.05,1.0,q
2934.0,3501.0,3885.0,4095.0,4095.0,3235.0,3383.0,3397.0,3.43,-1.45,9.59,-0.16,-0.26,-0.02,1.0,q
2939.0,3489.0,3877.0,4095.0,4095.0,3225.0,3378.0,3398.0,3.39,-3.95,9.44,-0.02,0.12,-0.06,1.0,q
