hall_1,hall_2,hall_3,flex_t,flex_i,flex_m,flex_r,flex_p,accel_x,accel_y,accel_z,gyro_x,gyro_y,gyro_z,sign
3047.0,2739.0,2531.0,4095.0,4095.0,3527.0,2718.0,3780.0,-5.06,1.11,8.21,-0.06,-0.23,0.21,q
3053.0,2738.0,2522.0,4095.0,4095.0,3527.0,2720.0,3807.0,-4.5,0.5,8.34,-0.19,-0.37,0.14,q
3045.0,2738.0,2531.0,4095.0,4095.0,3532.0,2710.0,3786.0,-3.25,-0.15,8.39,0.15,-0.34,0.08,q
3047.0,2739.0,2529.0,4095.0,4095.0,3541.0,2722.0,3789.0,-3.64,0.51,8.32,0.24,-0.26,0.04,q
3043.0,2747.0,2541.0,4095.0,4095.0,3525.0,2707.0,3792.0,-2.65,1.42,8.23,0.13,-0.11,-0.0,q
3046.0,2743.0,2533.0,4095.0,4095.0,3523.0,2713.0,3808.0,-3.9,0.66,8.53,0.21,-0.01,-0.42,q
3046.0,2747.0,2534.0,4095.0,4095.0,3525.0,2700.0,3792.0,-3.5,0.06,7.87,0.06,-0.16,-0.53,q
3049.0,2743.0,2531.0,4095.0,4095.0,3523.0,2705.0,3782.0,-4.24,1.49,9.03,-0.05,0.22,-0.22,q
3046.0,2742.0,2537.0,4095.0,4095.0,3533.0,2714.0,3795.0,-3.46,1.66,7.81,-0.09,0.33,0.22,q
3047.0,2741.0,2523.0,4095.0,4095.0,3536.0,2716.0,3777.0,-4.09,1.72,8.59,0.1,0.01,-0.38,q
3043.0,2738.0,2528.0,4095.0,4095.0,3543.0,2715.0,3776.0,-4.6,1.71,8.37,0.1,0.09,-0.1,q
3045.0,2741.0,2529.0,4095.0,4095.0,3547.0,2711.0,3792.0,-4.8,1.99,8.55,-0.13,0.06,0.27,q
3051.0,2739.0,2523.0,4095.0,4095.0,3549.0,2721.0,3785.0,-4.35,1.82,8.41,-0.28,0.09,0.5,q
3049.0,2735.0,2526.0,4095.0,4095.0,3537.0,2719.0,3793.0,-3.77,1.09,8.9,-0.32,0.03,0.12,q
3047.0,2736.0,2530.0,4095.0,4095.0,3526.0,2711.0,3787.0,-3.42,0.67,8.07,-0.0,-0.05,-0.22,q
3047.0,2737.0,2523.0,4095.0,4095.0,3525.0,2704.0,3792.0,-4.1,1.94,6.45,0.19,0.12,-0.04,q
3047.0,2743.0,2525.0,4095.0,4095.0,3526.0,2713.0,3798.0,-4.46,1.4,6.79,-0.01,0.16,0.12,q
3045.0,2738.0,2537.0,4095.0,4095.0,3522.0,2706.0,3787.0,-5.02,0.23,8.5,0.15,-0.15,-0.25,q
3039.0,2735.0,2524.0,4095.0,4095.0,3538.0,2723.0,3771.0,-5.09,-0.44,9.06,0.04,-0.1,0.07,q
3041.0,2739.0,2523.0,4095.0,4095.0,3523.0,2717.0,3792.0,-4.49,0.1,10.25,0.42,-0.33,-0.02,q
3043.0,2740.0,2527.0,4095.0,4095.0,3523.0,2718.0,3794.0,-3.56,2.84,9.57,0.02,-0.41,0.09,q
3050.0,2725.0,2520.0,4095.0,4095.0,3539.0,2717.0,3776.0,-2.8,3.22,8.34,-0.07,-0.34,0.19,q
3050.0,2734.0,2518.0,4095.0,4095.0,3582.0,2738.0,3777.0,-2.06,1.93,6.22,0.02,-0.14,0.04,q
3037.0,2736.0,2527.0,4095.0,4095.0,3536.0,2710.0,3791.0,-3.07,1.58,6.69,-0.1,-0.05,-0.04,q
3045.0,2734.0,2523.0,4095.0,4095.0,3527.0,2706.0,3785.0,-3.49,2.73,9.28,-0.23,0.06,0.27,q
3041.0,2736.0,2518.0,4095.0,4095.0,3533.0,2710.0,3807.0,-2.98,2.67,9.97,-0.22,-0.0,0.43,q
3049.0,2736.0,2523.0,4095.0,4095.0,3541.0,2711.0,3801.0,-3.67,0.51,11.35,-0.51,-0.18,0.28,q
3041.0,2734.0,2518.0,4095.0,4095.0,3530.0,2714.0,3795.0,-0.9,-1.32,9.19,0.32,-0.06,-0.16,q
3047.0,2737.0,2530.0,4095.0,4095.0,3556.0,2722.0,3788.0,-2.05,2.58,4.45,0.51,0.21,-0.73,q
3043.0,2734.0,2527.0,4095.0,4095.0,3545.0,2719.0,3775.0,-4.73,4.94,7.98,-0.38,0.58,0.16,q
3050.0,2731.0,2526.0,4095.0,4095.0,3543.0,2724.0,3789.0,-4.31,2.62,9.69,-0.21,0.34,0.79,q
3047.0,2735.0,2527.0,4095.0,4095.0,3533.0,2729.0,3793.0,-2.7,-1.16,10.2,0.03,-0.31,-0.68,q
3051.0,2735.0,2522.0,4095.0,4095.0,3553.0,2725.0,3792.0,-3.17,1.5,8.14,0.68,-0.37,-1.33,q
3047.0,2735.0,2512.0,4095.0,4095.0,3555.0,2729.0,3786.0,-3.33,2.44,8.33,0.75,-0.62,-1.79,q
3035.0,2736.0,2531.0,4095.0,4095.0,3547.0,2726.0,3807.0,-2.94,1.45,7.57,0.34,-0.31,-1.05,q
3037.0,2736.0,2527.0,4095.0,4095.0,3542.0,2717.0,3776.0,-3.67,2.88,5.51,0.04,0.18,-0.69,q
3045.0,2737.0,2528.0,4095.0,4095.0,3549.0,2729.0,3783.0,-6.73,3.57,8.98,-0.16,0.09,-0.15,q
3044.0,2736.0,2532.0,4095.0,4095.0,3543.0,2727.0,3805.0,-3.65,1.55,10.48,0.14,-0.74,-0.37,q
3041.0,2735.0,2529.0,4095.0,4095.0,3547.0,2734.0,3795.0,-0.81,1.61,8.89,0.56,-0.66,-0.37,q
3039.0,2736.0,2544.0,4095.0,4095.0,3552.0,2734.0,3792.0,-0.3,2.85,8.95,0.54,-0.59,-0.98,q
3046.0,2736.0,2539.0,4095.0,4095.0,3550.0,2734.0,3795.0,-3.64,2.82,8.1,-0.9,0.98,1.71,q
3037.0,2751.0,2544.0,4095.0,4095.0,3559.0,2736.0,3802.0,-2.17,2.61,9.6,-1.41,1.42,2.53,q
3043.0,2732.0,2545.0,4095.0,4095.0,3557.0,2736.0,3801.0,-3.86,0.42,10.23,-1.18,1.47,2.54,q
3042.0,2732.0,2542.0,4095.0,4095.0,3554.0,2732.0,3798.0,-3.84,1.61,7.8,-0.45,0.57,1.04,q
3035.0,2736.0,2544.0,4095.0,4095.0,3559.0,2731.0,3782.0,-2.42,0.81,6.43,0.36,0.07,-0.25,q
3036.0,2733.0,2534.0,4095.0,4095.0,3545.0,2740.0,3796.0,-4.19,2.31,6.8,0.5,-0.0,-1.4,q
3039.0,2734.0,2531.0,4095.0,4095.0,3536.0,2737.0,3788.0,-6.94,3.85,6.62,0.27,-0.36,-0.97,q
3026.0,2737.0,2531.0,4095.0,4095.0,3540.0,2742.0,3793.0,-5.11,2.5,9.3,0.06,-0.54,-0.17,q
3034.0,2727.0,2531.0,4095.0,4095.0,3578.0,2745.0,3802.0,-4.04,2.1,9.89,0.09,-0.54,0.27,q
3042.0,2736.0,2535.0,4095.0,4095.0,3573.0,2739.0,3824.0,-0.94,1.25,10.48,0.54,-0.89,-0.38,q
3037.0,2736.0,2531.0,4095.0,4095.0,3566.0,2743.0,3819.0,-1.17,2.16,7.85,0.81,-1.1,-1.67,q
3037.0,2731.0,2532.0,4095.0,4095.0,3568.0,2738.0,3812.0,-1.19,2.93,7.06,0.55,-0.77,-1.47,q
3027.0,2727.0,2535.0,4095.0,4095.0,3565.0,2740.0,3819.0,-1.42,3.62,7.7,0.27,-0.17,-1.02,q
3035.0,2725.0,2537.0,4095.0,4095.0,3568.0,2745.0,3823.0,-3.52,3.48,7.74,-0.23,0.25,-0.36,q
3041.0,2725.0,2531.0,4095.0,4095.0,3597.0,2745.0,3827.0,-4.47,3.0,8.76,-0.4,0.48,0.52,q
3033.0,2726.0,2534.0,4095.0,4095.0,3570.0,2743.0,3828.0,-3.6,2.81,10.04,-0.07,-0.15,0.48,q
3041.0,2731.0,2539.0,4095.0,4095.0,3574.0,2739.0,3831.0,-1.55,2.72,8.96,-0.04,-0.08,0.44,q
3033.0,2730.0,2549.0,4095.0,4095.0,3573.0,2735.0,3824.0,-0.76,2.23,8.41,0.04,0.03,0.28,q
3038.0,2734.0,2542.0,4095.0,4095.0,3568.0,2739.0,3834.0,-1.53,3.57,7.59,-0.12,0.25,-0.04,q
3036.0,2734.0,2541.0,4095.0,4095.0,3581.0,2743.0,3820.0,-2.07,2.81,7.34,-0.26,0.52,0.37,q
3036.0,2724.0,2539.0,4095.0,4095.0,3600.0,2749.0,3818.0,-3.11,3.51,6.44,-0.41,0.5,0.45,q
3036.0,2731.0,2542.0,4095.0,4095.0,3583.0,2753.0,3827.0,-4.28,3.75,8.78,-0.42,0.57,0.71,q
3027.0,2729.0,2541.0,4095.0,4095.0,3583.0,2749.0,3831.0,-3.81,3.11,8.43,-0.49,0.56,1.36,q
3038.0,2722.0,2539.0,4095.0,4095.0,3610.0,2753.0,3823.0,-3.29,0.62,9.58,-0.5,0.46,1.36,q
3029.0,2718.0,2535.0,4095.0,4095.0,3605.0,2751.0,3817.0,-3.91,3.11,8.7,-0.25,0.53,1.57,q
3028.0,2726.0,2543.0,4095.0,4095.0,3583.0,2746.0,3822.0,-1.8,4.15,9.06,-0.32,0.08,1.12,q
3027.0,2768.0,2587.0,4095.0,4095.0,3641.0,2791.0,3863.0,-2.0,3.86,8.27,0.04,0.09,0.54,q
3030.0,2761.0,2559.0,4095.0,4095.0,3653.0,2794.0,3840.0,-2.26,5.02,7.79,0.2,-0.04,-0.26,q
3034.0,2768.0,2587.0,4095.0,4095.0,3635.0,2794.0,3834.0,-3.25,3.79,6.59,0.01,-0.04,-0.26,q
3036.0,2766.0,2586.0,4095.0,4095.0,3654.0,2800.0,3845.0,-3.34,2.79,6.73,-0.09,0.0,-0.1,q
3029.0,2768.0,2579.0,4095.0,4095.0,3653.0,2789.0,3859.0,-3.59,3.07,7.89,-0.28,0.41,0.44,q
3025.0,2772.0,2583.0,4095.0,4095.0,3639.0,2787.0,3856.0,-4.15,2.34,8.53,-0.01,0.06,0.07,q
3031.0,2757.0,2559.0,4095.0,4095.0,3658.0,2800.0,3859.0,-3.8,3.84,7.76,0.12,-0.25,-0.33,q
3034.0,2764.0,2581.0,4095.0,4095.0,3634.0,2807.0,3867.0,-3.7,2.9,8.32,0.22,-0.37,-0.47,q
3029.0,2759.0,2581.0,4095.0,4095.0,3628.0,2802.0,3859.0,-2.75,4.45,8.11,0.39,-0.67,-0.96,q
3038.0,2771.0,2559.0,4095.0,4095.0,3622.0,2800.0,3859.0,-2.96,4.27,7.68,0.18,-0.63,-0.97,q
3030.0,2761.0,2559.0,4095.0,4095.0,3649.0,2804.0,3856.0,-2.29,3.99,8.31,0.09,-0.66,-0.87,q
3030.0,2754.0,2559.0,4095.0,4095.0,3649.0,2789.0,3842.0,-2.01,2.91,8.74,-0.19,-0.31,-0.43,q
3030.0,2759.0,2559.0,4095.0,4095.0,3639.0,2794.0,3868.0,-1.65,1.79,9.72,0.04,0.03,-0.12,q
3033.0,2758.0,2559.0,4095.0,4095.0,3637.0,2800.0,3855.0,-2.18,3.13,8.12,0.07,-0.03,-0.36,q
3035.0,2764.0,2559.0,4095.0,4095.0,3643.0,2804.0,3870.0,-2.82,3.38,8.07,-0.04,0.1,0.01,q
3029.0,2769.0,2586.0,4095.0,4095.0,3646.0,2784.0,3863.0,-2.44,3.03,8.53,-0.18,0.11,0.06,q
3035.0,2766.0,2585.0,4095.0,4095.0,3643.0,2803.0,3855.0,-2.56,3.14,8.51,0.01,0.03,-0.02,q
3029.0,2768.0,2591.0,4095.0,4095.0,3639.0,2789.0,3870.0,-2.57,3.0,8.53,0.03,0.03,-0.01,q
3037.0,2765.0,2559.0,4095.0,4095.0,3655.0,2800.0,3854.0,-2.68,2.94,8.58,0.05,-0.01,-0.04,q
3027.0,2767.0,2559.0,4095.0,4095.0,3651.0,2794.0,3883.0,-2.56,3.26,8.6,-0.14,-0.04,-0.05,q
3030.0,2768.0,2559.0,4095.0,4095.0,3637.0,2791.0,3858.0,-2.49,2.97,8.72,-0.13,-0.04,-0.14,q
3029.0,2758.0,2579.0,4095.0,4095.0,3639.0,2785.0,3882.0,-1.64,1.3,9.62,0.07,0.14,0.02,q
3031.0,2762.0,2559.0,4095.0,4095.0,3684.0,2797.0,3875.0,-2.63,2.91,7.79,0.49,0.31,-0.84,q
3033.0,2769.0,2579.0,4095.0,4095.0,3667.0,2799.0,3857.0,-3.17,3.78,6.15,0.1,0.06,-1.28,q
3029.0,2765.0,2559.0,4095.0,4095.0,3632.0,2807.0,3867.0,-5.51,4.32,7.2,0.05,-0.03,-1.17,q
3037.0,2768.0,2559.0,4095.0,4095.0,3634.0,2802.0,3855.0,-5.66,3.28,9.34,-0.16,-0.31,-0.4,q
3035.0,2761.0,2559.0,4095.0,4095.0,3655.0,2806.0,3871.0,-3.82,2.28,9.42,-0.17,-0.25,0.49,q
3030.0,2768.0,2585.0,4095.0,4095.0,3652.0,2795.0,3888.0,-2.23,1.34,9.24,0.1,-0.37,0.2,q
3029.0,2765.0,2594.0,4095.0,4095.0,3648.0,2800.0,3875.0,-1.92,2.54,8.32,0.24,-0.41,-0.21,q
3027.0,2766.0,2579.0,4095.0,4095.0,3647.0,2794.0,3870.0,-1.93,2.71,8.14,0.14,-0.44,-0.6,q
3033.0,2758.0,2559.0,4095.0,4095.0,3653.0,2800.0,3875.0,-1.25,1.84,8.69,0.18,-0.57,-0.94,q
3025.0,2765.0,2581.0,4095.0,4095.0,3652.0,2803.0,3887.0,-2.07,2.72,8.59,0.54,-0.34,-1.15,q
3029.0,2763.0,2559.0,4095.0,4095.0,3661.0,2805.0,3874.0,-2.39,3.67,8.27,0.48,-0.28,-1.09,q
3028.0,2768.0,2559.0,4095.0,4095.0,3641.0,2800.0,3877.0,-2.34,2.94,8.39,0.22,-0.23,-0.68,q
3035.0,2768.0,2559.0,4095.0,4095.0,3641.0,2794.0,3866.0,-2.73,2.98,8.54,-0.08,0.02,-0.18,q
3035.0,2768.0,2559.0,4095.0,4095.0,3651.0,2790.0,3875.0,-2.79,2.99,8.54,0.05,-0.04,-0.07,q
3035.0,2761.0,2559.0,4095.0,4095.0,3649.0,2800.0,3883.0,-2.22,2.98,8.47,-0.02,0.02,0.11,q
3028.0,2763.0,2559.0,4095.0,4095.0,3635.0,2799.0,3867.0,-2.25,3.11,8.52,0.02,-0.04,-0.02,q
3027.0,2768.0,2581.0,4095.0,4095.0,3648.0,2822.0,3898.0,-2.28,3.07,8.38,0.04,-0.08,-0.13,q
3029.0,2766.0,2559.0,4095.0,4095.0,3658.0,2811.0,3877.0,-2.43,2.98,8.49,-0.07,0.03,0.04,q
3025.0,2763.0,2579.0,4095.0,4095.0,3648.0,2792.0,3870.0,-3.38,3.03,8.31,-0.26,0.51,0.84,q
3041.0,2768.0,2581.0,4095.0,4095.0,3651.0,2797.0,3888.0,-2.72,2.42,8.89,-0.41,0.5,1.14,q
3028.0,2766.0,2559.0,4095.0,4095.0,3643.0,2795.0,3883.0,-3.04,3.26,8.01,-0.96,1.09,2.38,q
3031.0,2759.0,2559.0,4095.0,4095.0,3647.0,2796.0,3876.0,-2.72,1.84,8.93,-0.78,1.06,2.35,q
3037.0,2758.0,2582.0,4095.0,4095.0,3664.0,2800.0,3877.0,-2.43,3.12,8.18,-0.19,0.47,1.28,q
3024.0,2764.0,2583.0,4095.0,4095.0,3643.0,2784.0,3889.0,-3.11,3.1,8.11,-0.22,0.53,1.13,q
3038.0,2761.0,2559.0,4095.0,4095.0,3639.0,2809.0,3867.0,-2.98,3.51,7.79,-0.24,0.47,0.98,q
3028.0,2766.0,2581.0,4095.0,4095.0,3657.0,2805.0,3876.0,-3.07,3.49,8.2,-0.14,0.16,0.28,q
3030.0,2759.0,2559.0,4095.0,4095.0,3635.0,2795.0,3858.0,-3.22,3.35,8.08,-0.13,0.13,0.07,q
3040.0,2759.0,2559.0,4095.0,4095.0,3661.0,2800.0,3902.0,-3.06,3.8,7.66,-0.06,0.02,-0.03,q
3024.0,2759.0,2559.0,4095.0,4095.0,3643.0,2805.0,3877.0,-3.29,3.29,8.04,-0.03,-0.0,-0.03,q
3036.0,2754.0,2559.0,4095.0,4095.0,3661.0,2801.0,3875.0,-3.3,3.55,7.89,-0.05,0.01,-0.02,q
3025.0,2749.0,2559.0,4095.0,4095.0,3661.0,2799.0,3859.0,-3.24,3.61,7.5,-0.04,0.02,0.05,q
3024.0,2758.0,2559.0,4095.0,4095.0,3646.0,2797.0,3874.0,-2.56,3.85,6.76,-0.23,0.12,-0.0,q
3027.0,2753.0,2559.0,4095.0,4095.0,3648.0,2803.0,3872.0,-3.55,1.86,8.53,0.01,-0.03,-0.51,q
3033.0,2752.0,2559.0,4095.0,4095.0,3632.0,2810.0,3874.0,-3.97,2.72,9.0,0.33,0.07,-0.28,q
3025.0,2766.0,2559.0,4095.0,4095.0,3642.0,2810.0,3886.0,-3.91,3.42,8.99,0.39,-0.07,-0.32,q
3029.0,2753.0,2559.0,4095.0,4095.0,3655.0,2797.0,3853.0,-3.99,4.28,7.84,0.41,-0.33,-0.38,q
3027.0,2754.0,2559.0,4095.0,4095.0,3647.0,2794.0,3869.0,-4.35,3.85,8.34,0.12,-0.19,-0.1,q
3023.0,2753.0,2559.0,4095.0,4095.0,3642.0,2786.0,3856.0,-4.24,4.29,5.96,-0.14,-0.28,0.33,q
3025.0,2752.0,2558.0,4095.0,4095.0,3669.0,2802.0,3865.0,-2.16,3.32,6.41,-0.68,0.0,0.62,q
3030.0,2752.0,2559.0,4095.0,4095.0,3649.0,2806.0,3875.0,-1.67,0.77,9.46,-0.06,-0.15,-0.16,q
3029.0,2753.0,2559.0,4095.0,4095.0,3639.0,2803.0,3885.0,-2.32,2.17,9.57,0.59,-0.19,-1.02,q
3030.0,2753.0,2559.0,4095.0,4095.0,3646.0,2801.0,3863.0,-3.76,3.64,8.09,0.79,-0.39,-1.29,q
3024.0,2737.0,2559.0,4095.0,4095.0,3650.0,2810.0,3870.0,-3.67,2.96,8.78,0.46,-0.69,-1.29,q
3026.0,2750.0,2553.0,4095.0,4095.0,3653.0,2801.0,3869.0,-2.98,3.23,8.78,0.54,-0.48,-0.75,q
3026.0,2755.0,2559.0,4095.0,4095.0,3659.0,2798.0,3863.0,-2.67,3.49,8.7,0.52,-0.74,-1.1,q
3035.0,2753.0,2559.0,4095.0,4095.0,3647.0,2798.0,3857.0,-3.11,4.26,8.17,0.37,-0.47,-0.59,q
3028.0,2750.0,2559.0,4095.0,4095.0,3639.0,2805.0,3866.0,-2.6,4.5,7.35,-0.09,-0.2,0.07,q
3027.0,2750.0,2559.0,4095.0,4095.0,3707.0,2800.0,3851.0,-1.62,3.37,6.99,-0.45,0.14,0.44,q
3026.0,2752.0,2558.0,4095.0,4095.0,3641.0,2791.0,3857.0,-1.3,2.57,8.3,-0.57,0.32,0.44,q
3037.0,2754.0,2559.0,4095.0,4095.0,3654.0,2800.0,3879.0,-2.07,3.22,9.2,-0.46,0.29,0.23,q
3031.0,2745.0,2559.0,4095.0,4095.0,3646.0,2791.0,3871.0,-2.43,2.46,10.81,-0.07,-0.06,0.02,q
3037.0,2754.0,2559.0,4095.0,4095.0,3646.0,2801.0,3867.0,-1.34,2.33,8.43,0.23,-0.1,-0.19,q
3027.0,2751.0,2559.0,4095.0,4095.0,3651.0,2801.0,3856.0,-1.58,2.39,7.3,-0.21,0.14,-0.47,q
3023.0,2762.0,2559.0,4095.0,4095.0,3632.0,2800.0,3854.0,-3.09,2.9,7.14,-0.37,0.38,-0.3,q
3025.0,2747.0,2559.0,4095.0,4095.0,3658.0,2804.0,3867.0,-4.41,3.5,8.18,-0.64,0.36,0.17,q
3026.0,2750.0,2559.0,4095.0,4095.0,3652.0,2803.0,3863.0,-4.11,1.98,10.18,-0.59,0.17,0.64,q
3030.0,2753.0,2559.0,4095.0,4095.0,3663.0,2799.0,3865.0,-3.18,0.2,9.99,-0.4,-0.09,0.6,q
3028.0,2753.0,2559.0,4095.0,4095.0,3637.0,2806.0,3871.0,-2.43,0.1,9.08,-0.09,-0.12,0.42,q
3042.0,2754.0,2559.0,4095.0,4095.0,3637.0,2803.0,3877.0,-2.13,0.7,8.08,0.06,-0.07,0.07,q
3041.0,2753.0,2559.0,4095.0,4095.0,3652.0,2804.0,3866.0,-2.26,0.82,8.15,0.25,0.13,-0.14,q
3038.0,2751.0,2559.0,4095.0,4095.0,3654.0,2800.0,3838.0,-2.34,1.63,6.86,0.12,0.2,-0.33,q
3046.0,2751.0,2551.0,4095.0,4095.0,3662.0,2803.0,3851.0,-3.62,3.13,8.45,-0.05,0.37,-0.36,q
3045.0,2753.0,2555.0,4095.0,4095.0,3659.0,2801.0,3869.0,-5.11,3.66,8.8,-0.38,0.18,0.13,q
3051.0,2757.0,2559.0,4095.0,4095.0,3658.0,2802.0,3876.0,-4.54,0.72,10.63,-0.49,-0.04,0.63,q
3039.0,2761.0,2559.0,4095.0,4095.0,3647.0,2800.0,3859.0,-3.4,-1.11,10.37,0.08,-0.33,0.39,q
3046.0,2755.0,2559.0,4095.0,4095.0,3653.0,2813.0,3857.0,-2.0,-0.47,7.83,0.22,-0.23,0.05,q
3040.0,2752.0,2559.0,4095.0,4095.0,3662.0,2838.0,3860.0,-1.78,1.35,6.8,0.21,0.04,-0.32,q
3024.0,2763.0,2547.0,4095.0,4095.0,3648.0,2812.0,3877.0,-3.56,2.79,8.28,0.22,0.11,-0.35,q
3037.0,2752.0,2554.0,4095.0,4095.0,3677.0,2819.0,3871.0,-3.89,3.27,8.67,0.11,0.14,0.19,q
3037.0,2763.0,2559.0,4095.0,4095.0,3669.0,2815.0,3877.0,-3.53,2.74,7.99,-0.1,-0.05,0.21,q
3035.0,2765.0,2556.0,4095.0,4095.0,3674.0,2819.0,3887.0,-2.38,2.36,6.58,-0.15,0.11,0.4,q
3027.0,2762.0,2550.0,4095.0,4095.0,3667.0,2803.0,3888.0,-2.57,0.75,8.85,-0.29,0.3,0.24,q
3037.0,2755.0,2555.0,4095.0,4095.0,3675.0,2810.0,3895.0,-4.0,0.14,9.49,-0.01,0.09,-0.31,q
3034.0,2767.0,2559.0,4095.0,4095.0,3665.0,2800.0,3904.0,-4.06,1.88,9.46,0.16,-0.07,-0.38,q
3030.0,2759.0,2558.0,4095.0,4095.0,3663.0,2826.0,3887.0,-3.89,2.83,9.21,0.25,-0.23,-0.38,q
3030.0,2766.0,2559.0,4095.0,4095.0,3664.0,2811.0,3888.0,-3.55,2.68,6.81,0.1,-0.25,-0.06,q
3033.0,2763.0,2557.0,4095.0,4095.0,3659.0,2814.0,3891.0,-2.05,2.56,6.96,-0.28,-0.02,0.17,q
3027.0,2755.0,2556.0,4095.0,4095.0,3682.0,2812.0,3901.0,-3.17,2.66,9.13,-0.3,0.22,0.23,q
3028.0,2768.0,2559.0,4095.0,4095.0,3669.0,2821.0,3889.0,-4.58,2.22,9.16,-0.27,-0.06,0.19,q
3028.0,2761.0,2559.0,4095.0,4095.0,3673.0,2810.0,3887.0,-3.08,-0.74,10.46,-0.16,-0.22,0.39,q
3028.0,2762.0,2554.0,4095.0,4095.0,3664.0,2817.0,3903.0,-1.85,1.06,8.51,0.19,-0.27,-0.05,q
3037.0,2766.0,2549.0,4095.0,4095.0,3683.0,2818.0,3894.0,-1.41,1.79,7.86,0.14,-0.07,-0.36,q
3031.0,2757.0,2559.0,4095.0,4095.0,3669.0,2800.0,3894.0,-2.32,2.04,7.84,-0.07,0.29,-0.31,q
3033.0,2767.0,2559.0,4095.0,4095.0,3674.0,2815.0,3888.0,-3.96,2.4,7.29,-0.2,0.17,-0.25,q
3037.0,2761.0,2555.0,4095.0,4095.0,3664.0,2820.0,3901.0,-4.68,1.75,9.3,-0.34,0.3,0.46,q
3028.0,2766.0,2558.0,4095.0,4095.0,3671.0,2817.0,3888.0,-3.86,1.06,10.13,-0.19,-0.07,0.61,q
3026.0,2759.0,2557.0,4095.0,4095.0,3680.0,2812.0,3883.0,-2.57,1.85,8.96,-0.05,-0.17,0.3,q
3036.0,2762.0,2559.0,4095.0,4095.0,3652.0,2815.0,3890.0,-3.03,3.21,8.07,-0.18,-0.12,0.38,q
3035.0,2758.0,2555.0,4095.0,4095.0,3675.0,2819.0,3882.0,-2.9,1.17,7.28,-0.07,-0.25,0.18,q
3043.0,2767.0,2559.0,4095.0,4095.0,3658.0,2821.0,3917.0,-1.83,1.37,7.71,-0.24,0.24,0.57,q
3029.0,2764.0,2559.0,4095.0,4095.0,3658.0,2811.0,3887.0,-2.51,0.47,8.47,0.09,0.13,-0.37,q
3030.0,2762.0,2559.0,4095.0,4095.0,3678.0,2819.0,3902.0,-2.8,0.26,9.33,-0.0,0.25,-0.62,q
3038.0,2762.0,2559.0,4095.0,4095.0,3669.0,2821.0,3888.0,-3.07,0.99,10.34,0.07,0.13,-0.88,q
3039.0,2763.0,2559.0,4095.0,4095.0,3679.0,2818.0,3889.0,-3.44,1.61,10.18,-0.36,0.31,-0.7,q
3038.0,2765.0,2559.0,4095.0,4095.0,3687.0,2823.0,3915.0,-3.92,1.39,8.49,0.4,-0.01,-0.34,q
3036.0,2765.0,2559.0,4095.0,4095.0,3680.0,2810.0,3891.0,-3.39,1.85,7.49,0.11,0.17,0.18,q
3034.0,2759.0,2559.0,4095.0,4095.0,3685.0,2819.0,3888.0,-4.45,0.92,7.58,-0.01,0.2,0.12,q
3034.0,2769.0,2554.0,4095.0,4095.0,3680.0,2816.0,3888.0,-5.26,0.9,7.39,-0.33,0.12,0.41,q
3042.0,2759.0,2559.0,4095.0,4095.0,3666.0,2816.0,3894.0,-4.86,-0.09,8.63,-0.26,-0.07,0.47,q
3045.0,2765.0,2559.0,4095.0,4095.0,3680.0,2804.0,3885.0,-4.03,-0.25,9.73,-0.16,-0.35,0.33,q
3029.0,2767.0,2559.0,4095.0,4095.0,3668.0,2813.0,3895.0,-3.47,0.9,10.1,0.06,-0.36,0.34,q
3037.0,2768.0,2559.0,4095.0,4095.0,3686.0,2815.0,3879.0,-1.95,2.22,8.6,-0.03,-0.13,0.42,q
3033.0,2766.0,2559.0,4095.0,4095.0,3661.0,2815.0,3902.0,-2.12,2.48,7.97,0.03,-0.1,0.04,q
3035.0,2769.0,2559.0,4095.0,4095.0,3664.0,2826.0,3909.0,-2.7,2.06,7.98,-0.05,-0.02,-0.11,q
3038.0,2766.0,2559.0,4095.0,4095.0,3682.0,2837.0,3904.0,-3.72,1.2,8.59,-0.12,-0.05,0.03,q
3030.0,2770.0,2559.0,4095.0,4095.0,3669.0,2821.0,3889.0,-2.95,-0.4,9.17,0.04,-0.19,0.09,q
3030.0,2762.0,2559.0,4095.0,4095.0,3676.0,2831.0,3899.0,-1.48,1.4,8.35,0.25,-0.05,-0.07,q
3030.0,2769.0,2559.0,4095.0,4095.0,3679.0,2811.0,3895.0,-1.98,2.41,7.8,0.21,0.15,-0.19,q
3037.0,2769.0,2559.0,4095.0,4095.0,3674.0,2823.0,3900.0,-3.04,3.31,8.05,0.05,0.32,-0.12,q
3036.0,2768.0,2559.0,4095.0,4095.0,3664.0,2809.0,3897.0,-3.83,2.59,8.54,-0.2,0.17,-0.06,q
3030.0,2767.0,2559.0,4095.0,4095.0,3690.0,2812.0,3888.0,-4.26,1.53,9.2,-0.19,0.04,0.16,q
3033.0,2766.0,2559.0,4095.0,4095.0,3673.0,2813.0,3900.0,-3.55,1.0,9.49,0.04,-0.05,0.36,q
3040.0,2759.0,2559.0,4095.0,4095.0,3679.0,2815.0,3918.0,-2.51,1.12,8.61,0.1,-0.13,-0.02,q
3037.0,2767.0,2559.0,4095.0,4095.0,3664.0,2814.0,3890.0,-2.31,1.99,8.08,0.0,-0.07,-0.11,q
3025.0,2770.0,2559.0,4095.0,4095.0,3691.0,2807.0,3891.0,-2.18,1.27,8.39,-0.06,-0.06,-0.4,q
3037.0,2767.0,2559.0,4095.0,4095.0,3658.0,2815.0,3894.0,-2.16,1.67,7.92,-0.07,0.47,-0.49,q
3029.0,2771.0,2559.0,4095.0,4095.0,3663.0,2807.0,3897.0,-5.7,3.35,7.62,0.21,-0.06,-0.76,q
3035.0,2769.0,2559.0,4095.0,4095.0,3664.0,2817.0,3899.0,-4.57,1.25,10.33,-0.13,-0.28,0.28,q
3034.0,2774.0,2559.0,4095.0,4095.0,3664.0,2829.0,3895.0,-2.53,1.91,9.58,0.36,-0.96,-0.66,q
3037.0,2768.0,2559.0,4095.0,4095.0,3663.0,2819.0,3909.0,-1.15,0.82,9.75,-0.02,-0.11,0.44,q
3041.0,2765.0,2559.0,4095.0,4095.0,3679.0,2818.0,3892.0,-0.69,1.5,8.35,0.13,0.07,-0.21,q
3031.0,2767.0,2559.0,4095.0,4095.0,3664.0,2822.0,3898.0,-2.14,1.53,7.33,0.03,0.24,-0.62,q
3038.0,2761.0,2559.0,4095.0,4095.0,3669.0,2816.0,3884.0,-3.35,2.42,7.18,0.01,0.1,-0.59,q
3027.0,2764.0,2559.0,4095.0,4095.0,3674.0,2815.0,3889.0,-4.11,2.52,9.45,-0.25,0.23,0.02,q
3029.0,2762.0,2559.0,4095.0,4095.0,3660.0,2823.0,3905.0,-4.46,2.11,10.19,-0.37,-0.06,0.41,q
3024.0,2766.0,2559.0,4095.0,4095.0,3681.0,2806.0,3885.0,-2.25,0.4,10.24,0.01,-0.32,0.4,q
3034.0,2766.0,2559.0,4095.0,4095.0,3683.0,2815.0,3904.0,-1.43,0.95,8.31,0.14,-0.14,0.19,q
3024.0,2762.0,2559.0,4095.0,4095.0,3683.0,2805.0,3889.0,-1.49,2.47,6.73,-0.15,0.41,0.35,q
3031.0,2767.0,2559.0,4095.0,4095.0,3670.0,2803.0,3888.0,-3.33,1.62,7.51,-0.1,0.2,0.07,q
3026.0,2768.0,2559.0,4095.0,4095.0,3689.0,2818.0,3907.0,-3.31,-0.07,10.02,-0.14,0.36,0.39,q
3027.0,2771.0,2559.0,4095.0,4095.0,3663.0,2806.0,3888.0,-2.53,1.9,10.67,0.1,-0.0,-0.4,q
3031.0,2755.0,2559.0,4095.0,4095.0,3675.0,2817.0,3892.0,-4.12,3.53,9.19,0.33,-0.22,-0.43,q
3034.0,2757.0,2580.0,4095.0,4095.0,3691.0,2809.0,3888.0,-3.3,3.32,7.08,-0.35,-0.1,0.4,q
3035.0,2764.0,2559.0,4095.0,4095.0,3664.0,2822.0,3895.0,-2.11,0.94,7.31,-0.44,-0.09,0.47,q
3031.0,2767.0,2559.0,4095.0,4095.0,3671.0,2821.0,3886.0,-1.95,-0.3,8.68,-0.45,0.45,0.79,q
3039.0,2759.0,2559.0,4095.0,4095.0,3675.0,2823.0,3889.0,-2.9,0.37,9.91,0.16,0.31,-0.1,q
3042.0,2768.0,2584.0,4095.0,4095.0,3679.0,2832.0,3905.0,-3.95,2.59,9.56,0.33,0.14,-0.64,q
3029.0,2763.0,2559.0,4095.0,4095.0,3691.0,2822.0,3888.0,-4.04,3.29,8.4,0.02,-0.22,-0.03,q
3037.0,2767.0,2559.0,4095.0,4095.0,3670.0,2817.0,3889.0,-3.18,1.86,7.81,-0.6,-0.12,0.98,q
3025.0,2778.0,2559.0,4095.0,4095.0,3686.0,2830.0,3888.0,-2.54,-0.01,7.86,-0.46,-0.04,0.75,q
3034.0,2767.0,2559.0,4095.0,4095.0,3684.0,2820.0,3899.0,-1.86,-0.32,8.89,-0.24,0.15,0.37,q
3025.0,2759.0,2559.0,4095.0,4095.0,3667.0,2821.0,3891.0,-2.78,1.43,8.81,0.04,0.31,0.11,q
3029.0,2763.0,2559.0,4095.0,4095.0,3700.0,2815.0,3886.0,-3.64,2.55,9.75,-0.03,0.3,-0.16,q
3036.0,2764.0,2559.0,4095.0,4095.0,3679.0,2813.0,3891.0,-4.82,2.42,7.64,-0.01,0.35,0.41,q
3039.0,2762.0,2559.0,4095.0,4095.0,3690.0,2812.0,3890.0,-5.81,1.02,9.42,-0.24,-0.02,0.29,q
3038.0,2763.0,2559.0,4095.0,4095.0,3666.0,2816.0,3886.0,-3.22,-0.58,8.6,0.28,-0.63,-0.32,q
3037.0,2763.0,2559.0,4095.0,4095.0,3669.0,2816.0,3888.0,-2.08,2.18,7.19,0.38,-0.2,-0.27,q
3041.0,2768.0,2559.0,4095.0,4095.0,3671.0,2823.0,3904.0,-3.08,3.02,7.8,0.21,-0.09,-0.41,q
3039.0,2767.0,2559.0,4095.0,4095.0,3665.0,2825.0,3920.0,-4.29,3.0,8.61,-0.16,0.03,0.21,q
3027.0,2767.0,2559.0,4095.0,4095.0,3664.0,2819.0,3878.0,-3.96,1.49,9.87,-0.22,0.14,0.94,q
3026.0,2759.0,2559.0,4095.0,4095.0,3685.0,2821.0,3890.0,-2.38,1.75,9.6,-0.2,0.07,0.6,q
3039.0,2759.0,2559.0,4095.0,4095.0,3686.0,2839.0,3882.0,-1.53,1.77,8.32,0.12,0.03,-0.16,q
3033.0,2762.0,2580.0,4095.0,4095.0,3679.0,2827.0,3887.0,-2.14,2.01,7.05,-0.05,0.08,-0.59,q
3030.0,2768.0,2559.0,4095.0,4095.0,3682.0,2815.0,3882.0,-2.62,2.1,7.31,-0.25,0.44,-0.62,q
3031.0,2759.0,2559.0,4095.0,4095.0,3695.0,2821.0,3875.0,-6.13,2.51,8.67,0.74,-0.31,-0.96,q
3031.0,2765.0,2559.0,4095.0,4095.0,3696.0,2823.0,3901.0,-4.36,2.6,9.14,0.34,-0.51,-0.12,q
3037.0,2761.0,2559.0,4095.0,4095.0,3692.0,2819.0,3937.0,-2.55,1.39,9.44,0.06,-0.56,-0.19,q
3027.0,2768.0,2559.0,4095.0,4095.0,3679.0,2823.0,3893.0,-1.52,1.23,8.79,0.27,-0.46,-0.58,q
