hall_1,hall_2,hall_3,flex_t,flex_i,flex_m,flex_r,flex_p,accel_x,accel_y,accel_z,gyro_x,gyro_y,gyro_z,sign
2958.0,2541.0,1331.0,4095.0,4095.0,2650.0,3120.0,2961.0,2.72,-7.18,10.18,-0.01,-0.01,-0.19,q
2944.0,2529.0,1331.0,4095.0,4095.0,2649.0,3120.0,2961.0,2.63,-7.39,10.38,-0.03,0.06,-0.11,q
2950.0,2546.0,1339.0,4095.0,4095.0,2644.0,3116.0,2958.0,2.5,-7.39,10.38,-0.08,-0.02,-0.22,q
2945.0,2544.0,1333.0,4095.0,4095.0,2653.0,3119.0,2960.0,2.46,-7.43,10.28,-0.11,0.08,-0.09,q
2956.0,2550.0,1339.0,4095.0,4095.0,2647.0,3113.0,2960.0,2.13,-7.41,10.21,-0.11,0.0,-0.07,q
2951.0,2534.0,1328.0,4095.0,4095.0,2647.0,3113.0,2959.0,2.41,-7.43,10.23,-0.08,0.01,-0.03,q
2953.0,2544.0,1337.0,4095.0,4095.0,2645.0,3100.0,2951.0,2.36,-7.32,10.07,-0.04,-0.02,-0.06,q
2949.0,2546.0,1337.0,4095.0,4095.0,2644.0,3091.0,2933.0,2.34,-7.31,10.06,-0.01,0.01,-0.12,q
2957.0,2555.0,1344.0,4095.0,4095.0,2646.0,3094.0,2935.0,2.24,-7.32,10.0,-0.04,-0.06,-0.17,q
2955.0,2559.0,1344.0,4095.0,4095.0,2649.0,3103.0,2943.0,2.31,-7.44,10.1,0.01,-0.02,-0.13,q
2950.0,2559.0,1338.0,4095.0,4095.0,2646.0,3103.0,2943.0,2.38,-7.48,10.18,-0.06,-0.03,-0.16,q
2954.0,2559.0,1354.0,4095.0,4095.0,2651.0,3095.0,2934.0,2.51,-7.64,10.11,-0.05,0.01,-0.12,q
2947.0,2559.0,1342.0,4095.0,4095.0,2647.0,3102.0,2935.0,2.34,-7.73,10.23,-0.07,-0.03,-0.17,q
2954.0,2550.0,1346.0,4095.0,4095.0,2649.0,3095.0,2941.0,2.37,-7.62,10.01,0.01,0.01,-0.18,q
2944.0,2559.0,1339.0,4095.0,4095.0,2646.0,3097.0,2935.0,2.4,-7.65,10.08,0.02,0.0,-0.2,q
2955.0,2547.0,1347.0,4095.0,4095.0,2651.0,3099.0,2940.0,2.45,-7.58,9.83,0.05,-0.06,-0.26,q
2947.0,2555.0,1356.0,4095.0,4095.0,2641.0,3093.0,2939.0,2.34,-7.52,9.97,-0.0,-0.04,-0.19,q
2957.0,2559.0,1347.0,4095.0,4095.0,2646.0,3093.0,2938.0,2.61,-7.56,9.92,-0.0,-0.13,-0.26,q
2943.0,2559.0,1337.0,4095.0,4095.0,2643.0,3093.0,2939.0,2.57,-7.53,10.04,-0.03,-0.07,-0.19,q
2956.0,2558.0,1345.0,4095.0,4095.0,2647.0,3094.0,2941.0,2.78,-7.56,10.04,-0.02,-0.07,-0.19,q
2951.0,2559.0,1350.0,4095.0,4095.0,2643.0,3091.0,2938.0,2.67,-7.37,9.82,-0.04,-0.06,-0.19,q
2947.0,2557.0,1349.0,4095.0,4095.0,2646.0,3098.0,2941.0,2.79,-7.47,9.84,-0.03,-0.02,-0.16,q
2946.0,2559.0,1346.0,4095.0,4095.0,2646.0,3091.0,2935.0,2.53,-7.53,9.78,-0.0,-0.07,-0.2,q
2955.0,2559.0,1344.0,4095.0,4095.0,2649.0,3089.0,2929.0,2.69,-7.59,9.85,0.02,-0.01,-0.15,q
2954.0,2559.0,1345.0,4095.0,4095.0,2651.0,3095.0,2929.0,2.75,-7.67,9.81,-0.01,-0.02,-0.17,q
2944.0,2559.0,1349.0,4095.0,4095.0,2649.0,3091.0,2931.0,2.78,-7.56,9.75,-0.02,-0.07,-0.2,q
2955.0,2559.0,1350.0,4095.0,4095.0,2643.0,3089.0,2927.0,2.63,-7.61,9.78,0.0,0.05,-0.1,q
2946.0,2559.0,1360.0,4095.0,4095.0,2647.0,3093.0,2930.0,2.73,-7.53,9.7,0.03,0.0,-0.15,q
2950.0,2559.0,1356.0,4095.0,4095.0,2651.0,3092.0,2926.0,2.72,-7.67,9.89,-0.03,-0.04,-0.15,q
2958.0,2559.0,1350.0,4095.0,4095.0,2654.0,3095.0,2933.0,2.83,-7.66,9.8,0.02,-0.04,-0.22,q
2944.0,2559.0,1350.0,4095.0,4095.0,2655.0,3098.0,2933.0,2.77,-7.69,9.91,-0.01,-0.03,-0.23,q
2948.0,2582.0,1344.0,4095.0,4095.0,2650.0,3094.0,2932.0,2.67,-7.6,9.77,0.02,-0.11,-0.21,q
2947.0,2582.0,1343.0,4095.0,4095.0,2654.0,3094.0,2929.0,2.83,-7.54,9.73,0.0,-0.04,-0.13,q
2957.0,2559.0,1339.0,4095.0,4095.0,2654.0,3100.0,2929.0,2.85,-7.47,9.68,-0.03,-0.14,-0.3,q
2957.0,2559.0,1326.0,4095.0,4095.0,2651.0,3103.0,2928.0,2.86,-7.51,9.69,0.02,0.02,-0.14,q
2947.0,2559.0,1323.0,4095.0,4095.0,2655.0,3095.0,2922.0,2.85,-7.62,9.73,0.0,-0.11,-0.25,q
2948.0,2559.0,1327.0,4095.0,4095.0,2654.0,3098.0,2928.0,2.84,-7.52,9.57,0.04,0.05,-0.11,q
2945.0,2559.0,1327.0,4095.0,4095.0,2654.0,3106.0,2928.0,3.06,-7.64,9.78,-0.01,-0.09,-0.2,q
2944.0,2559.0,1330.0,4095.0,4095.0,2651.0,3107.0,2931.0,2.91,-7.6,9.75,0.03,-0.02,-0.14,q
2953.0,2559.0,1328.0,4095.0,4095.0,2656.0,3107.0,2931.0,3.03,-7.64,9.78,0.01,-0.0,-0.15,q
2950.0,2581.0,1324.0,4095.0,4095.0,2655.0,3109.0,2929.0,2.91,-7.55,9.61,-0.01,-0.03,-0.18,q
2945.0,2559.0,1311.0,4095.0,4095.0,2656.0,3109.0,2929.0,3.03,-7.58,9.64,-0.01,-0.02,-0.2,q
2947.0,2559.0,1303.0,4095.0,4095.0,2655.0,3101.0,2925.0,2.97,-7.56,9.68,0.01,-0.1,-0.28,q
2960.0,2559.0,1305.0,4095.0,4095.0,2651.0,3109.0,2928.0,3.16,-7.43,9.51,0.04,0.07,-0.18,q
2945.0,2559.0,1293.0,4095.0,4095.0,2655.0,3113.0,2929.0,3.24,-7.53,9.76,-0.07,-0.17,-0.32,q
2948.0,2607.0,1281.0,4095.0,4095.0,2653.0,3107.0,2931.0,2.96,-7.42,9.61,0.06,-0.06,-0.17,q
2960.0,2625.0,1277.0,4095.0,4095.0,2651.0,3110.0,2925.0,3.23,-7.63,9.8,-0.02,-0.07,-0.23,q
2954.0,2614.0,1263.0,4095.0,4095.0,2649.0,3104.0,2928.0,3.09,-7.49,9.64,0.09,-0.03,-0.13,q
2946.0,2606.0,1258.0,4095.0,4095.0,2641.0,3097.0,2922.0,3.25,-7.55,9.62,0.02,-0.03,-0.2,q
2950.0,2595.0,1260.0,4095.0,4095.0,2646.0,3098.0,2921.0,3.47,-7.6,9.68,0.05,-0.02,-0.23,q
2945.0,2598.0,1261.0,4095.0,4095.0,2653.0,3104.0,2925.0,3.12,-7.49,9.6,0.05,0.02,-0.26,q
2951.0,2597.0,1268.0,4095.0,4095.0,2651.0,3105.0,2925.0,3.39,-7.34,9.58,0.03,0.09,-0.19,q
2949.0,2607.0,1267.0,4095.0,4095.0,2647.0,3099.0,2918.0,3.17,-7.37,9.61,0.01,0.02,-0.11,q
2950.0,2618.0,1279.0,4095.0,4095.0,2654.0,3101.0,2919.0,3.11,-7.43,9.62,0.02,0.13,0.01,q
2954.0,2614.0,1280.0,4095.0,4095.0,2654.0,3095.0,2917.0,3.17,-7.49,9.76,-0.01,0.03,-0.09,q
2944.0,2637.0,1296.0,4095.0,4095.0,2646.0,3088.0,2921.0,2.93,-7.43,9.66,0.05,0.15,-0.11,q
2960.0,2650.0,1312.0,4095.0,4095.0,2640.0,3071.0,2911.0,3.12,-7.54,9.76,-0.01,0.0,-0.19,q
2946.0,2675.0,1338.0,4095.0,4095.0,2637.0,3045.0,2897.0,3.04,-7.48,9.77,0.05,0.0,-0.18,q
2949.0,2704.0,1346.0,4095.0,4095.0,2634.0,3024.0,2863.0,3.02,-7.42,9.63,0.03,-0.23,-0.15,q
2944.0,2710.0,1353.0,4095.0,4095.0,2635.0,3013.0,2832.0,3.43,-7.53,9.7,0.08,-0.03,-0.15,q
2951.0,2709.0,1360.0,4095.0,4095.0,2630.0,3013.0,2836.0,3.28,-7.64,9.86,0.07,0.01,-0.22,q
2947.0,2704.0,1352.0,4095.0,4095.0,2623.0,3003.0,2834.0,3.18,-7.54,9.88,0.04,0.01,-0.14,q
2946.0,2668.0,1343.0,4095.0,4095.0,2622.0,2993.0,2815.0,2.98,-7.38,9.69,0.04,-0.01,-0.15,q
2955.0,2662.0,1353.0,4095.0,4095.0,2617.0,2977.0,2782.0,3.17,-7.44,9.77,-0.01,-0.03,-0.09,q
2948.0,2618.0,1344.0,4095.0,4095.0,2621.0,2965.0,2768.0,3.28,-7.5,9.88,0.07,-0.11,-0.2,q
2953.0,2559.0,1322.0,4095.0,4095.0,2615.0,2963.0,2773.0,3.08,-7.39,9.79,0.11,0.0,-0.15,q
2951.0,2544.0,1318.0,4095.0,4095.0,2614.0,2962.0,2775.0,2.9,-7.43,10.07,0.05,0.23,-0.16,q
2949.0,2513.0,1301.0,4095.0,4095.0,2620.0,2967.0,2782.0,3.09,-7.24,9.79,0.0,-0.1,-0.19,q
2954.0,2509.0,1293.0,4095.0,4095.0,2630.0,2987.0,2796.0,3.23,-7.32,9.75,-0.01,0.0,-0.17,q
2954.0,2495.0,1280.0,4095.0,4095.0,2638.0,3008.0,2803.0,3.2,-7.38,9.83,-0.01,0.05,-0.08,q
2947.0,2490.0,1276.0,4095.0,4095.0,2640.0,3009.0,2815.0,3.39,-7.48,10.0,0.01,0.02,-0.15,q
2944.0,2495.0,1273.0,4095.0,4095.0,2641.0,3015.0,2828.0,3.08,-7.33,9.75,0.0,0.08,-0.13,q
2948.0,2512.0,1290.0,4095.0,4095.0,2642.0,3025.0,2841.0,3.2,-7.35,9.91,-0.03,0.08,-0.15,q
2943.0,2497.0,1301.0,4095.0,4095.0,2641.0,3023.0,2846.0,2.98,-7.35,9.81,-0.06,0.04,-0.13,q
2945.0,2500.0,1300.0,4095.0,4095.0,2640.0,3024.0,2845.0,2.98,-7.42,9.89,0.03,0.03,-0.14,q
2943.0,2494.0,1316.0,4095.0,4095.0,2640.0,3023.0,2849.0,2.96,-7.51,9.96,-0.0,0.05,-0.09,q
2947.0,2485.0,1318.0,4095.0,4095.0,2640.0,3030.0,2850.0,3.22,-7.49,9.89,0.06,-0.04,-0.18,q
2954.0,2491.0,1323.0,4095.0,4095.0,2646.0,3031.0,2850.0,3.12,-7.36,9.84,0.01,-0.04,-0.17,q
2943.0,2485.0,1306.0,4095.0,4095.0,2642.0,3037.0,2847.0,3.21,-7.31,9.79,0.01,-0.12,-0.2,q
2942.0,2483.0,1299.0,4095.0,4095.0,2653.0,3039.0,2851.0,3.22,-7.4,9.96,0.06,0.03,-0.18,q
2955.0,2484.0,1282.0,4095.0,4095.0,2652.0,3039.0,2850.0,3.19,-7.42,9.84,-0.02,-0.03,-0.17,q
2955.0,2482.0,1283.0,4095.0,4095.0,2653.0,3036.0,2839.0,3.12,-7.42,9.86,0.05,-0.08,-0.18,q
2946.0,2470.0,1264.0,4095.0,4095.0,2656.0,3045.0,2843.0,3.37,-7.5,9.89,0.03,-0.08,-0.19,q
2955.0,2475.0,1243.0,4095.0,4095.0,2656.0,3054.0,2841.0,3.2,-7.41,9.85,0.08,0.07,-0.19,q
2944.0,2468.0,1228.0,4095.0,4095.0,2670.0,3093.0,2877.0,3.05,-7.33,9.75,-0.01,0.03,-0.14,q
2949.0,2488.0,1228.0,4095.0,4095.0,2672.0,3105.0,2878.0,3.03,-7.29,9.81,-0.02,0.02,-0.14,q
2946.0,2495.0,1222.0,4095.0,4095.0,2677.0,3115.0,2886.0,3.25,-7.43,9.87,-0.03,0.01,-0.12,q
2953.0,2498.0,1232.0,4095.0,4095.0,2672.0,3099.0,2885.0,3.17,-7.48,9.96,-0.01,-0.01,-0.16,q
2939.0,2511.0,1235.0,4095.0,4095.0,2671.0,3093.0,2881.0,3.11,-7.48,9.86,-0.01,-0.0,-0.13,q
2949.0,2513.0,1243.0,4095.0,4095.0,2661.0,3071.0,2876.0,3.14,-7.52,9.97,-0.01,-0.03,-0.16,q
2957.0,2527.0,1247.0,4095.0,4095.0,2662.0,3056.0,2861.0,3.2,-7.45,9.88,0.01,-0.04,-0.13,q
2949.0,2517.0,1243.0,4095.0,4095.0,2654.0,3055.0,2859.0,3.14,-7.35,9.82,0.03,-0.01,-0.16,q
2954.0,2530.0,1249.0,4095.0,4095.0,2655.0,3050.0,2857.0,3.14,-7.28,9.85,0.05,0.03,-0.15,q
2951.0,2516.0,1249.0,4095.0,4095.0,2663.0,3045.0,2853.0,3.14,-7.32,9.79,0.03,-0.02,-0.19,q
2958.0,2495.0,1276.0,4095.0,4095.0,2663.0,3041.0,2857.0,3.2,-7.35,9.87,-0.01,-0.04,-0.18,q
2943.0,2483.0,1280.0,4095.0,4095.0,2661.0,3046.0,2863.0,3.15,-7.39,9.9,0.02,0.06,-0.19,q
2954.0,2491.0,1278.0,4095.0,4095.0,2672.0,3056.0,2864.0,3.11,-7.43,9.84,0.03,-0.01,-0.23,q
2950.0,2482.0,1270.0,4095.0,4095.0,2671.0,3058.0,2868.0,3.01,-7.29,9.78,0.06,0.01,-0.23,q
2951.0,2494.0,1262.0,4095.0,4095.0,2669.0,3056.0,2870.0,3.06,-7.23,9.75,-0.0,-0.07,-0.23,q
2948.0,2483.0,1257.0,4095.0,4095.0,2666.0,3054.0,2868.0,3.24,-7.29,9.76,-0.02,-0.06,-0.13,q
2947.0,2485.0,1263.0,4095.0,4095.0,2672.0,3058.0,2873.0,3.27,-7.49,9.91,-0.06,-0.12,-0.18,q
2947.0,2482.0,1262.0,4095.0,4095.0,2672.0,3062.0,2879.0,3.29,-7.51,9.96,-0.03,-0.06,-0.11,q
2946.0,2481.0,1256.0,4095.0,4095.0,2672.0,3063.0,2882.0,3.55,-7.45,10.03,0.05,0.03,-0.16,q
2945.0,2482.0,1257.0,4095.0,4095.0,2670.0,3056.0,2875.0,3.44,-7.33,9.65,-0.01,-0.04,-0.16,q
2947.0,2485.0,1264.0,4095.0,4095.0,2672.0,3059.0,2879.0,3.36,-7.3,9.71,0.02,0.04,-0.16,q
2944.0,2480.0,1247.0,4095.0,4095.0,2672.0,3062.0,2879.0,3.12,-7.25,9.75,0.0,0.03,-0.17,q
2951.0,2494.0,1264.0,4095.0,4095.0,2672.0,3062.0,2880.0,3.21,-7.31,9.84,-0.02,0.06,-0.12,q
2944.0,2485.0,1251.0,4095.0,4095.0,2675.0,3062.0,2875.0,3.3,-7.38,9.68,-0.03,0.07,-0.08,q
2953.0,2480.0,1250.0,4095.0,4095.0,2669.0,3062.0,2868.0,3.11,-7.59,9.82,-0.04,-0.0,-0.13,q
2947.0,2476.0,1239.0,4095.0,4095.0,2672.0,3071.0,2863.0,3.09,-7.52,9.81,0.04,-0.04,-0.14,q
2945.0,2531.0,1200.0,4095.0,4095.0,2673.0,3088.0,2852.0,3.09,-7.32,9.96,0.04,-0.06,-0.18,q
2955.0,2527.0,1181.0,4095.0,4095.0,2675.0,3090.0,2864.0,3.36,-7.34,9.68,0.06,0.04,-0.22,q
2958.0,2525.0,1174.0,4095.0,4095.0,2681.0,3100.0,2876.0,3.15,-7.31,9.76,-0.02,-0.01,-0.23,q
2950.0,2525.0,1168.0,4095.0,4095.0,2677.0,3098.0,2881.0,3.13,-7.35,9.81,0.04,0.01,-0.25,q
2947.0,2528.0,1168.0,4095.0,4095.0,2683.0,3098.0,2878.0,3.02,-7.37,9.9,-0.03,-0.03,-0.18,q
2950.0,2523.0,1159.0,4095.0,4095.0,2674.0,3100.0,2880.0,3.17,-7.42,9.9,-0.01,0.01,-0.11,q
2950.0,2519.0,1161.0,4095.0,4095.0,2679.0,3099.0,2878.0,3.31,-7.35,9.61,-0.02,-0.06,-0.16,q
2943.0,2514.0,1147.0,4095.0,4095.0,2685.0,3103.0,2885.0,3.33,-7.41,9.66,-0.01,-0.01,-0.17,q
2960.0,2523.0,1146.0,4095.0,4095.0,2678.0,3098.0,2881.0,3.39,-7.46,9.67,-0.02,-0.03,-0.15,q
2949.0,2523.0,1138.0,4095.0,4095.0,2678.0,3099.0,2885.0,3.31,-7.52,9.78,0.02,-0.01,-0.15,q
2955.0,2528.0,1140.0,4095.0,4095.0,2682.0,3095.0,2879.0,3.35,-7.5,9.7,0.0,-0.03,-0.14,q
2945.0,2533.0,1149.0,4095.0,4095.0,2682.0,3101.0,2877.0,3.33,-7.48,9.72,0.02,-0.03,-0.17,q
2953.0,2529.0,1146.0,4095.0,4095.0,2684.0,3088.0,2862.0,3.35,-7.47,9.95,0.02,-0.1,-0.13,q
2955.0,2491.0,1101.0,4095.0,4095.0,2682.0,3095.0,2845.0,3.52,-7.51,9.64,0.01,-0.19,-0.08,q
2955.0,2479.0,1066.0,4095.0,4095.0,2685.0,3094.0,2837.0,3.55,-7.47,9.51,-0.03,-0.08,-0.16,q
2955.0,2459.0,1050.0,4095.0,4095.0,2685.0,3091.0,2843.0,3.35,-7.55,9.65,-0.0,0.02,-0.2,q
2953.0,2448.0,1061.0,4095.0,4095.0,2677.0,3066.0,2834.0,3.26,-7.48,9.61,0.01,0.06,-0.18,q
2945.0,2449.0,1088.0,4095.0,4095.0,2679.0,3055.0,2822.0,3.28,-7.57,9.67,-0.06,0.09,-0.13,q
2948.0,2449.0,1094.0,4095.0,4095.0,2672.0,3034.0,2818.0,3.3,-7.57,9.61,-0.02,-0.01,-0.15,q
2957.0,2448.0,1103.0,4095.0,4095.0,2672.0,3034.0,2819.0,3.28,-7.63,9.73,0.06,0.03,-0.13,q
2949.0,2449.0,1103.0,4095.0,4095.0,2678.0,3042.0,2832.0,3.27,-7.6,9.74,0.04,-0.07,-0.16,q
2953.0,2455.0,1093.0,4095.0,4095.0,2674.0,3044.0,2837.0,3.31,-7.47,9.68,0.08,0.03,-0.15,q
2951.0,2457.0,1098.0,4095.0,4095.0,2673.0,3049.0,2841.0,3.34,-7.48,9.79,0.06,0.02,-0.15,q
2955.0,2457.0,1090.0,4095.0,4095.0,2678.0,3059.0,2851.0,3.39,-7.47,9.81,0.08,-0.01,-0.18,q
2950.0,2448.0,1100.0,4095.0,4095.0,2676.0,3059.0,2848.0,3.29,-7.27,9.61,0.05,0.03,-0.15,q
2943.0,2453.0,1089.0,4095.0,4095.0,2681.0,3063.0,2855.0,3.19,-7.3,9.78,0.02,-0.01,-0.18,q
2949.0,2449.0,1085.0,4095.0,4095.0,2683.0,3071.0,2858.0,3.28,-7.41,9.76,0.03,-0.02,-0.13,q
2938.0,2442.0,1077.0,4095.0,4095.0,2681.0,3071.0,2857.0,3.3,-7.4,9.68,0.02,-0.01,-0.16,q
2945.0,2446.0,1081.0,4095.0,4095.0,2681.0,3079.0,2864.0,3.28,-7.34,9.67,-0.05,0.0,-0.15,q
2951.0,2443.0,1081.0,4095.0,4095.0,2687.0,3071.0,2863.0,3.35,-7.49,10.04,-0.0,0.02,-0.25,q
2951.0,2449.0,1085.0,4095.0,4095.0,2687.0,3088.0,2866.0,3.31,-7.21,9.65,0.06,-0.03,-0.18,q
2946.0,2434.0,1068.0,4095.0,4095.0,2687.0,3087.0,2866.0,3.57,-7.39,9.83,0.01,0.05,-0.18,q
2957.0,2421.0,1071.0,4095.0,4095.0,2689.0,3097.0,2879.0,3.43,-7.46,9.77,0.02,-0.0,-0.18,q
2947.0,2419.0,1069.0,4095.0,4095.0,2690.0,3101.0,2883.0,3.2,-7.49,9.82,0.09,0.06,-0.26,q
2943.0,2422.0,1069.0,4095.0,4095.0,2683.0,3103.0,2883.0,3.33,-7.31,9.73,0.01,0.02,-0.2,q
2950.0,2434.0,1073.0,4095.0,4095.0,2688.0,3095.0,2881.0,3.18,-7.35,9.88,0.03,0.07,-0.18,q
2971.0,2427.0,1075.0,4095.0,4095.0,2687.0,3097.0,2883.0,3.44,-7.36,9.86,0.09,0.14,-0.22,q
2955.0,2435.0,1086.0,4095.0,4095.0,2683.0,3098.0,2885.0,3.34,-7.27,9.84,0.02,0.04,-0.17,q
2948.0,2432.0,1070.0,4095.0,4095.0,2688.0,3106.0,2887.0,3.27,-7.24,9.81,0.02,-0.01,-0.16,q
2944.0,2430.0,1073.0,4095.0,4095.0,2685.0,3100.0,2886.0,3.42,-7.25,9.73,0.02,0.04,-0.15,q
2946.0,2432.0,1075.0,4095.0,4095.0,2688.0,3103.0,2890.0,3.37,-7.34,9.81,-0.03,-0.03,-0.19,q
2950.0,2437.0,1078.0,4095.0,4095.0,2688.0,3103.0,2890.0,3.44,-7.47,10.12,0.04,0.05,-0.12,q
2946.0,2435.0,1077.0,4095.0,4095.0,2683.0,3101.0,2891.0,3.5,-7.36,9.59,0.0,-0.05,-0.18,q
2943.0,2442.0,1087.0,4095.0,4095.0,2688.0,3109.0,2891.0,3.32,-7.35,9.83,0.01,0.06,-0.13,q
2944.0,2448.0,1076.0,4095.0,4095.0,2687.0,3098.0,2887.0,3.34,-7.43,10.03,-0.02,0.02,-0.16,q
2943.0,2441.0,1085.0,4095.0,4095.0,2688.0,3105.0,2892.0,3.39,-7.47,10.05,0.02,0.04,-0.12,q
2946.0,2434.0,1075.0,4095.0,4095.0,2690.0,3103.0,2885.0,3.13,-7.25,9.84,0.17,-0.19,-0.26,q
2957.0,2413.0,1075.0,4095.0,4095.0,2686.0,3094.0,2878.0,3.33,-7.16,9.78,0.04,-0.03,-0.19,q
2954.0,2397.0,1067.0,4095.0,4095.0,2682.0,3098.0,2875.0,3.31,-7.15,9.88,0.02,0.09,-0.15,q
2945.0,2397.0,1073.0,4095.0,4095.0,2686.0,3094.0,2879.0,3.44,-7.22,9.89,-0.07,0.03,-0.16,q
2946.0,2407.0,1089.0,4095.0,4095.0,2677.0,3086.0,2879.0,3.37,-7.31,9.86,-0.09,0.04,-0.13,q
2955.0,2415.0,1091.0,4095.0,4095.0,2672.0,3055.0,2864.0,3.39,-7.46,9.93,-0.07,0.03,-0.11,q
2939.0,2437.0,1090.0,4095.0,4095.0,2669.0,3056.0,2863.0,3.21,-7.42,9.75,-0.0,-0.03,-0.13,q
2943.0,2461.0,1090.0,4095.0,4095.0,2670.0,3059.0,2864.0,3.29,-7.49,9.87,0.01,0.03,-0.11,q
2944.0,2458.0,1097.0,4095.0,4095.0,2671.0,3065.0,2869.0,3.26,-7.41,9.74,0.05,0.0,-0.19,q
2944.0,2466.0,1085.0,4095.0,4095.0,2673.0,3062.0,2866.0,3.32,-7.48,9.92,0.0,0.01,-0.18,q
2943.0,2458.0,1088.0,4095.0,4095.0,2673.0,3071.0,2875.0,3.26,-7.4,9.86,0.02,0.0,-0.13,q
2953.0,2463.0,1088.0,4095.0,4095.0,2672.0,3063.0,2871.0,3.45,-7.43,9.87,0.02,-0.01,-0.1,q
2951.0,2467.0,1090.0,4095.0,4095.0,2672.0,3065.0,2867.0,3.4,-7.35,9.84,0.03,0.01,-0.12,q
2948.0,2480.0,1085.0,4095.0,4095.0,2675.0,3071.0,2871.0,3.23,-7.36,9.93,-0.02,0.05,-0.11,q
2960.0,2474.0,1090.0,4095.0,4095.0,2669.0,3068.0,2869.0,3.01,-7.37,9.83,0.01,-0.0,-0.21,q
2943.0,2482.0,1093.0,4095.0,4095.0,2672.0,3071.0,2877.0,2.96,-7.3,9.84,0.05,0.06,-0.2,q
2944.0,2473.0,1086.0,4095.0,4095.0,2671.0,3063.0,2875.0,3.06,-7.27,9.73,-0.01,-0.02,-0.17,q
2956.0,2482.0,1093.0,4095.0,4095.0,2669.0,3061.0,2867.0,3.19,-7.35,9.73,-0.01,0.04,-0.09,q
2948.0,2481.0,1088.0,4095.0,4095.0,2671.0,3070.0,2873.0,3.29,-7.53,9.93,-0.01,-0.05,-0.21,q
2951.0,2482.0,1098.0,4095.0,4095.0,2671.0,3071.0,2875.0,3.23,-7.5,9.95,0.02,0.01,-0.16,q
2947.0,2494.0,1093.0,4095.0,4095.0,2667.0,3068.0,2870.0,3.2,-7.41,9.89,-0.02,-0.06,-0.17,q
2954.0,2498.0,1084.0,4095.0,4095.0,2669.0,3069.0,2875.0,3.29,-7.34,9.63,0.0,-0.0,-0.15,q
2960.0,2511.0,1093.0,4095.0,4095.0,2667.0,3071.0,2868.0,3.21,-7.47,9.86,-0.02,-0.03,-0.17,q
2949.0,2511.0,1089.0,4095.0,4095.0,2672.0,3071.0,2874.0,3.27,-7.53,9.97,0.06,0.01,-0.11,q
2944.0,2511.0,1090.0,4095.0,4095.0,2673.0,3071.0,2877.0,3.26,-7.47,9.86,0.08,-0.01,-0.17,q
2961.0,2505.0,1088.0,4095.0,4095.0,2671.0,3071.0,2873.0,3.08,-7.36,9.9,0.11,0.05,-0.2,q
2957.0,2521.0,1086.0,4095.0,4095.0,2673.0,3071.0,2878.0,2.94,-7.19,10.03,0.11,0.04,-0.22,q
2946.0,2506.0,1093.0,4095.0,4095.0,2671.0,3071.0,2875.0,3.06,-6.87,9.93,0.08,-0.01,-0.25,q
2951.0,2525.0,1085.0,4095.0,4095.0,2672.0,3068.0,2871.0,3.3,-6.78,9.63,-0.08,-0.03,-0.2,q
2953.0,2518.0,1088.0,4095.0,4095.0,2671.0,3070.0,2875.0,3.5,-7.33,9.86,-0.17,-0.01,-0.15,q
2948.0,2525.0,1083.0,4095.0,4095.0,2672.0,3071.0,2875.0,3.57,-7.75,10.01,-0.13,-0.05,-0.21,q
2949.0,2531.0,1093.0,4095.0,4095.0,2668.0,3070.0,2874.0,3.44,-7.67,9.98,0.01,0.03,-0.2,q
2951.0,2530.0,1093.0,4095.0,4095.0,2673.0,3082.0,2879.0,3.49,-7.53,9.66,0.04,0.05,-0.15,q
2947.0,2530.0,1093.0,4095.0,4095.0,2672.0,3083.0,2879.0,3.36,-7.64,9.51,0.09,0.13,-0.08,q
2947.0,2544.0,1098.0,4095.0,4095.0,2674.0,3088.0,2879.0,3.04,-7.65,10.06,-0.01,0.04,-0.08,q
2954.0,2551.0,1095.0,4095.0,4095.0,2673.0,3086.0,2878.0,3.14,-7.33,10.19,0.03,0.01,-0.14,q
2955.0,2559.0,1090.0,4095.0,4095.0,2674.0,3088.0,2877.0,3.51,-6.95,9.76,-0.01,0.05,-0.13,q
2955.0,2559.0,1098.0,4095.0,4095.0,2674.0,3079.0,2877.0,3.49,-6.85,9.56,-0.08,0.01,-0.31,q
2957.0,2559.0,1090.0,4095.0,4095.0,2676.0,3085.0,2874.0,3.38,-6.67,9.54,-0.08,0.08,-0.31,q
2949.0,2559.0,1098.0,4095.0,4095.0,2675.0,3089.0,2876.0,3.22,-6.7,9.33,-0.16,0.01,-0.41,q
2961.0,2559.0,1093.0,4095.0,4095.0,2673.0,3088.0,2877.0,3.23,-7.29,9.92,-0.23,0.06,-0.3,q
2949.0,2603.0,1105.0,4095.0,4095.0,2673.0,3088.0,2881.0,3.43,-7.86,10.15,-0.17,0.02,-0.3,q
2945.0,2640.0,1088.0,4095.0,4095.0,2669.0,3088.0,2881.0,3.62,-7.93,10.02,-0.1,-0.03,-0.35,q
2944.0,2659.0,1094.0,4095.0,4095.0,2667.0,3088.0,2876.0,3.73,-7.79,9.53,-0.13,0.18,-0.2,q
2949.0,2674.0,1092.0,4095.0,4095.0,2670.0,3088.0,2874.0,3.76,-7.66,9.25,-0.15,0.15,-0.25,q
2943.0,2669.0,1103.0,4095.0,4095.0,2663.0,3081.0,2873.0,3.58,-7.56,9.08,-0.15,0.22,-0.31,q
2947.0,2672.0,1095.0,4095.0,4095.0,2670.0,3088.0,2878.0,3.37,-7.54,9.02,-0.14,0.22,-0.29,q
2939.0,2666.0,1101.0,4095.0,4095.0,2670.0,3088.0,2877.0,3.14,-7.83,9.44,-0.08,0.13,-0.32,q
2947.0,2675.0,1106.0,4095.0,4095.0,2667.0,3087.0,2870.0,3.12,-7.89,9.63,0.02,0.04,-0.3,q
2960.0,2682.0,1104.0,4095.0,4095.0,2667.0,3071.0,2863.0,3.0,-7.58,9.54,0.05,-0.05,-0.22,q
2951.0,2686.0,1104.0,4095.0,4095.0,2670.0,3087.0,2862.0,3.43,-7.51,9.45,0.01,-0.06,-0.1,q
2958.0,2685.0,1091.0,4095.0,4095.0,2672.0,3087.0,2866.0,3.95,-7.77,9.31,-0.06,-0.11,-0.12,q
2947.0,2691.0,1104.0,4095.0,4095.0,2672.0,3088.0,2875.0,3.98,-7.72,9.53,-0.06,-0.0,-0.11,q
2949.0,2695.0,1104.0,4095.0,4095.0,2672.0,3090.0,2874.0,3.82,-7.59,9.49,0.01,0.06,-0.12,q
2951.0,2692.0,1106.0,4095.0,4095.0,2672.0,3088.0,2870.0,3.64,-7.51,9.23,0.03,0.05,-0.18,q
2943.0,2689.0,1097.0,4095.0,4095.0,2671.0,3087.0,2869.0,3.51,-7.35,9.03,-0.03,0.08,-0.18,q
2957.0,2685.0,1103.0,4095.0,4095.0,2667.0,3088.0,2873.0,3.4,-7.41,9.13,-0.1,0.06,-0.2,q
2953.0,2688.0,1097.0,4095.0,4095.0,2669.0,3086.0,2870.0,3.43,-7.67,9.45,-0.12,0.02,-0.2,q
2950.0,2693.0,1104.0,4095.0,4095.0,2672.0,3087.0,2877.0,3.53,-7.91,9.56,-0.06,0.06,-0.12,q
2953.0,2695.0,1101.0,4095.0,4095.0,2670.0,3088.0,2875.0,3.44,-7.96,9.62,0.03,0.04,-0.17,q
2946.0,2700.0,1104.0,4095.0,4095.0,2673.0,3089.0,2878.0,3.46,-7.76,9.29,0.03,0.1,-0.09,q
2953.0,2692.0,1105.0,4095.0,4095.0,2671.0,3089.0,2878.0,3.18,-7.6,8.97,0.0,-0.02,-0.19,q
2954.0,2698.0,1102.0,4095.0,4095.0,2670.0,3088.0,2877.0,3.39,-7.76,9.3,-0.01,0.09,-0.08,q
2960.0,2701.0,1099.0,4095.0,4095.0,2672.0,3089.0,2879.0,3.4,-7.71,9.12,0.03,0.02,-0.1,q
2954.0,2704.0,1090.0,4095.0,4095.0,2671.0,3088.0,2877.0,3.35,-7.7,9.25,0.05,0.02,-0.12,q
2955.0,2701.0,1092.0,4095.0,4095.0,2676.0,3090.0,2874.0,3.3,-7.7,9.28,0.09,0.0,-0.21,q
2951.0,2695.0,1103.0,4095.0,4095.0,2677.0,3090.0,2877.0,3.32,-7.68,9.24,0.1,0.07,-0.12,q
2949.0,2704.0,1104.0,4095.0,4095.0,2672.0,3092.0,2880.0,3.24,-7.7,9.42,0.05,0.03,-0.12,q
2953.0,2709.0,1098.0,4095.0,4095.0,2672.0,3088.0,2878.0,3.26,-7.75,9.44,0.05,0.02,-0.07,q
