hall_1,hall_2,hall_3,flex_t,flex_i,flex_m,flex_r,flex_p,accel_x,accel_y,accel_z,gyro_x,gyro_y,gyro_z,hand,sign
2960.0,3296.0,3120.0,4095.0,4095.0,2588.0,2937.0,3263.0,2.98,-6.42,6.05,-0.16,-0.12,-0.05,1.0,q
2965.0,3275.0,3124.0,4095.0,4095.0,2595.0,2929.0,3264.0,3.42,-6.8,6.43,-0.14,-0.0,-0.03,1.0,q
2959.0,3331.0,3120.0,4095.0,4095.0,2602.0,2932.0,3269.0,3.75,-7.21,7.31,0.05,-0.1,-0.2,1.0,q
2948.0,3291.0,3133.0,4095.0,4095.0,2609.0,2933.0,3280.0,3.35,-7.0,7.0,0.16,0.27,-0.15,1.0,q
2960.0,3283.0,3132.0,4095.0,4095.0,2615.0,2940.0,3277.0,2.78,-6.96,6.99,0.18,0.15,-0.15,1.0,q
2958.0,3280.0,3124.0,4095.0,4095.0,2608.0,2929.0,3261.0,2.9,-6.57,6.73,0.15,0.03,-0.18,1.0,q
2959.0,3267.0,3123.0,4095.0,4095.0,2624.0,2939.0,3267.0,3.22,-6.23,6.67,0.19,0.12,-0.07,1.0,q
2947.0,3248.0,3117.0,4095.0,4095.0,2626.0,2933.0,3275.0,3.09,-5.83,6.25,0.14,0.11,-0.14,1.0,q
2962.0,3281.0,3120.0,4095.0,4095.0,2626.0,2929.0,3277.0,2.97,-5.76,6.32,-0.04,0.16,-0.01,1.0,q
2959.0,3286.0,3131.0,4095.0,4095.0,2635.0,2940.0,3273.0,3.15,-6.09,6.73,-0.05,0.04,-0.03,1.0,q
2951.0,3287.0,3130.0,4095.0,4095.0,2626.0,2943.0,3260.0,2.94,-6.28,7.08,-0.2,0.27,-0.0,1.0,q
2957.0,3274.0,3131.0,4095.0,4095.0,2635.0,2933.0,3269.0,2.82,-6.28,7.1,-0.15,-0.09,-0.22,1.0,q
2961.0,3277.0,3121.0,4095.0,4095.0,2635.0,2938.0,3265.0,3.31,-5.97,6.28,-0.04,-0.56,-0.39,1.0,q
2950.0,3302.0,3130.0,4095.0,4095.0,2637.0,2943.0,3250.0,3.8,-6.28,6.72,-0.21,0.02,-0.23,1.0,q
2957.0,3277.0,3123.0,4095.0,4095.0,2640.0,2941.0,3271.0,3.11,-6.8,7.44,-0.17,0.1,-0.13,1.0,q
2959.0,3275.0,3125.0,4095.0,4095.0,2645.0,2942.0,3261.0,3.25,-6.53,7.25,-0.06,0.05,-0.17,1.0,q
2954.0,3280.0,3119.0,4095.0,4095.0,2639.0,2939.0,3261.0,3.39,-6.26,6.85,-0.11,0.19,0.01,1.0,q
2957.0,3248.0,3125.0,4095.0,4095.0,2642.0,2941.0,3258.0,3.16,-6.4,6.87,-0.12,-0.12,-0.17,1.0,q
2941.0,3254.0,3121.0,4095.0,4095.0,2639.0,2938.0,3248.0,3.23,-6.09,7.42,-0.23,0.02,-0.11,1.0,q
2930.0,3264.0,3119.0,4095.0,4095.0,2638.0,2942.0,3239.0,3.39,-5.87,7.0,-0.18,0.24,0.17,1.0,q
2953.0,3271.0,3120.0,4095.0,4095.0,2629.0,2928.0,3229.0,3.23,-5.66,6.82,-0.1,-0.09,-0.06,1.0,q
2944.0,3248.0,3120.0,4095.0,4095.0,2649.0,2928.0,3243.0,3.26,-7.5,7.63,0.05,-0.42,-0.24,1.0,q
2957.0,3284.0,3120.0,4095.0,4095.0,2650.0,2931.0,3259.0,2.7,-7.43,7.61,0.17,0.49,0.26,1.0,q
2960.0,3283.0,3126.0,4095.0,4095.0,2647.0,2942.0,3254.0,3.14,-6.65,7.3,0.15,0.44,0.46,1.0,q
2949.0,3297.0,3126.0,4095.0,4095.0,2647.0,2941.0,3248.0,2.66,-6.7,6.91,0.06,-0.03,0.03,1.0,q
2957.0,3298.0,3130.0,4095.0,4095.0,2654.0,2945.0,3245.0,3.15,-6.48,7.14,0.07,-0.03,-0.01,1.0,q
2959.0,3296.0,3133.0,4095.0,4095.0,2642.0,2946.0,3258.0,3.21,-6.28,6.88,-0.04,-0.1,0.02,1.0,q
2960.0,3277.0,3125.0,4095.0,4095.0,2639.0,2940.0,3236.0,3.97,-6.28,7.01,-0.38,0.06,0.1,1.0,q
2934.0,3277.0,3120.0,4095.0,4095.0,2625.0,2945.0,3229.0,3.22,-6.64,7.13,-0.14,0.26,0.15,1.0,q
2959.0,3300.0,3119.0,4095.0,4095.0,2630.0,2940.0,3223.0,2.85,-6.44,7.13,-0.02,0.1,-0.1,1.0,q
2943.0,3271.0,3126.0,4095.0,4095.0,2624.0,2942.0,3236.0,2.55,-6.73,7.3,-0.07,-0.07,-0.15,1.0,q
2943.0,3269.0,3118.0,4095.0,4095.0,2625.0,2944.0,3236.0,2.7,-6.75,7.38,-0.23,0.0,-0.19,1.0,q
2951.0,3281.0,3130.0,4095.0,4095.0,2634.0,2939.0,3247.0,2.92,-6.87,7.28,-0.37,-0.04,-0.27,1.0,q
2934.0,3274.0,3125.0,4095.0,4095.0,2637.0,2949.0,3242.0,3.31,-7.13,7.52,-0.07,-0.17,-0.38,1.0,q
2933.0,3279.0,3120.0,4095.0,4095.0,2639.0,2938.0,3243.0,3.03,-7.23,7.11,0.2,-0.01,-0.42,1.0,q
2942.0,3280.0,3127.0,4095.0,4095.0,2631.0,2949.0,3245.0,3.22,-7.04,7.49,0.33,0.2,-0.44,1.0,q
2959.0,3279.0,3120.0,4095.0,4095.0,2634.0,2944.0,3255.0,3.15,-6.3,7.29,0.53,0.24,-0.3,1.0,q
2941.0,3218.0,3123.0,4095.0,4095.0,2635.0,2947.0,3248.0,2.84,-5.9,7.25,0.46,0.3,-0.31,1.0,q
2939.0,3216.0,3122.0,4095.0,4095.0,2630.0,2944.0,3250.0,2.92,-5.31,7.4,0.43,0.07,-0.29,1.0,q
2951.0,3285.0,3121.0,4095.0,4095.0,2635.0,2949.0,3255.0,3.58,-4.68,6.94,0.35,0.11,-0.09,1.0,q
2942.0,3286.0,3125.0,4095.0,4095.0,2640.0,2945.0,3264.0,3.19,-4.87,7.55,0.28,0.31,0.1,1.0,q
2955.0,3291.0,3120.0,4095.0,4095.0,2635.0,2955.0,3262.0,3.02,-4.73,7.61,-0.06,0.08,0.08,1.0,q
2947.0,3210.0,3124.0,4095.0,4095.0,2641.0,2955.0,3258.0,3.04,-4.97,7.7,-0.21,-0.0,0.05,1.0,q
2943.0,3207.0,3120.0,4095.0,4095.0,2639.0,2945.0,3253.0,3.1,-5.24,7.86,-0.3,0.05,0.14,1.0,q
2949.0,3283.0,3117.0,4095.0,4095.0,2640.0,2959.0,3256.0,2.94,-5.46,7.93,-0.37,-0.07,0.05,1.0,q
2945.0,3275.0,3126.0,4095.0,4095.0,2648.0,2944.0,3255.0,2.88,-5.59,7.87,-0.35,-0.17,0.03,1.0,q
2951.0,3213.0,3121.0,4095.0,4095.0,2643.0,2951.0,3269.0,2.81,-5.84,7.76,-0.35,-0.12,0.12,1.0,q
2959.0,3281.0,3130.0,4095.0,4095.0,2657.0,2955.0,3265.0,3.02,-6.14,7.79,-0.35,-0.11,0.13,1.0,q
2947.0,3292.0,3120.0,4095.0,4095.0,2655.0,2953.0,3269.0,3.28,-6.31,7.83,-0.28,-0.2,-0.01,1.0,q
2943.0,3296.0,3120.0,4095.0,4095.0,2661.0,2954.0,3280.0,3.05,-6.13,7.29,-0.21,-0.11,-0.01,1.0,q
2943.0,3310.0,3130.0,4095.0,4095.0,2666.0,2954.0,3273.0,2.94,-6.09,7.13,-0.29,-0.12,-0.04,1.0,q
2943.0,3285.0,3130.0,4095.0,4095.0,2666.0,2957.0,3268.0,3.18,-6.3,7.13,-0.31,-0.22,-0.05,1.0,q
2951.0,3283.0,3127.0,4095.0,4095.0,2662.0,2950.0,3270.0,3.38,-6.51,7.39,-0.22,-0.22,-0.1,1.0,q
2949.0,3294.0,3127.0,4095.0,4095.0,2672.0,2959.0,3278.0,3.46,-6.48,7.13,-0.13,-0.05,0.01,1.0,q
2947.0,3298.0,3122.0,4095.0,4095.0,2672.0,2951.0,3271.0,3.39,-6.48,7.17,-0.11,-0.07,-0.04,1.0,q
2942.0,3299.0,3120.0,4095.0,4095.0,2674.0,2955.0,3270.0,3.38,-6.37,6.94,-0.01,-0.1,-0.02,1.0,q
2965.0,3358.0,3129.0,4095.0,4095.0,2675.0,2960.0,3269.0,3.45,-6.28,6.78,-0.07,-0.11,-0.11,1.0,q
2959.0,3294.0,3123.0,4095.0,4095.0,2678.0,2961.0,3280.0,3.72,-6.32,6.85,-0.09,-0.05,-0.04,1.0,q
2951.0,3189.0,3114.0,4095.0,4095.0,2675.0,2960.0,3275.0,3.47,-6.46,6.97,-0.07,0.07,0.01,1.0,q
2954.0,3286.0,3129.0,4095.0,4095.0,2672.0,2960.0,3270.0,3.51,-6.4,6.86,-0.12,-0.01,-0.05,1.0,q
2941.0,3305.0,3136.0,4095.0,4095.0,2681.0,2960.0,3270.0,3.51,-6.47,7.0,-0.08,0.01,-0.03,1.0,q
2960.0,3171.0,3136.0,4095.0,4095.0,2677.0,2957.0,3282.0,3.62,-6.57,7.0,-0.07,-0.02,-0.08,1.0,q
2946.0,3296.0,3121.0,4095.0,4095.0,2676.0,2960.0,3283.0,3.77,-6.84,7.23,-0.09,-0.07,-0.11,1.0,q
2941.0,3421.0,3126.0,4095.0,4095.0,2679.0,2966.0,3277.0,3.61,-6.67,7.17,0.09,-0.05,-0.14,1.0,q
2939.0,3310.0,3117.0,4095.0,4095.0,2687.0,2966.0,3277.0,3.51,-6.12,6.76,0.06,-0.04,-0.19,1.0,q
2945.0,3298.0,3120.0,4095.0,4095.0,2679.0,2954.0,3280.0,3.6,-5.86,6.79,0.06,-0.01,-0.14,1.0,q
2951.0,3287.0,3120.0,4095.0,4095.0,2685.0,2969.0,3280.0,3.35,-5.6,6.63,0.02,0.03,-0.07,1.0,q
2944.0,3295.0,3131.0,4095.0,4095.0,2688.0,2961.0,3286.0,3.5,-5.84,6.76,-0.17,0.04,-0.04,1.0,q
2948.0,3283.0,3138.0,4095.0,4095.0,2679.0,2967.0,3287.0,3.75,-6.5,7.31,-0.19,-0.01,-0.07,1.0,q
2945.0,3287.0,3120.0,4095.0,4095.0,2682.0,2966.0,3275.0,3.57,-6.55,7.14,-0.14,0.03,-0.06,1.0,q
2933.0,3294.0,3120.0,4095.0,4095.0,2687.0,2956.0,3278.0,3.75,-6.5,7.15,-0.15,-0.02,-0.04,1.0,q
2944.0,3312.0,3117.0,4095.0,4095.0,2695.0,2971.0,3282.0,3.64,-6.28,6.94,-0.11,0.01,-0.01,1.0,q
2943.0,3280.0,3122.0,4095.0,4095.0,2690.0,2965.0,3282.0,3.52,-6.16,6.74,-0.07,-0.02,0.03,1.0,q
2943.0,3297.0,3120.0,4095.0,4095.0,2692.0,2962.0,3282.0,3.58,-6.08,6.89,-0.16,-0.12,-0.06,1.0,q
2940.0,3279.0,3120.0,4095.0,4095.0,2689.0,2962.0,3280.0,3.65,-6.52,6.69,-0.11,-0.17,-0.09,1.0,q
2957.0,3303.0,3120.0,4095.0,4095.0,2678.0,2965.0,3285.0,3.81,-6.57,6.64,-0.12,-0.08,-0.07,1.0,q
2945.0,3294.0,3136.0,4095.0,4095.0,2693.0,2960.0,3290.0,3.98,-6.47,6.82,-0.14,-0.03,-0.1,1.0,q
2930.0,3343.0,3127.0,4095.0,4095.0,2692.0,2962.0,3285.0,3.84,-6.65,6.86,-0.11,-0.12,-0.18,1.0,q
2931.0,3285.0,3120.0,4095.0,4095.0,2688.0,2959.0,3280.0,3.81,-6.75,6.85,-0.08,-0.08,-0.12,1.0,q
2934.0,3305.0,3120.0,4095.0,4095.0,2691.0,2962.0,3294.0,3.83,-6.46,6.55,0.02,0.01,-0.05,1.0,q
2944.0,3270.0,3119.0,4095.0,4095.0,2698.0,2963.0,3283.0,3.75,-6.39,6.52,-0.06,-0.07,-0.07,1.0,q
2929.0,3297.0,3127.0,4095.0,4095.0,2698.0,2960.0,3305.0,4.17,-6.31,6.55,-0.09,-0.03,-0.07,1.0,q
2938.0,3299.0,3121.0,4095.0,4095.0,2695.0,2960.0,3303.0,4.21,-6.28,6.74,-0.06,-0.0,-0.13,1.0,q
2945.0,3300.0,3120.0,4095.0,4095.0,2698.0,2960.0,3305.0,3.9,-6.25,6.67,-0.05,0.02,-0.08,1.0,q
2943.0,3305.0,3125.0,4095.0,4095.0,2704.0,2963.0,3312.0,3.93,-6.24,6.86,-0.02,-0.02,-0.08,1.0,q
2941.0,3300.0,3116.0,4095.0,4095.0,2694.0,2963.0,3306.0,4.39,-6.35,6.69,-0.07,-0.09,-0.1,1.0,q
2939.0,3297.0,3136.0,4095.0,4095.0,2698.0,2969.0,3312.0,4.44,-6.31,6.51,-0.11,-0.05,-0.12,1.0,q
2946.0,3285.0,3121.0,4095.0,4095.0,2701.0,2961.0,3312.0,4.13,-6.17,6.62,-0.16,0.03,-0.08,1.0,q
2943.0,3300.0,3120.0,4095.0,4095.0,2699.0,2965.0,3312.0,4.24,-6.21,6.6,-0.08,-0.04,-0.06,1.0,q
2942.0,3281.0,3127.0,4095.0,4095.0,2699.0,2973.0,3311.0,4.33,-6.12,6.39,-0.16,0.01,-0.01,1.0,q
2945.0,3305.0,3121.0,4095.0,4095.0,2704.0,2963.0,3312.0,4.42,-6.34,6.44,-0.12,-0.07,-0.13,1.0,q
2928.0,3296.0,3129.0,4095.0,4095.0,2706.0,2967.0,3311.0,4.16,-6.33,6.48,-0.1,0.01,-0.03,1.0,q
2943.0,3311.0,3118.0,4095.0,4095.0,2703.0,2973.0,3326.0,4.23,-6.41,6.46,-0.12,0.01,0.0,1.0,q
2943.0,3311.0,3120.0,4095.0,4095.0,2707.0,2960.0,3319.0,4.38,-6.57,6.56,-0.11,-0.02,-0.09,1.0,q
2935.0,3297.0,3118.0,4095.0,4095.0,2707.0,2971.0,3324.0,4.52,-6.6,6.63,-0.06,-0.05,-0.1,1.0,q
2942.0,3313.0,3121.0,4095.0,4095.0,2706.0,2961.0,3325.0,4.2,-6.48,6.53,-0.01,0.02,-0.09,1.0,q
2949.0,3306.0,3129.0,4095.0,4095.0,2709.0,2974.0,3321.0,4.23,-6.37,6.31,-0.02,-0.06,-0.13,1.0,q
2955.0,3312.0,3120.0,4095.0,4095.0,2718.0,2970.0,3325.0,4.27,-6.35,6.57,0.05,-0.14,-0.17,1.0,q
2942.0,3303.0,3113.0,4095.0,4095.0,2719.0,2966.0,3313.0,4.5,-6.19,6.54,0.05,-0.12,-0.13,1.0,q
2928.0,3363.0,3111.0,4095.0,4095.0,2718.0,2963.0,3310.0,4.41,-6.17,6.45,0.31,-0.02,-0.07,1.0,q
2929.0,3302.0,3111.0,4095.0,4095.0,2715.0,2963.0,3312.0,4.74,-6.04,6.46,0.07,0.02,-0.02,1.0,q
2937.0,3199.0,3117.0,4095.0,4095.0,2717.0,2957.0,3312.0,4.53,-6.23,6.66,-0.06,-0.02,-0.08,1.0,q
2931.0,3303.0,3104.0,4095.0,4095.0,2710.0,2960.0,3321.0,4.64,-6.2,6.59,-0.06,-0.03,-0.09,1.0,q
2944.0,3302.0,3114.0,4095.0,4095.0,2715.0,2963.0,3315.0,4.48,-6.08,6.49,-0.04,0.09,0.01,1.0,q
2931.0,3298.0,3116.0,4095.0,4095.0,2717.0,2965.0,3321.0,4.41,-6.14,6.52,-0.14,0.02,-0.02,1.0,q
2939.0,3323.0,3123.0,4095.0,4095.0,2722.0,2966.0,3315.0,4.53,-6.28,6.75,-0.1,0.01,-0.03,1.0,q
2939.0,3290.0,3111.0,4095.0,4095.0,2715.0,2971.0,3326.0,4.62,-6.09,6.72,-0.13,0.06,-0.03,1.0,q
2928.0,3294.0,3121.0,4095.0,4095.0,2720.0,2967.0,3333.0,4.64,-6.12,6.69,-0.03,-0.03,-0.09,1.0,q
2932.0,3299.0,3110.0,4095.0,4095.0,2725.0,2967.0,3315.0,4.41,-6.05,6.77,0.02,-0.01,-0.07,1.0,q
2928.0,3274.0,3118.0,4095.0,4095.0,2720.0,2973.0,3328.0,4.27,-5.84,6.48,-0.06,-0.05,-0.04,1.0,q
2928.0,3305.0,3115.0,4095.0,4095.0,2719.0,2967.0,3319.0,4.32,-6.01,6.54,-0.02,0.01,0.07,1.0,q
2928.0,3287.0,3120.0,4095.0,4095.0,2729.0,2970.0,3323.0,4.69,-6.24,6.7,-0.09,-0.08,-0.05,1.0,q
2931.0,3290.0,3118.0,4095.0,4095.0,2729.0,2976.0,3329.0,4.53,-6.4,6.68,-0.06,-0.05,0.03,1.0,q
2930.0,3296.0,3120.0,4095.0,4095.0,2727.0,2969.0,3332.0,4.78,-6.18,6.66,-0.0,0.07,-0.01,1.0,q
2927.0,3301.0,3116.0,4095.0,4095.0,2711.0,2967.0,3329.0,4.39,-6.12,6.52,-0.02,-0.04,-0.01,1.0,q
2929.0,3289.0,3105.0,4095.0,4095.0,2726.0,2961.0,3326.0,4.41,-5.99,6.59,-0.04,0.03,0.0,1.0,q
2921.0,3299.0,3111.0,4095.0,4095.0,2730.0,2973.0,3331.0,4.46,-6.03,6.54,-0.04,-0.13,-0.07,1.0,q
2921.0,3305.0,3122.0,4095.0,4095.0,2722.0,2973.0,3327.0,4.51,-6.32,6.7,-0.0,0.03,0.02,1.0,q
2928.0,3303.0,3118.0,4095.0,4095.0,2721.0,2973.0,3328.0,4.46,-6.37,6.63,-0.07,0.1,-0.01,1.0,q
2926.0,3283.0,3119.0,4095.0,4095.0,2717.0,2963.0,3323.0,4.63,-6.23,6.58,-0.07,0.09,-0.04,1.0,q
2910.0,3297.0,3116.0,4095.0,4095.0,2705.0,2965.0,3327.0,4.58,-6.17,6.7,-0.02,0.03,-0.08,1.0,q
2919.0,3303.0,3125.0,4095.0,4095.0,2695.0,2960.0,3312.0,4.41,-5.99,6.62,-0.01,0.04,-0.1,1.0,q
2919.0,3275.0,3142.0,4095.0,4095.0,2703.0,2973.0,3301.0,4.42,-5.8,6.62,-0.1,0.05,-0.04,1.0,q
2923.0,3268.0,3138.0,4095.0,4095.0,2697.0,2962.0,3299.0,4.35,-5.81,6.69,0.05,-0.06,-0.11,1.0,q
2914.0,3277.0,3141.0,4095.0,4095.0,2686.0,2966.0,3289.0,4.55,-5.93,6.65,-0.03,0.09,0.03,1.0,q
2923.0,3291.0,3132.0,4095.0,4095.0,2694.0,2960.0,3302.0,4.67,-5.83,6.57,-0.12,0.09,-0.04,1.0,q
2920.0,3277.0,3136.0,4095.0,4095.0,2694.0,2970.0,3303.0,4.59,-6.28,6.86,-0.03,-0.06,-0.09,1.0,q
2919.0,3252.0,3151.0,4095.0,4095.0,2702.0,2969.0,3305.0,4.52,-6.04,6.88,0.05,0.17,0.05,1.0,q
2923.0,3278.0,3146.0,4095.0,4095.0,2704.0,2967.0,3290.0,4.12,-6.05,6.97,0.08,0.04,-0.03,1.0,q
2935.0,3289.0,3152.0,4095.0,4095.0,2704.0,2973.0,3298.0,4.13,-5.97,6.87,-0.01,0.06,-0.01,1.0,q
2913.0,3290.0,3143.0,4095.0,4095.0,2704.0,2968.0,3312.0,4.21,-5.74,6.63,-0.01,0.01,-0.01,1.0,q
2933.0,3301.0,3147.0,4095.0,4095.0,2704.0,2973.0,3307.0,4.31,-5.94,6.89,-0.03,0.06,-0.02,1.0,q
2925.0,3299.0,3152.0,4095.0,4095.0,2705.0,2969.0,3303.0,4.28,-5.88,6.89,-0.07,-0.0,-0.06,1.0,q
2935.0,3294.0,3152.0,4095.0,4095.0,2720.0,2971.0,3311.0,4.24,-5.95,6.95,-0.06,-0.05,-0.05,1.0,q
2930.0,3291.0,3143.0,4095.0,4095.0,2715.0,2966.0,3298.0,4.01,-5.98,6.87,-0.06,0.03,0.0,1.0,q
2927.0,3292.0,3136.0,4095.0,4095.0,2719.0,2975.0,3307.0,4.19,-6.04,7.05,-0.07,-0.02,-0.0,1.0,q
2929.0,3286.0,3155.0,4095.0,4095.0,2723.0,2985.0,3298.0,4.53,-6.09,7.08,-0.06,-0.1,-0.03,1.0,q
2935.0,3328.0,3142.0,4095.0,4095.0,2725.0,2967.0,3302.0,4.48,-5.93,6.95,0.02,-0.01,-0.03,1.0,q
2934.0,3295.0,3142.0,4095.0,4095.0,2725.0,2979.0,3311.0,4.26,-5.94,7.01,-0.06,0.01,-0.03,1.0,q
2928.0,3309.0,3152.0,4095.0,4095.0,2715.0,2988.0,3312.0,4.24,-5.88,6.73,-0.06,0.19,0.03,1.0,q
2935.0,3295.0,3142.0,4095.0,4095.0,2725.0,2983.0,3313.0,4.04,-5.87,6.6,-0.21,0.27,-0.02,1.0,q
2927.0,3293.0,3141.0,4095.0,4095.0,2704.0,2973.0,3299.0,4.28,-6.13,6.96,-0.19,0.09,-0.03,1.0,q
2922.0,3297.0,3138.0,4095.0,4095.0,2703.0,2970.0,3308.0,4.16,-6.14,7.01,-0.15,0.07,-0.06,1.0,q
2937.0,3299.0,3134.0,4095.0,4095.0,2716.0,2976.0,3306.0,4.06,-6.18,7.14,-0.08,0.02,-0.12,1.0,q
2931.0,3297.0,3147.0,4095.0,4095.0,2711.0,2975.0,3312.0,3.78,-6.14,7.08,-0.04,0.01,-0.06,1.0,q
2928.0,3437.0,3136.0,4095.0,4095.0,2714.0,2974.0,3298.0,3.79,-5.99,6.92,-0.06,-0.07,-0.1,1.0,q
2934.0,3275.0,3136.0,4095.0,4095.0,2725.0,2977.0,3306.0,4.12,-6.05,6.87,-0.12,-0.08,-0.04,1.0,q
2932.0,3318.0,3140.0,4095.0,4095.0,2717.0,2975.0,3314.0,4.26,-6.1,6.88,-0.11,-0.03,-0.01,1.0,q
2931.0,3249.0,3143.0,4095.0,4095.0,2726.0,2967.0,3315.0,4.17,-6.29,7.02,-0.1,-0.02,0.02,1.0,q
2928.0,3254.0,3152.0,4095.0,4095.0,2724.0,2975.0,3311.0,4.08,-6.12,6.52,-0.22,0.13,0.03,1.0,q
2934.0,3291.0,3152.0,4095.0,4095.0,2721.0,2971.0,3307.0,4.07,-6.28,6.78,-0.18,-0.01,-0.14,1.0,q
2921.0,3308.0,3154.0,4095.0,4095.0,2725.0,2979.0,3317.0,4.22,-6.3,6.85,-0.08,0.12,-0.01,1.0,q
2927.0,3302.0,3152.0,4095.0,4095.0,2717.0,2976.0,3299.0,3.95,-6.05,6.59,-0.15,0.18,-0.0,1.0,q
2928.0,3282.0,3178.0,4095.0,4095.0,2709.0,2973.0,3283.0,3.87,-6.23,6.82,0.04,-0.02,-0.12,1.0,q
2931.0,3297.0,3185.0,4095.0,4095.0,2694.0,2965.0,3278.0,3.79,-6.14,6.92,-0.14,0.06,-0.05,1.0,q
2932.0,3280.0,3182.0,4095.0,4095.0,2667.0,2963.0,3243.0,3.85,-6.28,6.99,0.1,-0.03,-0.09,1.0,q
2932.0,3265.0,3184.0,4095.0,4095.0,2642.0,2949.0,3252.0,4.22,-5.9,6.93,-0.05,-0.03,-0.17,1.0,q
2927.0,3247.0,3184.0,4095.0,4095.0,2624.0,2949.0,3259.0,4.28,-6.02,7.03,-0.1,-0.02,-0.05,1.0,q
2933.0,3235.0,3201.0,4095.0,4095.0,2618.0,2941.0,3262.0,4.2,-6.15,6.78,0.03,-0.01,-0.04,1.0,q
2919.0,3265.0,3198.0,4095.0,4095.0,2599.0,2928.0,3262.0,4.21,-6.06,6.69,-0.12,0.05,-0.08,1.0,q
2923.0,3247.0,3210.0,4095.0,4095.0,2559.0,2925.0,3259.0,4.04,-6.21,6.73,-0.18,0.02,-0.13,1.0,q
2930.0,3280.0,3216.0,4095.0,4095.0,2555.0,2918.0,3263.0,4.1,-6.3,6.95,-0.05,0.05,-0.04,1.0,q
2922.0,3290.0,3215.0,4095.0,4095.0,2554.0,2902.0,3251.0,3.89,-6.25,6.92,-0.03,-0.01,-0.11,1.0,q
2912.0,3289.0,3223.0,4095.0,4095.0,2549.0,2910.0,3264.0,4.1,-6.36,7.24,0.02,0.04,0.02,1.0,q
2923.0,3307.0,3231.0,4095.0,4095.0,2559.0,2911.0,3252.0,3.96,-5.98,6.56,-0.0,0.03,0.06,1.0,q
2925.0,3216.0,3215.0,4095.0,4095.0,2589.0,2913.0,3251.0,4.2,-6.19,6.96,0.06,-0.01,0.01,1.0,q
2931.0,3310.0,3211.0,4095.0,4095.0,2609.0,2918.0,3250.0,4.05,-6.19,7.08,0.01,-0.06,-0.0,1.0,q
2928.0,3311.0,3197.0,4095.0,4095.0,2635.0,2928.0,3255.0,4.22,-5.96,7.28,0.17,-0.15,-0.09,1.0,q
2929.0,3319.0,3184.0,4095.0,4095.0,2676.0,2939.0,3263.0,4.29,-5.99,6.96,0.26,-0.15,-0.06,1.0,q
2928.0,3344.0,3191.0,4095.0,4095.0,2702.0,2951.0,3265.0,4.28,-5.73,7.03,0.3,-0.12,-0.06,1.0,q
2909.0,3409.0,3173.0,4095.0,4095.0,2727.0,2957.0,3253.0,4.17,-5.65,6.96,0.21,-0.13,-0.03,1.0,q
2897.0,3435.0,3169.0,4095.0,4095.0,2757.0,2972.0,3248.0,4.23,-5.47,6.98,0.0,-0.14,-0.09,1.0,q
2919.0,3472.0,3179.0,4095.0,4095.0,2770.0,2997.0,3269.0,4.3,-5.51,7.14,-0.03,-0.04,0.0,1.0,q
2903.0,3406.0,3182.0,4095.0,4095.0,2778.0,3018.0,3275.0,4.15,-5.43,7.18,-0.13,0.02,0.03,1.0,q
2896.0,3398.0,3201.0,4095.0,4095.0,2755.0,3024.0,3262.0,4.33,-5.61,7.07,0.0,-0.03,0.01,1.0,q
2899.0,3373.0,3200.0,4095.0,4095.0,2727.0,3011.0,3251.0,4.57,-5.63,7.39,0.24,0.19,0.18,1.0,q
2911.0,3392.0,3195.0,4095.0,4095.0,2733.0,3018.0,3241.0,3.6,-5.6,7.08,0.09,0.18,-0.16,1.0,q
2909.0,3386.0,3190.0,4095.0,4095.0,2735.0,3015.0,3244.0,4.22,-5.65,7.42,-0.11,0.06,-0.12,1.0,q
2906.0,3406.0,3191.0,4095.0,4095.0,2751.0,3002.0,3254.0,4.1,-5.68,7.65,-0.11,0.19,-0.2,1.0,q
2910.0,3331.0,3178.0,4095.0,4095.0,2748.0,2992.0,3250.0,4.0,-5.58,7.58,-0.12,0.09,-0.18,1.0,q
2905.0,3324.0,3184.0,4095.0,4095.0,2753.0,2983.0,3264.0,4.2,-5.47,7.73,0.07,0.05,-0.3,1.0,q
2909.0,3311.0,3168.0,4095.0,4095.0,2751.0,2991.0,3255.0,4.11,-5.15,7.19,0.24,-0.23,-0.19,1.0,q
2905.0,3312.0,3172.0,4095.0,4095.0,2779.0,3007.0,3267.0,4.12,-5.39,7.63,0.1,-0.3,-0.21,1.0,q
2906.0,3317.0,3171.0,4095.0,4095.0,2791.0,3027.0,3271.0,4.52,-5.15,7.52,0.01,-0.12,-0.02,1.0,q
2913.0,3398.0,3178.0,4095.0,4095.0,2801.0,3047.0,3271.0,4.98,-4.97,7.26,-0.21,-0.07,0.04,1.0,q
2917.0,3479.0,3176.0,4095.0,4095.0,2833.0,3071.0,3305.0,4.66,-5.11,7.47,-0.02,-0.06,-0.1,1.0,q
2905.0,3390.0,3171.0,4082.0,4095.0,2841.0,3071.0,3307.0,4.52,-5.08,7.36,-0.14,-0.1,0.01,1.0,q
2907.0,3423.0,3183.0,4079.0,4095.0,2865.0,3088.0,3297.0,4.46,-5.23,7.39,-0.1,0.08,-0.03,1.0,q
2910.0,3450.0,3178.0,4085.0,4095.0,2878.0,3091.0,3312.0,4.38,-5.11,7.24,-0.2,-0.1,-0.04,1.0,q
2913.0,3491.0,3152.0,4091.0,4095.0,2896.0,3113.0,3317.0,4.59,-5.26,7.36,-0.14,-0.08,0.02,1.0,q
2903.0,3533.0,3167.0,4095.0,4095.0,2899.0,3127.0,3342.0,4.58,-5.36,7.14,-0.14,0.01,-0.08,1.0,q
2906.0,3519.0,3168.0,4095.0,4095.0,2914.0,3134.0,3351.0,4.38,-5.32,7.06,-0.26,0.23,-0.01,1.0,q
2898.0,3479.0,3169.0,4095.0,4095.0,2899.0,3119.0,3338.0,4.58,-5.51,7.51,-0.05,0.09,-0.02,1.0,q
2912.0,3490.0,3171.0,4095.0,4095.0,2886.0,3095.0,3315.0,4.49,-5.51,7.37,-0.15,0.06,-0.03,1.0,q
2912.0,3330.0,3175.0,4095.0,4095.0,2857.0,3058.0,3312.0,4.47,-5.47,7.37,-0.12,0.08,-0.0,1.0,q
2899.0,3440.0,3185.0,4095.0,4095.0,2857.0,3069.0,3313.0,4.43,-5.48,7.25,-0.17,0.03,-0.04,1.0,q
2919.0,3440.0,3165.0,4095.0,4095.0,2851.0,3046.0,3307.0,4.24,-5.52,7.06,-0.14,-0.06,-0.06,1.0,q
2925.0,3408.0,3163.0,4095.0,4095.0,2841.0,3039.0,3312.0,4.36,-5.64,7.21,-0.2,0.02,-0.01,1.0,q
