hall_1,hall_2,hall_3,flex_t,flex_i,flex_m,flex_r,flex_p,accel_x,accel_y,accel_z,gyro_x,gyro_y,gyro_z,sign
2950.0,2867.0,2759.0,2983.0,4095.0,4095.0,2759.0,2948.0,1.37,9.46,1.22,0.01,0.05,-0.02,r
2947.0,2864.0,2754.0,3174.0,4095.0,4095.0,2686.0,2986.0,1.39,9.55,1.21,0.03,0.15,-0.06,r
2953.0,2877.0,2754.0,3392.0,4095.0,4095.0,2657.0,3029.0,1.16,9.44,1.06,0.01,0.04,0.06,r
2957.0,2869.0,2752.0,3466.0,4095.0,4095.0,2654.0,3042.0,1.72,9.18,1.13,-0.01,-0.04,0.06,r
2951.0,2875.0,2759.0,3326.0,4095.0,4095.0,2677.0,3011.0,1.94,9.44,0.95,-0.09,-0.02,-0.07,r
2952.0,2875.0,2754.0,3028.0,4095.0,4095.0,2738.0,2965.0,1.43,9.58,1.17,-0.21,-0.05,-0.08,r
2949.0,2867.0,2758.0,2928.0,4095.0,4095.0,2765.0,2942.0,1.3,9.98,1.85,-0.03,-0.03,0.02,r
2955.0,2876.0,2755.0,2960.0,4095.0,4095.0,2797.0,2954.0,1.14,9.71,1.44,0.19,0.06,0.11,r
2945.0,2873.0,2753.0,3203.0,4095.0,4095.0,2667.0,2995.0,1.71,9.4,1.08,0.23,-0.08,0.25,r
2947.0,2875.0,2765.0,3366.0,4095.0,4095.0,2651.0,3027.0,1.91,8.95,0.52,0.12,0.07,0.19,r
2949.0,2869.0,2753.0,3393.0,4095.0,4095.0,2650.0,3029.0,2.5,8.93,0.57,-0.13,0.09,-0.0,r
2946.0,2861.0,2759.0,3143.0,4095.0,4095.0,2731.0,2995.0,2.17,8.79,1.08,-0.32,0.07,-0.2,r
2960.0,2868.0,2755.0,2958.0,4095.0,4095.0,2782.0,2958.0,1.89,9.79,1.75,-0.25,-0.28,-0.16,r
2954.0,2880.0,2752.0,2959.0,4095.0,4095.0,2816.0,2958.0,1.28,10.4,1.78,-0.04,-0.38,-0.05,r
2947.0,2863.0,2754.0,3159.0,4095.0,4095.0,2678.0,2982.0,1.39,9.52,1.75,0.1,-0.31,0.25,r
2953.0,2874.0,2758.0,3355.0,4095.0,4095.0,2631.0,3007.0,1.94,9.04,1.19,0.37,0.7,0.01,r
2945.0,2867.0,2763.0,3439.0,4095.0,4095.0,2624.0,3003.0,2.13,9.04,0.37,0.48,1.34,-0.21,r
2945.0,2864.0,2763.0,3504.0,4095.0,4095.0,2621.0,3012.0,0.95,9.21,0.71,0.03,1.27,-0.25,r
2945.0,2865.0,2763.0,3429.0,4095.0,4095.0,2630.0,3005.0,1.03,9.28,1.36,-0.2,-0.11,0.02,r
2959.0,2880.0,2787.0,3120.0,4095.0,4095.0,2703.0,2931.0,1.08,9.67,0.84,-0.35,-1.3,0.35,r
2958.0,2871.0,2781.0,3087.0,4095.0,4095.0,2734.0,2923.0,2.18,9.27,1.72,-0.33,-0.87,0.13,r
2962.0,2877.0,2787.0,3217.0,4095.0,4095.0,2672.0,2976.0,1.58,9.31,1.88,-0.01,-0.04,-0.08,r
2960.0,2870.0,2779.0,3264.0,4095.0,4095.0,2672.0,3005.0,2.14,9.34,1.44,-0.04,-0.03,0.08,r
2962.0,2867.0,2768.0,3278.0,4095.0,4095.0,2686.0,3027.0,1.64,9.54,1.59,-0.04,-0.91,0.48,r
2960.0,2864.0,2778.0,3285.0,4095.0,4095.0,2683.0,3024.0,3.91,9.17,1.61,0.24,-0.01,0.07,r
2949.0,2867.0,2767.0,3270.0,4095.0,4095.0,2681.0,3029.0,2.59,9.05,0.95,0.85,3.15,-1.02,r
2953.0,2871.0,2770.0,3264.0,4095.0,4095.0,2688.0,3034.0,1.26,9.49,0.6,0.24,1.84,-0.66,r
2955.0,2869.0,2768.0,3277.0,4095.0,4095.0,2691.0,3044.0,0.32,9.1,0.42,-0.25,1.07,-0.32,r
2951.0,2875.0,2767.0,3282.0,4095.0,4095.0,2688.0,3055.0,0.76,9.33,1.5,-0.24,0.99,-0.48,r
2958.0,2873.0,2778.0,3265.0,4095.0,4095.0,2689.0,3056.0,-1.48,9.89,1.71,-0.36,0.9,-0.69,r
2955.0,2874.0,2768.0,3171.0,4095.0,4095.0,2696.0,3024.0,-1.98,9.61,1.54,-0.22,-1.83,0.12,r
2946.0,2869.0,2774.0,3093.0,4095.0,4095.0,2701.0,2995.0,-1.35,9.46,1.63,-0.26,-2.2,0.25,r
2963.0,2883.0,2782.0,3071.0,4095.0,4095.0,2705.0,2993.0,0.45,9.25,2.4,-0.32,-2.46,0.32,r
2954.0,2875.0,2774.0,3119.0,4095.0,4095.0,2704.0,2991.0,1.4,9.01,2.92,0.06,-1.43,0.06,r
2958.0,2869.0,2777.0,3159.0,4095.0,4095.0,2693.0,2990.0,1.43,9.52,2.53,0.15,-0.56,0.12,r
2951.0,2873.0,2779.0,3202.0,4095.0,4095.0,2689.0,2989.0,1.64,9.34,2.15,0.28,-0.02,0.06,r
2957.0,2869.0,2776.0,3232.0,4095.0,4095.0,2672.0,2995.0,1.78,9.35,2.0,0.45,0.59,0.1,r
2958.0,2875.0,2788.0,3252.0,4095.0,4095.0,2671.0,3003.0,2.32,9.53,0.91,0.36,2.75,-0.28,r
2951.0,2871.0,2782.0,3248.0,4095.0,4095.0,2674.0,3006.0,0.7,9.59,0.91,-0.21,2.01,-0.41,r
2949.0,2867.0,2774.0,3213.0,4095.0,4095.0,2687.0,3011.0,-0.05,9.2,1.52,-0.67,1.08,-0.29,r
2950.0,2867.0,2777.0,3181.0,4095.0,4095.0,2694.0,3026.0,-0.02,9.31,2.38,-0.86,0.33,-0.39,r
2959.0,2865.0,2780.0,3105.0,4095.0,4095.0,2707.0,3024.0,-1.04,8.38,3.22,-0.66,-0.07,-0.71,r
2961.0,2873.0,2787.0,3070.0,4095.0,4095.0,2718.0,3019.0,-1.56,8.61,3.56,-0.07,-0.68,-0.3,r
2955.0,2866.0,2789.0,3095.0,4095.0,4095.0,2726.0,3023.0,-0.55,8.98,3.26,-0.09,-2.21,-0.08,r
2960.0,2877.0,2786.0,3134.0,4095.0,4095.0,2722.0,3018.0,0.43,8.97,3.41,0.12,-1.82,0.02,r
2938.0,2867.0,2785.0,3158.0,4095.0,4095.0,2718.0,3015.0,0.86,8.83,3.39,0.24,-1.0,0.17,r
2960.0,2873.0,2782.0,3210.0,4095.0,4095.0,2713.0,3027.0,1.62,9.38,3.43,0.4,-0.59,0.33,r
2959.0,2880.0,2778.0,3230.0,4095.0,4095.0,2711.0,3025.0,1.64,9.66,2.08,0.46,-0.35,0.62,r
2960.0,2875.0,2774.0,3243.0,4095.0,4095.0,2719.0,3021.0,2.64,9.12,1.4,0.41,-0.32,0.35,r
2959.0,2871.0,2775.0,3243.0,4095.0,4095.0,2723.0,3015.0,4.18,8.73,1.42,0.12,0.64,-0.25,r
2956.0,2864.0,2774.0,3231.0,4095.0,4095.0,2729.0,3014.0,0.59,9.18,0.91,1.05,4.22,-0.97,r
2955.0,2864.0,2775.0,3234.0,4095.0,4095.0,2736.0,3022.0,0.42,9.7,-0.05,0.3,2.08,-0.49,r
2955.0,2864.0,2778.0,3222.0,4095.0,4095.0,2734.0,3023.0,-0.94,9.46,0.25,0.03,2.27,-0.31,r
2958.0,2869.0,2783.0,3227.0,4095.0,4095.0,2732.0,3029.0,-1.75,9.55,-0.18,-0.15,-1.48,0.48,r
2959.0,2865.0,2769.0,3217.0,4095.0,4095.0,2741.0,3029.0,0.68,9.66,1.54,-0.71,-2.59,0.6,r
2963.0,2878.0,2775.0,3221.0,4095.0,4095.0,2747.0,3042.0,3.09,9.56,1.86,-0.43,-2.02,0.51,r
2962.0,2878.0,2782.0,3221.0,4095.0,4095.0,2743.0,3042.0,2.71,9.3,1.28,-0.34,-1.83,0.37,r
2957.0,2875.0,2790.0,3232.0,4095.0,4095.0,2743.0,3045.0,3.69,8.64,1.68,-0.28,-1.32,0.21,r
2962.0,2873.0,2779.0,3219.0,4095.0,4095.0,2748.0,3038.0,3.44,8.65,1.46,0.04,-1.09,0.41,r
2955.0,2865.0,2783.0,3211.0,4095.0,4095.0,2740.0,3014.0,3.8,9.13,0.08,-0.01,-1.17,0.42,r
2957.0,2869.0,2771.0,3219.0,4095.0,4095.0,2748.0,3015.0,4.01,8.96,0.28,-0.21,-0.62,-0.15,r
2957.0,2862.0,2768.0,3216.0,4095.0,4095.0,2745.0,3014.0,3.69,8.89,0.27,-0.04,0.13,-0.43,r
2944.0,2871.0,2769.0,3236.0,4095.0,4095.0,2736.0,3019.0,3.54,8.68,0.4,-0.04,-0.26,-0.24,r
2953.0,2859.0,2768.0,3259.0,4095.0,4095.0,2713.0,3018.0,2.88,9.91,0.23,0.29,-0.1,-0.46,r
2955.0,2875.0,2770.0,3271.0,4095.0,4095.0,2713.0,3027.0,2.93,9.42,-0.05,-0.02,0.33,0.1,r
2951.0,2862.0,2777.0,3294.0,4095.0,4095.0,2709.0,3030.0,2.97,9.04,-0.46,-0.2,0.55,0.08,r
2949.0,2866.0,2786.0,3357.0,4095.0,4095.0,2705.0,3042.0,3.02,8.78,-0.18,-0.11,0.05,0.08,r
2945.0,2862.0,2784.0,3440.0,4095.0,4095.0,2703.0,3053.0,3.24,9.39,0.08,-0.14,0.07,-0.13,r
2942.0,2862.0,2791.0,3476.0,4095.0,4095.0,2703.0,3054.0,3.09,9.08,1.18,-0.16,0.16,-0.07,r
2945.0,2867.0,2787.0,3486.0,4095.0,4095.0,2704.0,3056.0,2.58,9.38,0.56,-0.02,0.0,-0.23,r
2946.0,2871.0,2793.0,3483.0,4095.0,4095.0,2715.0,3046.0,2.41,8.79,0.63,-0.09,0.07,-0.19,r
2946.0,2862.0,2798.0,3491.0,4095.0,4095.0,2715.0,3053.0,2.3,9.3,0.89,-0.06,-0.02,-0.08,r
2949.0,2867.0,2796.0,3507.0,4095.0,4095.0,2714.0,3061.0,2.0,9.72,0.56,-0.09,0.24,0.03,r
2946.0,2864.0,2793.0,3511.0,4095.0,4095.0,2717.0,3082.0,2.08,8.88,0.73,-0.22,0.63,0.03,r
2947.0,2873.0,2787.0,3522.0,4095.0,4095.0,2721.0,3088.0,3.66,9.37,2.16,-0.25,0.44,0.25,r
2951.0,2871.0,2800.0,3557.0,4095.0,4095.0,2714.0,3088.0,3.49,9.68,1.8,0.0,0.23,-0.18,r
2944.0,2871.0,2801.0,3659.0,4095.0,4095.0,2709.0,3088.0,2.45,9.16,1.75,-0.0,0.07,-0.05,r
2945.0,2859.0,2802.0,3696.0,4095.0,4095.0,2727.0,3086.0,2.24,9.39,1.51,0.04,0.17,-0.13,r
2945.0,2865.0,2799.0,3707.0,4095.0,4095.0,2736.0,3088.0,1.36,9.44,1.36,0.01,0.26,0.02,r
2942.0,2865.0,2802.0,3711.0,4095.0,4095.0,2736.0,3089.0,1.96,9.6,1.5,-0.04,0.09,-0.03,r
2948.0,2875.0,2800.0,3707.0,4095.0,4095.0,2741.0,3101.0,1.96,9.38,1.88,-0.06,-0.02,-0.12,r
2947.0,2873.0,2807.0,3691.0,4095.0,4095.0,2743.0,3109.0,1.98,9.07,1.83,-0.21,0.03,-0.22,r
2957.0,2874.0,2798.0,3669.0,4095.0,4095.0,2746.0,3115.0,1.36,9.12,1.9,-0.12,0.1,-0.02,r
2947.0,2864.0,2807.0,3674.0,4095.0,4095.0,2751.0,3120.0,1.75,9.18,1.74,-0.02,0.1,-0.04,r
2949.0,2869.0,2800.0,3683.0,4095.0,4095.0,2757.0,3126.0,1.41,9.07,1.93,0.06,0.13,0.0,r
2951.0,2864.0,2798.0,3675.0,4095.0,4095.0,2752.0,3127.0,1.16,9.0,1.01,-0.01,0.55,0.01,r
2947.0,2863.0,2805.0,3669.0,4095.0,4095.0,2753.0,3121.0,1.88,9.18,2.42,-0.25,0.36,0.22,r
2943.0,2870.0,2800.0,3648.0,4095.0,4095.0,2744.0,3120.0,1.98,9.18,3.23,0.05,0.53,-0.15,r
2939.0,2864.0,2806.0,3633.0,4095.0,4095.0,2742.0,3119.0,1.2,9.27,2.4,0.04,0.26,-0.01,r
2944.0,2869.0,2806.0,3613.0,4095.0,4095.0,2733.0,3109.0,1.81,9.16,2.62,0.03,0.21,0.05,r
2947.0,2869.0,2805.0,3579.0,4095.0,4095.0,2729.0,3115.0,1.6,9.43,1.97,0.16,0.67,-0.13,r
2943.0,2863.0,2797.0,3572.0,4095.0,4095.0,2735.0,3114.0,0.66,9.45,1.69,0.24,0.88,-0.18,r
2943.0,2864.0,2795.0,3550.0,4095.0,4095.0,2736.0,3120.0,0.76,9.25,1.63,0.08,0.51,-0.14,r
2942.0,2864.0,2799.0,3551.0,4095.0,4095.0,2729.0,3129.0,0.48,9.43,1.57,-0.03,0.28,-0.06,r
2940.0,2865.0,2795.0,3531.0,4095.0,4095.0,2730.0,3127.0,0.54,9.22,1.82,-0.07,0.12,-0.09,r
2932.0,2867.0,2790.0,3510.0,4095.0,4095.0,2735.0,3131.0,0.29,9.46,2.18,-0.02,-0.02,-0.03,r
2937.0,2867.0,2802.0,3504.0,4095.0,4095.0,2726.0,3127.0,0.53,9.55,1.95,0.01,0.02,-0.03,r
2940.0,2876.0,2803.0,3505.0,4095.0,4095.0,2726.0,3136.0,1.13,9.22,1.8,-0.03,-0.14,-0.0,r
2939.0,2874.0,2800.0,3520.0,4095.0,4095.0,2727.0,3135.0,0.92,9.37,2.18,-0.08,-0.27,0.07,r
2940.0,2864.0,2800.0,3501.0,4095.0,4095.0,2725.0,3125.0,0.98,9.46,1.54,-0.04,-0.09,-0.05,r
2939.0,2869.0,2800.0,3468.0,4095.0,4095.0,2734.0,3122.0,0.51,9.37,1.64,-0.04,-0.15,0.01,r
2943.0,2869.0,2800.0,3446.0,4095.0,4095.0,2736.0,3123.0,0.79,9.35,1.71,-0.01,-0.67,0.1,r
2940.0,2864.0,2800.0,3427.0,4095.0,4095.0,2736.0,3120.0,1.18,10.02,1.37,0.11,-0.57,-0.02,r
2939.0,2862.0,2797.0,3443.0,4095.0,4095.0,2738.0,3123.0,0.73,9.65,1.32,0.02,-0.61,0.11,r
2938.0,2869.0,2795.0,3456.0,4095.0,4095.0,2742.0,3133.0,0.64,8.39,0.94,-0.1,0.39,0.29,r
2942.0,2870.0,2797.0,3449.0,4095.0,4095.0,2743.0,3131.0,2.71,8.2,1.96,-0.38,0.11,-0.18,r
2940.0,2866.0,2806.0,3440.0,4095.0,4095.0,2742.0,3130.0,1.36,10.75,1.99,-0.2,-0.98,-0.44,r
2942.0,2868.0,2801.0,3455.0,4095.0,4095.0,2745.0,3132.0,-0.17,10.58,2.15,0.38,-0.22,-0.01,r
2937.0,2865.0,2798.0,3457.0,4095.0,4095.0,2749.0,3134.0,0.22,8.88,0.34,0.29,0.54,0.57,r
2943.0,2871.0,2790.0,3455.0,4095.0,4095.0,2743.0,3129.0,2.61,7.61,1.23,-0.4,0.28,0.63,r
2939.0,2865.0,2796.0,3460.0,4095.0,4095.0,2747.0,3133.0,3.3,8.26,2.55,-0.42,0.0,-0.2,r
2938.0,2873.0,2797.0,3456.0,4095.0,4095.0,2749.0,3131.0,2.16,9.99,2.28,-0.18,-0.19,-0.69,r
2944.0,2874.0,2796.0,3469.0,4095.0,4095.0,2752.0,3134.0,0.22,11.51,2.66,0.17,-0.46,-0.03,r
2947.0,2877.0,2797.0,3489.0,4095.0,4095.0,2751.0,3136.0,0.58,9.22,1.22,0.33,0.17,0.48,r
2943.0,2870.0,2797.0,3483.0,4095.0,4095.0,2749.0,3141.0,2.1,7.68,1.18,-0.15,0.4,0.43,r
2944.0,2870.0,2797.0,3479.0,4095.0,4095.0,2752.0,3131.0,3.18,8.04,2.44,-0.36,0.35,-0.16,r
2939.0,2864.0,2789.0,3488.0,4095.0,4095.0,2751.0,3134.0,2.11,9.46,2.7,-0.26,-0.19,-0.53,r
2943.0,2875.0,2795.0,3515.0,4095.0,4095.0,2755.0,3139.0,1.08,10.07,2.61,-0.23,-0.26,-0.21,r
2944.0,2871.0,2800.0,3520.0,4095.0,4095.0,2754.0,3145.0,1.19,9.31,2.74,0.02,-0.07,-0.09,r
2943.0,2868.0,2795.0,3518.0,4095.0,4095.0,2762.0,3144.0,1.31,9.0,2.45,0.04,-0.1,-0.08,r
2941.0,2874.0,2797.0,3520.0,4095.0,4095.0,2756.0,3147.0,1.15,9.02,2.52,0.02,-0.19,-0.06,r
2944.0,2867.0,2800.0,3494.0,4095.0,4095.0,2757.0,3135.0,0.5,10.13,2.11,0.26,-0.05,0.18,r
2943.0,2870.0,2799.0,3338.0,4095.0,4095.0,2694.0,3036.0,0.94,8.6,1.82,0.39,0.04,0.53,r
2940.0,2871.0,2800.0,3283.0,4095.0,4095.0,2655.0,2973.0,2.81,7.89,1.32,-0.0,0.19,0.24,r
2940.0,2868.0,2791.0,3343.0,4095.0,4095.0,2676.0,2964.0,2.41,8.71,2.13,-0.31,0.11,-0.3,r
2941.0,2867.0,2795.0,3426.0,4095.0,4095.0,2676.0,2959.0,1.84,10.64,2.32,-0.19,-0.06,-0.24,r
2942.0,2864.0,2799.0,3472.0,4095.0,4095.0,2689.0,2957.0,1.24,10.06,2.26,0.24,0.02,0.12,r
2944.0,2875.0,2798.0,3451.0,4095.0,4095.0,2695.0,2976.0,1.54,8.37,1.37,0.14,0.09,0.21,r
2943.0,2880.0,2789.0,3366.0,4095.0,4095.0,2704.0,2989.0,2.42,8.04,1.69,-0.32,0.25,0.02,r
2939.0,2867.0,2799.0,3280.0,4095.0,4095.0,2729.0,2987.0,2.77,9.78,2.4,-0.36,-0.17,-0.33,r
2943.0,2869.0,2796.0,3245.0,4095.0,4095.0,2757.0,3005.0,1.07,11.18,2.41,0.03,-0.19,0.0,r
2951.0,2877.0,2788.0,3232.0,4095.0,4095.0,2765.0,3019.0,0.77,9.23,1.4,0.38,0.13,0.43,r
2943.0,2867.0,2787.0,3233.0,4095.0,4095.0,2752.0,3019.0,2.34,7.79,1.49,-0.14,0.25,0.48,r
2944.0,2874.0,2784.0,3248.0,4095.0,4095.0,2751.0,3019.0,3.55,8.16,2.6,-0.25,0.14,-0.18,r
2943.0,2865.0,2782.0,3258.0,4095.0,4095.0,2754.0,3022.0,2.69,10.28,2.54,-0.09,-0.18,-0.48,r
2945.0,2864.0,2784.0,3268.0,4095.0,4095.0,2757.0,3019.0,0.9,10.26,2.49,0.14,-0.22,0.13,r
2948.0,2865.0,2786.0,3275.0,4095.0,4095.0,2758.0,3022.0,1.87,8.15,1.36,0.13,0.14,0.34,r
2944.0,2864.0,2790.0,3280.0,4095.0,4095.0,2754.0,3021.0,3.21,8.07,2.04,-0.3,0.05,0.03,r
2945.0,2871.0,2787.0,3280.0,4095.0,4095.0,2763.0,3024.0,2.49,9.74,2.68,-0.16,-0.13,-0.41,r
2944.0,2868.0,2789.0,3279.0,4095.0,4095.0,2766.0,3023.0,1.33,10.04,2.29,0.06,-0.14,-0.06,r
2948.0,2871.0,2781.0,3284.0,4095.0,4095.0,2765.0,3013.0,1.48,9.17,1.91,0.19,0.13,0.19,r
2940.0,2869.0,2797.0,3269.0,4095.0,4095.0,2746.0,2948.0,2.88,8.11,2.12,-0.11,0.23,0.14,r
2939.0,2883.0,2814.0,3241.0,4095.0,4095.0,2736.0,2885.0,2.76,8.89,2.47,-0.13,-0.02,-0.21,r
2947.0,2871.0,2815.0,3233.0,4095.0,4095.0,2745.0,2896.0,2.16,9.61,2.36,-0.07,-0.04,-0.11,r
2946.0,2870.0,2817.0,3257.0,4095.0,4095.0,2751.0,2907.0,2.22,9.75,2.24,0.11,-0.05,0.03,r
2949.0,2870.0,2820.0,3280.0,4095.0,4095.0,2743.0,2917.0,2.07,9.27,2.04,0.24,0.01,0.05,r
2944.0,2883.0,2814.0,3293.0,4095.0,4095.0,2737.0,2927.0,2.22,8.27,1.38,0.0,0.1,0.1,r
2953.0,2874.0,2816.0,3298.0,4095.0,4095.0,2740.0,2930.0,3.03,8.24,2.13,-0.4,-0.01,-0.09,r
2947.0,2870.0,2818.0,3303.0,4095.0,4095.0,2743.0,2930.0,2.3,10.2,2.55,-0.21,-0.19,-0.36,r
2947.0,2866.0,2817.0,3295.0,4095.0,4095.0,2743.0,2933.0,0.98,9.96,2.24,0.14,-0.06,0.03,r
2958.0,2879.0,2814.0,3301.0,4095.0,4095.0,2746.0,2943.0,1.98,8.21,0.91,-0.07,0.28,0.22,r
2956.0,2880.0,2816.0,3299.0,4095.0,4095.0,2747.0,2951.0,2.85,8.17,2.8,-0.48,0.13,-0.13,r
2954.0,2879.0,2816.0,3306.0,4095.0,4095.0,2744.0,2950.0,1.75,10.01,2.33,-0.34,0.14,-0.32,r
2953.0,2869.0,2815.0,3312.0,4095.0,4095.0,2743.0,2950.0,1.49,9.05,4.03,-0.3,0.04,-0.03,r
2951.0,2878.0,2819.0,3312.0,4095.0,4095.0,2740.0,2955.0,1.58,8.64,3.49,0.01,0.05,-0.01,r
2953.0,2868.0,2818.0,3306.0,4095.0,4095.0,2741.0,2950.0,1.35,8.88,3.18,0.01,0.04,-0.04,r
2947.0,2875.0,2819.0,3312.0,4095.0,4095.0,2752.0,2946.0,1.6,8.81,3.1,-0.05,0.07,-0.02,r
2947.0,2874.0,2816.0,3312.0,4095.0,4095.0,2754.0,2949.0,1.7,8.82,3.09,-0.03,-0.02,-0.01,r
2949.0,2869.0,2814.0,3312.0,4095.0,4095.0,2751.0,2950.0,1.53,8.94,3.27,0.09,-0.04,-0.02,r
2953.0,2880.0,2815.0,3314.0,4095.0,4095.0,2736.0,2959.0,1.59,9.12,2.95,0.32,-0.08,-0.06,r
2950.0,2874.0,2818.0,3321.0,4095.0,4095.0,2731.0,2955.0,1.87,9.19,2.54,0.51,-0.27,-0.09,r
2955.0,2867.0,2815.0,3325.0,4095.0,4095.0,2734.0,2958.0,1.94,9.39,1.56,0.16,-0.22,-0.07,r
2949.0,2871.0,2805.0,3337.0,4095.0,4095.0,2736.0,2957.0,1.62,9.18,2.01,-0.06,-0.0,-0.06,r
2955.0,2880.0,2805.0,3314.0,4095.0,4095.0,2736.0,2960.0,1.46,9.2,1.95,-0.1,0.14,-0.08,r
2943.0,2878.0,2815.0,3280.0,4095.0,4095.0,2737.0,2957.0,1.21,9.22,2.21,0.02,0.17,0.04,r
2950.0,2867.0,2806.0,3275.0,4095.0,4095.0,2757.0,2960.0,1.55,9.2,2.1,0.03,0.04,-0.03,r
2953.0,2869.0,2821.0,3296.0,4095.0,4095.0,2751.0,2961.0,1.14,9.09,2.0,-0.05,-0.04,0.05,r
2959.0,2869.0,2813.0,3323.0,4095.0,4095.0,2745.0,2960.0,1.46,9.61,1.84,0.15,0.1,0.06,r
2960.0,2867.0,2811.0,3385.0,4095.0,4095.0,2715.0,2973.0,1.81,9.05,1.92,0.08,-0.08,0.03,r
2953.0,2882.0,2809.0,3400.0,4095.0,4095.0,2709.0,2975.0,1.7,9.62,1.59,0.04,0.1,0.02,r
2959.0,2878.0,2818.0,3404.0,4095.0,4095.0,2714.0,2982.0,1.55,9.65,1.76,-0.02,0.2,0.03,r
2955.0,2870.0,2811.0,3405.0,4095.0,4095.0,2705.0,2982.0,1.24,9.15,1.11,-0.11,0.31,0.11,r
958.0,2875.0,2817.0,3408.0,4095.0,4095.0,2715.0,2987.0,1.17,9.06,1.59,-0.38,0.47,0.18,r
2955.0,2882.0,2824.0,3390.0,4095.0,4095.0,2715.0,2992.0,1.91,8.76,2.72,-0.47,0.42,0.14,r
2955.0,2871.0,2813.0,3366.0,4095.0,4095.0,2709.0,2990.0,3.0,8.31,3.12,-0.88,0.39,0.25,r
2950.0,2866.0,2815.0,3366.0,4095.0,4095.0,2709.0,2989.0,1.37,9.02,4.57,-0.38,0.71,-0.37,r
2957.0,2866.0,2807.0,3360.0,4095.0,4095.0,2711.0,2992.0,1.35,8.37,4.02,-0.34,0.57,-0.23,r
2946.0,2864.0,2800.0,3341.0,4095.0,4095.0,2715.0,2990.0,-0.52,8.85,4.22,0.05,0.78,-0.17,r
2949.0,2879.0,2807.0,3344.0,4095.0,4095.0,2718.0,2995.0,0.4,8.4,4.54,-0.05,0.66,-0.15,r
2944.0,2870.0,2803.0,3342.0,4095.0,4095.0,2717.0,2998.0,-1.04,8.38,4.68,0.12,0.85,-0.1,r
2944.0,2867.0,2805.0,3349.0,4095.0,4095.0,2705.0,2999.0,-1.74,7.67,5.73,-0.15,1.23,-0.6,r
2942.0,2873.0,2813.0,3357.0,4095.0,4095.0,2705.0,3008.0,-2.63,8.49,4.13,-0.08,-0.12,-0.02,r
2943.0,2871.0,2819.0,3347.0,4095.0,4095.0,2710.0,3024.0,-2.12,8.38,3.88,-0.14,0.1,0.05,r
2939.0,2879.0,2811.0,3354.0,4095.0,4095.0,2710.0,3013.0,-1.77,8.27,4.4,-0.14,0.19,0.04,r
2944.0,2871.0,2813.0,3345.0,4095.0,4095.0,2713.0,3011.0,-1.8,8.43,3.97,-0.1,0.18,0.06,r
2942.0,2878.0,2804.0,3345.0,4095.0,4095.0,2721.0,3009.0,-1.96,8.31,4.59,-0.04,0.23,-0.09,r
2943.0,2871.0,2816.0,3365.0,4095.0,4095.0,2722.0,3014.0,-2.39,8.23,4.37,0.03,0.48,-0.2,r
2943.0,2871.0,2809.0,3358.0,4095.0,4095.0,2720.0,3015.0,-2.33,8.19,4.03,-0.01,-0.08,-0.08,r
2942.0,2877.0,2806.0,3347.0,4095.0,4095.0,2722.0,3020.0,-1.82,8.35,4.18,0.04,-0.47,-0.01,r
2943.0,2870.0,2807.0,3354.0,4095.0,4095.0,2721.0,3024.0,-2.48,8.35,3.58,0.08,-0.28,-0.03,r
2944.0,2878.0,2805.0,3351.0,4095.0,4095.0,2711.0,3022.0,-1.8,8.39,3.77,-0.05,-0.24,0.04,r
2943.0,2867.0,2815.0,3331.0,4095.0,4095.0,2714.0,3021.0,-1.98,8.26,4.5,0.02,-0.38,0.17,r
2938.0,2880.0,2806.0,3230.0,4095.0,4095.0,2735.0,2992.0,-1.99,7.92,4.82,0.09,-0.51,0.4,r
2935.0,2871.0,2804.0,3280.0,4095.0,4095.0,2740.0,2992.0,-0.25,8.89,4.11,0.69,-0.36,0.0,r
2939.0,2869.0,2817.0,3283.0,4095.0,4095.0,2733.0,2986.0,-1.33,8.54,1.42,0.24,0.44,-0.09,r
2942.0,2871.0,2815.0,3276.0,4095.0,4095.0,2729.0,2982.0,-1.14,8.13,2.93,-0.6,0.15,0.41,r
2941.0,2864.0,2810.0,3180.0,4095.0,4095.0,2740.0,2985.0,0.91,7.59,5.74,-0.66,0.01,-0.11,r
2939.0,2867.0,2807.0,3139.0,4095.0,4095.0,2749.0,2978.0,-0.55,9.07,4.4,-0.08,0.06,-0.54,r
2933.0,2864.0,2798.0,3157.0,4095.0,4095.0,2751.0,2975.0,-1.92,9.55,5.02,0.1,-0.18,0.06,r
2931.0,2873.0,2799.0,3200.0,4095.0,4095.0,2752.0,2983.0,-0.93,8.43,3.93,0.37,-0.13,0.48,r
2934.0,2868.0,2803.0,3217.0,4095.0,4095.0,2759.0,2991.0,-0.19,7.07,2.94,0.06,0.31,0.24,r
2942.0,2869.0,2806.0,3229.0,4095.0,4095.0,2758.0,2999.0,0.56,7.86,4.42,-0.52,0.07,-0.04,r
2944.0,2864.0,2809.0,3237.0,4095.0,4095.0,2751.0,3008.0,-0.27,7.75,5.93,-0.15,-0.25,0.06,r
2941.0,2864.0,2809.0,3243.0,4095.0,4095.0,2749.0,3004.0,-0.32,8.47,4.15,-0.08,-0.05,-0.12,r
2943.0,2864.0,2807.0,3244.0,4095.0,4095.0,2751.0,3013.0,-0.41,8.07,4.63,0.07,0.03,-0.09,r
2943.0,2886.0,2810.0,3253.0,4095.0,4095.0,2746.0,3014.0,-0.3,8.25,4.32,-0.05,-0.1,-0.14,r
2943.0,2871.0,2800.0,3253.0,4095.0,4095.0,2743.0,3011.0,-0.65,8.42,4.84,0.02,0.08,-0.05,r
2942.0,2867.0,2805.0,3250.0,4095.0,4095.0,2750.0,3019.0,-0.31,8.25,4.34,-0.04,-0.02,-0.04,r
2933.0,2869.0,2807.0,3250.0,4095.0,4095.0,2738.0,3019.0,-0.38,8.27,4.7,-0.08,-0.17,-0.06,r
2953.0,2870.0,2806.0,3253.0,4095.0,4095.0,2745.0,3024.0,-0.66,8.38,4.64,-0.08,-0.06,0.01,r
2935.0,2870.0,2813.0,3262.0,4095.0,4095.0,2746.0,3023.0,-0.22,8.33,4.62,-0.13,0.1,-0.15,r
2945.0,2878.0,2800.0,3267.0,4095.0,4095.0,2738.0,3026.0,-0.14,8.18,4.45,-0.14,-0.11,-0.16,r
2944.0,2864.0,2805.0,3283.0,4095.0,4095.0,2734.0,3034.0,-1.0,8.0,5.09,-0.11,0.22,-0.11,r
2939.0,2875.0,2811.0,3295.0,4095.0,4095.0,2739.0,3040.0,-1.36,8.07,5.09,-0.08,0.29,-0.03,r
2941.0,2875.0,2813.0,3299.0,4095.0,4095.0,2736.0,3037.0,-1.03,8.01,4.67,-0.1,-0.02,0.01,r
2937.0,2875.0,2817.0,3306.0,4095.0,4095.0,2736.0,3043.0,-1.53,8.04,4.84,-0.07,0.08,-0.01,r
2939.0,2875.0,2802.0,3307.0,4095.0,4095.0,2747.0,3041.0,-1.64,8.15,4.99,0.1,0.32,0.03,r
2935.0,2879.0,2807.0,3299.0,4095.0,4095.0,2740.0,3037.0,-1.19,8.04,4.68,-0.01,0.15,-0.04,r
2941.0,2869.0,2810.0,3312.0,4095.0,4095.0,2741.0,3041.0,-1.49,8.02,5.23,0.06,0.18,-0.09,r
2935.0,2878.0,2802.0,3294.0,4095.0,4095.0,2746.0,3035.0,-1.4,8.06,4.86,0.26,-0.36,0.04,r
2943.0,2875.0,2807.0,3294.0,4095.0,4095.0,2736.0,3043.0,-0.71,8.06,4.03,-0.1,-0.81,-0.03,r
2941.0,2867.0,2797.0,3290.0,4095.0,4095.0,2736.0,3043.0,-1.37,8.16,4.34,-0.32,-1.28,0.07,r
2928.0,2864.0,2803.0,3280.0,4095.0,4095.0,2723.0,3037.0,-0.68,7.9,5.31,-0.34,-0.77,0.1,r
2929.0,2867.0,2802.0,3291.0,4095.0,4095.0,2720.0,3037.0,0.96,7.68,5.76,-0.19,-0.5,0.14,r
2930.0,2864.0,2803.0,3286.0,4095.0,4095.0,2719.0,3041.0,1.18,7.7,5.63,-0.05,-0.09,-0.0,r
2932.0,2868.0,2803.0,3291.0,4095.0,4095.0,2722.0,3046.0,0.63,7.7,5.4,-0.03,0.05,-0.02,r
2928.0,2866.0,2800.0,3292.0,4095.0,4095.0,2715.0,3038.0,0.94,7.64,5.49,-0.05,-0.02,0.03,r
2928.0,2863.0,2805.0,3290.0,4095.0,4095.0,2718.0,3045.0,0.94,7.69,5.45,-0.06,-0.02,0.05,r
2928.0,2861.0,2799.0,3294.0,4095.0,4095.0,2719.0,3046.0,0.9,7.64,5.5,-0.04,0.02,0.01,r
2931.0,2871.0,2803.0,3293.0,4095.0,4095.0,2719.0,3047.0,0.86,7.62,5.52,-0.04,0.04,-0.01,r
2928.0,2862.0,2800.0,3296.0,4095.0,4095.0,2714.0,3047.0,0.83,7.62,5.39,-0.07,0.01,-0.01,r
2928.0,2866.0,2798.0,3306.0,4095.0,4095.0,2719.0,3045.0,1.0,7.6,5.66,-0.02,0.05,-0.03,r
2941.0,2880.0,2797.0,3298.0,4095.0,4095.0,2722.0,3056.0,0.99,7.64,5.53,-0.0,0.01,-0.07,r
2928.0,2865.0,2800.0,3303.0,4095.0,4095.0,2719.0,3050.0,0.71,7.79,5.6,-0.02,-0.06,-0.05,r
2930.0,2870.0,2799.0,3307.0,4095.0,4095.0,2717.0,3051.0,0.95,7.83,6.08,0.19,-0.16,-0.12,r
2933.0,2869.0,2800.0,3312.0,4095.0,4095.0,2722.0,3050.0,0.83,7.59,5.42,0.51,-0.22,-0.19,r
2930.0,2871.0,2796.0,3349.0,4095.0,4095.0,2704.0,3045.0,0.67,8.44,4.48,0.78,-0.01,-0.28,r
2926.0,2862.0,2805.0,3345.0,4095.0,4095.0,2714.0,3031.0,0.68,8.91,2.94,-0.04,0.64,-0.11,r
2931.0,2864.0,2800.0,3249.0,4095.0,4095.0,2734.0,3031.0,0.06,8.23,4.51,-0.29,-0.03,-0.01,r
2928.0,2864.0,2793.0,3250.0,4095.0,4095.0,2742.0,3031.0,0.99,9.33,5.15,0.31,0.43,-0.11,r
2927.0,2858.0,2799.0,3263.0,4095.0,4095.0,2738.0,3029.0,-0.89,8.45,2.7,0.58,1.49,-0.09,r
2929.0,2871.0,2798.0,3269.0,4095.0,4095.0,2743.0,3034.0,-0.28,7.58,2.74,-0.28,0.2,-0.03,r
2933.0,2863.0,2799.0,3265.0,4095.0,4095.0,2749.0,3030.0,-1.23,9.49,4.18,-0.24,1.09,-0.38,r
2929.0,2861.0,2799.0,3271.0,4095.0,4095.0,2753.0,3039.0,-2.26,8.72,3.17,0.33,2.55,-0.45,r
2928.0,2870.0,2800.0,3274.0,4095.0,4095.0,2747.0,3047.0,-3.52,8.75,2.5,-0.03,0.32,0.19,r
2937.0,2873.0,2801.0,3280.0,4095.0,4095.0,2755.0,3049.0,-3.08,8.53,2.35,-0.03,-1.41,0.6,r
2935.0,2866.0,2799.0,3280.0,4095.0,4095.0,2763.0,3055.0,-0.22,8.35,2.72,-0.66,-3.21,0.89,r
2928.0,2864.0,2795.0,3267.0,4095.0,4095.0,2752.0,3040.0,1.97,8.12,3.74,-0.6,-2.19,0.41,r
2927.0,2862.0,2789.0,3249.0,4095.0,4095.0,2750.0,3039.0,2.73,7.97,4.5,0.02,-0.54,-0.06,r
2930.0,2851.0,2786.0,3263.0,4095.0,4095.0,2759.0,3046.0,3.06,8.04,3.77,0.35,0.53,-0.38,r
2935.0,2866.0,2794.0,3275.0,4095.0,4095.0,2752.0,3034.0,0.55,9.13,3.26,0.62,2.99,-0.83,r
2933.0,2864.0,2797.0,3287.0,4095.0,4095.0,2751.0,3051.0,-0.24,8.53,4.0,-0.14,0.83,-0.21,r
2943.0,2864.0,2789.0,3297.0,4095.0,4095.0,2759.0,3057.0,-1.87,8.73,3.26,0.14,1.76,-0.1,r
2929.0,2867.0,2798.0,3294.0,4095.0,4095.0,2762.0,3060.0,-1.14,8.03,3.03,-0.47,-1.22,0.23,r
2935.0,2865.0,2800.0,3296.0,4095.0,4095.0,2762.0,3071.0,-0.82,8.85,3.93,-0.57,-2.83,0.52,r
2941.0,2870.0,2800.0,3249.0,4095.0,4095.0,2768.0,3065.0,1.21,8.54,4.37,-0.19,-1.0,0.17,r
2932.0,2864.0,2794.0,3083.0,4095.0,4095.0,2770.0,3034.0,1.32,8.46,4.14,-0.14,-0.23,0.06,r
2929.0,2865.0,2781.0,2935.0,4095.0,4095.0,2803.0,3003.0,1.47,8.41,4.4,-0.19,-0.0,0.13,r
2935.0,2869.0,2777.0,2816.0,4095.0,4095.0,2827.0,2973.0,1.45,8.18,4.38,0.01,0.03,0.0,r
2938.0,2871.0,2783.0,2693.0,4095.0,4095.0,2822.0,2945.0,1.52,8.53,4.41,0.01,0.04,0.07,r
2930.0,2881.0,2777.0,2633.0,4095.0,4095.0,2835.0,2929.0,1.86,8.23,4.28,0.02,0.0,0.04,r
2942.0,2863.0,2774.0,2608.0,4095.0,4095.0,2857.0,2928.0,1.69,8.26,4.34,-0.03,-0.0,-0.01,r
2933.0,2855.0,2771.0,2615.0,4095.0,4095.0,2877.0,2930.0,1.71,8.29,4.24,-0.01,0.02,-0.0,r
2935.0,2869.0,2778.0,2640.0,4095.0,4095.0,2896.0,2942.0,1.83,8.26,4.33,-0.05,0.01,-0.01,r
2943.0,2864.0,2769.0,2651.0,4095.0,4095.0,2902.0,2943.0,1.8,8.17,4.41,-0.03,0.05,-0.04,r
2939.0,2870.0,2771.0,2653.0,4095.0,4095.0,2910.0,2944.0,1.72,8.37,4.22,-0.02,-0.01,-0.01,r
2939.0,2865.0,2768.0,2651.0,4095.0,4095.0,2898.0,2943.0,1.74,8.28,4.48,-0.03,0.0,-0.01,r
2944.0,2864.0,2770.0,2640.0,4095.0,4095.0,2901.0,2939.0,1.75,8.34,4.47,0.02,0.04,-0.03,r
2934.0,2865.0,2768.0,2627.0,4095.0,4095.0,2903.0,2938.0,1.68,8.4,4.2,0.06,-0.04,-0.08,r
2938.0,2866.0,2784.0,2608.0,4095.0,4095.0,2901.0,2930.0,1.59,8.4,4.11,0.02,0.0,0.0,r
2941.0,2870.0,2770.0,2602.0,4095.0,4095.0,2911.0,2928.0,1.84,8.38,4.16,-0.02,-0.03,-0.02,r
2943.0,2873.0,2772.0,2646.0,4095.0,4095.0,2932.0,2928.0,0.58,8.36,4.77,0.08,-0.12,0.08,r
2943.0,2874.0,2783.0,2833.0,4095.0,4095.0,2781.0,2955.0,1.67,8.53,3.52,0.42,0.31,0.21,r
2939.0,2867.0,2789.0,2912.0,4095.0,4095.0,2789.0,2963.0,3.2,8.31,3.37,0.04,0.04,0.04,r
2939.0,2867.0,2789.0,2775.0,4095.0,4095.0,2832.0,2947.0,1.85,8.44,3.83,-0.15,-0.09,-0.17,r
2941.0,2866.0,2774.0,2641.0,4095.0,4095.0,2876.0,2925.0,1.65,8.46,3.84,-0.08,-0.0,-0.12,r
2942.0,2866.0,2769.0,2559.0,4095.0,4095.0,2907.0,2912.0,1.96,8.83,3.91,-0.05,0.02,0.01,r
2940.0,2877.0,2763.0,2480.0,4095.0,4095.0,2939.0,2896.0,1.9,8.79,3.94,0.03,0.06,0.04,r
2943.0,2874.0,2759.0,2559.0,4095.0,4095.0,2988.0,2926.0,1.87,8.57,3.85,0.07,0.02,0.15,r
2934.0,2877.0,2783.0,2867.0,4095.0,4095.0,2737.0,2967.0,2.36,8.63,3.78,-0.01,-0.07,0.07,r
2942.0,2865.0,2788.0,2911.0,4095.0,4095.0,2768.0,2986.0,1.95,8.16,3.84,0.03,0.07,-0.03,r
2943.0,2881.0,2777.0,2797.0,4095.0,4095.0,2801.0,2957.0,2.06,7.94,3.56,-0.15,0.11,-0.06,r
2943.0,2869.0,2775.0,2636.0,4095.0,4095.0,2862.0,2928.0,2.1,8.72,4.21,-0.21,0.12,-0.19,r
948.0,2864.0,2773.0,2559.0,4095.0,4095.0,2919.0,2913.0,1.59,9.16,4.51,-0.03,-0.03,-0.01,r
2938.0,2865.0,2771.0,2731.0,4095.0,4095.0,2826.0,2938.0,1.78,8.88,3.95,0.25,0.08,0.1,r
2941.0,2880.0,2784.0,2944.0,4095.0,4095.0,2734.0,2979.0,2.0,7.64,3.28,0.04,0.13,0.06,r
2931.0,2867.0,2790.0,2869.0,4095.0,4095.0,2778.0,2971.0,2.38,7.64,4.39,-0.54,0.05,-0.16,r
2942.0,2870.0,2784.0,2675.0,4095.0,4095.0,2859.0,2938.0,1.6,9.12,4.67,-0.22,0.05,-0.22,r
2941.0,2873.0,2783.0,2721.0,4095.0,4095.0,2877.0,2956.0,1.29,8.99,4.6,0.11,0.03,0.05,r
2933.0,2865.0,2787.0,2903.0,4095.0,4095.0,2737.0,2986.0,1.5,8.26,4.16,0.17,0.08,0.17,r
2943.0,2870.0,2786.0,2929.0,4095.0,4095.0,2770.0,2986.0,1.95,7.58,3.94,0.02,0.24,-0.01,r
2943.0,2864.0,2771.0,2751.0,4095.0,4095.0,2831.0,2960.0,1.97,8.74,4.22,-0.05,0.16,-0.15,r
2939.0,2873.0,2770.0,2690.0,4095.0,4095.0,2869.0,2955.0,1.9,8.67,4.92,0.11,-0.01,-0.0,r
2935.0,2864.0,2781.0,2785.0,4095.0,4095.0,2819.0,2975.0,1.39,8.33,3.44,0.2,0.07,0.11,r
2933.0,2863.0,2777.0,2852.0,4095.0,4095.0,2791.0,2983.0,1.8,7.35,3.38,-0.09,0.11,0.02,r
2938.0,2878.0,2780.0,2772.0,4095.0,4095.0,2839.0,2983.0,1.81,8.0,4.97,-0.22,-0.1,0.03,r
2941.0,2877.0,2781.0,2746.0,4095.0,4095.0,2867.0,2977.0,0.97,8.15,3.97,-0.01,0.19,-0.27,r
2935.0,2864.0,2778.0,2806.0,4095.0,4095.0,2834.0,2991.0,1.37,8.58,4.5,0.0,0.08,-0.03,r
2933.0,2869.0,2788.0,2858.0,4095.0,4095.0,2784.0,2991.0,1.09,8.21,4.18,-0.06,-0.05,-0.05,r
2935.0,2876.0,2775.0,2858.0,4095.0,4095.0,2816.0,2995.0,1.3,8.56,4.46,-0.05,-0.07,-0.02,r
2944.0,2880.0,2782.0,2748.0,4095.0,4095.0,2846.0,2981.0,1.3,8.48,3.9,-0.01,0.05,-0.01,r
2935.0,2867.0,2779.0,2821.0,4095.0,4095.0,2842.0,2991.0,1.2,8.54,4.17,-0.01,-0.05,-0.01,r
2938.0,2873.0,2781.0,2847.0,4095.0,4095.0,2827.0,2997.0,1.41,8.54,4.38,0.01,-0.07,0.03,r
2933.0,2875.0,2779.0,2860.0,4095.0,4095.0,2829.0,2999.0,1.45,8.5,4.16,0.03,-0.15,-0.02,r
2943.0,2871.0,2778.0,2875.0,4095.0,4095.0,2805.0,3006.0,1.52,8.53,3.79,0.06,-0.02,-0.03,r
2933.0,2867.0,2782.0,2906.0,4095.0,4095.0,2785.0,3008.0,1.41,8.56,3.47,-0.04,0.11,-0.07,r
2939.0,2871.0,2791.0,2918.0,4095.0,4095.0,2789.0,3012.0,1.15,8.66,4.42,-0.12,-0.08,-0.03,r
2936.0,2866.0,2778.0,2923.0,4095.0,4095.0,2801.0,3015.0,1.13,8.59,4.0,0.03,0.05,0.03,r
2944.0,2871.0,2782.0,2927.0,4095.0,4095.0,2802.0,3022.0,1.46,8.53,4.04,0.0,0.02,0.0,r
2937.0,2876.0,2783.0,2923.0,4095.0,4095.0,2803.0,3013.0,1.31,8.61,4.07,0.02,0.02,-0.01,r
2948.0,2879.0,2785.0,2922.0,4095.0,4095.0,2815.0,3014.0,1.28,8.91,3.87,0.07,0.04,0.01,r
2944.0,2878.0,2783.0,2913.0,4095.0,4095.0,2817.0,3018.0,1.31,8.5,3.53,0.05,0.01,0.01,r
2935.0,2873.0,2797.0,2914.0,4095.0,4095.0,2816.0,3015.0,1.57,8.62,4.04,-0.03,-0.01,0.02,r
2943.0,2873.0,2782.0,2880.0,4095.0,4095.0,2823.0,3014.0,1.44,8.72,3.61,-0.01,-0.01,-0.04,r
2943.0,2875.0,2790.0,2762.0,4095.0,4095.0,2838.0,2992.0,1.35,8.76,3.76,-0.16,-0.12,-0.04,r
2935.0,2882.0,2781.0,2650.0,4095.0,4095.0,2870.0,2956.0,1.98,8.62,3.8,-0.13,-0.61,0.05,r
2951.0,2886.0,2787.0,2580.0,4094.0,4095.0,2907.0,2922.0,1.7,8.7,3.58,-0.06,-0.13,0.0,r
2945.0,2877.0,2773.0,2643.0,4095.0,4095.0,2926.0,2941.0,1.57,8.48,3.82,0.07,-0.19,0.06,r
2935.0,2871.0,2785.0,2935.0,4095.0,4095.0,2746.0,2981.0,1.89,8.6,3.78,0.08,-0.04,0.01,r
2936.0,2871.0,2782.0,3091.0,4095.0,4095.0,2726.0,3015.0,1.85,8.75,3.3,0.07,0.15,-0.02,r
2938.0,2877.0,2783.0,3101.0,4095.0,4095.0,2763.0,3026.0,2.45,8.69,3.52,-0.1,0.1,-0.01,r
2953.0,2882.0,2793.0,2761.0,4095.0,4095.0,2838.0,2957.0,2.95,8.33,3.53,-0.61,0.1,-0.34,r
2943.0,2873.0,2790.0,2639.0,4095.0,4095.0,2842.0,2928.0,0.46,8.08,4.92,-0.17,-0.51,-0.29,r
2931.0,2867.0,2773.0,2870.0,4095.0,4095.0,2783.0,2960.0,0.48,9.41,3.64,0.67,0.54,-0.02,r
2933.0,2867.0,2777.0,3103.0,4095.0,4095.0,2736.0,3022.0,2.2,8.96,2.98,-0.11,0.67,0.17,r
2942.0,2871.0,2790.0,2848.0,4095.0,4095.0,2839.0,3005.0,1.73,7.84,3.84,-0.87,0.36,-0.27,r
2939.0,2871.0,2777.0,2747.0,3966.0,4095.0,2890.0,2982.0,0.39,7.79,4.82,-0.82,-0.87,-0.5,r
2930.0,2870.0,2780.0,2850.0,4045.0,4095.0,2863.0,2996.0,0.65,7.87,6.03,0.56,-0.7,0.05,r
2937.0,2877.0,2781.0,3015.0,4095.0,4095.0,2764.0,3025.0,1.22,8.47,3.84,0.84,0.51,0.18,r
2935.0,2869.0,2789.0,3169.0,4095.0,4095.0,2725.0,3055.0,2.38,8.98,2.97,-0.2,0.63,0.2,r
2933.0,2878.0,2790.0,3107.0,4095.0,4095.0,2791.0,3057.0,1.68,7.56,4.46,-1.1,0.51,-0.07,r
2935.0,2873.0,2781.0,2864.0,4013.0,4095.0,2859.0,3007.0,0.41,7.66,6.22,-0.41,-0.7,-0.3,r
2938.0,2874.0,2779.0,2793.0,3943.0,4095.0,2866.0,2955.0,0.61,7.5,5.49,0.34,-0.11,-0.03,r
2937.0,2878.0,2768.0,2803.0,3981.0,4095.0,2853.0,2953.0,1.04,7.91,4.89,0.68,-0.25,0.04,r
2934.0,2869.0,2782.0,3094.0,4095.0,4095.0,2750.0,3013.0,1.53,8.26,3.9,0.34,-0.05,0.07,r
2932.0,2864.0,2783.0,3411.0,4095.0,4095.0,2704.0,3091.0,1.53,8.34,3.99,-0.08,-0.0,0.08,r
2937.0,2875.0,2786.0,3537.0,4095.0,4095.0,2706.0,3106.0,1.42,8.5,4.07,0.06,-0.09,0.09,r
2937.0,2873.0,2785.0,3547.0,4095.0,4095.0,2719.0,3093.0,1.83,8.58,3.99,-0.03,0.03,-0.01,r
2931.0,2870.0,2797.0,3542.0,4095.0,4095.0,2715.0,3087.0,1.51,8.53,4.01,-0.01,0.13,-0.01,r
2939.0,2866.0,2783.0,3523.0,4095.0,4095.0,2718.0,3089.0,1.62,8.47,4.05,0.06,0.16,-0.02,r
2935.0,2874.0,2781.0,3377.0,4094.0,4095.0,2759.0,3058.0,1.68,8.42,3.79,0.07,0.03,0.01,r
2931.0,2867.0,2770.0,3335.0,4003.0,4095.0,2800.0,3056.0,1.79,8.47,3.88,0.02,-0.0,0.04,r
2937.0,2871.0,2773.0,3328.0,3961.0,4095.0,2812.0,3054.0,1.83,8.56,3.79,0.07,0.01,0.03,r
2934.0,2870.0,2770.0,3379.0,4012.0,4095.0,2805.0,3055.0,1.75,9.01,3.69,0.05,0.08,-0.06,r
2929.0,2875.0,2774.0,3309.0,4095.0,4095.0,2773.0,3088.0,1.87,8.83,3.66,-0.1,0.09,-0.21,r
2939.0,2864.0,2782.0,3330.0,4095.0,4095.0,2789.0,3115.0,1.54,8.75,3.79,-0.05,-0.03,-0.02,r
2933.0,2864.0,2774.0,3344.0,4095.0,4095.0,2878.0,3115.0,1.52,8.67,3.5,-0.07,0.03,-0.02,r
2932.0,2865.0,2772.0,3316.0,4095.0,4095.0,2806.0,3101.0,1.39,8.59,3.67,0.04,0.06,0.13,r
2928.0,2867.0,2771.0,3217.0,4016.0,4095.0,2880.0,3059.0,1.79,8.78,3.56,0.08,-0.02,0.05,r
2939.0,2863.0,2766.0,3164.0,3989.0,4095.0,2976.0,3046.0,1.72,8.71,3.5,-0.04,-0.04,-0.05,r
2937.0,2870.0,2771.0,3179.0,4069.0,4095.0,2989.0,3063.0,1.79,8.94,3.49,-0.02,0.03,-0.06,r
2944.0,2864.0,2768.0,3266.0,4095.0,4095.0,2884.0,3103.0,1.72,8.76,3.7,-0.07,0.02,0.01,r
2935.0,2871.0,2768.0,3382.0,4095.0,4095.0,2765.0,3115.0,1.79,8.77,3.61,-0.05,0.04,-0.0,r
2933.0,2864.0,2771.0,3408.0,4095.0,4095.0,2754.0,3117.0,1.57,8.69,3.64,-0.06,0.03,-0.01,r
2935.0,2871.0,2775.0,3403.0,4095.0,4095.0,2784.0,3119.0,1.66,8.71,3.6,0.01,0.04,-0.03,r
2934.0,2869.0,2767.0,3136.0,4095.0,4095.0,2890.0,3045.0,1.59,8.66,3.78,-0.09,-0.02,-0.06,r
2945.0,2879.0,2765.0,3029.0,4062.0,4095.0,2949.0,2999.0,1.49,8.69,3.76,-0.0,-0.22,-0.02,r
2942.0,2871.0,2762.0,3165.0,4095.0,4095.0,2869.0,3071.0,2.1,8.76,3.67,-0.1,0.31,-0.08,r
2941.0,2864.0,2739.0,3376.0,4095.0,4095.0,2935.0,3168.0,1.22,8.88,3.41,0.2,1.41,0.02,r
2928.0,2864.0,2736.0,3252.0,4095.0,4095.0,2965.0,3152.0,1.09,8.61,3.39,-0.26,0.35,-0.06,r
2939.0,2883.0,2753.0,3109.0,4095.0,4095.0,2896.0,3053.0,0.91,8.64,3.94,-0.39,-0.98,-0.07,r
2939.0,2875.0,2755.0,3147.0,4095.0,4095.0,2895.0,3029.0,1.07,8.29,4.45,-0.2,-1.46,-0.17,r
2933.0,2869.0,2762.0,3173.0,4095.0,4095.0,2819.0,3056.0,1.01,8.57,4.21,0.44,-0.26,-0.01,r
2933.0,2869.0,2770.0,3248.0,4095.0,4095.0,2808.0,3071.0,1.61,8.87,3.03,0.41,1.18,-0.11,r
2930.0,2865.0,2755.0,3248.0,4095.0,4095.0,2800.0,3088.0,1.11,8.85,2.97,-0.02,1.35,-0.04,r
2932.0,2864.0,2761.0,3201.0,4095.0,4095.0,2802.0,3090.0,0.25,8.18,4.02,-0.48,0.2,-0.05,r
2935.0,2880.0,2762.0,3184.0,4095.0,4095.0,2830.0,3095.0,0.55,8.24,3.92,-0.5,-1.01,0.08,r
2938.0,2875.0,2768.0,3184.0,4095.0,4095.0,2832.0,3089.0,0.79,8.33,4.4,-0.59,-0.74,-0.03,r
2929.0,2858.0,2755.0,3217.0,4095.0,4095.0,2810.0,3095.0,1.15,7.86,4.89,-0.42,-1.48,-0.07,r
2928.0,2860.0,2747.0,3240.0,4095.0,4095.0,2767.0,3096.0,1.48,7.56,5.61,0.98,-1.26,0.25,r
2927.0,2861.0,2753.0,3274.0,4095.0,4095.0,2773.0,3070.0,3.99,8.88,2.83,0.99,0.44,-0.22,r
2939.0,2859.0,2757.0,3280.0,4095.0,4095.0,2773.0,3097.0,1.98,8.88,2.16,0.1,2.48,-0.53,r
2932.0,2864.0,2755.0,3263.0,4095.0,4095.0,2809.0,3110.0,0.91,8.14,3.0,-0.82,0.44,-0.13,r
2928.0,2855.0,2749.0,3270.0,4095.0,4095.0,2839.0,3117.0,0.7,7.98,4.31,-0.78,-0.92,0.03,r
2926.0,2864.0,2751.0,3262.0,4095.0,4095.0,2818.0,3111.0,1.06,8.64,4.21,-0.47,-1.65,0.6,r
2907.0,2845.0,2733.0,3230.0,4095.0,4095.0,2802.0,3089.0,3.31,8.59,5.21,0.3,-0.66,0.24,r
