hall_1,hall_2,hall_3,flex_t,flex_i,flex_m,flex_r,flex_p,accel_x,accel_y,accel_z,gyro_x,gyro_y,gyro_z,hand,sign
2941.0,2947.0,2989.0,3262.0,4095.0,4095.0,3069.0,3183.0,-0.55,9.71,2.59,-0.06,-0.02,-0.06,1.0,r
2928.0,2947.0,3002.0,3262.0,4095.0,4095.0,3081.0,3191.0,-0.69,9.74,2.66,-0.06,0.0,-0.04,1.0,r
2919.0,3005.0,3014.0,3251.0,4095.0,4095.0,3088.0,3184.0,-0.58,9.88,2.33,-0.07,0.01,-0.03,1.0,r
2926.0,2959.0,3001.0,3258.0,4095.0,4095.0,3089.0,3187.0,-0.56,9.72,2.6,-0.03,0.02,-0.04,1.0,r
2928.0,2960.0,2992.0,3261.0,4095.0,4095.0,3082.0,3191.0,-0.52,9.81,2.47,-0.01,0.0,-0.04,1.0,r
2930.0,2853.0,3003.0,3273.0,4095.0,4095.0,3091.0,3188.0,-0.58,9.82,2.35,-0.06,-0.02,-0.05,1.0,r
2927.0,2947.0,2993.0,3266.0,4095.0,4095.0,3101.0,3184.0,-0.6,9.7,2.64,-0.05,-0.04,-0.05,1.0,r
2933.0,2960.0,2995.0,3270.0,4095.0,4095.0,3094.0,3197.0,-0.7,9.75,2.46,-0.05,-0.03,-0.04,1.0,r
2916.0,2947.0,2997.0,3264.0,4095.0,4095.0,3088.0,3202.0,-0.64,9.86,2.25,-0.05,-0.0,-0.06,1.0,r
2928.0,2951.0,3007.0,3258.0,4095.0,4095.0,3088.0,3193.0,-0.68,9.75,2.57,-0.06,-0.0,-0.05,1.0,r
2927.0,2953.0,2995.0,3274.0,4095.0,4095.0,3090.0,3207.0,-0.55,9.79,2.38,-0.06,-0.03,-0.04,1.0,r
2926.0,2961.0,3004.0,3280.0,4095.0,4095.0,3098.0,3206.0,-0.7,9.76,2.48,-0.06,-0.03,-0.06,1.0,r
2927.0,2958.0,2993.0,3264.0,4095.0,4095.0,3105.0,3216.0,-0.85,9.73,2.49,-0.07,-0.01,-0.03,1.0,r
2926.0,2943.0,3002.0,3259.0,4095.0,4095.0,3097.0,3230.0,-0.64,9.78,2.43,-0.04,-0.01,-0.03,1.0,r
2929.0,2949.0,3002.0,3270.0,4095.0,4095.0,3103.0,3235.0,-0.63,9.78,2.48,-0.05,-0.01,-0.03,1.0,r
2931.0,2947.0,2997.0,3244.0,4095.0,4095.0,3101.0,3223.0,-0.63,9.74,2.52,-0.06,0.0,-0.03,1.0,r
2928.0,2955.0,2992.0,3248.0,4095.0,4095.0,3094.0,3246.0,-0.68,9.74,2.55,-0.05,0.0,-0.03,1.0,r
2930.0,2919.0,3002.0,3249.0,4095.0,4095.0,3088.0,3234.0,-0.7,9.8,2.46,-0.06,0.01,-0.03,1.0,r
2917.0,2950.0,2993.0,3271.0,4095.0,4095.0,3106.0,3229.0,-0.59,9.77,2.56,-0.05,0.02,-0.02,1.0,r
2929.0,3011.0,2995.0,3270.0,4095.0,4095.0,3102.0,3244.0,-0.59,9.78,2.46,-0.05,-0.01,-0.03,1.0,r
2927.0,2942.0,2991.0,3267.0,4095.0,4095.0,3103.0,3230.0,-0.67,9.78,2.44,-0.08,0.03,-0.02,1.0,r
2927.0,2958.0,2991.0,3281.0,4095.0,4095.0,3106.0,3237.0,-0.59,9.74,2.58,-0.07,0.0,-0.03,1.0,r
2928.0,2955.0,2993.0,3292.0,4095.0,4095.0,3109.0,3249.0,-0.53,9.75,2.6,-0.04,-0.01,-0.03,1.0,r
2928.0,2884.0,2995.0,3289.0,4095.0,4095.0,3102.0,3248.0,-0.53,9.79,2.45,-0.05,-0.0,-0.03,1.0,r
2929.0,2960.0,2992.0,3283.0,4095.0,4095.0,3109.0,3250.0,-0.6,9.75,2.56,-0.07,0.0,-0.03,1.0,r
2928.0,2955.0,2994.0,3293.0,4095.0,4095.0,3102.0,3241.0,-0.56,9.74,2.55,-0.04,-0.01,-0.03,1.0,r
2933.0,2983.0,2995.0,3300.0,4095.0,4095.0,3110.0,3250.0,-0.54,9.77,2.51,-0.05,0.0,-0.03,1.0,r
2935.0,2959.0,3004.0,3307.0,4095.0,4095.0,3109.0,3243.0,-0.45,9.78,2.53,-0.06,-0.02,-0.05,1.0,r
2926.0,2955.0,2992.0,3295.0,4095.0,4095.0,3108.0,3248.0,-0.62,9.75,2.57,-0.03,-0.02,-0.07,1.0,r
2923.0,2957.0,3005.0,3299.0,4095.0,4095.0,3104.0,3262.0,-0.62,9.77,2.37,-0.05,-0.04,-0.04,1.0,r
2929.0,2945.0,3005.0,3293.0,4095.0,4095.0,3095.0,3277.0,-0.63,9.78,2.47,-0.09,-0.02,-0.03,1.0,r
2921.0,3001.0,3004.0,3313.0,4095.0,4095.0,3103.0,3263.0,-0.6,9.75,2.57,-0.05,0.01,-0.03,1.0,r
2931.0,2951.0,2994.0,3312.0,4095.0,4095.0,3111.0,3280.0,-0.57,9.83,2.38,-0.04,0.01,-0.04,1.0,r
2929.0,2955.0,3007.0,3328.0,4095.0,4095.0,3109.0,3277.0,-0.53,9.78,2.52,-0.02,-0.02,-0.05,1.0,r
2928.0,2950.0,3007.0,3319.0,4095.0,4095.0,3111.0,3274.0,-0.66,9.75,2.47,-0.07,-0.02,-0.03,1.0,r
2938.0,2954.0,3006.0,3316.0,4095.0,4095.0,3119.0,3279.0,-0.68,9.76,2.46,-0.07,-0.01,-0.03,1.0,r
2926.0,2987.0,2998.0,3331.0,4095.0,4095.0,3106.0,3281.0,-0.58,9.76,2.43,-0.05,-0.0,-0.04,1.0,r
2937.0,2879.0,3006.0,3315.0,4095.0,4095.0,3109.0,3282.0,-0.66,9.74,2.53,-0.08,-0.04,-0.03,1.0,r
2928.0,2957.0,3014.0,3325.0,4095.0,4095.0,3114.0,3277.0,-0.63,9.75,2.5,-0.03,-0.0,-0.04,1.0,r
2928.0,2954.0,2996.0,3333.0,4095.0,4095.0,3106.0,3287.0,-0.65,9.78,2.41,-0.08,-0.01,-0.03,1.0,r
2921.0,2947.0,3004.0,3267.0,4095.0,4095.0,3130.0,3346.0,-0.63,9.43,3.7,-0.03,0.02,-0.03,1.0,r
2928.0,2951.0,3020.0,3259.0,4095.0,4095.0,3123.0,3367.0,-0.62,9.44,3.56,-0.04,0.0,-0.02,1.0,r
2941.0,2951.0,3010.0,3267.0,4095.0,4095.0,3121.0,3353.0,-0.71,9.45,3.49,-0.01,-0.01,-0.02,1.0,r
2939.0,2951.0,3013.0,3271.0,4095.0,4095.0,3136.0,3360.0,-0.57,9.51,3.6,-0.03,0.01,-0.02,1.0,r
2934.0,2971.0,3010.0,3287.0,4095.0,4095.0,3137.0,3361.0,-0.64,9.52,3.49,-0.04,0.02,-0.01,1.0,r
2928.0,2961.0,3013.0,3279.0,4095.0,4095.0,3127.0,3363.0,-0.59,9.48,3.48,-0.08,-0.01,-0.01,1.0,r
2928.0,2955.0,3023.0,3280.0,4095.0,4095.0,3136.0,3375.0,-0.51,9.45,3.55,-0.09,-0.0,-0.02,1.0,r
2942.0,2960.0,3020.0,3282.0,4095.0,4095.0,3136.0,3379.0,-0.62,9.42,3.64,-0.06,0.01,-0.03,1.0,r
2935.0,2960.0,3026.0,3280.0,4095.0,4095.0,3140.0,3375.0,-0.5,9.44,3.53,-0.06,0.01,-0.03,1.0,r
2929.0,2948.0,2992.0,3251.0,4095.0,4095.0,3136.0,3379.0,-0.51,9.48,3.56,-0.06,-0.02,-0.04,1.0,r
2938.0,2956.0,3006.0,3287.0,4095.0,4095.0,3136.0,3376.0,-0.58,9.49,3.55,-0.1,-0.03,-0.01,1.0,r
2928.0,2960.0,3024.0,3281.0,4095.0,4095.0,3138.0,3376.0,-0.46,9.49,3.52,-0.07,-0.03,-0.03,1.0,r
2929.0,2951.0,3019.0,3290.0,4095.0,4095.0,3136.0,3374.0,-0.41,9.5,3.52,-0.07,0.0,-0.03,1.0,r
2929.0,2941.0,3008.0,3296.0,4095.0,4095.0,3136.0,3376.0,-0.5,9.45,3.58,-0.07,0.05,-0.03,1.0,r
2928.0,2931.0,3017.0,3285.0,4095.0,4095.0,3141.0,3376.0,-0.56,9.42,3.66,-0.03,0.02,-0.04,1.0,r
2931.0,2977.0,3015.0,3302.0,4095.0,4095.0,3138.0,3376.0,-0.49,9.46,3.56,-0.03,0.04,-0.02,1.0,r
2928.0,2939.0,3024.0,3293.0,4095.0,4095.0,3138.0,3403.0,-0.42,9.5,3.51,-0.01,0.03,-0.01,1.0,r
2931.0,2960.0,3011.0,3299.0,4095.0,4095.0,3138.0,3376.0,-0.49,9.49,3.45,-0.08,-0.0,-0.03,1.0,r
2919.0,2962.0,3011.0,3309.0,4095.0,4095.0,3138.0,3381.0,-0.46,9.45,3.59,-0.07,-0.0,-0.04,1.0,r
2930.0,2957.0,3024.0,3312.0,4095.0,4095.0,3136.0,3389.0,-0.62,9.44,3.56,-0.06,0.02,-0.02,1.0,r
2925.0,2955.0,3011.0,3314.0,4095.0,4095.0,3134.0,3390.0,-0.57,9.55,3.4,-0.06,0.03,-0.01,1.0,r
2926.0,2959.0,3013.0,3312.0,4095.0,4095.0,3147.0,3373.0,-0.4,9.47,3.6,-0.06,-0.0,-0.04,1.0,r
2929.0,2954.0,3011.0,3312.0,4095.0,4095.0,3129.0,3363.0,-0.44,9.49,3.52,-0.07,-0.02,-0.04,1.0,r
2928.0,2955.0,3009.0,3314.0,4095.0,4095.0,3143.0,3353.0,-0.49,9.47,3.56,-0.05,-0.03,-0.05,1.0,r
2944.0,2958.0,3011.0,3314.0,4095.0,4095.0,3126.0,3346.0,-0.52,9.44,3.51,-0.05,-0.02,-0.04,1.0,r
2929.0,2954.0,3025.0,3324.0,4095.0,4095.0,3134.0,3351.0,-0.41,9.46,3.58,-0.07,-0.02,-0.03,1.0,r
2928.0,2960.0,3024.0,3330.0,4095.0,4095.0,3132.0,3369.0,-0.46,9.44,3.61,-0.05,-0.01,-0.04,1.0,r
2928.0,2954.0,3023.0,3321.0,4095.0,4095.0,3136.0,3357.0,-0.55,9.5,3.47,-0.07,-0.01,-0.04,1.0,r
2942.0,2962.0,3018.0,3322.0,4095.0,4095.0,3145.0,3361.0,-0.58,9.4,3.62,-0.07,0.0,-0.03,1.0,r
2934.0,2955.0,3010.0,3344.0,4095.0,4095.0,3146.0,3376.0,-0.44,9.47,3.6,-0.04,0.03,-0.02,1.0,r
2928.0,2953.0,3024.0,3334.0,4095.0,4095.0,3146.0,3373.0,-0.46,9.5,3.49,-0.08,0.04,-0.02,1.0,r
2928.0,3010.0,3021.0,3329.0,4095.0,4095.0,3143.0,3383.0,-0.41,9.45,3.63,-0.04,-0.0,-0.04,1.0,r
2935.0,2951.0,3021.0,3343.0,4095.0,4095.0,3147.0,3378.0,-0.45,9.46,3.6,-0.07,-0.01,-0.03,1.0,r
2921.0,2955.0,3022.0,3333.0,4095.0,4095.0,3140.0,3389.0,-0.45,9.44,3.6,-0.06,-0.01,-0.04,1.0,r
2928.0,2955.0,3013.0,3340.0,4095.0,4095.0,3137.0,3377.0,-0.43,9.51,3.48,-0.07,0.01,-0.03,1.0,r
2927.0,2961.0,3013.0,3335.0,4095.0,4095.0,3145.0,3390.0,-0.4,9.45,3.63,-0.06,-0.0,-0.04,1.0,r
2924.0,2947.0,3014.0,3339.0,4095.0,4095.0,3141.0,3398.0,-0.45,9.45,3.55,-0.07,-0.01,-0.02,1.0,r
2928.0,2949.0,3009.0,3330.0,4095.0,4095.0,3139.0,3398.0,-0.47,9.44,3.56,-0.06,0.01,-0.03,1.0,r
2938.0,2960.0,3010.0,3340.0,4095.0,4095.0,3143.0,3396.0,-0.4,9.44,3.62,-0.07,-0.01,-0.04,1.0,r
2930.0,2963.0,3023.0,3344.0,4095.0,4095.0,3149.0,3387.0,-0.46,9.48,3.54,-0.07,-0.0,-0.03,1.0,r
2945.0,2959.0,2994.0,3339.0,4095.0,4095.0,3116.0,3399.0,-0.8,9.49,3.39,-0.03,-0.04,0.0,1.0,r
2928.0,2949.0,2992.0,3329.0,4095.0,4095.0,3104.0,3392.0,-0.93,9.43,3.42,-0.05,-0.01,0.0,1.0,r
2929.0,2951.0,2992.0,3337.0,4095.0,4095.0,3109.0,3391.0,-0.88,9.48,3.33,-0.12,-0.06,-0.04,1.0,r
2929.0,2954.0,2992.0,3355.0,4095.0,4095.0,3111.0,3406.0,-0.91,9.48,3.35,-0.07,-0.02,-0.03,1.0,r
2931.0,2960.0,2990.0,3331.0,4095.0,4095.0,3114.0,3423.0,-0.9,9.5,3.24,-0.07,-0.01,-0.02,1.0,r
2944.0,2960.0,2990.0,3334.0,4095.0,4095.0,3116.0,3408.0,-0.95,9.45,3.3,-0.12,-0.02,-0.01,1.0,r
2935.0,2966.0,2994.0,3344.0,4095.0,4095.0,3121.0,3432.0,-0.95,9.4,3.46,-0.08,-0.0,-0.02,1.0,r
2930.0,2861.0,2994.0,3363.0,4095.0,4095.0,3120.0,3414.0,-0.83,9.52,3.28,-0.04,-0.01,-0.03,1.0,r
2930.0,2959.0,3003.0,3364.0,4095.0,4095.0,3124.0,3421.0,-0.78,9.49,3.34,-0.07,-0.0,-0.04,1.0,r
2939.0,2961.0,2994.0,3351.0,4095.0,4095.0,3123.0,3411.0,-1.0,9.49,3.31,-0.1,-0.03,-0.04,1.0,r
2928.0,2960.0,2991.0,3346.0,4095.0,4095.0,3131.0,3438.0,-0.93,9.55,3.22,-0.05,0.01,-0.03,1.0,r
2933.0,2994.0,2999.0,3355.0,4095.0,4095.0,3136.0,3426.0,-0.82,9.54,3.28,-0.06,-0.02,-0.02,1.0,r
2931.0,2957.0,3008.0,3357.0,4095.0,4095.0,3122.0,3440.0,-0.8,9.46,3.5,-0.06,-0.03,-0.02,1.0,r
2930.0,2960.0,2987.0,3370.0,4095.0,4095.0,3132.0,3450.0,-0.88,9.52,3.34,-0.05,-0.01,0.0,1.0,r
2931.0,2979.0,2990.0,3367.0,4095.0,4095.0,3123.0,3442.0,-0.74,9.57,3.27,-0.04,-0.01,-0.03,1.0,r
2930.0,2960.0,2990.0,3359.0,4095.0,4095.0,3135.0,3431.0,-0.72,9.51,3.29,-0.06,-0.05,-0.07,1.0,r
2928.0,2955.0,2973.0,3363.0,4095.0,4095.0,3133.0,3438.0,-0.87,9.48,3.39,-0.06,-0.0,-0.05,1.0,r
2919.0,2957.0,2992.0,3362.0,4095.0,4095.0,3130.0,3435.0,-0.91,9.59,3.11,-0.08,-0.03,-0.04,1.0,r
2942.0,2960.0,2994.0,3363.0,4095.0,4095.0,3133.0,3431.0,-0.85,9.47,3.46,-0.07,-0.02,-0.05,1.0,r
2930.0,2960.0,2992.0,3361.0,4095.0,4095.0,3123.0,3437.0,-0.9,9.5,3.34,-0.05,-0.02,-0.04,1.0,r
2929.0,2959.0,2994.0,3360.0,4095.0,4095.0,3136.0,3429.0,-0.95,9.57,3.18,-0.03,0.02,-0.06,1.0,r
2928.0,2955.0,3001.0,3375.0,4095.0,4095.0,3141.0,3436.0,-0.83,9.48,3.38,-0.07,-0.01,-0.03,1.0,r
2926.0,2957.0,2978.0,3359.0,4095.0,4095.0,3136.0,3426.0,-0.86,9.53,3.21,-0.06,-0.03,-0.05,1.0,r
2934.0,2957.0,3009.0,3372.0,4095.0,4095.0,3121.0,3431.0,-0.97,9.53,3.32,-0.05,-0.04,-0.05,1.0,r
2928.0,2959.0,2999.0,3361.0,4095.0,4095.0,3123.0,3425.0,-0.91,9.53,3.25,-0.05,-0.02,-0.04,1.0,r
2944.0,2941.0,2999.0,3357.0,4095.0,4095.0,3135.0,3440.0,-0.87,9.51,3.33,-0.04,0.02,-0.04,1.0,r
2934.0,2958.0,2997.0,3353.0,4095.0,4095.0,3140.0,3447.0,-0.92,9.56,3.21,-0.06,0.0,-0.05,1.0,r
2928.0,2958.0,2991.0,3354.0,4095.0,4095.0,3123.0,3434.0,-0.86,9.53,3.28,-0.1,-0.03,-0.05,1.0,r
2928.0,2956.0,2995.0,3350.0,4095.0,4095.0,3134.0,3439.0,-0.95,9.54,3.25,-0.09,-0.03,-0.05,1.0,r
2929.0,2951.0,2992.0,3365.0,4095.0,4095.0,3130.0,3459.0,-0.85,9.45,3.4,-0.07,-0.03,-0.03,1.0,r
2935.0,2944.0,2993.0,3374.0,4095.0,4095.0,3140.0,3431.0,-0.9,9.49,3.38,-0.08,-0.03,-0.03,1.0,r
2951.0,2949.0,2992.0,3362.0,4095.0,4095.0,3136.0,3446.0,-0.95,9.55,3.22,-0.07,-0.02,-0.03,1.0,r
2919.0,2926.0,2995.0,3355.0,4095.0,4095.0,3135.0,3444.0,-0.94,9.53,3.38,-0.08,0.01,-0.03,1.0,r
2928.0,2959.0,2990.0,3373.0,4095.0,4095.0,3135.0,3433.0,-0.89,9.48,3.41,-0.05,-0.02,-0.04,1.0,r
2933.0,2942.0,2995.0,3376.0,4095.0,4095.0,3131.0,3435.0,-0.75,9.52,3.3,-0.04,0.0,-0.04,1.0,r
2929.0,2960.0,2991.0,3373.0,4095.0,4095.0,3133.0,3447.0,-0.84,9.45,3.43,-0.06,0.01,-0.03,1.0,r
2935.0,2961.0,2981.0,3358.0,4095.0,4095.0,3139.0,3437.0,-0.9,9.42,3.36,-0.05,-0.0,-0.02,1.0,r
2931.0,2959.0,2989.0,3376.0,4095.0,4095.0,3135.0,3451.0,-0.79,9.47,3.37,-0.06,-0.01,-0.03,1.0,r
2931.0,2954.0,2992.0,3370.0,4095.0,4095.0,3136.0,3440.0,-0.88,9.48,3.41,-0.07,0.03,-0.03,1.0,r
2946.0,2949.0,2991.0,3372.0,4095.0,4095.0,3143.0,3441.0,-0.86,9.49,3.3,-0.05,-0.01,-0.04,1.0,r
2937.0,2965.0,2983.0,3367.0,4095.0,4095.0,3136.0,3471.0,-0.78,9.5,3.47,-0.01,0.08,-0.03,1.0,r
2938.0,2960.0,2989.0,3365.0,4095.0,4095.0,3136.0,3466.0,-0.83,9.47,3.34,0.1,0.13,-0.02,1.0,r
2919.0,2949.0,2991.0,3371.0,4095.0,4095.0,3130.0,3479.0,-0.84,9.46,3.26,-0.11,-0.02,-0.02,1.0,r
2929.0,2967.0,2983.0,3379.0,4095.0,4095.0,3143.0,3472.0,-0.83,9.49,3.35,-0.05,-0.02,-0.02,1.0,r
2944.0,2951.0,2991.0,3387.0,4095.0,4095.0,3136.0,3477.0,-0.79,9.55,3.18,-0.07,-0.03,-0.03,1.0,r
2929.0,2890.0,2986.0,3363.0,4095.0,4095.0,3138.0,3469.0,-0.85,9.48,3.35,-0.07,-0.07,-0.03,1.0,r
2933.0,2962.0,2990.0,3359.0,4095.0,4095.0,3157.0,3472.0,-0.84,9.49,3.21,-0.06,-0.04,-0.03,1.0,r
2935.0,2986.0,2989.0,3370.0,4095.0,4095.0,3133.0,3486.0,-0.89,9.51,3.21,-0.08,-0.06,-0.04,1.0,r
2927.0,2969.0,2983.0,3396.0,4095.0,4095.0,3147.0,3472.0,-0.96,9.54,3.25,-0.07,-0.04,-0.04,1.0,r
2929.0,2896.0,2989.0,3387.0,4095.0,4095.0,3150.0,3472.0,-0.85,9.56,3.19,-0.07,-0.06,-0.04,1.0,r
2933.0,2957.0,2986.0,3382.0,4095.0,4095.0,3145.0,3491.0,-0.87,9.46,3.38,-0.07,-0.06,-0.03,1.0,r
2935.0,2931.0,2992.0,3376.0,4095.0,4095.0,3136.0,3472.0,-0.87,9.53,3.22,-0.06,-0.04,-0.04,1.0,r
2932.0,2960.0,2991.0,3408.0,4095.0,4095.0,3141.0,3475.0,-0.93,9.52,3.25,-0.1,-0.03,-0.02,1.0,r
2934.0,2927.0,2982.0,3382.0,4095.0,4095.0,3138.0,3481.0,-0.97,9.49,3.33,-0.06,-0.01,-0.02,1.0,r
2929.0,2964.0,2992.0,3405.0,4095.0,4095.0,3148.0,3477.0,-0.83,9.53,3.27,-0.12,-0.04,-0.03,1.0,r
2926.0,2953.0,3001.0,3404.0,4095.0,4095.0,3141.0,3488.0,-0.85,9.43,3.47,-0.05,-0.02,-0.05,1.0,r
2930.0,2974.0,2992.0,3400.0,4095.0,4095.0,3151.0,3478.0,-0.81,9.55,3.26,-0.05,-0.03,-0.04,1.0,r
2914.0,2907.0,2995.0,3402.0,4095.0,4095.0,3139.0,3497.0,-0.87,9.59,3.23,-0.12,-0.11,-0.03,1.0,r
2934.0,2957.0,2992.0,3415.0,4095.0,4095.0,3142.0,3483.0,-0.84,9.45,3.51,-0.03,-0.03,-0.05,1.0,r
2923.0,2955.0,2993.0,3419.0,4095.0,4095.0,3138.0,3493.0,-0.9,9.55,3.24,-0.02,-0.01,-0.04,1.0,r
2930.0,2957.0,2983.0,3394.0,4095.0,4095.0,3143.0,3488.0,-0.82,9.58,3.31,-0.06,-0.01,-0.02,1.0,r
2912.0,2953.0,2985.0,3408.0,4095.0,4095.0,3150.0,3499.0,-0.72,9.53,3.42,-0.02,0.02,-0.05,1.0,r
2934.0,2868.0,2988.0,3406.0,4095.0,4095.0,3152.0,3493.0,-0.86,9.52,3.35,-0.06,-0.01,-0.05,1.0,r
2930.0,2944.0,2992.0,3427.0,4095.0,4095.0,3144.0,3486.0,-0.98,9.5,3.3,-0.03,0.03,-0.04,1.0,r
2928.0,2960.0,2985.0,3408.0,4095.0,4095.0,3145.0,3487.0,-0.8,9.49,3.35,-0.05,0.03,-0.04,1.0,r
2927.0,2945.0,2989.0,3419.0,4095.0,4095.0,3152.0,3483.0,-0.86,9.46,3.39,-0.06,-0.0,-0.03,1.0,r
2919.0,2975.0,2992.0,3415.0,4095.0,4095.0,3143.0,3472.0,-0.86,9.56,3.18,-0.04,0.0,-0.04,1.0,r
2932.0,2959.0,2989.0,3429.0,4095.0,4095.0,3147.0,3497.0,-0.88,9.52,3.34,-0.08,0.04,-0.02,1.0,r
2922.0,2991.0,2995.0,3428.0,4095.0,4095.0,3151.0,3487.0,-0.77,9.55,3.33,-0.08,0.03,-0.02,1.0,r
2934.0,2955.0,2990.0,3425.0,4095.0,4095.0,3143.0,3484.0,-0.87,9.51,3.34,-0.06,0.02,-0.03,1.0,r
2944.0,2957.0,2982.0,3414.0,4095.0,4095.0,3152.0,3492.0,-0.81,9.52,3.26,-0.05,-0.04,-0.04,1.0,r
2930.0,2966.0,2998.0,3423.0,4095.0,4095.0,3151.0,3495.0,-0.87,9.49,3.36,-0.09,0.01,-0.02,1.0,r
2935.0,2965.0,2987.0,3429.0,4095.0,4095.0,3146.0,3489.0,-0.83,9.48,3.34,-0.06,0.01,-0.01,1.0,r
2928.0,2955.0,2995.0,3423.0,4095.0,4095.0,3146.0,3481.0,-0.72,9.55,3.26,-0.04,0.0,-0.04,1.0,r
2933.0,2953.0,2983.0,3427.0,4095.0,4095.0,3139.0,3485.0,-0.68,9.47,3.43,-0.07,-0.03,-0.03,1.0,r
2928.0,2966.0,2992.0,3430.0,4095.0,4095.0,3148.0,3503.0,-0.74,9.55,3.21,-0.06,-0.04,-0.03,1.0,r
2928.0,2953.0,2989.0,3410.0,4095.0,4095.0,3143.0,3497.0,-0.76,9.47,3.42,-0.08,-0.01,-0.03,1.0,r
2928.0,2957.0,2992.0,3410.0,4095.0,4095.0,3151.0,3491.0,-0.73,9.53,3.34,-0.05,0.02,-0.03,1.0,r
2936.0,2922.0,2992.0,3423.0,4095.0,4095.0,3152.0,3503.0,-0.73,9.49,3.32,-0.07,0.0,-0.03,1.0,r
2929.0,2961.0,2997.0,3423.0,4095.0,4095.0,3150.0,3490.0,-0.74,9.51,3.34,-0.09,-0.07,-0.03,1.0,r
2921.0,2955.0,2991.0,3207.0,4095.0,4095.0,3135.0,3337.0,-0.7,9.49,3.12,-0.09,-0.02,-0.03,1.0,r
2941.0,2947.0,3002.0,3216.0,4095.0,4095.0,3136.0,3340.0,-0.72,9.57,3.16,-0.06,-0.03,-0.04,1.0,r
2938.0,2995.0,3008.0,3221.0,4095.0,4095.0,3130.0,3357.0,-0.8,9.6,3.05,-0.09,-0.05,-0.03,1.0,r
2941.0,2970.0,2992.0,3230.0,4095.0,4095.0,3135.0,3350.0,-0.69,9.57,3.15,-0.06,0.0,-0.02,1.0,r
2938.0,2974.0,2978.0,3222.0,4095.0,4095.0,3146.0,3344.0,-0.63,9.59,3.18,-0.05,-0.02,-0.04,1.0,r
2937.0,2950.0,2995.0,3235.0,4095.0,4095.0,3132.0,3344.0,-0.78,9.53,3.16,-0.05,-0.01,-0.05,1.0,r
2946.0,2941.0,2998.0,3225.0,4095.0,4095.0,3136.0,3344.0,-0.84,9.61,3.02,-0.08,-0.03,-0.03,1.0,r
2935.0,2969.0,2992.0,3228.0,4095.0,4095.0,3136.0,3345.0,-0.89,9.56,3.06,-0.06,-0.03,-0.04,1.0,r
2944.0,2941.0,3008.0,3223.0,4095.0,4095.0,3135.0,3350.0,-0.76,9.62,3.16,-0.07,-0.02,-0.03,1.0,r
2931.0,2944.0,2985.0,3242.0,4095.0,4095.0,3136.0,3346.0,-0.71,9.62,3.09,-0.02,-0.01,-0.04,1.0,r
2946.0,2959.0,2995.0,3218.0,4095.0,4095.0,3134.0,3337.0,-0.81,9.59,3.1,-0.03,0.05,-0.03,1.0,r
2945.0,2952.0,2998.0,3230.0,4095.0,4095.0,3142.0,3341.0,-0.7,9.56,3.18,-0.07,0.04,-0.03,1.0,r
2944.0,2979.0,2992.0,3237.0,4095.0,4095.0,3136.0,3348.0,-0.82,9.6,3.11,-0.08,0.0,-0.01,1.0,r
2941.0,2955.0,3013.0,3239.0,4095.0,4095.0,3135.0,3357.0,-0.71,9.59,3.04,-0.07,-0.0,-0.03,1.0,r
2943.0,2957.0,3007.0,3247.0,4095.0,4095.0,3142.0,3373.0,-0.78,9.52,3.22,-0.08,0.02,-0.03,1.0,r
2939.0,2943.0,2998.0,3251.0,4095.0,4095.0,3141.0,3346.0,-0.75,9.6,3.13,-0.05,0.02,-0.02,1.0,r
2933.0,2949.0,2992.0,3234.0,4095.0,4095.0,3147.0,3344.0,-0.74,9.64,3.05,-0.07,-0.0,-0.03,1.0,r
2939.0,2967.0,2987.0,3243.0,4095.0,4095.0,3147.0,3344.0,-0.82,9.59,3.16,-0.05,0.03,-0.02,1.0,r
2929.0,3125.0,2995.0,3257.0,4095.0,4095.0,3142.0,3339.0,-0.8,9.66,3.05,-0.05,-0.01,-0.04,1.0,r
2938.0,2949.0,3002.0,3235.0,4095.0,4095.0,3152.0,3350.0,-0.89,9.6,3.13,-0.05,-0.01,-0.03,1.0,r
2941.0,2945.0,3002.0,3243.0,4095.0,4095.0,3138.0,3351.0,-0.83,9.57,3.08,-0.05,0.02,-0.01,1.0,r
2935.0,2867.0,3007.0,3248.0,4095.0,4095.0,3151.0,3335.0,-0.66,9.6,3.17,-0.07,0.03,-0.01,1.0,r
2928.0,2959.0,3000.0,3248.0,4095.0,4095.0,3137.0,3357.0,-0.64,9.6,3.16,-0.07,0.02,-0.02,1.0,r
2932.0,2954.0,2989.0,3259.0,4095.0,4095.0,3149.0,3341.0,-0.66,9.64,3.02,-0.04,0.06,-0.04,1.0,r
2930.0,2982.0,3013.0,3251.0,4095.0,4095.0,3143.0,3358.0,-0.78,9.57,3.03,-0.01,0.0,-0.04,1.0,r
2933.0,2994.0,2991.0,3263.0,4095.0,4095.0,3151.0,3362.0,-0.74,9.56,3.1,-0.09,0.06,-0.01,1.0,r
2933.0,2957.0,2994.0,3255.0,4095.0,4095.0,3141.0,3346.0,-0.74,9.57,3.11,-0.1,0.08,-0.01,1.0,r
2946.0,2948.0,2992.0,3258.0,4095.0,4095.0,3138.0,3345.0,-0.71,9.62,3.02,-0.05,0.08,-0.01,1.0,r
2925.0,2954.0,2993.0,3261.0,4095.0,4095.0,3143.0,3339.0,-0.7,9.7,3.07,-0.04,-0.0,-0.04,1.0,r
2928.0,2965.0,2998.0,3251.0,4095.0,4095.0,3152.0,3349.0,-0.67,9.64,3.0,-0.05,0.02,-0.03,1.0,r
2929.0,2930.0,2997.0,3251.0,4095.0,4095.0,3137.0,3344.0,-0.65,9.56,3.13,-0.03,0.0,-0.04,1.0,r
2927.0,2923.0,2997.0,3251.0,4095.0,4095.0,3151.0,3343.0,-0.6,9.74,3.04,0.02,-0.0,-0.07,1.0,r
2940.0,2942.0,2993.0,3270.0,4095.0,4095.0,3147.0,3341.0,-0.72,9.62,2.91,-0.06,-0.02,-0.05,1.0,r
2934.0,2961.0,2997.0,3279.0,4095.0,4095.0,3133.0,3347.0,-0.81,9.61,2.89,-0.01,0.09,-0.02,1.0,r
2928.0,2949.0,2992.0,3291.0,4095.0,4095.0,3125.0,3343.0,-0.5,9.76,2.82,-0.09,0.05,-0.04,1.0,r
2930.0,2954.0,2990.0,3310.0,4095.0,4095.0,3131.0,3338.0,-0.74,9.59,3.12,-0.0,0.01,-0.07,1.0,r
2943.0,3009.0,2999.0,3321.0,4095.0,4095.0,3126.0,3333.0,-0.84,9.53,2.94,0.01,0.02,-0.06,1.0,r
2929.0,2956.0,2994.0,3361.0,4095.0,4095.0,3123.0,3326.0,-0.84,9.79,2.84,0.01,-0.03,-0.12,1.0,r
2928.0,2947.0,2997.0,3393.0,4095.0,4095.0,3091.0,3337.0,-1.03,9.9,2.66,0.35,0.04,-0.28,1.0,r
2937.0,2959.0,3016.0,3490.0,4095.0,4095.0,3079.0,3370.0,-0.85,9.95,2.14,0.09,-0.08,-0.17,1.0,r
2940.0,2946.0,2983.0,3570.0,4095.0,4095.0,3105.0,3391.0,-1.12,9.71,2.53,-0.11,-0.01,-0.04,1.0,r
2930.0,2959.0,2992.0,3581.0,4095.0,4095.0,3101.0,3409.0,-1.19,9.71,2.38,-0.1,0.01,-0.04,1.0,r
2942.0,2951.0,2992.0,3548.0,4095.0,4095.0,3115.0,3415.0,-1.01,9.67,2.63,-0.07,0.01,-0.01,1.0,r
2933.0,2958.0,2997.0,3549.0,4095.0,4095.0,3097.0,3408.0,-1.01,9.71,2.44,-0.13,0.03,-0.01,1.0,r
2930.0,2947.0,2991.0,3563.0,4095.0,4095.0,3110.0,3419.0,-1.09,9.67,2.58,-0.09,0.01,-0.03,1.0,r
2930.0,2944.0,2992.0,3538.0,4095.0,4095.0,3105.0,3415.0,-0.99,9.74,2.49,-0.08,-0.01,-0.02,1.0,r
2928.0,2952.0,2988.0,3555.0,4095.0,4095.0,3111.0,3396.0,-0.99,9.71,2.57,-0.08,-0.03,-0.04,1.0,r
2925.0,2960.0,2992.0,3562.0,4095.0,4095.0,3120.0,3408.0,-1.01,9.66,2.61,-0.09,-0.01,-0.03,1.0,r
2930.0,2973.0,3008.0,3568.0,4095.0,4095.0,3103.0,3419.0,-1.01,9.73,2.44,-0.07,0.0,-0.04,1.0,r
2918.0,2949.0,2998.0,3577.0,4095.0,4095.0,3114.0,3397.0,-1.03,9.66,2.56,-0.08,-0.03,-0.02,1.0,r
2931.0,2949.0,2993.0,3561.0,4095.0,4095.0,3111.0,3401.0,-1.06,9.67,2.48,-0.08,-0.03,-0.03,1.0,r
2928.0,2933.0,3005.0,3561.0,4095.0,4095.0,3104.0,3405.0,-0.97,9.71,2.55,-0.05,-0.01,-0.04,1.0,r
2928.0,2953.0,3003.0,3566.0,4095.0,4095.0,3113.0,3429.0,-1.01,9.7,2.58,-0.03,-0.01,-0.06,1.0,r
2907.0,2935.0,3005.0,3563.0,4095.0,4095.0,3117.0,3411.0,-1.03,9.68,2.53,-0.08,-0.02,-0.04,1.0,r
2919.0,3026.0,3013.0,3582.0,4095.0,4095.0,3111.0,3418.0,-1.15,9.69,2.51,-0.08,-0.03,-0.03,1.0,r
2931.0,2957.0,2992.0,3553.0,4095.0,4095.0,3114.0,3421.0,-1.03,9.69,2.47,-0.07,-0.04,-0.02,1.0,r
2931.0,2957.0,2993.0,3559.0,4095.0,4095.0,3115.0,3419.0,-1.06,9.7,2.6,-0.07,-0.02,-0.03,1.0,r
2931.0,2953.0,2995.0,3554.0,4095.0,4095.0,3121.0,3408.0,-1.09,9.69,2.48,-0.08,-0.03,-0.02,1.0,r
2939.0,2947.0,2992.0,3551.0,4095.0,4095.0,3107.0,3401.0,-1.02,9.75,2.58,-0.08,0.0,-0.03,1.0,r
2937.0,2954.0,2993.0,3558.0,4095.0,4095.0,3107.0,3431.0,-1.09,9.72,2.54,-0.06,-0.02,-0.03,1.0,r
2943.0,2942.0,2996.0,3567.0,4095.0,4095.0,3123.0,3414.0,-1.04,9.71,2.56,-0.05,-0.02,-0.04,1.0,r
2941.0,2955.0,3003.0,3562.0,4095.0,4095.0,3121.0,3407.0,-1.04,9.67,2.62,-0.06,-0.01,-0.02,1.0,r
2931.0,2942.0,3010.0,3566.0,4095.0,4095.0,3117.0,3411.0,-1.02,9.7,2.53,-0.07,-0.02,-0.02,1.0,r
2928.0,2944.0,3008.0,3549.0,4095.0,4095.0,3119.0,3417.0,-1.06,9.69,2.62,-0.06,-0.02,-0.03,1.0,r
2931.0,2959.0,3006.0,3555.0,4095.0,4095.0,3115.0,3415.0,-0.97,9.68,2.55,-0.05,-0.0,-0.02,1.0,r
2929.0,2954.0,3002.0,3536.0,4095.0,4095.0,3117.0,3427.0,-1.1,9.68,2.62,-0.13,-0.03,-0.01,1.0,r
2927.0,2944.0,3005.0,3541.0,4095.0,4095.0,3121.0,3421.0,-1.07,9.69,2.66,-0.08,-0.01,-0.02,1.0,r
2935.0,2943.0,3010.0,3555.0,4095.0,4095.0,3127.0,3430.0,-0.97,9.73,2.58,-0.08,0.01,-0.03,1.0,r
2928.0,2913.0,3007.0,3552.0,4095.0,4095.0,3120.0,3418.0,-1.04,9.71,2.7,-0.07,0.0,-0.02,1.0,r
2930.0,2956.0,3009.0,3558.0,4095.0,4095.0,3118.0,3424.0,-0.94,9.73,2.6,-0.07,0.0,-0.02,1.0,r
2934.0,2960.0,3009.0,3568.0,4095.0,4095.0,3120.0,3419.0,-0.98,9.65,2.64,-0.06,0.01,-0.04,1.0,r
2928.0,2958.0,2997.0,3571.0,4095.0,4095.0,3119.0,3429.0,-0.88,9.71,2.74,-0.05,0.02,-0.02,1.0,r
2944.0,2941.0,3003.0,3575.0,4095.0,4095.0,3120.0,3423.0,-0.99,9.69,2.63,-0.09,0.01,-0.02,1.0,r
2934.0,2960.0,2994.0,3570.0,4095.0,4095.0,3115.0,3424.0,-0.95,9.69,2.66,-0.07,0.0,-0.03,1.0,r
2930.0,2959.0,2991.0,3578.0,4095.0,4095.0,3119.0,3426.0,-0.9,9.69,2.65,-0.07,0.0,-0.02,1.0,r
2926.0,2954.0,2995.0,3577.0,4095.0,4095.0,3120.0,3419.0,-0.98,9.69,2.72,-0.06,-0.01,-0.04,1.0,r
2932.0,2938.0,3000.0,3564.0,4095.0,4095.0,3122.0,3439.0,-0.97,9.68,2.74,-0.05,-0.01,-0.04,1.0,r
2915.0,2955.0,3011.0,3562.0,4095.0,4095.0,3117.0,3421.0,-0.97,9.67,2.53,-0.11,0.0,0.0,1.0,r
2928.0,2955.0,2999.0,3578.0,4095.0,4095.0,3121.0,3421.0,-0.92,9.63,2.78,-0.06,0.01,-0.03,1.0,r
2902.0,2943.0,3005.0,3561.0,4095.0,4095.0,3120.0,3440.0,-0.84,9.69,2.69,-0.04,0.0,-0.04,1.0,r
2939.0,2958.0,2994.0,3275.0,4095.0,4095.0,3161.0,3437.0,-0.88,9.56,3.11,-0.03,-0.0,-0.03,1.0,r
2959.0,2947.0,2992.0,3286.0,4095.0,4095.0,3157.0,3423.0,-0.99,9.67,2.81,-0.05,0.03,-0.02,1.0,r
2939.0,2947.0,2999.0,3283.0,4095.0,4095.0,3151.0,3418.0,-0.88,9.57,3.06,-0.02,-0.0,-0.04,1.0,r
2954.0,2958.0,3002.0,3294.0,4095.0,4095.0,3152.0,3412.0,-0.86,9.61,3.11,-0.02,0.06,-0.03,1.0,r
2926.0,2946.0,3004.0,3285.0,4095.0,4095.0,3155.0,3420.0,-0.89,9.64,2.89,-0.07,0.0,-0.02,1.0,r
2925.0,2947.0,3007.0,3280.0,4095.0,4095.0,3150.0,3431.0,-0.89,9.56,3.03,-0.08,-0.03,-0.04,1.0,r
2943.0,2930.0,3013.0,3286.0,4095.0,4095.0,3153.0,3430.0,-0.85,9.58,3.04,-0.08,-0.02,-0.02,1.0,r
2928.0,2949.0,3008.0,3293.0,4095.0,4095.0,3151.0,3437.0,-0.84,9.64,3.04,-0.07,-0.01,-0.03,1.0,r
2928.0,2944.0,2992.0,3296.0,4095.0,4095.0,3166.0,3437.0,-0.79,9.6,3.0,-0.05,-0.03,-0.04,1.0,r
2924.0,3001.0,3002.0,3285.0,4095.0,4095.0,3169.0,3427.0,-0.99,9.54,3.04,-0.08,-0.01,-0.03,1.0,r
2940.0,2949.0,3004.0,3294.0,4095.0,4095.0,3152.0,3435.0,-0.93,9.53,3.05,-0.06,0.03,-0.02,1.0,r
2933.0,2961.0,2995.0,3293.0,4095.0,4095.0,3157.0,3438.0,-0.87,9.49,3.08,-0.07,0.02,-0.02,1.0,r
2924.0,2917.0,2992.0,3281.0,4095.0,4095.0,3161.0,3440.0,-0.91,9.6,3.09,-0.07,-0.03,-0.04,1.0,r
2919.0,2955.0,2992.0,3275.0,4095.0,4095.0,3167.0,3443.0,-0.91,9.66,2.84,-0.12,-0.03,-0.01,1.0,r
2931.0,2960.0,2998.0,3273.0,4095.0,4095.0,3163.0,3447.0,-0.85,9.6,3.06,-0.07,-0.02,-0.01,1.0,r
2928.0,2978.0,3011.0,3274.0,4095.0,4095.0,3155.0,3446.0,-0.74,9.64,2.97,-0.08,-0.0,0.0,1.0,r
2929.0,2939.0,3003.0,3242.0,4095.0,4095.0,3159.0,3440.0,-0.86,9.58,3.07,-0.08,-0.0,-0.01,1.0,r
2928.0,2974.0,2991.0,3235.0,4095.0,4095.0,3158.0,3450.0,-0.79,9.6,3.19,-0.02,-0.01,-0.05,1.0,r
2935.0,2954.0,2995.0,3213.0,4095.0,4095.0,3166.0,3437.0,-0.74,9.6,3.05,-0.05,0.02,-0.03,1.0,r
2940.0,2950.0,2998.0,3237.0,4095.0,4095.0,3172.0,3441.0,-0.75,9.58,3.07,-0.05,-0.01,-0.04,1.0,r
2931.0,2947.0,3005.0,3238.0,4095.0,4095.0,3173.0,3449.0,-0.72,9.62,3.05,-0.06,-0.01,-0.05,1.0,r
2921.0,2943.0,2999.0,3248.0,4095.0,4095.0,3181.0,3455.0,-0.7,9.56,3.16,-0.04,0.02,-0.05,1.0,r
2923.0,2951.0,3007.0,3253.0,4095.0,4095.0,3179.0,3459.0,-0.7,9.63,2.98,-0.04,0.01,-0.03,1.0,r
2928.0,2957.0,2998.0,3274.0,4095.0,4095.0,3166.0,3455.0,-0.8,9.52,3.14,-0.07,-0.04,-0.04,1.0,r
2928.0,2945.0,2997.0,3271.0,4095.0,4095.0,3184.0,3462.0,-0.81,9.59,3.07,-0.07,0.0,-0.03,1.0,r
2930.0,2946.0,3007.0,3261.0,4095.0,4095.0,3169.0,3450.0,-0.75,9.62,2.99,-0.06,-0.0,-0.04,1.0,r
2929.0,2945.0,3006.0,3277.0,4095.0,4095.0,3166.0,3454.0,-0.76,9.6,3.05,-0.07,-0.02,-0.03,1.0,r
2938.0,2960.0,3002.0,3272.0,4095.0,4095.0,3171.0,3443.0,-0.75,9.59,3.1,-0.07,0.0,-0.04,1.0,r
2939.0,2971.0,3008.0,3265.0,4095.0,4095.0,3179.0,3456.0,-0.82,9.57,3.13,-0.06,-0.01,-0.04,1.0,r
2928.0,2947.0,2993.0,3264.0,4095.0,4095.0,3168.0,3443.0,-0.73,9.63,2.93,-0.05,-0.02,-0.03,1.0,r
2928.0,2966.0,3005.0,3272.0,4095.0,4095.0,3169.0,3459.0,-0.74,9.66,3.0,-0.08,-0.03,-0.06,1.0,r
2933.0,2954.0,3009.0,3275.0,4095.0,4095.0,3166.0,3447.0,-0.83,9.53,3.22,-0.05,-0.02,-0.03,1.0,r
2926.0,2953.0,3005.0,3280.0,4095.0,4095.0,3171.0,3456.0,-0.68,9.65,2.93,-0.07,-0.05,-0.03,1.0,r
2928.0,2982.0,2996.0,3260.0,4095.0,4095.0,3168.0,3455.0,-0.76,9.6,3.08,-0.05,-0.04,-0.04,1.0,r
2928.0,2950.0,2999.0,3280.0,4095.0,4095.0,3158.0,3456.0,-0.79,9.61,3.08,-0.05,-0.04,-0.03,1.0,r
2935.0,2949.0,2992.0,3280.0,4095.0,4095.0,3159.0,3461.0,-0.79,9.6,3.0,-0.07,-0.05,-0.03,1.0,r
2931.0,2947.0,3001.0,3280.0,4095.0,4095.0,3162.0,3469.0,-0.7,9.6,3.06,-0.07,0.01,-0.03,1.0,r
2929.0,2954.0,2998.0,3277.0,4095.0,4095.0,3152.0,3450.0,-0.7,9.57,3.17,-0.08,0.01,-0.02,1.0,r
2941.0,2961.0,2999.0,3291.0,4095.0,4095.0,3163.0,3458.0,-0.65,9.6,3.17,-0.06,-0.0,-0.03,1.0,r
2930.0,2965.0,3003.0,3289.0,4095.0,4095.0,3164.0,3454.0,-0.68,9.58,3.07,-0.07,0.0,-0.03,1.0,r
2946.0,2957.0,3009.0,3326.0,4095.0,4095.0,3120.0,3425.0,-0.76,9.69,3.07,-0.04,0.02,-0.02,1.0,r
2943.0,2951.0,3011.0,3319.0,4095.0,4095.0,3106.0,3434.0,-0.74,9.62,3.13,-0.01,-0.01,-0.03,1.0,r
2931.0,2945.0,3015.0,3327.0,4095.0,4095.0,3121.0,3425.0,-0.78,9.6,3.01,-0.04,-0.04,-0.01,1.0,r
2928.0,2957.0,3021.0,3325.0,4095.0,4095.0,3120.0,3419.0,-0.7,9.62,3.02,-0.03,0.03,0.01,1.0,r
2943.0,2946.0,2993.0,3339.0,4095.0,4095.0,3119.0,3417.0,-0.62,9.63,2.98,-0.08,-0.02,-0.02,1.0,r
2940.0,2944.0,3007.0,3339.0,4095.0,4095.0,3120.0,3422.0,-0.73,9.59,3.06,-0.06,-0.01,-0.04,1.0,r
2951.0,2961.0,3010.0,3338.0,4095.0,4095.0,3121.0,3414.0,-0.63,9.65,3.01,-0.04,-0.02,-0.03,1.0,r
2929.0,2945.0,3011.0,3345.0,4095.0,4095.0,3125.0,3413.0,-0.71,9.62,2.98,-0.05,-0.02,-0.03,1.0,r
2937.0,2950.0,3008.0,3347.0,4095.0,4095.0,3120.0,3429.0,-0.78,9.57,2.96,-0.06,-0.01,-0.02,1.0,r
2928.0,2960.0,3012.0,3351.0,4095.0,4095.0,3127.0,3419.0,-0.61,9.61,2.99,-0.06,-0.03,-0.04,1.0,r
2933.0,2949.0,3022.0,3355.0,4095.0,4095.0,3121.0,3422.0,-0.63,9.6,3.0,-0.09,-0.01,-0.03,1.0,r
2935.0,2960.0,3005.0,3344.0,4095.0,4095.0,3124.0,3440.0,-0.68,9.62,2.99,-0.07,0.0,-0.03,1.0,r
2943.0,2951.0,3007.0,3358.0,4095.0,4095.0,3129.0,3433.0,-0.63,9.64,3.08,-0.03,0.0,-0.04,1.0,r
2934.0,2951.0,3013.0,3383.0,4095.0,4095.0,3127.0,3427.0,-0.67,9.65,2.95,-0.06,0.01,-0.02,1.0,r
2932.0,2955.0,2995.0,3379.0,4095.0,4095.0,3134.0,3443.0,-0.66,9.58,3.08,-0.11,-0.01,-0.02,1.0,r
2938.0,2954.0,3019.0,3382.0,4095.0,4095.0,3120.0,3439.0,-0.63,9.54,3.16,-0.06,-0.05,-0.03,1.0,r
2934.0,2958.0,3012.0,3391.0,4095.0,4095.0,3130.0,3442.0,-0.59,9.62,3.0,-0.07,-0.02,-0.04,1.0,r
2943.0,2965.0,3001.0,3377.0,4095.0,4095.0,3120.0,3430.0,-0.79,9.55,3.14,-0.13,-0.0,0.0,1.0,r
2943.0,2944.0,3009.0,3391.0,4095.0,4095.0,3119.0,3445.0,-0.65,9.59,3.17,-0.07,0.04,-0.04,1.0,r
2934.0,2946.0,3008.0,3406.0,4095.0,4095.0,3136.0,3439.0,-0.63,9.55,3.2,-0.04,0.02,-0.05,1.0,r
2953.0,2960.0,3005.0,3395.0,4095.0,4095.0,3120.0,3431.0,-0.54,9.64,3.03,-0.05,0.02,-0.04,1.0,r
2933.0,2948.0,3001.0,3385.0,4095.0,4095.0,3120.0,3447.0,-0.63,9.58,3.17,-0.05,0.01,-0.04,1.0,r
2949.0,2957.0,3012.0,3381.0,4095.0,4095.0,3130.0,3443.0,-0.56,9.57,3.17,-0.04,-0.01,-0.04,1.0,r
2940.0,2998.0,3008.0,3383.0,4095.0,4095.0,3123.0,3431.0,-0.57,9.6,3.14,-0.08,-0.04,-0.05,1.0,r
2933.0,2956.0,3012.0,3401.0,4095.0,4095.0,3116.0,3435.0,-0.73,9.56,3.14,-0.09,-0.01,-0.03,1.0,r
2939.0,2951.0,2994.0,3382.0,4095.0,4095.0,3123.0,3440.0,-0.62,9.6,3.12,-0.06,-0.02,-0.03,1.0,r
2942.0,2961.0,3021.0,3392.0,4095.0,4095.0,3123.0,3440.0,-0.61,9.56,3.2,-0.07,-0.01,-0.03,1.0,r
2943.0,2954.0,3002.0,3379.0,4095.0,4095.0,3120.0,3447.0,-0.56,9.61,3.14,-0.04,0.0,-0.04,1.0,r
2934.0,2946.0,3011.0,3383.0,4095.0,4095.0,3128.0,3435.0,-0.64,9.59,3.16,-0.06,0.01,-0.03,1.0,r
2941.0,2951.0,2997.0,3391.0,4095.0,4095.0,3122.0,3445.0,-0.57,9.58,3.15,-0.04,-0.03,-0.02,1.0,r
2930.0,2958.0,3007.0,3393.0,4095.0,4095.0,3130.0,3435.0,-0.58,9.56,3.15,-0.08,-0.02,-0.03,1.0,r
2933.0,2960.0,3022.0,3396.0,4095.0,4095.0,3126.0,3453.0,-0.57,9.59,3.12,-0.06,-0.02,-0.03,1.0,r
2933.0,2951.0,3002.0,3411.0,4095.0,4095.0,3127.0,3435.0,-0.62,9.56,3.19,-0.1,-0.02,-0.02,1.0,r
2937.0,2960.0,3010.0,3411.0,4095.0,4095.0,3129.0,3449.0,-0.68,9.54,3.17,-0.1,-0.02,-0.02,1.0,r
2941.0,2880.0,2992.0,3401.0,4095.0,4095.0,3127.0,3451.0,-0.59,9.55,3.22,-0.07,0.0,-0.03,1.0,r
2942.0,2947.0,3013.0,3409.0,4095.0,4095.0,3127.0,3435.0,-0.51,9.54,3.3,-0.05,-0.03,-0.04,1.0,r
2940.0,2950.0,3008.0,3430.0,4095.0,4095.0,3115.0,3435.0,-0.52,9.58,3.15,-0.06,-0.02,-0.03,1.0,r
2943.0,2960.0,3006.0,3424.0,4095.0,4095.0,3129.0,3435.0,-0.58,9.52,3.34,-0.05,0.0,-0.03,1.0,r
2940.0,2949.0,3007.0,3431.0,4095.0,4095.0,3121.0,3433.0,-0.61,9.62,3.1,-0.05,-0.0,-0.03,1.0,r
2951.0,2957.0,3003.0,3431.0,4095.0,4095.0,3131.0,3441.0,-0.53,9.57,3.3,-0.07,0.01,-0.02,1.0,r
2934.0,2938.0,3008.0,3443.0,4095.0,4095.0,3127.0,3374.0,-0.99,9.57,2.9,-0.05,-0.03,-0.04,1.0,r
2939.0,2934.0,3005.0,3438.0,4095.0,4095.0,3130.0,3376.0,-0.99,9.66,2.89,-0.03,-0.01,-0.03,1.0,r
2933.0,2950.0,3023.0,3437.0,4095.0,4095.0,3136.0,3383.0,-1.08,9.61,2.93,-0.05,0.01,-0.02,1.0,r
2933.0,2972.0,3009.0,3455.0,4095.0,4095.0,3136.0,3371.0,-0.94,9.54,2.95,-0.03,0.01,-0.03,1.0,r
2935.0,2953.0,3008.0,3456.0,4095.0,4095.0,3147.0,3382.0,-0.95,9.58,2.97,-0.01,0.03,-0.05,1.0,r
2939.0,2951.0,3009.0,3465.0,4095.0,4095.0,3133.0,3383.0,-1.04,9.63,2.83,-0.04,0.01,-0.03,1.0,r
2943.0,2949.0,3005.0,3473.0,4095.0,4095.0,3131.0,3373.0,-0.96,9.64,2.93,-0.07,-0.01,-0.01,1.0,r
2949.0,2960.0,3008.0,3459.0,4095.0,4095.0,3149.0,3376.0,-0.92,9.62,2.92,-0.03,0.02,-0.04,1.0,r
2930.0,2963.0,3001.0,3447.0,4095.0,4095.0,3147.0,3392.0,-0.92,9.65,2.84,-0.07,0.0,-0.04,1.0,r
2935.0,2941.0,2998.0,3461.0,4095.0,4095.0,3152.0,3376.0,-1.05,9.56,3.01,-0.06,0.02,-0.04,1.0,r
2939.0,2946.0,2993.0,3451.0,4095.0,4095.0,3147.0,3392.0,-0.97,9.69,2.73,-0.05,-0.01,-0.02,1.0,r
2929.0,2943.0,3008.0,3456.0,4095.0,4095.0,3152.0,3377.0,-1.04,9.56,2.95,-0.06,-0.02,-0.05,1.0,r
2934.0,2939.0,3005.0,3441.0,4095.0,4095.0,3147.0,3383.0,-0.92,9.58,2.9,-0.02,0.01,-0.06,1.0,r
2930.0,2950.0,2999.0,3468.0,4095.0,4095.0,3159.0,3372.0,-1.01,9.62,2.94,-0.05,0.03,-0.04,1.0,r
2928.0,2957.0,3003.0,3451.0,4095.0,4095.0,3162.0,3371.0,-0.94,9.65,2.91,-0.05,0.03,-0.04,1.0,r
2933.0,2955.0,3004.0,3457.0,4095.0,4095.0,3146.0,3378.0,-1.07,9.57,2.96,-0.06,-0.05,-0.05,1.0,r
2934.0,2955.0,3003.0,3458.0,4095.0,4095.0,3141.0,3383.0,-1.08,9.59,2.89,-0.06,-0.04,-0.04,1.0,r
2947.0,2958.0,2992.0,3474.0,4095.0,4095.0,3152.0,3383.0,-1.01,9.62,2.88,-0.08,-0.01,-0.03,1.0,r
2933.0,2960.0,2992.0,3472.0,4095.0,4095.0,3147.0,3392.0,-1.02,9.61,2.92,-0.04,0.0,-0.03,1.0,r
2935.0,2953.0,3006.0,3469.0,4095.0,4095.0,3153.0,3401.0,-0.92,9.64,2.83,-0.04,0.0,-0.03,1.0,r
2928.0,2943.0,2998.0,3466.0,4095.0,4095.0,3151.0,3387.0,-0.93,9.62,2.91,-0.05,0.02,-0.03,1.0,r
2946.0,2954.0,2989.0,3470.0,4095.0,4095.0,3145.0,3386.0,-0.98,9.62,2.87,-0.07,0.0,-0.03,1.0,r
2941.0,2947.0,2995.0,3466.0,4095.0,4095.0,3145.0,3402.0,-1.04,9.6,3.01,-0.04,0.02,-0.04,1.0,r
2931.0,2953.0,2995.0,3469.0,4095.0,4095.0,3152.0,3399.0,-1.0,9.65,2.87,-0.06,0.01,-0.03,1.0,r
2940.0,2947.0,3005.0,3475.0,4095.0,4095.0,3147.0,3380.0,-1.03,9.64,2.86,-0.06,0.0,-0.03,1.0,r
2927.0,2947.0,3011.0,3462.0,4095.0,4095.0,3142.0,3377.0,-1.02,9.63,2.96,-0.06,0.01,-0.02,1.0,r
2937.0,2960.0,2993.0,3467.0,4095.0,4095.0,3149.0,3399.0,-0.89,9.64,2.92,-0.07,-0.0,-0.03,1.0,r
2928.0,2950.0,2997.0,3461.0,4095.0,4095.0,3154.0,3384.0,-0.92,9.59,3.0,-0.06,0.02,-0.03,1.0,r
2942.0,2954.0,2997.0,3473.0,4095.0,4095.0,3154.0,3393.0,-0.94,9.56,3.0,-0.05,0.03,-0.04,1.0,r
2938.0,2946.0,3011.0,3472.0,4095.0,4095.0,3151.0,3407.0,-0.94,9.59,3.0,-0.05,0.01,-0.02,1.0,r
2942.0,2951.0,2993.0,3471.0,4095.0,4095.0,3158.0,3399.0,-0.86,9.65,2.89,-0.06,0.0,-0.03,1.0,r
2941.0,2962.0,3004.0,3472.0,4095.0,4095.0,3147.0,3387.0,-0.92,9.56,2.97,-0.09,-0.03,-0.02,1.0,r
2938.0,2954.0,3003.0,3476.0,4095.0,4095.0,3152.0,3381.0,-0.95,9.56,3.06,-0.04,0.01,-0.03,1.0,r
2933.0,2953.0,3001.0,3472.0,4095.0,4095.0,3150.0,3390.0,-0.88,9.64,2.88,-0.04,-0.0,-0.04,1.0,r
2931.0,2948.0,2991.0,3473.0,4095.0,4095.0,3141.0,3387.0,-0.97,9.57,3.07,-0.06,0.03,-0.03,1.0,r
2927.0,2961.0,3008.0,3502.0,4095.0,4095.0,3143.0,3411.0,-0.85,9.6,2.95,-0.08,0.03,-0.03,1.0,r
2935.0,2953.0,2994.0,3477.0,4095.0,4095.0,3138.0,3397.0,-0.92,9.6,2.95,-0.08,-0.0,-0.04,1.0,r
2929.0,2950.0,2999.0,3466.0,4095.0,4095.0,3150.0,3402.0,-0.84,9.62,2.96,-0.03,-0.0,-0.04,1.0,r
2942.0,2961.0,3008.0,3470.0,4095.0,4095.0,3152.0,3395.0,-0.87,9.59,3.02,-0.05,0.01,-0.04,1.0,r
2928.0,2957.0,2995.0,3474.0,4095.0,4095.0,3155.0,3391.0,-0.95,9.59,2.98,-0.06,0.01,-0.03,1.0,r
2947.0,2961.0,3008.0,3397.0,4095.0,4095.0,3155.0,3351.0,-1.3,9.62,2.7,-0.04,0.01,-0.03,1.0,r
2951.0,2937.0,3010.0,3403.0,4095.0,4095.0,3152.0,3377.0,-1.22,9.59,2.74,-0.02,-0.03,-0.03,1.0,r
2933.0,2999.0,2999.0,3391.0,4095.0,4095.0,3152.0,3376.0,-1.32,9.63,2.66,-0.1,-0.03,-0.01,1.0,r
2943.0,2962.0,2990.0,3405.0,4095.0,4095.0,3162.0,3392.0,-1.26,9.6,2.85,-0.08,-0.01,-0.02,1.0,r
2944.0,2951.0,2994.0,3404.0,4095.0,4095.0,3151.0,3379.0,-1.15,9.67,2.73,-0.06,-0.01,-0.04,1.0,r
2927.0,2955.0,2996.0,3402.0,4095.0,4095.0,3154.0,3366.0,-1.34,9.59,2.82,-0.07,-0.02,-0.03,1.0,r
2942.0,2950.0,3009.0,3415.0,4095.0,4095.0,3149.0,3376.0,-1.19,9.62,2.77,-0.05,-0.0,-0.03,1.0,r
2949.0,2960.0,3008.0,3414.0,4095.0,4095.0,3157.0,3376.0,-1.24,9.55,2.88,-0.04,0.01,-0.04,1.0,r
2938.0,3125.0,2999.0,3430.0,4095.0,4095.0,3151.0,3387.0,-1.2,9.58,2.68,-0.05,0.04,-0.04,1.0,r
2942.0,2957.0,3007.0,3441.0,4095.0,4095.0,3157.0,3404.0,-1.19,9.59,2.77,-0.04,0.02,-0.03,1.0,r
2946.0,2959.0,3002.0,3434.0,4095.0,4095.0,3159.0,3412.0,-1.22,9.61,2.88,-0.05,0.02,-0.03,1.0,r
2944.0,2957.0,3003.0,3434.0,4095.0,4095.0,3163.0,3408.0,-1.19,9.61,2.79,-0.05,-0.0,-0.02,1.0,r
2943.0,2949.0,3005.0,3434.0,4095.0,4095.0,3153.0,3398.0,-1.27,9.6,2.67,-0.06,-0.02,-0.02,1.0,r
2937.0,2953.0,2994.0,3446.0,4095.0,4095.0,3167.0,3408.0,-1.15,9.59,2.87,-0.1,0.01,-0.02,1.0,r
2941.0,2944.0,3002.0,3443.0,4095.0,4095.0,3158.0,3402.0,-1.19,9.59,2.86,-0.05,0.02,-0.04,1.0,r
2947.0,2956.0,3008.0,3452.0,4095.0,4095.0,3157.0,3419.0,-1.18,9.66,2.71,-0.08,-0.0,-0.03,1.0,r
2945.0,2960.0,2999.0,3468.0,4095.0,4095.0,3166.0,3406.0,-1.19,9.63,2.86,-0.03,0.01,-0.04,1.0,r
2939.0,2954.0,3005.0,3458.0,4095.0,4095.0,3166.0,3419.0,-1.14,9.67,2.79,-0.05,0.01,-0.02,1.0,r
2944.0,2951.0,3005.0,3457.0,4095.0,4095.0,3158.0,3414.0,-1.22,9.59,2.79,-0.09,0.03,-0.02,1.0,r
2934.0,2970.0,3007.0,3447.0,4095.0,4095.0,3156.0,3408.0,-1.24,9.6,2.9,-0.02,0.03,-0.01,1.0,r
2949.0,2955.0,2998.0,3443.0,4095.0,4095.0,3167.0,3407.0,-1.06,9.66,2.77,-0.05,0.0,-0.02,1.0,r
2928.0,2963.0,3004.0,3439.0,4095.0,4095.0,3161.0,3398.0,-1.17,9.61,2.82,-0.05,0.01,-0.04,1.0,r
2943.0,2959.0,2998.0,3466.0,4095.0,4095.0,3158.0,3408.0,-1.08,9.62,2.77,-0.07,-0.0,-0.04,1.0,r
2928.0,2960.0,3001.0,3442.0,4095.0,4095.0,3162.0,3415.0,-1.1,9.58,2.86,-0.06,-0.02,-0.03,1.0,r
2944.0,2951.0,3007.0,3473.0,4095.0,4095.0,3158.0,3408.0,-1.05,9.65,2.71,-0.08,0.01,-0.03,1.0,r
2935.0,2975.0,3008.0,3453.0,4095.0,4095.0,3155.0,3389.0,-1.17,9.55,2.9,-0.05,-0.02,-0.03,1.0,r
2933.0,2963.0,2996.0,3455.0,4095.0,4095.0,3152.0,3381.0,-1.03,9.68,2.72,-0.01,-0.0,-0.04,1.0,r
2935.0,2951.0,3003.0,3461.0,4095.0,4095.0,3153.0,3373.0,-1.13,9.68,2.68,-0.06,-0.01,-0.06,1.0,r
2953.0,2994.0,3008.0,3455.0,4095.0,4095.0,3152.0,3383.0,-1.23,9.57,2.77,-0.07,-0.04,-0.06,1.0,r
2931.0,2960.0,3005.0,3456.0,4095.0,4095.0,3155.0,3397.0,-1.2,9.51,2.9,-0.09,-0.05,-0.05,1.0,r
2942.0,2958.0,3003.0,3443.0,4095.0,4095.0,3152.0,3393.0,-1.18,9.66,2.59,-0.05,0.02,-0.04,1.0,r
2943.0,2977.0,3011.0,3443.0,4095.0,4095.0,3149.0,3397.0,-1.13,9.59,2.82,-0.07,0.04,-0.0,1.0,r
2928.0,3009.0,3004.0,3444.0,4095.0,4095.0,3157.0,3387.0,-1.08,9.61,2.81,-0.1,0.02,-0.0,1.0,r
2938.0,2887.0,3007.0,3441.0,4095.0,4095.0,3150.0,3406.0,-1.0,9.65,2.75,-0.05,0.01,-0.04,1.0,r
2935.0,2941.0,3024.0,3440.0,4095.0,4095.0,3152.0,3406.0,-1.14,9.63,2.85,-0.06,0.02,-0.05,1.0,r
2942.0,2947.0,3014.0,3438.0,4095.0,4095.0,3155.0,3401.0,-1.23,9.65,2.78,-0.06,-0.02,-0.03,1.0,r
2935.0,2937.0,2999.0,3461.0,4095.0,4095.0,3161.0,3393.0,-1.09,9.63,2.73,-0.08,-0.01,-0.03,1.0,r
2937.0,2960.0,3001.0,3450.0,4095.0,4095.0,3152.0,3392.0,-1.13,9.59,2.87,-0.09,0.0,-0.02,1.0,r
2945.0,2945.0,2999.0,3459.0,4095.0,4095.0,3149.0,3404.0,-1.04,9.63,2.82,-0.04,-0.01,-0.02,1.0,r
2943.0,2960.0,3017.0,3460.0,4095.0,4095.0,3159.0,3397.0,-0.99,9.64,2.84,-0.04,-0.0,-0.04,1.0,r
2941.0,2949.0,3008.0,3282.0,4095.0,4095.0,3103.0,3323.0,-0.97,9.75,2.5,-0.06,-0.01,-0.03,1.0,r
2934.0,2960.0,2991.0,3280.0,4095.0,4095.0,3093.0,3321.0,-0.93,9.68,2.68,-0.03,0.02,-0.03,1.0,r
2937.0,2961.0,3005.0,3286.0,4095.0,4095.0,3103.0,3339.0,-0.79,9.72,2.66,-0.07,-0.05,-0.03,1.0,r
2946.0,2955.0,2998.0,3291.0,4095.0,4095.0,3088.0,3335.0,-0.84,9.71,2.5,-0.03,0.03,-0.04,1.0,r
2931.0,2957.0,2995.0,3303.0,4095.0,4095.0,3097.0,3328.0,-0.9,9.64,2.75,-0.11,-0.06,-0.03,1.0,r
2939.0,2943.0,3003.0,3283.0,4095.0,4095.0,3111.0,3328.0,-0.82,9.67,2.76,-0.02,-0.02,-0.04,1.0,r
2951.0,2961.0,2992.0,3263.0,4095.0,4095.0,3097.0,3335.0,-0.86,9.66,2.6,-0.05,0.0,-0.02,1.0,r
2943.0,2948.0,2995.0,3279.0,4095.0,4095.0,3104.0,3338.0,-0.76,9.67,2.69,-0.02,0.02,-0.02,1.0,r
2943.0,2962.0,2994.0,3312.0,4095.0,4095.0,3105.0,3344.0,-0.65,9.79,2.54,-0.03,-0.04,-0.05,1.0,r
2934.0,2954.0,2991.0,3323.0,4095.0,4095.0,3114.0,3345.0,-0.73,9.68,2.71,-0.08,-0.02,-0.08,1.0,r
2951.0,2960.0,3002.0,3318.0,4095.0,4095.0,3117.0,3334.0,-0.95,9.66,2.68,-0.01,-0.03,-0.09,1.0,r
2944.0,2946.0,2995.0,3331.0,4095.0,4095.0,3117.0,3348.0,-0.95,9.73,2.53,-0.01,0.01,-0.09,1.0,r
2941.0,2954.0,3009.0,3344.0,4095.0,4095.0,3119.0,3344.0,-1.05,9.73,2.47,-0.08,0.0,-0.05,1.0,r
2938.0,2961.0,3009.0,3328.0,4095.0,4095.0,3121.0,3358.0,-0.94,9.71,2.54,-0.07,-0.04,-0.04,1.0,r
2933.0,2946.0,3006.0,3337.0,4095.0,4095.0,3127.0,3354.0,-0.93,9.71,2.76,-0.01,0.07,-0.04,1.0,r
2937.0,2959.0,3002.0,3330.0,4095.0,4095.0,3122.0,3363.0,-0.97,9.83,2.64,-0.16,0.63,0.07,1.0,r
2933.0,2960.0,2995.0,3330.0,4095.0,4095.0,3120.0,3334.0,-1.23,9.71,2.34,-0.03,0.15,-0.01,1.0,r
2934.0,2957.0,2993.0,3337.0,4095.0,4095.0,3120.0,3359.0,-1.09,9.74,2.43,-0.12,0.25,-0.0,1.0,r
2938.0,2960.0,2992.0,3322.0,4095.0,4095.0,3118.0,3351.0,-1.11,9.7,2.53,-0.06,0.03,-0.05,1.0,r
2939.0,2961.0,2998.0,3327.0,4095.0,4095.0,3123.0,3357.0,-1.17,9.72,2.38,-0.07,0.06,-0.03,1.0,r
2939.0,2959.0,2997.0,3316.0,4095.0,4095.0,3117.0,3354.0,-1.13,9.7,2.43,-0.04,-0.04,-0.05,1.0,r
2935.0,2944.0,3001.0,3330.0,4095.0,4095.0,3122.0,3376.0,-1.21,9.69,2.49,-0.06,-0.01,-0.05,1.0,r
2943.0,2954.0,3006.0,3327.0,4095.0,4095.0,3115.0,3359.0,-1.1,9.71,2.48,-0.05,0.01,-0.03,1.0,r
2928.0,2983.0,2999.0,3328.0,4095.0,4095.0,3135.0,3371.0,-1.17,9.75,2.42,-0.06,0.03,-0.06,1.0,r
2931.0,2945.0,3003.0,3339.0,4095.0,4095.0,3119.0,3376.0,-1.29,9.74,2.36,-0.03,0.06,-0.02,1.0,r
2943.0,2945.0,2995.0,3331.0,4095.0,4095.0,3130.0,3376.0,-1.12,9.72,2.37,-0.05,0.04,-0.04,1.0,r
2955.0,2951.0,3011.0,3329.0,4095.0,4095.0,3129.0,3354.0,-1.23,9.73,2.37,-0.08,0.06,-0.02,1.0,r
2938.0,2951.0,2997.0,3332.0,4095.0,4095.0,3135.0,3362.0,-1.15,9.69,2.47,-0.05,0.04,-0.0,1.0,r
2944.0,2962.0,3013.0,3329.0,4095.0,4095.0,3126.0,3375.0,-1.06,9.68,2.52,-0.06,0.04,-0.01,1.0,r
2938.0,2953.0,3006.0,3338.0,4095.0,4095.0,3133.0,3376.0,-1.12,9.75,2.41,-0.05,0.04,-0.02,1.0,r
2944.0,2960.0,3011.0,3333.0,4095.0,4095.0,3120.0,3376.0,-1.16,9.73,2.37,-0.07,0.01,-0.03,1.0,r
2934.0,2964.0,2995.0,3331.0,4095.0,4095.0,3120.0,3367.0,-1.15,9.7,2.49,-0.05,0.01,-0.02,1.0,r
2945.0,2954.0,2997.0,3339.0,4095.0,4095.0,3147.0,3361.0,-1.07,9.69,2.52,-0.05,-0.0,-0.04,1.0,r
2949.0,2970.0,2994.0,3329.0,4095.0,4095.0,3125.0,3371.0,-1.08,9.75,2.43,-0.03,-0.01,-0.05,1.0,r
2940.0,2941.0,2995.0,3324.0,4095.0,4095.0,3129.0,3371.0,-1.09,9.73,2.38,-0.05,-0.02,-0.04,1.0,r
2939.0,2964.0,3001.0,3337.0,4095.0,4095.0,3136.0,3363.0,-1.24,9.69,2.44,-0.05,-0.0,-0.04,1.0,r
2939.0,2951.0,2999.0,3339.0,4095.0,4095.0,3126.0,3376.0,-1.08,9.71,2.39,-0.05,-0.01,-0.02,1.0,r
2949.0,2950.0,3001.0,3318.0,4095.0,4095.0,3125.0,3371.0,-1.08,9.75,2.37,-0.07,-0.01,-0.05,1.0,r
2947.0,2963.0,3007.0,3328.0,4095.0,4095.0,3136.0,3367.0,-1.14,9.71,2.49,-0.05,0.0,-0.04,1.0,r
2939.0,2953.0,3005.0,3335.0,4095.0,4095.0,3127.0,3376.0,-1.23,9.68,2.46,-0.06,0.0,-0.04,1.0,r
2954.0,2976.0,2989.0,3335.0,4095.0,4095.0,3030.0,3418.0,-1.36,9.7,2.34,-0.04,0.01,-0.02,1.0,r
2944.0,2961.0,3005.0,3395.0,4095.0,4095.0,3040.0,3421.0,-1.04,9.81,1.92,0.07,-0.0,0.0,1.0,r
2941.0,2963.0,2981.0,3397.0,4095.0,4095.0,3036.0,3409.0,-1.24,9.75,1.85,-0.1,-0.0,-0.03,1.0,r
2928.0,2960.0,2995.0,3408.0,4095.0,4095.0,3027.0,3409.0,-1.43,9.62,2.27,-0.1,0.0,-0.05,1.0,r
2944.0,2961.0,3003.0,3399.0,4095.0,4095.0,3049.0,3415.0,-1.1,9.84,1.95,-0.02,0.02,0.03,1.0,r
2954.0,2867.0,2980.0,3417.0,4095.0,4095.0,3042.0,3438.0,-1.24,9.85,1.79,-0.09,-0.0,-0.02,1.0,r
2946.0,2960.0,2997.0,3424.0,4095.0,4095.0,3052.0,3433.0,-0.93,9.86,2.21,-0.08,0.04,-0.04,1.0,r
2942.0,2961.0,2992.0,3425.0,4095.0,4095.0,3054.0,3449.0,-1.21,9.65,2.28,-0.03,0.03,0.06,1.0,r
2944.0,2956.0,2992.0,3427.0,4095.0,4095.0,3056.0,3449.0,-0.92,9.82,2.09,0.01,0.1,0.07,1.0,r
2935.0,2960.0,2994.0,3418.0,4095.0,4095.0,3056.0,3440.0,-0.62,9.9,2.06,-0.02,0.1,-0.0,1.0,r
2939.0,2954.0,3002.0,3413.0,4095.0,4095.0,3054.0,3431.0,-0.64,9.88,2.13,0.03,0.06,-0.07,1.0,r
2943.0,2943.0,2992.0,3413.0,4095.0,4095.0,3049.0,3449.0,-0.92,9.92,1.75,-0.01,0.0,-0.03,1.0,r
2944.0,2993.0,2979.0,3424.0,4095.0,4095.0,3053.0,3440.0,-1.02,9.84,1.89,-0.14,0.01,-0.04,1.0,r
2940.0,2957.0,3003.0,3409.0,4095.0,4095.0,3053.0,3435.0,-0.9,9.73,2.41,-0.1,0.09,-0.0,1.0,r
2939.0,2964.0,3008.0,3440.0,4095.0,4095.0,3047.0,3457.0,-0.62,9.81,2.27,-0.05,0.01,-0.03,1.0,r
2950.0,2934.0,2989.0,3469.0,4095.0,4095.0,3042.0,3440.0,-0.89,9.79,2.14,-0.05,-0.04,-0.08,1.0,r
2934.0,2954.0,2995.0,3465.0,4095.0,4095.0,3035.0,3431.0,-1.15,9.75,1.99,-0.04,-0.05,-0.06,1.0,r
2943.0,2965.0,2989.0,3472.0,4095.0,4095.0,3041.0,3434.0,-0.79,9.81,2.1,-0.1,-0.04,-0.0,1.0,r
2945.0,2854.0,3001.0,3466.0,4095.0,4095.0,3063.0,3440.0,-0.83,9.77,2.29,-0.08,-0.02,-0.04,1.0,r
2943.0,2963.0,2992.0,3472.0,4095.0,4095.0,3045.0,3440.0,-0.81,9.78,2.3,-0.07,-0.01,-0.09,1.0,r
2946.0,2960.0,2991.0,3491.0,4095.0,4095.0,3035.0,3440.0,-1.02,9.75,2.26,-0.1,0.07,-0.05,1.0,r
2947.0,2947.0,3006.0,3483.0,4095.0,4095.0,3047.0,3444.0,-1.07,9.77,2.08,-0.04,0.02,-0.07,1.0,r
2935.0,2961.0,3001.0,3504.0,4095.0,4095.0,3036.0,3435.0,-0.87,9.75,2.22,-0.06,0.07,-0.01,1.0,r
2942.0,2965.0,2989.0,3487.0,4095.0,4095.0,3037.0,3436.0,-0.88,9.75,2.21,-0.07,-0.01,-0.06,1.0,r
2956.0,2973.0,2995.0,3472.0,4095.0,4095.0,3040.0,3455.0,-1.01,9.76,2.19,-0.05,-0.0,-0.08,1.0,r
2948.0,2960.0,2992.0,3475.0,4095.0,4095.0,3051.0,3434.0,-1.1,9.76,2.12,-0.08,0.01,-0.06,1.0,r
2943.0,2962.0,2991.0,3487.0,4095.0,4095.0,3041.0,3445.0,-1.07,9.77,2.18,-0.05,0.03,-0.04,1.0,r
2953.0,2960.0,2995.0,3509.0,4095.0,4095.0,3059.0,3467.0,-1.14,9.76,2.15,-0.06,0.05,-0.03,1.0,r
2942.0,2969.0,2998.0,3485.0,4095.0,4095.0,3051.0,3466.0,-1.16,9.82,2.16,-0.05,0.0,-0.03,1.0,r
2944.0,2959.0,2987.0,3504.0,4095.0,4095.0,3061.0,3459.0,-1.09,9.79,2.12,-0.02,0.01,-0.04,1.0,r
2947.0,2974.0,2991.0,3522.0,4095.0,4095.0,3060.0,3466.0,-1.0,9.81,2.05,-0.03,0.01,-0.04,1.0,r
2953.0,2960.0,2992.0,3519.0,4095.0,4095.0,3069.0,3462.0,-1.11,9.75,2.14,-0.04,0.01,-0.04,1.0,r
2939.0,2960.0,2990.0,3540.0,4095.0,4095.0,3066.0,3459.0,-1.1,9.79,1.94,-0.06,0.04,-0.03,1.0,r
2947.0,2955.0,2999.0,3551.0,4095.0,4095.0,3059.0,3467.0,-1.11,9.75,2.17,-0.06,0.01,-0.01,1.0,r
2951.0,3010.0,3006.0,3575.0,4095.0,4095.0,3061.0,3474.0,-0.96,9.81,2.05,-0.05,-0.01,-0.03,1.0,r
2951.0,2961.0,2986.0,3607.0,4095.0,4095.0,3067.0,3487.0,-1.02,9.77,2.16,-0.06,-0.01,-0.04,1.0,r
2947.0,2880.0,2995.0,3583.0,4095.0,4095.0,3058.0,3485.0,-1.1,9.82,2.03,-0.05,0.02,-0.03,1.0,r
2943.0,2997.0,2992.0,3569.0,4095.0,4095.0,3060.0,3472.0,-0.98,9.84,2.05,-0.04,0.02,-0.04,1.0,r
2950.0,2961.0,3001.0,3600.0,4095.0,4095.0,3063.0,3477.0,-1.05,9.77,2.23,-0.09,-0.02,-0.02,1.0,r
2934.0,2960.0,3003.0,3603.0,4095.0,4095.0,3071.0,3472.0,-0.98,9.83,2.06,-0.04,-0.0,-0.02,1.0,r
2935.0,3005.0,3015.0,3354.0,4095.0,4095.0,3242.0,3403.0,-1.38,9.63,2.39,-0.07,0.05,0.0,1.0,r
2927.0,2957.0,3009.0,3358.0,4095.0,4095.0,3244.0,3408.0,-1.44,9.58,2.54,-0.06,-0.0,-0.03,1.0,r
2929.0,2943.0,3011.0,3361.0,4095.0,4095.0,3241.0,3430.0,-1.64,9.66,2.29,-0.06,0.01,-0.03,1.0,r
2937.0,2949.0,3015.0,3361.0,4095.0,4095.0,3233.0,3419.0,-1.53,9.73,2.28,-0.06,-0.0,-0.01,1.0,r
2943.0,2951.0,3022.0,3359.0,4095.0,4095.0,3231.0,3422.0,-1.6,9.65,2.44,-0.05,0.03,-0.05,1.0,r
2930.0,2967.0,3008.0,3361.0,4095.0,4095.0,3239.0,3429.0,-1.52,9.65,2.35,-0.05,0.01,-0.01,1.0,r
2943.0,2959.0,3014.0,3358.0,4095.0,4095.0,3233.0,3417.0,-1.4,9.67,2.4,-0.05,-0.01,-0.03,1.0,r
2930.0,2960.0,3009.0,3359.0,4095.0,4095.0,3237.0,3415.0,-1.51,9.72,2.35,-0.07,-0.01,-0.04,1.0,r
2933.0,2953.0,3033.0,3361.0,4095.0,4095.0,3233.0,3425.0,-1.56,9.67,2.48,-0.05,-0.02,-0.03,1.0,r
2930.0,2950.0,3020.0,3363.0,4095.0,4095.0,3239.0,3425.0,-1.52,9.72,2.31,-0.07,0.02,-0.03,1.0,r
2937.0,2959.0,3017.0,3361.0,4095.0,4095.0,3230.0,3394.0,-1.51,9.62,2.48,-0.07,0.01,-0.04,1.0,r
2947.0,2953.0,3020.0,3354.0,4095.0,4095.0,3236.0,3408.0,-1.52,9.63,2.51,-0.05,-0.0,-0.03,1.0,r
2923.0,2954.0,3008.0,3363.0,4095.0,4095.0,3235.0,3429.0,-1.44,9.68,2.45,-0.07,-0.03,-0.03,1.0,r
2946.0,2951.0,3010.0,3362.0,4095.0,4095.0,3247.0,3413.0,-1.6,9.69,2.29,-0.08,-0.04,-0.02,1.0,r
2938.0,2959.0,3020.0,3375.0,4095.0,4095.0,3241.0,3427.0,-1.39,9.72,2.41,-0.09,-0.05,-0.01,1.0,r
2945.0,2954.0,3010.0,3362.0,4095.0,4095.0,3243.0,3411.0,-1.39,9.62,2.57,-0.06,-0.02,-0.03,1.0,r
2939.0,2959.0,3012.0,3367.0,4095.0,4095.0,3241.0,3409.0,-1.41,9.66,2.55,-0.05,-0.02,-0.03,1.0,r
2929.0,2989.0,3011.0,3351.0,4095.0,4095.0,3238.0,3439.0,-1.49,9.63,2.52,-0.05,-0.03,-0.03,1.0,r
2933.0,2954.0,3006.0,3362.0,4095.0,4095.0,3238.0,3429.0,-1.42,9.65,2.42,-0.06,-0.01,-0.02,1.0,r
2923.0,2960.0,3013.0,3347.0,4095.0,4095.0,3248.0,3440.0,-1.3,9.66,2.61,-0.02,-0.03,-0.03,1.0,r
2929.0,2943.0,3023.0,3360.0,4095.0,4095.0,3237.0,3430.0,-1.54,9.63,2.42,-0.07,-0.02,-0.03,1.0,r
2930.0,2899.0,3022.0,3370.0,4095.0,4095.0,3243.0,3438.0,-1.47,9.66,2.49,-0.04,-0.0,-0.04,1.0,r
2937.0,2953.0,3013.0,3376.0,4095.0,4095.0,3244.0,3421.0,-1.43,9.68,2.4,-0.04,-0.02,-0.03,1.0,r
2938.0,2958.0,3002.0,3362.0,4095.0,4095.0,3243.0,3429.0,-1.48,9.64,2.43,-0.06,-0.01,-0.02,1.0,r
2937.0,2944.0,3014.0,3362.0,4095.0,4095.0,3248.0,3420.0,-1.33,9.68,2.43,-0.06,0.0,-0.02,1.0,r
2935.0,2951.0,3002.0,3382.0,4095.0,4095.0,3239.0,3423.0,-1.35,9.63,2.54,-0.06,-0.02,-0.03,1.0,r
2932.0,2973.0,3015.0,3379.0,4095.0,4095.0,3242.0,3417.0,-1.35,9.73,2.37,-0.08,0.01,-0.03,1.0,r
2934.0,2960.0,3002.0,3380.0,4095.0,4095.0,3246.0,3409.0,-1.31,9.63,2.68,-0.05,-0.02,-0.02,1.0,r
2933.0,2960.0,3006.0,3380.0,4095.0,4095.0,3248.0,3431.0,-1.33,9.73,2.23,-0.05,0.01,-0.03,1.0,r
2939.0,2938.0,3006.0,3394.0,4095.0,4095.0,3246.0,3426.0,-1.29,9.7,2.54,-0.09,-0.02,-0.04,1.0,r
2930.0,2955.0,3011.0,3387.0,4095.0,4095.0,3250.0,3435.0,-1.41,9.63,2.52,-0.09,-0.02,-0.03,1.0,r
2928.0,2955.0,3005.0,3386.0,4095.0,4095.0,3249.0,3439.0,-1.37,9.63,2.48,-0.09,-0.03,-0.04,1.0,r
2937.0,2948.0,3011.0,3379.0,4095.0,4095.0,3239.0,3434.0,-1.38,9.63,2.62,-0.08,0.01,-0.01,1.0,r
2939.0,2954.0,2999.0,3387.0,4095.0,4095.0,3229.0,3431.0,-1.36,9.64,2.54,-0.07,0.04,-0.01,1.0,r
2939.0,2955.0,3010.0,3382.0,4095.0,4095.0,3251.0,3430.0,-1.25,9.62,2.69,-0.1,0.03,-0.01,1.0,r
2928.0,2949.0,3008.0,3392.0,4095.0,4095.0,3248.0,3423.0,-1.14,9.71,2.54,-0.06,0.02,-0.04,1.0,r
2933.0,2951.0,3003.0,3385.0,4095.0,4095.0,3248.0,3447.0,-1.46,9.63,2.57,-0.08,-0.01,-0.04,1.0,r
2941.0,2956.0,3014.0,3390.0,4095.0,4095.0,3253.0,3437.0,-1.23,9.68,2.6,-0.02,0.02,-0.02,1.0,r
2941.0,2950.0,3008.0,3387.0,4095.0,4095.0,3244.0,3437.0,-1.26,9.67,2.43,-0.04,0.02,-0.02,1.0,r
2937.0,2950.0,2997.0,3388.0,4095.0,4095.0,3255.0,3437.0,-1.28,9.65,2.59,-0.04,0.04,-0.04,1.0,r
2960.0,2950.0,2992.0,3377.0,4095.0,4095.0,3168.0,3459.0,-1.17,9.58,2.76,-0.02,-0.05,-0.04,1.0,r
2944.0,2951.0,2999.0,3366.0,4095.0,4095.0,3158.0,3450.0,-1.09,9.61,2.66,-0.04,0.0,-0.02,1.0,r
2943.0,2945.0,3014.0,3373.0,4095.0,4095.0,3167.0,3466.0,-1.04,9.66,2.63,-0.04,-0.04,-0.02,1.0,r
2951.0,2958.0,2994.0,3387.0,4095.0,4095.0,3167.0,3471.0,-1.12,9.72,2.54,-0.06,-0.06,-0.03,1.0,r
2943.0,2963.0,2995.0,3376.0,4095.0,4095.0,3159.0,3447.0,-1.13,9.73,2.6,-0.04,-0.01,-0.04,1.0,r
2945.0,2965.0,3003.0,3374.0,4095.0,4095.0,3167.0,3442.0,-1.06,9.72,2.7,-0.04,0.0,-0.04,1.0,r
2941.0,2957.0,3003.0,3375.0,4095.0,4095.0,3154.0,3456.0,-1.01,9.62,2.74,-0.05,-0.01,-0.02,1.0,r
2942.0,2850.0,2999.0,3365.0,4095.0,4095.0,3155.0,3451.0,-1.08,9.65,2.64,-0.03,0.05,-0.03,1.0,r
2933.0,2949.0,2995.0,3334.0,4095.0,4095.0,3161.0,3453.0,-1.0,9.66,2.73,-0.05,-0.03,-0.06,1.0,r
2930.0,2906.0,3004.0,3344.0,4095.0,4095.0,3168.0,3459.0,-1.11,9.65,2.73,-0.04,-0.01,-0.03,1.0,r
2942.0,2949.0,3007.0,3349.0,4095.0,4095.0,3171.0,3463.0,-1.02,9.71,2.58,-0.06,-0.02,-0.04,1.0,r
2943.0,2951.0,2993.0,3374.0,4095.0,4095.0,3184.0,3458.0,-1.05,9.63,2.69,-0.07,-0.01,-0.03,1.0,r
2938.0,2985.0,2994.0,3376.0,4095.0,4095.0,3183.0,3453.0,-1.03,9.67,2.71,-0.08,-0.01,-0.03,1.0,r
2928.0,3005.0,3002.0,3365.0,4095.0,4095.0,3165.0,3465.0,-1.06,9.68,2.75,-0.07,-0.03,-0.02,1.0,r
2940.0,2941.0,2999.0,3383.0,4095.0,4095.0,3169.0,3446.0,-1.04,9.63,2.62,-0.06,0.01,-0.03,1.0,r
2943.0,2951.0,2994.0,3378.0,4095.0,4095.0,3168.0,3447.0,-1.07,9.68,2.73,-0.06,0.01,-0.03,1.0,r
2943.0,2960.0,2991.0,3395.0,4095.0,4095.0,3170.0,3446.0,-1.01,9.6,2.87,-0.04,-0.0,-0.04,1.0,r
2953.0,2944.0,3007.0,3397.0,4095.0,4095.0,3179.0,3446.0,-0.97,9.7,2.6,-0.03,-0.0,-0.03,1.0,r
2946.0,2957.0,3001.0,3397.0,4095.0,4095.0,3168.0,3467.0,-1.08,9.6,2.7,-0.08,0.01,-0.04,1.0,r
2930.0,2959.0,3011.0,3413.0,4095.0,4095.0,3199.0,3456.0,-0.97,9.65,2.72,-0.07,0.01,-0.02,1.0,r
2934.0,2961.0,3007.0,3422.0,4095.0,4095.0,3178.0,3443.0,-0.92,9.62,2.81,-0.07,-0.01,-0.03,1.0,r
2931.0,2960.0,2999.0,3427.0,4095.0,4095.0,3174.0,3463.0,-1.02,9.64,2.67,-0.05,0.01,-0.04,1.0,r
2944.0,2943.0,2992.0,3422.0,4095.0,4095.0,3169.0,3466.0,-1.02,9.61,2.81,-0.08,-0.03,-0.03,1.0,r
2959.0,2859.0,2999.0,3421.0,4095.0,4095.0,3171.0,3458.0,-1.01,9.64,2.71,-0.07,0.01,-0.02,1.0,r
2933.0,2963.0,3012.0,3425.0,4095.0,4095.0,3169.0,3466.0,-0.95,9.67,2.71,-0.08,-0.01,-0.04,1.0,r
2932.0,2960.0,3006.0,3438.0,4095.0,4095.0,3169.0,3445.0,-1.05,9.65,2.82,-0.09,-0.01,-0.03,1.0,r
2932.0,2891.0,2998.0,3447.0,4095.0,4095.0,3184.0,3457.0,-0.98,9.75,2.65,-0.05,0.01,-0.04,1.0,r
2931.0,2960.0,3003.0,3443.0,4095.0,4095.0,3178.0,3465.0,-1.07,9.63,2.84,-0.09,-0.0,-0.04,1.0,r
2938.0,2960.0,2993.0,3440.0,4095.0,4095.0,3168.0,3458.0,-1.11,9.6,2.78,-0.05,0.01,-0.03,1.0,r
2928.0,2960.0,3011.0,3440.0,4095.0,4095.0,3170.0,3461.0,-0.96,9.71,2.64,-0.08,-0.01,-0.03,1.0,r
2935.0,2946.0,2999.0,3452.0,4095.0,4095.0,3184.0,3467.0,-1.08,9.59,2.85,-0.05,0.01,-0.06,1.0,r
2941.0,2947.0,2999.0,3433.0,4095.0,4095.0,3173.0,3470.0,-1.02,9.59,2.8,-0.07,0.01,-0.02,1.0,r
2937.0,2962.0,2999.0,3453.0,4095.0,4095.0,3172.0,3467.0,-1.02,9.62,2.77,-0.12,0.01,-0.02,1.0,r
2935.0,2948.0,3003.0,3453.0,4095.0,4095.0,3174.0,3446.0,-1.06,9.61,2.95,-0.04,0.01,-0.04,1.0,r
2933.0,2963.0,2995.0,3440.0,4095.0,4095.0,3182.0,3451.0,-0.93,9.64,2.82,-0.05,-0.01,-0.02,1.0,r
2946.0,2950.0,2999.0,3455.0,4095.0,4095.0,3179.0,3447.0,-0.98,9.64,2.77,-0.07,-0.01,-0.03,1.0,r
2954.0,2861.0,2992.0,3451.0,4095.0,4095.0,3180.0,3469.0,-1.04,9.62,2.86,-0.09,-0.0,-0.03,1.0,r
2931.0,2963.0,2992.0,3472.0,4095.0,4095.0,3175.0,3458.0,-0.97,9.59,2.91,-0.06,0.0,-0.02,1.0,r
2951.0,2961.0,3002.0,3453.0,4095.0,4095.0,3168.0,3457.0,-0.83,9.67,2.75,-0.07,-0.02,-0.04,1.0,r
2942.0,2963.0,2992.0,3475.0,4095.0,4095.0,3172.0,3477.0,-1.03,9.55,2.87,-0.08,-0.02,-0.05,1.0,r
2945.0,2975.0,2992.0,3578.0,4095.0,4095.0,3153.0,3465.0,-0.74,9.71,2.71,-0.05,0.01,-0.03,1.0,r
2958.0,2960.0,3007.0,3598.0,4095.0,4095.0,3142.0,3459.0,-0.74,9.66,2.76,0.0,0.06,-0.04,1.0,r
2949.0,2957.0,2999.0,3583.0,4095.0,4095.0,3153.0,3474.0,-0.73,9.71,2.57,-0.04,-0.02,-0.03,1.0,r
2946.0,2961.0,3003.0,3611.0,4095.0,4095.0,3152.0,3470.0,-0.76,9.7,2.64,-0.07,0.01,-0.03,1.0,r
2950.0,2959.0,2993.0,3610.0,4095.0,4095.0,3156.0,3470.0,-0.67,9.69,2.71,-0.07,-0.01,-0.04,1.0,r
2955.0,2949.0,2989.0,3602.0,4095.0,4095.0,3152.0,3472.0,-0.72,9.72,2.57,-0.09,-0.03,-0.03,1.0,r
2943.0,2943.0,2995.0,3610.0,4095.0,4095.0,3157.0,3482.0,-0.8,9.63,2.79,-0.08,-0.01,-0.04,1.0,r
2942.0,2955.0,3005.0,3607.0,4095.0,4095.0,3152.0,3495.0,-0.74,9.68,2.67,-0.06,-0.01,-0.03,1.0,r
2944.0,2934.0,2998.0,3626.0,4095.0,4095.0,3152.0,3479.0,-0.71,9.78,2.65,-0.09,-0.03,-0.03,1.0,r
2947.0,2957.0,2993.0,3607.0,4095.0,4095.0,3156.0,3489.0,-0.83,9.69,2.75,-0.08,-0.02,-0.05,1.0,r
2957.0,2958.0,2991.0,3608.0,4095.0,4095.0,3165.0,3485.0,-0.81,9.75,2.72,-0.05,-0.0,-0.04,1.0,r
2948.0,2961.0,3007.0,3630.0,4095.0,4095.0,3157.0,3483.0,-0.71,9.72,2.77,-0.01,0.01,-0.04,1.0,r
2939.0,2959.0,3007.0,3619.0,4095.0,4095.0,3153.0,3487.0,-0.64,9.73,2.68,-0.05,-0.02,-0.04,1.0,r
2956.0,2928.0,3008.0,3623.0,4095.0,4095.0,3152.0,3476.0,-0.76,9.64,2.87,-0.05,-0.0,-0.04,1.0,r
2939.0,2952.0,2994.0,3621.0,4095.0,4095.0,3155.0,3503.0,-0.66,9.63,2.73,-0.04,-0.03,-0.02,1.0,r
2939.0,2949.0,2996.0,3643.0,4095.0,4095.0,3152.0,3478.0,-0.7,9.65,2.66,-0.1,-0.01,-0.03,1.0,r
2947.0,2967.0,3004.0,3643.0,4095.0,4095.0,3152.0,3490.0,-0.69,9.68,2.78,-0.06,0.01,-0.04,1.0,r
2945.0,2951.0,2995.0,3632.0,4095.0,4095.0,3150.0,3495.0,-0.73,9.63,2.77,-0.09,-0.04,-0.03,1.0,r
2954.0,2945.0,2995.0,3633.0,4095.0,4095.0,3153.0,3485.0,-0.79,9.6,2.77,-0.07,-0.04,-0.01,1.0,r
2943.0,2949.0,2991.0,3648.0,4095.0,4095.0,3154.0,3472.0,-0.72,9.65,2.67,-0.1,-0.02,-0.03,1.0,r
2958.0,2949.0,2995.0,3643.0,4095.0,4095.0,3154.0,3474.0,-0.74,9.72,2.86,-0.07,-0.02,-0.03,1.0,r
2942.0,2931.0,2999.0,3644.0,4095.0,4095.0,3155.0,3489.0,-0.67,9.68,2.77,-0.09,-0.03,-0.03,1.0,r
2949.0,2930.0,3002.0,3638.0,4095.0,4095.0,3155.0,3498.0,-0.77,9.65,2.84,-0.06,0.02,-0.03,1.0,r
2945.0,2960.0,3001.0,3637.0,4095.0,4095.0,3151.0,3501.0,-0.66,9.66,2.78,-0.06,-0.0,-0.03,1.0,r
2949.0,2953.0,2989.0,3631.0,4095.0,4095.0,3155.0,3491.0,-0.72,9.71,2.76,-0.07,-0.02,-0.02,1.0,r
2946.0,2958.0,2992.0,3647.0,4095.0,4095.0,3159.0,3477.0,-0.68,9.7,2.73,-0.04,-0.0,-0.04,1.0,r
2947.0,2944.0,2988.0,3647.0,4095.0,4095.0,3165.0,3499.0,-0.74,9.69,2.84,0.01,0.08,-0.06,1.0,r
2951.0,2957.0,3008.0,3650.0,4095.0,4095.0,3157.0,3482.0,-0.71,9.72,2.76,-0.01,0.03,-0.04,1.0,r
2940.0,2907.0,2992.0,3632.0,4095.0,4095.0,3167.0,3485.0,-0.65,9.75,2.66,-0.06,0.02,-0.03,1.0,r
2946.0,3007.0,2998.0,3637.0,4095.0,4095.0,3159.0,3489.0,-0.74,9.67,2.88,-0.05,0.03,-0.03,1.0,r
2945.0,2955.0,3003.0,3646.0,4095.0,4095.0,3169.0,3482.0,-0.54,9.67,2.77,0.03,0.07,-0.04,1.0,r
2945.0,2960.0,2998.0,3650.0,4095.0,4095.0,3153.0,3485.0,-0.62,9.72,2.66,-0.08,0.0,-0.04,1.0,r
2941.0,2953.0,2992.0,3628.0,4095.0,4095.0,3158.0,3498.0,-0.74,9.72,2.73,-0.07,0.01,-0.03,1.0,r
2944.0,2960.0,2995.0,3653.0,4095.0,4095.0,3152.0,3494.0,-0.62,9.7,2.67,-0.04,0.02,-0.04,1.0,r
2949.0,2958.0,3003.0,3654.0,4095.0,4095.0,3163.0,3487.0,-0.8,9.7,2.7,-0.08,-0.02,-0.04,1.0,r
2947.0,3012.0,2993.0,3659.0,4095.0,4095.0,3169.0,3504.0,-0.77,9.71,2.67,-0.07,-0.02,-0.02,1.0,r
2957.0,2955.0,2997.0,3660.0,4095.0,4095.0,3162.0,3518.0,-0.7,9.73,2.64,-0.1,-0.02,-0.02,1.0,r
2947.0,2960.0,3007.0,3678.0,4095.0,4095.0,3162.0,3503.0,-0.7,9.68,2.75,-0.08,-0.01,-0.04,1.0,r
2947.0,2960.0,3004.0,3685.0,4095.0,4095.0,3167.0,3518.0,-0.67,9.71,2.78,-0.08,-0.02,-0.03,1.0,r
2954.0,2962.0,3013.0,3709.0,4095.0,4095.0,3154.0,3503.0,-0.54,9.71,2.76,-0.08,-0.0,-0.03,1.0,r
2939.0,2978.0,3006.0,3515.0,4095.0,4095.0,3043.0,3476.0,-1.42,9.64,2.89,-0.02,0.04,-0.03,1.0,r
2936.0,2958.0,3010.0,3504.0,4095.0,4095.0,3054.0,3504.0,-1.35,9.64,2.65,-0.07,0.01,0.01,1.0,r
2946.0,2947.0,3011.0,3525.0,4095.0,4095.0,3056.0,3514.0,-1.38,9.62,2.8,-0.05,-0.02,-0.04,1.0,r
2928.0,2928.0,3002.0,3520.0,4095.0,4095.0,3051.0,3505.0,-1.33,9.59,2.85,-0.03,-0.01,-0.02,1.0,r
2939.0,2990.0,3021.0,3519.0,4095.0,4095.0,3053.0,3515.0,-1.22,9.57,2.86,-0.01,-0.01,-0.06,1.0,r
2970.0,2953.0,3008.0,3517.0,4095.0,4095.0,3053.0,3503.0,-1.3,9.52,2.87,-0.01,0.01,-0.03,1.0,r
2949.0,2944.0,3011.0,3513.0,4095.0,4095.0,3051.0,3504.0,-1.31,9.56,2.73,-0.08,-0.0,-0.01,1.0,r
2942.0,2963.0,3014.0,3515.0,4095.0,4095.0,3065.0,3508.0,-1.3,9.57,2.87,-0.06,-0.02,-0.04,1.0,r
2942.0,2947.0,3009.0,3509.0,4095.0,4095.0,3056.0,3510.0,-1.28,9.59,2.82,-0.03,0.01,-0.04,1.0,r
2947.0,2943.0,3010.0,3501.0,4095.0,4095.0,3064.0,3504.0,-1.36,9.62,2.73,-0.05,-0.0,-0.02,1.0,r
2950.0,2960.0,3024.0,3506.0,4095.0,4095.0,3065.0,3511.0,-1.25,9.63,2.82,-0.05,-0.01,-0.03,1.0,r
2950.0,2951.0,3007.0,3515.0,4095.0,4095.0,3053.0,3510.0,-1.3,9.66,2.75,-0.05,-0.02,-0.04,1.0,r
2947.0,2989.0,3003.0,3507.0,4095.0,4095.0,3070.0,3503.0,-1.43,9.62,2.78,-0.08,-0.02,-0.04,1.0,r
2950.0,2935.0,2999.0,3513.0,4095.0,4095.0,3060.0,3543.0,-1.41,9.59,2.8,-0.07,-0.03,-0.03,1.0,r
2941.0,2944.0,2998.0,3517.0,4095.0,4095.0,3059.0,3519.0,-1.2,9.61,2.81,-0.04,0.02,-0.02,1.0,r
2943.0,2954.0,3007.0,3501.0,4095.0,4095.0,3067.0,3517.0,-1.2,9.63,2.73,-0.05,0.01,-0.05,1.0,r
2949.0,2947.0,3006.0,3502.0,4095.0,4095.0,3070.0,3506.0,-1.41,9.56,2.83,-0.05,-0.02,-0.06,1.0,r
2955.0,2960.0,3005.0,3520.0,4095.0,4095.0,3066.0,3515.0,-1.34,9.56,2.74,-0.04,-0.01,-0.02,1.0,r
2943.0,2954.0,3006.0,3519.0,4095.0,4095.0,3071.0,3522.0,-1.27,9.6,2.74,-0.06,-0.01,-0.02,1.0,r
2941.0,2957.0,3007.0,3513.0,4095.0,4095.0,3063.0,3521.0,-1.29,9.58,2.86,-0.04,0.01,-0.04,1.0,r
2953.0,2960.0,3017.0,3511.0,4095.0,4095.0,3083.0,3520.0,-1.24,9.5,2.91,-0.06,-0.01,-0.03,1.0,r
2943.0,2957.0,3006.0,3519.0,4095.0,4095.0,3071.0,3519.0,-1.27,9.59,2.76,-0.04,0.01,-0.04,1.0,r
2945.0,2943.0,3011.0,3501.0,4095.0,4095.0,3063.0,3533.0,-1.32,9.54,2.83,-0.05,0.01,-0.04,1.0,r
2937.0,2951.0,3007.0,3504.0,4095.0,4095.0,3071.0,3535.0,-1.29,9.53,2.81,-0.07,-0.01,-0.01,1.0,r
2939.0,2958.0,3018.0,3504.0,4095.0,4095.0,3065.0,3526.0,-1.26,9.6,2.68,-0.06,-0.02,-0.02,1.0,r
2949.0,2933.0,3005.0,3505.0,4095.0,4095.0,3085.0,3525.0,-1.25,9.6,2.83,-0.06,0.0,-0.02,1.0,r
2942.0,2962.0,3022.0,3504.0,4095.0,4095.0,3071.0,3536.0,-1.22,9.63,2.82,-0.04,-0.02,-0.04,1.0,r
2950.0,2955.0,2998.0,3511.0,4095.0,4095.0,3067.0,3523.0,-1.3,9.61,2.72,-0.07,-0.02,-0.03,1.0,r
2949.0,2944.0,3015.0,3514.0,4095.0,4095.0,3071.0,3515.0,-1.3,9.56,2.74,-0.09,-0.01,-0.02,1.0,r
2948.0,2941.0,3010.0,3511.0,4095.0,4095.0,3070.0,3536.0,-1.35,9.57,2.82,-0.07,-0.03,-0.03,1.0,r
2938.0,2944.0,3006.0,3505.0,4095.0,4095.0,3071.0,3521.0,-1.2,9.58,2.77,-0.06,-0.03,-0.02,1.0,r
2943.0,2945.0,3009.0,3510.0,4095.0,4095.0,3086.0,3536.0,-1.26,9.58,2.74,-0.08,-0.02,-0.01,1.0,r
2943.0,2955.0,3014.0,3516.0,4095.0,4095.0,3083.0,3546.0,-1.21,9.58,2.83,-0.1,-0.01,-0.02,1.0,r
2937.0,2945.0,3020.0,3504.0,4095.0,4095.0,3071.0,3534.0,-1.19,9.57,2.76,-0.06,-0.01,-0.03,1.0,r
2940.0,2950.0,3005.0,3521.0,4095.0,4095.0,3083.0,3535.0,-1.21,9.62,2.79,-0.07,-0.02,-0.05,1.0,r
2953.0,2957.0,3021.0,3517.0,4095.0,4095.0,3093.0,3532.0,-1.19,9.56,2.91,-0.06,-0.0,-0.03,1.0,r
2944.0,2949.0,3009.0,3536.0,4095.0,4095.0,3088.0,3533.0,-1.16,9.64,2.78,-0.05,0.01,-0.04,1.0,r
2948.0,2960.0,3011.0,3533.0,4095.0,4095.0,3082.0,3551.0,-1.18,9.59,2.84,-0.04,0.02,-0.04,1.0,r
2945.0,2955.0,3017.0,3504.0,4095.0,4095.0,3081.0,3536.0,-1.25,9.59,2.84,-0.09,0.0,-0.02,1.0,r
2941.0,2960.0,3009.0,3517.0,4095.0,4095.0,3071.0,3533.0,-1.12,9.59,2.88,-0.05,-0.01,-0.04,1.0,r
2964.0,3015.0,3005.0,3614.0,4095.0,4095.0,3136.0,3513.0,-1.11,9.62,2.68,-0.11,-0.02,-0.03,1.0,r
2980.0,2960.0,2980.0,3615.0,4095.0,4095.0,3137.0,3521.0,-1.11,9.55,2.84,-0.07,-0.03,-0.03,1.0,r
2963.0,2959.0,2979.0,3632.0,4095.0,4095.0,3137.0,3504.0,-1.09,9.68,2.66,-0.07,-0.03,-0.02,1.0,r
2960.0,2962.0,2976.0,3630.0,4095.0,4095.0,3130.0,3514.0,-1.1,9.61,2.8,-0.05,-0.01,-0.03,1.0,r
2967.0,2955.0,2989.0,3651.0,4095.0,4095.0,3142.0,3504.0,-1.06,9.57,2.76,-0.05,-0.03,-0.02,1.0,r
2965.0,2969.0,3004.0,3643.0,4095.0,4095.0,3136.0,3518.0,-1.11,9.62,2.76,-0.05,-0.01,-0.04,1.0,r
2960.0,2980.0,2994.0,3655.0,4095.0,4095.0,3135.0,3511.0,-1.04,9.53,2.76,-0.08,-0.05,-0.02,1.0,r
2962.0,2966.0,2992.0,3646.0,4095.0,4095.0,3131.0,3534.0,-1.12,9.64,2.66,-0.08,-0.02,-0.03,1.0,r
2955.0,2957.0,2986.0,3653.0,4095.0,4095.0,3136.0,3529.0,-1.01,9.6,2.91,-0.03,-0.01,-0.06,1.0,r
2950.0,2963.0,2993.0,3667.0,4095.0,4095.0,3125.0,3519.0,-1.06,9.7,2.65,-0.05,-0.03,-0.02,1.0,r
2949.0,2962.0,2987.0,3671.0,4095.0,4095.0,3138.0,3529.0,-1.13,9.61,2.77,-0.07,-0.01,-0.04,1.0,r
2949.0,2963.0,2999.0,3662.0,4095.0,4095.0,3123.0,3536.0,-1.12,9.63,2.76,-0.04,-0.02,-0.03,1.0,r
2954.0,2973.0,2990.0,3664.0,4095.0,4095.0,3120.0,3525.0,-1.04,9.66,2.68,-0.09,-0.02,-0.02,1.0,r
2962.0,2966.0,2994.0,3685.0,4095.0,4095.0,3122.0,3521.0,-1.04,9.63,2.83,-0.03,0.01,-0.04,1.0,r
2974.0,2971.0,2980.0,3663.0,4095.0,4095.0,3122.0,3539.0,-0.97,9.64,2.74,-0.06,0.01,-0.02,1.0,r
2960.0,2963.0,2998.0,3682.0,4095.0,4095.0,3125.0,3535.0,-0.98,9.62,2.75,-0.06,-0.01,-0.03,1.0,r
2959.0,2963.0,2991.0,3670.0,4095.0,4095.0,3122.0,3530.0,-1.07,9.64,2.78,-0.07,0.0,-0.04,1.0,r
2958.0,2961.0,2985.0,3690.0,4095.0,4095.0,3131.0,3524.0,-1.06,9.65,2.71,-0.07,-0.0,-0.01,1.0,r
2956.0,2975.0,2997.0,3696.0,4095.0,4095.0,3119.0,3526.0,-0.98,9.63,2.74,-0.02,0.02,-0.03,1.0,r
2962.0,3014.0,2999.0,3690.0,4095.0,4095.0,3120.0,3533.0,-1.04,9.67,2.7,-0.06,-0.02,-0.03,1.0,r
2960.0,2886.0,2990.0,3687.0,4095.0,4095.0,3129.0,3522.0,-0.96,9.69,2.66,-0.07,-0.02,-0.03,1.0,r
2943.0,2978.0,2979.0,3692.0,4095.0,4095.0,3121.0,3521.0,-1.01,9.66,2.78,-0.06,-0.01,-0.03,1.0,r
2943.0,2896.0,2995.0,3683.0,4095.0,4095.0,3123.0,3528.0,-1.04,9.71,2.68,-0.04,-0.01,-0.03,1.0,r
2951.0,2973.0,2995.0,3697.0,4095.0,4095.0,3120.0,3527.0,-1.06,9.68,2.64,-0.05,-0.01,-0.03,1.0,r
2945.0,2967.0,2986.0,3681.0,4095.0,4095.0,3121.0,3516.0,-1.08,9.67,2.69,-0.04,0.01,-0.03,1.0,r
2944.0,2960.0,2975.0,3696.0,4095.0,4095.0,3125.0,3517.0,-0.96,9.71,2.64,-0.06,-0.01,-0.02,1.0,r
2953.0,2965.0,2984.0,3686.0,4095.0,4095.0,3120.0,3517.0,-1.03,9.73,2.74,-0.07,-0.02,-0.03,1.0,r
2961.0,2977.0,2983.0,3697.0,4095.0,4095.0,3118.0,3525.0,-1.0,9.71,2.61,-0.05,0.01,-0.04,1.0,r
2961.0,2963.0,2983.0,3685.0,4095.0,4095.0,3129.0,3530.0,-1.07,9.7,2.7,-0.07,0.02,-0.04,1.0,r
2942.0,2947.0,2992.0,3685.0,4095.0,4095.0,3123.0,3519.0,-0.99,9.72,2.73,-0.03,0.01,-0.03,1.0,r
2950.0,2970.0,2992.0,3706.0,4095.0,4095.0,3128.0,3530.0,-0.95,9.71,2.65,-0.05,0.02,-0.04,1.0,r
2960.0,2979.0,2991.0,3706.0,4095.0,4095.0,3123.0,3534.0,-1.07,9.68,2.69,-0.05,0.03,-0.03,1.0,r
2960.0,2961.0,2994.0,3706.0,4095.0,4095.0,3119.0,3523.0,-0.99,9.63,2.77,-0.07,0.02,-0.02,1.0,r
2951.0,2969.0,2983.0,3696.0,4095.0,4095.0,3122.0,3534.0,-0.9,9.66,2.7,-0.06,0.01,-0.02,1.0,r
2957.0,2970.0,2986.0,3728.0,4095.0,4095.0,3118.0,3523.0,-0.96,9.75,2.52,-0.03,-0.02,-0.04,1.0,r
2960.0,2960.0,2999.0,3728.0,4095.0,4095.0,3122.0,3536.0,-1.05,9.65,2.78,-0.08,-0.01,-0.04,1.0,r
2960.0,2970.0,2992.0,3703.0,4095.0,4095.0,3123.0,3549.0,-0.94,9.73,2.57,-0.03,0.02,-0.03,1.0,r
2953.0,2973.0,2985.0,3695.0,4095.0,4095.0,3132.0,3551.0,-0.99,9.66,2.66,-0.08,-0.01,-0.05,1.0,r
2950.0,2965.0,2979.0,3724.0,4095.0,4095.0,3120.0,3539.0,-1.19,9.61,2.74,-0.06,-0.02,-0.04,1.0,r
2951.0,2979.0,2991.0,3726.0,4095.0,4095.0,3136.0,3536.0,-0.96,9.73,2.55,-0.07,-0.02,-0.02,1.0,r
2942.0,2944.0,3006.0,3327.0,4095.0,4095.0,3071.0,3260.0,-0.73,9.73,2.43,-0.08,-0.02,-0.04,1.0,r
2945.0,2962.0,3002.0,3328.0,4095.0,4095.0,3083.0,3258.0,-0.69,9.77,2.34,-0.05,-0.03,-0.04,1.0,r
2948.0,2943.0,3011.0,3341.0,4095.0,4095.0,3085.0,3276.0,-0.72,9.75,2.42,-0.11,0.02,-0.02,1.0,r
2933.0,2947.0,3004.0,3338.0,4095.0,4095.0,3071.0,3275.0,-0.66,9.79,2.42,-0.05,0.0,-0.03,1.0,r
2935.0,2955.0,3005.0,3347.0,4095.0,4095.0,3071.0,3299.0,-0.64,9.81,2.41,-0.11,-0.03,-0.03,1.0,r
2926.0,2941.0,2997.0,3374.0,4095.0,4095.0,3087.0,3286.0,-0.64,9.85,2.35,-0.06,-0.0,-0.04,1.0,r
2938.0,2955.0,3008.0,3385.0,4095.0,4095.0,3089.0,3310.0,-0.7,9.74,2.55,-0.08,0.02,-0.03,1.0,r
2950.0,2950.0,2997.0,3379.0,4095.0,4095.0,3090.0,3289.0,-0.76,9.74,2.47,-0.03,0.05,-0.05,1.0,r
2927.0,2947.0,3004.0,3379.0,4095.0,4095.0,3103.0,3293.0,-0.69,9.79,2.34,-0.05,0.03,-0.05,1.0,r
2918.0,2941.0,2999.0,3389.0,4095.0,4095.0,3093.0,3293.0,-0.78,9.76,2.45,-0.03,0.04,-0.04,1.0,r
2928.0,2955.0,3018.0,3395.0,4095.0,4095.0,3101.0,3283.0,-0.61,9.78,2.47,-0.03,0.01,-0.06,1.0,r
2945.0,2966.0,2999.0,3425.0,4095.0,4095.0,3094.0,3293.0,-0.65,9.76,2.37,-0.07,-0.01,-0.04,1.0,r
2927.0,2965.0,3011.0,3422.0,4095.0,4095.0,3093.0,3298.0,-0.77,9.8,2.37,-0.06,-0.01,-0.04,1.0,r
2927.0,2949.0,2996.0,3425.0,4095.0,4095.0,3099.0,3310.0,-0.81,9.75,2.48,-0.08,-0.03,-0.03,1.0,r
2941.0,2961.0,2998.0,3422.0,4095.0,4095.0,3104.0,3298.0,-0.81,9.77,2.39,-0.08,-0.01,-0.02,1.0,r
2937.0,2966.0,2998.0,3420.0,4095.0,4095.0,3104.0,3295.0,-0.72,9.77,2.51,-0.07,-0.01,-0.05,1.0,r
2931.0,2947.0,3006.0,3426.0,4095.0,4095.0,3098.0,3312.0,-0.76,9.76,2.47,-0.06,-0.01,-0.04,1.0,r
2937.0,2949.0,3005.0,3446.0,4095.0,4095.0,3117.0,3303.0,-0.69,9.76,2.42,-0.06,-0.06,-0.04,1.0,r
2926.0,2943.0,3007.0,3429.0,4095.0,4095.0,3115.0,3315.0,-0.84,9.75,2.34,-0.06,-0.02,-0.04,1.0,r
2933.0,2960.0,3009.0,3429.0,4095.0,4095.0,3113.0,3307.0,-0.78,9.76,2.42,-0.09,-0.02,-0.01,1.0,r
2942.0,2956.0,3003.0,3442.0,4095.0,4095.0,3117.0,3312.0,-0.65,9.74,2.59,-0.06,0.03,-0.03,1.0,r
2926.0,2947.0,2994.0,3439.0,4095.0,4095.0,3115.0,3319.0,-0.81,9.71,2.46,-0.02,-0.01,-0.03,1.0,r
2935.0,2843.0,3002.0,3440.0,4095.0,4095.0,3111.0,3303.0,-0.79,9.81,2.36,-0.09,-0.0,-0.03,1.0,r
2929.0,2949.0,3007.0,3438.0,4095.0,4095.0,3114.0,3319.0,-0.58,9.73,2.6,-0.08,0.01,-0.03,1.0,r
2929.0,2955.0,3008.0,3440.0,4095.0,4095.0,3113.0,3322.0,-0.73,9.72,2.47,-0.03,0.01,-0.03,1.0,r
2939.0,2958.0,3006.0,3445.0,4095.0,4095.0,3120.0,3317.0,-0.75,9.82,2.29,-0.07,0.01,-0.05,1.0,r
2936.0,2958.0,2997.0,3456.0,4095.0,4095.0,3119.0,3325.0,-0.74,9.71,2.61,-0.1,0.01,-0.01,1.0,r
2943.0,2960.0,2992.0,3450.0,4095.0,4095.0,3123.0,3319.0,-0.53,9.85,2.39,-0.02,0.04,-0.04,1.0,r
2928.0,2935.0,3006.0,3442.0,4095.0,4095.0,3120.0,3331.0,-0.61,9.79,2.48,-0.06,-0.02,-0.06,1.0,r
2942.0,2957.0,3008.0,3455.0,4095.0,4095.0,3127.0,3313.0,-0.83,9.72,2.59,-0.04,-0.05,-0.07,1.0,r
2935.0,2949.0,2996.0,3461.0,4095.0,4095.0,3127.0,3312.0,-0.77,9.77,2.46,-0.04,-0.01,-0.04,1.0,r
2925.0,2945.0,3011.0,3469.0,4095.0,4095.0,3125.0,3313.0,-0.58,9.77,2.52,-0.05,-0.04,-0.05,1.0,r
2933.0,2958.0,3007.0,3471.0,4095.0,4095.0,3130.0,3315.0,-0.74,9.74,2.5,-0.03,-0.0,-0.06,1.0,r
2932.0,2970.0,3006.0,3473.0,4095.0,4095.0,3083.0,3314.0,-0.58,9.71,2.66,-0.03,0.02,-0.03,1.0,r
2931.0,2944.0,2997.0,3472.0,4095.0,4095.0,3124.0,3321.0,-0.74,9.74,2.5,-0.05,0.03,-0.03,1.0,r
2927.0,2958.0,2997.0,3472.0,4095.0,4095.0,3120.0,3325.0,-0.77,9.68,2.54,-0.06,-0.0,-0.04,1.0,r
2934.0,2951.0,3024.0,3441.0,4095.0,4095.0,3125.0,3326.0,-0.75,9.74,2.35,-0.08,0.01,-0.06,1.0,r
2940.0,2953.0,2994.0,3447.0,4095.0,4095.0,3129.0,3327.0,-0.8,9.72,2.49,-0.08,-0.03,-0.05,1.0,r
2939.0,2960.0,2999.0,3487.0,4095.0,4095.0,3126.0,3312.0,-0.98,9.67,2.57,-0.03,0.02,-0.04,1.0,r
2937.0,2947.0,2996.0,3493.0,4095.0,4095.0,3119.0,3312.0,-0.7,9.73,2.59,-0.0,-0.01,-0.05,1.0,r
2945.0,2950.0,2982.0,3553.0,4095.0,4095.0,3065.0,3365.0,-1.06,9.78,2.4,-0.05,0.02,-0.01,1.0,r
2946.0,2953.0,2995.0,3583.0,4095.0,4095.0,3091.0,3371.0,-0.94,9.79,2.47,-0.06,0.01,-0.02,1.0,r
2950.0,2947.0,2994.0,3575.0,4095.0,4095.0,3087.0,3367.0,-0.98,9.76,2.48,-0.04,-0.02,-0.03,1.0,r
2957.0,2957.0,2992.0,3575.0,4095.0,4095.0,3093.0,3381.0,-0.93,9.78,2.35,-0.04,0.01,-0.03,1.0,r
2942.0,2958.0,2983.0,3600.0,4095.0,4095.0,3081.0,3376.0,-0.93,9.72,2.53,-0.06,-0.01,-0.05,1.0,r
2947.0,2949.0,2992.0,3600.0,4095.0,4095.0,3093.0,3394.0,-0.96,9.76,2.48,-0.06,0.0,-0.04,1.0,r
2945.0,2957.0,2983.0,3603.0,4095.0,4095.0,3109.0,3385.0,-0.93,9.69,2.49,-0.07,-0.02,-0.03,1.0,r
2949.0,2959.0,2989.0,3612.0,4095.0,4095.0,3088.0,3405.0,-0.93,9.73,2.42,-0.06,0.01,-0.04,1.0,r
2933.0,2973.0,2992.0,3615.0,4095.0,4095.0,3088.0,3409.0,-1.07,9.68,2.48,-0.12,-0.01,-0.02,1.0,r
2939.0,2950.0,2992.0,3629.0,4095.0,4095.0,3088.0,3408.0,-0.94,9.68,2.59,-0.06,-0.01,-0.02,1.0,r
2944.0,2960.0,2988.0,3612.0,4095.0,4095.0,3088.0,3395.0,-0.89,9.73,2.51,-0.05,0.01,-0.03,1.0,r
2933.0,2951.0,2973.0,3621.0,4095.0,4095.0,3090.0,3392.0,-0.99,9.69,2.54,-0.06,0.01,-0.03,1.0,r
2931.0,2960.0,2991.0,3633.0,4095.0,4095.0,3094.0,3407.0,-0.98,9.76,2.48,-0.06,0.01,-0.02,1.0,r
2944.0,2966.0,2981.0,3632.0,4095.0,4095.0,3104.0,3407.0,-0.92,9.77,2.53,-0.03,0.01,-0.03,1.0,r
2943.0,2963.0,2992.0,3605.0,4095.0,4095.0,3097.0,3413.0,-0.87,9.75,2.37,-0.02,0.01,0.0,1.0,r
2944.0,2960.0,2989.0,3615.0,4095.0,4095.0,3107.0,3408.0,-0.95,9.74,2.43,-0.03,0.03,-0.03,1.0,r
2934.0,2959.0,2990.0,3626.0,4095.0,4095.0,3103.0,3419.0,-0.89,9.73,2.43,-0.08,-0.01,-0.02,1.0,r
2935.0,2959.0,2986.0,3606.0,4095.0,4095.0,3093.0,3414.0,-0.88,9.68,2.46,-0.08,-0.04,-0.0,1.0,r
2951.0,2933.0,2992.0,3614.0,4095.0,4095.0,3109.0,3415.0,-0.8,9.7,2.5,-0.06,-0.02,-0.03,1.0,r
2944.0,2960.0,2991.0,3618.0,4095.0,4095.0,3105.0,3421.0,-0.86,9.75,2.43,-0.04,-0.01,-0.04,1.0,r
2945.0,2865.0,2981.0,3631.0,4095.0,4095.0,3095.0,3423.0,-0.86,9.74,2.43,-0.07,-0.03,-0.04,1.0,r
2948.0,2977.0,2986.0,3631.0,4095.0,4095.0,3109.0,3421.0,-0.84,9.78,2.4,-0.04,0.01,-0.03,1.0,r
2939.0,2960.0,2997.0,3635.0,4095.0,4095.0,3107.0,3418.0,-0.75,9.79,2.4,-0.08,-0.01,-0.03,1.0,r
2943.0,2953.0,2992.0,3645.0,4095.0,4095.0,3093.0,3434.0,-0.82,9.72,2.6,-0.03,-0.01,-0.04,1.0,r
2941.0,2960.0,2981.0,3652.0,4095.0,4095.0,3106.0,3425.0,-0.82,9.77,2.41,-0.02,0.01,-0.03,1.0,r
2935.0,2958.0,2992.0,3647.0,4095.0,4095.0,3106.0,3426.0,-0.82,9.74,2.43,-0.04,0.01,-0.04,1.0,r
2954.0,2967.0,2992.0,3654.0,4095.0,4095.0,3098.0,3434.0,-0.79,9.76,2.43,-0.04,-0.01,-0.04,1.0,r
2948.0,2959.0,2982.0,3637.0,4095.0,4095.0,3120.0,3437.0,-0.83,9.76,2.34,-0.07,-0.02,-0.05,1.0,r
2950.0,2962.0,2993.0,3643.0,4095.0,4095.0,3103.0,3429.0,-0.89,9.7,2.49,-0.08,-0.02,-0.03,1.0,r
2943.0,2950.0,2990.0,3631.0,4095.0,4095.0,3104.0,3437.0,-0.74,9.8,2.32,-0.08,-0.03,-0.03,1.0,r
2944.0,2966.0,2991.0,3638.0,4095.0,4095.0,3110.0,3437.0,-0.82,9.76,2.44,-0.06,-0.02,-0.06,1.0,r
2949.0,2945.0,2989.0,3660.0,4095.0,4095.0,3111.0,3431.0,-0.91,9.74,2.41,-0.05,-0.01,-0.03,1.0,r
2950.0,2960.0,2990.0,3649.0,4095.0,4095.0,3116.0,3446.0,-0.79,9.79,2.38,-0.05,0.01,-0.04,1.0,r
2941.0,2950.0,2999.0,3651.0,4095.0,4095.0,3097.0,3444.0,-0.87,9.75,2.39,-0.06,0.0,-0.04,1.0,r
2930.0,2958.0,2989.0,3655.0,4095.0,4095.0,3100.0,3435.0,-0.98,9.78,2.38,-0.05,0.02,-0.04,1.0,r
2942.0,2960.0,2993.0,3664.0,4095.0,4095.0,3097.0,3440.0,-0.82,9.73,2.5,-0.06,0.01,-0.03,1.0,r
2944.0,2951.0,2987.0,3648.0,4095.0,4095.0,3118.0,3452.0,-0.85,9.69,2.44,-0.05,0.02,-0.04,1.0,r
2945.0,2958.0,2992.0,3671.0,4095.0,4095.0,3119.0,3455.0,-0.83,9.76,2.38,-0.07,-0.0,-0.04,1.0,r
2948.0,2957.0,2997.0,3685.0,4095.0,4095.0,3107.0,3446.0,-0.93,9.72,2.52,-0.05,0.0,-0.02,1.0,r
2947.0,2960.0,2989.0,3662.0,4095.0,4095.0,3100.0,3398.0,-0.86,9.73,2.39,-0.06,-0.01,-0.02,1.0,r
2942.0,2947.0,2979.0,3632.0,4095.0,4095.0,3103.0,3542.0,-0.75,9.78,2.31,-0.07,0.01,-0.01,1.0,r
2958.0,2969.0,2977.0,3614.0,4095.0,4095.0,3103.0,3538.0,-0.63,9.79,2.35,-0.05,-0.0,-0.03,1.0,r
2944.0,2960.0,2977.0,3617.0,4095.0,4095.0,3105.0,3565.0,-0.75,9.79,2.34,-0.07,0.01,-0.03,1.0,r
2944.0,2960.0,2990.0,3635.0,4095.0,4095.0,3134.0,3551.0,-0.74,9.78,2.34,-0.03,0.02,-0.03,1.0,r
2943.0,2959.0,2986.0,3632.0,4095.0,4095.0,3099.0,3567.0,-0.73,9.74,2.36,-0.06,0.01,-0.03,1.0,r
2952.0,2949.0,2979.0,3629.0,4095.0,4095.0,3102.0,3559.0,-0.77,9.74,2.3,-0.05,0.03,-0.03,1.0,r
2925.0,2994.0,2977.0,3645.0,4095.0,4095.0,3099.0,3567.0,-0.66,9.74,2.32,-0.07,0.01,-0.03,1.0,r
2949.0,2943.0,2991.0,3632.0,4095.0,4095.0,3105.0,3563.0,-0.76,9.73,2.35,-0.03,0.01,-0.02,1.0,r
2944.0,2971.0,2987.0,3648.0,4095.0,4095.0,3105.0,3580.0,-0.68,9.78,2.25,-0.05,0.01,-0.03,1.0,r
2949.0,2965.0,2991.0,3654.0,4095.0,4095.0,3111.0,3568.0,-0.74,9.84,2.21,-0.07,0.0,-0.03,1.0,r
2945.0,2954.0,2981.0,3646.0,4095.0,4095.0,3111.0,3557.0,-0.82,9.81,2.25,-0.07,-0.0,-0.04,1.0,r
2944.0,2960.0,2983.0,3653.0,4095.0,4095.0,3111.0,3533.0,-0.74,9.83,2.26,-0.08,-0.01,-0.03,1.0,r
2957.0,2970.0,2976.0,3663.0,4095.0,4095.0,3105.0,3572.0,-0.76,9.81,2.32,-0.07,0.01,-0.04,1.0,r
2945.0,2958.0,2981.0,3666.0,4095.0,4095.0,3111.0,3566.0,-0.77,9.83,2.22,-0.05,-0.0,-0.05,1.0,r
2937.0,2939.0,2978.0,3665.0,4095.0,4095.0,3114.0,3573.0,-0.88,9.8,2.28,-0.05,0.02,-0.04,1.0,r
2940.0,2959.0,2978.0,3664.0,4095.0,4095.0,3118.0,3570.0,-0.77,9.79,2.35,-0.05,0.03,-0.03,1.0,r
2944.0,2948.0,2982.0,3663.0,4095.0,4095.0,3094.0,3569.0,-0.69,9.8,2.33,-0.04,-0.0,-0.06,1.0,r
2946.0,2944.0,2979.0,3673.0,4095.0,4095.0,3107.0,3559.0,-0.8,9.75,2.36,-0.05,-0.01,-0.05,1.0,r
2950.0,2960.0,2997.0,3686.0,4095.0,4095.0,3111.0,3563.0,-0.79,9.84,2.24,-0.06,0.01,-0.03,1.0,r
2935.0,2960.0,2990.0,3682.0,4095.0,4095.0,3115.0,3583.0,-0.68,9.81,2.38,-0.05,-0.0,-0.04,1.0,r
2944.0,2928.0,2990.0,3583.0,4095.0,4095.0,3138.0,3456.0,-1.01,9.71,2.5,-0.05,-0.01,-0.02,1.0,r
2944.0,2955.0,3003.0,3581.0,4095.0,4095.0,3151.0,3470.0,-0.89,9.72,2.46,-0.1,0.01,-0.03,1.0,r
2941.0,2954.0,2997.0,3603.0,4095.0,4095.0,3140.0,3466.0,-0.99,9.67,2.59,-0.11,0.0,-0.03,1.0,r
2939.0,2944.0,2986.0,3600.0,4095.0,4095.0,3152.0,3463.0,-0.99,9.75,2.47,-0.09,-0.01,-0.02,1.0,r
2942.0,2960.0,2989.0,3617.0,4095.0,4095.0,3152.0,3466.0,-0.9,9.71,2.49,-0.08,-0.04,-0.04,1.0,r
2944.0,2960.0,2983.0,3619.0,4095.0,4095.0,3142.0,3461.0,-1.0,9.7,2.55,-0.05,-0.02,-0.04,1.0,r
2955.0,2960.0,2986.0,3612.0,4095.0,4095.0,3149.0,3469.0,-0.86,9.75,2.58,-0.05,0.05,-0.04,1.0,r
2944.0,2843.0,2988.0,3599.0,4095.0,4095.0,3152.0,3472.0,-0.95,9.77,2.45,-0.04,0.03,-0.04,1.0,r
2947.0,2956.0,2978.0,3600.0,4095.0,4095.0,3153.0,3451.0,-0.96,9.77,2.52,-0.06,-0.01,-0.03,1.0,r
2939.0,2960.0,2977.0,3609.0,4095.0,4095.0,3167.0,3463.0,-0.98,9.65,2.63,-0.06,-0.0,-0.01,1.0,r
2942.0,2960.0,2989.0,3613.0,4095.0,4095.0,3161.0,3459.0,-0.96,9.73,2.48,-0.04,-0.01,-0.03,1.0,r
2944.0,2942.0,2990.0,3607.0,4095.0,4095.0,3175.0,3463.0,-0.88,9.77,2.44,-0.05,-0.02,-0.04,1.0,r
2943.0,2960.0,2995.0,3618.0,4095.0,4095.0,3168.0,3459.0,-0.87,9.71,2.6,-0.06,-0.03,-0.04,1.0,r
2939.0,2957.0,2990.0,3623.0,4095.0,4095.0,3163.0,3459.0,-0.92,9.8,2.4,-0.03,-0.02,-0.04,1.0,r
2944.0,2955.0,2992.0,3638.0,4095.0,4095.0,3161.0,3466.0,-0.95,9.77,2.45,-0.03,-0.03,-0.05,1.0,r
2935.0,2956.0,2992.0,3623.0,4095.0,4095.0,3149.0,3474.0,-0.92,9.74,2.49,-0.02,0.01,-0.01,1.0,r
2954.0,2954.0,2986.0,3641.0,4095.0,4095.0,3168.0,3472.0,-1.0,9.7,2.43,-0.06,0.01,-0.02,1.0,r
2938.0,2960.0,2960.0,3633.0,4095.0,4095.0,3157.0,3473.0,-0.94,9.75,2.43,-0.05,-0.04,-0.02,1.0,r
2935.0,2947.0,2995.0,3631.0,4095.0,4095.0,3149.0,3474.0,-0.83,9.8,2.38,-0.03,-0.02,-0.02,1.0,r
2943.0,2941.0,2992.0,3632.0,4095.0,4095.0,3158.0,3481.0,-0.8,9.81,2.4,-0.04,0.01,-0.04,1.0,r
2938.0,2950.0,2987.0,3642.0,4095.0,4095.0,3156.0,3472.0,-0.81,9.79,2.36,-0.05,0.01,-0.03,1.0,r
2944.0,2954.0,2975.0,3629.0,4095.0,4095.0,3165.0,3487.0,-0.79,9.77,2.42,-0.07,0.04,-0.01,1.0,r
2946.0,2971.0,2979.0,3633.0,4095.0,4095.0,3147.0,3498.0,-0.84,9.74,2.36,-0.05,-0.05,-0.03,1.0,r
2944.0,2929.0,2992.0,3635.0,4095.0,4095.0,3165.0,3507.0,-0.86,9.7,2.55,-0.05,-0.05,-0.06,1.0,r
2949.0,3001.0,2985.0,3654.0,4095.0,4095.0,3169.0,3489.0,-0.91,9.73,2.46,-0.03,-0.01,-0.03,1.0,r
2946.0,2950.0,2979.0,3646.0,4095.0,4095.0,3158.0,3487.0,-0.82,9.77,2.38,-0.07,0.0,0.0,1.0,r
2937.0,2955.0,2992.0,3653.0,4095.0,4095.0,3155.0,3483.0,-0.77,9.83,2.34,-0.07,-0.0,-0.02,1.0,r
2945.0,2961.0,2986.0,3663.0,4095.0,4095.0,3174.0,3511.0,-0.81,9.82,2.34,-0.08,-0.0,-0.04,1.0,r
2940.0,2947.0,2983.0,3671.0,4095.0,4095.0,3153.0,3489.0,-0.9,9.76,2.37,-0.07,-0.01,-0.03,1.0,r
2944.0,2981.0,2985.0,3669.0,4095.0,4095.0,3162.0,3500.0,-0.75,9.81,2.33,-0.07,0.03,-0.03,1.0,r
2934.0,2928.0,2986.0,3673.0,4095.0,4095.0,3161.0,3508.0,-0.77,9.72,2.47,-0.02,-0.05,-0.05,1.0,r
2943.0,2948.0,2986.0,3654.0,4095.0,4095.0,3163.0,3515.0,-0.86,9.71,2.41,-0.04,-0.02,-0.03,1.0,r
2953.0,2949.0,2986.0,3659.0,4095.0,4095.0,3155.0,3518.0,-0.8,9.73,2.32,-0.06,0.04,-0.02,1.0,r
2953.0,2994.0,2986.0,3655.0,4095.0,4095.0,3169.0,3510.0,-0.75,9.69,2.51,-0.07,-0.01,-0.02,1.0,r
2950.0,2944.0,2990.0,3683.0,4095.0,4095.0,3174.0,3506.0,-0.74,9.69,2.46,-0.01,-0.0,-0.07,1.0,r
2927.0,2943.0,2985.0,3646.0,4095.0,4095.0,3165.0,3504.0,-0.94,9.76,2.32,-0.06,-0.01,-0.03,1.0,r
2937.0,2954.0,2987.0,3663.0,4095.0,4095.0,3157.0,3503.0,-0.81,9.79,2.35,-0.07,0.0,-0.03,1.0,r
2941.0,2983.0,2997.0,3675.0,4095.0,4095.0,3163.0,3517.0,-0.75,9.77,2.39,-0.06,0.0,-0.03,1.0,r
2947.0,2959.0,2994.0,3655.0,4095.0,4095.0,3168.0,3513.0,-0.87,9.8,2.32,-0.06,-0.02,-0.04,1.0,r
2937.0,2965.0,2989.0,3660.0,4095.0,4095.0,3174.0,3504.0,-0.89,9.78,2.39,-0.07,-0.0,-0.04,1.0,r
2943.0,2964.0,2993.0,3683.0,4095.0,4095.0,3164.0,3514.0,-0.86,9.74,2.41,-0.04,0.01,-0.03,1.0,r
2944.0,2995.0,2993.0,3678.0,4095.0,4095.0,3174.0,3529.0,-0.81,9.79,2.33,-0.08,-0.0,-0.04,1.0,r
2937.0,2957.0,2992.0,3669.0,4095.0,4095.0,3162.0,3518.0,-0.83,9.73,2.51,-0.04,-0.02,-0.05,1.0,r
2939.0,2954.0,2985.0,3665.0,4095.0,4095.0,3169.0,3514.0,-0.81,9.86,2.26,-0.04,-0.0,-0.04,1.0,r
2946.0,2958.0,2993.0,3680.0,4095.0,4095.0,3178.0,3519.0,-0.83,9.78,2.48,-0.04,0.02,-0.04,1.0,r
2949.0,2864.0,2991.0,3665.0,4095.0,4095.0,3163.0,3514.0,-0.76,9.76,2.36,-0.04,0.01,-0.03,1.0,r
2946.0,2953.0,2992.0,3659.0,4095.0,4095.0,3167.0,3530.0,-0.87,9.75,2.21,-0.01,0.02,-0.06,1.0,r
2957.0,2954.0,2992.0,3676.0,4095.0,4095.0,3168.0,3535.0,-0.89,9.7,2.48,-0.12,-0.02,0.0,1.0,r
2944.0,2975.0,2992.0,3667.0,4095.0,4095.0,3171.0,3536.0,-0.63,9.73,2.51,-0.08,0.03,-0.02,1.0,r
2944.0,2956.0,2983.0,3667.0,4095.0,4095.0,3178.0,3515.0,-0.68,9.79,2.41,-0.05,0.02,-0.04,1.0,r
2931.0,2962.0,2986.0,3680.0,4095.0,4095.0,3171.0,3521.0,-0.73,9.79,2.4,-0.06,0.0,-0.03,1.0,r
2934.0,2906.0,2995.0,3663.0,4095.0,4095.0,3171.0,3518.0,-0.74,9.79,2.49,-0.05,-0.0,-0.03,1.0,r
2944.0,2960.0,2997.0,3671.0,4095.0,4095.0,3168.0,3540.0,-0.69,9.86,2.38,-0.04,-0.01,-0.03,1.0,r
2937.0,2950.0,2988.0,3669.0,4095.0,4095.0,3165.0,3527.0,-0.77,9.8,2.41,-0.04,-0.01,-0.05,1.0,r
2950.0,2988.0,2985.0,3686.0,4095.0,4095.0,3163.0,3521.0,-0.73,9.75,2.49,-0.06,-0.02,-0.02,1.0,r
2945.0,2969.0,2995.0,3658.0,4095.0,4095.0,3172.0,3521.0,-0.67,9.73,2.5,-0.05,-0.04,-0.05,1.0,r
2949.0,2959.0,2986.0,3685.0,4095.0,4095.0,3166.0,3541.0,-0.72,9.75,2.51,-0.03,-0.01,-0.06,1.0,r
2943.0,2960.0,2991.0,3686.0,4095.0,4095.0,3165.0,3536.0,-0.74,9.8,2.39,-0.03,-0.01,-0.04,1.0,r
2941.0,2953.0,2992.0,3675.0,4095.0,4095.0,3165.0,3536.0,-0.71,9.79,2.49,-0.03,-0.01,-0.04,1.0,r
2941.0,2981.0,2991.0,3677.0,4095.0,4095.0,3171.0,3542.0,-0.76,9.79,2.38,-0.1,-0.05,-0.01,1.0,r
2955.0,3009.0,2982.0,3526.0,4095.0,4095.0,3139.0,3505.0,-0.85,9.68,2.61,-0.08,0.03,-0.03,1.0,r
2951.0,2955.0,2992.0,3530.0,4095.0,4095.0,3165.0,3519.0,-0.99,9.73,2.5,-0.07,0.03,-0.04,1.0,r
2932.0,2918.0,2992.0,3561.0,4095.0,4095.0,3161.0,3510.0,-1.04,9.72,2.45,-0.06,0.01,-0.04,1.0,r
2943.0,2947.0,2994.0,3557.0,4095.0,4095.0,3149.0,3522.0,-0.88,9.72,2.47,-0.04,0.03,-0.03,1.0,r
2935.0,2949.0,2981.0,3567.0,4095.0,4095.0,3152.0,3510.0,-0.97,9.71,2.47,-0.07,0.03,-0.03,1.0,r
2943.0,2953.0,2987.0,3538.0,4095.0,4095.0,3149.0,3511.0,-0.96,9.73,2.5,-0.03,0.01,-0.03,1.0,r
2943.0,2948.0,2990.0,3542.0,4095.0,4095.0,3155.0,3515.0,-1.04,9.71,2.43,-0.07,0.02,-0.02,1.0,r
2944.0,2960.0,2992.0,3565.0,4095.0,4095.0,3154.0,3523.0,-1.08,9.68,2.5,-0.06,0.01,-0.03,1.0,r
2944.0,2960.0,2997.0,3579.0,4095.0,4095.0,3148.0,3532.0,-0.96,9.74,2.41,-0.08,-0.02,-0.02,1.0,r
2947.0,2958.0,2983.0,3557.0,4095.0,4095.0,3157.0,3530.0,-0.91,9.74,2.48,-0.04,-0.01,-0.03,1.0,r
2944.0,2950.0,2992.0,3570.0,4095.0,4095.0,3150.0,3522.0,-0.95,9.71,2.48,-0.07,-0.0,-0.02,1.0,r
2947.0,2952.0,2991.0,3546.0,4095.0,4095.0,3147.0,3530.0,-0.95,9.61,2.5,-0.09,-0.0,-0.01,1.0,r
2943.0,2945.0,2989.0,3546.0,4095.0,4095.0,3154.0,3529.0,-0.88,9.72,2.47,-0.08,-0.0,-0.03,1.0,r
2935.0,2971.0,2991.0,3568.0,4095.0,4095.0,3152.0,3535.0,-0.92,9.71,2.53,-0.07,-0.0,-0.04,1.0,r
2940.0,2957.0,3007.0,3573.0,4095.0,4095.0,3152.0,3527.0,-0.87,9.73,2.48,-0.07,-0.01,-0.03,1.0,r
2947.0,2954.0,2992.0,3578.0,4095.0,4095.0,3152.0,3518.0,-0.91,9.73,2.52,-0.06,0.0,-0.04,1.0,r
2938.0,2960.0,2991.0,3574.0,4095.0,4095.0,3159.0,3535.0,-0.85,9.71,2.63,-0.05,0.02,-0.03,1.0,r
2950.0,2946.0,2997.0,3568.0,4095.0,4095.0,3162.0,3545.0,-0.85,9.74,2.38,-0.04,0.0,-0.04,1.0,r
2955.0,2959.0,3006.0,3572.0,4095.0,4095.0,3175.0,3534.0,-0.81,9.71,2.61,-0.06,-0.02,-0.04,1.0,r
2960.0,2949.0,2991.0,3583.0,4095.0,4095.0,3166.0,3537.0,-0.94,9.73,2.49,-0.03,0.01,-0.05,1.0,r
2949.0,2960.0,3006.0,3555.0,4095.0,4095.0,3169.0,3535.0,-0.92,9.72,2.5,-0.07,-0.03,-0.05,1.0,r
2954.0,2958.0,2992.0,3567.0,4095.0,4095.0,3164.0,3547.0,-0.98,9.68,2.58,-0.06,0.01,-0.02,1.0,r
2946.0,2951.0,2992.0,3583.0,4095.0,4095.0,3167.0,3536.0,-0.86,9.72,2.47,-0.06,0.02,-0.03,1.0,r
2944.0,2955.0,2991.0,3577.0,4095.0,4095.0,3174.0,3541.0,-0.85,9.67,2.57,-0.06,-0.0,-0.04,1.0,r
2947.0,2955.0,2982.0,3574.0,4095.0,4095.0,3167.0,3525.0,-0.9,9.68,2.46,-0.06,-0.01,-0.04,1.0,r
2933.0,2949.0,2990.0,3582.0,4095.0,4095.0,3158.0,3527.0,-1.03,9.71,2.52,-0.1,0.02,-0.03,1.0,r
2946.0,2963.0,2986.0,3579.0,4095.0,4095.0,3159.0,3533.0,-0.96,9.74,2.52,-0.08,-0.0,-0.03,1.0,r
2947.0,2958.0,2976.0,3597.0,4095.0,4095.0,3171.0,3535.0,-0.94,9.74,2.47,-0.04,-0.01,-0.05,1.0,r
2944.0,2947.0,2991.0,3580.0,4095.0,4095.0,3152.0,3551.0,-0.94,9.69,2.6,-0.04,0.01,-0.04,1.0,r
2943.0,2943.0,2989.0,3605.0,4095.0,4095.0,3152.0,3536.0,-0.91,9.75,2.43,-0.05,0.01,-0.03,1.0,r
2945.0,3015.0,3003.0,3569.0,4095.0,4095.0,3163.0,3536.0,-0.91,9.67,2.6,-0.07,0.02,-0.03,1.0,r
2928.0,2960.0,2982.0,3583.0,4095.0,4095.0,3154.0,3541.0,-1.0,9.71,2.5,-0.03,0.03,-0.03,1.0,r
2937.0,2950.0,2982.0,3583.0,4095.0,4095.0,3159.0,3537.0,-0.84,9.68,2.5,-0.05,0.01,-0.04,1.0,r
2946.0,2957.0,2991.0,3583.0,4095.0,4095.0,3152.0,3527.0,-0.93,9.69,2.53,-0.08,0.02,-0.03,1.0,r
2937.0,2957.0,2991.0,3605.0,4095.0,4095.0,3155.0,3526.0,-0.89,9.74,2.4,-0.08,0.01,-0.03,1.0,r
2962.0,2950.0,2985.0,3583.0,4095.0,4095.0,3158.0,3517.0,-0.95,9.7,2.54,-0.07,-0.01,-0.02,1.0,r
2941.0,2952.0,3007.0,3614.0,4095.0,4095.0,3164.0,3525.0,-0.85,9.77,2.43,-0.06,0.01,-0.02,1.0,r
2935.0,2962.0,2992.0,3581.0,4095.0,4095.0,3155.0,3549.0,-0.9,9.74,2.49,-0.07,0.01,-0.03,1.0,r
2941.0,2954.0,3005.0,3599.0,4095.0,4095.0,3155.0,3528.0,-1.0,9.71,2.57,-0.07,0.0,-0.02,1.0,r
2943.0,2962.0,3001.0,3601.0,4095.0,4095.0,3163.0,3535.0,-0.87,9.75,2.49,-0.08,-0.01,-0.03,1.0,r
2929.0,2945.0,3002.0,3271.0,4095.0,4095.0,3267.0,3356.0,-0.89,9.76,2.43,-0.01,0.05,-0.02,1.0,r
2925.0,2951.0,2992.0,3278.0,4095.0,4095.0,3263.0,3419.0,-0.97,9.81,2.34,0.0,0.05,-0.07,1.0,r
2930.0,2957.0,3014.0,3286.0,4095.0,4095.0,3267.0,3430.0,-1.07,9.73,2.42,-0.06,0.0,-0.06,1.0,r
2925.0,2947.0,2998.0,3303.0,4095.0,4095.0,3271.0,3431.0,-0.99,9.65,2.29,-0.06,-0.0,-0.02,1.0,r
2932.0,2947.0,2992.0,3309.0,4095.0,4095.0,3261.0,3446.0,-0.96,9.67,2.38,-0.05,-0.02,-0.04,1.0,r
2928.0,2955.0,2995.0,3297.0,4095.0,4095.0,3267.0,3455.0,-1.08,9.68,2.42,-0.05,0.03,-0.03,1.0,r
2928.0,2959.0,3011.0,3297.0,4095.0,4095.0,3263.0,3461.0,-0.96,9.67,2.38,-0.07,0.03,-0.03,1.0,r
2941.0,2962.0,2997.0,3318.0,4095.0,4095.0,3266.0,3454.0,-1.01,9.79,2.34,-0.12,-0.02,-0.01,1.0,r
2939.0,2925.0,3015.0,3313.0,4095.0,4095.0,3263.0,3457.0,-1.02,9.73,2.31,-0.11,-0.04,-0.03,1.0,r
2926.0,2958.0,2993.0,3312.0,4095.0,4095.0,3281.0,3463.0,-0.98,9.7,2.57,-0.08,-0.01,-0.03,1.0,r
2931.0,2946.0,2994.0,3318.0,4095.0,4095.0,3273.0,3440.0,-0.97,9.74,2.38,-0.08,0.01,-0.02,1.0,r
2928.0,2956.0,2997.0,3325.0,4095.0,4095.0,3261.0,3454.0,-1.03,9.71,2.5,-0.09,0.01,-0.03,1.0,r
2928.0,2959.0,2993.0,3335.0,4095.0,4095.0,3263.0,3440.0,-0.95,9.71,2.5,-0.07,-0.01,-0.03,1.0,r
2929.0,2950.0,2997.0,3343.0,4095.0,4095.0,3252.0,3472.0,-0.99,9.68,2.51,-0.06,-0.0,-0.03,1.0,r
2929.0,2963.0,3001.0,3337.0,4095.0,4095.0,3262.0,3461.0,-1.02,9.75,2.47,-0.09,-0.0,-0.02,1.0,r
2930.0,2947.0,2999.0,3339.0,4095.0,4095.0,3262.0,3460.0,-1.09,9.76,2.43,-0.11,-0.01,-0.02,1.0,r
2931.0,2944.0,2992.0,3344.0,4095.0,4095.0,3271.0,3470.0,-1.02,9.71,2.57,-0.09,-0.02,-0.01,1.0,r
2929.0,2953.0,2991.0,3343.0,4095.0,4095.0,3258.0,3468.0,-0.96,9.78,2.41,-0.05,0.01,-0.02,1.0,r
2938.0,2959.0,2997.0,3345.0,4095.0,4095.0,3263.0,3456.0,-0.92,9.75,2.47,-0.08,-0.04,-0.03,1.0,r
2931.0,2951.0,2996.0,3365.0,4095.0,4095.0,3259.0,3459.0,-0.98,9.76,2.53,-0.06,-0.01,-0.03,1.0,r
2928.0,2950.0,2998.0,3367.0,4095.0,4095.0,3258.0,3465.0,-0.89,9.8,2.45,-0.05,-0.01,-0.03,1.0,r
2938.0,2957.0,2992.0,3360.0,4095.0,4095.0,3248.0,3477.0,-0.97,9.77,2.44,-0.05,-0.02,-0.05,1.0,r
2923.0,2991.0,2994.0,3363.0,4095.0,4095.0,3267.0,3471.0,-1.03,9.67,2.58,-0.06,-0.02,-0.04,1.0,r
2931.0,2959.0,3003.0,3359.0,4095.0,4095.0,3266.0,3484.0,-0.98,9.69,2.53,-0.04,0.0,-0.03,1.0,r
2935.0,2949.0,2994.0,3372.0,4095.0,4095.0,3277.0,3472.0,-0.92,9.81,2.4,-0.06,-0.02,-0.03,1.0,r
2927.0,2951.0,3008.0,3374.0,4095.0,4095.0,3264.0,3471.0,-1.01,9.73,2.52,-0.06,-0.0,-0.03,1.0,r
2928.0,2941.0,2994.0,3381.0,4095.0,4095.0,3266.0,3489.0,-0.93,9.78,2.5,-0.07,0.02,-0.03,1.0,r
2928.0,2953.0,2983.0,3374.0,4095.0,4095.0,3280.0,3483.0,-0.95,9.76,2.56,-0.05,-0.0,-0.03,1.0,r
2930.0,2955.0,3008.0,3376.0,4095.0,4095.0,3271.0,3472.0,-0.96,9.81,2.47,-0.05,0.0,-0.04,1.0,r
2934.0,2947.0,3006.0,3378.0,4095.0,4095.0,3264.0,3474.0,-0.92,9.68,2.59,-0.04,0.0,-0.04,1.0,r
2919.0,2953.0,2989.0,3376.0,4095.0,4095.0,3255.0,3467.0,-0.91,9.73,2.44,-0.04,0.03,-0.03,1.0,r
2933.0,2939.0,3002.0,3383.0,4095.0,4095.0,3279.0,3487.0,-0.92,9.72,2.5,-0.06,0.01,-0.05,1.0,r
2935.0,2971.0,3003.0,3373.0,4095.0,4095.0,3277.0,3471.0,-0.92,9.69,2.63,-0.07,0.0,-0.02,1.0,r
2928.0,2979.0,2992.0,3376.0,4095.0,4095.0,3266.0,3479.0,-0.84,9.74,2.47,-0.06,-0.0,-0.04,1.0,r
2926.0,2950.0,2999.0,3381.0,4095.0,4095.0,3282.0,3488.0,-0.96,9.68,2.58,-0.07,-0.01,-0.05,1.0,r
2934.0,2949.0,2999.0,3373.0,4095.0,4095.0,3271.0,3491.0,-0.95,9.67,2.52,-0.06,-0.02,-0.03,1.0,r
2938.0,2959.0,3003.0,3373.0,4095.0,4095.0,3268.0,3474.0,-0.91,9.65,2.56,-0.07,-0.01,-0.04,1.0,r
2917.0,2951.0,2997.0,3391.0,4095.0,4095.0,3266.0,3495.0,-0.93,9.72,2.5,-0.07,-0.01,-0.03,1.0,r
2939.0,2960.0,2995.0,3380.0,4095.0,4095.0,3255.0,3486.0,-0.94,9.71,2.47,-0.08,-0.01,-0.03,1.0,r
2928.0,2960.0,2998.0,3397.0,4095.0,4095.0,3266.0,3473.0,-0.89,9.72,2.56,-0.05,0.0,-0.03,1.0,r
2953.0,2944.0,2997.0,3477.0,4095.0,4095.0,3138.0,3571.0,-1.13,9.74,2.53,-0.05,0.01,-0.03,1.0,r
2947.0,2960.0,2991.0,3477.0,4095.0,4095.0,3139.0,3570.0,-1.16,9.72,2.58,-0.05,0.01,-0.01,1.0,r
2949.0,2961.0,2995.0,3475.0,4095.0,4095.0,3147.0,3567.0,-1.16,9.68,2.57,-0.08,-0.0,-0.01,1.0,r
2951.0,2953.0,2991.0,3477.0,4095.0,4095.0,3145.0,3571.0,-1.02,9.76,2.59,-0.03,-0.0,-0.03,1.0,r
2930.0,2965.0,2986.0,3487.0,4095.0,4095.0,3146.0,3566.0,-1.07,9.77,2.49,-0.05,0.01,-0.02,1.0,r
2950.0,2951.0,2976.0,3504.0,4095.0,4095.0,3152.0,3568.0,-1.04,9.65,2.57,-0.02,0.0,-0.02,1.0,r
2956.0,2949.0,2975.0,3485.0,4095.0,4095.0,3134.0,3567.0,-1.03,9.64,2.55,-0.02,0.04,-0.03,1.0,r
2949.0,2959.0,2987.0,3488.0,4095.0,4095.0,3152.0,3567.0,-1.07,9.7,2.46,-0.05,0.01,-0.03,1.0,r
2949.0,2950.0,2979.0,3484.0,4095.0,4095.0,3135.0,3554.0,-1.08,9.71,2.47,-0.04,0.01,-0.03,1.0,r
2945.0,2947.0,2981.0,3483.0,4095.0,4095.0,3152.0,3567.0,-1.06,9.69,2.44,-0.01,0.1,-0.0,1.0,r
2960.0,2959.0,2976.0,3507.0,4095.0,4095.0,3140.0,3574.0,-1.02,9.72,2.55,-0.05,0.03,-0.03,1.0,r
2949.0,2957.0,2996.0,3521.0,4095.0,4095.0,3138.0,3555.0,-0.99,9.78,2.39,-0.09,-0.01,-0.03,1.0,r
2943.0,2958.0,2981.0,3515.0,4095.0,4095.0,3147.0,3568.0,-0.9,9.73,2.62,-0.06,0.0,-0.04,1.0,r
2931.0,2947.0,2992.0,3507.0,4095.0,4095.0,3139.0,3568.0,-0.89,9.7,2.66,-0.05,0.01,-0.02,1.0,r
2944.0,2963.0,2992.0,3509.0,4095.0,4095.0,3146.0,3568.0,-0.83,9.69,2.6,-0.03,0.01,-0.04,1.0,r
2948.0,2960.0,2993.0,3526.0,4095.0,4095.0,3145.0,3568.0,-0.9,9.72,2.55,-0.02,0.02,-0.05,1.0,r
2942.0,2959.0,2999.0,3531.0,4095.0,4095.0,3137.0,3567.0,-0.87,9.68,2.57,-0.04,-0.0,-0.05,1.0,r
2943.0,2951.0,2988.0,3519.0,4095.0,4095.0,3146.0,3567.0,-0.93,9.75,2.49,-0.04,0.02,-0.04,1.0,r
2947.0,2949.0,2983.0,3536.0,4095.0,4095.0,3143.0,3578.0,-0.88,9.73,2.53,-0.08,-0.0,-0.03,1.0,r
2938.0,2960.0,2991.0,3519.0,4095.0,4095.0,3141.0,3568.0,-0.92,9.68,2.54,-0.09,0.01,-0.04,1.0,r
2946.0,2959.0,2979.0,3532.0,4095.0,4095.0,3136.0,3555.0,-0.96,9.74,2.53,-0.08,-0.01,-0.02,1.0,r
2949.0,2960.0,2991.0,3521.0,4095.0,4095.0,3139.0,3575.0,-0.97,9.74,2.51,-0.07,0.0,-0.04,1.0,r
2949.0,2963.0,2998.0,3536.0,4095.0,4095.0,3139.0,3569.0,-1.03,9.71,2.6,-0.05,0.01,-0.04,1.0,r
2957.0,2949.0,2974.0,3543.0,4095.0,4095.0,3139.0,3570.0,-0.93,9.67,2.65,-0.05,0.01,-0.05,1.0,r
2939.0,2947.0,2991.0,3536.0,4095.0,4095.0,3137.0,3554.0,-0.92,9.69,2.52,-0.08,0.01,-0.02,1.0,r
2939.0,2963.0,2992.0,3538.0,4095.0,4095.0,3151.0,3566.0,-0.98,9.72,2.47,-0.09,0.01,-0.03,1.0,r
2943.0,2958.0,2991.0,3554.0,4095.0,4095.0,3143.0,3570.0,-0.97,9.64,2.66,-0.07,-0.0,-0.04,1.0,r
2939.0,2956.0,2989.0,3534.0,4095.0,4095.0,3134.0,3557.0,-0.92,9.69,2.54,-0.07,-0.0,-0.02,1.0,r
2950.0,2959.0,2982.0,3536.0,4095.0,4095.0,3142.0,3568.0,-0.98,9.7,2.52,-0.09,-0.03,-0.02,1.0,r
2946.0,2955.0,2992.0,3521.0,4095.0,4095.0,3141.0,3563.0,-0.97,9.69,2.63,-0.06,-0.02,-0.03,1.0,r
2939.0,2953.0,2993.0,3520.0,4095.0,4095.0,3141.0,3555.0,-0.95,9.69,2.59,-0.06,-0.01,-0.03,1.0,r
2943.0,2954.0,2973.0,3542.0,4095.0,4095.0,3142.0,3558.0,-1.01,9.73,2.59,-0.06,0.03,-0.03,1.0,r
2942.0,2958.0,2982.0,3531.0,4095.0,4095.0,3147.0,3573.0,-0.98,9.72,2.63,-0.07,-0.01,-0.04,1.0,r
2945.0,2960.0,2979.0,3545.0,4095.0,4095.0,3147.0,3571.0,-0.98,9.69,2.61,-0.04,0.02,-0.02,1.0,r
2941.0,2955.0,2992.0,3554.0,4095.0,4095.0,3136.0,3559.0,-0.91,9.73,2.51,-0.06,0.01,-0.03,1.0,r
2949.0,2962.0,2975.0,3537.0,4095.0,4095.0,3152.0,3563.0,-0.95,9.69,2.65,-0.08,0.01,-0.01,1.0,r
2944.0,2953.0,2986.0,3526.0,4095.0,4095.0,3145.0,3545.0,-0.94,9.75,2.53,-0.08,-0.02,-0.02,1.0,r
2933.0,2947.0,2991.0,3535.0,4095.0,4095.0,3120.0,3567.0,-0.91,9.72,2.68,-0.06,-0.01,-0.03,1.0,r
2946.0,2951.0,2990.0,3540.0,4095.0,4095.0,3125.0,3542.0,-0.83,9.76,2.68,-0.01,0.01,-0.04,1.0,r
2940.0,2957.0,2983.0,3546.0,4095.0,4095.0,3139.0,3547.0,-0.81,9.74,2.58,-0.05,0.02,-0.04,1.0,r
2951.0,2947.0,2993.0,3427.0,4095.0,4095.0,3137.0,3401.0,-1.16,9.79,2.29,-0.05,-0.01,-0.0,1.0,r
2950.0,2960.0,2996.0,3423.0,4095.0,4095.0,3140.0,3390.0,-1.06,9.74,2.36,-0.0,-0.03,-0.03,1.0,r
2945.0,2960.0,2985.0,3431.0,4095.0,4095.0,3146.0,3403.0,-1.14,9.76,2.26,-0.06,0.03,-0.03,1.0,r
2939.0,2949.0,3002.0,3452.0,4095.0,4095.0,3142.0,3409.0,-1.12,9.78,2.34,-0.04,0.01,-0.03,1.0,r
2938.0,2947.0,3001.0,3454.0,4095.0,4095.0,3142.0,3401.0,-0.98,9.8,2.25,-0.05,-0.01,-0.03,1.0,r
2933.0,2957.0,3005.0,3440.0,4095.0,4095.0,3139.0,3408.0,-1.18,9.69,2.31,-0.08,-0.04,-0.02,1.0,r
2955.0,2966.0,2995.0,3444.0,4095.0,4095.0,3152.0,3408.0,-1.14,9.76,2.35,-0.06,0.02,-0.02,1.0,r
2937.0,2954.0,2992.0,3457.0,4095.0,4095.0,3151.0,3408.0,-1.05,9.77,2.28,-0.04,-0.02,-0.04,1.0,r
2943.0,2962.0,3007.0,3468.0,4095.0,4095.0,3150.0,3409.0,-1.19,9.79,2.33,-0.03,-0.01,-0.04,1.0,r
2937.0,2946.0,2995.0,3469.0,4095.0,4095.0,3152.0,3415.0,-1.08,9.76,2.32,-0.07,-0.02,-0.03,1.0,r
2942.0,2953.0,2995.0,3454.0,4095.0,4095.0,3149.0,3415.0,-1.05,9.75,2.42,-0.06,-0.01,-0.03,1.0,r
2940.0,2954.0,2993.0,3449.0,4095.0,4095.0,3157.0,3409.0,-1.13,9.78,2.28,-0.03,-0.08,-0.05,1.0,r
2949.0,2959.0,3005.0,3455.0,4095.0,4095.0,3147.0,3428.0,-1.15,9.69,2.38,-0.11,0.02,-0.01,1.0,r
2933.0,2963.0,3005.0,3471.0,4095.0,4095.0,3165.0,3419.0,-0.97,9.73,2.47,-0.04,0.01,-0.03,1.0,r
2944.0,2947.0,3003.0,3465.0,4095.0,4095.0,3152.0,3438.0,-0.95,9.8,2.34,-0.07,0.0,-0.03,1.0,r
2937.0,2946.0,3008.0,3455.0,4095.0,4095.0,3153.0,3431.0,-1.02,9.8,2.38,-0.06,0.01,-0.03,1.0,r
2953.0,2973.0,2994.0,3463.0,4095.0,4095.0,3151.0,3423.0,-1.02,9.84,2.32,-0.08,0.0,-0.03,1.0,r
2969.0,2949.0,3001.0,3461.0,4095.0,4095.0,3152.0,3429.0,-0.95,9.74,2.52,-0.06,0.01,-0.05,1.0,r
2935.0,2956.0,2992.0,3455.0,4095.0,4095.0,3152.0,3418.0,-0.95,9.79,2.36,-0.05,0.01,-0.03,1.0,r
2945.0,2964.0,2998.0,3463.0,4095.0,4095.0,3159.0,3415.0,-1.04,9.71,2.39,-0.12,-0.02,-0.04,1.0,r
2939.0,2947.0,3002.0,3459.0,4095.0,4095.0,3151.0,3428.0,-1.03,9.73,2.45,-0.07,-0.0,-0.03,1.0,r
2938.0,2963.0,2992.0,3470.0,4095.0,4095.0,3161.0,3429.0,-0.94,9.74,2.41,-0.05,-0.01,-0.04,1.0,r
2947.0,2954.0,3003.0,3471.0,4095.0,4095.0,3151.0,3435.0,-1.04,9.72,2.48,-0.03,-0.0,-0.05,1.0,r
2928.0,2960.0,2992.0,3475.0,4095.0,4095.0,3152.0,3440.0,-0.95,9.77,2.4,-0.04,0.0,-0.04,1.0,r
2947.0,2946.0,2999.0,3456.0,4095.0,4095.0,3158.0,3427.0,-0.95,9.68,2.49,-0.04,0.0,-0.04,1.0,r
2943.0,2964.0,3003.0,3471.0,4095.0,4095.0,3150.0,3438.0,-1.01,9.68,2.37,-0.06,0.01,-0.03,1.0,r
2930.0,2949.0,3007.0,3459.0,4095.0,4095.0,3154.0,3441.0,-1.12,9.72,2.42,-0.07,0.01,-0.04,1.0,r
2933.0,2946.0,2991.0,3474.0,4095.0,4095.0,3152.0,3453.0,-1.05,9.76,2.4,-0.04,-0.01,-0.03,1.0,r
2937.0,2950.0,2988.0,3459.0,4095.0,4095.0,3151.0,3439.0,-0.98,9.7,2.46,-0.05,-0.0,-0.04,1.0,r
2943.0,2958.0,2998.0,3474.0,4095.0,4095.0,3152.0,3440.0,-1.0,9.72,2.5,-0.03,-0.0,-0.04,1.0,r
2958.0,2953.0,2993.0,3470.0,4095.0,4095.0,3158.0,3438.0,-0.97,9.72,2.36,-0.06,0.01,-0.03,1.0,r
2935.0,2945.0,2992.0,3472.0,4095.0,4095.0,3146.0,3431.0,-1.04,9.72,2.47,-0.07,0.01,-0.03,1.0,r
2930.0,2950.0,2999.0,3467.0,4095.0,4095.0,3152.0,3423.0,-0.97,9.72,2.35,-0.08,0.01,-0.03,1.0,r
2944.0,2954.0,3004.0,3463.0,4095.0,4095.0,3154.0,3438.0,-1.04,9.68,2.53,-0.08,0.0,-0.03,1.0,r
2933.0,2965.0,3004.0,3477.0,4095.0,4095.0,3163.0,3445.0,-1.0,9.71,2.42,-0.08,-0.01,-0.02,1.0,r
2945.0,2950.0,2994.0,3470.0,4095.0,4095.0,3166.0,3445.0,-1.0,9.72,2.43,-0.08,0.01,-0.03,1.0,r
2938.0,2960.0,3007.0,3471.0,4095.0,4095.0,3158.0,3441.0,-1.06,9.69,2.5,-0.08,-0.01,-0.02,1.0,r
2946.0,2958.0,2978.0,3470.0,4095.0,4095.0,3152.0,3447.0,-1.04,9.75,2.4,-0.08,0.0,-0.03,1.0,r
2939.0,2959.0,3005.0,3477.0,4095.0,4095.0,3152.0,3444.0,-1.02,9.76,2.5,-0.08,-0.01,-0.03,1.0,r
2934.0,2944.0,3002.0,3475.0,4095.0,4095.0,3153.0,3453.0,-1.01,9.77,2.42,-0.06,-0.02,-0.03,1.0,r
2935.0,2961.0,3029.0,3248.0,4095.0,4095.0,3210.0,3051.0,-0.88,9.48,3.36,0.04,-0.01,-0.17,1.0,r
2942.0,2957.0,3017.0,3251.0,4095.0,4095.0,3172.0,3044.0,-1.03,9.45,3.2,0.07,0.03,-0.15,1.0,r
2935.0,2961.0,3023.0,3261.0,4095.0,4095.0,3171.0,3059.0,-1.24,9.49,2.94,0.05,0.03,-0.09,1.0,r
2937.0,2965.0,3030.0,3264.0,4095.0,4095.0,3174.0,3052.0,-0.98,9.7,2.84,-0.12,0.04,-0.06,1.0,r
2931.0,2973.0,3024.0,3261.0,4095.0,4095.0,3165.0,3059.0,-1.29,9.49,3.04,0.01,0.06,-0.07,1.0,r
2927.0,2949.0,3031.0,3274.0,4095.0,4095.0,3173.0,3065.0,-1.26,9.53,2.91,-0.14,-0.06,-0.06,1.0,r
2939.0,2961.0,3022.0,3279.0,4095.0,4095.0,3169.0,3083.0,-1.01,9.44,3.32,-0.15,-0.04,-0.03,1.0,r
2940.0,2946.0,3024.0,3280.0,4095.0,4095.0,3175.0,3083.0,-1.24,9.4,3.34,-0.04,-0.05,-0.09,1.0,r
2935.0,2958.0,3019.0,3291.0,4095.0,4095.0,3168.0,3088.0,-1.36,9.45,3.11,-0.07,-0.02,-0.04,1.0,r
2940.0,2961.0,3024.0,3298.0,4095.0,4095.0,3172.0,3093.0,-1.21,9.56,2.89,0.03,0.04,-0.03,1.0,r
2933.0,2967.0,3023.0,3279.0,4095.0,4095.0,3167.0,3089.0,-1.3,9.45,2.9,-0.18,-0.0,-0.05,1.0,r
2939.0,2953.0,3018.0,3329.0,4095.0,4095.0,3174.0,3098.0,-1.28,9.63,2.64,-0.17,0.19,0.08,1.0,r
2932.0,2955.0,3029.0,3305.0,4095.0,4095.0,3158.0,3091.0,-1.3,9.6,3.0,-0.12,0.05,-0.03,1.0,r
2928.0,2949.0,3027.0,3355.0,4095.0,4095.0,3166.0,3090.0,-1.21,9.56,3.2,-0.09,0.02,-0.01,1.0,r
2938.0,2962.0,3027.0,3360.0,4095.0,4095.0,3158.0,3098.0,-0.93,9.58,3.22,-0.13,0.0,-0.07,1.0,r
2939.0,2955.0,3023.0,3356.0,4095.0,4095.0,3174.0,3088.0,-1.43,9.4,3.32,-0.12,0.04,-0.02,1.0,r
2935.0,2955.0,3019.0,3373.0,4095.0,4095.0,3175.0,3107.0,-1.03,9.35,3.56,-0.02,0.07,-0.01,1.0,r
2938.0,2960.0,3025.0,3371.0,4095.0,4095.0,3167.0,3088.0,-1.26,9.53,2.99,-0.12,-0.04,-0.03,1.0,r
2932.0,2965.0,3025.0,3374.0,4095.0,4095.0,3170.0,3101.0,-1.39,9.45,3.3,-0.07,0.02,-0.05,1.0,r
2943.0,2899.0,3010.0,3369.0,4095.0,4095.0,3184.0,3103.0,-1.3,9.5,3.15,-0.05,0.0,-0.02,1.0,r
2947.0,3005.0,3023.0,3353.0,4095.0,4095.0,3171.0,3104.0,-1.2,9.49,3.21,-0.03,-0.04,-0.02,1.0,r
2928.0,2960.0,3022.0,3319.0,4095.0,4095.0,3174.0,3106.0,-1.27,9.48,3.2,-0.0,0.01,-0.05,1.0,r
2933.0,2960.0,3022.0,3333.0,4095.0,4095.0,3190.0,3114.0,-1.39,9.55,3.04,-0.04,0.02,-0.05,1.0,r
2928.0,2953.0,3024.0,3335.0,4095.0,4095.0,3179.0,3105.0,-1.45,9.47,3.09,-0.09,0.0,-0.05,1.0,r
2938.0,2959.0,3026.0,3324.0,4095.0,4095.0,3171.0,3120.0,-1.25,9.53,3.16,-0.03,0.04,-0.07,1.0,r
2928.0,2946.0,3023.0,3312.0,4095.0,4095.0,3173.0,3110.0,-1.44,9.42,3.19,0.08,0.01,-0.1,1.0,r
2931.0,2958.0,3024.0,3302.0,4095.0,4095.0,3204.0,3120.0,-1.6,9.45,2.95,-0.04,-0.01,-0.03,1.0,r
2932.0,2955.0,3018.0,3307.0,4095.0,4095.0,3183.0,3117.0,-1.47,9.51,2.9,-0.04,0.08,0.08,1.0,r
2930.0,2944.0,3018.0,3314.0,4095.0,4095.0,3203.0,3121.0,-0.81,9.53,3.26,0.01,0.07,-0.01,1.0,r
2929.0,2959.0,3024.0,3323.0,4095.0,4095.0,3187.0,3117.0,-1.24,9.6,2.85,-0.12,0.02,-0.03,1.0,r
2944.0,2953.0,3030.0,3319.0,4095.0,4095.0,3193.0,3107.0,-1.39,9.55,2.99,-0.11,0.04,-0.02,1.0,r
2945.0,2944.0,3010.0,3307.0,4095.0,4095.0,3195.0,3120.0,-1.24,9.61,2.86,-0.04,0.05,0.01,1.0,r
2944.0,2983.0,3024.0,3321.0,4095.0,4095.0,3195.0,3114.0,-1.22,9.52,3.21,-0.03,0.03,0.0,1.0,r
2934.0,2954.0,3015.0,3331.0,4095.0,4095.0,3191.0,3118.0,-1.02,9.54,3.16,-0.04,0.01,-0.04,1.0,r
2935.0,2975.0,3025.0,3330.0,4095.0,4095.0,3201.0,3129.0,-1.16,9.5,3.07,-0.03,-0.01,-0.05,1.0,r
2935.0,2958.0,3019.0,3339.0,4095.0,4095.0,3201.0,3124.0,-1.04,9.61,2.93,-0.02,-0.02,0.02,1.0,r
2931.0,2960.0,3030.0,3329.0,4095.0,4095.0,3197.0,3120.0,-1.1,9.51,3.07,-0.04,0.02,-0.01,1.0,r
2931.0,2964.0,3013.0,3332.0,4095.0,4095.0,3200.0,3120.0,-1.11,9.51,3.0,-0.08,-0.03,-0.04,1.0,r
2935.0,2975.0,3015.0,3335.0,4095.0,4095.0,3199.0,3134.0,-1.03,9.6,2.9,-0.09,-0.02,-0.04,1.0,r
2939.0,2956.0,3024.0,3327.0,4095.0,4095.0,3202.0,3120.0,-1.17,9.52,3.1,-0.07,-0.03,-0.07,1.0,r
2928.0,2960.0,3039.0,3194.0,4095.0,4095.0,3280.0,3185.0,-0.94,9.54,3.21,-0.12,-0.05,0.02,1.0,r
2928.0,2960.0,3012.0,3216.0,4095.0,4095.0,3274.0,3184.0,-0.93,9.65,3.05,-0.07,-0.01,-0.05,1.0,r
2931.0,2951.0,3023.0,3213.0,4095.0,4095.0,3275.0,3187.0,-0.8,9.39,3.19,-0.06,-0.03,-0.07,1.0,r
2950.0,2963.0,3005.0,3230.0,4095.0,4095.0,3251.0,3196.0,-0.98,9.42,3.04,-0.09,0.0,-0.04,1.0,r
2930.0,2956.0,3024.0,3230.0,4095.0,4095.0,3255.0,3183.0,-0.94,9.52,3.13,-0.05,0.06,-0.0,1.0,r
2931.0,2955.0,3011.0,3222.0,4095.0,4095.0,3266.0,3184.0,-0.91,9.5,3.33,-0.08,-0.01,-0.04,1.0,r
2949.0,2960.0,3007.0,3242.0,4095.0,4095.0,3276.0,3189.0,-0.89,9.53,3.31,-0.03,0.05,-0.04,1.0,r
2925.0,2963.0,3027.0,3249.0,4095.0,4095.0,3259.0,3189.0,-0.95,9.54,3.07,-0.07,-0.01,0.01,1.0,r
2923.0,2976.0,3024.0,3248.0,4095.0,4095.0,3278.0,3199.0,-0.63,9.67,2.96,-0.02,-0.0,-0.05,1.0,r
2930.0,2962.0,3014.0,3248.0,4095.0,4095.0,3267.0,3197.0,-0.9,9.62,2.99,-0.11,-0.06,-0.03,1.0,r
2941.0,2992.0,3009.0,3249.0,4095.0,4095.0,3278.0,3201.0,-0.96,9.56,3.18,-0.06,-0.01,-0.02,1.0,r
2939.0,2992.0,3024.0,3258.0,4095.0,4095.0,3274.0,3191.0,-0.89,9.59,3.02,-0.05,-0.02,-0.05,1.0,r
2939.0,2951.0,3024.0,3270.0,4095.0,4095.0,3274.0,3202.0,-0.88,9.53,3.07,-0.15,-0.05,-0.05,1.0,r
2928.0,2957.0,3011.0,3270.0,4095.0,4095.0,3274.0,3187.0,-0.87,9.56,3.07,-0.12,0.02,-0.02,1.0,r
2928.0,2950.0,3019.0,3255.0,4095.0,4095.0,3266.0,3186.0,-0.92,9.56,3.18,-0.08,0.03,-0.04,1.0,r
2946.0,2957.0,3014.0,3271.0,4095.0,4095.0,3263.0,3191.0,-1.04,9.55,2.82,-0.22,0.02,-0.1,1.0,r
2934.0,2960.0,3019.0,3262.0,4095.0,4095.0,3283.0,3194.0,-1.23,9.45,3.22,-0.16,-0.03,-0.04,1.0,r
2931.0,2970.0,3008.0,3274.0,4095.0,4095.0,3274.0,3194.0,-1.07,9.49,3.07,-0.12,-0.05,-0.02,1.0,r
2919.0,2967.0,3021.0,3270.0,4095.0,4095.0,3277.0,3199.0,-0.96,9.58,3.16,-0.08,-0.02,-0.05,1.0,r
2926.0,2959.0,3015.0,3270.0,4095.0,4095.0,3269.0,3198.0,-0.98,9.51,3.33,-0.11,-0.02,-0.02,1.0,r
2938.0,2950.0,3008.0,3254.0,4095.0,4095.0,3286.0,3196.0,-1.01,9.47,3.4,-0.06,0.02,-0.03,1.0,r
2944.0,2857.0,3017.0,3266.0,4095.0,4095.0,3280.0,3209.0,-0.98,9.49,3.26,-0.07,-0.01,-0.06,1.0,r
2937.0,3087.0,3023.0,3251.0,4095.0,4095.0,3267.0,3200.0,-1.16,9.52,3.17,-0.1,-0.01,-0.04,1.0,r
2945.0,2966.0,3009.0,3275.0,4095.0,4095.0,3281.0,3203.0,-1.11,9.48,3.34,-0.09,0.04,0.0,1.0,r
2943.0,2960.0,3022.0,3266.0,4095.0,4095.0,3266.0,3214.0,-0.95,9.51,3.3,-0.06,0.02,-0.01,1.0,r
2935.0,3025.0,3035.0,3262.0,4095.0,4095.0,3278.0,3203.0,-0.97,9.48,3.24,-0.09,-0.03,-0.03,1.0,r
2935.0,2970.0,3017.0,3258.0,4095.0,4095.0,3285.0,3221.0,-1.1,9.45,3.33,-0.1,-0.01,-0.02,1.0,r
2948.0,2966.0,3025.0,3252.0,4095.0,4095.0,3276.0,3210.0,-1.01,9.49,3.25,-0.09,0.0,-0.02,1.0,r
2931.0,2955.0,3017.0,3264.0,4095.0,4095.0,3278.0,3219.0,-1.01,9.54,3.28,-0.11,-0.02,-0.02,1.0,r
2930.0,2960.0,3015.0,3259.0,4095.0,4095.0,3265.0,3210.0,-0.97,9.55,3.27,-0.12,-0.01,-0.02,1.0,r
2935.0,2953.0,3013.0,3270.0,4095.0,4095.0,3280.0,3200.0,-0.99,9.44,3.46,-0.1,-0.02,-0.04,1.0,r
2928.0,2949.0,3024.0,3264.0,4095.0,4095.0,3280.0,3207.0,-0.97,9.48,3.42,-0.05,0.01,-0.04,1.0,r
2946.0,2958.0,3008.0,3259.0,4095.0,4095.0,3294.0,3213.0,-0.97,9.48,3.33,-0.1,-0.01,-0.02,1.0,r
2933.0,2958.0,3017.0,3264.0,4095.0,4095.0,3271.0,3216.0,-1.03,9.53,3.47,0.01,0.03,0.05,1.0,r
2939.0,2960.0,3024.0,3259.0,4095.0,4095.0,3271.0,3205.0,-0.91,9.52,3.33,-0.1,-0.01,-0.01,1.0,r
2931.0,2960.0,3015.0,3273.0,4095.0,4095.0,3279.0,3218.0,-0.79,9.47,3.48,-0.08,0.01,-0.02,1.0,r
2933.0,2960.0,3011.0,3273.0,4095.0,4095.0,3280.0,3218.0,-0.91,9.42,3.5,-0.08,0.08,0.01,1.0,r
2938.0,2969.0,3014.0,3274.0,4095.0,4095.0,3275.0,3205.0,-0.84,9.46,3.41,-0.03,0.02,-0.0,1.0,r
2931.0,2959.0,3024.0,3269.0,4095.0,4095.0,3285.0,3205.0,-0.68,9.52,3.41,-0.1,-0.05,0.02,1.0,r
2943.0,2959.0,3015.0,3273.0,4095.0,4095.0,3280.0,3202.0,-1.18,9.31,3.47,-0.07,0.0,0.02,1.0,r
2949.0,2960.0,3005.0,3246.0,4095.0,4095.0,3225.0,3203.0,-1.55,9.4,3.46,-0.1,0.03,0.02,1.0,r
2943.0,2959.0,3009.0,3263.0,4095.0,4095.0,3222.0,3211.0,-1.43,9.21,3.81,-0.01,0.02,-0.03,1.0,r
2926.0,3011.0,3002.0,3263.0,4095.0,4095.0,3233.0,3201.0,-1.41,9.25,3.61,-0.06,0.02,-0.02,1.0,r
2934.0,2989.0,3003.0,3269.0,4095.0,4095.0,3227.0,3195.0,-1.56,9.33,3.48,-0.1,-0.01,-0.03,1.0,r
2935.0,2971.0,3002.0,3267.0,4095.0,4095.0,3233.0,3210.0,-1.47,9.3,3.6,-0.06,-0.03,-0.03,1.0,r
2934.0,2975.0,2998.0,3274.0,4095.0,4095.0,3234.0,3207.0,-1.32,9.34,3.71,-0.02,0.03,-0.01,1.0,r
2954.0,2960.0,2995.0,3251.0,4095.0,4095.0,3228.0,3216.0,-1.41,9.35,3.68,-0.07,-0.01,-0.05,1.0,r
2944.0,2958.0,3007.0,3265.0,4095.0,4095.0,3234.0,3202.0,-1.36,9.3,3.73,-0.07,-0.02,-0.08,1.0,r
2945.0,2965.0,3008.0,3282.0,4095.0,4095.0,3248.0,3221.0,-1.43,9.27,3.79,-0.04,0.01,-0.07,1.0,r
2939.0,2964.0,2996.0,3296.0,4095.0,4095.0,3242.0,3218.0,-1.56,9.27,3.74,-0.05,-0.02,-0.04,1.0,r
2934.0,3017.0,3002.0,3297.0,4095.0,4095.0,3249.0,3219.0,-1.45,9.29,3.72,-0.01,-0.03,-0.04,1.0,r
2942.0,2962.0,3009.0,3301.0,4095.0,4095.0,3251.0,3222.0,-1.44,9.34,3.54,-0.09,-0.02,-0.04,1.0,r
2944.0,2960.0,3007.0,3319.0,4095.0,4095.0,3251.0,3225.0,-1.53,9.23,3.69,-0.08,-0.04,-0.05,1.0,r
2940.0,2969.0,2999.0,3312.0,4095.0,4055.0,3248.0,3230.0,-1.59,9.39,3.61,-0.03,0.1,0.02,1.0,r
2944.0,2970.0,2997.0,3305.0,4095.0,4016.0,3258.0,3223.0,-1.44,9.34,3.65,0.05,0.08,-0.04,1.0,r
2928.0,2954.0,2999.0,3313.0,4095.0,4029.0,3241.0,3234.0,-1.34,9.39,3.63,-0.14,-0.02,0.03,1.0,r
2933.0,2959.0,3006.0,3344.0,4095.0,4017.0,3239.0,3223.0,-1.42,9.38,3.7,-0.04,0.0,-0.01,1.0,r
2943.0,2963.0,3009.0,3333.0,4095.0,4047.0,3223.0,3226.0,-1.41,9.36,3.52,-0.06,-0.01,-0.02,1.0,r
2933.0,2953.0,3008.0,3339.0,4095.0,4046.0,3222.0,3233.0,-1.43,9.49,3.42,-0.09,-0.03,-0.03,1.0,r
2931.0,2955.0,2993.0,3331.0,4095.0,4058.0,3244.0,3238.0,-1.38,9.4,3.52,-0.13,-0.08,-0.01,1.0,r
2943.0,2949.0,3002.0,3349.0,4095.0,4057.0,3235.0,3227.0,-1.33,9.33,3.53,-0.09,-0.02,-0.03,1.0,r
2929.0,2950.0,3003.0,3367.0,4095.0,4055.0,3237.0,3242.0,-1.23,9.36,3.71,-0.1,0.04,-0.02,1.0,r
2939.0,2962.0,3009.0,3345.0,4095.0,4057.0,3238.0,3241.0,-1.24,9.29,3.76,-0.07,-0.03,-0.05,1.0,r
2934.0,2960.0,3007.0,3355.0,4095.0,4068.0,3231.0,3242.0,-1.39,9.26,3.72,-0.06,0.0,-0.04,1.0,r
2928.0,2960.0,2991.0,3354.0,4095.0,4067.0,3232.0,3233.0,-1.27,9.29,3.72,-0.07,-0.01,-0.03,1.0,r
2922.0,2961.0,3010.0,3347.0,4095.0,4064.0,3238.0,3234.0,-1.29,9.32,3.72,-0.08,-0.01,-0.03,1.0,r
2939.0,2969.0,2997.0,3365.0,4095.0,4095.0,3241.0,3248.0,-1.22,9.28,3.67,-0.09,-0.02,-0.03,1.0,r
2939.0,2954.0,2995.0,3364.0,4095.0,4095.0,3234.0,3249.0,-1.21,9.27,3.78,-0.12,-0.03,-0.01,1.0,r
2945.0,2951.0,2999.0,3372.0,4095.0,4080.0,3237.0,3249.0,-1.28,9.29,3.72,-0.12,-0.03,-0.03,1.0,r
2941.0,2960.0,2995.0,3381.0,4095.0,4095.0,3226.0,3252.0,-1.29,9.3,3.79,-0.04,0.01,-0.03,1.0,r
2933.0,2965.0,3008.0,3355.0,4095.0,4078.0,3227.0,3248.0,-1.19,9.39,3.68,-0.04,0.0,-0.03,1.0,r
2939.0,2958.0,3007.0,3376.0,4095.0,4087.0,3245.0,3244.0,-1.24,9.32,3.74,-0.07,0.0,-0.03,1.0,r
2937.0,2960.0,3009.0,3377.0,4095.0,4090.0,3236.0,3258.0,-1.21,9.33,3.73,-0.08,-0.02,-0.03,1.0,r
2935.0,2965.0,3007.0,3357.0,4095.0,4095.0,3247.0,3255.0,-1.27,9.28,3.8,-0.08,0.0,-0.03,1.0,r
2933.0,2959.0,2999.0,3381.0,4095.0,4095.0,3229.0,3239.0,-1.12,9.27,3.83,-0.07,-0.01,-0.03,1.0,r
2943.0,2957.0,3009.0,3367.0,4095.0,4095.0,3248.0,3254.0,-1.2,9.28,3.79,-0.08,0.02,-0.03,1.0,r
2943.0,2958.0,3010.0,3365.0,4095.0,4080.0,3239.0,3263.0,-1.21,9.31,3.7,-0.07,0.01,-0.03,1.0,r
2942.0,2931.0,3009.0,3404.0,4095.0,4095.0,3226.0,3248.0,-1.13,9.33,3.77,-0.01,0.04,-0.05,1.0,r
2933.0,2960.0,2996.0,3403.0,4095.0,4085.0,3221.0,3248.0,-1.27,9.31,3.7,-0.03,0.0,-0.04,1.0,r
2928.0,2960.0,3006.0,3407.0,4095.0,4095.0,3227.0,3253.0,-1.13,9.38,3.58,-0.06,-0.01,-0.02,1.0,r
2945.0,2975.0,2998.0,3321.0,4095.0,4095.0,3227.0,3218.0,-1.3,9.22,3.87,-0.09,-0.04,-0.02,1.0,r
2933.0,2967.0,2992.0,3311.0,4095.0,4095.0,3232.0,3231.0,-1.37,9.22,3.86,-0.07,-0.02,-0.02,1.0,r
2942.0,2955.0,3017.0,3309.0,4095.0,4095.0,3227.0,3221.0,-1.3,9.2,3.85,-0.05,-0.03,-0.01,1.0,r
2937.0,2961.0,3005.0,3299.0,4095.0,4095.0,3233.0,3239.0,-1.22,9.29,3.79,-0.02,0.0,-0.03,1.0,r
2953.0,2966.0,3008.0,3280.0,4095.0,4095.0,3248.0,3231.0,-1.21,9.27,3.84,-0.08,-0.02,-0.03,1.0,r
2942.0,2960.0,3011.0,3282.0,4095.0,4095.0,3236.0,3240.0,-1.32,9.17,3.78,-0.1,0.0,-0.07,1.0,r
2933.0,2970.0,2995.0,3278.0,4095.0,4095.0,3247.0,3242.0,-1.38,9.17,4.05,-0.01,-0.0,-0.05,1.0,r
2951.0,2960.0,3006.0,3255.0,4095.0,4095.0,3237.0,3236.0,-1.36,9.28,3.86,-0.0,0.01,0.0,1.0,r
2945.0,2960.0,3005.0,3255.0,4095.0,4095.0,3227.0,3246.0,-1.16,9.36,3.73,0.01,0.03,-0.02,1.0,r
2938.0,2966.0,2994.0,3278.0,4095.0,4095.0,3248.0,3238.0,-1.19,9.22,3.95,-0.09,-0.03,-0.04,1.0,r
2936.0,2971.0,2999.0,3275.0,4095.0,4095.0,3246.0,3241.0,-1.34,9.3,3.8,-0.03,0.02,-0.05,1.0,r
2943.0,2962.0,2997.0,3291.0,4095.0,4095.0,3235.0,3247.0,-1.23,9.25,3.95,-0.06,-0.01,-0.04,1.0,r
2943.0,2970.0,3003.0,3290.0,4095.0,4095.0,3250.0,3239.0,-1.29,9.28,3.74,-0.07,0.0,-0.02,1.0,r
2939.0,2891.0,2999.0,3280.0,4095.0,4095.0,3253.0,3229.0,-1.22,9.24,3.85,-0.07,0.0,-0.04,1.0,r
2943.0,2957.0,2998.0,3292.0,4095.0,4095.0,3244.0,3242.0,-1.13,9.26,4.02,-0.04,-0.07,-0.09,1.0,r
2943.0,2961.0,3008.0,3307.0,4095.0,4095.0,3248.0,3239.0,-1.23,9.22,3.91,-0.05,-0.01,-0.04,1.0,r
2941.0,2979.0,3002.0,3299.0,4095.0,4095.0,3243.0,3233.0,-1.23,9.18,4.0,-0.07,0.01,-0.03,1.0,r
2928.0,2966.0,3019.0,3307.0,4095.0,4095.0,3255.0,3230.0,-1.25,9.21,3.94,-0.07,-0.0,-0.04,1.0,r
2945.0,2960.0,2999.0,3302.0,4095.0,4095.0,3254.0,3248.0,-1.22,9.26,3.8,-0.07,-0.0,-0.04,1.0,r
2944.0,2957.0,3009.0,3303.0,4095.0,4095.0,3243.0,3254.0,-1.26,9.26,3.74,-0.06,-0.0,-0.06,1.0,r
2949.0,2959.0,2992.0,3312.0,4095.0,4095.0,3248.0,3241.0,-1.43,9.2,3.81,-0.13,0.01,-0.04,1.0,r
2933.0,2946.0,3010.0,3315.0,4095.0,4095.0,3248.0,3246.0,-1.24,9.14,4.0,-0.1,-0.02,-0.03,1.0,r
2955.0,2951.0,3002.0,3318.0,4095.0,4095.0,3247.0,3251.0,-1.2,9.2,4.11,-0.03,0.01,-0.02,1.0,r
2945.0,2960.0,3004.0,3321.0,4095.0,4095.0,3245.0,3243.0,-1.23,9.24,3.92,-0.03,-0.0,-0.03,1.0,r
2947.0,2960.0,3011.0,3323.0,4095.0,4095.0,3248.0,3246.0,-1.13,9.2,3.94,-0.08,0.0,-0.03,1.0,r
2951.0,2971.0,2998.0,3317.0,4095.0,4095.0,3249.0,3260.0,-1.24,9.22,3.95,-0.06,-0.01,-0.03,1.0,r
2949.0,2961.0,2998.0,3309.0,4095.0,4095.0,3255.0,3246.0,-1.16,9.14,4.24,-0.03,0.01,-0.04,1.0,r
2937.0,2954.0,2988.0,3327.0,4095.0,4095.0,3248.0,3244.0,-1.12,9.25,3.89,-0.05,-0.01,-0.04,1.0,r
2925.0,2956.0,3014.0,3317.0,4095.0,4095.0,3255.0,3246.0,-1.46,9.18,3.89,-0.09,0.02,-0.04,1.0,r
2945.0,2963.0,3014.0,3328.0,4095.0,4095.0,3243.0,3265.0,-0.85,9.31,3.99,-0.04,0.01,-0.02,1.0,r
2960.0,2944.0,3011.0,3330.0,4095.0,4095.0,3248.0,3263.0,-1.21,9.22,3.94,-0.07,-0.04,-0.06,1.0,r
2953.0,2950.0,3000.0,3327.0,4095.0,4095.0,3247.0,3248.0,-1.15,9.25,3.81,-0.03,-0.0,-0.03,1.0,r
2929.0,2967.0,2999.0,3337.0,4095.0,4095.0,3248.0,3245.0,-1.21,9.25,3.91,-0.06,-0.01,-0.03,1.0,r
2929.0,2953.0,2993.0,3330.0,4095.0,4095.0,3264.0,3249.0,-1.18,9.2,3.99,-0.07,-0.01,-0.01,1.0,r
2941.0,2964.0,2994.0,3331.0,4095.0,4095.0,3253.0,3262.0,-1.04,9.27,3.86,-0.02,0.02,-0.05,1.0,r
2941.0,2956.0,3005.0,3342.0,4095.0,4095.0,3249.0,3259.0,-1.04,9.3,3.84,-0.04,-0.0,-0.05,1.0,r
2943.0,2949.0,3003.0,3327.0,4095.0,4095.0,3258.0,3255.0,-1.22,9.24,3.95,-0.07,0.01,-0.04,1.0,r
2935.0,2950.0,2995.0,3336.0,4095.0,4095.0,3253.0,3246.0,-1.08,9.32,3.83,-0.06,0.01,-0.04,1.0,r
2941.0,2960.0,3010.0,3344.0,4095.0,4095.0,3247.0,3251.0,-1.06,9.22,4.13,-0.05,0.03,-0.03,1.0,r
2942.0,2957.0,3003.0,3335.0,4095.0,4095.0,3254.0,3257.0,-1.05,9.25,3.94,-0.03,-0.02,-0.05,1.0,r
2943.0,2960.0,2998.0,3166.0,4095.0,4095.0,3125.0,3127.0,-1.05,9.51,3.33,-0.14,-0.04,-0.02,1.0,r
2951.0,2958.0,3008.0,3200.0,4095.0,4095.0,3130.0,3116.0,-1.08,9.41,3.47,-0.08,-0.01,-0.05,1.0,r
2943.0,2960.0,2990.0,3217.0,4095.0,4095.0,3135.0,3127.0,-1.07,9.37,3.68,-0.04,-0.04,-0.04,1.0,r
2938.0,2955.0,3002.0,3220.0,4095.0,4095.0,3126.0,3129.0,-1.19,9.3,3.64,-0.01,0.01,0.02,1.0,r
2939.0,2958.0,2992.0,3221.0,4095.0,4095.0,3135.0,3152.0,-0.86,9.53,3.25,-0.04,-0.01,0.01,1.0,r
2934.0,2962.0,3003.0,3223.0,4095.0,4095.0,3130.0,3130.0,-0.96,9.49,3.26,-0.05,0.02,-0.02,1.0,r
2938.0,2962.0,2992.0,3245.0,4095.0,4095.0,3139.0,3152.0,-1.0,9.59,3.2,-0.1,-0.03,-0.04,1.0,r
2949.0,2962.0,3002.0,3232.0,4095.0,4095.0,3132.0,3149.0,-0.97,9.43,3.47,-0.05,-0.01,-0.04,1.0,r
2945.0,2969.0,3007.0,3242.0,4095.0,4095.0,3122.0,3142.0,-1.03,9.44,3.36,-0.08,-0.01,-0.03,1.0,r
2937.0,2959.0,3006.0,3255.0,4095.0,4095.0,3142.0,3148.0,-0.99,9.49,3.34,-0.09,0.01,-0.01,1.0,r
2945.0,2961.0,3004.0,3260.0,4095.0,4095.0,3136.0,3154.0,-0.91,9.49,3.27,-0.07,0.01,-0.04,1.0,r
2951.0,2960.0,3006.0,3243.0,4095.0,4095.0,3129.0,3155.0,-1.02,9.48,3.4,-0.1,0.01,-0.04,1.0,r
2939.0,2950.0,2999.0,3264.0,4095.0,4095.0,3130.0,3153.0,-0.92,9.51,3.39,-0.04,0.02,-0.02,1.0,r
2935.0,2960.0,2997.0,3261.0,4095.0,4095.0,3134.0,3142.0,-0.89,9.53,3.31,-0.05,-0.0,-0.03,1.0,r
2940.0,2963.0,3004.0,3272.0,4095.0,4095.0,3145.0,3146.0,-1.01,9.45,3.37,-0.08,-0.01,-0.01,1.0,r
2933.0,2955.0,2992.0,3278.0,4095.0,4095.0,3135.0,3155.0,-0.86,9.55,3.3,-0.07,0.01,-0.02,1.0,r
2944.0,2977.0,2992.0,3277.0,4095.0,4095.0,3134.0,3159.0,-0.89,9.58,3.23,-0.08,0.02,-0.07,1.0,r
2955.0,2963.0,2993.0,3259.0,4095.0,4095.0,3151.0,3166.0,-0.93,9.49,3.35,-0.05,0.01,-0.0,1.0,r
2954.0,2957.0,2995.0,3280.0,4095.0,4095.0,3138.0,3157.0,-0.88,9.46,3.56,-0.08,-0.0,-0.02,1.0,r
2950.0,2935.0,2999.0,3299.0,4095.0,4095.0,3149.0,3167.0,-0.92,9.49,3.33,-0.03,0.01,-0.06,1.0,r
2931.0,2951.0,2997.0,3280.0,4095.0,4095.0,3134.0,3174.0,-0.91,9.51,3.32,-0.07,-0.01,-0.02,1.0,r
2938.0,2966.0,3006.0,3293.0,4095.0,4095.0,3131.0,3178.0,-0.74,9.36,3.56,-0.08,-0.03,-0.01,1.0,r
2929.0,2961.0,3003.0,3291.0,4095.0,4095.0,3132.0,3173.0,-0.84,9.45,3.55,-0.04,-0.02,-0.01,1.0,r
2951.0,2959.0,2995.0,3299.0,4095.0,4095.0,3129.0,3166.0,-0.79,9.6,3.1,-0.1,-0.04,-0.02,1.0,r
2950.0,2960.0,2999.0,3289.0,4095.0,4095.0,3152.0,3168.0,-0.72,9.48,3.49,-0.07,-0.0,-0.05,1.0,r
2944.0,2967.0,2992.0,3296.0,4095.0,4095.0,3147.0,3153.0,-0.81,9.4,3.76,-0.08,-0.03,-0.06,1.0,r
2945.0,2963.0,3006.0,3293.0,4095.0,4095.0,3146.0,3166.0,-0.97,9.54,3.19,-0.05,0.0,-0.06,1.0,r
2944.0,2960.0,2981.0,3302.0,4095.0,4095.0,3135.0,3152.0,-0.99,9.49,3.33,-0.09,0.02,-0.04,1.0,r
2955.0,2961.0,2999.0,3302.0,4095.0,4095.0,3140.0,3147.0,-0.97,9.49,3.25,-0.13,0.0,-0.0,1.0,r
2939.0,2960.0,3001.0,3301.0,4095.0,4095.0,3152.0,3155.0,-0.87,9.46,3.52,-0.09,0.03,0.0,1.0,r
2934.0,2961.0,3005.0,3312.0,4095.0,4095.0,3152.0,3169.0,-0.64,9.41,3.73,-0.09,0.02,-0.02,1.0,r
2947.0,2960.0,3003.0,3313.0,4095.0,4095.0,3150.0,3164.0,-0.58,9.38,3.82,-0.08,-0.02,-0.06,1.0,r
2950.0,2981.0,2994.0,3300.0,4095.0,4095.0,3141.0,3184.0,-0.89,9.48,3.38,-0.02,-0.02,-0.07,1.0,r
2944.0,2967.0,3004.0,3310.0,4095.0,4095.0,3154.0,3180.0,-0.81,9.41,3.47,-0.03,0.01,-0.05,1.0,r
2957.0,2955.0,3003.0,3312.0,4095.0,4095.0,3152.0,3175.0,-0.8,9.48,3.5,-0.08,0.01,-0.03,1.0,r
2954.0,2973.0,2994.0,3297.0,4095.0,4095.0,3138.0,3184.0,-0.79,9.48,3.44,-0.07,-0.03,-0.05,1.0,r
2957.0,2960.0,3005.0,3291.0,4095.0,4095.0,3152.0,3179.0,-0.88,9.45,3.44,-0.09,-0.05,-0.07,1.0,r
2945.0,2965.0,2991.0,3287.0,4095.0,4095.0,3146.0,3184.0,-0.82,9.36,3.7,-0.11,-0.05,-0.04,1.0,r
2960.0,2967.0,2983.0,3302.0,4095.0,4095.0,3150.0,3184.0,-0.93,9.43,3.53,-0.11,-0.05,-0.04,1.0,r
2944.0,2969.0,2992.0,3311.0,4095.0,4095.0,3152.0,3182.0,-0.82,9.41,3.55,-0.1,-0.01,-0.03,1.0,r
2928.0,2958.0,3024.0,3376.0,4095.0,3893.0,3280.0,3151.0,-1.49,9.56,2.76,-0.06,-0.03,-0.03,1.0,r
2931.0,2949.0,3013.0,3385.0,4095.0,3945.0,3274.0,3147.0,-1.43,9.53,2.73,-0.07,-0.02,-0.01,1.0,r
2934.0,2957.0,3014.0,3388.0,4095.0,3902.0,3262.0,3138.0,-1.48,9.57,2.57,-0.04,-0.02,-0.03,1.0,r
2935.0,2951.0,3022.0,3359.0,4095.0,3920.0,3271.0,3157.0,-1.52,9.54,2.66,-0.06,-0.01,-0.02,1.0,r
2943.0,2959.0,3027.0,3347.0,4095.0,3915.0,3267.0,3146.0,-1.47,9.62,2.45,-0.03,-0.01,-0.01,1.0,r
2935.0,2965.0,3024.0,3351.0,4095.0,3900.0,3282.0,3150.0,-1.47,9.57,2.6,-0.02,0.01,-0.03,1.0,r
2930.0,2954.0,3024.0,3378.0,4095.0,3933.0,3280.0,3156.0,-1.42,9.59,2.72,-0.04,0.04,-0.01,1.0,r
2930.0,2949.0,3024.0,3386.0,4095.0,3907.0,3273.0,3155.0,-1.41,9.68,2.54,-0.03,-0.01,-0.02,1.0,r
2940.0,2956.0,3024.0,3373.0,4095.0,3925.0,3279.0,3157.0,-1.37,9.58,2.64,-0.04,0.02,-0.02,1.0,r
2944.0,2949.0,3025.0,3391.0,4095.0,3927.0,3283.0,3148.0,-1.34,9.57,2.61,-0.08,-0.03,-0.02,1.0,r
2941.0,2897.0,3012.0,3378.0,4095.0,3939.0,3283.0,3152.0,-1.4,9.62,2.63,-0.03,-0.01,-0.04,1.0,r
2943.0,2960.0,3019.0,3383.0,4095.0,3933.0,3286.0,3147.0,-1.46,9.6,2.6,-0.05,0.02,-0.04,1.0,r
2947.0,2959.0,3024.0,3385.0,4095.0,3906.0,3273.0,3153.0,-1.37,9.62,2.65,-0.05,0.01,-0.04,1.0,r
2935.0,2957.0,3018.0,3368.0,4095.0,3955.0,3270.0,3149.0,-1.42,9.62,2.67,-0.06,-0.02,-0.04,1.0,r
2935.0,2962.0,3025.0,3380.0,4095.0,3930.0,3280.0,3150.0,-1.37,9.57,2.71,-0.03,-0.0,-0.04,1.0,r
2944.0,2950.0,3023.0,3373.0,4095.0,3935.0,3280.0,3147.0,-1.43,9.61,2.59,-0.05,0.02,-0.05,1.0,r
2948.0,2960.0,3011.0,3374.0,4095.0,3911.0,3294.0,3151.0,-1.36,9.54,2.72,-0.06,-0.0,-0.04,1.0,r
2935.0,2952.0,3024.0,3393.0,4095.0,3930.0,3278.0,3153.0,-1.51,9.6,2.63,-0.05,0.03,-0.02,1.0,r
2928.0,2945.0,3011.0,3387.0,4095.0,3917.0,3271.0,3155.0,-1.35,9.68,2.5,-0.08,0.0,-0.01,1.0,r
2943.0,2959.0,3026.0,3378.0,4095.0,3950.0,3279.0,3157.0,-1.22,9.67,2.61,-0.04,-0.01,-0.04,1.0,r
2928.0,2960.0,3024.0,3394.0,4095.0,3932.0,3280.0,3148.0,-1.41,9.6,2.65,-0.03,0.01,-0.05,1.0,r
2939.0,2957.0,3031.0,3403.0,4095.0,3951.0,3283.0,3150.0,-1.36,9.63,2.57,-0.06,0.01,-0.03,1.0,r
2939.0,2955.0,3006.0,3390.0,4095.0,3954.0,3281.0,3152.0,-1.32,9.56,2.72,-0.06,0.0,-0.01,1.0,r
2939.0,2953.0,3006.0,3397.0,4095.0,3973.0,3285.0,3167.0,-1.37,9.66,2.38,-0.03,0.01,-0.04,1.0,r
2931.0,2960.0,3012.0,3387.0,4095.0,3957.0,3282.0,3162.0,-1.3,9.66,2.68,-0.11,-0.03,-0.03,1.0,r
2939.0,2950.0,3017.0,3398.0,4095.0,3930.0,3291.0,3174.0,-1.34,9.67,2.45,-0.08,-0.05,-0.05,1.0,r
2942.0,2970.0,3016.0,3390.0,4095.0,3947.0,3284.0,3172.0,-1.47,9.66,2.52,-0.06,-0.01,-0.04,1.0,r
2941.0,2960.0,3003.0,3403.0,4095.0,3936.0,3293.0,3159.0,-1.35,9.66,2.6,-0.06,0.01,-0.02,1.0,r
2928.0,2961.0,3008.0,3401.0,4095.0,3967.0,3280.0,3156.0,-1.45,9.62,2.6,-0.09,-0.01,-0.03,1.0,r
2930.0,2959.0,3024.0,3403.0,4095.0,3947.0,3296.0,3167.0,-1.33,9.65,2.52,-0.02,-0.01,-0.07,1.0,r
2938.0,2954.0,3022.0,3391.0,4095.0,3938.0,3286.0,3169.0,-1.43,9.57,2.64,-0.06,-0.01,-0.04,1.0,r
2936.0,2967.0,3008.0,3392.0,4095.0,3946.0,3287.0,3169.0,-1.4,9.67,2.44,-0.06,0.03,-0.03,1.0,r
2942.0,2963.0,3017.0,3402.0,4095.0,3952.0,3285.0,3154.0,-1.36,9.62,2.63,-0.04,-0.0,-0.05,1.0,r
2932.0,2961.0,3019.0,3391.0,4095.0,3948.0,3274.0,3168.0,-1.43,9.64,2.59,-0.06,-0.01,-0.03,1.0,r
2951.0,2949.0,3005.0,3395.0,4095.0,3949.0,3295.0,3162.0,-1.47,9.67,2.51,-0.06,0.02,-0.02,1.0,r
2919.0,2959.0,3018.0,3367.0,4095.0,3966.0,3296.0,3155.0,-1.35,9.63,2.57,-0.08,-0.0,-0.03,1.0,r
2947.0,2958.0,3018.0,3376.0,4095.0,3967.0,3289.0,3172.0,-1.4,9.62,2.53,-0.06,0.04,-0.05,1.0,r
2943.0,2977.0,3009.0,3392.0,4095.0,3968.0,3283.0,3171.0,-1.45,9.7,2.39,-0.07,-0.02,-0.03,1.0,r
2933.0,2960.0,3021.0,3383.0,4095.0,3975.0,3279.0,3167.0,-1.38,9.62,2.62,-0.06,-0.0,-0.04,1.0,r
2944.0,2947.0,3024.0,3379.0,4095.0,3955.0,3281.0,3183.0,-1.43,9.71,2.3,-0.06,0.01,-0.01,1.0,r
2942.0,2960.0,3007.0,3283.0,4095.0,4039.0,3434.0,3184.0,-1.5,9.83,2.22,-0.1,-0.07,-0.03,1.0,r
2933.0,2947.0,3008.0,3291.0,4095.0,4031.0,3424.0,3169.0,-1.41,9.71,2.38,-0.05,-0.01,-0.04,1.0,r
2933.0,2927.0,3013.0,3291.0,4095.0,4032.0,3428.0,3178.0,-1.32,9.7,2.29,-0.09,0.05,-0.02,1.0,r
2936.0,2955.0,3023.0,3307.0,4095.0,4042.0,3424.0,3188.0,-1.34,9.71,2.29,-0.07,0.0,-0.04,1.0,r
2923.0,2959.0,3010.0,3292.0,4095.0,4037.0,3427.0,3171.0,-1.44,9.71,2.3,-0.04,0.02,-0.06,1.0,r
2933.0,2962.0,3003.0,3310.0,4095.0,4062.0,3422.0,3184.0,-1.4,9.74,2.28,-0.05,-0.0,-0.04,1.0,r
2939.0,2961.0,3018.0,3312.0,4095.0,4048.0,3429.0,3186.0,-1.41,9.79,2.2,-0.04,-0.02,-0.04,1.0,r
2937.0,2999.0,3006.0,3296.0,4095.0,4048.0,3367.0,3169.0,-1.4,9.71,2.34,-0.1,0.0,-0.01,1.0,r
2925.0,2959.0,3007.0,3305.0,4095.0,4067.0,3408.0,3179.0,-1.27,9.71,2.31,-0.05,-0.02,-0.03,1.0,r
2939.0,2962.0,3007.0,3316.0,4095.0,4039.0,3425.0,3199.0,-1.33,9.64,2.4,-0.06,-0.02,-0.03,1.0,r
2933.0,2947.0,3014.0,3307.0,4095.0,4045.0,3415.0,3178.0,-1.31,9.72,2.27,-0.06,-0.03,-0.04,1.0,r
2929.0,2958.0,3015.0,3312.0,4095.0,4076.0,3407.0,3183.0,-1.37,9.69,2.3,-0.07,-0.02,-0.03,1.0,r
2933.0,2957.0,3013.0,3303.0,4095.0,4019.0,3406.0,3184.0,-1.27,9.74,2.32,-0.06,0.01,-0.02,1.0,r
2930.0,2966.0,3008.0,3307.0,4095.0,4060.0,3412.0,3179.0,-1.23,9.68,2.42,-0.08,-0.0,-0.03,1.0,r
2930.0,2957.0,3012.0,3310.0,4095.0,4031.0,3419.0,3191.0,-1.25,9.68,2.4,-0.03,-0.01,-0.04,1.0,r
2938.0,2959.0,3010.0,3301.0,4095.0,4063.0,3418.0,3185.0,-1.21,9.69,2.32,-0.05,-0.03,-0.04,1.0,r
2928.0,2955.0,3014.0,3303.0,4095.0,4033.0,3421.0,3183.0,-1.3,9.7,2.33,-0.07,-0.02,-0.04,1.0,r
2928.0,2927.0,3017.0,3302.0,4095.0,4060.0,3412.0,3184.0,-1.32,9.69,2.39,-0.04,0.0,-0.04,1.0,r
2937.0,2960.0,3014.0,3321.0,4095.0,4024.0,3401.0,3185.0,-1.35,9.67,2.42,0.07,0.03,-0.03,1.0,r
2934.0,2948.0,3010.0,3321.0,4095.0,4082.0,3397.0,3188.0,-1.21,9.63,2.36,-0.1,-0.03,-0.02,1.0,r
2926.0,2957.0,3013.0,3337.0,4095.0,4080.0,3391.0,3196.0,-1.22,9.72,2.31,-0.05,0.03,-0.04,1.0,r
2931.0,2961.0,3014.0,3338.0,4095.0,4077.0,3405.0,3190.0,-1.73,9.54,2.42,-0.19,0.13,0.06,1.0,r
