hall_1,hall_2,hall_3,flex_t,flex_i,flex_m,flex_r,flex_p,accel_x,accel_y,accel_z,gyro_x,gyro_y,gyro_z,hand,sign
3111.0,3001.0,2961.0,3297.0,4095.0,3286.0,2559.0,2304.0,-0.93,9.75,5.28,-0.01,-0.05,-0.14,0.0,r
3098.0,3002.0,2977.0,3300.0,4095.0,3346.0,2559.0,2311.0,-0.77,9.88,4.92,-0.01,-0.01,-0.14,0.0,r
3120.0,3001.0,2973.0,3312.0,4095.0,3354.0,2559.0,2318.0,-0.96,9.9,5.14,0.0,-0.03,-0.16,0.0,r
3117.0,2999.0,2974.0,3313.0,4095.0,3342.0,2583.0,2324.0,-0.88,9.77,5.12,-0.01,-0.0,-0.14,0.0,r
3117.0,3006.0,2963.0,3313.0,4095.0,3359.0,2581.0,2320.0,-0.87,9.83,5.16,0.0,0.01,-0.12,0.0,r
3117.0,2994.0,2965.0,3319.0,4095.0,3353.0,2559.0,2331.0,-0.91,9.85,5.04,0.01,-0.06,-0.16,0.0,r
3103.0,3006.0,2970.0,3322.0,4095.0,3339.0,2556.0,2329.0,-0.92,9.89,5.08,-0.03,0.02,-0.12,0.0,r
3107.0,2986.0,2971.0,3321.0,4095.0,3347.0,2559.0,2327.0,-0.76,9.85,5.26,0.01,0.02,-0.13,0.0,r
3107.0,2993.0,2962.0,3322.0,4095.0,3354.0,2579.0,2335.0,-0.61,9.84,5.22,0.07,-0.0,-0.17,0.0,r
3097.0,3001.0,2960.0,3330.0,4095.0,3359.0,2559.0,2330.0,-0.85,9.84,5.06,0.03,0.01,-0.17,0.0,r
3097.0,3005.0,2970.0,3325.0,4095.0,3349.0,2559.0,2336.0,-0.96,9.83,5.09,-0.03,0.04,-0.13,0.0,r
3104.0,2993.0,2969.0,3325.0,4095.0,3357.0,2559.0,2337.0,-0.79,9.88,5.22,-0.02,-0.07,-0.14,0.0,r
3094.0,2992.0,2962.0,3331.0,4095.0,3363.0,2583.0,2326.0,-0.75,9.84,5.19,-0.01,-0.01,-0.16,0.0,r
3103.0,2992.0,2974.0,3331.0,4095.0,3367.0,2579.0,2333.0,-0.89,9.71,5.22,0.01,-0.01,-0.14,0.0,r
3103.0,2995.0,2960.0,3335.0,4095.0,3371.0,2581.0,2331.0,-0.88,9.77,5.19,0.0,-0.02,-0.16,0.0,r
3099.0,2996.0,2980.0,3338.0,4095.0,3363.0,2583.0,2338.0,-0.69,9.79,5.2,-0.01,-0.03,-0.13,0.0,r
3093.0,3002.0,2966.0,3339.0,4095.0,3375.0,2559.0,2341.0,-0.75,9.82,5.23,0.06,-0.04,-0.16,0.0,r
3101.0,2992.0,2960.0,3341.0,4095.0,3366.0,2559.0,2327.0,-0.89,9.73,5.14,0.03,-0.0,-0.15,0.0,r
3099.0,2992.0,2966.0,3344.0,4095.0,3361.0,2586.0,2333.0,-0.85,9.69,5.2,-0.0,-0.01,-0.15,0.0,r
3090.0,2994.0,2976.0,3352.0,4095.0,3376.0,2581.0,2348.0,-0.73,9.81,5.15,-0.04,0.01,-0.13,0.0,r
3106.0,3007.0,2970.0,3352.0,4095.0,3377.0,2582.0,2347.0,-0.76,9.82,5.21,0.04,0.01,-0.15,0.0,r
3095.0,2991.0,2958.0,3357.0,4095.0,3371.0,2581.0,2324.0,-0.96,9.79,5.11,0.02,0.02,-0.13,0.0,r
3093.0,2989.0,2967.0,3338.0,4095.0,3376.0,2583.0,2342.0,-0.87,9.81,5.11,0.02,-0.0,-0.14,0.0,r
3095.0,3005.0,2960.0,3346.0,4095.0,3382.0,2595.0,2347.0,-0.69,9.85,5.1,-0.03,-0.01,-0.14,0.0,r
3107.0,3006.0,2964.0,3350.0,4095.0,3372.0,2608.0,2352.0,-0.72,9.87,5.12,0.01,0.03,-0.16,0.0,r
3103.0,2988.0,2967.0,3348.0,4095.0,3376.0,2594.0,2331.0,-0.74,9.82,5.14,0.01,-0.01,-0.15,0.0,r
3106.0,3002.0,2958.0,3347.0,4095.0,3371.0,2581.0,2350.0,-0.79,9.81,5.14,-0.0,-0.02,-0.14,0.0,r
3111.0,3010.0,2967.0,3354.0,4095.0,3390.0,2593.0,2347.0,-0.7,9.82,5.14,0.05,-0.02,-0.15,0.0,r
3088.0,2992.0,2965.0,3361.0,4095.0,3379.0,2590.0,2343.0,-0.76,9.82,5.14,0.02,-0.0,-0.17,0.0,r
3089.0,2995.0,2969.0,3363.0,4095.0,3377.0,2591.0,2347.0,-0.7,9.81,5.04,0.03,0.01,-0.14,0.0,r
3088.0,2999.0,2977.0,3344.0,4095.0,3355.0,2592.0,2356.0,-0.83,9.73,5.15,-0.02,0.05,-0.14,0.0,r
3109.0,3003.0,2960.0,3367.0,4095.0,3387.0,2604.0,2350.0,-0.62,9.76,5.21,0.01,0.01,-0.15,0.0,r
3101.0,3004.0,2961.0,3363.0,4095.0,3373.0,2590.0,2352.0,-0.65,9.72,5.15,0.03,0.04,-0.16,0.0,r
3110.0,3003.0,2960.0,3360.0,4095.0,3379.0,2596.0,2325.0,-0.76,9.87,4.86,-0.06,0.07,-0.11,0.0,r
3105.0,2992.0,2970.0,3361.0,4095.0,3381.0,2592.0,2351.0,-0.62,9.85,5.11,-0.06,-0.01,-0.12,0.0,r
3090.0,2992.0,2966.0,3363.0,4095.0,3378.0,2594.0,2352.0,-0.6,9.89,5.08,-0.01,-0.01,-0.16,0.0,r
3107.0,2990.0,2966.0,3371.0,4095.0,3383.0,2598.0,2350.0,-0.69,9.76,5.23,-0.04,-0.02,-0.13,0.0,r
3089.0,2992.0,2962.0,3375.0,4095.0,3387.0,2598.0,2352.0,-0.63,9.87,5.02,-0.0,-0.03,-0.14,0.0,r
3109.0,2997.0,2960.0,3365.0,4095.0,3406.0,2595.0,2352.0,-0.71,9.86,5.11,0.0,-0.02,-0.15,0.0,r
3088.0,2992.0,2975.0,3367.0,4095.0,3399.0,2605.0,2352.0,-0.57,9.89,5.11,-0.01,0.0,-0.15,0.0,r
3104.0,2994.0,2972.0,3376.0,4095.0,3392.0,2604.0,2358.0,-0.73,9.85,5.11,-0.0,-0.0,-0.16,0.0,r
3110.0,2999.0,2966.0,3366.0,4095.0,3363.0,2530.0,2319.0,-0.85,9.86,4.74,-0.0,-0.01,-0.18,0.0,r
3098.0,3002.0,2973.0,3362.0,4095.0,3373.0,2534.0,2320.0,-0.55,9.86,4.77,0.01,-0.0,-0.13,0.0,r
3109.0,2995.0,2965.0,3371.0,4095.0,3367.0,2531.0,2320.0,-0.54,9.95,4.71,-0.01,-0.03,-0.15,0.0,r
3100.0,2995.0,2963.0,3378.0,4095.0,3386.0,2537.0,2323.0,-0.64,9.91,4.7,0.03,0.01,-0.17,0.0,r
3105.0,2992.0,2967.0,3382.0,4095.0,3376.0,2542.0,2311.0,-0.5,9.84,4.65,0.01,0.01,-0.16,0.0,r
3115.0,2992.0,2962.0,3378.0,4095.0,3379.0,2535.0,2323.0,-0.58,9.84,4.61,0.03,0.02,-0.17,0.0,r
3099.0,2990.0,2971.0,3386.0,4095.0,3379.0,2528.0,2325.0,-0.73,9.89,4.63,-0.01,-0.01,-0.15,0.0,r
3102.0,2993.0,2955.0,3379.0,4095.0,3376.0,2538.0,2338.0,-0.65,9.79,4.62,-0.02,-0.02,-0.16,0.0,r
3098.0,2995.0,2975.0,3376.0,4095.0,3376.0,2531.0,2333.0,-0.63,9.78,4.76,0.03,-0.06,-0.14,0.0,r
3091.0,3004.0,2975.0,3351.0,4095.0,3381.0,2544.0,2331.0,-0.66,9.83,4.66,0.0,-0.02,-0.17,0.0,r
3114.0,3005.0,2971.0,3373.0,4095.0,3402.0,2541.0,2336.0,-0.65,9.8,4.68,0.05,-0.02,-0.16,0.0,r
3104.0,2991.0,2958.0,3377.0,4095.0,3394.0,2542.0,2340.0,-0.82,9.84,4.7,0.02,-0.02,-0.16,0.0,r
3114.0,2995.0,2960.0,3377.0,4095.0,3409.0,2539.0,2337.0,-0.77,9.83,4.75,0.01,-0.0,-0.18,0.0,r
3102.0,2983.0,2976.0,3334.0,4095.0,3414.0,2542.0,2333.0,-0.73,9.81,4.71,0.03,-0.02,-0.15,0.0,r
3110.0,2992.0,2963.0,3380.0,4095.0,3397.0,2539.0,2338.0,-0.62,9.8,4.67,0.02,-0.03,-0.16,0.0,r
3092.0,3009.0,2960.0,3377.0,4095.0,3408.0,2529.0,2334.0,-0.68,9.78,4.72,-0.0,-0.01,-0.13,0.0,r
3106.0,2993.0,2957.0,3376.0,4095.0,3423.0,2538.0,2343.0,-0.66,9.84,4.7,-0.02,-0.02,-0.13,0.0,r
3092.0,2993.0,2970.0,3376.0,4095.0,3406.0,2543.0,2336.0,-0.74,9.79,4.81,0.0,-0.01,-0.14,0.0,r
3108.0,2992.0,2978.0,3371.0,4095.0,3421.0,2541.0,2339.0,-0.67,9.77,4.57,0.01,-0.0,-0.16,0.0,r
3121.0,3008.0,2981.0,3375.0,4095.0,3407.0,2533.0,2339.0,-0.49,9.91,4.87,0.03,0.0,-0.14,0.0,r
3102.0,3002.0,2979.0,3388.0,4095.0,3413.0,2544.0,2337.0,-0.71,9.89,4.63,-0.0,-0.01,-0.17,0.0,r
3103.0,2999.0,2979.0,3383.0,4095.0,3408.0,2534.0,2351.0,-0.73,9.82,4.84,0.02,0.02,-0.13,0.0,r
3102.0,2993.0,2967.0,3381.0,4095.0,3408.0,2547.0,2339.0,-0.75,9.87,4.73,0.04,-0.0,-0.16,0.0,r
3107.0,2999.0,2960.0,3375.0,4095.0,3415.0,2544.0,2339.0,-0.56,9.82,4.63,0.02,-0.01,-0.14,0.0,r
3115.0,2998.0,2965.0,3387.0,4095.0,3414.0,2544.0,2336.0,-0.86,9.88,4.7,0.01,-0.02,-0.15,0.0,r
3099.0,2992.0,2967.0,3381.0,4095.0,3408.0,2544.0,2338.0,-0.55,9.9,4.68,-0.01,0.0,-0.14,0.0,r
3122.0,2995.0,2959.0,3389.0,4095.0,3418.0,2539.0,2335.0,-0.74,9.86,4.77,0.03,-0.03,-0.15,0.0,r
3117.0,3007.0,2965.0,3392.0,4095.0,3409.0,2555.0,2342.0,-0.72,9.88,4.69,0.04,-0.0,-0.14,0.0,r
3095.0,2992.0,2965.0,3388.0,4095.0,3408.0,2546.0,2354.0,-0.69,9.91,4.69,-0.02,0.01,-0.13,0.0,r
3101.0,3007.0,2960.0,3403.0,4095.0,3412.0,2551.0,2334.0,-0.62,9.85,4.79,0.02,-0.04,-0.17,0.0,r
3099.0,3007.0,2978.0,3394.0,4095.0,3408.0,2551.0,2336.0,-0.59,9.84,4.7,-0.0,0.01,-0.14,0.0,r
3105.0,2992.0,2967.0,3388.0,4095.0,3423.0,2546.0,2334.0,-0.62,9.89,4.77,0.02,-0.0,-0.14,0.0,r
3103.0,3005.0,2976.0,3387.0,4095.0,3427.0,2544.0,2329.0,-0.69,9.9,4.71,-0.0,0.0,-0.15,0.0,r
3122.0,2987.0,2962.0,3392.0,4095.0,3415.0,2546.0,2327.0,-0.61,9.84,4.76,-0.01,-0.01,-0.15,0.0,r
3096.0,2999.0,2960.0,3397.0,4095.0,3411.0,2559.0,2335.0,-0.54,9.87,4.69,0.01,0.0,-0.15,0.0,r
3095.0,3007.0,2960.0,3408.0,4095.0,3426.0,2557.0,2327.0,-0.55,9.88,4.75,-0.01,-0.02,-0.16,0.0,r
3109.0,2992.0,2971.0,3408.0,4095.0,3431.0,2559.0,2331.0,-0.72,9.79,4.71,0.07,-0.01,-0.15,0.0,r
3115.0,3005.0,2969.0,3405.0,4095.0,3421.0,2559.0,2338.0,-0.64,9.9,4.66,-0.02,-0.0,-0.17,0.0,r
3098.0,2999.0,2976.0,3392.0,4095.0,3427.0,2554.0,2340.0,-0.57,9.77,4.67,0.01,-0.01,-0.14,0.0,r
3106.0,2992.0,2973.0,3386.0,4095.0,3430.0,2559.0,2338.0,-0.58,9.87,4.76,-0.01,-0.01,-0.15,0.0,r
3103.0,2991.0,2961.0,3391.0,4095.0,3429.0,2556.0,2334.0,-0.66,9.88,4.71,0.11,-0.01,-0.17,0.0,r
3046.0,2962.0,3749.0,3404.0,3887.0,3136.0,2715.0,2137.0,-0.55,9.83,5.44,0.01,-0.01,-0.17,0.0,r
3041.0,2960.0,3753.0,3397.0,3888.0,3135.0,2710.0,2139.0,-0.59,9.76,5.59,-0.0,0.04,-0.15,0.0,r
3041.0,2969.0,3742.0,3407.0,3865.0,3123.0,2704.0,2137.0,-0.64,9.83,5.49,0.07,0.01,-0.15,0.0,r
3056.0,2986.0,3755.0,3406.0,3862.0,3132.0,2704.0,2144.0,-0.59,9.82,5.52,-0.03,-0.01,-0.13,0.0,r
3045.0,2980.0,3744.0,3406.0,3871.0,3123.0,2704.0,2144.0,-0.47,9.82,5.44,0.01,-0.04,-0.16,0.0,r
3051.0,2974.0,3739.0,3419.0,3882.0,3130.0,2707.0,2149.0,-0.61,9.81,5.53,-0.0,0.02,-0.16,0.0,r
3040.0,2967.0,3744.0,3419.0,3917.0,3130.0,2714.0,2149.0,-0.52,9.85,5.44,-0.02,0.03,-0.12,0.0,r
3049.0,2980.0,3753.0,3420.0,3934.0,3129.0,2705.0,2153.0,-0.52,9.76,5.62,-0.06,0.05,-0.12,0.0,r
3049.0,2971.0,3763.0,3421.0,3925.0,3135.0,2708.0,2150.0,-0.48,9.85,5.42,0.0,-0.01,-0.15,0.0,r
3061.0,2967.0,3751.0,3419.0,3941.0,3136.0,2713.0,2153.0,-0.51,9.78,5.51,0.0,-0.0,-0.14,0.0,r
3053.0,2982.0,3751.0,3424.0,3949.0,3142.0,2719.0,2147.0,-0.65,9.81,5.51,0.01,-0.01,-0.15,0.0,r
3043.0,2972.0,3748.0,3426.0,3938.0,3142.0,2714.0,2145.0,-0.48,9.85,5.44,0.0,0.0,-0.13,0.0,r
3061.0,2966.0,3765.0,3427.0,3946.0,3137.0,2709.0,2154.0,-0.55,9.79,5.5,0.0,0.02,-0.15,0.0,r
3041.0,2988.0,3751.0,3425.0,3955.0,3143.0,2714.0,2156.0,-0.68,9.78,5.47,0.04,0.01,-0.16,0.0,r
3039.0,2973.0,3767.0,3433.0,3953.0,3149.0,2717.0,2156.0,-0.57,9.77,5.49,0.0,-0.01,-0.16,0.0,r
3038.0,2979.0,3735.0,3429.0,3973.0,3150.0,2717.0,2160.0,-0.63,9.8,5.55,0.03,0.01,-0.15,0.0,r
3055.0,2965.0,3780.0,3436.0,3953.0,3151.0,2718.0,2157.0,-0.61,9.85,5.52,0.0,0.0,-0.15,0.0,r
3053.0,2971.0,3743.0,3440.0,3955.0,3157.0,2720.0,2159.0,-0.63,9.9,5.37,0.0,0.02,-0.15,0.0,r
3045.0,2966.0,3754.0,3435.0,3965.0,3152.0,2719.0,2153.0,-0.67,9.75,5.48,-0.0,0.0,-0.14,0.0,r
3038.0,2973.0,3753.0,3425.0,3975.0,3152.0,2725.0,2160.0,-0.6,9.74,5.53,0.02,-0.0,-0.15,0.0,r
3050.0,2971.0,3745.0,3435.0,3973.0,3154.0,2719.0,2157.0,-0.62,9.77,5.48,0.03,-0.01,-0.16,0.0,r
3056.0,2960.0,3767.0,3431.0,3982.0,3163.0,2719.0,2157.0,-0.53,9.8,5.42,0.01,-0.01,-0.15,0.0,r
3047.0,2960.0,3745.0,3428.0,3983.0,3167.0,2729.0,2158.0,-0.7,9.79,5.51,0.03,-0.01,-0.15,0.0,r
3047.0,2967.0,3737.0,3439.0,3985.0,3165.0,2726.0,2160.0,-0.62,9.84,5.46,-0.0,-0.01,-0.15,0.0,r
3045.0,2967.0,3762.0,3440.0,3986.0,3164.0,2721.0,2162.0,-0.55,9.84,5.48,0.04,0.0,-0.16,0.0,r
3055.0,2971.0,3749.0,3430.0,3995.0,3161.0,2725.0,2164.0,-0.76,9.71,5.62,0.07,-0.03,-0.18,0.0,r
3042.0,2975.0,3761.0,3437.0,4000.0,3168.0,2727.0,2161.0,-0.68,9.69,5.29,-0.02,-0.02,-0.13,0.0,r
3037.0,2978.0,3757.0,3436.0,3995.0,3167.0,2722.0,2162.0,-0.6,9.81,5.55,-0.05,0.0,-0.13,0.0,r
3043.0,2973.0,3762.0,3434.0,4013.0,3175.0,2732.0,2160.0,-0.51,9.84,5.49,-0.01,0.01,-0.15,0.0,r
3056.0,2971.0,3757.0,3437.0,4000.0,3173.0,2732.0,2171.0,-0.71,9.76,5.44,-0.01,-0.0,-0.12,0.0,r
3036.0,2977.0,3751.0,3440.0,4005.0,3179.0,2727.0,2165.0,-0.56,9.76,5.4,0.07,-0.02,-0.15,0.0,r
3037.0,2973.0,3751.0,3433.0,4001.0,3175.0,2730.0,2166.0,-0.52,9.86,5.51,0.02,-0.01,-0.16,0.0,r
3056.0,2965.0,3758.0,3426.0,4000.0,3170.0,2734.0,2167.0,-0.64,9.91,5.27,-0.01,0.0,-0.14,0.0,r
3039.0,2971.0,3760.0,3431.0,3993.0,3175.0,2735.0,2174.0,-0.48,9.77,5.66,0.05,0.0,-0.14,0.0,r
3045.0,2977.0,3734.0,3426.0,3989.0,3169.0,2736.0,2174.0,-0.37,9.78,5.4,-0.11,-0.05,-0.19,0.0,r
3049.0,2971.0,3745.0,3427.0,4016.0,3174.0,2737.0,2177.0,-0.55,9.94,5.57,-0.0,-0.02,-0.17,0.0,r
3042.0,2971.0,3727.0,3425.0,4000.0,3181.0,2742.0,2176.0,-0.45,9.92,5.38,0.02,-0.02,-0.16,0.0,r
3038.0,2973.0,3728.0,3431.0,4003.0,3182.0,2738.0,2174.0,-0.48,9.73,5.42,-0.02,-0.01,-0.17,0.0,r
3050.0,2963.0,3745.0,3430.0,4033.0,3184.0,2742.0,2167.0,-0.6,9.8,5.49,-0.0,0.01,-0.14,0.0,r
3041.0,2960.0,3735.0,3440.0,4016.0,3177.0,2737.0,2171.0,-0.66,9.85,5.58,0.05,-0.01,-0.17,0.0,r
3034.0,2978.0,3732.0,3449.0,4027.0,3180.0,2741.0,2177.0,-0.42,9.76,5.19,0.08,0.05,-0.19,0.0,r
3105.0,2978.0,3026.0,3549.0,4095.0,3177.0,2540.0,2128.0,-0.62,9.79,5.21,0.03,0.02,-0.16,0.0,r
3103.0,2978.0,3035.0,3541.0,4095.0,3167.0,2541.0,2135.0,-0.63,9.68,5.41,0.04,-0.03,-0.14,0.0,r
3091.0,2986.0,3041.0,3551.0,4095.0,3179.0,2544.0,2128.0,-0.37,10.02,5.11,0.04,-0.06,-0.14,0.0,r
3104.0,2961.0,3023.0,3543.0,4095.0,3166.0,2542.0,2128.0,-0.49,9.85,5.33,0.0,-0.03,-0.18,0.0,r
3099.0,2979.0,3024.0,3551.0,4095.0,3177.0,2547.0,2133.0,-0.68,9.74,5.37,0.0,-0.0,-0.16,0.0,r
3105.0,2962.0,3022.0,3548.0,4095.0,3173.0,2554.0,2131.0,-0.48,9.88,5.29,0.05,0.07,-0.21,0.0,r
3115.0,2987.0,3023.0,3558.0,4095.0,3170.0,2555.0,2139.0,-1.04,9.8,5.35,0.01,-0.03,-0.19,0.0,r
3110.0,2964.0,3028.0,3543.0,4095.0,3172.0,2549.0,2150.0,-0.88,9.76,4.95,-0.01,-0.02,-0.12,0.0,r
3094.0,2978.0,3027.0,3547.0,4095.0,3173.0,2557.0,2145.0,-0.74,9.74,5.33,-0.01,-0.01,-0.13,0.0,r
3098.0,2980.0,3026.0,3554.0,4095.0,3182.0,2557.0,2147.0,-0.82,9.73,5.32,0.04,-0.01,-0.14,0.0,r
3106.0,2962.0,3024.0,3551.0,4095.0,3175.0,2555.0,2134.0,-0.73,9.63,5.18,0.06,-0.01,-0.16,0.0,r
3111.0,2962.0,3037.0,3558.0,4095.0,3186.0,2559.0,2143.0,-0.71,9.8,5.15,0.03,0.01,-0.13,0.0,r
3102.0,2980.0,3031.0,3559.0,4095.0,3175.0,2559.0,2143.0,-0.72,9.88,5.2,0.0,0.02,-0.12,0.0,r
3109.0,2963.0,3023.0,3557.0,4095.0,3184.0,2559.0,2143.0,-0.7,9.79,5.23,0.01,0.03,-0.16,0.0,r
3097.0,2978.0,3024.0,3555.0,4095.0,3182.0,2559.0,2143.0,-0.64,9.9,5.0,0.05,-0.01,-0.17,0.0,r
3094.0,2962.0,3018.0,3563.0,4095.0,3183.0,2559.0,2149.0,-0.84,9.81,5.34,0.0,0.06,-0.16,0.0,r
3104.0,2965.0,3033.0,3559.0,4095.0,3178.0,2559.0,2146.0,-0.62,9.81,5.01,0.05,0.03,-0.17,0.0,r
3104.0,2961.0,3016.0,3551.0,4095.0,3168.0,2559.0,2153.0,-0.69,9.88,5.06,0.04,0.02,-0.15,0.0,r
3109.0,2985.0,3038.0,3558.0,4095.0,3174.0,2580.0,2155.0,-0.8,9.74,5.01,0.04,0.13,-0.15,0.0,r
3097.0,2983.0,3024.0,3555.0,4095.0,3175.0,2559.0,2157.0,-0.86,9.81,5.08,0.03,0.02,-0.11,0.0,r
3105.0,2974.0,3024.0,3559.0,4095.0,3179.0,2559.0,2157.0,-0.96,9.89,5.12,0.01,0.05,-0.13,0.0,r
3119.0,2973.0,3025.0,3543.0,4095.0,3179.0,2589.0,2157.0,-0.86,9.88,5.07,0.03,0.01,-0.14,0.0,r
3118.0,2969.0,3034.0,3551.0,4095.0,3174.0,2579.0,2157.0,-0.8,9.83,4.96,0.03,0.09,-0.15,0.0,r
3094.0,2963.0,3019.0,3546.0,4095.0,3177.0,2559.0,2158.0,-0.81,9.76,5.18,0.0,0.06,-0.15,0.0,r
3115.0,2988.0,3027.0,3538.0,4095.0,3179.0,2559.0,2158.0,-0.68,9.83,5.07,0.01,0.02,-0.16,0.0,r
3091.0,2969.0,3029.0,3550.0,4095.0,3178.0,2559.0,2157.0,-0.87,9.82,4.91,0.03,0.02,-0.17,0.0,r
3102.0,2976.0,3033.0,3551.0,4095.0,3182.0,2580.0,2153.0,-0.74,9.86,4.83,0.01,-0.03,-0.13,0.0,r
3105.0,2985.0,3030.0,3547.0,4095.0,3179.0,2559.0,2159.0,-0.65,9.92,4.95,-0.03,-0.09,-0.16,0.0,r
3105.0,2978.0,3019.0,3546.0,4095.0,3179.0,2559.0,2153.0,-0.59,9.79,5.34,-0.02,-0.04,-0.14,0.0,r
3101.0,2983.0,3027.0,3555.0,4095.0,3184.0,2559.0,2155.0,-0.76,9.83,5.05,0.07,0.03,-0.14,0.0,r
3099.0,2977.0,3040.0,3551.0,4095.0,3189.0,2559.0,2158.0,-0.75,9.83,5.13,0.01,0.0,-0.15,0.0,r
3105.0,2991.0,3024.0,3557.0,4095.0,3188.0,2559.0,2159.0,-0.8,9.84,4.95,0.02,-0.09,-0.19,0.0,r
3114.0,2969.0,3022.0,3541.0,4095.0,3184.0,2559.0,2157.0,-0.8,9.81,5.22,0.02,-0.0,-0.15,0.0,r
3113.0,2979.0,3025.0,3548.0,4095.0,3185.0,2559.0,2155.0,-0.75,9.89,4.98,0.06,-0.03,-0.16,0.0,r
3098.0,2966.0,3035.0,3547.0,4095.0,3184.0,2559.0,2160.0,-0.91,9.84,5.1,0.07,-0.04,-0.16,0.0,r
3115.0,2973.0,3029.0,3549.0,4095.0,3189.0,2559.0,2160.0,-0.73,9.89,4.76,0.03,-0.01,-0.16,0.0,r
3113.0,2980.0,3029.0,3552.0,4095.0,3187.0,2559.0,2159.0,-0.65,9.86,5.04,-0.01,-0.01,-0.14,0.0,r
3100.0,2967.0,3026.0,3540.0,4095.0,3184.0,2559.0,2158.0,-0.85,9.9,4.98,-0.0,-0.0,-0.17,0.0,r
3093.0,2976.0,3026.0,3548.0,4095.0,3184.0,2559.0,2163.0,-0.69,9.78,5.07,0.0,0.03,-0.14,0.0,r
3117.0,2977.0,3034.0,3541.0,4095.0,3185.0,2559.0,2160.0,-0.81,9.81,5.04,0.03,0.02,-0.16,0.0,r
3118.0,2965.0,3024.0,3538.0,4095.0,3187.0,2559.0,2162.0,-0.9,9.83,4.98,0.01,0.01,-0.16,0.0,r
3247.0,2975.0,2979.0,3517.0,4095.0,3017.0,2391.0,2133.0,-0.7,9.81,4.66,0.04,0.0,-0.15,0.0,r
3235.0,2967.0,2967.0,3485.0,4095.0,3024.0,2375.0,2147.0,-0.9,9.86,4.64,0.04,-0.0,-0.17,0.0,r
3218.0,2970.0,2975.0,3489.0,4095.0,3026.0,2382.0,2147.0,-0.94,9.89,4.58,0.01,0.03,-0.13,0.0,r
3239.0,2973.0,2977.0,3486.0,4095.0,3024.0,2384.0,2145.0,-0.78,9.84,4.58,0.04,0.01,-0.13,0.0,r
3235.0,2975.0,2976.0,3504.0,4095.0,3031.0,2384.0,2150.0,-0.84,9.86,4.36,0.04,-0.03,-0.12,0.0,r
3233.0,2975.0,2979.0,3493.0,4095.0,3026.0,2395.0,2145.0,-0.52,9.88,4.49,-0.01,-0.04,-0.12,0.0,r
3244.0,2973.0,2980.0,3488.0,4095.0,3024.0,2385.0,2142.0,-0.68,9.92,4.65,0.0,-0.01,-0.13,0.0,r
3247.0,2990.0,2988.0,3487.0,4095.0,3024.0,2384.0,2137.0,-0.7,9.84,4.65,0.03,0.02,-0.15,0.0,r
3249.0,2987.0,2991.0,3498.0,4095.0,3026.0,2383.0,2146.0,-0.75,9.88,4.5,-0.0,0.01,-0.15,0.0,r
3245.0,2973.0,2978.0,3507.0,4095.0,3037.0,2388.0,2137.0,-0.74,9.86,4.78,0.06,-0.0,-0.13,0.0,r
3247.0,2974.0,2981.0,3503.0,4095.0,3031.0,2388.0,2143.0,-0.62,9.93,4.47,0.03,0.03,-0.17,0.0,r
3248.0,2975.0,2974.0,3507.0,4095.0,3035.0,2388.0,2138.0,-0.73,9.81,4.49,0.01,-0.0,-0.16,0.0,r
3247.0,2970.0,2963.0,3507.0,4095.0,3037.0,2398.0,2144.0,-0.7,9.87,4.61,0.02,0.01,-0.14,0.0,r
3241.0,2977.0,2974.0,3504.0,4095.0,3037.0,2393.0,2128.0,-0.74,9.92,4.42,0.04,-0.01,-0.14,0.0,r
3263.0,2975.0,2982.0,3514.0,4095.0,3035.0,2389.0,2128.0,-0.79,9.87,4.67,0.02,-0.02,-0.16,0.0,r
3248.0,2983.0,2978.0,3515.0,4095.0,3031.0,2387.0,2128.0,-0.86,9.83,4.58,0.09,-0.02,-0.15,0.0,r
3264.0,2984.0,2976.0,3511.0,4095.0,3041.0,2394.0,2112.0,-0.66,9.85,4.33,-0.01,0.02,-0.14,0.0,r
3260.0,2982.0,2989.0,3508.0,4095.0,3042.0,2398.0,2119.0,-0.66,9.83,4.47,0.01,-0.01,-0.15,0.0,r
3257.0,2988.0,2976.0,3515.0,4095.0,3046.0,2399.0,2124.0,-0.88,9.85,4.56,0.0,-0.0,-0.16,0.0,r
3246.0,2981.0,2969.0,3533.0,4095.0,3051.0,2395.0,2128.0,-0.63,9.87,4.51,0.0,-0.01,-0.14,0.0,r
3249.0,2977.0,2969.0,3522.0,4095.0,3049.0,2397.0,2132.0,-0.77,9.87,4.64,0.0,-0.02,-0.17,0.0,r
3249.0,2971.0,2974.0,3535.0,4095.0,3051.0,2390.0,2123.0,-0.71,9.75,4.68,0.04,-0.02,-0.15,0.0,r
3259.0,2983.0,2974.0,3526.0,4095.0,3050.0,2399.0,2129.0,-0.8,9.86,4.4,0.03,-0.05,-0.12,0.0,r
3266.0,2973.0,2971.0,3527.0,4095.0,3056.0,2399.0,2128.0,-0.66,9.85,4.68,0.03,-0.01,-0.13,0.0,r
3259.0,2978.0,2967.0,3531.0,4095.0,3053.0,2399.0,2125.0,-0.53,9.94,4.31,0.03,-0.03,-0.17,0.0,r
3273.0,2986.0,2974.0,3533.0,4095.0,3056.0,2397.0,2133.0,-0.71,9.88,4.36,-0.05,-0.01,-0.2,0.0,r
3259.0,2982.0,2974.0,3540.0,4095.0,3053.0,2395.0,2128.0,-0.62,9.79,4.5,-0.02,-0.04,-0.21,0.0,r
3270.0,2971.0,2974.0,3529.0,4095.0,3056.0,2407.0,2128.0,-0.81,9.85,4.28,-0.0,-0.15,-0.16,0.0,r
3258.0,2996.0,2973.0,3539.0,4095.0,3058.0,2403.0,2139.0,-0.97,9.75,5.14,0.03,-0.1,-0.14,0.0,r
3258.0,2980.0,2977.0,3523.0,4095.0,3063.0,2400.0,2130.0,-0.61,9.64,4.57,-0.01,-0.02,-0.18,0.0,r
3260.0,2983.0,2973.0,3522.0,4095.0,3058.0,2406.0,2136.0,-0.87,9.87,4.58,0.06,-0.1,-0.1,0.0,r
3264.0,2992.0,2972.0,3538.0,4095.0,3059.0,2397.0,2147.0,-0.61,9.88,4.76,-0.03,-0.03,-0.13,0.0,r
3263.0,2974.0,2971.0,3536.0,4095.0,3067.0,2403.0,2147.0,-0.81,9.92,4.79,0.02,-0.01,-0.1,0.0,r
3264.0,2971.0,2962.0,3537.0,4095.0,3071.0,2410.0,2141.0,-0.66,9.91,4.65,-0.0,-0.01,-0.14,0.0,r
3266.0,2982.0,2983.0,3531.0,4095.0,3071.0,2403.0,2144.0,-0.67,9.92,4.6,-0.01,-0.05,-0.15,0.0,r
3279.0,2987.0,2981.0,3549.0,4095.0,3081.0,2396.0,2150.0,-0.64,9.94,4.58,0.06,-0.04,-0.18,0.0,r
3261.0,2977.0,2966.0,3555.0,4095.0,3088.0,2401.0,2150.0,-0.62,9.84,4.74,-0.01,0.01,-0.15,0.0,r
3280.0,2975.0,2981.0,3546.0,4095.0,3089.0,2395.0,2153.0,-0.7,9.86,4.91,0.02,0.02,-0.15,0.0,r
3278.0,2990.0,2979.0,3543.0,4095.0,3095.0,2403.0,2156.0,-0.62,9.9,4.74,0.06,-0.01,-0.18,0.0,r
3282.0,2982.0,2972.0,3551.0,4095.0,3101.0,2409.0,2153.0,-0.7,9.98,4.51,0.05,0.03,-0.2,0.0,r
3287.0,2979.0,2977.0,3535.0,4095.0,3102.0,2405.0,2158.0,-0.8,9.8,4.62,0.03,-0.03,-0.18,0.0,r
3088.0,3001.0,2960.0,3120.0,3518.0,3157.0,2303.0,1730.0,-1.05,9.7,4.38,-0.08,-0.03,-0.09,0.0,r
3087.0,2982.0,2965.0,3122.0,3526.0,3152.0,2299.0,1734.0,-1.31,9.66,4.29,0.04,-0.07,-0.19,0.0,r
3071.0,3006.0,2976.0,3146.0,3536.0,3196.0,2308.0,1745.0,-1.34,9.81,4.39,0.08,-0.03,-0.14,0.0,r
3071.0,3007.0,2961.0,3139.0,3533.0,3191.0,2309.0,1735.0,-1.03,9.77,4.5,0.06,-0.09,-0.17,0.0,r
3070.0,3012.0,2959.0,3159.0,3555.0,3200.0,2320.0,1751.0,-1.22,9.82,4.17,0.12,-0.02,-0.2,0.0,r
3071.0,2997.0,2960.0,3166.0,3563.0,3213.0,2317.0,1749.0,-1.22,9.9,4.08,0.01,0.04,-0.17,0.0,r
3093.0,3001.0,2965.0,3146.0,3573.0,3225.0,2322.0,1753.0,-1.17,9.8,4.16,-0.0,0.03,-0.19,0.0,r
3095.0,3010.0,2973.0,3155.0,3568.0,3229.0,2324.0,1755.0,-1.33,9.76,4.29,-0.04,-0.03,-0.13,0.0,r
3094.0,3013.0,2971.0,3174.0,3583.0,3205.0,2330.0,1742.0,-1.35,9.49,4.53,-0.03,-0.04,-0.13,0.0,r
3087.0,3006.0,2960.0,3147.0,3574.0,3213.0,2326.0,1745.0,-1.54,9.74,3.86,0.02,-0.09,-0.07,0.0,r
3071.0,2999.0,2975.0,3143.0,3546.0,3185.0,2330.0,1760.0,-0.79,9.7,5.08,0.0,-0.01,-0.13,0.0,r
3092.0,2998.0,2960.0,3162.0,3582.0,3203.0,2335.0,1753.0,-1.26,9.83,4.32,0.01,0.06,-0.08,0.0,r
3083.0,2999.0,2961.0,3164.0,3561.0,3210.0,2331.0,1743.0,-0.77,9.62,4.52,-0.06,-0.03,-0.09,0.0,r
3063.0,3008.0,2957.0,3165.0,3582.0,3210.0,2334.0,1764.0,-0.9,9.86,4.79,0.05,-0.03,-0.11,0.0,r
3071.0,3003.0,2960.0,3161.0,3601.0,3202.0,2337.0,1762.0,-0.96,9.77,4.47,0.02,-0.02,-0.11,0.0,r
3071.0,3015.0,2941.0,3152.0,3568.0,3235.0,2346.0,1747.0,-0.94,9.8,4.84,0.03,0.01,-0.15,0.0,r
3065.0,2999.0,2953.0,3157.0,3567.0,3226.0,2341.0,1758.0,-0.89,9.92,4.49,0.09,0.01,-0.1,0.0,r
3071.0,3002.0,2965.0,3183.0,3545.0,3219.0,2343.0,1759.0,-0.85,9.83,4.2,-0.07,0.0,-0.1,0.0,r
3103.0,3006.0,2960.0,3184.0,3567.0,3201.0,2351.0,1758.0,-0.85,9.59,4.68,-0.04,-0.04,-0.15,0.0,r
3083.0,3007.0,2976.0,3183.0,3570.0,3201.0,2358.0,1753.0,-1.04,9.78,4.59,0.01,-0.02,-0.14,0.0,r
3079.0,3008.0,2975.0,3199.0,3579.0,3217.0,2336.0,1761.0,-0.83,9.85,4.61,0.04,0.02,-0.16,0.0,r
3085.0,2996.0,2957.0,3197.0,3583.0,3228.0,2367.0,1761.0,-0.78,9.89,4.62,0.01,-0.03,-0.19,0.0,r
3081.0,2993.0,2966.0,3186.0,3567.0,3233.0,2371.0,1762.0,-0.86,9.83,4.5,0.05,-0.02,-0.2,0.0,r
3087.0,2998.0,2963.0,3206.0,3611.0,3234.0,2379.0,1766.0,-0.78,9.94,4.33,-0.02,-0.0,-0.15,0.0,r
3086.0,2990.0,2965.0,3181.0,3583.0,3232.0,2369.0,1738.0,-0.8,9.89,4.44,0.01,-0.01,-0.19,0.0,r
3078.0,2993.0,2960.0,3189.0,3573.0,3221.0,2381.0,1753.0,-0.92,9.92,4.44,-0.03,0.02,-0.16,0.0,r
3085.0,3003.0,2961.0,3185.0,3598.0,3206.0,2362.0,1746.0,-0.83,9.77,4.7,0.03,0.05,-0.16,0.0,r
3071.0,2999.0,2960.0,3187.0,3561.0,3209.0,2367.0,1757.0,-0.76,9.86,4.52,-0.02,0.03,-0.13,0.0,r
3071.0,2993.0,2983.0,3189.0,3579.0,3202.0,2377.0,1758.0,-0.86,9.82,4.56,0.01,0.03,-0.19,0.0,r
3069.0,3015.0,2959.0,3199.0,3605.0,3217.0,2368.0,1747.0,-0.85,9.86,4.5,0.05,0.03,-0.17,0.0,r
3088.0,3003.0,2962.0,3204.0,3583.0,3205.0,2379.0,1759.0,-0.89,9.85,4.49,0.0,0.01,-0.15,0.0,r
3089.0,3006.0,2949.0,3197.0,3607.0,3226.0,2384.0,1760.0,-1.02,9.67,4.64,0.0,-0.01,-0.1,0.0,r
3094.0,2992.0,2960.0,3184.0,3583.0,3247.0,2379.0,1759.0,-0.94,9.61,4.55,-0.02,0.0,-0.14,0.0,r
3068.0,3003.0,2958.0,3210.0,3602.0,3227.0,2397.0,1777.0,-1.07,9.79,4.83,0.01,-0.04,-0.1,0.0,r
3071.0,2994.0,2978.0,3225.0,3583.0,3220.0,2384.0,1767.0,-0.98,9.66,4.82,0.07,-0.07,-0.19,0.0,r
3095.0,3007.0,2958.0,3217.0,3603.0,3237.0,2394.0,1778.0,-1.01,9.88,4.67,0.04,-0.01,-0.11,0.0,r
3079.0,2985.0,2973.0,3211.0,3583.0,3212.0,2389.0,1767.0,-0.77,9.92,4.67,0.02,-0.08,-0.16,0.0,r
3089.0,2987.0,2970.0,3194.0,3600.0,3225.0,2377.0,1776.0,-1.03,9.88,4.93,0.16,-0.04,-0.12,0.0,r
3088.0,2997.0,2960.0,3183.0,3582.0,3258.0,2379.0,1773.0,-0.8,9.9,4.36,0.03,-0.03,-0.18,0.0,r
3071.0,2991.0,2955.0,3202.0,3600.0,3238.0,2367.0,1767.0,-0.99,9.8,4.7,0.01,0.02,-0.14,0.0,r
3071.0,2998.0,2967.0,3216.0,3579.0,3230.0,2371.0,1778.0,-0.88,9.72,4.68,-0.01,0.02,-0.15,0.0,r
3108.0,3011.0,2955.0,3184.0,3808.0,3106.0,2559.0,1936.0,-0.58,10.04,4.53,-0.01,0.05,-0.15,0.0,r
3088.0,2998.0,2960.0,3196.0,3814.0,3120.0,2559.0,1945.0,-0.71,9.7,4.61,0.02,0.01,-0.13,0.0,r
3087.0,2998.0,2957.0,3216.0,3827.0,3115.0,2545.0,1948.0,-0.46,9.86,4.6,-0.05,0.03,-0.15,0.0,r
3101.0,3009.0,2963.0,3181.0,3782.0,3119.0,2559.0,1937.0,-0.32,10.21,4.7,-0.0,0.05,-0.17,0.0,r
3098.0,2999.0,2950.0,3184.0,3812.0,3106.0,2556.0,1956.0,-0.85,9.94,4.56,0.07,0.09,-0.13,0.0,r
3115.0,3017.0,2965.0,3189.0,3814.0,3136.0,2559.0,1953.0,-0.54,9.96,4.47,-0.05,0.05,-0.11,0.0,r
3088.0,2994.0,2978.0,3203.0,3794.0,3116.0,2559.0,1953.0,-0.34,9.76,4.59,0.04,0.01,-0.15,0.0,r
3101.0,2996.0,2960.0,3190.0,3824.0,3135.0,2559.0,1949.0,-0.89,9.82,4.46,-0.03,-0.01,-0.19,0.0,r
3105.0,3002.0,2960.0,3201.0,3815.0,3140.0,2559.0,1959.0,-0.76,9.9,4.98,0.06,-0.06,-0.13,0.0,r
3099.0,2989.0,2967.0,3186.0,3824.0,3126.0,2559.0,1951.0,-0.78,9.99,4.63,-0.06,-0.08,-0.12,0.0,r
3119.0,2992.0,2962.0,3213.0,3783.0,3121.0,2559.0,1942.0,-0.62,9.65,5.23,0.07,-0.1,-0.19,0.0,r
3088.0,2997.0,2955.0,3184.0,3781.0,3097.0,2559.0,1951.0,-0.66,9.92,4.87,0.06,-0.07,-0.13,0.0,r
3100.0,3005.0,2961.0,3192.0,3823.0,3120.0,2555.0,1943.0,-0.63,9.98,4.93,0.07,-0.01,-0.13,0.0,r
3099.0,2998.0,2965.0,3182.0,3824.0,3127.0,2582.0,1955.0,-0.4,10.03,4.81,0.05,-0.01,-0.14,0.0,r
3117.0,2995.0,2978.0,3187.0,3835.0,3137.0,2559.0,1947.0,-0.61,9.81,4.76,0.09,-0.03,-0.17,0.0,r
3095.0,2992.0,2969.0,3189.0,3824.0,3120.0,2559.0,1955.0,-0.59,10.06,4.37,0.06,-0.05,-0.12,0.0,r
3101.0,3017.0,2967.0,3191.0,3801.0,3103.0,2555.0,1957.0,-0.36,9.81,4.36,-0.01,-0.03,-0.12,0.0,r
3092.0,2993.0,2958.0,3184.0,3775.0,3120.0,2559.0,1957.0,-0.56,9.87,4.62,-0.05,0.01,-0.13,0.0,r
3113.0,3001.0,2963.0,3202.0,3795.0,3098.0,2549.0,1943.0,-0.53,9.82,4.76,0.03,0.01,-0.15,0.0,r
3107.0,2994.0,2961.0,3208.0,3793.0,3117.0,2558.0,1952.0,-0.65,9.68,4.8,0.06,-0.0,-0.2,0.0,r
3101.0,2998.0,2970.0,3198.0,3795.0,3113.0,2544.0,1953.0,-0.39,9.84,4.53,0.05,-0.02,-0.13,0.0,r
3088.0,2997.0,2960.0,3203.0,3807.0,3120.0,2550.0,1959.0,-0.6,9.97,4.37,-0.0,-0.0,-0.17,0.0,r
3094.0,3000.0,2975.0,3211.0,3814.0,3119.0,2559.0,1951.0,-0.68,9.84,4.7,0.03,-0.0,-0.17,0.0,r
3090.0,2993.0,2953.0,3210.0,3797.0,3114.0,2559.0,1962.0,-0.45,9.92,4.46,0.02,-0.04,-0.14,0.0,r
3079.0,3007.0,2953.0,3227.0,3817.0,3093.0,2557.0,1958.0,-0.54,9.96,4.58,0.0,-0.03,-0.12,0.0,r
3079.0,2995.0,2946.0,3201.0,3792.0,3095.0,2547.0,1967.0,-0.4,10.02,4.57,-0.02,0.01,-0.14,0.0,r
3088.0,2992.0,2972.0,3230.0,3792.0,3101.0,2559.0,1958.0,-0.4,9.97,4.47,0.03,0.01,-0.15,0.0,r
3101.0,3008.0,2958.0,3199.0,3824.0,3109.0,2553.0,1966.0,-0.48,9.8,4.61,-0.01,-0.01,-0.16,0.0,r
3088.0,2986.0,2967.0,3219.0,3799.0,3101.0,2558.0,1968.0,-0.55,9.82,4.63,-0.01,0.03,-0.15,0.0,r
3095.0,3005.0,2945.0,3201.0,3823.0,3117.0,2559.0,1951.0,-0.45,9.92,4.47,0.03,0.0,-0.11,0.0,r
3091.0,3010.0,2973.0,3229.0,3783.0,3104.0,2559.0,1973.0,-0.49,9.82,4.29,-0.03,-0.01,-0.16,0.0,r
3071.0,3003.0,2944.0,3214.0,3803.0,3109.0,2559.0,1973.0,-0.49,9.99,4.69,0.01,0.04,-0.11,0.0,r
3089.0,2997.0,2962.0,3213.0,3783.0,3094.0,2549.0,1981.0,-0.37,9.86,4.31,0.0,-0.02,-0.16,0.0,r
3089.0,2997.0,2971.0,3222.0,3811.0,3107.0,2559.0,1977.0,-0.5,9.81,4.4,0.0,0.01,-0.13,0.0,r
3088.0,2992.0,2961.0,3213.0,3788.0,3099.0,2559.0,1968.0,-0.55,9.96,4.37,-0.01,0.01,-0.11,0.0,r
3109.0,2992.0,2967.0,3217.0,3780.0,3113.0,2548.0,1984.0,-0.52,9.74,4.57,0.0,-0.02,-0.18,0.0,r
3094.0,2999.0,2960.0,3229.0,3813.0,3109.0,2559.0,1978.0,-0.49,9.87,4.19,-0.01,0.01,-0.15,0.0,r
3095.0,2998.0,2959.0,3231.0,3825.0,3117.0,2559.0,1984.0,-0.76,9.79,4.55,-0.07,0.01,-0.18,0.0,r
3087.0,3008.0,2976.0,3245.0,3811.0,3115.0,2546.0,1974.0,-0.7,9.84,4.57,-0.01,-0.0,-0.16,0.0,r
3093.0,2997.0,2973.0,3218.0,3805.0,3106.0,2559.0,1990.0,-0.67,9.78,4.56,-0.01,-0.04,-0.18,0.0,r
3071.0,3001.0,2969.0,3248.0,3787.0,3106.0,2559.0,1989.0,-0.86,9.78,4.67,-0.03,-0.02,-0.19,0.0,r
3069.0,3024.0,2958.0,3035.0,3703.0,3237.0,2283.0,1807.0,-0.57,10.18,3.64,0.08,-0.09,-0.24,0.0,r
3079.0,3014.0,2960.0,3026.0,3690.0,3119.0,2288.0,1605.0,-1.34,10.06,3.36,0.12,-0.06,-0.24,0.0,r
3088.0,3017.0,2959.0,3053.0,3661.0,2999.0,2298.0,1711.0,-0.93,9.82,3.53,-0.08,0.03,-0.05,0.0,r
3071.0,3015.0,2960.0,3050.0,3662.0,2959.0,2298.0,1690.0,-0.97,9.62,3.95,0.04,-0.02,-0.13,0.0,r
3070.0,3024.0,2949.0,3054.0,3695.0,2977.0,2310.0,1711.0,-0.89,9.84,3.7,-0.0,-0.06,-0.16,0.0,r
3069.0,3013.0,2973.0,3061.0,3649.0,2956.0,2313.0,1725.0,-0.9,9.91,4.29,-0.01,0.07,-0.11,0.0,r
3071.0,2997.0,2958.0,3063.0,3661.0,2976.0,2333.0,1741.0,-1.13,10.04,3.69,-0.05,0.01,-0.13,0.0,r
3071.0,3023.0,2961.0,3069.0,3659.0,2967.0,2337.0,1770.0,-0.92,9.61,3.94,-0.13,-0.08,-0.04,0.0,r
3071.0,3018.0,2961.0,3056.0,3667.0,2923.0,2326.0,1773.0,-0.64,9.62,4.5,0.08,-0.06,-0.19,0.0,r
3071.0,3024.0,2963.0,3071.0,3683.0,2937.0,2329.0,1788.0,-0.77,9.9,4.04,0.11,-0.04,-0.21,0.0,r
3091.0,3022.0,2976.0,3063.0,3695.0,2910.0,2339.0,1789.0,-0.75,9.96,3.89,0.01,-0.01,-0.09,0.0,r
3086.0,3010.0,2958.0,3071.0,3694.0,2928.0,2341.0,1799.0,-0.49,9.97,3.76,-0.06,-0.1,-0.12,0.0,r
3086.0,3003.0,2965.0,3071.0,3682.0,2932.0,2352.0,1808.0,-1.09,9.87,3.98,0.02,0.04,-0.18,0.0,r
3062.0,3008.0,2959.0,3093.0,3697.0,2928.0,2352.0,1808.0,-0.79,10.11,3.85,-0.01,0.05,-0.19,0.0,r
3071.0,3018.0,2955.0,3083.0,3701.0,2927.0,2355.0,1814.0,-1.0,9.72,3.88,-0.06,-0.04,-0.13,0.0,r
3086.0,3013.0,2958.0,3087.0,3695.0,2933.0,2350.0,1817.0,-0.97,9.79,4.21,-0.03,-0.01,-0.12,0.0,r
3068.0,3001.0,2968.0,3088.0,3703.0,2922.0,2364.0,1821.0,-0.86,9.79,4.13,0.13,-0.03,-0.18,0.0,r
3082.0,3011.0,2961.0,3113.0,3719.0,2896.0,2352.0,1840.0,-0.68,9.92,3.87,-0.07,0.04,-0.08,0.0,r
3071.0,3004.0,2957.0,3118.0,3712.0,2897.0,2373.0,1848.0,-0.78,9.73,4.12,-0.1,0.01,-0.09,0.0,r
3062.0,2999.0,2961.0,3113.0,3728.0,2914.0,2371.0,1843.0,-0.89,9.82,4.02,-0.11,0.01,-0.1,0.0,r
3068.0,3014.0,2946.0,3123.0,3721.0,2930.0,2382.0,1853.0,-0.76,9.83,4.23,0.02,0.08,-0.1,0.0,r
