hall_1,hall_2,hall_3,flex_t,flex_i,flex_m,flex_r,flex_p,accel_x,accel_y,accel_z,gyro_x,gyro_y,gyro_z,hand,sign
3227.0,2992.0,2000.0,3037.0,4095.0,2880.0,2546.0,2311.0,-3.78,8.51,7.41,0.01,-0.04,-0.16,0.0,r
3235.0,2992.0,1866.0,3039.0,4095.0,2893.0,2553.0,2308.0,-4.03,8.38,7.49,-0.02,-0.0,-0.16,0.0,r
3239.0,2992.0,1823.0,3043.0,4095.0,2890.0,2546.0,2300.0,-3.75,8.41,7.35,-0.01,-0.0,-0.1,0.0,r
3223.0,2992.0,1831.0,3038.0,4095.0,2890.0,2549.0,2301.0,-3.9,8.39,7.31,-0.03,0.0,-0.13,0.0,r
3229.0,2985.0,1829.0,3038.0,4095.0,2890.0,2546.0,2298.0,-3.92,8.66,7.37,-0.05,-0.07,-0.14,0.0,r
3229.0,2997.0,1825.0,3037.0,4095.0,2894.0,2544.0,2298.0,-3.86,8.3,7.73,0.0,0.03,-0.16,0.0,r
3241.0,2999.0,1827.0,3047.0,4095.0,2899.0,2555.0,2299.0,-3.73,8.38,7.23,0.0,0.02,-0.13,0.0,r
3228.0,2992.0,1818.0,3050.0,4095.0,2896.0,2553.0,2302.0,-4.01,8.48,7.63,0.0,-0.06,-0.18,0.0,r
3241.0,2997.0,1824.0,3043.0,4095.0,2896.0,2550.0,2305.0,-3.7,8.36,7.47,0.01,-0.05,-0.17,0.0,r
3228.0,2990.0,1829.0,3047.0,4095.0,2899.0,2551.0,2308.0,-4.0,8.32,7.78,0.01,-0.06,-0.15,0.0,r
3216.0,2989.0,1824.0,3045.0,4095.0,2895.0,2554.0,2306.0,-3.69,8.45,7.64,-0.01,0.02,-0.18,0.0,r
3232.0,2990.0,1808.0,3047.0,4095.0,2901.0,2554.0,2309.0,-3.93,8.3,7.52,-0.01,-0.07,-0.17,0.0,r
3235.0,2995.0,1813.0,3051.0,4095.0,2903.0,2558.0,2314.0,-3.84,8.32,7.75,0.03,-0.07,-0.14,0.0,r
3234.0,2991.0,1799.0,3049.0,4095.0,2907.0,2557.0,2319.0,-3.89,8.4,7.7,-0.03,-0.06,-0.19,0.0,r
3235.0,2991.0,1803.0,3051.0,4095.0,2907.0,2557.0,2320.0,-3.78,8.22,8.06,-0.03,0.03,-0.21,0.0,r
3226.0,2997.0,1810.0,3051.0,4095.0,2908.0,2554.0,2320.0,-3.86,8.08,7.46,0.05,0.01,-0.19,0.0,r
3248.0,2983.0,1805.0,3053.0,4095.0,2907.0,2559.0,2320.0,-3.93,8.17,8.0,-0.06,-0.12,-0.16,0.0,r
3237.0,2992.0,1810.0,3043.0,4095.0,2902.0,2555.0,2317.0,-3.81,8.16,8.13,0.04,-0.08,-0.18,0.0,r
3220.0,2980.0,1812.0,3046.0,4095.0,2907.0,2559.0,2320.0,-3.88,8.17,7.73,-0.01,0.0,-0.15,0.0,r
3232.0,2995.0,1808.0,3056.0,4095.0,2906.0,2557.0,2320.0,-4.0,8.26,8.02,0.02,-0.02,-0.17,0.0,r
3235.0,2999.0,1804.0,3050.0,4095.0,2898.0,2559.0,2315.0,-3.81,8.15,7.86,0.05,0.02,-0.17,0.0,r
3229.0,2986.0,1807.0,3055.0,4095.0,2907.0,2559.0,2320.0,-4.01,8.05,7.94,-0.01,-0.04,-0.16,0.0,r
3235.0,2993.0,1798.0,3049.0,4095.0,2907.0,2558.0,2319.0,-3.84,8.22,8.01,0.04,-0.02,-0.14,0.0,r
3226.0,2991.0,1794.0,3054.0,4095.0,2912.0,2559.0,2322.0,-4.04,8.22,8.2,-0.02,-0.02,-0.16,0.0,r
3235.0,2993.0,1799.0,3056.0,4095.0,2911.0,2559.0,2322.0,-3.63,8.11,7.99,0.03,0.04,-0.16,0.0,r
3238.0,2983.0,1791.0,3053.0,4095.0,2908.0,2559.0,2320.0,-4.03,8.22,7.74,-0.01,-0.02,-0.15,0.0,r
3219.0,2992.0,1805.0,3056.0,4095.0,2911.0,2559.0,2320.0,-3.81,8.21,7.98,-0.01,0.01,-0.16,0.0,r
3239.0,2991.0,1803.0,3059.0,4095.0,2914.0,2559.0,2320.0,-3.78,8.31,7.74,0.05,-0.04,-0.14,0.0,r
3230.0,2991.0,1799.0,3058.0,4095.0,2915.0,2559.0,2325.0,-4.03,8.05,8.34,0.1,-0.03,-0.22,0.0,r
3235.0,2989.0,1807.0,3066.0,4095.0,2911.0,2559.0,2324.0,-3.85,8.15,7.67,0.05,0.01,-0.19,0.0,r
3235.0,2992.0,1766.0,3068.0,4095.0,2905.0,2559.0,2320.0,-3.95,8.11,8.08,0.0,-0.01,-0.11,0.0,r
3232.0,2997.0,1658.0,3071.0,4095.0,2909.0,2559.0,2319.0,-3.84,8.2,7.81,0.08,-0.01,-0.15,0.0,r
3243.0,2995.0,1655.0,3071.0,4095.0,2907.0,2559.0,2317.0,-4.14,8.24,8.01,-0.02,-0.03,-0.14,0.0,r
3223.0,2996.0,1665.0,3061.0,4095.0,2914.0,2559.0,2320.0,-3.61,8.3,7.73,0.02,-0.01,-0.15,0.0,r
3227.0,2990.0,1646.0,3066.0,4095.0,2907.0,2559.0,2317.0,-3.92,8.37,7.86,-0.04,-0.1,-0.16,0.0,r
3221.0,2981.0,1649.0,3069.0,4095.0,2909.0,2559.0,2319.0,-3.79,8.13,8.16,0.04,0.03,-0.16,0.0,r
3230.0,2986.0,1663.0,3068.0,4095.0,2915.0,2559.0,2322.0,-3.73,8.36,7.71,-0.01,-0.05,-0.17,0.0,r
3218.0,2994.0,1654.0,3083.0,4095.0,2915.0,2559.0,2322.0,-4.0,8.03,8.18,0.01,0.02,-0.15,0.0,r
3221.0,2998.0,1607.0,3085.0,4095.0,2913.0,2559.0,2320.0,-3.65,8.22,7.67,-0.03,-0.02,-0.12,0.0,r
3235.0,2995.0,1591.0,3081.0,4095.0,2913.0,2559.0,2317.0,-3.99,8.15,8.49,-0.03,-0.0,-0.14,0.0,r
3237.0,2990.0,1609.0,3071.0,4095.0,2911.0,2559.0,2320.0,-3.47,8.63,7.51,0.06,-0.04,-0.24,0.0,r
3219.0,2987.0,1617.0,3071.0,4095.0,2915.0,2581.0,2320.0,-4.23,7.97,8.57,0.04,-0.07,-0.21,0.0,r
3213.0,2994.0,1598.0,3071.0,4095.0,2917.0,2580.0,2320.0,-3.64,7.97,7.68,0.04,0.06,-0.18,0.0,r
3225.0,2992.0,1616.0,3088.0,4095.0,2923.0,2588.0,2322.0,-3.93,8.23,7.95,-0.12,-0.09,-0.2,0.0,r
3226.0,2996.0,1598.0,3087.0,4095.0,2918.0,2582.0,2320.0,-3.94,8.0,8.3,0.08,0.03,-0.1,0.0,r
3219.0,2997.0,1600.0,3093.0,4095.0,2919.0,2585.0,2320.0,-3.9,8.19,7.66,-0.02,-0.07,-0.15,0.0,r
3226.0,3001.0,1597.0,3097.0,4095.0,2918.0,2587.0,2321.0,-4.18,8.18,8.48,-0.03,-0.02,-0.1,0.0,r
3227.0,2999.0,1588.0,3092.0,4095.0,2919.0,2587.0,2320.0,-3.51,8.2,7.67,0.01,-0.02,-0.22,0.0,r
3219.0,2992.0,1595.0,3092.0,4095.0,2914.0,2583.0,2320.0,-4.33,8.06,8.59,-0.01,-0.07,-0.14,0.0,r
3225.0,2996.0,1591.0,3098.0,4095.0,2918.0,2586.0,2320.0,-3.53,8.04,8.13,0.04,0.07,-0.15,0.0,r
3232.0,3003.0,1597.0,3103.0,4095.0,2923.0,2587.0,2322.0,-4.02,8.1,8.07,-0.05,-0.06,-0.15,0.0,r
3226.0,2992.0,1589.0,3102.0,4095.0,2925.0,2589.0,2320.0,-3.57,8.0,8.77,0.01,0.12,0.04,0.0,r
3217.0,2994.0,1592.0,3101.0,4095.0,2923.0,2586.0,2320.0,-3.65,8.22,7.86,0.01,-0.02,-0.16,0.0,r
3242.0,2992.0,1595.0,3105.0,4095.0,2921.0,2588.0,2320.0,-3.86,8.08,8.54,-0.07,-0.01,-0.15,0.0,r
3223.0,2992.0,1591.0,3103.0,4095.0,2922.0,2589.0,2319.0,-3.4,8.06,8.02,0.05,0.07,-0.15,0.0,r
3219.0,2989.0,1582.0,3101.0,4095.0,2919.0,2582.0,2319.0,-4.04,8.19,8.32,-0.04,-0.07,-0.11,0.0,r
3223.0,2988.0,1584.0,3106.0,4095.0,2923.0,2589.0,2320.0,-3.55,8.03,8.46,0.06,0.02,-0.17,0.0,r
3220.0,2990.0,1584.0,3106.0,4095.0,2923.0,2586.0,2315.0,-3.75,8.21,8.1,-0.02,-0.06,-0.17,0.0,r
3215.0,2992.0,1589.0,3104.0,4095.0,2919.0,2586.0,2314.0,-3.84,7.92,8.67,0.05,0.02,-0.15,0.0,r
3229.0,2992.0,1588.0,3109.0,4095.0,2925.0,2589.0,2315.0,-3.5,8.12,8.15,-0.0,0.06,-0.16,0.0,r
3231.0,2991.0,1583.0,3104.0,4095.0,2922.0,2589.0,2311.0,-3.99,7.97,8.42,0.02,-0.01,-0.16,0.0,r
3225.0,2998.0,1583.0,3107.0,4095.0,2922.0,2585.0,2313.0,-3.54,8.12,7.97,0.04,0.04,-0.16,0.0,r
3225.0,2980.0,1597.0,3103.0,4095.0,2918.0,2587.0,2311.0,-3.96,8.15,8.32,-0.02,-0.07,-0.19,0.0,r
3219.0,2991.0,1584.0,3104.0,4095.0,2922.0,2589.0,2308.0,-3.75,7.93,8.31,0.03,0.05,-0.13,0.0,r
3227.0,3002.0,1584.0,3113.0,4095.0,2926.0,2590.0,2319.0,-3.81,8.12,8.21,-0.01,-0.02,-0.17,0.0,r
3234.0,3003.0,1584.0,3109.0,4095.0,2927.0,2593.0,2319.0,-3.93,7.96,8.47,0.02,0.04,-0.12,0.0,r
3216.0,2997.0,1591.0,3106.0,4095.0,2924.0,2589.0,2314.0,-3.47,8.18,7.95,0.0,0.02,-0.12,0.0,r
3219.0,2989.0,1585.0,3106.0,4095.0,2925.0,2591.0,2311.0,-3.97,8.2,8.54,-0.03,-0.03,-0.14,0.0,r
3235.0,2998.0,1585.0,3114.0,4095.0,2928.0,2592.0,2314.0,-3.45,8.11,8.08,0.06,0.02,-0.14,0.0,r
3226.0,2998.0,1584.0,3109.0,4095.0,2926.0,2591.0,2311.0,-3.86,8.21,8.32,-0.04,-0.06,-0.16,0.0,r
3216.0,2995.0,1583.0,3111.0,4095.0,2927.0,2592.0,2313.0,-3.54,7.99,8.51,0.06,0.07,-0.14,0.0,r
3223.0,2991.0,1597.0,3107.0,4095.0,2926.0,2591.0,2320.0,-3.56,8.2,7.8,-0.03,-0.07,-0.13,0.0,r
3233.0,2992.0,1584.0,3115.0,4095.0,2927.0,2597.0,2315.0,-3.91,8.07,8.78,-0.03,-0.01,-0.1,0.0,r
3233.0,2987.0,1590.0,3111.0,4095.0,2928.0,2598.0,2318.0,-3.31,8.19,8.1,0.04,-0.03,-0.16,0.0,r
3233.0,2988.0,1587.0,3106.0,4095.0,2925.0,2589.0,2311.0,-3.95,8.14,8.6,-0.03,-0.02,-0.13,0.0,r
3232.0,3002.0,1586.0,3111.0,4095.0,2925.0,2594.0,2314.0,-3.33,8.15,8.12,0.05,0.03,-0.15,0.0,r
3223.0,2995.0,1581.0,3109.0,4095.0,2926.0,2594.0,2315.0,-3.75,8.17,8.41,-0.02,-0.06,-0.16,0.0,r
3235.0,2985.0,1568.0,3110.0,4095.0,2924.0,2592.0,2313.0,-3.55,8.0,8.52,0.03,0.06,-0.12,0.0,r
3223.0,2998.0,1575.0,3113.0,4095.0,2919.0,2587.0,2306.0,-3.66,8.29,8.21,-0.04,-0.03,-0.13,0.0,r
3229.0,2998.0,1584.0,3111.0,4095.0,2929.0,2598.0,2315.0,-3.64,7.99,8.66,-0.01,0.03,-0.16,0.0,r
3233.0,2991.0,1585.0,3111.0,4095.0,2927.0,2593.0,2309.0,-3.39,8.16,8.05,0.02,-0.03,-0.16,0.0,r
3238.0,2991.0,1561.0,3110.0,4095.0,2928.0,2593.0,2297.0,-3.85,8.13,8.63,-0.03,-0.07,-0.15,0.0,r
3233.0,2995.0,1554.0,3120.0,4095.0,2928.0,2596.0,2301.0,-3.27,8.15,8.36,0.1,0.04,-0.16,0.0,r
3229.0,2995.0,1567.0,3120.0,4095.0,2928.0,2596.0,2302.0,-3.81,8.15,8.52,-0.02,-0.08,-0.2,0.0,r
3232.0,2996.0,1535.0,3116.0,4095.0,2928.0,2605.0,2286.0,-3.39,7.94,8.4,0.04,0.05,-0.13,0.0,r
3225.0,2992.0,1561.0,3118.0,4095.0,2928.0,2606.0,2278.0,-3.69,8.14,8.41,-0.05,-0.05,-0.14,0.0,r
3235.0,2992.0,1535.0,3114.0,4095.0,2929.0,2598.0,2287.0,-3.69,7.98,8.71,0.02,0.01,-0.14,0.0,r
3216.0,2989.0,1553.0,3120.0,4095.0,2928.0,2599.0,2283.0,-3.32,8.21,8.09,-0.01,0.02,-0.11,0.0,r
3243.0,2994.0,1501.0,3115.0,4095.0,2929.0,2592.0,2283.0,-3.66,8.2,8.76,-0.01,-0.06,-0.16,0.0,r
3246.0,3002.0,1473.0,3119.0,4095.0,2928.0,2608.0,2297.0,-3.32,8.19,8.03,0.11,-0.03,-0.23,0.0,r
3227.0,3005.0,1470.0,3114.0,4095.0,2928.0,2606.0,2304.0,-3.75,8.08,8.72,-0.09,-0.04,-0.13,0.0,r
3250.0,2992.0,1466.0,3120.0,4095.0,2933.0,2608.0,2306.0,-3.47,8.03,8.69,0.07,0.09,-0.09,0.0,r
3238.0,2993.0,1481.0,3123.0,4095.0,2934.0,2608.0,2305.0,-3.27,8.2,8.32,0.13,-0.02,-0.26,0.0,r
3239.0,2983.0,1467.0,3120.0,4095.0,2929.0,2607.0,2305.0,-3.96,7.88,8.42,-0.03,0.1,-0.05,0.0,r
3236.0,2986.0,1471.0,3120.0,4095.0,2932.0,2606.0,2307.0,-3.07,8.39,8.09,-0.06,0.04,-0.1,0.0,r
3238.0,2997.0,1488.0,3120.0,4095.0,2938.0,2611.0,2315.0,-3.77,8.05,8.89,-0.02,-0.04,-0.1,0.0,r
3242.0,2994.0,1481.0,3121.0,4095.0,2930.0,2603.0,2314.0,-3.17,8.16,8.26,0.09,0.02,-0.18,0.0,r
3239.0,2999.0,1473.0,3120.0,4095.0,2931.0,2608.0,2311.0,-3.6,8.07,8.41,-0.07,-0.08,-0.16,0.0,r
3248.0,2997.0,1478.0,3118.0,4095.0,2937.0,2608.0,2313.0,-3.38,8.03,8.53,0.03,0.04,-0.1,0.0,r
3239.0,2995.0,1483.0,3120.0,4095.0,2934.0,2609.0,2316.0,-3.29,8.28,8.33,-0.03,-0.07,-0.14,0.0,r
3248.0,3006.0,1488.0,3122.0,4095.0,2942.0,2608.0,2315.0,-3.63,8.05,8.88,-0.01,0.01,-0.14,0.0,r
3238.0,3000.0,1477.0,3119.0,4095.0,2930.0,2610.0,2318.0,-3.16,8.2,8.3,0.02,-0.0,-0.12,0.0,r
3248.0,2991.0,1488.0,3125.0,4095.0,2934.0,2609.0,2320.0,-3.61,8.25,8.77,-0.06,-0.04,-0.17,0.0,r
3238.0,3001.0,1481.0,3121.0,4095.0,2935.0,2611.0,2320.0,-3.14,8.07,8.44,0.07,0.03,-0.17,0.0,r
3243.0,2992.0,1481.0,3121.0,4095.0,2939.0,2610.0,2317.0,-3.62,8.12,8.74,-0.03,-0.09,-0.16,0.0,r
3239.0,2992.0,1485.0,3125.0,4095.0,2933.0,2610.0,2319.0,-3.08,8.03,8.83,0.09,0.03,-0.18,0.0,r
3240.0,2992.0,1482.0,3120.0,4095.0,2937.0,2609.0,2313.0,-3.66,8.06,8.48,-0.01,-0.04,-0.17,0.0,r
3245.0,2992.0,1478.0,3122.0,4095.0,2935.0,2608.0,2312.0,-3.19,8.5,8.89,0.03,-0.04,-0.22,0.0,r
3234.0,2993.0,1498.0,3120.0,4095.0,2937.0,2609.0,2314.0,-3.59,8.07,8.5,0.16,-0.02,-0.38,0.0,r
3241.0,2985.0,1488.0,3122.0,4095.0,2935.0,2611.0,2317.0,-3.87,8.01,8.43,0.17,-0.02,-0.21,0.0,r
3233.0,2995.0,1495.0,3120.0,4095.0,2932.0,2609.0,2314.0,-3.49,7.92,8.32,0.09,0.07,-0.19,0.0,r
3229.0,2992.0,1501.0,3125.0,4095.0,2933.0,2611.0,2313.0,-3.78,8.54,8.35,0.05,-0.09,-0.31,0.0,r
3248.0,3009.0,1498.0,3130.0,4095.0,2939.0,2604.0,2318.0,-4.03,7.83,8.37,0.16,0.02,-0.33,0.0,r
3245.0,2999.0,1490.0,3120.0,4095.0,2930.0,2598.0,2314.0,-3.93,7.84,7.85,0.06,-0.01,-0.22,0.0,r
3247.0,2994.0,1490.0,3120.0,4095.0,2928.0,2599.0,2310.0,-4.28,7.86,8.46,-0.01,-0.01,-0.13,0.0,r
3234.0,2994.0,1489.0,3122.0,4095.0,2933.0,2601.0,2311.0,-3.73,7.88,8.31,0.02,0.03,-0.15,0.0,r
3184.0,2992.0,1073.0,3297.0,4095.0,2899.0,2794.0,2076.0,-2.2,9.24,7.21,-0.14,-0.26,-0.04,0.0,r
3189.0,2982.0,1058.0,3309.0,4095.0,2901.0,2792.0,2069.0,-2.11,9.08,7.2,-0.08,0.06,-0.06,0.0,r
3198.0,2996.0,1041.0,3318.0,4095.0,2910.0,2798.0,2079.0,-2.2,9.25,6.56,0.01,0.07,-0.23,0.0,r
3184.0,2992.0,1040.0,3322.0,4095.0,2904.0,2799.0,2077.0,-2.24,9.19,6.34,-0.03,0.09,-0.09,0.0,r
3179.0,2986.0,1023.0,3325.0,4095.0,2899.0,2782.0,2072.0,-2.05,9.03,7.15,-0.08,0.05,-0.18,0.0,r
3166.0,2999.0,991.0,3327.0,4095.0,2903.0,2778.0,2079.0,-2.04,9.42,6.72,0.06,0.06,-0.15,0.0,r
3184.0,2986.0,979.0,3332.0,4095.0,2907.0,2784.0,2085.0,-2.05,9.29,6.63,0.01,0.07,-0.22,0.0,r
3174.0,2989.0,978.0,3334.0,4095.0,2912.0,2794.0,2091.0,-2.55,9.31,6.26,0.03,0.02,-0.13,0.0,r
3175.0,2994.0,977.0,3341.0,4095.0,2912.0,2798.0,2096.0,-1.76,9.31,6.73,-0.08,0.15,-0.19,0.0,r
3182.0,2992.0,977.0,3262.0,4095.0,2912.0,2795.0,2096.0,-2.59,9.36,6.33,0.02,-0.02,-0.12,0.0,r
3174.0,2982.0,970.0,3269.0,4095.0,2911.0,2789.0,2086.0,-2.15,9.19,6.41,0.02,-0.04,-0.26,0.0,r
3187.0,2984.0,976.0,3274.0,4095.0,2914.0,2793.0,2096.0,-2.43,9.26,6.86,-0.03,0.04,-0.11,0.0,r
3179.0,2994.0,976.0,3283.0,4095.0,2916.0,2799.0,2105.0,-2.52,9.23,6.53,-0.09,0.13,-0.22,0.0,r
3191.0,2983.0,976.0,3345.0,4095.0,2915.0,2800.0,2105.0,-2.53,9.35,6.61,0.04,-0.03,-0.11,0.0,r
3191.0,2982.0,976.0,3344.0,4095.0,2921.0,2803.0,2107.0,-2.08,9.2,6.82,0.05,-0.03,-0.2,0.0,r
3195.0,2992.0,976.0,3346.0,4095.0,2924.0,2807.0,2106.0,-2.74,9.29,6.52,0.02,-0.02,-0.12,0.0,r
3193.0,2993.0,976.0,3346.0,4095.0,2925.0,2811.0,2109.0,-2.23,9.2,6.85,-0.03,0.05,-0.21,0.0,r
3194.0,2993.0,986.0,3345.0,4095.0,2925.0,2813.0,2103.0,-2.8,9.25,6.49,0.04,0.01,-0.11,0.0,r
3191.0,2998.0,971.0,3344.0,4095.0,2924.0,2811.0,2100.0,-2.21,9.21,6.77,-0.01,-0.03,-0.17,0.0,r
3189.0,2992.0,977.0,3328.0,4095.0,2928.0,2813.0,2103.0,-2.77,9.26,6.41,0.02,-0.04,-0.11,0.0,r
3207.0,2991.0,975.0,3310.0,4095.0,2925.0,2813.0,2091.0,-2.15,9.18,6.82,-0.02,-0.01,-0.18,0.0,r
3201.0,2986.0,982.0,3319.0,4095.0,2921.0,2813.0,2091.0,-2.49,9.29,6.28,-0.01,0.02,-0.08,0.0,r
3201.0,2992.0,986.0,3341.0,4095.0,2928.0,2819.0,2097.0,-2.05,9.28,6.74,-0.0,0.01,-0.19,0.0,r
3195.0,2989.0,976.0,3328.0,4095.0,2927.0,2816.0,2101.0,-2.57,9.38,6.27,0.08,-0.06,-0.14,0.0,r
3189.0,2990.0,976.0,3337.0,4095.0,2929.0,2821.0,2112.0,-2.09,9.23,6.85,-0.01,-0.02,-0.2,0.0,r
3215.0,2995.0,983.0,3343.0,4095.0,2929.0,2821.0,2118.0,-2.73,9.28,6.41,0.02,0.01,-0.11,0.0,r
3198.0,3002.0,989.0,3344.0,4095.0,2931.0,2818.0,2118.0,-2.1,9.23,6.7,-0.03,0.01,-0.2,0.0,r
3200.0,2987.0,977.0,3339.0,4095.0,2928.0,2815.0,2115.0,-2.53,9.28,6.45,0.03,-0.02,-0.11,0.0,r
3198.0,2991.0,977.0,3344.0,4095.0,2928.0,2823.0,2119.0,-2.33,9.16,6.86,0.0,0.02,-0.22,0.0,r
3199.0,2997.0,977.0,3344.0,4095.0,2929.0,2816.0,2117.0,-2.51,9.35,6.4,0.04,0.0,-0.12,0.0,r
3203.0,2994.0,985.0,3345.0,4095.0,2931.0,2823.0,2125.0,-2.31,9.16,6.72,-0.02,0.01,-0.22,0.0,r
3187.0,2992.0,985.0,3344.0,4095.0,2928.0,2823.0,2124.0,-2.92,9.39,6.19,0.05,-0.03,-0.09,0.0,r
3196.0,2996.0,986.0,3349.0,4095.0,2932.0,2825.0,2127.0,-1.91,9.79,6.22,0.2,-0.43,-0.29,0.0,r
3201.0,3002.0,976.0,3347.0,4095.0,2933.0,2828.0,2127.0,-2.11,9.48,6.23,-0.11,0.12,-0.1,0.0,r
3195.0,2987.0,971.0,3344.0,4095.0,2929.0,2825.0,2127.0,-2.86,8.89,7.14,-0.13,0.1,-0.23,0.0,r
3200.0,2987.0,979.0,3350.0,4095.0,2934.0,2828.0,2128.0,-2.41,9.3,6.79,0.06,0.16,-0.08,0.0,r
3201.0,2995.0,976.0,3345.0,4095.0,2932.0,2830.0,2131.0,-2.21,9.2,6.4,0.04,-0.05,-0.25,0.0,r
3198.0,2987.0,982.0,3351.0,4095.0,2933.0,2832.0,2133.0,-2.42,9.25,6.19,0.09,-0.11,-0.17,0.0,r
3208.0,3003.0,986.0,3350.0,4095.0,2933.0,2832.0,2135.0,-2.22,9.12,6.71,-0.04,0.01,-0.27,0.0,r
3198.0,2991.0,978.0,3351.0,4095.0,2934.0,2832.0,2137.0,-2.99,9.11,6.53,0.07,0.02,-0.16,0.0,r
3212.0,2992.0,976.0,3347.0,4095.0,2933.0,2832.0,2137.0,-2.41,9.1,6.78,-0.05,-0.01,-0.2,0.0,r
3197.0,2990.0,975.0,3344.0,4095.0,2932.0,2830.0,2134.0,-2.82,9.23,6.43,0.01,-0.0,-0.11,0.0,r
3212.0,2997.0,976.0,3347.0,4095.0,2939.0,2832.0,2143.0,-2.32,9.21,6.8,-0.02,-0.01,-0.19,0.0,r
3210.0,2991.0,983.0,3353.0,4095.0,2941.0,2832.0,2142.0,-2.78,9.28,6.49,0.01,0.01,-0.08,0.0,r
3204.0,2983.0,976.0,3344.0,4095.0,2932.0,2832.0,2138.0,-2.22,9.19,6.75,-0.0,-0.01,-0.21,0.0,r
3197.0,2995.0,985.0,3347.0,4095.0,2943.0,2834.0,2143.0,-2.67,9.29,6.47,0.09,-0.03,-0.12,0.0,r
3213.0,2991.0,990.0,3351.0,4095.0,2934.0,2832.0,2139.0,-2.28,9.11,6.83,-0.02,-0.05,-0.21,0.0,r
3214.0,2986.0,976.0,3344.0,4095.0,2932.0,2831.0,2135.0,-2.75,9.27,6.41,0.02,0.03,-0.13,0.0,r
3206.0,2993.0,976.0,3347.0,4095.0,2935.0,2836.0,2142.0,-2.35,9.2,6.57,-0.03,0.02,-0.16,0.0,r
3201.0,2981.0,977.0,3344.0,4095.0,2935.0,2830.0,2133.0,-2.6,9.38,6.51,0.05,-0.05,-0.14,0.0,r
3203.0,2997.0,987.0,3349.0,4095.0,2941.0,2832.0,2133.0,-2.35,9.1,6.9,0.04,-0.01,-0.2,0.0,r
3197.0,2983.0,978.0,3344.0,4095.0,2928.0,2829.0,2135.0,-2.7,9.37,6.31,0.01,0.02,-0.1,0.0,r
3215.0,2992.0,985.0,3352.0,4095.0,2941.0,2832.0,2142.0,-2.37,9.14,6.72,-0.06,-0.01,-0.22,0.0,r
3206.0,2992.0,970.0,3349.0,4095.0,2943.0,2832.0,2140.0,-2.74,9.22,6.65,-0.01,0.02,-0.12,0.0,r
3212.0,2995.0,980.0,3344.0,4095.0,2944.0,2833.0,2138.0,-2.43,9.11,6.7,0.01,0.06,-0.21,0.0,r
3206.0,2986.0,988.0,3350.0,4095.0,2943.0,2834.0,2141.0,-2.65,9.25,6.43,0.0,0.03,-0.12,0.0,r
3203.0,2997.0,992.0,3344.0,4095.0,2939.0,2833.0,2139.0,-2.46,9.06,6.72,-0.03,0.01,-0.2,0.0,r
3200.0,2987.0,976.0,3344.0,4095.0,2944.0,2839.0,2137.0,-2.69,9.4,6.32,0.04,-0.02,-0.13,0.0,r
3199.0,2987.0,975.0,3322.0,4095.0,2943.0,2837.0,2138.0,-2.39,9.17,6.66,-0.01,0.01,-0.2,0.0,r
3215.0,2987.0,975.0,3323.0,4095.0,2936.0,2832.0,2134.0,-2.77,9.26,6.54,-0.0,0.03,-0.1,0.0,r
3210.0,2990.0,978.0,3329.0,4095.0,2941.0,2838.0,2139.0,-2.43,9.15,6.63,0.01,-0.01,-0.21,0.0,r
3216.0,2987.0,975.0,3312.0,4095.0,2941.0,2839.0,2134.0,-2.7,9.29,6.65,-0.01,0.03,-0.11,0.0,r
3203.0,2994.0,981.0,3311.0,4095.0,2936.0,2830.0,2128.0,-2.72,9.1,6.68,0.02,-0.01,-0.2,0.0,r
3211.0,2992.0,982.0,3319.0,4095.0,2931.0,2832.0,2130.0,-2.66,9.12,6.39,0.04,-0.02,-0.11,0.0,r
3214.0,2982.0,975.0,3316.0,4095.0,2941.0,2832.0,2131.0,-2.67,9.16,6.73,0.03,-0.01,-0.17,0.0,r
3216.0,2992.0,977.0,3323.0,4095.0,2942.0,2832.0,2135.0,-2.52,9.25,6.65,0.02,-0.01,-0.15,0.0,r
3217.0,2986.0,978.0,3322.0,4095.0,2939.0,2834.0,2134.0,-2.86,9.01,6.62,-0.02,0.02,-0.17,0.0,r
3201.0,2994.0,976.0,3280.0,4095.0,2947.0,2839.0,2135.0,-2.37,9.27,6.7,0.01,0.01,-0.13,0.0,r
3213.0,2987.0,981.0,3297.0,4095.0,2938.0,2837.0,2135.0,-2.92,9.09,6.51,0.06,-0.04,-0.17,0.0,r
3214.0,2988.0,987.0,3318.0,4095.0,2947.0,2842.0,2141.0,-2.47,9.18,6.83,-0.01,-0.02,-0.17,0.0,r
3216.0,2995.0,977.0,3313.0,4095.0,2952.0,2846.0,2143.0,-2.82,9.1,6.41,0.17,-0.01,-0.26,0.0,r
3201.0,2991.0,978.0,3309.0,4095.0,2943.0,2842.0,2139.0,-2.59,8.89,6.66,-0.12,0.07,-0.11,0.0,r
3210.0,2997.0,989.0,3312.0,4095.0,2945.0,2837.0,2137.0,-2.85,9.25,6.39,-0.02,0.03,-0.11,0.0,r
3210.0,2992.0,991.0,3312.0,4095.0,2951.0,2845.0,2145.0,-2.71,9.12,6.72,0.02,0.03,-0.15,0.0,r
3203.0,2992.0,976.0,3312.0,4095.0,2950.0,2846.0,2143.0,-2.57,9.33,6.62,0.03,0.04,-0.09,0.0,r
3210.0,2983.0,983.0,3313.0,4095.0,2947.0,2842.0,2139.0,-2.57,9.14,6.29,0.03,-0.01,-0.19,0.0,r
3207.0,2986.0,983.0,3311.0,4095.0,2949.0,2841.0,2129.0,-2.82,9.3,6.34,0.0,0.02,-0.09,0.0,r
3209.0,3001.0,974.0,3319.0,4095.0,2947.0,2839.0,2130.0,-2.55,9.15,6.58,-0.03,-0.01,-0.19,0.0,r
3211.0,2993.0,986.0,3317.0,4095.0,2957.0,2846.0,2138.0,-2.63,9.31,6.55,0.0,0.01,-0.1,0.0,r
3203.0,2976.0,991.0,3317.0,4095.0,2953.0,2843.0,2134.0,-2.72,9.11,6.53,0.03,-0.02,-0.19,0.0,r
3200.0,2992.0,976.0,3314.0,4095.0,2957.0,2847.0,2137.0,-2.4,9.31,6.49,0.01,0.02,-0.13,0.0,r
3200.0,2985.0,984.0,3315.0,4095.0,2951.0,2844.0,2138.0,-2.86,9.03,6.59,0.03,-0.03,-0.2,0.0,r
3209.0,2992.0,1005.0,3313.0,4095.0,2954.0,2848.0,2142.0,-2.47,9.23,6.48,0.02,0.01,-0.14,0.0,r
3207.0,2987.0,977.0,3313.0,4095.0,2951.0,2849.0,2142.0,-2.95,9.12,6.41,0.03,0.01,-0.17,0.0,r
3197.0,2993.0,988.0,3318.0,4095.0,2951.0,2847.0,2142.0,-2.37,9.27,6.48,-0.01,-0.01,-0.16,0.0,r
3205.0,2990.0,976.0,3317.0,4095.0,2951.0,2848.0,2142.0,-2.84,9.18,6.45,0.02,0.0,-0.12,0.0,r
3215.0,2981.0,983.0,3314.0,4095.0,2953.0,2849.0,2142.0,-2.43,9.16,6.54,-0.01,-0.02,-0.18,0.0,r
3203.0,3006.0,983.0,3318.0,4095.0,2955.0,2849.0,2142.0,-2.83,9.25,6.42,0.03,0.01,-0.13,0.0,r
3201.0,2987.0,983.0,3319.0,4095.0,2957.0,2848.0,2141.0,-2.6,9.04,6.61,-0.05,0.0,-0.18,0.0,r
3203.0,2995.0,991.0,3323.0,4095.0,2955.0,2852.0,2143.0,-2.63,9.37,6.55,0.04,0.01,-0.12,0.0,r
3211.0,2987.0,986.0,3312.0,4095.0,2955.0,2846.0,2142.0,-2.65,9.21,6.61,0.01,-0.03,-0.13,0.0,r
3214.0,2991.0,985.0,3322.0,4095.0,2959.0,2853.0,2144.0,-2.5,9.22,6.57,0.05,0.04,-0.11,0.0,r
3205.0,2995.0,977.0,3324.0,4095.0,2957.0,2854.0,2144.0,-2.76,9.14,6.39,-0.01,-0.06,-0.22,0.0,r
3210.0,2992.0,986.0,3322.0,4095.0,2957.0,2850.0,2143.0,-2.61,9.31,6.64,0.02,-0.02,-0.11,0.0,r
3200.0,2988.0,978.0,3323.0,4095.0,2951.0,2847.0,2144.0,-2.79,9.02,6.6,-0.02,0.01,-0.18,0.0,r
3201.0,2989.0,978.0,3323.0,4095.0,2955.0,2850.0,2139.0,-2.39,9.36,6.55,0.05,0.04,-0.1,0.0,r
3210.0,2985.0,982.0,3325.0,4095.0,2957.0,2850.0,2144.0,-2.8,9.12,6.5,0.0,-0.04,-0.23,0.0,r
3201.0,2977.0,993.0,3319.0,4095.0,2954.0,2849.0,2145.0,-2.51,9.25,6.6,0.01,-0.03,-0.14,0.0,r
3203.0,2986.0,981.0,3322.0,4095.0,2955.0,2851.0,2144.0,-2.91,9.09,6.48,0.04,-0.01,-0.18,0.0,r
3207.0,2999.0,991.0,3319.0,4095.0,2959.0,2848.0,2142.0,-2.34,9.35,6.59,0.04,0.02,-0.12,0.0,r
3210.0,2992.0,992.0,3328.0,4095.0,2960.0,2858.0,2148.0,-3.01,9.05,6.48,0.02,-0.01,-0.18,0.0,r
3206.0,2986.0,979.0,3319.0,4095.0,2957.0,2854.0,2146.0,-2.23,9.3,6.54,0.03,0.0,-0.12,0.0,r
3210.0,2973.0,990.0,3321.0,4095.0,2955.0,2851.0,2143.0,-2.93,9.06,6.52,0.03,-0.02,-0.17,0.0,r
3211.0,2994.0,978.0,3326.0,4095.0,2956.0,2849.0,2144.0,-2.26,9.31,6.56,0.05,-0.0,-0.13,0.0,r
3205.0,2983.0,994.0,3323.0,4095.0,2960.0,2851.0,2143.0,-2.94,9.17,6.21,0.01,-0.04,-0.15,0.0,r
3201.0,2992.0,997.0,3319.0,4095.0,2958.0,2853.0,2142.0,-2.55,9.46,6.48,0.04,-0.07,-0.13,0.0,r
3202.0,2992.0,991.0,3328.0,4095.0,2955.0,2853.0,2146.0,-2.76,9.05,6.46,-0.05,-0.09,-0.24,0.0,r
3200.0,2995.0,977.0,3329.0,4095.0,2958.0,2859.0,2140.0,-2.29,9.27,6.73,0.01,0.01,-0.06,0.0,r
3212.0,2990.0,987.0,3329.0,4095.0,2958.0,2863.0,2146.0,-2.43,9.34,5.89,0.05,-0.08,-0.24,0.0,r
3206.0,2993.0,995.0,3326.0,4095.0,2961.0,2861.0,2135.0,-2.61,9.26,6.95,-0.04,-0.11,-0.12,0.0,r
3199.0,2985.0,982.0,3333.0,4095.0,2959.0,2866.0,2149.0,-2.72,9.16,6.79,0.03,-0.03,-0.18,0.0,r
3203.0,2998.0,982.0,3338.0,4095.0,2960.0,2870.0,2157.0,-2.6,9.33,6.58,-0.02,0.04,-0.08,0.0,r
3199.0,2992.0,987.0,3332.0,4095.0,2960.0,2865.0,2151.0,-2.35,9.18,6.48,-0.02,0.02,-0.23,0.0,r
3199.0,2996.0,993.0,3344.0,4095.0,2962.0,2870.0,2150.0,-2.81,9.28,6.8,0.03,0.07,-0.13,0.0,r
3216.0,2987.0,981.0,3341.0,4095.0,2960.0,2871.0,2160.0,-2.37,9.05,6.53,-0.04,0.04,-0.25,0.0,r
3215.0,2989.0,985.0,3344.0,4095.0,2963.0,2875.0,2160.0,-2.91,9.31,6.68,0.03,0.02,-0.14,0.0,r
3198.0,2989.0,979.0,3335.0,4095.0,2962.0,2871.0,2160.0,-2.36,9.15,6.72,-0.07,0.01,-0.21,0.0,r
3189.0,2991.0,983.0,3337.0,4095.0,2960.0,2869.0,2160.0,-2.99,9.18,7.17,-0.06,0.15,-0.0,0.0,r
3193.0,2991.0,983.0,3334.0,4095.0,2963.0,2874.0,2159.0,-2.09,9.21,6.01,0.08,0.13,-0.07,0.0,r
3202.0,2999.0,989.0,3318.0,4095.0,2966.0,2867.0,2158.0,-2.61,9.56,6.41,-0.0,-0.04,-0.13,0.0,r
3195.0,2992.0,989.0,3327.0,4095.0,2964.0,2873.0,2162.0,-2.17,9.01,6.48,-0.08,-0.08,-0.24,0.0,r
3197.0,2992.0,990.0,3330.0,4095.0,2960.0,2871.0,2161.0,-2.84,9.33,7.0,-0.02,-0.02,-0.12,0.0,r
3203.0,2990.0,992.0,3343.0,4095.0,2975.0,2878.0,2167.0,-2.16,9.08,6.55,-0.04,0.12,-0.14,0.0,r
3187.0,2993.0,987.0,3344.0,4095.0,2973.0,2882.0,2167.0,-2.75,9.38,6.96,0.07,0.09,-0.08,0.0,r
3203.0,2987.0,991.0,3344.0,4095.0,2976.0,2886.0,2168.0,-2.36,9.2,6.17,-0.05,0.05,-0.19,0.0,r
3202.0,2987.0,989.0,3337.0,4095.0,2966.0,2877.0,2161.0,-2.75,9.52,6.46,-0.02,0.08,-0.09,0.0,r
3201.0,2983.0,985.0,3341.0,4095.0,2966.0,2880.0,2163.0,-2.01,9.1,6.67,-0.01,0.02,-0.21,0.0,r
3176.0,2997.0,990.0,3315.0,4095.0,2970.0,2873.0,2159.0,-2.7,9.63,6.82,-0.1,0.1,-0.08,0.0,r
3197.0,2991.0,1008.0,3354.0,4095.0,2976.0,2885.0,2163.0,-2.28,8.86,6.18,-0.13,0.0,-0.28,0.0,r
3189.0,2997.0,989.0,3357.0,4095.0,2974.0,2881.0,2160.0,-2.95,9.33,7.39,0.03,0.04,-0.06,0.0,r
3186.0,2986.0,1006.0,3357.0,4095.0,2963.0,2879.0,2160.0,-2.27,9.09,6.31,0.04,0.09,-0.15,0.0,r
3187.0,2998.0,986.0,3361.0,4095.0,2970.0,2880.0,2160.0,-2.73,9.46,6.68,0.03,-0.0,-0.09,0.0,r
3189.0,2981.0,997.0,3357.0,4095.0,2966.0,2880.0,2160.0,-2.39,9.11,6.53,-0.08,-0.03,-0.23,0.0,r
3199.0,2992.0,990.0,3364.0,4095.0,2970.0,2887.0,2163.0,-2.71,9.38,7.26,0.03,-0.01,-0.1,0.0,r
3199.0,3002.0,992.0,3365.0,4095.0,2971.0,2885.0,2163.0,-2.39,9.11,6.45,-0.01,0.05,-0.18,0.0,r
3186.0,2989.0,997.0,3359.0,4095.0,2975.0,2886.0,2167.0,-2.59,9.43,6.88,0.05,0.03,-0.08,0.0,r
3185.0,2992.0,987.0,3360.0,4095.0,2969.0,2886.0,2163.0,-2.44,9.16,6.46,-0.05,0.02,-0.21,0.0,r
3190.0,2991.0,995.0,3366.0,4095.0,2977.0,2891.0,2173.0,-2.59,9.31,6.83,0.03,0.04,-0.05,0.0,r
3188.0,2992.0,991.0,3363.0,4095.0,2973.0,2890.0,2167.0,-2.15,9.11,6.43,-0.02,0.04,-0.2,0.0,r
3185.0,2991.0,992.0,3369.0,4095.0,2971.0,2885.0,2166.0,-2.8,9.22,6.8,-0.02,-0.01,-0.11,0.0,r
3201.0,2999.0,999.0,3369.0,4095.0,2975.0,2893.0,2168.0,-2.04,9.24,6.61,0.09,0.02,-0.16,0.0,r
3191.0,2989.0,989.0,3375.0,4095.0,2973.0,2887.0,2167.0,-2.7,9.28,6.35,-0.02,-0.03,-0.18,0.0,r
3190.0,2986.0,1005.0,3364.0,4095.0,2971.0,2883.0,2167.0,-2.26,9.2,6.81,0.03,-0.02,-0.11,0.0,r
3200.0,2997.0,996.0,3371.0,4095.0,2970.0,2884.0,2162.0,-2.65,9.06,6.57,0.0,-0.01,-0.12,0.0,r
3200.0,3005.0,991.0,3376.0,4095.0,2977.0,2890.0,2166.0,-2.39,9.19,6.58,-0.03,-0.02,-0.04,0.0,r
3199.0,2992.0,997.0,3367.0,4095.0,2970.0,2886.0,2159.0,-2.16,9.19,6.81,-0.05,-0.04,-0.06,0.0,r
3189.0,2992.0,1008.0,3370.0,4095.0,2971.0,2885.0,2161.0,-1.88,9.38,6.72,-0.01,0.01,-0.1,0.0,r
3197.0,2992.0,998.0,3373.0,4095.0,2974.0,2888.0,2166.0,-2.16,9.33,6.79,0.02,0.01,-0.16,0.0,r
3201.0,2991.0,994.0,3375.0,4095.0,2977.0,2885.0,2166.0,-1.93,9.32,6.65,0.06,0.02,-0.21,0.0,r
3190.0,2985.0,999.0,3366.0,4095.0,2972.0,2883.0,2160.0,-2.21,9.32,6.56,0.08,-0.06,-0.26,0.0,r
3195.0,2992.0,998.0,3374.0,4095.0,2971.0,2885.0,2160.0,-2.6,9.18,6.73,0.04,-0.07,-0.25,0.0,r
3207.0,2998.0,993.0,3371.0,4095.0,2977.0,2890.0,2160.0,-2.41,9.19,6.61,-0.01,0.0,-0.15,0.0,r
3198.0,2989.0,986.0,3373.0,4095.0,2969.0,2890.0,2161.0,-2.32,9.24,6.68,0.0,-0.03,-0.16,0.0,r
3200.0,2991.0,995.0,3376.0,4095.0,2960.0,2884.0,2159.0,-2.39,9.26,6.74,-0.0,-0.02,-0.15,0.0,r
3199.0,2992.0,993.0,3379.0,4095.0,2965.0,2890.0,2160.0,-2.28,9.13,6.78,-0.06,0.06,-0.12,0.0,r
3205.0,2998.0,996.0,3381.0,4095.0,2947.0,2886.0,2157.0,-2.32,9.09,6.5,-0.07,0.04,-0.12,0.0,r
3207.0,2987.0,997.0,3376.0,4095.0,2945.0,2885.0,2159.0,-2.27,9.12,6.86,-0.01,0.0,-0.15,0.0,r
3213.0,2992.0,989.0,3383.0,4095.0,2931.0,2875.0,2139.0,-2.15,9.02,7.14,-0.19,0.06,-0.04,0.0,r
3213.0,2992.0,1007.0,3385.0,4095.0,2907.0,2875.0,2112.0,-2.28,9.18,6.73,-0.1,0.09,-0.07,0.0,r
3211.0,2992.0,1001.0,3387.0,4095.0,2911.0,2874.0,2139.0,-2.1,9.16,6.42,-0.11,0.06,-0.08,0.0,r
3206.0,2994.0,989.0,3379.0,4095.0,2910.0,2874.0,2146.0,-1.63,9.09,7.22,-0.18,0.15,0.07,0.0,r
3206.0,2983.0,1001.0,3376.0,4095.0,2919.0,2879.0,2153.0,-2.18,9.05,7.03,0.01,0.02,-0.17,0.0,r
3225.0,2990.0,1003.0,3381.0,4095.0,2926.0,2874.0,2159.0,-1.95,9.14,6.92,-0.19,0.06,-0.06,0.0,r
3227.0,2990.0,998.0,3383.0,4095.0,2913.0,2871.0,2142.0,-2.02,9.0,7.25,-0.07,0.09,-0.15,0.0,r
3222.0,2993.0,995.0,3383.0,4095.0,2918.0,2861.0,2140.0,-2.17,9.07,7.18,-0.03,0.02,-0.15,0.0,r
3236.0,2987.0,987.0,3387.0,4095.0,2899.0,2863.0,2157.0,-1.89,9.13,7.15,-0.06,-0.01,-0.11,0.0,r
3232.0,2992.0,1002.0,3380.0,4095.0,2911.0,2862.0,2151.0,-2.1,9.07,7.34,-0.03,0.07,-0.13,0.0,r
3229.0,2997.0,995.0,3389.0,4095.0,2913.0,2860.0,2143.0,-2.3,9.07,7.07,-0.1,0.1,-0.09,0.0,r
3234.0,2998.0,991.0,3390.0,4095.0,2918.0,2853.0,2147.0,-1.65,9.04,7.88,-0.01,0.02,-0.16,0.0,r
3234.0,3002.0,985.0,3395.0,4095.0,2925.0,2855.0,2151.0,-2.21,8.94,7.4,0.02,0.03,-0.18,0.0,r
3234.0,2988.0,991.0,3383.0,4095.0,2923.0,2854.0,2153.0,-2.13,9.12,7.25,0.05,-0.02,-0.2,0.0,r
3250.0,3003.0,993.0,3391.0,4095.0,2926.0,2862.0,2155.0,-2.3,9.24,7.5,0.04,-0.04,-0.18,0.0,r
3237.0,2992.0,993.0,3392.0,4095.0,2925.0,2864.0,2159.0,-2.1,9.19,7.67,0.09,-0.02,-0.17,0.0,r
3233.0,2991.0,988.0,3385.0,4095.0,2926.0,2864.0,2158.0,-2.25,9.18,7.27,-0.0,-0.01,-0.14,0.0,r
3249.0,2995.0,991.0,3392.0,4095.0,2928.0,2865.0,2157.0,-1.94,9.25,7.53,0.02,-0.0,-0.12,0.0,r
3233.0,2985.0,987.0,3386.0,4095.0,2926.0,2864.0,2160.0,-2.07,9.05,7.2,-0.02,0.04,-0.16,0.0,r
3235.0,2995.0,983.0,3397.0,4095.0,2928.0,2866.0,2165.0,-1.94,9.14,7.31,0.02,0.01,-0.14,0.0,r
3227.0,2999.0,986.0,3389.0,4095.0,2923.0,2864.0,2160.0,-2.16,8.99,7.31,0.03,0.02,-0.18,0.0,r
3222.0,2994.0,977.0,3394.0,4095.0,2927.0,2864.0,2161.0,-2.09,9.19,7.3,0.04,0.03,-0.11,0.0,r
3220.0,2987.0,991.0,3392.0,4095.0,2923.0,2864.0,2163.0,-2.07,9.12,7.28,0.05,-0.04,-0.2,0.0,r
3221.0,2996.0,986.0,3399.0,4095.0,2928.0,2864.0,2171.0,-2.17,9.26,7.16,0.02,0.02,-0.1,0.0,r
3227.0,3007.0,991.0,3397.0,4095.0,2928.0,2867.0,2173.0,-2.13,9.17,7.2,0.02,-0.0,-0.2,0.0,r
3221.0,3003.0,983.0,3395.0,4095.0,2930.0,2867.0,2175.0,-1.89,9.33,7.19,0.06,-0.01,-0.09,0.0,r
3216.0,2992.0,997.0,3397.0,4095.0,2923.0,2863.0,2171.0,-2.05,9.12,7.08,-0.03,-0.03,-0.23,0.0,r
3219.0,2992.0,991.0,3396.0,4095.0,2928.0,2864.0,2167.0,-2.09,9.1,7.39,-0.02,0.05,-0.06,0.0,r
3216.0,2998.0,990.0,3394.0,4095.0,2928.0,2859.0,2172.0,-2.13,9.08,7.27,0.02,0.02,-0.2,0.0,r
3215.0,2995.0,996.0,3399.0,4095.0,2926.0,2861.0,2170.0,-2.12,9.28,7.35,0.09,0.03,-0.1,0.0,r
3206.0,2988.0,1003.0,3393.0,4095.0,2915.0,2862.0,2167.0,-2.15,9.07,6.9,-0.01,0.03,-0.22,0.0,r
3210.0,2992.0,998.0,3403.0,4095.0,2925.0,2864.0,2170.0,-2.15,9.31,7.31,0.02,0.03,-0.07,0.0,r
3200.0,2995.0,983.0,3404.0,4095.0,2925.0,2865.0,2170.0,-2.03,9.15,6.75,0.0,0.01,-0.21,0.0,r
3219.0,3006.0,997.0,3406.0,4095.0,2927.0,2865.0,2167.0,-2.14,9.37,7.26,0.01,0.01,-0.06,0.0,r
3195.0,2997.0,991.0,3406.0,4095.0,2931.0,2865.0,2175.0,-1.88,9.08,6.71,-0.04,0.03,-0.22,0.0,r
3204.0,3001.0,1001.0,3406.0,4095.0,2931.0,2864.0,2175.0,-2.31,9.42,6.9,-0.04,0.0,-0.06,0.0,r
3197.0,2982.0,987.0,3408.0,4095.0,2930.0,2865.0,2175.0,-1.74,9.07,7.2,-0.02,-0.01,-0.22,0.0,r
3207.0,2989.0,986.0,3408.0,4095.0,2935.0,2868.0,2178.0,-2.3,9.51,7.01,0.01,-0.03,-0.05,0.0,r
