hall_1,hall_2,hall_3,flex_t,flex_i,flex_m,flex_r,flex_p,accel_x,accel_y,accel_z,gyro_x,gyro_y,gyro_z,hand,sign
2935.0,2959.0,3035.0,3479.0,4095.0,4095.0,3290.0,3597.0,2.76,9.89,-0.1,0.2,0.04,0.11,1.0,r
2937.0,2969.0,3043.0,3486.0,4095.0,4095.0,3293.0,3600.0,2.74,10.24,-0.35,-0.2,-0.18,0.0,1.0,r
2939.0,2969.0,3039.0,3489.0,4095.0,4095.0,3281.0,3599.0,2.48,9.89,0.46,-0.06,0.02,-0.08,1.0,r
2928.0,2966.0,3035.0,3484.0,4095.0,4095.0,3290.0,3600.0,2.15,9.83,0.58,-0.18,-0.05,-0.11,1.0,r
2939.0,2963.0,3042.0,3490.0,4095.0,4095.0,3294.0,3610.0,1.94,10.11,0.52,-0.12,-0.01,-0.13,1.0,r
2934.0,2960.0,3040.0,3491.0,4095.0,4095.0,3286.0,3598.0,1.83,9.62,0.74,-0.42,-0.12,-0.05,1.0,r
2944.0,2981.0,3045.0,3499.0,4095.0,4095.0,3289.0,3607.0,1.97,9.8,1.13,-0.23,-0.01,-0.06,1.0,r
2938.0,2971.0,3037.0,3505.0,4095.0,4095.0,3284.0,3600.0,1.91,9.82,1.24,-0.09,0.07,-0.1,1.0,r
2928.0,2965.0,3040.0,3498.0,4095.0,4095.0,3291.0,3604.0,1.64,9.83,1.08,-0.05,-0.02,-0.07,1.0,r
2935.0,2959.0,3034.0,3498.0,4095.0,4095.0,3287.0,3600.0,1.77,9.97,0.98,-0.0,-0.03,-0.03,1.0,r
2927.0,2960.0,3021.0,3479.0,4095.0,4095.0,3248.0,3443.0,1.83,9.71,0.81,-0.09,-0.19,-0.03,1.0,r
2938.0,2978.0,3026.0,3493.0,4095.0,4095.0,3253.0,3415.0,2.14,9.87,0.95,-0.04,0.03,-0.04,1.0,r
2937.0,2964.0,3024.0,3487.0,4095.0,4095.0,3263.0,3439.0,1.82,10.02,0.81,-0.06,0.01,-0.05,1.0,r
2938.0,2965.0,3023.0,3509.0,4095.0,4095.0,3265.0,3440.0,2.0,9.86,0.95,-0.01,-0.03,-0.06,1.0,r
2939.0,2965.0,3021.0,3499.0,4095.0,4095.0,3264.0,3449.0,1.78,9.9,0.97,-0.03,0.03,-0.05,1.0,r
2944.0,2965.0,3023.0,3494.0,4095.0,4095.0,3264.0,3445.0,1.97,9.9,1.03,0.02,0.0,-0.09,1.0,r
2935.0,2962.0,3029.0,3504.0,4095.0,4095.0,3269.0,3451.0,1.97,9.85,0.87,-0.06,-0.11,-0.06,1.0,r
2935.0,2981.0,3025.0,3511.0,4095.0,4095.0,3262.0,3450.0,1.82,10.08,0.64,0.03,0.0,-0.09,1.0,r
2930.0,2976.0,3027.0,3517.0,4095.0,4095.0,3254.0,3442.0,1.84,9.85,0.7,0.01,-0.02,-0.12,1.0,r
2933.0,2978.0,3032.0,3536.0,4095.0,4095.0,3242.0,3440.0,1.83,10.03,0.51,-0.05,-0.04,-0.12,1.0,r
2928.0,2963.0,3014.0,3426.0,4095.0,4095.0,3281.0,3499.0,-3.23,9.06,2.28,-0.17,-0.05,-0.26,1.0,r
2929.0,2970.0,3024.0,3442.0,4095.0,4095.0,3290.0,3495.0,-3.74,9.29,2.35,-0.15,-0.07,-0.22,1.0,r
2933.0,2967.0,3022.0,3440.0,4095.0,4095.0,3287.0,3505.0,-3.62,8.73,2.72,-0.19,-0.05,-0.08,1.0,r
2927.0,2977.0,3019.0,3441.0,4095.0,4095.0,3292.0,3503.0,-3.65,9.16,2.56,-0.11,0.0,-0.02,1.0,r
2935.0,2971.0,3024.0,3450.0,4095.0,4095.0,3289.0,3505.0,-3.2,9.02,2.71,-0.06,-0.07,0.0,1.0,r
2935.0,2974.0,3027.0,3455.0,4095.0,4095.0,3290.0,3499.0,-3.07,9.17,2.59,-0.07,0.03,0.01,1.0,r
2933.0,2972.0,3020.0,3459.0,4095.0,4095.0,3283.0,3504.0,-3.01,9.21,2.42,-0.06,-0.02,0.0,1.0,r
2928.0,2963.0,3011.0,3459.0,4095.0,4095.0,3283.0,3511.0,-3.07,9.24,2.41,-0.04,0.0,-0.04,1.0,r
2928.0,2965.0,3026.0,3461.0,4095.0,4095.0,3294.0,3513.0,-3.07,9.12,2.37,-0.08,0.0,-0.05,1.0,r
2935.0,2967.0,3027.0,3468.0,4095.0,4095.0,3286.0,3499.0,-3.23,9.26,2.32,-0.07,-0.01,-0.05,1.0,r
2934.0,2965.0,3021.0,3458.0,4095.0,4095.0,3291.0,3510.0,-3.18,9.0,2.48,-0.09,0.01,-0.03,1.0,r
2928.0,2975.0,3027.0,3472.0,4095.0,4095.0,3284.0,3499.0,-3.07,9.46,2.24,-0.14,-0.05,0.01,1.0,r
2917.0,2967.0,3017.0,3459.0,4095.0,4095.0,3285.0,3506.0,-2.72,9.05,2.66,-0.06,0.01,-0.05,1.0,r
2930.0,2967.0,3031.0,3467.0,4095.0,4095.0,3296.0,3515.0,-3.18,9.19,2.58,-0.13,-0.01,-0.05,1.0,r
2940.0,2966.0,3026.0,3471.0,4095.0,4095.0,3287.0,3504.0,-3.24,9.07,2.77,-0.04,-0.02,-0.05,1.0,r
2930.0,2961.0,3023.0,3463.0,4095.0,4095.0,3294.0,3510.0,-3.24,9.11,2.67,-0.07,-0.0,-0.01,1.0,r
2928.0,2967.0,3025.0,3472.0,4095.0,4095.0,3297.0,3511.0,-3.24,9.26,2.46,-0.04,0.02,-0.01,1.0,r
2929.0,2964.0,3023.0,3461.0,4095.0,4095.0,3290.0,3511.0,-2.97,9.02,2.44,-0.08,0.04,0.0,1.0,r
2937.0,2960.0,3023.0,3481.0,4095.0,4095.0,3287.0,3518.0,-3.26,9.55,1.97,-0.52,-0.08,0.09,1.0,r
2930.0,2962.0,3019.0,3519.0,4095.0,4095.0,3276.0,3519.0,-3.05,9.74,2.01,-0.71,-0.16,0.25,1.0,r
2933.0,2967.0,3030.0,3575.0,4095.0,4095.0,3270.0,3536.0,-1.26,8.36,5.56,-0.09,-0.01,-0.0,1.0,r
2928.0,2963.0,3030.0,3573.0,4095.0,4095.0,3264.0,3531.0,-1.27,8.4,5.49,-0.05,0.0,-0.03,1.0,r
2939.0,2967.0,3022.0,3577.0,4095.0,4095.0,3265.0,3535.0,-1.37,8.4,5.53,-0.09,-0.0,-0.02,1.0,r
2941.0,2965.0,3027.0,3583.0,4095.0,4095.0,3263.0,3531.0,-1.3,8.44,5.6,-0.02,0.0,-0.04,1.0,r
2931.0,2976.0,3023.0,3583.0,4095.0,4095.0,3271.0,3538.0,-1.24,8.43,5.47,-0.05,-0.01,-0.04,1.0,r
2935.0,2967.0,3021.0,3581.0,4095.0,4095.0,3263.0,3536.0,-1.23,8.46,5.46,-0.05,-0.02,-0.04,1.0,r
2935.0,2975.0,3025.0,3583.0,4095.0,4095.0,3271.0,3535.0,-1.28,8.36,5.47,-0.11,-0.0,-0.02,1.0,r
2929.0,2983.0,3024.0,3583.0,4095.0,4095.0,3265.0,3527.0,-1.37,8.42,5.45,-0.11,-0.03,-0.01,1.0,r
2939.0,2975.0,3025.0,3575.0,4095.0,4095.0,3274.0,3538.0,-1.34,8.34,5.56,-0.06,0.0,-0.01,1.0,r
2938.0,2982.0,3023.0,3583.0,4095.0,4095.0,3271.0,3536.0,-1.16,8.36,5.61,-0.11,-0.06,0.0,1.0,r
2928.0,2960.0,3027.0,3568.0,4095.0,4095.0,3270.0,3535.0,-1.1,8.43,5.66,-0.05,0.01,-0.02,1.0,r
2935.0,2976.0,3031.0,3581.0,4095.0,4095.0,3271.0,3530.0,-1.08,8.22,5.68,-0.09,-0.04,-0.03,1.0,r
2928.0,2971.0,3026.0,3562.0,4095.0,4095.0,3270.0,3536.0,-1.16,8.43,5.67,-0.04,0.01,-0.05,1.0,r
2926.0,2977.0,3037.0,3569.0,4095.0,4095.0,3266.0,3523.0,-1.15,8.34,5.73,-0.02,0.01,-0.07,1.0,r
2935.0,2969.0,3031.0,3551.0,4095.0,4095.0,3271.0,3527.0,-1.25,8.36,5.55,-0.05,0.0,-0.05,1.0,r
2932.0,2965.0,3024.0,3541.0,4095.0,4095.0,3266.0,3503.0,-1.26,8.43,5.44,-0.05,-0.0,-0.05,1.0,r
2928.0,2967.0,3024.0,3550.0,4095.0,4095.0,3264.0,3489.0,-1.33,8.49,5.52,-0.0,0.04,-0.04,1.0,r
2928.0,2973.0,3027.0,3534.0,4095.0,4095.0,3259.0,3486.0,-1.26,8.36,5.33,-0.08,-0.02,-0.03,1.0,r
2929.0,2965.0,3024.0,3546.0,4095.0,4095.0,3262.0,3492.0,-1.3,8.45,5.56,-0.03,0.02,-0.03,1.0,r
2937.0,2971.0,3027.0,3568.0,4095.0,4095.0,3259.0,3481.0,-1.19,8.35,5.61,-0.06,0.0,-0.02,1.0,r
2935.0,2970.0,3025.0,3599.0,4095.0,4095.0,3264.0,3533.0,2.86,9.47,2.23,-0.03,0.03,0.03,1.0,r
2938.0,2966.0,3024.0,3583.0,4095.0,4095.0,3263.0,3543.0,2.77,9.57,2.48,-0.11,-0.05,0.01,1.0,r
2933.0,2975.0,3018.0,3577.0,4095.0,4095.0,3269.0,3530.0,2.73,9.43,2.67,-0.15,-0.03,-0.02,1.0,r
2939.0,2979.0,3017.0,3572.0,4095.0,4095.0,3259.0,3529.0,2.55,9.56,2.77,-0.07,0.0,-0.01,1.0,r
2932.0,2978.0,3017.0,3579.0,4095.0,4095.0,3265.0,3537.0,2.66,9.35,2.8,-0.09,0.02,-0.01,1.0,r
2943.0,2965.0,3027.0,3583.0,4095.0,4095.0,3264.0,3524.0,2.96,9.5,2.77,-0.12,-0.06,-0.07,1.0,r
2931.0,2977.0,3023.0,3582.0,4095.0,4095.0,3262.0,3530.0,2.76,9.41,2.94,-0.14,0.02,-0.09,1.0,r
2928.0,2971.0,3024.0,3582.0,4095.0,4095.0,3262.0,3537.0,2.51,9.38,3.1,-0.15,-0.04,-0.09,1.0,r
2933.0,2977.0,3026.0,3583.0,4095.0,4095.0,3263.0,3532.0,2.43,9.35,3.17,-0.09,0.01,-0.08,1.0,r
2935.0,2970.0,3013.0,3583.0,4095.0,4095.0,3264.0,3536.0,2.36,9.34,3.1,-0.04,-0.0,-0.06,1.0,r
2932.0,2971.0,3024.0,3599.0,4095.0,4095.0,3261.0,3533.0,2.33,9.34,3.08,-0.02,0.07,0.02,1.0,r
2941.0,2972.0,3025.0,3600.0,4095.0,4095.0,3267.0,3539.0,2.6,9.52,3.04,-0.01,0.02,0.01,1.0,r
2942.0,2974.0,3013.0,3602.0,4095.0,4095.0,3259.0,3532.0,2.88,9.43,3.0,-0.03,-0.02,-0.02,1.0,r
2942.0,2961.0,3015.0,3601.0,4095.0,4095.0,3263.0,3533.0,2.69,9.44,2.87,-0.06,0.03,-0.05,1.0,r
2937.0,2971.0,3024.0,3600.0,4095.0,4095.0,3259.0,3541.0,2.58,9.46,2.86,-0.04,0.02,-0.08,1.0,r
2944.0,2975.0,3027.0,3600.0,4095.0,4095.0,3270.0,3535.0,2.41,9.36,2.92,-0.06,-0.0,-0.05,1.0,r
2934.0,2962.0,3034.0,3583.0,4095.0,4095.0,3271.0,3542.0,2.36,9.51,2.79,-0.03,0.03,-0.02,1.0,r
2941.0,2969.0,3021.0,3583.0,4095.0,4095.0,3266.0,3542.0,2.54,9.39,2.86,-0.13,-0.03,0.01,1.0,r
2944.0,2977.0,3025.0,3583.0,4095.0,4095.0,3261.0,3535.0,2.64,9.41,3.13,-0.11,0.01,-0.01,1.0,r
2930.0,2983.0,3025.0,3583.0,4095.0,4095.0,3262.0,3534.0,2.7,9.32,3.18,-0.07,-0.01,-0.01,1.0,r
2931.0,2975.0,3028.0,3568.0,4095.0,4095.0,3267.0,3537.0,2.44,9.71,0.16,-0.15,-0.0,-0.09,1.0,r
2941.0,2981.0,3029.0,3575.0,4095.0,4095.0,3273.0,3535.0,2.62,9.63,0.5,-0.13,0.02,-0.05,1.0,r
2941.0,2966.0,3024.0,3568.0,4095.0,4095.0,3271.0,3545.0,2.6,9.7,0.47,-0.11,0.05,0.0,1.0,r
2927.0,2978.0,3012.0,3569.0,4095.0,4095.0,3269.0,3536.0,2.97,9.77,0.52,-0.04,0.02,-0.03,1.0,r
2938.0,2983.0,3022.0,3582.0,4095.0,4095.0,3273.0,3530.0,2.83,9.75,0.22,-0.09,0.02,-0.03,1.0,r
2931.0,2963.0,3024.0,3579.0,4095.0,4095.0,3264.0,3529.0,2.88,9.75,0.27,-0.09,0.0,-0.03,1.0,r
2941.0,2988.0,3018.0,3577.0,4095.0,4095.0,3265.0,3541.0,2.85,9.78,0.34,-0.09,-0.0,-0.04,1.0,r
2929.0,2975.0,3025.0,3573.0,4095.0,4095.0,3275.0,3536.0,2.85,9.64,0.36,-0.09,0.03,-0.02,1.0,r
2947.0,2976.0,3036.0,3577.0,4095.0,4095.0,3273.0,3531.0,2.84,9.75,0.32,-0.07,0.02,-0.02,1.0,r
2935.0,2975.0,3019.0,3568.0,4095.0,4095.0,3270.0,3538.0,2.94,9.75,0.35,-0.11,-0.0,-0.03,1.0,r
2933.0,2982.0,3031.0,3571.0,4095.0,4095.0,3277.0,3540.0,2.93,9.76,0.51,-0.11,-0.0,-0.04,1.0,r
2933.0,2979.0,3024.0,3583.0,4095.0,4095.0,3268.0,3535.0,2.85,9.66,0.59,-0.16,-0.03,-0.05,1.0,r
2928.0,2974.0,3015.0,3571.0,4095.0,4095.0,3266.0,3542.0,2.78,9.72,0.52,-0.07,0.01,-0.03,1.0,r
2939.0,2981.0,3023.0,3583.0,4095.0,4095.0,3274.0,3537.0,2.74,9.73,0.45,-0.13,-0.03,-0.0,1.0,r
2931.0,2967.0,3024.0,3578.0,4095.0,4095.0,3265.0,3541.0,2.86,9.71,0.58,-0.11,0.02,-0.01,1.0,r
2931.0,2961.0,3024.0,3583.0,4095.0,4095.0,3271.0,3549.0,3.0,9.65,0.73,-0.08,-0.0,-0.02,1.0,r
2928.0,2972.0,3024.0,3581.0,4095.0,4095.0,3271.0,3546.0,3.02,9.73,0.63,-0.03,0.0,-0.05,1.0,r
2938.0,2966.0,3029.0,3570.0,4095.0,4095.0,3274.0,3546.0,2.9,9.78,0.44,-0.06,-0.02,-0.06,1.0,r
2939.0,2970.0,3011.0,3546.0,4095.0,4095.0,3271.0,3533.0,2.92,9.81,0.4,-0.08,0.04,-0.07,1.0,r
2934.0,2965.0,3008.0,3515.0,4095.0,4095.0,3277.0,3550.0,2.77,9.76,0.5,-0.12,-0.0,-0.06,1.0,r
2930.0,2959.0,2997.0,3361.0,4095.0,4095.0,3309.0,3408.0,-3.11,9.18,2.63,-0.07,0.06,0.02,1.0,r
2934.0,2964.0,2995.0,3366.0,4095.0,4095.0,3311.0,3401.0,-3.01,9.09,2.64,-0.11,0.01,0.02,1.0,r
2928.0,2960.0,2992.0,3365.0,4095.0,4095.0,3309.0,3408.0,-2.98,9.12,2.68,-0.08,0.04,0.03,1.0,r
2935.0,2965.0,2990.0,3369.0,4095.0,4095.0,3303.0,3409.0,-2.9,9.13,2.63,-0.08,0.02,0.01,1.0,r
2940.0,2961.0,2993.0,3370.0,4095.0,4095.0,3301.0,3408.0,-2.9,9.17,2.7,-0.07,-0.0,-0.01,1.0,r
2939.0,2960.0,2991.0,3365.0,4095.0,4095.0,3311.0,3418.0,-2.92,9.15,2.67,-0.07,-0.01,-0.02,1.0,r
2937.0,2960.0,2993.0,3369.0,4095.0,4095.0,3302.0,3408.0,-2.96,9.15,2.66,-0.03,0.02,-0.05,1.0,r
2938.0,2966.0,3002.0,3377.0,4095.0,4095.0,3309.0,3408.0,-3.1,9.11,2.61,-0.03,0.01,-0.04,1.0,r
2943.0,2967.0,2999.0,3385.0,4095.0,4095.0,3311.0,3418.0,-3.06,9.23,2.55,-0.05,-0.01,-0.02,1.0,r
2941.0,2979.0,3004.0,3386.0,4095.0,4095.0,3310.0,3409.0,-3.0,9.14,2.55,-0.05,-0.0,-0.03,1.0,r
2939.0,2975.0,2992.0,3377.0,4095.0,4095.0,3309.0,3423.0,-3.02,9.2,2.5,-0.08,0.01,-0.01,1.0,r
2937.0,2953.0,2998.0,3375.0,4095.0,4095.0,3305.0,3419.0,-3.0,9.26,2.5,-0.1,0.02,-0.01,1.0,r
2939.0,2966.0,3001.0,3380.0,4095.0,4095.0,3312.0,3426.0,-2.99,9.13,2.59,-0.13,-0.01,-0.0,1.0,r
2935.0,2965.0,2991.0,3370.0,4095.0,4095.0,3312.0,3426.0,-3.0,9.21,2.69,-0.09,0.03,-0.0,1.0,r
2934.0,2977.0,2995.0,3362.0,4095.0,4095.0,3312.0,3425.0,-3.0,9.21,2.65,-0.12,-0.02,0.02,1.0,r
2939.0,2963.0,2999.0,3355.0,4095.0,4095.0,3312.0,3425.0,-2.8,9.17,2.77,-0.09,0.02,0.01,1.0,r
2945.0,2971.0,2995.0,3359.0,4095.0,4095.0,3312.0,3431.0,-2.78,9.26,2.71,-0.09,0.01,-0.01,1.0,r
2942.0,2971.0,2996.0,3375.0,4095.0,4095.0,3312.0,3425.0,-2.84,9.19,2.72,-0.1,0.02,-0.0,1.0,r
2945.0,2963.0,2990.0,3369.0,4095.0,4095.0,3313.0,3427.0,-2.98,9.13,2.58,-0.15,0.08,0.02,1.0,r
2938.0,2970.0,2993.0,3374.0,4095.0,4095.0,3306.0,3423.0,-3.18,9.25,2.26,-0.21,0.16,0.05,1.0,r
2944.0,2978.0,3003.0,3415.0,4095.0,4095.0,3307.0,3449.0,0.25,8.22,6.56,-0.25,0.07,-0.06,1.0,r
2947.0,2977.0,3001.0,3421.0,4095.0,4095.0,3303.0,3443.0,-0.3,7.94,6.29,-0.23,0.0,-0.11,1.0,r
2940.0,2970.0,2995.0,3409.0,4095.0,4095.0,3307.0,3458.0,-0.5,8.05,6.39,-0.2,-0.0,-0.08,1.0,r
2940.0,2965.0,3001.0,3414.0,4095.0,4095.0,3309.0,3456.0,-0.37,8.01,6.57,-0.15,-0.06,-0.07,1.0,r
2943.0,2961.0,3001.0,3414.0,4095.0,4095.0,3311.0,3458.0,-0.27,8.09,6.58,-0.05,0.01,-0.1,1.0,r
2931.0,2959.0,2992.0,3417.0,4095.0,4095.0,3310.0,3456.0,-0.4,8.05,6.31,-0.03,-0.03,-0.07,1.0,r
2943.0,2981.0,3005.0,3424.0,4095.0,4095.0,3309.0,3458.0,-0.25,8.14,6.15,0.02,-0.0,-0.08,1.0,r
2939.0,2975.0,3005.0,3426.0,4095.0,4095.0,3306.0,3451.0,-0.09,8.07,6.19,-0.02,-0.04,-0.09,1.0,r
2945.0,2960.0,2996.0,3413.0,4095.0,4095.0,3305.0,3453.0,-0.43,8.18,5.99,-0.03,0.04,-0.11,1.0,r
2935.0,2961.0,3001.0,3418.0,4095.0,4095.0,3306.0,3455.0,-0.61,8.02,6.09,-0.03,0.08,-0.12,1.0,r
2932.0,2960.0,2987.0,3415.0,4095.0,4095.0,3308.0,3458.0,-0.76,8.12,6.0,-0.02,0.04,-0.07,1.0,r
2938.0,2971.0,3006.0,3419.0,4095.0,4095.0,3312.0,3461.0,-0.64,8.18,5.89,-0.01,0.02,-0.05,1.0,r
2937.0,2972.0,3005.0,3421.0,4095.0,4095.0,3302.0,3449.0,-0.73,8.05,5.94,-0.04,0.07,0.0,1.0,r
2929.0,2959.0,3007.0,3413.0,4095.0,4095.0,3306.0,3455.0,-0.74,8.19,5.97,-0.05,0.02,0.02,1.0,r
2930.0,2965.0,2992.0,3417.0,4095.0,4095.0,3311.0,3459.0,-0.45,8.17,6.07,-0.06,-0.02,0.01,1.0,r
2934.0,2974.0,2995.0,3423.0,4095.0,4095.0,3312.0,3460.0,-0.37,8.21,5.98,-0.07,-0.01,0.01,1.0,r
2937.0,2963.0,2995.0,3427.0,4095.0,4095.0,3303.0,3456.0,-0.14,8.21,6.09,-0.08,-0.03,-0.02,1.0,r
2930.0,2962.0,3001.0,3423.0,4095.0,4095.0,3309.0,3457.0,-0.42,8.23,6.05,-0.05,0.04,-0.05,1.0,r
2928.0,2965.0,2992.0,3424.0,4095.0,4095.0,3307.0,3462.0,-0.39,8.02,6.26,-0.03,0.03,-0.05,1.0,r
2947.0,2973.0,2994.0,3419.0,4095.0,4095.0,3311.0,3457.0,-0.6,8.33,5.94,0.03,0.11,-0.03,1.0,r
2933.0,2960.0,3007.0,3415.0,4095.0,4095.0,3312.0,3456.0,2.7,9.43,2.95,0.1,0.01,0.08,1.0,r
2938.0,2976.0,3007.0,3407.0,4095.0,4095.0,3309.0,3465.0,2.76,9.59,2.5,0.03,0.01,0.04,1.0,r
2928.0,2960.0,2992.0,3399.0,4095.0,4095.0,3311.0,3461.0,2.89,9.65,2.27,-0.07,-0.03,-0.07,1.0,r
2928.0,2960.0,3003.0,3408.0,4095.0,4095.0,3309.0,3455.0,2.44,9.42,2.89,-0.12,0.02,-0.1,1.0,r
2941.0,2963.0,2995.0,3403.0,4095.0,4095.0,3312.0,3457.0,1.96,9.41,3.42,-0.1,0.06,-0.06,1.0,r
2928.0,2962.0,2992.0,3402.0,4095.0,4095.0,3307.0,3461.0,2.14,9.38,3.21,-0.04,-0.01,-0.01,1.0,r
2949.0,2963.0,3003.0,3409.0,4095.0,4095.0,3312.0,3457.0,2.51,9.47,2.86,-0.05,0.02,0.01,1.0,r
2954.0,2975.0,2993.0,3409.0,4095.0,4095.0,3312.0,3449.0,2.67,9.42,2.84,-0.07,0.05,0.0,1.0,r
2939.0,2963.0,3003.0,3403.0,4095.0,4095.0,3312.0,3458.0,2.81,9.61,3.21,0.02,0.08,-0.04,1.0,r
2937.0,2960.0,2987.0,3402.0,4095.0,4095.0,3312.0,3455.0,2.38,9.46,3.01,-0.04,-0.02,-0.09,1.0,r
2928.0,2963.0,2992.0,3395.0,4095.0,4095.0,3312.0,3465.0,2.26,9.38,2.86,-0.06,0.01,-0.07,1.0,r
2937.0,2979.0,2993.0,3407.0,4095.0,4095.0,3310.0,3455.0,2.15,9.45,2.87,-0.08,-0.0,-0.02,1.0,r
2949.0,2967.0,2996.0,3407.0,4095.0,4095.0,3311.0,3454.0,2.38,9.39,2.99,-0.1,-0.01,0.01,1.0,r
2943.0,2969.0,2998.0,3403.0,4095.0,4095.0,3315.0,3467.0,2.48,9.51,2.96,-0.08,0.02,-0.0,1.0,r
2935.0,2965.0,2999.0,3408.0,4095.0,4095.0,3309.0,3457.0,2.7,9.46,3.04,-0.09,0.02,-0.01,1.0,r
2935.0,2974.0,2994.0,3411.0,4095.0,4095.0,3314.0,3466.0,2.53,9.55,2.93,-0.1,0.03,-0.03,1.0,r
2931.0,2964.0,2992.0,3402.0,4095.0,4095.0,3314.0,3459.0,2.52,9.41,3.13,-0.09,-0.04,-0.04,1.0,r
2944.0,2970.0,2992.0,3405.0,4095.0,4095.0,3311.0,3453.0,2.47,9.45,3.24,-0.09,0.02,-0.04,1.0,r
2942.0,2970.0,3011.0,3408.0,4095.0,4095.0,3315.0,3466.0,2.56,9.39,3.21,-0.05,0.0,-0.08,1.0,r
2933.0,2960.0,2997.0,3404.0,4095.0,4095.0,3312.0,3459.0,2.39,9.44,3.13,-0.03,0.03,-0.09,1.0,r
2947.0,2977.0,3003.0,3421.0,4095.0,4095.0,3311.0,3458.0,-3.44,9.07,3.12,-0.05,-0.03,-0.1,1.0,r
2946.0,2965.0,3000.0,3417.0,4095.0,4095.0,3312.0,3458.0,-3.01,9.24,2.89,-0.01,0.01,-0.01,1.0,r
2939.0,2973.0,2998.0,3413.0,4095.0,4095.0,3314.0,3466.0,-2.66,9.24,2.81,-0.03,0.02,0.05,1.0,r
2934.0,2970.0,3004.0,3418.0,4095.0,4095.0,3313.0,3466.0,-2.44,9.29,2.75,-0.06,0.01,0.07,1.0,r
2941.0,2975.0,2993.0,3417.0,4095.0,4095.0,3315.0,3469.0,-2.21,9.27,2.88,-0.06,0.02,0.05,1.0,r
2939.0,2961.0,2993.0,3409.0,4095.0,4095.0,3315.0,3465.0,-2.27,9.32,2.86,-0.08,-0.0,0.03,1.0,r
2934.0,2958.0,2992.0,3409.0,4095.0,4095.0,3311.0,3467.0,-2.35,9.31,2.77,-0.09,0.06,-0.0,1.0,r
2945.0,2970.0,2994.0,3408.0,4095.0,4095.0,3312.0,3462.0,-2.42,9.34,2.86,-0.1,0.02,-0.02,1.0,r
2930.0,2967.0,2995.0,3414.0,4095.0,4095.0,3318.0,3469.0,-2.33,9.31,3.07,-0.09,-0.01,0.0,1.0,r
2946.0,2960.0,2998.0,3419.0,4095.0,4095.0,3319.0,3466.0,-2.26,9.3,3.02,-0.07,-0.0,0.01,1.0,r
2937.0,2963.0,2995.0,3409.0,4095.0,4095.0,3317.0,3472.0,-2.03,9.28,3.17,-0.07,-0.06,-0.03,1.0,r
2939.0,2966.0,2999.0,3425.0,4095.0,4095.0,3312.0,3472.0,-2.29,9.3,3.06,-0.02,0.04,-0.08,1.0,r
2935.0,2986.0,3005.0,3414.0,4095.0,4095.0,3316.0,3463.0,-2.44,9.28,2.9,-0.02,-0.01,-0.05,1.0,r
2935.0,2967.0,2997.0,3419.0,4095.0,4095.0,3312.0,3463.0,-2.5,9.31,2.79,-0.04,0.01,-0.02,1.0,r
2941.0,2975.0,2992.0,3413.0,4095.0,4095.0,3317.0,3469.0,-2.41,9.31,2.7,-0.06,0.02,-0.01,1.0,r
2938.0,2967.0,3001.0,3423.0,4095.0,4095.0,3311.0,3459.0,-2.36,9.39,2.77,-0.1,0.07,-0.01,1.0,r
2943.0,2973.0,2992.0,3412.0,4095.0,4095.0,3311.0,3461.0,-2.37,9.29,2.85,-0.1,0.03,0.02,1.0,r
2939.0,2973.0,2993.0,3415.0,4095.0,4095.0,3317.0,3470.0,-2.18,9.34,2.98,-0.09,-0.03,0.01,1.0,r
2946.0,2973.0,3005.0,3413.0,4095.0,4095.0,3319.0,3472.0,-2.19,9.33,3.05,-0.07,0.01,0.0,1.0,r
2939.0,2971.0,3003.0,3426.0,4095.0,4095.0,3306.0,3460.0,-2.27,9.34,3.0,-0.07,0.01,-0.0,1.0,r
2944.0,2978.0,2997.0,3410.0,4095.0,4095.0,3307.0,3467.0,1.03,9.9,2.2,0.04,-0.0,0.1,1.0,r
2935.0,2967.0,2993.0,3410.0,4095.0,4095.0,3307.0,3461.0,1.22,9.95,1.98,-0.0,0.01,0.02,1.0,r
2946.0,2962.0,2994.0,3411.0,4095.0,4095.0,3312.0,3473.0,0.93,9.93,1.93,-0.06,0.02,-0.03,1.0,r
2941.0,2961.0,3000.0,3408.0,4095.0,4095.0,3315.0,3471.0,0.83,9.84,2.07,-0.11,-0.02,-0.05,1.0,r
2933.0,2959.0,3003.0,3406.0,4095.0,4095.0,3312.0,3469.0,0.66,9.86,2.35,-0.12,-0.01,-0.05,1.0,r
2939.0,2971.0,3008.0,3408.0,4095.0,4095.0,3312.0,3472.0,0.65,9.77,2.47,-0.11,-0.02,-0.05,1.0,r
2935.0,2962.0,2997.0,3406.0,4095.0,4095.0,3315.0,3471.0,0.65,9.76,2.62,-0.1,-0.01,-0.03,1.0,r
2942.0,2979.0,2993.0,3408.0,4095.0,4095.0,3316.0,3471.0,0.63,9.83,2.59,-0.08,0.01,-0.02,1.0,r
2935.0,2967.0,2993.0,3408.0,4095.0,4095.0,3311.0,3475.0,0.72,9.79,2.5,-0.04,0.0,-0.03,1.0,r
2934.0,2960.0,2992.0,3406.0,4095.0,4095.0,3311.0,3471.0,0.71,9.93,2.32,-0.02,0.03,-0.04,1.0,r
2942.0,2975.0,2992.0,3418.0,4095.0,4095.0,3313.0,3460.0,0.85,9.74,2.4,-0.09,-0.02,-0.02,1.0,r
2937.0,2964.0,3006.0,3408.0,4095.0,4095.0,3315.0,3474.0,0.76,9.85,2.4,-0.07,0.02,-0.04,1.0,r
2935.0,2960.0,2992.0,3409.0,4095.0,4095.0,3310.0,3467.0,0.73,9.78,2.39,-0.06,0.03,-0.04,1.0,r
2941.0,2979.0,3000.0,3408.0,4095.0,4095.0,3317.0,3472.0,0.66,9.82,2.4,-0.1,0.03,-0.02,1.0,r
2941.0,2957.0,2992.0,3407.0,4095.0,4095.0,3312.0,3472.0,0.74,9.83,2.43,-0.1,-0.01,-0.03,1.0,r
2933.0,2970.0,2992.0,3408.0,4095.0,4095.0,3312.0,3467.0,0.71,9.82,2.47,-0.09,0.04,-0.03,1.0,r
2939.0,2977.0,2995.0,3399.0,4095.0,4095.0,3313.0,3475.0,0.68,9.8,2.51,-0.1,0.02,-0.01,1.0,r
2945.0,2960.0,3001.0,3407.0,4095.0,4095.0,3310.0,3462.0,0.74,9.77,2.55,-0.11,0.03,-0.01,1.0,r
2940.0,2963.0,2999.0,3397.0,4095.0,4095.0,3312.0,3472.0,0.81,9.73,2.58,-0.1,0.01,-0.01,1.0,r
2943.0,2971.0,3007.0,3408.0,4095.0,4095.0,3314.0,3472.0,0.86,9.77,2.63,-0.1,0.01,-0.01,1.0,r
2940.0,2973.0,2999.0,3402.0,4095.0,4095.0,3314.0,3473.0,3.19,9.04,3.71,-0.04,-0.06,-0.05,1.0,r
2925.0,2967.0,2993.0,3392.0,4095.0,4095.0,3325.0,3472.0,2.93,9.15,3.19,-0.07,0.02,-0.06,1.0,r
2934.0,2977.0,2997.0,3398.0,4095.0,4095.0,3321.0,3481.0,2.88,9.09,3.26,-0.08,-0.04,-0.06,1.0,r
2945.0,2972.0,2997.0,3399.0,4095.0,4095.0,3325.0,3481.0,3.09,9.2,3.35,-0.09,0.0,-0.04,1.0,r
2938.0,2973.0,3003.0,3399.0,4095.0,4095.0,3315.0,3475.0,3.11,9.2,3.3,-0.07,-0.02,-0.03,1.0,r
2928.0,2982.0,2992.0,3406.0,4095.0,4095.0,3318.0,3472.0,3.19,9.2,3.33,-0.09,0.01,-0.02,1.0,r
2942.0,2974.0,2997.0,3395.0,4095.0,4095.0,3326.0,3479.0,3.15,9.14,3.37,-0.09,-0.01,-0.03,1.0,r
2945.0,2976.0,2997.0,3394.0,4095.0,4095.0,3322.0,3473.0,3.18,9.19,3.51,-0.09,-0.01,-0.03,1.0,r
2928.0,2961.0,2998.0,3397.0,4095.0,4095.0,3321.0,3478.0,3.16,9.09,3.56,-0.07,0.02,-0.04,1.0,r
2935.0,2970.0,3004.0,3405.0,4095.0,4095.0,3318.0,3473.0,3.05,9.14,3.47,-0.03,0.03,-0.06,1.0,r
2930.0,2970.0,2999.0,3395.0,4095.0,4095.0,3323.0,3479.0,2.92,9.11,3.29,-0.06,-0.01,-0.03,1.0,r
2943.0,2969.0,3005.0,3408.0,4095.0,4095.0,3320.0,3474.0,2.91,9.18,3.27,-0.05,0.02,-0.03,1.0,r
2930.0,2963.0,2992.0,3408.0,4095.0,4095.0,3325.0,3474.0,2.93,9.15,3.32,-0.06,-0.01,-0.01,1.0,r
2939.0,2973.0,2999.0,3408.0,4095.0,4095.0,3323.0,3472.0,3.15,9.04,3.47,-0.11,-0.01,0.02,1.0,r
2945.0,2969.0,2998.0,3398.0,4095.0,4095.0,3328.0,3483.0,3.15,9.16,3.46,-0.08,0.03,-0.01,1.0,r
2938.0,2974.0,3003.0,3395.0,4095.0,4095.0,3325.0,3489.0,3.28,9.08,3.55,-0.09,0.0,-0.02,1.0,r
2935.0,2971.0,2992.0,3397.0,4095.0,4095.0,3325.0,3479.0,3.23,9.16,3.55,-0.06,0.02,-0.05,1.0,r
2941.0,2975.0,2994.0,3401.0,4095.0,4095.0,3319.0,3479.0,3.15,9.1,3.52,-0.06,0.01,-0.06,1.0,r
2935.0,2967.0,3005.0,3407.0,4095.0,4095.0,3319.0,3474.0,2.94,9.1,3.54,-0.06,-0.01,-0.05,1.0,r
2945.0,2965.0,2995.0,3398.0,4095.0,4095.0,3326.0,3481.0,3.07,9.06,3.63,-0.02,-0.02,-0.02,1.0,r
2928.0,2975.0,2995.0,3363.0,4095.0,4095.0,3328.0,3472.0,1.66,10.13,-0.55,-0.15,0.0,-0.06,1.0,r
2942.0,2966.0,3001.0,3365.0,4095.0,4095.0,3328.0,3477.0,1.53,9.92,-0.21,-0.14,-0.04,-0.08,1.0,r
2929.0,2967.0,2994.0,3367.0,4095.0,4095.0,3330.0,3479.0,1.45,9.96,-0.19,-0.07,-0.16,-0.06,1.0,r
2945.0,2972.0,2998.0,3373.0,4095.0,4095.0,3328.0,3475.0,1.53,10.0,-0.24,-0.06,-0.09,-0.06,1.0,r
2927.0,2961.0,2993.0,3362.0,4095.0,4095.0,3325.0,3478.0,1.34,10.01,-0.3,-0.05,-0.01,-0.06,1.0,r
2935.0,2966.0,2997.0,3376.0,4095.0,4095.0,3326.0,3473.0,1.34,10.01,-0.46,-0.09,-0.01,-0.06,1.0,r
2944.0,2966.0,3007.0,3369.0,4095.0,4095.0,3325.0,3472.0,1.43,9.94,-0.44,-0.11,-0.0,-0.03,1.0,r
2939.0,2969.0,2999.0,3345.0,4095.0,4095.0,3327.0,3477.0,1.53,9.98,-0.33,-0.08,0.04,-0.04,1.0,r
2930.0,2961.0,2991.0,3344.0,4095.0,4095.0,3328.0,3482.0,1.43,10.04,-0.37,-0.1,0.03,-0.03,1.0,r
2934.0,2970.0,2992.0,3343.0,4095.0,4095.0,3322.0,3481.0,1.46,10.01,-0.28,-0.13,-0.02,-0.02,1.0,r
2943.0,2963.0,3009.0,3360.0,4095.0,4095.0,3326.0,3473.0,1.59,9.93,-0.01,-0.07,-0.01,-0.03,1.0,r
2943.0,2969.0,2999.0,3358.0,4095.0,4095.0,3323.0,3469.0,1.55,10.0,-0.05,-0.06,-0.02,-0.02,1.0,r
2931.0,2965.0,2994.0,3357.0,4095.0,4095.0,3330.0,3475.0,1.54,10.0,-0.32,-0.03,0.0,-0.04,1.0,r
2935.0,2961.0,2989.0,3346.0,4095.0,4095.0,3328.0,3479.0,1.46,10.09,-0.46,-0.05,0.03,-0.05,1.0,r
2938.0,2960.0,2986.0,3339.0,4095.0,4095.0,3326.0,3474.0,1.51,9.97,-0.29,-0.07,0.01,-0.05,1.0,r
2947.0,2964.0,3003.0,3343.0,4095.0,4095.0,3330.0,3479.0,1.42,9.99,-0.38,-0.06,0.03,-0.04,1.0,r
2941.0,2970.0,2998.0,3328.0,4095.0,4095.0,3337.0,3474.0,1.5,10.0,-0.4,-0.1,-0.01,-0.01,1.0,r
2942.0,2966.0,2993.0,3312.0,4095.0,4095.0,3328.0,3483.0,1.56,10.03,-0.28,-0.09,0.03,-0.02,1.0,r
2933.0,2971.0,2991.0,3312.0,4095.0,4095.0,3324.0,3474.0,1.55,9.96,-0.27,-0.11,-0.01,-0.02,1.0,r
2941.0,2960.0,2997.0,3312.0,4095.0,4095.0,3323.0,3475.0,1.49,10.01,-0.21,-0.11,0.02,-0.02,1.0,r
2942.0,2974.0,2997.0,3311.0,4095.0,4095.0,3405.0,3758.0,1.21,9.32,4.04,-0.03,-0.0,-0.04,1.0,r
2942.0,2979.0,2996.0,3309.0,4095.0,4095.0,3408.0,3766.0,1.3,9.33,3.92,-0.03,-0.01,-0.05,1.0,r
2943.0,2976.0,2998.0,3318.0,4095.0,4095.0,3403.0,3760.0,1.19,9.33,3.85,-0.06,-0.02,-0.05,1.0,r
2933.0,2965.0,3015.0,3313.0,4095.0,4095.0,3408.0,3767.0,1.2,9.21,4.02,-0.09,-0.04,-0.05,1.0,r
2944.0,2970.0,3011.0,3315.0,4095.0,4095.0,3408.0,3766.0,1.0,9.31,4.13,-0.07,0.01,-0.02,1.0,r
2940.0,2973.0,3002.0,3317.0,4095.0,4095.0,3413.0,3771.0,1.2,9.24,4.09,-0.05,-0.02,-0.02,1.0,r
2944.0,2967.0,2991.0,3314.0,4095.0,4095.0,3407.0,3767.0,1.28,9.32,4.01,-0.06,0.01,-0.03,1.0,r
2944.0,2975.0,3003.0,3322.0,4095.0,4095.0,3403.0,3762.0,1.24,9.32,4.03,-0.06,-0.01,-0.03,1.0,r
2945.0,2979.0,2998.0,3323.0,4095.0,4095.0,3407.0,3767.0,1.29,9.22,4.13,-0.06,-0.0,-0.04,1.0,r
2942.0,2982.0,3003.0,3327.0,4095.0,4095.0,3410.0,3773.0,1.29,9.28,4.19,-0.02,0.0,-0.06,1.0,r
2939.0,2979.0,3008.0,3328.0,4095.0,4095.0,3411.0,3761.0,1.22,9.22,4.03,-0.03,-0.02,-0.04,1.0,r
2940.0,2978.0,2997.0,3335.0,4095.0,4095.0,3408.0,3763.0,1.32,9.29,4.0,-0.04,-0.03,-0.05,1.0,r
2935.0,2975.0,3001.0,3331.0,4095.0,4095.0,3402.0,3763.0,1.19,9.21,4.09,-0.05,-0.01,-0.09,1.0,r
2941.0,2974.0,3013.0,3334.0,4095.0,4095.0,3414.0,3780.0,1.07,9.25,3.94,-0.03,-0.0,-0.08,1.0,r
2934.0,2979.0,3008.0,3329.0,4095.0,4095.0,3408.0,3773.0,1.02,9.27,3.82,-0.07,-0.02,-0.05,1.0,r
2949.0,2978.0,2999.0,3335.0,4095.0,4095.0,3410.0,3781.0,1.14,9.3,3.89,-0.07,-0.01,-0.02,1.0,r
2941.0,2963.0,2993.0,3329.0,4095.0,4095.0,3402.0,3775.0,1.17,9.36,3.94,-0.07,0.01,-0.02,1.0,r
2949.0,2979.0,3007.0,3335.0,4095.0,4095.0,3415.0,3770.0,1.13,9.3,3.94,-0.09,-0.01,-0.03,1.0,r
2939.0,2973.0,3001.0,3328.0,4095.0,4095.0,3408.0,3785.0,1.03,9.3,4.09,-0.09,0.01,-0.01,1.0,r
2939.0,2979.0,3006.0,3328.0,4095.0,4095.0,3407.0,3762.0,1.29,9.15,4.35,-0.09,-0.02,-0.02,1.0,r
2947.0,2967.0,2999.0,3627.0,4095.0,4095.0,3379.0,3742.0,-4.28,8.79,1.58,-0.06,0.0,-0.0,1.0,r
2958.0,2977.0,2993.0,3623.0,4095.0,4095.0,3381.0,3735.0,-4.21,8.79,1.56,-0.05,0.02,-0.02,1.0,r
2937.0,2987.0,2994.0,3622.0,4095.0,4095.0,3389.0,3745.0,-4.29,8.79,1.52,-0.09,-0.01,-0.03,1.0,r
2945.0,2977.0,3001.0,3633.0,4095.0,4095.0,3382.0,3737.0,-4.36,8.75,1.66,-0.08,-0.02,-0.03,1.0,r
2944.0,2981.0,2995.0,3632.0,4095.0,4095.0,3387.0,3738.0,-4.34,8.77,1.67,-0.09,0.01,-0.02,1.0,r
2948.0,2981.0,2998.0,3632.0,4095.0,4095.0,3390.0,3733.0,-4.26,8.77,1.69,-0.07,-0.01,-0.03,1.0,r
2960.0,2977.0,2997.0,3635.0,4095.0,4095.0,3391.0,3744.0,-4.31,8.78,1.69,-0.08,0.02,-0.01,1.0,r
2946.0,2991.0,2999.0,3625.0,4095.0,4095.0,3392.0,3745.0,-4.29,8.77,1.71,-0.07,0.01,-0.03,1.0,r
2955.0,2979.0,2997.0,3625.0,4095.0,4095.0,3392.0,3747.0,-4.32,8.77,1.76,-0.08,0.01,-0.02,1.0,r
2958.0,2971.0,2997.0,3624.0,4095.0,4095.0,3385.0,3737.0,-4.27,8.76,1.74,-0.05,0.01,-0.03,1.0,r
2954.0,2979.0,3002.0,3632.0,4095.0,4095.0,3388.0,3745.0,-4.26,8.77,1.7,-0.07,0.01,-0.02,1.0,r
2944.0,2981.0,2998.0,3627.0,4095.0,4095.0,3393.0,3754.0,-4.29,8.8,1.7,-0.07,0.01,-0.02,1.0,r
2948.0,2981.0,3006.0,3628.0,4095.0,4095.0,3395.0,3739.0,-4.3,8.75,1.68,-0.07,0.02,-0.01,1.0,r
2955.0,2979.0,3011.0,3630.0,4095.0,4095.0,3391.0,3742.0,-4.22,8.79,1.72,-0.06,-0.02,-0.01,1.0,r
2956.0,2978.0,3003.0,3617.0,4095.0,4095.0,3388.0,3737.0,-4.22,8.79,1.73,-0.06,-0.0,-0.02,1.0,r
2947.0,2976.0,3005.0,3619.0,4095.0,4095.0,3381.0,3746.0,-4.22,8.76,1.7,-0.05,-0.03,-0.03,1.0,r
2945.0,2980.0,3003.0,3605.0,4095.0,4095.0,3397.0,3751.0,-4.24,8.8,1.74,-0.07,-0.0,-0.02,1.0,r
2941.0,2976.0,2992.0,3610.0,4095.0,4095.0,3392.0,3737.0,-4.19,8.76,1.71,-0.05,0.02,-0.03,1.0,r
2945.0,2981.0,2992.0,3604.0,4095.0,4095.0,3386.0,3747.0,-4.28,8.74,1.7,-0.08,-0.02,-0.02,1.0,r
2941.0,2978.0,2999.0,3615.0,4095.0,4095.0,3394.0,3760.0,-4.16,8.79,1.73,-0.06,0.0,-0.03,1.0,r
2946.0,2972.0,3005.0,3622.0,4095.0,4095.0,3399.0,3770.0,0.35,7.76,6.73,-0.1,-0.05,-0.03,1.0,r
2944.0,2979.0,2995.0,3611.0,4095.0,4095.0,3405.0,3778.0,0.15,7.73,6.77,-0.08,-0.05,-0.06,1.0,r
2942.0,2983.0,2995.0,3618.0,4095.0,4095.0,3393.0,3775.0,-0.08,7.64,6.76,-0.06,-0.03,-0.07,1.0,r
2955.0,2976.0,3003.0,3621.0,4095.0,4095.0,3398.0,3779.0,-0.12,7.65,6.77,-0.05,0.0,-0.05,1.0,r
2957.0,2973.0,3002.0,3610.0,4095.0,4095.0,3398.0,3775.0,-0.07,7.7,6.69,-0.06,-0.03,-0.02,1.0,r
2947.0,2973.0,3010.0,3619.0,4095.0,4095.0,3398.0,3771.0,-0.06,7.72,6.65,-0.05,0.01,-0.0,1.0,r
2951.0,2991.0,3003.0,3621.0,4095.0,4095.0,3399.0,3778.0,0.04,7.69,6.68,-0.05,-0.01,-0.01,1.0,r
2947.0,2978.0,3003.0,3614.0,4095.0,4095.0,3407.0,3789.0,0.1,7.77,6.64,-0.05,-0.01,-0.01,1.0,r
2951.0,2987.0,2994.0,3628.0,4095.0,4095.0,3399.0,3782.0,0.06,7.71,6.6,-0.08,-0.01,-0.01,1.0,r
2951.0,2978.0,3010.0,3619.0,4095.0,4095.0,3395.0,3767.0,0.2,7.68,6.83,-0.05,-0.03,-0.02,1.0,r
2941.0,2980.0,3005.0,3610.0,4095.0,4095.0,3407.0,3787.0,0.13,7.71,6.73,-0.04,-0.02,-0.04,1.0,r
2954.0,2979.0,3006.0,3620.0,4095.0,4095.0,3401.0,3788.0,0.18,7.73,6.76,-0.01,-0.03,-0.07,1.0,r
2950.0,2985.0,3007.0,3621.0,4095.0,4095.0,3393.0,3776.0,0.01,7.68,6.61,-0.01,0.03,-0.06,1.0,r
2946.0,2978.0,2997.0,3616.0,4095.0,4095.0,3404.0,3786.0,-0.06,7.71,6.57,-0.03,-0.03,-0.04,1.0,r
2960.0,2979.0,3008.0,3623.0,4095.0,4095.0,3401.0,3779.0,-0.03,7.74,6.55,-0.03,0.01,-0.01,1.0,r
2953.0,2979.0,2998.0,3613.0,4095.0,4095.0,3399.0,3779.0,-0.0,7.79,6.53,-0.06,-0.03,0.01,1.0,r
2952.0,2975.0,2999.0,3617.0,4095.0,4095.0,3395.0,3773.0,0.1,7.75,6.53,-0.07,-0.0,0.02,1.0,r
2944.0,2991.0,3008.0,3618.0,4095.0,4095.0,3405.0,3781.0,0.19,7.85,6.52,-0.09,-0.03,0.01,1.0,r
2947.0,2991.0,3008.0,3629.0,4095.0,4095.0,3405.0,3778.0,0.26,7.82,6.63,-0.07,-0.01,-0.02,1.0,r
2949.0,2973.0,3003.0,3613.0,4095.0,4095.0,3398.0,3791.0,0.36,7.77,6.77,-0.07,-0.03,-0.03,1.0,r
2947.0,2982.0,2998.0,3605.0,4095.0,4095.0,3398.0,3776.0,2.6,9.33,3.25,-0.08,-0.02,-0.04,1.0,r
2960.0,2975.0,3003.0,3583.0,4095.0,4095.0,3408.0,3774.0,2.56,9.35,3.15,-0.07,0.03,-0.02,1.0,r
2958.0,2971.0,3004.0,3583.0,4095.0,4095.0,3403.0,3771.0,2.66,9.36,3.13,-0.06,0.0,-0.04,1.0,r
2960.0,2992.0,3003.0,3583.0,4095.0,4095.0,3408.0,3777.0,2.57,9.3,3.22,-0.07,0.01,-0.04,1.0,r
2957.0,2978.0,3000.0,3583.0,4095.0,4095.0,3408.0,3777.0,2.59,9.27,3.25,-0.05,0.01,-0.04,1.0,r
2945.0,2978.0,3007.0,3583.0,4095.0,4095.0,3410.0,3777.0,2.64,9.41,3.09,-0.06,-0.01,-0.04,1.0,r
2951.0,2974.0,3006.0,3602.0,4095.0,4095.0,3403.0,3767.0,2.56,9.41,3.0,-0.07,0.0,-0.04,1.0,r
2954.0,2978.0,3002.0,3600.0,4095.0,4095.0,3399.0,3763.0,2.64,9.31,3.15,-0.07,-0.02,-0.04,1.0,r
2941.0,2976.0,2997.0,3583.0,4095.0,4095.0,3407.0,3770.0,2.51,9.36,3.25,-0.09,-0.02,-0.02,1.0,r
2944.0,2977.0,2999.0,3583.0,4095.0,4095.0,3405.0,3777.0,2.61,9.32,3.17,-0.07,0.02,-0.02,1.0,r
2949.0,2976.0,3003.0,3583.0,4095.0,4095.0,3408.0,3776.0,2.84,9.28,3.24,-0.07,0.02,-0.03,1.0,r
2952.0,2970.0,3001.0,3598.0,4095.0,4095.0,3410.0,3779.0,2.77,9.32,3.23,-0.06,0.0,-0.06,1.0,r
2950.0,2981.0,2998.0,3600.0,4095.0,4095.0,3407.0,3767.0,2.6,9.33,3.2,-0.04,0.01,-0.07,1.0,r
2954.0,2979.0,3009.0,3600.0,4095.0,4095.0,3408.0,3778.0,2.46,9.23,3.1,-0.06,0.0,-0.05,1.0,r
2948.0,2988.0,3002.0,3601.0,4095.0,4095.0,3408.0,3776.0,2.6,9.4,3.07,-0.02,0.03,-0.04,1.0,r
2955.0,2975.0,2999.0,3600.0,4095.0,4095.0,3405.0,3782.0,2.58,9.26,3.13,-0.08,0.01,-0.02,1.0,r
2945.0,2983.0,2992.0,3583.0,4095.0,4095.0,3407.0,3777.0,2.57,9.44,3.08,-0.07,-0.01,-0.03,1.0,r
2947.0,2976.0,2998.0,3599.0,4095.0,4095.0,3408.0,3779.0,2.61,9.24,3.22,-0.05,0.02,-0.05,1.0,r
2947.0,2975.0,2999.0,3605.0,4095.0,4095.0,3408.0,3776.0,2.4,9.37,3.15,-0.08,-0.01,-0.03,1.0,r
2956.0,2977.0,3001.0,3605.0,4095.0,4095.0,3402.0,3760.0,2.59,9.31,3.24,-0.06,0.0,-0.02,1.0,r
2951.0,2977.0,3003.0,3502.0,4095.0,4095.0,3408.0,3761.0,-1.15,9.93,1.24,-0.1,0.0,-0.05,1.0,r
2950.0,2980.0,2997.0,3494.0,4095.0,4095.0,3403.0,3748.0,-0.98,9.92,1.39,-0.09,-0.02,0.0,1.0,r
2945.0,2981.0,2998.0,3491.0,4095.0,4095.0,3400.0,3747.0,-0.63,9.97,1.3,-0.08,0.03,0.02,1.0,r
2951.0,2972.0,3008.0,3505.0,4095.0,4095.0,3408.0,3746.0,-0.55,10.01,1.26,-0.07,-0.02,-0.01,1.0,r
2955.0,2972.0,3007.0,3507.0,4095.0,4095.0,3396.0,3751.0,-0.5,10.03,1.27,-0.07,0.04,-0.03,1.0,r
2944.0,2984.0,3007.0,3503.0,4095.0,4095.0,3408.0,3755.0,-0.5,9.98,1.41,-0.06,-0.02,-0.06,1.0,r
2952.0,2966.0,2998.0,3501.0,4095.0,4095.0,3410.0,3753.0,-0.76,10.01,1.35,-0.07,0.01,-0.05,1.0,r
2949.0,2979.0,3006.0,3507.0,4095.0,4095.0,3403.0,3745.0,-0.77,9.96,1.3,-0.05,-0.02,-0.05,1.0,r
2950.0,2975.0,3005.0,3504.0,4095.0,4095.0,3407.0,3761.0,-0.73,9.9,1.41,-0.04,-0.01,-0.05,1.0,r
2944.0,2978.0,2995.0,3498.0,4095.0,4095.0,3408.0,3760.0,-0.67,9.98,1.39,-0.03,-0.01,-0.07,1.0,r
2951.0,2982.0,3007.0,3510.0,4095.0,4095.0,3408.0,3758.0,-0.76,9.94,1.35,-0.04,-0.02,-0.06,1.0,r
2950.0,2987.0,3007.0,3513.0,4095.0,4095.0,3411.0,3758.0,-0.65,9.94,1.38,-0.03,-0.05,-0.06,1.0,r
2957.0,2978.0,3010.0,3513.0,4095.0,4095.0,3409.0,3760.0,-0.64,9.94,1.23,-0.01,-0.05,-0.07,1.0,r
2945.0,2969.0,2995.0,3504.0,4095.0,4095.0,3408.0,3747.0,-0.83,10.01,1.07,-0.02,-0.03,-0.06,1.0,r
2954.0,2969.0,2998.0,3505.0,4095.0,4095.0,3403.0,3747.0,-0.98,9.99,0.9,-0.04,-0.01,-0.06,1.0,r
2939.0,2973.0,3008.0,3511.0,4095.0,4095.0,3410.0,3760.0,-0.89,9.98,0.91,-0.09,-0.03,-0.01,1.0,r
2956.0,2976.0,3004.0,3510.0,4095.0,4095.0,3408.0,3759.0,-0.78,9.99,1.21,-0.12,-0.01,-0.02,1.0,r
2945.0,2979.0,3006.0,3505.0,4095.0,4095.0,3413.0,3753.0,-0.83,9.92,1.49,-0.1,0.03,-0.03,1.0,r
2952.0,2983.0,3007.0,3517.0,4095.0,4095.0,3414.0,3754.0,-0.74,9.9,1.51,-0.1,0.02,-0.0,1.0,r
2950.0,2966.0,2997.0,3511.0,4095.0,4095.0,3408.0,3757.0,-0.48,9.96,1.46,-0.04,0.01,-0.04,1.0,r
2953.0,2978.0,2999.0,3547.0,4095.0,4095.0,3409.0,3757.0,-5.45,7.38,3.69,-0.03,0.02,-0.04,1.0,r
2939.0,2979.0,2994.0,3539.0,4095.0,4095.0,3415.0,3761.0,-5.38,7.41,3.63,-0.04,0.01,-0.03,1.0,r
2944.0,2981.0,3007.0,3549.0,4095.0,4095.0,3414.0,3760.0,-5.37,7.4,3.56,-0.05,0.02,-0.04,1.0,r
2953.0,2972.0,3009.0,3546.0,4095.0,4095.0,3417.0,3760.0,-5.42,7.39,3.57,-0.05,0.01,-0.04,1.0,r
2958.0,2981.0,3002.0,3551.0,4095.0,4095.0,3418.0,3745.0,-5.42,7.41,3.61,-0.06,-0.05,-0.05,1.0,r
2942.0,2973.0,2998.0,3540.0,4095.0,4095.0,3414.0,3764.0,-5.29,7.37,3.65,-0.07,-0.04,-0.07,1.0,r
2948.0,2978.0,2998.0,3556.0,4095.0,4095.0,3408.0,3754.0,-5.56,7.42,3.62,-0.08,-0.01,-0.05,1.0,r
2957.0,2975.0,2999.0,3540.0,4095.0,4095.0,3413.0,3759.0,-5.6,7.34,3.77,-0.06,-0.0,-0.04,1.0,r
2950.0,2985.0,2992.0,3547.0,4095.0,4095.0,3418.0,3760.0,-5.53,7.38,3.68,-0.05,0.01,-0.01,1.0,r
2962.0,2978.0,3008.0,3553.0,4095.0,4095.0,3411.0,3759.0,-5.44,7.41,3.65,-0.05,-0.0,-0.0,1.0,r
2951.0,2982.0,3007.0,3553.0,4095.0,4095.0,3411.0,3758.0,-5.89,7.36,3.37,-0.1,-0.19,0.01,1.0,r
2957.0,2977.0,3009.0,3554.0,4095.0,4095.0,3376.0,3696.0,-5.48,7.28,3.75,-0.03,-0.46,-0.04,1.0,r
2960.0,2992.0,3006.0,3552.0,4095.0,4095.0,3349.0,3665.0,-4.9,7.49,4.14,-0.11,0.01,0.03,1.0,r
2959.0,2977.0,3008.0,3546.0,4095.0,4095.0,3355.0,3663.0,-5.21,7.46,4.05,-0.07,0.21,0.03,1.0,r
2956.0,2971.0,3007.0,3553.0,4095.0,4095.0,3358.0,3678.0,-5.08,7.35,3.93,-0.04,-0.03,-0.02,1.0,r
2947.0,2978.0,3008.0,3554.0,4095.0,4095.0,3355.0,3682.0,-5.03,7.37,3.82,-0.07,0.01,-0.05,1.0,r
2951.0,2987.0,2994.0,3545.0,4095.0,4095.0,3373.0,3699.0,-5.22,7.35,3.9,-0.09,0.02,-0.1,1.0,r
2957.0,2985.0,3002.0,3553.0,4095.0,4095.0,3373.0,3700.0,-5.44,7.39,4.3,-0.06,0.0,-0.09,1.0,r
2953.0,2965.0,2994.0,3547.0,4095.0,4095.0,3371.0,3711.0,-5.42,7.4,4.29,0.07,0.06,-0.05,1.0,r
2955.0,2995.0,3018.0,3554.0,4095.0,4095.0,3376.0,3715.0,-5.26,7.48,3.57,0.08,0.1,-0.04,1.0,r
2914.0,2965.0,3002.0,3863.0,4095.0,3920.0,3312.0,3537.0,1.41,9.35,3.84,0.01,0.06,-0.03,1.0,r
2930.0,2967.0,3009.0,3890.0,4095.0,3949.0,3312.0,3535.0,1.54,9.09,3.89,-0.28,-0.14,0.03,1.0,r
2913.0,2971.0,3003.0,3888.0,4095.0,3949.0,3308.0,3536.0,1.36,9.87,3.79,0.03,0.08,-0.04,1.0,r
2921.0,2975.0,3003.0,3884.0,4095.0,3974.0,3312.0,3529.0,1.76,8.81,4.38,-0.21,-0.14,-0.01,1.0,r
2928.0,2966.0,3005.0,3875.0,4095.0,3984.0,3311.0,3542.0,1.63,9.62,4.02,-0.05,0.01,-0.06,1.0,r
2927.0,2967.0,3006.0,3871.0,4095.0,3987.0,3312.0,3543.0,1.6,8.86,4.23,-0.19,-0.1,-0.04,1.0,r
2933.0,2975.0,3014.0,3813.0,4095.0,4009.0,3313.0,3555.0,1.35,9.19,4.29,-0.08,0.1,0.0,1.0,r
2931.0,2961.0,3009.0,3814.0,4095.0,4009.0,3318.0,3542.0,1.4,9.06,4.49,-0.04,0.03,-0.04,1.0,r
2925.0,2973.0,3005.0,3827.0,4095.0,4033.0,3325.0,3552.0,1.47,9.17,4.37,0.01,0.03,-0.03,1.0,r
2938.0,2967.0,3007.0,3834.0,4095.0,4037.0,3312.0,3545.0,1.87,9.21,4.28,0.13,0.06,-0.07,1.0,r
2926.0,2974.0,3007.0,3840.0,4095.0,4033.0,3307.0,3543.0,1.7,9.38,3.72,0.01,-0.03,-0.08,1.0,r
2925.0,2965.0,3009.0,3845.0,4095.0,4047.0,3303.0,3553.0,1.49,9.35,3.57,0.03,-0.0,-0.12,1.0,r
2932.0,2960.0,2995.0,3854.0,4095.0,4055.0,3299.0,3554.0,1.21,9.29,3.45,-0.15,-0.08,-0.06,1.0,r
2930.0,2973.0,3008.0,3854.0,4095.0,4067.0,3297.0,3551.0,1.06,9.34,3.81,-0.02,0.08,-0.03,1.0,r
2939.0,2972.0,3002.0,3856.0,4095.0,4055.0,3295.0,3550.0,1.17,9.33,3.92,-0.07,0.07,0.01,1.0,r
2926.0,2957.0,2999.0,3847.0,4095.0,4065.0,3302.0,3551.0,1.57,9.33,3.86,-0.06,-0.0,-0.01,1.0,r
2929.0,2973.0,3006.0,3855.0,4095.0,4074.0,3305.0,3547.0,1.53,9.33,3.77,-0.11,0.03,-0.0,1.0,r
2937.0,2969.0,3002.0,3862.0,4095.0,4075.0,3299.0,3547.0,1.49,9.34,3.83,-0.11,0.03,-0.02,1.0,r
2928.0,2969.0,3005.0,3851.0,4095.0,4080.0,3307.0,3555.0,1.36,9.26,4.03,-0.1,0.04,-0.02,1.0,r
2931.0,2971.0,2998.0,3843.0,4095.0,4082.0,3306.0,3557.0,1.45,9.21,4.3,-0.08,-0.02,-0.0,1.0,r
2939.0,2978.0,3011.0,3861.0,4095.0,4095.0,3309.0,3559.0,0.46,10.12,-0.25,-0.14,0.04,-0.02,1.0,r
2925.0,2967.0,3003.0,3858.0,4095.0,4095.0,3311.0,3562.0,0.87,10.02,0.13,-0.25,0.1,-0.01,1.0,r
2935.0,2974.0,3005.0,3853.0,4095.0,4095.0,3313.0,3573.0,0.85,10.01,0.62,-0.18,0.06,0.0,1.0,r
2928.0,2959.0,3003.0,3859.0,4095.0,4095.0,3309.0,3565.0,0.88,10.07,0.62,-0.12,-0.03,-0.06,1.0,r
2943.0,2971.0,2996.0,3866.0,4095.0,4095.0,3312.0,3567.0,0.64,9.97,0.7,-0.04,0.0,-0.07,1.0,r
2932.0,2971.0,3007.0,3866.0,4095.0,4095.0,3317.0,3568.0,0.96,10.12,-0.13,-0.09,0.25,-0.06,1.0,r
2931.0,2973.0,2993.0,3861.0,4095.0,4095.0,3310.0,3559.0,0.87,10.35,-1.0,-0.17,0.64,-0.14,1.0,r
2933.0,2973.0,3008.0,3863.0,4095.0,4095.0,3306.0,3563.0,0.2,9.99,-0.3,-0.35,0.1,-0.05,1.0,r
2943.0,2970.0,3005.0,3872.0,4095.0,4095.0,3303.0,3562.0,0.27,9.98,0.74,-0.25,-0.08,-0.07,1.0,r
2941.0,2976.0,3016.0,3879.0,4095.0,4095.0,3315.0,3568.0,0.19,10.02,1.17,-0.36,0.12,0.0,1.0,r
2938.0,2969.0,3001.0,3857.0,4095.0,4095.0,3311.0,3568.0,0.31,9.67,1.75,-0.24,0.03,0.09,1.0,r
2935.0,2967.0,3008.0,3875.0,4095.0,4095.0,3322.0,3571.0,0.93,10.1,1.17,-0.12,0.11,0.09,1.0,r
2929.0,2962.0,2995.0,3874.0,4095.0,4095.0,3312.0,3566.0,0.69,9.88,0.9,-0.17,0.03,0.07,1.0,r
2929.0,2966.0,2999.0,3875.0,4095.0,4095.0,3317.0,3570.0,0.98,10.09,1.04,-0.14,-0.01,0.05,1.0,r
2932.0,2981.0,3008.0,3884.0,4095.0,4095.0,3321.0,3570.0,1.14,9.95,1.03,-0.11,0.02,0.03,1.0,r
2928.0,2977.0,3008.0,3869.0,4095.0,4095.0,3319.0,3568.0,1.21,10.12,0.97,-0.04,-0.03,-0.01,1.0,r
2945.0,2967.0,3001.0,3883.0,4095.0,4095.0,3318.0,3563.0,0.84,10.09,0.82,-0.08,0.02,-0.04,1.0,r
2937.0,2965.0,2991.0,3881.0,4095.0,4095.0,3312.0,3568.0,0.75,10.07,0.97,-0.13,-0.0,-0.06,1.0,r
2940.0,2970.0,3006.0,3879.0,4095.0,4095.0,3312.0,3568.0,0.89,9.96,1.22,-0.14,-0.0,-0.02,1.0,r
2931.0,2973.0,3008.0,3878.0,4095.0,4095.0,3317.0,3570.0,1.13,10.02,1.32,-0.07,-0.07,-0.03,1.0,r
2944.0,2965.0,3008.0,3843.0,4095.0,4095.0,3328.0,3583.0,-2.15,9.6,2.07,-0.1,-0.03,0.09,1.0,r
2931.0,2963.0,3008.0,3830.0,4095.0,4095.0,3323.0,3583.0,-2.16,9.53,2.09,-0.11,-0.01,0.04,1.0,r
2931.0,2973.0,3008.0,3831.0,4095.0,4095.0,3329.0,3600.0,-2.34,9.45,2.12,-0.09,0.0,0.02,1.0,r
2933.0,2969.0,3006.0,3840.0,4095.0,4095.0,3331.0,3583.0,-2.28,9.56,2.13,-0.07,-0.05,0.0,1.0,r
2921.0,2970.0,2995.0,3836.0,4095.0,4095.0,3323.0,3583.0,-2.22,9.54,2.2,-0.07,-0.02,0.01,1.0,r
2934.0,2971.0,3002.0,3831.0,4095.0,4095.0,3329.0,3599.0,-2.09,9.5,2.07,-0.04,0.02,-0.03,1.0,r
2935.0,2967.0,3005.0,3824.0,4095.0,4095.0,3327.0,3599.0,-2.1,9.43,2.26,-0.04,-0.05,-0.04,1.0,r
2934.0,2967.0,2999.0,3800.0,4095.0,4095.0,3333.0,3597.0,-2.26,9.62,2.17,-0.07,-0.02,-0.04,1.0,r
2941.0,2983.0,3008.0,3815.0,4095.0,4095.0,3325.0,3583.0,-2.32,9.45,2.23,0.01,0.01,-0.08,1.0,r
2946.0,2973.0,3005.0,3811.0,4095.0,4095.0,3319.0,3583.0,-2.55,9.43,2.0,-0.03,0.04,-0.06,1.0,r
2937.0,2981.0,3008.0,3819.0,4095.0,4095.0,3318.0,3583.0,-2.44,9.57,1.85,-0.07,0.02,-0.05,1.0,r
2931.0,2969.0,3011.0,3824.0,4095.0,4095.0,3329.0,3583.0,-2.36,9.57,1.88,-0.06,0.03,-0.02,1.0,r
2940.0,2966.0,3004.0,3810.0,4095.0,4095.0,3330.0,3601.0,-2.28,9.5,2.02,-0.06,0.0,-0.05,1.0,r
2941.0,2965.0,3003.0,3815.0,4095.0,4095.0,3327.0,3580.0,-2.56,9.51,2.03,-0.06,0.07,-0.05,1.0,r
2933.0,2964.0,3004.0,3810.0,4095.0,4095.0,3331.0,3583.0,-2.52,9.51,2.07,-0.09,-0.04,0.0,1.0,r
2930.0,2960.0,3006.0,3819.0,4095.0,4095.0,3328.0,3600.0,-2.28,9.58,1.99,-0.06,0.02,0.01,1.0,r
2928.0,2965.0,3008.0,3825.0,4095.0,4095.0,3332.0,3600.0,-2.27,9.5,2.05,-0.08,0.02,-0.01,1.0,r
2942.0,2961.0,3008.0,3827.0,4095.0,4095.0,3326.0,3583.0,-2.19,9.55,2.0,-0.1,0.03,-0.01,1.0,r
2946.0,2978.0,3006.0,3827.0,4095.0,4095.0,3327.0,3583.0,-2.1,9.53,2.19,-0.1,-0.04,-0.02,1.0,r
2942.0,2975.0,3009.0,3824.0,4095.0,4095.0,3328.0,3598.0,-2.05,9.58,2.11,-0.07,0.0,-0.03,1.0,r
2933.0,2966.0,3010.0,3739.0,4095.0,4095.0,3335.0,3623.0,-4.38,7.4,4.52,0.01,0.01,-0.12,1.0,r
2943.0,2965.0,3003.0,3735.0,4095.0,4095.0,3329.0,3615.0,-5.04,7.2,4.37,-0.01,0.11,-0.15,1.0,r
2942.0,2982.0,3008.0,3739.0,4095.0,4095.0,3323.0,3607.0,-5.53,7.33,4.34,-0.04,0.03,-0.09,1.0,r
2933.0,2967.0,3008.0,3743.0,4095.0,4095.0,3334.0,3621.0,-5.41,7.31,4.39,-0.07,-0.02,-0.01,1.0,r
2939.0,2971.0,2999.0,3744.0,4095.0,4095.0,3329.0,3612.0,-5.08,7.35,4.33,-0.08,-0.03,0.03,1.0,r
2933.0,2970.0,3003.0,3744.0,4095.0,4095.0,3337.0,3621.0,-4.91,7.41,4.22,-0.15,-0.06,0.04,1.0,r
2942.0,2967.0,3005.0,3759.0,4095.0,4095.0,3328.0,3617.0,-4.83,7.3,4.52,-0.14,-0.09,0.01,1.0,r
2928.0,2969.0,3001.0,3749.0,4095.0,4095.0,3331.0,3609.0,-4.77,7.27,4.69,-0.11,0.01,-0.0,1.0,r
2935.0,2966.0,2999.0,3754.0,4095.0,4095.0,3331.0,3617.0,-4.82,7.32,4.75,-0.11,0.0,0.0,1.0,r
2941.0,2965.0,3006.0,3765.0,4095.0,4095.0,3328.0,3604.0,-4.83,7.28,4.78,-0.08,-0.0,0.0,1.0,r
2939.0,2975.0,3009.0,3761.0,4095.0,4095.0,3333.0,3611.0,-4.87,7.24,4.72,-0.09,-0.09,-0.01,1.0,r
2939.0,2974.0,3002.0,3766.0,4095.0,4095.0,3328.0,3611.0,-4.75,7.32,4.73,-0.08,-0.11,-0.03,1.0,r
2942.0,2975.0,2998.0,3764.0,4095.0,4095.0,3331.0,3607.0,-4.65,7.36,4.83,-0.1,-0.08,-0.01,1.0,r
2942.0,2970.0,3006.0,3759.0,4095.0,4095.0,3329.0,3620.0,-4.61,7.35,4.89,-0.09,-0.04,-0.0,1.0,r
2945.0,2982.0,3008.0,3763.0,4095.0,4095.0,3337.0,3627.0,-4.67,7.33,4.71,-0.09,0.03,-0.01,1.0,r
2941.0,2973.0,3014.0,3775.0,4095.0,4095.0,3335.0,3622.0,-4.7,7.33,4.84,-0.11,-0.01,-0.01,1.0,r
2938.0,2979.0,3008.0,3766.0,4095.0,4095.0,3328.0,3617.0,-4.64,7.3,4.85,-0.12,-0.02,-0.01,1.0,r
2938.0,2965.0,2995.0,3758.0,4095.0,4095.0,3328.0,3615.0,-4.72,7.22,4.99,-0.1,-0.02,-0.01,1.0,r
2941.0,2971.0,3008.0,3767.0,4095.0,4095.0,3335.0,3623.0,-4.75,7.25,5.1,-0.08,-0.01,-0.0,1.0,r
2931.0,2973.0,3005.0,3770.0,4095.0,4095.0,3334.0,3630.0,-4.58,7.28,5.07,-0.05,-0.02,-0.01,1.0,r
2928.0,2961.0,2995.0,3822.0,4095.0,4095.0,3345.0,3619.0,0.96,8.52,5.14,-0.08,-0.01,-0.1,1.0,r
2933.0,2967.0,3007.0,3821.0,4095.0,4095.0,3346.0,3625.0,0.67,9.0,4.85,-0.19,-0.03,-0.04,1.0,r
2921.0,2971.0,2998.0,3839.0,4095.0,4095.0,3341.0,3613.0,0.82,8.69,5.22,-0.02,0.08,-0.07,1.0,r
2923.0,2970.0,3010.0,3826.0,4095.0,4095.0,3345.0,3623.0,0.69,8.87,5.01,-0.18,-0.06,-0.03,1.0,r
2938.0,2961.0,3007.0,3830.0,4095.0,4095.0,3346.0,3622.0,0.74,8.78,5.18,-0.03,0.03,-0.02,1.0,r
2928.0,2977.0,3010.0,3839.0,4095.0,4095.0,3343.0,3612.0,0.91,8.76,5.25,-0.08,-0.01,-0.01,1.0,r
2928.0,2962.0,2999.0,3824.0,4095.0,4095.0,3344.0,3619.0,1.0,8.53,5.61,0.31,0.23,-0.05,1.0,r
2930.0,2959.0,3001.0,3795.0,4095.0,4095.0,3344.0,3617.0,0.58,9.57,4.41,-0.1,0.02,-0.03,1.0,r
2929.0,2960.0,3003.0,3810.0,4095.0,4095.0,3346.0,3616.0,1.2,8.3,4.82,-0.03,-0.07,-0.06,1.0,r
2922.0,2965.0,2999.0,3808.0,4095.0,4095.0,3345.0,3622.0,1.03,9.05,4.69,-0.12,-0.02,-0.06,1.0,r
2928.0,2957.0,3009.0,3814.0,4095.0,4095.0,3344.0,3631.0,1.03,8.54,5.29,-0.05,-0.03,-0.09,1.0,r
2934.0,2963.0,2995.0,3811.0,4095.0,4095.0,3345.0,3626.0,0.62,9.06,5.15,-0.06,0.04,-0.06,1.0,r
2930.0,2966.0,2992.0,3809.0,4095.0,4095.0,3344.0,3623.0,0.62,8.85,5.14,0.01,0.01,-0.06,1.0,r
2929.0,2961.0,3004.0,3817.0,4095.0,4095.0,3344.0,3628.0,0.83,8.86,4.92,-0.11,-0.03,-0.04,1.0,r
2937.0,2965.0,3011.0,3822.0,4095.0,4095.0,3345.0,3631.0,0.91,9.09,4.79,-0.03,-0.03,-0.05,1.0,r
2938.0,2961.0,2998.0,3809.0,4095.0,4095.0,3342.0,3621.0,0.91,8.81,5.13,0.03,0.06,-0.08,1.0,r
2927.0,2969.0,3005.0,3803.0,4095.0,4095.0,3346.0,3632.0,0.65,9.12,4.84,-0.02,0.09,-0.03,1.0,r
2934.0,2971.0,3008.0,3805.0,4095.0,4095.0,3350.0,3632.0,0.81,8.85,4.81,-0.12,-0.06,-0.05,1.0,r
2939.0,2962.0,3007.0,3821.0,4095.0,4095.0,3347.0,3626.0,0.74,9.03,4.8,-0.09,0.02,-0.05,1.0,r
2930.0,2955.0,2995.0,3813.0,4095.0,4095.0,3344.0,3629.0,0.73,8.7,5.11,-0.12,-0.06,-0.04,1.0,r
2939.0,2968.0,2999.0,3451.0,4095.0,4095.0,3391.0,3637.0,2.61,8.88,4.42,-0.05,-0.03,-0.12,1.0,r
2931.0,2971.0,3005.0,3443.0,4095.0,4095.0,3397.0,3647.0,2.55,9.03,3.96,-0.06,0.11,-0.1,1.0,r
2939.0,2960.0,3003.0,3455.0,4095.0,4095.0,3401.0,3650.0,2.38,9.03,3.82,-0.04,0.03,-0.07,1.0,r
2941.0,2962.0,2998.0,3462.0,4095.0,4095.0,3399.0,3639.0,2.55,8.89,4.25,-0.11,-0.02,-0.03,1.0,r
2930.0,2977.0,3017.0,3461.0,4095.0,4095.0,3402.0,3653.0,2.45,8.77,4.62,-0.11,-0.02,-0.01,1.0,r
2930.0,2969.0,3002.0,3457.0,4095.0,4095.0,3392.0,3645.0,2.69,8.88,4.62,-0.06,-0.04,-0.01,1.0,r
2939.0,2960.0,3012.0,3463.0,4095.0,4095.0,3390.0,3641.0,2.72,9.03,4.27,-0.03,-0.01,-0.05,1.0,r
2935.0,2971.0,3011.0,3473.0,4095.0,4095.0,3394.0,3638.0,2.71,8.93,4.13,-0.05,-0.02,-0.08,1.0,r
2933.0,2968.0,3011.0,3486.0,4095.0,4095.0,3387.0,3633.0,2.75,8.95,4.16,-0.03,-0.04,-0.06,1.0,r
2943.0,2961.0,2998.0,3471.0,4095.0,4095.0,3395.0,3645.0,2.72,8.99,3.97,-0.07,0.01,-0.06,1.0,r
2937.0,2965.0,2999.0,3486.0,4095.0,4095.0,3395.0,3639.0,2.51,8.98,4.13,-0.07,-0.04,-0.07,1.0,r
2928.0,2962.0,3007.0,3478.0,4095.0,4095.0,3391.0,3637.0,2.41,8.95,4.2,-0.1,0.0,-0.05,1.0,r
2943.0,2960.0,3002.0,3477.0,4095.0,4095.0,3392.0,3653.0,2.51,8.86,4.35,-0.08,-0.02,-0.01,1.0,r
2935.0,2967.0,2999.0,3477.0,4095.0,4095.0,3393.0,3645.0,2.63,8.95,4.35,-0.07,-0.0,0.01,1.0,r
2938.0,2972.0,3001.0,3473.0,4095.0,4095.0,3391.0,3647.0,2.57,8.85,4.42,-0.12,-0.04,-0.02,1.0,r
2931.0,2961.0,2997.0,3489.0,4095.0,4095.0,3381.0,3646.0,2.74,8.92,4.44,-0.08,-0.06,-0.04,1.0,r
2938.0,2966.0,3006.0,3511.0,4095.0,4095.0,3354.0,3626.0,2.65,8.83,4.45,-0.09,-0.05,-0.03,1.0,r
2926.0,2974.0,2998.0,3525.0,4095.0,4095.0,3346.0,3627.0,2.79,8.91,4.4,-0.04,-0.05,-0.05,1.0,r
2929.0,2963.0,3005.0,3564.0,4095.0,4095.0,3331.0,3617.0,2.68,8.88,4.25,-0.04,-0.01,-0.06,1.0,r
2928.0,2959.0,3005.0,3581.0,4095.0,4095.0,3327.0,3614.0,2.7,8.88,4.29,-0.07,-0.02,-0.05,1.0,r
2938.0,2963.0,3003.0,3615.0,4095.0,4095.0,3323.0,3479.0,1.04,10.08,0.64,-0.1,-0.0,-0.07,1.0,r
2943.0,2961.0,2993.0,3600.0,4095.0,4095.0,3322.0,3492.0,0.77,10.01,0.78,-0.12,0.0,-0.06,1.0,r
2933.0,2961.0,2998.0,3611.0,4095.0,4095.0,3328.0,3488.0,0.55,9.98,0.79,-0.11,0.05,-0.04,1.0,r
2941.0,2962.0,3005.0,3614.0,4095.0,4095.0,3327.0,3487.0,0.6,9.95,0.89,-0.12,0.02,0.01,1.0,r
2937.0,2976.0,3008.0,3619.0,4095.0,4095.0,3329.0,3490.0,1.1,9.93,1.13,-0.11,0.02,0.04,1.0,r
2930.0,2963.0,2987.0,3609.0,4095.0,4095.0,3319.0,3483.0,1.36,10.07,1.14,-0.11,-0.09,-0.0,1.0,r
2928.0,2959.0,3003.0,3611.0,4095.0,4095.0,3325.0,3487.0,1.36,10.07,0.89,-0.08,0.04,-0.06,1.0,r
2944.0,2977.0,2997.0,3618.0,4095.0,4095.0,3328.0,3495.0,0.81,9.97,0.85,-0.08,0.02,-0.08,1.0,r
2945.0,2971.0,3008.0,3631.0,4095.0,4095.0,3325.0,3485.0,0.72,10.02,0.98,-0.08,0.02,-0.06,1.0,r
2951.0,2970.0,3009.0,3625.0,4095.0,4095.0,3323.0,3490.0,0.74,9.94,1.18,-0.06,-0.0,-0.01,1.0,r
2939.0,2962.0,2993.0,3613.0,4095.0,4095.0,3325.0,3489.0,0.91,9.99,1.13,-0.07,0.01,0.03,1.0,r
2928.0,2967.0,2999.0,3622.0,4095.0,4095.0,3323.0,3481.0,1.06,10.03,1.01,-0.05,-0.02,0.02,1.0,r
2939.0,2969.0,2993.0,3626.0,4095.0,4095.0,3322.0,3476.0,1.3,9.99,0.87,-0.05,-0.0,-0.0,1.0,r
2931.0,2959.0,2995.0,3626.0,4095.0,4095.0,3328.0,3485.0,1.22,10.05,0.67,-0.11,0.02,-0.01,1.0,r
2931.0,2953.0,2999.0,3631.0,4095.0,4095.0,3328.0,3477.0,1.06,10.02,0.89,-0.12,0.02,-0.04,1.0,r
2939.0,2954.0,3008.0,3627.0,4095.0,4095.0,3326.0,3487.0,1.19,10.01,1.13,-0.15,-0.0,-0.02,1.0,r
2944.0,2961.0,2997.0,3625.0,4095.0,4095.0,3323.0,3488.0,1.19,10.0,1.19,-0.15,-0.0,-0.04,1.0,r
2935.0,2970.0,2992.0,3621.0,4095.0,4095.0,3328.0,3485.0,1.03,10.02,1.22,-0.12,-0.0,-0.04,1.0,r
2944.0,2961.0,3002.0,3635.0,4095.0,4095.0,3333.0,3485.0,1.14,9.96,1.34,-0.11,-0.06,-0.04,1.0,r
2929.0,2983.0,2996.0,3615.0,4095.0,4095.0,3333.0,3495.0,1.12,10.01,1.31,-0.1,-0.02,-0.04,1.0,r
2939.0,2967.0,3006.0,3755.0,4095.0,4095.0,3335.0,3568.0,-4.56,7.87,4.07,-0.09,0.0,-0.01,1.0,r
2941.0,2974.0,3007.0,3764.0,4095.0,4095.0,3337.0,3575.0,-4.5,7.84,4.1,-0.08,-0.02,-0.01,1.0,r
2928.0,2976.0,3008.0,3759.0,4095.0,4095.0,3329.0,3571.0,-4.41,7.92,4.16,-0.07,-0.02,-0.01,1.0,r
2943.0,2960.0,2997.0,3748.0,4095.0,4095.0,3327.0,3573.0,-4.37,7.88,4.17,-0.05,0.01,-0.02,1.0,r
2945.0,2972.0,3006.0,3773.0,4095.0,4095.0,3334.0,3573.0,-4.52,7.9,4.07,-0.06,0.01,-0.02,1.0,r
2944.0,2977.0,3002.0,3762.0,4095.0,4095.0,3328.0,3568.0,-4.4,7.89,4.02,-0.05,-0.01,-0.04,1.0,r
2941.0,2960.0,3009.0,3760.0,4095.0,4095.0,3343.0,3580.0,-4.41,7.87,4.07,-0.05,0.01,-0.04,1.0,r
2949.0,2970.0,3006.0,3766.0,4095.0,4095.0,3335.0,3578.0,-4.53,7.91,4.0,-0.08,-0.01,-0.03,1.0,r
2945.0,2973.0,3003.0,3760.0,4095.0,4095.0,3342.0,3580.0,-4.47,7.87,4.08,-0.06,-0.0,-0.04,1.0,r
2943.0,2967.0,2998.0,3749.0,4095.0,4095.0,3341.0,3580.0,-4.55,7.92,4.08,-0.07,0.0,-0.02,1.0,r
2937.0,2960.0,2997.0,3759.0,4095.0,4095.0,3329.0,3573.0,-4.47,7.88,4.06,-0.06,-0.01,-0.02,1.0,r
2941.0,2967.0,3005.0,3754.0,4095.0,4095.0,3331.0,3577.0,-4.39,7.94,4.09,-0.05,-0.01,-0.03,1.0,r
2930.0,2959.0,3003.0,3763.0,4095.0,4095.0,3329.0,3568.0,-4.43,7.9,4.17,-0.05,0.03,-0.03,1.0,r
2933.0,2960.0,3003.0,3759.0,4095.0,4095.0,3327.0,3568.0,-4.36,7.91,4.07,-0.04,0.0,-0.05,1.0,r
2941.0,2975.0,3001.0,3760.0,4095.0,4095.0,3337.0,3583.0,-4.43,7.94,3.97,-0.06,0.01,-0.05,1.0,r
2943.0,2967.0,3006.0,3751.0,4095.0,4095.0,3335.0,3571.0,-4.44,7.92,4.0,-0.07,-0.0,-0.04,1.0,r
2938.0,2960.0,2995.0,3761.0,4095.0,4095.0,3330.0,3567.0,-4.48,7.89,4.06,-0.06,-0.0,-0.04,1.0,r
2942.0,2975.0,3008.0,3759.0,4095.0,4095.0,3335.0,3574.0,-4.5,7.94,3.96,-0.04,-0.0,-0.04,1.0,r
2932.0,2967.0,3006.0,3760.0,4095.0,4095.0,3342.0,3580.0,-4.53,7.93,3.95,-0.07,0.0,-0.03,1.0,r
2945.0,2967.0,3003.0,3767.0,4095.0,4095.0,3330.0,3569.0,-4.46,7.92,4.07,-0.09,-0.01,-0.02,1.0,r
2934.0,2970.0,2999.0,3578.0,4095.0,4095.0,3326.0,3583.0,1.82,9.29,3.68,-0.11,-0.02,-0.05,1.0,r
2939.0,2961.0,3007.0,3583.0,4095.0,4095.0,3333.0,3583.0,1.57,9.41,3.6,-0.07,0.03,-0.07,1.0,r
2938.0,2962.0,2995.0,3637.0,4095.0,4095.0,3333.0,3579.0,1.45,9.38,3.64,-0.05,-0.01,-0.07,1.0,r
2943.0,2972.0,3002.0,3652.0,4095.0,4095.0,3335.0,3583.0,1.49,9.38,3.58,-0.07,-0.0,-0.05,1.0,r
2943.0,2962.0,3002.0,3664.0,4095.0,4095.0,3342.0,3583.0,1.55,9.34,3.65,-0.06,0.0,-0.03,1.0,r
2943.0,2961.0,3006.0,3672.0,4095.0,4095.0,3341.0,3583.0,1.65,9.4,3.67,-0.07,-0.02,-0.03,1.0,r
2940.0,2968.0,3003.0,3670.0,4095.0,4095.0,3343.0,3583.0,1.71,9.42,3.73,-0.06,-0.03,-0.03,1.0,r
2941.0,2965.0,3007.0,3679.0,4095.0,4095.0,3337.0,3583.0,1.75,9.46,3.72,-0.02,-0.0,-0.07,1.0,r
2935.0,2971.0,3008.0,3677.0,4095.0,4095.0,3342.0,3598.0,1.66,9.43,3.56,-0.02,-0.02,-0.08,1.0,r
2938.0,2973.0,2998.0,3669.0,4095.0,4095.0,3342.0,3583.0,1.54,9.39,3.51,-0.02,0.0,-0.08,1.0,r
2944.0,2966.0,3007.0,3684.0,4095.0,4095.0,3329.0,3580.0,1.54,9.37,3.55,-0.02,-0.0,-0.08,1.0,r
2944.0,2971.0,2995.0,3679.0,4095.0,4095.0,3339.0,3599.0,1.54,9.4,3.46,-0.04,-0.0,-0.07,1.0,r
2946.0,2967.0,3004.0,3691.0,4095.0,4095.0,3332.0,3583.0,1.43,9.41,3.34,-0.06,-0.02,-0.04,1.0,r
2928.0,2963.0,3010.0,3691.0,4095.0,4095.0,3343.0,3583.0,1.49,9.5,3.44,-0.05,-0.0,-0.05,1.0,r
2937.0,2962.0,2999.0,3683.0,4095.0,4095.0,3333.0,3583.0,1.6,9.45,3.48,-0.08,0.01,-0.04,1.0,r
2938.0,2972.0,2999.0,3695.0,4095.0,4095.0,3330.0,3579.0,1.47,9.33,3.64,-0.1,0.01,-0.03,1.0,r
2928.0,2967.0,3006.0,3677.0,4095.0,4095.0,3335.0,3583.0,1.53,9.37,3.76,-0.06,0.02,-0.04,1.0,r
2944.0,2965.0,3000.0,3683.0,4095.0,4095.0,3342.0,3583.0,1.43,9.36,3.57,-0.05,0.01,-0.03,1.0,r
2937.0,2965.0,3001.0,3691.0,4095.0,4095.0,3344.0,3583.0,1.6,9.42,3.65,-0.04,-0.0,-0.05,1.0,r
2934.0,2970.0,3006.0,3689.0,4095.0,4095.0,3342.0,3574.0,1.49,9.41,3.5,-0.05,-0.0,-0.04,1.0,r
2953.0,2980.0,3008.0,3771.0,4095.0,4095.0,3379.0,3670.0,2.25,8.7,4.88,-0.07,-0.01,0.0,1.0,r
2949.0,2987.0,2994.0,3771.0,4095.0,4095.0,3369.0,3662.0,2.42,8.71,5.0,-0.07,-0.02,-0.01,1.0,r
2933.0,2978.0,2997.0,3765.0,4095.0,4095.0,3371.0,3666.0,2.47,8.7,4.95,-0.07,-0.02,-0.04,1.0,r
2942.0,2975.0,2993.0,3767.0,4095.0,4095.0,3375.0,3664.0,2.33,8.67,4.98,-0.06,-0.01,-0.06,1.0,r
2953.0,2981.0,3007.0,3780.0,4095.0,4095.0,3366.0,3657.0,2.21,8.68,4.87,-0.08,0.0,-0.06,1.0,r
2951.0,2969.0,3009.0,3775.0,4095.0,4095.0,3376.0,3664.0,2.21,8.72,5.0,-0.05,-0.01,-0.06,1.0,r
2954.0,2979.0,3005.0,3763.0,4095.0,4095.0,3376.0,3664.0,2.32,8.69,5.05,-0.03,0.01,-0.05,1.0,r
2945.0,2972.0,3008.0,3766.0,4095.0,4095.0,3376.0,3665.0,2.33,8.68,4.95,-0.03,0.0,-0.07,1.0,r
2950.0,2985.0,3011.0,3785.0,4095.0,4095.0,3375.0,3658.0,2.26,8.71,4.88,-0.03,-0.01,-0.08,1.0,r
2944.0,2975.0,3007.0,3780.0,4095.0,4095.0,3366.0,3659.0,2.09,8.71,4.9,-0.05,0.0,-0.09,1.0,r
2943.0,2976.0,3009.0,3770.0,4095.0,4095.0,3369.0,3659.0,2.07,8.68,4.91,-0.03,-0.02,-0.1,1.0,r
2943.0,2975.0,2997.0,3785.0,4095.0,4095.0,3378.0,3674.0,2.08,8.7,4.89,-0.05,-0.01,-0.08,1.0,r
2949.0,2972.0,2998.0,3779.0,4095.0,4095.0,3373.0,3663.0,2.15,8.73,4.83,-0.06,-0.02,-0.06,1.0,r
2944.0,2978.0,2997.0,3767.0,4095.0,4095.0,3376.0,3667.0,2.18,8.74,4.81,-0.09,-0.02,-0.06,1.0,r
2946.0,2977.0,2996.0,3770.0,4095.0,4095.0,3367.0,3664.0,2.11,8.72,4.84,-0.09,-0.01,-0.09,1.0,r
2949.0,2979.0,2999.0,3787.0,4095.0,4095.0,3366.0,3663.0,2.02,8.7,4.87,-0.08,-0.02,-0.07,1.0,r
2957.0,2967.0,2999.0,3762.0,4095.0,4095.0,3375.0,3664.0,2.03,8.76,4.86,-0.09,-0.02,-0.03,1.0,r
2949.0,2983.0,2999.0,3767.0,4095.0,4095.0,3370.0,3663.0,2.04,8.7,4.93,-0.1,-0.02,-0.01,1.0,r
2946.0,2975.0,3005.0,3771.0,4095.0,4095.0,3373.0,3665.0,2.19,8.73,5.04,-0.07,-0.0,-0.03,1.0,r
2951.0,2982.0,2995.0,3774.0,4095.0,4095.0,3366.0,3656.0,2.23,8.68,5.09,-0.07,0.01,-0.04,1.0,r
2944.0,2974.0,3002.0,3755.0,4095.0,4095.0,3378.0,3661.0,-0.07,10.1,-0.4,-0.11,0.02,0.02,1.0,r
2945.0,2973.0,2999.0,3757.0,4095.0,4095.0,3375.0,3664.0,-0.14,10.13,-0.25,-0.14,-0.0,-0.02,1.0,r
2944.0,2977.0,2998.0,3758.0,4095.0,4095.0,3377.0,3671.0,-0.15,9.98,0.17,-0.13,-0.05,-0.06,1.0,r
2959.0,2973.0,3007.0,3760.0,4095.0,4095.0,3375.0,3664.0,-0.28,10.06,0.22,-0.05,0.0,-0.09,1.0,r
2960.0,2979.0,3008.0,3762.0,4095.0,4095.0,3376.0,3661.0,-0.38,10.04,-0.02,-0.04,-0.05,-0.09,1.0,r
2948.0,2977.0,2997.0,3756.0,4095.0,4095.0,3376.0,3663.0,-0.22,10.09,-0.28,-0.02,-0.01,-0.11,1.0,r
2944.0,2975.0,3003.0,3747.0,4095.0,4095.0,3374.0,3663.0,-0.42,10.06,-0.32,-0.09,-0.0,-0.11,1.0,r
2949.0,2978.0,3007.0,3771.0,4095.0,4095.0,3377.0,3653.0,-0.65,10.1,-0.24,-0.09,0.01,-0.1,1.0,r
2949.0,2973.0,2994.0,3753.0,4095.0,4095.0,3375.0,3664.0,-0.71,9.93,-0.13,-0.11,0.0,-0.06,1.0,r
2959.0,2982.0,3009.0,3757.0,4095.0,4095.0,3378.0,3675.0,-0.72,10.03,-0.07,-0.09,0.03,-0.03,1.0,r
2947.0,2977.0,3005.0,3760.0,4095.0,4095.0,3376.0,3655.0,-0.54,10.02,0.02,-0.1,0.01,-0.01,1.0,r
2951.0,2964.0,2996.0,3752.0,4095.0,4095.0,3370.0,3654.0,-0.44,10.03,0.05,-0.09,0.01,-0.0,1.0,r
2954.0,2979.0,3004.0,3749.0,4095.0,4095.0,3377.0,3664.0,-0.41,10.0,0.04,-0.07,0.02,-0.02,1.0,r
2955.0,2972.0,3005.0,3760.0,4095.0,4095.0,3379.0,3666.0,-0.4,10.04,-0.0,-0.07,0.0,-0.02,1.0,r
2935.0,2980.0,3002.0,3750.0,4095.0,4095.0,3376.0,3662.0,-0.29,10.06,-0.05,-0.08,-0.01,-0.02,1.0,r
2951.0,2970.0,2999.0,3737.0,4095.0,4095.0,3376.0,3662.0,-0.38,10.03,-0.01,-0.07,0.0,-0.04,1.0,r
2960.0,2986.0,3002.0,3760.0,4095.0,4095.0,3371.0,3654.0,-0.38,10.01,0.02,-0.08,-0.01,-0.05,1.0,r
2947.0,2979.0,3001.0,3758.0,4095.0,4095.0,3374.0,3650.0,-0.38,10.08,-0.02,-0.09,-0.03,-0.05,1.0,r
2944.0,2978.0,3003.0,3749.0,4095.0,4095.0,3375.0,3661.0,-0.2,10.09,-0.07,-0.11,-0.07,-0.06,1.0,r
2954.0,2971.0,3003.0,3752.0,4095.0,4095.0,3369.0,3662.0,-0.44,10.14,-0.17,-0.16,-0.08,-0.07,1.0,r
2955.0,2981.0,2993.0,3763.0,4095.0,4095.0,3366.0,3657.0,-4.54,7.76,3.4,-0.07,0.03,0.04,1.0,r
2951.0,2978.0,3007.0,3742.0,4095.0,4095.0,3370.0,3664.0,-4.9,8.08,3.28,-0.08,-0.01,-0.01,1.0,r
2949.0,2974.0,2998.0,3760.0,4095.0,4095.0,3373.0,3662.0,-4.84,7.74,3.48,-0.09,-0.05,-0.03,1.0,r
2960.0,2977.0,3009.0,3769.0,4095.0,4095.0,3369.0,3649.0,-4.93,7.89,3.44,-0.05,0.01,-0.04,1.0,r
2959.0,2975.0,2990.0,3763.0,4095.0,4095.0,3365.0,3653.0,-5.0,7.86,3.33,-0.04,0.01,-0.04,1.0,r
2947.0,2977.0,2999.0,3760.0,4095.0,4095.0,3365.0,3653.0,-4.99,7.91,3.23,-0.04,0.02,-0.05,1.0,r
2948.0,2980.0,3003.0,3762.0,4095.0,4095.0,3375.0,3648.0,-5.11,7.89,3.16,-0.07,0.02,-0.03,1.0,r
2954.0,2986.0,2997.0,3763.0,4095.0,4095.0,3369.0,3663.0,-5.09,7.91,3.24,-0.07,-0.01,-0.01,1.0,r
2960.0,2971.0,2999.0,3753.0,4095.0,4095.0,3374.0,3655.0,-5.11,7.89,3.19,-0.08,0.04,0.01,1.0,r
2945.0,2974.0,3008.0,3756.0,4095.0,4095.0,3376.0,3664.0,-5.03,7.92,3.37,-0.07,-0.01,0.0,1.0,r
2947.0,2981.0,3008.0,3770.0,4095.0,4095.0,3376.0,3665.0,-4.86,7.92,3.39,-0.05,0.0,-0.02,1.0,r
2960.0,2983.0,3010.0,3762.0,4095.0,4095.0,3367.0,3648.0,-4.85,7.94,3.38,-0.06,0.0,-0.02,1.0,r
2949.0,2973.0,3001.0,3761.0,4095.0,4095.0,3376.0,3664.0,-4.79,7.91,3.34,-0.05,0.01,-0.04,1.0,r
2947.0,2978.0,3003.0,3770.0,4095.0,4095.0,3370.0,3654.0,-4.84,7.92,3.38,-0.03,0.01,-0.06,1.0,r
2955.0,2979.0,3007.0,3765.0,4095.0,4095.0,3377.0,3664.0,-4.95,7.91,3.25,-0.05,0.02,-0.05,1.0,r
2938.0,2977.0,2997.0,3763.0,4095.0,4095.0,3367.0,3653.0,-4.98,7.84,3.26,-0.06,0.01,-0.03,1.0,r
2955.0,2979.0,3013.0,3770.0,4095.0,4095.0,3367.0,3653.0,-4.92,7.93,3.34,-0.04,0.02,-0.02,1.0,r
2955.0,2974.0,3005.0,3760.0,4095.0,4095.0,3376.0,3664.0,-4.99,8.0,3.14,-0.04,0.0,-0.03,1.0,r
2940.0,2981.0,2998.0,3753.0,4095.0,4095.0,3376.0,3666.0,-4.96,7.93,3.15,-0.08,-0.01,-0.03,1.0,r
2959.0,2991.0,3004.0,3756.0,4095.0,4095.0,3376.0,3655.0,-4.91,7.93,3.3,-0.07,-0.01,-0.04,1.0,r
2947.0,2978.0,3007.0,3806.0,4095.0,4095.0,3373.0,3665.0,-0.46,9.36,3.4,0.03,-0.06,-0.17,1.0,r
2946.0,2979.0,2995.0,3795.0,4095.0,4095.0,3369.0,3673.0,-0.22,9.5,3.4,0.01,-0.03,-0.12,1.0,r
2958.0,2971.0,3008.0,3809.0,4095.0,4095.0,3373.0,3667.0,-0.29,9.47,3.34,-0.03,0.0,-0.06,1.0,r
2939.0,2971.0,3003.0,3798.0,4095.0,4095.0,3373.0,3667.0,-0.14,9.57,3.23,-0.05,-0.01,-0.03,1.0,r
2944.0,2974.0,3005.0,3803.0,4095.0,4095.0,3366.0,3663.0,-0.03,9.52,3.44,-0.1,-0.01,0.0,1.0,r
2959.0,2976.0,2997.0,3808.0,4095.0,4095.0,3375.0,3657.0,0.22,9.48,3.73,-0.08,-0.01,-0.02,1.0,r
2955.0,2983.0,3004.0,3815.0,4095.0,4095.0,3367.0,3664.0,0.29,9.46,3.8,-0.07,-0.01,-0.04,1.0,r
2959.0,2982.0,2999.0,3806.0,4095.0,4095.0,3371.0,3663.0,0.22,9.47,3.67,-0.05,0.02,-0.12,1.0,r
2953.0,2981.0,3005.0,3811.0,4095.0,4095.0,3367.0,3664.0,-0.21,9.43,3.61,-0.09,0.01,-0.11,1.0,r
2950.0,2974.0,3007.0,3794.0,4095.0,4095.0,3371.0,3669.0,-0.02,9.5,3.62,-0.05,-0.02,-0.07,1.0,r
2956.0,2975.0,2997.0,3785.0,4095.0,4095.0,3376.0,3666.0,0.11,9.59,3.32,-0.07,-0.02,-0.1,1.0,r
2957.0,2982.0,3006.0,3798.0,4095.0,4095.0,3376.0,3662.0,-0.02,9.53,3.36,-0.1,-0.02,-0.12,1.0,r
2945.0,2971.0,2995.0,3791.0,4095.0,4095.0,3376.0,3663.0,-0.57,9.4,3.57,-0.14,-0.0,-0.04,1.0,r
2949.0,2966.0,3008.0,3795.0,4095.0,4095.0,3377.0,3664.0,-0.26,9.3,4.01,-0.12,-0.06,-0.01,1.0,r
2960.0,2981.0,3009.0,3798.0,4095.0,4095.0,3377.0,3658.0,0.01,9.43,4.02,-0.09,0.02,0.01,1.0,r
2954.0,2967.0,2998.0,3790.0,4095.0,4095.0,3373.0,3664.0,0.2,9.43,3.83,-0.05,-0.0,-0.02,1.0,r
2957.0,2977.0,2992.0,3802.0,4095.0,4095.0,3370.0,3655.0,0.17,9.51,3.64,-0.05,0.02,-0.06,1.0,r
2944.0,2975.0,3002.0,3802.0,4095.0,4095.0,3375.0,3654.0,0.08,9.47,3.67,-0.05,-0.01,-0.08,1.0,r
2945.0,2975.0,3007.0,3792.0,4095.0,4095.0,3368.0,3655.0,-0.07,9.46,3.64,-0.08,0.0,-0.07,1.0,r
2939.0,2973.0,3002.0,3803.0,4095.0,4095.0,3376.0,3665.0,-0.21,9.45,3.7,-0.06,0.0,-0.08,1.0,r
2943.0,2965.0,3002.0,3762.0,4095.0,4095.0,3290.0,3542.0,3.25,8.77,3.87,-0.07,-0.0,-0.03,1.0,r
2941.0,2969.0,3006.0,3771.0,4095.0,4095.0,3293.0,3545.0,3.44,8.8,4.13,-0.04,-0.04,-0.05,1.0,r
2942.0,2966.0,3004.0,3765.0,4095.0,4095.0,3299.0,3553.0,3.27,8.79,4.04,-0.12,0.02,-0.03,1.0,r
2939.0,2973.0,3003.0,3772.0,4095.0,4095.0,3295.0,3546.0,3.51,8.84,4.19,-0.01,-0.02,-0.08,1.0,r
2946.0,2967.0,3006.0,3775.0,4095.0,4095.0,3303.0,3553.0,3.29,8.79,4.01,-0.06,0.02,-0.06,1.0,r
2954.0,2977.0,3003.0,3777.0,4095.0,4095.0,3315.0,3570.0,3.6,8.61,4.36,0.06,0.05,-0.13,1.0,r
2947.0,2974.0,3010.0,3772.0,4095.0,4095.0,3314.0,3559.0,3.43,8.83,4.12,0.02,-0.0,-0.11,1.0,r
2935.0,2964.0,2998.0,3764.0,4095.0,4095.0,3313.0,3568.0,3.53,8.97,4.19,0.08,-0.0,-0.29,1.0,r
2944.0,2970.0,3005.0,3760.0,4095.0,4095.0,3316.0,3574.0,3.35,8.95,4.02,0.01,-0.12,-0.32,1.0,r
2944.0,2967.0,3008.0,3765.0,4095.0,4095.0,3319.0,3570.0,3.25,8.93,3.93,-0.07,-0.16,-0.37,1.0,r
2942.0,2971.0,3003.0,3774.0,4095.0,4095.0,3315.0,3558.0,3.08,8.97,3.96,0.01,-0.08,-0.42,1.0,r
2953.0,2960.0,3009.0,3775.0,4095.0,4095.0,3302.0,3557.0,2.82,9.15,3.81,0.03,0.07,-0.39,1.0,r
2943.0,2965.0,3009.0,3817.0,4095.0,4095.0,3281.0,3541.0,1.84,8.86,3.43,0.1,0.13,-0.3,1.0,r
2935.0,2966.0,3001.0,3888.0,4095.0,4095.0,3274.0,3530.0,1.56,9.32,3.25,0.06,-0.12,-0.26,1.0,r
2941.0,2961.0,3006.0,3935.0,4095.0,4095.0,3263.0,3519.0,2.06,9.11,3.6,-0.0,-0.09,-0.16,1.0,r
2937.0,2963.0,2999.0,3957.0,4095.0,4095.0,3269.0,3506.0,1.89,9.57,3.37,-0.01,-0.03,-0.15,1.0,r
2935.0,2960.0,3006.0,3954.0,4095.0,4095.0,3278.0,3518.0,2.06,9.33,3.65,0.04,-0.0,-0.15,1.0,r
2928.0,2962.0,3007.0,3954.0,4095.0,4095.0,3280.0,3519.0,2.0,9.27,3.6,-0.04,0.01,-0.11,1.0,r
2935.0,2960.0,3011.0,3957.0,4095.0,4095.0,3286.0,3523.0,2.09,9.33,3.57,-0.01,-0.02,-0.11,1.0,r
2934.0,2966.0,3009.0,3961.0,4095.0,4095.0,3289.0,3521.0,1.99,9.36,3.51,-0.07,0.04,-0.08,1.0,r
2935.0,2959.0,2999.0,3878.0,4095.0,4095.0,3314.0,3562.0,1.89,9.92,0.5,-0.08,0.09,-0.06,1.0,r
2928.0,2955.0,3008.0,3857.0,4095.0,4095.0,3315.0,3568.0,1.6,10.13,0.19,-0.09,0.12,-0.06,1.0,r
2935.0,2962.0,2993.0,3833.0,4095.0,4095.0,3305.0,3558.0,1.27,9.98,0.36,-0.16,-0.04,-0.11,1.0,r
2938.0,2962.0,2996.0,3826.0,4095.0,4095.0,3311.0,3567.0,1.47,9.98,0.58,-0.14,-0.04,-0.08,1.0,r
2926.0,2959.0,2993.0,3840.0,4095.0,4095.0,3315.0,3567.0,1.44,9.88,0.69,-0.08,-0.05,-0.06,1.0,r
2939.0,2975.0,3008.0,3842.0,4095.0,4095.0,3314.0,3566.0,1.36,9.96,0.48,-0.07,0.05,-0.05,1.0,r
2928.0,2964.0,3008.0,3846.0,4095.0,4095.0,3311.0,3557.0,1.36,10.02,0.38,-0.06,-0.02,-0.02,1.0,r
2935.0,2965.0,2992.0,3837.0,4095.0,4095.0,3311.0,3557.0,1.5,9.94,0.4,-0.09,-0.0,-0.01,1.0,r
2929.0,2961.0,3002.0,3827.0,4095.0,4095.0,3312.0,3563.0,1.51,9.98,0.45,-0.1,-0.02,-0.03,1.0,r
2928.0,2965.0,3001.0,3813.0,4095.0,4095.0,3312.0,3557.0,1.63,9.99,0.6,-0.09,-0.02,-0.03,1.0,r
2940.0,2960.0,3008.0,3824.0,4095.0,4095.0,3321.0,3569.0,1.59,9.94,0.63,-0.08,-0.03,-0.03,1.0,r
2930.0,2964.0,2994.0,3802.0,4095.0,4095.0,3319.0,3568.0,1.5,10.18,0.36,-0.16,-0.12,-0.04,1.0,r
2933.0,2963.0,2992.0,3788.0,4095.0,4095.0,3323.0,3570.0,1.55,9.8,0.68,-0.14,-0.13,0.01,1.0,r
2943.0,2967.0,3013.0,3809.0,4095.0,4095.0,3325.0,3575.0,1.79,10.08,0.79,0.0,-0.0,-0.05,1.0,r
2937.0,2962.0,3007.0,3814.0,4095.0,4095.0,3322.0,3567.0,1.69,9.92,0.72,-0.03,0.05,-0.06,1.0,r
2934.0,2973.0,2999.0,3792.0,4095.0,4095.0,3322.0,3568.0,1.53,9.99,0.41,-0.01,0.05,-0.06,1.0,r
2944.0,2977.0,3007.0,3794.0,4095.0,4095.0,3328.0,3578.0,1.5,10.05,0.39,-0.03,0.02,-0.07,1.0,r
2935.0,2960.0,3006.0,3789.0,4095.0,4095.0,3323.0,3566.0,1.58,10.02,0.5,-0.04,-0.05,-0.07,1.0,r
2929.0,2960.0,3001.0,3780.0,4095.0,4095.0,3327.0,3575.0,1.51,10.07,0.49,-0.07,-0.01,-0.06,1.0,r
2939.0,2973.0,3006.0,3787.0,4095.0,4095.0,3323.0,3570.0,1.38,10.05,0.37,-0.11,-0.06,-0.07,1.0,r
2946.0,2967.0,2996.0,3728.0,4095.0,4095.0,3349.0,3583.0,-3.6,9.12,1.75,-0.04,-0.05,-0.01,1.0,r
2942.0,2966.0,3009.0,3731.0,4095.0,4095.0,3345.0,3599.0,-3.6,9.07,1.79,-0.07,-0.04,-0.02,1.0,r
2933.0,2967.0,3007.0,3727.0,4095.0,4095.0,3348.0,3583.0,-3.73,9.1,1.86,-0.09,-0.03,-0.01,1.0,r
2936.0,2971.0,3002.0,3728.0,4095.0,4095.0,3343.0,3583.0,-3.61,9.1,1.95,-0.07,-0.03,-0.01,1.0,r
2943.0,2965.0,2992.0,3728.0,4095.0,4095.0,3340.0,3583.0,-3.58,9.06,1.85,-0.08,0.01,-0.01,1.0,r
2944.0,2977.0,3002.0,3729.0,4095.0,4095.0,3342.0,3583.0,-3.59,9.04,2.04,-0.06,0.02,-0.03,1.0,r
2933.0,2966.0,2993.0,3729.0,4095.0,4095.0,3342.0,3583.0,-3.69,9.05,1.98,-0.09,0.01,-0.0,1.0,r
2939.0,2964.0,2998.0,3728.0,4095.0,4095.0,3344.0,3583.0,-3.65,9.01,2.0,-0.07,0.0,-0.0,1.0,r
2934.0,2964.0,2994.0,3728.0,4095.0,4095.0,3346.0,3583.0,-3.71,9.15,1.9,-0.06,0.02,0.02,1.0,r
2946.0,2960.0,3009.0,3731.0,4095.0,4095.0,3344.0,3597.0,-3.62,9.05,1.8,-0.08,-0.01,0.06,1.0,r
2942.0,2974.0,3003.0,3741.0,4095.0,4095.0,3342.0,3583.0,-3.36,9.1,2.19,-0.05,-0.04,0.03,1.0,r
2928.0,2969.0,3002.0,3732.0,4095.0,4095.0,3344.0,3581.0,-3.25,9.15,2.19,-0.04,-0.01,0.03,1.0,r
2940.0,2975.0,3002.0,3746.0,4095.0,4095.0,3344.0,3583.0,-3.06,9.06,1.96,-0.02,-0.02,-0.08,1.0,r
2938.0,2973.0,3002.0,3739.0,4095.0,4095.0,3344.0,3599.0,-3.51,9.13,1.93,-0.05,0.06,-0.16,1.0,r
2933.0,2975.0,2998.0,3746.0,4095.0,4095.0,3344.0,3583.0,-3.99,9.0,2.21,-0.05,0.07,-0.09,1.0,r
2945.0,2979.0,3006.0,3745.0,4095.0,4095.0,3353.0,3598.0,-3.82,8.96,2.17,0.02,0.05,-0.02,1.0,r
2943.0,2967.0,2993.0,3743.0,4095.0,4095.0,3355.0,3600.0,-3.61,9.05,1.91,0.07,0.06,0.02,1.0,r
2940.0,2963.0,2996.0,3749.0,4095.0,4095.0,3345.0,3583.0,-3.33,9.16,1.52,0.04,0.06,-0.0,1.0,r
2939.0,2973.0,2995.0,3745.0,4095.0,4095.0,3345.0,3583.0,-3.24,9.27,1.59,0.01,0.01,-0.03,1.0,r
2942.0,2963.0,3002.0,3749.0,4095.0,4095.0,3343.0,3583.0,-3.22,9.25,1.49,-0.03,0.02,-0.07,1.0,r
2954.0,2960.0,3008.0,3766.0,4095.0,4095.0,3343.0,3583.0,-3.69,7.6,6.1,-0.16,-0.04,0.02,1.0,r
2943.0,2969.0,2993.0,3776.0,4095.0,4095.0,3343.0,3583.0,-3.44,7.7,5.69,-0.1,-0.04,0.08,1.0,r
2950.0,2965.0,3013.0,3771.0,4095.0,4095.0,3346.0,3600.0,-3.16,7.72,5.58,-0.03,-0.03,0.05,1.0,r
2953.0,2974.0,3008.0,3776.0,4095.0,4095.0,3345.0,3583.0,-3.24,7.85,5.31,-0.05,-0.03,0.03,1.0,r
2943.0,2963.0,3010.0,3775.0,4095.0,4095.0,3347.0,3603.0,-3.28,7.9,5.17,0.0,0.01,0.01,1.0,r
2947.0,2974.0,3002.0,3778.0,4095.0,4095.0,3347.0,3604.0,-3.22,7.87,5.21,-0.04,-0.0,0.01,1.0,r
2944.0,2976.0,3007.0,3783.0,4095.0,4095.0,3344.0,3583.0,-3.23,7.95,5.1,-0.01,0.0,0.0,1.0,r
2941.0,2961.0,2999.0,3771.0,4095.0,4095.0,3344.0,3603.0,-3.46,7.89,5.22,-0.02,0.01,0.01,1.0,r
2951.0,2967.0,3015.0,3783.0,4095.0,4095.0,3348.0,3602.0,-3.37,7.96,5.18,-0.04,-0.03,0.05,1.0,r
2938.0,2961.0,2999.0,3773.0,4095.0,4095.0,3353.0,3606.0,-3.17,7.98,5.15,-0.01,-0.01,0.07,1.0,r
2941.0,2964.0,3009.0,3773.0,4095.0,4095.0,3344.0,3600.0,-3.1,7.97,5.08,-0.03,0.0,0.06,1.0,r
2942.0,2960.0,3003.0,3772.0,4095.0,4095.0,3347.0,3610.0,-2.89,8.03,5.2,-0.02,0.02,0.01,1.0,r
2938.0,2971.0,3003.0,3769.0,4095.0,4095.0,3345.0,3603.0,-2.95,8.21,5.14,-0.11,-0.03,-0.01,1.0,r
2940.0,2975.0,3007.0,3777.0,4095.0,4095.0,3351.0,3606.0,-2.88,7.98,5.22,-0.02,-0.02,-0.08,1.0,r
2938.0,2973.0,3008.0,3776.0,4095.0,4095.0,3345.0,3601.0,-3.11,7.99,4.99,-0.05,-0.04,-0.05,1.0,r
2943.0,2976.0,3007.0,3784.0,4095.0,4095.0,3349.0,3605.0,-3.12,8.07,5.07,0.02,0.03,-0.07,1.0,r
2935.0,2960.0,2996.0,3785.0,4095.0,4095.0,3344.0,3605.0,-3.16,8.01,5.01,-0.06,0.03,-0.04,1.0,r
2943.0,2968.0,2998.0,3766.0,4095.0,4095.0,3350.0,3613.0,-3.2,8.08,4.99,-0.04,0.01,-0.05,1.0,r
2942.0,2960.0,2994.0,3767.0,4095.0,4095.0,3347.0,3607.0,-3.18,8.01,5.09,-0.07,0.0,-0.03,1.0,r
2932.0,2973.0,3007.0,3777.0,4095.0,4095.0,3344.0,3602.0,-3.1,8.06,5.14,-0.05,-0.0,-0.04,1.0,r
2941.0,2959.0,3007.0,3525.0,4095.0,4095.0,3389.0,3634.0,1.64,9.77,2.89,-0.07,0.01,-0.07,1.0,r
2934.0,2966.0,3011.0,3547.0,4095.0,4095.0,3393.0,3631.0,1.46,9.49,3.04,-0.25,-0.11,-0.07,1.0,r
2941.0,2975.0,3005.0,3552.0,4095.0,4095.0,3378.0,3632.0,1.43,9.61,3.31,-0.05,0.01,-0.08,1.0,r
2935.0,2962.0,3009.0,3554.0,4095.0,4095.0,3387.0,3642.0,1.34,9.45,3.22,-0.1,-0.06,-0.05,1.0,r
2928.0,2966.0,3007.0,3562.0,4095.0,4095.0,3391.0,3629.0,1.65,9.7,3.33,-0.06,-0.07,-0.04,1.0,r
2940.0,2961.0,3002.0,3559.0,4095.0,4095.0,3390.0,3632.0,1.54,9.46,3.14,-0.04,0.05,-0.05,1.0,r
2944.0,2965.0,3009.0,3564.0,4095.0,4095.0,3387.0,3634.0,1.39,9.6,3.11,0.03,0.09,-0.04,1.0,r
2935.0,2956.0,3007.0,3563.0,4095.0,4095.0,3401.0,3641.0,1.41,9.73,2.86,-0.12,-0.04,-0.02,1.0,r
2929.0,2965.0,3007.0,3570.0,4095.0,4095.0,3392.0,3632.0,1.76,9.52,3.09,-0.12,-0.04,-0.04,1.0,r
2931.0,2958.0,3001.0,3568.0,4095.0,4095.0,3388.0,3627.0,1.58,9.5,3.24,-0.18,-0.02,-0.06,1.0,r
2932.0,2967.0,3003.0,3567.0,4095.0,4095.0,3387.0,3633.0,1.45,9.49,3.36,-0.12,-0.0,-0.06,1.0,r
2928.0,2966.0,3011.0,3579.0,4095.0,4095.0,3397.0,3642.0,1.28,9.45,3.35,-0.17,-0.02,-0.03,1.0,r
2932.0,2963.0,3002.0,3569.0,4095.0,4095.0,3388.0,3640.0,1.51,9.45,3.46,-0.1,-0.01,-0.03,1.0,r
2943.0,2970.0,3003.0,3577.0,4095.0,4095.0,3399.0,3634.0,1.51,9.53,3.26,-0.13,-0.02,-0.02,1.0,r
2928.0,2973.0,3003.0,3573.0,4095.0,4095.0,3398.0,3645.0,1.52,9.5,3.26,-0.12,0.01,-0.04,1.0,r
2939.0,2965.0,2998.0,3569.0,4095.0,4095.0,3393.0,3639.0,1.53,9.52,3.33,-0.15,-0.01,-0.05,1.0,r
2939.0,2970.0,3013.0,3583.0,4095.0,4095.0,3392.0,3632.0,1.61,9.47,3.52,-0.17,-0.03,-0.05,1.0,r
2928.0,2971.0,3002.0,3583.0,4095.0,4095.0,3402.0,3633.0,1.43,9.42,3.55,-0.15,0.05,-0.06,1.0,r
2930.0,2960.0,3003.0,3583.0,4095.0,4095.0,3392.0,3632.0,1.21,9.31,3.65,-0.16,-0.01,-0.04,1.0,r
2933.0,2959.0,3008.0,3570.0,4095.0,4095.0,3393.0,3643.0,0.48,9.31,4.13,-0.15,0.05,0.07,1.0,r
2934.0,2962.0,3007.0,3603.0,4095.0,4095.0,3394.0,3647.0,1.17,10.13,-0.5,-0.27,0.23,0.0,1.0,r
2944.0,2976.0,3005.0,3608.0,4095.0,4095.0,3398.0,3651.0,0.99,10.07,-0.32,-0.3,0.17,0.0,1.0,r
2939.0,2970.0,3003.0,3613.0,4095.0,4095.0,3386.0,3637.0,1.53,10.19,-0.04,-0.3,0.05,-0.06,1.0,r
2926.0,2969.0,2992.0,3603.0,4095.0,4095.0,3394.0,3638.0,1.61,10.12,0.4,-0.36,-0.05,-0.16,1.0,r
2935.0,2980.0,3001.0,3625.0,4095.0,4095.0,3394.0,3647.0,1.17,10.01,0.93,-0.28,-0.15,-0.23,1.0,r
2937.0,2970.0,3007.0,3621.0,4095.0,4095.0,3393.0,3641.0,0.67,9.97,0.83,-0.28,0.03,-0.25,1.0,r
2935.0,2961.0,3003.0,3605.0,4095.0,4095.0,3403.0,3651.0,0.1,9.88,0.79,-0.28,0.04,-0.14,1.0,r
2946.0,2963.0,3005.0,3606.0,4095.0,4095.0,3399.0,3658.0,0.31,9.94,0.94,-0.17,-0.01,-0.07,1.0,r
2934.0,2974.0,2995.0,3615.0,4095.0,4095.0,3398.0,3647.0,0.61,9.91,1.32,-0.12,-0.02,-0.02,1.0,r
2943.0,2965.0,3001.0,3614.0,4095.0,4095.0,3394.0,3649.0,0.85,9.97,1.41,-0.03,-0.05,-0.02,1.0,r
2944.0,2959.0,3000.0,3615.0,4095.0,4095.0,3397.0,3657.0,1.52,10.02,1.41,0.08,-0.2,-0.13,1.0,r
2935.0,2959.0,2992.0,3623.0,4095.0,4095.0,3399.0,3658.0,0.94,10.17,0.6,0.08,0.04,-0.22,1.0,r
2928.0,2961.0,2994.0,3619.0,4095.0,4095.0,3394.0,3651.0,0.23,10.04,0.35,-0.03,-0.01,-0.18,1.0,r
2931.0,2963.0,3002.0,3626.0,4095.0,4095.0,3398.0,3646.0,0.14,10.09,0.35,-0.01,-0.06,-0.14,1.0,r
2943.0,2971.0,3001.0,3630.0,4095.0,4095.0,3392.0,3644.0,0.07,10.07,0.1,-0.04,0.17,-0.04,1.0,r
2944.0,2969.0,2999.0,3629.0,4095.0,4095.0,3391.0,3645.0,0.17,10.06,0.04,-0.09,0.08,0.02,1.0,r
2935.0,2965.0,2997.0,3618.0,4095.0,4095.0,3399.0,3655.0,0.39,10.05,0.54,-0.14,-0.05,0.03,1.0,r
2945.0,2962.0,3004.0,3631.0,4095.0,4095.0,3395.0,3649.0,0.63,10.01,0.97,-0.13,-0.02,0.02,1.0,r
2941.0,2975.0,2997.0,3620.0,4095.0,4095.0,3392.0,3648.0,0.74,10.01,1.05,-0.13,0.05,0.03,1.0,r
2930.0,2977.0,3005.0,3631.0,4095.0,4095.0,3399.0,3651.0,0.89,10.06,0.93,-0.07,0.0,-0.01,1.0,r
2935.0,2978.0,3010.0,3754.0,4095.0,3978.0,3345.0,3600.0,-4.61,8.52,2.93,-0.08,0.02,0.08,1.0,r
2939.0,2971.0,3011.0,3759.0,4095.0,3988.0,3343.0,3605.0,-4.43,8.09,3.3,0.0,-0.0,0.04,1.0,r
2929.0,2979.0,2998.0,3757.0,4095.0,3999.0,3340.0,3602.0,-4.38,8.56,2.81,-0.11,0.01,0.06,1.0,r
2931.0,2967.0,2997.0,3762.0,4095.0,4000.0,3329.0,3599.0,-4.33,8.19,3.03,-0.08,-0.01,0.02,1.0,r
2937.0,2971.0,3008.0,3763.0,4095.0,4050.0,3299.0,3542.0,-4.39,8.65,2.81,-0.2,-0.07,0.02,1.0,r
2935.0,2978.0,3012.0,3760.0,4095.0,4064.0,3271.0,3515.0,-4.21,7.95,3.45,-0.29,-0.01,0.04,1.0,r
2947.0,2973.0,3003.0,3761.0,4095.0,4081.0,3279.0,3515.0,-4.4,8.4,3.29,-0.12,0.08,0.02,1.0,r
2939.0,2977.0,3008.0,3760.0,4095.0,4095.0,3290.0,3526.0,-4.35,8.16,3.32,-0.04,0.07,-0.02,1.0,r
2935.0,2987.0,3009.0,3765.0,4095.0,4095.0,3298.0,3533.0,-4.41,8.47,3.24,-0.05,0.01,0.0,1.0,r
2947.0,2970.0,3008.0,3738.0,4095.0,4095.0,3296.0,3530.0,-4.35,8.27,3.34,-0.03,0.01,-0.01,1.0,r
2939.0,2977.0,3007.0,3750.0,4095.0,4095.0,3302.0,3535.0,-4.34,8.26,3.26,-0.03,0.02,-0.0,1.0,r
2938.0,2974.0,3007.0,3737.0,4095.0,4095.0,3299.0,3530.0,-4.4,8.34,3.21,-0.04,-0.01,-0.01,1.0,r
2932.0,2973.0,3008.0,3735.0,4095.0,4095.0,3294.0,3527.0,-4.32,8.39,3.14,-0.08,-0.03,0.0,1.0,r
2933.0,2963.0,3006.0,3730.0,4095.0,4095.0,3295.0,3529.0,-4.25,8.38,3.25,-0.04,-0.04,-0.01,1.0,r
2935.0,2979.0,3008.0,3737.0,4095.0,4095.0,3310.0,3539.0,-4.28,8.38,3.24,-0.02,0.01,-0.01,1.0,r
2935.0,2979.0,3006.0,3728.0,4095.0,4095.0,3312.0,3536.0,-4.31,8.39,3.15,-0.03,-0.02,0.01,1.0,r
2943.0,2976.0,3015.0,3740.0,4095.0,4095.0,3312.0,3538.0,-4.25,8.42,3.2,-0.07,-0.02,0.04,1.0,r
2946.0,2975.0,3006.0,3739.0,4095.0,4095.0,3312.0,3530.0,-4.22,8.37,3.28,-0.06,-0.0,0.05,1.0,r
2934.0,2966.0,3002.0,3730.0,4095.0,4095.0,3312.0,3531.0,-4.24,8.44,3.15,-0.03,0.02,0.05,1.0,r
2942.0,2970.0,3006.0,3707.0,4095.0,4095.0,3311.0,3509.0,-4.41,8.44,3.21,-0.06,-0.02,0.09,1.0,r
2944.0,2972.0,3003.0,3773.0,4095.0,4095.0,3312.0,3472.0,1.33,9.39,3.81,-0.05,0.01,-0.2,1.0,r
2937.0,2970.0,3003.0,3771.0,4095.0,4095.0,3311.0,3469.0,1.17,9.31,3.73,-0.02,-0.1,-0.11,1.0,r
2941.0,2977.0,3003.0,3770.0,4095.0,4095.0,3317.0,3475.0,1.31,9.36,3.72,-0.02,-0.05,-0.07,1.0,r
2931.0,2971.0,2997.0,3760.0,4095.0,4095.0,3318.0,3483.0,1.59,9.29,3.79,-0.01,-0.01,-0.03,1.0,r
2946.0,2977.0,3003.0,3760.0,4095.0,4095.0,3317.0,3478.0,1.47,9.38,3.42,-0.04,0.07,-0.01,1.0,r
2935.0,2960.0,2999.0,3763.0,4095.0,4095.0,3327.0,3485.0,1.79,9.4,3.46,-0.05,-0.06,-0.02,1.0,r
2933.0,2973.0,3005.0,3761.0,4095.0,4095.0,3317.0,3483.0,1.62,9.48,3.46,-0.06,0.02,-0.04,1.0,r
2949.0,2975.0,3004.0,3763.0,4095.0,4095.0,3318.0,3472.0,1.39,9.41,3.6,-0.1,-0.03,-0.05,1.0,r
2937.0,2960.0,3007.0,3751.0,4095.0,4095.0,3317.0,3483.0,1.5,9.36,3.63,-0.09,0.02,-0.03,1.0,r
2937.0,2965.0,2992.0,3755.0,4095.0,4095.0,3319.0,3473.0,1.68,9.43,3.74,-0.06,-0.04,-0.05,1.0,r
2943.0,2981.0,2998.0,3763.0,4095.0,4095.0,3315.0,3474.0,1.64,9.38,3.96,-0.06,-0.06,-0.04,1.0,r
2945.0,2964.0,3006.0,3767.0,4095.0,4095.0,3311.0,3475.0,1.69,9.32,4.03,0.03,-0.02,-0.06,1.0,r
2933.0,2967.0,3007.0,3767.0,4095.0,4095.0,3325.0,3482.0,1.73,9.37,3.63,0.02,0.03,-0.08,1.0,r
2933.0,2976.0,3005.0,3760.0,4095.0,4095.0,3314.0,3479.0,1.6,9.45,3.25,0.0,0.01,-0.07,1.0,r
2929.0,2965.0,3003.0,3760.0,4095.0,4095.0,3315.0,3472.0,1.61,9.39,3.36,-0.05,-0.03,-0.06,1.0,r
2938.0,2973.0,3006.0,3765.0,4095.0,4095.0,3317.0,3473.0,1.49,9.42,3.56,-0.07,-0.01,-0.07,1.0,r
2930.0,2975.0,2999.0,3758.0,4095.0,4095.0,3327.0,3489.0,1.46,9.43,3.62,-0.08,-0.01,-0.05,1.0,r
2930.0,2967.0,2997.0,3750.0,4095.0,4095.0,3319.0,3488.0,1.61,9.43,3.48,-0.03,0.04,-0.04,1.0,r
2939.0,2965.0,2998.0,3760.0,4095.0,4095.0,3323.0,3483.0,1.46,9.35,3.45,-0.04,0.03,-0.03,1.0,r
2945.0,2960.0,2999.0,3751.0,4095.0,4095.0,3327.0,3488.0,1.39,9.38,3.7,-0.03,0.01,0.02,1.0,r
2929.0,2963.0,2992.0,3701.0,4095.0,4095.0,3328.0,3510.0,2.18,10.07,0.71,-0.18,0.07,0.05,1.0,r
2943.0,2975.0,3003.0,3706.0,4095.0,4095.0,3331.0,3516.0,1.89,9.84,0.7,-0.13,0.06,-0.0,1.0,r
2928.0,2971.0,2992.0,3708.0,4095.0,4095.0,3326.0,3504.0,1.91,10.07,0.43,-0.11,0.03,-0.02,1.0,r
2931.0,2975.0,3009.0,3715.0,4095.0,4095.0,3321.0,3501.0,2.04,9.91,0.71,-0.02,-0.04,-0.07,1.0,r
2932.0,2975.0,3001.0,3712.0,4095.0,4095.0,3325.0,3504.0,1.91,10.08,0.56,-0.01,-0.05,-0.1,1.0,r
2934.0,2963.0,3001.0,3721.0,4095.0,4095.0,3328.0,3514.0,1.69,9.89,0.54,0.0,-0.05,-0.12,1.0,r
2935.0,2967.0,3009.0,3718.0,4095.0,4095.0,3327.0,3505.0,1.59,9.9,0.36,0.01,0.02,-0.09,1.0,r
2939.0,2962.0,2995.0,3721.0,4095.0,4095.0,3328.0,3511.0,1.55,10.0,0.1,-0.02,0.05,-0.06,1.0,r
2935.0,2961.0,3002.0,3723.0,4095.0,4095.0,3327.0,3515.0,1.61,10.03,0.01,-0.03,-0.02,-0.08,1.0,r
2932.0,2962.0,2992.0,3724.0,4095.0,4095.0,3323.0,3504.0,1.44,10.0,0.24,-0.05,-0.03,-0.07,1.0,r
2941.0,2971.0,3008.0,3718.0,4095.0,4095.0,3335.0,3517.0,1.56,9.94,0.36,-0.06,-0.08,-0.05,1.0,r
2928.0,2967.0,2999.0,3716.0,4095.0,4095.0,3329.0,3507.0,1.66,10.05,0.15,-0.05,0.01,-0.06,1.0,r
2941.0,2960.0,3001.0,3713.0,4095.0,4095.0,3333.0,3514.0,1.62,9.95,0.34,-0.12,-0.08,-0.03,1.0,r
2943.0,2972.0,3003.0,3714.0,4095.0,4095.0,3329.0,3518.0,1.59,9.93,0.63,-0.1,-0.04,-0.04,1.0,r
2934.0,2963.0,2998.0,3718.0,4095.0,4095.0,3339.0,3509.0,1.52,10.01,0.65,-0.01,-0.03,-0.05,1.0,r
2931.0,2960.0,2997.0,3714.0,4095.0,4095.0,3332.0,3515.0,1.54,9.96,0.35,0.04,0.08,-0.05,1.0,r
2931.0,2970.0,3001.0,3723.0,4095.0,4095.0,3325.0,3506.0,1.55,10.0,0.15,-0.01,-0.04,-0.02,1.0,r
2941.0,2970.0,3007.0,3724.0,4095.0,4095.0,3333.0,3510.0,1.91,9.99,0.31,0.03,-0.05,-0.05,1.0,r
2944.0,2962.0,2995.0,3726.0,4095.0,4095.0,3329.0,3504.0,1.72,10.0,0.17,-0.01,-0.05,-0.08,1.0,r
2934.0,2962.0,3007.0,3723.0,4095.0,4095.0,3330.0,3519.0,1.75,9.97,0.02,-0.01,-0.02,-0.09,1.0,r
2946.0,2973.0,3009.0,3456.0,4095.0,4095.0,3366.0,3565.0,-5.65,8.17,1.62,-0.3,-0.09,-0.04,1.0,r
2934.0,2967.0,3008.0,3334.0,4095.0,4095.0,3349.0,3531.0,-4.98,8.4,2.11,-0.1,-0.08,-0.01,1.0,r
2943.0,2971.0,3007.0,3440.0,4095.0,4095.0,3360.0,3543.0,-4.99,8.32,2.34,-0.18,-0.04,0.09,1.0,r
2938.0,2969.0,3007.0,3487.0,4095.0,4095.0,3355.0,3546.0,-4.46,8.46,2.78,-0.14,0.0,0.11,1.0,r
2946.0,2961.0,3003.0,3504.0,4095.0,4095.0,3355.0,3541.0,-4.4,8.42,2.76,-0.16,0.01,0.09,1.0,r
2937.0,2960.0,3003.0,3515.0,4095.0,4095.0,3357.0,3555.0,-4.32,8.51,2.81,-0.15,0.0,0.07,1.0,r
2943.0,2969.0,3007.0,3529.0,4095.0,4095.0,3350.0,3549.0,-4.28,8.5,2.85,-0.1,0.0,0.05,1.0,r
2933.0,2960.0,3005.0,3523.0,4095.0,4095.0,3352.0,3553.0,-4.12,8.47,2.74,-0.11,-0.02,0.03,1.0,r
2946.0,2960.0,3011.0,3537.0,4095.0,4095.0,3358.0,3549.0,-4.07,8.49,2.93,-0.09,-0.05,-0.02,1.0,r
2935.0,2969.0,3007.0,3532.0,4095.0,4095.0,3358.0,3562.0,-4.15,8.47,2.93,-0.07,0.01,-0.04,1.0,r
2941.0,2964.0,3008.0,3537.0,4095.0,4095.0,3345.0,3550.0,-4.32,8.44,2.84,-0.07,-0.0,-0.05,1.0,r
2948.0,2972.0,3003.0,3547.0,4095.0,4095.0,3357.0,3560.0,-4.43,8.49,2.88,-0.11,-0.06,-0.04,1.0,r
2935.0,2962.0,3001.0,3557.0,4095.0,4095.0,3345.0,3554.0,-4.36,8.47,3.03,-0.01,-0.01,-0.04,1.0,r
2939.0,2960.0,2997.0,3568.0,4095.0,4095.0,3357.0,3560.0,-4.35,8.42,2.78,-0.05,0.06,-0.03,1.0,r
2944.0,2960.0,2994.0,3570.0,4095.0,4095.0,3349.0,3554.0,-4.42,8.48,2.72,-0.03,0.02,-0.04,1.0,r
2941.0,2974.0,3005.0,3583.0,4095.0,4095.0,3354.0,3546.0,-4.33,8.5,2.7,-0.11,0.01,-0.01,1.0,r
2944.0,2975.0,3007.0,3583.0,4095.0,4095.0,3344.0,3546.0,-4.3,8.4,2.84,-0.11,0.0,-0.02,1.0,r
2938.0,2970.0,3011.0,3583.0,4095.0,4095.0,3357.0,3555.0,-4.37,8.4,2.97,-0.03,0.07,-0.02,1.0,r
2943.0,2973.0,3006.0,3574.0,4095.0,4095.0,3354.0,3555.0,-4.36,8.51,2.95,-0.01,0.08,-0.01,1.0,r
2947.0,2960.0,3003.0,3583.0,4095.0,4095.0,3349.0,3546.0,-4.35,8.51,2.86,-0.05,-0.01,-0.01,1.0,r
2944.0,2975.0,2992.0,3644.0,4095.0,4095.0,3365.0,3524.0,2.8,9.55,2.41,-0.07,-0.01,-0.04,1.0,r
2928.0,2973.0,2994.0,3645.0,4095.0,4095.0,3373.0,3526.0,2.78,9.54,2.37,-0.06,0.01,-0.06,1.0,r
2944.0,2977.0,2996.0,3647.0,4095.0,4095.0,3371.0,3527.0,2.68,9.5,2.35,-0.07,-0.0,-0.05,1.0,r
2934.0,2960.0,2998.0,3645.0,4095.0,4095.0,3373.0,3531.0,2.66,9.51,2.38,-0.05,0.01,-0.05,1.0,r
2931.0,2961.0,2999.0,3649.0,4095.0,4095.0,3374.0,3523.0,2.63,9.5,2.31,-0.08,-0.02,-0.02,1.0,r
2944.0,2974.0,2992.0,3661.0,4095.0,4095.0,3372.0,3522.0,2.74,9.58,2.36,-0.06,0.01,-0.03,1.0,r
2944.0,2971.0,3005.0,3649.0,4095.0,4095.0,3364.0,3517.0,2.79,9.54,2.41,-0.06,-0.01,-0.03,1.0,r
2933.0,2967.0,2993.0,3658.0,4095.0,4095.0,3363.0,3521.0,2.81,9.45,2.42,-0.06,-0.01,-0.04,1.0,r
2928.0,2964.0,2992.0,3642.0,4095.0,4095.0,3361.0,3524.0,2.84,9.52,2.43,-0.05,-0.02,-0.06,1.0,r
2929.0,2955.0,2995.0,3653.0,4095.0,4095.0,3369.0,3523.0,2.69,9.54,2.35,-0.06,0.0,-0.06,1.0,r
2935.0,2974.0,2993.0,3654.0,4095.0,4095.0,3375.0,3527.0,2.58,9.56,2.27,-0.06,-0.01,-0.04,1.0,r
2934.0,2960.0,2997.0,3639.0,4095.0,4095.0,3362.0,3520.0,2.66,9.58,2.3,-0.05,0.0,-0.04,1.0,r
2945.0,2961.0,2999.0,3654.0,4095.0,4095.0,3369.0,3519.0,2.71,9.57,2.29,-0.06,-0.02,-0.03,1.0,r
2929.0,2962.0,2994.0,3650.0,4095.0,4095.0,3362.0,3526.0,2.73,9.57,2.26,-0.06,0.01,-0.04,1.0,r
2943.0,2961.0,3005.0,3651.0,4095.0,4095.0,3372.0,3531.0,2.72,9.55,2.4,-0.03,0.01,-0.06,1.0,r
2942.0,2960.0,2991.0,3651.0,4095.0,4095.0,3370.0,3530.0,2.74,9.5,2.45,-0.04,-0.01,-0.05,1.0,r
2930.0,2960.0,2993.0,3653.0,4095.0,4095.0,3363.0,3527.0,2.75,9.5,2.37,-0.04,-0.01,-0.06,1.0,r
2945.0,2964.0,2997.0,3652.0,4095.0,4095.0,3369.0,3527.0,2.75,9.53,2.28,-0.06,-0.03,-0.06,1.0,r
2932.0,2961.0,3003.0,3648.0,4095.0,4095.0,3375.0,3531.0,2.84,9.58,2.37,-0.04,0.01,-0.06,1.0,r
2949.0,2962.0,2999.0,3649.0,4095.0,4095.0,3364.0,3525.0,2.76,9.55,2.35,-0.03,-0.02,-0.08,1.0,r
2934.0,2963.0,2997.0,3648.0,4095.0,4095.0,3375.0,3530.0,-1.77,9.81,0.38,-0.06,-0.0,0.0,1.0,r
2940.0,2961.0,2996.0,3657.0,4095.0,4095.0,3370.0,3530.0,-1.78,9.87,0.24,-0.07,0.03,-0.0,1.0,r
2944.0,2963.0,2994.0,3658.0,4095.0,4095.0,3375.0,3534.0,-1.63,9.86,0.24,-0.05,-0.01,-0.04,1.0,r
2937.0,2970.0,3007.0,3661.0,4095.0,4095.0,3377.0,3531.0,-1.72,9.83,0.26,-0.06,-0.02,-0.04,1.0,r
2943.0,2960.0,2995.0,3654.0,4095.0,4095.0,3378.0,3537.0,-1.75,9.8,0.33,-0.05,-0.05,-0.05,1.0,r
2947.0,2960.0,2997.0,3662.0,4095.0,4095.0,3378.0,3536.0,-1.87,9.83,0.36,-0.05,-0.02,-0.05,1.0,r
2949.0,2963.0,2994.0,3651.0,4095.0,4095.0,3376.0,3531.0,-1.94,9.82,0.33,-0.06,-0.01,-0.04,1.0,r
2943.0,2961.0,2998.0,3650.0,4095.0,4095.0,3380.0,3536.0,-1.8,9.82,0.39,-0.04,-0.01,-0.02,1.0,r
2943.0,2961.0,2995.0,3647.0,4095.0,4095.0,3376.0,3536.0,-1.7,9.87,0.19,-0.07,0.01,-0.02,1.0,r
2951.0,2966.0,3005.0,3658.0,4095.0,4095.0,3378.0,3536.0,-1.8,9.82,0.16,-0.08,0.0,-0.03,1.0,r
2935.0,2975.0,2998.0,3654.0,4095.0,4095.0,3376.0,3534.0,-1.8,9.8,0.34,-0.09,0.02,-0.03,1.0,r
2941.0,2967.0,2997.0,3647.0,4095.0,4095.0,3376.0,3537.0,-1.79,9.82,0.5,-0.09,0.01,-0.02,1.0,r
2931.0,2961.0,3003.0,3648.0,4095.0,4095.0,3376.0,3535.0,-1.75,9.84,0.41,-0.08,0.01,-0.01,1.0,r
2934.0,2963.0,2999.0,3645.0,4095.0,4095.0,3373.0,3536.0,-1.63,9.84,0.38,-0.05,-0.0,-0.03,1.0,r
2950.0,2975.0,2997.0,3661.0,4095.0,4095.0,3373.0,3534.0,-1.74,9.85,0.29,-0.07,0.02,-0.03,1.0,r
2947.0,2965.0,3004.0,3652.0,4095.0,4095.0,3379.0,3536.0,-1.77,9.83,0.42,-0.08,-0.02,-0.02,1.0,r
2944.0,2963.0,3008.0,3655.0,4095.0,4095.0,3375.0,3527.0,-1.75,9.85,0.43,-0.09,0.01,-0.01,1.0,r
2954.0,2975.0,3002.0,3664.0,4095.0,4095.0,3380.0,3533.0,-1.66,9.87,0.38,-0.07,-0.01,-0.01,1.0,r
2945.0,2960.0,2992.0,3648.0,4095.0,4095.0,3377.0,3537.0,-1.64,9.82,0.38,-0.08,0.0,-0.01,1.0,r
2939.0,2963.0,2992.0,3650.0,4095.0,4095.0,3381.0,3538.0,-1.6,9.88,0.48,-0.07,0.0,-0.02,1.0,r
2945.0,2971.0,2999.0,3659.0,4095.0,4095.0,3388.0,3554.0,-5.09,7.8,3.42,-0.08,0.01,-0.04,1.0,r
2935.0,2966.0,3002.0,3655.0,4095.0,4095.0,3387.0,3558.0,-5.14,7.76,3.58,-0.07,0.02,-0.03,1.0,r
2930.0,2964.0,2998.0,3653.0,4095.0,4095.0,3389.0,3556.0,-5.15,7.72,3.56,-0.08,-0.02,-0.01,1.0,r
2943.0,2964.0,3007.0,3659.0,4095.0,4095.0,3390.0,3554.0,-4.95,7.8,3.6,-0.09,-0.04,0.0,1.0,r
2931.0,2967.0,2992.0,3653.0,4095.0,4095.0,3386.0,3553.0,-4.8,7.78,3.64,-0.08,0.0,0.0,1.0,r
2943.0,2965.0,3001.0,3659.0,4095.0,4095.0,3387.0,3556.0,-4.85,7.8,3.55,-0.06,0.09,0.01,1.0,r
2953.0,2970.0,3001.0,3645.0,4095.0,4095.0,3391.0,3553.0,-5.0,7.84,3.52,-0.1,0.02,-0.01,1.0,r
2937.0,2967.0,2997.0,3648.0,4095.0,4095.0,3392.0,3551.0,-4.87,7.71,3.74,-0.09,-0.04,-0.01,1.0,r
2946.0,2960.0,2992.0,3635.0,4095.0,4095.0,3386.0,3558.0,-4.93,7.78,3.85,-0.07,-0.02,0.0,1.0,r
2942.0,2975.0,3002.0,3643.0,4095.0,4095.0,3390.0,3551.0,-4.82,7.84,3.75,-0.05,-0.0,0.0,1.0,r
2950.0,2966.0,3002.0,3633.0,4095.0,4095.0,3392.0,3555.0,-4.77,7.97,3.62,-0.04,0.06,-0.02,1.0,r
2939.0,2957.0,2999.0,3583.0,4095.0,4095.0,3383.0,3556.0,-4.85,7.75,3.52,-0.07,0.02,-0.0,1.0,r
2945.0,2970.0,2993.0,3583.0,4095.0,4095.0,3393.0,3556.0,-4.81,7.84,3.53,-0.07,-0.01,-0.02,1.0,r
2938.0,2969.0,2992.0,3583.0,4095.0,4095.0,3385.0,3565.0,-4.87,7.9,3.63,-0.06,-0.01,-0.04,1.0,r
2949.0,2977.0,2994.0,3600.0,4095.0,4095.0,3376.0,3553.0,-4.89,7.87,3.7,-0.06,-0.0,-0.02,1.0,r
2946.0,2963.0,2999.0,3603.0,4095.0,4095.0,3371.0,3565.0,-4.87,7.86,3.68,-0.08,-0.08,0.0,1.0,r
2949.0,2970.0,2997.0,3621.0,4095.0,4095.0,3369.0,3570.0,-4.91,7.72,3.78,-0.07,-0.09,0.02,1.0,r
2951.0,2978.0,3001.0,3619.0,4095.0,4095.0,3359.0,3569.0,-4.89,7.83,3.77,-0.05,-0.13,0.03,1.0,r
2951.0,2963.0,3001.0,3626.0,4095.0,4095.0,3353.0,3563.0,-4.69,7.94,3.63,0.02,-0.35,0.02,1.0,r
2960.0,2962.0,3006.0,3632.0,4095.0,4095.0,3348.0,3561.0,-4.54,8.01,3.65,-0.04,-0.25,0.03,1.0,r
2941.0,2960.0,2992.0,3727.0,4095.0,4095.0,3343.0,3560.0,1.51,9.36,3.52,-0.16,0.07,-0.09,1.0,r
2945.0,2965.0,3003.0,3730.0,4095.0,4095.0,3349.0,3572.0,1.53,9.26,3.9,-0.14,0.01,-0.06,1.0,r
2951.0,2977.0,2999.0,3728.0,4095.0,4095.0,3342.0,3568.0,1.56,9.12,4.19,-0.14,0.01,-0.0,1.0,r
2950.0,2959.0,2993.0,3721.0,4095.0,4095.0,3344.0,3568.0,1.66,9.15,4.26,-0.1,0.01,0.01,1.0,r
2943.0,2960.0,3009.0,3737.0,4095.0,4095.0,3345.0,3568.0,1.91,9.2,4.16,-0.05,0.01,0.0,1.0,r
2935.0,2973.0,2996.0,3728.0,4095.0,4095.0,3351.0,3573.0,2.05,9.22,4.02,-0.07,-0.05,-0.02,1.0,r
2947.0,2970.0,2998.0,3734.0,4095.0,4095.0,3345.0,3568.0,1.94,9.25,3.92,-0.06,-0.01,-0.05,1.0,r
2944.0,2963.0,3004.0,3738.0,4095.0,4095.0,3343.0,3569.0,1.76,9.22,4.03,-0.01,-0.01,-0.08,1.0,r
2950.0,2960.0,3003.0,3737.0,4095.0,4095.0,3353.0,3579.0,1.79,9.27,3.99,-0.02,-0.02,-0.07,1.0,r
2944.0,2977.0,3006.0,3731.0,4095.0,4095.0,3351.0,3583.0,1.74,9.23,3.8,0.01,0.02,-0.09,1.0,r
2937.0,2973.0,3002.0,3728.0,4095.0,4095.0,3349.0,3577.0,1.6,9.23,3.71,-0.03,0.02,-0.05,1.0,r
2947.0,2961.0,3003.0,3724.0,4095.0,4095.0,3351.0,3569.0,1.67,9.24,3.69,-0.07,-0.02,-0.01,1.0,r
2931.0,2961.0,2993.0,3728.0,4095.0,4095.0,3347.0,3571.0,1.82,9.27,3.81,-0.09,-0.0,-0.03,1.0,r
2935.0,2959.0,3005.0,3723.0,4095.0,4095.0,3345.0,3575.0,1.86,9.26,3.94,-0.06,-0.0,-0.07,1.0,r
2943.0,2959.0,3002.0,3728.0,4095.0,4095.0,3355.0,3573.0,1.86,9.25,3.77,-0.09,-0.03,-0.08,1.0,r
2944.0,2966.0,2994.0,3719.0,4095.0,4095.0,3345.0,3571.0,1.84,9.3,3.86,-0.07,-0.06,-0.09,1.0,r
2951.0,2970.0,3013.0,3731.0,4095.0,4095.0,3345.0,3568.0,1.54,9.12,4.08,-0.11,-0.06,-0.08,1.0,r
2949.0,2967.0,3003.0,3735.0,4095.0,4095.0,3346.0,3568.0,1.58,9.2,4.13,-0.08,-0.04,-0.07,1.0,r
2957.0,2976.0,2998.0,3734.0,4095.0,4095.0,3344.0,3567.0,1.57,9.27,3.99,-0.04,-0.01,-0.05,1.0,r
2939.0,2962.0,3006.0,3734.0,4095.0,4095.0,3353.0,3579.0,1.68,9.28,3.89,-0.04,-0.01,-0.05,1.0,r
71.0,-0.23,-0.13,0.09,1.0,r
2950.0,2969.0,2992.0,3699.0,4095.0,4095.0,3367.0,3574.0,0.31,10.09,0.89,-0.22,-0.09,0.07,1.0,r
2954.0,2975.0,3003.0,3696.0,4095.0,4095.0,3361.0,3574.0,0.34,10.13,0.8,-0.21,-0.03,-0.01,1.0,r
2942.0,2965.0,3001.0,3702.0,4095.0,4095.0,3370.0,3582.0,0.31,9.93,0.98,-0.25,-0.09,-0.03,1.0,r
2939.0,2965.0,3007.0,3696.0,4095.0,4095.0,3366.0,3574.0,0.35,10.08,1.01,-0.25,-0.08,-0.03,1.0,r
2938.0,2964.0,2992.0,3697.0,4095.0,4095.0,3362.0,3579.0,0.58,10.02,1.38,-0.21,-0.18,-0.08,1.0,r
2941.0,2965.0,2997.0,3698.0,4095.0,4095.0,3360.0,3577.0,0.3,10.1,1.28,-0.12,-0.02,-0.12,1.0,r
2946.0,2959.0,3002.0,3703.0,4095.0,4095.0,3360.0,3571.0,-0.01,10.1,1.14,-0.11,0.05,-0.16,1.0,r
2944.0,2960.0,3003.0,3700.0,4095.0,4095.0,3369.0,3581.0,-0.11,10.03,1.29,-0.2,0.04,-0.18,1.0,r
2949.0,2973.0,2994.0,3707.0,4095.0,4095.0,3375.0,3583.0,-0.09,9.82,1.8,-0.2,-0.06,-0.1,1.0,r
2948.0,2967.0,3003.0,3703.0,4095.0,4095.0,3355.0,3574.0,0.09,9.96,1.73,-0.04,-0.03,-0.07,1.0,r
2949.0,2960.0,2999.0,3694.0,4095.0,4095.0,3361.0,3580.0,0.03,10.05,1.28,0.06,0.02,-0.15,1.0,r
2948.0,2983.0,2996.0,3702.0,4095.0,4095.0,3367.0,3573.0,-0.52,10.03,0.8,-0.01,0.11,-0.15,1.0,r
2944.0,2969.0,3003.0,3706.0,4095.0,4095.0,3370.0,3583.0,-0.84,9.93,0.79,-0.09,0.08,-0.05,1.0,r
2947.0,2960.0,2999.0,3701.0,4095.0,4095.0,3364.0,3582.0,-0.16,10.08,0.85,-0.09,-0.03,0.04,1.0,r
2944.0,2965.0,3007.0,3694.0,4095.0,4095.0,3366.0,3582.0,-0.04,9.97,1.14,-0.1,-0.0,0.01,1.0,r
2946.0,2971.0,3003.0,3690.0,4095.0,4095.0,3365.0,3568.0,-0.31,10.05,1.36,-0.2,-0.08,0.06,1.0,r
2958.0,2966.0,3009.0,3696.0,4095.0,4095.0,3367.0,3582.0,0.13,9.99,1.64,-0.11,-0.09,0.06,1.0,r
2941.0,2967.0,2993.0,3683.0,4095.0,4095.0,3373.0,3583.0,0.11,10.04,1.52,-0.14,-0.05,0.04,1.0,r
2941.0,2965.0,3003.0,3687.0,4095.0,4095.0,3367.0,3580.0,0.01,9.98,1.59,-0.07,0.05,0.02,1.0,r
2941.0,2970.0,2993.0,3506.0,4095.0,4095.0,3354.0,3583.0,-4.81,8.66,0.81,-0.12,-0.03,0.01,1.0,r
2955.0,2970.0,3005.0,3519.0,4095.0,4095.0,3357.0,3583.0,-4.61,8.58,0.83,-0.14,-0.06,0.02,1.0,r
2941.0,2975.0,2997.0,3520.0,4095.0,4095.0,3359.0,3578.0,-4.61,8.66,0.8,-0.12,0.01,-0.0,1.0,r
2943.0,2972.0,2993.0,3531.0,4095.0,4095.0,3367.0,3600.0,-4.63,8.63,0.74,-0.12,-0.01,-0.02,1.0,r
2941.0,2963.0,3007.0,3529.0,4095.0,4095.0,3364.0,3600.0,-4.76,8.5,0.96,-0.11,0.01,-0.02,1.0,r
2954.0,2960.0,3003.0,3519.0,4095.0,4095.0,3362.0,3583.0,-5.22,8.58,1.19,-0.0,0.09,0.06,1.0,r
2943.0,2961.0,2994.0,3521.0,4095.0,4095.0,3361.0,3598.0,-6.07,8.32,1.43,0.03,-0.3,0.2,1.0,r
2948.0,2966.0,3002.0,3529.0,4095.0,4095.0,3359.0,3578.0,-5.09,8.69,0.87,0.32,-1.57,0.3,1.0,r
2931.0,2971.0,3006.0,3527.0,4095.0,4095.0,3363.0,3583.0,-4.61,8.69,1.5,0.18,-1.18,0.35,1.0,r
2947.0,2967.0,2994.0,3525.0,4095.0,4095.0,3361.0,3583.0,-5.03,8.42,2.23,0.15,-0.65,0.52,1.0,r
2946.0,2962.0,2997.0,3533.0,4095.0,4095.0,3369.0,3583.0,-6.22,8.35,2.12,0.27,-0.11,0.76,1.0,r
2949.0,2963.0,3001.0,3555.0,4095.0,4095.0,3356.0,3578.0,-3.1,9.12,0.5,0.51,-0.77,0.94,1.0,r
2930.0,2957.0,2992.0,3538.0,4095.0,4095.0,3361.0,3583.0,-1.46,9.91,-0.58,0.42,-0.33,0.83,1.0,r
2945.0,2960.0,2997.0,3546.0,4095.0,4095.0,3359.0,3600.0,-2.01,10.28,-0.5,0.1,-0.26,0.77,1.0,r
2945.0,2970.0,3003.0,3562.0,4095.0,4095.0,3370.0,3600.0,-1.16,9.65,0.04,-0.01,-1.17,0.68,1.0,r
2945.0,2969.0,3004.0,3567.0,4095.0,4095.0,3367.0,3607.0,0.87,8.73,1.24,0.11,-1.28,0.39,1.0,r
2955.0,2975.0,3006.0,3574.0,4095.0,4095.0,3374.0,3599.0,0.78,9.52,0.05,0.19,-0.39,-0.03,1.0,r
2953.0,2975.0,3006.0,3581.0,4095.0,4095.0,3366.0,3600.0,-1.58,11.66,-0.55,-0.08,-0.27,0.08,1.0,r
2938.0,2971.0,3008.0,3579.0,4095.0,4095.0,3370.0,3615.0,-0.75,10.42,0.33,-0.43,-0.47,0.29,1.0,r
2950.0,2967.0,3008.0,3574.0,4095.0,4095.0,3366.0,3583.0,-0.39,9.7,1.96,-0.58,0.0,0.31,1.0,r
2944.0,2965.0,2998.0,3620.0,4095.0,4095.0,3383.0,3613.0,1.49,9.31,4.38,-0.04,0.04,-0.07,1.0,r
2949.0,2965.0,2993.0,3600.0,4095.0,4095.0,3379.0,3609.0,1.07,9.38,3.9,-0.01,0.02,-0.09,1.0,r
2944.0,2967.0,3003.0,3617.0,4095.0,4095.0,3383.0,3616.0,1.06,9.34,3.72,-0.01,-0.02,-0.07,1.0,r
2943.0,2960.0,3008.0,3614.0,4095.0,4095.0,3387.0,3623.0,1.04,9.39,3.72,-0.03,-0.05,-0.07,1.0,r
2959.0,2960.0,2997.0,3615.0,4095.0,4095.0,3383.0,3602.0,0.76,9.34,3.74,-0.06,-0.01,-0.04,1.0,r
2949.0,2958.0,2996.0,3614.0,4095.0,4095.0,3385.0,3615.0,0.77,9.31,3.88,-0.09,-0.02,-0.03,1.0,r
2955.0,2967.0,3003.0,3609.0,4095.0,4095.0,3386.0,3613.0,0.88,9.37,4.0,-0.08,-0.01,0.0,1.0,r
2955.0,2963.0,3003.0,3613.0,4095.0,4095.0,3387.0,3618.0,1.04,9.4,3.78,-0.08,0.06,0.01,1.0,r
2945.0,2963.0,2998.0,3602.0,4095.0,4095.0,3377.0,3615.0,1.08,9.36,3.78,-0.12,0.02,0.01,1.0,r
2941.0,2975.0,2997.0,3613.0,4095.0,4095.0,3381.0,3616.0,1.23,9.31,4.19,-0.09,-0.01,-0.01,1.0,r
2950.0,2960.0,2990.0,3612.0,4095.0,4095.0,3378.0,3603.0,1.22,9.32,4.31,-0.05,-0.0,-0.04,1.0,r
2949.0,2960.0,3002.0,3611.0,4095.0,4095.0,3383.0,3616.0,1.15,9.26,4.14,-0.03,0.01,-0.06,1.0,r
2941.0,2960.0,3002.0,3607.0,4095.0,4095.0,3379.0,3609.0,1.07,9.32,3.89,-0.05,-0.02,-0.08,1.0,r
2946.0,2965.0,3003.0,3608.0,4095.0,4095.0,3390.0,3608.0,1.11,9.35,3.85,-0.04,-0.02,-0.07,1.0,r
2943.0,2975.0,3002.0,3614.0,4095.0,4095.0,3377.0,3610.0,1.11,9.41,3.76,-0.03,-0.02,-0.05,1.0,r
2935.0,2954.0,2999.0,3600.0,4095.0,4095.0,3383.0,3607.0,1.05,9.31,3.79,-0.04,-0.01,-0.05,1.0,r
2942.0,2973.0,3005.0,3619.0,4095.0,4095.0,3380.0,3600.0,1.01,9.2,4.07,-0.07,0.0,-0.05,1.0,r
2943.0,2974.0,2995.0,3610.0,4095.0,4095.0,3393.0,3622.0,1.01,9.28,4.17,-0.06,-0.02,-0.02,1.0,r
2945.0,2960.0,3002.0,3613.0,4095.0,4095.0,3383.0,3619.0,1.18,9.42,3.89,-0.03,0.01,-0.05,1.0,r
2949.0,2961.0,3008.0,3611.0,4095.0,4095.0,3389.0,3622.0,0.99,9.47,3.6,-0.02,0.01,-0.07,1.0,r
2944.0,2970.0,2994.0,3681.0,4095.0,4095.0,3362.0,3616.0,-3.51,7.29,5.92,-0.03,0.0,0.04,1.0,r
2945.0,2976.0,2997.0,3691.0,4095.0,4095.0,3367.0,3621.0,-3.35,7.25,5.92,-0.04,-0.02,0.03,1.0,r
2953.0,2959.0,3001.0,3690.0,4095.0,4095.0,3361.0,3611.0,-3.39,7.32,5.87,-0.04,-0.01,0.0,1.0,r
2954.0,2967.0,3009.0,3696.0,4095.0,4095.0,3367.0,3616.0,-3.42,7.28,5.9,-0.05,0.0,-0.02,1.0,r
2953.0,2971.0,3002.0,3689.0,4095.0,4095.0,3361.0,3613.0,-3.39,7.24,6.03,-0.06,-0.01,-0.02,1.0,r
2939.0,2963.0,3008.0,3679.0,4095.0,4095.0,3371.0,3625.0,-3.4,7.25,6.03,-0.05,0.01,-0.03,1.0,r
2947.0,2966.0,3002.0,3681.0,4095.0,4095.0,3362.0,3618.0,-3.49,7.28,5.92,-0.04,0.02,-0.03,1.0,r
2939.0,2959.0,3007.0,3683.0,4095.0,4095.0,3367.0,3622.0,-3.59,7.33,5.74,-0.07,-0.0,-0.01,1.0,r
2943.0,2966.0,3002.0,3687.0,4095.0,4095.0,3362.0,3614.0,-3.43,7.35,5.7,-0.08,-0.01,-0.01,1.0,r
2944.0,2967.0,2997.0,3695.0,4095.0,4095.0,3361.0,3617.0,-3.46,7.34,5.84,-0.11,0.0,-0.03,1.0,r
2953.0,2983.0,3007.0,3696.0,4095.0,4095.0,3362.0,3611.0,-3.43,7.25,6.0,-0.13,-0.03,-0.01,1.0,r
2943.0,2967.0,3006.0,3694.0,4095.0,4095.0,3361.0,3613.0,-3.35,7.22,6.16,-0.11,-0.02,-0.01,1.0,r
2943.0,2967.0,3008.0,3695.0,4095.0,4095.0,3371.0,3616.0,-3.21,7.22,6.18,-0.1,-0.0,-0.02,1.0,r
2953.0,2961.0,3001.0,3686.0,4095.0,4095.0,3374.0,3619.0,-3.21,7.24,6.12,-0.1,-0.01,-0.04,1.0,r
2950.0,2972.0,3003.0,3696.0,4095.0,4095.0,3369.0,3620.0,-3.3,7.22,6.26,-0.08,0.02,-0.05,1.0,r
2947.0,2962.0,3004.0,3691.0,4095.0,4095.0,3374.0,3630.0,-3.37,7.15,6.4,-0.03,0.01,-0.06,1.0,r
2938.0,2970.0,3003.0,3694.0,4095.0,4095.0,3364.0,3609.0,-3.4,7.18,6.25,-0.03,0.05,-0.05,1.0,r
2950.0,2969.0,2998.0,3689.0,4095.0,4095.0,3370.0,3626.0,-3.4,7.26,6.07,0.01,0.04,-0.05,1.0,r
2939.0,2965.0,2999.0,3693.0,4095.0,4095.0,3375.0,3626.0,-3.51,7.31,5.89,0.0,0.05,-0.04,1.0,r
2944.0,2960.0,3003.0,3680.0,4095.0,4095.0,3365.0,3619.0,-3.6,7.29,5.84,0.01,0.03,-0.03,1.0,r
2949.0,2963.0,2996.0,3769.0,4095.0,4095.0,3363.0,3622.0,0.97,10.07,0.64,-0.07,0.04,0.01,1.0,r
2942.0,2963.0,2991.0,3761.0,4095.0,4095.0,3369.0,3632.0,0.94,10.12,0.45,-0.07,0.01,-0.04,1.0,r
2939.0,2977.0,3010.0,3769.0,4095.0,4095.0,3359.0,3621.0,0.81,10.04,0.53,-0.11,0.04,-0.04,1.0,r
2942.0,2970.0,2999.0,3766.0,4095.0,4095.0,3362.0,3622.0,0.72,10.05,0.64,-0.13,0.0,-0.04,1.0,r
2944.0,2976.0,3008.0,3771.0,4095.0,4095.0,3369.0,3632.0,0.7,10.03,0.82,-0.1,0.0,-0.05,1.0,r
2944.0,2977.0,2993.0,3773.0,4095.0,4095.0,3373.0,3630.0,0.62,10.04,0.84,-0.08,-0.0,-0.02,1.0,r
2935.0,2967.0,2993.0,3757.0,4095.0,4095.0,3367.0,3630.0,0.74,10.0,0.87,-0.02,-0.01,-0.01,1.0,r
2947.0,2965.0,3008.0,3771.0,4095.0,4095.0,3378.0,3634.0,0.67,9.98,0.7,-0.07,0.02,0.0,1.0,r
2944.0,2971.0,2996.0,3766.0,4095.0,4095.0,3365.0,3626.0,0.86,10.13,0.57,-0.08,0.01,-0.02,1.0,r
2945.0,2966.0,3006.0,3769.0,4095.0,4095.0,3359.0,3623.0,0.69,10.15,0.51,-0.09,0.05,-0.02,1.0,r
2949.0,2968.0,3006.0,3762.0,4095.0,4095.0,3370.0,3630.0,0.82,10.12,0.64,-0.07,0.0,-0.03,1.0,r
2946.0,2960.0,2997.0,3745.0,4095.0,4095.0,3364.0,3633.0,0.74,10.03,0.75,-0.09,-0.01,-0.02,1.0,r
2944.0,2960.0,2991.0,3757.0,4095.0,4095.0,3362.0,3622.0,0.82,10.03,0.86,-0.07,-0.0,-0.03,1.0,r
2941.0,2961.0,2992.0,3760.0,4095.0,4095.0,3371.0,3623.0,0.78,10.05,0.82,-0.05,0.02,-0.03,1.0,r
2937.0,2960.0,2999.0,3758.0,4095.0,4095.0,3365.0,3623.0,0.78,10.04,0.84,-0.03,-0.01,-0.02,1.0,r
2943.0,2963.0,2992.0,3754.0,4095.0,4095.0,3373.0,3629.0,0.87,10.03,0.8,-0.0,0.02,-0.01,1.0,r
2942.0,2960.0,2992.0,3762.0,4095.0,4095.0,3370.0,3626.0,0.94,10.07,0.61,-0.01,0.02,-0.02,1.0,r
2944.0,2973.0,3002.0,3769.0,4095.0,4095.0,3365.0,3622.0,1.06,10.05,0.6,-0.04,0.02,-0.04,1.0,r
2943.0,2960.0,2995.0,3750.0,4095.0,4095.0,3370.0,3629.0,0.87,10.06,0.58,-0.08,0.01,-0.06,1.0,r
2949.0,2961.0,2992.0,3760.0,4095.0,4095.0,3371.0,3632.0,0.79,10.02,0.76,-0.08,-0.01,-0.06,1.0,r
