hall_1,hall_2,hall_3,flex_t,flex_i,flex_m,flex_r,flex_p,accel_x,accel_y,accel_z,gyro_x,gyro_y,gyro_z,hand,sign
3619.0,3601.0,3071.0,3251.0,3323.0,2675.0,2965.0,3181.0,2.02,9.45,3.21,-0.05,0.01,-0.02,1.0,s
3625.0,3583.0,3066.0,3249.0,3321.0,2671.0,2960.0,3183.0,2.08,9.37,3.26,-0.07,0.0,-0.02,1.0,s
3623.0,3583.0,3067.0,3254.0,3332.0,2673.0,2966.0,3195.0,2.18,9.41,3.23,-0.03,-0.01,-0.04,1.0,s
3614.0,3599.0,3063.0,3262.0,3333.0,2671.0,2960.0,3186.0,2.18,9.47,3.13,-0.07,-0.01,-0.04,1.0,s
3632.0,3575.0,3067.0,3263.0,3322.0,2670.0,2961.0,3197.0,2.22,9.41,3.19,-0.06,-0.02,-0.05,1.0,s
3630.0,3605.0,3069.0,3263.0,3326.0,2679.0,2971.0,3185.0,2.06,9.43,3.2,-0.13,-0.02,-0.03,1.0,s
3615.0,3583.0,3083.0,3258.0,3328.0,2672.0,2960.0,3193.0,2.12,9.43,3.28,-0.09,0.01,-0.02,1.0,s
3635.0,3582.0,3071.0,3264.0,3323.0,2678.0,2959.0,3191.0,2.02,9.4,3.23,-0.04,-0.02,-0.05,1.0,s
3626.0,3599.0,3083.0,3264.0,3329.0,2677.0,2965.0,3197.0,2.24,9.44,3.18,-0.03,-0.0,-0.05,1.0,s
3635.0,3583.0,3083.0,3265.0,3321.0,2672.0,2967.0,3189.0,2.05,9.44,3.15,-0.08,0.0,-0.06,1.0,s
3615.0,3595.0,3083.0,3275.0,3341.0,2673.0,2974.0,3192.0,2.17,9.4,3.3,-0.02,0.01,-0.06,1.0,s
3600.0,3568.0,3063.0,3263.0,3344.0,2677.0,2967.0,3189.0,2.02,9.53,3.1,-0.07,-0.0,-0.07,1.0,s
3627.0,3536.0,3071.0,3264.0,3343.0,2683.0,2946.0,3198.0,2.04,9.35,3.21,-0.1,-0.09,-0.03,1.0,s
3583.0,3518.0,3085.0,3262.0,3328.0,2679.0,2967.0,3200.0,2.1,9.5,3.17,-0.08,-0.04,-0.02,1.0,s
3575.0,3511.0,3083.0,3243.0,3328.0,2677.0,2969.0,3189.0,1.96,9.35,3.27,-0.03,-0.05,-0.02,1.0,s
3559.0,3518.0,3069.0,3189.0,3322.0,2688.0,2971.0,3200.0,1.95,9.38,3.34,0.13,-0.25,-0.02,1.0,s
3463.0,3481.0,3071.0,3191.0,3293.0,2677.0,2960.0,3190.0,2.38,9.35,2.81,0.37,-0.55,-0.07,1.0,s
3439.0,3471.0,3071.0,3248.0,3323.0,2670.0,2969.0,3200.0,2.24,9.68,2.53,0.14,-0.37,-0.09,1.0,s
3409.0,3475.0,3067.0,3303.0,3351.0,2663.0,2966.0,3195.0,2.32,9.51,2.64,0.05,-0.31,-0.12,1.0,s
3405.0,3472.0,3067.0,3322.0,3328.0,2667.0,2961.0,3191.0,2.34,9.63,2.67,-0.03,-0.04,-0.03,1.0,s
3407.0,3458.0,3071.0,3315.0,3335.0,2681.0,2975.0,3197.0,2.09,9.57,2.65,-0.1,0.07,-0.03,1.0,s
3415.0,3459.0,3083.0,3313.0,3367.0,2697.0,2961.0,3207.0,2.24,9.52,2.67,-0.22,0.09,0.02,1.0,s
3435.0,3471.0,3062.0,3295.0,3362.0,2703.0,2969.0,3207.0,2.27,9.48,2.8,-0.19,0.2,0.02,1.0,s
3413.0,3477.0,3069.0,3295.0,3360.0,2702.0,2972.0,3198.0,2.27,9.56,2.83,-0.15,0.06,-0.0,1.0,s
3414.0,3481.0,3071.0,3291.0,3341.0,2699.0,2983.0,3203.0,2.33,9.45,2.89,-0.07,0.12,-0.01,1.0,s
3434.0,3483.0,3069.0,3287.0,3374.0,2705.0,2974.0,3207.0,2.42,9.49,2.93,-0.1,0.06,-0.03,1.0,s
3421.0,3472.0,3071.0,3291.0,3376.0,2702.0,2967.0,3201.0,2.34,9.38,3.05,-0.03,0.08,-0.05,1.0,s
3438.0,3472.0,3066.0,3279.0,3376.0,2692.0,2965.0,3211.0,2.19,9.47,2.94,-0.0,0.13,-0.05,1.0,s
3435.0,3469.0,3087.0,3277.0,3370.0,2699.0,2989.0,3205.0,2.49,9.46,3.08,0.02,0.28,-0.07,1.0,s
3431.0,3474.0,3061.0,3271.0,3343.0,2694.0,2961.0,3174.0,2.15,9.51,2.83,0.05,0.39,-0.04,1.0,s
3424.0,3477.0,3063.0,3254.0,3331.0,2724.0,2979.0,3204.0,1.88,9.59,2.66,0.02,0.07,-0.07,1.0,s
3430.0,3492.0,3071.0,3243.0,3339.0,2733.0,2983.0,3213.0,2.12,9.52,2.82,0.02,0.06,-0.05,1.0,s
3424.0,3486.0,3069.0,3207.0,3344.0,2737.0,2987.0,3215.0,1.89,9.51,2.74,-0.04,0.1,-0.02,1.0,s
3431.0,3479.0,3081.0,3200.0,3363.0,2735.0,2987.0,3215.0,2.09,9.54,2.78,-0.07,-0.04,-0.02,1.0,s
3426.0,3522.0,3063.0,3199.0,3354.0,2747.0,2981.0,3217.0,2.24,9.59,2.78,-0.08,0.03,-0.02,1.0,s
3427.0,3497.0,3065.0,3193.0,3363.0,2739.0,2977.0,3217.0,2.32,9.54,2.73,-0.06,0.02,-0.08,1.0,s
3426.0,3517.0,3063.0,3200.0,3362.0,2747.0,2982.0,3210.0,2.1,9.6,2.72,-0.09,-0.02,-0.06,1.0,s
3440.0,3490.0,3063.0,3199.0,3373.0,2750.0,2995.0,3215.0,2.34,9.62,2.83,-0.12,-0.08,-0.08,1.0,s
3426.0,3502.0,3071.0,3206.0,3364.0,2745.0,2992.0,3215.0,2.23,9.58,2.89,-0.08,0.01,-0.11,1.0,s
3451.0,3509.0,3057.0,3196.0,3363.0,2746.0,2987.0,3222.0,1.98,9.56,2.84,-0.11,0.01,-0.12,1.0,s
3414.0,3503.0,3067.0,3206.0,3357.0,2739.0,2990.0,3217.0,1.97,9.56,2.92,-0.03,0.17,-0.13,1.0,s
3428.0,3504.0,3087.0,3205.0,3350.0,2753.0,2987.0,3231.0,1.86,9.52,2.91,-0.03,0.16,-0.1,1.0,s
3431.0,3503.0,3071.0,3198.0,3365.0,2752.0,2987.0,3246.0,1.72,9.53,2.94,-0.07,0.23,-0.06,1.0,s
3422.0,3503.0,3071.0,3189.0,3354.0,2765.0,2992.0,3219.0,1.7,9.55,2.98,-0.01,0.03,-0.03,1.0,s
3435.0,3504.0,3071.0,3190.0,3376.0,2754.0,2986.0,3238.0,1.98,9.64,2.79,-0.0,0.07,-0.01,1.0,s
3425.0,3504.0,3066.0,3184.0,3356.0,2758.0,2990.0,3223.0,1.61,9.61,2.77,0.01,0.34,-0.03,1.0,s
3445.0,3511.0,3086.0,3187.0,3342.0,2755.0,2989.0,3237.0,1.75,9.7,2.48,0.06,-0.05,-0.07,1.0,s
3437.0,3501.0,3081.0,3189.0,3365.0,2721.0,2993.0,3223.0,1.91,9.6,2.68,-0.08,0.11,-0.0,1.0,s
3417.0,3503.0,3062.0,3200.0,3361.0,2757.0,2993.0,3219.0,1.46,9.51,2.86,-0.06,0.04,0.01,1.0,s
3440.0,3504.0,3067.0,3201.0,3374.0,2758.0,3000.0,3230.0,2.15,9.59,2.97,-0.05,-0.06,-0.02,1.0,s
3435.0,3511.0,3063.0,3206.0,3375.0,2752.0,2994.0,3222.0,2.04,9.57,2.92,-0.02,0.05,-0.02,1.0,s
3422.0,3515.0,3067.0,3205.0,3373.0,2765.0,2991.0,3226.0,2.03,9.61,2.72,-0.0,-0.05,-0.05,1.0,s
3443.0,3502.0,3071.0,3211.0,3378.0,2758.0,2995.0,3229.0,2.03,9.69,2.64,-0.05,-0.03,-0.06,1.0,s
3435.0,3507.0,3063.0,3209.0,3375.0,2766.0,2994.0,3233.0,1.91,9.68,2.71,-0.06,-0.02,-0.06,1.0,s
3431.0,3501.0,3066.0,3221.0,3365.0,2762.0,2992.0,3226.0,1.89,9.63,2.73,-0.04,-0.05,-0.06,1.0,s
3443.0,3509.0,3067.0,3229.0,3370.0,2758.0,2992.0,3225.0,1.82,9.7,2.71,-0.04,-0.03,-0.07,1.0,s
3434.0,3498.0,3083.0,3217.0,3386.0,2755.0,2994.0,3231.0,1.7,9.64,2.69,-0.02,-0.04,-0.08,1.0,s
3438.0,3495.0,3071.0,3223.0,3376.0,2753.0,2992.0,3228.0,1.75,9.67,2.67,-0.05,-0.03,-0.09,1.0,s
3426.0,3504.0,3067.0,3236.0,3383.0,2763.0,2995.0,3225.0,1.48,9.65,2.67,-0.04,0.02,-0.05,1.0,s
3427.0,3501.0,3071.0,3229.0,3391.0,2763.0,2997.0,3235.0,1.65,9.62,2.7,-0.02,-0.04,-0.01,1.0,s
3419.0,3487.0,3066.0,3243.0,3385.0,2753.0,2998.0,3226.0,1.64,9.64,2.68,-0.04,0.07,0.02,1.0,s
3435.0,3501.0,3067.0,3237.0,3385.0,2755.0,2996.0,3226.0,1.81,9.58,2.98,0.0,-0.05,0.02,1.0,s
3432.0,3491.0,3071.0,3248.0,3385.0,2752.0,2992.0,3242.0,1.76,9.48,3.06,0.06,0.04,0.05,1.0,s
3429.0,3491.0,3087.0,3233.0,3392.0,2749.0,2995.0,3242.0,1.75,9.64,2.57,0.12,-0.01,0.09,1.0,s
3440.0,3518.0,3071.0,3240.0,3388.0,2755.0,2997.0,3230.0,2.07,9.67,2.25,0.1,-0.05,0.11,1.0,s
3434.0,3473.0,3059.0,3233.0,3381.0,2757.0,2997.0,3239.0,2.46,9.66,2.25,0.17,-0.05,-0.0,1.0,s
3442.0,3472.0,3088.0,3246.0,3392.0,2757.0,2992.0,3239.0,2.37,9.62,2.15,0.13,-0.02,0.04,1.0,s
3431.0,3481.0,3071.0,3270.0,3407.0,2753.0,2992.0,3229.0,2.38,9.84,2.02,0.01,0.0,0.11,1.0,s
3422.0,3465.0,3083.0,3265.0,3428.0,2750.0,2997.0,3222.0,2.42,9.65,2.14,0.02,-0.03,0.04,1.0,s
3431.0,3455.0,3071.0,3269.0,3421.0,2747.0,3001.0,3229.0,2.39,9.84,1.79,0.03,-0.06,-0.04,1.0,s
3419.0,3446.0,3071.0,3297.0,3426.0,2736.0,2992.0,3222.0,1.94,9.63,1.73,0.11,-0.07,-0.22,1.0,s
3402.0,3446.0,3071.0,3339.0,3408.0,2736.0,2991.0,3218.0,1.78,9.95,1.28,0.21,0.01,-0.42,1.0,s
3375.0,3408.0,3071.0,3504.0,3408.0,2707.0,2993.0,3214.0,1.59,9.87,1.39,0.02,0.02,-0.39,1.0,s
3365.0,3394.0,3068.0,3649.0,3408.0,2695.0,2992.0,3215.0,1.53,9.78,1.69,-0.1,-0.34,-0.23,1.0,s
3371.0,3397.0,3083.0,3728.0,3398.0,2702.0,2994.0,3199.0,1.87,9.93,1.79,-0.11,-0.47,-0.18,1.0,s
3376.0,3417.0,3069.0,3679.0,3412.0,2719.0,2991.0,3216.0,2.0,9.63,2.04,-0.02,-0.7,-0.24,1.0,s
3376.0,3446.0,3070.0,3535.0,3406.0,2738.0,2992.0,3221.0,1.73,10.12,1.51,0.03,-0.2,-0.25,1.0,s
3373.0,3482.0,3070.0,3425.0,3402.0,2736.0,2993.0,3216.0,1.87,9.85,1.66,-0.09,-0.05,-0.06,1.0,s
3370.0,3470.0,3057.0,3386.0,3388.0,2742.0,2989.0,3225.0,1.49,9.67,1.97,-0.1,0.31,-0.04,1.0,s
3376.0,3492.0,3068.0,3330.0,3398.0,2736.0,2993.0,3232.0,1.4,9.78,1.98,0.09,0.14,-0.1,1.0,s
3369.0,3475.0,3069.0,3277.0,3413.0,2746.0,2987.0,3234.0,1.17,9.91,1.22,0.11,-0.23,-0.09,1.0,s
3371.0,3488.0,3058.0,3238.0,3427.0,2757.0,2999.0,3229.0,1.68,9.87,1.23,-0.1,-0.33,-0.07,1.0,s
3351.0,3501.0,3071.0,3221.0,3419.0,2763.0,3007.0,3237.0,1.89,9.91,1.7,-0.07,0.16,-0.1,1.0,s
3376.0,3476.0,3061.0,3235.0,3427.0,2767.0,2997.0,3228.0,0.88,9.85,1.69,-0.14,0.35,-0.04,1.0,s
3366.0,3489.0,3059.0,3207.0,3433.0,2778.0,3002.0,3227.0,1.69,10.02,1.6,-0.12,0.29,-0.07,1.0,s
3349.0,3456.0,3063.0,3210.0,3447.0,2771.0,3005.0,3234.0,1.36,9.84,1.78,-0.14,0.87,-0.05,1.0,s
3374.0,3504.0,3071.0,3211.0,3440.0,2777.0,2995.0,3233.0,0.64,9.73,1.85,-0.14,0.95,-0.06,1.0,s
3365.0,3504.0,3071.0,3177.0,3430.0,2775.0,2999.0,3237.0,1.32,10.01,1.42,-0.04,0.16,-0.07,1.0,s
3367.0,3491.0,3069.0,3187.0,3439.0,2773.0,3002.0,3246.0,2.09,10.06,1.95,-0.28,0.5,-0.1,1.0,s
3351.0,3507.0,3065.0,3200.0,3429.0,2781.0,2999.0,3249.0,0.14,9.54,2.13,0.03,0.12,-0.06,1.0,s
3351.0,3503.0,3055.0,3209.0,3440.0,2791.0,3006.0,3248.0,1.04,10.05,1.48,-0.01,-0.64,-0.21,1.0,s
3363.0,3503.0,3054.0,3215.0,3435.0,2796.0,3008.0,3237.0,1.22,9.84,1.85,-0.08,-0.16,-0.08,1.0,s
3351.0,3505.0,3066.0,3225.0,3429.0,2790.0,3003.0,3243.0,0.51,9.79,1.89,-0.03,-0.2,-0.05,1.0,s
3358.0,3513.0,3061.0,3230.0,3455.0,2794.0,3012.0,3248.0,1.03,9.96,1.75,-0.04,-0.32,-0.03,1.0,s
3377.0,3504.0,3071.0,3243.0,3435.0,2783.0,2999.0,3248.0,1.07,9.81,1.84,-0.07,-0.06,0.06,1.0,s
3365.0,3491.0,3062.0,3250.0,3455.0,2799.0,3007.0,3252.0,1.43,9.97,1.79,-0.09,0.06,0.03,1.0,s
3353.0,3483.0,3082.0,3238.0,3440.0,2790.0,3013.0,3242.0,1.98,10.0,1.96,-0.14,0.7,0.04,1.0,s
3355.0,3510.0,3068.0,3243.0,3456.0,2793.0,3011.0,3238.0,1.51,9.89,2.02,-0.15,1.72,0.01,1.0,s
3365.0,3503.0,3069.0,3253.0,3443.0,2794.0,3005.0,3251.0,0.64,9.77,1.9,-0.13,1.39,-0.02,1.0,s
3367.0,3487.0,3063.0,3264.0,3454.0,2790.0,3011.0,3249.0,0.32,9.84,1.85,-0.09,0.34,-0.09,1.0,s
3355.0,3491.0,3055.0,3258.0,3450.0,2793.0,3005.0,3248.0,0.77,9.86,2.14,-0.08,-0.14,-0.11,1.0,s
3362.0,3504.0,3067.0,3259.0,3440.0,2785.0,3015.0,3248.0,0.7,9.75,2.38,-0.09,-0.02,-0.08,1.0,s
3378.0,3478.0,3082.0,3278.0,3444.0,2800.0,3005.0,3248.0,0.51,9.85,2.26,-0.03,-0.06,-0.07,1.0,s
3367.0,3498.0,3057.0,3270.0,3443.0,2791.0,3005.0,3248.0,0.66,9.81,2.15,-0.01,-0.37,-0.04,1.0,s
3360.0,3467.0,3061.0,3278.0,3450.0,2797.0,3008.0,3248.0,0.51,9.65,2.22,0.07,-0.88,-0.01,1.0,s
3372.0,3477.0,3069.0,3280.0,3457.0,2790.0,3011.0,3248.0,1.32,9.9,2.0,0.05,-1.18,-0.09,1.0,s
3351.0,3488.0,3071.0,3267.0,3455.0,2799.0,3008.0,3253.0,1.23,9.85,2.06,0.01,-0.66,-0.05,1.0,s
3369.0,3485.0,3070.0,3275.0,3452.0,2799.0,3003.0,3248.0,0.94,9.98,1.63,0.13,-0.73,-0.07,1.0,s
3358.0,3468.0,3071.0,3275.0,3454.0,2785.0,3003.0,3250.0,1.32,9.97,1.43,0.09,-0.62,-0.11,1.0,s
3359.0,3462.0,3067.0,3264.0,3441.0,2795.0,3011.0,3248.0,1.13,10.12,1.24,-0.03,-0.49,-0.1,1.0,s
3369.0,3457.0,3071.0,3265.0,3444.0,2800.0,3007.0,3249.0,1.14,10.01,1.54,-0.17,-0.23,0.0,1.0,s
3378.0,3461.0,3071.0,3273.0,3443.0,2800.0,3003.0,3240.0,1.26,9.96,1.84,-0.16,0.01,-0.01,1.0,s
3375.0,3459.0,3085.0,3282.0,3437.0,2805.0,3008.0,3248.0,1.24,9.85,1.84,-0.05,-0.0,-0.05,1.0,s
3349.0,3471.0,3071.0,3306.0,3466.0,2795.0,3007.0,3257.0,1.31,9.84,1.68,0.01,0.1,-0.08,1.0,s
3372.0,3462.0,3063.0,3350.0,3440.0,2772.0,3009.0,3250.0,1.25,10.08,1.44,0.1,0.05,-0.14,1.0,s
3392.0,3451.0,3067.0,3383.0,3439.0,2777.0,3011.0,3251.0,1.26,9.92,1.38,0.07,0.11,-0.11,1.0,s
3370.0,3456.0,3079.0,3428.0,3415.0,2773.0,3018.0,3242.0,0.98,10.03,1.3,-0.02,0.12,-0.09,1.0,s
3367.0,3470.0,3071.0,3522.0,3424.0,2749.0,3005.0,3254.0,0.96,9.76,1.58,-0.08,-0.04,-0.08,1.0,s
3367.0,3457.0,3071.0,3744.0,3387.0,2743.0,3018.0,3255.0,1.05,9.97,1.73,-0.03,0.05,-0.09,1.0,s
3360.0,3454.0,3058.0,3920.0,3407.0,2736.0,3005.0,3247.0,1.05,10.08,1.69,-0.13,0.02,-0.07,1.0,s
3373.0,3457.0,3063.0,4069.0,3394.0,2752.0,2999.0,3235.0,1.09,10.01,1.37,-0.07,0.09,-0.0,1.0,s
3349.0,3471.0,3082.0,3894.0,3409.0,2763.0,2994.0,3246.0,1.06,10.03,1.34,-0.19,0.12,0.01,1.0,s
3370.0,3461.0,3071.0,3602.0,3411.0,2769.0,3005.0,3250.0,0.95,9.82,1.7,-0.13,0.06,0.03,1.0,s
3381.0,3473.0,3082.0,3440.0,3413.0,2787.0,3002.0,3241.0,1.12,9.97,1.63,-0.1,-0.03,0.01,1.0,s
3363.0,3472.0,3087.0,3344.0,3430.0,2798.0,3002.0,3253.0,1.0,9.95,1.57,-0.17,0.0,0.07,1.0,s
3359.0,3481.0,3083.0,3290.0,3431.0,2800.0,3003.0,3242.0,1.3,9.89,1.82,-0.16,-0.11,0.05,1.0,s
3359.0,3490.0,3081.0,3279.0,3435.0,2799.0,3007.0,3248.0,1.22,9.83,1.81,-0.13,0.03,0.02,1.0,s
3355.0,3483.0,3071.0,3268.0,3418.0,2815.0,3003.0,3248.0,1.29,9.93,1.66,-0.09,-0.08,-0.01,1.0,s
3365.0,3494.0,3071.0,3289.0,3434.0,2815.0,3006.0,3235.0,1.32,9.83,1.73,-0.04,0.06,-0.04,1.0,s
3361.0,3495.0,3065.0,3294.0,3431.0,2817.0,3011.0,3245.0,1.01,9.88,1.87,-0.04,0.13,-0.01,1.0,s
3366.0,3486.0,3065.0,3302.0,3440.0,2814.0,3016.0,3244.0,1.41,9.86,1.78,-0.02,0.03,-0.0,1.0,s
3373.0,3505.0,3085.0,3297.0,3441.0,2817.0,3014.0,3254.0,1.3,9.9,1.8,-0.09,0.1,0.0,1.0,s
3363.0,3489.0,3067.0,3294.0,3445.0,2813.0,3014.0,3253.0,1.32,9.86,1.92,-0.07,-0.02,0.01,1.0,s
3386.0,3517.0,3071.0,3286.0,3433.0,2814.0,3013.0,3246.0,1.64,9.92,1.87,-0.06,-0.03,-0.03,1.0,s
3359.0,3495.0,3061.0,3325.0,3440.0,2813.0,3019.0,3258.0,1.46,9.9,1.91,-0.07,-0.05,-0.07,1.0,s
3362.0,3504.0,3063.0,3340.0,3446.0,2813.0,3017.0,3257.0,1.26,9.88,1.74,-0.14,0.0,-0.07,1.0,s
3375.0,3491.0,3066.0,3412.0,3440.0,2800.0,3008.0,3263.0,1.39,10.07,1.53,-0.24,-0.13,-0.1,1.0,s
3363.0,3474.0,3071.0,3522.0,3427.0,2736.0,3007.0,3249.0,1.17,9.76,1.89,-0.41,-0.07,-0.12,1.0,s
3376.0,3441.0,3071.0,3600.0,3427.0,2716.0,3007.0,3248.0,1.29,9.76,2.16,-0.16,-0.08,-0.19,1.0,s
3371.0,3451.0,3061.0,3647.0,3429.0,2720.0,3007.0,3263.0,1.09,9.87,2.11,-0.13,0.01,-0.1,1.0,s
3367.0,3463.0,3061.0,3665.0,3414.0,2720.0,3001.0,3257.0,1.1,9.83,2.11,-0.04,-0.11,-0.11,1.0,s
3347.0,3471.0,3066.0,3623.0,3427.0,2701.0,3007.0,3265.0,1.3,9.71,2.41,0.11,-0.29,-0.11,1.0,s
3307.0,3555.0,3041.0,3536.0,3439.0,2701.0,3037.0,3280.0,1.07,10.04,2.03,0.39,-0.35,-0.13,1.0,s
3280.0,3602.0,3040.0,3461.0,3456.0,2707.0,3056.0,3299.0,1.23,9.94,1.63,0.09,-0.13,-0.13,1.0,s
3261.0,3613.0,3031.0,3464.0,3458.0,2717.0,3067.0,3312.0,0.86,9.92,1.68,-0.07,0.12,-0.1,1.0,s
3279.0,3619.0,3035.0,3483.0,3456.0,2730.0,3056.0,3316.0,1.05,9.98,1.62,-0.12,-0.21,-0.01,1.0,s
3263.0,3632.0,3030.0,3509.0,3455.0,2733.0,3081.0,3310.0,1.36,9.91,1.73,-0.12,-0.18,-0.04,1.0,s
3264.0,3635.0,3024.0,3505.0,3463.0,2731.0,3071.0,3302.0,1.36,9.99,1.88,-0.07,0.0,-0.09,1.0,s
3266.0,3621.0,3021.0,3495.0,3472.0,2737.0,3062.0,3300.0,0.96,9.87,1.88,-0.11,-0.04,-0.08,1.0,s
3267.0,3639.0,3039.0,3529.0,3454.0,2727.0,3061.0,3312.0,1.17,9.81,1.95,-0.02,0.03,-0.14,1.0,s
3274.0,3618.0,3034.0,3538.0,3467.0,2719.0,3055.0,3282.0,0.8,9.96,1.75,-0.21,0.21,-0.1,1.0,s
3275.0,3606.0,3040.0,3530.0,3472.0,2711.0,3031.0,3260.0,0.75,9.78,1.96,-0.21,0.12,-0.06,1.0,s
3264.0,3610.0,3047.0,3539.0,3447.0,2717.0,3031.0,3263.0,1.11,9.94,1.95,-0.21,0.15,-0.09,1.0,s
3282.0,3617.0,3043.0,3519.0,3440.0,2723.0,3025.0,3269.0,0.75,9.76,1.95,-0.18,0.12,-0.08,1.0,s
3274.0,3609.0,3039.0,3493.0,3433.0,2725.0,3019.0,3265.0,0.93,9.98,1.91,-0.18,0.04,-0.12,1.0,s
3264.0,3621.0,3039.0,3531.0,3428.0,2713.0,3034.0,3262.0,0.75,9.77,2.42,-0.24,0.05,-0.1,1.0,s
3257.0,3610.0,3035.0,3578.0,3420.0,2718.0,3017.0,3265.0,0.77,9.68,2.53,-0.15,0.03,0.02,1.0,s
3277.0,3608.0,3039.0,3605.0,3415.0,2705.0,3018.0,3264.0,0.78,9.76,2.56,0.01,0.03,-0.0,1.0,s
3285.0,3557.0,3046.0,3643.0,3414.0,2715.0,3019.0,3265.0,0.81,9.74,2.43,0.0,-0.01,-0.02,1.0,s
3280.0,3596.0,3047.0,3650.0,3436.0,2717.0,3029.0,3261.0,0.86,9.74,2.38,0.09,0.04,0.03,1.0,s
3275.0,3613.0,3055.0,3619.0,3422.0,2734.0,3031.0,3261.0,0.95,9.69,2.48,0.18,0.02,0.04,1.0,s
3277.0,3614.0,3024.0,3568.0,3435.0,2739.0,3029.0,3270.0,0.97,9.81,2.09,0.28,0.05,0.05,1.0,s
3291.0,3610.0,3040.0,3537.0,3436.0,2757.0,3043.0,3271.0,1.03,10.02,1.64,0.11,0.05,0.01,1.0,s
3277.0,3626.0,3028.0,3538.0,3440.0,2751.0,3040.0,3267.0,1.11,10.01,1.45,-0.04,-0.06,-0.03,1.0,s
3267.0,3622.0,3050.0,3578.0,3449.0,2758.0,3030.0,3280.0,1.07,9.89,1.61,-0.12,-0.05,-0.03,1.0,s
3262.0,3598.0,3043.0,3627.0,3441.0,2751.0,3043.0,3278.0,1.1,9.86,1.89,-0.08,0.02,-0.08,1.0,s
3270.0,3600.0,3045.0,3687.0,3434.0,2738.0,3039.0,3272.0,0.85,9.85,1.85,-0.04,0.03,-0.07,1.0,s
3283.0,3569.0,3057.0,3726.0,3431.0,2733.0,3047.0,3267.0,0.94,9.94,1.77,-0.03,0.03,-0.08,1.0,s
3270.0,3530.0,3040.0,3792.0,3423.0,2728.0,3039.0,3255.0,0.89,9.84,1.83,-0.16,0.03,-0.06,1.0,s
3280.0,3543.0,3045.0,3860.0,3395.0,2719.0,3030.0,3239.0,1.15,9.89,2.0,-0.01,0.03,-0.12,1.0,s
3275.0,3524.0,3056.0,3920.0,3389.0,2718.0,3053.0,3239.0,0.86,9.83,1.91,-0.08,-0.02,-0.06,1.0,s
3278.0,3536.0,3056.0,3938.0,3403.0,2720.0,3041.0,3227.0,1.04,10.01,1.91,-0.05,0.02,-0.05,1.0,s
3280.0,3513.0,3051.0,3965.0,3408.0,2720.0,3029.0,3227.0,0.87,9.9,1.9,-0.11,-0.01,-0.06,1.0,s
3270.0,3543.0,3050.0,4009.0,3405.0,2723.0,3029.0,3167.0,0.82,9.9,1.91,-0.03,0.03,-0.06,1.0,s
3252.0,3542.0,3051.0,4033.0,3409.0,2722.0,3014.0,3234.0,0.83,9.82,2.02,-0.0,-0.0,-0.05,1.0,s
3251.0,3572.0,3047.0,4018.0,3409.0,2735.0,3045.0,3243.0,0.91,9.82,1.94,0.1,0.01,-0.04,1.0,s
3269.0,3600.0,3052.0,3953.0,3427.0,2741.0,3050.0,3226.0,0.91,9.93,1.72,0.16,0.03,-0.05,1.0,s
3266.0,3632.0,3053.0,3837.0,3449.0,2743.0,3030.0,3233.0,0.76,10.04,1.39,-0.04,-0.05,-0.06,1.0,s
3271.0,3607.0,3047.0,3734.0,3439.0,2754.0,3026.0,3217.0,0.79,9.88,1.46,-0.1,-0.1,-0.05,1.0,s
3265.0,3617.0,3043.0,3669.0,3438.0,2746.0,3026.0,3240.0,0.51,9.86,1.64,-0.2,-0.18,-0.07,1.0,s
3264.0,3568.0,3056.0,3609.0,3440.0,2755.0,3021.0,3247.0,1.15,10.06,1.75,-0.2,-0.23,-0.09,1.0,s
3255.0,3517.0,3056.0,3551.0,3440.0,2755.0,3021.0,3263.0,0.79,10.03,1.65,-0.22,0.01,0.02,1.0,s
3263.0,3491.0,3056.0,3437.0,3441.0,2756.0,3018.0,3235.0,0.93,9.87,1.99,-0.25,-0.03,0.05,1.0,s
3248.0,3483.0,3054.0,3362.0,3438.0,2768.0,3011.0,3248.0,0.91,9.73,2.12,-0.25,0.09,0.09,1.0,s
3249.0,3513.0,3056.0,3383.0,3438.0,2785.0,3023.0,3269.0,1.17,9.86,2.13,-0.02,0.03,-0.04,1.0,s
3254.0,3505.0,3051.0,3419.0,3456.0,2775.0,3024.0,3262.0,1.06,9.85,2.09,-0.05,0.06,-0.07,1.0,s
3249.0,3493.0,3058.0,3435.0,3441.0,2784.0,3018.0,3268.0,0.85,9.9,1.98,-0.08,0.02,-0.07,1.0,s
3263.0,3529.0,3056.0,3461.0,3442.0,2773.0,3023.0,3278.0,0.92,9.8,2.14,-0.11,-0.02,-0.03,1.0,s
3253.0,3493.0,3063.0,3476.0,3450.0,2771.0,3019.0,3263.0,1.0,9.8,2.22,-0.01,0.03,-0.04,1.0,s
3264.0,3506.0,3063.0,3482.0,3443.0,2797.0,3035.0,3262.0,1.08,9.8,2.2,0.11,0.02,-0.05,1.0,s
3243.0,3489.0,3070.0,3467.0,3443.0,2803.0,3023.0,3273.0,1.07,9.95,1.86,0.13,0.05,-0.08,1.0,s
3248.0,3497.0,3056.0,3439.0,3445.0,2800.0,3029.0,3280.0,0.93,9.93,1.64,-0.02,-0.03,-0.05,1.0,s
3266.0,3494.0,3061.0,3453.0,3456.0,2795.0,3024.0,3284.0,0.85,9.94,1.74,-0.04,-0.03,-0.05,1.0,s
3274.0,3512.0,3062.0,3491.0,3443.0,2807.0,3029.0,3282.0,0.97,9.96,1.75,-0.09,-0.04,-0.05,1.0,s
3266.0,3506.0,3061.0,3520.0,3455.0,2799.0,3026.0,3270.0,0.96,9.91,1.88,-0.07,-0.02,-0.08,1.0,s
3262.0,3495.0,3069.0,3583.0,3446.0,2778.0,3027.0,3274.0,0.82,9.83,1.96,-0.1,-0.06,-0.08,1.0,s
3267.0,3495.0,3055.0,3718.0,3445.0,2749.0,3033.0,3276.0,0.68,9.86,2.02,0.02,-0.13,-0.08,1.0,s
3270.0,3502.0,3062.0,3843.0,3440.0,2736.0,3035.0,3289.0,1.07,10.03,1.68,-0.07,-0.25,-0.04,1.0,s
3265.0,3485.0,3056.0,3875.0,3450.0,2739.0,3035.0,3280.0,1.32,9.99,1.84,-0.05,0.0,-0.03,1.0,s
3257.0,3493.0,3055.0,3866.0,3448.0,2743.0,3025.0,3284.0,0.86,9.92,1.88,-0.0,0.04,-0.05,1.0,s
3262.0,3491.0,3053.0,3879.0,3435.0,2739.0,3034.0,3297.0,0.9,9.97,1.7,-0.03,0.01,-0.07,1.0,s
3259.0,3477.0,3056.0,3903.0,3438.0,2737.0,3036.0,3293.0,0.73,9.93,1.67,-0.11,0.04,-0.04,1.0,s
3254.0,3494.0,3059.0,4022.0,3440.0,2721.0,3026.0,3291.0,0.84,9.92,1.84,-0.13,0.02,-0.02,1.0,s
3265.0,3494.0,3056.0,4028.0,3439.0,2736.0,3023.0,3283.0,0.98,9.96,1.86,-0.1,0.0,-0.02,1.0,s
3255.0,3488.0,3059.0,4006.0,3440.0,2740.0,3029.0,3285.0,1.01,9.91,1.84,-0.11,0.0,-0.04,1.0,s
3261.0,3491.0,3067.0,3865.0,3447.0,2753.0,3029.0,3282.0,0.88,9.87,1.88,-0.08,0.02,-0.01,1.0,s
3250.0,3507.0,3057.0,3707.0,3453.0,2759.0,3024.0,3290.0,0.94,9.92,1.88,-0.01,0.06,-0.03,1.0,s
3251.0,3500.0,3053.0,3583.0,3456.0,2777.0,3025.0,3287.0,0.61,9.91,1.74,-0.02,0.05,0.01,1.0,s
3253.0,3519.0,3061.0,3566.0,3455.0,2784.0,3022.0,3287.0,0.92,9.89,1.8,-0.06,0.04,0.01,1.0,s
3267.0,3522.0,3051.0,3578.0,3447.0,2786.0,3027.0,3287.0,0.83,9.88,1.85,-0.1,0.13,0.03,1.0,s
3253.0,3520.0,3059.0,3583.0,3451.0,2793.0,3030.0,3292.0,1.11,10.03,1.76,-0.05,0.07,0.01,1.0,s
