hall_1,hall_2,hall_3,flex_t,flex_i,flex_m,flex_r,flex_p,accel_x,accel_y,accel_z,gyro_x,gyro_y,gyro_z,hand,sign
2282.0,4095.0,912.0,3205.0,2809.0,2241.0,2622.0,2678.0,-2.88,9.49,5.83,-0.03,0.03,-0.24,0.0,s
2287.0,4095.0,919.0,3209.0,2814.0,2245.0,2621.0,2678.0,-3.41,9.41,6.51,0.04,-0.18,-0.29,0.0,s
2275.0,4095.0,919.0,3207.0,2813.0,2251.0,2625.0,2683.0,-3.78,9.45,6.54,0.22,-0.06,-0.15,0.0,s
2287.0,4095.0,925.0,3201.0,2812.0,2249.0,2624.0,2684.0,-3.08,9.62,6.01,0.38,-0.22,-0.1,0.0,s
2283.0,4095.0,916.0,3210.0,2806.0,2247.0,2619.0,2686.0,-2.85,9.73,5.52,0.39,-0.21,-0.17,0.0,s
2274.0,4095.0,912.0,3213.0,2806.0,2254.0,2624.0,2685.0,-2.99,9.42,5.3,0.36,-0.24,-0.26,0.0,s
2280.0,4095.0,914.0,3211.0,2810.0,2259.0,2622.0,2685.0,-3.3,9.06,5.63,0.39,-0.33,-0.26,0.0,s
2282.0,4095.0,913.0,3214.0,2809.0,2260.0,2620.0,2687.0,-2.86,9.32,5.4,0.43,-0.45,-0.19,0.0,s
2285.0,4095.0,912.0,3213.0,2815.0,2265.0,2626.0,2687.0,-2.74,8.9,5.4,0.46,-0.39,-0.18,0.0,s
2288.0,4095.0,912.0,3214.0,2810.0,2258.0,2619.0,2685.0,-2.67,8.81,4.83,0.45,-0.54,-0.24,0.0,s
2278.0,4095.0,914.0,3211.0,2810.0,2259.0,2626.0,2695.0,-2.72,8.81,4.62,0.32,-0.43,-0.34,0.0,s
2279.0,4095.0,913.0,3212.0,2806.0,2256.0,2624.0,2695.0,-3.7,8.92,4.72,0.26,-0.51,-0.35,0.0,s
2279.0,4095.0,912.0,3216.0,2809.0,2256.0,2624.0,2698.0,-3.73,8.99,4.91,0.2,-0.53,-0.26,0.0,s
2279.0,4095.0,917.0,3216.0,2812.0,2256.0,2621.0,2691.0,-3.24,9.01,5.1,0.16,-0.62,-0.24,0.0,s
2277.0,4095.0,914.0,3216.0,2815.0,2258.0,2622.0,2695.0,-3.12,8.97,5.29,0.15,-0.62,-0.32,0.0,s
2267.0,4095.0,908.0,3216.0,2813.0,2256.0,2619.0,2691.0,-3.56,8.92,5.42,0.18,-0.65,-0.31,0.0,s
2267.0,4095.0,919.0,3221.0,2814.0,2256.0,2621.0,2693.0,-4.13,8.92,5.4,0.13,-0.72,-0.27,0.0,s
2255.0,4095.0,923.0,3219.0,2816.0,2256.0,2624.0,2695.0,-2.68,9.15,5.21,0.32,-1.1,-0.41,0.0,s
2247.0,4095.0,916.0,3216.0,2815.0,2257.0,2624.0,2701.0,-3.95,9.03,5.35,0.12,-0.47,-0.37,0.0,s
2238.0,4095.0,912.0,3218.0,2816.0,2259.0,2623.0,2704.0,-4.11,8.76,5.67,0.16,-0.68,-0.4,0.0,s
2243.0,4095.0,912.0,3194.0,2821.0,2256.0,2621.0,2702.0,-4.05,8.38,5.92,0.08,-0.44,-0.34,0.0,s
2241.0,4095.0,920.0,3221.0,2823.0,2254.0,2623.0,2704.0,-4.09,8.09,5.95,0.1,-0.26,-0.35,0.0,s
2237.0,4095.0,912.0,3218.0,2815.0,2256.0,2626.0,2705.0,-4.16,8.18,5.9,-0.01,-0.07,-0.29,0.0,s
2235.0,4095.0,918.0,3226.0,2826.0,2261.0,2630.0,2711.0,-5.1,8.62,5.75,-0.02,0.02,-0.31,0.0,s
2240.0,4095.0,912.0,3229.0,2827.0,2260.0,2624.0,2705.0,-5.17,8.73,5.86,-0.07,-0.12,-0.23,0.0,s
2233.0,4095.0,912.0,3227.0,2821.0,2259.0,2627.0,2709.0,-5.12,8.96,5.74,-0.16,0.2,-0.16,0.0,s
2230.0,4095.0,911.0,3225.0,2821.0,2258.0,2624.0,2706.0,-4.73,8.78,5.88,-0.1,0.07,-0.08,0.0,s
2226.0,4095.0,915.0,3225.0,2823.0,2259.0,2626.0,2706.0,-4.55,8.67,5.76,-0.16,0.32,-0.07,0.0,s
2229.0,4095.0,911.0,3228.0,2823.0,2259.0,2626.0,2704.0,-4.38,8.66,5.77,-0.16,0.26,-0.1,0.0,s
2237.0,4095.0,918.0,3226.0,2831.0,2266.0,2628.0,2711.0,-4.4,8.74,5.86,-0.18,0.36,-0.03,0.0,s
2242.0,4095.0,912.0,3223.0,2822.0,2265.0,2628.0,2706.0,-4.08,8.83,5.82,-0.14,0.42,-0.01,0.0,s
2230.0,4095.0,917.0,3227.0,2823.0,2259.0,2625.0,2709.0,-4.02,8.71,5.84,-0.08,0.31,0.06,0.0,s
2233.0,4095.0,919.0,3222.0,2823.0,2260.0,2624.0,2705.0,-3.57,8.88,5.7,-0.08,0.27,0.0,0.0,s
2240.0,4095.0,923.0,3229.0,2821.0,2265.0,2624.0,2707.0,-3.85,8.92,5.55,-0.08,0.34,0.03,0.0,s
2243.0,4095.0,915.0,3222.0,2826.0,2270.0,2628.0,2708.0,-3.56,9.04,5.48,-0.09,0.29,-0.01,0.0,s
2239.0,4095.0,921.0,3227.0,2821.0,2265.0,2624.0,2709.0,-3.76,9.01,5.66,-0.1,0.33,0.01,0.0,s
2235.0,4095.0,911.0,3221.0,2813.0,2263.0,2623.0,2709.0,-3.49,9.21,5.63,-0.06,0.22,0.02,0.0,s
2235.0,4095.0,912.0,3229.0,2822.0,2271.0,2625.0,2711.0,-3.58,9.06,5.79,-0.04,0.27,0.03,0.0,s
2240.0,4095.0,912.0,3218.0,2821.0,2270.0,2628.0,2708.0,-3.4,9.11,5.51,0.04,0.15,0.02,0.0,s
2249.0,4095.0,922.0,3228.0,2819.0,2269.0,2622.0,2704.0,-3.55,8.99,5.35,-0.0,0.29,0.03,0.0,s
2231.0,4095.0,907.0,3229.0,2824.0,2270.0,2625.0,2704.0,-3.4,9.05,5.15,0.06,0.07,0.03,0.0,s
2236.0,4095.0,910.0,3230.0,2824.0,2267.0,2624.0,2705.0,-3.11,8.92,5.32,-0.05,0.17,0.04,0.0,s
2227.0,4095.0,913.0,3226.0,2823.0,2273.0,2624.0,2713.0,-3.09,9.05,5.42,-0.01,0.03,0.05,0.0,s
2232.0,4095.0,914.0,3224.0,2823.0,2271.0,2624.0,2704.0,-2.98,8.89,5.66,0.0,-0.3,0.13,0.0,s
2224.0,4095.0,915.0,3227.0,2820.0,2268.0,2625.0,2704.0,-3.02,9.08,5.29,-0.06,0.34,0.04,0.0,s
2225.0,4095.0,912.0,3223.0,2823.0,2269.0,2624.0,2704.0,-2.36,8.97,5.1,-0.2,0.82,-0.08,0.0,s
2223.0,4095.0,923.0,3226.0,2827.0,2271.0,2625.0,2707.0,-3.44,9.06,5.26,-0.29,0.46,0.05,0.0,s
2227.0,4095.0,909.0,3229.0,2822.0,2272.0,2625.0,2704.0,-2.13,9.53,5.1,-0.21,-0.12,-0.11,0.0,s
2225.0,4095.0,920.0,3231.0,2831.0,2277.0,2629.0,2709.0,-2.72,9.59,5.66,-0.35,0.19,-0.05,0.0,s
2224.0,4095.0,918.0,3231.0,2825.0,2270.0,2624.0,2709.0,-2.75,9.83,5.95,-0.15,-0.28,-0.05,0.0,s
2227.0,4095.0,912.0,3200.0,2830.0,2272.0,2623.0,2705.0,-2.73,9.87,6.12,-0.08,-0.11,-0.07,0.0,s
2226.0,4095.0,914.0,3200.0,2825.0,2267.0,2622.0,2708.0,-1.77,9.78,6.07,0.17,-0.65,-0.1,0.0,s
2224.0,4095.0,917.0,3204.0,2827.0,2271.0,2624.0,2709.0,-2.37,9.58,5.86,0.13,-0.11,-0.19,0.0,s
2224.0,4095.0,915.0,3203.0,2829.0,2271.0,2624.0,2704.0,-2.55,9.49,5.81,0.2,-0.43,-0.25,0.0,s
2218.0,4095.0,912.0,3202.0,2832.0,2276.0,2624.0,2715.0,-2.94,9.32,5.74,0.17,-0.25,-0.24,0.0,s
2218.0,4095.0,912.0,3205.0,2832.0,2275.0,2627.0,2704.0,-2.82,9.3,5.67,0.11,-0.13,-0.25,0.0,s
2217.0,4092.0,922.0,3203.0,2831.0,2274.0,2624.0,2710.0,-2.77,9.23,5.84,0.14,-0.19,-0.18,0.0,s
2207.0,4095.0,919.0,3205.0,2830.0,2274.0,2624.0,2711.0,-2.47,9.18,5.71,0.11,-0.2,-0.24,0.0,s
2221.0,4095.0,913.0,3209.0,2831.0,2273.0,2624.0,2706.0,-2.51,9.3,5.69,0.08,-0.14,-0.25,0.0,s
2207.0,4095.0,912.0,3209.0,2829.0,2273.0,2624.0,2706.0,-2.59,9.33,5.82,0.06,-0.23,-0.33,0.0,s
2212.0,4095.0,922.0,3201.0,2830.0,2273.0,2624.0,2709.0,-2.61,9.46,5.73,0.11,-0.32,-0.33,0.0,s
2211.0,4095.0,913.0,3207.0,2834.0,2274.0,2624.0,2707.0,-3.01,9.34,5.77,0.1,-0.18,-0.32,0.0,s
2218.0,4095.0,919.0,3201.0,2831.0,2271.0,2624.0,2710.0,-2.97,9.45,5.6,0.15,-0.29,-0.33,0.0,s
2211.0,4095.0,912.0,3203.0,2832.0,2273.0,2624.0,2713.0,-3.02,9.34,5.63,0.18,-0.32,-0.3,0.0,s
2210.0,4095.0,923.0,3206.0,2831.0,2272.0,2624.0,2711.0,-3.07,9.15,5.73,0.14,-0.27,-0.29,0.0,s
2204.0,4095.0,910.0,3206.0,2832.0,2277.0,2625.0,2710.0,-3.01,9.3,5.86,0.22,-0.37,-0.28,0.0,s
2207.0,4095.0,915.0,3203.0,2832.0,2277.0,2627.0,2714.0,-2.93,9.28,5.7,0.2,-0.36,-0.29,0.0,s
2203.0,4095.0,919.0,3200.0,2832.0,2275.0,2624.0,2714.0,-2.86,9.24,5.68,0.2,-0.31,-0.35,0.0,s
2199.0,4095.0,912.0,3202.0,2833.0,2273.0,2630.0,2714.0,-3.33,9.17,5.72,0.2,-0.37,-0.29,0.0,s
2201.0,4095.0,912.0,3210.0,2833.0,2272.0,2624.0,2711.0,-3.06,9.08,5.71,0.25,-0.44,-0.33,0.0,s
2195.0,4095.0,911.0,3206.0,2835.0,2277.0,2625.0,2713.0,-3.38,9.21,5.66,0.24,-0.35,-0.25,0.0,s
2202.0,4095.0,910.0,3210.0,2838.0,2278.0,2625.0,2710.0,-3.15,8.99,5.52,0.25,-0.33,-0.32,0.0,s
2207.0,4095.0,914.0,3211.0,2832.0,2275.0,2625.0,2715.0,-3.07,9.0,5.17,0.24,-0.34,-0.36,0.0,s
2199.0,4095.0,914.0,3210.0,2833.0,2277.0,2625.0,2715.0,-3.52,9.0,5.35,0.2,-0.34,-0.29,0.0,s
2198.0,4095.0,919.0,3211.0,2832.0,2275.0,2627.0,2717.0,-3.69,8.93,5.51,0.2,-0.41,-0.29,0.0,s
2192.0,4095.0,912.0,3207.0,2837.0,2278.0,2631.0,2714.0,-3.73,8.93,5.49,0.18,-0.46,-0.23,0.0,s
2205.0,4095.0,918.0,3207.0,2836.0,2283.0,2627.0,2717.0,-3.62,8.96,5.56,0.15,-0.52,-0.3,0.0,s
2202.0,4095.0,922.0,3207.0,2833.0,2279.0,2625.0,2713.0,-3.99,8.76,5.75,0.1,-0.47,-0.27,0.0,s
2192.0,4086.0,912.0,3211.0,2832.0,2272.0,2626.0,2709.0,-3.76,8.94,5.73,0.12,-0.54,-0.24,0.0,s
2193.0,4095.0,910.0,3216.0,2844.0,2275.0,2630.0,2709.0,-3.97,8.69,5.96,0.08,-0.73,-0.23,0.0,s
2192.0,4090.0,924.0,3216.0,2838.0,2268.0,2623.0,2704.0,-3.71,8.75,6.07,0.21,-1.4,-0.2,0.0,s
2187.0,4095.0,916.0,3211.0,2837.0,2276.0,2628.0,2717.0,-2.61,8.95,5.69,0.12,-0.64,-0.34,0.0,s
2181.0,4095.0,919.0,3216.0,2839.0,2270.0,2624.0,2707.0,-3.66,8.83,5.87,-0.15,0.06,-0.27,0.0,s
2180.0,4094.0,914.0,3213.0,2845.0,2270.0,2629.0,2713.0,-3.93,8.81,6.29,-0.13,-0.35,-0.31,0.0,s
2182.0,4095.0,921.0,3215.0,2843.0,2267.0,2624.0,2718.0,-3.75,8.81,6.62,-0.11,-0.03,-0.28,0.0,s
2178.0,4095.0,927.0,3216.0,2845.0,2271.0,2626.0,2722.0,-4.2,8.7,6.68,-0.07,0.15,-0.22,0.0,s
2175.0,4095.0,913.0,3216.0,2846.0,2272.0,2625.0,2723.0,-4.08,8.82,6.51,0.02,-0.05,-0.19,0.0,s
2173.0,4085.0,922.0,3214.0,2844.0,2267.0,2625.0,2725.0,-4.23,8.74,6.43,-0.03,0.3,-0.17,0.0,s
2176.0,4083.0,919.0,3210.0,2846.0,2271.0,2627.0,2724.0,-4.27,8.79,6.09,-0.07,0.51,-0.15,0.0,s
2179.0,4095.0,922.0,3217.0,2850.0,2272.0,2624.0,2722.0,-4.03,8.93,5.92,-0.13,0.55,-0.13,0.0,s
2177.0,4091.0,912.0,3216.0,2851.0,2278.0,2629.0,2725.0,-4.34,8.59,6.16,-0.2,0.54,-0.11,0.0,s
2183.0,4095.0,922.0,3216.0,2849.0,2274.0,2624.0,2721.0,-4.65,8.48,6.17,-0.2,0.47,-0.12,0.0,s
2176.0,4095.0,918.0,3216.0,2850.0,2274.0,2626.0,2724.0,-3.57,8.85,5.82,-0.11,0.15,-0.09,0.0,s
2181.0,4095.0,917.0,3216.0,2853.0,2277.0,2625.0,2722.0,-4.14,8.78,5.85,-0.25,0.62,-0.05,0.0,s
2176.0,4095.0,916.0,3216.0,2850.0,2281.0,2628.0,2722.0,-3.81,8.94,6.0,-0.22,0.4,-0.06,0.0,s
2181.0,4077.0,917.0,3216.0,2849.0,2276.0,2629.0,2725.0,-3.59,8.9,6.2,-0.22,0.48,-0.08,0.0,s
2183.0,4091.0,927.0,3216.0,2854.0,2285.0,2631.0,2723.0,-3.98,8.77,6.15,-0.24,0.63,-0.13,0.0,s
2180.0,4083.0,923.0,3216.0,2848.0,2277.0,2627.0,2718.0,-3.98,8.84,6.12,-0.22,0.68,-0.13,0.0,s
2175.0,4095.0,919.0,3217.0,2848.0,2282.0,2629.0,2724.0,-3.8,8.72,6.23,-0.12,0.45,-0.1,0.0,s
2176.0,4082.0,913.0,3250.0,2854.0,2282.0,2637.0,2721.0,-4.06,8.75,6.07,-0.1,0.5,-0.07,0.0,s
2180.0,4095.0,912.0,3247.0,2847.0,2277.0,2627.0,2722.0,-4.5,8.6,5.87,-0.04,0.39,-0.07,0.0,s
2182.0,4080.0,909.0,3253.0,2853.0,2281.0,2630.0,2720.0,-4.09,8.72,5.48,-0.05,0.42,-0.08,0.0,s
2181.0,4095.0,926.0,3249.0,2857.0,2283.0,2634.0,2723.0,-4.61,8.66,5.49,-0.17,0.64,-0.01,0.0,s
2192.0,4095.0,914.0,3247.0,2849.0,2275.0,2628.0,2704.0,-3.21,8.96,5.36,-0.16,0.94,-0.17,0.0,s
2185.0,4080.0,914.0,3222.0,2851.0,2277.0,2625.0,2703.0,-5.66,8.66,5.71,-0.43,1.7,0.41,0.0,s
2184.0,4055.0,923.0,3216.0,2845.0,2279.0,2627.0,2691.0,-3.75,8.52,5.8,-0.08,0.32,0.2,0.0,s
2192.0,4087.0,921.0,3230.0,2853.0,2283.0,2631.0,2699.0,-2.99,9.13,5.17,0.01,0.19,0.04,0.0,s
2192.0,4078.0,914.0,3231.0,2854.0,2283.0,2631.0,2706.0,-4.08,9.01,5.1,-0.12,0.22,-0.05,0.0,s
2191.0,4080.0,920.0,3227.0,2851.0,2281.0,2633.0,2708.0,-4.29,8.98,5.29,-0.18,0.19,-0.13,0.0,s
2191.0,4067.0,921.0,3227.0,2851.0,2283.0,2633.0,2715.0,-4.27,8.79,5.58,-0.17,0.33,-0.07,0.0,s
2174.0,4057.0,913.0,3225.0,2854.0,2278.0,2638.0,2719.0,-3.81,9.02,5.29,-0.12,0.05,-0.05,0.0,s
2191.0,4063.0,919.0,3231.0,2859.0,2286.0,2640.0,2719.0,-4.11,8.92,5.09,-0.22,0.46,-0.02,0.0,s
2192.0,4090.0,915.0,3234.0,2858.0,2287.0,2638.0,2721.0,-3.21,9.04,5.35,-0.23,0.08,-0.08,0.0,s
2176.0,4061.0,915.0,3229.0,2852.0,2281.0,2637.0,2730.0,-4.78,8.63,6.18,-0.27,0.52,0.08,0.0,s
2191.0,4073.0,917.0,3238.0,2859.0,2279.0,2635.0,2725.0,-4.44,8.61,6.0,0.01,0.22,0.56,0.0,s
2182.0,4073.0,917.0,3233.0,2843.0,2275.0,2633.0,2727.0,-2.17,9.04,5.49,0.01,0.31,0.57,0.0,s
2183.0,4067.0,917.0,3235.0,2853.0,2278.0,2634.0,2733.0,-1.78,9.4,5.22,0.01,0.37,0.44,0.0,s
2192.0,4067.0,917.0,3234.0,2848.0,2277.0,2631.0,2727.0,-1.46,9.7,4.86,-0.07,0.21,0.11,0.0,s
2186.0,4061.0,912.0,3233.0,2850.0,2274.0,2630.0,2728.0,-1.56,9.71,4.98,-0.2,0.03,-0.12,0.0,s
2179.0,4051.0,921.0,3233.0,2854.0,2274.0,2631.0,2726.0,-1.88,9.39,5.45,-0.22,-0.01,-0.25,0.0,s
2181.0,4054.0,920.0,3229.0,2853.0,2281.0,2633.0,2721.0,-2.84,9.29,5.58,-0.22,0.07,-0.21,0.0,s
2187.0,4035.0,924.0,3234.0,2854.0,2277.0,2632.0,2720.0,-2.19,9.42,5.61,-0.23,-0.4,-0.19,0.0,s
2188.0,4038.0,916.0,3238.0,2861.0,2286.0,2624.0,2706.0,-2.86,9.35,6.19,-0.19,-0.38,-0.12,0.0,s
2176.0,4044.0,917.0,3235.0,2855.0,2277.0,2623.0,2721.0,-2.37,9.31,6.47,0.01,-1.0,-0.12,0.0,s
2179.0,4011.0,925.0,3231.0,2854.0,2281.0,2625.0,2723.0,-2.58,9.76,6.01,0.04,-0.05,-0.17,0.0,s
2176.0,4039.0,918.0,3239.0,2861.0,2281.0,2625.0,2723.0,-2.22,9.79,5.92,-0.04,-0.06,-0.14,0.0,s
2177.0,4029.0,926.0,3247.0,2854.0,2282.0,2624.0,2726.0,-1.84,9.8,5.99,-0.02,-0.12,-0.25,0.0,s
2179.0,4019.0,932.0,3241.0,2860.0,2283.0,2630.0,2733.0,-1.8,9.56,6.11,0.05,-0.05,-0.34,0.0,s
2175.0,4023.0,934.0,3232.0,2855.0,2283.0,2628.0,2727.0,-2.52,9.33,6.29,0.03,-0.1,-0.4,0.0,s
2172.0,4037.0,915.0,3239.0,2857.0,2287.0,2634.0,2732.0,-2.61,9.27,6.41,0.13,-0.28,-0.35,0.0,s
2176.0,4017.0,924.0,3238.0,2862.0,2288.0,2630.0,2730.0,-2.65,9.24,6.37,0.16,-0.32,-0.29,0.0,s
2137.0,4022.0,914.0,3191.0,2832.0,2273.0,2624.0,2734.0,-2.78,9.26,6.07,0.11,-0.33,-0.25,0.0,s
2105.0,4039.0,911.0,3169.0,2843.0,2285.0,2624.0,2733.0,-2.85,9.14,6.13,0.16,-0.29,-0.33,0.0,s
2105.0,4018.0,917.0,3184.0,2851.0,2288.0,2624.0,2736.0,-2.95,9.26,5.98,0.08,-0.3,-0.34,0.0,s
2109.0,4019.0,922.0,3197.0,2863.0,2285.0,2624.0,2734.0,-3.07,9.2,6.35,0.1,-0.3,-0.26,0.0,s
2109.0,4019.0,927.0,3195.0,2861.0,2290.0,2624.0,2734.0,-2.79,9.17,6.37,0.16,-0.31,-0.27,0.0,s
2112.0,4015.0,923.0,3201.0,2864.0,2293.0,2624.0,2735.0,-2.5,9.28,6.11,0.21,-0.44,-0.29,0.0,s
2112.0,4020.0,919.0,3213.0,2869.0,2294.0,2625.0,2736.0,-3.12,9.08,6.32,0.16,-0.32,-0.3,0.0,s
2099.0,4016.0,930.0,3214.0,2870.0,2298.0,2625.0,2739.0,-2.97,9.24,6.15,0.2,-0.56,-0.31,0.0,s
2105.0,4031.0,914.0,3215.0,2871.0,2299.0,2627.0,2736.0,-3.09,9.11,6.28,0.15,-0.33,-0.33,0.0,s
2111.0,4013.0,919.0,3223.0,2879.0,2295.0,2625.0,2734.0,-2.95,9.11,6.5,0.18,-0.63,-0.34,0.0,s
2102.0,4009.0,919.0,3221.0,2874.0,2297.0,2626.0,2735.0,-2.97,9.18,6.34,0.18,-0.38,-0.4,0.0,s
2112.0,4023.0,931.0,3220.0,2876.0,2295.0,2624.0,2734.0,-3.31,9.38,6.3,0.29,-0.42,-0.28,0.0,s
2107.0,3997.0,926.0,3225.0,2871.0,2295.0,2626.0,2736.0,-2.65,9.14,5.9,0.45,-0.52,-0.22,0.0,s
2109.0,4014.0,931.0,3221.0,2870.0,2298.0,2627.0,2738.0,-2.92,9.17,5.51,0.35,-0.46,-0.35,0.0,s
2103.0,4003.0,930.0,3223.0,2867.0,2295.0,2625.0,2736.0,-3.27,9.19,5.52,0.27,-0.46,-0.4,0.0,s
2111.0,4016.0,929.0,3223.0,2867.0,2298.0,2624.0,2737.0,-3.69,9.16,5.69,0.18,-0.43,-0.37,0.0,s
2107.0,4019.0,914.0,3235.0,2880.0,2299.0,2623.0,2736.0,-3.71,9.06,6.09,0.21,-0.44,-0.24,0.0,s
2110.0,4016.0,919.0,3233.0,2879.0,2303.0,2624.0,2739.0,-3.32,8.91,6.33,0.24,-0.45,-0.23,0.0,s
2104.0,4005.0,915.0,3238.0,2881.0,2299.0,2624.0,2737.0,-2.77,8.96,5.94,0.28,-0.44,-0.34,0.0,s
2097.0,4001.0,923.0,3235.0,2877.0,2298.0,2623.0,2739.0,-3.47,8.87,5.86,0.23,-0.48,-0.42,0.0,s
2101.0,4001.0,924.0,3230.0,2870.0,2301.0,2623.0,2737.0,-3.79,8.77,5.83,0.16,-0.41,-0.39,0.0,s
2110.0,4016.0,918.0,3235.0,2875.0,2299.0,2623.0,2737.0,-3.23,8.93,5.85,0.19,-0.5,-0.39,0.0,s
2105.0,4000.0,925.0,3239.0,2879.0,2303.0,2624.0,2737.0,-3.72,8.68,5.95,0.13,-0.44,-0.3,0.0,s
2101.0,3983.0,917.0,3234.0,2867.0,2297.0,2624.0,2739.0,-3.04,8.84,5.57,0.1,-0.4,-0.34,0.0,s
2096.0,3998.0,919.0,3241.0,2875.0,2299.0,2615.0,2737.0,-3.85,8.86,5.99,0.04,-0.4,-0.45,0.0,s
2101.0,4010.0,918.0,3243.0,2877.0,2303.0,2624.0,2741.0,-4.49,8.72,6.51,0.05,-0.31,-0.39,0.0,s
2094.0,4001.0,921.0,3236.0,2869.0,2294.0,2622.0,2738.0,-4.3,8.8,6.16,0.08,-0.23,-0.29,0.0,s
2093.0,3994.0,928.0,3237.0,2870.0,2295.0,2619.0,2736.0,-3.81,8.64,5.91,0.03,-0.33,-0.3,0.0,s
2107.0,3986.0,917.0,3236.0,2874.0,2303.0,2626.0,2739.0,-3.59,8.45,6.06,-0.09,-0.23,-0.45,0.0,s
2091.0,4007.0,929.0,3239.0,2874.0,2295.0,2621.0,2735.0,-4.62,8.38,6.63,-0.13,-0.21,-0.45,0.0,s
2091.0,4019.0,933.0,3246.0,2874.0,2295.0,2625.0,2727.0,-4.92,8.43,6.55,-0.05,-0.11,-0.28,0.0,s
2095.0,3999.0,929.0,3239.0,2875.0,2297.0,2623.0,2736.0,-4.83,8.55,6.56,-0.02,-0.12,-0.16,0.0,s
2098.0,3989.0,930.0,3238.0,2871.0,2291.0,2622.0,2735.0,-4.7,8.72,6.37,-0.06,0.08,-0.15,0.0,s
2089.0,4000.0,921.0,3241.0,2875.0,2300.0,2628.0,2736.0,-4.47,8.8,6.39,-0.07,0.08,-0.15,0.0,s
2096.0,3984.0,912.0,3247.0,2873.0,2299.0,2627.0,2736.0,-4.65,8.9,6.17,-0.06,0.08,-0.12,0.0,s
2094.0,3995.0,927.0,3243.0,2875.0,2304.0,2627.0,2737.0,-4.57,8.9,5.58,-0.03,-0.0,-0.11,0.0,s
2096.0,3984.0,925.0,3239.0,2869.0,2294.0,2626.0,2736.0,-4.47,8.62,5.91,-0.21,-0.01,-0.07,0.0,s
2087.0,3998.0,925.0,3242.0,2871.0,2295.0,2626.0,2734.0,-3.97,8.39,6.77,-0.2,-0.02,-0.01,0.0,s
2095.0,4007.0,926.0,3248.0,2873.0,2295.0,2626.0,2734.0,-3.86,8.36,6.87,-0.15,0.03,-0.08,0.0,s
2092.0,4002.0,926.0,3256.0,2877.0,2295.0,2629.0,2733.0,-3.86,8.27,7.04,-0.15,-0.03,-0.05,0.0,s
2092.0,4013.0,924.0,3249.0,2879.0,2303.0,2631.0,2735.0,-3.99,8.3,6.9,-0.16,0.03,-0.08,0.0,s
2101.0,3984.0,922.0,3248.0,2876.0,2301.0,2631.0,2736.0,-4.05,8.35,7.2,-0.17,0.03,-0.04,0.0,s
2095.0,3991.0,919.0,3252.0,2879.0,2304.0,2635.0,2734.0,-4.19,8.26,7.32,-0.18,0.07,-0.0,0.0,s
2095.0,4002.0,930.0,3250.0,2879.0,2305.0,2627.0,2737.0,-3.76,8.5,7.26,-0.17,0.09,0.0,0.0,s
2096.0,4016.0,917.0,3251.0,2881.0,2301.0,2626.0,2731.0,-3.92,8.36,7.67,-0.16,0.13,-0.01,0.0,s
2102.0,4006.0,918.0,3259.0,2880.0,2304.0,2629.0,2734.0,-3.77,8.43,7.68,-0.12,0.19,-0.01,0.0,s
2100.0,4008.0,929.0,3250.0,2881.0,2299.0,2628.0,2732.0,-3.68,8.48,7.53,-0.08,0.23,-0.03,0.0,s
2100.0,4012.0,923.0,3259.0,2880.0,2304.0,2629.0,2735.0,-3.64,8.53,7.36,0.01,0.14,-0.01,0.0,s
2103.0,3987.0,927.0,3257.0,2879.0,2306.0,2631.0,2737.0,-3.73,8.49,7.23,-0.02,0.29,-0.03,0.0,s
2096.0,3997.0,930.0,3257.0,2881.0,2303.0,2628.0,2735.0,-3.59,8.51,7.1,-0.03,0.22,-0.05,0.0,s
2102.0,3999.0,929.0,3252.0,2879.0,2308.0,2633.0,2738.0,-3.8,8.66,7.0,-0.06,0.29,-0.04,0.0,s
2101.0,3988.0,924.0,3263.0,2876.0,2303.0,2628.0,2736.0,-3.62,8.58,7.04,-0.06,0.15,-0.02,0.0,s
2103.0,4015.0,919.0,3260.0,2884.0,2305.0,2629.0,2733.0,-3.69,8.61,6.96,-0.09,0.32,0.0,0.0,s
2096.0,3985.0,925.0,3253.0,2878.0,2304.0,2630.0,2736.0,-3.43,8.45,6.99,-0.05,0.21,0.01,0.0,s
2105.0,4009.0,927.0,3261.0,2886.0,2310.0,2637.0,2734.0,-3.62,8.6,6.98,-0.11,0.34,0.01,0.0,s
2096.0,4003.0,921.0,3260.0,2879.0,2304.0,2627.0,2736.0,-3.5,8.66,6.92,-0.12,0.25,-0.01,0.0,s
2109.0,3999.0,918.0,3251.0,2879.0,2305.0,2629.0,2735.0,-3.58,8.79,6.96,-0.15,0.2,0.02,0.0,s
2102.0,4002.0,921.0,3259.0,2880.0,2305.0,2626.0,2736.0,-3.19,8.9,7.23,-0.13,0.18,0.01,0.0,s
2109.0,4001.0,918.0,3264.0,2890.0,2309.0,2628.0,2736.0,-3.48,8.66,7.51,-0.08,0.27,0.03,0.0,s
2096.0,4004.0,925.0,3264.0,2894.0,2314.0,2635.0,2736.0,-3.26,8.78,7.18,-0.01,0.22,0.04,0.0,s
2099.0,4015.0,924.0,3268.0,2890.0,2314.0,2630.0,2736.0,-3.25,8.89,7.07,-0.04,0.33,0.02,0.0,s
2101.0,3989.0,928.0,3264.0,2890.0,2311.0,2626.0,2735.0,-3.38,8.9,7.0,0.0,0.24,0.01,0.0,s
2107.0,3999.0,919.0,3264.0,2890.0,2314.0,2634.0,2739.0,-3.03,9.01,6.71,-0.02,0.27,-0.03,0.0,s
2096.0,3984.0,925.0,3259.0,2885.0,2309.0,2630.0,2736.0,-3.33,9.04,6.8,-0.07,0.31,-0.03,0.0,s
2103.0,3993.0,919.0,3264.0,2895.0,2309.0,2631.0,2736.0,-3.22,8.88,6.81,-0.03,0.23,0.0,0.0,s
2096.0,3984.0,915.0,3263.0,2882.0,2313.0,2633.0,2739.0,-3.13,8.84,6.85,-0.04,0.26,0.01,0.0,s
2101.0,3999.0,926.0,3267.0,2892.0,2314.0,2627.0,2736.0,-3.22,8.8,6.75,-0.03,0.24,0.01,0.0,s
2096.0,3984.0,929.0,3267.0,2891.0,2314.0,2627.0,2734.0,-2.66,9.11,6.58,-0.04,0.16,-0.01,0.0,s
2102.0,3998.0,922.0,3268.0,2891.0,2313.0,2630.0,2736.0,-2.91,9.01,6.97,-0.08,0.22,-0.01,0.0,s
2107.0,3984.0,919.0,3259.0,2890.0,2309.0,2634.0,2739.0,-2.84,8.96,7.05,-0.05,0.18,-0.02,0.0,s
2095.0,3989.0,921.0,3266.0,2887.0,2309.0,2631.0,2736.0,-2.72,9.0,6.94,-0.01,0.15,-0.03,0.0,s
2112.0,3984.0,919.0,3264.0,2883.0,2309.0,2627.0,2736.0,-2.61,9.05,6.83,0.06,0.14,-0.05,0.0,s
2096.0,3999.0,922.0,3265.0,2894.0,2315.0,2633.0,2738.0,-2.81,8.84,6.83,0.03,0.21,-0.06,0.0,s
2103.0,4012.0,918.0,3271.0,2896.0,2314.0,2631.0,2736.0,-2.97,9.09,6.6,0.03,0.16,-0.07,0.0,s
2110.0,3999.0,919.0,3265.0,2887.0,2311.0,2631.0,2736.0,-2.67,9.15,6.54,0.03,0.04,-0.06,0.0,s
2096.0,3999.0,927.0,3265.0,2893.0,2318.0,2637.0,2736.0,-2.65,9.26,6.56,0.02,0.11,-0.07,0.0,s
2103.0,4006.0,916.0,3265.0,2890.0,2317.0,2634.0,2737.0,-2.54,9.27,6.47,0.03,-0.02,-0.1,0.0,s
2105.0,4014.0,927.0,3265.0,2886.0,2311.0,2630.0,2736.0,-2.71,9.17,6.52,0.03,0.05,-0.15,0.0,s
2099.0,3983.0,923.0,3262.0,2889.0,2308.0,2627.0,2735.0,-2.66,9.24,6.44,0.07,-0.02,-0.14,0.0,s
2103.0,3981.0,921.0,3235.0,2891.0,2310.0,2630.0,2736.0,-2.6,9.23,6.47,0.06,-0.06,-0.16,0.0,s
2102.0,4003.0,915.0,3238.0,2885.0,2311.0,2631.0,2736.0,-2.75,9.18,6.61,0.05,-0.04,-0.17,0.0,s
2105.0,3984.0,919.0,3233.0,2887.0,2313.0,2630.0,2736.0,-2.71,9.25,6.46,0.06,-0.07,-0.2,0.0,s
2096.0,4016.0,923.0,3232.0,2892.0,2311.0,2627.0,2736.0,-2.79,9.16,6.39,0.08,-0.1,-0.19,0.0,s
2096.0,3987.0,924.0,3234.0,2890.0,2309.0,2629.0,2736.0,-2.47,9.29,6.27,0.05,-0.15,-0.22,0.0,s
2107.0,4005.0,930.0,3236.0,2893.0,2309.0,2629.0,2735.0,-2.63,9.39,6.3,-0.0,-0.16,-0.26,0.0,s
2101.0,3999.0,925.0,3227.0,2883.0,2311.0,2632.0,2736.0,-3.04,9.17,6.57,0.05,-0.2,-0.24,0.0,s
2098.0,3974.0,917.0,3236.0,2890.0,2314.0,2633.0,2735.0,-2.64,9.2,6.37,0.05,-0.27,-0.26,0.0,s
2098.0,3984.0,920.0,3233.0,2894.0,2318.0,2631.0,2735.0,-2.94,9.13,6.62,-0.0,-0.21,-0.29,0.0,s
2101.0,3994.0,926.0,3239.0,2891.0,2315.0,2631.0,2736.0,-2.91,9.1,6.72,0.05,-0.27,-0.27,0.0,s
2099.0,3988.0,918.0,3243.0,2893.0,2311.0,2634.0,2736.0,-3.08,8.98,6.77,0.04,-0.15,-0.24,0.0,s
2103.0,3975.0,922.0,3235.0,2889.0,2311.0,2630.0,2736.0,-2.99,9.22,6.65,0.13,-0.26,-0.16,0.0,s
2112.0,3989.0,922.0,3243.0,2897.0,2311.0,2630.0,2733.0,-2.73,9.26,6.54,0.15,-0.24,-0.14,0.0,s
2102.0,3990.0,915.0,3237.0,2893.0,2314.0,2630.0,2736.0,-2.7,9.29,6.38,0.15,-0.3,-0.21,0.0,s
2101.0,3997.0,912.0,3232.0,2891.0,2311.0,2629.0,2735.0,-2.77,9.26,6.47,0.09,-0.27,-0.24,0.0,s
2099.0,3983.0,918.0,3238.0,2893.0,2312.0,2635.0,2736.0,-2.67,9.16,6.69,0.09,-0.35,-0.3,0.0,s
1875.0,3312.0,3799.0,3471.0,2695.0,2246.0,2465.0,2598.0,-3.0,9.41,5.32,0.04,-0.29,-0.09,0.0,s
1879.0,3309.0,3787.0,3475.0,2704.0,2253.0,2465.0,2592.0,-3.27,9.53,5.48,0.19,-0.44,-0.28,0.0,s
1881.0,3298.0,3780.0,3475.0,2704.0,2254.0,2463.0,2593.0,-3.74,8.81,5.52,0.28,-0.45,-0.21,0.0,s
1876.0,3309.0,3792.0,3495.0,2704.0,2254.0,2464.0,2591.0,-3.89,8.89,5.17,0.32,-0.49,-0.17,0.0,s
1877.0,3297.0,3792.0,3502.0,2719.0,2254.0,2464.0,2599.0,-3.69,8.88,5.26,0.24,-0.53,-0.12,0.0,s
1862.0,3306.0,3823.0,3423.0,2704.0,2250.0,2463.0,2593.0,-3.66,8.76,5.22,0.17,-0.51,-0.24,0.0,s
1871.0,3305.0,3839.0,3324.0,2707.0,2239.0,2467.0,2557.0,-3.74,8.99,5.23,0.12,-0.58,-0.24,0.0,s
1863.0,3289.0,3813.0,3261.0,2707.0,2226.0,2455.0,2533.0,-4.02,8.9,5.59,0.09,-0.44,-0.18,0.0,s
1855.0,3295.0,3807.0,3259.0,2711.0,2239.0,2455.0,2544.0,-3.69,8.54,5.81,-0.13,-0.36,-0.27,0.0,s
1856.0,3303.0,3818.0,3436.0,2697.0,2217.0,2468.0,2579.0,-3.56,8.92,5.87,0.07,-0.45,-0.37,0.0,s
1856.0,3312.0,3821.0,3601.0,2719.0,2251.0,2486.0,2622.0,-3.94,9.18,6.2,0.08,-0.32,-0.28,0.0,s
1822.0,3302.0,3826.0,3639.0,2731.0,2273.0,2510.0,2634.0,-4.24,9.19,5.87,0.23,-0.32,-0.33,0.0,s
1823.0,3312.0,3824.0,3659.0,2750.0,2288.0,2519.0,2651.0,-3.93,8.91,5.28,0.17,-0.55,-0.24,0.0,s
1799.0,3332.0,3814.0,3643.0,2778.0,2303.0,2545.0,2668.0,-3.85,8.59,6.18,0.27,-0.46,-0.28,0.0,s
1764.0,3323.0,3815.0,3697.0,2800.0,2336.0,2603.0,2709.0,-4.02,8.66,5.97,0.03,-0.2,-0.07,0.0,s
1765.0,3337.0,3818.0,3654.0,2807.0,2368.0,2647.0,2736.0,-3.8,8.6,6.46,-0.02,-0.15,-0.16,0.0,s
1745.0,3339.0,3856.0,3554.0,2798.0,2314.0,2586.0,2699.0,-3.73,8.69,6.17,-0.06,-0.04,-0.16,0.0,s
1748.0,3312.0,3822.0,3406.0,2755.0,2223.0,2459.0,2589.0,-3.72,8.67,6.21,-0.01,-0.07,-0.15,0.0,s
1723.0,3312.0,3842.0,3271.0,2753.0,2219.0,2452.0,2541.0,-3.96,8.76,6.2,0.08,-0.09,-0.13,0.0,s
1728.0,3324.0,3851.0,3215.0,2762.0,2222.0,2461.0,2525.0,-3.91,8.81,6.3,0.15,-0.26,-0.16,0.0,s
1742.0,3299.0,3856.0,3321.0,2767.0,2243.0,2485.0,2601.0,-3.97,9.38,5.83,-0.02,-0.09,-0.05,0.0,s
1750.0,3312.0,3851.0,3551.0,2783.0,2311.0,2559.0,2666.0,-3.63,9.2,6.53,-0.05,-0.05,-0.25,0.0,s
1742.0,3330.0,3839.0,3712.0,2821.0,2354.0,2640.0,2711.0,-3.55,8.92,6.71,0.0,0.1,-0.12,0.0,s
1729.0,3326.0,3846.0,3746.0,2835.0,2378.0,2671.0,2731.0,-3.49,9.0,6.3,0.03,-0.01,-0.2,0.0,s
1733.0,3323.0,3843.0,3783.0,2841.0,2395.0,2695.0,2750.0,-3.8,8.88,6.39,0.02,-0.07,-0.21,0.0,s
1723.0,3328.0,3863.0,3434.0,2790.0,2322.0,2607.0,2711.0,-3.53,8.66,6.81,0.09,-0.03,-0.25,0.0,s
1738.0,3343.0,3877.0,3312.0,2736.0,2282.0,2537.0,2686.0,-3.75,8.76,6.38,0.02,0.06,-0.16,0.0,s
1755.0,3312.0,3887.0,3322.0,2726.0,2272.0,2518.0,2674.0,-3.87,8.67,6.48,-0.03,0.0,-0.09,0.0,s
1762.0,3327.0,3891.0,3294.0,2721.0,2282.0,2522.0,2686.0,-3.38,8.72,6.33,-0.03,-0.02,0.0,0.0,s
1761.0,3319.0,3879.0,3223.0,2715.0,2321.0,2518.0,2675.0,-3.67,8.65,6.73,-0.05,0.04,0.01,0.0,s
1770.0,3322.0,3889.0,3303.0,2730.0,2326.0,2534.0,2687.0,-3.27,8.89,6.81,0.05,-0.09,0.0,0.0,s
1770.0,3345.0,3905.0,3595.0,2691.0,2271.0,2534.0,2694.0,-2.94,9.28,6.28,-0.06,0.01,-0.0,0.0,s
1771.0,3334.0,3908.0,3827.0,2658.0,2256.0,2503.0,2704.0,-2.72,9.56,6.41,-0.05,-0.1,-0.16,0.0,s
1751.0,3318.0,3895.0,3705.0,2641.0,2265.0,2539.0,2702.0,-3.28,8.82,6.88,-0.01,0.24,-0.08,0.0,s
1776.0,3319.0,3925.0,3197.0,2581.0,2226.0,2486.0,2624.0,-3.02,8.94,6.58,-0.18,0.21,0.05,0.0,s
1801.0,3329.0,3931.0,2960.0,2585.0,2222.0,2471.0,2589.0,-3.16,9.03,6.95,-0.19,0.09,0.02,0.0,s
1801.0,3317.0,3901.0,3158.0,2607.0,2235.0,2465.0,2592.0,-2.79,9.11,7.17,0.02,-0.04,-0.1,0.0,s
1800.0,3322.0,3925.0,3389.0,2647.0,2233.0,2458.0,2611.0,-2.84,9.05,7.08,0.22,-0.16,-0.21,0.0,s
1776.0,3307.0,3920.0,3575.0,2699.0,2246.0,2474.0,2619.0,-2.94,9.04,6.74,0.27,-0.07,-0.17,0.0,s
1735.0,3311.0,3917.0,3621.0,2721.0,2256.0,2491.0,2619.0,-2.77,9.07,6.77,0.16,-0.23,-0.07,0.0,s
1717.0,3315.0,3906.0,3575.0,2736.0,2262.0,2495.0,2611.0,-1.72,9.29,6.54,0.4,-0.47,-0.17,0.0,s
1707.0,3312.0,3899.0,3536.0,2743.0,2277.0,2498.0,2620.0,-2.53,9.35,6.31,0.16,-0.04,-0.13,0.0,s
1705.0,3310.0,3917.0,3421.0,2746.0,2286.0,2510.0,2622.0,-2.53,9.3,6.31,-0.06,0.03,-0.1,0.0,s
1711.0,3311.0,3897.0,3189.0,2731.0,2286.0,2509.0,2621.0,-2.15,9.4,6.31,0.01,0.12,-0.13,0.0,s
1715.0,3313.0,3901.0,3214.0,2726.0,2283.0,2513.0,2625.0,-2.68,9.27,6.3,-0.04,0.24,-0.15,0.0,s
1723.0,3312.0,3917.0,3232.0,2722.0,2283.0,2517.0,2636.0,-2.41,9.22,6.37,-0.1,0.28,-0.13,0.0,s
1730.0,3317.0,3913.0,3255.0,2720.0,2289.0,2519.0,2643.0,-2.4,9.31,6.38,-0.05,0.19,-0.02,0.0,s
1721.0,3312.0,3907.0,3237.0,2711.0,2300.0,2516.0,2640.0,-1.9,9.41,5.92,0.18,-0.17,-0.1,0.0,s
1725.0,3310.0,3927.0,3215.0,2722.0,2311.0,2522.0,2624.0,-2.42,9.42,5.83,0.17,-0.14,-0.19,0.0,s
1714.0,3313.0,3907.0,3195.0,2727.0,2313.0,2521.0,2639.0,-2.03,9.5,6.24,0.35,-1.16,-0.04,0.0,s
1725.0,3302.0,3913.0,3168.0,2732.0,2318.0,2525.0,2640.0,-2.15,9.51,5.8,-0.04,0.24,-0.14,0.0,s
1723.0,3317.0,3918.0,3159.0,2735.0,2320.0,2530.0,2652.0,-1.95,9.4,6.01,-0.0,-0.02,-0.19,0.0,s
1731.0,3313.0,3935.0,3171.0,2739.0,2326.0,2532.0,2656.0,-2.23,9.45,6.22,0.17,-0.53,-0.16,0.0,s
1717.0,3318.0,3924.0,3152.0,2735.0,2320.0,2529.0,2658.0,-1.84,9.73,6.03,0.13,-0.36,-0.12,0.0,s
1710.0,3311.0,3920.0,3152.0,2735.0,2336.0,2532.0,2663.0,-1.85,9.51,5.82,-0.03,-0.02,-0.18,0.0,s
1712.0,3312.0,3907.0,3180.0,2733.0,2342.0,2534.0,2669.0,-2.03,9.39,5.92,0.01,0.04,-0.19,0.0,s
1731.0,3307.0,3908.0,3285.0,2708.0,2302.0,2530.0,2665.0,-2.14,9.33,6.07,0.02,0.03,-0.14,0.0,s
1746.0,3316.0,3914.0,3423.0,2722.0,2295.0,2532.0,2672.0,-2.08,9.4,6.24,-0.08,0.16,-0.08,0.0,s
1734.0,3318.0,3913.0,3375.0,2735.0,2323.0,2535.0,2675.0,-2.06,9.37,6.38,-0.17,0.28,-0.05,0.0,s
1743.0,3313.0,3915.0,3327.0,2730.0,2324.0,2538.0,2682.0,-2.23,9.42,6.48,-0.1,0.52,-0.04,0.0,s
1741.0,3321.0,3918.0,3308.0,2730.0,2320.0,2537.0,2679.0,-3.79,8.76,5.95,-0.07,0.33,0.28,0.0,s
1729.0,3312.0,3920.0,3310.0,2735.0,2337.0,2537.0,2677.0,-0.25,9.53,6.89,0.13,0.09,0.7,0.0,s
1751.0,3317.0,3902.0,3366.0,2718.0,2310.0,2529.0,2672.0,3.57,10.34,4.64,-0.25,2.12,-0.08,0.0,s
1766.0,3307.0,3899.0,3570.0,2705.0,2287.0,2529.0,2684.0,-1.19,9.76,6.95,-0.43,1.6,-0.09,0.0,s
1771.0,3311.0,3913.0,3583.0,2723.0,2295.0,2544.0,2689.0,-0.27,9.62,6.66,0.3,0.23,0.12,0.0,s
1759.0,3311.0,3911.0,3559.0,2722.0,2299.0,2544.0,2688.0,0.26,9.76,5.04,0.15,0.31,-0.09,0.0,s
1757.0,3306.0,3903.0,3568.0,2735.0,2296.0,2542.0,2675.0,-1.47,9.37,5.77,-0.61,1.2,-0.31,0.0,s
1757.0,3328.0,3915.0,3556.0,2731.0,2311.0,2544.0,2689.0,-1.08,9.74,6.49,-0.07,-0.12,-0.25,0.0,s
1747.0,3327.0,3911.0,3488.0,2726.0,2308.0,2536.0,2689.0,-0.93,9.9,6.28,0.08,-0.42,-0.2,0.0,s
1762.0,3326.0,3920.0,3525.0,2736.0,2320.0,2545.0,2693.0,-0.78,10.01,6.53,0.02,-0.44,-0.45,0.0,s
1757.0,3306.0,3915.0,3535.0,2743.0,2318.0,2545.0,2688.0,-1.49,9.66,6.96,0.08,-0.34,-0.66,0.0,s
1769.0,3309.0,3904.0,3513.0,2743.0,2319.0,2547.0,2689.0,-1.55,9.35,6.41,0.23,-0.49,-0.69,0.0,s
1776.0,3318.0,3919.0,3486.0,2749.0,2318.0,2544.0,2683.0,-2.36,9.02,6.62,0.3,-0.55,-0.58,0.0,s
1759.0,3307.0,3898.0,3398.0,2753.0,2311.0,2535.0,2645.0,-2.28,9.18,5.88,0.42,-0.63,-0.72,0.0,s
1664.0,3323.0,3923.0,3287.0,2734.0,2297.0,2502.0,2559.0,-3.96,10.24,5.63,0.06,-0.34,-0.26,0.0,s
1655.0,3312.0,3903.0,3303.0,2771.0,2277.0,2493.0,2559.0,-3.8,9.2,6.54,0.1,-0.42,-0.5,0.0,s
1647.0,3307.0,3877.0,3385.0,2768.0,2269.0,2491.0,2559.0,-3.82,8.94,6.91,0.16,-0.57,-0.27,0.0,s
1664.0,3311.0,3888.0,3488.0,2761.0,2270.0,2499.0,2589.0,-2.99,9.06,6.82,0.18,-0.47,-0.36,0.0,s
1674.0,3312.0,3903.0,3475.0,2736.0,2261.0,2496.0,2606.0,-3.46,8.68,6.67,0.09,-0.24,-0.27,0.0,s
1699.0,3315.0,3901.0,3370.0,2737.0,2271.0,2509.0,2608.0,-3.46,8.66,6.66,0.11,-0.22,-0.21,0.0,s
1702.0,3310.0,3885.0,3309.0,2736.0,2286.0,2512.0,2620.0,-3.24,8.83,6.55,0.1,-0.18,-0.22,0.0,s
1707.0,3299.0,3915.0,3328.0,2741.0,2302.0,2519.0,2623.0,-3.23,8.99,6.46,0.09,-0.13,-0.24,0.0,s
1712.0,3308.0,3888.0,3409.0,2750.0,2294.0,2515.0,2624.0,-3.7,8.89,6.82,0.17,-0.42,-0.14,0.0,s
1728.0,3309.0,3905.0,3458.0,2756.0,2291.0,2519.0,2633.0,-5.39,8.65,7.49,0.42,-0.9,0.02,0.0,s
1714.0,3312.0,3903.0,3473.0,2751.0,2303.0,2511.0,2642.0,-2.95,9.24,6.3,1.09,-3.31,0.26,0.0,s
1730.0,3321.0,3931.0,3461.0,2765.0,2314.0,2513.0,2625.0,-2.08,9.39,5.84,0.41,-1.39,-0.1,0.0,s
1706.0,3302.0,3906.0,3463.0,2757.0,2320.0,2505.0,2617.0,-2.3,9.46,6.36,0.19,-0.83,-0.05,0.0,s
1712.0,3314.0,3931.0,3475.0,2759.0,2320.0,2509.0,2617.0,-1.9,9.65,5.81,0.39,-1.19,-0.05,0.0,s
1706.0,3316.0,3919.0,3489.0,2755.0,2311.0,2512.0,2605.0,-0.82,9.79,5.18,0.15,-0.21,-0.15,0.0,s
1711.0,3303.0,3903.0,3486.0,2741.0,2288.0,2497.0,2556.0,-1.09,9.57,5.39,-0.23,0.69,-0.15,0.0,s
1731.0,3299.0,3876.0,3483.0,2736.0,2273.0,2490.0,2542.0,-1.12,9.45,6.33,-0.02,-0.35,-0.12,0.0,s
1717.0,3287.0,3839.0,3264.0,2747.0,2262.0,2480.0,2500.0,-1.02,9.5,6.39,0.29,-1.14,-0.05,0.0,s
1707.0,3291.0,3839.0,3293.0,2743.0,2267.0,2480.0,2534.0,0.25,9.98,5.76,0.36,-1.43,-0.18,0.0,s
1710.0,3301.0,3842.0,3295.0,2738.0,2271.0,2476.0,2534.0,-0.4,10.0,5.32,0.19,-0.79,-0.22,0.0,s
1717.0,3292.0,3858.0,3401.0,2747.0,2283.0,2480.0,2546.0,-0.8,9.8,5.07,-0.15,0.67,-0.18,0.0,s
1719.0,3293.0,3846.0,3408.0,2736.0,2256.0,2485.0,2555.0,0.49,9.92,4.12,-0.46,2.64,-0.41,0.0,s
1722.0,3295.0,3846.0,3317.0,2736.0,2263.0,2497.0,2558.0,-4.0,8.87,4.59,-1.79,6.63,-0.62,0.0,s
1710.0,3286.0,3855.0,3293.0,2750.0,2286.0,2507.0,2559.0,-4.35,8.81,7.09,-0.41,0.85,-0.1,0.0,s
1716.0,3302.0,3863.0,3294.0,2752.0,2286.0,2511.0,2559.0,-2.76,9.36,6.67,-0.12,0.58,0.13,0.0,s
1719.0,3282.0,3840.0,3135.0,2753.0,2288.0,2495.0,2541.0,-2.84,9.32,6.24,-0.2,0.5,-0.06,0.0,s
1734.0,3280.0,3840.0,3422.0,2747.0,2243.0,2462.0,2544.0,-3.54,9.64,6.32,-0.07,0.46,-0.11,0.0,s
1734.0,3281.0,3824.0,3563.0,2725.0,2231.0,2479.0,2559.0,-2.45,9.74,6.04,-0.01,0.21,-0.1,0.0,s
1747.0,3281.0,3824.0,3675.0,2722.0,2243.0,2490.0,2579.0,-2.67,9.49,6.26,-0.04,0.23,-0.18,0.0,s
1750.0,3271.0,3811.0,3771.0,2729.0,2254.0,2493.0,2559.0,-2.46,9.14,6.24,0.01,0.38,-0.17,0.0,s
1763.0,3273.0,3833.0,3810.0,2734.0,2251.0,2496.0,2559.0,-3.5,8.92,5.51,-0.12,0.89,-0.1,0.0,s
1767.0,3278.0,3831.0,3687.0,2736.0,2262.0,2499.0,2559.0,-3.05,8.87,5.95,-0.31,1.2,-0.04,0.0,s
1767.0,3280.0,3824.0,3649.0,2735.0,2257.0,2490.0,2545.0,-2.79,9.21,5.74,-0.31,0.97,0.04,0.0,s
1765.0,3293.0,3798.0,3392.0,2742.0,2260.0,2495.0,2549.0,-2.56,9.55,5.9,-0.13,0.61,-0.24,0.0,s
1762.0,3289.0,3795.0,3426.0,2741.0,2261.0,2502.0,2559.0,-3.61,9.19,5.53,-0.04,0.65,-0.32,0.0,s
1772.0,3278.0,3808.0,3423.0,2745.0,2269.0,2503.0,2559.0,-3.92,8.65,5.15,-0.11,0.66,-0.21,0.0,s
1776.0,3280.0,3799.0,3423.0,2739.0,2268.0,2507.0,2559.0,-3.77,8.35,4.99,-0.3,0.73,-0.18,0.0,s
1774.0,3279.0,3780.0,3421.0,2738.0,2269.0,2503.0,2583.0,-4.21,8.65,5.41,-0.26,0.65,-0.06,0.0,s
1792.0,3289.0,3792.0,3438.0,2741.0,2277.0,2509.0,2595.0,-3.17,9.47,4.92,0.14,0.22,0.35,0.0,s
1778.0,3265.0,3776.0,3420.0,2741.0,2279.0,2507.0,2597.0,-2.13,9.71,4.47,0.01,0.16,0.13,0.0,s
1778.0,3283.0,3767.0,3439.0,2741.0,2274.0,2503.0,2596.0,-2.26,9.35,4.76,-0.06,0.07,-0.05,0.0,s
1776.0,3280.0,3775.0,3430.0,2745.0,2271.0,2502.0,2609.0,-2.39,9.09,5.52,-0.02,0.15,-0.02,0.0,s
1607.0,4095.0,1093.0,3123.0,3041.0,2430.0,2785.0,2470.0,-1.75,9.65,4.01,-0.07,-0.21,0.12,0.0,s
1591.0,4095.0,1084.0,3136.0,3025.0,2430.0,2785.0,2471.0,-1.09,10.51,4.04,-0.02,-0.41,-0.12,0.0,s
1603.0,4095.0,1095.0,3149.0,3044.0,2433.0,2791.0,2482.0,-1.94,9.91,4.52,0.08,-0.54,-0.26,0.0,s
1598.0,4095.0,1093.0,3152.0,3054.0,2437.0,2792.0,2483.0,-1.91,9.36,4.62,0.16,-0.61,-0.27,0.0,s
1600.0,4095.0,1097.0,3155.0,3046.0,2437.0,2790.0,2491.0,-2.34,9.36,4.87,0.24,-0.63,-0.26,0.0,s
1610.0,4095.0,1094.0,3160.0,3055.0,2435.0,2790.0,2491.0,-2.41,9.31,4.55,0.16,-0.6,-0.34,0.0,s
1599.0,4095.0,1098.0,3161.0,3056.0,2437.0,2794.0,2487.0,-3.01,9.08,4.8,0.07,-0.39,-0.39,0.0,s
1600.0,4095.0,1102.0,3169.0,3056.0,2433.0,2794.0,2495.0,-3.17,8.72,4.94,-0.05,-0.44,-0.48,0.0,s
1589.0,4095.0,1099.0,3163.0,3056.0,2441.0,2791.0,2484.0,-4.09,8.86,5.34,-0.05,-0.28,-0.35,0.0,s
1600.0,4095.0,1098.0,3166.0,3060.0,2439.0,2783.0,2468.0,-4.25,9.03,5.24,-0.04,-0.07,-0.15,0.0,s
1605.0,4095.0,1097.0,3216.0,3066.0,2432.0,2694.0,2427.0,-3.73,9.25,5.2,-0.05,0.03,0.02,0.0,s
1616.0,4095.0,1090.0,3227.0,3084.0,2437.0,2732.0,2464.0,-3.58,9.08,4.98,-0.05,0.04,-0.07,0.0,s
1648.0,4095.0,1086.0,3261.0,3096.0,2413.0,2769.0,2480.0,-4.86,8.75,5.54,0.1,0.08,-0.17,0.0,s
1670.0,4095.0,1087.0,3261.0,3102.0,2402.0,2775.0,2466.0,-2.95,9.21,5.4,-0.49,0.38,0.44,0.0,s
1535.0,4095.0,1088.0,3187.0,3038.0,2368.0,2688.0,2464.0,-1.69,9.64,6.13,-0.47,0.23,0.23,0.0,s
1527.0,4095.0,1105.0,3161.0,3041.0,2387.0,2669.0,2431.0,-1.94,9.67,6.24,-0.04,0.31,-0.01,0.0,s
1513.0,4095.0,1102.0,3151.0,3048.0,2414.0,2676.0,2437.0,-1.92,9.42,6.07,-0.06,0.39,0.0,0.0,s
1517.0,4095.0,1099.0,3153.0,3054.0,2426.0,2686.0,2450.0,-1.66,9.33,5.91,0.02,0.35,0.03,0.0,s
1511.0,4095.0,1094.0,3150.0,3045.0,2427.0,2692.0,2451.0,-1.82,9.38,5.61,0.03,0.4,0.08,0.0,s
1503.0,4095.0,1105.0,3130.0,3040.0,2423.0,2699.0,2459.0,-0.97,9.7,5.18,-0.12,0.16,-0.01,0.0,s
1503.0,4095.0,1104.0,3087.0,3011.0,2432.0,2693.0,2463.0,-1.96,9.32,5.99,-0.08,0.14,-0.02,0.0,s
1489.0,4095.0,1091.0,3029.0,2994.0,2436.0,2705.0,2461.0,-0.54,9.54,5.29,0.06,-0.15,0.06,0.0,s
1491.0,4095.0,1104.0,3053.0,2997.0,2447.0,2711.0,2460.0,-0.53,9.69,5.54,0.02,-0.32,-0.19,0.0,s
1470.0,4095.0,1090.0,3070.0,3015.0,2450.0,2700.0,2457.0,-1.27,10.14,5.86,-0.05,-0.41,-0.03,0.0,s
1494.0,4095.0,1094.0,3103.0,3035.0,2427.0,2711.0,2464.0,-1.32,10.51,5.84,0.27,-0.23,-0.32,0.0,s
1535.0,4095.0,1087.0,3166.0,3083.0,2427.0,2761.0,2485.0,-1.8,10.0,5.75,0.13,-0.16,-0.34,0.0,s
1566.0,4095.0,1073.0,3228.0,3122.0,2380.0,2844.0,2512.0,-1.65,10.03,5.32,0.05,-0.08,-0.24,0.0,s
1577.0,4095.0,1071.0,3209.0,3151.0,2393.0,2880.0,2532.0,-1.75,9.77,5.2,0.29,-0.09,-0.33,0.0,s
1579.0,4095.0,1047.0,3215.0,3158.0,2384.0,2902.0,2542.0,-1.88,9.54,4.69,0.37,-0.3,-0.34,0.0,s
1563.0,4095.0,1023.0,3261.0,3213.0,2389.0,3005.0,2559.0,-1.72,9.54,4.51,0.11,-0.2,-0.14,0.0,s
1573.0,4095.0,1009.0,3321.0,3269.0,2413.0,3063.0,2610.0,-1.98,9.74,4.6,0.03,-0.09,-0.25,0.0,s
1512.0,4095.0,1023.0,3152.0,3115.0,2379.0,2817.0,2507.0,-2.14,9.77,4.97,-0.04,-0.28,-0.19,0.0,s
1435.0,4095.0,1054.0,3037.0,3036.0,2422.0,2720.0,2431.0,-1.93,9.73,5.06,-0.06,-0.12,-0.25,0.0,s
1328.0,4095.0,1053.0,3027.0,2948.0,2496.0,2647.0,2382.0,-1.98,9.6,5.23,-0.17,-0.08,-0.15,0.0,s
1250.0,4095.0,1068.0,3046.0,2925.0,2543.0,2661.0,2380.0,-2.07,9.63,5.25,0.02,-0.04,-0.19,0.0,s
1278.0,4095.0,1057.0,3175.0,2983.0,2533.0,2672.0,2384.0,-2.17,9.25,5.48,0.27,-0.07,-0.26,0.0,s
1318.0,4095.0,1063.0,3335.0,2950.0,2461.0,2685.0,2411.0,-2.31,9.34,5.26,-0.01,0.08,-0.09,0.0,s
1313.0,4095.0,1058.0,3121.0,2909.0,2431.0,2685.0,2397.0,-1.62,9.6,5.02,-0.14,-0.02,-0.15,0.0,s
1325.0,4095.0,1040.0,2998.0,2939.0,2475.0,2670.0,2384.0,-2.12,9.51,5.22,-0.04,-0.06,-0.18,0.0,s
1298.0,4095.0,1040.0,2881.0,2958.0,2525.0,2650.0,2382.0,-1.97,9.52,5.33,-0.05,0.08,-0.16,0.0,s
1284.0,4095.0,1040.0,2978.0,2960.0,2511.0,2648.0,2390.0,-1.63,9.52,5.21,-0.02,-0.07,-0.2,0.0,s
1270.0,4095.0,1040.0,2963.0,2944.0,2495.0,2663.0,2403.0,-1.79,9.81,5.02,0.07,-0.16,-0.29,0.0,s
1270.0,4095.0,1054.0,2962.0,2919.0,2455.0,2674.0,2413.0,-1.81,9.68,5.07,0.16,-0.23,-0.28,0.0,s
1279.0,4095.0,1053.0,3025.0,2928.0,2477.0,2688.0,2422.0,-1.92,9.52,5.44,0.17,-0.12,-0.15,0.0,s
1296.0,4095.0,1049.0,3211.0,2958.0,2461.0,2698.0,2419.0,-1.9,9.26,5.39,-0.09,0.01,-0.04,0.0,s
1317.0,4095.0,1054.0,3437.0,2969.0,2437.0,2713.0,2422.0,-1.63,8.14,6.4,-0.66,0.79,0.2,0.0,s
1325.0,4095.0,1051.0,3497.0,2942.0,2451.0,2733.0,2453.0,-2.08,9.26,5.59,0.29,-0.31,-0.21,0.0,s
1344.0,4095.0,1062.0,3489.0,2961.0,2455.0,2734.0,2455.0,-1.99,9.9,4.87,0.1,-0.36,-0.24,0.0,s
1330.0,4095.0,1062.0,3323.0,2966.0,2466.0,2737.0,2458.0,-1.67,9.89,5.46,-0.03,-0.31,-0.43,0.0,s
1331.0,4095.0,1059.0,3222.0,2953.0,2474.0,2738.0,2462.0,-2.98,9.94,5.37,0.14,-0.19,-0.41,0.0,s
1337.0,4095.0,1058.0,3165.0,2948.0,2464.0,2736.0,2465.0,-3.34,9.86,4.7,0.32,-0.14,-0.16,0.0,s
1337.0,4095.0,1063.0,3278.0,2975.0,2455.0,2742.0,2462.0,-1.3,9.48,5.24,0.37,-1.57,-0.22,0.0,s
1354.0,4095.0,1072.0,3288.0,2983.0,2464.0,2738.0,2438.0,0.01,8.89,5.87,0.3,-2.49,-0.28,0.0,s
1360.0,4095.0,1072.0,3302.0,2999.0,2466.0,2743.0,2446.0,-2.83,9.57,5.28,0.18,0.44,-0.31,0.0,s
1362.0,4095.0,1061.0,3308.0,3001.0,2466.0,2738.0,2455.0,-2.72,9.41,4.84,0.04,0.57,-0.3,0.0,s
1375.0,4095.0,1057.0,3314.0,2999.0,2469.0,2749.0,2463.0,-3.47,9.23,4.29,-0.08,0.57,-0.27,0.0,s
1368.0,4095.0,1072.0,3344.0,2998.0,2470.0,2752.0,2473.0,-4.95,8.81,4.85,-0.32,1.78,-0.04,0.0,s
1377.0,4095.0,1069.0,3359.0,3026.0,2464.0,2752.0,2475.0,-2.89,9.03,4.48,-0.45,-0.01,0.33,0.0,s
1366.0,4095.0,1067.0,3374.0,3041.0,2463.0,2750.0,2480.0,-1.32,9.17,5.77,-0.5,0.65,0.38,0.0,s
1388.0,4095.0,1059.0,3494.0,3040.0,2467.0,2746.0,2474.0,-1.17,9.71,5.78,-0.15,0.43,0.57,0.0,s
1378.0,4095.0,1079.0,3450.0,3039.0,2469.0,2752.0,2479.0,0.0,9.85,5.63,-0.17,0.13,0.02,0.0,s
1383.0,4095.0,1063.0,3418.0,3030.0,2467.0,2742.0,2478.0,-1.04,9.98,5.94,-0.2,0.33,-0.22,0.0,s
1392.0,4095.0,1072.0,3394.0,3039.0,2465.0,2751.0,2474.0,-0.31,9.71,5.62,-0.33,0.32,-0.09,0.0,s
1358.0,4095.0,1066.0,3179.0,2986.0,2475.0,2752.0,2483.0,-0.42,9.21,5.82,-0.2,0.23,-0.06,0.0,s
1347.0,4095.0,1072.0,3261.0,2998.0,2490.0,2751.0,2496.0,-0.46,9.36,5.79,-0.11,0.16,-0.01,0.0,s
1350.0,4095.0,1072.0,3253.0,3006.0,2487.0,2750.0,2495.0,-1.07,10.06,6.34,-0.12,0.06,-0.06,0.0,s
1346.0,4095.0,1077.0,3267.0,3018.0,2481.0,2754.0,2491.0,-0.39,9.98,6.27,0.17,-0.09,0.18,0.0,s
1358.0,4095.0,1076.0,3266.0,3023.0,2481.0,2752.0,2490.0,0.01,10.27,5.89,0.13,-0.16,-0.2,0.0,s
1351.0,4095.0,1073.0,3260.0,3014.0,2485.0,2751.0,2498.0,-0.24,10.16,6.07,0.29,-0.48,-0.31,0.0,s
1375.0,4095.0,1069.0,3258.0,3023.0,2480.0,2753.0,2495.0,-0.68,10.15,5.44,0.33,-0.55,-0.46,0.0,s
1370.0,4095.0,1075.0,3266.0,3017.0,2483.0,2758.0,2490.0,-2.13,10.49,4.89,0.38,-0.48,-0.49,0.0,s
1362.0,4095.0,1075.0,3274.0,3023.0,2482.0,2755.0,2486.0,-1.22,9.63,5.42,0.17,-0.51,-0.25,0.0,s
1383.0,4095.0,1082.0,3280.0,3022.0,2490.0,2758.0,2489.0,0.61,8.97,5.97,0.09,-0.48,-0.34,0.0,s
1377.0,4095.0,1071.0,3310.0,3027.0,2481.0,2768.0,2485.0,-1.48,9.15,6.1,0.15,-0.19,-0.64,0.0,s
1387.0,4095.0,1087.0,3309.0,3027.0,2486.0,2762.0,2487.0,-2.53,8.82,4.7,0.21,-0.32,-0.67,0.0,s
1383.0,4095.0,1079.0,3309.0,3028.0,2491.0,2768.0,2486.0,-2.73,8.25,5.61,-0.1,-0.17,-0.51,0.0,s
1375.0,4095.0,1074.0,3309.0,3024.0,2494.0,2755.0,2485.0,-4.41,9.47,5.48,-0.24,-0.01,-0.33,0.0,s
1383.0,4095.0,1072.0,3310.0,3031.0,2493.0,2757.0,2494.0,-3.64,9.69,5.46,-0.27,0.21,-0.06,0.0,s
1345.0,4095.0,1087.0,3035.0,2963.0,2462.0,2714.0,2480.0,-3.89,9.84,6.52,-0.45,0.39,0.16,0.0,s
1346.0,4095.0,1077.0,3114.0,2990.0,2485.0,2737.0,2490.0,-2.62,10.12,5.66,-0.05,0.42,-0.1,0.0,s
1358.0,4095.0,1077.0,3117.0,2979.0,2486.0,2747.0,2489.0,-2.8,9.16,5.69,0.05,0.37,-0.04,0.0,s
1339.0,4095.0,1079.0,3013.0,2978.0,2475.0,2743.0,2487.0,-2.48,9.24,5.46,-0.01,0.32,0.0,0.0,s
1348.0,4095.0,1072.0,3047.0,2993.0,2481.0,2753.0,2493.0,-2.38,9.54,5.31,-0.1,0.25,-0.14,0.0,s
1341.0,4095.0,1072.0,3071.0,2987.0,2479.0,2751.0,2490.0,-2.71,9.62,5.87,-0.23,0.29,-0.19,0.0,s
1331.0,4095.0,1072.0,2982.0,2989.0,2468.0,2752.0,2502.0,-2.56,8.83,6.32,-0.43,0.39,0.03,0.0,s
1321.0,4095.0,1072.0,2945.0,2986.0,2455.0,2739.0,2496.0,-2.19,8.69,6.47,0.01,0.29,0.14,0.0,s
1331.0,4095.0,1078.0,2948.0,2987.0,2465.0,2745.0,2501.0,-1.54,9.04,5.49,0.13,0.25,0.11,0.0,s
1323.0,4095.0,1072.0,2964.0,2991.0,2475.0,2738.0,2507.0,-1.56,9.17,5.38,0.03,0.15,0.06,0.0,s
1334.0,4095.0,1076.0,2963.0,2998.0,2471.0,2746.0,2503.0,-0.49,8.76,6.23,0.26,-0.03,0.2,0.0,s
1327.0,4095.0,1082.0,2963.0,2994.0,2471.0,2739.0,2497.0,-0.91,10.46,4.17,0.33,-0.03,-0.15,0.0,s
1328.0,4095.0,1086.0,2986.0,3002.0,2480.0,2747.0,2509.0,-1.56,10.44,3.74,0.23,-0.51,-0.01,0.0,s
1343.0,4095.0,1083.0,2959.0,2992.0,2469.0,2708.0,2489.0,-1.82,10.6,4.08,0.16,-0.72,0.15,0.0,s
1355.0,4095.0,1073.0,3020.0,3003.0,2471.0,2749.0,2473.0,-1.34,10.5,4.92,-0.12,-0.61,-0.29,0.0,s
1389.0,4095.0,1058.0,3120.0,3031.0,2451.0,2787.0,2519.0,-1.08,10.48,5.43,-0.16,-0.57,-0.34,0.0,s
1351.0,4095.0,1062.0,3087.0,2992.0,2480.0,2737.0,2522.0,-0.85,9.99,5.88,0.1,-0.51,-0.43,0.0,s
1344.0,4095.0,1063.0,3037.0,2998.0,2466.0,2723.0,2509.0,-1.25,9.5,5.9,0.22,-0.19,-0.46,0.0,s
1343.0,4095.0,1060.0,3001.0,3008.0,2480.0,2724.0,2482.0,-2.2,9.3,5.82,0.35,-0.35,-0.44,0.0,s
1346.0,4095.0,1061.0,3071.0,3013.0,2487.0,2723.0,2483.0,-3.14,9.13,5.18,0.26,-0.05,-0.4,0.0,s
1374.0,4095.0,1063.0,3117.0,3019.0,2463.0,2754.0,2526.0,-2.78,9.38,4.98,-0.09,0.06,-0.26,0.0,s
1362.0,4095.0,1056.0,3121.0,3024.0,2463.0,2766.0,2544.0,-2.71,9.0,5.67,-0.21,0.18,-0.24,0.0,s
1350.0,4095.0,1059.0,3120.0,3023.0,2480.0,2757.0,2538.0,-2.54,8.99,5.43,-0.15,0.29,-0.09,0.0,s
1328.0,4095.0,1055.0,3097.0,2993.0,2480.0,2736.0,2523.0,-1.55,8.82,4.45,-0.3,-0.05,0.08,0.0,s
1313.0,4095.0,1058.0,3079.0,2991.0,2481.0,2742.0,2518.0,-1.75,9.53,5.96,-0.29,-0.08,0.13,0.0,s
1282.0,4095.0,1056.0,3030.0,2928.0,2455.0,2705.0,2501.0,-2.3,9.59,7.17,-0.23,0.03,0.06,0.0,s
1294.0,4095.0,1061.0,3022.0,2938.0,2465.0,2717.0,2515.0,-2.14,9.84,7.19,-0.19,0.25,0.06,0.0,s
1335.0,4095.0,1070.0,3071.0,2983.0,2462.0,2737.0,2533.0,-1.37,10.06,6.93,0.06,0.26,-0.05,0.0,s
1330.0,4095.0,1073.0,3133.0,3014.0,2463.0,2720.0,2485.0,-1.23,10.01,5.88,0.0,0.14,-0.34,0.0,s
1342.0,4095.0,1072.0,3142.0,3024.0,2464.0,2724.0,2482.0,-1.04,9.68,6.62,-0.09,0.15,-0.16,0.0,s
1339.0,4095.0,1075.0,3125.0,3024.0,2469.0,2707.0,2455.0,-1.54,9.02,6.85,0.02,-0.06,-0.36,0.0,s
1342.0,4095.0,1090.0,3118.0,3024.0,2466.0,2704.0,2454.0,-2.1,8.71,6.94,-0.02,0.2,-0.21,0.0,s
1343.0,4095.0,1076.0,3133.0,3035.0,2497.0,2735.0,2495.0,-1.7,8.81,6.85,-0.05,0.27,-0.09,0.0,s
1343.0,4095.0,1073.0,3138.0,3024.0,2492.0,2735.0,2496.0,-0.74,9.5,6.24,0.05,0.05,-0.05,0.0,s
1349.0,4095.0,1072.0,3145.0,3026.0,2506.0,2736.0,2501.0,-1.52,9.61,6.25,0.18,-0.23,-0.31,0.0,s
1372.0,4095.0,1083.0,3179.0,3056.0,2490.0,2747.0,2505.0,-1.94,9.55,6.14,0.27,-0.15,-0.39,0.0,s
1358.0,4095.0,1078.0,3279.0,3062.0,2491.0,2736.0,2513.0,-2.48,9.42,6.15,-0.03,-0.11,-0.28,0.0,s
1356.0,4095.0,1069.0,3313.0,3071.0,2495.0,2726.0,2517.0,-2.21,9.08,6.21,-0.11,-0.26,-0.44,0.0,s
1360.0,4095.0,1087.0,3262.0,3085.0,2500.0,2734.0,2521.0,-3.12,9.04,6.82,0.07,-0.16,-0.29,0.0,s
