hall_1,hall_2,hall_3,flex_t,flex_i,flex_m,flex_r,flex_p,accel_x,accel_y,accel_z,gyro_x,gyro_y,gyro_z,hand,sign
3294.0,3024.0,3031.0,2934.0,3745.0,3006.0,3134.0,3486.0,-0.06,10.03,1.47,-0.14,-0.01,-0.01,1.0,s
3293.0,3028.0,3024.0,2939.0,3756.0,3008.0,3136.0,3491.0,-0.02,9.9,1.53,-0.09,0.03,-0.04,1.0,s
3295.0,3024.0,3030.0,2942.0,3753.0,3010.0,3134.0,3488.0,-0.02,9.95,1.55,-0.07,-0.02,-0.03,1.0,s
3286.0,3027.0,3035.0,2943.0,3759.0,3011.0,3137.0,3498.0,0.03,9.98,1.58,-0.05,0.01,-0.03,1.0,s
3289.0,3035.0,3030.0,2942.0,3760.0,2999.0,3131.0,3487.0,-0.12,10.0,1.59,-0.06,0.03,-0.02,1.0,s
3280.0,3029.0,3024.0,2938.0,3749.0,3003.0,3135.0,3495.0,0.01,9.91,1.75,-0.04,-0.02,-0.02,1.0,s
3283.0,3023.0,3024.0,2935.0,3739.0,3013.0,3136.0,3498.0,0.07,10.07,1.54,-0.04,-0.03,-0.04,1.0,s
3291.0,3024.0,3022.0,2943.0,3754.0,3011.0,3130.0,3489.0,0.17,10.05,1.52,-0.03,-0.01,-0.06,1.0,s
3306.0,3035.0,3021.0,2945.0,3759.0,3021.0,3136.0,3501.0,-0.04,10.01,1.47,-0.09,-0.01,-0.04,1.0,s
3286.0,3027.0,3025.0,2949.0,3760.0,3023.0,3131.0,3491.0,-0.01,9.95,1.62,-0.08,-0.01,-0.03,1.0,s
3284.0,3030.0,3024.0,2943.0,3753.0,3021.0,3136.0,3489.0,0.02,9.89,1.68,-0.07,-0.01,-0.03,1.0,s
3292.0,3030.0,3028.0,2947.0,3757.0,3023.0,3134.0,3500.0,0.1,9.96,1.63,-0.04,-0.01,-0.03,1.0,s
3295.0,3026.0,3024.0,2953.0,3765.0,3029.0,3139.0,3491.0,-0.03,10.0,1.51,-0.06,-0.01,-0.03,1.0,s
3287.0,3029.0,3024.0,2947.0,3771.0,3024.0,3134.0,3491.0,0.04,10.0,1.54,-0.07,-0.0,-0.03,1.0,s
3298.0,3035.0,3033.0,2948.0,3770.0,3029.0,3133.0,3489.0,0.03,9.97,1.6,-0.06,0.02,-0.02,1.0,s
3300.0,3030.0,3031.0,2951.0,3763.0,3028.0,3135.0,3487.0,-0.02,9.96,1.54,-0.14,-0.03,-0.02,1.0,s
3296.0,3026.0,3025.0,2955.0,3773.0,3024.0,3130.0,3485.0,-0.04,9.98,1.69,-0.09,0.01,-0.01,1.0,s
3293.0,3029.0,3023.0,2950.0,3764.0,3030.0,3137.0,3492.0,0.07,9.94,1.69,-0.06,0.02,-0.02,1.0,s
3307.0,3027.0,3027.0,2955.0,3766.0,3025.0,3135.0,3488.0,0.11,9.96,1.73,-0.03,0.03,-0.02,1.0,s
3290.0,3027.0,3024.0,2955.0,3760.0,3029.0,3127.0,3492.0,0.13,9.9,1.71,-0.03,-0.0,-0.06,1.0,s
3311.0,3035.0,3028.0,2996.0,3798.0,3083.0,3151.0,3488.0,-3.59,8.67,3.39,-0.06,0.03,-0.05,1.0,s
3301.0,3031.0,3024.0,2996.0,3799.0,3085.0,3151.0,3487.0,-3.57,8.73,3.35,-0.06,0.03,-0.03,1.0,s
3323.0,3038.0,3033.0,2997.0,3810.0,3088.0,3157.0,3490.0,-3.51,8.72,3.37,-0.06,0.0,-0.03,1.0,s
3317.0,3043.0,3037.0,3004.0,3818.0,3088.0,3152.0,3485.0,-3.49,8.78,3.32,-0.03,0.03,-0.04,1.0,s
3306.0,3037.0,3034.0,2995.0,3796.0,3087.0,3152.0,3490.0,-3.56,8.68,3.32,-0.09,0.0,-0.05,1.0,s
3313.0,3051.0,3034.0,3006.0,3822.0,3089.0,3155.0,3490.0,-3.57,8.72,3.39,-0.07,0.01,-0.04,1.0,s
3309.0,3039.0,3039.0,3001.0,3805.0,3089.0,3153.0,3502.0,-3.61,8.72,3.35,-0.09,0.03,-0.03,1.0,s
3327.0,3034.0,3024.0,2998.0,3807.0,3088.0,3152.0,3491.0,-3.53,8.69,3.42,-0.05,0.01,-0.03,1.0,s
3326.0,3042.0,3029.0,3006.0,3815.0,3090.0,3158.0,3501.0,-3.52,8.69,3.37,-0.08,0.01,-0.04,1.0,s
3315.0,3039.0,3027.0,3003.0,3811.0,3088.0,3152.0,3491.0,-3.56,8.65,3.39,-0.08,-0.01,-0.05,1.0,s
3302.0,3039.0,3026.0,3007.0,3803.0,3090.0,3154.0,3499.0,-3.53,8.64,3.43,-0.07,0.01,-0.05,1.0,s
3313.0,3038.0,3040.0,3006.0,3814.0,3091.0,3155.0,3487.0,-3.57,8.75,3.4,-0.06,-0.0,-0.06,1.0,s
3312.0,3039.0,3038.0,3006.0,3823.0,3093.0,3152.0,3493.0,-3.58,8.72,3.47,-0.07,0.01,-0.05,1.0,s
3311.0,3041.0,3041.0,3006.0,3813.0,3088.0,3152.0,3491.0,-3.48,8.71,3.38,-0.03,0.02,-0.06,1.0,s
3311.0,3039.0,3027.0,3003.0,3815.0,3086.0,3152.0,3496.0,-3.65,8.76,3.27,-0.07,0.03,-0.05,1.0,s
3319.0,3047.0,3033.0,3008.0,3824.0,3088.0,3154.0,3493.0,-3.58,8.68,3.33,-0.05,-0.0,-0.06,1.0,s
3314.0,3041.0,3024.0,3003.0,3825.0,3094.0,3157.0,3499.0,-3.72,8.72,3.38,-0.08,0.02,-0.04,1.0,s
3313.0,3042.0,3025.0,3006.0,3819.0,3094.0,3157.0,3504.0,-3.65,8.64,3.45,-0.05,0.01,-0.04,1.0,s
3314.0,3043.0,3025.0,3007.0,3821.0,3093.0,3155.0,3499.0,-3.54,8.57,3.49,-0.06,0.01,-0.04,1.0,s
3322.0,3037.0,3041.0,3010.0,3824.0,3099.0,3155.0,3499.0,-3.45,8.56,3.53,-0.07,-0.02,-0.03,1.0,s
3326.0,3039.0,3034.0,3019.0,3821.0,3086.0,3120.0,3429.0,1.49,9.51,3.43,-0.1,-0.02,-0.04,1.0,s
3332.0,3041.0,3024.0,3015.0,3824.0,3087.0,3120.0,3431.0,1.72,9.41,3.51,-0.04,-0.02,-0.05,1.0,s
3314.0,3050.0,3031.0,3011.0,3824.0,3092.0,3130.0,3437.0,1.62,9.45,3.42,-0.06,-0.01,-0.05,1.0,s
3323.0,3043.0,3037.0,3018.0,3833.0,3089.0,3121.0,3429.0,1.5,9.43,3.4,-0.04,-0.04,-0.06,1.0,s
3313.0,3038.0,3027.0,3014.0,3823.0,3085.0,3121.0,3434.0,1.56,9.47,3.33,-0.05,-0.01,-0.06,1.0,s
3312.0,3037.0,3026.0,3004.0,3830.0,3088.0,3126.0,3440.0,1.37,9.5,3.3,-0.07,-0.02,-0.03,1.0,s
3326.0,3045.0,3035.0,2995.0,3839.0,3095.0,3129.0,3440.0,1.5,9.51,3.33,-0.05,-0.02,-0.04,1.0,s
3328.0,3042.0,3031.0,2960.0,3835.0,3095.0,3132.0,3441.0,1.57,9.49,3.26,-0.07,-0.0,-0.04,1.0,s
3312.0,3039.0,3019.0,2956.0,3824.0,3088.0,3125.0,3441.0,1.66,9.59,3.25,-0.02,0.03,-0.04,1.0,s
3315.0,3052.0,3026.0,2963.0,3824.0,3091.0,3123.0,3439.0,1.59,9.5,3.29,-0.05,0.02,-0.05,1.0,s
3314.0,3031.0,3030.0,2961.0,3823.0,3093.0,3126.0,3443.0,1.58,9.51,3.33,-0.05,0.0,-0.07,1.0,s
3323.0,3041.0,3031.0,2975.0,3831.0,3101.0,3130.0,3443.0,1.4,9.53,3.29,-0.07,0.01,-0.05,1.0,s
3319.0,3051.0,3024.0,2977.0,3831.0,3097.0,3123.0,3439.0,1.53,9.54,3.34,-0.06,-0.01,-0.05,1.0,s
3326.0,3040.0,3026.0,2988.0,3829.0,3093.0,3127.0,3446.0,1.55,9.49,3.31,-0.1,-0.0,-0.03,1.0,s
3325.0,3046.0,3023.0,2981.0,3825.0,3097.0,3129.0,3451.0,1.64,9.46,3.33,-0.07,-0.01,-0.05,1.0,s
3314.0,3045.0,3020.0,2979.0,3838.0,3099.0,3127.0,3447.0,1.64,9.52,3.33,-0.08,0.0,-0.08,1.0,s
3329.0,3043.0,3029.0,2987.0,3839.0,3106.0,3134.0,3457.0,1.53,9.47,3.42,-0.09,-0.02,-0.08,1.0,s
3323.0,3047.0,3031.0,2986.0,3837.0,3104.0,3136.0,3456.0,1.51,9.47,3.45,-0.05,0.02,-0.08,1.0,s
3314.0,3031.0,3022.0,2999.0,3834.0,3093.0,3129.0,3455.0,1.53,9.39,3.38,-0.08,0.04,-0.08,1.0,s
3339.0,3047.0,3029.0,3104.0,3835.0,3088.0,3130.0,3469.0,1.38,9.47,3.59,-0.15,0.19,-0.08,1.0,s
3473.0,3088.0,3020.0,3025.0,3793.0,3135.0,3278.0,3725.0,0.98,9.33,3.83,-0.07,-0.0,-0.03,1.0,s
3475.0,3090.0,3024.0,3046.0,3805.0,3138.0,3279.0,3725.0,0.92,9.4,3.85,-0.07,-0.01,-0.05,1.0,s
3462.0,3087.0,3023.0,3045.0,3791.0,3133.0,3278.0,3724.0,0.8,9.34,3.86,-0.1,0.01,-0.04,1.0,s
3457.0,3071.0,3021.0,3056.0,3799.0,3138.0,3280.0,3728.0,0.7,9.42,3.91,-0.06,0.01,-0.05,1.0,s
3472.0,3092.0,3029.0,3061.0,3805.0,3138.0,3283.0,3729.0,0.69,9.3,4.04,-0.06,0.0,-0.04,1.0,s
3467.0,3089.0,3017.0,3067.0,3806.0,3133.0,3280.0,3720.0,0.72,9.39,3.98,-0.05,0.01,-0.02,1.0,s
3470.0,3095.0,3024.0,3055.0,3794.0,3135.0,3280.0,3728.0,0.84,9.3,3.86,-0.1,-0.02,-0.0,1.0,s
3456.0,3105.0,3019.0,3055.0,3809.0,3141.0,3283.0,3717.0,0.87,9.44,3.9,-0.05,0.03,-0.04,1.0,s
3451.0,3091.0,3037.0,3055.0,3805.0,3141.0,3282.0,3727.0,0.85,9.24,3.98,-0.06,0.01,-0.03,1.0,s
3463.0,3079.0,3017.0,3058.0,3795.0,3136.0,3280.0,3719.0,0.86,9.38,4.04,-0.06,0.04,-0.03,1.0,s
3445.0,3083.0,3011.0,3059.0,3796.0,3138.0,3282.0,3731.0,0.87,9.28,3.97,-0.06,-0.02,-0.01,1.0,s
3457.0,3095.0,3024.0,3067.0,3799.0,3136.0,3280.0,3728.0,0.82,9.41,3.9,-0.07,0.02,-0.03,1.0,s
3460.0,3088.0,3013.0,3061.0,3812.0,3138.0,3281.0,3729.0,0.91,9.19,4.01,-0.09,-0.05,-0.03,1.0,s
3466.0,3095.0,3023.0,3053.0,3814.0,3138.0,3283.0,3734.0,0.84,9.44,3.97,-0.07,0.01,-0.01,1.0,s
3472.0,3093.0,3013.0,3005.0,3802.0,3131.0,3279.0,3728.0,0.95,9.22,3.96,-0.06,-0.06,-0.05,1.0,s
3469.0,3093.0,3031.0,3025.0,3813.0,3137.0,3284.0,3725.0,0.91,9.39,4.07,-0.05,0.06,-0.03,1.0,s
3465.0,3091.0,3021.0,3024.0,3817.0,3140.0,3280.0,3728.0,0.9,9.28,4.05,-0.04,-0.01,-0.04,1.0,s
3451.0,3093.0,3019.0,3031.0,3820.0,3135.0,3279.0,3728.0,0.92,9.43,3.9,-0.06,0.02,-0.03,1.0,s
3467.0,3089.0,3015.0,3038.0,3809.0,3131.0,3278.0,3723.0,0.93,9.34,3.86,-0.09,-0.02,-0.04,1.0,s
3454.0,3085.0,3010.0,3031.0,3798.0,3135.0,3280.0,3728.0,0.94,9.27,4.08,-0.09,0.03,-0.02,1.0,s
3470.0,3094.0,3023.0,3045.0,3824.0,3140.0,3286.0,3730.0,-2.18,8.2,5.92,-0.16,-0.03,-0.37,1.0,s
3443.0,3095.0,3024.0,3050.0,3820.0,3139.0,3282.0,3728.0,-2.16,8.3,5.71,-0.13,-0.01,-0.23,1.0,s
3457.0,3087.0,3024.0,3054.0,3809.0,3137.0,3280.0,3726.0,-1.94,8.25,5.54,-0.07,-0.03,-0.19,1.0,s
3453.0,3087.0,3022.0,3050.0,3818.0,3143.0,3285.0,3737.0,-1.8,8.32,5.43,-0.07,0.02,-0.16,1.0,s
3461.0,3097.0,3026.0,3050.0,3824.0,3145.0,3284.0,3742.0,-1.77,8.27,5.48,-0.1,-0.05,-0.14,1.0,s
3457.0,3090.0,3025.0,3056.0,3811.0,3140.0,3278.0,3727.0,-1.95,8.39,5.38,-0.07,0.02,-0.11,1.0,s
3466.0,3093.0,3015.0,3053.0,3813.0,3139.0,3280.0,3731.0,-1.97,8.28,5.48,-0.08,-0.02,-0.08,1.0,s
3454.0,3090.0,3023.0,3055.0,3810.0,3139.0,3280.0,3730.0,-1.79,8.29,5.53,-0.07,-0.02,-0.05,1.0,s
3461.0,3091.0,3014.0,3056.0,3815.0,3136.0,3281.0,3727.0,-1.76,8.26,5.47,-0.07,-0.02,-0.05,1.0,s
3455.0,3097.0,3014.0,3057.0,3819.0,3142.0,3280.0,3725.0,-1.8,8.39,5.37,-0.08,0.01,-0.05,1.0,s
3461.0,3082.0,3013.0,3055.0,3819.0,3140.0,3281.0,3735.0,-1.82,8.26,5.52,-0.06,-0.01,-0.04,1.0,s
3456.0,3089.0,3022.0,3055.0,3805.0,3134.0,3280.0,3730.0,-1.71,8.21,5.66,-0.07,-0.01,-0.05,1.0,s
3459.0,3079.0,3030.0,3058.0,3835.0,3143.0,3287.0,3739.0,-1.67,8.35,5.61,-0.03,0.0,-0.06,1.0,s
3463.0,3097.0,3024.0,3058.0,3833.0,3142.0,3283.0,3725.0,-1.77,8.25,5.47,-0.04,-0.01,-0.07,1.0,s
3451.0,3079.0,3011.0,3056.0,3824.0,3141.0,3280.0,3729.0,-1.96,8.27,5.39,-0.07,0.01,-0.06,1.0,s
3447.0,3081.0,3015.0,3054.0,3818.0,3146.0,3281.0,3734.0,-1.87,8.28,5.47,-0.04,-0.0,-0.07,1.0,s
3446.0,3087.0,3021.0,3056.0,3815.0,3139.0,3281.0,3734.0,-1.95,8.26,5.59,-0.07,-0.0,-0.04,1.0,s
3458.0,3086.0,3020.0,3050.0,3824.0,3139.0,3281.0,3733.0,-1.96,8.28,5.4,-0.06,0.01,-0.03,1.0,s
3474.0,3088.0,3023.0,3060.0,3830.0,3146.0,3284.0,3724.0,-1.98,8.27,5.41,-0.07,0.07,-0.02,1.0,s
3455.0,3089.0,3023.0,3055.0,3825.0,3141.0,3280.0,3737.0,-1.81,8.3,5.38,-0.07,-0.01,-0.01,1.0,s
3441.0,3087.0,3021.0,3059.0,3837.0,3143.0,3284.0,3725.0,-3.34,8.82,3.3,-0.15,-0.02,-0.09,1.0,s
3441.0,3084.0,3013.0,3056.0,3824.0,3142.0,3280.0,3742.0,-3.37,8.81,3.36,-0.1,0.02,-0.11,1.0,s
3463.0,3088.0,3018.0,3066.0,3830.0,3142.0,3280.0,3723.0,-3.53,8.73,3.28,-0.09,0.03,-0.09,1.0,s
3456.0,3095.0,3024.0,3065.0,3829.0,3141.0,3280.0,3725.0,-3.66,8.81,3.0,-0.1,0.09,-0.05,1.0,s
3454.0,3089.0,3022.0,3056.0,3819.0,3136.0,3277.0,3728.0,-3.68,8.81,2.99,-0.13,0.13,-0.01,1.0,s
3454.0,3089.0,3019.0,3061.0,3837.0,3139.0,3278.0,3726.0,-3.67,8.81,3.1,-0.11,0.02,0.01,1.0,s
3449.0,3087.0,3024.0,3065.0,3833.0,3136.0,3278.0,3722.0,-3.43,8.8,3.22,-0.11,-0.03,0.02,1.0,s
3444.0,3087.0,3027.0,3062.0,3833.0,3136.0,3275.0,3728.0,-3.16,8.81,3.45,-0.07,-0.03,-0.01,1.0,s
3451.0,3101.0,3024.0,3062.0,3827.0,3137.0,3277.0,3728.0,-3.11,8.72,3.51,-0.05,-0.01,-0.08,1.0,s
3452.0,3091.0,3022.0,3061.0,3824.0,3137.0,3278.0,3728.0,-3.38,8.74,3.4,-0.01,0.07,-0.09,1.0,s
3436.0,3091.0,3013.0,3054.0,3824.0,3138.0,3279.0,3728.0,-3.75,8.75,3.28,0.02,0.01,-0.08,1.0,s
3447.0,3088.0,3010.0,3056.0,3831.0,3142.0,3280.0,3733.0,-3.59,8.83,3.01,0.01,-0.01,-0.06,1.0,s
3442.0,3087.0,3024.0,3057.0,3838.0,3143.0,3280.0,3729.0,-3.6,8.83,2.92,-0.01,0.03,-0.04,1.0,s
3456.0,3085.0,3025.0,3056.0,3826.0,3137.0,3279.0,3730.0,-3.6,8.83,2.9,-0.03,0.01,-0.03,1.0,s
3438.0,3092.0,3024.0,3053.0,3826.0,3131.0,3263.0,3711.0,-3.47,8.84,2.95,-0.01,0.04,-0.01,1.0,s
3447.0,3092.0,3017.0,3049.0,3831.0,3123.0,3257.0,3703.0,-3.47,8.88,2.86,-0.06,0.01,-0.03,1.0,s
3452.0,3089.0,3011.0,3054.0,3831.0,3120.0,3252.0,3696.0,-3.46,8.86,2.98,-0.08,0.01,-0.04,1.0,s
3453.0,3092.0,3014.0,3056.0,3840.0,3120.0,3248.0,3696.0,-3.56,8.83,3.03,-0.08,0.01,-0.04,1.0,s
3427.0,3088.0,3013.0,3054.0,3824.0,3121.0,3258.0,3703.0,-3.49,8.81,3.1,-0.08,-0.0,-0.03,1.0,s
3437.0,3087.0,3024.0,3054.0,3830.0,3123.0,3259.0,3711.0,-3.31,8.85,3.06,-0.08,0.01,-0.05,1.0,s
3425.0,3071.0,3024.0,3028.0,3829.0,3098.0,3214.0,3620.0,-1.1,9.83,1.61,-0.1,0.0,-0.04,1.0,s
3429.0,3087.0,3025.0,3026.0,3819.0,3093.0,3207.0,3613.0,-1.04,9.85,1.66,-0.1,0.0,-0.01,1.0,s
3421.0,3071.0,3024.0,3039.0,3840.0,3097.0,3205.0,3611.0,-0.84,9.87,1.67,-0.06,0.01,-0.02,1.0,s
3408.0,3069.0,3018.0,3030.0,3825.0,3094.0,3207.0,3617.0,-0.69,9.89,1.71,-0.06,-0.0,-0.06,1.0,s
3425.0,3081.0,3022.0,3029.0,3824.0,3094.0,3211.0,3622.0,-0.8,9.92,1.57,-0.01,-0.0,-0.09,1.0,s
3422.0,3088.0,3019.0,3033.0,3829.0,3101.0,3210.0,3616.0,-0.92,9.92,1.4,-0.02,-0.0,-0.09,1.0,s
3421.0,3082.0,3025.0,3035.0,3827.0,3094.0,3207.0,3618.0,-1.05,9.92,1.25,-0.07,0.02,-0.05,1.0,s
3431.0,3088.0,3013.0,3033.0,3824.0,3095.0,3207.0,3619.0,-1.04,9.9,1.44,-0.07,-0.01,-0.05,1.0,s
3423.0,3085.0,3010.0,3027.0,3824.0,3097.0,3215.0,3626.0,-1.07,9.94,1.38,-0.09,-0.02,-0.02,1.0,s
3422.0,3089.0,3024.0,3009.0,3838.0,3071.0,3211.0,3622.0,-0.9,9.89,1.54,-0.09,-0.03,-0.01,1.0,s
3415.0,3089.0,3022.0,3003.0,3834.0,3066.0,3210.0,3620.0,-0.81,9.9,1.75,-0.06,0.03,-0.03,1.0,s
3404.0,3092.0,3018.0,2997.0,3839.0,3071.0,3206.0,3619.0,-0.82,9.91,1.61,-0.04,0.01,-0.06,1.0,s
3408.0,3071.0,3022.0,2993.0,3823.0,3071.0,3216.0,3632.0,-0.89,9.88,1.62,-0.03,0.03,-0.05,1.0,s
3409.0,3081.0,3022.0,3002.0,3829.0,3087.0,3216.0,3639.0,-0.87,9.89,1.64,-0.01,-0.02,-0.08,1.0,s
3403.0,3087.0,3019.0,3001.0,3819.0,3081.0,3217.0,3635.0,-0.94,9.94,1.43,-0.01,0.0,-0.08,1.0,s
3422.0,3086.0,3015.0,3004.0,3827.0,3082.0,3211.0,3627.0,-1.04,9.9,1.42,-0.06,0.0,-0.06,1.0,s
3418.0,3090.0,3034.0,3007.0,3831.0,3088.0,3216.0,3626.0,-1.03,9.94,1.33,-0.05,0.02,-0.04,1.0,s
3424.0,3098.0,3025.0,3007.0,3831.0,3088.0,3222.0,3638.0,-0.99,9.9,1.36,-0.06,0.02,-0.03,1.0,s
3408.0,3094.0,3027.0,3009.0,3838.0,3090.0,3216.0,3623.0,-0.96,9.96,1.28,-0.09,0.02,-0.03,1.0,s
3408.0,3082.0,3015.0,3003.0,3825.0,3088.0,3219.0,3636.0,-0.99,9.91,1.44,-0.1,0.03,-0.04,1.0,s
3266.0,3063.0,3031.0,2874.0,3806.0,3049.0,3126.0,3443.0,1.71,9.71,2.65,-0.02,-0.01,-0.05,1.0,s
3270.0,3054.0,3030.0,2870.0,3803.0,3053.0,3127.0,3447.0,1.57,9.68,2.62,-0.04,-0.01,-0.05,1.0,s
3266.0,3059.0,3031.0,2879.0,3818.0,3057.0,3133.0,3457.0,1.67,9.68,2.66,-0.04,-0.0,-0.05,1.0,s
3282.0,3056.0,3037.0,2869.0,3811.0,3055.0,3129.0,3455.0,1.56,9.7,2.55,-0.04,0.02,-0.04,1.0,s
3284.0,3061.0,3033.0,2878.0,3823.0,3056.0,3131.0,3440.0,1.77,9.6,2.68,-0.05,-0.07,-0.03,1.0,s
3268.0,3051.0,3031.0,2871.0,3813.0,3056.0,3131.0,3456.0,1.81,9.75,2.63,-0.01,-0.02,-0.08,1.0,s
3279.0,3056.0,3026.0,2877.0,3807.0,3056.0,3130.0,3459.0,1.47,9.73,2.65,-0.06,0.01,-0.06,1.0,s
3280.0,3057.0,3023.0,2879.0,3819.0,3059.0,3137.0,3472.0,1.39,9.68,2.72,-0.07,-0.04,-0.04,1.0,s
3277.0,3059.0,3024.0,2878.0,3807.0,3057.0,3135.0,3471.0,1.56,9.75,2.54,-0.05,0.01,-0.02,1.0,s
3272.0,3058.0,3037.0,2881.0,3824.0,3066.0,3138.0,3468.0,1.64,9.69,2.57,-0.07,-0.01,-0.02,1.0,s
3275.0,3068.0,3028.0,2880.0,3829.0,3063.0,3139.0,3472.0,1.69,9.76,2.58,-0.04,0.03,-0.04,1.0,s
3277.0,3063.0,3024.0,2883.0,3830.0,3063.0,3137.0,3470.0,1.65,9.63,2.64,-0.04,-0.02,-0.06,1.0,s
3280.0,3067.0,3031.0,2883.0,3825.0,3064.0,3138.0,3463.0,1.55,9.74,2.53,-0.07,0.03,-0.04,1.0,s
3263.0,3056.0,3021.0,2883.0,3815.0,3059.0,3133.0,3466.0,1.53,9.7,2.6,-0.05,0.01,-0.06,1.0,s
3278.0,3066.0,3029.0,2893.0,3824.0,3059.0,3129.0,3461.0,1.75,9.68,2.49,-0.05,0.06,-0.06,1.0,s
3283.0,3063.0,3024.0,2897.0,3826.0,3056.0,3130.0,3484.0,1.58,9.9,2.38,-0.54,0.05,-0.13,1.0,s
3283.0,3067.0,3031.0,2925.0,3817.0,3008.0,3123.0,3498.0,1.02,9.49,2.92,-0.72,0.16,-0.14,1.0,s
3287.0,3065.0,3031.0,3046.0,3781.0,2971.0,3122.0,3504.0,1.45,9.52,3.61,-0.32,-0.06,-0.11,1.0,s
3294.0,3071.0,3035.0,3263.0,3780.0,2966.0,3119.0,3501.0,0.93,9.0,3.56,0.25,-0.25,0.02,1.0,s
3294.0,3067.0,3024.0,3386.0,3773.0,2971.0,3120.0,3493.0,1.52,9.73,3.04,0.02,-0.05,-0.08,1.0,s
3276.0,3056.0,3024.0,2925.0,3739.0,2978.0,3146.0,3502.0,0.89,8.53,5.55,-0.01,-0.0,-0.12,1.0,s
3278.0,3070.0,3028.0,2928.0,3747.0,2983.0,3152.0,3509.0,0.76,8.49,5.4,-0.02,0.02,-0.07,1.0,s
3275.0,3063.0,3019.0,2927.0,3745.0,2979.0,3152.0,3504.0,0.85,8.43,5.32,-0.09,-0.03,-0.0,1.0,s
3271.0,3070.0,3024.0,2928.0,3749.0,2983.0,3147.0,3505.0,1.17,8.46,5.45,-0.14,-0.02,0.01,1.0,s
3278.0,3068.0,3024.0,2928.0,3745.0,2983.0,3145.0,3505.0,1.34,8.49,5.75,-0.11,-0.01,-0.02,1.0,s
3280.0,3054.0,3022.0,2928.0,3743.0,2978.0,3150.0,3505.0,1.22,8.37,5.84,-0.08,0.02,-0.05,1.0,s
3265.0,3055.0,3021.0,2928.0,3739.0,2977.0,3145.0,3506.0,0.91,8.33,5.79,-0.09,-0.0,-0.04,1.0,s
3280.0,3071.0,3033.0,2928.0,3756.0,2985.0,3151.0,3488.0,1.06,8.4,5.75,-0.05,-0.04,-0.05,1.0,s
3296.0,3066.0,3024.0,2935.0,3759.0,2985.0,3151.0,3504.0,1.05,8.43,5.71,-0.05,-0.02,-0.02,1.0,s
3280.0,3056.0,3022.0,2928.0,3739.0,2978.0,3146.0,3504.0,1.23,8.47,5.59,-0.01,-0.02,-0.06,1.0,s
3278.0,3056.0,3030.0,2928.0,3759.0,2986.0,3152.0,3504.0,1.22,8.45,5.49,-0.07,-0.02,-0.05,1.0,s
3275.0,3056.0,3024.0,2928.0,3746.0,2982.0,3147.0,3503.0,1.11,8.44,5.62,-0.06,-0.01,-0.04,1.0,s
3281.0,3059.0,3027.0,2929.0,3744.0,2981.0,3142.0,3498.0,1.04,8.5,5.58,-0.09,-0.03,-0.02,1.0,s
3280.0,3060.0,3022.0,2927.0,3743.0,2983.0,3140.0,3493.0,1.15,8.39,5.66,-0.06,-0.01,-0.01,1.0,s
3281.0,3069.0,3031.0,2921.0,3741.0,2983.0,3143.0,3495.0,1.19,8.47,5.7,-0.07,-0.03,-0.01,1.0,s
3268.0,3056.0,3022.0,2922.0,3739.0,2982.0,3136.0,3485.0,1.3,8.32,5.71,-0.04,-0.01,-0.05,1.0,s
3263.0,3056.0,3026.0,2917.0,3745.0,2981.0,3134.0,3474.0,1.15,8.37,5.67,-0.09,0.01,-0.03,1.0,s
3287.0,3065.0,3039.0,2917.0,3750.0,2983.0,3136.0,3477.0,1.17,8.51,5.76,-0.01,-0.07,-0.06,1.0,s
3288.0,3056.0,3030.0,2938.0,3725.0,2962.0,3123.0,3464.0,1.26,8.29,5.61,-0.3,0.17,-0.06,1.0,s
3285.0,3066.0,3042.0,2949.0,3729.0,2966.0,3121.0,3462.0,1.09,8.51,5.74,-0.06,0.08,-0.06,1.0,s
3276.0,3047.0,3037.0,2927.0,3776.0,3012.0,3134.0,3435.0,-0.95,10.02,0.85,-0.06,0.12,-0.02,1.0,s
3270.0,3043.0,3025.0,2919.0,3760.0,3008.0,3138.0,3441.0,-0.83,9.91,0.83,-0.02,0.32,-0.02,1.0,s
3274.0,3056.0,3039.0,2927.0,3771.0,3009.0,3143.0,3440.0,-0.79,10.11,0.45,-0.01,0.05,-0.04,1.0,s
3262.0,3049.0,3026.0,2915.0,3762.0,3007.0,3139.0,3452.0,-0.7,10.05,0.68,-0.1,-0.01,-0.05,1.0,s
3265.0,3043.0,3025.0,2925.0,3760.0,3007.0,3136.0,3442.0,-0.89,9.89,0.97,-0.11,0.03,-0.03,1.0,s
3280.0,3047.0,3039.0,2923.0,3776.0,3011.0,3137.0,3447.0,-0.86,10.07,0.94,-0.06,-0.02,-0.04,1.0,s
3283.0,3053.0,3021.0,2912.0,3757.0,3008.0,3136.0,3449.0,-0.88,9.89,1.08,-0.08,-0.02,-0.04,1.0,s
3285.0,3047.0,3029.0,2915.0,3760.0,3008.0,3134.0,3445.0,-0.8,9.95,1.07,-0.03,-0.02,-0.06,1.0,s
3258.0,3041.0,3026.0,2914.0,3763.0,3007.0,3140.0,3450.0,-0.85,10.0,0.88,-0.05,-0.01,-0.06,1.0,s
3269.0,3058.0,3047.0,2912.0,3776.0,3008.0,3141.0,3441.0,-0.77,9.95,0.95,-0.02,-0.06,-0.09,1.0,s
3271.0,3046.0,3039.0,2915.0,3779.0,3008.0,3140.0,3453.0,-0.77,10.07,0.78,-0.02,0.0,-0.08,1.0,s
3273.0,3039.0,3030.0,2915.0,3773.0,3008.0,3136.0,3442.0,-1.0,10.04,0.72,-0.02,0.01,-0.08,1.0,s
3282.0,3047.0,3027.0,2915.0,3775.0,3013.0,3142.0,3447.0,-1.01,10.0,0.72,-0.06,0.01,-0.06,1.0,s
3278.0,3057.0,3031.0,2912.0,3774.0,3007.0,3133.0,3447.0,-1.0,9.94,0.83,-0.08,0.07,-0.04,1.0,s
3268.0,3055.0,3030.0,2911.0,3775.0,3008.0,3137.0,3455.0,-1.0,9.94,1.03,-0.09,0.02,-0.01,1.0,s
3274.0,3048.0,3034.0,2922.0,3778.0,3010.0,3140.0,3458.0,-0.72,10.0,0.92,-0.05,0.02,-0.02,1.0,s
3283.0,3055.0,3037.0,2919.0,3776.0,3011.0,3140.0,3455.0,-0.81,10.06,0.61,-0.06,-0.01,-0.04,1.0,s
3273.0,3042.0,3036.0,2917.0,3770.0,3011.0,3138.0,3455.0,-0.83,9.89,0.84,-0.05,0.0,-0.06,1.0,s
3280.0,3040.0,3029.0,2916.0,3763.0,3008.0,3136.0,3455.0,-1.01,9.96,0.77,-0.07,0.01,-0.05,1.0,s
3280.0,3054.0,3033.0,2923.0,3777.0,3019.0,3142.0,3456.0,-1.03,9.88,0.92,-0.06,-0.0,-0.04,1.0,s
3264.0,3056.0,3017.0,2937.0,3775.0,3014.0,3145.0,3486.0,-4.66,8.4,2.82,-0.09,0.06,-0.06,1.0,s
3259.0,3056.0,3024.0,2938.0,3776.0,3019.0,3147.0,3497.0,-4.81,8.28,2.89,-0.08,0.02,-0.03,1.0,s
3271.0,3054.0,3024.0,2938.0,3777.0,3021.0,3147.0,3489.0,-4.63,8.3,2.9,-0.08,0.0,-0.02,1.0,s
3282.0,3045.0,3030.0,2939.0,3787.0,3022.0,3145.0,3498.0,-4.53,8.32,2.91,-0.11,0.0,-0.01,1.0,s
3264.0,3046.0,3029.0,2937.0,3773.0,3017.0,3140.0,3489.0,-4.49,8.25,3.0,-0.07,0.02,-0.02,1.0,s
3280.0,3050.0,3029.0,2935.0,3775.0,3017.0,3138.0,3485.0,-4.59,8.31,2.98,-0.06,0.02,-0.02,1.0,s
3283.0,3049.0,3024.0,2941.0,3781.0,3021.0,3149.0,3502.0,-4.54,8.3,2.99,-0.06,0.0,-0.01,1.0,s
3280.0,3046.0,3028.0,2941.0,3778.0,3018.0,3142.0,3493.0,-4.47,8.39,2.91,-0.06,0.02,-0.01,1.0,s
3286.0,3051.0,3027.0,2943.0,3787.0,3024.0,3148.0,3495.0,-4.53,8.43,2.65,-0.06,0.01,-0.02,1.0,s
3279.0,3054.0,3037.0,2946.0,3786.0,3021.0,3139.0,3488.0,-4.41,8.3,2.74,-0.09,0.01,-0.02,1.0,s
3263.0,3049.0,3023.0,2942.0,3773.0,3017.0,3140.0,3487.0,-4.53,8.36,2.95,-0.17,-0.0,-0.03,1.0,s
3285.0,3056.0,3027.0,2946.0,3789.0,3023.0,3151.0,3485.0,-4.54,8.18,3.39,-0.14,-0.01,-0.01,1.0,s
3269.0,3054.0,3029.0,2947.0,3790.0,3022.0,3152.0,3501.0,-4.49,8.26,3.35,-0.08,0.01,0.0,1.0,s
3286.0,3055.0,3024.0,2945.0,3786.0,3025.0,3149.0,3489.0,-4.29,8.26,3.36,-0.02,0.01,-0.03,1.0,s
3279.0,3050.0,3037.0,2945.0,3779.0,3023.0,3141.0,3490.0,-4.23,8.4,3.13,0.01,0.02,-0.06,1.0,s
3280.0,3055.0,3025.0,2946.0,3779.0,3022.0,3147.0,3501.0,-4.41,8.34,3.06,0.02,0.01,-0.07,1.0,s
3277.0,3063.0,3029.0,2946.0,3783.0,3024.0,3149.0,3501.0,-4.64,8.33,3.02,0.05,0.02,-0.07,1.0,s
3274.0,3053.0,3024.0,2945.0,3776.0,3024.0,3150.0,3503.0,-4.77,8.29,2.78,0.04,0.03,-0.03,1.0,s
3280.0,3054.0,3025.0,2947.0,3783.0,3022.0,3147.0,3498.0,-4.92,8.43,2.61,0.0,-0.02,0.03,1.0,s
3271.0,3053.0,3024.0,2944.0,3778.0,3024.0,3151.0,3502.0,-4.8,8.4,2.81,0.01,-0.03,0.1,1.0,s
70.0,3159.0,3514.0,-2.07,8.35,5.43,-0.11,-0.02,-0.05,1.0,s
3525.0,3083.0,3033.0,2951.0,3714.0,3071.0,3166.0,3518.0,-2.07,8.22,5.49,-0.1,-0.02,-0.03,1.0,s
3535.0,3083.0,3049.0,2960.0,3721.0,3071.0,3167.0,3515.0,-2.03,8.37,5.32,-0.02,-0.0,-0.04,1.0,s
3527.0,3057.0,3041.0,2960.0,3719.0,3082.0,3170.0,3520.0,-1.9,8.39,5.11,-0.06,-0.02,-0.04,1.0,s
3519.0,3071.0,3043.0,2960.0,3723.0,3070.0,3157.0,3507.0,-2.02,8.27,5.15,-0.07,-0.01,-0.08,1.0,s
3520.0,3085.0,3039.0,2960.0,3717.0,3070.0,3159.0,3510.0,-2.22,8.29,5.38,-0.1,-0.03,-0.08,1.0,s
3521.0,3071.0,3038.0,2957.0,3718.0,3070.0,3167.0,3519.0,-2.13,8.37,5.31,-0.05,0.02,-0.05,1.0,s
3521.0,3069.0,3024.0,2954.0,3721.0,3071.0,3171.0,3521.0,-2.12,8.34,5.23,-0.08,-0.03,-0.03,1.0,s
3530.0,3062.0,3036.0,2959.0,3709.0,3067.0,3163.0,3512.0,-1.99,8.36,5.3,-0.05,-0.03,-0.02,1.0,s
3532.0,3070.0,3035.0,2955.0,3718.0,3071.0,3170.0,3520.0,-1.95,8.42,5.33,-0.03,-0.0,-0.04,1.0,s
3520.0,3082.0,3043.0,2959.0,3718.0,3070.0,3171.0,3525.0,-1.78,8.42,5.34,-0.01,-0.0,-0.06,1.0,s
3524.0,3069.0,3041.0,2958.0,3729.0,3070.0,3164.0,3517.0,-1.85,8.49,5.23,-0.01,0.03,-0.07,1.0,s
3518.0,3063.0,3035.0,2954.0,3719.0,3069.0,3171.0,3519.0,-1.99,8.37,5.2,-0.01,0.03,-0.08,1.0,s
3523.0,3063.0,3031.0,2955.0,3723.0,3069.0,3170.0,3510.0,-2.19,8.45,5.04,-0.03,0.04,-0.08,1.0,s
3523.0,3088.0,3038.0,2960.0,3727.0,3066.0,3168.0,3510.0,-2.22,8.37,5.13,-0.05,0.01,-0.05,1.0,s
3529.0,3071.0,3025.0,2960.0,3717.0,3066.0,3167.0,3515.0,-2.18,8.37,5.18,-0.03,0.01,-0.05,1.0,s
3504.0,3082.0,3037.0,2961.0,3717.0,3071.0,3170.0,3519.0,-1.99,8.31,5.19,-0.04,0.0,-0.04,1.0,s
3526.0,3071.0,3041.0,2961.0,3730.0,3087.0,3172.0,3521.0,-2.01,8.58,5.07,0.03,0.0,-0.06,1.0,s
3525.0,3087.0,3042.0,2961.0,3727.0,3071.0,3172.0,3518.0,-2.0,8.4,5.01,-0.07,-0.0,-0.05,1.0,s
3535.0,3086.0,3040.0,2960.0,3728.0,3086.0,3175.0,3520.0,-2.17,8.36,5.12,-0.1,-0.02,-0.05,1.0,s
3524.0,3087.0,3037.0,2971.0,3722.0,3060.0,3170.0,3519.0,-1.03,8.77,4.03,0.71,0.02,0.47,1.0,s
3535.0,3071.0,3043.0,2973.0,3745.0,3059.0,3168.0,3521.0,-0.6,9.39,2.99,0.6,-0.06,0.39,1.0,s
3532.0,3069.0,3043.0,2966.0,3747.0,3062.0,3174.0,3527.0,-0.21,9.42,2.72,0.47,-0.16,0.32,1.0,s
3510.0,3067.0,3041.0,2964.0,3739.0,3055.0,3167.0,3520.0,-0.18,9.67,2.56,0.39,-0.08,0.27,1.0,s
3516.0,3071.0,3036.0,2965.0,3734.0,3058.0,3171.0,3531.0,-0.14,9.68,2.3,0.28,-0.07,0.18,1.0,s
3507.0,3082.0,3037.0,2967.0,3728.0,3051.0,3168.0,3523.0,0.08,9.83,2.31,0.16,-0.02,0.11,1.0,s
3487.0,3088.0,3035.0,2961.0,3738.0,3056.0,3171.0,3535.0,0.03,9.78,2.33,0.01,-0.05,0.05,1.0,s
3506.0,3071.0,3026.0,2966.0,3748.0,3058.0,3171.0,3534.0,-0.01,9.77,2.54,0.01,-0.03,-0.03,1.0,s
3510.0,3085.0,3036.0,2971.0,3745.0,3056.0,3169.0,3535.0,-0.23,9.67,2.72,-0.04,-0.04,-0.05,1.0,s
3494.0,3067.0,3045.0,2966.0,3731.0,3055.0,3171.0,3531.0,-0.33,9.81,2.55,-0.05,0.01,-0.09,1.0,s
3529.0,3088.0,3037.0,2972.0,3749.0,3054.0,3165.0,3531.0,-0.34,9.72,2.66,-0.05,0.03,-0.08,1.0,s
3515.0,3085.0,3034.0,2967.0,3755.0,3051.0,3167.0,3531.0,-0.58,9.66,2.84,-0.11,-0.03,-0.08,1.0,s
3503.0,3071.0,3034.0,2966.0,3743.0,3058.0,3172.0,3535.0,-0.52,9.63,2.9,-0.08,-0.01,-0.07,1.0,s
3513.0,3081.0,3041.0,2966.0,3746.0,3056.0,3163.0,3526.0,-0.45,9.61,2.89,-0.08,-0.0,-0.06,1.0,s
3509.0,3071.0,3037.0,2975.0,3741.0,3062.0,3171.0,3524.0,-0.35,9.7,2.95,-0.04,0.04,-0.07,1.0,s
3515.0,3071.0,3031.0,2965.0,3738.0,3058.0,3170.0,3533.0,-0.51,9.63,2.79,-0.04,0.02,-0.08,1.0,s
3501.0,3079.0,3025.0,2966.0,3743.0,3056.0,3171.0,3533.0,-0.52,9.62,2.78,-0.07,-0.02,-0.05,1.0,s
3509.0,3071.0,3035.0,2965.0,3739.0,3057.0,3171.0,3530.0,-0.49,9.64,2.76,-0.09,-0.01,-0.03,1.0,s
3499.0,3071.0,3027.0,2963.0,3738.0,3057.0,3173.0,3536.0,-0.54,9.71,2.72,-0.08,0.0,-0.03,1.0,s
3511.0,3071.0,3026.0,2970.0,3739.0,3056.0,3169.0,3531.0,-0.52,9.71,2.8,-0.07,0.03,-0.03,1.0,s
3507.0,3071.0,3036.0,2946.0,3754.0,3071.0,3174.0,3538.0,0.31,10.29,0.36,-0.06,0.01,-0.17,1.0,s
3519.0,3061.0,3029.0,2949.0,3748.0,3071.0,3169.0,3530.0,-0.3,9.9,1.02,-0.17,-0.06,-0.22,1.0,s
3519.0,3080.0,3040.0,2949.0,3763.0,3071.0,3175.0,3534.0,-0.8,9.93,1.56,-0.13,-0.1,-0.16,1.0,s
3515.0,3069.0,3036.0,2953.0,3760.0,3082.0,3173.0,3532.0,-0.88,9.97,1.46,-0.09,0.04,-0.05,1.0,s
3509.0,3082.0,3043.0,2954.0,3756.0,3067.0,3169.0,3531.0,-0.51,9.96,1.32,-0.06,0.0,0.0,1.0,s
3499.0,3065.0,3031.0,2943.0,3743.0,3071.0,3165.0,3527.0,-0.25,10.05,1.11,-0.08,0.03,0.02,1.0,s
3504.0,3079.0,3042.0,2939.0,3756.0,3069.0,3154.0,3519.0,-0.16,10.02,1.14,-0.06,-0.02,-0.01,1.0,s
3486.0,3069.0,3025.0,2913.0,3750.0,3059.0,3148.0,3513.0,-0.21,9.8,1.27,-0.06,-0.07,-0.03,1.0,s
3499.0,3062.0,3039.0,2896.0,3760.0,3068.0,3152.0,3498.0,-0.16,10.46,1.1,0.07,0.04,-0.07,1.0,s
3487.0,3082.0,3045.0,2864.0,3760.0,3071.0,3151.0,3473.0,-0.04,9.74,1.28,0.08,0.01,-0.07,1.0,s
3502.0,3060.0,3050.0,2816.0,3759.0,3088.0,3147.0,3471.0,-0.37,10.69,0.52,0.02,0.04,-0.07,1.0,s
3499.0,3057.0,3039.0,2819.0,3761.0,3105.0,3156.0,3485.0,-0.18,9.39,1.33,-0.01,0.1,-0.07,1.0,s
3505.0,3059.0,3045.0,2832.0,3761.0,3106.0,3154.0,3476.0,-0.5,10.7,0.6,0.04,0.1,-0.09,1.0,s
3494.0,3059.0,3039.0,2849.0,3763.0,3105.0,3152.0,3474.0,-0.49,9.87,1.07,-0.06,-0.0,-0.09,1.0,s
3489.0,3063.0,3039.0,2859.0,3761.0,3104.0,3153.0,3481.0,-0.5,10.0,1.02,-0.16,-0.0,-0.03,1.0,s
3517.0,3063.0,3053.0,2871.0,3765.0,3109.0,3152.0,3479.0,-0.48,10.01,1.09,-0.03,0.02,-0.04,1.0,s
3506.0,3088.0,3050.0,2869.0,3775.0,3119.0,3157.0,3477.0,-0.34,10.01,0.94,-0.06,-0.02,-0.03,1.0,s
3517.0,3062.0,3039.0,2871.0,3779.0,3108.0,3158.0,3479.0,-0.32,9.99,1.01,-0.07,-0.02,-0.05,1.0,s
3506.0,3071.0,3052.0,2878.0,3776.0,3119.0,3158.0,3491.0,-0.49,9.98,1.01,-0.1,-0.01,-0.03,1.0,s
3499.0,3059.0,3039.0,2875.0,3772.0,3117.0,3162.0,3491.0,-0.37,10.0,1.05,-0.04,0.03,-0.05,1.0,s
3516.0,3246.0,3031.0,3071.0,3700.0,3070.0,3173.0,3520.0,-1.74,8.49,5.11,-0.11,0.02,-0.1,1.0,s
3505.0,3232.0,3026.0,3082.0,3711.0,3061.0,3166.0,3513.0,-1.78,8.52,5.22,-0.07,-0.01,-0.08,1.0,s
3526.0,3231.0,3026.0,3071.0,3717.0,3071.0,3171.0,3515.0,-1.81,8.46,5.2,-0.08,-0.02,-0.07,1.0,s
3533.0,3227.0,3029.0,3071.0,3718.0,3071.0,3171.0,3511.0,-1.91,8.49,5.19,-0.05,0.0,-0.05,1.0,s
3533.0,3233.0,3037.0,3067.0,3725.0,3067.0,3171.0,3509.0,-1.75,8.55,5.01,-0.05,0.01,-0.06,1.0,s
3509.0,3229.0,3026.0,3061.0,3709.0,3071.0,3169.0,3520.0,-1.79,8.56,4.99,-0.1,0.01,-0.06,1.0,s
3514.0,3237.0,3027.0,3060.0,3708.0,3069.0,3173.0,3517.0,-1.84,8.52,5.16,-0.1,0.0,-0.06,1.0,s
3515.0,3216.0,3038.0,3061.0,3712.0,3071.0,3178.0,3525.0,-1.85,8.42,5.25,-0.1,-0.01,-0.05,1.0,s
3519.0,3234.0,3029.0,3063.0,3727.0,3082.0,3179.0,3525.0,-2.02,8.42,5.26,-0.07,0.01,-0.03,1.0,s
3526.0,3230.0,3027.0,3066.0,3723.0,3085.0,3169.0,3515.0,-1.98,8.36,5.27,-0.06,-0.03,-0.01,1.0,s
3518.0,3237.0,3030.0,3061.0,3727.0,3071.0,3175.0,3521.0,-1.85,8.6,5.19,-0.03,-0.02,0.01,1.0,s
3520.0,3234.0,3030.0,3059.0,3722.0,3087.0,3173.0,3521.0,-1.79,8.43,5.11,-0.03,0.02,0.05,1.0,s
3504.0,3232.0,3027.0,3059.0,3722.0,3083.0,3173.0,3526.0,-1.71,8.63,5.03,-0.04,-0.01,0.0,1.0,s
3531.0,3237.0,3036.0,3069.0,3733.0,3085.0,3180.0,3519.0,-1.5,8.51,5.16,-0.02,0.02,-0.03,1.0,s
3514.0,3221.0,3039.0,3071.0,3723.0,3085.0,3178.0,3530.0,-1.53,8.5,5.1,-0.04,0.04,-0.06,1.0,s
3529.0,3229.0,3040.0,3091.0,3727.0,3071.0,3170.0,3531.0,-1.78,8.55,5.03,-0.09,0.05,-0.04,1.0,s
3526.0,3221.0,3023.0,3087.0,3719.0,3085.0,3177.0,3534.0,-1.84,8.55,5.09,-0.06,-0.02,-0.05,1.0,s
3527.0,3232.0,3030.0,3099.0,3733.0,3084.0,3174.0,3520.0,-1.82,8.46,5.12,-0.11,0.0,-0.02,1.0,s
3518.0,3237.0,3031.0,3093.0,3728.0,3083.0,3171.0,3521.0,-1.81,8.33,5.35,0.1,-0.02,-0.04,1.0,s
3507.0,3236.0,3024.0,3088.0,3728.0,3085.0,3177.0,3535.0,-1.83,8.6,4.92,-0.14,-0.04,-0.02,1.0,s
3500.0,3216.0,3024.0,2979.0,3749.0,3088.0,3173.0,3523.0,1.62,9.9,1.54,-0.13,-0.03,-0.09,1.0,s
3479.0,3217.0,3024.0,2979.0,3749.0,3087.0,3173.0,3521.0,1.57,9.84,1.68,-0.08,0.02,-0.06,1.0,s
3511.0,3219.0,3024.0,2986.0,3757.0,3098.0,3173.0,3516.0,1.54,9.97,1.53,-0.12,0.0,-0.04,1.0,s
3495.0,3213.0,3021.0,2979.0,3751.0,3088.0,3174.0,3521.0,1.72,9.95,1.69,-0.09,0.0,-0.05,1.0,s
3493.0,3216.0,3041.0,2988.0,3762.0,3094.0,3174.0,3513.0,1.61,9.93,1.78,-0.06,-0.0,-0.05,1.0,s
3484.0,3221.0,3025.0,2982.0,3755.0,3092.0,3177.0,3522.0,1.72,9.88,1.79,-0.04,-0.03,-0.04,1.0,s
3514.0,3229.0,3015.0,2987.0,3745.0,3088.0,3172.0,3517.0,1.84,9.9,1.65,-0.05,-0.0,-0.06,1.0,s
3504.0,3219.0,3024.0,2966.0,3761.0,3091.0,3172.0,3526.0,1.65,9.81,1.59,-0.09,-0.06,-0.07,1.0,s
3501.0,3215.0,3024.0,2959.0,3760.0,3091.0,3175.0,3530.0,1.59,9.86,1.62,-0.05,-0.0,-0.07,1.0,s
3482.0,3214.0,3022.0,2960.0,3747.0,3087.0,3174.0,3520.0,1.37,9.87,1.6,-0.1,0.01,-0.04,1.0,s
3489.0,3214.0,3025.0,2969.0,3756.0,3085.0,3172.0,3525.0,1.57,9.83,1.67,-0.05,-0.03,-0.02,1.0,s
3494.0,3216.0,3023.0,2966.0,3760.0,3090.0,3181.0,3531.0,1.7,9.91,1.69,-0.08,0.02,-0.03,1.0,s
3499.0,3225.0,3025.0,2971.0,3765.0,3090.0,3172.0,3518.0,1.75,9.87,1.61,-0.04,-0.01,-0.06,1.0,s
3502.0,3237.0,3023.0,2971.0,3751.0,3088.0,3174.0,3518.0,1.64,9.91,1.54,-0.09,0.01,-0.06,1.0,s
3491.0,3218.0,3027.0,2971.0,3763.0,3089.0,3177.0,3527.0,1.56,9.89,1.73,-0.08,-0.0,-0.05,1.0,s
3493.0,3232.0,3024.0,2974.0,3759.0,3094.0,3178.0,3532.0,1.54,9.84,1.8,-0.08,0.03,-0.03,1.0,s
3491.0,3220.0,3021.0,2971.0,3762.0,3088.0,3177.0,3527.0,1.69,9.85,1.77,-0.07,0.0,-0.03,1.0,s
3492.0,3221.0,3025.0,2977.0,3765.0,3091.0,3178.0,3527.0,1.69,9.83,1.74,-0.04,0.0,-0.04,1.0,s
3495.0,3218.0,3025.0,2982.0,3770.0,3090.0,3173.0,3525.0,1.58,9.8,1.64,-0.09,-0.01,-0.04,1.0,s
3492.0,3213.0,3024.0,2975.0,3758.0,3089.0,3178.0,3528.0,1.56,9.85,1.73,-0.05,-0.02,-0.04,1.0,s
3482.0,3228.0,3023.0,3008.0,3773.0,3093.0,3183.0,3551.0,-3.21,9.44,1.04,-0.11,0.14,-0.03,1.0,s
3499.0,3219.0,3026.0,3008.0,3766.0,3090.0,3182.0,3539.0,-3.11,9.49,1.0,-0.1,0.07,-0.0,1.0,s
3501.0,3213.0,3024.0,3008.0,3775.0,3093.0,3183.0,3547.0,-3.06,9.43,1.01,-0.07,0.05,-0.0,1.0,s
3498.0,3216.0,3024.0,3007.0,3774.0,3089.0,3181.0,3541.0,-3.05,9.49,0.96,-0.12,0.01,0.0,1.0,s
3497.0,3219.0,3023.0,3011.0,3763.0,3088.0,3180.0,3537.0,-3.01,9.52,1.01,-0.09,0.09,0.02,1.0,s
3483.0,3216.0,3030.0,3006.0,3770.0,3090.0,3182.0,3539.0,-2.78,9.53,0.99,-0.08,0.09,0.03,1.0,s
3497.0,3210.0,3035.0,3011.0,3776.0,3098.0,3184.0,3547.0,-2.67,9.44,1.07,-0.1,0.0,-0.02,1.0,s
3498.0,3216.0,3026.0,3007.0,3773.0,3090.0,3183.0,3539.0,-2.87,9.39,1.19,-0.1,0.04,-0.05,1.0,s
3473.0,3222.0,3031.0,3009.0,3775.0,3095.0,3185.0,3546.0,-3.02,9.42,1.29,-0.11,0.01,-0.05,1.0,s
3489.0,3216.0,3024.0,3019.0,3785.0,3095.0,3183.0,3537.0,-3.02,9.41,1.36,-0.09,0.03,-0.03,1.0,s
3493.0,3216.0,3037.0,3011.0,3776.0,3098.0,3184.0,3543.0,-3.04,9.48,1.19,-0.09,0.03,-0.01,1.0,s
3501.0,3221.0,3029.0,3015.0,3781.0,3094.0,3184.0,3554.0,-3.01,9.39,1.12,-0.07,0.04,-0.02,1.0,s
3477.0,3219.0,3024.0,3012.0,3787.0,3095.0,3186.0,3545.0,-2.83,9.44,1.2,-0.06,0.03,-0.04,1.0,s
3482.0,3203.0,3034.0,3013.0,3776.0,3094.0,3184.0,3549.0,-2.91,9.39,1.22,-0.07,-0.0,-0.04,1.0,s
3499.0,3221.0,3034.0,3017.0,3778.0,3095.0,3184.0,3547.0,-2.88,9.4,1.26,-0.04,0.01,-0.04,1.0,s
3506.0,3222.0,3025.0,3020.0,3778.0,3089.0,3179.0,3536.0,-2.83,9.37,1.2,-0.05,0.01,-0.05,1.0,s
3488.0,3226.0,3021.0,3014.0,3767.0,3090.0,3175.0,3539.0,-2.94,9.47,1.09,-0.04,0.02,-0.06,1.0,s
3479.0,3217.0,3029.0,3014.0,3763.0,3089.0,3183.0,3541.0,-3.06,9.42,1.05,-0.04,0.03,-0.05,1.0,s
3488.0,3219.0,3021.0,3019.0,3766.0,3088.0,3183.0,3539.0,-3.01,9.39,1.01,-0.06,0.03,-0.04,1.0,s
3498.0,3225.0,3029.0,3019.0,3775.0,3088.0,3178.0,3538.0,-3.01,9.53,0.97,-0.07,0.04,-0.02,1.0,s
92.0,3184.0,3559.0,-2.85,7.92,5.65,-0.08,0.0,-0.05,1.0,s
3489.0,3219.0,3034.0,3030.0,3792.0,3101.0,3185.0,3547.0,-2.64,7.94,5.69,-0.06,-0.02,-0.03,1.0,s
3488.0,3229.0,3034.0,3027.0,3792.0,3100.0,3184.0,3551.0,-2.54,7.97,5.58,-0.08,-0.0,0.01,1.0,s
3486.0,3219.0,3025.0,3027.0,3792.0,3100.0,3185.0,3563.0,-2.45,7.96,5.59,-0.09,-0.04,-0.0,1.0,s
3476.0,3213.0,3029.0,3028.0,3788.0,3094.0,3183.0,3554.0,-2.22,7.9,5.82,-0.09,0.0,-0.01,1.0,s
3489.0,3216.0,3019.0,3024.0,3783.0,3101.0,3184.0,3562.0,-2.31,7.9,5.79,-0.09,0.02,-0.02,1.0,s
3471.0,3215.0,3025.0,3029.0,3782.0,3093.0,3185.0,3563.0,-2.4,7.83,5.91,-0.09,0.0,-0.02,1.0,s
3482.0,3216.0,3019.0,3027.0,3785.0,3089.0,3184.0,3558.0,-2.28,7.93,5.87,-0.04,-0.0,-0.04,1.0,s
3469.0,3221.0,3024.0,3030.0,3783.0,3095.0,3184.0,3557.0,-2.1,7.92,5.94,-0.04,0.02,-0.05,1.0,s
3483.0,3217.0,3030.0,3036.0,3799.0,3094.0,3182.0,3554.0,-2.25,7.96,5.72,-0.02,0.05,-0.09,1.0,s
3471.0,3217.0,3028.0,3029.0,3781.0,3099.0,3186.0,3564.0,-2.51,7.9,5.64,-0.04,0.04,-0.09,1.0,s
3477.0,3213.0,3028.0,3029.0,3787.0,3088.0,3184.0,3560.0,-2.61,7.89,5.61,-0.05,0.02,-0.05,1.0,s
3477.0,3215.0,3022.0,3026.0,3787.0,3094.0,3191.0,3563.0,-2.55,7.9,5.65,-0.06,0.01,-0.03,1.0,s
3485.0,3223.0,3030.0,3031.0,3792.0,3091.0,3184.0,3553.0,-2.58,7.95,5.64,-0.09,-0.0,-0.0,1.0,s
3477.0,3216.0,3029.0,3030.0,3794.0,3098.0,3184.0,3557.0,-2.38,7.97,5.66,-0.06,0.01,-0.02,1.0,s
3479.0,3221.0,3025.0,3034.0,3802.0,3099.0,3191.0,3559.0,-2.32,7.93,5.72,-0.09,-0.01,-0.03,1.0,s
3485.0,3216.0,3024.0,3030.0,3799.0,3101.0,3189.0,3567.0,-2.36,7.93,5.81,-0.06,-0.03,-0.03,1.0,s
3479.0,3216.0,3024.0,3030.0,3789.0,3095.0,3189.0,3565.0,-2.32,7.9,5.87,-0.06,-0.02,-0.04,1.0,s
3482.0,3221.0,3039.0,3035.0,3794.0,3100.0,3187.0,3568.0,-2.41,7.94,5.71,-0.05,0.0,-0.04,1.0,s
3472.0,3225.0,3029.0,3035.0,3797.0,3100.0,3189.0,3562.0,-2.42,7.93,5.65,-0.05,0.0,-0.05,1.0,s
3435.0,3210.0,3029.0,2975.0,3824.0,3115.0,3182.0,3558.0,1.25,9.05,4.7,-0.1,-0.03,-0.07,1.0,s
3440.0,3217.0,3024.0,2974.0,3824.0,3117.0,3180.0,3540.0,1.16,8.97,4.75,-0.05,-0.0,-0.06,1.0,s
3443.0,3211.0,3016.0,2972.0,3811.0,3115.0,3178.0,3546.0,1.3,8.98,4.58,-0.02,0.01,-0.04,1.0,s
3440.0,3224.0,3031.0,2971.0,3818.0,3119.0,3181.0,3553.0,1.4,9.01,4.41,-0.03,-0.01,-0.05,1.0,s
3434.0,3202.0,3029.0,2971.0,3810.0,3115.0,3178.0,3552.0,1.41,9.04,4.48,-0.06,-0.03,-0.04,1.0,s
3440.0,3216.0,3024.0,2971.0,3822.0,3120.0,3184.0,3542.0,1.51,9.05,4.56,-0.04,-0.02,-0.08,1.0,s
3431.0,3207.0,3033.0,2969.0,3817.0,3111.0,3182.0,3559.0,1.32,9.02,4.64,-0.07,-0.08,-0.06,1.0,s
3439.0,3211.0,3031.0,2966.0,3807.0,3116.0,3179.0,3553.0,1.3,9.03,4.66,0.0,-0.02,-0.09,1.0,s
3446.0,3207.0,3024.0,2973.0,3824.0,3119.0,3182.0,3549.0,1.14,9.1,4.45,-0.03,-0.02,-0.07,1.0,s
3454.0,3219.0,3037.0,2970.0,3824.0,3122.0,3183.0,3563.0,1.17,9.04,4.39,-0.04,-0.02,-0.04,1.0,s
3440.0,3212.0,3024.0,2973.0,3824.0,3120.0,3182.0,3555.0,1.16,9.04,4.32,-0.07,0.02,-0.02,1.0,s
3438.0,3210.0,3037.0,2972.0,3823.0,3121.0,3183.0,3565.0,1.23,9.07,4.37,-0.1,-0.01,-0.0,1.0,s
3441.0,3215.0,3029.0,2973.0,3812.0,3120.0,3183.0,3561.0,1.46,9.05,4.59,-0.09,-0.03,-0.01,1.0,s
3429.0,3204.0,3025.0,2978.0,3820.0,3120.0,3184.0,3558.0,1.57,8.98,4.64,-0.09,-0.0,-0.04,1.0,s
3427.0,3200.0,3031.0,2970.0,3819.0,3118.0,3178.0,3545.0,1.39,9.0,4.68,-0.07,-0.02,-0.06,1.0,s
3426.0,3210.0,3031.0,2967.0,3814.0,3114.0,3175.0,3550.0,1.37,9.03,4.71,-0.05,-0.03,-0.06,1.0,s
3445.0,3212.0,3024.0,2975.0,3811.0,3119.0,3181.0,3553.0,1.33,9.04,4.48,-0.03,-0.01,-0.06,1.0,s
3445.0,3203.0,3024.0,2977.0,3823.0,3120.0,3182.0,3555.0,1.32,9.06,4.46,-0.06,-0.05,-0.05,1.0,s
3440.0,3206.0,3019.0,2973.0,3817.0,3119.0,3180.0,3551.0,1.27,9.09,4.42,-0.06,0.01,-0.05,1.0,s
3424.0,3212.0,3024.0,2973.0,3817.0,3119.0,3178.0,3558.0,1.24,9.05,4.46,-0.07,-0.0,-0.03,1.0,s
3442.0,3216.0,3025.0,2995.0,3839.0,3127.0,3184.0,3558.0,-2.34,9.72,1.1,-0.11,0.09,-0.03,1.0,s
3433.0,3199.0,3025.0,2988.0,3821.0,3127.0,3185.0,3563.0,-2.27,9.61,1.5,-0.17,0.04,0.02,1.0,s
3424.0,3209.0,3025.0,2989.0,3821.0,3123.0,3181.0,3552.0,-1.96,9.64,1.82,-0.16,-0.02,0.03,1.0,s
3440.0,3204.0,3026.0,2992.0,3833.0,3133.0,3184.0,3557.0,-1.86,9.66,1.9,-0.15,0.02,0.03,1.0,s
3441.0,3207.0,3024.0,2989.0,3823.0,3135.0,3185.0,3562.0,-1.87,9.65,1.96,-0.12,0.02,-0.0,1.0,s
3438.0,3206.0,3029.0,2987.0,3821.0,3126.0,3184.0,3561.0,-1.88,9.64,1.99,-0.12,0.02,-0.01,1.0,s
3420.0,3217.0,3027.0,2992.0,3815.0,3127.0,3180.0,3555.0,-1.9,9.64,2.04,-0.08,0.02,-0.02,1.0,s
3433.0,3209.0,3035.0,2993.0,3836.0,3134.0,3183.0,3551.0,-1.96,9.63,2.0,-0.1,0.01,-0.01,1.0,s
3440.0,3216.0,3026.0,2992.0,3830.0,3130.0,3183.0,3558.0,-1.85,9.66,1.97,-0.06,0.02,-0.03,1.0,s
3443.0,3219.0,3031.0,2996.0,3834.0,3133.0,3184.0,3558.0,-1.88,9.65,1.89,-0.06,0.03,-0.03,1.0,s
3440.0,3216.0,3031.0,2994.0,3834.0,3134.0,3194.0,3568.0,-1.86,9.67,1.88,-0.06,0.02,-0.04,1.0,s
3439.0,3218.0,3041.0,2992.0,3830.0,3135.0,3184.0,3555.0,-1.96,9.63,1.88,-0.07,0.01,-0.03,1.0,s
3436.0,3207.0,3021.0,2992.0,3825.0,3127.0,3183.0,3558.0,-1.94,9.59,1.89,-0.03,-0.01,-0.05,1.0,s
3431.0,3205.0,3023.0,2992.0,3827.0,3125.0,3184.0,3559.0,-2.04,9.72,1.81,-0.08,0.02,-0.03,1.0,s
3444.0,3216.0,3024.0,2996.0,3834.0,3133.0,3188.0,3567.0,-1.92,9.64,1.91,-0.09,0.0,-0.02,1.0,s
3440.0,3213.0,3031.0,2995.0,3826.0,3135.0,3184.0,3557.0,-1.88,9.68,1.9,-0.07,0.01,-0.02,1.0,s
3429.0,3222.0,3025.0,2993.0,3825.0,3123.0,3183.0,3554.0,-1.88,9.64,1.89,-0.09,-0.01,-0.03,1.0,s
3440.0,3216.0,3027.0,2992.0,3839.0,3130.0,3187.0,3567.0,-1.94,9.65,1.89,-0.09,0.01,-0.02,1.0,s
3440.0,3215.0,3030.0,2994.0,3834.0,3135.0,3187.0,3561.0,-1.93,9.63,1.97,-0.05,-0.01,-0.03,1.0,s
3419.0,3215.0,3027.0,2991.0,3822.0,3130.0,3184.0,3567.0,-1.8,9.66,1.97,-0.07,-0.0,-0.03,1.0,s
21.0,3190.0,3581.0,1.35,8.32,5.8,-0.09,-0.01,-0.04,1.0,s
3440.0,3210.0,3028.0,2983.0,3846.0,3123.0,3189.0,3581.0,1.36,8.42,5.82,-0.05,-0.02,-0.05,1.0,s
3443.0,3210.0,3024.0,2988.0,3851.0,3130.0,3192.0,3583.0,1.45,8.28,5.88,0.01,-0.09,-0.09,1.0,s
3441.0,3200.0,3034.0,2979.0,3841.0,3132.0,3194.0,3583.0,1.34,8.38,5.65,-0.02,-0.0,-0.08,1.0,s
3421.0,3202.0,3019.0,2982.0,3842.0,3131.0,3195.0,3581.0,1.14,8.45,5.41,-0.04,-0.0,-0.08,1.0,s
3433.0,3203.0,3031.0,2981.0,3846.0,3133.0,3195.0,3583.0,1.13,8.46,5.51,-0.06,-0.01,-0.06,1.0,s
3423.0,3216.0,3029.0,2986.0,3845.0,3129.0,3197.0,3582.0,1.07,8.53,5.55,-0.08,-0.02,-0.01,1.0,s
3434.0,3199.0,3014.0,2983.0,3844.0,3126.0,3194.0,3579.0,1.42,8.43,5.76,-0.03,-0.0,-0.04,1.0,s
3431.0,3205.0,3016.0,2983.0,3831.0,3125.0,3189.0,3581.0,1.44,8.32,5.77,-0.02,0.01,-0.06,1.0,s
3425.0,3200.0,3018.0,2980.0,3831.0,3126.0,3190.0,3583.0,1.39,8.41,5.61,-0.03,-0.03,-0.08,1.0,s
3434.0,3198.0,3010.0,2980.0,3837.0,3127.0,3194.0,3583.0,1.27,8.51,5.54,-0.04,-0.02,-0.08,1.0,s
3421.0,3213.0,3024.0,2988.0,3833.0,3122.0,3190.0,3583.0,1.2,8.5,5.57,-0.02,-0.02,-0.08,1.0,s
3415.0,3207.0,3025.0,2979.0,3838.0,3127.0,3194.0,3583.0,1.13,8.44,5.55,-0.02,-0.01,-0.08,1.0,s
3423.0,3200.0,3029.0,2985.0,3840.0,3130.0,3199.0,3598.0,1.14,8.46,5.49,-0.03,0.0,-0.06,1.0,s
3437.0,3205.0,3027.0,2990.0,3845.0,3127.0,3188.0,3582.0,1.24,8.52,5.44,-0.04,0.0,-0.06,1.0,s
3420.0,3213.0,3024.0,2982.0,3842.0,3127.0,3194.0,3583.0,1.21,8.5,5.48,-0.07,-0.02,-0.03,1.0,s
3434.0,3212.0,3035.0,2983.0,3841.0,3132.0,3200.0,3598.0,1.27,8.53,5.55,-0.07,-0.01,-0.04,1.0,s
3438.0,3216.0,3024.0,2986.0,3843.0,3133.0,3190.0,3573.0,1.31,8.48,5.62,-0.06,-0.04,-0.03,1.0,s
3440.0,3210.0,3024.0,2987.0,3846.0,3122.0,3195.0,3572.0,1.21,8.51,5.49,-0.06,0.02,-0.04,1.0,s
3425.0,3197.0,3024.0,2987.0,3836.0,3127.0,3199.0,3599.0,1.21,8.46,5.54,-0.05,-0.0,-0.05,1.0,s
3436.0,3207.0,3019.0,2995.0,3850.0,3136.0,3200.0,3583.0,-3.9,8.82,2.16,-0.18,0.02,0.04,1.0,s
3437.0,3216.0,3025.0,2992.0,3842.0,3123.0,3190.0,3583.0,-3.68,8.84,2.3,-0.13,-0.01,-0.01,1.0,s
3437.0,3216.0,3022.0,2994.0,3855.0,3135.0,3196.0,3583.0,-3.84,8.83,2.35,-0.11,0.03,-0.02,1.0,s
3438.0,3212.0,3031.0,2997.0,3845.0,3136.0,3200.0,3583.0,-3.94,8.85,2.3,-0.08,0.0,-0.04,1.0,s
3422.0,3202.0,3023.0,2992.0,3835.0,3133.0,3194.0,3599.0,-3.85,8.87,2.32,-0.04,-0.0,-0.04,1.0,s
3427.0,3207.0,3024.0,2993.0,3843.0,3134.0,3199.0,3600.0,-3.88,8.86,2.19,-0.03,0.0,-0.05,1.0,s
3429.0,3202.0,3017.0,2992.0,3833.0,3131.0,3199.0,3600.0,-3.74,8.85,2.19,0.01,-0.01,-0.09,1.0,s
3430.0,3202.0,3038.0,2997.0,3852.0,3136.0,3200.0,3599.0,-4.01,8.89,1.92,-0.02,0.04,-0.08,1.0,s
3431.0,3215.0,3024.0,2997.0,3855.0,3135.0,3199.0,3579.0,-4.16,8.88,1.8,-0.03,0.01,-0.07,1.0,s
3441.0,3215.0,3027.0,3001.0,3841.0,3132.0,3199.0,3583.0,-4.1,8.86,1.84,-0.04,0.01,-0.04,1.0,s
3430.0,3210.0,3017.0,2995.0,3845.0,3136.0,3190.0,3582.0,-3.95,8.85,1.95,-0.05,-0.05,-0.05,1.0,s
3423.0,3198.0,3024.0,2992.0,3835.0,3132.0,3200.0,3600.0,-3.92,8.9,1.93,-0.07,0.0,-0.05,1.0,s
3417.0,3207.0,3029.0,2994.0,3847.0,3136.0,3200.0,3583.0,-4.11,8.84,1.97,-0.1,-0.01,-0.04,1.0,s
3429.0,3215.0,3022.0,2992.0,3843.0,3132.0,3196.0,3600.0,-4.01,8.82,2.15,-0.1,-0.01,-0.02,1.0,s
3427.0,3202.0,3035.0,2995.0,3846.0,3135.0,3200.0,3600.0,-4.07,8.85,2.05,-0.1,0.01,-0.0,1.0,s
3437.0,3205.0,3033.0,2992.0,3846.0,3135.0,3198.0,3596.0,-3.9,8.82,2.09,-0.07,-0.0,-0.01,1.0,s
3423.0,3198.0,3025.0,2994.0,3847.0,3133.0,3200.0,3600.0,-3.84,8.88,2.09,-0.08,-0.0,-0.02,1.0,s
3435.0,3203.0,3022.0,2998.0,3840.0,3136.0,3200.0,3600.0,-3.95,8.87,2.05,-0.09,0.01,-0.03,1.0,s
3431.0,3205.0,3017.0,2994.0,3835.0,3133.0,3198.0,3599.0,-4.01,8.83,2.18,-0.08,0.0,-0.04,1.0,s
3440.0,3213.0,3026.0,2995.0,3843.0,3135.0,3200.0,3600.0,-3.98,8.83,2.21,-0.06,-0.01,-0.02,1.0,s
3428.0,3206.0,3019.0,3003.0,3842.0,3136.0,3197.0,3604.0,-2.03,7.46,6.47,-0.03,0.03,-0.05,1.0,s
3434.0,3205.0,3024.0,3010.0,3854.0,3137.0,3199.0,3583.0,-2.08,7.47,6.37,-0.05,0.05,-0.05,1.0,s
3429.0,3199.0,3019.0,3008.0,3838.0,3136.0,3200.0,3600.0,-2.18,7.42,6.26,-0.09,0.03,-0.02,1.0,s
3412.0,3198.0,3024.0,3007.0,3838.0,3133.0,3194.0,3583.0,-2.14,7.4,6.51,-0.12,-0.04,0.01,1.0,s
3421.0,3200.0,3021.0,3008.0,3827.0,3127.0,3195.0,3583.0,-1.88,7.37,6.81,-0.11,-0.02,0.0,1.0,s
3441.0,3200.0,3022.0,3010.0,3843.0,3138.0,3197.0,3603.0,-1.85,7.33,6.75,-0.09,0.0,-0.02,1.0,s
3430.0,3207.0,3019.0,3003.0,3831.0,3133.0,3193.0,3583.0,-1.9,7.34,6.76,-0.07,-0.01,-0.03,1.0,s
3429.0,3200.0,3018.0,3009.0,3839.0,3131.0,3194.0,3597.0,-1.9,7.34,6.72,-0.07,0.0,-0.04,1.0,s
3426.0,3200.0,3019.0,3005.0,3837.0,3133.0,3195.0,3600.0,-1.86,7.38,6.68,-0.05,0.01,-0.05,1.0,s
3427.0,3207.0,3023.0,3008.0,3839.0,3136.0,3199.0,3599.0,-2.01,7.35,6.59,-0.05,0.02,-0.05,1.0,s
3413.0,3197.0,3024.0,3007.0,3847.0,3138.0,3201.0,3600.0,-2.01,7.39,6.62,-0.06,-0.0,-0.04,1.0,s
3431.0,3218.0,3028.0,3009.0,3845.0,3136.0,3196.0,3583.0,-1.94,7.35,6.63,-0.04,0.03,-0.04,1.0,s
3426.0,3202.0,3017.0,3008.0,3837.0,3137.0,3193.0,3601.0,-2.03,7.4,6.59,-0.06,0.01,-0.03,1.0,s
3425.0,3213.0,3028.0,3009.0,3850.0,3140.0,3195.0,3600.0,-1.94,7.39,6.64,-0.04,0.03,-0.05,1.0,s
3418.0,3215.0,3015.0,3011.0,3839.0,3141.0,3203.0,3598.0,-1.98,7.33,6.62,-0.04,0.03,-0.05,1.0,s
3418.0,3199.0,3018.0,3008.0,3843.0,3136.0,3201.0,3603.0,-1.86,7.35,6.62,-0.05,0.0,-0.04,1.0,s
3423.0,3200.0,3025.0,3007.0,3830.0,3135.0,3190.0,3583.0,-1.96,7.35,6.57,-0.05,0.0,-0.04,1.0,s
3415.0,3203.0,3023.0,3007.0,3825.0,3135.0,3195.0,3583.0,-1.93,7.36,6.6,-0.06,-0.01,-0.03,1.0,s
3427.0,3202.0,3024.0,3008.0,3824.0,3134.0,3199.0,3602.0,-1.99,7.4,6.6,-0.07,-0.0,-0.02,1.0,s
3419.0,3204.0,3017.0,3008.0,3829.0,3135.0,3191.0,3600.0,-1.91,7.36,6.63,-0.07,-0.01,-0.03,1.0,s
3430.0,3205.0,3029.0,3007.0,3846.0,3127.0,3193.0,3598.0,0.19,9.24,4.12,-0.08,0.12,-0.07,1.0,s
3425.0,3216.0,3023.0,3006.0,3835.0,3127.0,3199.0,3600.0,0.18,9.28,4.18,-0.08,0.15,-0.01,1.0,s
3433.0,3216.0,3018.0,3012.0,3850.0,3136.0,3199.0,3599.0,0.49,9.34,4.05,-0.01,0.01,-0.03,1.0,s
3433.0,3215.0,3025.0,3009.0,3856.0,3132.0,3200.0,3598.0,0.55,9.34,3.9,-0.03,0.01,-0.04,1.0,s
3441.0,3210.0,3029.0,3008.0,3855.0,3124.0,3195.0,3583.0,0.47,9.37,3.84,-0.05,0.0,-0.08,1.0,s
3421.0,3213.0,3024.0,3007.0,3844.0,3129.0,3197.0,3608.0,0.32,9.38,3.84,-0.05,0.02,-0.07,1.0,s
3433.0,3201.0,3024.0,3008.0,3840.0,3134.0,3197.0,3583.0,0.2,9.32,3.9,-0.08,-0.0,-0.04,1.0,s
3418.0,3207.0,3015.0,3003.0,3843.0,3131.0,3200.0,3606.0,0.32,9.38,3.96,-0.07,0.01,-0.02,1.0,s
3431.0,3204.0,3021.0,3004.0,3848.0,3130.0,3199.0,3600.0,0.35,9.37,3.92,-0.06,0.04,-0.01,1.0,s
3434.0,3210.0,3029.0,3011.0,3856.0,3135.0,3200.0,3597.0,0.48,9.33,3.92,-0.08,0.02,-0.04,1.0,s
3429.0,3200.0,3021.0,2999.0,3845.0,3131.0,3197.0,3600.0,0.4,9.28,4.14,-0.07,0.04,-0.01,1.0,s
3412.0,3207.0,3019.0,3007.0,3851.0,3135.0,3200.0,3604.0,0.42,9.37,3.91,-0.06,0.05,-0.0,1.0,s
3408.0,3201.0,3025.0,3003.0,3844.0,3136.0,3199.0,3600.0,0.54,9.44,3.75,-0.07,0.01,-0.03,1.0,s
3419.0,3198.0,3024.0,3007.0,3843.0,3135.0,3203.0,3605.0,0.55,9.34,3.96,-0.1,-0.01,-0.05,1.0,s
3431.0,3211.0,3027.0,3011.0,3855.0,3136.0,3199.0,3603.0,0.38,9.33,4.07,-0.09,-0.0,-0.06,1.0,s
3419.0,3195.0,3019.0,3010.0,3851.0,3137.0,3199.0,3598.0,0.21,9.25,4.17,-0.09,0.03,-0.05,1.0,s
3427.0,3190.0,3021.0,3006.0,3846.0,3136.0,3199.0,3603.0,0.26,9.25,4.17,-0.08,0.02,-0.02,1.0,s
3426.0,3203.0,3023.0,3010.0,3856.0,3136.0,3201.0,3603.0,0.47,9.38,4.0,-0.07,0.03,-0.01,1.0,s
3428.0,3209.0,3024.0,3009.0,3854.0,3136.0,3201.0,3583.0,0.58,9.36,3.97,-0.05,0.02,-0.04,1.0,s
3424.0,3205.0,3019.0,3009.0,3850.0,3136.0,3199.0,3601.0,0.54,9.27,4.03,-0.08,0.0,-0.05,1.0,s
3429.0,3210.0,3023.0,3003.0,3846.0,3136.0,3199.0,3600.0,0.25,9.96,1.63,-0.13,0.02,-0.06,1.0,s
3440.0,3197.0,3033.0,3007.0,3853.0,3141.0,3203.0,3600.0,0.04,9.93,1.68,-0.1,0.02,-0.07,1.0,s
3418.0,3197.0,3018.0,2997.0,3843.0,3141.0,3199.0,3600.0,-0.07,9.98,1.58,-0.11,0.04,-0.06,1.0,s
3421.0,3216.0,3024.0,3009.0,3833.0,3136.0,3195.0,3596.0,-0.14,9.99,1.53,-0.11,0.06,-0.03,1.0,s
3431.0,3207.0,3024.0,3007.0,3839.0,3138.0,3200.0,3583.0,0.03,9.94,1.75,-0.11,-0.01,-0.02,1.0,s
3425.0,3200.0,3017.0,3005.0,3840.0,3134.0,3199.0,3583.0,0.08,9.95,1.73,-0.09,0.02,-0.02,1.0,s
3435.0,3194.0,3015.0,3003.0,3844.0,3137.0,3198.0,3600.0,0.11,9.99,1.64,-0.08,0.02,-0.03,1.0,s
3433.0,3203.0,3030.0,3005.0,3857.0,3142.0,3205.0,3606.0,0.16,9.93,1.69,-0.08,0.03,-0.03,1.0,s
3422.0,3199.0,3018.0,3002.0,3843.0,3134.0,3200.0,3607.0,0.13,9.95,1.79,-0.08,0.01,-0.04,1.0,s
3419.0,3195.0,3024.0,3010.0,3856.0,3141.0,3201.0,3606.0,0.07,9.98,1.79,-0.06,0.02,-0.05,1.0,s
3433.0,3207.0,3024.0,3007.0,3853.0,3138.0,3200.0,3583.0,0.18,9.91,1.77,-0.03,0.01,-0.06,1.0,s
3423.0,3200.0,3024.0,3005.0,3852.0,3143.0,3206.0,3605.0,0.08,9.91,1.74,-0.06,-0.03,-0.04,1.0,s
3417.0,3210.0,3015.0,2998.0,3847.0,3136.0,3201.0,3601.0,-0.05,9.98,1.64,-0.05,-0.03,-0.03,1.0,s
3434.0,3208.0,3026.0,3013.0,3850.0,3136.0,3200.0,3583.0,-0.01,9.95,1.62,-0.05,0.02,-0.04,1.0,s
3426.0,3216.0,3023.0,3009.0,3850.0,3140.0,3197.0,3598.0,0.1,9.96,1.65,-0.05,0.0,-0.03,1.0,s
3435.0,3213.0,3027.0,3008.0,3854.0,3145.0,3205.0,3602.0,0.04,9.95,1.66,-0.07,0.0,-0.03,1.0,s
3429.0,3206.0,3020.0,3005.0,3851.0,3142.0,3202.0,3606.0,0.06,9.99,1.69,-0.06,0.01,-0.03,1.0,s
3441.0,3214.0,3027.0,3008.0,3856.0,3142.0,3206.0,3610.0,0.0,9.97,1.64,-0.07,-0.0,-0.02,1.0,s
3440.0,3216.0,3024.0,3008.0,3850.0,3141.0,3202.0,3603.0,-0.03,9.94,1.69,-0.06,0.01,-0.03,1.0,s
3421.0,3206.0,3024.0,3005.0,3841.0,3139.0,3200.0,3601.0,-0.05,9.92,1.71,-0.08,-0.0,-0.01,1.0,s
3433.0,3205.0,3030.0,3024.0,3844.0,3142.0,3206.0,3607.0,1.11,8.16,6.04,-0.06,0.01,0.02,1.0,s
3422.0,3200.0,3025.0,3023.0,3846.0,3138.0,3202.0,3614.0,1.35,8.2,5.99,-0.06,-0.04,0.0,1.0,s
3419.0,3206.0,3031.0,3015.0,3849.0,3136.0,3203.0,3614.0,1.29,8.2,5.93,-0.09,-0.02,-0.04,1.0,s
3429.0,3205.0,3024.0,3024.0,3842.0,3136.0,3198.0,3600.0,1.13,8.11,6.21,-0.06,-0.06,-0.07,1.0,s
3426.0,3194.0,3019.0,3016.0,3839.0,3139.0,3201.0,3611.0,1.06,8.12,6.21,-0.06,-0.04,-0.06,1.0,s
3430.0,3200.0,3013.0,3021.0,3840.0,3139.0,3201.0,3615.0,1.1,8.07,6.08,-0.05,-0.02,-0.1,1.0,s
3420.0,3206.0,3018.0,3020.0,3852.0,3146.0,3207.0,3603.0,1.14,8.1,6.2,-0.05,-0.05,-0.09,1.0,s
3430.0,3211.0,3027.0,3025.0,3845.0,3141.0,3207.0,3607.0,1.19,8.18,6.04,-0.04,-0.05,-0.09,1.0,s
3428.0,3206.0,3031.0,3021.0,3855.0,3141.0,3203.0,3600.0,1.02,8.2,6.07,-0.04,-0.06,-0.1,1.0,s
3431.0,3209.0,3024.0,3022.0,3845.0,3136.0,3200.0,3603.0,0.83,8.17,6.06,-0.01,-0.02,-0.1,1.0,s
3430.0,3200.0,3024.0,3018.0,3842.0,3142.0,3205.0,3602.0,0.91,8.18,6.02,-0.0,-0.02,-0.06,1.0,s
3443.0,3207.0,3021.0,3024.0,3847.0,3145.0,3207.0,3583.0,0.96,8.27,5.75,-0.02,0.0,-0.04,1.0,s
3423.0,3216.0,3023.0,3021.0,3849.0,3137.0,3201.0,3583.0,1.16,8.31,5.83,-0.03,-0.04,-0.06,1.0,s
3426.0,3207.0,3017.0,3021.0,3845.0,3145.0,3202.0,3602.0,1.1,8.23,5.98,-0.03,-0.04,-0.06,1.0,s
3429.0,3204.0,3031.0,3023.0,3846.0,3142.0,3203.0,3611.0,1.01,8.25,6.09,-0.02,-0.04,-0.08,1.0,s
3443.0,3203.0,3024.0,3024.0,3851.0,3143.0,3201.0,3600.0,0.9,8.23,6.01,0.01,-0.01,-0.07,1.0,s
3433.0,3213.0,3019.0,3024.0,3856.0,3143.0,3207.0,3609.0,0.88,8.28,5.84,-0.01,-0.03,-0.05,1.0,s
3438.0,3210.0,3027.0,3019.0,3855.0,3139.0,3195.0,3600.0,1.03,8.32,5.8,-0.02,-0.04,-0.04,1.0,s
3414.0,3201.0,3017.0,3024.0,3853.0,3146.0,3204.0,3610.0,0.97,8.35,5.62,-0.05,0.02,-0.06,1.0,s
3422.0,3197.0,3021.0,3022.0,3845.0,3142.0,3203.0,3605.0,1.0,8.36,5.76,-0.06,-0.01,-0.05,1.0,s
3420.0,3200.0,3017.0,3019.0,3840.0,3136.0,3198.0,3597.0,-2.89,9.27,2.5,0.09,0.18,-0.12,1.0,s
3415.0,3210.0,3025.0,3022.0,3837.0,3139.0,3200.0,3602.0,-2.97,9.27,2.25,0.09,0.19,-0.1,1.0,s
3440.0,3215.0,3017.0,3024.0,3856.0,3139.0,3199.0,3603.0,-3.08,9.29,2.04,0.09,0.13,-0.09,1.0,s
3423.0,3200.0,3029.0,3022.0,3851.0,3146.0,3197.0,3583.0,-3.04,9.3,1.83,0.07,0.09,-0.08,1.0,s
3427.0,3218.0,3025.0,3024.0,3855.0,3147.0,3201.0,3605.0,-3.0,9.39,1.66,0.04,0.11,-0.08,1.0,s
3422.0,3206.0,3019.0,3021.0,3853.0,3145.0,3209.0,3613.0,-3.16,9.35,1.52,-0.03,0.09,-0.06,1.0,s
3425.0,3205.0,3024.0,3025.0,3855.0,3148.0,3204.0,3603.0,-3.26,9.34,1.69,-0.07,-0.01,-0.05,1.0,s
3430.0,3210.0,3027.0,3027.0,3851.0,3148.0,3200.0,3610.0,-3.22,9.28,1.81,-0.08,0.01,-0.02,1.0,s
3430.0,3211.0,3028.0,3024.0,3857.0,3147.0,3204.0,3609.0,-3.17,9.34,1.81,-0.12,-0.01,0.01,1.0,s
3438.0,3200.0,3030.0,3023.0,3857.0,3142.0,3195.0,3598.0,-3.02,9.31,2.0,-0.1,0.02,0.01,1.0,s
3439.0,3200.0,3023.0,3024.0,3868.0,3149.0,3205.0,3601.0,-2.92,9.31,2.06,-0.1,0.03,0.0,1.0,s
3422.0,3200.0,3019.0,3024.0,3839.0,3138.0,3199.0,3605.0,-2.88,9.29,2.16,-0.09,-0.01,-0.01,1.0,s
3421.0,3201.0,3019.0,3019.0,3851.0,3143.0,3200.0,3603.0,-2.91,9.3,2.16,-0.07,-0.0,-0.02,1.0,s
3439.0,3211.0,3024.0,3025.0,3856.0,3147.0,3211.0,3602.0,-2.7,9.31,2.26,-0.03,-0.04,-0.06,1.0,s
3422.0,3215.0,3024.0,3028.0,3858.0,3150.0,3199.0,3603.0,-2.88,9.35,2.0,-0.01,0.04,-0.08,1.0,s
3431.0,3215.0,3029.0,3026.0,3856.0,3149.0,3202.0,3600.0,-3.07,9.3,1.94,-0.01,0.02,-0.08,1.0,s
3439.0,3197.0,3024.0,3022.0,3851.0,3142.0,3200.0,3602.0,-3.09,9.31,2.0,-0.01,-0.02,-0.05,1.0,s
3415.0,3218.0,3021.0,3025.0,3847.0,3149.0,3202.0,3601.0,-3.01,9.31,1.84,-0.01,0.03,-0.06,1.0,s
3426.0,3204.0,3025.0,3024.0,3855.0,3149.0,3206.0,3611.0,-3.02,9.34,1.8,-0.03,0.02,-0.05,1.0,s
3418.0,3189.0,3024.0,3025.0,3843.0,3143.0,3201.0,3607.0,-3.04,9.32,1.78,-0.05,0.03,-0.05,1.0,s
3423.0,3201.0,3025.0,3036.0,3847.0,3148.0,3195.0,3609.0,-6.01,6.35,4.46,-0.08,-0.01,-0.05,1.0,s
3422.0,3211.0,3024.0,3037.0,3855.0,3152.0,3200.0,3607.0,-6.23,6.31,4.48,-0.08,0.02,-0.05,1.0,s
3415.0,3206.0,3025.0,3030.0,3842.0,3149.0,3195.0,3601.0,-6.42,6.23,4.53,-0.04,0.02,-0.02,1.0,s
3410.0,3199.0,3025.0,3039.0,3855.0,3150.0,3193.0,3600.0,-6.3,6.32,4.36,-0.02,0.01,0.02,1.0,s
3417.0,3207.0,3024.0,3033.0,3842.0,3149.0,3195.0,3603.0,-6.17,6.4,4.19,-0.03,0.02,0.04,1.0,s
3399.0,3200.0,3013.0,3031.0,3851.0,3149.0,3198.0,3606.0,-6.01,6.45,4.17,-0.04,-0.01,0.03,1.0,s
3419.0,3205.0,3021.0,3035.0,3845.0,3147.0,3200.0,3605.0,-5.91,6.45,4.16,-0.05,-0.01,0.02,1.0,s
3425.0,3199.0,3027.0,3038.0,3856.0,3151.0,3196.0,3602.0,-6.01,6.45,4.21,-0.07,-0.01,-0.01,1.0,s
3426.0,3210.0,3027.0,3038.0,3851.0,3143.0,3198.0,3606.0,-5.99,6.45,4.29,-0.08,-0.0,-0.02,1.0,s
3431.0,3207.0,3028.0,3038.0,3855.0,3146.0,3195.0,3601.0,-6.09,6.46,4.29,-0.08,-0.0,-0.02,1.0,s
3408.0,3206.0,3023.0,3029.0,3847.0,3149.0,3200.0,3614.0,-6.0,6.45,4.4,-0.06,0.0,-0.03,1.0,s
3427.0,3198.0,3033.0,3032.0,3854.0,3151.0,3203.0,3615.0,-6.03,6.45,4.35,-0.07,0.03,-0.02,1.0,s
3413.0,3211.0,3015.0,3031.0,3843.0,3152.0,3198.0,3609.0,-6.04,6.45,4.28,-0.05,0.02,-0.03,1.0,s
3415.0,3201.0,3019.0,3029.0,3849.0,3146.0,3198.0,3610.0,-6.0,6.47,4.27,-0.06,0.01,-0.03,1.0,s
3420.0,3194.0,3022.0,3034.0,3853.0,3151.0,3202.0,3613.0,-6.0,6.5,4.19,-0.06,0.01,-0.03,1.0,s
3410.0,3203.0,3026.0,3039.0,3855.0,3151.0,3203.0,3606.0,-6.12,6.47,4.31,-0.06,0.0,-0.04,1.0,s
3418.0,3216.0,3017.0,3037.0,3849.0,3147.0,3197.0,3600.0,-6.16,6.45,4.25,-0.05,0.0,-0.03,1.0,s
3419.0,3212.0,3021.0,3027.0,3842.0,3147.0,3198.0,3602.0,-6.1,6.47,4.24,-0.06,-0.01,-0.02,1.0,s
3422.0,3207.0,3037.0,3040.0,3846.0,3152.0,3199.0,3605.0,-6.06,6.5,4.3,-0.05,-0.0,-0.01,1.0,s
3418.0,3219.0,3026.0,3040.0,3863.0,3152.0,3201.0,3610.0,-5.99,6.49,4.23,-0.06,-0.01,-0.01,1.0,s
3418.0,3206.0,3017.0,2991.0,3859.0,3127.0,3204.0,3617.0,1.34,9.29,3.83,-0.05,0.05,-0.01,1.0,s
3413.0,3197.0,3024.0,2989.0,3855.0,3133.0,3207.0,3625.0,1.37,9.35,3.8,-0.08,-0.01,-0.0,1.0,s
3427.0,3212.0,3025.0,2992.0,3866.0,3126.0,3198.0,3609.0,1.4,9.36,3.76,-0.06,0.04,-0.03,1.0,s
3424.0,3205.0,3023.0,2992.0,3846.0,3124.0,3203.0,3614.0,1.06,9.22,4.07,-0.1,-0.0,-0.03,1.0,s
3410.0,3200.0,3026.0,2994.0,3858.0,3129.0,3212.0,3617.0,1.19,9.29,4.02,-0.07,-0.0,-0.02,1.0,s
3422.0,3199.0,3024.0,2991.0,3859.0,3131.0,3202.0,3621.0,1.4,9.27,4.04,-0.03,0.03,-0.03,1.0,s
3410.0,3193.0,3024.0,2992.0,3840.0,3131.0,3205.0,3617.0,1.44,9.32,3.81,-0.04,-0.0,-0.05,1.0,s
3408.0,3191.0,3017.0,2995.0,3845.0,3122.0,3203.0,3618.0,1.46,9.37,3.77,-0.07,-0.01,-0.06,1.0,s
3418.0,3195.0,3019.0,2989.0,3856.0,3126.0,3203.0,3629.0,1.42,9.35,3.9,-0.08,-0.01,-0.07,1.0,s
3423.0,3207.0,3019.0,2995.0,3856.0,3134.0,3201.0,3619.0,1.2,9.34,3.8,-0.09,0.06,-0.05,1.0,s
3425.0,3213.0,3029.0,2996.0,3857.0,3131.0,3201.0,3607.0,1.3,9.34,4.0,-0.09,-0.01,-0.05,1.0,s
3395.0,3189.0,3015.0,2993.0,3854.0,3129.0,3200.0,3619.0,1.22,9.33,4.02,-0.09,0.02,-0.03,1.0,s
3409.0,3199.0,3024.0,2992.0,3859.0,3133.0,3207.0,3626.0,1.24,9.18,4.24,-0.06,-0.03,-0.03,1.0,s
3398.0,3211.0,3027.0,2993.0,3849.0,3131.0,3209.0,3627.0,1.35,9.3,4.11,-0.03,0.05,-0.03,1.0,s
3408.0,3189.0,3030.0,2995.0,3853.0,3129.0,3202.0,3622.0,1.28,9.37,3.88,-0.03,0.06,-0.04,1.0,s
3410.0,3198.0,3024.0,2995.0,3855.0,3127.0,3210.0,3632.0,1.29,9.32,3.8,-0.02,0.01,-0.06,1.0,s
3423.0,3200.0,3025.0,2998.0,3856.0,3133.0,3199.0,3613.0,1.27,9.37,3.72,-0.06,0.02,-0.07,1.0,s
3411.0,3200.0,3021.0,2994.0,3845.0,3127.0,3201.0,3615.0,1.16,9.29,3.89,-0.06,0.0,-0.05,1.0,s
3413.0,3184.0,3018.0,2992.0,3850.0,3127.0,3203.0,3623.0,1.13,9.33,3.9,-0.07,0.03,-0.02,1.0,s
3399.0,3202.0,3014.0,2992.0,3851.0,3129.0,3199.0,3619.0,1.17,9.29,3.92,-0.06,0.01,-0.04,1.0,s
3402.0,3205.0,3027.0,2965.0,3833.0,3142.0,3205.0,3613.0,0.67,10.08,0.27,-0.09,0.09,0.01,1.0,s
3413.0,3206.0,3030.0,2965.0,3843.0,3143.0,3207.0,3611.0,0.87,10.09,0.48,-0.1,0.02,-0.03,1.0,s
3412.0,3202.0,3018.0,2967.0,3846.0,3141.0,3206.0,3610.0,0.89,10.0,0.68,-0.08,0.0,-0.08,1.0,s
3429.0,3206.0,3030.0,2972.0,3851.0,3143.0,3205.0,3609.0,0.61,10.06,0.68,-0.07,-0.0,-0.09,1.0,s
3409.0,3196.0,3029.0,2966.0,3846.0,3137.0,3201.0,3602.0,0.47,10.05,0.52,-0.04,0.07,-0.07,1.0,s
3411.0,3199.0,3037.0,2967.0,3845.0,3145.0,3207.0,3614.0,0.51,10.1,0.43,-0.06,-0.02,-0.04,1.0,s
3411.0,3201.0,3013.0,2962.0,3827.0,3141.0,3201.0,3607.0,0.6,10.05,0.49,-0.06,0.06,-0.01,1.0,s
3415.0,3194.0,3024.0,2963.0,3836.0,3138.0,3208.0,3614.0,0.6,10.06,0.46,-0.07,0.15,0.0,1.0,s
3423.0,3195.0,3021.0,2970.0,3848.0,3141.0,3206.0,3613.0,0.57,10.13,0.28,-0.07,0.14,0.02,1.0,s
3429.0,3198.0,3024.0,2967.0,3855.0,3142.0,3207.0,3617.0,0.82,10.1,0.39,-0.07,0.04,-0.02,1.0,s
3422.0,3189.0,3024.0,2967.0,3841.0,3143.0,3202.0,3615.0,0.74,10.07,0.58,-0.11,0.03,-0.04,1.0,s
3408.0,3203.0,3024.0,2967.0,3847.0,3146.0,3205.0,3614.0,0.64,10.08,0.69,-0.07,0.01,-0.04,1.0,s
3410.0,3207.0,3016.0,2970.0,3836.0,3138.0,3202.0,3602.0,0.54,10.08,0.61,-0.07,0.01,-0.03,1.0,s
3423.0,3197.0,3025.0,2971.0,3841.0,3138.0,3203.0,3613.0,0.66,10.03,0.64,-0.07,0.04,-0.02,1.0,s
3427.0,3198.0,3035.0,2965.0,3851.0,3141.0,3206.0,3614.0,0.67,10.09,0.63,-0.06,0.13,-0.03,1.0,s
3410.0,3203.0,3027.0,2973.0,3840.0,3137.0,3203.0,3601.0,0.62,10.01,0.5,-0.08,0.01,-0.02,1.0,s
3423.0,3204.0,3026.0,2971.0,3853.0,3146.0,3202.0,3607.0,0.7,10.11,0.43,-0.11,0.05,-0.01,1.0,s
3422.0,3205.0,3024.0,2969.0,3839.0,3141.0,3197.0,3607.0,0.69,10.05,0.51,-0.13,0.04,-0.0,1.0,s
3435.0,3209.0,3014.0,2976.0,3847.0,3143.0,3214.0,3607.0,0.86,10.09,0.58,-0.13,0.08,-0.02,1.0,s
3415.0,3206.0,3036.0,2977.0,3840.0,3145.0,3200.0,3612.0,0.73,10.1,0.61,-0.17,0.09,-0.04,1.0,s
3421.0,3200.0,3030.0,2982.0,3856.0,3153.0,3204.0,3619.0,0.92,9.76,2.82,0.14,0.01,-0.09,1.0,s
3417.0,3200.0,3024.0,2983.0,3857.0,3151.0,3200.0,3603.0,1.01,9.91,2.0,0.27,0.1,-0.06,1.0,s
3408.0,3195.0,3023.0,2978.0,3851.0,3148.0,3200.0,3600.0,1.19,10.07,0.93,0.27,0.18,-0.06,1.0,s
3409.0,3190.0,3020.0,2975.0,3843.0,3146.0,3200.0,3601.0,1.24,10.13,0.38,0.18,0.29,-0.12,1.0,s
3408.0,3195.0,3026.0,2970.0,3856.0,3146.0,3205.0,3611.0,0.69,10.11,0.52,0.05,0.14,-0.16,1.0,s
3407.0,3197.0,3024.0,2973.0,3851.0,3148.0,3206.0,3614.0,0.45,10.0,0.83,0.01,-0.02,-0.12,1.0,s
3405.0,3195.0,3023.0,2969.0,3856.0,3150.0,3202.0,3611.0,0.71,10.08,0.67,-0.02,0.03,-0.09,1.0,s
3414.0,3194.0,3024.0,2971.0,3852.0,3152.0,3211.0,3616.0,0.71,10.13,0.47,-0.09,0.19,-0.08,1.0,s
3408.0,3204.0,3019.0,2976.0,3854.0,3152.0,3210.0,3610.0,0.31,10.02,0.68,-0.2,0.06,-0.08,1.0,s
3413.0,3211.0,3026.0,2973.0,3854.0,3152.0,3213.0,3616.0,0.64,10.02,1.21,-0.24,-0.1,-0.08,1.0,s
3425.0,3198.0,3023.0,2978.0,3859.0,3155.0,3215.0,3613.0,0.88,9.93,1.65,-0.28,-0.03,-0.12,1.0,s
3415.0,3200.0,3025.0,2977.0,3858.0,3152.0,3209.0,3613.0,0.81,9.91,1.88,-0.26,-0.07,-0.11,1.0,s
3403.0,3191.0,3024.0,2976.0,3845.0,3152.0,3209.0,3617.0,0.91,9.89,2.06,-0.1,-0.08,-0.14,1.0,s
3409.0,3190.0,3019.0,2974.0,3846.0,3149.0,3203.0,3603.0,0.27,10.02,1.34,0.03,0.06,-0.18,1.0,s
3418.0,3207.0,3016.0,2979.0,3853.0,3157.0,3206.0,3600.0,-0.14,10.01,0.9,-0.03,0.04,-0.07,1.0,s
3408.0,3205.0,3025.0,2977.0,3855.0,3152.0,3206.0,3615.0,0.18,10.09,0.87,-0.11,-0.03,-0.0,1.0,s
3406.0,3195.0,3022.0,2976.0,3851.0,3154.0,3212.0,3611.0,0.32,10.01,1.32,-0.19,-0.01,0.04,1.0,s
3403.0,3190.0,3024.0,2978.0,3846.0,3152.0,3212.0,3613.0,0.6,10.03,1.67,-0.27,-0.02,0.03,1.0,s
3409.0,3186.0,3031.0,2987.0,3838.0,3151.0,3207.0,3611.0,0.76,9.91,2.04,-0.19,-0.05,-0.03,1.0,s
3423.0,3199.0,3023.0,2997.0,3849.0,3154.0,3204.0,3601.0,0.64,9.89,2.08,-0.14,-0.07,-0.09,1.0,s
3429.0,3213.0,3024.0,3002.0,3840.0,3152.0,3211.0,3611.0,0.69,9.92,2.05,-0.04,0.02,0.02,1.0,s
3414.0,3201.0,3018.0,2993.0,3833.0,3150.0,3209.0,3622.0,0.73,9.92,2.18,-0.05,0.01,-0.01,1.0,s
3415.0,3202.0,3023.0,2999.0,3837.0,3152.0,3206.0,3617.0,0.77,9.85,2.25,-0.03,-0.01,-0.04,1.0,s
3408.0,3194.0,3019.0,2997.0,3830.0,3150.0,3207.0,3616.0,0.65,9.84,2.19,-0.01,-0.03,-0.05,1.0,s
3419.0,3204.0,3015.0,2994.0,3831.0,3152.0,3205.0,3611.0,0.65,9.84,2.11,0.04,-0.05,-0.04,1.0,s
3423.0,3202.0,3025.0,3002.0,3824.0,3151.0,3206.0,3615.0,0.89,9.94,1.93,0.07,-0.04,-0.06,1.0,s
3415.0,3201.0,3017.0,2999.0,3826.0,3152.0,3202.0,3620.0,0.71,9.97,1.76,0.02,0.0,-0.13,1.0,s
3415.0,3193.0,3020.0,3005.0,3825.0,3152.0,3203.0,3617.0,0.52,9.94,1.57,0.04,0.02,-0.11,1.0,s
3423.0,3213.0,3026.0,3007.0,3838.0,3152.0,3202.0,3607.0,0.27,9.91,1.45,0.05,0.02,-0.09,1.0,s
3431.0,3198.0,3035.0,3009.0,3833.0,3159.0,3209.0,3614.0,-0.01,10.08,1.14,-0.07,0.0,-0.06,1.0,s
3423.0,3203.0,3021.0,3003.0,3819.0,3158.0,3210.0,3625.0,0.2,9.9,1.52,-0.12,-0.03,0.01,1.0,s
3419.0,3188.0,3025.0,3002.0,3801.0,3153.0,3201.0,3621.0,0.5,10.59,1.82,-0.04,-0.31,0.08,1.0,s
3433.0,3211.0,3026.0,3006.0,3821.0,3156.0,3205.0,3616.0,0.9,9.93,2.26,-0.15,-0.29,0.08,1.0,s
3439.0,3207.0,3027.0,3002.0,3824.0,3157.0,3206.0,3617.0,1.38,9.91,2.52,-0.1,-0.12,-0.03,1.0,s
3423.0,3205.0,3026.0,3001.0,3823.0,3162.0,3211.0,3621.0,1.26,9.92,2.17,-0.0,0.11,-0.09,1.0,s
3431.0,3206.0,3024.0,3007.0,3821.0,3167.0,3211.0,3617.0,0.8,9.97,1.61,0.05,0.17,-0.13,1.0,s
3419.0,3200.0,3022.0,3001.0,3817.0,3157.0,3212.0,3626.0,0.45,9.96,1.32,-0.01,0.2,-0.13,1.0,s
3440.0,3200.0,3024.0,3005.0,3826.0,3166.0,3216.0,3621.0,-0.21,9.83,1.29,-0.05,-0.02,-0.1,1.0,s
3440.0,3199.0,3028.0,3004.0,3824.0,3166.0,3211.0,3626.0,0.2,10.01,1.41,-0.12,-0.34,-0.05,1.0,s
3419.0,3215.0,3020.0,3006.0,3824.0,3159.0,3206.0,3613.0,0.78,9.98,2.05,-0.15,-0.09,0.03,1.0,s
3419.0,3200.0,3027.0,3026.0,3853.0,3166.0,3216.0,3631.0,-2.82,8.16,4.78,-0.04,-0.0,-0.09,1.0,s
3411.0,3210.0,3024.0,3028.0,3859.0,3169.0,3216.0,3632.0,-3.12,8.14,4.81,-0.05,0.02,-0.13,1.0,s
3419.0,3196.0,3026.0,3026.0,3844.0,3161.0,3211.0,3627.0,-3.45,8.15,4.85,-0.06,0.01,-0.11,1.0,s
3415.0,3195.0,3025.0,3025.0,3845.0,3166.0,3215.0,3627.0,-3.51,8.15,4.77,-0.04,0.03,-0.09,1.0,s
3407.0,3189.0,3024.0,3024.0,3844.0,3164.0,3213.0,3629.0,-3.5,8.18,4.64,-0.04,0.01,-0.05,1.0,s
3419.0,3206.0,3024.0,3027.0,3858.0,3171.0,3217.0,3630.0,-3.42,8.16,4.56,-0.07,0.01,-0.03,1.0,s
3417.0,3190.0,3025.0,3029.0,3852.0,3168.0,3207.0,3624.0,-3.35,8.15,4.69,-0.1,-0.03,-0.02,1.0,s
3420.0,3200.0,3027.0,3027.0,3850.0,3175.0,3215.0,3625.0,-3.27,8.15,4.81,-0.1,-0.01,-0.03,1.0,s
3435.0,3203.0,3026.0,3030.0,3855.0,3170.0,3215.0,3632.0,-3.26,8.13,4.87,-0.09,-0.01,-0.03,1.0,s
3434.0,3205.0,3033.0,3029.0,3851.0,3171.0,3205.0,3622.0,-3.23,8.1,4.93,-0.07,-0.03,-0.04,1.0,s
3410.0,3199.0,3018.0,3024.0,3840.0,3166.0,3210.0,3628.0,-3.33,8.13,4.86,-0.08,0.02,-0.04,1.0,s
3431.0,3199.0,3026.0,3027.0,3851.0,3171.0,3215.0,3620.0,-3.35,8.09,4.79,-0.08,-0.0,-0.04,1.0,s
3407.0,3205.0,3014.0,3024.0,3837.0,3170.0,3213.0,3634.0,-3.45,8.08,4.87,-0.1,-0.01,-0.02,1.0,s
3415.0,3200.0,3024.0,3026.0,3847.0,3178.0,3216.0,3632.0,-3.38,8.08,5.05,-0.08,-0.02,-0.0,1.0,s
3418.0,3199.0,3019.0,3026.0,3856.0,3175.0,3216.0,3631.0,-3.19,8.05,5.05,-0.05,0.0,0.0,1.0,s
3419.0,3196.0,3019.0,3024.0,3843.0,3168.0,3211.0,3634.0,-3.15,8.1,4.97,-0.05,-0.01,-0.01,1.0,s
3417.0,3193.0,3015.0,3027.0,3847.0,3168.0,3214.0,3627.0,-3.0,8.15,4.89,-0.03,-0.02,-0.02,1.0,s
3411.0,3197.0,3024.0,3025.0,3843.0,3178.0,3216.0,3637.0,-3.05,8.14,4.67,-0.04,-0.01,-0.07,1.0,s
3407.0,3187.0,3024.0,3030.0,3849.0,3178.0,3216.0,3632.0,-3.34,8.09,4.81,-0.08,-0.03,-0.06,1.0,s
3418.0,3200.0,3021.0,3026.0,3845.0,3173.0,3216.0,3633.0,-3.43,8.08,5.12,-0.08,-0.01,-0.03,1.0,s
3408.0,3201.0,3024.0,3035.0,3846.0,3152.0,3203.0,3615.0,0.25,10.07,-0.13,-0.03,0.0,0.05,1.0,s
3403.0,3199.0,3012.0,3038.0,3839.0,3153.0,3209.0,3634.0,0.48,10.13,-0.18,-0.05,0.01,0.02,1.0,s
3402.0,3203.0,3024.0,3036.0,3855.0,3152.0,3207.0,3632.0,0.48,10.11,-0.16,-0.1,0.03,0.03,1.0,s
3409.0,3191.0,3024.0,3037.0,3847.0,3152.0,3206.0,3631.0,0.47,10.1,-0.11,-0.11,0.06,0.03,1.0,s
3394.0,3195.0,3026.0,3029.0,3837.0,3142.0,3203.0,3627.0,0.59,10.08,0.06,-0.13,0.04,0.01,1.0,s
3409.0,3211.0,3027.0,3033.0,3854.0,3151.0,3206.0,3631.0,0.64,10.06,0.11,-0.11,0.04,0.0,1.0,s
3425.0,3205.0,3024.0,3030.0,3840.0,3152.0,3207.0,3635.0,0.55,10.1,0.14,-0.11,-0.02,-0.01,1.0,s
3402.0,3204.0,3021.0,3031.0,3839.0,3153.0,3205.0,3633.0,0.22,10.06,-0.23,-0.14,0.04,0.01,1.0,s
3405.0,3197.0,3022.0,3038.0,3840.0,3153.0,3205.0,3633.0,0.24,10.12,-0.32,-0.18,-0.01,0.07,1.0,s
3395.0,3189.0,3023.0,3034.0,3846.0,3152.0,3213.0,3630.0,0.63,10.11,0.09,-0.25,0.03,0.07,1.0,s
3404.0,3195.0,3027.0,3031.0,3837.0,3152.0,3205.0,3631.0,0.58,9.99,0.56,-0.28,0.03,0.07,1.0,s
3399.0,3193.0,3014.0,3038.0,3855.0,3153.0,3207.0,3632.0,0.91,9.98,1.14,-0.24,-0.06,0.08,1.0,s
3402.0,3184.0,3015.0,3037.0,3840.0,3152.0,3203.0,3624.0,1.12,10.0,1.24,-0.16,0.01,0.06,1.0,s
3408.0,3200.0,3018.0,3030.0,3856.0,3152.0,3205.0,3633.0,1.35,10.04,1.05,-0.1,0.04,-0.02,1.0,s
3405.0,3201.0,3011.0,3031.0,3845.0,3150.0,3207.0,3626.0,1.18,10.01,0.86,-0.01,0.04,-0.08,1.0,s
3395.0,3191.0,3026.0,3037.0,3849.0,3151.0,3205.0,3622.0,0.99,10.07,0.55,0.03,0.01,-0.11,1.0,s
3419.0,3200.0,3024.0,3035.0,3853.0,3155.0,3202.0,3623.0,0.72,10.12,0.22,0.02,0.05,-0.13,1.0,s
3408.0,3200.0,3024.0,3035.0,3856.0,3153.0,3210.0,3631.0,0.33,10.04,0.18,-0.07,0.0,-0.08,1.0,s
3421.0,3197.0,3028.0,3039.0,3854.0,3159.0,3213.0,3631.0,0.45,10.04,0.41,-0.09,-0.04,-0.02,1.0,s
3409.0,3199.0,3011.0,3041.0,3861.0,3152.0,3205.0,3629.0,0.73,10.11,0.58,-0.09,-0.04,-0.02,1.0,s
-0.06,-0.03,-0.07,1.0,s
3391.0,3184.0,3022.0,3007.0,3851.0,3166.0,3215.0,3639.0,0.71,8.45,5.7,-0.01,0.05,-0.07,1.0,s
3406.0,3206.0,3024.0,3017.0,3867.0,3169.0,3216.0,3622.0,0.5,8.5,5.36,-0.04,0.02,-0.04,1.0,s
3409.0,3195.0,3027.0,3011.0,3863.0,3173.0,3216.0,3638.0,0.58,8.56,5.35,-0.07,0.0,-0.01,1.0,s
3403.0,3198.0,3024.0,3023.0,3859.0,3166.0,3211.0,3630.0,0.8,8.5,5.53,-0.08,-0.04,-0.01,1.0,s
3402.0,3186.0,3017.0,3010.0,3853.0,3169.0,3215.0,3631.0,0.81,8.51,5.53,-0.08,0.01,0.0,1.0,s
3406.0,3196.0,3021.0,3013.0,3867.0,3171.0,3216.0,3634.0,0.88,8.48,5.62,-0.09,-0.05,-0.01,1.0,s
3407.0,3198.0,3026.0,3017.0,3879.0,3175.0,3217.0,3638.0,0.94,8.45,5.64,-0.09,0.01,-0.02,1.0,s
3411.0,3187.0,3020.0,3018.0,3859.0,3168.0,3212.0,3629.0,0.81,8.41,5.77,-0.1,-0.02,-0.06,1.0,s
3398.0,3191.0,3015.0,3011.0,3856.0,3168.0,3215.0,3639.0,0.66,8.43,5.87,-0.07,-0.02,-0.05,1.0,s
3394.0,3200.0,3019.0,3013.0,3855.0,3173.0,3213.0,3632.0,0.62,8.46,5.74,-0.03,0.01,-0.05,1.0,s
3393.0,3201.0,3020.0,3013.0,3854.0,3174.0,3216.0,3632.0,0.67,8.46,5.63,-0.01,0.01,-0.04,1.0,s
3403.0,3185.0,3019.0,3011.0,3857.0,3170.0,3215.0,3636.0,0.85,8.49,5.59,-0.03,0.0,-0.03,1.0,s
3421.0,3190.0,3024.0,3019.0,3868.0,3177.0,3212.0,3633.0,0.76,8.48,5.42,-0.05,0.04,-0.03,1.0,s
3402.0,3189.0,3024.0,3019.0,3865.0,3177.0,3211.0,3626.0,0.68,8.47,5.49,-0.12,-0.01,-0.02,1.0,s
3410.0,3191.0,3021.0,3011.0,3856.0,3167.0,3200.0,3630.0,0.74,8.48,5.66,-0.08,0.0,-0.0,1.0,s
3409.0,3201.0,3027.0,3022.0,3861.0,3167.0,3202.0,3615.0,0.93,8.47,5.66,-0.05,0.02,-0.02,1.0,s
3403.0,3200.0,3023.0,3018.0,3845.0,3168.0,3203.0,3626.0,0.84,8.43,5.66,-0.07,0.0,-0.01,1.0,s
3419.0,3201.0,3026.0,3018.0,3862.0,3168.0,3207.0,3623.0,0.87,8.4,5.77,-0.05,0.01,-0.03,1.0,s
3402.0,3184.0,3018.0,3016.0,3855.0,3162.0,3201.0,3627.0,0.71,8.46,5.75,-0.06,0.01,-0.04,1.0,s
3409.0,3185.0,3025.0,2987.0,3866.0,3149.0,3187.0,3575.0,-1.92,9.6,2.31,-0.16,0.06,-0.2,1.0,s
3411.0,3184.0,3021.0,2985.0,3872.0,3149.0,3190.0,3575.0,-2.08,9.62,2.26,-0.11,0.08,-0.17,1.0,s
3391.0,3183.0,3027.0,2992.0,3859.0,3149.0,3185.0,3577.0,-2.14,9.59,2.22,-0.09,0.15,-0.1,1.0,s
3398.0,3187.0,3025.0,2991.0,3879.0,3150.0,3186.0,3575.0,-2.06,9.59,2.0,-0.07,0.18,-0.05,1.0,s
3408.0,3184.0,3025.0,2987.0,3878.0,3156.0,3191.0,3583.0,-2.05,9.61,1.89,-0.07,0.08,-0.01,1.0,s
3391.0,3184.0,3026.0,2991.0,3874.0,3154.0,3188.0,3583.0,-1.96,9.67,1.79,-0.11,0.0,0.02,1.0,s
3402.0,3177.0,3024.0,2986.0,3871.0,3153.0,3191.0,3583.0,-1.7,9.64,1.92,-0.1,0.01,0.01,1.0,s
3399.0,3190.0,3024.0,2992.0,3869.0,3156.0,3193.0,3583.0,-1.65,9.68,2.07,-0.11,-0.03,0.01,1.0,s
3396.0,3193.0,3025.0,2991.0,3871.0,3157.0,3194.0,3568.0,-1.59,9.68,2.14,-0.06,-0.02,-0.01,1.0,s
3408.0,3195.0,3027.0,2991.0,3878.0,3163.0,3193.0,3583.0,-1.81,9.74,1.98,-0.07,0.0,-0.01,1.0,s
3403.0,3201.0,3011.0,2992.0,3862.0,3152.0,3186.0,3577.0,-1.67,9.66,1.89,-0.03,0.08,-0.05,1.0,s
3408.0,3185.0,3022.0,2992.0,3867.0,3150.0,3188.0,3574.0,-1.93,9.68,1.72,-0.1,0.07,-0.0,1.0,s
3393.0,3185.0,3027.0,2993.0,3870.0,3154.0,3193.0,3583.0,-1.9,9.72,1.93,-0.09,-0.04,0.03,1.0,s
3408.0,3189.0,3024.0,2992.0,3875.0,3157.0,3197.0,3583.0,-1.64,9.75,2.02,-0.07,0.01,0.02,1.0,s
3393.0,3195.0,3029.0,2992.0,3883.0,3155.0,3191.0,3583.0,-1.55,9.68,1.95,-0.07,0.02,0.01,1.0,s
3394.0,3188.0,3030.0,2991.0,3862.0,3153.0,3194.0,3583.0,-1.47,9.69,2.06,-0.06,-0.01,-0.03,1.0,s
3400.0,3189.0,3026.0,2992.0,3873.0,3159.0,3189.0,3583.0,-1.61,9.76,2.08,-0.05,0.01,-0.05,1.0,s
3405.0,3187.0,3022.0,2990.0,3871.0,3155.0,3189.0,3583.0,-1.75,9.69,2.09,-0.06,-0.01,-0.04,1.0,s
3403.0,3187.0,3024.0,2992.0,3867.0,3163.0,3195.0,3583.0,-1.73,9.73,2.02,-0.01,0.05,-0.04,1.0,s
3407.0,3195.0,3025.0,2991.0,3856.0,3158.0,3190.0,3583.0,-1.7,9.68,1.89,-0.02,0.03,-0.04,1.0,s
3396.0,3183.0,3024.0,2997.0,3854.0,3152.0,3197.0,3599.0,2.7,9.88,-0.26,-0.19,0.06,-0.15,1.0,s
3386.0,3182.0,3023.0,2993.0,3862.0,3155.0,3200.0,3597.0,2.31,9.77,0.07,-0.21,0.04,-0.13,1.0,s
3378.0,3182.0,3022.0,2997.0,3871.0,3153.0,3194.0,3597.0,2.25,9.77,0.17,-0.18,0.01,-0.1,1.0,s
3403.0,3175.0,3019.0,2995.0,3870.0,3156.0,3197.0,3600.0,2.31,9.79,0.13,-0.15,0.03,-0.06,1.0,s
3382.0,3180.0,3011.0,2999.0,3871.0,3157.0,3197.0,3599.0,2.33,9.79,0.15,-0.14,0.02,-0.03,1.0,s
3406.0,3182.0,3019.0,2992.0,3872.0,3157.0,3199.0,3600.0,2.46,9.73,0.22,-0.12,0.02,0.01,1.0,s
3388.0,3185.0,3019.0,2997.0,3882.0,3161.0,3199.0,3599.0,2.56,9.82,0.08,-0.11,0.02,0.01,1.0,s
3394.0,3183.0,3019.0,3001.0,3868.0,3154.0,3195.0,3583.0,2.77,9.83,0.13,-0.1,-0.02,0.0,1.0,s
3406.0,3181.0,3022.0,3003.0,3875.0,3162.0,3202.0,3583.0,2.97,9.83,0.26,-0.11,-0.03,-0.04,1.0,s
3400.0,3181.0,3023.0,3001.0,3874.0,3155.0,3197.0,3599.0,2.82,9.83,0.24,-0.1,-0.01,-0.08,1.0,s
3393.0,3185.0,3030.0,2997.0,3875.0,3159.0,3194.0,3583.0,2.69,9.81,0.3,-0.09,-0.03,-0.12,1.0,s
3405.0,3182.0,3029.0,3005.0,3888.0,3163.0,3200.0,3583.0,2.34,9.8,0.31,-0.1,0.02,-0.11,1.0,s
3399.0,3183.0,3024.0,2995.0,3871.0,3155.0,3202.0,3583.0,2.18,9.77,0.33,-0.1,0.01,-0.07,1.0,s
3408.0,3198.0,3024.0,3006.0,3888.0,3163.0,3200.0,3583.0,2.4,9.74,0.55,-0.08,-0.02,-0.03,1.0,s
3395.0,3184.0,3024.0,3003.0,3888.0,3162.0,3200.0,3602.0,2.62,9.66,0.52,-0.0,-0.0,-0.04,1.0,s
3391.0,3183.0,3023.0,3002.0,3879.0,3153.0,3196.0,3583.0,2.63,9.92,0.06,0.0,0.06,-0.05,1.0,s
3387.0,3183.0,3020.0,2997.0,3865.0,3159.0,3202.0,3600.0,2.57,9.87,0.09,-0.1,-0.02,-0.05,1.0,s
3397.0,3175.0,3018.0,2992.0,3878.0,3155.0,3197.0,3598.0,2.39,9.87,0.19,-0.09,-0.01,-0.07,1.0,s
3379.0,3189.0,3011.0,3005.0,3869.0,3158.0,3198.0,3583.0,2.27,9.84,0.31,-0.07,0.01,-0.06,1.0,s
3390.0,3193.0,3029.0,2999.0,3879.0,3161.0,3201.0,3601.0,2.29,9.81,0.42,-0.07,-0.0,-0.03,1.0,s
3394.0,3184.0,3022.0,3008.0,3886.0,3168.0,3201.0,3599.0,0.8,8.87,5.09,-0.4,-0.05,-0.16,1.0,s
3398.0,3182.0,3024.0,3005.0,3875.0,3165.0,3202.0,3600.0,0.76,8.82,5.24,-0.32,-0.06,-0.1,1.0,s
3408.0,3186.0,3022.0,3007.0,3888.0,3171.0,3199.0,3601.0,0.93,8.79,5.3,-0.22,-0.06,-0.05,1.0,s
3396.0,3182.0,3015.0,3007.0,3885.0,3163.0,3200.0,3599.0,1.02,8.74,5.29,-0.18,-0.02,-0.0,1.0,s
3397.0,3180.0,3023.0,3006.0,3886.0,3169.0,3209.0,3607.0,1.2,8.77,5.29,-0.12,-0.03,0.0,1.0,s
3386.0,3184.0,3023.0,3003.0,3873.0,3165.0,3201.0,3604.0,1.33,8.82,5.15,-0.08,-0.01,-0.01,1.0,s
3404.0,3197.0,3028.0,3010.0,3885.0,3169.0,3206.0,3606.0,1.35,8.81,5.0,-0.06,0.01,-0.02,1.0,s
3399.0,3182.0,3027.0,3008.0,3887.0,3167.0,3203.0,3601.0,1.31,8.81,4.96,-0.05,0.0,-0.04,1.0,s
3393.0,3184.0,3030.0,3001.0,3868.0,3164.0,3202.0,3603.0,1.18,8.79,4.91,-0.07,-0.01,-0.03,1.0,s
3396.0,3195.0,3027.0,3004.0,3889.0,3169.0,3206.0,3603.0,1.23,8.83,4.94,-0.07,0.0,-0.04,1.0,s
3393.0,3181.0,3018.0,3002.0,3875.0,3165.0,3206.0,3600.0,1.19,8.78,5.0,-0.07,0.01,-0.03,1.0,s
3394.0,3185.0,3024.0,3003.0,3874.0,3165.0,3204.0,3605.0,1.17,8.75,4.98,-0.09,0.01,-0.0,1.0,s
3399.0,3184.0,3024.0,3002.0,3875.0,3167.0,3200.0,3607.0,1.36,8.8,5.05,-0.08,-0.01,-0.01,1.0,s
3411.0,3187.0,3019.0,3008.0,3884.0,3170.0,3203.0,3606.0,1.37,8.78,5.1,-0.08,-0.02,-0.01,1.0,s
3405.0,3190.0,3024.0,3011.0,3888.0,3171.0,3200.0,3602.0,1.28,8.78,5.1,-0.04,0.04,-0.03,1.0,s
3399.0,3193.0,3031.0,3010.0,3892.0,3159.0,3200.0,3603.0,1.19,8.75,5.11,-0.03,0.03,-0.02,1.0,s
3407.0,3198.0,3025.0,3008.0,3878.0,3172.0,3202.0,3599.0,1.31,8.81,4.98,-0.05,0.01,-0.02,1.0,s
3401.0,3181.0,3024.0,3006.0,3875.0,3168.0,3203.0,3606.0,1.28,8.8,4.97,-0.06,0.01,-0.01,1.0,s
3408.0,3178.0,3025.0,3005.0,3877.0,3173.0,3206.0,3614.0,1.35,8.75,5.03,-0.05,0.02,-0.01,1.0,s
3413.0,3184.0,3018.0,3007.0,3862.0,3171.0,3200.0,3605.0,1.34,8.81,5.12,-0.02,0.04,0.0,1.0,s
3407.0,3190.0,3023.0,3015.0,3883.0,3181.0,3200.0,3603.0,-1.54,8.46,5.62,-0.27,0.03,-0.35,1.0,s
3407.0,3187.0,3022.0,3015.0,3874.0,3180.0,3200.0,3607.0,-1.95,8.33,5.79,-0.2,0.07,-0.26,1.0,s
3402.0,3199.0,3024.0,3022.0,3878.0,3181.0,3197.0,3599.0,-1.96,8.4,5.56,-0.13,0.07,-0.17,1.0,s
3408.0,3191.0,3024.0,3024.0,3871.0,3183.0,3195.0,3583.0,-1.57,8.48,5.4,-0.07,-0.01,-0.12,1.0,s
3418.0,3200.0,3024.0,3019.0,3874.0,3170.0,3195.0,3598.0,-1.55,8.51,5.22,-0.08,0.01,-0.08,1.0,s
3405.0,3195.0,3025.0,3023.0,3879.0,3173.0,3200.0,3598.0,-1.5,8.46,5.28,-0.1,-0.03,-0.07,1.0,s
3397.0,3193.0,3025.0,3020.0,3870.0,3175.0,3187.0,3601.0,-1.53,8.42,5.46,-0.1,-0.03,-0.04,1.0,s
3407.0,3184.0,3011.0,3013.0,3870.0,3175.0,3199.0,3603.0,-1.58,8.42,5.41,-0.08,-0.0,-0.03,1.0,s
3411.0,3194.0,3024.0,3019.0,3866.0,3173.0,3200.0,3601.0,-1.46,8.41,5.4,-0.08,-0.02,-0.02,1.0,s
3393.0,3189.0,3024.0,3015.0,3875.0,3181.0,3201.0,3603.0,-1.43,8.41,5.54,-0.07,-0.03,-0.01,1.0,s
3389.0,3179.0,3018.0,3013.0,3877.0,3173.0,3202.0,3603.0,-1.88,8.34,5.87,-0.04,-0.08,0.05,1.0,s
3385.0,3183.0,3019.0,3015.0,3872.0,3177.0,3198.0,3601.0,-1.73,8.33,5.81,0.06,-0.09,0.12,1.0,s
3393.0,3177.0,3020.0,3015.0,3868.0,3173.0,3200.0,3600.0,-1.3,8.48,5.3,0.09,-0.01,0.17,1.0,s
3408.0,3187.0,3024.0,3011.0,3869.0,3177.0,3197.0,3603.0,-0.84,8.54,5.09,0.07,-0.04,0.15,1.0,s
3402.0,3194.0,3025.0,3011.0,3874.0,3179.0,3202.0,3607.0,-0.5,8.7,4.77,0.02,-0.01,0.1,1.0,s
3397.0,3177.0,3024.0,3019.0,3875.0,3178.0,3201.0,3611.0,-0.27,8.82,4.75,-0.03,-0.04,-0.01,1.0,s
3405.0,3183.0,3020.0,3022.0,3867.0,3181.0,3198.0,3601.0,-0.45,8.73,4.94,-0.12,0.02,-0.08,1.0,s
3405.0,3184.0,3020.0,3013.0,3869.0,3180.0,3200.0,3600.0,-0.83,8.66,5.2,-0.13,0.02,-0.15,1.0,s
3411.0,3184.0,3025.0,3020.0,3873.0,3184.0,3204.0,3611.0,-1.23,8.59,5.34,-0.12,0.06,-0.15,1.0,s
3405.0,3198.0,3024.0,3022.0,3884.0,3183.0,3209.0,3607.0,-1.28,8.39,5.61,-0.03,0.03,-0.15,1.0,s
-0.12,0.0,-0.01,1.0,s
3406.0,3187.0,3009.0,3020.0,3877.0,3163.0,3200.0,3601.0,2.45,9.8,1.41,-0.12,0.01,-0.09,1.0,s
3398.0,3193.0,3024.0,3019.0,3879.0,3167.0,3209.0,3599.0,2.24,9.77,1.57,-0.15,-0.15,-0.09,1.0,s
3407.0,3187.0,3024.0,3015.0,3875.0,3167.0,3199.0,3598.0,2.21,9.81,1.75,-0.14,-0.13,-0.1,1.0,s
3392.0,3179.0,3023.0,3019.0,3886.0,3168.0,3209.0,3612.0,2.0,9.82,1.86,-0.1,-0.05,-0.13,1.0,s
3392.0,3175.0,3022.0,3013.0,3877.0,3169.0,3208.0,3607.0,1.69,9.78,1.84,-0.09,-0.01,-0.12,1.0,s
3393.0,3187.0,3018.0,3018.0,3878.0,3173.0,3203.0,3600.0,1.71,9.8,1.82,-0.08,-0.01,-0.07,1.0,s
3401.0,3178.0,3019.0,3018.0,3881.0,3163.0,3200.0,3600.0,1.91,9.8,1.8,-0.06,0.02,-0.03,1.0,s
3386.0,3181.0,3019.0,3015.0,3891.0,3172.0,3211.0,3609.0,2.1,9.79,1.72,-0.04,-0.0,-0.03,1.0,s
3389.0,3181.0,3023.0,3018.0,3871.0,3169.0,3204.0,3609.0,2.04,9.84,1.54,-0.07,0.02,-0.04,1.0,s
3406.0,3179.0,3019.0,3015.0,3878.0,3177.0,3211.0,3607.0,2.03,9.8,1.65,-0.09,0.01,-0.04,1.0,s
3393.0,3184.0,3017.0,3011.0,3862.0,3167.0,3207.0,3606.0,2.02,9.84,1.73,-0.09,0.0,-0.05,1.0,s
3397.0,3194.0,3019.0,3019.0,3883.0,3169.0,3203.0,3597.0,1.98,9.82,1.83,-0.1,-0.0,-0.06,1.0,s
3392.0,3195.0,3026.0,3023.0,3887.0,3172.0,3208.0,3602.0,1.96,9.8,1.86,-0.11,-0.01,-0.06,1.0,s
3393.0,3175.0,3021.0,3015.0,3879.0,3167.0,3202.0,3611.0,1.99,9.8,1.83,-0.1,-0.02,-0.05,1.0,s
3388.0,3175.0,3013.0,3013.0,3872.0,3168.0,3201.0,3610.0,1.93,9.75,1.97,-0.06,0.01,-0.06,1.0,s
3390.0,3200.0,3021.0,3014.0,3871.0,3173.0,3210.0,3607.0,1.87,9.76,1.94,-0.07,0.02,-0.05,1.0,s
3392.0,3191.0,3021.0,3024.0,3877.0,3170.0,3200.0,3604.0,1.88,9.79,1.91,-0.06,-0.01,-0.04,1.0,s
3410.0,3184.0,3024.0,3017.0,3881.0,3174.0,3207.0,3611.0,1.97,9.8,1.91,-0.06,0.01,-0.02,1.0,s
3407.0,3186.0,3017.0,3020.0,3884.0,3172.0,3207.0,3613.0,1.98,9.82,1.73,-0.07,-0.01,-0.02,1.0,s
3404.0,3185.0,3010.0,3007.0,3889.0,3167.0,3207.0,3614.0,2.38,8.1,6.38,-0.08,0.01,0.21,1.0,s
3411.0,3183.0,3024.0,3005.0,3891.0,3166.0,3214.0,3611.0,2.81,8.07,5.89,-0.07,0.07,0.18,1.0,s
3390.0,3180.0,3023.0,2997.0,3888.0,3173.0,3216.0,3621.0,3.07,8.16,5.49,-0.12,-0.01,0.08,1.0,s
3402.0,3197.0,3018.0,2994.0,3875.0,3167.0,3211.0,3611.0,2.89,7.98,6.08,-0.13,-0.07,-0.04,1.0,s
3404.0,3182.0,3019.0,3002.0,3881.0,3169.0,3207.0,3614.0,2.41,8.03,6.28,-0.06,-0.16,-0.07,1.0,s
3406.0,3182.0,3015.0,3005.0,3887.0,3173.0,3217.0,3614.0,2.45,8.04,6.13,0.04,-0.04,-0.07,1.0,s
3389.0,3186.0,3018.0,3003.0,3888.0,3175.0,3216.0,3623.0,2.41,8.08,5.95,0.11,-0.02,-0.08,1.0,s
3393.0,3186.0,3023.0,3007.0,3894.0,3177.0,3215.0,3613.0,2.29,8.17,5.46,0.08,0.05,-0.05,1.0,s
3396.0,3181.0,3010.0,3003.0,3881.0,3171.0,3211.0,3619.0,2.17,8.32,5.14,0.03,0.05,-0.01,1.0,s
3402.0,3179.0,3014.0,2999.0,3885.0,3171.0,3216.0,3623.0,2.24,8.34,5.13,-0.05,0.03,0.04,1.0,s
3397.0,3187.0,3017.0,3003.0,3888.0,3158.0,3212.0,3616.0,2.57,8.29,5.38,-0.08,0.01,0.01,1.0,s
3398.0,3174.0,3025.0,2997.0,3883.0,3169.0,3213.0,3615.0,2.57,8.18,5.68,-0.12,-0.03,0.01,1.0,s
3395.0,3184.0,3025.0,2999.0,3895.0,3180.0,3216.0,3631.0,2.68,8.18,5.91,-0.07,-0.04,-0.04,1.0,s
3379.0,3194.0,3017.0,3002.0,3879.0,3169.0,3211.0,3614.0,2.55,8.13,5.92,-0.03,0.0,-0.06,1.0,s
3415.0,3185.0,3021.0,3005.0,3898.0,3181.0,3211.0,3619.0,2.44,8.18,5.77,0.0,-0.01,-0.06,1.0,s
3396.0,3185.0,3027.0,3007.0,3888.0,3182.0,3214.0,3615.0,2.46,8.26,5.58,0.03,-0.0,-0.06,1.0,s
3396.0,3184.0,3025.0,3008.0,3898.0,3180.0,3216.0,3627.0,2.39,8.28,5.42,0.02,-0.01,-0.05,1.0,s
3402.0,3190.0,3024.0,3005.0,3893.0,3180.0,3213.0,3607.0,2.37,8.21,5.32,-0.03,0.01,-0.04,1.0,s
3393.0,3181.0,3020.0,2999.0,3877.0,3171.0,3206.0,3615.0,2.38,8.34,5.28,-0.06,0.0,-0.02,1.0,s
3408.0,3186.0,3014.0,2999.0,3882.0,3177.0,3213.0,3616.0,2.41,8.25,5.47,-0.08,0.01,0.0,1.0,s
3401.0,3190.0,3019.0,3008.0,3905.0,3179.0,3216.0,3615.0,-0.56,10.12,0.26,0.21,-0.07,0.16,1.0,s
3408.0,3184.0,3023.0,3001.0,3899.0,3184.0,3218.0,3626.0,0.29,10.13,0.33,0.06,-0.04,0.19,1.0,s
3407.0,3191.0,3038.0,3010.0,3897.0,3181.0,3216.0,3617.0,0.66,10.13,0.67,-0.09,-0.01,0.18,1.0,s
3403.0,3189.0,3023.0,3009.0,3905.0,3182.0,3216.0,3614.0,0.86,10.07,1.06,-0.18,-0.09,0.13,1.0,s
3426.0,3192.0,3024.0,3003.0,3885.0,3178.0,3216.0,3617.0,0.99,10.01,1.39,-0.19,-0.12,0.07,1.0,s
3398.0,3179.0,3027.0,2999.0,3898.0,3178.0,3218.0,3626.0,1.01,10.05,1.49,-0.17,-0.07,-0.02,1.0,s
3405.0,3184.0,3019.0,3005.0,3891.0,3179.0,3215.0,3621.0,0.79,9.95,1.75,-0.18,-0.02,-0.04,1.0,s
3398.0,3183.0,3020.0,3008.0,3904.0,3183.0,3218.0,3618.0,0.63,9.91,1.83,-0.14,0.04,-0.05,1.0,s
3403.0,3190.0,3024.0,3005.0,3893.0,3183.0,3219.0,3631.0,0.61,9.87,2.0,-0.12,0.0,-0.03,1.0,s
3390.0,3184.0,3021.0,3005.0,3890.0,3179.0,3216.0,3632.0,0.56,9.96,1.84,-0.09,0.03,-0.01,1.0,s
3392.0,3184.0,3024.0,3013.0,3899.0,3185.0,3216.0,3622.0,0.68,9.92,1.78,-0.05,0.03,-0.03,1.0,s
3386.0,3185.0,3014.0,3006.0,3891.0,3177.0,3216.0,3627.0,0.78,9.95,1.73,-0.05,0.01,-0.03,1.0,s
3391.0,3184.0,3019.0,3007.0,3888.0,3183.0,3216.0,3623.0,0.75,9.99,1.67,-0.05,-0.02,-0.05,1.0,s
3378.0,3185.0,3017.0,3005.0,3891.0,3183.0,3215.0,3632.0,0.66,9.95,1.7,-0.04,0.01,-0.06,1.0,s
3396.0,3185.0,3024.0,3013.0,3908.0,3186.0,3216.0,3616.0,0.64,9.97,1.64,-0.03,0.0,-0.07,1.0,s
3397.0,3186.0,3024.0,3008.0,3903.0,3184.0,3216.0,3625.0,0.65,9.94,1.65,-0.07,-0.02,-0.06,1.0,s
3393.0,3185.0,3017.0,3008.0,3888.0,3183.0,3216.0,3625.0,0.55,10.01,1.65,-0.05,-0.03,-0.05,1.0,s
3402.0,3186.0,3026.0,3007.0,3888.0,3183.0,3214.0,3620.0,0.68,9.95,1.83,-0.04,-0.04,-0.04,1.0,s
3399.0,3185.0,3031.0,3009.0,3887.0,3182.0,3211.0,3623.0,0.55,9.98,1.62,-0.04,0.0,-0.03,1.0,s
3392.0,3181.0,3014.0,3008.0,3889.0,3183.0,3213.0,3617.0,0.74,9.93,1.71,-0.04,-0.06,-0.05,1.0,s
3357.0,3185.0,3014.0,3037.0,3892.0,3163.0,3189.0,3610.0,-3.59,7.86,4.82,-0.03,-0.01,-0.02,1.0,s
3364.0,3171.0,3025.0,3042.0,3891.0,3174.0,3197.0,3615.0,-3.66,8.1,4.65,-0.02,0.04,0.01,1.0,s
3367.0,3190.0,3029.0,3050.0,3900.0,3173.0,3189.0,3601.0,-3.62,8.11,4.62,-0.03,-0.01,0.02,1.0,s
3349.0,3179.0,3024.0,3041.0,3889.0,3170.0,3194.0,3603.0,-3.44,8.14,4.63,-0.01,-0.0,0.02,1.0,s
3365.0,3186.0,3017.0,3033.0,3887.0,3174.0,3187.0,3602.0,-3.48,8.15,4.59,-0.03,0.01,0.0,1.0,s
3370.0,3178.0,3023.0,3030.0,3895.0,3174.0,3194.0,3613.0,-3.42,8.11,4.65,-0.04,-0.01,-0.01,1.0,s
3371.0,3197.0,3036.0,3039.0,3903.0,3182.0,3193.0,3600.0,-3.49,8.15,4.64,-0.02,0.02,-0.0,1.0,s
3371.0,3183.0,3031.0,3039.0,3898.0,3179.0,3196.0,3613.0,-3.42,8.26,4.56,-0.06,0.07,0.0,1.0,s
3377.0,3184.0,3035.0,3043.0,3904.0,3181.0,3194.0,3613.0,-3.47,8.12,4.53,-0.04,0.02,-0.01,1.0,s
3367.0,3189.0,3029.0,3052.0,3904.0,3169.0,3184.0,3602.0,-3.56,8.12,4.53,0.02,0.07,-0.02,1.0,s
3377.0,3186.0,3025.0,3050.0,3889.0,3151.0,3181.0,3604.0,-3.7,8.35,4.51,0.05,0.14,-0.01,1.0,s
3376.0,3183.0,3029.0,3071.0,3901.0,3133.0,3184.0,3606.0,-3.99,7.97,4.79,-0.1,0.08,0.13,1.0,s
3395.0,3193.0,3025.0,3097.0,3899.0,3151.0,3187.0,3605.0,-3.63,8.38,4.38,-0.03,-0.07,0.11,1.0,s
3376.0,3197.0,3027.0,3071.0,3890.0,3147.0,3188.0,3615.0,-3.04,8.2,4.47,-0.03,-0.12,0.1,1.0,s
3376.0,3184.0,3021.0,3063.0,3879.0,3151.0,3190.0,3613.0,-2.94,8.42,4.4,0.02,-0.02,0.1,1.0,s
3371.0,3199.0,3018.0,3051.0,3883.0,3149.0,3191.0,3607.0,-2.88,8.37,4.31,-0.05,-0.03,0.05,1.0,s
3372.0,3188.0,3018.0,3062.0,3901.0,3159.0,3197.0,3613.0,-2.77,8.53,4.28,-0.02,0.01,-0.01,1.0,s
3386.0,3177.0,3019.0,3057.0,3888.0,3153.0,3193.0,3606.0,-2.83,8.35,4.41,-0.08,-0.01,-0.07,1.0,s
3384.0,3184.0,3021.0,3063.0,3905.0,3159.0,3191.0,3613.0,-3.01,8.45,4.44,-0.06,0.03,-0.1,1.0,s
3390.0,3185.0,3024.0,3063.0,3894.0,3165.0,3199.0,3621.0,-3.18,8.31,4.53,-0.05,0.02,-0.12,1.0,s
3374.0,3648.0,3249.0,3102.0,3715.0,3542.0,3211.0,3423.0,1.3,9.84,1.33,-0.16,0.04,0.03,1.0,s
3385.0,3645.0,3243.0,3105.0,3722.0,3557.0,3211.0,3424.0,1.24,10.13,1.36,-0.02,0.04,-0.06,1.0,s
3383.0,3648.0,3249.0,3098.0,3715.0,3547.0,3205.0,3424.0,1.12,9.77,1.66,-0.09,-0.01,-0.06,1.0,s
3382.0,3632.0,3248.0,3099.0,3710.0,3548.0,3213.0,3424.0,0.96,10.06,1.56,-0.09,0.01,-0.07,1.0,s
3383.0,3630.0,3249.0,3102.0,3718.0,3557.0,3216.0,3433.0,1.0,9.91,1.72,-0.06,-0.0,-0.07,1.0,s
3376.0,3651.0,3233.0,3104.0,3727.0,3566.0,3219.0,3428.0,0.76,10.0,1.64,-0.11,0.02,-0.06,1.0,s
3377.0,3634.0,3250.0,3104.0,3715.0,3557.0,3209.0,3427.0,0.99,9.84,1.79,-0.04,-0.03,-0.05,1.0,s
3387.0,3632.0,3244.0,3099.0,3718.0,3556.0,3215.0,3434.0,1.06,10.02,1.54,-0.08,-0.0,-0.05,1.0,s
3392.0,3632.0,3248.0,3111.0,3728.0,3565.0,3216.0,3435.0,0.96,9.95,1.56,-0.06,0.01,-0.06,1.0,s
3376.0,3634.0,3244.0,3105.0,3715.0,3551.0,3211.0,3429.0,0.89,9.98,1.53,-0.07,0.01,-0.06,1.0,s
3392.0,3632.0,3242.0,3110.0,3733.0,3546.0,3215.0,3429.0,0.87,9.96,1.62,-0.1,0.01,-0.06,1.0,s
3385.0,3632.0,3248.0,3118.0,3732.0,3546.0,3217.0,3438.0,0.83,9.93,1.75,-0.09,0.0,-0.04,1.0,s
3376.0,3619.0,3246.0,3119.0,3723.0,3547.0,3215.0,3438.0,0.94,9.92,1.76,-0.06,-0.0,-0.03,1.0,s
3375.0,3632.0,3246.0,3118.0,3730.0,3543.0,3216.0,3435.0,0.89,9.86,1.7,-0.07,0.01,-0.02,1.0,s
3379.0,3613.0,3248.0,3120.0,3723.0,3543.0,3219.0,3440.0,0.95,9.85,1.8,-0.02,-0.01,-0.04,1.0,s
3386.0,3632.0,3250.0,3123.0,3739.0,3559.0,3226.0,3449.0,1.05,9.89,1.72,-0.03,-0.02,-0.02,1.0,s
3387.0,3631.0,3251.0,3121.0,3738.0,3546.0,3219.0,3438.0,0.9,9.91,1.63,-0.06,0.05,-0.01,1.0,s
3389.0,3639.0,3253.0,3120.0,3741.0,3555.0,3224.0,3451.0,0.86,9.93,1.61,-0.08,-0.01,-0.02,1.0,s
3367.0,3615.0,3241.0,3119.0,3734.0,3546.0,3216.0,3440.0,1.0,9.9,1.73,-0.08,0.01,-0.03,1.0,s
3401.0,3631.0,3248.0,3123.0,3741.0,3538.0,3226.0,3445.0,1.05,9.95,1.72,-0.07,-0.01,-0.04,1.0,s
3363.0,3554.0,3243.0,3039.0,3742.0,3550.0,3225.0,3476.0,2.62,9.8,0.07,-0.19,-0.01,-0.13,1.0,s
3373.0,3557.0,3225.0,3046.0,3743.0,3545.0,3219.0,3471.0,2.56,9.66,0.55,-0.16,-0.06,-0.14,1.0,s
3364.0,3531.0,3227.0,3045.0,3739.0,3551.0,3217.0,3470.0,2.26,9.89,0.43,-0.16,0.02,-0.08,1.0,s
3367.0,3545.0,3229.0,3050.0,3751.0,3557.0,3222.0,3477.0,2.37,9.76,0.7,-0.05,-0.02,-0.1,1.0,s
3378.0,3535.0,3238.0,3051.0,3754.0,3568.0,3226.0,3471.0,2.35,9.84,0.53,-0.08,0.02,-0.05,1.0,s
3377.0,3539.0,3231.0,3045.0,3743.0,3568.0,3227.0,3484.0,2.43,9.8,0.57,-0.02,-0.01,-0.04,1.0,s
3370.0,3539.0,3232.0,3053.0,3750.0,3563.0,3222.0,3476.0,2.51,9.8,0.43,-0.05,0.02,-0.01,1.0,s
3366.0,3553.0,3242.0,3056.0,3747.0,3568.0,3221.0,3470.0,2.6,9.79,0.43,-0.03,0.04,-0.02,1.0,s
3363.0,3539.0,3227.0,3054.0,3741.0,3568.0,3223.0,3482.0,2.47,9.84,0.38,-0.04,0.03,-0.03,1.0,s
3375.0,3539.0,3231.0,3056.0,3749.0,3579.0,3226.0,3476.0,2.59,9.86,0.35,-0.02,0.02,-0.04,1.0,s
3382.0,3547.0,3230.0,3061.0,3759.0,3579.0,3231.0,3481.0,2.5,9.85,0.34,-0.03,0.0,-0.04,1.0,s
3362.0,3535.0,3234.0,3055.0,3735.0,3572.0,3229.0,3482.0,2.53,9.92,0.28,-0.03,0.01,-0.05,1.0,s
3358.0,3544.0,3221.0,3061.0,3749.0,3577.0,3230.0,3479.0,2.59,9.85,0.19,-0.03,0.04,-0.04,1.0,s
3381.0,3550.0,3233.0,3061.0,3753.0,3583.0,3232.0,3478.0,2.56,9.94,0.19,-0.07,0.01,-0.04,1.0,s
3376.0,3539.0,3232.0,3057.0,3753.0,3583.0,3233.0,3482.0,2.56,9.9,0.27,-0.09,0.02,-0.05,1.0,s
3377.0,3545.0,3236.0,3058.0,3751.0,3582.0,3233.0,3481.0,2.53,9.83,0.42,-0.1,0.02,-0.05,1.0,s
3371.0,3537.0,3226.0,3052.0,3743.0,3583.0,3223.0,3482.0,2.51,9.82,0.46,-0.11,-0.01,-0.05,1.0,s
3362.0,3536.0,3233.0,3046.0,3749.0,3583.0,3229.0,3483.0,2.42,9.79,0.52,-0.09,-0.0,-0.04,1.0,s
3376.0,3531.0,3241.0,3053.0,3739.0,3569.0,3223.0,3475.0,2.35,9.77,0.41,-0.08,-0.01,-0.02,1.0,s
3364.0,3529.0,3237.0,3043.0,3750.0,3573.0,3231.0,3485.0,2.46,9.84,0.4,-0.1,0.0,0.0,1.0,s
3371.0,3523.0,3229.0,3070.0,3738.0,3559.0,3222.0,3486.0,2.24,9.29,3.32,-0.21,0.15,-0.06,1.0,s
3363.0,3509.0,3219.0,3071.0,3746.0,3559.0,3222.0,3485.0,2.29,9.45,3.28,-0.16,0.02,-0.08,1.0,s
3373.0,3503.0,3231.0,3071.0,3750.0,3567.0,3218.0,3486.0,2.19,9.29,3.44,-0.11,0.11,-0.07,1.0,s
3367.0,3517.0,3226.0,3068.0,3734.0,3567.0,3228.0,3503.0,2.19,9.36,3.37,-0.07,0.03,-0.05,1.0,s
3369.0,3525.0,3233.0,3070.0,3745.0,3569.0,3229.0,3498.0,2.27,9.34,3.26,-0.06,0.13,0.0,1.0,s
3367.0,3504.0,3227.0,3068.0,3747.0,3563.0,3231.0,3494.0,2.44,9.42,3.12,-0.04,0.09,-0.01,1.0,s
3372.0,3508.0,3227.0,3067.0,3737.0,3563.0,3226.0,3495.0,2.25,9.43,3.22,-0.11,0.16,-0.0,1.0,s
3375.0,3509.0,3237.0,3071.0,3741.0,3569.0,3229.0,3495.0,2.33,9.33,3.37,-0.02,-0.03,-0.03,1.0,s
3364.0,3509.0,3223.0,3071.0,3745.0,3564.0,3229.0,3501.0,2.41,9.39,3.41,-0.08,0.06,-0.03,1.0,s
3372.0,3516.0,3223.0,3071.0,3740.0,3564.0,3226.0,3494.0,2.3,9.25,3.34,-0.02,-0.01,-0.05,1.0,s
3371.0,3522.0,3229.0,3066.0,3740.0,3569.0,3225.0,3493.0,2.51,9.39,3.35,-0.06,0.04,-0.05,1.0,s
3372.0,3511.0,3233.0,3065.0,3739.0,3564.0,3226.0,3498.0,2.21,9.32,3.3,-0.06,0.08,-0.05,1.0,s
3373.0,3520.0,3221.0,3070.0,3742.0,3559.0,3223.0,3498.0,2.33,9.33,3.29,-0.05,0.01,-0.06,1.0,s
3369.0,3525.0,3217.0,3063.0,3741.0,3568.0,3231.0,3497.0,2.08,9.3,3.25,-0.05,0.07,-0.01,1.0,s
3377.0,3515.0,3229.0,3070.0,3752.0,3566.0,3220.0,3491.0,2.37,9.35,3.29,-0.05,0.05,-0.05,1.0,s
3363.0,3506.0,3217.0,3066.0,3739.0,3567.0,3221.0,3492.0,2.25,9.37,3.29,-0.07,0.17,-0.04,1.0,s
3372.0,3505.0,3221.0,3066.0,3743.0,3568.0,3231.0,3493.0,2.16,9.39,3.3,-0.04,0.04,-0.04,1.0,s
3358.0,3509.0,3229.0,3067.0,3734.0,3561.0,3227.0,3491.0,2.33,9.38,3.31,-0.08,0.05,-0.06,1.0,s
3386.0,3521.0,3224.0,3071.0,3750.0,3569.0,3231.0,3504.0,2.25,9.43,3.45,-0.07,-0.02,-0.07,1.0,s
3376.0,3513.0,3218.0,3071.0,3757.0,3572.0,3227.0,3498.0,2.14,9.43,3.34,-0.04,0.02,-0.06,1.0,s
3373.0,3504.0,3243.0,3039.0,3760.0,3609.0,3216.0,3472.0,-1.07,9.78,2.34,-0.14,0.01,-0.17,1.0,s
3377.0,3510.0,3220.0,3027.0,3752.0,3600.0,3216.0,3465.0,-0.86,9.72,2.49,-0.14,0.0,-0.07,1.0,s
3370.0,3501.0,3245.0,3034.0,3755.0,3613.0,3215.0,3472.0,-0.58,9.77,2.55,-0.1,0.03,-0.06,1.0,s
3383.0,3505.0,3247.0,3039.0,3768.0,3614.0,3216.0,3477.0,-0.5,9.79,2.62,-0.12,-0.01,-0.04,1.0,s
3374.0,3501.0,3246.0,3034.0,3760.0,3610.0,3219.0,3479.0,-0.39,9.71,2.62,-0.07,0.01,-0.02,1.0,s
3386.0,3511.0,3238.0,3034.0,3766.0,3619.0,3219.0,3477.0,-0.33,9.86,2.43,-0.1,0.07,-0.05,1.0,s
3391.0,3515.0,3238.0,3038.0,3739.0,3606.0,3219.0,3472.0,-0.4,9.74,2.47,-0.2,0.13,-0.09,1.0,s
3375.0,3504.0,3226.0,3039.0,3731.0,3583.0,3223.0,3482.0,-0.48,9.8,2.55,-0.15,0.04,-0.07,1.0,s
3383.0,3503.0,3233.0,3057.0,3738.0,3582.0,3216.0,3474.0,-0.46,9.66,2.7,-0.08,0.16,-0.09,1.0,s
3380.0,3515.0,3238.0,3065.0,3740.0,3583.0,3216.0,3482.0,-0.68,9.89,2.6,-0.12,0.09,-0.09,1.0,s
3388.0,3527.0,3242.0,3071.0,3729.0,3577.0,3212.0,3473.0,-0.68,9.74,2.78,-0.04,0.16,-0.09,1.0,s
3386.0,3531.0,3243.0,3088.0,3728.0,3575.0,3216.0,3472.0,-0.89,9.63,2.73,-0.07,0.06,-0.09,1.0,s
3392.0,3536.0,3235.0,3088.0,3715.0,3583.0,3215.0,3475.0,-0.7,9.67,2.73,0.1,-0.04,-0.1,1.0,s
3380.0,3531.0,3233.0,3087.0,3713.0,3583.0,3211.0,3475.0,-0.75,9.77,2.53,-0.02,0.02,-0.09,1.0,s
3376.0,3522.0,3231.0,3083.0,3712.0,3583.0,3215.0,3475.0,-0.86,9.76,2.46,0.01,-0.02,-0.07,1.0,s
3402.0,3522.0,3245.0,3091.0,3728.0,3617.0,3218.0,3482.0,-0.79,9.7,2.44,-0.01,-0.0,-0.07,1.0,s
3385.0,3516.0,3238.0,3060.0,3725.0,3613.0,3217.0,3479.0,-0.98,9.75,2.26,-0.03,-0.05,-0.07,1.0,s
3385.0,3508.0,3244.0,3047.0,3726.0,3583.0,3221.0,3482.0,-0.82,9.74,2.51,-0.06,-0.04,-0.02,1.0,s
3389.0,3507.0,3241.0,3071.0,3729.0,3583.0,3223.0,3483.0,-0.87,9.87,2.42,-0.01,-0.01,-0.07,1.0,s
3383.0,3504.0,3248.0,3088.0,3723.0,3568.0,3216.0,3484.0,-0.93,9.62,2.62,-0.05,0.04,-0.0,1.0,s
3379.0,3503.0,3253.0,3215.0,3706.0,3521.0,3210.0,3462.0,-0.49,9.61,3.07,-0.07,0.0,-0.11,1.0,s
3399.0,3515.0,3254.0,3215.0,3718.0,3534.0,3216.0,3475.0,-0.53,9.64,3.0,-0.05,0.01,-0.08,1.0,s
3374.0,3499.0,3247.0,3216.0,3714.0,3536.0,3210.0,3463.0,-0.51,9.65,3.05,-0.05,0.01,-0.06,1.0,s
3391.0,3511.0,3257.0,3216.0,3717.0,3536.0,3213.0,3482.0,-0.5,9.59,3.06,-0.08,0.02,-0.04,1.0,s
3394.0,3510.0,3264.0,3219.0,3725.0,3539.0,3211.0,3473.0,-0.45,9.56,3.06,-0.08,0.01,-0.01,1.0,s
3376.0,3501.0,3262.0,3215.0,3714.0,3539.0,3210.0,3477.0,-0.3,9.66,3.09,-0.08,-0.0,0.0,1.0,s
3386.0,3504.0,3266.0,3216.0,3723.0,3543.0,3211.0,3473.0,-0.4,9.64,3.02,-0.09,0.02,-0.01,1.0,s
3389.0,3522.0,3262.0,3218.0,3724.0,3547.0,3211.0,3475.0,-0.22,9.58,3.23,-0.04,0.01,-0.04,1.0,s
3392.0,3510.0,3248.0,3216.0,3714.0,3533.0,3207.0,3477.0,-0.32,9.55,3.19,-0.06,-0.04,-0.05,1.0,s
3387.0,3493.0,3251.0,3213.0,3725.0,3531.0,3211.0,3478.0,-0.53,9.64,2.99,-0.08,0.04,-0.05,1.0,s
3387.0,3507.0,3248.0,3217.0,3713.0,3536.0,3211.0,3477.0,-0.57,9.64,3.13,-0.07,-0.03,-0.04,1.0,s
3376.0,3494.0,3253.0,3216.0,3725.0,3536.0,3213.0,3478.0,-0.33,9.53,3.29,-0.02,0.01,-0.04,1.0,s
3387.0,3505.0,3255.0,3222.0,3727.0,3549.0,3215.0,3482.0,-0.36,9.6,3.16,-0.04,0.03,-0.04,1.0,s
3383.0,3507.0,3264.0,3225.0,3728.0,3555.0,3216.0,3484.0,-0.34,9.59,3.11,-0.02,0.01,-0.04,1.0,s
3393.0,3507.0,3251.0,3223.0,3728.0,3551.0,3212.0,3478.0,-0.47,9.55,2.96,-0.04,0.01,-0.02,1.0,s
3382.0,3503.0,3247.0,3216.0,3727.0,3544.0,3213.0,3478.0,-0.3,9.62,3.1,-0.04,-0.01,-0.03,1.0,s
3399.0,3507.0,3267.0,3221.0,3729.0,3552.0,3218.0,3483.0,-0.31,9.65,3.06,-0.01,0.03,-0.05,1.0,s
3392.0,3521.0,3250.0,3223.0,3728.0,3541.0,3205.0,3476.0,-0.4,9.6,3.08,-0.06,-0.02,-0.04,1.0,s
3377.0,3514.0,3251.0,3217.0,3721.0,3545.0,3213.0,3479.0,-0.36,9.63,3.15,-0.05,0.03,-0.04,1.0,s
3383.0,3504.0,3255.0,3219.0,3726.0,3552.0,3216.0,3488.0,-0.42,9.6,3.09,-0.04,0.0,-0.05,1.0,s
36.0,3217.0,3504.0,1.29,9.98,1.64,-0.07,0.02,-0.05,1.0,s
3383.0,3501.0,3259.0,3234.0,3735.0,3536.0,3213.0,3488.0,0.99,9.92,1.84,-0.12,-0.01,-0.11,1.0,s
3375.0,3486.0,3258.0,3229.0,3745.0,3536.0,3216.0,3499.0,0.62,9.9,2.12,-0.13,-0.01,-0.11,1.0,s
3388.0,3489.0,3249.0,3233.0,3742.0,3531.0,3219.0,3495.0,0.45,9.84,2.31,-0.08,0.0,-0.08,1.0,s
3393.0,3489.0,3251.0,3230.0,3728.0,3528.0,3211.0,3499.0,0.41,9.84,2.07,-0.06,0.03,-0.02,1.0,s
3399.0,3503.0,3252.0,3231.0,3747.0,3539.0,3216.0,3504.0,0.72,9.87,2.01,-0.06,0.0,-0.0,1.0,s
3377.0,3495.0,3259.0,3231.0,3732.0,3531.0,3216.0,3507.0,0.85,9.87,2.04,-0.07,0.03,-0.01,1.0,s
3386.0,3472.0,3247.0,3229.0,3730.0,3530.0,3216.0,3504.0,0.96,9.93,2.03,-0.1,-0.03,-0.05,1.0,s
3383.0,3489.0,3249.0,3234.0,3737.0,3520.0,3211.0,3503.0,0.98,9.73,2.16,-0.15,-0.01,-0.05,1.0,s
3381.0,3495.0,3249.0,3238.0,3751.0,3523.0,3218.0,3503.0,0.8,9.92,2.05,-0.1,0.05,-0.11,1.0,s
3376.0,3483.0,3255.0,3242.0,3746.0,3521.0,3217.0,3511.0,0.61,9.89,2.16,-0.11,0.03,-0.11,1.0,s
3379.0,3477.0,3251.0,3234.0,3746.0,3523.0,3218.0,3514.0,0.52,9.87,2.24,-0.09,0.01,-0.05,1.0,s
3376.0,3493.0,3248.0,3247.0,3751.0,3521.0,3216.0,3509.0,0.64,9.86,2.28,-0.05,-0.01,-0.05,1.0,s
3375.0,3491.0,3259.0,3254.0,3753.0,3520.0,3219.0,3518.0,0.62,10.03,1.94,-0.1,-0.01,-0.06,1.0,s
3387.0,3475.0,3250.0,3264.0,3754.0,3514.0,3211.0,3514.0,0.7,9.81,2.12,-0.11,0.04,-0.02,1.0,s
3374.0,3471.0,3247.0,3255.0,3750.0,3515.0,3217.0,3517.0,0.68,9.92,2.17,-0.11,0.07,-0.02,1.0,s
3376.0,3490.0,3249.0,3254.0,3755.0,3519.0,3219.0,3517.0,0.63,9.83,2.29,-0.1,0.03,-0.02,1.0,s
3383.0,3478.0,3250.0,3251.0,3757.0,3519.0,3216.0,3518.0,0.6,9.85,2.28,-0.11,0.0,-0.01,1.0,s
3368.0,3481.0,3247.0,3250.0,3745.0,3512.0,3216.0,3515.0,0.7,9.91,2.25,-0.17,-0.05,0.01,1.0,s
3357.0,3481.0,3259.0,3264.0,3759.0,3504.0,3212.0,3510.0,0.78,9.68,2.37,-0.19,-0.04,0.03,1.0,s
3376.0,3463.0,3247.0,3248.0,3760.0,3523.0,3216.0,3514.0,2.42,9.78,1.34,-0.06,-0.01,-0.12,1.0,s
3363.0,3472.0,3243.0,3248.0,3751.0,3515.0,3209.0,3505.0,2.21,9.77,1.24,-0.07,-0.0,-0.08,1.0,s
3369.0,3467.0,3234.0,3254.0,3753.0,3506.0,3216.0,3514.0,2.41,9.68,1.34,-0.05,-0.01,-0.04,1.0,s
3366.0,3469.0,3233.0,3248.0,3757.0,3517.0,3216.0,3521.0,2.5,9.78,1.28,-0.04,0.02,-0.04,1.0,s
3365.0,3467.0,3241.0,3248.0,3759.0,3519.0,3218.0,3521.0,2.55,9.71,1.36,-0.05,-0.0,-0.04,1.0,s
3365.0,3481.0,3253.0,3248.0,3760.0,3527.0,3215.0,3516.0,2.45,9.74,1.29,-0.04,0.02,-0.05,1.0,s
3372.0,3473.0,3241.0,3249.0,3760.0,3527.0,3207.0,3511.0,2.54,9.75,1.3,-0.04,0.0,-0.06,1.0,s
3361.0,3471.0,3243.0,3248.0,3747.0,3520.0,3216.0,3519.0,2.46,9.74,1.24,-0.03,0.02,-0.04,1.0,s
3363.0,3470.0,3241.0,3249.0,3749.0,3523.0,3214.0,3521.0,2.45,9.79,1.13,-0.02,0.03,-0.03,1.0,s
3355.0,3461.0,3248.0,3257.0,3751.0,3522.0,3210.0,3511.0,2.51,9.81,1.04,-0.05,0.0,-0.04,1.0,s
3371.0,3456.0,3245.0,3248.0,3754.0,3520.0,3214.0,3524.0,2.54,9.87,1.13,-0.04,-0.0,-0.04,1.0,s
3363.0,3455.0,3234.0,3251.0,3748.0,3525.0,3213.0,3516.0,2.51,9.74,1.21,-0.06,0.0,-0.04,1.0,s
3367.0,3467.0,3248.0,3249.0,3747.0,3527.0,3215.0,3517.0,2.45,9.79,1.19,-0.06,-0.0,-0.04,1.0,s
3369.0,3457.0,3243.0,3248.0,3754.0,3527.0,3216.0,3520.0,2.49,9.78,1.23,-0.06,-0.01,-0.06,1.0,s
3376.0,3466.0,3249.0,3257.0,3761.0,3526.0,3216.0,3519.0,2.49,9.77,1.24,-0.04,-0.02,-0.05,1.0,s
3361.0,3472.0,3245.0,3251.0,3757.0,3535.0,3216.0,3519.0,2.64,9.83,1.12,0.0,0.0,-0.06,1.0,s
3366.0,3450.0,3242.0,3250.0,3744.0,3523.0,3215.0,3520.0,2.51,9.81,0.98,-0.01,0.01,-0.08,1.0,s
3362.0,3471.0,3247.0,3248.0,3760.0,3535.0,3215.0,3520.0,2.29,9.71,0.96,-0.07,0.05,-0.07,1.0,s
3355.0,3463.0,3238.0,3251.0,3759.0,3533.0,3216.0,3518.0,2.42,9.81,1.07,-0.04,-0.03,-0.06,1.0,s
3378.0,3463.0,3248.0,3257.0,3763.0,3535.0,3216.0,3510.0,2.35,9.78,1.12,-0.08,0.06,-0.04,1.0,s
