hall_1,hall_2,hall_3,flex_t,flex_i,flex_m,flex_r,flex_p,accel_x,accel_y,accel_z,gyro_x,gyro_y,gyro_z,sign
2897.0,2330.0,2031.0,3011.0,3427.0,3775.0,2716.0,2985.0,1.66,7.9,3.8,0.12,0.08,0.04,t
2894.0,2323.0,2015.0,3013.0,3430.0,3780.0,2711.0,2983.0,1.04,8.74,2.96,0.18,-0.07,-0.27,t
2896.0,2331.0,2031.0,3019.0,3430.0,3777.0,2715.0,2983.0,1.13,9.59,3.87,-0.15,-0.25,-0.09,t
2899.0,2339.0,2025.0,3013.0,3427.0,3783.0,2717.0,2981.0,1.18,9.03,3.05,0.19,0.02,-0.06,t
2897.0,2332.0,2017.0,3010.0,3408.0,3778.0,2715.0,2983.0,1.47,9.05,2.06,-0.05,-0.08,0.03,t
2896.0,2326.0,2016.0,3017.0,3376.0,3781.0,2715.0,2979.0,1.3,8.86,3.45,-0.32,0.09,0.03,t
2896.0,2331.0,2022.0,3023.0,3334.0,3779.0,2714.0,2985.0,1.86,8.59,4.83,-0.07,-0.11,0.01,t
2905.0,2327.0,2017.0,3009.0,3312.0,3792.0,2717.0,2982.0,1.24,9.25,2.71,0.07,-0.09,-0.04,t
2897.0,2331.0,2018.0,2999.0,3264.0,3808.0,2719.0,2977.0,1.33,9.09,2.82,-0.15,0.02,0.07,t
2896.0,2334.0,2009.0,2979.0,3199.0,3812.0,2719.0,2967.0,1.57,8.88,3.27,-0.07,-0.05,0.1,t
2896.0,2329.0,2011.0,2983.0,3194.0,3812.0,2718.0,2969.0,2.26,8.59,3.33,0.07,-0.09,0.04,t
2896.0,2323.0,2009.0,2991.0,3206.0,3826.0,2721.0,2971.0,2.02,8.73,3.41,0.01,-0.19,0.09,t
2893.0,2331.0,2015.0,3001.0,3241.0,3822.0,2717.0,2974.0,1.29,9.5,4.33,0.31,-0.85,0.49,t
2891.0,2323.0,2021.0,3014.0,3265.0,3807.0,2704.0,2960.0,3.02,9.3,0.89,0.43,0.15,0.57,t
2896.0,2335.0,1999.0,3017.0,3265.0,3813.0,2701.0,2966.0,4.45,7.63,1.27,-0.05,1.06,0.19,t
2897.0,2339.0,1995.0,3013.0,3271.0,3834.0,2704.0,2979.0,3.48,7.96,4.2,-0.66,-0.06,-0.21,t
2900.0,2332.0,2038.0,2987.0,3265.0,3852.0,2717.0,2978.0,3.21,8.62,4.52,0.4,0.79,-0.62,t
2895.0,2337.0,2073.0,2991.0,3274.0,3861.0,2720.0,2976.0,0.41,9.67,1.79,1.13,1.34,-0.41,t
2897.0,2333.0,2099.0,2990.0,3275.0,3862.0,2728.0,2979.0,0.63,9.1,0.85,0.13,0.16,0.05,t
2896.0,2331.0,2172.0,2985.0,3282.0,3856.0,2723.0,2981.0,1.75,8.73,1.75,-1.05,-2.12,0.3,t
2899.0,2333.0,2183.0,2989.0,3289.0,3855.0,2723.0,2989.0,3.5,8.48,3.17,-1.11,-1.86,-0.03,t
2896.0,2336.0,2183.0,2994.0,3302.0,3833.0,2720.0,2993.0,1.98,9.71,3.93,0.11,-0.49,-0.21,t
2896.0,2329.0,2183.0,2998.0,3312.0,3841.0,2722.0,2990.0,2.31,9.06,1.48,1.57,2.29,-0.36,t
2896.0,2329.0,2192.0,2994.0,3309.0,3853.0,2730.0,2987.0,1.29,8.78,0.28,1.02,2.6,-0.55,t
2896.0,2327.0,2190.0,2986.0,3311.0,3856.0,2731.0,2980.0,0.23,9.26,0.68,0.32,1.31,-0.37,t
2895.0,2329.0,2190.0,2990.0,3310.0,3856.0,2731.0,2986.0,-0.06,9.81,0.31,-0.26,-0.69,0.08,t
2896.0,2334.0,2198.0,2995.0,3311.0,3842.0,2731.0,2983.0,0.51,9.71,1.33,-0.7,-1.39,0.28,t
2893.0,2330.0,2192.0,2992.0,3313.0,3838.0,2726.0,2989.0,1.09,9.49,1.3,-0.52,-1.27,0.39,t
2895.0,2330.0,2192.0,3000.0,3323.0,3821.0,2718.0,2991.0,2.15,9.41,1.73,-0.72,-1.14,0.1,t
2895.0,2331.0,2206.0,2993.0,3321.0,3802.0,2719.0,3007.0,1.93,8.79,2.57,-0.75,-0.62,-0.57,t
2896.0,2337.0,2211.0,2978.0,3317.0,3776.0,2718.0,3015.0,0.41,8.48,3.77,-0.87,-0.42,-0.46,t
2900.0,2336.0,2218.0,2979.0,3312.0,3774.0,2711.0,3025.0,0.68,8.61,4.22,-0.65,-0.07,-0.25,t
2897.0,2330.0,2219.0,2974.0,3312.0,3754.0,2705.0,3042.0,0.64,8.38,4.75,-0.58,-0.2,-0.32,t
2896.0,2338.0,2229.0,2961.0,3312.0,3744.0,2707.0,3053.0,0.71,7.94,5.15,-0.38,-0.53,-0.38,t
2901.0,2335.0,2257.0,2966.0,3315.0,3714.0,2710.0,3056.0,0.87,8.05,5.16,0.09,-0.89,-0.53,t
2894.0,2341.0,2270.0,2981.0,3312.0,3689.0,2702.0,3057.0,0.69,7.67,5.0,0.29,-1.09,-0.72,t
2900.0,2333.0,2273.0,2995.0,3323.0,3717.0,2697.0,3043.0,0.06,8.44,4.58,1.2,-0.22,0.21,t
2899.0,2329.0,2256.0,2988.0,3330.0,3730.0,2692.0,2992.0,1.3,9.48,2.75,0.91,0.37,0.41,t
2896.0,2326.0,2270.0,2992.0,3342.0,3739.0,2698.0,2987.0,1.24,9.31,2.08,0.62,1.22,0.36,t
2894.0,2326.0,2269.0,2993.0,3347.0,3753.0,2703.0,3003.0,0.47,9.28,1.82,0.18,2.0,-0.17,t
2898.0,2325.0,2266.0,2987.0,3357.0,3772.0,2720.0,3010.0,0.05,9.54,1.77,-0.14,1.97,-0.12,t
2900.0,2330.0,2265.0,2960.0,3354.0,3787.0,2727.0,3015.0,-0.33,9.09,2.3,-0.96,1.31,0.0,t
2896.0,2330.0,2263.0,2959.0,3350.0,3788.0,2722.0,3024.0,-0.55,8.61,3.72,-0.87,-0.14,-0.32,t
2898.0,2337.0,2279.0,2960.0,3337.0,3792.0,2727.0,3039.0,-0.35,8.6,4.28,-1.05,-1.44,-0.53,t
2896.0,2335.0,2299.0,2960.0,3341.0,3758.0,2722.0,3050.0,1.07,7.58,5.35,-1.2,-1.92,-0.89,t
2895.0,2332.0,2287.0,2946.0,3344.0,3734.0,2709.0,3050.0,-0.33,6.85,6.79,-0.35,-0.99,-0.64,t
2896.0,2340.0,2318.0,2970.0,3361.0,3745.0,2734.0,3061.0,0.13,7.45,6.17,1.15,-0.43,0.14,t
2899.0,2323.0,2291.0,2977.0,3370.0,3755.0,2717.0,3024.0,0.25,8.15,4.45,0.88,0.52,0.41,t
2896.0,2323.0,2290.0,2981.0,3389.0,3758.0,2721.0,2995.0,0.45,8.2,3.9,0.72,0.44,0.66,t
2896.0,2322.0,2297.0,2977.0,3378.0,3789.0,2730.0,2975.0,1.55,9.17,2.68,0.56,1.05,0.53,t
2896.0,2323.0,2304.0,2965.0,3375.0,3805.0,2743.0,2969.0,1.09,9.01,2.86,-0.36,1.5,0.17,t
2896.0,2326.0,2306.0,2951.0,3361.0,3823.0,2740.0,2970.0,0.82,8.2,4.12,-0.89,0.95,-0.27,t
2897.0,2295.0,2279.0,2939.0,3344.0,3777.0,2711.0,2962.0,0.75,7.77,5.18,-1.05,-0.22,-0.49,t
2898.0,2293.0,2288.0,2944.0,3344.0,3751.0,2703.0,2993.0,0.74,7.31,5.52,-1.16,-0.89,-1.09,t
2898.0,2293.0,2288.0,2947.0,3343.0,3731.0,2699.0,3005.0,0.04,6.35,6.94,-0.78,-0.89,-0.94,t
2896.0,2290.0,2289.0,2957.0,3362.0,3713.0,2693.0,3008.0,-0.17,6.29,7.5,0.67,-1.08,-0.11,t
2899.0,2315.0,2331.0,2968.0,3390.0,3758.0,2722.0,3008.0,0.86,7.43,5.94,1.47,0.05,0.42,t
2900.0,2323.0,2330.0,2983.0,3397.0,3754.0,2711.0,2969.0,2.21,7.84,4.9,0.69,-0.62,0.75,t
2900.0,2322.0,2323.0,2974.0,3394.0,3780.0,2721.0,2960.0,3.37,8.43,4.07,0.63,0.44,0.42,t
2899.0,2320.0,2333.0,2979.0,3397.0,3793.0,2735.0,2972.0,2.22,9.05,3.14,0.63,2.07,-0.11,t
2898.0,2322.0,2335.0,2986.0,3405.0,3808.0,2750.0,2981.0,1.49,8.86,3.25,0.06,1.34,-0.14,t
2893.0,2322.0,2332.0,2976.0,3397.0,3814.0,2749.0,2992.0,0.63,8.52,3.67,-0.64,0.8,-0.21,t
2897.0,2313.0,2321.0,2966.0,3397.0,3787.0,2733.0,3003.0,0.51,7.94,5.01,-1.15,-0.42,-0.48,t
2906.0,2288.0,2298.0,2962.0,3386.0,3733.0,2695.0,3015.0,0.58,7.04,6.39,-0.96,-0.71,-0.77,t
2895.0,2282.0,2301.0,2965.0,3383.0,3695.0,2682.0,3024.0,0.28,6.46,6.95,-0.44,-0.81,-1.01,t
2896.0,2318.0,2335.0,2957.0,3394.0,3694.0,2704.0,3056.0,-0.61,6.61,6.82,0.45,-1.18,-0.88,t
2902.0,2320.0,2351.0,2973.0,3403.0,3717.0,2703.0,3026.0,-0.37,7.44,5.9,1.63,-0.12,0.32,t
2896.0,2310.0,2339.0,2964.0,3412.0,3749.0,2698.0,2960.0,0.26,8.37,3.8,1.64,-0.27,1.39,t
2912.0,2320.0,2326.0,2967.0,3412.0,3797.0,2713.0,2928.0,4.63,9.69,1.81,1.18,-0.11,1.42,t
2902.0,2320.0,2326.0,2983.0,3413.0,3814.0,2732.0,2938.0,4.68,9.07,1.55,-0.02,-0.09,0.03,t
2910.0,2320.0,2333.0,2993.0,3428.0,3824.0,2736.0,2963.0,3.4,9.43,1.89,-0.52,0.37,-0.95,t
2901.0,2320.0,2330.0,2985.0,3435.0,3814.0,2730.0,2997.0,0.85,8.37,3.61,-1.02,-0.19,-0.45,t
2900.0,2329.0,2339.0,2974.0,3434.0,3797.0,2734.0,3013.0,-0.04,7.97,4.16,-0.67,0.59,-0.48,t
2907.0,2320.0,2352.0,2973.0,3423.0,3787.0,2731.0,3024.0,0.66,8.13,4.8,-0.65,0.26,-0.23,t
2906.0,2323.0,2340.0,2967.0,3414.0,3775.0,2725.0,3039.0,0.66,7.93,5.07,-0.33,0.05,-0.27,t
2901.0,2321.0,2352.0,2973.0,3414.0,3763.0,2734.0,3053.0,-0.15,7.82,5.37,-0.05,0.05,-0.34,t
2905.0,2320.0,2351.0,2982.0,3418.0,3798.0,2741.0,3039.0,-0.56,7.79,5.14,1.21,-0.5,0.55,t
2902.0,2318.0,2342.0,2971.0,3397.0,3797.0,2721.0,2981.0,0.94,9.07,2.91,1.28,-0.49,1.37,t
2903.0,2318.0,2320.0,2970.0,3396.0,3823.0,2726.0,2957.0,4.52,8.91,1.22,0.06,-1.11,0.95,t
2902.0,2312.0,2307.0,2974.0,3403.0,3824.0,2727.0,2960.0,5.37,9.07,1.88,-0.35,-0.2,0.0,t
2903.0,2319.0,2303.0,2990.0,3412.0,3845.0,2728.0,2978.0,4.64,9.29,2.31,-0.69,0.71,-0.66,t
2904.0,2326.0,2305.0,2965.0,3408.0,3850.0,2734.0,3006.0,3.24,8.57,3.65,-0.87,0.84,-1.21,t
2899.0,2328.0,2326.0,2963.0,3398.0,3846.0,2731.0,3027.0,-0.83,7.19,5.35,-0.83,0.41,-0.54,t
2907.0,2319.0,2325.0,2971.0,3408.0,3856.0,2742.0,3008.0,0.39,7.9,5.62,1.42,-0.49,0.85,t
2899.0,2304.0,2305.0,2982.0,3408.0,3833.0,2725.0,2953.0,3.13,8.62,2.34,1.17,-0.12,0.93,t
2907.0,2319.0,2315.0,2995.0,3413.0,3819.0,2725.0,2935.0,4.16,8.39,1.89,0.24,-0.21,0.39,t
2907.0,2321.0,2311.0,3047.0,3417.0,3817.0,2725.0,2946.0,3.88,7.96,3.11,-0.14,-0.06,-0.12,t
2903.0,2320.0,2311.0,3082.0,3376.0,3822.0,2723.0,2951.0,2.8,8.43,2.43,0.2,0.76,-0.43,t
2903.0,2321.0,2314.0,3067.0,3300.0,3842.0,2731.0,2960.0,1.76,8.39,2.23,-0.39,0.52,-0.41,t
2903.0,2331.0,2318.0,3067.0,3253.0,3872.0,2741.0,2967.0,2.11,8.63,3.75,-0.12,0.04,-0.16,t
2905.0,2320.0,2307.0,3041.0,3191.0,3886.0,2743.0,2970.0,2.38,8.77,3.23,0.03,-0.04,-0.15,t
2904.0,2326.0,2325.0,3027.0,3136.0,3883.0,2747.0,2966.0,1.98,8.97,2.78,0.09,-0.1,-0.2,t
2905.0,2321.0,2320.0,3009.0,3091.0,3891.0,2750.0,2962.0,1.93,9.02,2.82,0.03,0.01,-0.06,t
2903.0,2325.0,2321.0,2998.0,3059.0,3915.0,2749.0,2951.0,2.24,9.01,2.97,-0.0,0.01,-0.06,t
2896.0,2336.0,2339.0,2991.0,3043.0,3938.0,2751.0,2947.0,1.96,9.03,2.84,0.01,0.03,-0.03,t
2899.0,2331.0,2327.0,3042.0,3105.0,3926.0,2743.0,2960.0,1.93,9.0,2.89,-0.02,-0.09,0.1,t
2902.0,2323.0,2329.0,3053.0,3199.0,3878.0,2736.0,2965.0,1.7,8.8,2.83,-0.08,0.03,0.06,t
2905.0,2320.0,2325.0,3051.0,3257.0,3835.0,2736.0,2973.0,1.96,8.83,2.93,-0.1,0.01,0.08,t
2903.0,2325.0,2321.0,3015.0,3261.0,3856.0,2738.0,2970.0,2.12,8.71,3.06,-0.03,0.01,0.01,t
2903.0,2322.0,2324.0,2948.0,3223.0,3892.0,2750.0,2971.0,2.12,8.74,2.97,-0.13,-0.06,-0.03,t
2898.0,2320.0,2330.0,2859.0,3200.0,3920.0,2753.0,2959.0,2.04,8.8,2.94,-0.03,0.01,-0.02,t
2896.0,2318.0,2333.0,2746.0,3190.0,3952.0,2752.0,2957.0,2.36,8.79,3.08,-0.09,-0.03,0.02,t
2898.0,2309.0,2335.0,2654.0,3184.0,3912.0,2757.0,2959.0,2.57,8.77,2.96,-0.07,0.06,-0.08,t
2900.0,2294.0,2327.0,2582.0,3179.0,3935.0,2767.0,2957.0,2.5,8.76,3.2,-0.04,0.0,-0.04,t
2902.0,2283.0,2327.0,2598.0,3187.0,3970.0,2769.0,2945.0,2.37,8.72,3.03,-0.03,-0.02,0.0,t
2901.0,2283.0,2326.0,2782.0,3229.0,3867.0,2752.0,2958.0,2.23,8.82,3.16,-0.08,-0.08,0.08,t
2899.0,2291.0,2320.0,2948.0,3264.0,3802.0,2718.0,2962.0,2.42,8.87,3.11,-0.04,-0.03,0.1,t
2909.0,2291.0,2326.0,2960.0,3268.0,3825.0,2717.0,2966.0,2.62,8.6,3.22,-0.05,-0.04,0.01,t
2896.0,2291.0,2338.0,2775.0,3229.0,3888.0,2735.0,2961.0,2.85,8.69,3.44,-0.1,-0.09,-0.07,t
2896.0,2284.0,2331.0,2608.0,3207.0,3926.0,2753.0,2944.0,2.45,8.64,3.29,-0.08,-0.03,-0.09,t
2897.0,2240.0,2337.0,2559.0,3192.0,3959.0,2760.0,2926.0,2.77,8.72,3.64,0.08,-0.68,-0.16,t
2895.0,2256.0,2342.0,2745.0,3223.0,3906.0,2736.0,2922.0,2.43,9.08,2.76,0.49,0.44,-0.1,t
2903.0,2246.0,2333.0,2838.0,3244.0,3886.0,2731.0,2963.0,1.9,9.18,1.83,0.35,1.1,0.17,t
2901.0,2256.0,2324.0,2861.0,3255.0,3862.0,2737.0,2975.0,2.62,8.68,2.56,-0.25,0.07,0.39,t
2898.0,2253.0,2319.0,2864.0,3255.0,3885.0,2742.0,2987.0,3.0,8.39,2.99,-0.36,-0.06,0.08,t
2905.0,2250.0,2322.0,2865.0,3259.0,3903.0,2747.0,2983.0,3.6,8.13,4.15,-0.62,-0.55,-0.22,t
2901.0,2256.0,2324.0,2881.0,3253.0,3901.0,2742.0,2987.0,1.97,9.68,3.91,0.39,-0.46,-0.58,t
2896.0,2250.0,2321.0,2896.0,3255.0,3894.0,2747.0,2989.0,1.43,9.66,0.91,1.23,1.89,-0.35,t
2903.0,2240.0,2323.0,2896.0,3263.0,3911.0,2747.0,2983.0,0.94,8.72,1.24,0.28,1.97,0.03,t
2900.0,2246.0,2320.0,2896.0,3264.0,3915.0,2750.0,2980.0,0.44,8.89,1.54,-0.18,1.34,-0.18,t
2901.0,2245.0,2329.0,2891.0,3259.0,3909.0,2757.0,2986.0,0.36,8.88,2.92,-0.58,-0.25,-0.07,t
2907.0,2249.0,2321.0,2896.0,3254.0,3915.0,2757.0,2989.0,0.76,9.27,2.7,-0.76,-1.5,-0.0,t
2898.0,2239.0,2320.0,2896.0,3267.0,3917.0,2752.0,2992.0,1.1,9.11,3.49,-0.62,-1.4,-0.06,t
2899.0,2251.0,2325.0,2899.0,3263.0,3888.0,2755.0,2994.0,1.51,8.92,3.83,-0.66,-1.68,0.12,t
2896.0,2239.0,2322.0,2898.0,3265.0,3885.0,2751.0,2987.0,3.41,7.71,4.14,-0.69,-1.84,0.2,t
2896.0,2235.0,2320.0,2907.0,3269.0,3867.0,2753.0,2971.0,4.23,7.75,4.44,-0.52,-1.41,-0.2,t
2898.0,2242.0,2319.0,2912.0,3280.0,3869.0,2753.0,2962.0,3.47,8.33,4.58,0.4,-0.14,-0.27,t
2896.0,2239.0,2321.0,2924.0,3278.0,3862.0,2751.0,2966.0,4.41,8.75,2.49,0.89,1.18,-0.52,t
2893.0,2239.0,2320.0,2928.0,3277.0,3863.0,2752.0,2979.0,1.03,8.7,2.59,0.54,2.24,-0.13,t
2903.0,2240.0,2320.0,2922.0,3280.0,3868.0,2757.0,2979.0,1.89,8.9,2.84,-0.05,0.57,-0.05,t
2896.0,2239.0,2320.0,2913.0,3282.0,3866.0,2751.0,2987.0,1.75,8.46,2.9,-0.51,0.29,-0.56,t
2896.0,2244.0,2331.0,2899.0,3270.0,3839.0,2736.0,3003.0,0.9,8.51,3.7,-1.08,0.27,-0.83,t
2902.0,2249.0,2323.0,2896.0,3264.0,3823.0,2723.0,3029.0,0.29,8.2,5.3,-0.98,-0.12,-0.41,t
2902.0,2250.0,2333.0,2898.0,3262.0,3793.0,2721.0,3044.0,-0.09,7.6,6.13,-0.31,-0.05,-0.31,t
2896.0,2249.0,2325.0,2901.0,3269.0,3792.0,2734.0,3038.0,0.06,7.65,5.85,0.93,-0.43,0.2,t
2898.0,2238.0,2327.0,2899.0,3281.0,3820.0,2736.0,2988.0,-0.21,8.19,4.34,1.28,-0.82,0.81,t
2896.0,2231.0,2320.0,2891.0,3290.0,3831.0,2727.0,2935.0,0.96,8.9,2.95,1.03,-0.46,0.74,t
2903.0,2229.0,2325.0,2893.0,3285.0,3840.0,2733.0,2912.0,2.6,9.18,2.04,0.73,-0.53,0.57,t
2897.0,2229.0,2314.0,2906.0,3297.0,3859.0,2736.0,2905.0,3.22,9.6,1.45,0.22,-0.01,0.35,t
2898.0,2237.0,2317.0,2906.0,3298.0,3861.0,2742.0,2943.0,3.57,9.73,1.14,-1.36,1.59,-0.21,t
2896.0,2242.0,2326.0,2885.0,3301.0,3869.0,2750.0,2973.0,1.79,8.42,4.62,-1.15,0.31,-0.37,t
2889.0,2238.0,2335.0,2893.0,3298.0,3858.0,2739.0,2990.0,1.09,7.9,4.99,-0.58,0.29,-0.66,t
2896.0,2247.0,2353.0,2896.0,3298.0,3856.0,2752.0,3001.0,1.83,8.29,4.93,-0.48,-1.57,-0.19,t
2897.0,2254.0,2356.0,2899.0,3295.0,3840.0,2755.0,3011.0,2.42,7.72,5.06,-0.71,-1.99,-0.16,t
2901.0,2250.0,2361.0,2907.0,3303.0,3835.0,2757.0,3006.0,2.67,7.05,6.2,-0.06,-1.05,0.11,t
2898.0,2241.0,2351.0,2912.0,3301.0,3836.0,2756.0,2974.0,3.68,7.74,5.48,0.81,-0.5,0.24,t
2897.0,2239.0,2352.0,2890.0,3307.0,3861.0,2757.0,2963.0,3.96,8.2,3.79,1.45,1.94,-0.25,t
2895.0,2243.0,2356.0,2897.0,3308.0,3884.0,2765.0,2962.0,1.66,8.94,2.39,1.14,2.78,-0.35,t
2895.0,2243.0,2354.0,2896.0,3313.0,3901.0,2768.0,2963.0,0.88,8.96,2.56,0.44,2.12,-0.22,t
2896.0,2247.0,2351.0,2881.0,3303.0,3906.0,2767.0,2960.0,-0.54,9.44,2.01,0.28,2.38,-0.17,t
2893.0,2251.0,2349.0,2877.0,3307.0,3915.0,2771.0,2960.0,-1.47,9.28,2.26,0.22,1.33,-0.06,t
2896.0,2231.0,2351.0,2879.0,3299.0,3905.0,2769.0,2963.0,-1.61,9.6,0.75,-0.05,-1.51,0.25,t
2898.0,2234.0,2347.0,2894.0,3299.0,3903.0,2768.0,2971.0,0.3,9.31,2.14,-0.54,-2.08,0.28,t
2898.0,2242.0,2343.0,2903.0,3307.0,3889.0,2768.0,2977.0,0.39,9.15,2.9,-0.16,-1.11,0.25,t
2894.0,2231.0,2347.0,2909.0,3309.0,3902.0,2767.0,2965.0,1.11,9.24,2.52,-0.16,-1.16,0.43,t
2897.0,2231.0,2343.0,2913.0,3310.0,3879.0,2759.0,2960.0,1.92,8.8,1.98,-0.44,-2.1,0.56,t
2889.0,2238.0,2336.0,2917.0,3315.0,3827.0,2737.0,2957.0,6.28,8.32,2.61,-0.78,-2.37,-0.22,t
2898.0,2246.0,2331.0,2940.0,3317.0,3797.0,2736.0,2974.0,3.28,8.89,2.94,-0.2,0.24,-0.94,t
2896.0,2233.0,2337.0,2949.0,3312.0,3795.0,2735.0,2992.0,2.61,9.04,2.86,-0.41,0.11,-0.25,t
2896.0,2242.0,2339.0,2942.0,3287.0,3815.0,2736.0,2987.0,1.77,8.33,3.46,-0.17,-0.07,0.4,t
2896.0,2227.0,2351.0,2828.0,3214.0,3875.0,2753.0,2964.0,2.89,8.68,3.13,-0.0,0.06,0.21,t
2901.0,2210.0,2359.0,2708.0,3172.0,3934.0,2770.0,2949.0,2.72,8.45,3.05,-0.03,0.08,0.0,t
2897.0,2160.0,2358.0,2622.0,3152.0,3984.0,2775.0,2943.0,2.65,8.56,3.37,-0.01,0.13,0.01,t
2894.0,2091.0,2372.0,2559.0,3140.0,3997.0,2782.0,2945.0,2.58,8.46,3.14,-0.0,0.12,-0.02,t
2895.0,2083.0,2373.0,2683.0,3157.0,4011.0,2779.0,2948.0,2.85,8.5,3.24,0.07,-0.06,-0.0,t
2896.0,2106.0,2379.0,2928.0,3211.0,3824.0,2718.0,2958.0,2.74,8.65,2.98,-0.01,0.02,0.17,t
2895.0,2159.0,2375.0,3140.0,3243.0,3734.0,2683.0,2961.0,3.15,8.52,2.89,-0.01,-0.01,0.16,t
2905.0,2186.0,2381.0,3315.0,3252.0,3699.0,2670.0,2960.0,3.28,8.28,3.12,-0.04,0.04,0.1,t
2891.0,2192.0,2380.0,3399.0,3257.0,3694.0,2670.0,2959.0,3.28,8.22,3.39,-0.08,-0.06,0.07,t
2906.0,2195.0,2384.0,3384.0,3218.0,3696.0,2672.0,2960.0,3.54,8.49,2.99,0.02,-0.1,-0.01,t
2899.0,2192.0,2379.0,3200.0,3155.0,3739.0,2687.0,2960.0,3.1,8.54,3.06,-0.12,0.01,-0.08,t
2896.0,2196.0,2387.0,3120.0,3127.0,3809.0,2704.0,2957.0,2.94,8.44,3.18,-0.08,0.04,-0.07,t
2898.0,2191.0,2384.0,3037.0,3103.0,3873.0,2727.0,2951.0,3.04,8.41,3.29,-0.12,0.04,-0.06,t
2899.0,2181.0,2391.0,2939.0,3088.0,3930.0,2742.0,2946.0,2.88,8.47,3.35,-0.05,0.03,-0.06,t
2896.0,2177.0,2386.0,2911.0,3056.0,3979.0,2750.0,2939.0,3.06,8.41,3.13,-0.04,-0.02,-0.06,t
2896.0,2174.0,2390.0,2933.0,3037.0,3992.0,2755.0,2943.0,2.64,8.36,3.37,-0.0,-0.04,-0.01,t
2896.0,2159.0,2384.0,2976.0,3088.0,3959.0,2751.0,2951.0,2.82,8.46,3.29,0.0,-0.04,0.01,t
2897.0,2160.0,2385.0,2984.0,3253.0,3895.0,2743.0,2958.0,2.64,8.31,3.18,-0.03,-0.04,0.0,t
2899.0,2161.0,2387.0,2985.0,3374.0,3895.0,2739.0,2960.0,2.73,8.34,3.21,-0.07,0.01,-0.04,t
2897.0,2165.0,2389.0,2993.0,3411.0,3882.0,2739.0,2961.0,2.89,8.49,3.3,-0.03,-0.05,-0.0,t
2897.0,2164.0,2385.0,3038.0,3258.0,3856.0,2738.0,2960.0,3.02,8.54,3.35,-0.03,-0.04,0.07,t
2901.0,2171.0,2383.0,3071.0,3123.0,3871.0,2743.0,2960.0,3.11,8.49,3.18,-0.05,-0.0,-0.03,t
2896.0,2167.0,2387.0,3063.0,3092.0,3894.0,2739.0,2953.0,2.85,8.47,3.24,-0.09,0.02,-0.02,t
2896.0,2160.0,2390.0,2969.0,3059.0,3974.0,2750.0,2929.0,2.98,8.26,3.39,-0.14,0.06,0.02,t
2896.0,2143.0,2387.0,2868.0,3058.0,3963.0,2769.0,2930.0,3.27,8.41,3.44,-0.05,-0.03,0.03,t
2896.0,2122.0,2400.0,2791.0,3083.0,3974.0,2769.0,2931.0,3.06,8.54,3.29,-0.06,0.0,0.01,t
2898.0,2101.0,2395.0,2762.0,3091.0,3975.0,2775.0,2935.0,2.95,8.43,3.45,0.0,0.03,0.02,t
2895.0,2106.0,2391.0,2877.0,3123.0,3927.0,2764.0,2943.0,2.98,8.35,3.3,-0.0,-0.1,0.07,t
2899.0,2118.0,2387.0,3013.0,3149.0,3807.0,2735.0,2947.0,3.34,8.53,3.2,-0.04,-0.03,0.04,t
2896.0,2121.0,2389.0,3071.0,3174.0,3791.0,2730.0,2957.0,3.35,8.43,3.36,-0.05,0.01,0.06,t
2895.0,2128.0,2389.0,3114.0,3181.0,3792.0,2725.0,2957.0,3.46,8.37,3.5,-0.05,-0.01,0.0,t
2898.0,2129.0,2391.0,3116.0,3181.0,3815.0,2720.0,2955.0,3.31,8.35,3.4,-0.05,-0.04,-0.02,t
2896.0,2126.0,2391.0,3039.0,3165.0,3861.0,2733.0,2947.0,3.13,8.37,3.42,-0.05,0.04,0.02,t
2898.0,2131.0,2395.0,2957.0,3150.0,3893.0,2739.0,2937.0,3.14,8.3,3.44,-0.02,0.08,-0.0,t
2896.0,2137.0,2393.0,2999.0,3163.0,3862.0,2736.0,2941.0,3.29,8.4,3.5,0.02,-0.08,0.03,t
2899.0,2128.0,2393.0,3100.0,3175.0,3801.0,2714.0,2949.0,3.26,8.31,3.46,-0.03,-0.08,0.03,t
2899.0,2160.0,2387.0,3248.0,3191.0,3755.0,2702.0,2947.0,3.33,8.36,3.36,0.02,0.03,0.03,t
