hall_1,hall_2,hall_3,flex_t,flex_i,flex_m,flex_r,flex_p,accel_x,accel_y,accel_z,gyro_x,gyro_y,gyro_z,hand,sign
3053.0,3131.0,3062.0,3691.0,3089.0,2818.0,2861.0,2357.0,-2.32,9.41,5.71,-0.02,0.03,0.06,0.0,t
3055.0,3127.0,3065.0,3711.0,3090.0,2821.0,2859.0,2363.0,-2.03,9.48,5.76,0.01,0.04,-0.01,0.0,t
3046.0,3120.0,3063.0,3723.0,3088.0,2810.0,2855.0,2363.0,-2.11,9.48,5.77,0.01,0.0,-0.08,0.0,t
3039.0,3123.0,3086.0,3728.0,3103.0,2808.0,2859.0,2357.0,-1.95,9.48,5.69,0.02,-0.03,-0.12,0.0,t
3052.0,3127.0,3059.0,3719.0,3094.0,2802.0,2855.0,2358.0,-2.19,9.51,5.76,-0.02,-0.06,-0.12,0.0,t
3047.0,3136.0,3071.0,3738.0,3105.0,2802.0,2863.0,2357.0,-2.11,9.51,5.74,-0.03,0.02,-0.07,0.0,t
3056.0,3120.0,3068.0,3741.0,3107.0,2807.0,2863.0,2363.0,-2.11,9.53,5.83,-0.04,0.02,-0.04,0.0,t
3047.0,3119.0,3056.0,3728.0,3102.0,2789.0,2861.0,2365.0,-1.69,9.5,5.71,-0.06,0.0,-0.03,0.0,t
3055.0,3139.0,3071.0,3747.0,3107.0,2800.0,2867.0,2370.0,-1.75,9.53,5.85,-0.07,-0.06,-0.08,0.0,t
3050.0,3129.0,3064.0,3738.0,3113.0,2798.0,2859.0,2365.0,-1.69,9.56,6.01,-0.15,-0.09,-0.1,0.0,t
3060.0,3146.0,3067.0,3743.0,3110.0,2806.0,2871.0,2372.0,-1.46,9.48,6.25,-0.2,-0.06,-0.09,0.0,t
3052.0,3131.0,3059.0,3756.0,3107.0,2795.0,2861.0,2374.0,-1.67,9.42,6.58,-0.19,-0.11,-0.09,0.0,t
3056.0,3138.0,3057.0,3770.0,3120.0,2805.0,2865.0,2377.0,-1.38,9.42,6.81,-0.2,-0.05,-0.07,0.0,t
3055.0,3133.0,3059.0,3743.0,3109.0,2800.0,2866.0,2381.0,-1.25,9.36,7.1,-0.16,-0.08,-0.1,0.0,t
3054.0,3143.0,3071.0,3755.0,3116.0,2800.0,2866.0,2381.0,-1.18,9.27,7.35,-0.11,-0.14,-0.13,0.0,t
3049.0,3126.0,3058.0,3758.0,3115.0,2800.0,2862.0,2375.0,-1.06,9.31,7.42,-0.1,-0.04,-0.12,0.0,t
3047.0,3131.0,3062.0,3771.0,3123.0,2800.0,2866.0,2378.0,-1.01,9.3,7.33,-0.02,0.01,-0.13,0.0,t
3055.0,3142.0,3058.0,3760.0,3120.0,2789.0,2864.0,2382.0,-1.15,9.26,7.42,-0.01,-0.08,-0.2,0.0,t
3056.0,3137.0,3079.0,3756.0,3117.0,2795.0,2864.0,2384.0,-1.38,9.27,7.41,-0.02,-0.04,-0.15,0.0,t
3056.0,3136.0,3088.0,3774.0,3122.0,2800.0,2876.0,2391.0,-1.27,9.27,7.44,-0.01,0.05,-0.13,0.0,t
3039.0,3120.0,3063.0,3773.0,3133.0,2807.0,2874.0,2384.0,-0.97,9.28,7.5,0.02,0.02,-0.04,0.0,t
3049.0,3136.0,3058.0,3778.0,3136.0,2804.0,2881.0,2385.0,-0.78,9.29,7.52,0.01,0.05,-0.08,0.0,t
3062.0,3136.0,3069.0,3772.0,3133.0,2800.0,2878.0,2391.0,-0.75,9.27,7.53,-0.02,-0.06,-0.11,0.0,t
3058.0,3136.0,3071.0,3770.0,3147.0,2806.0,2879.0,2395.0,-0.82,9.28,7.56,0.01,-0.01,-0.11,0.0,t
3052.0,3136.0,3084.0,3781.0,3149.0,2805.0,2880.0,2395.0,-0.75,9.26,7.56,-0.01,-0.04,-0.08,0.0,t
3043.0,3137.0,3056.0,3765.0,3134.0,2802.0,2879.0,2393.0,-0.73,9.26,7.6,-0.05,-0.05,-0.05,0.0,t
3056.0,3146.0,3071.0,3787.0,3143.0,2800.0,2880.0,2399.0,-0.4,9.27,7.64,-0.05,-0.01,-0.05,0.0,t
3048.0,3131.0,3063.0,3791.0,3137.0,2800.0,2876.0,2396.0,-0.34,9.19,7.85,-0.05,-0.03,-0.09,0.0,t
3054.0,3131.0,3067.0,3795.0,3149.0,2802.0,2880.0,2395.0,-0.36,9.19,7.85,-0.02,-0.03,-0.1,0.0,t
3055.0,3136.0,3069.0,3782.0,3140.0,2799.0,2878.0,2397.0,-0.31,9.24,7.76,-0.03,0.01,-0.12,0.0,t
3055.0,3137.0,3069.0,3793.0,3147.0,2802.0,2883.0,2401.0,-0.17,9.22,7.82,-0.03,-0.01,-0.13,0.0,t
3057.0,3126.0,3067.0,3786.0,3143.0,2798.0,2871.0,2399.0,-0.22,9.19,7.94,-0.01,0.06,-0.14,0.0,t
3067.0,3141.0,3071.0,3789.0,3151.0,2806.0,2892.0,2410.0,-0.22,9.22,7.88,0.01,-0.02,-0.16,0.0,t
3051.0,3123.0,3057.0,3790.0,3149.0,2800.0,2881.0,2401.0,-0.33,9.2,7.86,-0.01,-0.05,-0.14,0.0,t
3055.0,3129.0,3062.0,3799.0,3152.0,2800.0,2887.0,2406.0,-0.32,9.19,8.01,-0.01,0.02,-0.13,0.0,t
3043.0,3126.0,3056.0,3795.0,3145.0,2797.0,2884.0,2413.0,-0.21,9.22,7.92,-0.01,0.05,-0.11,0.0,t
3053.0,3126.0,3063.0,3795.0,3145.0,2797.0,2879.0,2404.0,-0.14,9.18,7.91,-0.0,0.02,-0.13,0.0,t
3045.0,3139.0,3071.0,3808.0,3147.0,2799.0,2887.0,2410.0,-0.06,9.17,7.97,0.02,-0.03,-0.16,0.0,t
3051.0,3123.0,3061.0,3798.0,3141.0,2797.0,2882.0,2402.0,-0.18,9.16,7.93,0.01,-0.07,-0.16,0.0,t
3056.0,3133.0,3071.0,3815.0,3155.0,2800.0,2891.0,2415.0,-0.19,9.17,7.92,0.01,0.01,-0.14,0.0,t
3056.0,3135.0,3057.0,3806.0,3145.0,2800.0,2882.0,2401.0,-0.1,9.13,8.0,-0.0,-0.03,-0.22,0.0,t
3056.0,3136.0,3071.0,3824.0,3159.0,2800.0,2896.0,2413.0,-0.16,9.16,8.01,0.02,-0.03,-0.19,0.0,t
3043.0,3132.0,3056.0,3806.0,3151.0,2800.0,2887.0,2413.0,-0.09,9.2,7.99,0.0,-0.01,-0.15,0.0,t
3050.0,3127.0,3057.0,3822.0,3159.0,2810.0,2887.0,2414.0,-0.05,9.13,7.97,0.02,-0.03,-0.19,0.0,t
3049.0,3129.0,3063.0,3825.0,3159.0,2800.0,2891.0,2406.0,-0.17,9.16,7.98,0.01,-0.04,-0.18,0.0,t
3043.0,3125.0,3070.0,3812.0,3152.0,2799.0,2886.0,2410.0,-0.23,9.14,8.08,-0.0,-0.02,-0.15,0.0,t
3056.0,3141.0,3063.0,3821.0,3161.0,2804.0,2895.0,2416.0,0.02,9.18,7.96,0.01,-0.03,-0.18,0.0,t
3051.0,3130.0,3060.0,3810.0,3152.0,2800.0,2890.0,2416.0,-0.16,9.15,8.07,0.01,0.0,-0.18,0.0,t
3058.0,3141.0,3067.0,3829.0,3155.0,2803.0,2894.0,2418.0,-0.27,9.11,8.08,0.02,0.0,-0.16,0.0,t
3049.0,3130.0,3061.0,3813.0,3152.0,2800.0,2896.0,2416.0,-0.14,9.14,8.03,0.02,-0.04,-0.15,0.0,t
3056.0,3123.0,3082.0,3833.0,3159.0,2814.0,2901.0,2419.0,-0.15,9.19,8.03,0.02,-0.02,-0.15,0.0,t
3053.0,3127.0,3061.0,3821.0,3156.0,2801.0,2894.0,2416.0,-0.18,9.17,7.98,0.01,-0.01,-0.17,0.0,t
3047.0,3127.0,3065.0,3827.0,3162.0,2809.0,2898.0,2419.0,-0.29,9.1,8.1,0.02,-0.03,-0.16,0.0,t
3050.0,3123.0,3054.0,3823.0,3158.0,2803.0,2896.0,2416.0,-0.11,9.14,8.02,0.01,0.01,-0.14,0.0,t
3054.0,3141.0,3067.0,3825.0,3167.0,2801.0,2896.0,2425.0,-0.21,9.15,8.05,0.03,-0.03,-0.16,0.0,t
3051.0,3129.0,3063.0,3829.0,3165.0,2809.0,2903.0,2427.0,-0.33,9.18,7.95,0.03,-0.03,-0.12,0.0,t
3056.0,3126.0,3058.0,3825.0,3155.0,2800.0,2896.0,2421.0,-0.09,9.13,8.11,-0.01,0.03,-0.14,0.0,t
3049.0,3137.0,3068.0,3834.0,3172.0,2811.0,2901.0,2425.0,-0.07,9.18,7.95,0.03,0.01,-0.16,0.0,t
3056.0,3126.0,3063.0,3837.0,3159.0,2801.0,2896.0,2425.0,-0.21,9.14,8.08,0.01,-0.02,-0.18,0.0,t
3055.0,3126.0,3083.0,3848.0,3173.0,2807.0,2896.0,2421.0,-0.17,9.14,8.06,0.01,-0.07,-0.17,0.0,t
3051.0,3132.0,3071.0,3842.0,3171.0,2817.0,2905.0,2431.0,-0.26,9.08,8.07,-0.01,-0.02,-0.13,0.0,t
3038.0,3126.0,3055.0,3836.0,3166.0,2801.0,2897.0,2422.0,-0.08,9.17,7.95,0.03,-0.01,-0.11,0.0,t
3062.0,3136.0,3079.0,3843.0,3167.0,2810.0,2898.0,2435.0,-0.06,9.13,8.16,0.0,-0.02,-0.15,0.0,t
3053.0,3130.0,3062.0,3836.0,3162.0,2808.0,2899.0,2427.0,-0.14,9.12,8.06,0.01,-0.01,-0.22,0.0,t
3067.0,3132.0,3059.0,3827.0,3160.0,2802.0,2901.0,2430.0,-0.4,9.12,8.05,0.07,-0.11,-0.2,0.0,t
3056.0,3137.0,3066.0,3841.0,3175.0,2816.0,2902.0,2432.0,0.13,9.13,8.08,0.11,-0.17,-0.22,0.0,t
3056.0,3136.0,3066.0,3839.0,3167.0,2805.0,2899.0,2430.0,0.21,9.21,7.78,0.08,-0.15,-0.29,0.0,t
3046.0,3126.0,3082.0,3856.0,3177.0,2813.0,2903.0,2431.0,-0.41,9.13,8.14,0.08,-0.22,-0.27,0.0,t
3055.0,3121.0,3064.0,3838.0,3170.0,2807.0,2899.0,2428.0,-0.83,9.21,7.83,0.14,-0.09,-0.18,0.0,t
3045.0,3132.0,3063.0,3838.0,3182.0,2815.0,2907.0,2433.0,0.45,9.09,8.62,0.17,0.01,-0.15,0.0,t
3054.0,3133.0,3066.0,3839.0,3169.0,2805.0,2897.0,2432.0,0.07,9.32,7.41,0.44,-0.05,-0.28,0.0,t
3056.0,3126.0,3059.0,3843.0,3181.0,2817.0,2909.0,2439.0,-0.52,9.6,6.4,0.36,-0.03,-0.29,0.0,t
3052.0,3136.0,3058.0,3851.0,3172.0,2807.0,2896.0,2433.0,-0.73,9.69,6.24,0.11,-0.04,-0.2,0.0,t
3053.0,3127.0,3059.0,3871.0,3178.0,2815.0,2907.0,2434.0,-0.59,9.59,6.61,0.08,-0.04,-0.21,0.0,t
3050.0,3127.0,3069.0,3842.0,3168.0,2801.0,2903.0,2432.0,-0.61,9.6,6.57,0.05,0.1,-0.14,0.0,t
3047.0,3138.0,3083.0,3867.0,3181.0,2810.0,2910.0,2436.0,-0.62,9.51,6.9,0.05,-0.07,-0.15,0.0,t
3053.0,3134.0,3071.0,3856.0,3178.0,2813.0,2912.0,2442.0,-0.59,9.54,6.76,0.11,0.01,-0.11,0.0,t
3052.0,3119.0,3063.0,3852.0,3177.0,2811.0,2899.0,2432.0,-0.51,9.59,6.53,0.13,0.09,-0.04,0.0,t
3054.0,3147.0,3068.0,3856.0,3179.0,2810.0,2911.0,2439.0,-0.28,9.73,6.16,0.07,-0.14,-0.07,0.0,t
3056.0,3120.0,3058.0,3851.0,3173.0,2803.0,2905.0,2439.0,-0.13,9.75,5.98,0.03,0.05,-0.13,0.0,t
3065.0,3136.0,3071.0,3867.0,3179.0,2807.0,2908.0,2444.0,-0.47,9.61,6.47,-0.04,0.06,-0.1,0.0,t
3045.0,3136.0,3058.0,3862.0,3173.0,2801.0,2901.0,2440.0,-0.13,9.62,6.47,0.01,0.12,-0.12,0.0,t
3053.0,3134.0,3061.0,3868.0,3183.0,2805.0,2908.0,2443.0,-0.35,9.75,6.21,0.01,0.02,-0.17,0.0,t
3047.0,3134.0,3057.0,3850.0,3179.0,2800.0,2905.0,2438.0,-0.01,9.89,6.33,-0.03,0.05,-0.47,0.0,t
3054.0,3131.0,3071.0,3881.0,3189.0,2806.0,2903.0,2443.0,-0.51,9.56,6.4,0.16,0.36,-0.78,0.0,t
3055.0,3126.0,3058.0,3859.0,3173.0,2805.0,2907.0,2445.0,-2.4,8.49,5.53,0.07,0.21,-0.82,0.0,t
3046.0,3152.0,3069.0,3869.0,3181.0,2795.0,2899.0,2447.0,-2.19,13.26,5.56,0.18,-0.21,-0.17,0.0,t
3035.0,3141.0,3062.0,3874.0,3196.0,2800.0,2914.0,2448.0,-3.79,9.63,6.23,-0.44,-0.4,0.08,0.0,t
3038.0,3125.0,3056.0,3860.0,3190.0,2806.0,2915.0,2449.0,-0.9,9.13,7.14,-0.45,-0.08,0.19,0.0,t
3041.0,3135.0,3069.0,3887.0,3197.0,2803.0,2919.0,2455.0,-1.25,9.02,7.92,-0.43,0.03,-0.11,0.0,t
3049.0,3133.0,3063.0,3877.0,3191.0,2803.0,2915.0,2449.0,-1.04,9.04,8.24,-0.15,-0.02,-0.09,0.0,t
3044.0,3135.0,3083.0,3901.0,3206.0,2812.0,2924.0,2449.0,-0.88,8.94,8.17,0.03,-0.12,-0.32,0.0,t
3055.0,3135.0,3055.0,3869.0,3191.0,2800.0,2925.0,2451.0,-1.89,9.05,7.86,0.16,0.01,-0.35,0.0,t
3047.0,3139.0,3071.0,3889.0,3200.0,2813.0,2923.0,2458.0,-2.23,9.14,7.33,0.17,0.06,-0.22,0.0,t
3053.0,3136.0,3069.0,3870.0,3193.0,2805.0,2917.0,2453.0,-1.65,9.21,7.08,0.03,-0.09,-0.29,0.0,t
3054.0,3138.0,3080.0,3889.0,3205.0,2813.0,2928.0,2462.0,-2.03,9.14,7.37,0.01,-0.04,-0.23,0.0,t
3039.0,3130.0,3062.0,3869.0,3199.0,2810.0,2924.0,2455.0,-2.17,9.05,7.51,0.01,-0.03,-0.22,0.0,t
3055.0,3130.0,3062.0,3874.0,3198.0,2810.0,2927.0,2463.0,-2.07,9.05,7.46,0.04,-0.02,-0.16,0.0,t
3043.0,3129.0,3070.0,3888.0,3191.0,2805.0,2918.0,2450.0,-1.86,9.1,7.37,0.01,0.04,-0.21,0.0,t
3058.0,3133.0,3084.0,3883.0,3201.0,2813.0,2929.0,2457.0,-2.16,9.05,7.34,0.02,-0.02,-0.26,0.0,t
3056.0,3138.0,3082.0,3899.0,3200.0,2810.0,2925.0,2459.0,-2.6,9.01,7.43,0.01,-0.0,-0.19,0.0,t
3037.0,3136.0,3082.0,3888.0,3201.0,2813.0,2921.0,2454.0,-2.29,9.0,7.46,-0.0,-0.03,-0.15,0.0,t
3040.0,3136.0,3057.0,3890.0,3205.0,2817.0,2927.0,2461.0,-2.15,9.1,7.28,0.0,-0.01,-0.17,0.0,t
3051.0,3131.0,3070.0,3877.0,3200.0,2813.0,2918.0,2455.0,-2.42,9.14,7.46,-0.07,-0.11,-0.17,0.0,t
3045.0,3125.0,3071.0,3892.0,3214.0,2819.0,2927.0,2465.0,-1.39,9.04,7.41,0.07,-0.15,-0.02,0.0,t
3045.0,3123.0,3061.0,3881.0,3203.0,2816.0,2924.0,2457.0,-1.13,9.5,7.88,-0.26,-0.1,-0.41,0.0,t
3055.0,3145.0,3062.0,3901.0,3206.0,2816.0,2928.0,2464.0,-3.1,9.56,9.02,-0.07,-0.54,-0.4,0.0,t
3041.0,3129.0,3056.0,3891.0,3210.0,2813.0,2925.0,2454.0,-1.2,8.29,8.24,0.21,-0.72,0.36,0.0,t
3059.0,3133.0,3071.0,3901.0,3211.0,2815.0,2929.0,2465.0,-2.26,7.79,7.59,0.05,-0.83,-0.17,0.0,t
3056.0,3135.0,3057.0,3869.0,3201.0,2813.0,2923.0,2463.0,-2.05,8.48,7.65,-0.02,-0.36,0.01,0.0,t
3056.0,3140.0,3069.0,3877.0,3214.0,2816.0,2929.0,2464.0,-2.01,9.02,7.97,-0.05,-0.22,0.09,0.0,t
3039.0,3120.0,3063.0,3871.0,3219.0,2819.0,2927.0,2462.0,-0.64,8.87,7.85,0.11,0.17,0.13,0.0,t
3040.0,3123.0,3061.0,3874.0,3209.0,2814.0,2923.0,2462.0,0.08,8.54,7.17,-0.05,-0.13,-0.11,0.0,t
3052.0,3136.0,3071.0,3867.0,3216.0,2781.0,2926.0,2451.0,-1.05,7.01,7.53,-0.02,0.07,-0.53,0.0,t
3058.0,3133.0,3071.0,3862.0,3215.0,2784.0,2927.0,2459.0,0.23,8.89,8.84,-0.0,0.05,0.1,0.0,t
3043.0,3129.0,3071.0,3888.0,3227.0,2787.0,2928.0,2463.0,0.73,8.83,8.87,0.05,-0.02,-0.02,0.0,t
3051.0,3133.0,3058.0,3871.0,3219.0,2789.0,2930.0,2454.0,0.98,8.94,8.23,0.04,-0.02,-0.07,0.0,t
3053.0,3133.0,3081.0,3878.0,3230.0,2800.0,2935.0,2462.0,0.6,9.03,8.37,0.05,-0.01,-0.14,0.0,t
3042.0,3136.0,3056.0,3877.0,3223.0,2795.0,2928.0,2462.0,0.56,9.0,8.41,0.04,0.05,-0.09,0.0,t
3051.0,3143.0,3060.0,3879.0,3223.0,2791.0,2931.0,2471.0,0.59,9.01,8.38,0.04,0.06,-0.11,0.0,t
3054.0,3129.0,3056.0,3871.0,3218.0,2799.0,2934.0,2471.0,0.89,9.1,8.04,-0.01,0.0,-0.19,0.0,t
3051.0,3141.0,3085.0,3888.0,3228.0,2803.0,2941.0,2477.0,1.31,9.05,8.24,-0.01,-0.0,-0.23,0.0,t
3053.0,3136.0,3071.0,3866.0,3221.0,2795.0,2927.0,2469.0,1.08,9.06,8.14,0.02,-0.05,-0.26,0.0,t
3057.0,3135.0,3058.0,3875.0,3217.0,2802.0,2945.0,2479.0,0.74,9.1,8.14,0.03,-0.07,-0.29,0.0,t
3036.0,3139.0,3068.0,3888.0,3233.0,2802.0,2935.0,2475.0,0.74,9.1,8.06,0.01,-0.09,-0.26,0.0,t
3051.0,3138.0,3065.0,3876.0,3227.0,2798.0,2930.0,2465.0,0.7,9.05,8.21,0.04,-0.03,-0.24,0.0,t
3050.0,3138.0,3082.0,3901.0,3231.0,2800.0,2934.0,2475.0,0.51,9.08,8.26,0.06,-0.02,-0.28,0.0,t
3051.0,3127.0,3059.0,3871.0,3231.0,2803.0,2935.0,2477.0,0.35,9.15,8.1,0.13,-0.04,-0.23,0.0,t
3043.0,3130.0,3063.0,3890.0,3243.0,2806.0,2933.0,2468.0,0.43,9.22,7.78,0.12,0.01,-0.19,0.0,t
3054.0,3120.0,3071.0,3871.0,3223.0,2801.0,2934.0,2473.0,0.54,9.28,7.77,0.08,0.0,-0.21,0.0,t
3053.0,3149.0,3082.0,3890.0,3230.0,2800.0,2931.0,2477.0,0.59,9.06,8.24,0.14,-0.05,-0.3,0.0,t
3041.0,3135.0,3063.0,3887.0,3225.0,2800.0,2928.0,2473.0,0.06,9.33,7.58,0.26,0.01,-0.3,0.0,t
3057.0,3135.0,3058.0,3894.0,3233.0,2805.0,2938.0,2479.0,-0.2,9.43,7.16,0.22,0.06,-0.24,0.0,t
3039.0,3143.0,3063.0,3871.0,3222.0,2802.0,2931.0,2477.0,-0.26,9.51,6.93,0.27,-0.07,-0.38,0.0,t
3056.0,3147.0,3071.0,3909.0,3227.0,2800.0,2935.0,2479.0,-0.34,9.6,6.7,0.14,-0.06,-0.28,0.0,t
3044.0,3138.0,3058.0,3892.0,3226.0,2801.0,2938.0,2478.0,-0.51,9.61,6.7,-0.0,-0.05,-0.15,0.0,t
3043.0,3126.0,3055.0,3850.0,3229.0,2798.0,2926.0,2475.0,-0.23,9.54,6.96,-0.35,0.09,0.18,0.0,t
3055.0,3141.0,3071.0,3894.0,3237.0,2794.0,2927.0,2478.0,-0.19,9.47,7.2,0.17,-0.22,-0.3,0.0,t
3053.0,3138.0,3083.0,3866.0,3229.0,2798.0,2928.0,2474.0,-0.23,9.51,6.94,0.04,0.09,-0.11,0.0,t
3051.0,3134.0,3069.0,3867.0,3238.0,2801.0,2939.0,2480.0,-0.09,9.46,7.11,0.05,0.05,-0.23,0.0,t
3053.0,3134.0,3070.0,3891.0,3237.0,2816.0,2944.0,2483.0,-0.86,9.64,6.17,0.03,0.05,-0.13,0.0,t
3049.0,3125.0,3057.0,3883.0,3233.0,2801.0,2940.0,2480.0,-0.6,9.67,6.22,0.07,-0.05,-0.07,0.0,t
3047.0,3136.0,3071.0,3899.0,3234.0,2807.0,2943.0,2482.0,-0.33,9.67,6.15,0.1,-0.05,-0.22,0.0,t
3056.0,3150.0,3069.0,3883.0,3233.0,2817.0,2949.0,2486.0,-1.01,9.66,6.04,0.09,-0.08,-0.26,0.0,t
3051.0,3133.0,3059.0,3888.0,3227.0,2803.0,2939.0,2480.0,-1.09,9.63,6.07,0.03,-0.05,-0.11,0.0,t
3050.0,3146.0,3067.0,3911.0,3247.0,2815.0,2938.0,2482.0,-0.57,9.6,6.03,0.02,0.04,-0.01,0.0,t
3049.0,3127.0,3084.0,3885.0,3235.0,2813.0,2940.0,2482.0,-0.4,9.79,5.71,0.06,-0.0,-0.15,0.0,t
3055.0,3134.0,3061.0,3889.0,3244.0,2826.0,2950.0,2490.0,-0.88,9.7,6.0,0.03,-0.1,-0.18,0.0,t
3052.0,3138.0,3056.0,3887.0,3235.0,2814.0,2938.0,2483.0,-0.66,9.76,5.73,0.04,-0.0,-0.11,0.0,t
3045.0,3131.0,3069.0,3893.0,3248.0,2824.0,2949.0,2483.0,-0.53,9.74,5.91,-0.02,-0.1,-0.13,0.0,t
3053.0,3136.0,3070.0,3893.0,3246.0,2818.0,2938.0,2483.0,-0.55,9.61,6.22,0.02,-0.06,-0.09,0.0,t
3061.0,3143.0,3061.0,3903.0,3239.0,2820.0,2950.0,2493.0,-0.43,9.74,5.93,0.03,0.01,-0.07,0.0,t
3041.0,3132.0,3067.0,3888.0,3239.0,2818.0,2939.0,2487.0,-0.13,9.77,5.72,0.03,0.02,-0.1,0.0,t
3055.0,3122.0,3061.0,3903.0,3248.0,2828.0,2945.0,2483.0,-0.2,9.78,5.89,-0.09,-0.03,-0.14,0.0,t
3051.0,3130.0,3067.0,3878.0,3249.0,2827.0,2947.0,2494.0,-0.59,9.62,6.27,-0.04,-0.03,-0.18,0.0,t
3045.0,3136.0,3056.0,3878.0,3238.0,2822.0,2944.0,2493.0,-0.62,9.69,6.14,-0.04,0.07,-0.1,0.0,t
3046.0,3146.0,3088.0,3895.0,3243.0,2821.0,2942.0,2493.0,-0.75,9.62,6.54,-0.03,0.04,0.09,0.0,t
3041.0,3138.0,3057.0,3878.0,3242.0,2817.0,2942.0,2483.0,0.13,9.64,6.39,0.02,0.16,0.15,0.0,t
3049.0,3121.0,3059.0,3895.0,3249.0,2831.0,2941.0,2487.0,0.39,9.76,6.02,0.07,0.15,0.06,0.0,t
3039.0,3125.0,3056.0,3877.0,3245.0,2818.0,2950.0,2484.0,0.52,9.78,6.0,-0.05,0.14,0.08,0.0,t
3053.0,3150.0,3069.0,3901.0,3245.0,2819.0,2946.0,2498.0,0.42,9.68,6.35,-0.01,-0.01,-0.17,0.0,t
3045.0,3133.0,3069.0,3888.0,3246.0,2821.0,2947.0,2490.0,0.4,9.74,6.11,-0.01,0.02,-0.2,0.0,t
3049.0,3135.0,3058.0,3888.0,3248.0,2815.0,2949.0,2494.0,0.2,9.6,6.57,-0.07,0.05,-0.18,0.0,t
3059.0,3150.0,3061.0,3890.0,3247.0,2826.0,2953.0,2500.0,0.33,9.64,6.62,-0.04,0.05,-0.19,0.0,t
3041.0,3136.0,3069.0,3891.0,3242.0,2814.0,2943.0,2490.0,0.26,9.77,6.23,-0.08,0.17,-0.19,0.0,t
3054.0,3140.0,3065.0,3919.0,3249.0,2819.0,2944.0,2492.0,-0.13,9.59,6.63,-0.14,-0.08,-0.22,0.0,t
3045.0,3124.0,3061.0,3888.0,3243.0,2816.0,2939.0,2494.0,-0.04,9.5,7.01,-0.14,-0.04,-0.18,0.0,t
3045.0,3136.0,3059.0,3915.0,3248.0,2823.0,2947.0,2495.0,0.1,9.45,7.19,-0.12,-0.11,-0.18,0.0,t
3042.0,3127.0,3061.0,3891.0,3246.0,2821.0,2947.0,2493.0,0.21,9.38,7.33,-0.07,0.02,-0.17,0.0,t
3056.0,3135.0,3083.0,3918.0,3250.0,2831.0,2951.0,2496.0,0.51,9.35,7.52,-0.06,-0.01,-0.24,0.0,t
3052.0,3120.0,3055.0,3907.0,3247.0,2819.0,2947.0,2495.0,-0.41,9.42,7.26,0.05,-0.07,-0.32,0.0,t
3053.0,3138.0,3084.0,3921.0,3253.0,2830.0,2949.0,2499.0,-0.63,9.42,7.15,-0.02,0.1,-0.17,0.0,t
3056.0,3127.0,3067.0,3904.0,3246.0,2816.0,2945.0,2497.0,-0.13,9.39,7.36,-0.03,0.06,-0.18,0.0,t
3052.0,3130.0,3061.0,3917.0,3249.0,2823.0,2953.0,2501.0,-0.2,9.4,7.28,0.02,0.23,-0.17,0.0,t
3050.0,3149.0,3061.0,3897.0,3252.0,2827.0,2953.0,2499.0,-0.36,9.33,7.52,-0.02,0.14,-0.24,0.0,t
3045.0,3138.0,3061.0,3907.0,3246.0,2815.0,2945.0,2494.0,-0.7,9.34,7.45,0.05,-0.07,-0.27,0.0,t
3051.0,3130.0,3071.0,3920.0,3251.0,2820.0,2951.0,2501.0,-0.63,9.38,7.28,0.07,-0.06,-0.24,0.0,t
3041.0,3141.0,3059.0,3917.0,3247.0,2814.0,2944.0,2493.0,-0.62,9.42,7.13,0.06,-0.11,-0.25,0.0,t
3049.0,3133.0,3071.0,3923.0,3254.0,2818.0,2958.0,2499.0,-0.45,9.28,7.56,0.03,-0.04,-0.24,0.0,t
3056.0,3120.0,3059.0,3905.0,3249.0,2817.0,2947.0,2496.0,-0.83,9.28,7.31,0.08,-0.05,-0.28,0.0,t
3047.0,3147.0,3070.0,3910.0,3249.0,2817.0,2945.0,2492.0,-1.21,9.39,6.89,0.05,-0.02,-0.23,0.0,t
3045.0,3129.0,3060.0,3913.0,3259.0,2828.0,2957.0,2498.0,-1.5,9.48,6.72,0.08,0.16,-0.14,0.0,t
3056.0,3126.0,3060.0,3904.0,3251.0,2820.0,2954.0,2497.0,-1.14,9.44,6.86,-0.0,0.02,-0.12,0.0,t
3043.0,3137.0,3062.0,3909.0,3248.0,2821.0,2951.0,2501.0,-1.08,9.43,6.92,0.05,0.0,-0.14,0.0,t
3046.0,3135.0,3068.0,3919.0,3253.0,2827.0,2958.0,2502.0,-1.16,9.47,6.78,0.07,-0.04,-0.24,0.0,t
3056.0,3136.0,3056.0,3906.0,3247.0,2819.0,2951.0,2498.0,-1.23,9.45,6.71,0.09,-0.03,-0.18,0.0,t
3041.0,3140.0,3071.0,3930.0,3258.0,2826.0,2957.0,2498.0,-1.23,9.56,6.46,0.02,0.04,-0.14,0.0,t
3039.0,3131.0,3070.0,3926.0,3250.0,2820.0,2944.0,2494.0,-1.33,9.42,6.73,-0.1,0.06,-0.07,0.0,t
3043.0,3137.0,3067.0,3920.0,3250.0,2832.0,2955.0,2502.0,-1.08,9.48,6.78,0.01,0.01,-0.11,0.0,t
3043.0,3138.0,3062.0,3911.0,3248.0,2821.0,2949.0,2498.0,-1.1,9.53,6.59,0.04,-0.02,-0.14,0.0,t
3056.0,3143.0,3067.0,3935.0,3254.0,2831.0,2951.0,2499.0,-1.18,9.46,6.77,-0.03,-0.02,-0.1,0.0,t
3051.0,3120.0,3056.0,3913.0,3251.0,2817.0,2941.0,2491.0,-1.37,9.5,6.72,-0.16,0.04,0.02,0.0,t
3053.0,3143.0,3071.0,3921.0,3253.0,2819.0,2945.0,2498.0,-0.81,9.45,6.89,-0.06,0.07,0.0,0.0,t
3039.0,3131.0,3069.0,3925.0,3248.0,2823.0,2942.0,2498.0,-0.45,9.45,6.99,-0.05,-0.02,-0.02,0.0,t
3045.0,3140.0,3067.0,3950.0,3260.0,2818.0,2939.0,2494.0,-0.51,9.47,7.09,-0.02,-0.04,-0.13,0.0,t
3047.0,3126.0,3079.0,3938.0,3267.0,2831.0,2944.0,2505.0,-0.63,9.42,7.09,-0.08,-0.01,-0.09,0.0,t
3047.0,3136.0,3070.0,3920.0,3253.0,2817.0,2938.0,2496.0,-0.67,9.4,7.15,-0.1,-0.02,-0.07,0.0,t
3049.0,3149.0,3071.0,3933.0,3262.0,2821.0,2943.0,2498.0,-0.58,9.38,7.25,-0.15,0.07,0.01,0.0,t
3039.0,3121.0,3063.0,3927.0,3251.0,2822.0,2938.0,2493.0,-0.09,9.3,7.61,-0.14,-0.04,-0.02,0.0,t
3054.0,3125.0,3058.0,3929.0,3263.0,2825.0,2946.0,2501.0,0.03,9.25,7.83,-0.07,-0.03,-0.09,0.0,t
3043.0,3013.0,2955.0,3508.0,2910.0,2675.0,2823.0,2393.0,-0.62,9.12,8.27,-0.12,0.22,-0.08,0.0,t
3043.0,3009.0,2959.0,3527.0,2920.0,2687.0,2834.0,2401.0,-0.26,8.89,8.59,-0.04,0.04,-0.08,0.0,t
3051.0,3008.0,2943.0,3519.0,2912.0,2685.0,2832.0,2403.0,0.01,8.95,8.43,-0.01,-0.08,-0.11,0.0,t
3047.0,3011.0,2951.0,3535.0,2918.0,2687.0,2843.0,2409.0,0.06,8.96,8.37,0.03,0.17,-0.12,0.0,t
3051.0,3012.0,2949.0,3536.0,2919.0,2677.0,2837.0,2402.0,-0.23,8.98,8.44,0.12,0.59,-0.08,0.0,t
3045.0,3013.0,2962.0,3562.0,2927.0,2681.0,2850.0,2403.0,-0.89,9.11,8.08,0.16,0.12,-0.22,0.0,t
3041.0,3002.0,2960.0,3567.0,2930.0,2678.0,2843.0,2405.0,-0.73,9.15,7.98,0.07,-0.01,-0.17,0.0,t
3050.0,3014.0,2959.0,3563.0,2920.0,2673.0,2839.0,2403.0,-0.59,9.02,8.38,0.25,0.08,-0.19,0.0,t
3056.0,3014.0,2950.0,3565.0,2934.0,2684.0,2852.0,2403.0,-0.47,9.33,7.5,0.26,0.02,-0.14,0.0,t
3039.0,3015.0,2948.0,3566.0,2933.0,2681.0,2849.0,2397.0,-0.96,9.37,7.2,0.21,-0.05,-0.13,0.0,t
3056.0,3015.0,2955.0,3568.0,2946.0,2692.0,2861.0,2411.0,-0.87,9.49,6.96,0.13,-0.06,0.06,0.0,t
3030.0,3007.0,2958.0,3570.0,2944.0,2689.0,2851.0,2402.0,-0.45,9.35,7.3,0.15,0.1,0.0,0.0,t
3053.0,3012.0,2960.0,3583.0,2958.0,2699.0,2861.0,2406.0,-0.55,9.45,7.06,0.28,0.28,-0.12,0.0,t
3053.0,3014.0,2957.0,3582.0,2953.0,2695.0,2849.0,2407.0,-0.36,9.66,6.48,0.26,0.23,-0.02,0.0,t
3042.0,3017.0,2961.0,3583.0,2959.0,2698.0,2856.0,2409.0,-0.31,9.76,6.09,0.23,0.16,-0.03,0.0,t
3046.0,3006.0,2960.0,3596.0,2960.0,2700.0,2855.0,2407.0,0.43,9.8,5.79,-0.05,0.0,0.11,0.0,t
3057.0,3007.0,2955.0,3599.0,2966.0,2704.0,2862.0,2415.0,-0.16,9.71,6.28,-0.29,-0.09,0.11,0.0,t
3047.0,3010.0,2950.0,3600.0,2971.0,2704.0,2860.0,2414.0,0.15,9.64,6.43,-0.13,-0.08,0.16,0.0,t
3040.0,3030.0,2951.0,3606.0,2975.0,2703.0,2851.0,2407.0,0.79,9.57,6.65,-0.14,-0.0,0.16,0.0,t
3056.0,3019.0,2958.0,3616.0,2983.0,2704.0,2864.0,2419.0,1.3,9.51,6.81,-0.17,-0.04,-0.01,0.0,t
3054.0,3013.0,2951.0,3632.0,2992.0,2709.0,2864.0,2423.0,0.61,8.97,8.44,0.07,-0.01,-0.3,0.0,t
3051.0,3019.0,2953.0,3637.0,3008.0,2711.0,2869.0,2432.0,0.63,8.93,8.48,0.05,-0.0,-0.32,0.0,t
3043.0,3024.0,2959.0,3631.0,2995.0,2722.0,2875.0,2426.0,0.45,8.96,8.42,0.08,-0.09,-0.31,0.0,t
3039.0,3013.0,2943.0,3628.0,2992.0,2715.0,2865.0,2425.0,0.31,8.96,8.5,0.05,-0.02,-0.29,0.0,t
3043.0,3018.0,2959.0,3648.0,3005.0,2721.0,2868.0,2430.0,0.2,9.04,8.2,0.08,0.01,-0.3,0.0,t
3035.0,3010.0,2950.0,3643.0,2999.0,2711.0,2864.0,2423.0,0.01,9.02,8.33,0.03,-0.02,-0.32,0.0,t
3040.0,3013.0,2962.0,3645.0,3003.0,2723.0,2869.0,2431.0,-0.33,9.08,8.25,0.09,-0.04,-0.32,0.0,t
3053.0,3015.0,2954.0,3637.0,3002.0,2715.0,2866.0,2429.0,-0.44,9.03,8.26,0.09,-0.03,-0.26,0.0,t
3057.0,3008.0,2953.0,3649.0,3007.0,2723.0,2870.0,2432.0,-0.28,9.09,8.08,0.14,0.02,-0.24,0.0,t
3051.0,3006.0,2944.0,3638.0,3011.0,2721.0,2867.0,2426.0,-0.58,9.13,8.0,0.12,-0.06,-0.28,0.0,t
3042.0,3024.0,2958.0,3650.0,3010.0,2727.0,2865.0,2431.0,-0.97,9.2,7.83,0.12,-0.0,-0.15,0.0,t
3046.0,3011.0,2958.0,3647.0,3013.0,2721.0,2865.0,2423.0,-0.78,9.23,7.71,0.14,-0.01,-0.1,0.0,t
3055.0,3011.0,2950.0,3641.0,3010.0,2729.0,2879.0,2432.0,-0.27,9.24,7.68,0.09,-0.01,-0.07,0.0,t
3033.0,2999.0,2950.0,3643.0,3008.0,2723.0,2880.0,2428.0,-0.47,9.33,7.54,0.16,-0.0,-0.09,0.0,t
3037.0,3008.0,2947.0,3647.0,3013.0,2725.0,2864.0,2419.0,-0.78,9.35,7.43,0.14,0.05,0.0,0.0,t
3038.0,3007.0,2962.0,3659.0,3019.0,2726.0,2870.0,2431.0,-0.1,9.44,7.18,0.1,0.11,0.04,0.0,t
3040.0,3002.0,2949.0,3639.0,3017.0,2727.0,2869.0,2427.0,0.1,9.46,7.05,0.07,0.03,0.06,0.0,t
3045.0,3024.0,2964.0,3651.0,3014.0,2726.0,2871.0,2432.0,0.16,9.48,7.04,0.02,0.03,0.03,0.0,t
3041.0,3006.0,2955.0,3648.0,3010.0,2729.0,2871.0,2426.0,0.31,9.44,7.22,-0.02,0.08,0.02,0.0,t
3043.0,3013.0,2957.0,3654.0,3026.0,2730.0,2874.0,2436.0,0.43,9.39,7.34,0.03,0.07,0.04,0.0,t
3046.0,3007.0,2958.0,3662.0,3025.0,2736.0,2875.0,2437.0,0.73,9.66,7.13,0.04,0.31,-0.26,0.0,t
3054.0,3010.0,2951.0,3665.0,3032.0,2742.0,2885.0,2442.0,0.93,10.29,7.3,0.03,0.06,0.03,0.0,t
3053.0,3003.0,2944.0,3663.0,3034.0,2739.0,2874.0,2437.0,1.84,8.27,6.37,0.05,0.49,-0.36,0.0,t
3055.0,3021.0,2953.0,3675.0,3039.0,2748.0,2882.0,2444.0,0.34,8.2,6.9,-0.13,0.47,-0.63,0.0,t
3049.0,3013.0,2950.0,3667.0,3035.0,2737.0,2869.0,2435.0,-0.23,9.42,7.54,-0.16,0.21,-0.21,0.0,t
3052.0,3010.0,2958.0,3667.0,3031.0,2751.0,2880.0,2445.0,0.57,9.28,7.1,-0.02,-0.05,0.13,0.0,t
3039.0,3004.0,2960.0,3681.0,3035.0,2730.0,2861.0,2437.0,1.59,8.03,6.07,0.03,0.08,-0.76,0.0,t
3059.0,3015.0,2960.0,3702.0,3054.0,2749.0,2877.0,2448.0,-0.54,9.26,8.08,-0.12,-0.15,-0.17,0.0,t
3041.0,2999.0,2950.0,3682.0,3053.0,2745.0,2880.0,2445.0,0.81,9.36,7.59,0.03,-0.01,0.14,0.0,t
3040.0,3024.0,2950.0,3690.0,3050.0,2748.0,2880.0,2447.0,1.06,9.43,6.99,-0.05,-0.01,-0.25,0.0,t
3045.0,3013.0,2960.0,3698.0,3052.0,2751.0,2882.0,2454.0,0.16,9.39,7.51,-0.24,0.06,-0.15,0.0,t
3043.0,3007.0,2949.0,3698.0,3056.0,2747.0,2877.0,2447.0,0.89,9.12,8.04,-0.19,0.01,-0.03,0.0,t
3056.0,3015.0,2960.0,3697.0,3057.0,2754.0,2881.0,2448.0,0.68,9.0,8.45,-0.09,-0.01,-0.18,0.0,t
3052.0,3005.0,2954.0,3694.0,3054.0,2743.0,2879.0,2448.0,0.94,8.99,8.37,-0.04,-0.01,-0.17,0.0,t
3039.0,3010.0,2963.0,3711.0,3063.0,2755.0,2880.0,2449.0,0.91,8.82,8.86,-0.06,-0.17,-0.25,0.0,t
3051.0,3007.0,2951.0,3695.0,3053.0,2750.0,2880.0,2449.0,0.43,8.9,8.67,0.15,-0.05,-0.39,0.0,t
3052.0,3015.0,2956.0,3706.0,3057.0,2750.0,2881.0,2448.0,-0.13,9.23,7.85,0.22,0.03,-0.2,0.0,t
3038.0,3007.0,2957.0,3690.0,3056.0,2752.0,2879.0,2448.0,0.22,9.2,7.97,0.09,-0.07,-0.16,0.0,t
3047.0,3022.0,2959.0,3712.0,3063.0,2754.0,2877.0,2449.0,0.47,9.08,8.21,0.25,0.06,-0.19,0.0,t
3051.0,3020.0,2950.0,3697.0,3056.0,2748.0,2877.0,2448.0,0.39,9.39,7.25,0.3,0.01,-0.22,0.0,t
3039.0,3007.0,2951.0,3694.0,3061.0,2753.0,2881.0,2451.0,0.9,9.45,7.06,0.02,0.06,-0.07,0.0,t
3061.0,3024.0,2960.0,3697.0,3061.0,2753.0,2885.0,2454.0,0.76,9.49,7.03,0.09,0.08,-0.01,0.0,t
3042.0,3005.0,2954.0,3699.0,3071.0,2756.0,2881.0,2449.0,1.15,9.46,7.03,-0.02,-0.05,-0.12,0.0,t
3047.0,3014.0,2960.0,3709.0,3067.0,2757.0,2882.0,2450.0,1.17,9.48,6.99,0.03,-0.05,-0.2,0.0,t
3040.0,3008.0,2946.0,3696.0,3059.0,2751.0,2883.0,2450.0,0.87,9.53,6.85,-0.02,-0.08,-0.27,0.0,t
3055.0,3007.0,2950.0,3705.0,3066.0,2761.0,2886.0,2455.0,0.58,9.45,7.19,-0.04,-0.02,-0.24,0.0,t
3049.0,3021.0,2944.0,3711.0,3067.0,2751.0,2877.0,2449.0,0.45,9.44,7.27,0.01,-0.1,-0.18,0.0,t
3043.0,2997.0,2956.0,3699.0,3067.0,2755.0,2880.0,2448.0,0.59,9.51,7.05,0.01,0.03,-0.15,0.0,t
3055.0,3015.0,2960.0,3725.0,3083.0,2759.0,2886.0,2448.0,0.6,9.58,6.89,-0.01,-0.02,-0.15,0.0,t
3050.0,3010.0,2960.0,3701.0,3071.0,2752.0,2878.0,2448.0,0.67,9.55,6.84,-0.09,-0.11,-0.18,0.0,t
3041.0,3019.0,2958.0,3711.0,3071.0,2758.0,2886.0,2457.0,0.57,9.48,7.12,-0.21,-0.09,-0.15,0.0,t
3047.0,3005.0,2951.0,3697.0,3070.0,2755.0,2880.0,2449.0,0.68,9.32,7.56,-0.28,0.03,-0.05,0.0,t
3041.0,3015.0,2960.0,3712.0,3081.0,2763.0,2885.0,2455.0,0.92,9.07,8.14,-0.27,-0.02,-0.09,0.0,t
3053.0,3009.0,2961.0,3707.0,3071.0,2754.0,2883.0,2455.0,0.95,8.95,8.44,-0.14,-0.0,-0.12,0.0,t
3043.0,3025.0,2963.0,3715.0,3083.0,2757.0,2886.0,2457.0,1.04,9.0,8.29,-0.07,0.01,-0.17,0.0,t
3053.0,3010.0,2942.0,3696.0,3071.0,2753.0,2886.0,2450.0,0.8,8.97,8.43,-0.05,-0.03,-0.2,0.0,t
3047.0,3011.0,2954.0,3725.0,3088.0,2761.0,2880.0,2453.0,0.77,8.95,8.44,-0.0,-0.04,-0.21,0.0,t
3051.0,3017.0,2962.0,3706.0,3071.0,2755.0,2880.0,2451.0,0.75,9.03,8.33,0.04,-0.01,-0.17,0.0,t
3047.0,3003.0,2947.0,3716.0,3087.0,2767.0,2887.0,2455.0,0.86,8.98,8.35,0.04,0.05,-0.2,0.0,t
3039.0,3021.0,2954.0,3725.0,3089.0,2763.0,2882.0,2454.0,0.68,9.04,8.24,0.09,0.04,-0.21,0.0,t
3042.0,3012.0,2951.0,3719.0,3092.0,2771.0,2887.0,2460.0,0.25,9.21,7.81,0.11,-0.09,-0.23,0.0,t
3041.0,3001.0,2953.0,3713.0,3084.0,2762.0,2880.0,2455.0,0.06,9.28,7.75,0.09,0.03,-0.18,0.0,t
3045.0,3013.0,2947.0,3705.0,3087.0,2774.0,2887.0,2462.0,0.13,9.33,7.6,0.11,0.06,-0.17,0.0,t
3035.0,3009.0,2957.0,3706.0,3088.0,2763.0,2877.0,2457.0,0.1,9.31,7.6,0.08,-0.09,-0.2,0.0,t
3055.0,3017.0,2963.0,3715.0,3091.0,2768.0,2886.0,2459.0,0.02,9.34,7.52,0.1,0.03,-0.15,0.0,t
3050.0,3012.0,2958.0,3707.0,3086.0,2764.0,2887.0,2464.0,0.14,9.36,7.42,0.1,0.03,-0.16,0.0,t
3051.0,3011.0,2942.0,3707.0,3087.0,2767.0,2882.0,2462.0,0.13,9.42,7.33,0.07,-0.01,-0.18,0.0,t
3034.0,3009.0,2954.0,3719.0,3089.0,2769.0,2883.0,2465.0,-0.04,9.43,7.28,0.09,-0.02,-0.19,0.0,t
3041.0,3015.0,2965.0,3712.0,3071.0,2767.0,2879.0,2458.0,-0.12,9.47,7.2,0.1,0.05,-0.16,0.0,t
3049.0,3019.0,2951.0,3713.0,3091.0,2773.0,2881.0,2463.0,-0.08,9.47,7.17,0.09,-0.02,-0.15,0.0,t
3039.0,3021.0,2959.0,3703.0,3083.0,2766.0,2878.0,2463.0,-0.1,9.51,7.02,0.07,-0.22,-0.19,0.0,t
3054.0,3009.0,2959.0,3725.0,3094.0,2769.0,2885.0,2462.0,-0.24,9.53,7.01,0.1,0.02,-0.05,0.0,t
3031.0,3011.0,2946.0,3715.0,3088.0,2768.0,2885.0,2458.0,0.14,9.52,6.89,0.13,0.0,-0.04,0.0,t
3053.0,3007.0,2963.0,3729.0,3097.0,2777.0,2882.0,2459.0,0.3,9.62,6.65,0.11,-0.09,-0.05,0.0,t
3051.0,3001.0,2955.0,3713.0,3083.0,2768.0,2875.0,2462.0,0.35,9.7,6.44,0.04,-0.01,-0.04,0.0,t
3055.0,3008.0,2958.0,3711.0,3087.0,2781.0,2892.0,2469.0,0.6,9.61,6.54,-0.03,0.03,-0.05,0.0,t
3055.0,2999.0,2955.0,3717.0,3088.0,2768.0,2877.0,2462.0,0.73,9.56,6.71,-0.04,-0.05,-0.11,0.0,t
3053.0,3009.0,2960.0,3712.0,3091.0,2774.0,2886.0,2467.0,0.69,9.58,6.69,-0.06,0.01,-0.2,0.0,t
3047.0,3015.0,2960.0,3714.0,3088.0,2775.0,2894.0,2471.0,0.32,9.55,6.89,-0.06,0.0,-0.21,0.0,t
3039.0,3003.0,2951.0,3715.0,3084.0,2768.0,2877.0,2469.0,0.23,9.55,6.9,-0.07,-0.05,-0.17,0.0,t
3049.0,3009.0,2959.0,3719.0,3095.0,2775.0,2880.0,2469.0,0.76,9.14,7.85,0.02,-0.01,-0.19,0.0,t
3053.0,3015.0,2958.0,3728.0,3100.0,2784.0,2892.0,2478.0,0.66,9.21,7.84,0.05,-0.02,-0.17,0.0,t
3034.0,2999.0,2949.0,3713.0,3098.0,2777.0,2881.0,2468.0,0.59,9.34,7.5,0.06,-0.04,-0.12,0.0,t
3040.0,3010.0,2957.0,3722.0,3101.0,2784.0,2891.0,2476.0,0.75,9.39,7.33,-0.03,0.01,-0.07,0.0,t
3046.0,3001.0,2945.0,3711.0,3095.0,2775.0,2883.0,2473.0,0.95,9.19,7.9,-0.12,-0.0,-0.06,0.0,t
3038.0,3020.0,2950.0,3728.0,3103.0,2781.0,2886.0,2479.0,1.12,9.06,8.19,-0.06,0.07,-0.09,0.0,t
3055.0,3014.0,2947.0,3712.0,3093.0,2785.0,2885.0,2474.0,1.29,9.05,8.18,-0.0,0.02,-0.17,0.0,t
3052.0,3013.0,2971.0,3728.0,3097.0,2777.0,2886.0,2476.0,1.03,9.12,8.02,0.03,-0.06,-0.26,0.0,t
3047.0,3008.0,2947.0,3724.0,3093.0,2775.0,2885.0,2475.0,0.74,9.17,7.97,0.02,-0.04,-0.24,0.0,t
3054.0,3022.0,2959.0,3725.0,3091.0,2778.0,2886.0,2476.0,0.64,9.2,7.88,-0.0,-0.0,-0.18,0.0,t
3051.0,3009.0,2960.0,3730.0,3101.0,2785.0,2893.0,2480.0,0.76,9.15,7.97,-0.01,0.04,-0.13,0.0,t
3042.0,3016.0,2944.0,3716.0,3099.0,2779.0,2889.0,2471.0,0.88,8.99,8.5,-0.05,-0.12,-0.16,0.0,t
3047.0,3022.0,2960.0,3741.0,3103.0,2780.0,2883.0,2473.0,0.95,8.81,8.84,0.26,-0.01,-0.29,0.0,t
3042.0,3003.0,2957.0,3717.0,3090.0,2781.0,2885.0,2478.0,0.41,9.42,7.25,0.37,0.07,-0.31,0.0,t
3056.0,3009.0,2955.0,3724.0,3091.0,2783.0,2893.0,2480.0,0.34,9.52,7.05,0.23,0.04,-0.25,0.0,t
3040.0,3011.0,2951.0,3721.0,3091.0,2779.0,2887.0,2476.0,0.26,9.53,7.0,0.14,0.02,-0.2,0.0,t
3050.0,3013.0,2951.0,3744.0,3103.0,2787.0,2891.0,2479.0,0.26,9.54,6.95,0.11,0.07,-0.15,0.0,t
3050.0,3009.0,2959.0,3728.0,3096.0,2779.0,2883.0,2471.0,0.24,9.56,6.93,0.05,-0.0,-0.14,0.0,t
3049.0,3007.0,2954.0,3728.0,3105.0,2789.0,2896.0,2479.0,0.34,9.52,7.01,0.03,-0.01,-0.13,0.0,t
3047.0,3011.0,2955.0,3712.0,3106.0,2785.0,2890.0,2477.0,0.39,9.49,6.97,0.04,0.01,-0.15,0.0,t
3048.0,3005.0,2953.0,3728.0,3095.0,2780.0,2886.0,2479.0,0.61,9.56,6.86,-0.02,0.03,-0.05,0.0,t
3051.0,3006.0,2951.0,3746.0,3113.0,2787.0,2887.0,2477.0,0.27,9.51,7.07,0.0,0.12,0.05,0.0,t
3054.0,3014.0,2960.0,3728.0,3097.0,2787.0,2887.0,2479.0,1.05,9.52,6.89,0.02,0.01,0.0,0.0,t
3044.0,3012.0,2953.0,3739.0,3107.0,2795.0,2894.0,2480.0,1.1,9.52,6.77,0.02,0.08,-0.01,0.0,t
3039.0,2997.0,2944.0,3730.0,3104.0,2785.0,2883.0,2478.0,1.18,9.53,6.78,-0.02,0.01,-0.07,0.0,t
3053.0,3008.0,2959.0,3743.0,3103.0,2784.0,2887.0,2481.0,1.22,9.5,6.88,-0.03,0.07,-0.05,0.0,t
3050.0,2999.0,2944.0,3725.0,3104.0,2787.0,2893.0,2482.0,1.22,9.47,6.99,-0.05,-0.01,-0.12,0.0,t
3047.0,3007.0,2959.0,3741.0,3102.0,2790.0,2897.0,2482.0,1.24,9.47,7.05,-0.06,-0.06,-0.15,0.0,t
3042.0,3012.0,2943.0,3727.0,3099.0,2786.0,2895.0,2480.0,1.24,9.46,7.05,-0.09,-0.03,-0.16,0.0,t
3042.0,3007.0,2947.0,3731.0,3097.0,2789.0,2891.0,2480.0,1.14,9.41,7.23,-0.14,0.01,-0.15,0.0,t
3054.0,3021.0,2956.0,3747.0,3111.0,2796.0,2896.0,2480.0,1.17,9.31,7.45,-0.15,-0.07,-0.15,0.0,t
3038.0,3008.0,2942.0,3729.0,3103.0,2790.0,2889.0,2478.0,1.23,9.25,7.6,-0.16,-0.04,-0.14,0.0,t
3043.0,3007.0,2948.0,3733.0,3115.0,2796.0,2892.0,2480.0,1.36,9.17,7.78,-0.14,0.02,-0.12,0.0,t
3047.0,3008.0,2953.0,3730.0,3102.0,2789.0,2884.0,2480.0,1.73,9.07,7.89,-0.13,-0.02,-0.23,0.0,t
3053.0,3013.0,2957.0,3738.0,3115.0,2793.0,2891.0,2481.0,1.16,8.99,8.36,-0.1,-0.09,-0.36,0.0,t
3049.0,3015.0,2963.0,3733.0,3107.0,2789.0,2883.0,2480.0,0.94,9.06,8.18,-0.03,-0.04,-0.37,0.0,t
3035.0,3002.0,2945.0,3746.0,3120.0,2798.0,2895.0,2487.0,0.84,9.08,8.15,-0.04,-0.03,-0.39,0.0,t
3037.0,3006.0,2953.0,3728.0,3110.0,2796.0,2891.0,2483.0,0.79,9.05,8.16,-0.04,-0.05,-0.45,0.0,t
3042.0,3022.0,2960.0,3750.0,3119.0,2798.0,2895.0,2485.0,0.16,9.02,8.33,-0.05,-0.06,-0.49,0.0,t
3034.0,3014.0,2954.0,3730.0,3104.0,2791.0,2885.0,2485.0,-0.23,8.93,8.51,-0.02,-0.09,-0.46,0.0,t
3031.0,3006.0,2948.0,3745.0,3115.0,2799.0,2886.0,2482.0,-1.15,9.06,8.08,0.05,0.01,-0.18,0.0,t
3047.0,3027.0,2962.0,3773.0,3120.0,2800.0,2890.0,2491.0,-1.13,9.06,7.99,0.06,0.04,-0.16,0.0,t
3050.0,3015.0,2951.0,3749.0,3118.0,2795.0,2887.0,2487.0,-1.03,9.06,7.99,0.03,-0.01,-0.2,0.0,t
3049.0,3007.0,2960.0,3760.0,3123.0,2801.0,2891.0,2490.0,-1.32,9.02,8.12,0.01,-0.06,-0.24,0.0,t
3038.0,3013.0,2951.0,3744.0,3124.0,2800.0,2893.0,2490.0,-1.31,9.0,8.1,0.03,0.02,-0.2,0.0,t
3039.0,2997.0,2958.0,3747.0,3119.0,2802.0,2891.0,2491.0,-1.27,9.0,8.0,0.03,-0.01,-0.21,0.0,t
3045.0,3021.0,2962.0,3747.0,3131.0,2807.0,2897.0,2496.0,-1.39,9.01,7.99,0.03,-0.01,-0.18,0.0,t
3030.0,3003.0,2945.0,3751.0,3120.0,2801.0,2891.0,2489.0,-1.41,9.01,8.03,0.05,0.05,-0.16,0.0,t
3055.0,3005.0,2962.0,3748.0,3123.0,2807.0,2898.0,2493.0,-1.34,9.03,7.96,0.06,-0.04,-0.19,0.0,t
3039.0,3005.0,2949.0,3745.0,3115.0,2799.0,2891.0,2490.0,-1.5,9.07,7.87,0.05,-0.04,-0.18,0.0,t
3056.0,3021.0,2959.0,3747.0,3121.0,2810.0,2898.0,2492.0,-1.5,9.09,7.83,0.05,0.05,-0.15,0.0,t
3052.0,3019.0,2957.0,3741.0,3119.0,2800.0,2891.0,2492.0,-1.48,9.06,7.83,0.03,-0.02,-0.16,0.0,t
3042.0,3010.0,2956.0,3762.0,3125.0,2807.0,2891.0,2493.0,-1.47,9.06,7.84,0.03,0.04,-0.12,0.0,t
3045.0,3006.0,2958.0,3745.0,3120.0,2800.0,2883.0,2489.0,-1.38,9.09,7.8,0.04,0.01,-0.13,0.0,t
3056.0,3024.0,2947.0,3745.0,3124.0,2807.0,2897.0,2494.0,-1.31,9.11,7.71,0.04,-0.01,-0.15,0.0,t
3047.0,3009.0,2957.0,3728.0,3109.0,2798.0,2883.0,2490.0,-1.42,9.13,7.71,0.01,-0.05,-0.16,0.0,t
3046.0,3018.0,2966.0,3749.0,3120.0,2803.0,2892.0,2487.0,-1.5,9.11,7.74,0.01,0.02,-0.13,0.0,t
3057.0,3019.0,2962.0,3759.0,3124.0,2802.0,2896.0,2496.0,-1.4,9.07,7.83,0.02,0.01,-0.12,0.0,t
3054.0,3008.0,2949.0,3741.0,3115.0,2800.0,2892.0,2494.0,-1.52,9.11,7.75,0.02,-0.02,-0.1,0.0,t
3038.0,3014.0,2962.0,3758.0,3125.0,2811.0,2897.0,2496.0,-1.55,9.15,7.72,0.02,0.04,-0.02,0.0,t
3044.0,3014.0,2958.0,3743.0,3120.0,2804.0,2894.0,2497.0,-0.8,9.17,7.94,-0.05,-0.08,-0.36,0.0,t
3052.0,3018.0,2955.0,3759.0,3134.0,2819.0,2895.0,2497.0,-1.19,9.22,7.73,-0.01,-0.05,-0.26,0.0,t
3051.0,3002.0,2954.0,3743.0,3122.0,2806.0,2890.0,2496.0,-1.1,9.21,7.78,-0.02,0.01,-0.16,0.0,t
3055.0,3018.0,2950.0,3753.0,3126.0,2816.0,2901.0,2501.0,-1.08,9.17,7.81,0.01,0.05,-0.04,0.0,t
3045.0,3015.0,2954.0,3754.0,3122.0,2808.0,2893.0,2495.0,-0.99,9.22,7.78,0.03,0.14,0.04,0.0,t
3054.0,3011.0,2960.0,3767.0,3133.0,2807.0,2896.0,2497.0,-0.91,9.28,7.73,0.04,0.26,0.19,0.0,t
3034.0,3002.0,2949.0,3753.0,3126.0,2810.0,2893.0,2493.0,-0.03,9.15,7.81,0.0,0.08,0.19,0.0,t
3056.0,3021.0,2946.0,3760.0,3134.0,2815.0,2901.0,2503.0,0.56,9.05,8.09,0.07,-0.07,-0.17,0.0,t
3041.0,3008.0,2957.0,3755.0,3123.0,2809.0,2886.0,2496.0,0.11,9.4,7.35,0.12,0.04,-0.04,0.0,t
3058.0,3023.0,2960.0,3760.0,3135.0,2815.0,2897.0,2503.0,0.19,9.28,7.54,0.01,0.05,-0.14,0.0,t
3055.0,3015.0,2944.0,3737.0,3121.0,2813.0,2894.0,2499.0,-0.37,9.3,7.68,0.06,0.04,-0.14,0.0,t
3043.0,3022.0,2951.0,3751.0,3129.0,2808.0,2895.0,2500.0,0.2,9.37,7.45,0.08,0.04,-0.02,0.0,t
3056.0,3009.0,2962.0,3767.0,3130.0,2815.0,2896.0,2499.0,0.53,9.35,7.28,0.07,0.02,-0.31,0.0,t
3056.0,3005.0,2954.0,3755.0,3131.0,2815.0,2896.0,2498.0,-0.61,9.48,7.37,0.09,-0.04,-0.24,0.0,t
3049.0,3024.0,2960.0,3760.0,3137.0,2819.0,2898.0,2506.0,-0.38,9.45,7.13,0.09,-0.07,-0.11,0.0,t
3040.0,3003.0,2947.0,3757.0,3127.0,2812.0,2893.0,2499.0,0.06,9.44,7.13,0.03,0.05,-0.11,0.0,t
3054.0,3007.0,2950.0,3769.0,3137.0,2817.0,2896.0,2500.0,0.48,9.44,7.09,-0.02,0.03,-0.24,0.0,t
3035.0,3008.0,2960.0,3745.0,3133.0,2813.0,2894.0,2498.0,-0.26,9.27,7.54,-0.0,-0.13,-0.39,0.0,t
3067.0,3008.0,2961.0,3757.0,3135.0,2821.0,2903.0,2506.0,-0.94,9.36,7.35,0.07,-0.07,-0.29,0.0,t
3043.0,3020.0,2950.0,3759.0,3134.0,2816.0,2896.0,2495.0,-0.59,9.5,6.9,0.07,0.05,-0.17,0.0,t
3050.0,3003.0,2946.0,3733.0,3147.0,2787.0,2863.0,2451.0,-1.55,8.89,8.36,-0.17,0.02,-0.05,0.0,t
3053.0,3018.0,2960.0,3750.0,3155.0,2784.0,2850.0,2458.0,-0.8,9.22,7.83,0.47,0.36,-0.13,0.0,t
3047.0,3007.0,2957.0,3698.0,3136.0,2769.0,2851.0,2455.0,-1.02,9.99,5.14,0.86,-0.48,-1.07,0.0,t
3046.0,3018.0,2960.0,3682.0,3138.0,2782.0,2858.0,2455.0,-2.08,9.54,6.06,-0.71,0.04,-0.47,0.0,t
3054.0,3015.0,2949.0,3699.0,3136.0,2780.0,2853.0,2449.0,-1.97,8.29,9.62,-0.71,-0.24,-0.17,0.0,t
3056.0,3009.0,2960.0,3712.0,3150.0,2789.0,2861.0,2458.0,-0.93,8.19,9.49,-0.45,0.19,-0.03,0.0,t
3041.0,3006.0,2955.0,3708.0,3142.0,2781.0,2854.0,2455.0,-1.25,8.27,9.59,-0.29,0.31,-0.08,0.0,t
3039.0,3019.0,2969.0,3728.0,3152.0,2789.0,2866.0,2461.0,-2.19,8.37,9.04,-0.07,0.48,-0.0,0.0,t
3039.0,3014.0,2955.0,3696.0,3108.0,2790.0,2863.0,2458.0,-1.41,8.38,8.96,-0.14,0.25,-0.1,0.0,t
3039.0,3004.0,2959.0,3664.0,3063.0,2791.0,2861.0,2459.0,-2.52,7.8,10.08,-0.34,0.5,0.19,0.0,t
3055.0,3011.0,2957.0,3693.0,3071.0,2800.0,2865.0,2467.0,-1.44,7.81,10.16,-0.14,0.08,0.19,0.0,t
3050.0,3002.0,2954.0,3693.0,3071.0,2800.0,2867.0,2462.0,-0.51,7.73,9.7,-0.07,-0.32,-0.1,0.0,t
3064.0,3019.0,2964.0,3698.0,3085.0,2801.0,2871.0,2471.0,-2.3,7.93,10.28,0.28,-0.46,-0.43,0.0,t
3045.0,3006.0,2958.0,3706.0,3088.0,2803.0,2867.0,2459.0,-2.02,8.28,9.7,0.38,-0.52,-0.27,0.0,t
3056.0,3009.0,2962.0,3713.0,3088.0,2807.0,2874.0,2467.0,-0.98,8.35,8.91,0.41,-0.42,-0.38,0.0,t
3053.0,3011.0,2957.0,3697.0,3082.0,2797.0,2869.0,2462.0,-1.44,8.57,8.55,0.66,-0.38,-0.46,0.0,t
3044.0,3021.0,2960.0,3718.0,3097.0,2809.0,2881.0,2466.0,-1.82,8.96,7.9,0.68,-0.12,-0.04,0.0,t
3046.0,3007.0,2960.0,3711.0,3088.0,2802.0,2867.0,2461.0,-0.87,9.34,6.9,0.49,-0.16,0.07,0.0,t
3055.0,3012.0,2956.0,3722.0,3101.0,2809.0,2880.0,2467.0,-0.41,9.61,6.41,0.47,-0.03,-0.21,0.0,t
3049.0,3013.0,2952.0,3718.0,3095.0,2802.0,2874.0,2469.0,-1.6,9.52,6.78,0.24,-0.31,-0.35,0.0,t
3058.0,3248.0,3010.0,3889.0,3069.0,2748.0,2929.0,2352.0,-1.58,9.24,7.35,0.15,0.28,0.05,0.0,t
3056.0,3243.0,3009.0,3891.0,3081.0,2755.0,2928.0,2352.0,-1.72,9.39,7.02,0.13,0.45,0.16,0.0,t
3056.0,3245.0,3019.0,3902.0,3088.0,2754.0,2926.0,2352.0,-1.07,9.39,6.96,-0.0,0.05,0.12,0.0,t
3057.0,3259.0,3024.0,3909.0,3088.0,2737.0,2928.0,2355.0,-0.46,9.43,7.03,-0.15,-0.05,0.02,0.0,t
3046.0,3235.0,3013.0,3909.0,3088.0,2737.0,2927.0,2354.0,-1.06,9.26,7.67,-0.09,0.13,0.01,0.0,t
3056.0,3255.0,3015.0,3915.0,3089.0,2745.0,2938.0,2363.0,-0.4,9.39,7.44,-0.07,-0.1,-0.03,0.0,t
3046.0,3241.0,3018.0,3920.0,3106.0,2745.0,2933.0,2358.0,-0.56,9.25,7.7,-0.09,-0.0,-0.1,0.0,t
3053.0,3248.0,3024.0,3942.0,3095.0,2739.0,2929.0,2356.0,-0.46,9.15,7.81,-0.02,0.03,-0.08,0.0,t
3056.0,3250.0,3021.0,3959.0,3101.0,2740.0,2937.0,2366.0,-0.09,9.22,7.71,-0.04,-0.09,-0.18,0.0,t
3045.0,3247.0,2998.0,3941.0,3101.0,2741.0,2939.0,2359.0,-0.05,9.23,7.75,-0.11,0.08,-0.23,0.0,t
3056.0,3237.0,3021.0,3952.0,3106.0,2751.0,2944.0,2363.0,-0.54,9.44,7.87,-0.27,-0.01,-0.22,0.0,t
3053.0,3248.0,3001.0,3951.0,3097.0,2741.0,2940.0,2365.0,-0.15,9.33,9.27,-0.07,-0.05,-0.03,0.0,t
3057.0,3263.0,3029.0,3985.0,3118.0,2750.0,2942.0,2366.0,-0.05,9.21,9.17,0.25,-0.24,0.03,0.0,t
3047.0,3237.0,3009.0,3957.0,3103.0,2746.0,2943.0,2367.0,0.72,8.86,8.57,0.35,-0.15,0.11,0.0,t
3054.0,3255.0,3010.0,3955.0,3120.0,2755.0,2958.0,2369.0,-0.17,8.31,7.26,0.21,-0.25,-0.41,0.0,t
3047.0,3238.0,3006.0,3952.0,3115.0,2752.0,2950.0,2367.0,0.45,8.03,6.89,0.27,-0.02,0.09,0.0,t
3056.0,3244.0,3024.0,3968.0,3120.0,2758.0,2953.0,2371.0,-0.53,9.72,7.04,-0.11,-0.17,-0.38,0.0,t
3056.0,3252.0,3008.0,3959.0,3120.0,2758.0,2953.0,2372.0,-0.54,10.78,7.24,-0.12,-0.04,-0.09,0.0,t
3050.0,3259.0,3014.0,3972.0,3105.0,2756.0,2953.0,2371.0,0.16,8.81,7.4,-0.3,-0.01,-0.07,0.0,t
3055.0,3253.0,3025.0,3981.0,3121.0,2758.0,2955.0,2373.0,0.05,8.87,8.12,-0.21,-0.14,-0.15,0.0,t
3058.0,3246.0,3023.0,3988.0,3122.0,2764.0,2962.0,2375.0,0.57,9.16,8.08,0.03,-0.0,-0.18,0.0,t
3053.0,3252.0,3012.0,3979.0,3119.0,2758.0,2955.0,2369.0,0.45,9.11,7.98,0.05,-0.07,-0.24,0.0,t
3045.0,3253.0,3024.0,4001.0,3126.0,2757.0,2960.0,2379.0,0.07,9.14,8.08,-0.03,-0.01,-0.2,0.0,t
3047.0,3249.0,3019.0,3988.0,3121.0,2755.0,2959.0,2368.0,0.24,9.06,8.3,-0.02,0.03,-0.14,0.0,t
3057.0,3261.0,3013.0,3980.0,3127.0,2763.0,2965.0,2377.0,0.25,8.96,8.51,0.07,0.02,-0.13,0.0,t
3056.0,3248.0,3023.0,3983.0,3128.0,2767.0,2966.0,2384.0,0.46,9.05,8.12,0.09,0.03,-0.16,0.0,t
3054.0,3248.0,3019.0,3993.0,3126.0,2763.0,2959.0,2372.0,0.23,9.18,7.94,0.12,0.06,-0.18,0.0,t
3056.0,3262.0,3012.0,4011.0,3134.0,2766.0,2964.0,2378.0,-0.04,9.25,7.8,0.12,0.19,-0.07,0.0,t
3053.0,3238.0,3011.0,3988.0,3127.0,2757.0,2963.0,2371.0,-0.12,9.24,7.8,0.12,0.3,0.05,0.0,t
3067.0,3257.0,3018.0,3995.0,3136.0,2768.0,2971.0,2384.0,0.38,9.37,7.25,0.03,0.21,0.09,0.0,t
3055.0,3239.0,3006.0,3995.0,3131.0,2762.0,2965.0,2375.0,0.52,9.31,7.58,-0.07,0.28,0.1,0.0,t
3049.0,3239.0,3014.0,4018.0,3139.0,2768.0,2968.0,2381.0,0.66,9.25,7.73,-0.17,0.1,0.07,0.0,t
3056.0,3249.0,3023.0,3999.0,3130.0,2763.0,2960.0,2378.0,1.06,9.07,7.91,-0.2,0.1,0.03,0.0,t
3065.0,3261.0,3029.0,4012.0,3132.0,2767.0,2971.0,2382.0,1.01,8.94,8.43,-0.23,-0.01,-0.03,0.0,t
3062.0,3248.0,3022.0,3990.0,3120.0,2762.0,2960.0,2379.0,0.86,8.8,8.82,-0.19,-0.06,-0.0,0.0,t
3062.0,3249.0,3015.0,3997.0,3141.0,2774.0,2972.0,2383.0,1.23,8.78,8.57,-0.31,0.07,0.02,0.0,t
3045.0,3248.0,3009.0,3995.0,3136.0,2765.0,2961.0,2374.0,1.62,8.48,9.33,-0.26,-0.07,-0.03,0.0,t
3058.0,3253.0,3006.0,3987.0,3130.0,2767.0,2963.0,2378.0,1.57,8.58,9.78,-0.12,0.03,-0.15,0.0,t
3054.0,3247.0,3019.0,3997.0,3143.0,2771.0,2973.0,2380.0,1.46,8.28,9.72,-0.03,0.03,-0.04,0.0,t
3056.0,3249.0,3011.0,3991.0,3126.0,2768.0,2965.0,2377.0,1.48,8.36,9.56,0.05,-0.02,-0.03,0.0,t
3063.0,3264.0,3014.0,4030.0,3146.0,2773.0,2969.0,2385.0,2.07,8.52,8.85,0.25,-0.05,-0.4,0.0,t
3057.0,3251.0,3011.0,4011.0,3141.0,2774.0,2973.0,2383.0,1.99,8.72,8.45,0.12,-0.12,-0.44,0.0,t
3055.0,3257.0,3017.0,4029.0,3147.0,2775.0,2977.0,2385.0,1.74,8.68,8.63,0.1,-0.09,-0.44,0.0,t
3051.0,3261.0,3022.0,4027.0,3144.0,2769.0,2970.0,2382.0,1.39,8.79,8.56,0.1,-0.07,-0.42,0.0,t
3055.0,3244.0,3024.0,4003.0,3139.0,2768.0,2971.0,2379.0,1.54,8.82,8.48,0.06,-0.13,-0.44,0.0,t
3061.0,3253.0,3024.0,4013.0,3141.0,2774.0,2979.0,2390.0,1.47,8.79,8.57,0.03,-0.21,-0.49,0.0,t
3044.0,3245.0,3006.0,4018.0,3146.0,2774.0,2969.0,2383.0,0.57,8.93,8.48,0.13,-0.18,-0.53,0.0,t
3069.0,3243.0,3024.0,4032.0,3148.0,2775.0,2982.0,2385.0,0.49,9.08,7.99,0.06,-0.12,-0.42,0.0,t
3040.0,3242.0,3015.0,4019.0,3142.0,2773.0,2973.0,2381.0,0.45,9.1,8.02,-0.01,-0.08,-0.35,0.0,t
3056.0,3254.0,3034.0,4023.0,3146.0,2775.0,2979.0,2386.0,0.38,9.0,8.3,-0.06,-0.1,-0.37,0.0,t
3053.0,3248.0,3018.0,4012.0,3141.0,2774.0,2973.0,2386.0,-0.08,8.92,8.55,-0.01,-0.08,-0.37,0.0,t
3056.0,3267.0,3025.0,4043.0,3152.0,2775.0,2977.0,2385.0,0.02,8.94,8.43,-0.02,-0.09,-0.38,0.0,t
3053.0,3244.0,3015.0,4016.0,3150.0,2770.0,2971.0,2387.0,-0.34,8.93,8.48,-0.01,-0.11,-0.4,0.0,t
3047.0,3261.0,3024.0,4033.0,3155.0,2779.0,2981.0,2386.0,-0.67,8.95,8.48,-0.02,-0.1,-0.42,0.0,t
3052.0,3247.0,3022.0,4029.0,3143.0,2779.0,2981.0,2389.0,-1.03,8.85,8.62,-0.02,-0.07,-0.33,0.0,t
3056.0,3241.0,3023.0,4019.0,3146.0,2771.0,2975.0,2387.0,-0.87,8.77,8.77,0.0,-0.03,-0.24,0.0,t
3059.0,3253.0,3028.0,4040.0,3152.0,2773.0,2982.0,2387.0,-0.75,8.79,8.67,0.05,-0.05,-0.24,0.0,t
3050.0,3248.0,3023.0,4032.0,3145.0,2770.0,2973.0,2384.0,-0.85,8.78,8.64,0.08,-0.02,-0.23,0.0,t
3056.0,3257.0,3024.0,4039.0,3152.0,2779.0,2980.0,2397.0,-1.06,8.86,8.47,0.1,0.06,-0.19,0.0,t
3043.0,3249.0,3014.0,4011.0,3141.0,2773.0,2980.0,2389.0,-1.08,8.91,8.44,0.11,0.11,-0.15,0.0,t
3051.0,3255.0,3013.0,4032.0,3151.0,2772.0,2973.0,2390.0,-1.24,9.16,7.77,0.1,0.06,-0.11,0.0,t
3057.0,3267.0,3024.0,4046.0,3153.0,2772.0,2974.0,2387.0,-1.13,9.18,7.74,0.07,0.04,-0.12,0.0,t
3051.0,3253.0,3014.0,4041.0,3159.0,2781.0,2979.0,2397.0,-1.26,9.19,7.73,0.06,0.07,-0.07,0.0,t
3041.0,3243.0,3008.0,4039.0,3152.0,2782.0,2971.0,2391.0,-0.99,9.2,7.62,0.04,0.0,-0.07,0.0,t
3051.0,3255.0,3023.0,4047.0,3154.0,2783.0,2979.0,2403.0,-0.91,9.21,7.65,0.05,0.01,-0.03,0.0,t
3043.0,3248.0,3009.0,4032.0,3152.0,2778.0,2975.0,2396.0,-0.66,9.23,7.68,0.04,0.02,-0.09,0.0,t
3051.0,3254.0,3012.0,4050.0,3157.0,2780.0,2983.0,2399.0,-0.8,9.29,7.56,0.05,-0.02,-0.12,0.0,t
3057.0,3257.0,3019.0,4026.0,3147.0,2774.0,2980.0,2399.0,-0.83,9.29,7.46,0.07,0.01,-0.11,0.0,t
3047.0,3248.0,3014.0,4053.0,3159.0,2780.0,2983.0,2401.0,-0.63,9.32,7.42,0.06,0.02,-0.11,0.0,t
3057.0,3247.0,3008.0,4041.0,3153.0,2784.0,2977.0,2394.0,-0.77,9.3,7.42,0.04,-0.08,-0.13,0.0,t
3053.0,3261.0,3035.0,4054.0,3154.0,2782.0,2983.0,2400.0,-0.73,9.34,7.37,0.05,0.03,-0.03,0.0,t
3055.0,3249.0,3013.0,4032.0,3150.0,2778.0,2979.0,2400.0,-0.56,9.36,7.35,0.04,0.02,-0.02,0.0,t
3059.0,3259.0,3014.0,4048.0,3163.0,2789.0,2982.0,2400.0,-0.33,9.42,7.2,0.03,0.11,-0.01,0.0,t
3050.0,3255.0,3024.0,4045.0,3163.0,2789.0,2987.0,2402.0,-0.23,9.41,7.25,0.03,0.07,-0.05,0.0,t
3044.0,3239.0,3014.0,4028.0,3150.0,2783.0,2985.0,2402.0,-0.25,9.39,7.37,0.03,0.03,-0.05,0.0,t
3062.0,3247.0,3023.0,4048.0,3152.0,2784.0,2983.0,2405.0,-0.18,9.41,7.25,0.01,0.05,-0.04,0.0,t
3056.0,3251.0,3015.0,4029.0,3154.0,2785.0,2981.0,2405.0,-0.04,9.42,7.28,0.01,0.06,-0.01,0.0,t
3063.0,3263.0,3014.0,4039.0,3162.0,2787.0,2990.0,2413.0,0.17,9.41,7.29,0.04,0.04,-0.03,0.0,t
3050.0,3252.0,3009.0,4036.0,3152.0,2783.0,2986.0,2403.0,0.28,9.39,7.24,0.02,0.03,-0.02,0.0,t
3057.0,3263.0,3029.0,4060.0,3155.0,2791.0,2989.0,2411.0,0.59,9.39,7.15,0.01,0.03,-0.04,0.0,t
3040.0,3243.0,3017.0,4045.0,3151.0,2786.0,2990.0,2409.0,0.81,8.87,8.75,-0.05,-0.05,-0.15,0.0,t
3061.0,3253.0,3023.0,4047.0,3155.0,2797.0,2995.0,2414.0,0.57,8.91,8.59,0.03,-0.07,-0.21,0.0,t
3044.0,3245.0,3013.0,4041.0,3158.0,2783.0,2987.0,2406.0,0.44,9.13,7.99,0.01,-0.02,-0.15,0.0,t
3056.0,3248.0,3015.0,4055.0,3161.0,2783.0,2985.0,2416.0,0.52,9.09,8.11,-0.04,-0.02,-0.12,0.0,t
3042.0,3241.0,3026.0,4045.0,3153.0,2786.0,2989.0,2407.0,0.61,8.95,8.4,-0.16,0.04,-0.09,0.0,t
3056.0,3261.0,3022.0,4063.0,3166.0,2787.0,2989.0,2406.0,0.88,8.78,8.85,-0.09,-0.06,-0.16,0.0,t
3042.0,3253.0,3008.0,4037.0,3160.0,2790.0,2983.0,2410.0,0.67,8.81,8.84,-0.03,-0.06,-0.2,0.0,t
3056.0,3248.0,3026.0,4051.0,3159.0,2785.0,2983.0,2412.0,0.53,8.9,8.58,0.01,-0.01,-0.16,0.0,t
3055.0,3242.0,3017.0,4059.0,3166.0,2795.0,2992.0,2413.0,0.66,8.77,8.78,-0.09,0.01,-0.12,0.0,t
3041.0,3235.0,3011.0,4035.0,3156.0,2790.0,2991.0,2412.0,0.84,8.74,8.89,-0.04,-0.04,-0.18,0.0,t
3057.0,3248.0,3019.0,4048.0,3161.0,2796.0,2987.0,2413.0,0.61,8.72,8.92,-0.03,-0.08,-0.21,0.0,t
3052.0,3259.0,3012.0,4048.0,3152.0,2786.0,2986.0,2411.0,0.49,8.72,8.91,-0.01,0.0,-0.16,0.0,t
3061.0,3262.0,3021.0,4057.0,3166.0,2798.0,2993.0,2414.0,0.56,8.73,8.95,-0.03,0.01,-0.14,0.0,t
3046.0,3245.0,3017.0,4044.0,3155.0,2786.0,2985.0,2409.0,0.75,8.8,8.54,-0.09,-0.0,-0.16,0.0,t
3054.0,3255.0,3026.0,4054.0,3163.0,2795.0,2993.0,2413.0,0.6,8.57,9.22,-0.18,-0.02,-0.19,0.0,t
3058.0,3245.0,3011.0,4022.0,3154.0,2789.0,2988.0,2408.0,0.51,8.42,9.62,-0.11,-0.04,-0.18,0.0,t
3051.0,3247.0,3007.0,4046.0,3166.0,2795.0,2988.0,2416.0,0.57,8.43,9.43,-0.04,-0.01,-0.16,0.0,t
3057.0,3253.0,3007.0,4048.0,3159.0,2794.0,2990.0,2407.0,0.57,8.42,9.48,-0.03,0.02,-0.16,0.0,t
3054.0,3257.0,3014.0,4032.0,3161.0,2797.0,2992.0,2414.0,0.52,8.44,9.49,-0.02,0.01,-0.18,0.0,t
3059.0,3248.0,3020.0,4033.0,3157.0,2791.0,2992.0,2416.0,0.42,8.44,9.46,-0.01,-0.04,-0.18,0.0,t
3045.0,3245.0,3010.0,4048.0,3162.0,2791.0,2991.0,2415.0,0.37,8.36,9.56,0.02,-0.02,-0.21,0.0,t
3059.0,3248.0,3013.0,4043.0,3169.0,2798.0,2998.0,2416.0,0.39,8.32,9.73,0.02,-0.04,-0.18,0.0,t
3047.0,3254.0,3011.0,4050.0,3162.0,2795.0,2987.0,2413.0,0.38,8.26,9.85,0.1,0.01,-0.16,0.0,t
3071.0,3263.0,3021.0,4059.0,3169.0,2795.0,2992.0,2418.0,0.3,8.51,9.29,0.14,-0.01,-0.15,0.0,t
3046.0,3242.0,3021.0,4039.0,3161.0,2794.0,2990.0,2416.0,0.3,8.54,9.29,0.13,0.03,-0.13,0.0,t
3046.0,3257.0,3026.0,4065.0,3163.0,2795.0,2991.0,2415.0,0.38,8.56,9.29,0.13,0.02,-0.12,0.0,t
3059.0,3264.0,3019.0,4041.0,3165.0,2799.0,3003.0,2421.0,0.56,8.54,9.24,0.14,-0.01,-0.15,0.0,t
3051.0,3257.0,3007.0,4043.0,3162.0,2793.0,2992.0,2416.0,0.4,8.71,8.95,0.16,-0.03,-0.15,0.0,t
3051.0,3254.0,3011.0,4042.0,3169.0,2799.0,2995.0,2421.0,0.3,8.82,8.77,0.15,0.02,-0.13,0.0,t
3051.0,3262.0,3015.0,4049.0,3162.0,2789.0,2989.0,2415.0,0.38,8.87,8.6,0.11,0.07,-0.11,0.0,t
3057.0,3248.0,3021.0,4059.0,3174.0,2800.0,2992.0,2421.0,0.5,8.84,8.68,0.07,0.05,-0.13,0.0,t
3043.0,3249.0,3019.0,4053.0,3167.0,2791.0,2991.0,2416.0,0.51,8.85,8.6,0.07,-0.07,-0.13,0.0,t
3059.0,3261.0,3027.0,4054.0,3171.0,2799.0,2994.0,2422.0,0.41,8.93,8.51,0.09,-0.05,-0.13,0.0,t
3047.0,3248.0,3005.0,4045.0,3170.0,2795.0,2992.0,2416.0,0.33,9.01,8.34,0.1,0.09,-0.05,0.0,t
3063.0,3250.0,3020.0,4044.0,3166.0,2801.0,3004.0,2429.0,0.65,8.97,8.37,-0.0,0.07,-0.08,0.0,t
3056.0,3250.0,3014.0,4060.0,3165.0,2790.0,2992.0,2418.0,0.73,8.98,8.5,0.04,-0.01,-0.15,0.0,t
3053.0,3264.0,3018.0,4062.0,3171.0,2799.0,2993.0,2424.0,0.29,8.99,8.47,0.04,0.02,-0.14,0.0,t
3054.0,3251.0,3008.0,4064.0,3169.0,2795.0,2992.0,2419.0,0.56,8.94,8.49,0.09,0.07,-0.05,0.0,t
3056.0,3248.0,3015.0,4045.0,3163.0,2795.0,2994.0,2423.0,0.73,8.99,8.37,0.06,0.04,-0.08,0.0,t
3057.0,3252.0,3023.0,4055.0,3170.0,2798.0,2993.0,2429.0,0.75,9.05,8.26,0.07,0.01,-0.08,0.0,t
3053.0,3248.0,3010.0,4037.0,3168.0,2791.0,2992.0,2423.0,1.11,9.06,8.23,-0.01,-0.01,-0.14,0.0,t
3051.0,3251.0,3009.0,4065.0,3182.0,2800.0,3001.0,2427.0,1.14,9.1,8.09,-0.02,0.01,-0.11,0.0,t
3047.0,3248.0,3021.0,4048.0,3168.0,2793.0,2992.0,2422.0,1.23,8.99,8.31,0.01,0.04,-0.12,0.0,t
3061.0,3269.0,3018.0,4045.0,3162.0,2789.0,2991.0,2423.0,1.24,9.07,8.04,0.03,0.03,-0.13,0.0,t
3055.0,3263.0,3021.0,4057.0,3174.0,2803.0,3001.0,2429.0,1.2,9.08,8.04,0.01,-0.05,-0.15,0.0,t
3043.0,3245.0,3022.0,4083.0,3171.0,2795.0,2991.0,2419.0,1.26,9.02,8.21,-0.03,0.0,-0.15,0.0,t
3055.0,3257.0,3014.0,4071.0,3173.0,2797.0,2995.0,2427.0,1.13,8.92,8.5,0.01,-0.07,-0.2,0.0,t
3058.0,3247.0,3015.0,4047.0,3169.0,2794.0,2995.0,2421.0,1.09,9.09,8.07,0.04,-0.06,-0.18,0.0,t
3053.0,3251.0,3018.0,4083.0,3175.0,2791.0,2996.0,2425.0,1.09,9.04,8.22,0.02,-0.08,-0.18,0.0,t
3042.0,3250.0,3019.0,4051.0,3165.0,2797.0,2992.0,2426.0,1.37,8.96,8.39,0.08,-0.01,-0.18,0.0,t
3047.0,3263.0,3017.0,4066.0,3174.0,2800.0,2998.0,2427.0,1.24,9.23,7.62,0.08,-0.05,-0.19,0.0,t
3044.0,3251.0,3008.0,4065.0,3173.0,2797.0,2989.0,2423.0,1.01,9.1,7.93,-0.1,-0.08,-0.15,0.0,t
3054.0,3257.0,3018.0,4067.0,3173.0,2799.0,2997.0,2432.0,1.43,8.85,8.7,-0.01,-0.03,-0.16,0.0,t
3048.0,3239.0,3019.0,4045.0,3170.0,2798.0,2995.0,2425.0,1.11,9.04,8.3,0.07,-0.07,-0.25,0.0,t
3056.0,3251.0,3012.0,4079.0,3183.0,2800.0,3001.0,2430.0,0.89,9.2,7.87,0.03,-0.06,-0.19,0.0,t
3055.0,3263.0,3018.0,4067.0,3168.0,2799.0,2995.0,2431.0,0.8,9.25,7.68,-0.0,0.06,-0.09,0.0,t
3049.0,3254.0,3018.0,4054.0,3169.0,2795.0,2989.0,2426.0,1.38,9.19,7.7,-0.05,0.08,-0.0,0.0,t
3055.0,3257.0,3023.0,4058.0,3174.0,2800.0,3007.0,2433.0,1.8,8.69,9.08,-0.14,-0.02,-0.15,0.0,t
3053.0,3254.0,3020.0,4058.0,3174.0,2800.0,2992.0,2427.0,1.32,8.85,8.61,0.09,-0.13,-0.29,0.0,t
3056.0,3271.0,3012.0,4054.0,3171.0,2797.0,3004.0,2434.0,0.39,9.23,7.91,0.11,-0.39,-0.31,0.0,t
3047.0,3246.0,3021.0,4075.0,3184.0,2802.0,3002.0,2426.0,1.17,9.03,8.25,0.07,-0.03,-0.26,0.0,t
3056.0,3254.0,3025.0,4066.0,3179.0,2795.0,2991.0,2430.0,0.86,9.22,7.83,0.06,0.24,-0.08,0.0,t
3052.0,3265.0,3024.0,4080.0,3183.0,2799.0,2993.0,2435.0,1.32,9.13,7.8,-0.03,-0.06,-0.12,0.0,t
3045.0,3248.0,3024.0,4063.0,3184.0,2795.0,2990.0,2432.0,1.46,8.88,8.48,-0.11,0.02,-0.15,0.0,t
3045.0,3265.0,3010.0,4070.0,3182.0,2794.0,2992.0,2430.0,1.62,8.9,8.33,-0.08,0.06,-0.28,0.0,t
3056.0,3259.0,3024.0,4074.0,3185.0,2800.0,3006.0,2439.0,0.81,8.71,9.0,-0.11,0.01,-0.39,0.0,t
3050.0,3237.0,3009.0,4070.0,3184.0,2797.0,2992.0,2431.0,0.23,8.89,8.6,-0.03,0.07,-0.19,0.0,t
3065.0,3260.0,3024.0,4095.0,3184.0,2799.0,2994.0,2429.0,0.45,8.82,8.93,0.03,-0.04,-0.12,0.0,t
3039.0,3253.0,3014.0,4069.0,3183.0,2799.0,3001.0,2434.0,0.94,9.05,8.13,0.11,-0.08,-0.09,0.0,t
3055.0,3258.0,3013.0,4083.0,3188.0,2803.0,3003.0,2436.0,1.1,9.03,8.19,-0.13,-0.01,-0.1,0.0,t
3053.0,3259.0,3009.0,4069.0,3181.0,2798.0,2992.0,2429.0,0.77,8.83,8.51,-0.22,-0.08,-0.14,0.0,t
3055.0,3250.0,3025.0,4090.0,3184.0,2803.0,2999.0,2432.0,0.97,8.55,9.3,-0.2,0.03,-0.13,0.0,t
3052.0,3253.0,3011.0,4072.0,3184.0,2797.0,2992.0,2429.0,1.15,8.45,9.45,-0.07,-0.01,-0.17,0.0,t
3051.0,3255.0,3014.0,4095.0,3190.0,2800.0,2994.0,2433.0,0.99,8.42,9.41,-0.09,0.01,-0.18,0.0,t
3051.0,3254.0,3019.0,4079.0,3184.0,2797.0,2994.0,2430.0,0.96,8.49,9.36,0.11,0.17,-0.16,0.0,t
3056.0,3268.0,3012.0,4077.0,3184.0,2806.0,3008.0,2434.0,0.78,8.51,9.25,-0.07,0.06,-0.13,0.0,t
3069.0,3263.0,3027.0,4075.0,3186.0,2805.0,3005.0,2436.0,0.84,8.38,9.65,-0.01,0.07,-0.19,0.0,t
3057.0,3255.0,3021.0,4071.0,3175.0,2793.0,2994.0,2437.0,0.65,8.44,9.57,0.13,-0.04,-0.25,0.0,t
3057.0,3263.0,3020.0,4082.0,3186.0,2802.0,3003.0,2434.0,0.81,8.57,9.16,0.24,-0.04,-0.28,0.0,t
3044.0,3251.0,3015.0,4085.0,3183.0,2800.0,2992.0,2434.0,0.7,8.78,8.83,0.16,-0.06,-0.25,0.0,t
3051.0,3255.0,3011.0,4069.0,3192.0,2800.0,2996.0,2438.0,0.7,9.0,8.32,0.15,0.09,-0.16,0.0,t
3043.0,3255.0,3009.0,4079.0,3191.0,2800.0,3003.0,2438.0,0.89,8.98,8.2,-0.03,-0.05,-0.3,0.0,t
3047.0,3243.0,3019.0,4073.0,3189.0,2800.0,2999.0,2439.0,0.12,8.85,8.68,-0.03,-0.16,-0.4,0.0,t
3047.0,3254.0,3019.0,4053.0,3182.0,2800.0,2996.0,2437.0,-0.1,8.83,8.85,0.06,-0.05,-0.25,0.0,t
3057.0,3264.0,3026.0,4086.0,3200.0,2801.0,3004.0,2438.0,0.42,8.92,8.43,0.08,-0.11,-0.32,0.0,t
3056.0,3246.0,3018.0,4070.0,3184.0,2796.0,2994.0,2433.0,-0.06,9.03,8.27,0.04,-0.02,-0.29,0.0,t
3056.0,3257.0,3011.0,4058.0,3183.0,2803.0,3006.0,2434.0,-0.25,8.91,8.52,-0.03,-0.08,-0.25,0.0,t
3044.0,3247.0,3018.0,4061.0,3183.0,2796.0,2991.0,2431.0,-0.2,8.85,8.78,0.06,-0.05,-0.2,0.0,t
3056.0,3251.0,3021.0,4077.0,3187.0,2807.0,3003.0,2441.0,-0.2,8.97,8.41,0.08,-0.02,-0.18,0.0,t
3053.0,3254.0,3019.0,4052.0,3184.0,2801.0,2997.0,2435.0,-0.25,9.03,8.34,0.08,-0.05,-0.18,0.0,t
3055.0,3253.0,3026.0,4077.0,3186.0,2800.0,2999.0,2439.0,-0.26,9.01,8.36,0.01,-0.16,-0.19,0.0,t
3056.0,3250.0,3015.0,4044.0,3193.0,2797.0,2992.0,2416.0,-0.2,9.0,8.31,0.14,0.05,-0.15,0.0,t
3062.0,3254.0,3014.0,4050.0,3200.0,2800.0,2997.0,2430.0,-0.2,9.1,8.11,0.13,0.04,-0.14,0.0,t
3042.0,3248.0,3024.0,4039.0,3200.0,2799.0,2993.0,2429.0,-0.27,9.15,7.96,0.08,0.03,-0.12,0.0,t
3046.0,3258.0,3022.0,4047.0,3208.0,2800.0,2999.0,2426.0,-0.33,9.16,8.07,0.1,0.05,-0.05,0.0,t
3056.0,3255.0,3015.0,4048.0,3215.0,2804.0,3002.0,2434.0,0.15,9.16,7.91,0.08,0.04,-0.07,0.0,t
3042.0,3253.0,3011.0,4048.0,3200.0,2797.0,2995.0,2423.0,0.21,9.18,7.9,0.06,-0.03,-0.12,0.0,t
3055.0,3254.0,3018.0,4048.0,3211.0,2802.0,3003.0,2432.0,-0.03,9.26,7.79,0.03,-0.03,-0.11,0.0,t
3055.0,3255.0,3009.0,4048.0,3206.0,2796.0,2993.0,2428.0,0.03,9.19,7.97,0.04,0.07,-0.09,0.0,t
3049.0,3266.0,3019.0,4055.0,3206.0,2800.0,2996.0,2435.0,0.19,9.26,7.69,0.07,0.04,-0.1,0.0,t
3046.0,3261.0,3013.0,4048.0,3216.0,2807.0,3008.0,2442.0,0.27,9.3,7.66,-0.01,0.09,0.02,0.0,t
3055.0,3257.0,3008.0,4035.0,3203.0,2795.0,2992.0,2437.0,0.67,9.31,7.68,0.01,0.05,0.02,0.0,t
3061.0,3263.0,3021.0,4048.0,3207.0,2806.0,3001.0,2445.0,0.84,9.33,7.53,0.02,0.06,-0.02,0.0,t
3043.0,3248.0,3010.0,4045.0,3207.0,2799.0,2997.0,2435.0,1.01,9.35,7.4,-0.01,-0.02,-0.09,0.0,t
3056.0,3251.0,3015.0,4050.0,3211.0,2809.0,3001.0,2437.0,0.95,9.24,7.71,-0.07,0.02,-0.08,0.0,t
3056.0,3255.0,3023.0,4045.0,3201.0,2800.0,2993.0,2437.0,0.98,9.25,7.7,-0.05,0.03,-0.08,0.0,t
3059.0,3265.0,3014.0,4043.0,3209.0,2803.0,3009.0,2446.0,1.21,9.17,7.82,-0.06,-0.09,-0.13,0.0,t
3045.0,3254.0,3022.0,4048.0,3210.0,2799.0,3001.0,2434.0,1.09,9.23,7.78,-0.06,0.02,-0.11,0.0,t
3056.0,3249.0,3030.0,4077.0,3219.0,2807.0,3005.0,2438.0,1.03,9.23,7.71,-0.07,0.03,-0.1,0.0,t
3051.0,3260.0,3024.0,4045.0,3207.0,2803.0,2999.0,2435.0,1.18,9.06,8.01,-0.22,0.05,-0.09,0.0,t
3055.0,3255.0,3018.0,4051.0,3215.0,2806.0,3009.0,2441.0,1.18,8.95,8.45,-0.16,0.03,-0.1,0.0,t
3051.0,3257.0,3024.0,4047.0,3205.0,2799.0,3001.0,2438.0,1.38,8.79,8.84,-0.05,-0.07,-0.17,0.0,t
3054.0,3253.0,3023.0,4039.0,3205.0,2799.0,3003.0,2438.0,1.35,8.99,8.15,0.02,-0.03,-0.19,0.0,t
3052.0,3248.0,3024.0,4048.0,3216.0,2802.0,2998.0,2442.0,1.34,8.86,8.61,-0.08,-0.06,-0.25,0.0,t
3059.0,3248.0,3024.0,4042.0,3215.0,2800.0,2995.0,2430.0,1.07,8.85,8.63,0.03,-0.08,-0.29,0.0,t
3059.0,3249.0,3028.0,4071.0,3216.0,2803.0,3002.0,2438.0,0.79,8.97,8.36,0.05,-0.05,-0.22,0.0,t
3043.0,3249.0,3011.0,4049.0,3212.0,2800.0,3003.0,2439.0,0.78,8.91,8.53,-0.0,-0.05,-0.16,0.0,t
3051.0,3271.0,3027.0,4061.0,3216.0,2801.0,3001.0,2445.0,1.17,8.88,8.6,0.02,-0.04,-0.2,0.0,t
3057.0,3251.0,3013.0,4048.0,3216.0,2805.0,3001.0,2437.0,0.97,8.94,8.47,0.02,-0.07,-0.25,0.0,t
3063.0,3270.0,3024.0,4051.0,3215.0,2803.0,3001.0,2444.0,1.29,9.09,8.1,-0.3,-0.17,-0.19,0.0,t
3043.0,3071.0,2975.0,3777.0,3009.0,2748.0,2867.0,2426.0,1.12,9.13,8.0,0.26,0.23,-0.01,0.0,t
3049.0,3083.0,2969.0,3760.0,3008.0,2738.0,2862.0,2425.0,0.67,9.51,6.99,0.37,-0.01,-0.19,0.0,t
3047.0,3098.0,2983.0,3775.0,3008.0,2738.0,2864.0,2439.0,0.21,9.61,6.85,0.24,-0.18,-0.18,0.0,t
3039.0,3088.0,2971.0,3754.0,3003.0,2731.0,2864.0,2425.0,0.64,9.44,6.95,0.1,0.2,0.16,0.0,t
3045.0,3089.0,2990.0,3773.0,3008.0,2736.0,2866.0,2427.0,0.91,9.62,6.7,0.02,0.08,-0.0,0.0,t
3054.0,3086.0,2983.0,3762.0,3010.0,2736.0,2866.0,2428.0,0.8,9.62,6.73,-0.06,0.11,-0.07,0.0,t
3056.0,3098.0,2991.0,3785.0,3006.0,2739.0,2875.0,2435.0,1.0,9.5,6.99,-0.22,-0.01,-0.09,0.0,t
3045.0,3088.0,2981.0,3767.0,3011.0,2741.0,2869.0,2433.0,1.08,9.43,7.14,-0.34,0.06,-0.15,0.0,t
3049.0,3088.0,2975.0,3784.0,3023.0,2756.0,2877.0,2434.0,0.84,9.09,8.06,-0.39,-0.06,-0.14,0.0,t
3056.0,3070.0,2971.0,3765.0,3012.0,2742.0,2870.0,2438.0,0.9,8.93,8.36,-0.34,-0.02,-0.04,0.0,t
3051.0,3088.0,2976.0,3779.0,3018.0,2741.0,2878.0,2443.0,1.25,8.68,8.9,-0.34,0.05,-0.03,0.0,t
3047.0,3088.0,2972.0,3775.0,3015.0,2746.0,2873.0,2444.0,1.4,8.53,9.26,-0.18,-0.02,-0.09,0.0,t
3038.0,3071.0,2985.0,3774.0,3018.0,2741.0,2871.0,2439.0,1.29,8.47,9.36,-0.07,-0.01,-0.12,0.0,t
3043.0,3095.0,2973.0,3792.0,3023.0,2750.0,2878.0,2447.0,1.2,8.62,9.04,-0.07,-0.24,-0.19,0.0,t
3055.0,3088.0,2974.0,3772.0,3014.0,2746.0,2869.0,2443.0,1.15,8.6,9.06,-0.02,0.08,0.04,0.0,t
3046.0,3087.0,2983.0,3792.0,3024.0,2752.0,2878.0,2447.0,1.51,8.5,9.17,-0.03,0.06,0.05,0.0,t
3047.0,3087.0,2965.0,3777.0,3018.0,2745.0,2876.0,2445.0,1.91,8.4,9.23,0.0,0.05,0.03,0.0,t
3045.0,3092.0,2986.0,3793.0,3023.0,2752.0,2880.0,2448.0,2.01,8.37,9.33,0.03,-0.05,-0.08,0.0,t
3035.0,3101.0,2967.0,3771.0,3011.0,2741.0,2873.0,2447.0,2.1,8.41,9.25,0.07,-0.03,-0.12,0.0,t
3045.0,3079.0,2983.0,3788.0,3034.0,2754.0,2889.0,2450.0,1.96,8.47,9.16,0.08,-0.01,-0.19,0.0,t
3057.0,3097.0,2970.0,3786.0,3023.0,2754.0,2885.0,2455.0,1.57,8.57,9.07,-0.01,0.02,-0.34,0.0,t
3042.0,3085.0,2976.0,3786.0,3023.0,2751.0,2883.0,2452.0,1.19,8.66,8.99,0.03,-0.03,-0.35,0.0,t
3047.0,3092.0,2983.0,3799.0,3030.0,2754.0,2879.0,2453.0,1.04,8.64,9.03,0.0,-0.08,-0.4,0.0,t
3051.0,3088.0,2967.0,3787.0,3024.0,2750.0,2878.0,2448.0,0.61,8.66,9.05,0.03,-0.05,-0.37,0.0,t
3047.0,3084.0,2976.0,3803.0,3036.0,2752.0,2882.0,2451.0,0.56,8.67,9.02,0.0,-0.03,-0.3,0.0,t
3030.0,3070.0,2977.0,3791.0,3024.0,2750.0,2878.0,2450.0,0.6,8.67,9.04,0.03,-0.01,-0.25,0.0,t
3054.0,3082.0,2984.0,3795.0,3038.0,2757.0,2884.0,2454.0,0.52,8.68,9.02,0.03,-0.07,-0.3,0.0,t
3052.0,3088.0,2989.0,3789.0,3023.0,2747.0,2881.0,2451.0,0.38,8.68,8.94,0.04,-0.01,-0.28,0.0,t
3056.0,3102.0,2975.0,3791.0,3026.0,2757.0,2887.0,2461.0,0.14,8.71,8.99,0.04,-0.06,-0.3,0.0,t
3054.0,3093.0,2971.0,3793.0,3026.0,2747.0,2879.0,2445.0,0.16,8.69,9.0,0.04,0.04,-0.26,0.0,t
3046.0,3091.0,2975.0,3794.0,3029.0,2758.0,2889.0,2459.0,-0.1,8.57,9.31,0.15,0.01,-0.25,0.0,t
3042.0,3088.0,2970.0,3792.0,3037.0,2758.0,2889.0,2464.0,-0.17,8.88,8.62,0.21,0.01,-0.26,0.0,t
3046.0,3088.0,2972.0,3781.0,3025.0,2752.0,2880.0,2461.0,-0.22,8.82,8.83,0.19,0.01,-0.22,0.0,t
3053.0,3093.0,2978.0,3792.0,3033.0,2756.0,2883.0,2464.0,-0.23,8.95,8.45,0.34,-0.01,-0.21,0.0,t
3043.0,3095.0,2969.0,3781.0,3024.0,2755.0,2880.0,2462.0,-0.45,9.25,7.78,0.26,0.01,-0.18,0.0,t
3037.0,3088.0,2977.0,3803.0,3038.0,2752.0,2883.0,2459.0,-0.41,9.26,7.73,0.21,0.06,-0.08,0.0,t
3054.0,3098.0,2978.0,3787.0,3029.0,2751.0,2880.0,2462.0,-0.34,9.37,7.49,0.16,0.04,-0.04,0.0,t
3043.0,3079.0,2974.0,3802.0,3044.0,2762.0,2886.0,2463.0,-0.12,9.4,7.39,0.1,0.07,0.01,0.0,t
3052.0,3092.0,2980.0,3799.0,3033.0,2754.0,2882.0,2459.0,0.02,9.4,7.3,0.05,0.07,0.04,0.0,t
3056.0,3103.0,2975.0,3801.0,3033.0,2763.0,2896.0,2464.0,0.22,9.4,7.4,-0.0,0.1,0.06,0.0,t
3051.0,3094.0,2979.0,3792.0,3040.0,2759.0,2887.0,2475.0,1.26,8.94,8.46,-0.24,-0.02,-0.12,0.0,t
3056.0,3088.0,2986.0,3793.0,3027.0,2753.0,2880.0,2466.0,1.24,8.74,8.81,-0.19,-0.07,-0.14,0.0,t
3058.0,3091.0,2977.0,3810.0,3042.0,2757.0,2886.0,2469.0,1.2,8.67,8.94,-0.15,-0.01,-0.13,0.0,t
3036.0,3088.0,2970.0,3792.0,3034.0,2752.0,2875.0,2464.0,1.31,8.54,9.2,-0.14,-0.01,-0.12,0.0,t
3047.0,3088.0,2981.0,3814.0,3040.0,2749.0,2884.0,2465.0,1.4,8.52,9.15,-0.07,0.01,-0.13,0.0,t
3043.0,3094.0,2979.0,3792.0,3043.0,2759.0,2883.0,2466.0,1.36,8.56,9.1,-0.14,-0.05,-0.19,0.0,t
3045.0,3093.0,2987.0,3822.0,3055.0,2762.0,2882.0,2465.0,1.26,8.4,9.45,-0.1,-0.02,-0.21,0.0,t
3040.0,3088.0,2993.0,3803.0,3056.0,2768.0,2891.0,2464.0,1.35,8.33,9.53,-0.06,-0.03,-0.25,0.0,t
3042.0,3082.0,2967.0,3799.0,3042.0,2753.0,2880.0,2463.0,1.23,8.32,9.54,-0.03,-0.03,-0.32,0.0,t
3053.0,3097.0,2987.0,3811.0,3053.0,2758.0,2881.0,2465.0,0.91,8.37,9.47,0.01,-0.02,-0.28,0.0,t
3037.0,3088.0,2967.0,3809.0,3045.0,2749.0,2883.0,2467.0,0.98,8.25,9.75,0.02,-0.03,-0.3,0.0,t
3047.0,3088.0,2973.0,3823.0,3053.0,2762.0,2894.0,2473.0,0.95,8.47,9.36,0.08,-0.01,-0.32,0.0,t
3050.0,3082.0,2977.0,3793.0,3039.0,2757.0,2890.0,2472.0,0.37,8.49,9.38,0.04,-0.1,-0.37,0.0,t
3047.0,3093.0,2981.0,3806.0,3054.0,2762.0,2895.0,2480.0,0.27,8.5,9.28,0.01,-0.01,-0.25,0.0,t
3041.0,3071.0,2966.0,3805.0,3051.0,2758.0,2884.0,2471.0,0.52,8.39,9.52,0.01,0.0,-0.22,0.0,t
3055.0,3089.0,2987.0,3815.0,3053.0,2758.0,2890.0,2474.0,0.46,8.42,9.52,0.04,-0.08,-0.29,0.0,t
3034.0,3071.0,2975.0,3799.0,3049.0,2758.0,2893.0,2480.0,0.26,8.43,9.48,0.08,-0.02,-0.3,0.0,t
3047.0,3085.0,2977.0,3805.0,3054.0,2759.0,2895.0,2478.0,0.16,8.45,9.51,0.14,-0.01,-0.3,0.0,t
3042.0,3083.0,2981.0,3807.0,3049.0,2762.0,2891.0,2471.0,-0.06,8.59,9.22,0.18,-0.03,-0.31,0.0,t
3038.0,3090.0,2960.0,3802.0,3047.0,2759.0,2887.0,2477.0,-0.18,8.72,8.87,0.15,-0.02,-0.29,0.0,t
3055.0,3095.0,2979.0,3809.0,3054.0,2759.0,2886.0,2484.0,-0.51,8.64,9.0,0.05,0.01,-0.17,0.0,t
3057.0,3088.0,2985.0,3811.0,3055.0,2754.0,2886.0,2482.0,-0.68,8.62,9.04,0.16,-0.01,-0.21,0.0,t
3050.0,3087.0,2971.0,3811.0,3057.0,2767.0,2889.0,2480.0,-0.87,8.83,8.63,0.2,0.01,-0.2,0.0,t
3039.0,3090.0,2975.0,3797.0,3053.0,2758.0,2889.0,2485.0,-0.75,8.87,8.49,0.17,0.05,-0.15,0.0,t
3056.0,3091.0,2979.0,3806.0,3056.0,2767.0,2898.0,2487.0,-0.87,8.94,8.38,0.2,-0.02,-0.16,0.0,t
3045.0,3088.0,2985.0,3809.0,3056.0,2770.0,2897.0,2490.0,-1.13,9.11,8.07,0.23,-0.01,-0.1,0.0,t
3039.0,3091.0,2973.0,3801.0,3053.0,2765.0,2885.0,2485.0,-0.96,9.25,7.65,0.15,0.1,0.05,0.0,t
3045.0,3086.0,2990.0,3814.0,3061.0,2763.0,2893.0,2489.0,-0.66,9.25,7.71,0.08,0.13,0.12,0.0,t
3041.0,3088.0,2978.0,3810.0,3056.0,2764.0,2889.0,2480.0,-0.18,9.25,7.68,0.02,0.07,0.1,0.0,t
3054.0,3087.0,2977.0,3822.0,3061.0,2767.0,2901.0,2490.0,0.02,9.21,7.79,0.02,0.0,0.03,0.0,t
3045.0,3087.0,2969.0,3795.0,3053.0,2765.0,2895.0,2485.0,0.06,9.27,7.8,0.05,0.09,0.01,0.0,t
3041.0,3085.0,2979.0,3835.0,3065.0,2768.0,2894.0,2484.0,0.11,9.27,7.65,0.04,0.08,-0.04,0.0,t
3040.0,3088.0,2976.0,3795.0,3059.0,2765.0,2891.0,2483.0,0.36,9.32,7.57,0.01,0.07,-0.06,0.0,t
3046.0,3097.0,2985.0,3815.0,3061.0,2768.0,2897.0,2487.0,0.21,9.25,7.77,0.09,0.04,-0.1,0.0,t
3037.0,3088.0,2970.0,3799.0,3058.0,2765.0,2895.0,2486.0,0.14,9.34,7.61,0.11,0.03,-0.1,0.0,t
3056.0,3098.0,2982.0,3824.0,3065.0,2767.0,2896.0,2490.0,0.29,9.35,7.54,0.08,0.03,-0.07,0.0,t
3045.0,3095.0,2970.0,3811.0,3061.0,2763.0,2896.0,2495.0,0.25,9.42,7.31,0.09,0.04,-0.03,0.0,t
3037.0,3084.0,2974.0,3803.0,3057.0,2768.0,2896.0,2491.0,0.1,9.47,7.23,0.07,0.07,0.05,0.0,t
3051.0,3100.0,2989.0,3814.0,3061.0,2769.0,2902.0,2496.0,0.57,9.41,7.18,-0.01,0.08,0.23,0.0,t
3047.0,3088.0,2987.0,3808.0,3066.0,2767.0,2895.0,2487.0,1.7,9.22,7.43,-0.06,0.08,0.18,0.0,t
3046.0,3099.0,2989.0,3833.0,3070.0,2771.0,2901.0,2495.0,1.38,8.47,9.38,-0.1,-0.03,-0.18,0.0,t
3035.0,3091.0,2989.0,3816.0,3061.0,2768.0,2894.0,2490.0,1.4,8.62,9.05,0.02,-0.02,-0.22,0.0,t
3047.0,3093.0,2992.0,3815.0,3071.0,2773.0,2902.0,2499.0,1.27,8.7,8.81,-0.0,-0.07,-0.26,0.0,t
3040.0,3097.0,2985.0,3810.0,3059.0,2767.0,2898.0,2495.0,1.05,8.68,8.97,-0.05,-0.0,-0.34,0.0,t
3062.0,3091.0,2983.0,3824.0,3066.0,2775.0,2906.0,2498.0,0.91,8.67,8.96,-0.05,-0.07,-0.38,0.0,t
3052.0,3091.0,2975.0,3801.0,3066.0,2768.0,2899.0,2495.0,0.47,8.62,9.18,-0.08,-0.13,-0.38,0.0,t
3042.0,3091.0,2992.0,3820.0,3071.0,2771.0,2903.0,2502.0,0.23,8.6,9.2,-0.01,0.09,-0.17,0.0,t
3049.0,3088.0,2965.0,3818.0,3070.0,2768.0,2898.0,2491.0,0.74,8.64,9.06,-0.02,-0.01,-0.18,0.0,t
3049.0,3098.0,2977.0,3825.0,3071.0,2771.0,2901.0,2496.0,0.45,8.66,9.02,-0.08,-0.09,-0.21,0.0,t
3039.0,3071.0,2974.0,3817.0,3071.0,2768.0,2898.0,2495.0,0.5,8.43,9.48,-0.1,0.02,-0.15,0.0,t
3058.0,3098.0,2981.0,3833.0,3066.0,2774.0,2897.0,2499.0,0.6,8.36,9.63,-0.03,0.07,-0.14,0.0,t
3045.0,3087.0,2964.0,3825.0,3071.0,2768.0,2906.0,2503.0,0.4,8.45,9.38,0.0,-0.07,-0.16,0.0,t
3047.0,3090.0,2976.0,3824.0,3069.0,2768.0,2896.0,2499.0,0.85,8.37,9.46,-0.05,-0.02,-0.18,0.0,t
3043.0,3093.0,2973.0,3831.0,3071.0,2767.0,2905.0,2499.0,0.49,8.36,9.65,0.09,-0.1,-0.33,0.0,t
3044.0,3082.0,2977.0,3827.0,3071.0,2762.0,2902.0,2492.0,0.23,8.4,9.54,0.14,-0.02,-0.28,0.0,t
3050.0,3090.0,2986.0,3821.0,3063.0,2731.0,2878.0,2450.0,0.33,8.57,9.14,0.62,-0.23,-0.78,0.0,t
3053.0,3088.0,2976.0,3709.0,3037.0,2703.0,2867.0,2433.0,-0.45,9.03,8.26,0.28,0.04,-0.24,0.0,t
3061.0,3094.0,2974.0,3694.0,3010.0,2705.0,2879.0,2442.0,-0.63,9.01,8.22,0.16,0.07,-0.23,0.0,t
3041.0,3087.0,2976.0,3691.0,2971.0,2692.0,2867.0,2439.0,-0.68,9.07,8.36,0.18,0.04,-0.22,0.0,t
3045.0,3088.0,2974.0,3685.0,2953.0,2694.0,2879.0,2459.0,-0.5,9.07,8.15,0.05,0.06,-0.14,0.0,t
3050.0,3101.0,2976.0,3740.0,2995.0,2711.0,2893.0,2483.0,-0.28,9.06,8.32,-0.02,-0.03,-0.14,0.0,t
3038.0,3088.0,2974.0,3732.0,2994.0,2717.0,2887.0,2478.0,-0.47,8.99,8.31,0.03,-0.06,-0.19,0.0,t
3046.0,3070.0,2987.0,3760.0,3003.0,2719.0,2896.0,2483.0,-0.48,9.05,8.25,0.01,0.02,-0.13,0.0,t
3052.0,3083.0,2978.0,3761.0,3006.0,2727.0,2893.0,2481.0,-0.36,9.07,8.21,-0.0,0.0,-0.12,0.0,t
3041.0,3088.0,2967.0,3746.0,2990.0,2717.0,2885.0,2480.0,-0.32,9.05,8.25,-0.01,-0.03,-0.17,0.0,t
3058.0,3088.0,2988.0,3773.0,2987.0,2719.0,2887.0,2485.0,-0.38,8.96,8.38,0.03,-0.03,-0.19,0.0,t
3030.0,3085.0,2980.0,3766.0,2987.0,2723.0,2882.0,2478.0,-0.39,8.97,8.43,0.05,0.08,-0.14,0.0,t
3051.0,3088.0,2991.0,3770.0,2992.0,2721.0,2883.0,2480.0,-0.35,8.94,8.56,0.16,0.03,-0.17,0.0,t
3045.0,3079.0,2977.0,3755.0,2991.0,2722.0,2881.0,2480.0,-0.55,9.14,7.95,0.2,0.07,-0.17,0.0,t
3054.0,3085.0,2976.0,3753.0,2993.0,2734.0,2896.0,2487.0,-0.63,9.24,7.63,0.2,0.08,-0.18,0.0,t
3040.0,3088.0,2961.0,3748.0,2992.0,2721.0,2890.0,2483.0,-0.56,9.26,7.62,0.16,0.01,-0.2,0.0,t
3045.0,3085.0,2979.0,3755.0,3004.0,2727.0,2895.0,2491.0,-0.61,9.31,7.49,0.19,0.02,-0.23,0.0,t
3041.0,3070.0,2964.0,3743.0,2999.0,2729.0,2887.0,2486.0,-0.61,9.4,7.11,0.12,-0.04,-0.28,0.0,t
3063.0,3098.0,2977.0,3755.0,3008.0,2729.0,2887.0,2491.0,-0.84,9.42,7.1,0.03,-0.12,-0.32,0.0,t
3043.0,3071.0,2985.0,3759.0,3005.0,2736.0,2885.0,2492.0,-1.06,9.33,7.33,0.01,-0.13,-0.33,0.0,t
3042.0,3086.0,2977.0,3763.0,2999.0,2725.0,2885.0,2493.0,-1.15,9.31,7.39,0.03,-0.1,-0.32,0.0,t
3061.0,3090.0,2971.0,3767.0,3001.0,2734.0,2895.0,2497.0,-1.4,9.3,7.28,0.01,-0.09,-0.29,0.0,t
3052.0,3087.0,2977.0,3760.0,3004.0,2727.0,2885.0,2494.0,-1.44,9.27,7.46,0.01,-0.09,-0.26,0.0,t
3042.0,3092.0,2982.0,3774.0,3007.0,2733.0,2895.0,2503.0,-1.48,9.2,7.43,0.03,-0.05,-0.24,0.0,t
3038.0,3071.0,2974.0,3776.0,3006.0,2733.0,2887.0,2490.0,-1.64,9.22,7.32,0.04,-0.04,-0.21,0.0,t
3056.0,3088.0,2981.0,3808.0,3010.0,2731.0,2889.0,2496.0,-1.44,9.26,7.4,0.07,0.08,-0.13,0.0,t
3056.0,3095.0,2977.0,3765.0,3007.0,2733.0,2885.0,2496.0,-1.56,9.25,7.08,0.12,-0.0,-0.18,0.0,t
3042.0,3082.0,2981.0,3792.0,3012.0,2739.0,2894.0,2493.0,-1.66,9.34,6.93,0.09,0.03,-0.13,0.0,t
3055.0,3071.0,2981.0,3786.0,3013.0,2739.0,2894.0,2499.0,-1.5,9.36,6.88,0.07,0.03,-0.13,0.0,t
3049.0,3083.0,2973.0,3791.0,3013.0,2735.0,2884.0,2489.0,-1.63,9.35,6.85,0.05,-0.03,-0.17,0.0,t
3057.0,3097.0,2987.0,3782.0,3014.0,2741.0,2896.0,2496.0,-1.62,9.35,6.9,0.04,-0.02,-0.13,0.0,t
3037.0,3082.0,2973.0,3792.0,3008.0,2735.0,2893.0,2496.0,-1.48,9.36,6.98,0.04,-0.01,-0.14,0.0,t
3053.0,3071.0,2977.0,3789.0,3023.0,2743.0,2895.0,2503.0,-1.53,9.39,6.85,0.04,0.03,-0.14,0.0,t
3051.0,3079.0,2978.0,3793.0,3012.0,2741.0,2890.0,2485.0,-1.59,9.4,6.7,0.04,0.01,-0.16,0.0,t
3060.0,3101.0,2977.0,3798.0,3014.0,2740.0,2893.0,2495.0,-1.55,9.35,6.88,0.03,0.03,-0.13,0.0,t
3051.0,3088.0,2983.0,3788.0,3013.0,2738.0,2892.0,2490.0,-1.46,9.37,6.89,0.07,0.03,-0.09,0.0,t
3049.0,3088.0,2972.0,3787.0,3019.0,2749.0,2902.0,2496.0,-1.4,9.43,6.74,0.09,0.03,-0.09,0.0,t
3051.0,3071.0,2977.0,3805.0,3013.0,2741.0,2887.0,2486.0,-1.46,9.46,6.61,0.07,0.02,-0.1,0.0,t
3045.0,3093.0,2988.0,3796.0,3024.0,2749.0,2898.0,2495.0,-1.43,9.49,6.51,0.03,0.04,-0.04,0.0,t
3041.0,3071.0,2978.0,3790.0,3014.0,2746.0,2896.0,2498.0,-1.19,9.53,6.56,0.01,0.05,-0.03,0.0,t
3038.0,3087.0,2975.0,3792.0,3017.0,2736.0,2892.0,2486.0,-1.05,9.5,6.6,0.02,0.04,-0.07,0.0,t
3053.0,3095.0,2975.0,3798.0,3025.0,2748.0,2895.0,2486.0,-1.1,9.52,6.58,0.05,0.0,-0.09,0.0,t
3050.0,3089.0,2979.0,3792.0,3024.0,2743.0,2891.0,2493.0,-0.94,9.55,6.57,0.01,0.01,-0.08,0.0,t
3049.0,3087.0,2990.0,3814.0,3024.0,2749.0,2896.0,2496.0,-0.81,9.54,6.54,0.04,0.01,-0.12,0.0,t
3050.0,3070.0,2991.0,3794.0,3027.0,2743.0,2893.0,2487.0,-1.06,9.53,6.57,0.02,-0.01,-0.14,0.0,t
3047.0,3093.0,2991.0,3799.0,3038.0,2748.0,2898.0,2499.0,-0.65,9.58,6.48,0.01,-0.01,-0.17,0.0,t
3039.0,3085.0,2969.0,3782.0,3029.0,2748.0,2895.0,2500.0,-0.78,9.66,6.37,-0.01,0.03,-0.12,0.0,t
3054.0,3088.0,2991.0,3792.0,3027.0,2743.0,2891.0,2493.0,-0.23,9.65,6.39,-0.1,-0.01,-0.1,0.0,t
3044.0,3088.0,2978.0,3792.0,3035.0,2755.0,2898.0,2501.0,-0.68,9.51,6.78,-0.04,-0.05,-0.17,0.0,t
3040.0,3085.0,2977.0,3781.0,3024.0,2741.0,2895.0,2500.0,-0.76,9.55,6.78,-0.06,0.04,-0.07,0.0,t
3056.0,3098.0,2990.0,3794.0,3037.0,2759.0,2896.0,2499.0,-0.44,9.57,6.79,-0.05,0.06,0.0,0.0,t
3039.0,3088.0,2977.0,3782.0,3025.0,2741.0,2896.0,2497.0,-0.23,9.5,6.89,-0.09,-0.02,-0.02,0.0,t
3050.0,3071.0,2982.0,3792.0,3031.0,2753.0,2899.0,2509.0,0.0,9.49,7.02,-0.08,0.08,-0.01,0.0,t
3047.0,3089.0,2970.0,3792.0,3038.0,2749.0,2896.0,2498.0,0.22,9.46,7.12,-0.04,0.01,-0.1,0.0,t
3052.0,3090.0,2978.0,3798.0,3034.0,2753.0,2902.0,2511.0,0.06,9.43,7.24,-0.02,-0.07,-0.16,0.0,t
3053.0,3082.0,2986.0,3792.0,3024.0,2746.0,2895.0,2505.0,-0.06,9.42,7.18,-0.03,-0.01,-0.11,0.0,t
3051.0,3083.0,2976.0,3795.0,3037.0,2753.0,2898.0,2505.0,0.04,9.45,7.25,-0.03,0.07,-0.07,0.0,t
3043.0,3087.0,2974.0,3787.0,3029.0,2756.0,2896.0,2501.0,0.21,9.44,7.27,-0.01,-0.02,-0.11,0.0,t
3052.0,3090.0,2983.0,3796.0,3038.0,2752.0,2910.0,2506.0,0.22,9.38,7.39,0.01,0.03,-0.15,0.0,t
3056.0,3082.0,2977.0,3798.0,3045.0,2757.0,2902.0,2501.0,0.13,9.41,7.27,0.04,-0.03,-0.21,0.0,t
3049.0,3086.0,2983.0,3791.0,3042.0,2754.0,2896.0,2506.0,-0.07,9.43,7.16,0.02,-0.06,-0.18,0.0,t
3041.0,3088.0,2975.0,3817.0,3042.0,2751.0,2897.0,2503.0,0.06,9.44,7.25,0.01,0.01,-0.12,0.0,t
3038.0,3080.0,2966.0,3797.0,3050.0,2753.0,2892.0,2500.0,0.36,9.38,7.28,0.01,-0.17,-0.23,0.0,t
3052.0,3088.0,2976.0,3804.0,3037.0,2752.0,2896.0,2510.0,-0.16,9.41,7.28,0.01,-0.02,-0.19,0.0,t
3052.0,3071.0,2967.0,3794.0,3038.0,2749.0,2898.0,2497.0,-0.23,9.44,7.21,-0.02,-0.02,-0.1,0.0,t
3056.0,3090.0,2991.0,3808.0,3039.0,2754.0,2908.0,2512.0,0.28,9.29,7.64,-0.04,0.02,-0.12,0.0,t
3051.0,3087.0,2977.0,3818.0,3042.0,2750.0,2896.0,2510.0,0.21,9.31,7.55,-0.04,-0.05,-0.14,0.0,t
3053.0,3095.0,2977.0,3798.0,3034.0,2747.0,2894.0,2510.0,0.28,9.28,7.7,-0.06,-0.05,-0.12,0.0,t
3053.0,3079.0,2971.0,3821.0,3042.0,2757.0,2902.0,2508.0,0.33,9.23,7.93,-0.08,0.02,-0.09,0.0,t
3033.0,3095.0,2978.0,3808.0,3033.0,2755.0,2897.0,2509.0,0.51,9.18,7.99,-0.05,0.05,-0.11,0.0,t
3053.0,3088.0,2974.0,3825.0,3041.0,2763.0,2902.0,2510.0,0.53,9.16,8.01,-0.03,0.0,-0.12,0.0,t
3047.0,3088.0,2981.0,3835.0,3047.0,2751.0,2896.0,2503.0,0.34,9.16,7.99,-0.04,0.01,-0.14,0.0,t
3050.0,3099.0,2976.0,3840.0,3039.0,2757.0,2896.0,2512.0,0.26,9.15,8.02,-0.05,0.09,-0.1,0.0,t
3045.0,3089.0,2983.0,3835.0,3040.0,2751.0,2899.0,2506.0,0.28,9.1,8.18,-0.05,0.13,-0.08,0.0,t
3053.0,3091.0,2983.0,3861.0,3052.0,2759.0,2901.0,2507.0,0.4,9.02,8.31,-0.05,0.0,-0.12,0.0,t
3042.0,3085.0,2963.0,3831.0,3042.0,2749.0,2897.0,2507.0,0.49,9.01,8.45,0.01,-0.01,-0.15,0.0,t
3039.0,3087.0,2975.0,3855.0,3041.0,2753.0,2907.0,2515.0,0.33,9.13,8.14,0.01,0.03,-0.14,0.0,t
3049.0,3092.0,2971.0,3851.0,3038.0,2751.0,2897.0,2507.0,0.35,9.08,8.21,-0.0,0.04,-0.11,0.0,t
3059.0,3083.0,2985.0,3850.0,3054.0,2763.0,2909.0,2511.0,0.58,8.99,8.42,-0.0,-0.02,-0.13,0.0,t
3056.0,3087.0,2980.0,3857.0,3045.0,2763.0,2909.0,2517.0,0.45,8.94,8.56,0.09,0.09,-0.09,0.0,t
3034.0,3083.0,2976.0,3855.0,3045.0,2751.0,2896.0,2499.0,0.5,9.11,8.12,0.06,0.11,-0.07,0.0,t
3046.0,3103.0,2975.0,3859.0,3050.0,2757.0,2897.0,2506.0,0.51,9.07,8.21,0.09,0.18,-0.04,0.0,t
3043.0,3092.0,2977.0,3837.0,3035.0,2750.0,2891.0,2506.0,0.58,9.12,8.09,0.12,0.03,-0.15,0.0,t
3051.0,3087.0,2973.0,3855.0,3038.0,2763.0,2902.0,2512.0,0.56,9.14,7.98,0.11,0.02,-0.17,0.0,t
3045.0,3087.0,2982.0,3846.0,3039.0,2752.0,2896.0,2501.0,0.4,9.23,7.77,0.13,0.0,-0.2,0.0,t
3040.0,3088.0,2969.0,3837.0,3056.0,2758.0,2902.0,2510.0,0.41,9.28,7.83,0.06,0.06,-0.18,0.0,t
3042.0,3088.0,2981.0,3829.0,3052.0,2753.0,2902.0,2506.0,0.16,9.27,7.73,0.12,-0.01,-0.22,0.0,t
3049.0,3082.0,2987.0,3856.0,3059.0,2758.0,2902.0,2508.0,0.07,9.36,7.47,0.1,-0.0,-0.17,0.0,t
3042.0,3097.0,2988.0,3839.0,3051.0,2753.0,2897.0,2511.0,-0.03,9.33,7.57,0.14,-0.01,-0.13,0.0,t
3062.0,3106.0,2982.0,3848.0,3058.0,2765.0,2914.0,2512.0,0.08,9.45,7.19,0.13,0.03,-0.08,0.0,t
3038.0,3088.0,2970.0,3838.0,3055.0,2755.0,2898.0,2505.0,0.34,9.46,7.19,0.1,0.06,-0.04,0.0,t
3056.0,3089.0,2990.0,3859.0,3058.0,2755.0,2902.0,2511.0,0.44,9.48,7.07,0.05,0.04,-0.05,0.0,t
3035.0,3071.0,2975.0,3863.0,3062.0,2757.0,2905.0,2507.0,0.23,9.53,6.95,-0.0,0.04,-0.01,0.0,t
3054.0,3088.0,2983.0,3837.0,3062.0,2765.0,2913.0,2512.0,0.64,9.5,7.12,-0.11,0.07,0.04,0.0,t
3040.0,3094.0,2982.0,3819.0,3056.0,2752.0,2898.0,2512.0,0.99,9.41,7.22,-0.09,0.03,-0.04,0.0,t
3043.0,3088.0,2977.0,3851.0,3065.0,2763.0,2914.0,2512.0,0.95,9.38,7.27,-0.14,-0.0,-0.12,0.0,t
3049.0,3085.0,2987.0,3838.0,3060.0,2753.0,2903.0,2512.0,0.78,9.22,7.77,-0.22,0.02,-0.08,0.0,t
3058.0,3083.0,2985.0,3828.0,3056.0,2753.0,2903.0,2512.0,1.01,9.14,8.01,-0.17,-0.05,-0.07,0.0,t
3056.0,3093.0,2989.0,3831.0,3071.0,2763.0,2910.0,2505.0,1.15,9.05,8.2,-0.1,-0.05,-0.12,0.0,t
3051.0,3086.0,2970.0,3824.0,3063.0,2754.0,2901.0,2510.0,1.03,9.11,8.0,-0.04,0.01,-0.15,0.0,t
3056.0,3083.0,2979.0,3845.0,3062.0,2759.0,2907.0,2512.0,0.99,9.07,8.16,-0.1,-0.04,-0.14,0.0,t
3046.0,3093.0,2976.0,3823.0,3056.0,2751.0,2902.0,2506.0,1.07,8.93,8.57,-0.09,-0.04,-0.14,0.0,t
3037.0,3084.0,2984.0,3854.0,3071.0,2762.0,2909.0,2503.0,0.98,8.97,8.43,-0.02,-0.01,-0.14,0.0,t
3037.0,3071.0,2979.0,3844.0,3063.0,2759.0,2907.0,2502.0,1.0,8.99,8.34,-0.0,0.03,-0.13,0.0,t
3057.0,3090.0,2977.0,3835.0,3079.0,2753.0,2910.0,2510.0,1.07,9.03,8.4,0.03,0.1,-0.15,0.0,t
3044.0,3120.0,2980.0,3520.0,3246.0,2671.0,2863.0,2429.0,-0.06,9.01,8.26,0.06,0.01,-0.17,0.0,t
3050.0,3127.0,2981.0,3520.0,3238.0,2671.0,2864.0,2432.0,-0.21,9.02,8.44,-0.02,-0.19,-0.2,0.0,t
3051.0,3120.0,2971.0,3531.0,3252.0,2674.0,2863.0,2429.0,-0.11,9.12,8.11,0.16,-0.13,-0.24,0.0,t
3038.0,3132.0,2973.0,3535.0,3249.0,2668.0,2864.0,2430.0,-0.25,9.21,7.89,0.1,0.03,-0.16,0.0,t
3051.0,3120.0,2969.0,3515.0,3244.0,2667.0,2866.0,2434.0,-0.11,9.15,7.94,0.08,0.05,-0.14,0.0,t
3041.0,3135.0,2979.0,3536.0,3253.0,2667.0,2864.0,2432.0,-0.24,9.16,8.04,0.07,-0.14,-0.23,0.0,t
3033.0,3124.0,2981.0,3541.0,3250.0,2674.0,2871.0,2434.0,-0.28,9.03,8.34,0.01,-0.97,-0.52,0.0,t
3030.0,3121.0,2965.0,3535.0,3254.0,2670.0,2864.0,2430.0,-0.24,9.44,7.27,0.23,0.46,-0.16,0.0,t
3053.0,3136.0,2992.0,3545.0,3262.0,2675.0,2870.0,2433.0,-0.48,9.35,7.48,0.12,-0.09,-0.34,0.0,t
3035.0,3134.0,2960.0,3537.0,3259.0,2671.0,2869.0,2436.0,-0.86,9.42,7.32,0.1,0.16,-0.15,0.0,t
3047.0,3119.0,2971.0,3537.0,3257.0,2672.0,2879.0,2446.0,-0.7,9.41,7.4,0.05,0.22,-0.08,0.0,t
3033.0,3126.0,2973.0,3536.0,3255.0,2673.0,2864.0,2435.0,-0.35,9.32,7.39,0.0,-0.03,-0.16,0.0,t
3043.0,3126.0,2979.0,3545.0,3273.0,2683.0,2877.0,2443.0,-0.61,9.34,7.42,-0.0,0.1,-0.07,0.0,t
3034.0,3123.0,2970.0,3533.0,3252.0,2674.0,2871.0,2439.0,-0.44,9.32,7.5,0.02,0.14,-0.03,0.0,t
3046.0,3143.0,2988.0,3562.0,3271.0,2681.0,2870.0,2441.0,-0.3,9.35,7.5,0.01,-0.03,-0.15,0.0,t
3034.0,3125.0,2974.0,3545.0,3254.0,2679.0,2867.0,2441.0,-0.53,9.33,7.42,0.04,0.03,-0.14,0.0,t
3056.0,3131.0,2979.0,3556.0,3269.0,2685.0,2871.0,2448.0,-0.67,9.36,7.41,0.03,0.03,-0.08,0.0,t
3047.0,3131.0,2989.0,3539.0,3258.0,2679.0,2866.0,2448.0,-0.55,9.35,7.43,0.11,0.17,0.11,0.0,t
3054.0,3120.0,2963.0,3541.0,3258.0,2683.0,2874.0,2445.0,0.03,9.43,7.3,0.04,0.19,0.1,0.0,t
3041.0,3129.0,2982.0,3558.0,3276.0,2693.0,2881.0,2447.0,0.24,9.38,7.29,0.05,0.08,0.0,0.0,t
3035.0,3120.0,2976.0,3546.0,3271.0,2687.0,2871.0,2446.0,0.35,9.44,7.24,-0.03,0.03,-0.07,0.0,t
3041.0,3136.0,2989.0,3554.0,3286.0,2695.0,2874.0,2448.0,0.42,9.47,7.16,-0.04,0.07,-0.08,0.0,t
3039.0,3130.0,2975.0,3541.0,3273.0,2686.0,2871.0,2456.0,0.51,9.5,7.09,-0.17,-0.02,-0.11,0.0,t
3054.0,3127.0,2974.0,3552.0,3282.0,2695.0,2873.0,2451.0,0.55,9.22,7.75,-0.23,-0.1,-0.14,0.0,t
3031.0,3129.0,2976.0,3546.0,3274.0,2688.0,2868.0,2458.0,0.58,9.14,8.01,-0.14,0.04,-0.1,0.0,t
3051.0,3135.0,2977.0,3553.0,3280.0,2694.0,2878.0,2460.0,0.54,9.26,7.74,-0.14,0.02,-0.09,0.0,t
3046.0,3131.0,2983.0,3559.0,3282.0,2693.0,2875.0,2460.0,0.8,9.09,8.04,-0.31,0.01,-0.09,0.0,t
3043.0,3128.0,2981.0,3556.0,3280.0,2688.0,2872.0,2453.0,0.43,8.67,9.31,-0.21,0.02,-0.04,0.0,t
3053.0,3126.0,2989.0,3563.0,3282.0,2695.0,2882.0,2461.0,1.06,8.67,9.08,-0.02,0.06,-0.02,0.0,t
3043.0,3121.0,2966.0,3555.0,3280.0,2697.0,2869.0,2453.0,1.16,8.87,8.53,0.0,0.04,-0.11,0.0,t
3047.0,3123.0,2977.0,3566.0,3286.0,2704.0,2876.0,2461.0,0.99,8.91,8.39,-0.14,-0.04,-0.16,0.0,t
3039.0,3126.0,2965.0,3555.0,3278.0,2695.0,2875.0,2457.0,0.79,8.72,8.87,-0.22,-0.06,-0.16,0.0,t
3048.0,3121.0,2983.0,3568.0,3292.0,2701.0,2880.0,2464.0,1.14,8.37,9.62,-0.14,0.05,-0.15,0.0,t
3046.0,3115.0,2965.0,3555.0,3280.0,2693.0,2871.0,2456.0,1.06,8.43,9.53,0.03,-0.12,-0.22,0.0,t
3051.0,3135.0,2978.0,3566.0,3282.0,2695.0,2876.0,2463.0,1.01,8.24,9.84,0.05,0.08,-0.17,0.0,t
3030.0,3120.0,2967.0,3555.0,3280.0,2698.0,2875.0,2461.0,0.98,8.38,9.57,0.29,0.02,-0.33,0.0,t
3042.0,3136.0,2982.0,3563.0,3283.0,2699.0,2881.0,2467.0,0.38,8.82,8.7,0.35,-0.06,-0.34,0.0,t
3039.0,3126.0,2975.0,3558.0,3293.0,2704.0,2884.0,2468.0,0.37,9.03,8.23,0.29,-0.02,-0.26,0.0,t
3030.0,3127.0,2979.0,3566.0,3286.0,2701.0,2877.0,2462.0,0.3,9.2,7.95,0.21,0.0,-0.22,0.0,t
3039.0,3120.0,2981.0,3571.0,3285.0,2703.0,2878.0,2467.0,0.34,9.19,7.86,0.08,0.03,-0.19,0.0,t
3037.0,3143.0,2987.0,3568.0,3296.0,2709.0,2893.0,2464.0,0.03,9.44,7.28,0.11,0.04,-0.16,0.0,t
3029.0,3127.0,2967.0,3567.0,3287.0,2705.0,2880.0,2464.0,0.18,9.49,7.28,-0.05,-0.07,-0.2,0.0,t
3049.0,3137.0,2991.0,3568.0,3282.0,2707.0,2881.0,2467.0,-0.05,9.19,7.92,-0.03,-0.09,-0.19,0.0,t
3035.0,3136.0,2992.0,3575.0,3290.0,2709.0,2880.0,2471.0,0.09,9.24,7.77,0.06,-0.03,-0.11,0.0,t
3040.0,3121.0,2974.0,3567.0,3281.0,2705.0,2877.0,2474.0,0.23,9.39,7.35,0.14,-0.05,-0.12,0.0,t
3042.0,3122.0,2973.0,3565.0,3291.0,2719.0,2891.0,2475.0,0.45,9.56,6.94,0.0,-0.12,-0.17,0.0,t
3034.0,3115.0,2983.0,3568.0,3294.0,2716.0,2890.0,2470.0,0.12,9.32,7.68,-0.09,0.0,-0.18,0.0,t
3055.0,3138.0,2990.0,3579.0,3295.0,2715.0,2885.0,2475.0,0.11,9.3,7.66,0.02,-0.02,-0.18,0.0,t
3043.0,3120.0,2975.0,3559.0,3296.0,2718.0,2880.0,2471.0,0.19,9.34,7.48,-0.0,-0.08,-0.19,0.0,t
3045.0,3120.0,2976.0,3567.0,3307.0,2723.0,2890.0,2477.0,0.13,9.43,7.34,-0.01,0.04,-0.15,0.0,t
3043.0,3133.0,2978.0,3568.0,3287.0,2711.0,2887.0,2470.0,0.14,9.19,7.91,-0.03,-0.02,-0.17,0.0,t
3057.0,3136.0,2992.0,3572.0,3291.0,2718.0,2896.0,2478.0,0.12,9.35,7.5,0.07,-0.06,-0.16,0.0,t
3035.0,3119.0,2974.0,3567.0,3286.0,2711.0,2884.0,2466.0,0.11,9.4,7.34,-0.02,-0.05,-0.14,0.0,t
3041.0,3121.0,2992.0,3579.0,3293.0,2716.0,2892.0,2471.0,0.21,9.37,7.5,-0.01,0.06,-0.08,0.0,t
3045.0,3129.0,2975.0,3563.0,3294.0,2718.0,2895.0,2480.0,0.31,9.28,7.66,-0.02,0.05,-0.07,0.0,t
3035.0,3129.0,2977.0,3568.0,3291.0,2718.0,2880.0,2467.0,0.48,9.22,7.84,-0.02,0.05,-0.14,0.0,t
3042.0,3134.0,2987.0,3571.0,3299.0,2718.0,2885.0,2475.0,0.27,9.29,7.68,0.05,-0.07,-0.24,0.0,t
3043.0,3125.0,2975.0,3567.0,3290.0,2711.0,2881.0,2467.0,-0.01,9.45,7.26,0.02,-0.04,-0.22,0.0,t
3042.0,3129.0,2977.0,3575.0,3298.0,2720.0,2895.0,2479.0,0.14,9.33,7.63,-0.06,-0.04,-0.16,0.0,t
3033.0,3130.0,2981.0,3571.0,3292.0,2711.0,2883.0,2470.0,0.08,9.18,7.98,-0.01,0.02,-0.16,0.0,t
3043.0,3126.0,2974.0,3568.0,3287.0,2715.0,2885.0,2475.0,0.06,9.34,7.68,-0.0,-0.03,-0.18,0.0,t
3043.0,3121.0,2965.0,3570.0,3302.0,2720.0,2895.0,2480.0,0.03,9.31,7.73,0.02,-0.03,-0.15,0.0,t
3041.0,3133.0,2981.0,3580.0,3302.0,2722.0,2896.0,2480.0,0.13,9.23,7.78,-0.01,-0.0,-0.15,0.0,t
3054.0,3134.0,2982.0,3569.0,3287.0,2721.0,2888.0,2474.0,0.15,9.23,7.77,0.03,-0.1,-0.2,0.0,t
3042.0,3139.0,2978.0,3577.0,3296.0,2726.0,2901.0,2485.0,-0.04,9.31,7.65,0.0,-0.0,-0.15,0.0,t
3051.0,3121.0,2976.0,3574.0,3296.0,2721.0,2902.0,2475.0,0.13,9.24,7.76,-0.03,0.03,-0.13,0.0,t
3042.0,3125.0,2983.0,3574.0,3302.0,2727.0,2897.0,2481.0,0.01,9.21,7.89,0.03,-0.03,-0.19,0.0,t
3038.0,3120.0,2975.0,3568.0,3289.0,2720.0,2891.0,2478.0,-0.05,9.26,7.72,0.03,-0.03,-0.17,0.0,t
3056.0,3125.0,2981.0,3571.0,3299.0,2731.0,2896.0,2480.0,0.03,9.34,7.51,0.03,-0.0,-0.14,0.0,t
3043.0,3123.0,2979.0,3579.0,3297.0,2717.0,2893.0,2480.0,0.28,9.18,7.86,-0.07,0.05,-0.14,0.0,t
3038.0,3133.0,2977.0,3583.0,3302.0,2730.0,2898.0,2484.0,-0.06,9.16,8.01,0.06,-0.0,-0.15,0.0,t
3048.0,3120.0,2977.0,3568.0,3296.0,2724.0,2896.0,2480.0,-0.14,9.3,7.75,0.06,-0.01,-0.13,0.0,t
3050.0,3127.0,2978.0,3583.0,3310.0,2731.0,2896.0,2480.0,0.17,9.35,7.45,0.02,-0.02,-0.12,0.0,t
3051.0,3136.0,2972.0,3583.0,3306.0,2730.0,2895.0,2480.0,0.09,9.18,7.97,-0.01,-0.02,-0.15,0.0,t
3037.0,3131.0,2991.0,3571.0,3294.0,2723.0,2893.0,2480.0,0.07,9.3,7.62,0.04,-0.03,-0.17,0.0,t
3057.0,3136.0,2972.0,3579.0,3298.0,2734.0,2902.0,2483.0,-0.08,9.32,7.66,0.02,-0.05,-0.15,0.0,t
3041.0,3126.0,2973.0,3570.0,3290.0,2721.0,2891.0,2480.0,0.13,9.28,7.69,0.0,0.06,-0.1,0.0,t
3055.0,3136.0,2983.0,3579.0,3302.0,2725.0,2896.0,2483.0,0.16,9.28,7.66,0.03,-0.03,-0.17,0.0,t
3051.0,3126.0,2979.0,3573.0,3301.0,2723.0,2896.0,2480.0,0.14,9.24,7.77,-0.02,-0.09,-0.2,0.0,t
3039.0,3121.0,2975.0,3578.0,3302.0,2732.0,2896.0,2483.0,-0.08,9.15,8.09,0.02,0.13,-0.12,0.0,t
3042.0,3116.0,2964.0,3579.0,3298.0,2725.0,2893.0,2480.0,-0.0,9.36,7.67,-0.11,-0.06,0.0,0.0,t
3039.0,3136.0,2993.0,3583.0,3312.0,2721.0,2896.0,2485.0,1.07,9.2,7.77,-0.11,0.1,0.14,0.0,t
3039.0,3120.0,2962.0,3569.0,3305.0,2725.0,2900.0,2474.0,1.46,9.11,8.04,-0.06,-0.0,0.0,0.0,t
3035.0,3120.0,2986.0,3583.0,3312.0,2723.0,2903.0,2479.0,1.38,9.11,7.97,-0.05,-0.03,-0.09,0.0,t
3031.0,3120.0,2971.0,3573.0,3312.0,2722.0,2896.0,2474.0,1.29,9.05,8.08,-0.07,-0.02,-0.14,0.0,t
3050.0,3123.0,2970.0,3577.0,3312.0,2731.0,2909.0,2482.0,1.2,9.03,8.17,-0.05,-0.01,-0.12,0.0,t
3035.0,3120.0,2975.0,3575.0,3312.0,2727.0,2902.0,2477.0,1.03,9.1,8.1,-0.04,0.01,-0.07,0.0,t
3055.0,3120.0,2973.0,3583.0,3318.0,2731.0,2911.0,2486.0,1.08,9.18,7.83,-0.12,0.02,0.03,0.0,t
3039.0,3120.0,2973.0,3573.0,3311.0,2727.0,2900.0,2480.0,1.85,8.87,8.24,-0.25,0.02,0.09,0.0,t
3051.0,3137.0,2985.0,3583.0,3317.0,2729.0,2905.0,2480.0,2.35,8.47,9.22,-0.19,0.12,-0.05,0.0,t
3042.0,3129.0,2962.0,3577.0,3313.0,2734.0,2902.0,2480.0,1.87,8.53,9.12,-0.03,-0.04,-0.29,0.0,t
3041.0,3141.0,2987.0,3599.0,3318.0,2726.0,2903.0,2480.0,1.39,8.71,8.84,-0.0,-0.16,-0.35,0.0,t
3043.0,3136.0,2993.0,3600.0,3316.0,2723.0,2906.0,2487.0,1.45,8.76,8.64,-0.05,-0.01,-0.23,0.0,t
3044.0,3121.0,2976.0,3580.0,3312.0,2723.0,2900.0,2480.0,1.35,8.67,8.9,-0.06,0.07,-0.23,0.0,t
3042.0,3147.0,2985.0,3600.0,3312.0,2727.0,2905.0,2491.0,1.16,8.62,9.05,-0.04,-0.13,-0.29,0.0,t
3042.0,3134.0,2973.0,3583.0,3310.0,2723.0,2909.0,2483.0,1.21,8.62,9.0,-0.03,0.12,-0.16,0.0,t
3059.0,3126.0,2969.0,3583.0,3319.0,2736.0,2913.0,2490.0,1.19,8.55,9.19,-0.01,-0.04,-0.22,0.0,t
3047.0,3120.0,2985.0,3583.0,3314.0,2733.0,2899.0,2487.0,0.99,8.56,9.22,-0.01,-0.1,-0.2,0.0,t
3039.0,3137.0,2992.0,3598.0,3319.0,2731.0,2903.0,2493.0,1.12,8.66,8.92,0.06,0.03,-0.12,0.0,t
3035.0,3125.0,2977.0,3577.0,3312.0,2726.0,2906.0,2493.0,1.19,8.66,9.01,0.01,-0.07,-0.15,0.0,t
3047.0,3121.0,2985.0,3610.0,3321.0,2736.0,2911.0,2495.0,0.88,8.79,8.71,-0.01,-0.1,-0.32,0.0,t
3034.0,3121.0,2979.0,3600.0,3311.0,2736.0,2906.0,2486.0,0.84,8.78,8.82,0.1,-0.07,-0.23,0.0,t
3061.0,3133.0,2988.0,3597.0,3317.0,2737.0,2912.0,2497.0,1.04,8.86,8.66,0.07,0.02,-0.15,0.0,t
3045.0,3137.0,2976.0,3583.0,3311.0,2735.0,2909.0,2496.0,1.0,8.86,8.64,0.15,0.09,-0.14,0.0,t
3045.0,3137.0,2986.0,3613.0,3318.0,2736.0,2907.0,2499.0,0.86,8.97,8.4,0.16,0.0,-0.22,0.0,t
3033.0,3129.0,2974.0,3600.0,3313.0,2736.0,2911.0,2489.0,0.92,8.96,8.33,0.06,-0.03,-0.22,0.0,t
3041.0,3136.0,2983.0,3605.0,3314.0,2736.0,2912.0,2495.0,0.56,8.96,8.49,0.16,-0.04,-0.14,0.0,t
3045.0,3120.0,2967.0,3583.0,3308.0,2736.0,2908.0,2493.0,0.92,9.17,7.92,0.21,0.03,-0.17,0.0,t
3042.0,3133.0,2976.0,3600.0,3314.0,2734.0,2903.0,2491.0,1.02,9.33,7.38,0.18,-0.03,-0.19,0.0,t
3054.0,3120.0,2975.0,3622.0,3329.0,2741.0,2911.0,2498.0,0.98,9.31,7.51,0.05,-0.03,-0.23,0.0,t
3042.0,3136.0,2982.0,3583.0,3319.0,2730.0,2913.0,2494.0,0.29,9.02,8.42,0.05,0.12,-0.14,0.0,t
3059.0,3136.0,2976.0,3606.0,3328.0,2737.0,2923.0,2500.0,0.53,9.02,8.34,0.26,0.17,-0.05,0.0,t
3040.0,3133.0,2969.0,3595.0,3313.0,2734.0,2909.0,2495.0,0.81,9.25,7.6,0.39,0.19,-0.02,0.0,t
3046.0,3141.0,2986.0,3596.0,3319.0,2735.0,2917.0,2496.0,0.76,9.43,7.03,0.43,0.3,0.04,0.0,t
3047.0,3131.0,2983.0,3583.0,3322.0,2725.0,2906.0,2486.0,1.24,9.67,6.26,0.38,0.15,-0.07,0.0,t
3042.0,3125.0,2991.0,3600.0,3321.0,2725.0,2907.0,2494.0,1.22,9.73,6.03,0.21,-0.06,-0.27,0.0,t
3043.0,3120.0,2963.0,3566.0,3317.0,2721.0,2903.0,2485.0,0.52,9.9,5.71,0.21,-0.14,-0.32,0.0,t
3046.0,3134.0,2979.0,3565.0,3324.0,2721.0,2913.0,2498.0,0.28,9.91,5.72,-0.02,0.02,-0.13,0.0,t
3038.0,3136.0,2979.0,3551.0,3312.0,2705.0,2905.0,2489.0,0.81,9.64,6.27,-0.05,0.06,-0.08,0.0,t
3046.0,3123.0,2975.0,3567.0,3325.0,2706.0,2911.0,2485.0,0.83,9.7,6.15,-0.07,-0.03,-0.17,0.0,t
3038.0,3120.0,2975.0,3574.0,3316.0,2728.0,2910.0,2496.0,0.85,9.74,6.03,-0.29,-0.1,-0.03,0.0,t
3052.0,3135.0,2978.0,3583.0,3322.0,2725.0,2914.0,2498.0,1.04,9.53,6.72,-0.46,-0.02,0.07,0.0,t
3050.0,3125.0,2969.0,3579.0,3327.0,2726.0,2910.0,2486.0,1.52,9.05,7.78,-0.48,0.06,0.1,0.0,t
3038.0,3130.0,2979.0,3600.0,3335.0,2731.0,2915.0,2495.0,1.93,8.8,8.51,-0.36,0.05,0.03,0.0,t
3045.0,3120.0,2975.0,3573.0,3318.0,2727.0,2902.0,2495.0,1.97,8.67,8.77,-0.19,0.09,-0.05,0.0,t
3043.0,3125.0,2978.0,3595.0,3326.0,2733.0,2917.0,2496.0,1.81,8.73,8.77,-0.11,0.03,-0.15,0.0,t
3047.0,3136.0,2977.0,3583.0,3317.0,2726.0,2912.0,2496.0,1.83,8.86,8.42,-0.07,-0.05,-0.16,0.0,t
3043.0,3122.0,2986.0,3605.0,3333.0,2736.0,2917.0,2497.0,1.76,8.68,8.81,-0.08,0.01,-0.2,0.0,t
3046.0,3124.0,2967.0,3579.0,3330.0,2739.0,2922.0,2506.0,1.91,8.67,8.83,-0.01,-0.04,-0.25,0.0,t
3041.0,3129.0,2975.0,3599.0,3331.0,2730.0,2913.0,2493.0,1.6,8.74,8.7,-0.04,-0.05,-0.36,0.0,t
3047.0,3125.0,2983.0,3599.0,3328.0,2735.0,2914.0,2505.0,1.28,8.68,8.85,-0.04,-0.01,-0.33,0.0,t
3037.0,3127.0,2967.0,3597.0,3325.0,2730.0,2909.0,2495.0,1.26,8.68,8.92,-0.05,-0.08,-0.35,0.0,t
3050.0,3138.0,2988.0,3602.0,3328.0,2736.0,2913.0,2505.0,0.9,8.68,9.06,-0.0,-0.05,-0.32,0.0,t
3042.0,3133.0,2983.0,3609.0,3327.0,2735.0,2907.0,2498.0,0.73,8.77,8.81,0.07,-0.01,-0.26,0.0,t
3054.0,3123.0,2975.0,3611.0,3333.0,2736.0,2917.0,2507.0,0.79,8.79,8.71,0.0,0.04,-0.19,0.0,t
3039.0,3121.0,2975.0,3583.0,3326.0,2736.0,2918.0,2505.0,0.87,8.69,9.0,0.01,-0.02,-0.21,0.0,t
3048.0,3119.0,2981.0,3610.0,3335.0,2737.0,2915.0,2506.0,0.83,8.73,8.94,0.07,0.02,-0.27,0.0,t
3051.0,3127.0,2967.0,3583.0,3328.0,2732.0,2913.0,2509.0,0.51,8.8,8.82,0.12,-0.02,-0.29,0.0,t
3054.0,3136.0,2977.0,3599.0,3327.0,2734.0,2919.0,2512.0,0.53,8.84,8.69,0.13,0.06,-0.24,0.0,t
3040.0,3121.0,2971.0,3583.0,3325.0,2736.0,2915.0,2509.0,0.49,8.87,8.64,0.15,-0.02,-0.28,0.0,t
3034.0,3127.0,2980.0,3600.0,3325.0,2731.0,2906.0,2506.0,0.09,9.14,8.15,0.18,-0.01,-0.21,0.0,t
3041.0,3127.0,2983.0,3617.0,3337.0,2739.0,2916.0,2512.0,-0.06,9.21,7.8,0.13,0.03,-0.19,0.0,t
3039.0,3136.0,2965.0,3598.0,3318.0,2735.0,2911.0,2509.0,-0.11,9.25,7.72,0.15,0.03,-0.19,0.0,t
3040.0,3134.0,2967.0,3583.0,3336.0,2742.0,2917.0,2514.0,-0.08,9.26,7.71,0.11,-0.02,-0.19,0.0,t
3034.0,3136.0,2974.0,3600.0,3326.0,2735.0,2913.0,2504.0,-0.19,9.35,7.54,0.09,0.02,-0.16,0.0,t
3051.0,3121.0,2976.0,3608.0,3330.0,2749.0,2925.0,2511.0,-0.18,9.29,7.67,0.07,0.01,-0.15,0.0,t
3037.0,3123.0,2974.0,3600.0,3328.0,2736.0,2919.0,2510.0,-0.05,9.22,7.79,0.13,0.02,-0.15,0.0,t
3041.0,3136.0,2978.0,3607.0,3327.0,2747.0,2921.0,2511.0,-0.13,9.38,7.39,0.11,0.0,-0.14,0.0,t
3043.0,3136.0,2992.0,3600.0,3333.0,2744.0,2923.0,2512.0,-0.23,9.39,7.31,0.14,0.0,-0.14,0.0,t
3043.0,3138.0,2983.0,3606.0,3326.0,2736.0,2913.0,2506.0,-0.18,9.47,7.09,0.15,0.01,-0.11,0.0,t
3041.0,3134.0,2987.0,3602.0,3337.0,2750.0,2928.0,2512.0,-0.05,9.57,6.88,0.1,0.01,-0.09,0.0,t
3050.0,3123.0,2970.0,3597.0,3322.0,2741.0,2918.0,2511.0,-0.02,9.52,6.91,0.03,-0.01,-0.11,0.0,t
3037.0,3121.0,2972.0,3603.0,3339.0,2748.0,2921.0,2509.0,-0.06,9.52,6.96,0.02,0.01,-0.09,0.0,t
3031.0,3123.0,2966.0,3600.0,3329.0,2736.0,2913.0,2507.0,0.1,9.54,6.89,0.05,0.06,-0.08,0.0,t
3038.0,3141.0,2982.0,3603.0,3328.0,2751.0,2925.0,2512.0,0.19,9.55,6.87,0.02,-0.0,-0.1,0.0,t
3042.0,3120.0,2969.0,3583.0,3335.0,2741.0,2918.0,2510.0,0.08,9.5,7.03,0.02,-0.01,-0.08,0.0,t
3053.0,3126.0,2985.0,3610.0,3331.0,2742.0,2915.0,2511.0,0.3,9.52,6.91,0.02,0.03,-0.08,0.0,t
3045.0,3124.0,2970.0,3600.0,3328.0,2742.0,2915.0,2512.0,0.27,9.54,6.9,-0.01,0.01,-0.08,0.0,t
3047.0,3141.0,2982.0,3610.0,3338.0,2747.0,2921.0,2512.0,0.43,9.53,6.93,0.02,-0.0,-0.09,0.0,t
3037.0,3129.0,2975.0,3597.0,3328.0,2742.0,2919.0,2508.0,0.45,9.53,6.94,-0.02,-0.02,-0.08,0.0,t
3033.0,3127.0,2971.0,3598.0,3330.0,2744.0,2915.0,2511.0,1.14,9.55,6.85,-0.05,0.08,0.06,0.0,t
3061.0,3127.0,2977.0,3613.0,3337.0,2747.0,2923.0,2513.0,1.24,9.41,7.1,-0.07,-0.01,-0.06,0.0,t
3037.0,3123.0,2966.0,3583.0,3323.0,2747.0,2919.0,2512.0,1.04,9.43,7.16,-0.05,-0.05,-0.16,0.0,t
3051.0,3131.0,2979.0,3600.0,3337.0,2751.0,2928.0,2518.0,0.87,9.48,7.12,-0.09,-0.06,-0.09,0.0,t
3029.0,3136.0,2985.0,3602.0,3329.0,2748.0,2918.0,2511.0,1.2,9.28,7.52,-0.1,0.04,-0.06,0.0,t
3042.0,3140.0,2975.0,3605.0,3330.0,2746.0,2922.0,2518.0,1.2,9.27,7.55,-0.01,-0.02,-0.11,0.0,t
3051.0,3120.0,2967.0,3583.0,3327.0,2741.0,2919.0,2512.0,1.26,9.36,7.39,-0.02,-0.01,-0.12,0.0,t
3051.0,3133.0,2992.0,3609.0,3339.0,2746.0,2919.0,2515.0,1.36,9.29,7.49,-0.04,-0.02,-0.15,0.0,t
3043.0,3142.0,2982.0,3583.0,3328.0,2743.0,2916.0,2516.0,1.18,9.26,7.6,-0.04,0.01,-0.13,0.0,t
3051.0,3131.0,2978.0,3604.0,3343.0,2750.0,2922.0,2519.0,1.17,9.23,7.63,-0.05,0.02,-0.08,0.0,t
3046.0,3136.0,2982.0,3607.0,3344.0,2747.0,2923.0,2522.0,1.45,9.19,7.69,-0.06,0.0,-0.1,0.0,t
3047.0,3133.0,2971.0,3598.0,3338.0,2752.0,2925.0,2517.0,1.51,9.17,7.8,-0.06,-0.03,-0.15,0.0,t
3055.0,3120.0,2989.0,3600.0,3337.0,2754.0,2923.0,2518.0,1.21,9.2,7.76,-0.02,-0.05,-0.16,0.0,t
3047.0,3122.0,2971.0,3602.0,3335.0,2750.0,2920.0,2512.0,1.26,9.17,7.8,-0.08,-0.01,-0.11,0.0,t
3059.0,3130.0,2981.0,3611.0,3343.0,2755.0,2927.0,2524.0,1.43,9.07,8.1,-0.07,0.01,-0.1,0.0,t
3050.0,3127.0,2975.0,3595.0,3328.0,2740.0,2917.0,2518.0,1.51,9.07,8.07,-0.01,-0.02,-0.12,0.0,t
3054.0,3146.0,2990.0,3607.0,3335.0,2754.0,2928.0,2522.0,1.46,9.07,8.04,0.02,-0.02,-0.13,0.0,t
3041.0,3127.0,2975.0,3599.0,3330.0,2742.0,2917.0,2518.0,1.5,9.04,8.05,-0.02,0.01,-0.12,0.0,t
3055.0,3133.0,2981.0,3583.0,3343.0,2750.0,2928.0,2525.0,1.54,9.0,8.16,-0.0,-0.01,-0.15,0.0,t
3043.0,3121.0,2982.0,3598.0,3327.0,2746.0,2914.0,2514.0,1.39,9.11,7.95,0.06,0.06,-0.13,0.0,t
3038.0,3125.0,2975.0,3601.0,3328.0,2741.0,2921.0,2519.0,1.57,9.06,7.96,0.06,-0.04,-0.12,0.0,t
3043.0,3139.0,2974.0,3602.0,3339.0,2752.0,2926.0,2529.0,1.62,9.09,7.89,-0.01,0.0,-0.09,0.0,t
3039.0,3133.0,2969.0,3605.0,3334.0,2747.0,2916.0,2514.0,1.72,9.01,8.14,0.05,-0.01,-0.12,0.0,t
3052.0,3143.0,2990.0,3614.0,3339.0,2757.0,2929.0,2524.0,1.71,9.13,7.79,0.03,-0.03,-0.12,0.0,t
3050.0,3124.0,2988.0,3600.0,3337.0,2747.0,2917.0,2521.0,1.67,9.01,8.1,-0.05,0.05,-0.09,0.0,t
3043.0,3135.0,2981.0,3606.0,3344.0,2755.0,2927.0,2521.0,1.73,9.05,7.99,-0.02,-0.0,-0.1,0.0,t
3045.0,3126.0,2977.0,3601.0,3331.0,2747.0,2917.0,2518.0,1.91,9.02,8.0,-0.03,-0.0,-0.11,0.0,t
3056.0,3125.0,2978.0,3606.0,3337.0,2755.0,2930.0,2529.0,1.99,8.93,8.21,-0.06,-0.02,-0.15,0.0,t
3033.0,3127.0,2977.0,3603.0,3337.0,2752.0,2925.0,2522.0,1.82,9.07,7.87,-0.07,-0.13,-0.21,0.0,t
3049.0,3137.0,2976.0,3605.0,3335.0,2747.0,2925.0,2524.0,1.78,8.99,8.03,-0.22,-0.01,-0.14,0.0,t
3037.0,3135.0,2983.0,3614.0,3337.0,2749.0,2918.0,2526.0,1.87,8.63,8.85,-0.16,0.02,-0.11,0.0,t
3045.0,3137.0,2969.0,3581.0,3339.0,2751.0,2926.0,2525.0,2.01,8.56,9.04,-0.05,0.04,-0.18,0.0,t
3049.0,3137.0,2983.0,3613.0,3341.0,2758.0,2927.0,2525.0,1.86,8.74,8.59,0.04,-0.03,-0.2,0.0,t
3049.0,3120.0,2979.0,3583.0,3339.0,2752.0,2922.0,2519.0,1.78,8.78,8.55,-0.0,0.0,-0.22,0.0,t
3056.0,3147.0,2990.0,3603.0,3339.0,2757.0,2931.0,2530.0,1.56,8.73,8.77,0.02,-0.1,-0.24,0.0,t
3037.0,3131.0,2974.0,3603.0,3337.0,2753.0,2928.0,2518.0,1.58,8.81,8.53,0.03,0.07,-0.11,0.0,t
3055.0,3138.0,2979.0,3614.0,3343.0,2753.0,2923.0,2530.0,1.71,8.78,8.66,-0.01,0.07,-0.11,0.0,t
3031.0,3120.0,2978.0,3610.0,3344.0,2752.0,2917.0,2521.0,1.81,8.68,8.73,0.0,-0.09,-0.19,0.0,t
3033.0,3138.0,2987.0,3619.0,3341.0,2752.0,2921.0,2528.0,1.67,8.78,8.66,0.03,-0.05,-0.17,0.0,t
3055.0,3126.0,2969.0,3603.0,3335.0,2750.0,2921.0,2524.0,1.68,8.78,8.63,0.02,0.03,-0.14,0.0,t
3055.0,3104.0,3155.0,3557.0,2941.0,2641.0,2671.0,2433.0,-0.9,7.97,9.74,-0.01,0.17,-0.0,0.0,t
3055.0,3095.0,3136.0,3547.0,2934.0,2640.0,2662.0,2421.0,-1.43,8.1,9.68,-0.11,0.15,-0.0,0.0,t
3055.0,3088.0,3153.0,3557.0,2942.0,2640.0,2666.0,2425.0,-1.41,8.03,9.91,-0.17,0.15,0.04,0.0,t
3046.0,3095.0,3140.0,3558.0,2945.0,2640.0,2662.0,2423.0,-0.83,8.11,9.53,-0.17,0.25,0.11,0.0,t
3048.0,3099.0,3139.0,3555.0,2942.0,2635.0,2660.0,2419.0,-0.3,8.04,9.46,-0.39,0.37,0.06,0.0,t
3053.0,3088.0,3146.0,3553.0,2944.0,2641.0,2672.0,2429.0,-0.17,7.56,10.2,-0.59,0.52,0.03,0.0,t
3048.0,3085.0,3147.0,3568.0,2950.0,2636.0,2666.0,2427.0,-0.44,7.18,10.81,-0.59,0.53,-0.1,0.0,t
3051.0,3088.0,3150.0,3563.0,2942.0,2631.0,2659.0,2427.0,-1.11,6.91,11.03,-0.6,0.43,-0.28,0.0,t
3057.0,3101.0,3152.0,3562.0,2946.0,2629.0,2656.0,2433.0,-1.77,6.7,11.37,-0.64,0.32,-0.33,0.0,t
3053.0,3088.0,3145.0,3577.0,2960.0,2640.0,2658.0,2431.0,-2.62,6.05,12.08,-0.53,0.51,-0.15,0.0,t
3059.0,3093.0,3130.0,3571.0,2951.0,2638.0,2663.0,2433.0,-3.39,5.74,12.88,-0.47,0.51,0.08,0.0,t
3055.0,3087.0,3152.0,3579.0,2958.0,2632.0,2671.0,2442.0,-2.44,5.61,13.06,-0.19,0.51,0.29,0.0,t
3050.0,3088.0,3130.0,3567.0,2954.0,2633.0,2663.0,2432.0,-3.09,6.31,11.99,-0.06,-0.09,0.22,0.0,t
3057.0,3095.0,3143.0,3571.0,2955.0,2628.0,2661.0,2435.0,-0.81,5.74,11.68,-0.03,0.13,0.4,0.0,t
3053.0,3071.0,3147.0,3581.0,2961.0,2635.0,2671.0,2438.0,-1.97,5.88,12.7,0.11,0.79,0.29,0.0,t
3052.0,3087.0,3141.0,3574.0,2955.0,2631.0,2658.0,2436.0,-2.62,6.28,11.91,0.37,0.44,0.22,0.0,t
3061.0,3103.0,3152.0,3583.0,2962.0,2639.0,2672.0,2448.0,-1.67,6.2,12.07,0.45,0.11,0.08,0.0,t
3058.0,3099.0,3146.0,3600.0,2974.0,2635.0,2669.0,2445.0,-1.37,6.96,10.93,0.73,0.12,-0.09,0.0,t
3056.0,3094.0,3136.0,3573.0,2957.0,2630.0,2671.0,2442.0,-1.84,6.84,10.45,0.45,0.16,-0.02,0.0,t
3049.0,3082.0,3141.0,3598.0,2973.0,2640.0,2673.0,2442.0,-2.01,7.25,10.88,0.28,0.26,-0.06,0.0,t
3065.0,3088.0,3155.0,3583.0,2969.0,2627.0,2672.0,2449.0,-1.58,8.81,8.93,-0.43,-1.09,-0.27,0.0,t
3054.0,3079.0,3139.0,3568.0,2967.0,2624.0,2675.0,2449.0,-0.71,8.6,9.27,-0.5,-1.01,-0.22,0.0,t
3041.0,3088.0,3143.0,3600.0,2963.0,2625.0,2673.0,2451.0,-0.6,8.43,9.55,-0.16,0.25,0.01,0.0,t
3047.0,3095.0,3135.0,3630.0,2981.0,2630.0,2678.0,2455.0,-0.38,8.42,9.34,-0.01,0.36,0.03,0.0,t
3059.0,3088.0,3152.0,3619.0,2973.0,2626.0,2682.0,2451.0,-0.41,8.31,9.66,-0.1,-0.01,-0.16,0.0,t
3043.0,3093.0,3138.0,3626.0,2979.0,2630.0,2677.0,2460.0,-0.23,8.29,9.78,-0.05,0.03,-0.17,0.0,t
3060.0,3091.0,3136.0,3632.0,2988.0,2639.0,2685.0,2460.0,-0.28,8.24,9.75,0.02,-0.01,-0.19,0.0,t
3047.0,3087.0,3151.0,3626.0,2977.0,2627.0,2679.0,2448.0,-0.43,8.22,9.82,-0.03,-0.11,-0.27,0.0,t
3044.0,3088.0,3150.0,3643.0,2981.0,2633.0,2687.0,2459.0,-0.5,8.29,9.61,0.04,-0.04,-0.25,0.0,t
3043.0,3095.0,3140.0,3637.0,2981.0,2634.0,2678.0,2455.0,-0.74,8.37,9.56,0.05,-0.07,-0.27,0.0,t
3049.0,3088.0,3141.0,3630.0,2974.0,2626.0,2672.0,2448.0,-0.76,8.38,9.47,0.02,-0.11,-0.23,0.0,t
3063.0,3107.0,3145.0,3645.0,2981.0,2626.0,2680.0,2451.0,-0.57,8.45,9.32,-0.03,-0.04,-0.19,0.0,t
3056.0,3083.0,3143.0,3627.0,2977.0,2623.0,2676.0,2449.0,-0.57,8.3,9.62,-0.02,0.04,-0.19,0.0,t
3057.0,3099.0,3151.0,3639.0,2981.0,2637.0,2686.0,2454.0,-0.59,8.34,9.58,-0.01,0.02,-0.21,0.0,t
3044.0,3098.0,3139.0,3644.0,2982.0,2629.0,2679.0,2448.0,-0.78,8.28,9.64,0.01,0.01,-0.2,0.0,t
3047.0,3081.0,3141.0,3633.0,2975.0,2628.0,2674.0,2454.0,-0.82,8.31,9.68,0.02,-0.02,-0.17,0.0,t
3043.0,3094.0,3149.0,3646.0,2987.0,2638.0,2679.0,2449.0,-0.7,8.41,9.43,0.01,-0.03,-0.18,0.0,t
3045.0,3105.0,3136.0,3641.0,2981.0,2639.0,2688.0,2457.0,-0.7,8.28,9.58,-0.05,-0.02,-0.17,0.0,t
3047.0,3095.0,3133.0,3635.0,2975.0,2627.0,2675.0,2448.0,-0.74,8.14,9.94,-0.08,0.01,-0.17,0.0,t
3047.0,3091.0,3152.0,3644.0,2989.0,2640.0,2673.0,2457.0,-0.57,8.14,10.03,0.05,-0.02,-0.17,0.0,t
3056.0,3088.0,3150.0,3664.0,2997.0,2660.0,2703.0,2479.0,-0.15,9.05,8.22,0.16,0.13,0.11,0.0,t
3043.0,3089.0,3146.0,3663.0,2992.0,2655.0,2693.0,2471.0,-0.25,9.03,8.27,0.01,0.04,0.01,0.0,t
3044.0,3090.0,3136.0,3663.0,2987.0,2651.0,2697.0,2475.0,-0.13,8.86,8.64,-0.11,0.04,-0.01,0.0,t
3069.0,3103.0,3155.0,3667.0,2995.0,2665.0,2704.0,2483.0,-0.35,8.64,9.13,-0.11,0.12,0.05,0.0,t
3054.0,3095.0,3153.0,3662.0,2991.0,2650.0,2690.0,2473.0,-0.64,8.41,9.62,-0.09,0.07,0.06,0.0,t
3058.0,3101.0,3135.0,3665.0,2990.0,2652.0,2697.0,2474.0,-0.57,8.44,9.53,-0.01,0.09,0.25,0.0,t
3063.0,3101.0,3151.0,3658.0,2985.0,2645.0,2690.0,2479.0,0.33,8.63,9.11,0.02,0.19,0.31,0.0,t
3044.0,3090.0,3138.0,3660.0,2988.0,2641.0,2689.0,2463.0,0.96,8.62,9.0,0.0,0.17,0.19,0.0,t
3050.0,3095.0,3147.0,3669.0,2990.0,2640.0,2703.0,2474.0,0.82,8.51,9.24,-0.02,0.09,0.02,0.0,t
3055.0,3107.0,3152.0,3680.0,2992.0,2641.0,2698.0,2478.0,0.66,8.52,9.32,-0.02,0.02,-0.09,0.0,t
3038.0,3091.0,3137.0,3664.0,2986.0,2640.0,2693.0,2469.0,0.27,8.57,9.25,0.0,-0.03,-0.11,0.0,t
3051.0,3091.0,3138.0,3675.0,2991.0,2641.0,2704.0,2469.0,0.42,8.71,9.0,-0.0,-0.11,-0.12,0.0,t
3065.0,3088.0,3138.0,3664.0,2987.0,2640.0,2705.0,2463.0,0.72,8.67,9.0,-0.1,-0.12,-0.12,0.0,t
3051.0,3097.0,3146.0,3674.0,2992.0,2641.0,2704.0,2453.0,0.86,8.43,9.37,-0.14,-0.06,-0.19,0.0,t
3056.0,3091.0,3153.0,3690.0,2993.0,2644.0,2706.0,2457.0,0.45,8.38,9.79,-0.05,-0.08,-0.23,0.0,t
3046.0,3088.0,3137.0,3681.0,2993.0,2647.0,2707.0,2453.0,0.14,8.51,9.45,0.01,-0.06,-0.21,0.0,t
3065.0,3090.0,3152.0,3695.0,2993.0,2647.0,2713.0,2460.0,0.32,8.52,9.39,-0.01,0.01,-0.13,0.0,t
3045.0,3099.0,3145.0,3696.0,2995.0,2642.0,2707.0,2455.0,0.49,8.45,9.47,-0.04,0.0,-0.13,0.0,t
3059.0,3085.0,3148.0,3678.0,2989.0,2643.0,2707.0,2457.0,0.62,8.41,9.54,-0.01,-0.03,-0.16,0.0,t
3056.0,3109.0,3167.0,3697.0,2993.0,2646.0,2706.0,2457.0,0.5,8.45,9.5,-0.0,-0.03,-0.19,0.0,t
3053.0,3093.0,3152.0,3710.0,3005.0,2655.0,2714.0,2462.0,0.53,8.34,9.62,0.01,-0.0,-0.14,0.0,t
3050.0,3098.0,3152.0,3707.0,3005.0,2658.0,2721.0,2467.0,0.56,8.34,9.66,-0.01,0.02,-0.13,0.0,t
3056.0,3083.0,3141.0,3691.0,2997.0,2656.0,2719.0,2461.0,0.5,8.27,9.74,-0.02,-0.0,-0.12,0.0,t
3059.0,3099.0,3157.0,3703.0,3002.0,2657.0,2721.0,2462.0,0.68,8.32,9.67,0.02,0.0,-0.11,0.0,t
3061.0,3089.0,3151.0,3687.0,2992.0,2656.0,2718.0,2464.0,0.74,8.32,9.63,-0.01,0.02,-0.13,0.0,t
3056.0,3088.0,3150.0,3690.0,2995.0,2657.0,2717.0,2460.0,0.7,8.28,9.69,-0.01,-0.01,-0.16,0.0,t
3056.0,3101.0,3159.0,3701.0,3006.0,2665.0,2729.0,2463.0,0.67,8.28,9.74,-0.01,0.01,-0.16,0.0,t
3050.0,3102.0,3157.0,3694.0,2992.0,2659.0,2715.0,2458.0,0.7,8.2,9.89,0.05,0.03,-0.22,0.0,t
3057.0,3095.0,3150.0,3702.0,3003.0,2665.0,2730.0,2467.0,0.57,8.3,9.77,0.15,-0.04,-0.28,0.0,t
3056.0,3084.0,3146.0,3701.0,2997.0,2667.0,2731.0,2467.0,0.59,8.33,9.64,0.03,0.0,-0.19,0.0,t
3047.0,3088.0,3143.0,3695.0,2991.0,2660.0,2725.0,2467.0,0.53,8.26,9.79,0.07,0.07,-0.19,0.0,t
3049.0,3097.0,3157.0,3696.0,2995.0,2659.0,2722.0,2468.0,0.87,8.22,9.82,0.16,0.33,-0.06,0.0,t
3047.0,3089.0,3136.0,3699.0,3002.0,2659.0,2722.0,2467.0,0.58,8.36,9.46,0.42,1.38,0.28,0.0,t
3056.0,3071.0,3142.0,3674.0,2997.0,2657.0,2727.0,2467.0,-0.2,8.64,9.32,0.42,0.92,0.04,0.0,t
3051.0,3098.0,3146.0,3677.0,2997.0,2660.0,2731.0,2475.0,-0.03,8.69,9.02,0.39,0.56,-0.12,0.0,t
3062.0,3095.0,3155.0,3651.0,2992.0,2651.0,2729.0,2466.0,-0.2,9.05,8.28,0.19,0.52,0.03,0.0,t
3055.0,3069.0,3155.0,3672.0,2991.0,2658.0,2729.0,2463.0,-0.31,8.99,8.44,0.0,0.31,-0.04,0.0,t
3055.0,3088.0,3147.0,3677.0,3003.0,2670.0,2736.0,2476.0,-0.47,8.85,8.72,-0.11,0.2,0.0,0.0,t
3047.0,3102.0,3142.0,3679.0,2996.0,2656.0,2727.0,2473.0,-0.23,8.79,8.81,-0.25,0.0,0.0,0.0,t
3058.0,3090.0,3152.0,3703.0,3003.0,2659.0,2736.0,2479.0,0.11,8.57,9.3,-0.28,-0.05,-0.03,0.0,t
3049.0,3089.0,3151.0,3703.0,3006.0,2669.0,2736.0,2487.0,-0.66,8.28,9.77,0.05,-0.08,-0.34,0.0,t
3051.0,3090.0,3137.0,3705.0,2998.0,2661.0,2734.0,2482.0,-0.64,8.33,9.64,0.04,-0.05,-0.26,0.0,t
3055.0,3088.0,3152.0,3711.0,3013.0,2675.0,2743.0,2490.0,-0.58,8.34,9.55,-0.01,-0.07,-0.27,0.0,t
3049.0,3087.0,3152.0,3717.0,3006.0,2665.0,2737.0,2486.0,-0.5,8.19,9.81,-0.01,-0.04,-0.23,0.0,t
3056.0,3094.0,3159.0,3718.0,3011.0,2671.0,2743.0,2487.0,-0.47,8.23,9.72,0.01,-0.02,-0.23,0.0,t
3055.0,3087.0,3155.0,3728.0,3015.0,2672.0,2739.0,2486.0,-0.44,8.2,9.72,-0.01,-0.03,-0.22,0.0,t
3057.0,3083.0,3141.0,3703.0,3007.0,2666.0,2737.0,2483.0,-0.49,8.13,9.94,-0.03,-0.02,-0.25,0.0,t
3055.0,3081.0,3150.0,3712.0,3010.0,2672.0,2746.0,2491.0,-0.58,8.15,9.89,0.02,-0.05,-0.29,0.0,t
3051.0,3089.0,3136.0,3728.0,3003.0,2670.0,2736.0,2487.0,-0.48,8.23,9.71,0.03,-0.04,-0.29,0.0,t
3056.0,3086.0,3142.0,3719.0,3005.0,2672.0,2735.0,2482.0,-0.87,8.23,9.7,0.02,-0.05,-0.3,0.0,t
3044.0,3087.0,3152.0,3729.0,3011.0,2673.0,2743.0,2493.0,-0.77,8.18,9.79,0.03,-0.03,-0.3,0.0,t
3056.0,3098.0,3147.0,3703.0,2998.0,2669.0,2736.0,2485.0,-0.95,8.18,9.83,0.03,-0.06,-0.3,0.0,t
3045.0,3089.0,3139.0,3713.0,2999.0,2665.0,2736.0,2486.0,-0.56,8.09,9.72,0.04,-0.01,-0.3,0.0,t
3047.0,3087.0,3146.0,3717.0,3007.0,2673.0,2743.0,2486.0,-1.01,8.05,9.96,-0.03,-0.06,-0.3,0.0,t
3039.0,3088.0,3137.0,3719.0,3007.0,2667.0,2733.0,2481.0,-1.26,8.12,10.03,0.04,-0.08,-0.3,0.0,t
3051.0,3091.0,3148.0,3725.0,3010.0,2672.0,2737.0,2490.0,-1.08,8.16,9.72,0.08,-0.03,-0.23,0.0,t
3056.0,3098.0,3139.0,3721.0,3009.0,2672.0,2743.0,2490.0,-0.97,8.21,9.71,0.04,-0.03,-0.25,0.0,t
3056.0,3092.0,3149.0,3718.0,3003.0,2665.0,2737.0,2489.0,-1.18,8.2,9.68,0.05,-0.06,-0.27,0.0,t
3061.0,3079.0,3151.0,3715.0,3008.0,2669.0,2749.0,2492.0,-1.38,8.18,9.77,0.01,-0.03,-0.19,0.0,t
3051.0,3088.0,3156.0,3724.0,3005.0,2670.0,2737.0,2483.0,-1.24,8.02,9.97,0.01,0.01,-0.16,0.0,t
3062.0,3107.0,3159.0,3725.0,3020.0,2685.0,2743.0,2493.0,-1.45,8.26,9.62,0.12,-0.01,-0.2,0.0,t
3047.0,3086.0,3152.0,3719.0,3007.0,2672.0,2736.0,2491.0,-1.58,8.36,9.28,0.13,0.01,-0.17,0.0,t
3057.0,3088.0,3155.0,3715.0,3007.0,2676.0,2746.0,2493.0,-1.5,8.48,9.09,0.12,-0.03,-0.15,0.0,t
3063.0,3087.0,3149.0,3728.0,3011.0,2675.0,2740.0,2491.0,-1.46,8.52,9.05,0.08,-0.01,-0.14,0.0,t
3045.0,3089.0,3149.0,3711.0,3005.0,2671.0,2737.0,2491.0,-1.35,8.5,9.07,0.06,0.0,-0.13,0.0,t
3055.0,3088.0,3141.0,3738.0,3014.0,2675.0,2739.0,2491.0,-1.35,8.44,9.2,0.03,0.0,-0.14,0.0,t
3053.0,3078.0,3139.0,3728.0,3008.0,2672.0,2738.0,2486.0,-1.52,8.41,9.31,0.04,-0.02,-0.15,0.0,t
3045.0,3088.0,3139.0,3723.0,3004.0,2669.0,2741.0,2495.0,-1.33,8.43,9.16,0.07,-0.0,-0.13,0.0,t
3051.0,3097.0,3141.0,3734.0,3014.0,2681.0,2750.0,2496.0,-1.41,8.48,9.12,0.07,-0.0,-0.14,0.0,t
3051.0,3094.0,3141.0,3724.0,3003.0,2671.0,2736.0,2491.0,-1.25,8.5,9.03,0.06,-0.02,-0.15,0.0,t
3062.0,3087.0,3157.0,3728.0,3011.0,2679.0,2749.0,2496.0,-1.24,8.48,9.1,0.04,0.01,-0.18,0.0,t
3055.0,3102.0,3161.0,3722.0,3013.0,2674.0,2741.0,2495.0,-1.47,8.43,9.26,0.06,-0.03,-0.21,0.0,t
3058.0,3071.0,3143.0,3711.0,2999.0,2672.0,2742.0,2495.0,-1.59,8.46,9.2,0.1,-0.11,-0.23,0.0,t
3049.0,3097.0,3147.0,3733.0,3013.0,2673.0,2747.0,2499.0,-1.41,8.56,9.0,0.12,-0.02,-0.17,0.0,t
3058.0,3089.0,3149.0,3728.0,3009.0,2672.0,2742.0,2495.0,-1.52,8.56,8.92,0.07,-0.01,-0.14,0.0,t
3052.0,3087.0,3151.0,3728.0,3015.0,2673.0,2737.0,2494.0,-1.61,8.6,8.9,0.07,-0.05,-0.15,0.0,t
3061.0,3114.0,3149.0,3725.0,3009.0,2676.0,2750.0,2499.0,-1.54,8.63,8.9,0.07,-0.02,-0.1,0.0,t
3048.0,3090.0,3136.0,3723.0,3004.0,2681.0,2745.0,2496.0,-1.15,8.61,8.82,0.05,-0.01,-0.08,0.0,t
3039.0,3070.0,3152.0,3731.0,3010.0,2672.0,2736.0,2491.0,-1.14,8.52,8.95,-0.0,-0.04,-0.15,0.0,t
3066.0,3103.0,3151.0,3728.0,3008.0,2682.0,2747.0,2503.0,-1.55,8.55,9.12,0.07,-0.09,-0.18,0.0,t
3047.0,3088.0,3143.0,3729.0,3014.0,2677.0,2741.0,2496.0,-1.22,8.82,8.6,0.04,0.01,-0.05,0.0,t
3056.0,3086.0,3149.0,3730.0,3017.0,2681.0,2747.0,2503.0,-1.14,8.83,8.51,0.1,-0.02,-0.06,0.0,t
3039.0,3071.0,3152.0,3715.0,3014.0,2677.0,2739.0,2497.0,-1.03,8.96,8.31,0.12,0.01,-0.04,0.0,t
3056.0,3099.0,3152.0,3719.0,3011.0,2681.0,2746.0,2502.0,-0.84,8.98,8.25,0.1,0.0,-0.05,0.0,t
3044.0,3099.0,3139.0,3715.0,3014.0,2688.0,2745.0,2496.0,-0.89,8.93,8.37,0.12,-0.01,-0.09,0.0,t
3056.0,3093.0,3138.0,3712.0,3014.0,2679.0,2736.0,2496.0,-0.97,9.02,8.24,0.17,-0.03,-0.1,0.0,t
3053.0,3098.0,3150.0,3718.0,3019.0,2688.0,2747.0,2506.0,-0.84,9.07,8.04,0.11,0.01,-0.04,0.0,t
3050.0,3093.0,3163.0,3711.0,3011.0,2687.0,2736.0,2496.0,-0.67,9.02,8.07,0.08,0.06,-0.07,0.0,t
3053.0,3090.0,3147.0,3710.0,3013.0,2677.0,2739.0,2501.0,-0.87,9.11,8.17,0.1,0.03,-0.09,0.0,t
3056.0,3092.0,3149.0,3701.0,3014.0,2682.0,2751.0,2507.0,-0.71,9.15,7.88,0.1,0.02,-0.04,0.0,t
3055.0,3091.0,3145.0,3715.0,3014.0,2675.0,2740.0,2496.0,-0.55,9.21,7.71,0.09,0.03,-0.06,0.0,t
3050.0,3085.0,3141.0,3703.0,3009.0,2684.0,2743.0,2501.0,-0.78,9.29,7.77,0.06,0.02,-0.09,0.0,t
3059.0,3095.0,3152.0,3697.0,3011.0,2688.0,2747.0,2503.0,-0.68,9.21,7.79,0.01,0.03,-0.07,0.0,t
3055.0,3090.0,3148.0,3706.0,3007.0,2675.0,2738.0,2495.0,-0.57,9.22,7.75,-0.01,0.03,-0.09,0.0,t
3069.0,3099.0,3149.0,3712.0,3010.0,2682.0,2745.0,2506.0,-0.67,9.19,7.82,-0.06,-0.02,-0.11,0.0,t
3050.0,3095.0,3157.0,3723.0,3022.0,2688.0,2749.0,2507.0,-0.75,9.06,8.19,-0.04,-0.0,-0.07,0.0,t
3043.0,3094.0,3140.0,3711.0,3010.0,2675.0,2738.0,2497.0,-0.53,9.11,8.08,0.01,0.03,-0.04,0.0,t
3056.0,3093.0,3152.0,3715.0,3013.0,2681.0,2753.0,2508.0,-0.46,9.11,8.08,0.02,0.06,-0.03,0.0,t
3051.0,3089.0,3138.0,3707.0,3003.0,2677.0,2738.0,2498.0,-0.52,9.06,8.13,-0.02,0.07,-0.04,0.0,t
3063.0,3095.0,3141.0,3714.0,3020.0,2683.0,2741.0,2498.0,-0.84,9.06,8.29,0.04,0.05,-0.02,0.0,t
3061.0,3100.0,3141.0,3725.0,3017.0,2688.0,2753.0,2507.0,0.43,9.19,7.87,-0.01,-0.01,-0.07,0.0,t
3043.0,3088.0,3155.0,3729.0,3023.0,2690.0,2747.0,2507.0,0.57,9.14,8.0,-0.03,-0.01,-0.05,0.0,t
3049.0,3087.0,3141.0,3715.0,3014.0,2674.0,2738.0,2498.0,0.62,9.14,8.13,-0.02,0.04,0.0,0.0,t
3051.0,3094.0,3143.0,3731.0,3024.0,2691.0,2749.0,2506.0,0.81,9.17,8.01,0.0,0.06,0.0,0.0,t
3043.0,3083.0,3146.0,3706.0,3008.0,2679.0,2741.0,2503.0,1.2,9.15,7.98,-0.06,0.04,-0.04,0.0,t
3049.0,3088.0,3151.0,3713.0,3011.0,2672.0,2738.0,2507.0,1.05,9.02,8.26,-0.07,-0.04,-0.15,0.0,t
3045.0,3089.0,3157.0,3744.0,3024.0,2688.0,2747.0,2507.0,0.79,9.06,8.26,-0.02,-0.04,-0.14,0.0,t
3045.0,3086.0,3146.0,3728.0,3013.0,2679.0,2745.0,2506.0,0.85,9.13,8.09,-0.02,-0.02,-0.12,0.0,t
3056.0,3090.0,3152.0,3757.0,3022.0,2694.0,2741.0,2510.0,0.65,9.13,8.14,-0.04,-0.01,-0.09,0.0,t
3062.0,3092.0,3150.0,3744.0,3013.0,2687.0,2755.0,2512.0,0.8,9.05,8.29,-0.08,-0.07,-0.08,0.0,t
3039.0,3108.0,3159.0,3749.0,3015.0,2691.0,2745.0,2506.0,1.09,8.93,8.49,-0.06,-0.28,-0.15,0.0,t
3055.0,3093.0,3143.0,3743.0,3015.0,2693.0,2753.0,2512.0,1.28,8.98,8.35,0.02,0.1,-0.04,0.0,t
3046.0,3103.0,3152.0,3737.0,3013.0,2686.0,2746.0,2512.0,1.29,9.06,8.14,0.0,0.04,-0.07,0.0,t
3043.0,3088.0,3157.0,3739.0,3018.0,2687.0,2743.0,2507.0,1.15,9.0,8.35,-0.04,-0.05,-0.18,0.0,t
3053.0,3091.0,3145.0,3739.0,3016.0,2689.0,2754.0,2512.0,0.99,9.0,8.37,0.0,0.01,-0.12,0.0,t
3056.0,3088.0,3144.0,3745.0,3011.0,2688.0,2742.0,2510.0,1.05,9.07,8.19,0.01,0.0,-0.09,0.0,t
3056.0,3081.0,3152.0,3739.0,3011.0,2683.0,2743.0,2509.0,1.16,9.07,8.15,-0.03,-0.0,-0.09,0.0,t
3052.0,3090.0,3155.0,3755.0,3024.0,2693.0,2751.0,2510.0,1.25,8.98,8.37,-0.05,0.01,-0.1,0.0,t
3056.0,3088.0,3153.0,3738.0,3011.0,2686.0,2741.0,2509.0,1.23,8.93,8.47,-0.04,-0.0,-0.12,0.0,t
3058.0,3091.0,3154.0,3746.0,3017.0,2689.0,2753.0,2517.0,1.3,8.95,8.4,-0.01,0.01,-0.12,0.0,t
3056.0,3097.0,3157.0,3760.0,3021.0,2694.0,2751.0,2518.0,1.4,8.72,8.88,-0.1,-0.05,-0.16,0.0,t
3053.0,3079.0,3144.0,3747.0,3014.0,2690.0,2747.0,2510.0,1.34,8.67,9.06,-0.07,-0.07,-0.17,0.0,t
3054.0,3093.0,3152.0,3760.0,3017.0,2694.0,2743.0,2510.0,1.33,8.56,9.22,-0.02,-0.08,-0.17,0.0,t
3056.0,3097.0,3153.0,3760.0,3019.0,2689.0,2750.0,2514.0,1.53,8.65,8.96,0.04,-0.1,-0.18,0.0,t
3047.0,3090.0,3152.0,3760.0,3022.0,2691.0,2746.0,2511.0,1.47,8.74,8.75,0.0,0.01,-0.16,0.0,t
3056.0,3103.0,3159.0,3761.0,3023.0,2688.0,2747.0,2515.0,1.36,8.74,8.86,-0.02,-0.09,-0.22,0.0,t
3063.0,3088.0,3152.0,3757.0,3019.0,2694.0,2753.0,2522.0,1.33,8.74,8.82,-0.01,-0.09,-0.2,0.0,t
3047.0,3088.0,3141.0,3748.0,3015.0,2686.0,2749.0,2513.0,1.25,8.79,8.74,-0.03,-0.03,-0.16,0.0,t
3056.0,3086.0,3152.0,3770.0,3024.0,2693.0,2751.0,2517.0,1.48,8.76,8.76,-0.05,-0.05,-0.18,0.0,t
3059.0,3100.0,3153.0,3767.0,3021.0,2688.0,2747.0,2511.0,1.41,8.64,9.01,-0.09,-0.03,-0.19,0.0,t
3062.0,3088.0,3149.0,3747.0,3009.0,2688.0,2747.0,2512.0,1.32,8.6,9.09,-0.03,-0.06,-0.2,0.0,t
3071.0,3084.0,3151.0,3760.0,3019.0,2690.0,2758.0,2515.0,1.23,8.64,9.04,-0.02,-0.04,-0.18,0.0,t
3061.0,3088.0,3149.0,3750.0,3014.0,2688.0,2746.0,2512.0,1.27,8.69,8.9,-0.03,-0.1,-0.19,0.0,t
3047.0,3086.0,3143.0,3755.0,3013.0,2689.0,2746.0,2512.0,1.38,8.67,8.88,-0.03,0.01,-0.15,0.0,t
3057.0,3088.0,3152.0,3755.0,3014.0,2689.0,2752.0,2517.0,1.39,8.58,9.12,-0.11,-0.0,-0.17,0.0,t
3051.0,3090.0,3149.0,3748.0,3018.0,2692.0,2750.0,2512.0,1.12,8.49,9.42,-0.06,-0.02,-0.17,0.0,t
3057.0,3109.0,3153.0,3760.0,3024.0,2690.0,2752.0,2522.0,1.39,8.53,9.25,-0.02,-0.03,-0.15,0.0,t
3056.0,3083.0,3150.0,3756.0,3019.0,2695.0,2753.0,2517.0,1.45,8.52,9.21,0.01,-0.03,-0.19,0.0,t
3049.0,3089.0,3153.0,3751.0,3015.0,2688.0,2746.0,2513.0,1.39,8.59,9.1,0.01,0.02,-0.17,0.0,t
3043.0,3086.0,3152.0,3760.0,3019.0,2699.0,2754.0,2514.0,1.3,8.56,9.17,-0.02,-0.01,-0.2,0.0,t
3056.0,3101.0,3152.0,3760.0,3021.0,2688.0,2745.0,2514.0,1.02,8.4,9.46,-0.05,-0.03,-0.28,0.0,t
3055.0,3079.0,3155.0,3763.0,3024.0,2694.0,2755.0,2521.0,0.9,8.38,9.56,0.02,-0.02,-0.26,0.0,t
3057.0,3082.0,3145.0,3758.0,3019.0,2695.0,2750.0,2512.0,0.91,8.54,9.23,0.03,-0.06,-0.3,0.0,t
3047.0,3087.0,3154.0,3764.0,3022.0,2690.0,2751.0,2513.0,0.77,8.53,9.21,-0.0,-0.01,-0.27,0.0,t
3055.0,3095.0,3147.0,3766.0,3025.0,2701.0,2750.0,2511.0,0.84,8.5,9.28,-0.04,-0.01,-0.28,0.0,t
3057.0,3084.0,3138.0,3744.0,3013.0,2692.0,2749.0,2514.0,0.63,8.33,9.68,-0.06,-0.01,-0.32,0.0,t
3061.0,3085.0,3155.0,3771.0,3021.0,2689.0,2747.0,2512.0,0.36,8.33,9.72,0.01,-0.03,-0.3,0.0,t
3051.0,3089.0,3152.0,3759.0,3015.0,2688.0,2749.0,2523.0,0.39,8.47,9.48,0.04,-0.04,-0.28,0.0,t
3053.0,3083.0,3152.0,3749.0,3018.0,2691.0,2751.0,2515.0,0.42,8.53,9.27,0.03,-0.01,-0.24,0.0,t
3056.0,3094.0,3142.0,3759.0,3023.0,2697.0,2757.0,2522.0,0.35,8.49,9.38,-0.01,-0.0,-0.24,0.0,t
3041.0,3088.0,3152.0,3757.0,3020.0,2691.0,2749.0,2519.0,0.22,8.4,9.61,-0.01,-0.01,-0.22,0.0,t
3056.0,3085.0,3163.0,3765.0,3023.0,2693.0,2754.0,2524.0,0.32,8.46,9.45,0.03,-0.04,-0.21,0.0,t
3053.0,3108.0,3152.0,3759.0,3024.0,2694.0,2752.0,2519.0,0.39,8.5,9.35,0.02,-0.01,-0.2,0.0,t
3055.0,3093.0,3141.0,3754.0,3018.0,2691.0,2745.0,2512.0,0.37,8.49,9.31,0.0,0.0,-0.21,0.0,t
3058.0,3088.0,3161.0,3765.0,3020.0,2694.0,2753.0,2522.0,0.31,8.39,9.61,-0.01,-0.01,-0.23,0.0,t
3051.0,3088.0,3138.0,3759.0,3014.0,2694.0,2747.0,2519.0,0.26,8.43,9.55,0.03,-0.03,-0.23,0.0,t
3045.0,3078.0,3142.0,3759.0,3015.0,2698.0,2750.0,2519.0,0.17,8.43,9.46,0.03,-0.04,-0.24,0.0,t
3053.0,3094.0,3155.0,3771.0,3024.0,2694.0,2749.0,2517.0,0.08,8.5,9.42,0.05,-0.01,-0.18,0.0,t
3049.0,3090.0,3140.0,3757.0,3013.0,2688.0,2741.0,2512.0,0.26,8.52,9.3,0.01,0.02,-0.17,0.0,t
3057.0,3086.0,3137.0,3758.0,3018.0,2688.0,2750.0,2523.0,0.3,8.38,9.57,-0.01,0.01,-0.19,0.0,t
3053.0,3024.0,2962.0,3282.0,3600.0,2529.0,2736.0,2313.0,-1.02,9.46,7.0,0.05,0.01,-0.14,0.0,t
3053.0,3024.0,2957.0,3275.0,3581.0,2527.0,2741.0,2315.0,-0.92,9.47,6.89,-0.01,0.0,-0.12,0.0,t
3055.0,3023.0,2960.0,3279.0,3581.0,2526.0,2729.0,2317.0,-0.76,9.34,7.23,-0.07,-0.04,-0.15,0.0,t
3058.0,3030.0,2964.0,3283.0,3600.0,2532.0,2739.0,2317.0,-1.03,9.36,7.55,-0.03,0.01,-0.14,0.0,t
3056.0,3042.0,2951.0,3290.0,3600.0,2525.0,2736.0,2319.0,-0.9,9.34,7.32,0.01,-0.05,-0.1,0.0,t
3044.0,3024.0,2966.0,3266.0,3583.0,2530.0,2736.0,2318.0,-0.64,9.42,7.04,0.02,-0.07,-0.14,0.0,t
3056.0,3023.0,2961.0,3283.0,3595.0,2534.0,2745.0,2321.0,-0.99,9.44,7.18,-0.03,0.06,-0.03,0.0,t
3062.0,3031.0,2960.0,3280.0,3581.0,2530.0,2748.0,2323.0,-0.98,9.36,7.3,0.0,0.04,-0.12,0.0,t
3053.0,3024.0,2960.0,3291.0,3579.0,2529.0,2741.0,2320.0,-0.87,9.37,7.35,-0.02,0.06,-0.08,0.0,t
3053.0,3037.0,2978.0,3302.0,3600.0,2528.0,2747.0,2320.0,-0.64,9.33,7.42,-0.04,0.03,-0.06,0.0,t
3049.0,3022.0,2950.0,3283.0,3597.0,2533.0,2745.0,2317.0,-0.58,9.36,7.34,0.01,0.09,-0.09,0.0,t
3047.0,3018.0,2959.0,3298.0,3597.0,2532.0,2745.0,2320.0,-0.76,9.42,7.19,0.02,0.05,-0.1,0.0,t
3051.0,3028.0,2960.0,3301.0,3599.0,2530.0,2746.0,2323.0,-0.7,9.44,7.07,-0.02,0.06,-0.1,0.0,t
3049.0,3024.0,2959.0,3303.0,3583.0,2527.0,2743.0,2320.0,-0.65,9.32,7.39,-0.06,0.04,-0.13,0.0,t
3056.0,3022.0,2959.0,3308.0,3583.0,2533.0,2748.0,2324.0,-0.69,9.28,7.63,-0.03,0.05,-0.13,0.0,t
3067.0,3037.0,2961.0,3302.0,3599.0,2541.0,2753.0,2329.0,-0.58,9.33,7.47,0.05,0.0,-0.13,0.0,t
3051.0,3012.0,2948.0,3300.0,3599.0,2535.0,2751.0,2325.0,-0.46,9.34,7.33,-0.02,-0.01,-0.13,0.0,t
3056.0,3022.0,2960.0,3299.0,3600.0,2541.0,2753.0,2329.0,-0.72,9.29,7.44,-0.01,0.02,-0.12,0.0,t
3058.0,3025.0,2969.0,3287.0,3600.0,2533.0,2750.0,2335.0,-0.7,9.34,7.39,-0.02,-0.07,-0.14,0.0,t
3055.0,3018.0,2963.0,3295.0,3583.0,2539.0,2749.0,2334.0,-0.77,9.33,7.51,-0.02,0.02,-0.11,0.0,t
3056.0,3029.0,2960.0,3338.0,3600.0,2535.0,2752.0,2334.0,-0.37,9.39,7.32,-0.09,0.08,-0.17,0.0,t
3055.0,3030.0,2960.0,3335.0,3600.0,2544.0,2755.0,2343.0,-0.41,9.21,7.63,-0.11,0.03,-0.2,0.0,t
3040.0,3008.0,2960.0,3331.0,3602.0,2543.0,2753.0,2341.0,-0.65,9.1,8.1,-0.1,-0.06,-0.26,0.0,t
3056.0,3012.0,2951.0,3325.0,3600.0,2539.0,2755.0,2346.0,-1.13,8.99,8.32,-0.05,-0.06,-0.18,0.0,t
3045.0,3024.0,2963.0,3339.0,3617.0,2549.0,2768.0,2342.0,-0.92,9.22,7.85,0.05,-0.08,-0.16,0.0,t
3052.0,3038.0,2962.0,3329.0,3583.0,2537.0,2752.0,2339.0,-0.57,9.3,7.47,0.03,-0.07,-0.12,0.0,t
3057.0,3035.0,2967.0,3328.0,3606.0,2545.0,2767.0,2347.0,-0.57,9.28,7.54,-0.01,-0.16,-0.13,0.0,t
3052.0,3029.0,2963.0,3339.0,3605.0,2547.0,2750.0,2347.0,-0.78,9.22,7.91,0.0,-0.13,-0.11,0.0,t
3047.0,3018.0,2956.0,3329.0,3600.0,2538.0,2762.0,2347.0,-0.46,9.24,7.89,0.01,-0.19,-0.12,0.0,t
3060.0,3035.0,2963.0,3338.0,3614.0,2546.0,2761.0,2352.0,-0.18,9.22,7.76,-0.01,-0.19,-0.12,0.0,t
3050.0,3029.0,2955.0,3322.0,3597.0,2542.0,2754.0,2346.0,0.29,9.22,7.74,-0.01,-0.19,-0.25,0.0,t
3038.0,3026.0,2966.0,3355.0,3604.0,2546.0,2763.0,2345.0,-0.4,9.32,7.69,0.07,-0.16,-0.28,0.0,t
3051.0,3037.0,2955.0,3335.0,3583.0,2550.0,2767.0,2352.0,-0.42,9.34,7.3,-0.02,-0.09,-0.28,0.0,t
3037.0,3015.0,2958.0,3328.0,3583.0,2543.0,2761.0,2347.0,-0.74,9.28,7.66,-0.11,-0.07,-0.24,0.0,t
3043.0,3021.0,2966.0,3345.0,3606.0,2545.0,2768.0,2352.0,-0.99,9.14,8.1,-0.13,-0.04,-0.18,0.0,t
3057.0,3024.0,2963.0,3345.0,3613.0,2547.0,2766.0,2352.0,-0.62,9.07,8.03,-0.04,-0.01,-0.1,0.0,t
3056.0,3034.0,2963.0,3340.0,3599.0,2543.0,2762.0,2350.0,-0.52,9.08,8.19,-0.04,0.01,-0.14,0.0,t
3059.0,3041.0,2959.0,3356.0,3623.0,2548.0,2767.0,2354.0,-0.55,9.08,8.34,0.03,-0.04,-0.16,0.0,t
3043.0,3024.0,2967.0,3357.0,3610.0,2549.0,2765.0,2356.0,-0.29,9.19,7.76,0.1,-0.04,-0.18,0.0,t
3053.0,3025.0,2971.0,3355.0,3601.0,2550.0,2767.0,2352.0,-0.46,9.21,7.72,0.01,-0.0,-0.2,0.0,t
3051.0,3014.0,2957.0,3374.0,3613.0,2559.0,2772.0,2368.0,-0.43,9.07,8.34,0.05,-0.0,-0.06,0.0,t
3058.0,3024.0,2960.0,3367.0,3617.0,2559.0,2769.0,2358.0,-0.19,9.13,8.08,0.12,-0.09,-0.13,0.0,t
3046.0,3025.0,2962.0,3373.0,3629.0,2559.0,2772.0,2368.0,-0.36,9.28,7.64,0.14,-0.1,-0.16,0.0,t
3041.0,3025.0,2965.0,3375.0,3616.0,2559.0,2787.0,2362.0,-0.4,9.33,7.47,0.09,-0.09,-0.16,0.0,t
3054.0,3036.0,2977.0,3377.0,3625.0,2559.0,2783.0,2368.0,-0.51,9.36,7.41,0.05,-0.07,-0.15,0.0,t
3041.0,3025.0,2962.0,3375.0,3614.0,2559.0,2769.0,2365.0,-0.22,9.34,7.47,-0.01,-0.02,-0.13,0.0,t
3045.0,3017.0,2963.0,3375.0,3613.0,2559.0,2769.0,2356.0,-0.02,9.23,7.74,-0.05,-0.04,-0.18,0.0,t
3062.0,3042.0,2969.0,3379.0,3634.0,2559.0,2779.0,2371.0,-0.3,9.16,8.1,-0.01,-0.05,-0.24,0.0,t
3039.0,3034.0,2945.0,3374.0,3605.0,2555.0,2768.0,2365.0,-0.68,9.29,7.64,0.07,-0.08,-0.22,0.0,t
3056.0,3022.0,2960.0,3375.0,3622.0,2559.0,2782.0,2373.0,-0.63,9.4,7.24,0.03,-0.03,-0.22,0.0,t
3053.0,3029.0,2959.0,3382.0,3617.0,2559.0,2782.0,2373.0,-0.62,9.25,7.57,-0.12,-0.02,-0.18,0.0,t
3053.0,3024.0,2953.0,3371.0,3615.0,2559.0,2773.0,2367.0,-0.72,9.1,8.14,-0.13,0.06,-0.13,0.0,t
3051.0,3030.0,2967.0,3375.0,3617.0,2559.0,2775.0,2367.0,-0.66,9.06,8.32,-0.06,0.1,-0.07,0.0,t
3051.0,3035.0,2965.0,3376.0,3614.0,2559.0,2782.0,2371.0,-0.27,9.22,7.83,0.04,0.12,-0.05,0.0,t
3051.0,3022.0,2950.0,3370.0,3621.0,2559.0,2772.0,2365.0,-0.0,9.29,7.53,-0.05,0.07,-0.13,0.0,t
3059.0,3024.0,2976.0,3387.0,3623.0,2559.0,2774.0,2370.0,-0.48,9.17,7.98,-0.07,-0.0,-0.19,0.0,t
3056.0,3015.0,2949.0,3363.0,3607.0,2559.0,2775.0,2369.0,-0.58,9.15,8.05,-0.05,-0.05,-0.18,0.0,t
3056.0,3024.0,2949.0,3364.0,3614.0,2559.0,2778.0,2369.0,-0.66,9.14,8.02,-0.06,-0.01,-0.15,0.0,t
3059.0,3029.0,2960.0,3377.0,3625.0,2559.0,2774.0,2371.0,-0.41,9.06,8.17,-0.04,0.03,-0.13,0.0,t
3043.0,3026.0,2944.0,3357.0,3607.0,2559.0,2777.0,2369.0,-0.41,9.08,8.17,-0.03,-0.02,-0.16,0.0,t
3050.0,3021.0,2953.0,3361.0,3615.0,2559.0,2777.0,2379.0,-0.22,8.79,8.77,-0.04,0.07,-0.15,0.0,t
3053.0,3027.0,2960.0,3357.0,3607.0,2559.0,2781.0,2374.0,-0.58,8.89,8.81,0.03,0.04,-0.18,0.0,t
3055.0,3029.0,2964.0,3371.0,3619.0,2559.0,2777.0,2384.0,-0.77,9.05,8.22,0.07,-0.12,-0.23,0.0,t
3042.0,3023.0,2946.0,3361.0,3618.0,2559.0,2779.0,2381.0,-0.77,9.05,8.12,0.0,-0.04,-0.2,0.0,t
3043.0,3024.0,2957.0,3363.0,3623.0,2559.0,2789.0,2385.0,-0.76,8.98,8.32,-0.04,-0.02,-0.17,0.0,t
3046.0,3031.0,2958.0,3377.0,3631.0,2559.0,2780.0,2384.0,-0.66,8.89,8.6,-0.02,-0.02,-0.16,0.0,t
3056.0,3030.0,2950.0,3355.0,3605.0,2559.0,2781.0,2384.0,-0.06,8.85,8.53,-0.11,-0.05,-0.12,0.0,t
3051.0,3015.0,2955.0,3368.0,3629.0,2582.0,2787.0,2386.0,-0.17,8.83,8.56,-0.0,-0.01,-0.26,0.0,t
3060.0,3024.0,2961.0,3360.0,3622.0,2559.0,2786.0,2387.0,-0.66,8.8,8.71,-0.0,-0.08,-0.33,0.0,t
3051.0,3027.0,2957.0,3352.0,3619.0,2559.0,2774.0,2382.0,-1.1,8.84,8.7,0.05,-0.06,-0.31,0.0,t
3056.0,3034.0,2970.0,3344.0,3623.0,2559.0,2791.0,2384.0,-1.16,8.93,8.38,0.05,-0.05,-0.23,0.0,t
3055.0,3034.0,2966.0,3357.0,3617.0,2559.0,2778.0,2386.0,-0.9,8.93,8.34,-0.01,-0.01,-0.19,0.0,t
3050.0,3009.0,2961.0,3358.0,3622.0,2559.0,2782.0,2384.0,-0.7,8.9,8.44,-0.01,-0.01,-0.21,0.0,t
3051.0,3035.0,2971.0,3371.0,3630.0,2559.0,2784.0,2385.0,-0.83,8.84,8.58,-0.02,-0.02,-0.23,0.0,t
3041.0,3022.0,2960.0,3357.0,3619.0,2559.0,2781.0,2385.0,-1.21,8.79,8.71,-0.02,-0.02,-0.23,0.0,t
3047.0,3033.0,2959.0,3361.0,3619.0,2559.0,2794.0,2390.0,-1.33,8.77,8.92,0.02,0.0,-0.16,0.0,t
3056.0,3024.0,2960.0,3359.0,3614.0,2559.0,2784.0,2387.0,-0.91,8.83,8.56,0.06,-0.0,-0.12,0.0,t
