hall_1,hall_2,hall_3,flex_t,flex_i,flex_m,flex_r,flex_p,accel_x,accel_y,accel_z,gyro_x,gyro_y,gyro_z,hand,sign
2898.0,3441.0,3030.0,4095.0,3695.0,2917.0,3071.0,3312.0,0.74,9.61,3.02,-0.06,0.01,-0.05,1.0,t
2883.0,3459.0,3039.0,4095.0,3675.0,2927.0,3071.0,3315.0,0.85,9.65,3.18,-0.08,-0.01,-0.03,1.0,t
2880.0,3462.0,3027.0,4095.0,3680.0,2917.0,3071.0,3307.0,0.87,9.52,3.33,-0.07,0.0,-0.03,1.0,t
2888.0,3439.0,3039.0,4095.0,3695.0,2922.0,3071.0,3303.0,0.95,9.56,3.3,-0.02,-0.05,-0.06,1.0,t
2880.0,3465.0,3031.0,4095.0,3681.0,2916.0,3079.0,3310.0,0.78,9.59,3.23,-0.02,0.02,-0.06,1.0,t
2894.0,3440.0,3036.0,4095.0,3693.0,2919.0,3071.0,3305.0,0.8,9.62,3.16,-0.07,-0.06,-0.06,1.0,t
2880.0,3461.0,3035.0,4095.0,3700.0,2923.0,3082.0,3314.0,0.87,9.61,3.21,-0.08,-0.01,-0.06,1.0,t
2883.0,3458.0,3041.0,4095.0,3686.0,2928.0,3071.0,3312.0,0.74,9.58,3.26,-0.04,-0.05,-0.06,1.0,t
2886.0,3459.0,3025.0,4095.0,3701.0,2923.0,3085.0,3317.0,0.83,9.6,3.18,-0.04,-0.0,-0.06,1.0,t
2899.0,3455.0,3034.0,4095.0,3683.0,2928.0,3071.0,3309.0,0.76,9.63,3.06,-0.06,-0.04,-0.06,1.0,t
2881.0,3452.0,3024.0,4095.0,3701.0,2928.0,3088.0,3305.0,0.83,9.62,3.16,-0.06,-0.02,-0.06,1.0,t
2885.0,3458.0,3021.0,4095.0,3673.0,2930.0,3071.0,3309.0,0.64,9.59,3.08,-0.13,0.03,-0.03,1.0,t
2878.0,3466.0,3025.0,4095.0,3680.0,2932.0,3067.0,3315.0,0.71,9.53,3.26,-0.04,-0.03,-0.06,1.0,t
2894.0,3473.0,3023.0,4095.0,3681.0,2931.0,3081.0,3311.0,0.76,9.56,3.25,-0.08,0.04,-0.02,1.0,t
2880.0,3441.0,3034.0,4095.0,3691.0,2938.0,3082.0,3310.0,0.85,9.58,3.16,-0.05,-0.03,-0.04,1.0,t
2889.0,3458.0,3048.0,4095.0,3685.0,2935.0,3071.0,3327.0,0.76,9.67,3.1,-0.1,0.0,-0.05,1.0,t
2886.0,3450.0,3031.0,4095.0,3701.0,2937.0,3071.0,3307.0,0.74,9.6,3.23,-0.07,-0.07,-0.05,1.0,t
2895.0,3458.0,3023.0,4095.0,3683.0,2933.0,3085.0,3312.0,0.77,9.54,3.39,-0.05,0.02,-0.05,1.0,t
2881.0,3467.0,3039.0,4095.0,3694.0,2925.0,3071.0,3304.0,0.64,9.62,3.16,-0.02,0.04,-0.03,1.0,t
2893.0,3456.0,3025.0,4095.0,3685.0,2941.0,3087.0,3307.0,0.75,9.6,3.16,-0.03,-0.04,-0.04,1.0,t
2871.0,3485.0,3036.0,4095.0,3681.0,2941.0,3090.0,3314.0,0.8,9.65,3.15,-0.01,0.01,-0.04,1.0,t
2885.0,3425.0,3054.0,4095.0,3693.0,2932.0,3088.0,3317.0,0.7,9.63,3.08,-0.04,0.0,-0.02,1.0,t
2870.0,3472.0,3029.0,4095.0,3695.0,2938.0,3087.0,3312.0,0.74,9.67,3.09,-0.04,0.02,-0.03,1.0,t
2887.0,3467.0,3039.0,4095.0,3681.0,2933.0,3081.0,3311.0,0.76,9.58,3.15,-0.09,-0.04,-0.02,1.0,t
2871.0,3447.0,3029.0,4095.0,3667.0,2944.0,3079.0,3309.0,0.82,9.68,3.09,-0.11,-0.05,-0.02,1.0,t
2869.0,3469.0,3037.0,4095.0,3685.0,2942.0,3086.0,3312.0,0.69,9.53,3.28,-0.1,0.0,-0.01,1.0,t
2885.0,3469.0,3039.0,4095.0,3690.0,2941.0,3085.0,3312.0,0.77,9.64,3.2,-0.06,0.02,-0.03,1.0,t
2880.0,3442.0,3031.0,4095.0,3695.0,2934.0,3093.0,3309.0,0.7,9.58,3.2,-0.08,-0.0,-0.01,1.0,t
2886.0,3466.0,3037.0,4095.0,3688.0,2937.0,3086.0,3307.0,0.83,9.65,3.12,-0.08,-0.02,-0.02,1.0,t
2870.0,3457.0,3033.0,4095.0,3691.0,2945.0,3087.0,3324.0,0.83,9.55,3.24,-0.03,0.05,-0.02,1.0,t
2890.0,3446.0,3031.0,4095.0,3699.0,2945.0,3081.0,3322.0,0.82,9.65,3.17,-0.04,0.1,-0.01,1.0,t
2874.0,3440.0,3037.0,4095.0,3693.0,2943.0,3090.0,3319.0,0.77,9.62,3.09,-0.06,-0.01,-0.02,1.0,t
2900.0,3462.0,3034.0,4095.0,3689.0,2945.0,3099.0,3312.0,0.89,9.61,3.21,-0.04,0.0,-0.04,1.0,t
2880.0,3453.0,3035.0,4095.0,3690.0,2945.0,3085.0,3311.0,0.83,9.58,3.23,-0.05,0.03,-0.03,1.0,t
2870.0,3455.0,3036.0,4095.0,3696.0,2940.0,3088.0,3312.0,0.82,9.56,3.24,-0.0,-0.01,-0.05,1.0,t
2875.0,3452.0,3024.0,4095.0,3696.0,2945.0,3085.0,3305.0,0.8,9.58,3.14,-0.04,0.01,-0.05,1.0,t
2881.0,3457.0,3034.0,4095.0,3691.0,2934.0,3088.0,3321.0,0.88,9.61,3.16,-0.03,-0.01,-0.04,1.0,t
2881.0,3451.0,3028.0,4095.0,3693.0,2942.0,3088.0,3317.0,0.81,9.62,3.15,-0.06,-0.03,-0.05,1.0,t
2881.0,3475.0,3039.0,4095.0,3703.0,2951.0,3088.0,3319.0,0.76,9.66,3.04,-0.04,-0.01,-0.06,1.0,t
2884.0,3460.0,3043.0,4095.0,3695.0,2950.0,3087.0,3317.0,0.72,9.68,2.99,-0.08,-0.03,-0.03,1.0,t
2876.0,3458.0,3035.0,4095.0,3687.0,2950.0,3088.0,3325.0,0.75,9.66,3.07,-0.1,-0.02,-0.03,1.0,t
2886.0,3440.0,3037.0,4095.0,3693.0,2948.0,3088.0,3323.0,0.76,9.62,3.1,-0.11,-0.03,-0.03,1.0,t
2875.0,3463.0,3022.0,4095.0,3692.0,2928.0,3071.0,3307.0,0.86,9.57,3.28,-0.08,-0.0,-0.04,1.0,t
2883.0,3456.0,3042.0,4095.0,3709.0,2931.0,3098.0,3315.0,0.76,9.61,3.19,-0.05,0.03,-0.03,1.0,t
2874.0,3459.0,3041.0,4095.0,3696.0,2934.0,3088.0,3317.0,0.81,9.58,3.17,-0.09,-0.05,-0.02,1.0,t
2879.0,3457.0,3033.0,4095.0,3690.0,2928.0,3085.0,3323.0,0.9,9.61,3.2,-0.06,-0.05,-0.05,1.0,t
2877.0,3477.0,3035.0,4095.0,3706.0,2930.0,3088.0,3313.0,0.79,9.57,3.2,-0.06,-0.0,-0.05,1.0,t
2871.0,3472.0,3027.0,4095.0,3690.0,2931.0,3084.0,3319.0,0.77,9.6,3.11,-0.07,0.01,-0.05,1.0,t
2879.0,3456.0,3035.0,4095.0,3703.0,2927.0,3088.0,3314.0,0.73,9.61,3.17,-0.06,0.02,-0.02,1.0,t
2877.0,3470.0,3027.0,4095.0,3696.0,2923.0,3088.0,3317.0,0.71,9.65,3.08,-0.13,0.01,0.01,1.0,t
2885.0,3463.0,3029.0,4095.0,3690.0,2922.0,3088.0,3323.0,0.96,9.52,3.16,-0.16,-0.02,-0.01,1.0,t
2894.0,3468.0,3044.0,4095.0,3707.0,2919.0,3082.0,3319.0,0.85,9.5,3.43,-0.11,-0.01,-0.04,1.0,t
2880.0,3477.0,3039.0,4095.0,3705.0,2925.0,3099.0,3314.0,0.92,9.57,3.34,-0.04,0.01,-0.04,1.0,t
2894.0,3450.0,3027.0,4095.0,3703.0,2913.0,3091.0,3313.0,0.81,9.57,3.23,-0.04,-0.01,-0.04,1.0,t
2895.0,3488.0,3039.0,4095.0,3712.0,2919.0,3092.0,3326.0,0.9,9.59,3.23,-0.08,-0.02,-0.04,1.0,t
2878.0,3466.0,3040.0,4095.0,3696.0,2911.0,3071.0,3314.0,0.81,9.59,3.24,-0.07,-0.0,-0.03,1.0,t
2895.0,3469.0,3030.0,4095.0,3713.0,2918.0,3088.0,3322.0,0.88,9.62,3.29,-0.08,-0.02,-0.03,1.0,t
2881.0,3451.0,3037.0,4095.0,3696.0,2915.0,3071.0,3322.0,0.81,9.55,3.26,-0.1,0.03,-0.02,1.0,t
2881.0,3459.0,3037.0,4095.0,3712.0,2910.0,3071.0,3319.0,0.82,9.5,3.37,-0.11,-0.02,-0.02,1.0,t
2883.0,3451.0,3024.0,4095.0,3696.0,2895.0,3069.0,3317.0,0.9,9.57,3.36,-0.09,0.04,-0.01,1.0,t
2887.0,3465.0,3039.0,4095.0,3710.0,2894.0,3071.0,3323.0,0.83,9.53,3.32,-0.13,0.05,-0.01,1.0,t
2880.0,3466.0,3026.0,4095.0,3694.0,2881.0,3071.0,3306.0,0.85,9.45,3.5,-0.08,-0.01,-0.04,1.0,t
2880.0,3483.0,3050.0,4095.0,3709.0,2878.0,3071.0,3303.0,0.82,9.52,3.46,-0.06,0.02,-0.05,1.0,t
2882.0,3469.0,3039.0,4095.0,3708.0,2878.0,3058.0,3293.0,0.79,9.5,3.38,-0.03,0.02,-0.03,1.0,t
2879.0,3481.0,3039.0,4095.0,3700.0,2883.0,3066.0,3297.0,0.84,9.54,3.46,-0.05,0.03,-0.01,1.0,t
2896.0,3489.0,3024.0,4095.0,3698.0,2885.0,3060.0,3301.0,0.96,9.56,3.34,-0.01,0.04,-0.02,1.0,t
2891.0,3464.0,3038.0,4095.0,3699.0,2880.0,3057.0,3293.0,0.99,9.54,3.3,-0.02,0.01,-0.04,1.0,t
2889.0,3475.0,3043.0,4095.0,3711.0,2883.0,3050.0,3289.0,0.91,9.59,3.31,-0.05,0.04,-0.04,1.0,t
2896.0,3479.0,3038.0,4095.0,3722.0,2891.0,3053.0,3285.0,0.78,9.61,3.28,-0.06,-0.01,-0.04,1.0,t
2878.0,3478.0,3036.0,4095.0,3715.0,2890.0,3054.0,3280.0,0.74,9.51,3.27,-0.09,0.0,-0.04,1.0,t
2891.0,3467.0,3029.0,4095.0,3711.0,2881.0,3055.0,3277.0,0.87,9.56,3.38,-0.01,0.01,-0.04,1.0,t
2886.0,3483.0,3046.0,4095.0,3708.0,2886.0,3047.0,3282.0,0.87,9.62,3.3,-0.08,0.01,-0.04,1.0,t
2894.0,3472.0,3025.0,4095.0,3721.0,2888.0,3058.0,3269.0,0.91,9.49,3.37,-0.05,-0.03,-0.04,1.0,t
2896.0,3479.0,3031.0,4095.0,3712.0,2890.0,3056.0,3280.0,0.81,9.65,3.13,-0.08,0.06,-0.03,1.0,t
2886.0,3472.0,3037.0,4095.0,3699.0,2898.0,3056.0,3287.0,0.53,9.49,3.17,-0.02,-0.01,-0.01,1.0,t
2885.0,3472.0,3040.0,4095.0,3696.0,2907.0,3061.0,3299.0,0.85,9.73,3.34,-0.06,0.01,0.01,1.0,t
2881.0,3461.0,3031.0,4095.0,3702.0,2901.0,3059.0,3300.0,0.92,9.44,3.51,-0.05,0.01,0.0,1.0,t
2882.0,3472.0,3027.0,4095.0,3714.0,2914.0,3059.0,3306.0,1.04,9.65,3.27,-0.07,0.03,-0.01,1.0,t
2879.0,3487.0,3045.0,4095.0,3727.0,2913.0,3063.0,3297.0,0.92,9.48,3.32,-0.09,-0.01,-0.04,1.0,t
2881.0,3472.0,3041.0,4095.0,3715.0,2911.0,3085.0,3298.0,0.91,9.5,3.55,-0.1,-0.02,-0.05,1.0,t
2890.0,3471.0,3034.0,4095.0,3725.0,2905.0,3056.0,3301.0,0.89,9.51,3.47,0.0,-0.03,-0.07,1.0,t
2881.0,3479.0,3024.0,4095.0,3703.0,2908.0,3062.0,3299.0,0.84,9.55,3.17,-0.04,0.01,-0.06,1.0,t
2887.0,3486.0,3026.0,4095.0,3719.0,2917.0,3067.0,3309.0,0.8,9.63,3.16,-0.09,-0.04,-0.1,1.0,t
2896.0,3483.0,3041.0,4095.0,3696.0,2917.0,3071.0,3305.0,0.84,9.53,3.29,-0.13,-0.06,-0.09,1.0,t
2887.0,3473.0,3043.0,4095.0,3713.0,2911.0,3071.0,3328.0,1.06,9.74,3.37,0.03,0.0,-0.17,1.0,t
2894.0,3455.0,3039.0,4095.0,3696.0,2918.0,3071.0,3338.0,0.54,9.5,3.16,-0.18,0.05,-0.19,1.0,t
2876.0,3469.0,3034.0,4095.0,3701.0,2902.0,3086.0,3349.0,0.53,9.54,3.43,0.01,-0.02,-0.05,1.0,t
2875.0,3479.0,3040.0,4095.0,3696.0,2905.0,3071.0,3357.0,0.55,9.46,3.51,-0.13,0.02,-0.01,1.0,t
2879.0,3483.0,3029.0,4095.0,3728.0,2901.0,3087.0,3343.0,0.62,9.53,3.49,-0.03,-0.0,-0.02,1.0,t
2895.0,3475.0,3045.0,4095.0,3710.0,2912.0,3088.0,3350.0,0.66,9.56,3.28,-0.07,0.03,-0.02,1.0,t
2885.0,3473.0,3039.0,4095.0,3716.0,2910.0,3071.0,3350.0,0.67,9.51,3.37,-0.02,-0.03,-0.04,1.0,t
2886.0,3461.0,3044.0,4095.0,3635.0,2911.0,3055.0,3349.0,0.7,9.57,3.36,0.02,0.0,-0.04,1.0,t
2889.0,3457.0,3045.0,4095.0,3696.0,2909.0,3088.0,3357.0,0.69,9.62,3.14,0.01,-0.04,-0.07,1.0,t
2880.0,3472.0,3026.0,4095.0,3699.0,2914.0,3088.0,3355.0,0.55,9.62,3.02,-0.07,-0.02,-0.06,1.0,t
2880.0,3471.0,3044.0,4095.0,3727.0,2911.0,3084.0,3353.0,0.55,9.56,3.29,-0.12,-0.04,-0.05,1.0,t
2882.0,3461.0,3041.0,4095.0,3696.0,2903.0,3090.0,3355.0,0.73,9.56,3.41,-0.08,0.04,-0.05,1.0,t
2880.0,3457.0,3031.0,4095.0,3712.0,2909.0,3088.0,3350.0,0.58,9.56,3.37,-0.08,0.05,-0.03,1.0,t
2895.0,3456.0,3023.0,4095.0,3696.0,2910.0,3088.0,3361.0,0.65,9.49,3.43,-0.04,0.02,-0.02,1.0,t
2875.0,3466.0,3043.0,4095.0,3712.0,2910.0,3088.0,3359.0,0.62,9.59,3.29,-0.08,0.0,-0.02,1.0,t
2889.0,3462.0,3039.0,4095.0,3703.0,2911.0,3088.0,3345.0,0.74,9.53,3.38,-0.02,-0.03,-0.04,1.0,t
2885.0,3456.0,3039.0,4095.0,3696.0,2919.0,3090.0,3363.0,0.56,9.62,3.22,-0.06,-0.0,-0.03,1.0,t
2880.0,3460.0,3031.0,4095.0,3714.0,2915.0,3085.0,3355.0,0.61,9.56,3.25,-0.03,-0.02,-0.04,1.0,t
2887.0,3461.0,3038.0,4095.0,3697.0,2924.0,3088.0,3354.0,0.66,9.71,3.23,-0.08,0.03,-0.02,1.0,t
2889.0,3487.0,3038.0,4095.0,3696.0,2917.0,3090.0,3348.0,0.68,9.6,3.32,0.0,-0.02,-0.04,1.0,t
2885.0,3458.0,3028.0,4095.0,3722.0,2896.0,3093.0,3347.0,0.72,9.68,3.18,-0.02,0.02,-0.03,1.0,t
2875.0,3453.0,3027.0,4095.0,3651.0,2922.0,3087.0,3344.0,0.68,9.54,3.28,-0.03,-0.02,-0.04,1.0,t
2878.0,3470.0,3040.0,4095.0,3696.0,2911.0,3088.0,3372.0,0.77,9.56,3.26,-0.02,-0.02,-0.04,1.0,t
2893.0,3474.0,3035.0,4095.0,3698.0,2915.0,3088.0,3344.0,0.66,9.56,3.26,-0.03,-0.01,-0.06,1.0,t
2878.0,3463.0,3039.0,4095.0,3717.0,2927.0,3086.0,3344.0,0.56,9.63,3.17,0.01,-0.0,-0.06,1.0,t
2883.0,3471.0,3029.0,4095.0,3702.0,2926.0,3085.0,3345.0,0.48,9.68,2.98,-0.1,0.01,-0.01,1.0,t
2889.0,3454.0,3042.0,4095.0,3696.0,2923.0,3088.0,3357.0,0.56,9.57,3.16,-0.15,-0.03,0.01,1.0,t
2883.0,3469.0,3030.0,4095.0,3714.0,2914.0,3088.0,3349.0,0.75,9.61,3.32,-0.11,0.02,0.01,1.0,t
2879.0,3455.0,3039.0,4095.0,3692.0,2925.0,3091.0,3334.0,0.68,9.59,3.22,-0.11,0.01,-0.01,1.0,t
2879.0,3469.0,3029.0,4095.0,3696.0,2920.0,3088.0,3339.0,0.74,9.53,3.44,-0.06,-0.02,-0.03,1.0,t
2879.0,3456.0,3027.0,4095.0,3683.0,2919.0,3071.0,3330.0,0.63,9.46,3.41,-0.06,0.01,-0.0,1.0,t
2891.0,3459.0,3031.0,4095.0,3703.0,2913.0,3071.0,3331.0,0.72,9.56,3.33,0.08,-0.03,-0.04,1.0,t
2879.0,3456.0,3051.0,4095.0,3718.0,2927.0,3068.0,3312.0,0.71,9.59,3.08,-0.02,0.02,-0.0,1.0,t
2881.0,3466.0,3037.0,4095.0,3710.0,2911.0,3061.0,3308.0,0.72,9.59,3.19,0.05,-0.11,0.0,1.0,t
2895.0,3477.0,3026.0,4095.0,3696.0,2918.0,3063.0,3296.0,0.84,9.67,3.14,-0.04,-0.01,0.01,1.0,t
2880.0,3457.0,3044.0,4095.0,3696.0,2913.0,3059.0,3287.0,0.76,9.6,3.21,0.03,0.04,-0.01,1.0,t
2880.0,3467.0,3037.0,4095.0,3709.0,2917.0,3055.0,3294.0,0.7,9.59,3.05,-0.08,0.03,-0.01,1.0,t
2881.0,3459.0,3041.0,4095.0,3696.0,2916.0,3057.0,3299.0,0.86,9.65,3.11,-0.03,-0.02,-0.02,1.0,t
2897.0,3451.0,3034.0,4095.0,3718.0,2921.0,3063.0,3303.0,0.79,9.58,3.01,-0.08,-0.04,-0.03,1.0,t
2876.0,3454.0,3042.0,4095.0,3717.0,2922.0,3067.0,3302.0,0.68,9.65,3.03,-0.03,-0.01,-0.07,1.0,t
2878.0,3440.0,3036.0,4095.0,3711.0,2926.0,3057.0,3317.0,0.69,9.55,3.12,-0.03,0.01,0.02,1.0,t
2874.0,3444.0,3036.0,4095.0,3696.0,2923.0,3055.0,3298.0,0.84,9.57,3.12,0.11,0.01,0.0,1.0,t
2870.0,3427.0,3029.0,4095.0,3701.0,2914.0,3059.0,3305.0,1.08,10.23,2.53,-0.25,0.11,-0.01,1.0,t
2879.0,3430.0,3038.0,4095.0,3712.0,2928.0,3067.0,3319.0,0.87,9.32,3.24,-0.11,-0.03,0.0,1.0,t
2885.0,3409.0,3030.0,4095.0,3712.0,2929.0,3071.0,3305.0,0.99,9.94,3.11,-0.09,0.01,-0.03,1.0,t
2879.0,3435.0,3038.0,4095.0,3723.0,2928.0,3093.0,3314.0,0.86,9.42,3.27,0.04,-0.11,-0.09,1.0,t
2869.0,3422.0,3031.0,4095.0,3724.0,2935.0,3068.0,3321.0,0.93,9.81,2.86,0.03,-0.1,-0.05,1.0,t
2881.0,3435.0,3043.0,4095.0,3701.0,2926.0,3069.0,3313.0,0.83,9.49,3.05,-0.01,-0.09,-0.04,1.0,t
2881.0,3434.0,3034.0,4095.0,3725.0,2928.0,3084.0,3330.0,0.76,9.75,2.85,0.06,-0.09,-0.01,1.0,t
2887.0,3434.0,3029.0,4095.0,3714.0,2928.0,3071.0,3328.0,0.81,9.5,3.17,-0.0,0.04,0.02,1.0,t
2883.0,3435.0,3035.0,4095.0,3707.0,2923.0,3082.0,3355.0,0.88,9.8,2.9,0.03,0.04,0.05,1.0,t
2873.0,3437.0,3027.0,4095.0,3709.0,2935.0,3067.0,3327.0,0.86,9.64,2.81,-0.03,-0.08,-0.04,1.0,t
2881.0,3438.0,3035.0,4095.0,3734.0,2938.0,3083.0,3339.0,1.09,9.86,2.61,-0.03,-0.06,-0.05,1.0,t
2882.0,3415.0,3029.0,4095.0,3744.0,2933.0,3088.0,3326.0,0.94,9.63,2.79,-0.07,0.06,-0.04,1.0,t
2881.0,3438.0,3035.0,4095.0,3749.0,2949.0,3085.0,3333.0,0.96,9.81,2.78,-0.04,0.01,-0.07,1.0,t
2881.0,3451.0,3025.0,4095.0,3754.0,2937.0,3089.0,3331.0,0.85,9.68,2.85,-0.07,0.01,-0.07,1.0,t
2880.0,3445.0,3043.0,4095.0,3726.0,2935.0,3090.0,3331.0,0.87,9.8,2.8,-0.09,0.03,-0.09,1.0,t
2885.0,3457.0,3039.0,4095.0,3739.0,2938.0,3088.0,3333.0,0.76,9.57,2.89,-0.09,-0.02,-0.06,1.0,t
2887.0,3440.0,3041.0,4095.0,3740.0,2940.0,3081.0,3345.0,0.97,9.8,2.72,-0.15,-0.03,-0.05,1.0,t
2877.0,3440.0,3043.0,4095.0,3743.0,2935.0,3088.0,3341.0,0.86,9.5,3.09,-0.18,-0.06,-0.02,1.0,t
2874.0,3443.0,3035.0,4095.0,3746.0,2930.0,3087.0,3358.0,0.99,9.7,3.02,-0.15,-0.03,-0.05,1.0,t
2878.0,3457.0,3031.0,4095.0,3754.0,2928.0,3083.0,3357.0,0.87,9.7,3.05,-0.04,0.04,-0.04,1.0,t
2883.0,3471.0,3050.0,4095.0,3744.0,2928.0,3101.0,3378.0,0.76,9.73,2.87,-0.14,0.02,-0.0,1.0,t
2887.0,3450.0,3039.0,4095.0,3760.0,2930.0,3100.0,3374.0,0.92,9.63,3.12,-0.01,0.01,-0.08,1.0,t
2891.0,3451.0,3041.0,4095.0,3751.0,2919.0,3088.0,3381.0,0.87,9.62,3.09,-0.07,-0.05,-0.17,1.0,t
2891.0,3450.0,3038.0,4095.0,3759.0,2914.0,3091.0,3367.0,0.89,9.6,3.05,0.05,0.06,-0.12,1.0,t
2878.0,3459.0,3044.0,4095.0,3728.0,2919.0,3093.0,3351.0,0.59,9.62,3.01,-0.05,0.09,-0.08,1.0,t
2877.0,3478.0,3035.0,4095.0,3735.0,2912.0,3071.0,3363.0,0.76,9.7,2.89,0.01,-0.05,-0.07,1.0,t
2895.0,3447.0,3042.0,4095.0,3757.0,2912.0,3092.0,3363.0,0.74,9.64,2.89,-0.09,0.04,-0.05,1.0,t
2889.0,3470.0,3027.0,4095.0,3743.0,2913.0,3082.0,3358.0,0.6,9.66,2.9,-0.12,-0.01,-0.03,1.0,t
2896.0,3461.0,3024.0,4095.0,3745.0,2915.0,3086.0,3344.0,0.77,9.69,2.98,-0.06,-0.02,-0.05,1.0,t
2885.0,3445.0,3041.0,4095.0,3746.0,2912.0,3082.0,3351.0,0.72,9.66,3.03,-0.09,-0.02,-0.06,1.0,t
2887.0,3453.0,3030.0,4095.0,3757.0,2915.0,3082.0,3341.0,0.86,9.75,2.91,-0.09,-0.04,-0.1,1.0,t
2880.0,3467.0,3042.0,4095.0,3754.0,2912.0,3068.0,3349.0,0.65,9.51,3.17,-0.12,-0.07,-0.11,1.0,t
2884.0,3461.0,3024.0,4095.0,3740.0,2912.0,3087.0,3341.0,0.72,9.65,3.21,-0.09,-0.03,-0.1,1.0,t
2881.0,3453.0,3043.0,4095.0,3746.0,2912.0,3071.0,3331.0,0.56,9.59,3.19,-0.08,0.09,-0.09,1.0,t
2893.0,3452.0,3038.0,4095.0,3744.0,2919.0,3066.0,3330.0,0.58,9.69,3.06,0.0,-0.02,-0.13,1.0,t
2893.0,3457.0,3041.0,4095.0,3743.0,2915.0,3066.0,3310.0,0.58,9.65,2.84,-0.03,-0.12,-0.14,1.0,t
2879.0,3471.0,3034.0,4095.0,3746.0,2903.0,3059.0,3302.0,0.54,9.55,3.03,-0.07,-0.15,-0.15,1.0,t
2887.0,3463.0,3036.0,4095.0,3746.0,2911.0,3057.0,3302.0,0.55,9.72,3.03,-0.12,-0.01,-0.09,1.0,t
2883.0,3461.0,3035.0,4095.0,3733.0,2899.0,3062.0,3310.0,0.35,9.7,3.01,-0.07,-0.03,-0.12,1.0,t
2887.0,3460.0,3043.0,4095.0,3727.0,2887.0,3056.0,3303.0,0.54,9.85,2.87,-0.12,-0.01,-0.1,1.0,t
2883.0,3481.0,3034.0,4095.0,3731.0,2896.0,3056.0,3303.0,0.46,9.52,3.24,-0.1,-0.06,-0.12,1.0,t
2883.0,3458.0,3037.0,4095.0,3731.0,2891.0,3055.0,3300.0,0.46,9.79,2.99,-0.18,0.03,-0.13,1.0,t
2883.0,3472.0,3038.0,4095.0,3714.0,2879.0,3057.0,3319.0,0.17,9.5,3.34,-0.12,-0.0,-0.13,1.0,t
2887.0,3443.0,3035.0,4095.0,3729.0,2889.0,3063.0,3313.0,-0.05,9.56,3.39,-0.14,-0.05,-0.1,1.0,t
2880.0,3467.0,3039.0,4095.0,3729.0,2891.0,3061.0,3312.0,0.05,9.55,3.4,-0.01,-0.0,-0.08,1.0,t
2893.0,3471.0,3030.0,4095.0,3726.0,2896.0,3063.0,3327.0,0.1,9.62,3.2,-0.03,0.04,-0.03,1.0,t
2893.0,3471.0,3030.0,4095.0,3725.0,2896.0,3059.0,3318.0,0.27,9.62,3.25,-0.03,-0.02,-0.04,1.0,t
2885.0,3451.0,3035.0,4095.0,3728.0,2907.0,3067.0,3326.0,0.24,9.57,3.28,-0.05,0.0,-0.04,1.0,t
2875.0,3467.0,3031.0,4095.0,3728.0,2894.0,3067.0,3326.0,0.24,9.6,3.29,-0.04,0.0,-0.06,1.0,t
2879.0,3476.0,3037.0,4095.0,3726.0,2907.0,3069.0,3322.0,0.07,9.54,3.32,-0.03,0.05,-0.04,1.0,t
2884.0,3447.0,3040.0,4095.0,3722.0,2906.0,3071.0,3341.0,0.08,9.66,3.28,-0.01,0.04,-0.03,1.0,t
2895.0,3447.0,3046.0,4095.0,3730.0,2906.0,3083.0,3336.0,0.08,9.63,3.13,-0.02,0.06,-0.04,1.0,t
2880.0,3443.0,3021.0,4095.0,3727.0,2903.0,3087.0,3357.0,0.03,9.62,3.0,-0.04,0.11,0.02,1.0,t
2877.0,3451.0,3042.0,4095.0,3733.0,2903.0,3083.0,3349.0,0.05,9.7,2.89,-0.08,-0.01,0.0,1.0,t
2891.0,3442.0,3046.0,4095.0,3745.0,2913.0,3086.0,3365.0,0.2,9.56,3.08,-0.05,-0.01,-0.01,1.0,t
2879.0,3463.0,3030.0,4095.0,3726.0,2903.0,3081.0,3357.0,0.14,9.68,2.95,-0.11,-0.04,-0.02,1.0,t
2883.0,3460.0,3046.0,4095.0,3712.0,2912.0,3085.0,3375.0,0.31,9.65,3.12,-0.11,-0.11,-0.08,1.0,t
2890.0,3467.0,3041.0,4095.0,3725.0,2899.0,3084.0,3377.0,0.12,9.52,3.17,-0.2,-0.07,-0.04,1.0,t
2887.0,3447.0,3040.0,4095.0,3714.0,2911.0,3095.0,3396.0,0.24,9.52,3.42,-0.1,-0.04,-0.04,1.0,t
2881.0,3471.0,3041.0,4095.0,3728.0,2897.0,3082.0,3403.0,0.09,9.48,3.3,-0.16,-0.04,0.01,1.0,t
2895.0,3466.0,3049.0,4095.0,3728.0,2910.0,3085.0,3391.0,0.25,9.62,3.31,-0.07,-0.0,0.01,1.0,t
2881.0,3462.0,3027.0,4095.0,3713.0,2905.0,3088.0,3439.0,0.16,9.53,3.32,-0.15,-0.08,-0.02,1.0,t
2892.0,3441.0,3043.0,4095.0,3728.0,2895.0,3088.0,3431.0,0.33,9.5,3.48,-0.07,0.0,0.02,1.0,t
2883.0,3471.0,3038.0,4095.0,3723.0,2880.0,3083.0,3447.0,0.24,9.4,3.55,-0.05,0.07,0.08,1.0,t
2877.0,3472.0,3056.0,4095.0,3747.0,2885.0,3088.0,3471.0,0.34,9.56,3.42,0.07,-0.05,0.02,1.0,t
2881.0,3504.0,3069.0,4095.0,3734.0,2875.0,3090.0,3459.0,0.87,9.48,3.63,0.31,-0.13,-0.17,1.0,t
2890.0,3600.0,3087.0,4095.0,3754.0,2881.0,3071.0,3423.0,0.43,9.79,3.09,0.2,0.08,-0.1,1.0,t
2888.0,3574.0,3091.0,4095.0,3723.0,2886.0,3067.0,3408.0,-0.06,9.49,2.83,-0.07,-0.0,-0.16,1.0,t
2885.0,3607.0,3107.0,4095.0,3706.0,2887.0,3064.0,3396.0,0.03,9.66,2.96,-0.01,0.09,0.1,1.0,t
2881.0,3614.0,3120.0,4095.0,3743.0,2885.0,3069.0,3404.0,0.32,9.74,2.9,-0.08,-0.04,-0.04,1.0,t
2883.0,3610.0,3120.0,4095.0,3751.0,2875.0,3083.0,3410.0,0.37,9.64,2.97,-0.15,0.03,-0.02,1.0,t
2889.0,3623.0,3120.0,4095.0,3749.0,2871.0,3067.0,3408.0,0.27,9.55,3.13,-0.07,-0.01,-0.03,1.0,t
2898.0,3600.0,3125.0,4095.0,3727.0,2875.0,3063.0,3382.0,0.38,9.66,3.09,-0.11,-0.01,-0.05,1.0,t
2877.0,3619.0,3122.0,4095.0,3749.0,2875.0,3071.0,3395.0,0.25,9.53,3.18,-0.07,0.02,0.0,1.0,t
2871.0,3583.0,3110.0,4095.0,3751.0,2870.0,3071.0,3391.0,0.29,9.71,3.07,-0.08,0.01,-0.02,1.0,t
2873.0,3603.0,3114.0,4095.0,3725.0,2878.0,3071.0,3409.0,0.44,9.66,3.05,-0.09,0.01,-0.06,1.0,t
2887.0,3627.0,3115.0,4095.0,3712.0,2870.0,3071.0,3390.0,0.39,9.65,3.22,-0.08,0.0,-0.09,1.0,t
2886.0,3603.0,3119.0,4095.0,3744.0,2882.0,3066.0,3397.0,0.34,9.63,3.21,-0.13,-0.03,-0.08,1.0,t
2894.0,3604.0,3123.0,4095.0,3731.0,2876.0,3062.0,3383.0,0.23,9.6,3.28,-0.07,-0.02,-0.1,1.0,t
2885.0,3679.0,3109.0,4095.0,3746.0,2871.0,3071.0,3395.0,0.26,9.54,3.22,-0.08,-0.04,-0.08,1.0,t
2890.0,3618.0,3125.0,4095.0,3730.0,2883.0,3071.0,3417.0,0.23,9.64,3.22,-0.05,0.02,-0.05,1.0,t
2885.0,3583.0,3104.0,4095.0,3739.0,2871.0,3065.0,3420.0,0.09,9.58,3.15,-0.11,-0.02,-0.02,1.0,t
2895.0,3606.0,3120.0,4095.0,3727.0,2873.0,3069.0,3408.0,0.14,9.52,3.2,-0.08,-0.02,0.02,1.0,t
2881.0,3599.0,3122.0,4095.0,3724.0,2889.0,3059.0,3374.0,0.32,9.64,3.25,-0.05,0.01,-0.0,1.0,t
2883.0,3583.0,3105.0,4095.0,3743.0,2882.0,3042.0,3330.0,0.37,9.58,3.19,-0.12,-0.03,-0.05,1.0,t
