hall_1,hall_2,hall_3,flex_t,flex_i,flex_m,flex_r,flex_p,accel_x,accel_y,accel_z,gyro_x,gyro_y,gyro_z,hand,sign
2997.0,3472.0,3391.0,4095.0,2753.0,2170.0,2458.0,2074.0,-1.19,9.76,4.38,0.02,-0.03,-0.18,0.0,t
2992.0,3469.0,3406.0,4095.0,2766.0,2167.0,2448.0,2078.0,-1.31,9.81,4.35,0.01,0.0,-0.17,0.0,t
2992.0,3459.0,3403.0,4095.0,2767.0,2170.0,2453.0,2066.0,-1.12,9.77,4.42,0.02,-0.04,-0.14,0.0,t
2992.0,3471.0,3395.0,4095.0,2757.0,2169.0,2459.0,2071.0,-1.14,9.83,4.42,0.01,0.01,-0.16,0.0,t
2983.0,3461.0,3397.0,4095.0,2755.0,2176.0,2461.0,2078.0,-1.17,9.84,4.36,0.02,-0.04,-0.16,0.0,t
2993.0,3481.0,3393.0,4095.0,2768.0,2175.0,2463.0,2073.0,-1.25,9.79,4.45,0.03,0.01,-0.18,0.0,t
2994.0,3457.0,3393.0,4095.0,2769.0,2176.0,2467.0,2084.0,-1.28,9.83,4.49,-0.01,-0.02,-0.18,0.0,t
2989.0,3461.0,3407.0,4095.0,2768.0,2180.0,2459.0,2082.0,-1.24,9.77,4.36,0.03,0.0,-0.17,0.0,t
2999.0,3463.0,3403.0,4095.0,2768.0,2178.0,2459.0,2080.0,-1.31,9.81,4.35,0.03,-0.01,-0.15,0.0,t
2981.0,3462.0,3401.0,4095.0,2774.0,2182.0,2467.0,2090.0,-1.3,9.81,4.49,0.02,0.01,-0.17,0.0,t
2993.0,3467.0,3399.0,4095.0,2767.0,2181.0,2459.0,2085.0,-1.07,9.72,4.41,0.04,-0.0,-0.16,0.0,t
2997.0,3466.0,3394.0,4095.0,2768.0,2186.0,2465.0,2090.0,-1.37,9.72,4.43,0.03,-0.03,-0.16,0.0,t
2985.0,3461.0,3402.0,4095.0,2775.0,2187.0,2463.0,2090.0,-1.44,9.77,4.34,0.03,-0.07,-0.14,0.0,t
2992.0,3459.0,3390.0,4095.0,2768.0,2178.0,2466.0,2085.0,-1.36,9.8,4.38,-0.03,-0.04,-0.14,0.0,t
2992.0,3495.0,3398.0,4095.0,2777.0,2179.0,2464.0,2090.0,-1.33,9.83,4.36,0.02,0.01,-0.16,0.0,t
3001.0,3469.0,3406.0,4095.0,2774.0,2186.0,2475.0,2093.0,-1.3,9.78,4.38,0.02,-0.02,-0.15,0.0,t
2992.0,3472.0,3401.0,4095.0,2771.0,2186.0,2468.0,2093.0,-1.4,9.79,4.29,0.04,-0.01,-0.16,0.0,t
2992.0,3475.0,3397.0,4095.0,2772.0,2185.0,2473.0,2093.0,-1.51,9.81,4.41,0.02,0.01,-0.14,0.0,t
2992.0,3454.0,3408.0,4095.0,2774.0,2159.0,2471.0,2094.0,-1.33,9.76,4.36,0.02,-0.01,-0.16,0.0,t
2990.0,3463.0,3393.0,4095.0,2770.0,2185.0,2471.0,2095.0,-1.44,9.71,4.31,-0.0,0.0,-0.16,0.0,t
3005.0,3459.0,3403.0,4095.0,2782.0,2174.0,2477.0,2096.0,-1.47,9.79,4.24,0.01,0.0,-0.14,0.0,t
2992.0,3471.0,3391.0,4095.0,2770.0,2183.0,2480.0,2099.0,-1.56,9.73,4.41,-0.02,-0.01,-0.13,0.0,t
2994.0,3467.0,3397.0,4095.0,2785.0,2187.0,2472.0,2095.0,-1.33,9.77,4.44,0.02,0.02,-0.13,0.0,t
2983.0,3469.0,3402.0,4095.0,2783.0,2186.0,2480.0,2095.0,-1.44,9.78,4.34,0.0,0.01,-0.14,0.0,t
2990.0,3464.0,3406.0,4095.0,2783.0,2192.0,2474.0,2108.0,-1.21,9.82,4.31,0.02,-0.03,-0.13,0.0,t
2991.0,3485.0,3387.0,4095.0,2784.0,2182.0,2468.0,2099.0,-1.24,9.82,4.39,0.02,-0.07,-0.13,0.0,t
2992.0,3457.0,3407.0,4095.0,2785.0,2188.0,2480.0,2094.0,-1.27,9.83,4.34,0.0,-0.03,-0.15,0.0,t
2997.0,3467.0,3408.0,4095.0,2782.0,2179.0,2469.0,2105.0,-1.2,9.85,4.2,0.01,-0.02,-0.14,0.0,t
2991.0,3463.0,3393.0,4095.0,2774.0,2189.0,2475.0,2097.0,-1.24,9.8,4.34,0.0,-0.01,-0.15,0.0,t
2995.0,3461.0,3398.0,4095.0,2787.0,2190.0,2478.0,2101.0,-1.28,9.83,4.25,0.02,0.01,-0.15,0.0,t
2990.0,3462.0,3397.0,4095.0,2782.0,2199.0,2477.0,2094.0,-1.32,9.79,4.27,0.04,0.04,-0.16,0.0,t
2997.0,3458.0,3389.0,4095.0,2780.0,2192.0,2483.0,2062.0,-1.43,9.82,4.42,-0.01,0.03,-0.15,0.0,t
2985.0,3473.0,3394.0,4095.0,2780.0,2192.0,2475.0,2096.0,-1.13,9.86,4.23,0.02,-0.01,-0.12,0.0,t
2989.0,3479.0,3391.0,4095.0,2776.0,2189.0,2467.0,2096.0,-1.22,9.77,4.4,0.04,-0.01,-0.16,0.0,t
2989.0,3459.0,3401.0,4095.0,2780.0,2198.0,2479.0,2108.0,-1.37,9.78,4.24,0.08,0.02,-0.17,0.0,t
2993.0,3469.0,3397.0,4095.0,2789.0,2184.0,2475.0,2096.0,-1.28,9.76,4.36,0.02,-0.0,-0.15,0.0,t
2983.0,3456.0,3378.0,4095.0,2785.0,2183.0,2480.0,2098.0,-1.3,9.77,4.26,0.03,-0.02,-0.16,0.0,t
2985.0,3463.0,3406.0,4095.0,2783.0,2192.0,2448.0,2102.0,-1.36,9.79,4.35,0.03,-0.04,-0.14,0.0,t
2995.0,3472.0,3395.0,4095.0,2779.0,2192.0,2487.0,2107.0,-1.42,9.85,4.25,0.06,0.04,-0.16,0.0,t
2993.0,3458.0,3399.0,4095.0,2780.0,2189.0,2480.0,2097.0,-1.36,9.75,4.34,-0.0,0.04,-0.15,0.0,t
2983.0,3477.0,3397.0,4095.0,2783.0,2190.0,2496.0,2111.0,-1.14,9.79,4.23,0.02,0.01,-0.14,0.0,t
2979.0,3472.0,3162.0,4095.0,2721.0,2154.0,2628.0,2150.0,-1.31,9.8,4.12,0.01,-0.02,-0.14,0.0,t
2979.0,3479.0,3168.0,4095.0,2720.0,2141.0,2628.0,2154.0,-1.34,9.83,4.05,0.01,0.02,-0.14,0.0,t
2999.0,3477.0,3161.0,4095.0,2723.0,2150.0,2634.0,2153.0,-1.38,9.76,4.15,0.03,0.01,-0.15,0.0,t
2994.0,3485.0,3157.0,4095.0,2720.0,2153.0,2635.0,2160.0,-1.4,9.8,4.06,0.02,-0.02,-0.15,0.0,t
2981.0,3486.0,3150.0,4095.0,2718.0,2154.0,2633.0,2159.0,-1.24,9.72,4.16,0.03,0.01,-0.15,0.0,t
2987.0,3481.0,3162.0,4095.0,2750.0,2151.0,2636.0,2156.0,-1.25,9.65,4.08,0.03,-0.02,-0.17,0.0,t
2992.0,3481.0,3161.0,4095.0,2731.0,2151.0,2639.0,2150.0,-1.18,9.73,4.12,0.04,-0.05,-0.15,0.0,t
2985.0,3472.0,3152.0,4095.0,2734.0,2160.0,2640.0,2157.0,-1.46,9.77,4.12,0.04,-0.08,-0.19,0.0,t
2992.0,3485.0,3163.0,4095.0,2736.0,2163.0,2624.0,2151.0,-1.24,9.75,4.07,0.04,0.03,-0.16,0.0,t
2983.0,3465.0,3161.0,4095.0,2736.0,2153.0,2627.0,2159.0,-1.39,9.79,4.09,0.01,0.02,-0.17,0.0,t
2986.0,3467.0,3169.0,4095.0,2736.0,2157.0,2615.0,2147.0,-1.25,9.74,4.0,0.03,-0.02,-0.16,0.0,t
2975.0,3476.0,3159.0,4095.0,2739.0,2160.0,2635.0,2150.0,-1.35,9.73,4.09,0.05,-0.04,-0.17,0.0,t
2974.0,3474.0,3170.0,4095.0,2736.0,2161.0,2637.0,2159.0,-1.32,9.7,4.12,0.07,-0.02,-0.17,0.0,t
2985.0,3471.0,3189.0,4095.0,2737.0,2165.0,2644.0,2166.0,-1.26,9.74,3.94,0.05,0.03,-0.15,0.0,t
2972.0,3473.0,3217.0,4095.0,2736.0,2174.0,2654.0,2205.0,-1.34,9.77,3.88,-0.0,0.03,-0.14,0.0,t
2991.0,3472.0,3221.0,4095.0,2739.0,2189.0,2672.0,2210.0,-1.16,9.77,3.89,-0.02,-0.02,-0.11,0.0,t
2989.0,3472.0,3220.0,4095.0,2746.0,2189.0,2674.0,2219.0,-1.26,9.77,4.09,-0.01,-0.01,-0.13,0.0,t
2992.0,3472.0,3216.0,4095.0,2741.0,2179.0,2669.0,2210.0,-1.2,9.75,3.98,0.0,-0.0,-0.15,0.0,t
2992.0,3467.0,3237.0,4095.0,2738.0,2208.0,2672.0,2214.0,-1.22,9.78,3.91,-0.01,-0.01,-0.13,0.0,t
2977.0,3476.0,3219.0,4095.0,2743.0,2192.0,2672.0,2217.0,-1.28,9.68,4.07,-0.04,-0.02,-0.13,0.0,t
2983.0,3473.0,3221.0,4095.0,2741.0,2192.0,2672.0,2224.0,-1.29,9.73,4.12,0.06,-0.1,-0.17,0.0,t
2981.0,3470.0,3232.0,4095.0,2737.0,2192.0,2675.0,2223.0,-1.4,9.77,3.98,0.02,0.0,-0.17,0.0,t
2996.0,3472.0,3227.0,4095.0,2736.0,2175.0,2679.0,2225.0,-1.28,9.81,3.91,0.0,-0.0,-0.13,0.0,t
2982.0,3451.0,3227.0,4095.0,2746.0,2195.0,2677.0,2231.0,-1.27,9.79,4.12,-0.03,0.0,-0.13,0.0,t
2992.0,3473.0,3223.0,4095.0,2749.0,2189.0,2672.0,2224.0,-1.23,9.81,4.05,0.0,0.03,-0.14,0.0,t
2993.0,3473.0,3228.0,4095.0,2743.0,2187.0,2666.0,2215.0,-1.08,9.73,4.1,0.01,0.01,-0.17,0.0,t
2978.0,3466.0,3216.0,4095.0,2752.0,2176.0,2646.0,2171.0,-1.25,9.75,3.94,-0.03,-0.01,-0.15,0.0,t
2982.0,3472.0,3222.0,4095.0,2749.0,2183.0,2659.0,2210.0,-1.2,9.8,4.14,0.04,-0.02,-0.14,0.0,t
2992.0,3474.0,3223.0,4095.0,2742.0,2186.0,2663.0,2215.0,-1.23,9.81,3.98,0.03,0.0,-0.16,0.0,t
2986.0,3453.0,3211.0,4095.0,2743.0,2199.0,2669.0,2224.0,-1.3,9.73,4.05,0.02,-0.02,-0.15,0.0,t
2985.0,3468.0,3216.0,4095.0,2751.0,2192.0,2676.0,2223.0,-1.23,9.77,4.01,0.0,-0.02,-0.15,0.0,t
2978.0,3457.0,3218.0,4095.0,2742.0,2183.0,2655.0,2224.0,-1.2,9.71,4.04,0.01,-0.03,-0.16,0.0,t
2987.0,3474.0,3222.0,4095.0,2757.0,2194.0,2669.0,2224.0,-1.34,9.77,4.28,0.01,-0.0,-0.16,0.0,t
2989.0,3467.0,3215.0,4095.0,2753.0,2198.0,2674.0,2219.0,-1.22,9.83,3.92,0.04,0.0,-0.16,0.0,t
2970.0,3472.0,3230.0,4095.0,2758.0,2192.0,2673.0,2226.0,-1.38,9.74,4.09,0.01,-0.01,-0.14,0.0,t
2987.0,3471.0,3221.0,4095.0,2762.0,2205.0,2665.0,2224.0,-1.2,9.82,4.0,0.02,-0.0,-0.15,0.0,t
2989.0,3462.0,3221.0,4095.0,2761.0,2199.0,2669.0,2227.0,-1.33,9.75,4.08,0.02,-0.05,-0.16,0.0,t
2995.0,3467.0,3216.0,4095.0,2775.0,2194.0,2672.0,2227.0,-1.14,9.74,4.04,0.01,-0.01,-0.15,0.0,t
2993.0,3479.0,3227.0,4095.0,2766.0,2197.0,2662.0,2227.0,-1.31,9.73,4.02,0.01,-0.02,-0.15,0.0,t
2982.0,3465.0,3235.0,4095.0,2757.0,2197.0,2672.0,2225.0,-1.15,9.7,4.04,-0.0,-0.08,-0.15,0.0,t
2979.0,3456.0,3214.0,4095.0,2759.0,2199.0,2676.0,2227.0,-1.17,9.83,4.18,0.01,-0.03,-0.14,0.0,t
2995.0,1040.0,4095.0,3967.0,2741.0,2112.0,2479.0,1978.0,-0.91,9.86,4.34,-0.03,-0.12,-0.22,0.0,t
2987.0,1053.0,4095.0,3952.0,2752.0,2123.0,2481.0,1981.0,-1.29,9.71,4.62,0.04,-0.02,-0.2,0.0,t
2999.0,1047.0,4095.0,3955.0,2751.0,2118.0,2480.0,1984.0,-1.01,9.67,4.1,-0.0,0.1,-0.16,0.0,t
2986.0,1055.0,4095.0,3984.0,2751.0,2123.0,2484.0,1987.0,-1.07,9.75,3.77,0.05,0.02,-0.16,0.0,t
3008.0,1040.0,4095.0,3954.0,2753.0,2122.0,2480.0,1979.0,-1.19,9.77,4.08,-0.01,-0.03,-0.16,0.0,t
2993.0,1051.0,4095.0,3953.0,2752.0,2118.0,2479.0,1971.0,-1.08,9.9,3.99,0.01,0.0,-0.13,0.0,t
3003.0,1042.0,4095.0,3983.0,2753.0,2125.0,2483.0,1984.0,-1.1,9.88,4.17,0.05,-0.06,-0.16,0.0,t
2995.0,1037.0,4095.0,3967.0,2757.0,2130.0,2480.0,1983.0,-1.17,9.73,4.03,0.02,-0.04,-0.15,0.0,t
2989.0,1047.0,4095.0,3973.0,2756.0,2126.0,2481.0,1975.0,-1.08,9.87,4.06,0.03,-0.0,-0.13,0.0,t
2991.0,1032.0,4095.0,3975.0,2753.0,2126.0,2490.0,1985.0,-1.05,9.82,4.05,0.02,-0.02,-0.15,0.0,t
2991.0,1057.0,4095.0,3987.0,2748.0,2129.0,2483.0,1984.0,-1.21,9.8,4.02,0.04,0.01,-0.14,0.0,t
2996.0,1040.0,4095.0,3981.0,2746.0,2123.0,2480.0,1984.0,-0.91,9.85,4.11,0.0,0.03,-0.16,0.0,t
3001.0,1049.0,4095.0,3995.0,2764.0,2128.0,2491.0,1984.0,-1.12,9.8,4.21,0.03,-0.0,-0.18,0.0,t
2999.0,1043.0,4095.0,3995.0,2763.0,2128.0,2484.0,1986.0,-1.17,9.84,4.03,0.02,0.02,-0.18,0.0,t
2994.0,1038.0,4095.0,4009.0,2756.0,2132.0,2486.0,1982.0,-1.11,9.78,3.96,0.07,0.06,-0.19,0.0,t
2992.0,1044.0,4095.0,3993.0,2757.0,2128.0,2487.0,1983.0,-1.1,9.78,3.61,0.03,-0.05,-0.19,0.0,t
2989.0,1055.0,4095.0,3985.0,2766.0,2143.0,2493.0,1989.0,-1.28,9.78,3.75,-0.01,-0.06,-0.13,0.0,t
2995.0,1057.0,4095.0,4007.0,2772.0,2130.0,2497.0,1979.0,-1.26,9.79,3.91,-0.04,-0.04,-0.13,0.0,t
2995.0,1043.0,4095.0,3990.0,2769.0,2141.0,2498.0,1991.0,-1.16,9.83,3.93,0.03,-0.06,-0.08,0.0,t
2987.0,1051.0,4095.0,3984.0,2774.0,2131.0,2496.0,1986.0,-1.19,9.9,4.13,0.03,-0.06,-0.11,0.0,t
2999.0,1059.0,4095.0,4016.0,2779.0,2141.0,2494.0,1995.0,-1.02,9.88,3.9,-0.0,-0.0,-0.14,0.0,t
2992.0,1056.0,4095.0,4010.0,2773.0,2135.0,2494.0,1990.0,-0.96,9.9,4.19,0.01,0.0,-0.15,0.0,t
2991.0,1056.0,4095.0,4007.0,2774.0,2136.0,2498.0,1984.0,-0.86,9.88,4.04,0.04,-0.03,-0.19,0.0,t
2992.0,1068.0,4095.0,4006.0,2770.0,2141.0,2487.0,1985.0,-1.15,9.78,3.99,0.05,-0.02,-0.19,0.0,t
2995.0,1054.0,4095.0,3998.0,2784.0,2141.0,2496.0,1978.0,-1.13,9.79,3.81,0.0,-0.03,-0.17,0.0,t
2991.0,1056.0,4095.0,4007.0,2775.0,2150.0,2499.0,1985.0,-1.14,9.75,4.06,0.01,-0.04,-0.14,0.0,t
2998.0,1058.0,4095.0,4003.0,2783.0,2145.0,2500.0,1995.0,-1.1,9.79,4.03,0.02,-0.03,-0.15,0.0,t
2982.0,1067.0,4095.0,4006.0,2791.0,2143.0,2501.0,1991.0,-1.21,9.84,3.96,0.02,0.01,-0.13,0.0,t
3002.0,1061.0,4095.0,4013.0,2784.0,2147.0,2495.0,1989.0,-1.1,9.81,3.9,0.01,-0.02,-0.15,0.0,t
2993.0,1061.0,4095.0,4014.0,2774.0,2146.0,2497.0,1995.0,-1.07,9.9,3.97,-0.0,-0.04,-0.11,0.0,t
2997.0,1069.0,4095.0,4006.0,2788.0,2149.0,2496.0,1995.0,-1.2,9.83,4.07,0.01,0.0,-0.14,0.0,t
2992.0,1059.0,4095.0,4017.0,2780.0,2153.0,2496.0,2000.0,-1.05,9.85,3.94,0.04,-0.02,-0.14,0.0,t
2989.0,1072.0,4095.0,4016.0,2789.0,2145.0,2502.0,2000.0,-1.07,9.82,4.01,-0.04,-0.01,-0.15,0.0,t
2993.0,1059.0,4095.0,4042.0,2787.0,2146.0,2503.0,2000.0,-1.05,9.86,4.04,0.02,-0.0,-0.13,0.0,t
2996.0,1069.0,4095.0,4031.0,2800.0,2158.0,2498.0,2000.0,-1.07,9.83,4.06,-0.0,-0.01,-0.15,0.0,t
2993.0,1053.0,4095.0,4018.0,2796.0,2147.0,2511.0,2005.0,-1.07,9.9,4.05,-0.0,0.02,-0.13,0.0,t
2991.0,1052.0,4095.0,4033.0,2800.0,2144.0,2510.0,2011.0,-1.08,9.82,4.17,0.01,-0.03,-0.15,0.0,t
2992.0,1058.0,4095.0,4053.0,2802.0,2153.0,2514.0,2015.0,-0.98,9.83,4.01,0.02,-0.01,-0.16,0.0,t
2984.0,1065.0,4095.0,4030.0,2802.0,2160.0,2512.0,2005.0,-1.07,9.87,4.18,0.04,0.01,-0.14,0.0,t
3003.0,1058.0,4095.0,4028.0,2799.0,2145.0,2512.0,2014.0,-1.02,9.84,3.99,0.02,-0.03,-0.17,0.0,t
3003.0,1051.0,4095.0,4022.0,2804.0,2160.0,2518.0,2010.0,-1.21,9.8,4.07,0.0,0.01,-0.13,0.0,t
3006.0,3731.0,4095.0,4025.0,2643.0,2240.0,2640.0,2064.0,-1.06,9.79,3.96,-0.01,0.04,-0.17,0.0,t
3017.0,3728.0,4095.0,4048.0,2652.0,2240.0,2641.0,2075.0,-1.18,9.9,3.78,0.01,-0.01,-0.15,0.0,t
3004.0,3728.0,4095.0,4048.0,2653.0,2251.0,2643.0,2064.0,-1.25,9.88,3.77,-0.04,0.05,-0.12,0.0,t
3002.0,3739.0,4095.0,4071.0,2639.0,2246.0,2650.0,2064.0,-1.23,9.73,4.05,0.01,0.12,-0.16,0.0,t
3012.0,3728.0,4095.0,4053.0,2645.0,2242.0,2647.0,2064.0,-1.03,9.86,3.86,0.06,0.03,-0.13,0.0,t
3008.0,3744.0,4095.0,4055.0,2650.0,2247.0,2647.0,2073.0,-1.11,9.85,3.81,0.02,0.04,-0.15,0.0,t
2998.0,3726.0,4095.0,4064.0,2641.0,2250.0,2649.0,2067.0,-1.0,9.83,3.88,0.03,-0.01,-0.17,0.0,t
3006.0,3731.0,4095.0,4070.0,2645.0,2257.0,2645.0,2071.0,-1.11,9.76,3.84,0.03,-0.02,-0.14,0.0,t
3008.0,3729.0,4095.0,4048.0,2635.0,2252.0,2643.0,2071.0,-1.06,9.83,3.89,0.02,0.0,-0.13,0.0,t
2999.0,3742.0,4095.0,4074.0,2623.0,2255.0,2658.0,2074.0,-0.97,9.85,3.8,0.06,-0.05,-0.15,0.0,t
3005.0,3728.0,4095.0,4052.0,2651.0,2255.0,2651.0,2085.0,-1.09,9.83,3.71,0.01,-0.07,-0.15,0.0,t
3018.0,3729.0,4095.0,4061.0,2669.0,2250.0,2658.0,2078.0,-1.09,9.81,3.79,0.03,-0.07,-0.15,0.0,t
3010.0,3723.0,4095.0,4065.0,2671.0,2255.0,2658.0,2078.0,-1.01,9.84,3.89,0.03,-0.03,-0.15,0.0,t
2997.0,3717.0,4095.0,4068.0,2666.0,2259.0,2647.0,2082.0,-1.11,9.91,3.79,0.03,-0.01,-0.13,0.0,t
3018.0,3730.0,4095.0,4068.0,2678.0,2257.0,2652.0,2085.0,-1.04,9.87,3.62,0.09,-0.03,-0.18,0.0,t
3006.0,3715.0,4095.0,4055.0,2677.0,2258.0,2651.0,2089.0,-0.96,9.76,3.64,0.05,0.03,-0.19,0.0,t
3011.0,3733.0,4095.0,4071.0,2686.0,2262.0,2663.0,2082.0,-1.05,9.71,3.6,0.03,-0.01,-0.19,0.0,t
3008.0,3712.0,4095.0,4049.0,2687.0,2257.0,2657.0,2079.0,-1.09,9.74,3.66,0.01,-0.02,-0.15,0.0,t
3012.0,3741.0,4095.0,4069.0,2691.0,2258.0,2649.0,2087.0,-1.21,9.77,3.72,-0.01,-0.01,-0.15,0.0,t
3003.0,3737.0,4095.0,4063.0,2695.0,2256.0,2659.0,2086.0,-1.07,9.75,3.72,0.02,-0.02,-0.15,0.0,t
3008.0,3726.0,4095.0,4069.0,2699.0,2256.0,2666.0,2085.0,-1.1,9.79,3.7,0.02,-0.05,-0.16,0.0,t
3008.0,3731.0,4095.0,4080.0,2704.0,2263.0,2667.0,2086.0,-1.15,9.83,3.53,0.02,-0.02,-0.16,0.0,t
3005.0,3732.0,4095.0,4095.0,2704.0,2263.0,2663.0,2087.0,-1.1,9.75,3.73,0.0,-0.02,-0.15,0.0,t
3019.0,3723.0,4095.0,4082.0,2712.0,2260.0,2657.0,2087.0,-1.01,9.82,3.53,0.01,-0.02,-0.15,0.0,t
3013.0,3735.0,4095.0,4081.0,2703.0,2259.0,2666.0,2093.0,-1.1,9.75,3.79,-0.0,0.0,-0.15,0.0,t
3008.0,3713.0,4095.0,4074.0,2707.0,2271.0,2661.0,2093.0,-1.09,9.82,3.51,0.03,-0.01,-0.15,0.0,t
3008.0,3728.0,4095.0,4095.0,2712.0,2262.0,2661.0,2096.0,-1.07,9.79,3.68,0.0,-0.03,-0.14,0.0,t
2998.0,3744.0,4095.0,4082.0,2701.0,2263.0,2669.0,2096.0,-1.15,9.87,3.64,0.03,0.0,-0.15,0.0,t
3011.0,3729.0,4095.0,4083.0,2707.0,2263.0,2662.0,2094.0,-1.1,9.84,3.62,0.01,-0.01,-0.15,0.0,t
3013.0,3712.0,4095.0,4077.0,2707.0,2262.0,2655.0,2096.0,-1.11,9.77,3.64,0.02,0.02,-0.16,0.0,t
3004.0,3738.0,4095.0,4079.0,2704.0,2261.0,2665.0,2096.0,-1.13,9.79,3.64,0.02,0.0,-0.15,0.0,t
3008.0,3721.0,4095.0,4084.0,2705.0,2269.0,2663.0,2098.0,-1.13,9.75,3.63,-0.02,-0.02,-0.12,0.0,t
3008.0,3742.0,4095.0,4095.0,2706.0,2269.0,2661.0,2097.0,-1.07,9.83,3.78,0.02,-0.01,-0.15,0.0,t
3004.0,3733.0,4095.0,4094.0,2708.0,2269.0,2673.0,2098.0,-1.16,9.78,3.63,0.0,-0.01,-0.15,0.0,t
3003.0,3730.0,4095.0,4084.0,2706.0,2261.0,2657.0,2096.0,-0.86,9.81,3.71,0.02,-0.03,-0.14,0.0,t
3002.0,3740.0,4095.0,4086.0,2711.0,2266.0,2665.0,2096.0,-1.08,9.74,3.73,0.03,-0.03,-0.16,0.0,t
3003.0,3729.0,4095.0,4091.0,2711.0,2273.0,2672.0,2099.0,-1.06,9.84,3.64,0.03,0.01,-0.13,0.0,t
3004.0,3706.0,4095.0,4085.0,2709.0,2274.0,2661.0,2097.0,-1.05,9.78,3.72,0.0,0.01,-0.17,0.0,t
3008.0,3728.0,4095.0,4095.0,2715.0,2272.0,2669.0,2103.0,-1.0,9.74,3.6,0.01,-0.01,-0.15,0.0,t
3013.0,3715.0,4095.0,4093.0,2711.0,2271.0,2672.0,2096.0,-1.05,9.81,3.67,0.01,-0.0,-0.14,0.0,t
3008.0,3725.0,4095.0,4082.0,2707.0,2271.0,2669.0,2103.0,-1.12,9.79,3.61,-0.01,-0.0,-0.14,0.0,t
2994.0,939.0,3373.0,4095.0,2704.0,2171.0,2476.0,2021.0,-1.18,9.77,2.91,-0.03,0.01,-0.17,0.0,t
3002.0,935.0,3376.0,4095.0,2704.0,2167.0,2478.0,2029.0,-1.18,9.73,3.14,-0.0,0.01,-0.13,0.0,t
2975.0,933.0,3389.0,4095.0,2704.0,2166.0,2480.0,2030.0,-1.02,9.77,3.23,0.0,0.02,-0.11,0.0,t
2980.0,946.0,3378.0,4095.0,2707.0,2171.0,2475.0,2026.0,-0.91,9.74,3.15,0.0,-0.01,-0.13,0.0,t
2982.0,931.0,3379.0,4095.0,2704.0,2175.0,2479.0,2032.0,-1.09,9.88,3.12,0.02,0.03,-0.14,0.0,t
2983.0,936.0,3376.0,4095.0,2702.0,2178.0,2477.0,2034.0,-1.11,9.77,3.22,-0.01,-0.03,-0.14,0.0,t
2989.0,933.0,3387.0,4095.0,2704.0,2167.0,2480.0,2035.0,-0.9,9.74,3.26,0.02,-0.04,-0.16,0.0,t
2990.0,932.0,3393.0,4095.0,2702.0,2175.0,2480.0,2031.0,-1.01,9.82,3.2,0.03,-0.02,-0.13,0.0,t
2983.0,947.0,3379.0,4095.0,2704.0,2181.0,2490.0,2037.0,-1.06,9.77,3.13,0.02,-0.01,-0.15,0.0,t
2977.0,942.0,3388.0,4095.0,2697.0,2177.0,2479.0,2035.0,-1.01,9.75,3.19,-0.01,-0.01,-0.14,0.0,t
2990.0,945.0,3383.0,4095.0,2704.0,2177.0,2479.0,2037.0,-0.97,9.82,3.19,0.01,0.01,-0.13,0.0,t
2983.0,934.0,3395.0,4095.0,2702.0,2185.0,2481.0,2043.0,-0.97,9.78,3.28,-0.0,0.03,-0.14,0.0,t
2982.0,937.0,3392.0,4095.0,2695.0,2176.0,2483.0,2042.0,-0.9,9.82,3.08,0.01,0.0,-0.14,0.0,t
2975.0,944.0,3398.0,4095.0,2704.0,2182.0,2480.0,2038.0,-1.1,9.83,3.25,0.01,-0.0,-0.14,0.0,t
3001.0,942.0,3394.0,4095.0,2703.0,2182.0,2486.0,2035.0,-0.88,9.82,3.27,0.01,-0.01,-0.15,0.0,t
2983.0,947.0,3398.0,4095.0,2703.0,2179.0,2483.0,2041.0,-0.93,9.8,3.26,0.04,-0.0,-0.16,0.0,t
2989.0,934.0,3386.0,4095.0,2716.0,2185.0,2480.0,2047.0,-1.03,9.78,3.19,0.01,-0.05,-0.16,0.0,t
2983.0,934.0,3381.0,4095.0,2703.0,2183.0,2480.0,2059.0,-0.93,9.79,3.3,0.02,-0.02,-0.14,0.0,t
2979.0,945.0,3375.0,4095.0,2698.0,2179.0,2486.0,2055.0,-0.99,9.82,3.24,0.01,0.01,-0.15,0.0,t
2989.0,943.0,3373.0,4095.0,2704.0,2184.0,2482.0,2047.0,-0.97,9.73,3.25,0.0,0.01,-0.16,0.0,t
2991.0,932.0,3396.0,4095.0,2704.0,2189.0,2491.0,2053.0,-0.91,9.79,3.22,0.01,-0.01,-0.16,0.0,t
2993.0,955.0,3387.0,4095.0,2704.0,2182.0,2498.0,2056.0,-0.96,9.8,3.2,0.03,-0.02,-0.16,0.0,t
2995.0,947.0,3376.0,4095.0,2703.0,2179.0,2503.0,2053.0,-0.99,9.81,3.29,0.02,-0.01,-0.16,0.0,t
2992.0,943.0,3376.0,4095.0,2704.0,2182.0,2509.0,2062.0,-0.91,9.8,3.19,0.02,-0.01,-0.15,0.0,t
2977.0,940.0,3380.0,4095.0,2704.0,2188.0,2511.0,2064.0,-0.99,9.8,3.23,0.03,-0.0,-0.16,0.0,t
2987.0,939.0,3377.0,4095.0,2703.0,2186.0,2512.0,2064.0,-1.04,9.75,3.24,-0.0,-0.01,-0.15,0.0,t
2994.0,937.0,3380.0,4095.0,2711.0,2186.0,2512.0,2063.0,-0.89,9.77,3.21,0.02,0.02,-0.15,0.0,t
2976.0,938.0,3377.0,4095.0,2714.0,2186.0,2518.0,2064.0,-0.95,9.79,3.22,0.02,0.01,-0.15,0.0,t
2992.0,950.0,3381.0,4095.0,2706.0,2190.0,2518.0,2063.0,-0.97,9.82,3.17,0.01,0.01,-0.14,0.0,t
2994.0,944.0,3376.0,4095.0,2709.0,2185.0,2519.0,2064.0,-0.98,9.79,3.26,0.01,0.01,-0.15,0.0,t
2990.0,943.0,3390.0,4095.0,2704.0,2183.0,2516.0,2062.0,-0.96,9.75,3.22,0.0,-0.0,-0.16,0.0,t
2989.0,945.0,3397.0,4095.0,2707.0,2186.0,2513.0,2064.0,-1.03,9.73,3.2,0.01,0.0,-0.15,0.0,t
2986.0,939.0,3373.0,4095.0,2707.0,2192.0,2519.0,2064.0,-1.05,9.81,3.36,0.0,0.03,-0.14,0.0,t
2975.0,945.0,3377.0,4095.0,2706.0,2187.0,2521.0,2062.0,-0.94,9.78,3.25,0.02,-0.0,-0.16,0.0,t
2991.0,944.0,3393.0,4095.0,2711.0,2192.0,2523.0,2064.0,-1.06,9.71,3.27,0.01,0.0,-0.16,0.0,t
2979.0,939.0,3379.0,4095.0,2711.0,2194.0,2523.0,2064.0,-0.89,9.78,3.26,0.0,0.03,-0.14,0.0,t
2994.0,941.0,3381.0,4095.0,2714.0,2190.0,2522.0,2065.0,-0.97,9.8,3.35,0.02,0.0,-0.15,0.0,t
2981.0,938.0,3393.0,4095.0,2711.0,2191.0,2526.0,2064.0,-0.95,9.83,3.27,0.02,-0.0,-0.15,0.0,t
2977.0,944.0,3387.0,4095.0,2710.0,2184.0,2517.0,2069.0,-1.04,9.72,3.22,0.03,-0.01,-0.17,0.0,t
2990.0,944.0,3374.0,4095.0,2709.0,2192.0,2515.0,2070.0,-0.96,9.8,3.27,0.01,-0.03,-0.15,0.0,t
2989.0,944.0,3378.0,4095.0,2704.0,2192.0,2525.0,2064.0,-0.98,9.78,3.41,0.03,-0.01,-0.16,0.0,t
3006.0,896.0,3254.0,3984.0,2147.0,1984.0,2259.0,1879.0,-2.16,9.49,5.33,-0.02,-0.01,-0.15,0.0,t
3006.0,912.0,3237.0,3982.0,2150.0,1991.0,2262.0,1878.0,-2.16,9.54,5.3,0.0,0.02,-0.15,0.0,t
3002.0,906.0,3248.0,3995.0,2160.0,1984.0,2275.0,1881.0,-2.14,9.57,5.3,0.02,0.0,-0.16,0.0,t
2993.0,912.0,3250.0,3973.0,2141.0,1991.0,2267.0,1887.0,-2.19,9.49,5.38,-0.01,-0.01,-0.15,0.0,t
2994.0,912.0,3263.0,3981.0,2150.0,1998.0,2272.0,1889.0,-2.15,9.56,5.26,0.0,-0.02,-0.15,0.0,t
3012.0,907.0,3239.0,3951.0,2155.0,1990.0,2267.0,1884.0,-2.2,9.51,5.37,0.02,-0.0,-0.17,0.0,t
2992.0,917.0,3248.0,3963.0,2158.0,1996.0,2271.0,1885.0,-2.18,9.54,5.36,0.0,0.0,-0.15,0.0,t
2999.0,919.0,3246.0,3942.0,2160.0,1938.0,2271.0,1885.0,-2.25,9.56,5.28,0.03,0.01,-0.15,0.0,t
3003.0,908.0,3233.0,3955.0,2143.0,1991.0,2283.0,1885.0,-2.29,9.48,5.32,0.02,-0.0,-0.15,0.0,t
3010.0,901.0,3242.0,3962.0,2134.0,1997.0,2260.0,1898.0,-2.08,9.55,5.35,0.03,-0.02,-0.14,0.0,t
3002.0,919.0,3237.0,3967.0,2151.0,1989.0,2279.0,1891.0,-2.29,9.5,5.31,0.02,-0.0,-0.16,0.0,t
2995.0,911.0,3246.0,3955.0,2151.0,1985.0,2274.0,1903.0,-2.18,9.48,5.4,0.0,0.01,-0.14,0.0,t
2994.0,912.0,3237.0,3986.0,2149.0,1994.0,2272.0,1902.0,-2.22,9.5,5.37,0.04,0.04,-0.14,0.0,t
3014.0,913.0,3255.0,3954.0,2153.0,1999.0,2288.0,1899.0,-2.27,9.55,5.23,0.01,0.03,-0.16,0.0,t
2997.0,901.0,3233.0,3984.0,2158.0,2000.0,2281.0,1904.0,-2.2,9.53,5.39,0.02,0.01,-0.15,0.0,t
3001.0,909.0,3241.0,3973.0,2141.0,1986.0,2271.0,1904.0,-2.25,9.57,5.26,0.04,-0.05,-0.16,0.0,t
2999.0,910.0,3234.0,3950.0,2153.0,1999.0,2270.0,1899.0,-2.27,9.47,5.27,0.03,0.01,-0.15,0.0,t
2994.0,912.0,3250.0,3940.0,2153.0,1991.0,2276.0,1901.0,-2.31,9.51,5.24,0.03,-0.01,-0.15,0.0,t
3002.0,909.0,3245.0,3951.0,2155.0,1991.0,2269.0,1903.0,-2.17,9.5,5.05,0.03,0.0,-0.16,0.0,t
3003.0,903.0,3244.0,3970.0,2149.0,1991.0,2273.0,1903.0,-2.17,9.41,5.43,0.07,-0.03,-0.22,0.0,t
2994.0,912.0,3258.0,3969.0,2147.0,1999.0,2279.0,1910.0,-2.39,9.5,5.11,0.08,-0.02,-0.19,0.0,t
3001.0,917.0,3239.0,3982.0,2150.0,1966.0,2287.0,1906.0,-2.42,9.45,5.08,0.05,-0.01,-0.2,0.0,t
2999.0,906.0,3245.0,3962.0,2156.0,2001.0,2287.0,1904.0,-2.34,9.48,4.97,0.02,-0.03,-0.18,0.0,t
3015.0,899.0,3255.0,3980.0,2160.0,1994.0,2283.0,1911.0,-2.41,9.44,5.1,0.04,-0.08,-0.18,0.0,t
3019.0,903.0,3247.0,3997.0,2164.0,1997.0,2278.0,1905.0,-2.36,9.43,5.11,0.02,-0.08,-0.16,0.0,t
2997.0,907.0,3229.0,3984.0,2160.0,2001.0,2271.0,1902.0,-2.46,9.51,5.06,0.04,-0.01,-0.14,0.0,t
3009.0,912.0,3248.0,3983.0,2153.0,1997.0,2282.0,1904.0,-2.43,9.55,5.01,0.02,0.01,-0.13,0.0,t
3005.0,906.0,3242.0,4015.0,2160.0,1999.0,2269.0,1905.0,-2.58,9.53,5.0,0.01,0.04,-0.13,0.0,t
3008.0,909.0,3241.0,3951.0,2159.0,2004.0,2277.0,1905.0,-2.25,9.48,5.12,-0.01,0.0,-0.15,0.0,t
3001.0,915.0,3261.0,4016.0,2151.0,2000.0,2279.0,1909.0,-2.4,9.49,5.16,-0.0,-0.01,-0.17,0.0,t
2994.0,906.0,3235.0,3979.0,2165.0,1995.0,2289.0,1904.0,-2.36,9.49,5.07,0.02,-0.0,-0.15,0.0,t
3006.0,902.0,3247.0,3918.0,2163.0,2000.0,2281.0,1905.0,-2.35,9.47,5.08,0.0,-0.01,-0.15,0.0,t
2992.0,909.0,3229.0,3968.0,2163.0,2004.0,2289.0,1906.0,-2.34,9.43,5.02,0.01,-0.02,-0.16,0.0,t
2998.0,913.0,3233.0,3969.0,2151.0,2001.0,2279.0,1907.0,-2.31,9.43,5.17,0.01,-0.0,-0.13,0.0,t
3010.0,912.0,3232.0,4003.0,2161.0,1999.0,2289.0,1899.0,-2.32,9.49,5.06,0.02,-0.01,-0.16,0.0,t
3024.0,918.0,3246.0,4007.0,2167.0,1991.0,2295.0,1900.0,-2.38,9.44,5.12,0.01,0.02,-0.15,0.0,t
3011.0,906.0,3245.0,3965.0,2169.0,2000.0,2288.0,1903.0,-2.32,9.45,5.11,0.01,0.0,-0.14,0.0,t
2996.0,904.0,3238.0,3989.0,2160.0,1986.0,2275.0,1901.0,-2.43,9.45,5.15,0.03,-0.03,-0.15,0.0,t
3002.0,903.0,3222.0,3995.0,2159.0,2000.0,2287.0,1893.0,-2.45,9.43,5.1,0.02,0.0,-0.16,0.0,t
3005.0,903.0,3233.0,3963.0,2164.0,2000.0,2290.0,1903.0,-2.46,9.53,4.95,0.01,-0.0,-0.15,0.0,t
2999.0,901.0,3239.0,3982.0,2165.0,1989.0,2288.0,1900.0,-2.47,9.56,5.08,0.01,-0.02,-0.15,0.0,t
3030.0,943.0,3293.0,3321.0,2602.0,2246.0,2465.0,2032.0,-3.18,9.3,4.07,0.05,0.01,-0.17,0.0,t
3056.0,943.0,3306.0,3341.0,2589.0,2251.0,2467.0,2043.0,-3.12,9.29,4.01,0.03,-0.01,-0.17,0.0,t
3054.0,937.0,3282.0,3319.0,2593.0,2245.0,2480.0,2046.0,-3.22,9.3,3.86,0.02,-0.04,-0.17,0.0,t
3050.0,944.0,3302.0,3344.0,2591.0,2259.0,2459.0,2059.0,-3.04,9.3,3.97,0.04,-0.01,-0.16,0.0,t
3040.0,927.0,3293.0,3333.0,2559.0,2260.0,2470.0,2064.0,-3.22,9.27,3.99,0.01,0.0,-0.17,0.0,t
3051.0,934.0,3301.0,3323.0,2559.0,2249.0,2469.0,2055.0,-3.27,9.33,3.99,0.02,-0.02,-0.14,0.0,t
3024.0,929.0,3285.0,3339.0,2559.0,2270.0,2469.0,2043.0,-3.24,9.29,3.98,0.03,-0.04,-0.14,0.0,t
3054.0,935.0,3292.0,3335.0,2557.0,2255.0,2479.0,2043.0,-3.18,9.4,3.85,0.03,-0.02,-0.12,0.0,t
3041.0,925.0,3302.0,3333.0,2559.0,2256.0,2468.0,2056.0,-3.06,9.44,3.99,0.05,-0.01,-0.15,0.0,t
3057.0,944.0,3279.0,3329.0,2559.0,2262.0,2474.0,2046.0,-3.21,9.28,4.14,-0.01,-0.0,-0.17,0.0,t
3045.0,937.0,3292.0,3348.0,2544.0,2256.0,2464.0,2047.0,-3.06,9.25,3.94,-0.0,0.04,-0.12,0.0,t
3027.0,939.0,3299.0,3333.0,2543.0,2258.0,2464.0,2054.0,-3.26,9.28,4.02,0.03,0.04,-0.13,0.0,t
3035.0,923.0,3309.0,3335.0,2555.0,2273.0,2480.0,2061.0,-3.01,9.19,4.04,0.02,0.03,-0.15,0.0,t
3046.0,929.0,3297.0,3348.0,2559.0,2247.0,2469.0,2057.0,-3.05,9.3,3.94,0.05,0.03,-0.15,0.0,t
3038.0,924.0,3291.0,3361.0,2559.0,2240.0,2477.0,2064.0,-3.03,9.34,3.82,0.05,-0.0,-0.18,0.0,t
3047.0,930.0,3281.0,3344.0,2559.0,2267.0,2482.0,2064.0,-3.05,9.31,3.8,0.05,-0.01,-0.17,0.0,t
3040.0,937.0,3297.0,3344.0,2507.0,2239.0,2479.0,2059.0,-3.08,9.26,4.05,-0.03,-0.01,-0.14,0.0,t
3050.0,922.0,3287.0,3358.0,2509.0,2254.0,2494.0,2076.0,-3.01,9.33,3.74,0.05,0.04,-0.11,0.0,t
3024.0,926.0,3307.0,3358.0,2531.0,2253.0,2486.0,2067.0,-2.96,9.4,3.68,-0.0,0.06,-0.08,0.0,t
3027.0,935.0,3285.0,3365.0,2533.0,2247.0,2495.0,2068.0,-2.8,9.45,3.9,0.02,0.04,-0.06,0.0,t
3046.0,927.0,3303.0,3376.0,2535.0,2248.0,2485.0,2063.0,-2.64,9.53,3.6,0.07,-0.01,-0.12,0.0,t
3035.0,923.0,3306.0,3376.0,2542.0,2247.0,2487.0,2066.0,-2.69,9.42,3.56,0.03,-0.07,-0.23,0.0,t
3038.0,931.0,3285.0,3386.0,2525.0,2241.0,2480.0,2046.0,-3.11,9.56,3.31,-0.18,0.07,-0.11,0.0,t
3050.0,923.0,3312.0,3419.0,2401.0,2227.0,2477.0,2046.0,-2.86,9.4,4.01,-0.05,0.0,-0.08,0.0,t
3034.0,925.0,3297.0,3428.0,2457.0,2243.0,2474.0,2075.0,-2.71,9.43,3.93,0.0,-0.02,-0.1,0.0,t
3051.0,926.0,3280.0,3380.0,2528.0,2247.0,2480.0,2078.0,-2.64,9.57,3.68,0.1,-0.07,-0.21,0.0,t
3038.0,914.0,3282.0,3307.0,2508.0,2261.0,2477.0,2070.0,-2.91,9.52,3.76,0.02,-0.04,-0.14,0.0,t
3050.0,929.0,3302.0,3293.0,2528.0,2267.0,2480.0,2077.0,-2.71,9.44,3.96,0.03,-0.08,-0.16,0.0,t
3024.0,913.0,3309.0,3297.0,2554.0,2279.0,2486.0,2089.0,-2.91,9.4,3.8,0.02,-0.1,-0.18,0.0,t
3029.0,928.0,3294.0,3269.0,2559.0,2274.0,2491.0,2080.0,-2.93,9.4,4.04,0.0,-0.03,-0.17,0.0,t
3022.0,914.0,3295.0,3277.0,2583.0,2293.0,2484.0,2073.0,-2.99,9.39,3.97,0.0,0.05,-0.14,0.0,t
3035.0,921.0,3299.0,3307.0,2592.0,2288.0,2491.0,2071.0,-2.83,9.43,3.97,-0.03,0.0,-0.12,0.0,t
3027.0,934.0,3298.0,3402.0,2583.0,2289.0,2508.0,2094.0,-2.64,9.41,3.96,0.0,0.01,-0.14,0.0,t
3053.0,918.0,3280.0,3419.0,2559.0,2284.0,2512.0,2093.0,-2.85,9.39,3.92,0.06,0.07,-0.12,0.0,t
3026.0,929.0,3282.0,3397.0,2551.0,2289.0,2513.0,2105.0,-2.71,9.47,3.8,0.02,0.0,-0.11,0.0,t
3045.0,927.0,3301.0,3313.0,2541.0,2290.0,2501.0,2087.0,-2.93,9.54,3.81,-0.03,0.05,-0.09,0.0,t
3037.0,922.0,3275.0,3266.0,2559.0,2281.0,2508.0,2057.0,-2.4,9.39,3.85,0.01,0.03,-0.11,0.0,t
3043.0,930.0,3279.0,3282.0,2546.0,2286.0,2517.0,2100.0,-2.5,9.28,4.05,0.0,0.06,-0.15,0.0,t
3043.0,913.0,3297.0,3391.0,2559.0,2282.0,2510.0,2098.0,-2.48,9.14,4.06,-0.1,-0.1,-0.15,0.0,t
3025.0,931.0,3280.0,3376.0,2522.0,2293.0,2513.0,2097.0,-2.74,9.34,4.02,-0.02,0.06,-0.17,0.0,t
3037.0,923.0,3284.0,3397.0,2515.0,2289.0,2523.0,2113.0,-2.69,9.45,4.24,0.07,-0.01,-0.21,0.0,t
3045.0,3499.0,3287.0,3616.0,2479.0,2363.0,2754.0,2125.0,-2.04,9.74,3.95,0.06,-0.04,-0.17,0.0,t
3043.0,3495.0,3278.0,3641.0,2475.0,2352.0,2754.0,2127.0,-2.04,9.64,3.96,0.05,-0.05,-0.18,0.0,t
3040.0,3467.0,3259.0,3623.0,2485.0,2344.0,2768.0,2126.0,-2.17,9.59,4.01,0.03,-0.05,-0.17,0.0,t
3030.0,3469.0,3274.0,3605.0,2471.0,2368.0,2768.0,2129.0,-2.3,9.65,3.95,0.04,-0.08,-0.16,0.0,t
3038.0,3472.0,3265.0,3627.0,2469.0,2353.0,2754.0,2141.0,-2.15,9.49,4.06,0.02,-0.0,-0.19,0.0,t
3042.0,3484.0,3280.0,3621.0,2477.0,2361.0,2764.0,2130.0,-2.21,9.55,3.9,0.03,-0.03,-0.13,0.0,t
3041.0,3477.0,3281.0,3639.0,2480.0,2360.0,2755.0,2142.0,-2.09,9.63,3.97,0.02,0.05,-0.16,0.0,t
3049.0,3458.0,3270.0,3583.0,2470.0,2341.0,2749.0,2125.0,-2.29,9.53,3.97,0.02,-0.02,-0.14,0.0,t
3034.0,3481.0,3261.0,3602.0,2460.0,2358.0,2768.0,2129.0,-1.98,9.56,4.18,0.01,-0.01,-0.14,0.0,t
3041.0,3483.0,3264.0,3606.0,2463.0,2359.0,2767.0,2122.0,-2.14,9.7,3.74,0.05,-0.03,-0.15,0.0,t
3053.0,3477.0,3270.0,3623.0,2465.0,2354.0,2768.0,2126.0,-1.96,9.72,3.95,0.02,-0.03,-0.14,0.0,t
3027.0,3472.0,3259.0,3612.0,2461.0,2358.0,2749.0,2126.0,-2.07,9.49,4.28,0.06,-0.08,-0.18,0.0,t
3034.0,3490.0,3282.0,3562.0,2460.0,2352.0,2752.0,2130.0,-2.09,9.53,4.11,0.03,-0.06,-0.15,0.0,t
3030.0,3499.0,3266.0,3568.0,2448.0,2324.0,2768.0,2128.0,-2.26,9.58,3.91,0.1,-0.01,-0.13,0.0,t
3042.0,3486.0,3277.0,3599.0,2432.0,2345.0,2771.0,2129.0,-2.21,9.49,3.63,0.06,0.03,-0.13,0.0,t
3047.0,3477.0,3268.0,3567.0,2423.0,2335.0,2771.0,2145.0,-2.23,9.46,4.04,0.07,0.02,-0.16,0.0,t
3029.0,3498.0,3259.0,3583.0,2439.0,2341.0,2769.0,2144.0,-2.3,9.63,3.24,0.04,0.03,-0.11,0.0,t
3044.0,3472.0,3250.0,3583.0,2441.0,2320.0,2769.0,2146.0,-2.13,9.52,3.87,0.01,-0.03,-0.15,0.0,t
3044.0,3462.0,3264.0,3583.0,2434.0,2319.0,2767.0,2142.0,-2.1,9.58,3.61,0.02,-0.07,-0.12,0.0,t
3056.0,3459.0,3280.0,3599.0,2448.0,2323.0,2768.0,2142.0,-1.87,9.62,3.67,0.05,-0.04,-0.15,0.0,t
3022.0,3499.0,3270.0,3583.0,2421.0,2287.0,2791.0,2141.0,-2.17,9.62,3.61,0.02,-0.05,-0.12,0.0,t
3027.0,3493.0,3259.0,3566.0,2442.0,2320.0,2764.0,2138.0,-1.8,9.64,3.77,0.01,-0.01,-0.15,0.0,t
3056.0,3459.0,3264.0,3583.0,2432.0,2320.0,2762.0,2144.0,-2.06,9.55,3.85,0.04,-0.12,-0.15,0.0,t
3036.0,3483.0,3280.0,3565.0,2431.0,2315.0,2775.0,2152.0,-2.16,9.71,3.61,0.03,-0.01,-0.15,0.0,t
3039.0,3471.0,3275.0,3577.0,2431.0,2331.0,2791.0,2144.0,-2.15,9.57,3.66,0.02,0.05,-0.14,0.0,t
3032.0,3470.0,3255.0,3602.0,2437.0,2329.0,2772.0,2145.0,-1.98,9.6,3.56,0.02,-0.02,-0.17,0.0,t
3038.0,3482.0,3277.0,3577.0,2438.0,2342.0,2774.0,2160.0,-2.19,9.72,3.65,0.03,-0.02,-0.15,0.0,t
3031.0,3454.0,3264.0,3583.0,2443.0,2323.0,2793.0,2161.0,-2.1,9.41,3.67,0.08,-0.09,-0.19,0.0,t
3034.0,3494.0,3282.0,3597.0,2433.0,2328.0,2781.0,2159.0,-2.38,9.61,3.35,0.04,-0.03,-0.14,0.0,t
3039.0,3481.0,3263.0,3601.0,2448.0,2330.0,2783.0,2166.0,-1.82,9.69,3.52,0.02,-0.01,-0.13,0.0,t
3037.0,3474.0,3266.0,3583.0,2432.0,2327.0,2782.0,2158.0,-2.15,9.56,3.58,0.02,-0.03,-0.17,0.0,t
3047.0,3489.0,3266.0,3617.0,2448.0,2327.0,2789.0,2171.0,-2.13,9.58,3.47,-0.01,-0.06,-0.15,0.0,t
3027.0,3466.0,3269.0,3615.0,2451.0,2337.0,2794.0,2160.0,-2.16,9.48,3.9,0.03,-0.04,-0.17,0.0,t
3035.0,3457.0,3266.0,3583.0,2442.0,2349.0,2800.0,2159.0,-2.04,9.62,3.68,0.04,-0.06,-0.17,0.0,t
3030.0,3499.0,3262.0,3615.0,2438.0,2334.0,2801.0,2160.0,-2.11,9.49,3.6,0.0,-0.04,-0.2,0.0,t
3049.0,3461.0,3261.0,3622.0,2457.0,2336.0,2798.0,2159.0,-2.39,9.53,3.86,-0.02,-0.0,-0.2,0.0,t
3021.0,3472.0,3273.0,3633.0,2442.0,2352.0,2801.0,2160.0,-2.27,9.56,3.45,0.04,0.02,-0.14,0.0,t
3037.0,3482.0,3271.0,3606.0,2468.0,2350.0,2783.0,2176.0,-2.04,9.61,3.6,0.04,-0.1,-0.18,0.0,t
3023.0,3466.0,3277.0,3635.0,2480.0,2369.0,2800.0,2160.0,-2.43,9.48,3.27,0.03,-0.06,-0.11,0.0,t
3031.0,3466.0,3275.0,3660.0,2480.0,2370.0,2785.0,2174.0,-2.46,9.49,3.61,-0.01,0.03,-0.12,0.0,t
3045.0,3488.0,3279.0,3670.0,2479.0,2355.0,2796.0,2179.0,-2.25,9.61,3.53,0.02,-0.0,-0.12,0.0,t
3053.0,951.0,3149.0,3758.0,2271.0,2478.0,2506.0,2042.0,-2.04,9.66,4.2,0.01,0.05,-0.16,0.0,t
3056.0,950.0,3139.0,3738.0,2263.0,2478.0,2499.0,2043.0,-2.19,9.68,4.36,0.01,0.02,-0.14,0.0,t
3056.0,951.0,3152.0,3745.0,2279.0,2478.0,2525.0,2041.0,-2.09,9.7,4.22,0.03,0.07,-0.13,0.0,t
3056.0,948.0,3155.0,3760.0,2283.0,2483.0,2512.0,2055.0,-2.2,9.7,4.2,0.01,0.03,-0.14,0.0,t
3044.0,939.0,3136.0,3743.0,2282.0,2480.0,2517.0,2047.0,-2.11,9.6,4.3,0.01,0.04,-0.13,0.0,t
3066.0,946.0,3151.0,3757.0,2279.0,2479.0,2503.0,2059.0,-2.05,9.6,4.26,-0.0,-0.05,-0.13,0.0,t
3054.0,951.0,3143.0,3731.0,2274.0,2461.0,2512.0,2047.0,-2.0,9.78,4.22,0.0,-0.01,-0.12,0.0,t
3069.0,955.0,3127.0,3775.0,2276.0,2483.0,2498.0,2064.0,-2.06,9.62,4.32,0.02,-0.01,-0.14,0.0,t
3055.0,960.0,3142.0,3755.0,2272.0,2482.0,2507.0,2055.0,-2.03,9.58,4.42,0.02,0.02,-0.15,0.0,t
3047.0,939.0,3121.0,3734.0,2271.0,2480.0,2509.0,2063.0,-2.15,9.64,4.19,0.04,-0.02,-0.14,0.0,t
3065.0,964.0,3141.0,3762.0,2283.0,2452.0,2514.0,2058.0,-1.89,9.65,4.23,0.01,-0.03,-0.13,0.0,t
3055.0,955.0,3138.0,3754.0,2278.0,2480.0,2517.0,2063.0,-1.99,9.78,4.21,0.03,0.03,-0.14,0.0,t
3050.0,944.0,3139.0,3747.0,2285.0,2478.0,2517.0,2064.0,-1.99,9.64,4.25,0.03,0.06,-0.16,0.0,t
3056.0,972.0,3125.0,3761.0,2281.0,2465.0,2514.0,2058.0,-2.0,9.68,4.3,0.01,-0.04,-0.17,0.0,t
3063.0,959.0,3141.0,3766.0,2279.0,2465.0,2522.0,2064.0,-2.01,9.65,4.22,-0.01,0.0,-0.14,0.0,t
3063.0,943.0,3133.0,3730.0,2272.0,2474.0,2512.0,2064.0,-2.14,9.67,4.4,-0.02,0.04,-0.14,0.0,t
3057.0,937.0,3135.0,3763.0,2289.0,2469.0,2514.0,2064.0,-2.09,9.63,4.2,0.03,0.09,-0.12,0.0,t
3058.0,939.0,3124.0,3729.0,2287.0,2471.0,2524.0,2063.0,-1.97,9.67,4.27,-0.01,-0.06,-0.12,0.0,t
3066.0,955.0,3152.0,3763.0,2276.0,2478.0,2509.0,2064.0,-2.06,9.66,4.37,0.03,0.03,-0.16,0.0,t
3053.0,954.0,3145.0,3751.0,2289.0,2483.0,2519.0,2074.0,-2.06,9.59,4.39,-0.0,0.02,-0.16,0.0,t
3040.0,939.0,3152.0,3759.0,2285.0,2483.0,2524.0,2064.0,-1.92,9.61,4.19,-0.01,-0.02,-0.16,0.0,t
3039.0,941.0,3127.0,3760.0,2282.0,2477.0,2529.0,2065.0,-2.32,9.6,4.54,0.0,0.02,-0.15,0.0,t
3045.0,950.0,3133.0,3747.0,2279.0,2480.0,2517.0,2067.0,-1.99,9.58,4.27,0.02,-0.01,-0.15,0.0,t
3049.0,943.0,3133.0,3762.0,2292.0,2466.0,2525.0,2064.0,-2.1,9.57,4.35,0.03,-0.0,-0.13,0.0,t
3059.0,941.0,3129.0,3761.0,2273.0,2479.0,2528.0,2064.0,-1.79,9.75,4.26,0.02,-0.02,-0.1,0.0,t
3052.0,955.0,3136.0,3749.0,2269.0,2461.0,2514.0,2064.0,-1.88,9.71,4.35,0.02,-0.01,-0.18,0.0,t
3052.0,941.0,3150.0,3735.0,2264.0,2470.0,2518.0,2080.0,-1.8,9.54,4.4,0.03,-0.02,-0.16,0.0,t
3058.0,950.0,3146.0,3743.0,2268.0,2473.0,2523.0,2073.0,-2.09,9.57,4.45,0.03,-0.01,-0.14,0.0,t
3054.0,944.0,3136.0,3767.0,2263.0,2478.0,2507.0,2065.0,-1.85,9.66,4.33,0.02,-0.04,-0.14,0.0,t
3056.0,944.0,3146.0,3774.0,2267.0,2480.0,2530.0,2076.0,-2.07,9.64,4.2,0.03,0.02,-0.16,0.0,t
3045.0,944.0,3131.0,3775.0,2274.0,2479.0,2523.0,2081.0,-2.02,9.54,4.47,0.01,0.01,-0.15,0.0,t
3059.0,944.0,3135.0,3783.0,2260.0,2480.0,2519.0,2080.0,-2.15,9.61,4.19,0.03,-0.02,-0.15,0.0,t
3043.0,946.0,3138.0,3771.0,2252.0,2475.0,2535.0,2071.0,-1.92,9.58,4.3,0.02,-0.04,-0.12,0.0,t
3069.0,950.0,3132.0,3803.0,2269.0,2480.0,2519.0,2089.0,-2.0,9.58,4.23,0.0,-0.04,-0.14,0.0,t
3056.0,947.0,3133.0,3777.0,2282.0,2480.0,2541.0,2084.0,-2.0,9.73,4.17,0.0,-0.06,-0.13,0.0,t
3055.0,944.0,3133.0,3777.0,2263.0,2475.0,2544.0,2081.0,-1.61,9.63,4.85,0.02,-0.14,-0.22,0.0,t
3057.0,955.0,3138.0,3818.0,2265.0,2460.0,2522.0,2087.0,-2.21,9.6,3.96,0.07,0.02,-0.17,0.0,t
3047.0,949.0,3127.0,3785.0,2278.0,2478.0,2538.0,2089.0,-2.03,9.64,4.38,-0.02,-0.03,-0.13,0.0,t
3055.0,951.0,3142.0,3792.0,2284.0,2480.0,2525.0,2080.0,-2.12,9.64,4.09,0.04,-0.03,-0.15,0.0,t
3047.0,944.0,3152.0,3783.0,2285.0,2473.0,2525.0,2079.0,-2.16,9.75,4.18,-0.02,0.01,-0.13,0.0,t
3050.0,940.0,3137.0,3787.0,2288.0,2479.0,2531.0,2075.0,-1.98,9.65,4.32,0.03,0.06,-0.16,0.0,t
