hall_1,hall_2,hall_3,flex_t,flex_i,flex_m,flex_r,flex_p,accel_x,accel_y,accel_z,gyro_x,gyro_y,gyro_z,hand,sign
2918.0,3153.0,3017.0,4095.0,3954.0,3297.0,3474.0,3575.0,0.72,9.02,4.31,-0.21,-0.26,-0.3,1.0,t
2914.0,3159.0,3024.0,4095.0,3953.0,3307.0,3484.0,3583.0,0.58,9.08,4.5,-0.13,-0.16,-0.36,1.0,t
2922.0,3163.0,3024.0,4095.0,3948.0,3300.0,3481.0,3574.0,-0.06,9.2,4.38,-0.12,0.03,-0.34,1.0,t
2928.0,3152.0,3013.0,4095.0,3943.0,3303.0,3490.0,3583.0,-0.22,9.27,4.37,-0.14,-0.15,-0.34,1.0,t
2918.0,3151.0,3024.0,4095.0,3954.0,3312.0,3494.0,3583.0,-0.11,9.41,4.4,-0.21,-0.06,-0.33,1.0,t
2928.0,3156.0,3027.0,4095.0,3963.0,3313.0,3497.0,3583.0,-0.41,9.24,4.53,-0.2,-0.21,-0.33,1.0,t
2921.0,3152.0,3024.0,4095.0,3957.0,3311.0,3491.0,3583.0,-0.05,8.89,5.09,-0.21,-0.26,-0.42,1.0,t
2923.0,3163.0,3014.0,4095.0,3967.0,3314.0,3499.0,3583.0,-0.73,9.03,4.95,-0.02,-0.1,-0.47,1.0,t
2928.0,3153.0,3023.0,4095.0,3957.0,3307.0,3490.0,3583.0,-0.99,8.8,4.74,-0.01,-0.13,-0.44,1.0,t
2926.0,3152.0,3019.0,4095.0,3985.0,3318.0,3499.0,3596.0,-1.61,8.84,4.36,-0.05,-0.06,-0.31,1.0,t
2928.0,3152.0,3019.0,4095.0,3984.0,3314.0,3498.0,3583.0,-1.26,9.02,4.23,-0.12,-0.3,-0.36,1.0,t
2918.0,3153.0,3024.0,4095.0,3984.0,3314.0,3504.0,3599.0,-1.52,9.07,4.15,-0.21,-0.04,-0.25,1.0,t
2928.0,3146.0,3023.0,4095.0,3984.0,3312.0,3501.0,3599.0,-1.66,8.68,4.44,-0.2,-0.01,-0.25,1.0,t
2928.0,3154.0,3019.0,4095.0,3982.0,3317.0,3502.0,3583.0,-1.81,8.88,4.36,-0.28,0.16,-0.14,1.0,t
2933.0,3153.0,3024.0,4095.0,3991.0,3314.0,3502.0,3583.0,-1.81,9.06,4.73,-0.34,0.09,-0.11,1.0,t
2927.0,3151.0,3024.0,4095.0,4003.0,3317.0,3495.0,3600.0,-1.99,9.36,4.98,-0.34,0.16,-0.0,1.0,t
2933.0,3150.0,3019.0,4095.0,3996.0,3326.0,3507.0,3583.0,-1.95,9.05,5.12,-0.31,0.23,0.0,1.0,t
2933.0,3157.0,3023.0,4095.0,4002.0,3319.0,3511.0,3609.0,-1.83,8.69,5.2,-0.27,0.25,0.09,1.0,t
2929.0,3152.0,3014.0,4095.0,4005.0,3317.0,3499.0,3583.0,-1.73,8.34,5.2,-0.33,0.15,0.13,1.0,t
2931.0,3149.0,3029.0,4095.0,4003.0,3326.0,3506.0,3600.0,-1.58,8.05,5.51,-0.32,0.24,0.13,1.0,t
2926.0,3152.0,3021.0,4095.0,3990.0,3318.0,3505.0,3600.0,-1.64,7.92,5.84,-0.3,0.19,0.12,1.0,t
2926.0,3158.0,3025.0,4095.0,4011.0,3322.0,3507.0,3600.0,-1.69,7.76,5.95,-0.28,0.19,0.14,1.0,t
2921.0,3147.0,3026.0,4095.0,4013.0,3319.0,3504.0,3600.0,-1.61,7.97,5.97,-0.24,0.19,0.19,1.0,t
2935.0,3165.0,3024.0,4095.0,4010.0,3325.0,3508.0,3611.0,-1.75,8.43,5.68,-0.19,0.26,0.24,1.0,t
2925.0,3153.0,3015.0,4095.0,3997.0,3317.0,3504.0,3600.0,-1.77,8.34,5.72,-0.2,0.29,0.32,1.0,t
2933.0,3166.0,3027.0,4095.0,4003.0,3328.0,3510.0,3583.0,-1.21,8.06,6.39,-0.15,0.21,0.3,1.0,t
2931.0,3162.0,3022.0,4095.0,4009.0,3325.0,3502.0,3583.0,-0.99,7.84,6.35,-0.08,0.2,0.29,1.0,t
2935.0,3155.0,3031.0,4095.0,4006.0,3323.0,3503.0,3597.0,-0.99,7.94,6.21,-0.04,0.19,0.3,1.0,t
2925.0,3155.0,3024.0,4095.0,4009.0,3330.0,3515.0,3600.0,-0.9,7.76,6.28,-0.03,0.15,0.29,1.0,t
2919.0,3159.0,3022.0,4095.0,4007.0,3325.0,3506.0,3608.0,-0.78,7.78,6.21,-0.03,0.06,0.32,1.0,t
2933.0,3155.0,3024.0,4095.0,4022.0,3325.0,3506.0,3600.0,-0.13,7.87,6.3,0.05,-0.06,0.22,1.0,t
2922.0,3154.0,3022.0,4095.0,4017.0,3323.0,3501.0,3603.0,0.01,7.85,6.52,0.12,-0.11,0.14,1.0,t
2940.0,3152.0,3023.0,4095.0,4012.0,3331.0,3511.0,3609.0,0.13,8.1,6.36,0.2,-0.13,0.05,1.0,t
2928.0,3141.0,3019.0,4095.0,4010.0,3328.0,3517.0,3614.0,-0.08,8.34,5.84,0.25,-0.02,0.04,1.0,t
2933.0,3167.0,3030.0,4095.0,4030.0,3329.0,3509.0,3605.0,-0.24,8.45,5.63,0.25,-0.19,-0.01,1.0,t
2927.0,3149.0,3029.0,4095.0,4013.0,3327.0,3513.0,3613.0,-0.16,8.41,5.5,0.22,-0.27,-0.05,1.0,t
2931.0,3157.0,3021.0,4095.0,4019.0,3330.0,3504.0,3605.0,-0.14,8.59,5.19,0.23,-0.26,-0.02,1.0,t
2926.0,3151.0,3024.0,4095.0,4015.0,3327.0,3502.0,3613.0,0.13,8.78,4.93,0.23,-0.29,-0.06,1.0,t
2928.0,3147.0,3010.0,4095.0,4011.0,3328.0,3511.0,3607.0,0.28,8.71,4.88,0.2,-0.29,-0.11,1.0,t
2927.0,3165.0,3024.0,4095.0,4031.0,3331.0,3504.0,3600.0,0.45,8.76,4.94,0.27,-0.31,-0.3,1.0,t
2928.0,3153.0,3021.0,4095.0,4023.0,3333.0,3505.0,3601.0,-0.24,9.27,4.24,0.32,-0.14,-0.33,1.0,t
2922.0,3155.0,3018.0,4095.0,4019.0,3330.0,3510.0,3610.0,-0.92,9.29,4.13,0.22,-0.2,-0.29,1.0,t
2928.0,3157.0,3024.0,4095.0,4027.0,3330.0,3506.0,3607.0,-0.82,9.3,4.16,0.18,-0.25,-0.21,1.0,t
2928.0,3152.0,3023.0,4095.0,4028.0,3331.0,3510.0,3606.0,-1.04,9.24,4.04,0.11,-0.24,-0.11,1.0,t
2928.0,3167.0,3031.0,4095.0,4018.0,3329.0,3507.0,3610.0,-0.21,9.15,4.19,0.11,-0.48,-0.21,1.0,t
2927.0,3150.0,3018.0,4095.0,4029.0,3331.0,3511.0,3610.0,-0.44,9.07,3.92,0.08,-0.06,-0.03,1.0,t
2934.0,3155.0,3023.0,4095.0,4033.0,3338.0,3505.0,3605.0,-0.61,9.02,4.12,0.03,-0.04,0.04,1.0,t
2935.0,3153.0,3025.0,4095.0,4019.0,3327.0,3504.0,3606.0,-0.09,9.17,4.15,0.09,-0.18,-0.06,1.0,t
2919.0,3146.0,3024.0,4095.0,4018.0,3333.0,3505.0,3598.0,0.04,9.36,4.16,0.14,-0.07,-0.03,1.0,t
2919.0,3165.0,3021.0,4065.0,4014.0,3329.0,3511.0,3603.0,0.02,9.6,3.84,0.2,-0.12,-0.12,1.0,t
2922.0,3143.0,3020.0,3995.0,3987.0,3329.0,3514.0,3615.0,-0.41,9.71,3.32,0.17,-0.32,-0.09,1.0,t
2926.0,3163.0,3014.0,4000.0,3991.0,3328.0,3513.0,3610.0,-0.26,9.47,3.47,0.21,-0.17,-0.08,1.0,t
2929.0,3158.0,3019.0,4016.0,4009.0,3331.0,3514.0,3616.0,-0.74,9.62,2.91,0.13,0.11,0.11,1.0,t
2931.0,3154.0,3024.0,4028.0,4010.0,3334.0,3516.0,3603.0,-0.46,9.68,2.83,0.05,-0.11,0.15,1.0,t
2929.0,3152.0,3023.0,4018.0,4007.0,3338.0,3504.0,3600.0,-0.17,9.72,2.74,-0.04,0.06,0.26,1.0,t
2926.0,3154.0,3022.0,4021.0,4016.0,3341.0,3511.0,3608.0,0.31,9.67,2.94,-0.12,0.05,0.26,1.0,t
2939.0,3161.0,3020.0,4032.0,4015.0,3329.0,3501.0,3603.0,0.93,9.76,2.99,-0.13,0.08,0.2,1.0,t
2931.0,3149.0,3022.0,4048.0,4011.0,3334.0,3495.0,3598.0,1.87,9.74,3.35,-0.14,-0.02,-0.03,1.0,t
2926.0,3163.0,3024.0,4038.0,4010.0,3329.0,3503.0,3599.0,1.4,10.11,2.72,-0.09,0.27,-0.22,1.0,t
2935.0,3152.0,3024.0,4037.0,4025.0,3337.0,3505.0,3606.0,0.0,9.98,2.42,-0.22,0.39,-0.19,1.0,t
2930.0,3159.0,3024.0,4036.0,4018.0,3335.0,3507.0,3598.0,-0.22,9.51,3.04,-0.41,0.19,-0.19,1.0,t
2933.0,3152.0,3026.0,4039.0,4020.0,3339.0,3508.0,3600.0,-0.13,9.12,3.85,-0.41,0.23,-0.1,1.0,t
2934.0,3166.0,3024.0,4044.0,4027.0,3331.0,3506.0,3601.0,-0.13,9.06,4.2,-0.41,0.22,-0.15,1.0,t
2928.0,3163.0,3022.0,4046.0,4017.0,3333.0,3509.0,3600.0,-0.3,9.13,4.13,-0.38,0.21,-0.12,1.0,t
2930.0,3158.0,3024.0,4048.0,4002.0,3329.0,3504.0,3607.0,-0.61,9.1,4.35,-0.43,0.15,-0.07,1.0,t
2935.0,3147.0,3015.0,4037.0,4018.0,3339.0,3503.0,3605.0,-0.6,9.02,4.73,-0.39,0.19,-0.04,1.0,t
2928.0,3151.0,3026.0,4043.0,4020.0,3335.0,3511.0,3615.0,-0.49,9.02,4.7,-0.35,0.18,0.01,1.0,t
2931.0,3157.0,3022.0,4055.0,4025.0,3331.0,3504.0,3603.0,-0.19,8.94,4.94,-0.34,0.11,0.0,1.0,t
2928.0,3152.0,3020.0,4054.0,4005.0,3335.0,3504.0,3606.0,-0.38,8.88,5.1,-0.3,0.16,-0.01,1.0,t
2925.0,3142.0,3021.0,4044.0,4013.0,3333.0,3503.0,3611.0,-0.65,8.77,5.23,-0.26,0.12,0.04,1.0,t
2915.0,3152.0,3021.0,4050.0,4027.0,3341.0,3519.0,3618.0,-0.61,8.73,5.22,-0.24,0.1,0.06,1.0,t
2928.0,3154.0,3024.0,4048.0,4022.0,3340.0,3516.0,3615.0,-0.56,8.79,5.05,-0.22,0.09,0.1,1.0,t
2928.0,3152.0,3020.0,4059.0,4008.0,3335.0,3505.0,3615.0,-0.26,8.72,5.26,-0.22,0.07,0.11,1.0,t
2929.0,3154.0,3026.0,4065.0,4025.0,3338.0,3517.0,3619.0,-0.04,8.77,5.2,-0.19,0.11,0.08,1.0,t
2929.0,3155.0,3022.0,4071.0,4018.0,3342.0,3513.0,3619.0,0.14,8.61,5.45,-0.18,0.07,0.01,1.0,t
2927.0,3167.0,3022.0,4092.0,4023.0,3344.0,3504.0,3607.0,0.07,8.6,5.59,-0.14,0.1,-0.04,1.0,t
2941.0,3168.0,3021.0,4087.0,4033.0,3339.0,3505.0,3607.0,-0.44,8.58,5.46,-0.12,0.12,-0.05,1.0,t
2928.0,3167.0,3024.0,4086.0,4030.0,3344.0,3517.0,3613.0,-0.58,8.59,5.29,-0.14,0.12,-0.02,1.0,t
2926.0,3152.0,3023.0,4078.0,4034.0,3344.0,3509.0,3614.0,-0.42,8.46,5.51,-0.14,0.07,0.01,1.0,t
2917.0,3153.0,3019.0,4081.0,4043.0,3339.0,3507.0,3613.0,-0.3,8.55,5.42,-0.15,0.09,0.02,1.0,t
2923.0,3152.0,3012.0,4082.0,4055.0,3341.0,3509.0,3607.0,-0.31,8.57,5.35,-0.18,0.1,-0.0,1.0,t
2932.0,3165.0,3026.0,4095.0,4079.0,3343.0,3520.0,3606.0,-0.43,8.6,5.23,-0.23,0.12,0.02,1.0,t
2927.0,3158.0,3020.0,4089.0,4067.0,3344.0,3517.0,3616.0,-0.17,8.47,5.54,-0.25,0.07,0.01,1.0,t
2934.0,3169.0,3027.0,4095.0,4077.0,3339.0,3502.0,3606.0,-0.03,8.37,5.86,-0.28,0.08,-0.01,1.0,t
2922.0,3165.0,3011.0,4077.0,4057.0,3339.0,3506.0,3612.0,-0.21,8.28,5.9,-0.26,0.12,-0.02,1.0,t
2933.0,3165.0,3029.0,4091.0,4077.0,3344.0,3513.0,3617.0,-0.3,8.28,5.83,-0.23,0.15,-0.04,1.0,t
2935.0,3159.0,3020.0,4087.0,4079.0,3345.0,3506.0,3607.0,-0.36,8.16,5.98,-0.25,0.12,-0.06,1.0,t
2927.0,3158.0,3025.0,4095.0,4077.0,3344.0,3516.0,3605.0,-0.52,8.09,6.02,-0.23,0.11,-0.02,1.0,t
2923.0,3152.0,3030.0,4080.0,4075.0,3346.0,3511.0,3615.0,-0.68,8.11,6.06,-0.23,0.13,-0.04,1.0,t
2928.0,3143.0,3024.0,4078.0,4069.0,3344.0,3505.0,3612.0,-0.8,7.92,6.2,-0.27,0.03,-0.03,1.0,t
2929.0,3152.0,3019.0,4095.0,4080.0,3340.0,3504.0,3603.0,-0.77,7.68,6.45,-0.2,0.08,0.03,1.0,t
2916.0,3152.0,3024.0,4095.0,4086.0,3321.0,3487.0,3597.0,-0.7,7.8,6.69,-0.32,0.0,0.06,1.0,t
2931.0,3152.0,3026.0,4095.0,4085.0,3306.0,3473.0,3555.0,-0.52,7.95,6.81,-0.26,0.09,0.07,1.0,t
2935.0,3152.0,3032.0,4095.0,4082.0,3302.0,3456.0,3536.0,-0.69,7.62,6.97,-0.14,0.14,0.06,1.0,t
2917.0,3141.0,3029.0,4095.0,4095.0,3310.0,3445.0,3531.0,-0.38,7.7,6.6,-0.08,0.09,0.08,1.0,t
2927.0,3152.0,3025.0,4095.0,4095.0,3323.0,3455.0,3527.0,-0.44,7.9,6.43,-0.14,0.04,0.08,1.0,t
2929.0,3156.0,3026.0,4095.0,4095.0,3330.0,3455.0,3538.0,-0.7,7.81,6.59,-0.04,-0.06,0.03,1.0,t
2917.0,3148.0,3023.0,4095.0,4095.0,3339.0,3455.0,3527.0,-0.3,7.48,6.83,-0.03,-0.12,0.08,1.0,t
2918.0,3158.0,3024.0,4095.0,4095.0,3328.0,3451.0,3517.0,0.09,7.93,6.4,-0.01,0.04,0.07,1.0,t
2915.0,3155.0,3024.0,4095.0,4095.0,3326.0,3451.0,3514.0,-0.48,7.56,6.5,-0.1,0.33,0.17,1.0,t
2927.0,3155.0,3019.0,4095.0,4095.0,3321.0,3445.0,3515.0,-0.86,7.99,6.16,-0.0,0.3,0.24,1.0,t
2922.0,3143.0,3024.0,4095.0,4095.0,3315.0,3440.0,3515.0,-0.51,7.63,6.61,-0.05,0.16,0.17,1.0,t
2924.0,3146.0,3019.0,4095.0,4095.0,3306.0,3442.0,3519.0,-0.13,7.97,6.57,0.05,0.22,0.21,1.0,t
2924.0,3146.0,3024.0,4095.0,4095.0,3303.0,3447.0,3521.0,0.01,7.8,6.64,0.01,0.08,0.13,1.0,t
2926.0,3143.0,3031.0,4095.0,4095.0,3307.0,3441.0,3520.0,-0.2,7.99,6.32,0.09,0.09,0.14,1.0,t
2918.0,3152.0,3020.0,4095.0,4095.0,3312.0,3446.0,3521.0,-0.44,7.9,6.35,0.04,-0.06,0.15,1.0,t
2919.0,3145.0,3021.0,4095.0,4095.0,3319.0,3435.0,3502.0,-0.05,7.76,6.47,-0.08,-0.14,0.15,1.0,t
2917.0,3133.0,3038.0,4095.0,4095.0,3312.0,3436.0,3504.0,0.33,7.86,6.52,0.05,-0.04,0.15,1.0,t
2921.0,3148.0,3033.0,4095.0,4095.0,3327.0,3443.0,3508.0,0.28,7.98,6.4,0.11,-0.11,0.11,1.0,t
2913.0,3135.0,3024.0,4095.0,4095.0,3323.0,3440.0,3510.0,0.53,8.2,6.08,-0.04,-0.1,0.08,1.0,t
2923.0,3139.0,3025.0,4095.0,4095.0,3334.0,3451.0,3521.0,0.45,8.25,6.04,0.07,-0.07,0.12,1.0,t
2925.0,3142.0,3031.0,4095.0,4095.0,3326.0,3441.0,3515.0,0.29,8.07,6.09,-0.09,-0.02,0.13,1.0,t
2923.0,3152.0,3027.0,4095.0,4095.0,3335.0,3453.0,3520.0,0.3,7.98,6.39,0.05,-0.0,0.2,1.0,t
2922.0,3135.0,3025.0,4095.0,4095.0,3333.0,3454.0,3525.0,0.18,7.99,6.51,-0.03,0.08,0.29,1.0,t
2921.0,3135.0,3022.0,4095.0,4095.0,3339.0,3444.0,3523.0,0.9,8.3,6.35,0.18,-0.07,0.27,1.0,t
2918.0,3150.0,3023.0,4095.0,4095.0,3340.0,3454.0,3525.0,1.51,8.46,5.9,0.14,-0.04,0.21,1.0,t
2915.0,3141.0,3024.0,4095.0,4095.0,3344.0,3455.0,3520.0,1.82,8.36,5.84,0.31,0.03,0.09,1.0,t
2915.0,3138.0,3012.0,4095.0,4095.0,3339.0,3458.0,3534.0,1.65,8.39,5.52,0.23,0.17,0.02,1.0,t
2914.0,3140.0,3024.0,4095.0,4095.0,3343.0,3463.0,3532.0,1.55,8.43,5.34,0.14,0.15,-0.02,1.0,t
2919.0,3148.0,3031.0,4095.0,4095.0,3337.0,3470.0,3530.0,0.89,8.3,5.32,0.05,0.1,-0.01,1.0,t
2914.0,3139.0,3028.0,4095.0,4095.0,3344.0,3471.0,3529.0,0.68,8.64,5.17,0.01,0.01,-0.01,1.0,t
2913.0,3133.0,3025.0,4095.0,4095.0,3344.0,3472.0,3534.0,0.36,8.52,5.42,-0.05,-0.07,0.06,1.0,t
2919.0,3146.0,3021.0,4095.0,4095.0,3344.0,3462.0,3527.0,1.14,8.5,5.65,0.0,-0.1,0.06,1.0,t
2927.0,3139.0,3030.0,4095.0,4095.0,3347.0,3481.0,3529.0,1.39,8.37,5.78,0.05,-0.07,0.03,1.0,t
2917.0,3141.0,3026.0,4095.0,4095.0,3347.0,3473.0,3524.0,1.65,8.5,5.67,0.04,-0.2,-0.09,1.0,t
2911.0,3142.0,3027.0,4095.0,4095.0,3344.0,3472.0,3533.0,1.59,8.62,5.59,0.23,-0.07,-0.08,1.0,t
2913.0,3139.0,3025.0,4095.0,4095.0,3347.0,3472.0,3536.0,1.09,8.78,5.2,0.14,-0.13,-0.1,1.0,t
2925.0,3126.0,3011.0,4095.0,4095.0,3334.0,3474.0,3543.0,0.85,8.77,5.08,0.14,-0.22,-0.05,1.0,t
2925.0,3143.0,3024.0,4095.0,4095.0,3337.0,3467.0,3536.0,0.8,8.88,4.74,0.12,-0.14,0.04,1.0,t
2917.0,3144.0,3031.0,4055.0,4095.0,3346.0,3472.0,3543.0,1.32,8.57,4.7,0.14,-0.09,0.11,1.0,t
2925.0,3152.0,3013.0,4047.0,4095.0,3344.0,3463.0,3534.0,1.92,9.08,4.42,-0.04,-0.16,0.06,1.0,t
2915.0,3133.0,3025.0,4066.0,4095.0,3346.0,3469.0,3536.0,2.1,9.01,4.58,0.07,-0.03,0.03,1.0,t
2927.0,3121.0,3026.0,4034.0,4095.0,3344.0,3474.0,3536.0,1.95,9.01,4.48,-0.02,-0.03,-0.07,1.0,t
2926.0,3137.0,3024.0,3989.0,4095.0,3344.0,3469.0,3543.0,1.82,8.95,4.58,-0.01,-0.01,-0.13,1.0,t
2914.0,3146.0,3027.0,3949.0,4095.0,3344.0,3469.0,3546.0,1.53,8.99,4.46,-0.07,-0.04,-0.15,1.0,t
2921.0,3134.0,3027.0,3955.0,4095.0,3350.0,3474.0,3543.0,1.3,8.92,4.44,-0.08,-0.01,-0.15,1.0,t
2924.0,3141.0,3024.0,3965.0,4095.0,3350.0,3479.0,3542.0,1.22,8.96,4.71,-0.14,-0.05,-0.14,1.0,t
2923.0,3147.0,3027.0,3950.0,4095.0,3349.0,3471.0,3541.0,1.93,8.9,5.09,-0.03,-0.05,-0.16,1.0,t
2918.0,3140.0,3024.0,3931.0,4095.0,3358.0,3478.0,3543.0,2.04,9.01,4.75,-0.02,-0.12,-0.26,1.0,t
2928.0,3137.0,3024.0,3904.0,4095.0,3360.0,3474.0,3540.0,1.83,8.98,4.59,0.04,-0.11,-0.34,1.0,t
2915.0,3141.0,3027.0,3898.0,4095.0,3354.0,3476.0,3549.0,1.12,9.06,4.33,-0.04,-0.12,-0.35,1.0,t
2915.0,3133.0,3024.0,3890.0,4095.0,3351.0,3475.0,3539.0,1.23,9.05,4.52,-0.0,-0.19,-0.41,1.0,t
2927.0,3142.0,3024.0,3887.0,4095.0,3345.0,3472.0,3537.0,1.1,9.14,4.4,-0.01,-0.05,-0.42,1.0,t
2928.0,3135.0,3026.0,3856.0,4095.0,3350.0,3471.0,3536.0,0.55,9.04,4.29,-0.04,0.02,-0.42,1.0,t
2929.0,3136.0,3029.0,3865.0,4095.0,3359.0,3478.0,3546.0,0.11,9.22,4.01,-0.08,-0.07,-0.43,1.0,t
2928.0,3148.0,3027.0,3869.0,4095.0,3355.0,3476.0,3549.0,-0.02,9.16,4.23,-0.23,-0.07,-0.29,1.0,t
2915.0,3137.0,3017.0,3853.0,4083.0,3347.0,3472.0,3543.0,0.27,9.06,4.58,-0.26,-0.15,-0.2,1.0,t
2918.0,3139.0,3024.0,3865.0,4080.0,3350.0,3477.0,3551.0,0.33,9.02,4.7,-0.29,-0.12,-0.25,1.0,t
2923.0,3131.0,3024.0,3853.0,4081.0,3354.0,3483.0,3546.0,0.53,8.99,4.86,-0.21,-0.12,-0.27,1.0,t
2917.0,3138.0,3019.0,3819.0,4074.0,3348.0,3474.0,3539.0,0.38,8.78,5.21,-0.15,-0.05,-0.33,1.0,t
2925.0,3141.0,3031.0,3824.0,4080.0,3354.0,3486.0,3551.0,0.03,8.82,4.99,-0.15,-0.01,-0.36,1.0,t
2928.0,3138.0,3025.0,3866.0,4079.0,3357.0,3485.0,3549.0,0.24,8.8,5.21,-0.15,-0.14,-0.44,1.0,t
2931.0,3150.0,3027.0,3899.0,4094.0,3347.0,3481.0,3539.0,-0.23,8.8,5.31,-0.03,-0.03,-0.52,1.0,t
2921.0,3136.0,3022.0,3888.0,4091.0,3355.0,3485.0,3552.0,-0.82,9.2,4.77,0.03,0.08,-0.44,1.0,t
2919.0,3141.0,3025.0,3856.0,4080.0,3358.0,3488.0,3555.0,-1.36,9.02,4.55,-0.05,0.02,-0.28,1.0,t
2928.0,3145.0,3023.0,3854.0,4080.0,3360.0,3481.0,3547.0,-1.09,8.8,4.7,-0.05,0.01,-0.23,1.0,t
2930.0,3137.0,3034.0,3835.0,4091.0,3360.0,3483.0,3547.0,-1.05,8.63,4.92,-0.17,-0.03,-0.19,1.0,t
2934.0,3154.0,3027.0,3837.0,4084.0,3359.0,3483.0,3552.0,-0.91,8.5,5.06,-0.16,-0.06,-0.21,1.0,t
2928.0,3152.0,3023.0,3842.0,4086.0,3365.0,3479.0,3543.0,-1.14,8.45,4.97,-0.17,0.02,-0.2,1.0,t
2918.0,3136.0,3023.0,3842.0,4077.0,3361.0,3483.0,3556.0,-1.16,8.56,5.05,-0.14,0.05,-0.21,1.0,t
2923.0,3150.0,3036.0,3853.0,4076.0,3361.0,3485.0,3551.0,-1.42,8.65,5.0,-0.18,0.07,-0.19,1.0,t
2927.0,3134.0,3029.0,3858.0,4080.0,3371.0,3494.0,3558.0,-1.55,8.72,5.05,-0.24,0.07,-0.11,1.0,t
2914.0,3141.0,3034.0,3867.0,4090.0,3370.0,3494.0,3559.0,-1.39,8.52,5.38,-0.24,-0.02,-0.09,1.0,t
2928.0,3152.0,3024.0,3877.0,4095.0,3367.0,3491.0,3549.0,-1.29,8.54,5.55,-0.24,0.04,-0.05,1.0,t
2929.0,3132.0,3031.0,3901.0,4094.0,3371.0,3477.0,3553.0,-1.21,8.39,5.75,-0.18,0.08,-0.07,1.0,t
2925.0,3142.0,3020.0,3887.0,4079.0,3365.0,3486.0,3555.0,-1.29,8.38,5.46,-0.15,0.13,-0.11,1.0,t
2927.0,3142.0,3034.0,3888.0,4095.0,3366.0,3494.0,3560.0,-1.66,8.34,5.16,-0.21,0.14,-0.11,1.0,t
2923.0,3139.0,3025.0,3897.0,4092.0,3373.0,3495.0,3563.0,-2.13,8.2,4.98,-0.3,0.11,-0.01,1.0,t
2933.0,3134.0,3036.0,3904.0,4093.0,3371.0,3492.0,3559.0,-2.01,7.92,5.57,-0.37,0.04,0.08,1.0,t
2928.0,3138.0,3025.0,3904.0,4095.0,3375.0,3500.0,3563.0,-1.7,7.94,5.98,-0.36,0.1,0.13,1.0,t
2929.0,3136.0,3025.0,3925.0,4095.0,3370.0,3487.0,3556.0,-1.41,8.06,6.27,-0.32,0.09,0.11,1.0,t
2933.0,3151.0,3034.0,3926.0,4095.0,3370.0,3485.0,3551.0,-1.14,7.99,6.61,-0.22,0.03,0.1,1.0,t
2924.0,3141.0,3031.0,3920.0,4095.0,3373.0,3491.0,3567.0,-1.12,7.94,6.75,-0.14,0.08,0.07,1.0,t
2919.0,3136.0,3024.0,3927.0,4095.0,3370.0,3487.0,3557.0,-1.59,7.99,6.29,-0.12,0.15,0.08,1.0,t
2917.0,3146.0,3022.0,3899.0,4094.0,3357.0,3492.0,3559.0,-1.35,8.02,6.24,-0.12,0.06,0.09,1.0,t
2930.0,3152.0,3026.0,3883.0,4036.0,3355.0,3487.0,3564.0,-1.3,8.02,6.22,-0.17,0.1,0.15,1.0,t
2927.0,3151.0,3025.0,3890.0,4024.0,3350.0,3497.0,3554.0,-1.38,7.86,6.35,-0.09,0.05,0.15,1.0,t
2927.0,3151.0,3020.0,3900.0,4034.0,3349.0,3493.0,3567.0,-1.36,7.84,6.24,-0.03,0.02,0.15,1.0,t
2928.0,3143.0,3027.0,3916.0,4060.0,3355.0,3493.0,3569.0,-1.09,7.92,6.19,-0.03,-0.02,0.15,1.0,t
2928.0,3140.0,3031.0,3929.0,4059.0,3359.0,3487.0,3565.0,-1.07,8.05,5.91,-0.1,-0.05,0.2,1.0,t
2918.0,3143.0,3024.0,3927.0,4061.0,3362.0,3493.0,3569.0,-1.0,7.84,6.1,-0.18,-0.11,0.24,1.0,t
2928.0,3135.0,3023.0,3955.0,4068.0,3360.0,3487.0,3567.0,-0.8,7.8,6.41,-0.19,-0.1,0.32,1.0,t
2921.0,3134.0,3024.0,3977.0,4058.0,3330.0,3482.0,3557.0,-0.65,7.63,6.84,-0.09,-0.02,0.24,1.0,t
2911.0,3148.0,3012.0,3998.0,4050.0,3332.0,3482.0,3568.0,-0.72,7.67,6.77,0.05,-0.0,0.23,1.0,t
2928.0,3145.0,3035.0,4016.0,4079.0,3346.0,3491.0,3571.0,-0.55,8.11,6.17,0.07,-0.06,0.25,1.0,t
2922.0,3139.0,3031.0,4032.0,4061.0,3341.0,3483.0,3565.0,-0.3,8.06,6.24,0.08,-0.07,0.28,1.0,t
2928.0,3138.0,3033.0,4048.0,4086.0,3346.0,3487.0,3566.0,0.06,8.22,5.97,0.09,-0.11,0.3,1.0,t
2940.0,3149.0,3023.0,4077.0,4095.0,3351.0,3491.0,3573.0,0.1,8.2,5.99,0.02,-0.09,0.34,1.0,t
2931.0,3141.0,3026.0,4083.0,4095.0,3357.0,3485.0,3555.0,0.61,8.07,6.24,0.03,-0.14,0.34,1.0,t
2928.0,3136.0,3024.0,4071.0,4095.0,3361.0,3494.0,3568.0,1.14,8.15,6.22,0.12,-0.04,0.3,1.0,t
2931.0,3137.0,3015.0,4041.0,4095.0,3361.0,3499.0,3574.0,1.05,8.21,6.07,0.15,0.0,0.19,1.0,t
2927.0,3145.0,3021.0,4033.0,4095.0,3360.0,3499.0,3573.0,1.07,8.27,6.01,0.2,-0.01,0.12,1.0,t
2921.0,3137.0,3023.0,4007.0,4095.0,3355.0,3491.0,3573.0,1.37,8.32,5.87,0.2,-0.1,0.01,1.0,t
2922.0,3136.0,3027.0,3962.0,4095.0,3355.0,3493.0,3568.0,1.73,8.49,5.72,0.23,-0.12,-0.09,1.0,t
2917.0,3136.0,3024.0,3902.0,4095.0,3350.0,3485.0,3567.0,1.75,8.41,5.59,0.27,-0.11,-0.26,1.0,t
2925.0,3133.0,3024.0,3889.0,4095.0,3355.0,3491.0,3568.0,0.97,8.6,5.02,0.23,-0.07,-0.29,1.0,t
2926.0,3153.0,3027.0,3909.0,4095.0,3366.0,3501.0,3566.0,0.58,8.67,4.92,0.14,-0.19,-0.34,1.0,t
2928.0,3155.0,3037.0,3941.0,4095.0,3361.0,3490.0,3563.0,0.48,8.65,5.01,0.1,-0.14,-0.32,1.0,t
2917.0,3137.0,3030.0,3919.0,4095.0,3358.0,3494.0,3575.0,0.38,8.7,5.07,0.12,-0.09,-0.29,1.0,t
2931.0,3150.0,3026.0,3923.0,4095.0,3363.0,3501.0,3568.0,-0.21,8.85,4.62,0.1,-0.07,-0.2,1.0,t
2926.0,3147.0,3034.0,3926.0,4095.0,3357.0,3487.0,3562.0,-0.38,9.05,4.51,0.04,-0.04,-0.1,1.0,t
2922.0,3141.0,3031.0,3925.0,4095.0,3361.0,3498.0,3567.0,-1.35,9.44,3.79,-0.1,0.16,0.2,1.0,t
2927.0,3140.0,3024.0,3920.0,4095.0,3360.0,3492.0,3568.0,-0.25,9.05,4.72,-0.25,-0.11,0.42,1.0,t
2929.0,3141.0,3024.0,3933.0,4095.0,3359.0,3495.0,3565.0,1.19,8.73,5.73,-0.19,-0.15,0.48,1.0,t
2919.0,3148.0,3031.0,3936.0,4095.0,3367.0,3498.0,3569.0,1.62,8.61,5.63,-0.03,0.04,0.4,1.0,t
2931.0,3143.0,3027.0,3933.0,4095.0,3363.0,3487.0,3562.0,0.57,8.88,4.45,-0.04,0.16,0.44,1.0,t
2929.0,3139.0,3029.0,3933.0,4095.0,3367.0,3504.0,3571.0,1.7,8.71,4.94,-0.07,-0.09,0.42,1.0,t
2927.0,3141.0,3031.0,3926.0,4095.0,3362.0,3498.0,3562.0,2.81,8.66,5.32,-0.04,-0.02,0.31,1.0,t
2934.0,3135.0,3022.0,3901.0,4095.0,3367.0,3502.0,3569.0,2.97,8.54,5.44,0.06,-0.0,0.08,1.0,t
2926.0,3150.0,3035.0,3888.0,4095.0,3370.0,3498.0,3562.0,1.94,8.63,4.95,0.13,0.01,-0.06,1.0,t
2928.0,3154.0,3035.0,3862.0,4095.0,3366.0,3499.0,3575.0,1.47,8.68,4.63,0.12,-0.04,-0.05,1.0,t
2928.0,3151.0,3022.0,3841.0,4095.0,3362.0,3499.0,3577.0,1.7,8.75,4.52,0.06,0.01,0.01,1.0,t
2915.0,3147.0,3027.0,3851.0,4095.0,3361.0,3498.0,3568.0,2.08,8.93,4.69,0.04,0.04,-0.0,1.0,t
2930.0,3136.0,3024.0,3879.0,4095.0,3365.0,3491.0,3572.0,2.28,8.95,4.9,0.08,-0.0,-0.07,1.0,t
2937.0,3143.0,3031.0,3898.0,4095.0,3366.0,3491.0,3565.0,2.05,9.01,4.77,0.1,0.0,-0.12,1.0,t
2917.0,3139.0,3021.0,3888.0,4095.0,3361.0,3497.0,3568.0,1.54,8.98,4.48,0.12,-0.09,-0.11,1.0,t
2931.0,3154.0,3025.0,3901.0,4095.0,3365.0,3489.0,3566.0,1.79,8.95,4.61,0.12,-0.15,-0.11,1.0,t
2921.0,3142.0,3025.0,3888.0,4095.0,3366.0,3498.0,3568.0,1.81,9.02,4.43,0.17,-0.09,-0.11,1.0,t
2927.0,3150.0,3031.0,3892.0,4095.0,3371.0,3499.0,3570.0,1.89,9.06,4.24,0.18,-0.15,-0.12,1.0,t
2924.0,3149.0,3023.0,3901.0,4095.0,3374.0,3500.0,3570.0,2.08,9.17,3.98,0.24,-0.1,-0.22,1.0,t
2929.0,3139.0,3033.0,3907.0,4095.0,3373.0,3494.0,3577.0,0.94,9.58,3.12,0.18,0.16,-0.08,1.0,t
2928.0,3136.0,3024.0,3894.0,4095.0,3376.0,3499.0,3571.0,0.92,9.52,3.13,-0.04,-0.05,0.05,1.0,t
2929.0,3133.0,3038.0,3909.0,4095.0,3375.0,3497.0,3574.0,1.73,9.41,3.76,-0.14,-0.04,0.17,1.0,t
2929.0,3142.0,3024.0,3915.0,4095.0,3375.0,3491.0,3561.0,2.18,9.17,4.17,-0.11,-0.05,0.16,1.0,t
2935.0,3148.0,3035.0,3921.0,4095.0,3376.0,3503.0,3580.0,2.24,9.39,3.81,-0.04,0.03,0.1,1.0,t
2923.0,3146.0,3027.0,3923.0,4095.0,3361.0,3491.0,3569.0,2.16,9.42,3.62,-0.05,0.04,0.08,1.0,t
2961.0,2977.0,912.0,4095.0,4095.0,3455.0,3449.0,3842.0,0.41,9.73,3.06,-0.23,-0.7,-0.36,1.0,t
2962.0,2981.0,919.0,4095.0,4095.0,3455.0,3452.0,3850.0,-0.14,9.74,3.51,-0.2,-0.56,-0.38,1.0,t
2960.0,2967.0,913.0,4095.0,4095.0,3453.0,3447.0,3847.0,-0.11,9.33,3.81,-0.07,-0.52,-0.39,1.0,t
2956.0,2976.0,917.0,4095.0,4095.0,3456.0,3451.0,3836.0,0.17,9.42,3.41,-0.02,-0.36,-0.41,1.0,t
2961.0,2975.0,917.0,4095.0,4095.0,3449.0,3456.0,3847.0,-0.29,9.61,2.83,0.01,-0.29,-0.37,1.0,t
2965.0,2982.0,912.0,4095.0,4095.0,3471.0,3457.0,3853.0,-0.41,9.7,2.37,-0.04,-0.32,-0.34,1.0,t
2961.0,2989.0,912.0,4095.0,4095.0,3456.0,3459.0,3856.0,-0.58,9.78,2.87,-0.1,0.0,-0.22,1.0,t
2974.0,2974.0,917.0,4095.0,4095.0,3457.0,3456.0,3856.0,-1.04,9.51,3.07,-0.13,0.05,-0.15,1.0,t
2965.0,2977.0,922.0,4095.0,4095.0,3472.0,3459.0,3855.0,-0.3,9.42,3.34,-0.08,0.16,-0.12,1.0,t
2965.0,2993.0,919.0,4095.0,4095.0,3472.0,3457.0,3851.0,-1.61,9.45,2.79,-0.25,0.42,0.08,1.0,t
2960.0,2981.0,919.0,4095.0,4095.0,3471.0,3458.0,3851.0,-0.91,9.48,3.3,-0.21,0.25,0.11,1.0,t
2962.0,2967.0,918.0,4095.0,4095.0,3461.0,3453.0,3852.0,-0.1,9.37,3.9,-0.21,0.42,0.18,1.0,t
2970.0,2980.0,917.0,4095.0,4095.0,3474.0,3459.0,3845.0,-0.06,9.29,3.92,-0.16,0.49,0.13,1.0,t
2958.0,2972.0,916.0,4095.0,4095.0,3467.0,3455.0,3844.0,0.86,9.71,4.32,-0.08,0.39,0.05,1.0,t
2970.0,2985.0,913.0,4000.0,4095.0,3467.0,3455.0,3857.0,-0.19,9.41,3.94,-0.04,0.66,-0.04,1.0,t
2965.0,2974.0,914.0,4049.0,4095.0,3471.0,3453.0,3855.0,-1.03,9.22,4.08,-0.04,0.55,0.0,1.0,t
2963.0,2992.0,913.0,4064.0,4095.0,3475.0,3459.0,3855.0,-1.12,8.88,4.42,0.01,0.59,0.19,1.0,t
2962.0,2979.0,914.0,4054.0,4095.0,3478.0,3467.0,3855.0,-0.83,8.82,4.22,-0.07,0.99,0.43,1.0,t
2969.0,2992.0,918.0,3991.0,4095.0,3485.0,3457.0,3854.0,0.23,8.79,4.28,0.04,0.61,0.57,1.0,t
2961.0,2975.0,913.0,3951.0,4095.0,3479.0,3450.0,3849.0,0.81,9.44,3.66,-0.01,0.43,0.49,1.0,t
2960.0,2985.0,917.0,3962.0,4095.0,3473.0,3440.0,3837.0,0.94,9.56,3.66,-0.04,0.13,0.34,1.0,t
2961.0,2981.0,917.0,3923.0,4095.0,3462.0,3440.0,3846.0,1.9,9.9,3.68,-0.01,-0.26,0.07,1.0,t
2966.0,2977.0,911.0,3912.0,4095.0,3443.0,3440.0,3856.0,1.95,10.2,3.17,-0.14,-0.2,-0.09,1.0,t
2956.0,2969.0,917.0,3920.0,4095.0,3422.0,3440.0,3848.0,1.07,9.77,3.08,-0.23,-0.25,-0.28,1.0,t
2963.0,2987.0,917.0,3966.0,4095.0,3438.0,3450.0,3856.0,0.58,9.56,3.52,-0.28,-0.54,-0.33,1.0,t
2962.0,2978.0,915.0,4015.0,4095.0,3441.0,3442.0,3853.0,0.07,9.2,3.99,-0.31,-0.47,-0.26,1.0,t
2970.0,2978.0,924.0,4014.0,4095.0,3455.0,3438.0,3843.0,0.07,9.19,4.07,-0.23,-0.39,-0.21,1.0,t
2959.0,2989.0,913.0,3959.0,4095.0,3434.0,3445.0,3847.0,0.04,9.42,3.96,-0.12,-0.37,-0.21,1.0,t
2960.0,2976.0,915.0,3937.0,4095.0,3440.0,3446.0,3856.0,0.36,9.77,3.93,-0.07,-0.26,-0.2,1.0,t
2960.0,2987.0,925.0,3951.0,4095.0,3430.0,3428.0,3852.0,0.01,9.41,3.97,0.04,-0.12,-0.27,1.0,t
2960.0,2987.0,918.0,3975.0,4095.0,3435.0,3443.0,3856.0,0.04,9.36,3.86,0.07,0.02,-0.33,1.0,t
2954.0,2986.0,917.0,4026.0,4095.0,3438.0,3440.0,3850.0,0.23,9.26,3.85,0.09,-0.13,-0.37,1.0,t
2956.0,2978.0,917.0,4027.0,4095.0,3430.0,3444.0,3841.0,0.03,9.3,3.75,0.02,-0.16,-0.44,1.0,t
2959.0,2977.0,919.0,4035.0,4095.0,3449.0,3451.0,3856.0,0.53,9.41,4.27,0.14,-0.22,-0.59,1.0,t
2959.0,2977.0,917.0,4095.0,4095.0,3439.0,3440.0,3855.0,-0.78,9.29,3.84,0.21,-0.24,-0.72,1.0,t
2955.0,2986.0,913.0,4095.0,4095.0,3462.0,3459.0,3856.0,-1.73,9.26,3.28,0.24,-0.36,-0.64,1.0,t
2957.0,2974.0,911.0,4095.0,4095.0,3463.0,3452.0,3835.0,-2.72,9.42,3.0,-0.14,-0.49,-0.5,1.0,t
2954.0,2977.0,913.0,4095.0,4095.0,3427.0,3452.0,3833.0,-2.09,8.31,3.91,-0.18,-0.1,-0.21,1.0,t
2932.0,2979.0,914.0,4095.0,4095.0,3357.0,3439.0,3795.0,-1.92,9.6,3.36,-0.28,0.39,0.04,1.0,t
2947.0,2979.0,914.0,4095.0,4095.0,3349.0,3423.0,3824.0,-2.9,8.56,3.48,-0.45,0.22,0.14,1.0,t
2945.0,2979.0,914.0,4095.0,4095.0,3334.0,3408.0,3792.0,-1.25,9.26,3.89,0.05,-0.72,-0.21,1.0,t
2944.0,2967.0,928.0,4095.0,4095.0,3317.0,3408.0,3776.0,-1.28,8.98,4.1,0.09,-0.39,-0.1,1.0,t
2947.0,2983.0,930.0,4095.0,4095.0,3311.0,3406.0,3747.0,-0.76,9.49,3.79,0.07,-0.19,-0.07,1.0,t
2941.0,2974.0,926.0,4095.0,4095.0,3287.0,3395.0,3727.0,-0.86,9.4,3.56,0.06,-0.25,-0.04,1.0,t
2943.0,2985.0,927.0,4095.0,4095.0,3279.0,3407.0,3698.0,-1.54,9.44,3.38,-0.17,0.04,0.09,1.0,t
2938.0,2992.0,929.0,4095.0,4095.0,3291.0,3423.0,3706.0,-0.76,9.43,3.81,0.06,-0.02,-0.01,1.0,t
2951.0,2987.0,940.0,4095.0,4095.0,3283.0,3424.0,3706.0,-1.05,9.23,3.73,0.05,0.65,0.13,1.0,t
2946.0,2975.0,943.0,4095.0,4095.0,3293.0,3419.0,3702.0,-0.97,9.32,3.5,0.12,-0.38,0.02,1.0,t
2944.0,2972.0,944.0,4095.0,4095.0,3279.0,3410.0,3705.0,-1.16,9.42,3.5,0.07,-0.23,-0.07,1.0,t
2945.0,2985.0,928.0,4095.0,4095.0,3280.0,3413.0,3712.0,-1.17,9.38,3.45,0.01,0.13,0.08,1.0,t
2946.0,2981.0,941.0,4095.0,4095.0,3291.0,3421.0,3723.0,-0.71,9.33,3.44,0.1,-0.35,-0.06,1.0,t
2944.0,2987.0,942.0,4095.0,4095.0,3271.0,3413.0,3712.0,-0.69,9.26,3.32,0.1,-0.13,0.04,1.0,t
2951.0,2992.0,930.0,4095.0,4095.0,3280.0,3408.0,3730.0,-0.54,9.63,3.17,0.02,-0.11,-0.03,1.0,t
2959.0,2987.0,929.0,4095.0,4095.0,3283.0,3407.0,3760.0,-1.01,9.17,3.34,-0.17,0.13,0.07,1.0,t
2951.0,2976.0,924.0,4039.0,4095.0,3298.0,3401.0,3757.0,-1.18,9.63,3.1,0.0,-0.16,0.01,1.0,t
2958.0,2985.0,930.0,3893.0,4095.0,3318.0,3409.0,3774.0,-1.53,8.94,3.41,-0.06,-0.07,0.16,1.0,t
2955.0,2982.0,927.0,3988.0,4095.0,3317.0,3408.0,3763.0,-0.87,9.55,3.36,0.03,0.03,0.18,1.0,t
2960.0,2975.0,924.0,4095.0,4095.0,3312.0,3399.0,3766.0,-0.38,9.57,3.37,-0.01,0.27,0.27,1.0,t
2953.0,2987.0,925.0,4095.0,4095.0,3312.0,3401.0,3791.0,-0.59,9.33,3.39,0.01,0.46,0.31,1.0,t
2947.0,2982.0,933.0,4095.0,4095.0,3311.0,3399.0,3778.0,-0.31,9.69,3.0,0.03,0.19,0.24,1.0,t
2957.0,2975.0,922.0,4095.0,4095.0,3313.0,3392.0,3777.0,0.03,9.61,2.93,0.01,0.61,0.29,1.0,t
2955.0,2992.0,926.0,4095.0,4095.0,3315.0,3387.0,3807.0,-0.32,9.76,2.45,-0.07,0.62,0.39,1.0,t
2955.0,2990.0,927.0,4095.0,4095.0,3317.0,3375.0,3815.0,0.4,9.82,2.81,-0.05,0.24,0.34,1.0,t
2962.0,2986.0,924.0,4095.0,4095.0,3335.0,3385.0,3824.0,0.34,9.86,2.85,-0.25,0.63,0.54,1.0,t
2959.0,2992.0,925.0,4095.0,4095.0,3349.0,3361.0,3842.0,1.35,9.76,3.33,-0.02,0.28,0.29,1.0,t
2955.0,2991.0,928.0,4095.0,4095.0,3354.0,3367.0,3857.0,0.8,9.62,3.22,-0.11,0.66,0.27,1.0,t
2951.0,2983.0,927.0,4095.0,4095.0,3367.0,3361.0,3843.0,0.79,9.79,3.04,0.14,0.31,0.14,1.0,t
2947.0,2992.0,923.0,4089.0,4095.0,3363.0,3371.0,3856.0,0.03,9.87,2.49,-0.25,0.25,0.18,1.0,t
2951.0,2992.0,918.0,4080.0,4095.0,3376.0,3363.0,3857.0,0.83,9.62,3.04,0.01,0.39,0.22,1.0,t
2949.0,2994.0,923.0,4083.0,4095.0,3383.0,3364.0,3858.0,0.86,9.57,3.22,-0.24,0.38,0.22,1.0,t
2958.0,2992.0,926.0,4095.0,4095.0,3389.0,3371.0,3865.0,1.24,9.36,3.2,-0.04,0.17,0.08,1.0,t
2958.0,2987.0,928.0,4095.0,4095.0,3393.0,3371.0,3864.0,1.51,9.69,3.28,-0.12,0.34,0.08,1.0,t
2960.0,2991.0,931.0,4095.0,4095.0,3404.0,3367.0,3877.0,1.11,9.33,3.37,-0.27,0.02,0.08,1.0,t
2959.0,2985.0,928.0,4095.0,4095.0,3405.0,3369.0,3871.0,1.32,9.73,3.62,-0.04,0.16,-0.01,1.0,t
2955.0,2991.0,919.0,4095.0,4095.0,3405.0,3376.0,3888.0,0.6,10.04,3.21,-0.22,-0.12,-0.22,1.0,t
2947.0,2985.0,923.0,4095.0,4095.0,3407.0,3376.0,3882.0,0.7,9.71,3.32,0.14,-0.03,-0.17,1.0,t
2941.0,2991.0,922.0,4095.0,4095.0,3390.0,3376.0,3892.0,0.61,9.62,3.16,-0.21,-0.08,-0.09,1.0,t
2957.0,2985.0,924.0,4095.0,4095.0,3376.0,3382.0,3881.0,0.79,9.51,3.21,0.01,0.01,-0.01,1.0,t
2960.0,2986.0,923.0,4095.0,4095.0,3361.0,3376.0,3883.0,0.65,9.51,3.37,-0.1,0.14,0.07,1.0,t
2956.0,2985.0,923.0,4095.0,4095.0,3375.0,3382.0,3886.0,0.48,9.76,3.22,-0.27,-0.1,-0.07,1.0,t
2959.0,2988.0,919.0,4095.0,4095.0,3393.0,3385.0,3888.0,0.84,9.07,3.63,-0.17,-0.26,-0.0,1.0,t
2959.0,3002.0,927.0,4095.0,4095.0,3403.0,3397.0,3895.0,0.54,9.52,3.23,-0.15,0.27,0.1,1.0,t
2960.0,2993.0,922.0,4095.0,4095.0,3408.0,3387.0,3890.0,-0.9,9.66,3.61,-0.47,0.12,0.22,1.0,t
2954.0,2975.0,923.0,4095.0,4095.0,3408.0,3390.0,3904.0,1.6,8.97,4.15,0.0,-0.13,0.07,1.0,t
2962.0,2992.0,928.0,4095.0,4095.0,3394.0,3394.0,3910.0,1.48,9.47,3.66,0.02,0.4,0.24,1.0,t
2951.0,2983.0,925.0,4095.0,4095.0,3408.0,3389.0,3897.0,1.61,9.22,3.79,0.04,0.09,0.1,1.0,t
2954.0,2987.0,926.0,4095.0,4095.0,3428.0,3393.0,3910.0,1.35,9.23,4.04,0.08,-0.02,-0.07,1.0,t
2955.0,2983.0,919.0,4095.0,4095.0,3403.0,3381.0,3911.0,1.73,9.21,4.05,0.19,-0.01,-0.09,1.0,t
2973.0,2977.0,917.0,4095.0,4095.0,3406.0,3392.0,3905.0,2.93,9.9,3.02,0.12,0.03,-0.38,1.0,t
2970.0,2985.0,914.0,4095.0,4095.0,3414.0,3393.0,3892.0,2.81,10.0,2.55,-0.02,0.47,-0.61,1.0,t
2966.0,2992.0,922.0,4095.0,4095.0,3425.0,3404.0,3910.0,1.87,9.85,2.9,-0.13,0.32,-0.72,1.0,t
2967.0,2983.0,923.0,4095.0,4095.0,3422.0,3399.0,3891.0,-0.42,9.42,3.4,-0.25,0.98,-0.61,1.0,t
2965.0,2988.0,913.0,4095.0,4095.0,3425.0,3405.0,3871.0,-1.87,9.31,3.59,-0.26,1.27,-0.39,1.0,t
2963.0,2989.0,920.0,4095.0,4095.0,3423.0,3405.0,3883.0,-1.05,9.71,3.28,-0.13,1.66,-0.13,1.0,t
2967.0,2982.0,921.0,4095.0,4095.0,3425.0,3408.0,3889.0,-2.89,9.2,2.82,-0.53,2.13,0.35,1.0,t
2971.0,2983.0,925.0,4095.0,4095.0,3422.0,3402.0,3887.0,-1.65,9.37,3.11,-0.27,1.57,0.25,1.0,t
2965.0,2967.0,918.0,4095.0,4095.0,3421.0,3407.0,3885.0,-0.96,9.58,3.55,-0.17,1.05,0.27,1.0,t
2974.0,2982.0,919.0,4095.0,4095.0,3421.0,3408.0,3891.0,-2.04,9.22,3.39,-0.39,1.63,0.42,1.0,t
2971.0,2986.0,923.0,4095.0,4095.0,3435.0,3414.0,3899.0,-1.56,9.2,3.47,-0.22,0.97,0.28,1.0,t
2981.0,2990.0,919.0,4095.0,4095.0,3431.0,3408.0,3905.0,-1.59,9.44,3.08,-0.1,0.35,0.16,1.0,t
2973.0,2992.0,914.0,4095.0,4095.0,3430.0,3412.0,3907.0,-1.44,9.05,3.53,-0.23,0.78,0.16,1.0,t
2967.0,2989.0,929.0,4095.0,4095.0,3435.0,3407.0,3903.0,-1.02,9.4,3.5,-0.11,0.55,0.11,1.0,t
2962.0,2994.0,923.0,4095.0,4095.0,3433.0,3411.0,3899.0,-1.43,9.33,3.23,-0.27,0.86,0.12,1.0,t
2971.0,2983.0,914.0,4095.0,4095.0,3381.0,3388.0,3898.0,-2.09,9.3,2.86,-0.5,0.71,0.25,1.0,t
2960.0,2983.0,917.0,4095.0,4095.0,3363.0,3375.0,3835.0,-1.13,9.45,3.42,-0.3,0.08,0.06,1.0,t
2967.0,2976.0,909.0,4095.0,4095.0,3363.0,3378.0,3809.0,-1.86,8.92,4.0,-0.45,0.17,0.12,1.0,t
2962.0,2987.0,913.0,4095.0,4095.0,3349.0,3376.0,3809.0,-1.06,9.14,4.43,-0.14,0.02,0.11,1.0,t
2960.0,2979.0,912.0,4095.0,4095.0,3331.0,3379.0,3835.0,-1.48,9.2,4.08,0.32,0.51,0.16,1.0,t
2961.0,2987.0,909.0,4095.0,4095.0,3328.0,3367.0,3824.0,-0.77,9.69,3.61,0.11,-0.01,0.16,1.0,t
2958.0,2981.0,922.0,4095.0,4095.0,3362.0,3376.0,3835.0,-1.55,9.2,3.26,0.07,-0.03,0.08,1.0,t
2960.0,2980.0,912.0,4095.0,4095.0,3413.0,3377.0,3851.0,-1.3,9.14,3.15,0.0,-0.19,0.13,1.0,t
2952.0,2985.0,913.0,4095.0,4095.0,3458.0,3381.0,3886.0,-0.75,9.39,3.21,0.0,-0.48,0.03,1.0,t
2950.0,2981.0,913.0,4095.0,4095.0,3494.0,3415.0,3891.0,-0.6,9.39,3.65,-0.21,-0.02,-0.07,1.0,t
2949.0,2979.0,910.0,4095.0,4095.0,3493.0,3423.0,3909.0,-0.88,9.41,3.95,-0.15,-0.1,-0.01,1.0,t
2945.0,2977.0,910.0,4095.0,4095.0,3490.0,3424.0,3899.0,-1.21,9.08,4.13,-0.09,-0.18,-0.1,1.0,t
2951.0,2987.0,910.0,4095.0,4095.0,3485.0,3425.0,3901.0,-1.85,9.1,3.98,0.16,-1.3,-0.3,1.0,t
2954.0,2993.0,912.0,4095.0,4095.0,3477.0,3423.0,3905.0,0.95,9.6,3.61,0.69,-3.2,-0.66,1.0,t
2945.0,2987.0,913.0,4095.0,4095.0,3467.0,3425.0,3899.0,-0.28,9.19,3.45,0.17,-1.86,-0.43,1.0,t
2961.0,2986.0,912.0,4095.0,4095.0,3498.0,3423.0,3910.0,0.49,9.72,3.43,0.05,-0.43,-0.24,1.0,t
2960.0,2979.0,912.0,4095.0,4095.0,3523.0,3427.0,3895.0,0.1,9.84,3.16,-0.26,0.32,-0.16,1.0,t
2957.0,2981.0,913.0,4095.0,4095.0,3533.0,3424.0,3907.0,-1.83,9.51,3.19,-0.1,0.74,0.07,1.0,t
2964.0,2987.0,910.0,4095.0,4095.0,3531.0,3431.0,3917.0,-1.47,9.1,3.18,-0.29,-0.73,-0.2,1.0,t
2963.0,2987.0,919.0,4095.0,4095.0,3502.0,3425.0,3908.0,-0.9,9.39,3.58,0.09,-1.31,-0.29,1.0,t
2960.0,2979.0,914.0,4095.0,4095.0,3489.0,3420.0,3890.0,1.27,9.32,3.83,0.26,-1.42,-0.37,1.0,t
2963.0,2995.0,910.0,4095.0,4095.0,3434.0,3424.0,3898.0,-0.95,9.96,2.65,0.16,-1.48,-0.1,1.0,t
2960.0,2978.0,912.0,4095.0,4095.0,3382.0,3422.0,3876.0,-0.75,9.55,2.94,0.02,-0.6,-0.4,1.0,t
2963.0,2982.0,915.0,4095.0,4095.0,3392.0,3422.0,3885.0,0.68,9.61,3.32,-0.33,-1.2,-0.29,1.0,t
2971.0,2990.0,915.0,4095.0,4095.0,3390.0,3431.0,3885.0,0.82,9.98,3.47,-0.13,-0.94,-0.32,1.0,t
2970.0,2989.0,915.0,4095.0,4095.0,3381.0,3422.0,3878.0,-0.14,9.26,3.88,-0.32,-0.73,-0.35,1.0,t
2963.0,3001.0,914.0,4095.0,4095.0,3376.0,3419.0,3883.0,-1.34,9.89,3.34,-0.62,-1.17,-0.34,1.0,t
2974.0,2987.0,912.0,4095.0,4095.0,3379.0,3413.0,3893.0,0.2,8.44,4.73,-0.68,-2.31,-0.58,1.0,t
2960.0,2982.0,908.0,4095.0,4095.0,3392.0,3403.0,3884.0,0.06,8.92,4.6,-0.48,-1.53,-0.37,1.0,t
2958.0,2992.0,912.0,4095.0,4095.0,3395.0,3407.0,3894.0,0.78,8.66,5.19,-0.15,-0.77,-0.37,1.0,t
2963.0,2988.0,915.0,4095.0,4095.0,3399.0,3407.0,3901.0,-0.29,8.66,4.91,-0.29,-0.56,-0.22,1.0,t
2964.0,2993.0,908.0,4095.0,4095.0,3402.0,3415.0,3898.0,1.15,8.57,5.2,-0.04,-0.88,-0.54,1.0,t
2959.0,2990.0,912.0,4095.0,4095.0,3397.0,3408.0,3898.0,0.64,8.94,5.03,-0.22,-0.15,-0.35,1.0,t
2960.0,2986.0,912.0,4095.0,4095.0,3387.0,3402.0,3914.0,1.09,8.54,6.03,-0.14,-1.22,-0.6,1.0,t
2954.0,2988.0,912.0,4095.0,4095.0,3376.0,3402.0,3909.0,1.71,8.72,5.69,0.13,-1.23,-1.12,1.0,t
2960.0,2989.0,906.0,4095.0,4095.0,3389.0,3393.0,3909.0,-0.86,9.12,4.71,0.24,-0.48,-0.85,1.0,t
2960.0,2995.0,912.0,4095.0,4095.0,3386.0,3403.0,3913.0,-1.92,9.0,4.22,0.12,-0.64,-0.65,1.0,t
2963.0,2987.0,907.0,4095.0,4095.0,3373.0,3392.0,3888.0,-1.19,8.94,4.46,0.08,-0.63,-0.13,1.0,t
2961.0,2983.0,907.0,4095.0,4095.0,3376.0,3404.0,3877.0,-0.17,8.69,4.6,0.04,-0.4,0.02,1.0,t
2965.0,2994.0,912.0,4095.0,4095.0,3356.0,3408.0,3861.0,0.52,9.05,4.94,0.11,-0.76,-0.17,1.0,t
2969.0,2986.0,912.0,4095.0,4095.0,3350.0,3414.0,3824.0,-0.02,8.83,4.51,-0.04,-0.68,-0.45,1.0,t
2975.0,2998.0,911.0,4095.0,4095.0,3360.0,3435.0,3826.0,0.32,8.67,4.76,0.28,0.13,-0.44,1.0,t
2961.0,2993.0,912.0,4095.0,4095.0,3373.0,3440.0,3827.0,-0.89,9.3,4.14,0.01,0.39,-0.2,1.0,t
2960.0,2989.0,908.0,4095.0,4095.0,3369.0,3433.0,3822.0,-0.22,9.1,4.04,0.15,0.04,-0.17,1.0,t
2960.0,2983.0,912.0,4095.0,4095.0,3366.0,3440.0,3838.0,-0.73,9.58,3.74,-0.05,0.33,0.12,1.0,t
2962.0,2990.0,910.0,4095.0,4095.0,3372.0,3436.0,3851.0,-0.25,9.4,3.84,-0.1,-0.32,-0.09,1.0,t
2959.0,2993.0,912.0,4095.0,4095.0,3369.0,3428.0,3857.0,0.08,9.23,3.93,-0.23,-0.31,-0.16,1.0,t
2960.0,2995.0,917.0,4095.0,4095.0,3374.0,3438.0,3839.0,-0.36,9.28,3.85,-0.06,-0.37,-0.26,1.0,t
2971.0,2992.0,913.0,4095.0,4095.0,3376.0,3436.0,3851.0,-0.56,8.9,4.01,-0.23,0.08,-0.24,1.0,t
2958.0,2992.0,906.0,4095.0,4095.0,3376.0,3439.0,3849.0,-1.41,9.08,4.26,-0.2,-0.19,-0.1,1.0,t
2965.0,2993.0,912.0,4095.0,4095.0,3374.0,3437.0,3854.0,-0.65,9.27,4.44,-0.24,-0.01,0.07,1.0,t
2960.0,2992.0,911.0,4095.0,4095.0,3374.0,3435.0,3843.0,-0.96,9.14,4.7,-0.21,0.05,0.19,1.0,t
2971.0,2987.0,907.0,4095.0,4095.0,3376.0,3440.0,3850.0,-0.16,8.99,4.88,-0.13,0.24,0.06,1.0,t
2960.0,2993.0,917.0,4095.0,4095.0,3376.0,3433.0,3849.0,-0.32,9.04,4.7,-0.09,0.74,0.14,1.0,t
2961.0,2996.0,916.0,4095.0,4095.0,3382.0,3429.0,3856.0,-0.75,9.18,4.33,-0.15,0.79,0.21,1.0,t
2965.0,2997.0,907.0,4095.0,4095.0,3365.0,3423.0,3846.0,0.21,8.58,4.92,-0.43,3.17,0.32,1.0,t
2969.0,2993.0,912.0,4095.0,4095.0,3374.0,3429.0,3847.0,-1.6,8.91,4.96,-0.27,3.36,0.77,1.0,t
2966.0,2996.0,903.0,4095.0,4095.0,3378.0,3434.0,3852.0,-3.73,8.62,3.96,0.13,1.5,0.33,1.0,t
2975.0,2986.0,907.0,4095.0,4095.0,3390.0,3438.0,3856.0,-1.42,9.68,3.26,0.37,-0.06,-0.1,1.0,t
2955.0,2990.0,915.0,4095.0,4095.0,3381.0,3440.0,3856.0,-1.39,9.34,3.52,-0.08,0.62,0.29,1.0,t
2976.0,2994.0,917.0,4095.0,4095.0,3386.0,3443.0,3858.0,-1.54,9.11,3.8,-0.25,0.93,0.39,1.0,t
2961.0,2993.0,912.0,4095.0,4095.0,3378.0,3445.0,3873.0,-1.83,9.02,3.62,-0.17,0.5,0.25,1.0,t
2977.0,2999.0,915.0,4095.0,4095.0,3376.0,3439.0,3868.0,-1.54,8.99,4.03,-0.16,0.22,0.35,1.0,t
2960.0,2992.0,914.0,4095.0,4095.0,3380.0,3440.0,3872.0,-1.45,9.08,4.01,-0.12,0.42,0.31,1.0,t
2971.0,2999.0,912.0,4095.0,4095.0,3376.0,3440.0,3875.0,-0.83,9.0,4.14,-0.11,0.44,0.34,1.0,t
2965.0,2989.0,912.0,4095.0,4095.0,3377.0,3433.0,3859.0,-1.7,9.34,3.2,-0.24,1.22,0.39,1.0,t
2977.0,2990.0,912.0,4095.0,4095.0,3379.0,3434.0,3866.0,-1.24,9.1,3.65,-0.36,0.96,0.42,1.0,t
2964.0,2995.0,912.0,4095.0,4095.0,3376.0,3425.0,3859.0,-0.42,9.33,4.25,-0.26,0.77,0.32,1.0,t
2961.0,2994.0,912.0,4095.0,4095.0,3375.0,3427.0,3862.0,1.06,9.57,4.69,-0.16,1.62,0.2,1.0,t
2974.0,2992.0,912.0,4095.0,4095.0,3379.0,3438.0,3877.0,-1.4,8.98,4.88,-0.22,1.56,0.44,1.0,t
2967.0,2992.0,913.0,4095.0,4095.0,3376.0,3431.0,3881.0,-1.49,9.36,3.98,0.12,1.04,0.01,1.0,t
2969.0,2986.0,911.0,4095.0,4095.0,3376.0,3429.0,3866.0,-2.0,9.33,3.53,0.12,0.23,0.02,1.0,t
2963.0,2996.0,912.0,4095.0,4095.0,3376.0,3435.0,3884.0,-1.5,9.26,3.36,-0.09,1.27,0.15,1.0,t
2975.0,2992.0,917.0,4095.0,4095.0,3386.0,3442.0,3886.0,-1.5,9.17,3.62,-0.26,1.25,0.45,1.0,t
2961.0,2983.0,902.0,4095.0,4095.0,3376.0,3423.0,3856.0,-1.73,9.04,3.76,-0.14,0.93,0.36,1.0,t
2973.0,2992.0,914.0,4095.0,4095.0,3377.0,3419.0,3865.0,-1.95,8.93,3.58,-0.08,0.81,0.28,1.0,t
2967.0,2992.0,912.0,4095.0,4095.0,3377.0,3429.0,3883.0,-1.76,9.28,3.36,0.07,0.62,0.23,1.0,t
2969.0,2989.0,908.0,4095.0,4095.0,3379.0,3427.0,3869.0,-1.78,9.44,2.93,0.05,0.68,0.28,1.0,t
2970.0,2999.0,910.0,4095.0,4095.0,3376.0,3425.0,3873.0,-1.37,9.63,2.77,0.05,0.44,0.28,1.0,t
2965.0,2999.0,912.0,4095.0,4095.0,3376.0,3426.0,3871.0,-0.86,9.72,2.73,-0.03,0.22,0.11,1.0,t
2966.0,2995.0,911.0,4095.0,4095.0,3366.0,3419.0,3867.0,-1.06,9.47,2.73,-0.06,-0.16,0.04,1.0,t
2970.0,2988.0,912.0,4095.0,4095.0,3376.0,3423.0,3874.0,-1.28,9.6,2.57,-0.06,-0.62,-0.11,1.0,t
2966.0,2983.0,912.0,4095.0,4095.0,3376.0,3424.0,3871.0,-1.6,9.54,2.86,0.03,-1.25,-0.21,1.0,t
2961.0,2981.0,912.0,4095.0,4095.0,3379.0,3425.0,3878.0,-1.33,9.5,3.02,0.04,-1.21,-0.2,1.0,t
2961.0,2991.0,911.0,4095.0,4095.0,3385.0,3419.0,3879.0,-1.0,9.58,2.99,0.01,-1.29,-0.09,1.0,t
2965.0,2988.0,912.0,4095.0,4095.0,3389.0,3421.0,3865.0,-0.63,9.61,2.94,-0.01,-1.05,-0.14,1.0,t
2971.0,2982.0,913.0,4095.0,4095.0,3383.0,3430.0,3875.0,-0.44,9.48,3.15,-0.13,-0.79,-0.1,1.0,t
2964.0,2991.0,911.0,4095.0,4095.0,3385.0,3427.0,3875.0,-1.05,9.73,2.71,0.02,-1.87,-0.21,1.0,t
2962.0,2986.0,910.0,4095.0,4095.0,3387.0,3425.0,3888.0,0.22,9.8,3.19,-0.01,-1.55,-0.47,1.0,t
2964.0,2981.0,913.0,4095.0,4095.0,3389.0,3433.0,3888.0,-1.47,9.02,3.66,-0.29,-0.74,0.01,1.0,t
2959.0,2978.0,909.0,4095.0,4095.0,3393.0,3437.0,3887.0,0.68,9.93,3.38,0.06,-1.38,-0.36,1.0,t
2963.0,2993.0,906.0,4095.0,4095.0,3390.0,3422.0,3907.0,-0.55,9.15,3.57,-0.26,-0.72,-0.13,1.0,t
2969.0,2992.0,912.0,4095.0,4095.0,3386.0,3427.0,3893.0,0.4,9.59,3.46,-0.05,-1.04,-0.31,1.0,t
2965.0,2993.0,912.0,4095.0,4095.0,3395.0,3434.0,3920.0,0.65,9.27,3.73,-0.19,-0.84,-0.3,1.0,t
2970.0,2992.0,911.0,4095.0,4095.0,3395.0,3426.0,3888.0,0.35,9.39,3.25,-0.19,-0.55,-0.34,1.0,t
2971.0,2977.0,911.0,4095.0,4095.0,3393.0,3431.0,3887.0,-0.27,9.06,3.73,-0.29,-1.05,-0.46,1.0,t
2963.0,2989.0,912.0,4095.0,4095.0,3390.0,3419.0,3887.0,-0.22,9.26,4.13,-0.34,-0.84,-0.36,1.0,t
2961.0,2980.0,912.0,4095.0,4095.0,3397.0,3440.0,3887.0,0.01,9.44,4.15,-0.28,-0.67,-0.35,1.0,t
2979.0,2985.0,903.0,4095.0,4095.0,3393.0,3434.0,3877.0,0.03,9.14,4.76,-0.33,-0.57,-0.3,1.0,t
2975.0,2986.0,910.0,4095.0,4095.0,3392.0,3436.0,3886.0,0.02,9.08,4.64,-0.2,-0.31,-0.28,1.0,t
2970.0,2991.0,898.0,4095.0,4095.0,3403.0,3439.0,3890.0,0.13,9.01,4.61,-0.09,-0.34,-0.31,1.0,t
2960.0,2992.0,902.0,4095.0,4095.0,3391.0,3427.0,3877.0,-0.11,9.35,4.11,-0.12,-0.39,-0.37,1.0,t
2962.0,2989.0,913.0,4095.0,4095.0,3396.0,3430.0,3877.0,-0.25,9.17,4.58,-0.15,-0.51,-0.4,1.0,t
2978.0,2994.0,909.0,4095.0,4095.0,3405.0,3442.0,3889.0,-0.4,9.09,4.73,-0.21,-0.06,-0.26,1.0,t
2973.0,2986.0,902.0,4095.0,4095.0,3408.0,3423.0,3871.0,-1.43,8.85,4.48,-0.31,-0.11,-0.04,1.0,t
2970.0,2993.0,911.0,4095.0,4095.0,3402.0,3426.0,3885.0,-0.03,8.88,5.16,-0.22,-0.76,0.04,1.0,t
2971.0,2982.0,907.0,4095.0,4095.0,3397.0,3433.0,3869.0,1.04,8.77,5.45,-0.17,-0.68,-0.03,1.0,t
2963.0,2993.0,907.0,4095.0,4095.0,3411.0,3440.0,3885.0,1.12,8.8,5.48,-0.1,-0.22,-0.17,1.0,t
2971.0,2995.0,911.0,4095.0,4095.0,3441.0,3437.0,3875.0,-0.24,8.9,4.27,-0.14,0.31,-0.41,1.0,t
2967.0,2990.0,912.0,4095.0,4095.0,3420.0,3440.0,3866.0,-0.52,8.71,4.5,-0.17,-0.31,-0.4,1.0,t
2973.0,2990.0,917.0,4095.0,4095.0,3431.0,3435.0,3875.0,-1.06,8.48,5.28,-0.28,0.05,-0.23,1.0,t
2963.0,2985.0,911.0,4095.0,4095.0,3422.0,3429.0,3881.0,-0.73,8.55,5.41,-0.13,-0.2,-0.22,1.0,t
2963.0,2988.0,903.0,4095.0,4095.0,3429.0,3451.0,3889.0,-0.04,8.93,4.91,-0.24,0.05,-0.17,1.0,t
2977.0,2991.0,913.0,4095.0,4095.0,3426.0,3434.0,3868.0,-0.53,9.41,4.52,-0.4,-0.15,-0.14,1.0,t
2963.0,2992.0,903.0,4095.0,4095.0,3440.0,3433.0,3876.0,0.06,8.29,5.93,-0.47,-0.53,-0.04,1.0,t
2969.0,2989.0,909.0,4095.0,4095.0,3435.0,3442.0,3887.0,-0.1,8.06,6.63,-0.33,-0.1,0.05,1.0,t
2974.0,2999.0,910.0,4095.0,4095.0,3431.0,3442.0,3912.0,-0.26,7.94,6.44,-0.11,-0.05,-0.19,1.0,t
2979.0,3006.0,905.0,4095.0,4095.0,3434.0,3440.0,3893.0,-0.87,8.04,6.07,-0.07,0.12,-0.17,1.0,t
2960.0,2989.0,905.0,4095.0,4095.0,3436.0,3441.0,3886.0,-0.5,8.34,5.57,-0.0,-0.07,-0.28,1.0,t
2962.0,2977.0,901.0,4095.0,4095.0,3430.0,3438.0,3871.0,-0.83,8.14,5.85,-0.1,0.07,-0.22,1.0,t
2960.0,2992.0,903.0,4095.0,4095.0,3440.0,3443.0,3883.0,-0.68,8.28,5.86,-0.01,-0.3,-0.29,1.0,t
2966.0,2987.0,899.0,4095.0,4095.0,3436.0,3443.0,3882.0,-0.63,8.02,5.89,-0.07,0.08,-0.23,1.0,t
2963.0,2975.0,902.0,4095.0,4095.0,3431.0,3438.0,3868.0,-0.7,8.18,5.86,0.1,0.01,-0.4,1.0,t
2965.0,2982.0,914.0,4095.0,4095.0,3429.0,3442.0,3850.0,-0.87,8.23,5.44,0.1,-0.01,-0.45,1.0,t
