hall_1_L,hall_2_L,hall_3_L,flex_t_L,flex_i_L,flex_m_L,flex_r_L,flex_p_L,accel_x_L,accel_y_L,accel_z_L,gyro_x_L,gyro_y_L,gyro_z_L,hand,hall_1_R,hall_2_R,hall_3_R,flex_t_R,flex_i_R,flex_m_R,flex_r_R,flex_p_R,accel_x_R,accel_y_R,accel_z_R,gyro_x_R,gyro_y_R,gyro_z_R,hand,sign
3165.0,1929.0,3146.0,4035.0,2257.0,3103.0,3653.0,2765.0,7.38,3.05,7.14,-0.51,-0.43,-1.05,0.0,935.0,2315.0,930.0,3285.0,4095.0,3731.0,4095.0,3353.0,-3.9,0.51,5.71,-0.21,1.46,0.84,1.0,tired
3120.0,1363.0,3519.0,3908.0,2415.0,2944.0,3407.0,2465.0,11.42,1.42,9.63,-1.32,-0.28,-1.1,0.0,911.0,2921.0,896.0,3239.0,4095.0,3422.0,4095.0,1472.0,-12.54,-1.77,4.68,-2.64,0.11,2.11,1.0,tired
3104.0,923.0,3977.0,3346.0,2930.0,2883.0,3234.0,2400.0,9.09,-0.39,10.93,-1.94,0.07,-1.66,0.0,923.0,3527.0,949.0,3190.0,3871.0,3746.0,4095.0,1274.0,-10.07,-0.68,2.04,-3.14,-2.26,2.26,1.0,tired
3150.0,983.0,4095.0,3232.0,2833.0,2864.0,3212.0,2311.0,7.03,0.63,10.54,-1.18,-0.17,-1.83,0.0,935.0,3624.0,2769.0,2935.0,3843.0,3686.0,4095.0,1190.0,-4.97,-0.21,3.02,-1.76,-1.86,2.58,1.0,tired
3173.0,965.0,1984.0,3507.0,3042.0,2967.0,3254.0,2418.0,4.13,-2.08,10.82,-2.7,0.16,0.1,0.0,930.0,3735.0,4095.0,2637.0,4095.0,3871.0,4095.0,1472.0,-1.82,0.37,4.02,-1.54,-1.17,1.13,1.0,tired
3162.0,997.0,2925.0,3501.0,3071.0,2923.0,3247.0,2415.0,8.86,-1.0,9.06,-0.26,-0.68,0.02,0.0,933.0,3920.0,3570.0,2688.0,4095.0,3632.0,4095.0,1386.0,-4.7,-0.27,5.74,0.59,1.02,0.28,1.0,tired
3156.0,1008.0,2943.0,3430.0,3007.0,2799.0,2832.0,2157.0,7.96,2.1,3.79,2.81,-3.18,-2.19,0.0,933.0,3887.0,3459.0,2703.0,4095.0,3782.0,4095.0,1447.0,-3.88,0.72,3.4,1.65,3.47,1.32,1.0,tired
3153.0,1271.0,2163.0,3360.0,2991.0,2823.0,2992.0,2282.0,7.54,5.41,-0.18,2.71,-3.97,-2.57,0.0,941.0,3823.0,3363.0,2679.0,4095.0,3821.0,4095.0,1633.0,-7.96,9.09,-8.36,1.43,3.81,1.08,1.0,tired
3162.0,2975.0,927.0,3313.0,2977.0,2821.0,3056.0,2375.0,8.42,5.17,-2.5,-0.11,-0.4,0.51,0.0,927.0,3793.0,3326.0,2641.0,4095.0,3759.0,4095.0,1269.0,-10.06,5.61,-10.02,0.12,1.05,-0.66,1.0,tired
3183.0,2545.0,933.0,3392.0,2987.0,2801.0,3071.0,2410.0,6.81,4.37,-2.47,0.17,0.09,0.1,0.0,933.0,3815.0,3397.0,2703.0,4095.0,3893.0,4095.0,2342.0,-4.81,4.31,-6.74,0.03,-0.03,-0.13,1.0,tired
3166.0,2447.0,955.0,3414.0,2957.0,2784.0,3063.0,2386.0,6.64,3.6,-2.15,-0.1,0.16,-0.16,0.0,924.0,3794.0,3374.0,2707.0,4095.0,3905.0,4095.0,2415.0,-5.54,4.17,-7.06,0.01,0.03,0.02,1.0,tired
3184.0,2457.0,961.0,3439.0,2990.0,2811.0,3084.0,2411.0,6.57,3.97,-2.45,-0.06,-0.04,-0.11,0.0,933.0,3792.0,3377.0,2717.0,4095.0,3924.0,4095.0,2471.0,-5.3,3.97,-6.93,-0.08,-0.15,-0.02,1.0,tired
3181.0,2458.0,980.0,3444.0,2987.0,2791.0,3088.0,2416.0,6.5,3.87,-2.14,-0.02,0.02,-0.08,0.0,932.0,3792.0,3376.0,2718.0,4095.0,3936.0,4095.0,2497.0,-5.39,3.73,-6.71,-0.03,-0.02,-0.04,1.0,tired
3163.0,2449.0,976.0,3437.0,2983.0,2781.0,3097.0,2422.0,6.84,3.97,-2.64,0.06,-0.06,-0.12,0.0,934.0,3795.0,3373.0,2725.0,4095.0,3941.0,4095.0,2497.0,-5.48,3.81,-6.67,-0.09,0.01,-0.05,1.0,tired
3185.0,2438.0,987.0,3449.0,2986.0,2795.0,3067.0,2433.0,6.65,3.78,-2.18,0.05,0.03,-0.16,0.0,932.0,3789.0,3370.0,2720.0,4095.0,3952.0,4095.0,2515.0,-5.45,4.02,-6.76,-0.09,-0.04,-0.08,1.0,tired
3175.0,2433.0,1097.0,3468.0,2977.0,2774.0,3088.0,2457.0,6.9,3.95,-2.33,0.04,0.05,-0.14,0.0,925.0,3785.0,3355.0,2734.0,4095.0,3940.0,4095.0,2499.0,-5.54,4.02,-6.77,-0.11,-0.03,-0.06,1.0,tired
3174.0,2429.0,1493.0,3459.0,2969.0,2771.0,3120.0,2465.0,6.71,3.87,-2.26,0.03,0.03,-0.2,0.0,944.0,3782.0,3358.0,2739.0,4095.0,3958.0,4095.0,2545.0,-5.56,3.79,-6.85,-0.06,0.03,-0.07,1.0,tired
3191.0,2434.0,1997.0,3472.0,2967.0,2780.0,3095.0,2470.0,6.59,3.96,-2.22,0.01,0.01,-0.17,0.0,938.0,3792.0,3361.0,2743.0,4095.0,3953.0,4095.0,2559.0,-5.64,3.65,-6.78,-0.04,0.03,-0.1,1.0,tired
3187.0,2413.0,2297.0,3477.0,2982.0,2799.0,3117.0,2480.0,6.7,4.07,-2.38,-0.02,0.02,-0.14,0.0,939.0,3807.0,3344.0,2739.0,4095.0,3965.0,4095.0,2555.0,-5.55,3.91,-6.74,-0.07,-0.01,-0.01,1.0,tired
3179.0,2429.0,2299.0,3487.0,2972.0,2768.0,3105.0,2486.0,6.76,3.97,-2.18,-0.05,0.04,-0.15,0.0,927.0,3789.0,3360.0,2741.0,4095.0,3955.0,4095.0,2559.0,-5.6,3.84,-6.76,-0.1,-0.02,-0.04,1.0,tired
3094.0,2704.0,3088.0,4046.0,2672.0,3119.0,3603.0,3008.0,6.42,-3.33,12.51,0.79,-0.75,-0.3,0.0,1008.0,3286.0,889.0,3462.0,4095.0,3637.0,4095.0,2929.0,-2.71,-4.11,10.01,0.37,0.07,-0.05,1.0,tired
3126.0,2503.0,3195.0,3986.0,2800.0,3111.0,3543.0,2937.0,6.74,-2.12,12.27,0.94,0.31,-0.56,0.0,976.0,3394.0,889.0,3509.0,4095.0,3617.0,4095.0,3331.0,-2.63,-4.42,10.32,1.04,0.99,-0.05,1.0,tired
3111.0,995.0,3821.0,3951.0,2786.0,3046.0,3414.0,2699.0,8.16,-0.82,13.32,0.37,-1.85,-1.35,0.0,950.0,3911.0,896.0,3386.0,4095.0,3855.0,4095.0,3199.0,-12.41,-3.15,5.96,-1.31,4.6,3.53,1.0,tired
3355.0,1009.0,4095.0,3439.0,2998.0,2853.0,3193.0,2469.0,6.03,1.53,2.66,-5.08,-0.09,-1.29,0.0,918.0,3947.0,4095.0,2889.0,4095.0,3483.0,4095.0,2253.0,-4.11,0.55,4.15,-3.87,-2.72,2.21,1.0,tired
3312.0,1014.0,4095.0,3379.0,3131.0,2922.0,3197.0,2475.0,8.28,0.15,7.83,-1.68,0.04,-0.25,0.0,916.0,3942.0,4095.0,2704.0,4095.0,3642.0,4095.0,2345.0,-2.44,1.38,6.51,-1.5,-1.18,0.7,1.0,tired
3306.0,1010.0,4095.0,3405.0,3167.0,2939.0,3205.0,2502.0,8.03,-1.81,10.78,-0.55,0.16,-0.16,0.0,923.0,3976.0,4095.0,2645.0,4095.0,3631.0,4095.0,2591.0,-4.89,2.07,4.66,-0.65,0.72,0.55,1.0,tired
3302.0,1022.0,4095.0,3394.0,3161.0,2923.0,3152.0,2448.0,3.73,-1.16,7.8,1.16,-2.72,-1.12,0.0,917.0,3903.0,3536.0,2710.0,4095.0,3693.0,4095.0,2871.0,-3.16,1.62,5.03,0.54,1.86,-0.02,1.0,tired
3307.0,2275.0,4095.0,3350.0,3111.0,2915.0,3094.0,2409.0,7.47,2.01,-0.42,3.69,-3.74,-1.69,0.0,921.0,3905.0,3543.0,2698.0,4095.0,3749.0,4095.0,2716.0,-2.73,-0.33,1.14,1.59,5.1,0.91,1.0,tired
3319.0,3506.0,4095.0,3442.0,3119.0,2945.0,3129.0,2499.0,5.62,5.96,-1.49,-0.08,-1.01,0.04,0.0,909.0,3911.0,3376.0,2666.0,4095.0,3781.0,4095.0,2596.0,-6.17,8.23,-13.77,1.07,1.65,0.59,1.0,tired
3339.0,3655.0,4095.0,3450.0,3086.0,2927.0,3162.0,2501.0,6.35,3.59,-2.73,-0.07,0.18,-0.21,0.0,919.0,3943.0,3344.0,2710.0,4095.0,3827.0,4095.0,3047.0,-6.18,3.31,-7.23,0.01,0.26,-0.16,1.0,tired
3324.0,3698.0,4095.0,3462.0,3092.0,2929.0,3167.0,2506.0,5.11,3.61,-2.45,0.04,0.11,-0.15,0.0,919.0,3929.0,3346.0,2702.0,4095.0,3871.0,4095.0,2927.0,-5.72,3.31,-7.29,0.04,-0.14,0.05,1.0,tired
3342.0,3692.0,4095.0,3457.0,3059.0,2917.0,3169.0,2518.0,6.27,3.99,-3.5,0.03,-0.08,-0.14,0.0,916.0,3921.0,3343.0,2719.0,4095.0,3869.0,4095.0,2929.0,-5.63,3.68,-7.68,-0.16,-0.14,0.08,1.0,tired
3351.0,3723.0,4095.0,3440.0,3066.0,2917.0,3150.0,2545.0,5.6,3.57,-2.78,-0.06,0.12,-0.09,0.0,928.0,3922.0,3345.0,2709.0,4095.0,3888.0,4095.0,2911.0,-5.75,3.62,-6.96,-0.1,0.04,-0.11,1.0,tired
3330.0,3741.0,4095.0,3452.0,3046.0,2902.0,3137.0,2585.0,5.91,3.88,-2.91,0.0,0.03,-0.24,0.0,925.0,3933.0,3340.0,2734.0,4095.0,3887.0,4095.0,2929.0,-5.77,3.56,-7.01,-0.08,0.1,-0.07,1.0,tired
3366.0,3781.0,4095.0,3440.0,3059.0,2923.0,3149.0,2583.0,5.87,3.96,-3.29,0.03,0.04,-0.18,0.0,917.0,3935.0,3339.0,2732.0,4095.0,3903.0,4095.0,2974.0,-5.92,3.39,-6.56,-0.1,-0.01,-0.07,1.0,tired
3344.0,3728.0,4095.0,3471.0,3071.0,2903.0,3171.0,2559.0,6.2,3.86,-3.04,0.01,0.03,-0.16,0.0,925.0,3929.0,3319.0,2736.0,4095.0,3887.0,4095.0,3013.0,-5.86,3.66,-7.11,-0.04,0.04,-0.08,1.0,tired
3344.0,3749.0,4095.0,3447.0,3071.0,2919.0,3186.0,2583.0,5.82,3.91,-2.83,0.03,-0.01,-0.14,0.0,922.0,3938.0,3341.0,2747.0,4095.0,3905.0,4095.0,2981.0,-5.92,3.37,-6.72,-0.04,-0.02,-0.03,1.0,tired
3344.0,3773.0,4095.0,3456.0,3085.0,2904.0,3190.0,2591.0,6.07,3.81,-2.64,-0.05,-0.01,-0.12,0.0,923.0,3919.0,3325.0,2747.0,4095.0,3898.0,4095.0,3024.0,-5.82,3.45,-6.66,-0.03,0.06,-0.07,1.0,tired
3342.0,3792.0,4095.0,3473.0,3062.0,2909.0,3195.0,2559.0,6.05,3.89,-3.03,-0.03,0.04,-0.12,0.0,920.0,3946.0,3339.0,2753.0,4095.0,3904.0,4095.0,3038.0,-5.64,3.4,-6.34,-0.03,0.01,0.01,1.0,tired
3351.0,3786.0,4095.0,3483.0,3056.0,2896.0,3197.0,2581.0,6.05,3.67,-2.91,-0.0,0.03,-0.14,0.0,917.0,3925.0,3330.0,2751.0,4095.0,3906.0,4095.0,3069.0,-5.88,3.48,-6.78,-0.09,-0.04,-0.07,1.0,tired
3278.0,1008.0,3230.0,3301.0,2841.0,3230.0,4095.0,3248.0,10.91,-1.38,5.2,-2.61,0.43,-3.47,0.0,910.0,1329.0,3671.0,3171.0,4095.0,3682.0,4095.0,3088.0,-6.18,0.34,0.33,-1.5,-0.77,3.22,1.0,tired
3328.0,1023.0,4095.0,3408.0,3037.0,2944.0,3326.0,2592.0,6.18,-1.81,13.45,-1.41,-0.14,-0.15,0.0,926.0,2064.0,3579.0,2795.0,4095.0,3917.0,4095.0,2663.0,-3.91,1.48,4.38,-1.57,0.1,1.01,1.0,tired
3326.0,1023.0,4007.0,3353.0,3026.0,2947.0,3341.0,2559.0,9.42,0.98,8.86,-0.18,-0.36,-0.14,0.0,933.0,2195.0,3523.0,2826.0,4095.0,3835.0,4095.0,2963.0,-5.95,1.07,9.7,-0.66,0.25,-0.06,1.0,tired
3317.0,1057.0,3841.0,3418.0,3068.0,2960.0,3381.0,2613.0,7.07,-0.48,11.24,0.32,-0.14,-0.15,0.0,944.0,3166.0,3462.0,2866.0,4095.0,3924.0,4095.0,2985.0,-5.91,1.71,5.65,0.34,0.77,0.1,1.0,tired
3330.0,1095.0,4046.0,3322.0,3097.0,2958.0,3351.0,2603.0,2.82,-2.38,8.07,2.11,-3.09,-1.57,0.0,925.0,3312.0,3445.0,2835.0,4095.0,3920.0,4095.0,2899.0,-2.06,1.84,5.25,0.5,2.49,0.76,1.0,tired
3343.0,1616.0,4095.0,3248.0,2850.0,2910.0,3285.0,2417.0,8.88,6.53,-7.16,4.42,-4.7,-1.74,0.0,938.0,3457.0,3387.0,2715.0,4095.0,3795.0,4095.0,2853.0,-4.74,1.46,-2.2,1.54,4.66,1.45,1.0,tired
3346.0,2442.0,4095.0,3292.0,2898.0,2947.0,3438.0,2543.0,9.27,8.04,-3.91,0.49,-1.2,-0.15,0.0,942.0,3583.0,3262.0,2669.0,4095.0,3813.0,4095.0,2707.0,-8.06,8.57,-10.45,2.71,4.53,2.33,1.0,tired
3356.0,2258.0,4095.0,3286.0,2951.0,2976.0,3471.0,2505.0,9.55,4.37,-1.03,0.31,-0.77,-0.29,0.0,939.0,3760.0,3202.0,2615.0,4095.0,3822.0,4095.0,3147.0,-16.32,5.53,-7.26,0.8,-1.79,-0.81,1.0,tired
3359.0,2267.0,4095.0,3298.0,2944.0,2979.0,3472.0,2527.0,6.74,4.71,-3.18,-0.07,0.34,-0.14,0.0,944.0,3745.0,3206.0,2719.0,4095.0,3920.0,4095.0,3123.0,-3.28,4.9,-5.28,0.04,-0.15,-0.52,1.0,tired
3362.0,1930.0,4095.0,3317.0,2935.0,2970.0,3471.0,2559.0,5.28,4.11,-2.61,0.09,-0.12,-0.15,0.0,944.0,3760.0,3219.0,2734.0,4095.0,3926.0,4095.0,3167.0,-6.51,4.67,-7.28,0.01,0.02,-0.08,1.0,tired
3371.0,1914.0,4095.0,3326.0,2938.0,2983.0,3443.0,2601.0,6.98,3.82,-2.65,0.01,-0.17,-0.24,0.0,939.0,3745.0,3218.0,2739.0,4095.0,3934.0,4095.0,3232.0,-5.0,4.15,-6.51,-0.05,0.07,-0.09,1.0,tired
3367.0,1931.0,4095.0,3318.0,2944.0,2967.0,3456.0,2603.0,6.08,4.18,-2.69,0.05,-0.02,-0.16,0.0,940.0,3735.0,3209.0,2743.0,4095.0,3937.0,4095.0,3273.0,-5.01,4.32,-6.37,-0.02,0.05,-0.13,1.0,tired
3366.0,1925.0,4095.0,3344.0,2931.0,2975.0,3456.0,2613.0,6.11,4.02,-2.52,0.06,0.03,-0.07,0.0,935.0,3754.0,3198.0,2745.0,4095.0,3952.0,4095.0,3249.0,-5.6,4.32,-6.56,-0.07,-0.01,-0.15,1.0,tired
3373.0,1937.0,4095.0,3350.0,2933.0,2992.0,3461.0,2621.0,6.2,4.0,-2.47,0.09,0.09,-0.14,0.0,941.0,3738.0,3207.0,2746.0,4095.0,3943.0,4095.0,3227.0,-5.63,3.9,-6.39,-0.06,-0.01,-0.11,1.0,tired
3369.0,1921.0,4095.0,3359.0,2935.0,2974.0,3457.0,2658.0,6.1,3.99,-2.57,0.04,0.09,-0.22,0.0,944.0,3760.0,3195.0,2752.0,4095.0,3933.0,4095.0,3357.0,-5.4,4.14,-6.96,-0.03,0.0,-0.06,1.0,tired
3371.0,1920.0,4095.0,3384.0,2929.0,2989.0,3478.0,2657.0,6.0,4.04,-2.67,0.05,0.01,-0.12,0.0,941.0,3741.0,3189.0,2757.0,4095.0,3952.0,4095.0,3343.0,-5.08,4.07,-7.05,-0.09,0.06,-0.1,1.0,tired
3380.0,1920.0,4095.0,3380.0,2964.0,3013.0,3504.0,2649.0,6.53,4.42,-3.21,0.07,0.03,-0.21,0.0,934.0,3749.0,3202.0,2755.0,4095.0,3952.0,4095.0,3344.0,-5.29,4.03,-6.87,0.0,0.1,0.01,1.0,tired
3373.0,1936.0,4095.0,3453.0,2973.0,3008.0,3475.0,2624.0,5.44,4.1,-2.24,-0.01,0.06,-0.2,0.0,944.0,3765.0,3187.0,2755.0,4095.0,3950.0,4095.0,3378.0,-5.11,4.03,-6.82,-0.1,0.01,-0.03,1.0,tired
3385.0,1904.0,4095.0,3450.0,2961.0,3026.0,3473.0,2641.0,5.96,4.09,-2.57,0.06,0.05,-0.17,0.0,941.0,3733.0,3194.0,2759.0,4095.0,3974.0,4095.0,3380.0,-5.38,4.12,-7.04,-0.13,-0.03,-0.06,1.0,tired
3370.0,1933.0,4095.0,3438.0,2964.0,3029.0,3456.0,2619.0,6.04,4.27,-2.61,0.08,-0.02,-0.15,0.0,949.0,3767.0,3189.0,2733.0,4095.0,3966.0,4095.0,3379.0,-5.26,4.02,-7.56,-0.08,-0.13,-0.06,1.0,tired
3269.0,1008.0,3932.0,3373.0,2911.0,2874.0,3246.0,2648.0,8.82,0.76,9.54,0.16,-0.08,-0.19,0.0,921.0,3583.0,3733.0,2923.0,4095.0,3952.0,4095.0,3739.0,-7.64,0.53,6.12,0.04,-0.06,0.0,1.0,tired
3275.0,979.0,3899.0,3369.0,2899.0,2848.0,3269.0,2659.0,8.04,0.63,9.68,0.04,0.0,-0.13,0.0,932.0,3612.0,3749.0,2927.0,4095.0,3959.0,4095.0,3728.0,-7.25,0.89,5.93,-0.02,0.01,0.02,1.0,tired
3267.0,991.0,3854.0,3356.0,2891.0,2848.0,3275.0,2658.0,7.47,0.57,9.17,0.11,-0.42,-0.26,0.0,925.0,3600.0,3721.0,2928.0,4095.0,3968.0,4095.0,3733.0,-6.81,0.68,4.97,0.26,0.88,0.27,1.0,tired
3280.0,983.0,3623.0,3334.0,2845.0,2801.0,3002.0,2646.0,9.62,1.76,7.63,0.91,-0.94,-0.66,0.0,918.0,3677.0,3703.0,2925.0,4095.0,3973.0,4095.0,3751.0,-7.61,1.41,4.06,0.46,1.24,0.16,1.0,tired
3277.0,971.0,3713.0,3328.0,2875.0,2828.0,3125.0,2672.0,6.37,1.28,6.57,1.14,-1.19,-0.31,0.0,927.0,3687.0,3729.0,2913.0,4095.0,4001.0,4095.0,3666.0,-9.05,2.23,-1.43,0.95,3.15,1.27,1.0,tired
3271.0,1035.0,4095.0,3309.0,2865.0,2832.0,3280.0,2661.0,7.08,7.01,-1.01,1.16,-2.68,-1.08,0.0,922.0,3681.0,3600.0,2901.0,4095.0,4009.0,4095.0,3473.0,-7.38,4.67,-4.3,1.01,2.74,2.14,1.0,tired
3248.0,1168.0,4095.0,3286.0,2849.0,2818.0,3301.0,2595.0,10.32,5.04,-2.15,0.21,-1.18,-0.44,0.0,912.0,3679.0,3329.0,2826.0,4095.0,3893.0,4095.0,3331.0,-10.44,5.66,-9.13,0.56,-0.75,0.28,1.0,tired
3278.0,1177.0,4095.0,3326.0,2882.0,2877.0,3297.0,2631.0,5.83,4.09,-1.99,-0.23,0.28,0.11,0.0,914.0,3755.0,3337.0,2895.0,4095.0,4016.0,4095.0,3312.0,-5.82,5.41,-7.42,-0.02,0.05,-0.12,1.0,tired
3281.0,1196.0,4095.0,3344.0,2896.0,2871.0,3328.0,2669.0,6.77,3.98,-1.88,0.02,0.11,-0.24,0.0,915.0,3763.0,3330.0,2887.0,4095.0,4039.0,4095.0,3386.0,-5.42,4.05,-6.32,-0.0,0.05,-0.11,1.0,tired
3290.0,1183.0,4095.0,3342.0,2890.0,2878.0,3346.0,2667.0,7.19,4.17,-1.84,0.08,0.08,-0.19,0.0,925.0,3760.0,3328.0,2886.0,4095.0,4043.0,4095.0,3398.0,-5.85,4.52,-6.28,-0.0,-0.01,-0.1,1.0,tired
3280.0,1210.0,4095.0,3356.0,2890.0,2895.0,3343.0,2681.0,7.2,4.43,-1.84,0.05,0.02,-0.18,0.0,917.0,3747.0,3325.0,2901.0,4095.0,4048.0,4095.0,3472.0,-5.5,4.56,-6.48,-0.07,0.01,-0.1,1.0,tired
3289.0,1242.0,4095.0,3340.0,2901.0,2892.0,3313.0,2677.0,7.13,3.82,-1.36,-0.02,0.12,-0.11,0.0,915.0,3766.0,3344.0,2912.0,4095.0,4035.0,4095.0,3453.0,-5.5,4.36,-6.28,-0.09,0.02,-0.03,1.0,tired
3296.0,1239.0,4095.0,3353.0,2922.0,2898.0,3336.0,2681.0,7.3,4.2,-1.63,0.08,0.13,-0.06,0.0,926.0,3770.0,3335.0,2912.0,4095.0,4039.0,4095.0,3447.0,-5.77,4.55,-6.72,-0.02,0.01,-0.01,1.0,tired
3281.0,1276.0,4095.0,3365.0,2925.0,2885.0,3337.0,2672.0,6.76,4.17,-1.52,0.11,-0.01,-0.07,0.0,914.0,3756.0,3329.0,2928.0,4095.0,4063.0,4095.0,3456.0,-5.47,4.44,-6.41,-0.07,-0.05,-0.05,1.0,tired
3271.0,1255.0,4095.0,3371.0,2937.0,2896.0,3349.0,2690.0,7.0,4.2,-1.7,0.09,-0.04,-0.14,0.0,922.0,3763.0,3343.0,2922.0,4095.0,4051.0,4095.0,3497.0,-5.66,4.48,-6.37,-0.07,0.03,-0.02,1.0,tired
3255.0,1232.0,4095.0,3347.0,2909.0,2910.0,3327.0,2704.0,7.17,4.2,-1.64,0.01,0.08,-0.06,0.0,923.0,3755.0,3337.0,2933.0,4095.0,4045.0,4095.0,3422.0,-5.28,4.3,-6.26,-0.13,0.12,-0.13,1.0,tired
3283.0,1243.0,4095.0,3375.0,2933.0,2928.0,3333.0,2697.0,6.95,4.16,-1.49,0.03,0.02,-0.17,0.0,915.0,3792.0,3328.0,2939.0,4095.0,4043.0,4095.0,3440.0,-5.71,4.27,-6.78,-0.04,0.05,-0.06,1.0,tired
3265.0,1232.0,4095.0,3371.0,2943.0,2924.0,3344.0,2703.0,6.9,4.26,-1.68,0.05,-0.03,-0.22,0.0,912.0,3791.0,3299.0,2940.0,4095.0,4042.0,4095.0,3465.0,-5.43,4.15,-6.44,-0.03,0.05,-0.1,1.0,tired
3275.0,1232.0,4095.0,3362.0,2931.0,2929.0,3357.0,2698.0,7.07,4.29,-1.85,0.04,-0.03,-0.2,0.0,911.0,3792.0,3321.0,2935.0,4095.0,4047.0,4095.0,3450.0,-5.32,4.21,-6.52,-0.05,0.0,-0.12,1.0,tired
3262.0,1232.0,4095.0,3376.0,2943.0,2911.0,3361.0,2688.0,6.87,4.41,-1.92,0.1,0.04,-0.21,0.0,906.0,3802.0,3329.0,2934.0,4095.0,4032.0,4095.0,3461.0,-5.64,3.95,-6.66,-0.06,0.04,-0.11,1.0,tired
3090.0,995.0,4095.0,3421.0,2832.0,2673.0,3083.0,2589.0,7.82,1.16,9.82,-0.01,0.03,-0.06,0.0,945.0,3638.0,3323.0,2796.0,4095.0,4047.0,4095.0,3503.0,-6.64,0.79,6.14,0.07,-0.12,-0.03,1.0,tired
3071.0,1003.0,4095.0,3454.0,2879.0,2660.0,3046.0,2603.0,8.21,1.54,9.8,0.01,0.15,-0.24,0.0,946.0,3663.0,3327.0,2782.0,4095.0,4069.0,4095.0,3463.0,-7.57,1.3,6.05,-0.07,-0.08,-0.05,1.0,tired
3071.0,1006.0,4095.0,3475.0,2861.0,2597.0,2987.0,2581.0,8.27,1.04,10.44,0.01,0.07,-0.11,0.0,942.0,3655.0,3330.0,2790.0,4095.0,4087.0,4095.0,3483.0,-7.38,1.03,6.17,-0.12,-0.07,-0.1,1.0,tired
3088.0,1005.0,4095.0,3467.0,3031.0,2559.0,2999.0,2611.0,6.68,0.76,8.8,0.81,-0.72,-0.12,0.0,941.0,3663.0,3343.0,2798.0,4095.0,4095.0,4095.0,3485.0,-6.19,0.6,6.37,0.1,0.33,-0.05,1.0,tired
3087.0,1023.0,4095.0,3440.0,3088.0,2559.0,2943.0,2521.0,7.82,2.46,7.96,1.26,-1.58,-0.92,0.0,938.0,3696.0,3344.0,2794.0,4095.0,4095.0,4095.0,3488.0,-5.96,1.3,4.59,0.75,1.39,0.34,1.0,tired
3089.0,1048.0,2267.0,3459.0,3066.0,2646.0,3111.0,2559.0,6.39,4.51,1.56,1.71,-3.56,-1.57,0.0,944.0,3760.0,3319.0,2802.0,4095.0,4095.0,4095.0,3428.0,-6.89,3.01,-0.26,0.61,2.69,0.92,1.0,tired
3101.0,1498.0,948.0,3408.0,3071.0,2679.0,3121.0,2626.0,7.84,5.81,-1.53,1.22,-3.22,-0.69,0.0,940.0,3717.0,3280.0,2803.0,4095.0,4095.0,4095.0,3527.0,-6.17,4.4,-4.1,0.74,4.14,1.93,1.0,tired
3107.0,1615.0,4095.0,3459.0,3151.0,2771.0,3178.0,2623.0,4.25,5.66,-2.29,-0.11,0.26,0.31,0.0,933.0,3703.0,3222.0,2843.0,4095.0,4095.0,4095.0,3615.0,-3.78,5.86,-5.42,0.24,-0.08,-0.35,1.0,tired
3103.0,1616.0,4095.0,3456.0,3159.0,2774.0,3184.0,2705.0,7.27,4.12,-1.85,-0.13,0.04,0.01,0.0,933.0,3702.0,3213.0,2847.0,4095.0,4095.0,4095.0,3627.0,-6.67,5.02,-6.73,-0.1,0.04,-0.04,1.0,tired
3102.0,1637.0,4095.0,3439.0,3171.0,2799.0,3185.0,2738.0,6.27,4.1,-2.0,-0.08,0.07,-0.03,0.0,942.0,3696.0,3216.0,2853.0,4095.0,4095.0,4095.0,3641.0,-5.99,4.58,-6.8,-0.03,0.04,-0.06,1.0,tired
3087.0,1619.0,4095.0,3455.0,3170.0,2793.0,3187.0,2768.0,6.61,4.59,-1.94,0.06,0.04,-0.15,0.0,938.0,3692.0,3216.0,2864.0,4095.0,4095.0,4095.0,3602.0,-5.72,4.36,-6.35,-0.08,-0.05,-0.06,1.0,tired
3103.0,1642.0,4095.0,3449.0,3163.0,2799.0,3184.0,2769.0,6.46,4.36,-1.75,0.06,-0.0,-0.16,0.0,935.0,3691.0,3217.0,2855.0,4095.0,4095.0,4095.0,3650.0,-5.56,4.3,-6.29,-0.05,0.11,-0.1,1.0,tired
3105.0,1642.0,4095.0,3449.0,3168.0,2797.0,3180.0,2765.0,6.59,4.63,-1.68,0.1,-0.01,-0.19,0.0,927.0,3678.0,3213.0,2864.0,4095.0,4095.0,4095.0,3664.0,-5.75,4.31,-6.39,-0.08,-0.01,-0.08,1.0,tired
3111.0,1618.0,4095.0,3438.0,3181.0,2787.0,3182.0,2786.0,6.64,4.52,-1.76,0.04,0.07,-0.14,0.0,941.0,3673.0,3203.0,2858.0,4095.0,4095.0,4095.0,3583.0,-5.82,4.2,-6.62,-0.08,-0.0,-0.06,1.0,tired
3088.0,1630.0,4095.0,3426.0,3167.0,2795.0,3185.0,2786.0,6.7,4.4,-1.85,0.06,-0.02,-0.16,0.0,934.0,3686.0,3216.0,2862.0,4095.0,4095.0,4095.0,3509.0,-5.81,4.21,-6.78,-0.07,0.02,-0.09,1.0,tired
3099.0,1634.0,4095.0,3439.0,3157.0,2803.0,3171.0,2786.0,6.6,4.54,-1.91,0.06,0.01,-0.19,0.0,931.0,3690.0,3207.0,2861.0,4095.0,4095.0,4095.0,3527.0,-5.86,4.15,-6.62,-0.05,0.09,-0.04,1.0,tired
3101.0,1622.0,4095.0,3449.0,3163.0,2797.0,3177.0,2800.0,6.66,4.53,-1.96,0.03,-0.04,-0.16,0.0,929.0,3667.0,3206.0,2864.0,4095.0,4095.0,4095.0,3550.0,-5.71,4.17,-6.56,-0.08,-0.01,-0.04,1.0,tired
3089.0,1646.0,4095.0,3445.0,3178.0,2796.0,3178.0,2791.0,6.65,4.38,-1.74,0.02,0.02,-0.14,0.0,943.0,3683.0,3207.0,2860.0,4095.0,4095.0,4095.0,3509.0,-5.82,4.18,-6.68,-0.03,-0.02,-0.04,1.0,tired
3115.0,1626.0,4095.0,3440.0,3167.0,2806.0,3184.0,2798.0,6.75,4.34,-1.88,0.08,-0.03,-0.17,0.0,934.0,3679.0,3215.0,2857.0,4095.0,4095.0,4095.0,3583.0,-5.71,4.06,-6.62,-0.02,0.08,-0.04,1.0,tired
3099.0,1685.0,4095.0,3456.0,3164.0,2802.0,3161.0,2796.0,6.6,4.56,-1.96,0.03,-0.02,-0.22,0.0,930.0,3687.0,3216.0,2855.0,4095.0,4095.0,4095.0,3525.0,-5.54,4.14,-6.53,-0.05,0.01,0.0,1.0,tired
3137.0,970.0,4095.0,3429.0,2974.0,2795.0,3134.0,2734.0,8.77,2.04,9.58,-0.3,-0.03,0.03,0.0,911.0,3876.0,3618.0,2700.0,4095.0,4000.0,4095.0,3628.0,-7.24,2.09,5.66,-0.4,-0.42,-0.09,1.0,tired
3140.0,994.0,4095.0,3397.0,3002.0,2802.0,3152.0,2738.0,8.34,1.35,9.65,-0.27,0.24,-0.08,0.0,896.0,3875.0,3550.0,2723.0,4095.0,4026.0,4095.0,3685.0,-8.05,2.24,5.02,-0.01,-0.31,-0.12,1.0,tired
3104.0,1104.0,4095.0,3397.0,2947.0,2701.0,3024.0,2688.0,7.39,1.26,9.17,0.22,-0.21,-0.32,0.0,903.0,3873.0,3550.0,2737.0,4095.0,4036.0,4095.0,3719.0,-5.69,2.22,5.59,0.32,0.43,-0.04,1.0,tired
3119.0,1265.0,4095.0,3377.0,2928.0,2703.0,3015.0,2610.0,7.78,1.25,9.09,0.7,-0.81,-0.38,0.0,900.0,3885.0,3555.0,2725.0,4095.0,4017.0,4095.0,3744.0,-7.02,2.65,4.4,0.32,1.28,-0.05,1.0,tired
3130.0,1439.0,4095.0,3387.0,2961.0,2749.0,3070.0,2634.0,7.14,2.91,6.21,0.79,-1.69,-0.42,0.0,895.0,3884.0,3525.0,2749.0,4095.0,4039.0,4095.0,3755.0,-7.87,2.4,3.75,0.38,0.8,-0.31,1.0,tired
3099.0,1424.0,4095.0,3327.0,2983.0,2771.0,3104.0,2615.0,7.55,3.31,2.57,1.04,-2.51,-0.87,0.0,912.0,3879.0,3403.0,2752.0,4095.0,4046.0,4095.0,3344.0,-8.43,4.83,-7.5,1.16,3.33,1.18,1.0,tired
3111.0,1428.0,4095.0,3296.0,2969.0,2790.0,3135.0,2583.0,9.59,5.42,-2.75,1.19,-3.09,-1.36,0.0,905.0,3877.0,3312.0,2627.0,4095.0,3977.0,4095.0,3376.0,-14.37,4.57,-10.99,1.02,0.18,0.26,1.0,tired
3107.0,1602.0,4095.0,3346.0,3086.0,2847.0,3169.0,2690.0,5.2,4.94,-3.51,-0.11,0.37,0.15,0.0,918.0,3871.0,3301.0,2722.0,4095.0,3981.0,4095.0,3365.0,-4.29,3.26,-4.98,0.1,-0.29,-0.06,1.0,tired
3114.0,1607.0,4095.0,3344.0,3088.0,2851.0,3189.0,2682.0,5.71,3.73,-2.91,-0.01,0.2,0.01,0.0,922.0,3874.0,3293.0,2763.0,4095.0,4015.0,4095.0,3447.0,-4.93,3.49,-6.95,-0.15,-0.06,-0.04,1.0,tired
3110.0,1602.0,4095.0,3370.0,3103.0,2850.0,3183.0,2693.0,5.74,4.22,-2.85,0.07,0.06,-0.08,0.0,912.0,3847.0,3290.0,2768.0,4095.0,4015.0,4095.0,3451.0,-5.23,3.46,-7.16,-0.05,-0.1,-0.08,1.0,tired
3127.0,1611.0,4095.0,3367.0,3104.0,2842.0,3194.0,2675.0,6.26,4.36,-3.06,0.13,0.23,-0.06,0.0,912.0,3873.0,3278.0,2770.0,4095.0,4044.0,4095.0,3451.0,-5.29,3.65,-7.14,-0.05,-0.04,-0.07,1.0,tired
3117.0,1603.0,4095.0,3363.0,3071.0,2857.0,3173.0,2685.0,5.83,3.94,-2.52,0.06,-0.0,-0.09,0.0,912.0,3857.0,3287.0,2768.0,4095.0,4037.0,4095.0,3498.0,-5.53,3.62,-7.34,-0.11,0.02,0.05,1.0,tired
3105.0,1614.0,4095.0,3382.0,3071.0,2851.0,3165.0,2700.0,5.71,4.13,-2.35,0.02,0.05,-0.07,0.0,922.0,3859.0,3287.0,2777.0,4095.0,4022.0,4095.0,3472.0,-5.29,3.36,-7.03,-0.1,-0.07,-0.03,1.0,tired
3115.0,1606.0,4095.0,3354.0,3089.0,2842.0,3194.0,2711.0,6.16,4.1,-2.75,0.03,-0.01,-0.11,0.0,919.0,3856.0,3286.0,2783.0,4095.0,4038.0,4095.0,3376.0,-5.35,3.59,-7.2,-0.07,-0.03,-0.0,1.0,tired
3115.0,1594.0,4095.0,3357.0,3083.0,2859.0,3190.0,2718.0,5.93,4.11,-2.78,-0.01,-0.04,-0.14,0.0,918.0,3856.0,3282.0,2772.0,4095.0,4029.0,4095.0,3498.0,-5.53,3.47,-7.36,-0.05,-0.02,-0.07,1.0,tired
3100.0,1607.0,4095.0,3346.0,3105.0,2848.0,3183.0,2719.0,6.02,4.06,-2.75,0.05,-0.03,-0.14,0.0,921.0,3861.0,3274.0,2778.0,4095.0,4031.0,4095.0,3518.0,-5.4,3.53,-7.31,-0.05,0.06,-0.05,1.0,tired
3119.0,1599.0,4095.0,3361.0,3088.0,2833.0,3197.0,2704.0,5.86,3.93,-2.5,0.05,0.01,-0.18,0.0,917.0,3856.0,3293.0,2791.0,4095.0,4047.0,4095.0,3531.0,-5.43,3.4,-7.2,-0.07,0.02,-0.03,1.0,tired
3105.0,1602.0,4095.0,3359.0,3088.0,2851.0,3198.0,2711.0,5.94,4.0,-2.6,0.04,0.03,-0.14,0.0,912.0,3846.0,3282.0,2803.0,4095.0,4049.0,4095.0,3535.0,-5.27,3.28,-7.28,-0.1,0.01,-0.1,1.0,tired
3115.0,1597.0,4095.0,3378.0,3110.0,2869.0,3200.0,2720.0,6.06,3.9,-2.52,-0.01,0.04,-0.17,0.0,926.0,3856.0,3281.0,2799.0,4095.0,4048.0,4095.0,3539.0,-5.52,3.34,-7.27,-0.06,-0.03,-0.1,1.0,tired
3114.0,1621.0,4095.0,3374.0,3104.0,2865.0,3203.0,2706.0,6.05,4.01,-2.6,0.04,-0.02,-0.21,0.0,919.0,3845.0,3299.0,2801.0,4095.0,4018.0,4095.0,3513.0,-5.3,3.31,-7.15,-0.09,0.02,-0.04,1.0,tired
3139.0,924.0,4095.0,3291.0,2279.0,2733.0,3200.0,2608.0,7.84,0.25,11.93,0.36,-0.15,-0.09,0.0,3695.0,3697.0,3420.0,2645.0,4095.0,3997.0,4095.0,3824.0,-6.91,1.57,6.7,-0.71,0.34,0.1,1.0,tired
3153.0,923.0,4095.0,3327.0,2361.0,2729.0,3238.0,2625.0,6.35,0.96,10.18,0.05,-0.04,-0.1,0.0,3849.0,3667.0,3308.0,2681.0,4095.0,4002.0,4095.0,3825.0,-6.02,1.48,6.41,-0.15,0.01,-0.02,1.0,tired
3135.0,917.0,4095.0,3327.0,2288.0,2700.0,3163.0,2619.0,7.29,0.76,9.87,0.6,-0.97,-0.27,0.0,3859.0,3685.0,3300.0,2672.0,4095.0,3984.0,4095.0,3792.0,-7.27,1.65,5.05,0.51,1.32,0.26,1.0,tired
3162.0,912.0,4095.0,3309.0,2729.0,2690.0,3083.0,2530.0,9.4,2.73,7.34,0.6,-0.8,0.07,0.0,3865.0,3717.0,3306.0,2677.0,4095.0,3984.0,4095.0,3803.0,-7.68,2.06,2.9,0.46,1.23,-0.03,1.0,tired
3144.0,905.0,4095.0,3295.0,2727.0,2681.0,3090.0,2525.0,8.16,2.71,4.87,0.42,-1.66,-0.26,0.0,3866.0,3726.0,3283.0,2682.0,4095.0,3984.0,4095.0,3798.0,-7.92,1.94,2.32,0.24,1.84,-0.12,1.0,tired
3145.0,912.0,4095.0,3254.0,2733.0,2690.0,3115.0,2526.0,7.23,2.28,2.3,0.67,-2.82,-0.86,0.0,3885.0,3725.0,3277.0,2677.0,4095.0,3978.0,4095.0,3268.0,-9.76,2.46,-5.11,1.07,3.16,1.2,1.0,tired
3152.0,943.0,4095.0,3375.0,2847.0,2750.0,3233.0,2893.0,8.16,6.41,-2.79,0.71,-1.26,-1.09,0.0,3867.0,3728.0,3266.0,2675.0,4095.0,3996.0,4095.0,3423.0,-7.35,5.99,-6.42,0.99,1.94,1.32,1.0,tired
3193.0,1006.0,4095.0,3393.0,2873.0,2773.0,3206.0,2943.0,8.49,4.64,-2.01,0.35,-0.6,-0.63,0.0,3901.0,3724.0,3240.0,2674.0,4095.0,3968.0,4095.0,3483.0,-6.71,4.68,-8.78,0.42,-1.12,-0.19,1.0,tired
3150.0,942.0,4095.0,3399.0,2842.0,2783.0,3181.0,2858.0,6.96,5.3,-3.5,0.09,0.47,-0.1,0.0,3889.0,3728.0,3248.0,2699.0,4095.0,3963.0,4095.0,3422.0,-6.07,3.22,-6.79,0.05,-0.02,0.05,1.0,tired
3120.0,940.0,4095.0,3408.0,2845.0,2787.0,3185.0,2704.0,6.15,4.2,-1.85,0.03,-0.19,0.06,0.0,3883.0,3711.0,3250.0,2703.0,4095.0,3967.0,4095.0,3409.0,-6.34,3.34,-6.83,-0.06,0.0,0.02,1.0,tired
3143.0,949.0,4095.0,3408.0,2891.0,2794.0,3216.0,2788.0,6.31,4.19,-2.21,0.01,-0.09,-0.07,0.0,3874.0,3717.0,3246.0,2698.0,4095.0,3973.0,4095.0,3398.0,-5.86,3.04,-6.59,-0.06,-0.05,-0.01,1.0,tired
3136.0,938.0,4095.0,3414.0,2881.0,2803.0,3206.0,2794.0,6.07,4.29,-2.2,-0.01,0.06,-0.13,0.0,3895.0,3725.0,3232.0,2711.0,4095.0,3974.0,4095.0,3429.0,-6.09,3.1,-6.51,-0.02,0.0,-0.03,1.0,tired
3143.0,960.0,4095.0,3409.0,2885.0,2803.0,3209.0,2783.0,6.33,4.29,-2.14,-0.01,0.01,-0.17,0.0,3891.0,3716.0,3235.0,2679.0,4095.0,3974.0,4095.0,3333.0,-6.2,3.27,-6.6,-0.02,0.03,-0.05,1.0,tired
3157.0,944.0,4095.0,3407.0,2875.0,2806.0,3189.0,2799.0,6.3,4.16,-2.27,0.04,-0.0,-0.18,0.0,3889.0,3725.0,3238.0,2710.0,4095.0,3987.0,4095.0,3470.0,-6.09,3.25,-6.81,-0.07,-0.01,-0.05,1.0,tired
3150.0,954.0,4095.0,3392.0,2896.0,2811.0,3218.0,2800.0,6.27,4.19,-2.36,0.04,-0.03,-0.18,0.0,3881.0,3712.0,3242.0,2721.0,4095.0,3983.0,4095.0,3483.0,-5.94,3.14,-6.53,-0.05,0.01,-0.07,1.0,tired
3152.0,944.0,4095.0,3411.0,2889.0,2815.0,3216.0,2794.0,6.35,4.12,-2.46,0.04,-0.01,-0.15,0.0,3869.0,3725.0,3233.0,2709.0,4095.0,3983.0,4095.0,3444.0,-6.16,3.22,-6.77,-0.07,0.06,-0.06,1.0,tired
3152.0,944.0,4095.0,3410.0,2882.0,2814.0,3207.0,2800.0,6.36,4.29,-2.55,0.02,0.03,-0.16,0.0,3885.0,3727.0,3241.0,2721.0,4095.0,3984.0,4095.0,3483.0,-5.99,3.28,-6.68,-0.07,0.04,-0.04,1.0,tired
3147.0,944.0,4095.0,3398.0,2908.0,2805.0,3207.0,2785.0,6.32,4.18,-2.68,-0.02,0.02,-0.15,0.0,3892.0,3724.0,3238.0,2721.0,4095.0,3997.0,4095.0,3406.0,-5.99,3.29,-6.66,-0.07,-0.01,-0.06,1.0,tired
3152.0,938.0,4095.0,3406.0,2891.0,2797.0,3215.0,2790.0,6.39,4.12,-2.46,0.01,0.02,-0.17,0.0,3911.0,3728.0,3242.0,2727.0,4095.0,3987.0,4095.0,3483.0,-6.11,3.28,-6.86,-0.03,0.05,-0.05,1.0,tired
3151.0,941.0,4095.0,3395.0,2880.0,2814.0,3195.0,2772.0,6.35,4.1,-2.49,-0.02,0.01,-0.15,0.0,3875.0,3695.0,3247.0,2728.0,4095.0,3989.0,4095.0,3506.0,-6.11,3.21,-6.73,-0.03,0.0,-0.07,1.0,tired
3179.0,970.0,2254.0,3497.0,2463.0,2705.0,3071.0,2559.0,4.74,-1.03,11.03,-1.7,0.24,-0.59,0.0,910.0,3875.0,3686.0,2791.0,4095.0,3953.0,4095.0,3110.0,-5.49,0.52,8.34,-1.11,0.19,0.61,1.0,tired
3147.0,963.0,3109.0,3395.0,2542.0,2784.0,3153.0,2609.0,8.15,0.14,10.76,-0.37,0.19,-0.04,0.0,909.0,3837.0,3657.0,2777.0,4095.0,4075.0,4095.0,3125.0,-7.57,1.09,5.99,-0.81,-0.07,0.18,1.0,tired
3142.0,951.0,3138.0,3321.0,2551.0,2752.0,3166.0,2609.0,8.06,0.8,10.28,0.07,-0.05,-0.07,0.0,912.0,3841.0,3568.0,2790.0,4095.0,4095.0,4095.0,3152.0,-6.89,1.28,6.52,-0.07,0.27,-0.18,1.0,tired
3152.0,976.0,4017.0,3352.0,2479.0,2687.0,3050.0,2597.0,8.71,0.92,9.21,0.5,-0.61,-0.47,0.0,910.0,3841.0,3583.0,2779.0,4095.0,4095.0,4095.0,3090.0,-5.93,1.29,5.32,0.1,0.59,0.06,1.0,tired
3147.0,970.0,4095.0,3330.0,2485.0,2706.0,3037.0,2613.0,7.13,1.6,7.34,0.96,-1.15,-0.55,0.0,907.0,3868.0,3573.0,2768.0,4095.0,4095.0,4095.0,3047.0,-6.52,1.48,3.27,0.8,1.23,0.35,1.0,tired
3147.0,990.0,4095.0,3466.0,2444.0,2714.0,3071.0,2608.0,5.37,2.79,4.7,1.3,-2.33,-0.45,0.0,901.0,3897.0,3537.0,2783.0,4095.0,4095.0,4095.0,2959.0,-6.42,2.8,-2.45,1.08,2.93,0.4,1.0,tired
3197.0,982.0,3159.0,3477.0,2380.0,2698.0,3108.0,2615.0,9.88,4.25,0.02,1.3,-3.46,-1.24,0.0,910.0,3985.0,3468.0,2835.0,4095.0,4035.0,4095.0,3467.0,-11.76,5.63,-7.15,1.08,3.88,1.98,1.0,tired
3242.0,1008.0,2368.0,3611.0,2374.0,2754.0,3120.0,2818.0,9.51,5.53,-2.49,0.11,-0.32,-0.27,0.0,901.0,4011.0,3365.0,2799.0,4095.0,3965.0,4095.0,3253.0,-12.14,5.3,-10.37,1.18,-0.72,-0.38,1.0,tired
3264.0,1023.0,2791.0,3668.0,2368.0,2766.0,3127.0,2828.0,7.78,4.64,-1.79,0.11,0.14,0.01,0.0,912.0,4032.0,3370.0,2834.0,4095.0,3949.0,4095.0,3314.0,-5.57,4.24,-5.71,0.27,0.06,-0.11,1.0,tired
3266.0,1011.0,2825.0,3649.0,2386.0,2797.0,3123.0,2811.0,6.3,4.39,-1.79,-0.02,0.11,0.02,0.0,910.0,4021.0,3373.0,2836.0,4095.0,3943.0,4095.0,3354.0,-6.29,4.01,-6.77,-0.01,-0.0,-0.05,1.0,tired
3270.0,1021.0,2820.0,3663.0,2761.0,2779.0,3140.0,2819.0,6.83,4.3,-1.52,0.02,-0.11,-0.16,0.0,922.0,4005.0,3376.0,2848.0,4095.0,3959.0,4095.0,3377.0,-6.41,3.51,-6.65,-0.04,0.13,-0.09,1.0,tired
3253.0,1013.0,2863.0,3614.0,2853.0,2791.0,3135.0,2827.0,6.89,4.58,-2.15,0.1,0.04,-0.17,0.0,911.0,3993.0,3355.0,2845.0,4095.0,3984.0,4095.0,3399.0,-6.48,3.43,-6.7,-0.09,0.0,-0.06,1.0,tired
3278.0,1010.0,2960.0,3607.0,2886.0,2802.0,3137.0,2837.0,6.89,4.6,-1.85,0.08,-0.01,-0.18,0.0,907.0,4016.0,3361.0,2857.0,4095.0,3991.0,4095.0,3391.0,-5.91,3.28,-6.3,-0.07,0.03,-0.1,1.0,tired
3258.0,1011.0,3130.0,3612.0,2887.0,2800.0,3135.0,2837.0,6.95,4.63,-2.02,0.08,0.0,-0.16,0.0,909.0,3993.0,3344.0,2852.0,4095.0,4007.0,4095.0,3408.0,-5.99,3.33,-6.52,-0.08,0.08,-0.04,1.0,tired
3268.0,1005.0,3280.0,3611.0,2903.0,2813.0,3141.0,2849.0,6.8,4.45,-1.63,0.09,0.05,-0.13,0.0,912.0,4001.0,3344.0,2835.0,4095.0,4023.0,4095.0,3401.0,-6.01,3.37,-6.55,-0.08,0.05,-0.05,1.0,tired
3242.0,1006.0,3344.0,3600.0,2931.0,2814.0,3135.0,2839.0,6.75,4.34,-1.76,0.09,0.02,-0.11,0.0,912.0,4000.0,3347.0,2849.0,4095.0,4030.0,4095.0,3421.0,-5.81,3.44,-6.65,-0.12,0.03,-0.05,1.0,tired
3249.0,1033.0,3535.0,3610.0,2942.0,2816.0,3152.0,2832.0,7.03,4.2,-1.74,0.01,-0.02,-0.1,0.0,905.0,4025.0,3346.0,2865.0,4095.0,4033.0,4095.0,3423.0,-5.92,3.45,-6.63,-0.07,0.03,-0.04,1.0,tired
3249.0,1011.0,3840.0,3583.0,2927.0,2809.0,3135.0,2832.0,6.87,4.36,-1.82,0.1,0.06,-0.19,0.0,903.0,4028.0,3351.0,2864.0,4095.0,4037.0,4095.0,3446.0,-5.92,3.4,-6.69,-0.09,-0.03,-0.05,1.0,tired
3238.0,1011.0,4095.0,3610.0,2893.0,2814.0,3145.0,2866.0,6.79,4.3,-1.59,0.06,0.03,-0.17,0.0,923.0,4017.0,3340.0,2862.0,4095.0,4023.0,4095.0,3429.0,-6.03,3.42,-6.66,-0.06,0.04,-0.02,1.0,tired
3254.0,1019.0,4095.0,3601.0,2906.0,2813.0,3157.0,2869.0,6.92,4.33,-1.86,0.06,0.0,-0.21,0.0,917.0,4002.0,3346.0,2864.0,4095.0,4053.0,4095.0,3451.0,-5.92,3.46,-6.68,-0.03,0.03,0.02,1.0,tired
3104.0,977.0,4095.0,3610.0,2416.0,2703.0,2956.0,2509.0,6.34,3.93,6.27,-1.62,0.85,-1.26,0.0,933.0,3694.0,3779.0,2999.0,4095.0,4041.0,4095.0,2883.0,-4.82,1.76,4.21,-1.46,-0.74,2.02,1.0,tired
3107.0,1153.0,4095.0,3616.0,2480.0,2754.0,3025.0,2585.0,6.16,-0.05,9.64,-1.19,0.47,-0.02,0.0,946.0,3709.0,3781.0,2855.0,4095.0,4079.0,4095.0,2849.0,-2.58,1.71,5.52,-0.96,-1.22,0.45,1.0,tired
3088.0,1005.0,4095.0,3501.0,2925.0,2502.0,2931.0,2607.0,8.52,0.35,10.43,-0.01,0.04,-0.14,0.0,976.0,3737.0,3633.0,2828.0,4095.0,3968.0,4095.0,2958.0,-7.72,2.04,6.66,-0.12,0.34,-0.11,1.0,tired
3063.0,1017.0,4080.0,3360.0,3111.0,2530.0,2928.0,2629.0,6.44,1.25,9.26,0.71,-0.74,-0.46,0.0,971.0,3760.0,3583.0,2876.0,4095.0,4010.0,4095.0,3023.0,-6.42,1.74,5.59,0.03,0.54,-0.16,1.0,tired
3059.0,1039.0,4095.0,3360.0,3013.0,2489.0,2826.0,2559.0,8.2,1.59,8.97,0.99,-1.14,-0.69,0.0,963.0,3763.0,3621.0,2859.0,4095.0,4004.0,4095.0,3003.0,-6.69,1.12,5.33,0.52,1.12,-0.03,1.0,tired
3066.0,1040.0,4095.0,3344.0,2992.0,2518.0,2794.0,2494.0,8.41,2.23,6.65,0.98,-1.84,-0.64,0.0,954.0,3771.0,3615.0,2830.0,4095.0,4018.0,4095.0,2960.0,-5.94,1.97,3.54,0.81,1.54,-0.17,1.0,tired
3120.0,1167.0,4095.0,3386.0,2876.0,2559.0,2819.0,2629.0,11.44,5.92,0.72,1.09,-3.69,-1.86,0.0,927.0,3789.0,3519.0,2807.0,4095.0,3952.0,4095.0,3607.0,-9.78,3.02,-1.94,0.87,3.03,0.96,1.0,tired
3082.0,1348.0,4095.0,3423.0,2992.0,2614.0,2928.0,2669.0,6.19,5.42,-0.46,0.25,-0.04,-0.13,0.0,917.0,3828.0,3505.0,2720.0,4095.0,3888.0,4095.0,3232.0,-13.42,3.46,-4.35,0.71,-1.02,0.04,1.0,tired
3071.0,1337.0,4095.0,3434.0,2992.0,2633.0,2926.0,2652.0,7.49,5.38,-1.2,-0.02,-0.08,-0.03,0.0,912.0,3801.0,3498.0,2768.0,4095.0,3920.0,4095.0,3339.0,-6.08,4.08,-5.15,0.17,0.09,-0.29,1.0,tired
3062.0,1343.0,4095.0,3415.0,2986.0,2643.0,2938.0,2686.0,6.9,4.7,-0.89,0.03,-0.06,-0.02,0.0,912.0,3839.0,3510.0,2783.0,4095.0,3947.0,4095.0,3344.0,-7.36,3.7,-4.89,0.04,0.3,-0.1,1.0,tired
3095.0,1396.0,4095.0,3424.0,2977.0,2634.0,2944.0,2690.0,7.11,5.06,-1.37,0.08,-0.03,-0.12,0.0,925.0,3829.0,3509.0,2786.0,4095.0,3946.0,4095.0,3402.0,-7.54,3.37,-5.54,-0.13,0.07,-0.14,1.0,tired
3125.0,1446.0,4095.0,3409.0,2987.0,2640.0,2946.0,2722.0,7.53,5.08,-1.36,0.04,0.21,-0.12,0.0,926.0,3818.0,3504.0,2784.0,4095.0,3964.0,4095.0,3401.0,-7.13,3.32,-5.38,-0.17,0.02,-0.11,1.0,tired
3134.0,1427.0,4095.0,3397.0,2991.0,2642.0,2954.0,2747.0,7.08,5.11,-1.01,0.16,-0.15,-0.26,0.0,923.0,3823.0,3495.0,2777.0,4095.0,3959.0,4095.0,3376.0,-7.32,3.42,-5.66,-0.08,0.1,-0.1,1.0,tired
3067.0,1472.0,4095.0,3408.0,2976.0,2646.0,2935.0,2747.0,6.93,4.89,-1.04,0.15,-0.05,-0.19,0.0,917.0,3826.0,3500.0,2795.0,4095.0,3973.0,4095.0,3429.0,-7.1,3.27,-5.57,-0.09,0.07,-0.07,1.0,tired
3107.0,1490.0,4095.0,3385.0,2973.0,2672.0,2937.0,2759.0,6.96,5.01,-1.57,0.12,0.02,-0.19,0.0,912.0,3839.0,3504.0,2790.0,4095.0,3970.0,4095.0,3407.0,-7.18,3.15,-5.57,-0.1,0.05,-0.01,1.0,tired
3093.0,1568.0,4095.0,3392.0,2991.0,2655.0,2947.0,2769.0,6.95,4.73,-1.4,0.06,-0.11,-0.13,0.0,913.0,3837.0,3501.0,2785.0,4095.0,3984.0,4095.0,3415.0,-6.91,3.17,-5.61,-0.06,0.01,-0.05,1.0,tired
3087.0,1648.0,4095.0,3387.0,2974.0,2673.0,2966.0,2758.0,7.15,4.65,-1.38,0.06,0.01,-0.14,0.0,922.0,3831.0,3494.0,2795.0,4095.0,3985.0,4095.0,3414.0,-6.87,3.29,-5.69,-0.04,0.03,-0.01,1.0,tired
3080.0,1685.0,4095.0,3391.0,2986.0,2679.0,2966.0,2772.0,7.04,4.53,-1.42,0.0,0.0,-0.17,0.0,928.0,3823.0,3507.0,2798.0,4095.0,3984.0,4095.0,3454.0,-6.89,3.39,-5.77,-0.05,0.02,-0.04,1.0,tired
3088.0,1712.0,4095.0,3389.0,2989.0,2679.0,2963.0,2761.0,7.07,4.71,-1.7,0.04,0.01,-0.18,0.0,913.0,3821.0,3491.0,2795.0,4095.0,3986.0,4095.0,3441.0,-6.87,3.32,-5.73,-0.05,0.11,-0.07,1.0,tired
3087.0,1727.0,4095.0,3383.0,3002.0,2675.0,2969.0,2769.0,7.18,4.99,-1.77,0.05,0.06,-0.12,0.0,935.0,3837.0,3501.0,2800.0,4095.0,3971.0,4095.0,3427.0,-6.97,3.27,-5.76,-0.12,0.01,-0.08,1.0,tired
3115.0,943.0,4095.0,3119.0,2794.0,2673.0,3034.0,2711.0,6.24,0.65,10.49,-0.25,0.02,-0.23,0.0,3835.0,3543.0,3391.0,2896.0,4095.0,4095.0,4095.0,3024.0,-4.57,1.67,7.26,-0.25,0.26,0.41,1.0,tired
3088.0,983.0,4095.0,3200.0,2815.0,2612.0,2989.0,2674.0,7.38,1.27,11.58,-0.02,0.01,-0.11,0.0,3877.0,3559.0,3376.0,2881.0,4095.0,4095.0,4095.0,3054.0,-6.65,1.95,6.99,-0.15,0.2,-0.11,1.0,tired
3095.0,1038.0,4095.0,3262.0,2742.0,2555.0,3009.0,2677.0,7.43,0.92,11.81,-0.11,0.03,-0.01,0.0,4095.0,3601.0,3360.0,2877.0,4095.0,4095.0,4095.0,3062.0,-6.87,1.1,7.77,-0.09,-0.19,-0.15,1.0,tired
3060.0,1118.0,4095.0,3343.0,2768.0,2553.0,2995.0,2685.0,5.29,-0.3,11.79,0.16,-0.14,-0.15,0.0,4084.0,3613.0,3392.0,2868.0,4095.0,4095.0,4095.0,2967.0,-3.93,1.92,6.91,0.24,0.89,-0.15,1.0,tired
3049.0,1618.0,4095.0,3357.0,3132.0,2422.0,2862.0,2624.0,7.72,0.4,9.44,0.87,-1.86,-0.68,0.0,4021.0,3623.0,3391.0,2839.0,4095.0,4095.0,4095.0,2971.0,-7.91,1.16,4.63,0.74,0.94,-0.42,1.0,tired
3051.0,1410.0,4095.0,3284.0,2928.0,2477.0,2817.0,2559.0,5.17,1.9,6.32,1.14,-2.48,-0.79,0.0,4026.0,3665.0,3354.0,2819.0,4095.0,4095.0,4095.0,2960.0,-7.93,2.39,-1.05,0.94,3.57,0.25,1.0,tired
3071.0,1678.0,4095.0,3294.0,2923.0,2597.0,2902.0,2714.0,11.33,4.92,-0.33,1.97,-3.92,-1.83,0.0,4001.0,3685.0,3365.0,2844.0,4095.0,4095.0,4095.0,2778.0,-8.98,1.78,-3.57,1.18,3.13,0.1,1.0,tired
3059.0,1733.0,4095.0,3301.0,2946.0,2695.0,2993.0,2843.0,9.7,8.09,-6.21,1.04,-1.03,-0.73,0.0,3963.0,3747.0,3328.0,2832.0,4095.0,4095.0,4095.0,2825.0,-9.42,5.05,-8.29,1.25,3.47,1.73,1.0,tired
3071.0,1739.0,4095.0,3314.0,2923.0,2706.0,3012.0,2717.0,6.24,5.0,-3.49,-0.11,0.23,0.03,0.0,3968.0,3741.0,3289.0,2784.0,4095.0,4095.0,4095.0,2832.0,-13.27,3.95,-9.52,0.59,-0.05,0.26,1.0,tired
3063.0,1771.0,4095.0,3300.0,2944.0,2725.0,3017.0,2787.0,5.53,3.69,-2.61,0.01,0.11,-0.04,0.0,3952.0,3764.0,3283.0,2821.0,4095.0,4095.0,4095.0,2899.0,-5.82,3.19,-7.26,-0.09,0.34,-0.06,1.0,tired
3083.0,1770.0,4095.0,3318.0,2958.0,2723.0,3026.0,2766.0,5.98,3.95,-2.66,0.08,-0.03,-0.23,0.0,3952.0,3728.0,3286.0,2807.0,4095.0,4095.0,4095.0,2822.0,-5.12,3.0,-7.49,-0.11,0.02,-0.08,1.0,tired
3066.0,1754.0,4095.0,3307.0,2955.0,2725.0,3024.0,2789.0,6.22,4.22,-2.86,0.11,0.05,-0.25,0.0,3963.0,3756.0,3281.0,2807.0,4095.0,4095.0,4095.0,2809.0,-5.36,2.99,-7.48,-0.11,-0.09,-0.02,1.0,tired
3071.0,1778.0,4095.0,3315.0,2982.0,2718.0,3027.0,2766.0,6.2,3.9,-2.91,-0.03,0.11,-0.1,0.0,3958.0,3740.0,3282.0,2813.0,4095.0,4095.0,4095.0,2841.0,-5.42,2.95,-7.26,-0.07,-0.06,-0.08,1.0,tired
3067.0,1763.0,4095.0,3298.0,2987.0,2726.0,3022.0,2766.0,5.94,4.0,-2.57,0.02,0.02,-0.2,0.0,3952.0,3734.0,3279.0,2807.0,4095.0,4095.0,4095.0,2841.0,-5.34,3.1,-7.26,-0.0,-0.05,-0.01,1.0,tired
3071.0,1765.0,4095.0,3296.0,2992.0,2730.0,3030.0,2766.0,6.02,4.19,-2.73,0.03,0.01,-0.16,0.0,3950.0,3743.0,3265.0,2810.0,4095.0,4095.0,4095.0,2813.0,-5.41,3.1,-7.38,-0.06,-0.02,-0.02,1.0,tired
3083.0,1744.0,4095.0,3303.0,2993.0,2733.0,3025.0,2778.0,6.17,4.18,-2.92,0.02,0.03,-0.11,0.0,3949.0,3733.0,3265.0,2829.0,4095.0,4095.0,4095.0,2747.0,-5.47,3.02,-7.43,-0.05,0.03,-0.04,1.0,tired
3071.0,1749.0,4095.0,3326.0,2977.0,2704.0,3056.0,2776.0,6.19,3.83,-2.69,0.06,-0.01,-0.11,0.0,3967.0,3747.0,3265.0,2826.0,4095.0,4095.0,4095.0,2646.0,-5.27,3.15,-7.41,-0.07,0.05,0.01,1.0,tired
3083.0,1737.0,4095.0,3305.0,2985.0,2727.0,3030.0,2798.0,6.03,4.14,-2.82,0.05,0.01,-0.12,0.0,3957.0,3750.0,3261.0,2829.0,4095.0,4095.0,4095.0,2671.0,-5.24,3.21,-7.08,-0.04,-0.01,-0.03,1.0,tired
3084.0,1743.0,4095.0,3337.0,2967.0,2727.0,3039.0,2795.0,6.22,4.05,-2.88,0.02,0.03,-0.13,0.0,3952.0,3739.0,3258.0,2827.0,4095.0,4095.0,4095.0,3314.0,-5.34,3.2,-7.57,-0.05,-0.0,-0.04,1.0,tired
3062.0,1755.0,4095.0,3328.0,2975.0,2743.0,3045.0,2801.0,6.19,3.97,-2.64,0.01,0.01,-0.12,0.0,3958.0,3735.0,3266.0,2831.0,4095.0,4095.0,4095.0,3332.0,-5.36,3.1,-7.36,-0.05,0.02,-0.03,1.0,tired
3203.0,976.0,4095.0,4095.0,2257.0,2469.0,3129.0,2582.0,7.92,0.07,6.59,-1.46,-0.04,-3.35,0.0,3057.0,3167.0,3735.0,3181.0,4095.0,4095.0,4095.0,3381.0,-9.25,-3.36,-0.75,-0.7,0.15,3.98,1.0,tired
3312.0,1002.0,4095.0,3952.0,2730.0,2601.0,3056.0,2599.0,4.71,0.48,8.15,-1.86,0.47,-2.74,0.0,3855.0,3401.0,3558.0,2907.0,4095.0,4015.0,4095.0,2965.0,-1.91,-0.11,6.39,-1.51,-0.15,1.81,1.0,tired
3227.0,981.0,4095.0,3506.0,2901.0,2640.0,2995.0,2621.0,5.69,0.76,11.43,-0.64,0.26,-0.12,0.0,3888.0,3407.0,3536.0,2814.0,4095.0,4069.0,4095.0,2989.0,-4.27,0.86,7.96,-0.49,-0.34,0.42,1.0,tired
3175.0,976.0,3855.0,3493.0,2935.0,2661.0,3024.0,2640.0,7.08,1.05,11.92,-0.45,-0.16,-0.17,0.0,4095.0,3410.0,3495.0,2822.0,4095.0,4095.0,4095.0,3021.0,-6.98,1.59,6.45,-0.05,0.32,-0.09,1.0,tired
3197.0,994.0,3214.0,3520.0,3093.0,2708.0,2992.0,2626.0,6.34,1.47,11.18,0.27,-0.29,0.08,0.0,4087.0,3434.0,3430.0,2800.0,4095.0,4033.0,4095.0,3009.0,-6.03,1.46,6.0,0.22,0.1,-0.36,1.0,tired
3190.0,989.0,3358.0,3504.0,2945.0,2625.0,2951.0,2634.0,6.98,1.39,9.76,0.45,-0.55,-0.01,0.0,4037.0,3417.0,3454.0,2818.0,4095.0,4019.0,4095.0,2984.0,-6.26,1.01,4.39,0.36,1.22,-0.3,1.0,tired
3197.0,987.0,3266.0,3455.0,2935.0,2643.0,2951.0,2588.0,5.89,1.78,5.22,1.78,-3.27,-1.4,0.0,4010.0,3547.0,3495.0,2830.0,4095.0,4011.0,4095.0,2590.0,-10.23,0.32,0.2,1.41,4.09,0.22,1.0,tired
3193.0,965.0,4095.0,3467.0,2942.0,2715.0,3050.0,2807.0,10.73,7.84,-2.54,1.04,-1.63,-1.38,0.0,3959.0,3600.0,3481.0,2837.0,4095.0,3991.0,4095.0,2582.0,-9.72,4.26,-6.63,1.59,3.3,1.57,1.0,tired
3193.0,978.0,4095.0,3507.0,2975.0,2787.0,3138.0,2803.0,6.21,5.96,-2.22,-0.04,0.05,0.08,0.0,966.0,3618.0,3410.0,2835.0,4095.0,3979.0,4095.0,3350.0,-7.27,2.82,-6.32,0.01,0.39,-0.03,1.0,tired
3190.0,969.0,4095.0,3538.0,3024.0,2795.0,3137.0,2851.0,6.4,5.09,-2.17,-0.05,-0.05,-0.03,0.0,3985.0,3583.0,3409.0,2851.0,4095.0,3995.0,4095.0,3375.0,-6.52,2.75,-6.42,-0.09,0.01,-0.06,1.0,tired
3190.0,960.0,4095.0,3644.0,3008.0,2800.0,3129.0,2870.0,6.14,4.62,-2.01,0.06,-0.09,-0.1,0.0,3967.0,3602.0,3399.0,2841.0,4095.0,4009.0,4095.0,3389.0,-6.51,2.67,-6.03,-0.0,0.09,-0.03,1.0,tired
3170.0,965.0,4095.0,3530.0,3035.0,2778.0,3120.0,2859.0,6.25,4.7,-2.03,0.04,-0.07,-0.11,0.0,3962.0,3611.0,3394.0,2839.0,4095.0,4014.0,4095.0,3389.0,-6.43,2.9,-6.56,-0.06,0.07,-0.01,1.0,tired
3183.0,975.0,4095.0,3616.0,3050.0,2799.0,3140.0,2846.0,6.48,4.8,-2.46,0.16,-0.1,-0.2,0.0,3982.0,3598.0,3411.0,2841.0,4095.0,4013.0,4095.0,3383.0,-6.51,2.85,-6.64,-0.06,0.04,-0.04,1.0,tired
3205.0,969.0,4095.0,3598.0,3039.0,2783.0,3134.0,2835.0,6.07,4.55,-2.03,0.12,-0.02,-0.16,0.0,3967.0,3600.0,3411.0,2842.0,4095.0,4031.0,4095.0,3407.0,-6.47,2.62,-6.45,-0.05,0.06,-0.05,1.0,tired
3197.0,963.0,4095.0,3611.0,3034.0,2797.0,3148.0,2859.0,6.11,4.52,-2.05,0.12,0.02,-0.16,0.0,3961.0,3606.0,3411.0,2835.0,4095.0,4034.0,4095.0,3423.0,-6.43,2.77,-6.76,-0.1,0.09,-0.04,1.0,tired
3182.0,959.0,4095.0,3602.0,3061.0,2793.0,3152.0,2859.0,6.1,4.45,-2.05,0.14,-0.03,-0.17,0.0,3957.0,3583.0,3386.0,2835.0,4095.0,4049.0,4095.0,3391.0,-6.36,2.72,-6.55,-0.08,0.0,-0.07,1.0,tired
3194.0,967.0,4095.0,3599.0,3094.0,2799.0,3157.0,2848.0,6.17,4.41,-2.31,0.09,-0.01,-0.13,0.0,3959.0,3602.0,3410.0,2851.0,4095.0,4065.0,4095.0,3403.0,-6.28,2.69,-6.52,-0.11,-0.0,-0.01,1.0,tired
3189.0,965.0,4095.0,3600.0,3071.0,2786.0,3141.0,2864.0,6.29,4.44,-2.5,0.03,-0.02,-0.15,0.0,3947.0,3603.0,3418.0,2846.0,4095.0,4057.0,4095.0,3479.0,-6.43,2.78,-6.57,-0.07,0.0,-0.02,1.0,tired
3175.0,962.0,4095.0,3583.0,3071.0,2811.0,3132.0,2866.0,6.16,4.46,-2.57,0.05,-0.02,-0.13,0.0,3954.0,3602.0,3392.0,2839.0,4095.0,4051.0,4095.0,3411.0,-6.44,2.59,-6.57,-0.09,-0.04,-0.04,1.0,tired
3196.0,954.0,4095.0,3605.0,3062.0,2794.0,3163.0,2871.0,6.09,4.4,-2.61,-0.0,0.05,-0.12,0.0,3965.0,3633.0,3408.0,2843.0,4095.0,4054.0,4095.0,3384.0,-6.55,2.76,-6.8,-0.05,-0.0,-0.02,1.0,tired
3149.0,923.0,3081.0,3565.0,3029.0,2769.0,3262.0,2622.0,7.52,1.17,10.36,-0.31,0.1,-0.12,0.0,3879.0,3635.0,3393.0,2864.0,4095.0,4095.0,4095.0,3555.0,-5.92,1.44,6.36,-0.5,0.22,0.15,1.0,tired
3167.0,917.0,2850.0,3565.0,3011.0,2768.0,3255.0,2623.0,7.61,0.86,10.38,-0.25,-0.01,-0.16,0.0,3882.0,3607.0,3397.0,2854.0,4095.0,4095.0,4095.0,3571.0,-5.86,0.89,7.85,-0.15,0.23,0.02,1.0,tired
3155.0,929.0,2802.0,3530.0,2996.0,2766.0,3240.0,2625.0,8.2,1.44,10.16,-0.06,-0.09,-0.08,0.0,3877.0,3611.0,3386.0,2832.0,4095.0,4095.0,4095.0,3579.0,-6.44,1.14,7.88,-0.05,0.06,-0.09,1.0,tired
3158.0,910.0,2765.0,3533.0,2990.0,2759.0,3247.0,2629.0,7.93,0.69,11.31,-0.15,0.18,0.02,0.0,3884.0,3603.0,3370.0,2832.0,4095.0,4095.0,4095.0,3568.0,-6.49,1.3,7.27,-0.08,-0.22,-0.14,1.0,tired
3163.0,915.0,2653.0,3523.0,2976.0,2753.0,3223.0,2643.0,6.11,1.06,9.67,0.21,-0.33,-0.06,0.0,3890.0,3612.0,3379.0,2843.0,4095.0,4095.0,4095.0,3583.0,-4.51,0.97,6.11,-0.13,0.18,-0.09,1.0,tired
3163.0,913.0,2661.0,3491.0,2914.0,2687.0,3181.0,2627.0,8.1,0.87,9.91,0.62,-1.11,-0.45,0.0,3875.0,3637.0,3393.0,2838.0,4095.0,4095.0,4095.0,3765.0,-6.94,0.68,7.15,0.44,1.06,-0.12,1.0,tired
3163.0,915.0,2559.0,3503.0,2925.0,2654.0,3170.0,2608.0,7.9,1.51,8.35,0.6,-1.64,-0.6,0.0,3871.0,3648.0,3397.0,2832.0,4095.0,4095.0,4095.0,3790.0,-6.77,1.36,5.26,0.14,0.94,-0.5,1.0,tired
3163.0,907.0,2419.0,3479.0,2910.0,2679.0,3149.0,2602.0,7.67,2.28,6.19,0.84,-2.03,-0.94,0.0,3881.0,3725.0,3387.0,2819.0,4095.0,4095.0,4095.0,3805.0,-6.63,1.32,1.95,0.52,2.14,0.17,1.0,tired
3163.0,912.0,2015.0,3463.0,2911.0,2709.0,3151.0,2614.0,7.94,2.83,1.05,1.49,-3.21,-1.34,0.0,3909.0,3731.0,3376.0,2818.0,4095.0,4095.0,4095.0,3824.0,-8.34,1.21,-1.44,0.83,2.18,0.1,1.0,tired
3166.0,914.0,2293.0,3430.0,2891.0,2717.0,3186.0,2768.0,10.11,5.88,-3.53,1.55,-2.49,-1.45,0.0,3863.0,3735.0,3406.0,2817.0,4095.0,4095.0,4095.0,3329.0,-9.21,1.77,-3.92,1.29,4.4,1.43,1.0,tired
3135.0,912.0,3146.0,3519.0,2818.0,2751.0,3188.0,2780.0,8.13,6.26,-5.11,0.36,-0.83,-0.79,0.0,3835.0,3739.0,3373.0,2717.0,4095.0,4095.0,4095.0,3315.0,-8.8,3.31,-7.21,0.47,-0.76,0.11,1.0,tired
3152.0,909.0,3517.0,3536.0,2927.0,2770.0,3203.0,2815.0,6.19,4.15,-3.62,0.02,-0.02,0.11,0.0,3855.0,3751.0,3364.0,2768.0,4095.0,4095.0,4095.0,3255.0,-5.91,2.35,-6.53,0.1,0.15,-0.23,1.0,tired
3155.0,912.0,3555.0,3537.0,2943.0,2753.0,3205.0,2835.0,5.23,3.51,-2.95,0.07,-0.06,-0.06,0.0,3860.0,3753.0,3367.0,2763.0,4095.0,4095.0,4095.0,3341.0,-6.72,2.58,-7.21,-0.06,0.18,-0.04,1.0,tired
3142.0,919.0,3612.0,3519.0,2957.0,2769.0,3200.0,2850.0,5.78,3.99,-3.7,0.11,-0.07,-0.14,0.0,3856.0,3757.0,3361.0,2770.0,4095.0,4095.0,4095.0,3339.0,-6.47,2.17,-7.15,-0.12,-0.01,-0.01,1.0,tired
3151.0,906.0,3632.0,3518.0,2958.0,2774.0,3201.0,2832.0,5.6,3.74,-3.41,0.03,0.02,-0.16,0.0,3856.0,3750.0,3351.0,2771.0,4095.0,4095.0,4095.0,3365.0,-6.43,2.05,-6.78,-0.07,0.04,-0.04,1.0,tired
3142.0,913.0,3647.0,3536.0,2956.0,2771.0,3201.0,2858.0,5.46,3.93,-3.62,0.01,-0.0,-0.13,0.0,3856.0,3745.0,3361.0,2777.0,4095.0,4095.0,4095.0,3391.0,-6.36,2.03,-6.74,-0.07,-0.0,-0.03,1.0,tired
3152.0,913.0,3651.0,3509.0,2950.0,2775.0,3194.0,2863.0,5.64,3.8,-3.51,-0.03,0.05,-0.12,0.0,3863.0,3759.0,3356.0,2769.0,4095.0,4095.0,4095.0,3405.0,-6.3,2.18,-7.01,-0.04,-0.04,-0.03,1.0,tired
3149.0,907.0,3664.0,3537.0,2954.0,2766.0,3168.0,2859.0,5.66,3.55,-3.27,-0.04,0.03,-0.11,0.0,3858.0,3760.0,3360.0,2768.0,4095.0,4095.0,4095.0,3391.0,-6.05,2.2,-6.92,-0.06,0.03,0.03,1.0,tired
3157.0,902.0,3668.0,3530.0,2950.0,2787.0,3171.0,2882.0,5.66,3.62,-3.46,0.01,-0.0,-0.09,0.0,3869.0,3755.0,3363.0,2772.0,4095.0,4095.0,4095.0,3355.0,-6.31,2.18,-6.86,-0.08,0.03,-0.02,1.0,tired
3143.0,919.0,3686.0,3531.0,2944.0,2787.0,3187.0,2879.0,5.73,3.62,-3.38,0.0,-0.01,-0.14,0.0,3852.0,3773.0,3356.0,2768.0,4095.0,4095.0,4095.0,3337.0,-6.19,2.24,-6.85,-0.1,-0.02,-0.04,1.0,tired
3354.0,2555.0,4095.0,3635.0,2812.0,2910.0,3248.0,2693.0,6.6,0.27,11.9,-0.06,-0.26,-0.24,0.0,3186.0,3550.0,3440.0,2870.0,4095.0,4095.0,4095.0,3574.0,-4.31,0.86,7.99,-0.31,0.41,0.37,1.0,tired
3376.0,2629.0,4095.0,3605.0,2845.0,2966.0,3299.0,2687.0,7.39,1.03,10.76,-0.24,-0.27,-0.22,0.0,3279.0,3547.0,3423.0,2867.0,4095.0,4095.0,4095.0,3671.0,-6.09,0.21,8.52,-0.42,0.38,0.16,1.0,tired
3375.0,2619.0,4095.0,3567.0,3003.0,2981.0,3322.0,2693.0,7.63,0.46,10.81,0.03,0.03,-0.19,0.0,3291.0,3555.0,3398.0,2854.0,4095.0,4095.0,4095.0,3695.0,-6.5,0.17,7.43,-0.05,0.11,-0.05,1.0,tired
3381.0,2599.0,4095.0,3582.0,2966.0,2956.0,3297.0,2678.0,6.89,0.33,11.14,0.1,-0.16,-0.22,0.0,3423.0,3568.0,3397.0,2855.0,4095.0,4095.0,4095.0,3695.0,-5.68,0.2,7.68,-0.02,0.19,-0.11,1.0,tired
3364.0,2543.0,4095.0,3568.0,2938.0,2909.0,3273.0,2650.0,7.21,0.52,10.88,0.33,-0.53,-0.27,0.0,3636.0,3561.0,3383.0,2822.0,4095.0,4095.0,4095.0,3937.0,-5.37,0.17,7.0,0.29,0.77,0.02,1.0,tired
3377.0,2470.0,4095.0,3582.0,2905.0,2843.0,3200.0,2635.0,8.38,1.71,8.98,0.39,-0.76,-0.15,0.0,3693.0,3611.0,3401.0,2800.0,4095.0,4095.0,4095.0,3926.0,-8.26,1.17,5.39,0.24,0.9,-0.1,1.0,tired
3393.0,2533.0,4095.0,3543.0,2918.0,2835.0,3216.0,2645.0,8.17,1.74,6.95,0.55,-1.06,-0.37,0.0,3713.0,3677.0,3405.0,2770.0,4095.0,4095.0,4095.0,3914.0,-8.02,0.65,3.97,0.34,1.03,0.06,1.0,tired
3377.0,2475.0,3376.0,3511.0,2934.0,2844.0,3154.0,2546.0,8.74,3.22,2.44,1.05,-2.26,-1.07,0.0,3747.0,3723.0,3401.0,2766.0,4095.0,4095.0,4095.0,3824.0,-7.78,2.19,-3.01,1.26,2.2,0.78,1.0,tired
3376.0,2458.0,3327.0,3477.0,2954.0,2841.0,3195.0,2656.0,9.65,2.76,1.74,1.05,-1.92,-0.96,0.0,3755.0,3727.0,3399.0,2765.0,4095.0,4093.0,4095.0,3829.0,-8.63,4.38,-5.55,1.09,2.78,1.6,1.0,tired
3350.0,2689.0,4071.0,3415.0,2672.0,2903.0,3233.0,2773.0,7.57,5.08,-4.9,0.72,-1.95,-0.71,0.0,3735.0,3743.0,3372.0,2698.0,4095.0,4077.0,4095.0,3477.0,-11.03,3.81,-9.3,0.91,1.31,0.41,1.0,tired
3355.0,2727.0,4095.0,3497.0,2926.0,2911.0,3246.0,2825.0,7.79,4.42,-4.19,0.02,0.2,-0.13,0.0,3747.0,3754.0,3363.0,2718.0,4095.0,4086.0,4095.0,3523.0,-6.5,3.51,-6.32,0.09,0.11,0.09,1.0,tired
3366.0,2736.0,4095.0,3520.0,2928.0,2931.0,3244.0,2838.0,5.39,3.4,-3.89,0.01,-0.04,-0.08,0.0,3741.0,3729.0,3343.0,2734.0,4095.0,4095.0,4095.0,3563.0,-5.76,3.03,-6.87,-0.03,0.15,-0.1,1.0,tired
3365.0,2735.0,4095.0,3542.0,2941.0,2949.0,3255.0,2863.0,5.33,3.33,-3.69,0.1,0.07,-0.15,0.0,3755.0,3727.0,3358.0,2733.0,4095.0,4095.0,4095.0,3568.0,-5.94,3.07,-6.95,-0.11,0.06,-0.07,1.0,tired
3374.0,2749.0,4095.0,3534.0,2942.0,2945.0,3249.0,2874.0,5.27,3.39,-3.74,0.16,0.03,-0.18,0.0,3735.0,3742.0,3357.0,2737.0,4095.0,4095.0,4095.0,3539.0,-5.75,3.05,-7.13,-0.09,0.07,-0.12,1.0,tired
3349.0,2732.0,4095.0,3545.0,2943.0,2933.0,3262.0,2858.0,4.96,3.26,-3.62,0.1,-0.01,-0.21,0.0,3749.0,3722.0,3349.0,2738.0,4095.0,4095.0,4095.0,3583.0,-5.86,2.81,-6.98,-0.06,0.07,-0.07,1.0,tired
3358.0,2737.0,4095.0,3542.0,2932.0,2930.0,3276.0,2887.0,5.28,3.37,-3.9,0.08,-0.01,-0.17,0.0,3743.0,3739.0,3344.0,2747.0,4095.0,4095.0,4095.0,3578.0,-5.91,2.96,-7.32,-0.08,0.04,-0.08,1.0,tired
3365.0,2746.0,4095.0,3539.0,2957.0,2935.0,3279.0,2882.0,5.13,3.24,-3.69,0.04,0.0,-0.16,0.0,3741.0,3721.0,3339.0,2749.0,4095.0,4095.0,4095.0,3546.0,-5.45,2.79,-7.3,-0.04,0.1,-0.09,1.0,tired
3379.0,2736.0,4095.0,3559.0,2959.0,2934.0,3251.0,2896.0,5.09,3.25,-3.84,-0.01,0.0,-0.14,0.0,3747.0,3712.0,3332.0,2746.0,4095.0,4095.0,4095.0,3562.0,-5.45,2.72,-7.25,-0.02,0.04,-0.09,1.0,tired
3374.0,2737.0,4095.0,3547.0,2946.0,2945.0,3277.0,2893.0,5.08,3.14,-3.79,0.01,0.03,-0.14,0.0,3733.0,3721.0,3335.0,2751.0,4095.0,4095.0,4095.0,3574.0,-5.64,2.67,-7.64,-0.08,-0.0,-0.07,1.0,tired
3361.0,2722.0,4095.0,3527.0,2943.0,2907.0,3275.0,2867.0,5.17,3.23,-3.9,0.04,0.03,-0.17,0.0,3733.0,3710.0,3338.0,2752.0,4095.0,4095.0,4095.0,3524.0,-5.6,2.64,-7.61,-0.08,0.0,-0.08,1.0,tired
3231.0,963.0,4095.0,3935.0,2783.0,2771.0,3199.0,2538.0,10.26,-0.38,5.95,-1.44,0.6,-2.04,0.0,4095.0,3753.0,3443.0,2973.0,4095.0,4095.0,4095.0,4002.0,-8.6,-2.01,1.61,-0.6,-2.13,1.49,1.0,tired
3204.0,916.0,4095.0,3890.0,2874.0,2687.0,3041.0,2559.0,7.89,1.17,5.3,-1.79,0.84,-1.96,0.0,4090.0,3750.0,3440.0,2914.0,4095.0,4095.0,4095.0,4016.0,-5.51,-0.38,3.23,-0.49,-1.94,1.45,1.0,tired
3203.0,897.0,4095.0,3740.0,2867.0,2706.0,3025.0,2555.0,5.15,-0.35,10.11,-1.26,0.5,-0.75,0.0,4087.0,3723.0,3425.0,2838.0,4095.0,4095.0,4095.0,3971.0,-4.07,0.57,4.35,-0.44,-0.86,1.01,1.0,tired
3195.0,893.0,4095.0,3601.0,2790.0,2709.0,3041.0,2599.0,6.87,0.22,10.06,-0.38,-0.14,-0.27,0.0,4081.0,3712.0,3416.0,2831.0,4095.0,4095.0,4095.0,3926.0,-4.2,1.08,6.7,-0.48,-0.06,0.39,1.0,tired
3223.0,917.0,4095.0,3600.0,2737.0,2719.0,3082.0,2598.0,8.82,0.5,10.27,0.21,-0.52,-0.21,0.0,4095.0,3687.0,3373.0,2818.0,4095.0,4095.0,4095.0,3903.0,-7.07,1.88,6.89,0.14,0.36,-0.17,1.0,tired
3235.0,894.0,4095.0,3781.0,2858.0,2757.0,3083.0,2626.0,8.66,1.07,9.31,0.4,0.02,0.08,0.0,4095.0,3706.0,3391.0,2817.0,4095.0,4095.0,4095.0,3907.0,-6.94,1.67,6.9,0.09,0.44,-0.11,1.0,tired
3226.0,897.0,4095.0,3763.0,2757.0,2736.0,3069.0,2659.0,8.28,1.41,8.96,0.27,-0.61,-0.25,0.0,4095.0,3733.0,3394.0,2814.0,4095.0,4095.0,4095.0,3941.0,-6.85,1.59,5.43,-0.19,0.4,-0.2,1.0,tired
3245.0,881.0,4095.0,3734.0,2752.0,2725.0,3047.0,2639.0,7.87,1.68,7.82,0.43,-1.01,-0.5,0.0,4053.0,3745.0,3400.0,2794.0,4095.0,4095.0,4095.0,3983.0,-7.17,1.02,3.82,0.31,1.41,0.11,1.0,tired
3228.0,918.0,4095.0,3705.0,2779.0,2709.0,3007.0,2608.0,9.24,3.05,3.79,0.82,-1.88,-0.67,0.0,4035.0,3764.0,3410.0,2809.0,4095.0,4095.0,4095.0,3952.0,-8.55,1.74,0.92,0.78,2.71,0.6,1.0,tired
3216.0,935.0,4095.0,3663.0,2798.0,2734.0,3029.0,2622.0,9.05,3.11,3.39,0.7,-1.77,-0.78,0.0,4016.0,3792.0,3427.0,2806.0,4095.0,4095.0,4095.0,3984.0,-8.41,2.43,-1.02,0.75,2.11,0.53,1.0,tired
3217.0,927.0,4095.0,3629.0,2768.0,2731.0,3038.0,2643.0,6.16,4.78,-1.06,1.57,-3.12,-1.41,0.0,3952.0,3764.0,3422.0,2797.0,4095.0,4095.0,4095.0,3505.0,-9.16,4.24,-7.08,0.51,2.53,0.67,1.0,tired
3231.0,1019.0,4095.0,3547.0,2881.0,2766.0,3041.0,2765.0,7.83,5.38,-4.83,0.28,-0.8,-0.6,0.0,3909.0,3769.0,3413.0,2783.0,4095.0,4095.0,4095.0,3509.0,-8.2,2.76,-9.01,0.93,0.09,-0.25,1.0,tired
3230.0,1265.0,4095.0,3583.0,2899.0,2779.0,3087.0,2809.0,5.09,3.09,-3.28,-0.02,-0.07,0.03,0.0,3920.0,3759.0,3380.0,2769.0,4095.0,4095.0,4095.0,3599.0,-6.29,2.56,-7.07,-0.03,0.13,-0.07,1.0,tired
3227.0,1269.0,4095.0,3583.0,2914.0,2785.0,3086.0,2845.0,5.64,3.36,-3.92,0.06,-0.05,-0.12,0.0,3937.0,3775.0,3376.0,2772.0,4095.0,4095.0,4095.0,3568.0,-6.33,2.21,-6.91,0.01,0.12,-0.04,1.0,tired
3227.0,1251.0,4095.0,3583.0,2903.0,2793.0,3109.0,2871.0,5.57,3.24,-3.5,-0.02,0.1,-0.14,0.0,3931.0,3767.0,3383.0,2785.0,4095.0,4095.0,4095.0,3577.0,-5.99,2.5,-6.64,0.01,0.05,-0.04,1.0,tired
3226.0,1063.0,4095.0,3567.0,2919.0,2791.0,3103.0,2839.0,5.39,3.18,-3.96,0.05,-0.15,-0.19,0.0,3920.0,3760.0,3376.0,2782.0,4095.0,4095.0,4095.0,3600.0,-6.16,2.24,-6.07,0.06,-0.02,-0.02,1.0,tired
3232.0,1041.0,4095.0,3575.0,2903.0,2797.0,3102.0,2838.0,5.43,3.22,-3.42,0.06,0.03,-0.13,0.0,3952.0,3767.0,3367.0,2779.0,4095.0,4095.0,4095.0,3563.0,-6.54,2.41,-6.95,-0.11,-0.03,-0.0,1.0,tired
3237.0,1034.0,4095.0,3599.0,2896.0,2799.0,3116.0,2843.0,5.63,3.04,-3.66,0.02,0.01,-0.13,0.0,3952.0,3755.0,3371.0,2779.0,4095.0,4095.0,4095.0,3536.0,-6.11,2.35,-6.85,-0.1,0.05,0.01,1.0,tired
3230.0,1017.0,4095.0,3570.0,2864.0,2783.0,3107.0,2829.0,5.71,2.98,-3.46,0.06,0.03,-0.12,0.0,3931.0,3778.0,3378.0,2782.0,4095.0,4095.0,4095.0,3533.0,-6.17,2.4,-6.68,-0.08,-0.01,-0.03,1.0,tired
3218.0,989.0,4095.0,3567.0,2839.0,2785.0,3122.0,2832.0,5.68,2.91,-3.64,0.04,0.02,-0.13,0.0,3938.0,3749.0,3372.0,2783.0,4095.0,4095.0,4095.0,3533.0,-6.3,2.49,-6.9,-0.05,-0.02,-0.05,1.0,tired
3149.0,4027.0,4095.0,3573.0,3028.0,2865.0,3175.0,2685.0,5.75,1.96,9.55,-0.72,0.76,-0.07,0.0,3813.0,3792.0,3625.0,2868.0,4095.0,4095.0,4095.0,3919.0,-4.13,1.98,5.92,-0.76,-0.3,0.69,1.0,tired
3184.0,4095.0,4095.0,3583.0,3102.0,2925.0,3264.0,2750.0,7.59,1.39,10.78,-0.76,-0.13,-0.02,0.0,3760.0,3781.0,3571.0,2882.0,4095.0,4095.0,4095.0,3877.0,-6.68,2.43,7.67,-0.11,0.3,-0.05,1.0,tired
3137.0,3069.0,4095.0,3568.0,3042.0,2825.0,3200.0,2669.0,8.06,0.73,11.32,-0.1,0.07,-0.01,0.0,3763.0,3763.0,3568.0,2873.0,4095.0,4095.0,4095.0,3951.0,-6.27,3.02,7.23,-0.04,0.07,-0.04,1.0,tired
3138.0,2913.0,4095.0,3547.0,2993.0,2800.0,3217.0,2670.0,6.55,1.16,10.35,-0.02,-0.23,-0.08,0.0,3761.0,3757.0,3577.0,2864.0,4095.0,4095.0,4095.0,3946.0,-5.0,2.63,5.93,-0.29,0.21,-0.18,1.0,tired
3146.0,2814.0,4095.0,3545.0,2950.0,2768.0,3180.0,2668.0,8.53,1.52,9.1,0.6,-1.03,-0.38,0.0,3760.0,3782.0,3581.0,2847.0,4095.0,4095.0,4095.0,3953.0,-6.84,1.88,6.71,0.38,1.11,0.08,1.0,tired
3154.0,2726.0,4095.0,3519.0,2930.0,2759.0,3181.0,2635.0,7.71,1.72,7.94,0.54,-0.79,-0.1,0.0,3744.0,3797.0,3583.0,2832.0,4095.0,4095.0,4095.0,3936.0,-7.45,2.46,3.82,0.35,1.47,-0.14,1.0,tired
3152.0,2596.0,4095.0,3519.0,2826.0,2746.0,3178.0,2625.0,7.54,2.04,6.68,0.71,-1.69,-0.5,0.0,3747.0,3801.0,3550.0,2827.0,4095.0,4095.0,4095.0,3926.0,-7.14,2.22,1.57,0.52,1.9,-0.04,1.0,tired
3132.0,2938.0,4095.0,3475.0,2784.0,2749.0,3102.0,2701.0,9.68,3.37,3.99,1.15,-1.76,-0.61,0.0,3773.0,3799.0,3565.0,2827.0,4095.0,4095.0,4095.0,3970.0,-8.3,2.38,0.26,0.82,1.84,0.06,1.0,tired
3147.0,2896.0,4095.0,3550.0,2755.0,2733.0,3131.0,2819.0,9.52,4.75,0.46,1.06,-2.27,-1.18,0.0,3737.0,3795.0,3543.0,2785.0,4095.0,4029.0,4095.0,3413.0,-7.04,5.03,-6.98,1.12,1.59,0.46,1.0,tired
3152.0,2971.0,4095.0,3617.0,2791.0,2718.0,3061.0,2726.0,8.41,3.72,-3.55,0.34,-0.45,0.33,0.0,3733.0,3888.0,3504.0,2784.0,4095.0,4050.0,4095.0,3403.0,-7.09,3.51,-5.42,-0.06,0.37,-0.25,1.0,tired
3146.0,3106.0,4095.0,3579.0,2789.0,2727.0,3095.0,2736.0,7.42,3.99,-2.21,0.1,-0.0,0.0,0.0,3727.0,3887.0,3483.0,2775.0,4095.0,4048.0,4095.0,3466.0,-7.42,3.45,-5.16,-0.07,0.12,0.01,1.0,tired
3153.0,3108.0,4095.0,3620.0,2800.0,2723.0,3101.0,2749.0,6.78,3.51,-2.16,-0.02,-0.2,-0.2,0.0,3726.0,3903.0,3473.0,2773.0,4095.0,4046.0,4095.0,3437.0,-7.09,3.24,-5.38,-0.09,0.03,-0.06,1.0,tired
3168.0,3121.0,4095.0,3617.0,2801.0,2731.0,3105.0,2768.0,7.09,3.34,-1.94,-0.07,-0.06,-0.24,0.0,3717.0,3887.0,3474.0,2779.0,4095.0,4063.0,4095.0,3392.0,-7.27,3.32,-5.71,-0.04,0.02,-0.13,1.0,tired
3141.0,3119.0,4095.0,3616.0,2816.0,2722.0,3111.0,2775.0,7.03,3.74,-2.47,-0.1,0.19,-0.2,0.0,3733.0,3888.0,3479.0,2783.0,4095.0,4037.0,4095.0,3456.0,-7.29,3.17,-5.83,0.0,-0.1,-0.09,1.0,tired
3155.0,3105.0,4095.0,3615.0,2803.0,2725.0,3101.0,2707.0,7.52,3.42,-2.38,-0.09,0.14,-0.1,0.0,3741.0,3881.0,3481.0,2793.0,4095.0,4081.0,4095.0,3434.0,-6.87,3.16,-5.47,-0.02,0.08,-0.07,1.0,tired
3139.0,2957.0,4095.0,3601.0,2812.0,2736.0,3114.0,2736.0,7.22,3.26,-2.23,0.02,-0.02,-0.04,0.0,3743.0,3890.0,3474.0,2784.0,4095.0,4067.0,4095.0,3456.0,-6.95,3.12,-5.37,-0.08,0.06,-0.06,1.0,tired
3145.0,2955.0,4095.0,3619.0,2814.0,2753.0,3127.0,2747.0,7.25,3.38,-2.21,0.03,0.05,-0.14,0.0,3734.0,3899.0,3463.0,2786.0,4095.0,4085.0,4095.0,3466.0,-6.87,3.17,-5.61,-0.08,-0.01,-0.02,1.0,tired
3152.0,2901.0,4095.0,3599.0,2821.0,2749.0,3125.0,2767.0,7.26,3.12,-2.14,0.03,-0.02,-0.17,0.0,3745.0,3898.0,3466.0,2781.0,4095.0,4091.0,4095.0,3472.0,-6.97,3.12,-5.57,-0.07,-0.03,-0.05,1.0,tired
3147.0,2864.0,4095.0,3572.0,2814.0,2739.0,3127.0,2777.0,7.19,3.29,-2.18,0.03,-0.02,-0.17,0.0,3734.0,3901.0,3467.0,2789.0,4095.0,4082.0,4095.0,3477.0,-7.11,3.17,-5.79,-0.06,0.04,-0.06,1.0,tired
3152.0,2827.0,4095.0,3583.0,2819.0,2746.0,3132.0,2773.0,7.14,3.26,-2.24,0.04,-0.04,-0.18,0.0,3747.0,3893.0,3457.0,2789.0,4095.0,4093.0,4095.0,3482.0,-6.77,3.21,-5.83,-0.1,0.04,-0.04,1.0,tired
3166.0,2771.0,4095.0,3520.0,2877.0,2751.0,3216.0,2737.0,5.53,-0.57,11.28,-0.42,-0.27,-0.38,0.0,3758.0,3869.0,3393.0,2846.0,4095.0,4095.0,4095.0,3987.0,-2.48,-0.21,7.34,-0.43,0.15,0.58,1.0,tired
3181.0,3344.0,4095.0,3447.0,2832.0,2719.0,3180.0,2720.0,7.84,0.9,10.27,-0.12,0.22,0.08,0.0,3681.0,3837.0,3360.0,2835.0,4095.0,4095.0,4095.0,3990.0,-6.94,0.73,7.77,-0.23,0.42,-0.07,1.0,tired
3194.0,3385.0,4095.0,3426.0,2763.0,2707.0,3071.0,2690.0,8.75,0.0,10.06,0.16,-0.46,-0.16,0.0,3630.0,3846.0,3363.0,2799.0,4095.0,4095.0,4095.0,4033.0,-6.61,0.03,6.98,0.17,0.25,-0.02,1.0,tired
3200.0,3554.0,4095.0,3408.0,2783.0,2707.0,3067.0,2658.0,6.84,1.16,8.37,0.59,-1.15,-0.45,0.0,3641.0,3874.0,3380.0,2787.0,4095.0,4095.0,4095.0,4027.0,-4.97,0.54,5.59,0.22,0.72,0.0,1.0,tired
3184.0,3721.0,4095.0,3371.0,2761.0,2686.0,2901.0,2500.0,8.79,0.95,6.89,1.05,-2.07,-1.42,0.0,3629.0,3865.0,3379.0,2755.0,4095.0,4095.0,4095.0,4055.0,-6.66,0.86,4.26,0.74,1.76,0.45,1.0,tired
3197.0,3638.0,4095.0,3419.0,2766.0,2704.0,3099.0,2559.0,5.24,5.52,0.59,1.89,-2.75,-0.75,0.0,3600.0,3889.0,3353.0,2779.0,4095.0,4095.0,4095.0,4080.0,-7.16,2.79,-0.13,1.36,2.08,0.51,1.0,tired
3188.0,3461.0,4095.0,3499.0,2768.0,2723.0,3069.0,2800.0,11.78,4.1,-5.24,1.7,-5.12,-0.91,0.0,3630.0,3883.0,3333.0,2804.0,4095.0,4095.0,4095.0,3557.0,-9.78,3.61,-4.79,1.92,4.76,1.43,1.0,tired
3411.0,4095.0,4095.0,3454.0,2822.0,2736.0,3152.0,2843.0,8.66,4.82,-5.72,0.25,0.57,0.28,0.0,3637.0,3889.0,3301.0,2769.0,4095.0,4095.0,4095.0,3455.0,-3.41,3.97,-5.87,-0.47,-0.09,-0.21,1.0,tired
3181.0,3841.0,4095.0,3407.0,2835.0,2743.0,3106.0,2757.0,5.66,3.49,-3.62,-0.13,0.09,-0.1,0.0,3627.0,3920.0,3305.0,2783.0,4095.0,4095.0,4095.0,3427.0,-6.14,3.46,-6.89,-0.1,-0.0,-0.04,1.0,tired
3167.0,3851.0,4095.0,3410.0,2861.0,2747.0,3152.0,2800.0,5.84,3.25,-3.49,0.01,-0.13,-0.27,0.0,3626.0,3910.0,3301.0,2779.0,4095.0,4095.0,4095.0,3334.0,-6.78,2.28,-5.85,0.01,0.07,-0.06,1.0,tired
3186.0,3856.0,4095.0,3434.0,2870.0,2766.0,3158.0,2797.0,5.65,3.51,-3.88,0.09,0.03,-0.2,0.0,3648.0,3905.0,3301.0,2778.0,4095.0,4095.0,4095.0,3349.0,-6.82,2.96,-6.86,0.01,-0.05,-0.13,1.0,tired
3175.0,3879.0,4095.0,3414.0,2874.0,2767.0,3168.0,2802.0,5.95,3.64,-3.56,0.14,-0.06,-0.2,0.0,3639.0,3907.0,3291.0,2777.0,4095.0,4095.0,4095.0,3439.0,-6.47,2.79,-6.63,-0.08,0.11,-0.09,1.0,tired
3178.0,3797.0,4095.0,3425.0,2868.0,2765.0,3177.0,2790.0,5.66,3.51,-3.35,0.06,0.07,-0.19,0.0,3637.0,3899.0,3311.0,2778.0,4095.0,4095.0,4095.0,3399.0,-6.39,2.64,-6.38,-0.06,0.03,-0.09,1.0,tired
3177.0,3792.0,4095.0,3430.0,2878.0,2766.0,3178.0,2790.0,5.63,3.52,-3.32,0.06,-0.01,-0.15,0.0,3648.0,3885.0,3293.0,2775.0,4095.0,4095.0,4095.0,3435.0,-6.46,2.54,-6.65,-0.16,0.02,-0.11,1.0,tired
3188.0,3786.0,4095.0,3442.0,2883.0,2768.0,3184.0,2812.0,5.68,3.33,-3.03,0.06,-0.04,-0.17,0.0,3631.0,3906.0,3301.0,2779.0,4095.0,4095.0,4095.0,3436.0,-6.92,2.7,-6.86,-0.08,-0.02,-0.05,1.0,tired
3183.0,3787.0,4095.0,3434.0,2881.0,2773.0,3185.0,2832.0,5.88,3.19,-3.34,0.1,0.01,-0.21,0.0,3633.0,3897.0,3289.0,2786.0,4095.0,4095.0,4095.0,3473.0,-6.17,2.5,-6.13,-0.08,-0.03,0.03,1.0,tired
3183.0,3802.0,4095.0,3421.0,2891.0,2774.0,3184.0,2835.0,5.54,3.25,-3.53,0.1,-0.01,-0.23,0.0,3631.0,3895.0,3278.0,2781.0,4095.0,4095.0,4095.0,3439.0,-6.33,2.89,-6.57,-0.05,0.05,-0.04,1.0,tired
3175.0,3791.0,4095.0,3440.0,2882.0,2768.0,3189.0,2832.0,5.79,3.11,-3.15,0.08,0.04,-0.19,0.0,3634.0,3894.0,3296.0,2783.0,4095.0,4095.0,4095.0,3453.0,-6.46,2.68,-6.65,-0.09,0.09,-0.08,1.0,tired
3184.0,3810.0,4095.0,3430.0,2887.0,2768.0,3195.0,2840.0,5.71,3.49,-3.26,0.03,0.04,-0.18,0.0,3621.0,3904.0,3287.0,2782.0,4095.0,4095.0,4095.0,3437.0,-6.15,2.65,-6.62,-0.1,-0.06,-0.07,1.0,tired
3187.0,3779.0,4095.0,3434.0,2880.0,2778.0,3184.0,2838.0,5.74,3.21,-3.36,0.07,-0.03,-0.18,0.0,3632.0,3897.0,3295.0,2785.0,4095.0,4095.0,4095.0,3470.0,-6.43,2.63,-6.89,-0.06,0.04,-0.07,1.0,tired
3181.0,4005.0,4095.0,3499.0,2822.0,2709.0,3199.0,2698.0,7.9,1.09,10.2,-0.03,0.39,-0.1,0.0,3547.0,3999.0,3196.0,2753.0,4095.0,4095.0,4095.0,3745.0,-7.87,0.43,7.36,-0.12,-0.24,-0.13,1.0,tired
3175.0,4035.0,4095.0,3490.0,2821.0,2722.0,3170.0,2703.0,7.94,1.21,10.41,-0.02,0.3,-0.01,0.0,3547.0,4011.0,3166.0,2736.0,4095.0,4095.0,4095.0,3745.0,-4.85,0.45,7.92,-0.11,-0.39,-0.19,1.0,tired
3191.0,4083.0,4095.0,3507.0,2815.0,2720.0,3177.0,2717.0,6.94,0.77,10.29,-0.13,-0.25,0.03,0.0,3546.0,4016.0,3173.0,2731.0,4095.0,4095.0,4095.0,3731.0,-5.48,0.29,7.47,-0.17,0.09,-0.14,1.0,tired
3184.0,4095.0,4095.0,3531.0,2845.0,2733.0,3145.0,2715.0,6.72,0.08,9.87,0.05,-0.42,-0.23,0.0,3534.0,3986.0,3167.0,2729.0,4095.0,4095.0,4095.0,3964.0,-5.03,0.58,6.98,-0.02,0.66,0.05,1.0,tired
3195.0,4095.0,4095.0,3467.0,2818.0,2665.0,3056.0,2710.0,8.83,0.4,9.44,0.48,-1.03,-0.38,0.0,3518.0,3952.0,3168.0,2690.0,4095.0,4095.0,4095.0,4007.0,-6.81,0.45,5.75,0.43,0.93,-0.06,1.0,tired
3184.0,4095.0,4095.0,3488.0,2837.0,2659.0,3056.0,2687.0,6.7,1.69,7.07,0.84,-1.81,-0.72,0.0,3505.0,3886.0,3195.0,2670.0,4095.0,4095.0,4095.0,4034.0,-4.96,1.59,1.31,1.29,2.83,0.82,1.0,tired
3195.0,4095.0,4095.0,3475.0,2833.0,2698.0,3089.0,2607.0,7.21,2.28,3.5,1.3,-3.76,-1.93,0.0,3509.0,3873.0,3182.0,2690.0,4095.0,4095.0,4095.0,4035.0,-8.36,2.34,-2.47,1.51,3.4,0.89,1.0,tired
3163.0,4095.0,4095.0,3501.0,2671.0,2722.0,3131.0,2779.0,6.23,6.17,-4.65,1.51,-3.84,-1.6,0.0,3519.0,3863.0,3182.0,2480.0,4095.0,4092.0,4095.0,3198.0,-16.81,4.19,-13.14,1.21,0.06,-1.21,1.0,tired
3139.0,4095.0,4095.0,3555.0,2829.0,2782.0,3152.0,2604.0,4.78,3.53,-2.61,-0.14,0.36,0.24,0.0,3542.0,3887.0,3169.0,2589.0,4095.0,4095.0,4095.0,3313.0,-6.56,1.98,-6.18,-0.08,-0.09,-0.35,1.0,tired
3138.0,4095.0,4095.0,3508.0,2877.0,2759.0,3120.0,2672.0,5.37,3.5,-3.85,-0.05,0.18,-0.09,0.0,3537.0,3846.0,3171.0,2618.0,4095.0,4095.0,4095.0,3393.0,-5.97,2.4,-7.38,-0.03,0.15,0.03,1.0,tired
3193.0,4095.0,4095.0,3531.0,2862.0,2765.0,3146.0,2715.0,5.65,3.4,-3.45,0.0,0.33,-0.1,0.0,3523.0,3831.0,3172.0,2631.0,4095.0,4095.0,4095.0,3423.0,-6.08,2.46,-7.02,-0.13,-0.0,-0.05,1.0,tired
3230.0,4095.0,4095.0,3539.0,2896.0,2789.0,3167.0,2738.0,5.54,3.44,-3.21,0.11,0.04,-0.19,0.0,3539.0,3857.0,3181.0,2642.0,4095.0,4095.0,4095.0,3412.0,-6.12,2.38,-6.57,-0.1,0.01,-0.06,1.0,tired
3207.0,4095.0,4095.0,3530.0,2925.0,2807.0,3187.0,2705.0,6.22,3.55,-4.42,0.16,-0.17,-0.23,0.0,3535.0,3856.0,3178.0,2645.0,4095.0,4095.0,4095.0,3418.0,-6.33,2.23,-6.99,-0.03,0.13,-0.03,1.0,tired
3203.0,4095.0,4095.0,3541.0,2925.0,2800.0,3186.0,2736.0,5.51,3.47,-3.68,0.01,0.08,-0.17,0.0,3542.0,3858.0,3168.0,2669.0,4095.0,4095.0,4095.0,3417.0,-6.16,2.35,-6.76,-0.02,0.05,-0.03,1.0,tired
3205.0,4095.0,4095.0,3523.0,2926.0,2801.0,3198.0,2736.0,5.49,3.37,-3.26,0.05,0.05,-0.18,0.0,3530.0,3841.0,3170.0,2685.0,4095.0,4095.0,4095.0,3410.0,-6.06,2.51,-6.92,-0.09,0.01,0.01,1.0,tired
3222.0,4095.0,4095.0,3507.0,2931.0,2810.0,3195.0,2752.0,5.36,3.24,-3.23,0.07,-0.07,-0.11,0.0,3543.0,3835.0,3181.0,2687.0,4095.0,4095.0,4095.0,3435.0,-6.11,2.4,-6.91,-0.09,0.05,-0.02,1.0,tired
3216.0,4095.0,4095.0,3541.0,2941.0,2815.0,3201.0,2764.0,5.55,3.22,-3.4,0.01,0.02,-0.13,0.0,3531.0,3856.0,3170.0,2695.0,4095.0,4095.0,4095.0,3433.0,-6.18,2.35,-6.92,-0.05,0.01,-0.04,1.0,tired
3222.0,4095.0,4095.0,3514.0,2928.0,2807.0,3199.0,2762.0,5.4,3.39,-3.57,0.03,0.04,-0.13,0.0,3536.0,3847.0,3175.0,2693.0,4095.0,4095.0,4095.0,3430.0,-6.18,2.46,-6.97,-0.03,0.02,-0.05,1.0,tired
3222.0,4095.0,4095.0,3534.0,2923.0,2800.0,3198.0,2775.0,5.63,3.22,-3.4,0.07,-0.01,-0.18,0.0,3535.0,3839.0,3179.0,2695.0,4095.0,4095.0,4095.0,3458.0,-6.14,2.37,-7.11,0.02,0.14,-0.14,1.0,tired
3189.0,4095.0,4095.0,3541.0,2934.0,2805.0,3203.0,2767.0,5.72,3.39,-3.63,0.06,-0.04,-0.2,0.0,3533.0,3856.0,3166.0,2698.0,4095.0,4095.0,4095.0,3457.0,-6.1,2.3,-7.08,-0.04,0.1,-0.07,1.0,tired
3187.0,4095.0,4095.0,3462.0,2869.0,2740.0,3175.0,2704.0,8.36,1.8,9.91,0.11,0.25,-0.08,0.0,3494.0,3883.0,3196.0,2682.0,4095.0,4095.0,4095.0,3582.0,-7.18,0.63,6.52,-0.37,-0.14,-0.14,1.0,tired
3194.0,4095.0,4095.0,3467.0,2850.0,2743.0,3188.0,2695.0,7.3,1.08,10.21,0.03,0.02,-0.12,0.0,3489.0,3908.0,3188.0,2691.0,4095.0,4095.0,4095.0,3603.0,-6.83,0.15,6.56,-0.13,-0.26,-0.0,1.0,tired
3194.0,4095.0,4048.0,3484.0,2863.0,2767.0,3182.0,2701.0,7.77,1.29,9.97,0.14,-0.18,-0.15,0.0,3494.0,3897.0,3203.0,2694.0,4095.0,4095.0,4095.0,3568.0,-6.45,0.49,6.26,-0.08,0.2,0.08,1.0,tired
3191.0,4095.0,3984.0,3470.0,2862.0,2751.0,3169.0,2711.0,7.41,0.99,9.71,0.29,-0.42,-0.11,0.0,3498.0,3889.0,3191.0,2691.0,4095.0,4095.0,4095.0,3617.0,-5.84,0.34,6.16,0.11,0.37,0.07,1.0,tired
3195.0,4095.0,3930.0,3455.0,2866.0,2745.0,3137.0,2690.0,7.64,1.01,9.5,0.59,-0.74,-0.2,0.0,3498.0,3893.0,3206.0,2698.0,4095.0,4095.0,4095.0,3622.0,-7.73,0.66,4.82,0.37,0.96,-0.09,1.0,tired
3201.0,4095.0,4095.0,3429.0,2875.0,2753.0,3117.0,2630.0,6.72,2.27,6.13,0.96,-2.05,-0.79,0.0,3498.0,3858.0,3209.0,2686.0,4095.0,4095.0,4095.0,3600.0,-6.77,1.15,1.33,1.05,2.73,0.89,1.0,tired
3195.0,4095.0,4095.0,3441.0,2831.0,2702.0,3134.0,2651.0,8.64,4.46,-0.82,1.79,-2.89,-0.87,0.0,3524.0,3847.0,3218.0,2688.0,4095.0,4095.0,4095.0,3600.0,-7.07,2.65,-2.0,1.11,2.93,0.51,1.0,tired
3202.0,4095.0,4095.0,3362.0,2801.0,2743.0,3135.0,2768.0,8.37,5.75,-6.79,1.78,-2.24,-0.74,0.0,3519.0,3825.0,3194.0,2621.0,4095.0,4086.0,4095.0,3738.0,-9.56,3.5,-10.47,0.8,1.74,0.04,1.0,tired
3207.0,4095.0,4095.0,3472.0,2814.0,2774.0,3147.0,2791.0,5.13,3.26,-3.13,-0.14,0.01,0.29,0.0,3535.0,3830.0,3200.0,2631.0,4095.0,4074.0,4095.0,3803.0,-3.44,3.18,-6.48,0.09,0.02,0.06,1.0,tired
3216.0,4095.0,4095.0,3497.0,2855.0,2789.0,3154.0,2815.0,5.36,3.28,-3.42,0.04,0.0,0.14,0.0,3551.0,3827.0,3200.0,2650.0,4095.0,4080.0,4095.0,3872.0,-6.38,2.38,-7.23,-0.03,0.14,0.07,1.0,tired
3229.0,4095.0,4095.0,3495.0,2869.0,2786.0,3153.0,2817.0,5.8,2.75,-3.39,0.1,-0.07,-0.15,0.0,3551.0,3831.0,3193.0,2645.0,4095.0,4091.0,4095.0,3886.0,-6.0,2.05,-6.88,-0.03,0.22,-0.11,1.0,tired
3235.0,4095.0,4095.0,3504.0,2885.0,2795.0,3154.0,2831.0,5.67,3.03,-3.83,0.18,-0.11,-0.21,0.0,3553.0,3832.0,3207.0,2655.0,4095.0,4095.0,4095.0,3862.0,-5.93,2.05,-7.19,-0.04,0.16,-0.02,1.0,tired
3229.0,4095.0,4095.0,3487.0,2886.0,2782.0,3150.0,2800.0,6.01,3.32,-4.31,0.02,-0.04,-0.18,0.0,3548.0,3824.0,3186.0,2660.0,4095.0,4095.0,4095.0,3642.0,-5.69,1.99,-7.29,-0.14,0.14,-0.11,1.0,tired
3230.0,4095.0,4095.0,3493.0,2898.0,2784.0,3145.0,2821.0,4.78,2.59,-3.92,0.21,-0.37,-0.14,0.0,3550.0,3824.0,3195.0,2658.0,4095.0,4095.0,4095.0,3674.0,-4.98,1.65,-7.37,-0.13,0.09,-0.13,1.0,tired
3221.0,4095.0,4095.0,3508.0,2909.0,2799.0,3152.0,2838.0,5.97,2.79,-3.44,0.1,-0.16,-0.25,0.0,3537.0,3834.0,3186.0,2655.0,4095.0,4095.0,4095.0,3776.0,-5.65,1.79,-7.47,-0.04,0.03,-0.01,1.0,tired
3217.0,4095.0,4095.0,3503.0,2911.0,2803.0,3182.0,2849.0,5.66,2.58,-4.07,-0.01,0.03,-0.24,0.0,3538.0,3831.0,3194.0,2658.0,4095.0,4095.0,4095.0,3858.0,-5.42,1.61,-7.69,-0.08,-0.0,-0.04,1.0,tired
3191.0,4095.0,4095.0,3504.0,2925.0,2806.0,3184.0,2843.0,5.36,2.71,-4.17,0.04,-0.01,-0.2,0.0,3534.0,3838.0,3200.0,2655.0,4095.0,4095.0,4095.0,3894.0,-5.54,1.69,-7.86,-0.09,-0.06,-0.0,1.0,tired
3195.0,4095.0,4095.0,3517.0,2928.0,2807.0,3185.0,2861.0,5.48,2.67,-4.08,-0.02,0.06,-0.1,0.0,3536.0,3822.0,3199.0,2667.0,4095.0,4095.0,4095.0,3825.0,-5.16,1.56,-7.89,-0.07,0.08,-0.07,1.0,tired
3213.0,4095.0,4095.0,3509.0,2918.0,2826.0,3184.0,2847.0,5.71,2.59,-4.04,0.04,0.02,-0.2,0.0,3535.0,3840.0,3201.0,2667.0,4095.0,4095.0,4095.0,3894.0,-5.46,1.96,-7.61,-0.08,0.02,-0.02,1.0,tired
3174.0,4095.0,4095.0,3501.0,2921.0,2807.0,3183.0,2842.0,5.26,2.73,-3.97,0.06,0.09,-0.12,0.0,3531.0,3842.0,3203.0,2670.0,4095.0,4095.0,4095.0,3933.0,-5.05,1.7,-7.68,-0.08,0.07,-0.02,1.0,tired
3193.0,4095.0,4095.0,3381.0,2754.0,2767.0,3217.0,2763.0,7.81,1.86,10.24,0.02,0.18,-0.05,0.0,3514.0,3905.0,3223.0,2741.0,4095.0,4095.0,4095.0,4034.0,-7.48,1.95,6.02,-0.18,-0.18,-0.03,1.0,tired
3184.0,4095.0,4095.0,3376.0,2736.0,2759.0,3246.0,2753.0,7.62,2.15,10.11,0.07,-0.0,-0.11,0.0,3520.0,3901.0,3213.0,2739.0,4095.0,4095.0,4095.0,4027.0,-7.15,1.7,6.19,-0.05,-0.04,-0.02,1.0,tired
3169.0,4095.0,4095.0,3367.0,2716.0,2743.0,3274.0,2784.0,6.27,1.36,9.93,-0.21,0.16,0.2,0.0,3513.0,3887.0,3229.0,2751.0,4095.0,4095.0,4095.0,4041.0,-6.05,1.93,6.08,-0.19,-0.03,-0.16,1.0,tired
3184.0,4095.0,4095.0,3373.0,2771.0,2757.0,3255.0,2798.0,7.56,1.53,9.6,0.21,-0.73,-0.07,0.0,3519.0,3886.0,3227.0,2751.0,4095.0,4095.0,4095.0,4034.0,-7.33,1.4,4.29,0.13,0.83,-0.29,1.0,tired
3174.0,4095.0,4095.0,3344.0,2822.0,2746.0,3152.0,2673.0,8.27,1.66,6.46,0.77,-2.21,-0.56,0.0,3515.0,3878.0,3232.0,2731.0,4095.0,4095.0,4095.0,4019.0,-7.3,1.01,3.51,0.14,1.59,-0.16,1.0,tired
3200.0,4095.0,4095.0,3350.0,2818.0,2743.0,3135.0,2675.0,9.17,2.99,3.63,0.96,-2.2,-0.7,0.0,3503.0,3854.0,3199.0,2720.0,4095.0,4095.0,4095.0,4043.0,-7.95,2.11,-1.18,0.64,2.45,0.41,1.0,tired
3273.0,4095.0,4095.0,3376.0,2835.0,2801.0,3225.0,2921.0,9.07,5.66,-3.72,1.17,-1.26,-1.16,0.0,3522.0,3823.0,3203.0,2714.0,4095.0,4095.0,4095.0,3920.0,-6.42,3.39,-8.66,1.37,2.41,0.9,1.0,tired
3314.0,4095.0,4095.0,3397.0,2898.0,2811.0,3196.0,2839.0,6.56,4.18,-4.81,0.08,0.13,-0.19,0.0,3523.0,3811.0,3184.0,2639.0,4095.0,4095.0,4095.0,3860.0,-5.48,2.7,-9.35,0.43,-0.02,-0.16,1.0,tired
3296.0,4095.0,4095.0,3422.0,2902.0,2802.0,3200.0,2863.0,3.87,3.33,-3.19,0.14,0.01,0.04,0.0,3504.0,3814.0,3195.0,2650.0,4095.0,4095.0,4095.0,3876.0,-4.52,2.43,-6.8,-0.04,0.14,0.05,1.0,tired
3281.0,4095.0,4095.0,3421.0,2911.0,2823.0,3208.0,2878.0,5.57,3.79,-4.44,0.06,-0.04,-0.02,0.0,3511.0,3825.0,3188.0,2655.0,4095.0,4095.0,4095.0,3882.0,-5.2,2.24,-7.31,-0.1,-0.11,-0.05,1.0,tired
3255.0,4095.0,4095.0,3433.0,2912.0,2817.0,3211.0,2869.0,5.21,3.45,-3.92,0.04,0.03,-0.11,0.0,3519.0,3807.0,3191.0,2672.0,4095.0,4095.0,4095.0,3850.0,-5.22,2.31,-7.61,-0.07,-0.01,-0.01,1.0,tired
3242.0,4095.0,4095.0,3440.0,2922.0,2829.0,3217.0,2862.0,4.94,3.47,-3.95,0.06,-0.0,-0.12,0.0,3515.0,3792.0,3189.0,2671.0,4095.0,4095.0,4095.0,3843.0,-5.39,2.26,-7.37,-0.03,-0.14,-0.07,1.0,tired
3256.0,4095.0,4095.0,3440.0,2914.0,2820.0,3205.0,2853.0,5.21,3.33,-3.98,0.12,-0.02,-0.16,0.0,3511.0,3808.0,3184.0,2672.0,4095.0,4095.0,4095.0,3861.0,-5.32,2.2,-7.3,-0.07,0.06,-0.05,1.0,tired
3210.0,4095.0,4095.0,3437.0,2913.0,2830.0,3208.0,2848.0,4.62,3.22,-3.93,0.13,-0.06,-0.26,0.0,3511.0,3793.0,3197.0,2689.0,4095.0,4095.0,4095.0,3881.0,-5.37,2.1,-7.86,-0.08,0.07,-0.08,1.0,tired
3231.0,4095.0,4095.0,3430.0,2915.0,2833.0,3216.0,2871.0,5.18,3.39,-4.24,0.08,0.01,-0.21,0.0,3510.0,3807.0,3184.0,2678.0,4095.0,4095.0,4095.0,3882.0,-5.38,2.16,-7.61,-0.05,0.13,-0.12,1.0,tired
3206.0,4095.0,4095.0,3438.0,2924.0,2823.0,3219.0,2854.0,5.03,3.31,-3.86,0.07,-0.03,-0.19,0.0,3504.0,3801.0,3190.0,2685.0,4095.0,4095.0,4095.0,3888.0,-5.42,2.2,-7.94,-0.05,0.06,-0.05,1.0,tired
3211.0,4095.0,4095.0,3454.0,2916.0,2832.0,3216.0,2878.0,5.13,3.19,-4.01,0.01,0.02,-0.16,0.0,3510.0,3799.0,3196.0,2681.0,4095.0,4095.0,4095.0,3883.0,-5.28,2.18,-7.98,-0.06,0.06,-0.01,1.0,tired
3172.0,4095.0,4095.0,3421.0,2916.0,2832.0,3230.0,2855.0,5.05,3.35,-3.87,-0.0,0.01,-0.14,0.0,3526.0,3814.0,3186.0,2683.0,4095.0,4095.0,4095.0,3887.0,-4.93,2.15,-7.75,-0.06,-0.03,-0.03,1.0,tired
3193.0,4095.0,4095.0,3430.0,2913.0,2829.0,3217.0,2874.0,4.81,3.3,-3.76,-0.05,-0.03,-0.13,0.0,3503.0,3809.0,3184.0,2690.0,4095.0,4095.0,4095.0,3887.0,-5.26,2.16,-7.65,-0.09,-0.04,-0.07,1.0,tired
3184.0,4095.0,4095.0,3431.0,2941.0,2832.0,3216.0,2887.0,4.57,3.04,-4.02,-0.06,0.12,-0.09,0.0,3502.0,3799.0,3197.0,2683.0,4095.0,4095.0,4095.0,3892.0,-5.12,1.54,-7.66,-0.04,0.06,-0.22,1.0,tired
3170.0,4095.0,4095.0,3189.0,2754.0,2693.0,3107.0,2559.0,10.17,3.65,5.4,-1.51,1.5,-0.47,0.0,3779.0,3805.0,3281.0,3219.0,4095.0,4095.0,4095.0,4023.0,-9.92,-1.27,3.78,-0.1,-2.35,0.85,1.0,tired
3177.0,4095.0,4095.0,3222.0,2727.0,2687.0,3024.0,2559.0,7.61,3.08,5.7,-1.45,1.22,-0.86,0.0,3754.0,3767.0,3285.0,3183.0,4095.0,4095.0,4095.0,4095.0,-3.75,0.44,5.47,-1.18,-0.87,1.78,1.0,tired
3157.0,4095.0,4095.0,3099.0,2883.0,2716.0,3068.0,2635.0,6.27,1.55,10.43,-0.77,0.03,-0.51,0.0,3660.0,3854.0,3248.0,2898.0,4095.0,4095.0,4095.0,4015.0,-2.87,1.18,7.8,-0.64,-0.04,1.14,1.0,tired
3167.0,4095.0,4095.0,3153.0,2838.0,2784.0,3150.0,2668.0,6.21,0.88,10.94,-0.81,0.06,-0.06,0.0,3478.0,3872.0,3230.0,2746.0,4095.0,4095.0,4095.0,3929.0,-4.65,1.44,10.12,0.09,0.28,0.02,1.0,tired
3181.0,4095.0,4095.0,3281.0,2897.0,2768.0,3143.0,2692.0,6.51,1.54,11.1,-0.14,0.24,0.24,0.0,3494.0,3867.0,3219.0,2749.0,4095.0,4095.0,4095.0,3987.0,-6.09,1.87,7.37,-0.25,-0.0,-0.39,1.0,tired
3193.0,4095.0,4095.0,3273.0,2698.0,2769.0,3134.0,2689.0,6.96,1.4,10.42,0.04,-0.41,-0.06,0.0,3487.0,3863.0,3216.0,2743.0,4095.0,4095.0,4095.0,4015.0,-6.7,1.3,6.45,-0.32,0.26,-0.4,1.0,tired
3184.0,4095.0,4095.0,3286.0,2815.0,2736.0,3117.0,2672.0,7.78,1.3,9.66,0.22,-0.37,0.05,0.0,3477.0,3843.0,3227.0,2695.0,4095.0,4095.0,4095.0,4037.0,-6.53,1.07,5.49,0.12,0.95,-0.12,1.0,tired
3194.0,4095.0,4095.0,3281.0,2864.0,2745.0,3109.0,2685.0,7.21,1.1,8.05,0.9,-1.69,-0.5,0.0,3495.0,3815.0,3219.0,2671.0,4095.0,4095.0,4095.0,4019.0,-6.66,0.85,4.82,0.39,1.78,0.28,1.0,tired
3204.0,4095.0,4095.0,3287.0,2909.0,2790.0,3182.0,2657.0,7.07,2.98,5.25,0.91,-3.1,-1.36,0.0,3477.0,3783.0,3248.0,2672.0,4095.0,4095.0,4095.0,3989.0,-5.94,1.46,1.64,0.86,2.98,0.66,1.0,tired
3183.0,4095.0,4095.0,3278.0,2913.0,2806.0,3187.0,2663.0,10.43,4.17,1.63,1.13,-2.31,-0.58,0.0,3478.0,3770.0,3248.0,2660.0,4095.0,4095.0,4095.0,3571.0,-8.68,3.3,-6.94,1.31,3.41,0.89,1.0,tired
3184.0,4095.0,4095.0,3286.0,2918.0,2815.0,3165.0,2762.0,7.81,4.96,-4.42,1.12,-1.51,-0.86,0.0,3479.0,3745.0,3234.0,2559.0,4095.0,4030.0,4095.0,3559.0,-6.74,3.48,-8.31,1.45,1.42,0.52,1.0,tired
3179.0,4095.0,4095.0,3287.0,2932.0,2831.0,3178.0,2817.0,6.62,6.0,-6.17,0.72,-0.33,-0.39,0.0,3473.0,3751.0,3232.0,2546.0,4095.0,4001.0,4095.0,3491.0,-9.26,3.78,-11.75,0.58,-0.36,0.27,1.0,tired
3185.0,4095.0,4095.0,3308.0,2935.0,2842.0,3185.0,2800.0,5.53,3.58,-3.31,-0.0,-0.04,0.03,0.0,3473.0,3742.0,3217.0,2608.0,4095.0,4022.0,4095.0,3824.0,-6.15,2.73,-7.49,-0.12,0.2,0.04,1.0,tired
3185.0,4095.0,4095.0,3315.0,2944.0,2848.0,3184.0,2787.0,5.16,3.45,-3.51,0.06,-0.07,-0.11,0.0,3482.0,3733.0,3221.0,2617.0,4095.0,4048.0,4095.0,3781.0,-5.7,2.26,-7.4,-0.07,-0.03,-0.0,1.0,tired
3184.0,4095.0,4095.0,3315.0,2938.0,2848.0,3203.0,2813.0,5.41,3.75,-3.61,-0.05,0.02,-0.18,0.0,3469.0,3747.0,3225.0,2624.0,4095.0,4035.0,4095.0,3762.0,-5.74,2.38,-7.21,-0.04,-0.08,-0.06,1.0,tired
3209.0,4095.0,4095.0,3313.0,2938.0,2879.0,3200.0,2830.0,5.51,3.38,-3.62,0.04,0.04,-0.22,0.0,3474.0,3758.0,3225.0,2625.0,4095.0,4058.0,4095.0,3815.0,-5.62,2.36,-7.53,-0.03,0.04,-0.08,1.0,tired
3183.0,4095.0,4095.0,3320.0,2929.0,2878.0,3213.0,2837.0,5.57,3.62,-3.91,0.05,-0.03,-0.2,0.0,3472.0,3741.0,3218.0,2639.0,4095.0,4071.0,4095.0,3796.0,-5.8,2.1,-7.28,-0.04,0.03,-0.07,1.0,tired
3199.0,4095.0,4095.0,3309.0,2921.0,2880.0,3214.0,2838.0,5.29,3.62,-3.78,0.03,0.0,-0.17,0.0,3471.0,3758.0,3232.0,2641.0,4095.0,4068.0,4095.0,3839.0,-5.68,2.1,-7.32,-0.03,0.06,-0.06,1.0,tired
3195.0,4095.0,4095.0,3311.0,2944.0,2879.0,3216.0,2832.0,5.16,3.5,-3.39,0.03,0.04,-0.14,0.0,3474.0,3746.0,3219.0,2651.0,4095.0,4084.0,4095.0,3796.0,-5.75,2.14,-7.53,-0.04,0.03,-0.05,1.0,tired
3183.0,4095.0,4095.0,3292.0,2935.0,2887.0,3201.0,2832.0,5.21,3.57,-3.65,0.04,-0.05,-0.16,0.0,3475.0,3725.0,3218.0,2645.0,4095.0,4063.0,4095.0,3823.0,-5.55,2.17,-7.65,-0.04,-0.02,-0.03,1.0,tired
3127.0,4095.0,4095.0,3309.0,2690.0,2583.0,3014.0,2683.0,8.87,2.36,9.83,-0.71,0.07,0.02,0.0,3429.0,3857.0,3237.0,2778.0,4095.0,4095.0,4095.0,4029.0,-6.21,2.68,7.25,-0.24,0.19,0.01,1.0,tired
3117.0,4095.0,4095.0,3319.0,2704.0,2603.0,3034.0,2695.0,7.62,1.83,10.67,-0.13,0.18,-0.07,0.0,3397.0,3854.0,3229.0,2767.0,4095.0,4095.0,4095.0,4080.0,-6.43,2.67,7.07,-0.17,0.1,-0.08,1.0,tired
3121.0,4095.0,4095.0,3310.0,2811.0,2677.0,3114.0,2686.0,7.53,1.78,10.79,-0.12,0.32,0.01,0.0,3383.0,3856.0,3226.0,2762.0,4095.0,4095.0,4095.0,4091.0,-6.49,2.71,6.95,-0.13,0.08,-0.05,1.0,tired
3122.0,4095.0,4095.0,3317.0,2835.0,2699.0,3104.0,2701.0,6.62,1.53,9.76,0.28,0.39,0.21,0.0,3371.0,3818.0,3259.0,2736.0,4095.0,4095.0,4095.0,4057.0,-4.79,2.02,6.45,0.06,-0.18,-0.38,1.0,tired
3131.0,4095.0,4095.0,3325.0,2800.0,2677.0,3107.0,2672.0,7.38,2.83,9.81,0.41,-0.43,-0.06,0.0,3366.0,3779.0,3280.0,2704.0,4095.0,4095.0,4095.0,4016.0,-6.96,2.58,6.06,0.38,0.61,-0.14,1.0,tired
3139.0,4095.0,4095.0,3315.0,2793.0,2675.0,3112.0,2697.0,7.05,2.28,8.74,0.26,-0.84,-0.02,0.0,3361.0,3731.0,3275.0,2702.0,4095.0,4095.0,4095.0,3993.0,-6.14,1.94,4.42,0.36,2.0,-0.11,1.0,tired
3148.0,4095.0,4095.0,3312.0,2810.0,2647.0,2941.0,2512.0,8.57,2.34,3.76,1.16,-2.93,-0.62,0.0,3363.0,3735.0,3306.0,2703.0,4095.0,4095.0,4095.0,4018.0,-7.21,2.01,1.51,0.87,2.39,-0.1,1.0,tired
3126.0,4095.0,4095.0,3312.0,2759.0,2631.0,2961.0,2717.0,11.2,4.62,1.01,1.52,-3.02,-1.35,0.0,3359.0,3735.0,3303.0,2709.0,4095.0,4095.0,4095.0,4014.0,-8.26,2.72,-2.0,1.06,3.27,0.1,1.0,tired
3108.0,4095.0,4095.0,3311.0,2779.0,2662.0,3001.0,2722.0,7.02,4.07,-1.71,1.52,-2.42,-0.87,0.0,3357.0,3724.0,3323.0,2703.0,4095.0,4095.0,4095.0,3925.0,-9.98,3.36,-6.79,0.64,4.21,0.91,1.0,tired
3121.0,4095.0,4095.0,3363.0,2809.0,2691.0,3021.0,2802.0,6.09,4.28,-2.51,1.42,-1.89,-0.94,0.0,3343.0,3734.0,3311.0,2666.0,4095.0,4091.0,4095.0,3933.0,-7.24,3.11,-8.28,1.17,1.62,0.29,1.0,tired
3120.0,4095.0,4095.0,3341.0,2777.0,2719.0,3029.0,2688.0,9.96,6.38,-7.13,0.24,0.14,-0.19,0.0,3344.0,3729.0,3297.0,2659.0,4095.0,4047.0,4095.0,3654.0,-5.26,2.19,-6.96,-0.09,0.05,-0.07,1.0,tired
3120.0,4095.0,4095.0,3357.0,2849.0,2725.0,3045.0,2757.0,4.23,2.88,-3.17,-0.08,0.22,0.43,0.0,3342.0,3747.0,3287.0,2655.0,4095.0,4046.0,4095.0,3563.0,-5.96,1.48,-7.46,-0.08,0.18,-0.07,1.0,tired
3130.0,4095.0,4095.0,3371.0,2852.0,2734.0,3035.0,2783.0,5.47,3.16,-4.23,-0.04,0.17,0.05,0.0,3344.0,3734.0,3283.0,2663.0,4095.0,4053.0,4095.0,3639.0,-5.52,1.96,-7.15,-0.01,0.16,0.03,1.0,tired
3123.0,4095.0,4095.0,3360.0,2832.0,2733.0,3051.0,2793.0,5.32,3.29,-4.04,0.04,0.08,-0.09,0.0,3350.0,3725.0,3285.0,2664.0,4095.0,4065.0,4095.0,3606.0,-5.75,1.81,-7.75,-0.08,0.01,-0.06,1.0,tired
3125.0,4095.0,4095.0,3456.0,2861.0,2749.0,3056.0,2791.0,5.19,2.94,-3.92,0.13,-0.1,-0.25,0.0,3338.0,3728.0,3281.0,2669.0,4095.0,4071.0,4095.0,3638.0,-5.55,1.82,-7.45,-0.04,-0.01,-0.03,1.0,tired
3111.0,4095.0,4095.0,3471.0,2859.0,2738.0,3051.0,2809.0,5.63,3.23,-3.78,0.06,0.03,-0.24,0.0,3333.0,3734.0,3277.0,2667.0,4095.0,4070.0,4095.0,3573.0,-5.59,1.71,-7.41,-0.04,0.1,-0.09,1.0,tired
3124.0,4095.0,4095.0,3489.0,2861.0,2735.0,3059.0,2800.0,5.54,2.94,-3.78,0.06,0.01,-0.19,0.0,3331.0,3728.0,3297.0,2663.0,4095.0,4063.0,4095.0,3583.0,-5.89,1.66,-7.7,-0.07,0.09,-0.1,1.0,tired
3120.0,4095.0,4095.0,3473.0,2874.0,2735.0,3045.0,2817.0,5.24,3.14,-3.9,-0.01,0.04,-0.15,0.0,3340.0,3728.0,3291.0,2666.0,4095.0,4071.0,4095.0,3616.0,-5.64,1.55,-7.38,-0.06,0.07,-0.1,1.0,tired
3122.0,4095.0,4095.0,3483.0,2868.0,2736.0,3054.0,2803.0,5.43,3.0,-4.0,0.05,-0.02,-0.16,0.0,3337.0,3721.0,3281.0,2670.0,4095.0,4075.0,4095.0,3581.0,-5.56,1.58,-7.4,-0.06,-0.03,-0.06,1.0,tired
3131.0,4095.0,4095.0,3489.0,2875.0,2739.0,3043.0,2811.0,5.14,3.02,-3.75,0.07,-0.05,-0.14,0.0,3348.0,3743.0,3283.0,2679.0,4095.0,4095.0,4095.0,3629.0,-5.74,1.6,-7.47,-0.04,0.06,-0.01,1.0,tired
3123.0,4095.0,4095.0,3353.0,2759.0,2641.0,3047.0,2667.0,7.12,2.04,10.09,-0.58,0.49,-0.16,0.0,3786.0,3792.0,3600.0,2847.0,4095.0,3663.0,4095.0,3627.0,-6.5,1.65,5.04,-0.36,-0.1,0.4,1.0,tired
3136.0,4095.0,4095.0,3440.0,2778.0,2656.0,3043.0,2691.0,7.58,2.44,10.47,-0.18,0.07,-0.25,0.0,3773.0,3791.0,3601.0,2887.0,4095.0,3669.0,4095.0,3583.0,-6.31,2.16,5.91,-0.2,0.2,0.31,1.0,tired
3120.0,4095.0,4095.0,3492.0,2774.0,2639.0,3049.0,2672.0,7.55,2.54,10.44,0.01,0.01,-0.17,0.0,3773.0,3778.0,3579.0,2929.0,4095.0,3634.0,4095.0,3555.0,-7.32,2.17,6.1,-0.07,0.25,-0.05,1.0,tired
3142.0,4095.0,4061.0,3504.0,2775.0,2635.0,3088.0,2673.0,7.2,2.23,11.05,-0.06,-0.03,-0.04,0.0,3730.0,3783.0,3509.0,2943.0,4095.0,3845.0,4095.0,3600.0,-6.96,2.33,5.81,-0.1,-0.14,-0.37,1.0,tired
3139.0,4095.0,3867.0,3465.0,2721.0,2650.0,3065.0,2690.0,7.8,1.34,10.93,-0.03,-0.2,0.08,0.0,3647.0,3780.0,3523.0,2933.0,4095.0,3857.0,4095.0,3671.0,-6.96,1.29,5.43,-0.03,0.55,-0.28,1.0,tired
3152.0,4095.0,4095.0,3495.0,2689.0,2681.0,3109.0,2721.0,8.01,1.5,8.24,0.32,-1.22,-0.34,0.0,3522.0,3789.0,3440.0,2915.0,4095.0,3862.0,4095.0,3902.0,-7.92,0.75,3.52,0.47,1.44,0.25,1.0,tired
3213.0,4095.0,3744.0,3517.0,2767.0,2703.0,3120.0,2591.0,8.33,2.69,5.18,0.96,-2.37,-0.87,0.0,3510.0,3787.0,3355.0,2912.0,4095.0,3867.0,4095.0,3991.0,-7.82,1.54,2.0,0.71,1.52,0.21,1.0,tired
3216.0,4095.0,3440.0,3486.0,2736.0,2719.0,3037.0,2545.0,9.22,3.41,2.93,1.37,-2.12,-1.16,0.0,3442.0,3783.0,3280.0,2827.0,4095.0,3988.0,4095.0,4095.0,-6.86,2.8,-3.78,1.14,2.27,0.6,1.0,tired
3205.0,4095.0,3170.0,3213.0,2844.0,2711.0,3037.0,2733.0,7.76,4.54,-3.28,2.22,-2.58,-1.84,0.0,3422.0,3876.0,3277.0,2704.0,4095.0,3966.0,4095.0,4032.0,-7.9,3.13,-6.35,0.91,2.9,1.26,1.0,tired
3216.0,4095.0,3938.0,3254.0,2813.0,2723.0,3029.0,2659.0,9.52,6.05,-4.9,0.59,-0.72,-1.2,0.0,3414.0,3843.0,3263.0,2758.0,4095.0,3851.0,4095.0,4095.0,-7.2,4.92,-11.65,0.96,2.31,1.24,1.0,tired
3250.0,4095.0,4095.0,3316.0,2864.0,2752.0,3056.0,2631.0,4.24,4.67,-3.49,-0.06,0.04,0.04,0.0,3409.0,3847.0,3231.0,2784.0,4095.0,3876.0,4095.0,4095.0,-3.46,4.32,-8.22,-0.02,-0.58,0.25,1.0,tired
3288.0,4095.0,4095.0,3326.0,2869.0,2747.0,3049.0,2690.0,5.23,3.74,-3.64,-0.11,0.15,0.25,0.0,3397.0,3834.0,3245.0,2830.0,4095.0,3895.0,4095.0,4095.0,-5.49,2.81,-6.74,-0.03,0.16,0.01,1.0,tired
3219.0,4095.0,4095.0,3339.0,2836.0,2750.0,3063.0,2721.0,5.26,3.51,-3.39,0.06,0.02,-0.14,0.0,3410.0,3842.0,3236.0,2864.0,4095.0,3931.0,4095.0,4095.0,-5.05,2.65,-7.39,-0.06,-0.01,-0.01,1.0,tired
3203.0,4095.0,4095.0,3351.0,2858.0,2738.0,3063.0,2742.0,5.26,3.77,-3.57,0.04,0.08,-0.17,0.0,3409.0,3856.0,3235.0,2876.0,4095.0,3936.0,4095.0,4095.0,-5.09,2.94,-7.82,-0.09,0.07,-0.02,1.0,tired
3240.0,4095.0,4095.0,3357.0,2864.0,2755.0,3059.0,2759.0,5.26,3.64,-3.51,0.07,-0.03,-0.19,0.0,3403.0,3839.0,3237.0,2886.0,4095.0,3959.0,4095.0,4095.0,-5.08,2.85,-7.66,-0.04,0.05,-0.08,1.0,tired
3233.0,4095.0,4095.0,3353.0,2846.0,2753.0,3082.0,2755.0,5.4,3.51,-3.48,0.03,0.04,-0.18,0.0,3399.0,3842.0,3238.0,2897.0,4095.0,3968.0,4095.0,4095.0,-4.94,2.89,-7.45,-0.11,-0.02,-0.07,1.0,tired
3236.0,4095.0,4095.0,3358.0,2849.0,2754.0,3062.0,2753.0,5.34,3.65,-3.74,0.01,0.05,-0.18,0.0,3399.0,3829.0,3239.0,2896.0,4095.0,3990.0,4095.0,4095.0,-5.14,2.85,-7.76,-0.1,-0.03,-0.08,1.0,tired
3226.0,4095.0,4095.0,3367.0,2864.0,2758.0,3071.0,2767.0,5.47,3.62,-3.52,0.06,-0.01,-0.19,0.0,3408.0,3856.0,3248.0,2898.0,4095.0,3997.0,4095.0,4095.0,-5.08,2.9,-7.72,-0.09,0.02,-0.05,1.0,tired
3239.0,4095.0,4095.0,3371.0,2865.0,2763.0,3071.0,2766.0,5.24,3.64,-3.53,0.04,0.01,-0.18,0.0,3399.0,3838.0,3231.0,2911.0,4095.0,3983.0,4095.0,4095.0,-5.07,2.91,-7.83,-0.12,-0.05,-0.05,1.0,tired
3217.0,4095.0,4095.0,3383.0,2871.0,2763.0,3071.0,2780.0,5.37,3.62,-3.51,0.03,-0.01,-0.15,0.0,3399.0,3851.0,3243.0,2915.0,4095.0,3966.0,4095.0,4095.0,-5.2,2.84,-7.67,-0.04,0.04,-0.05,1.0,tired
3088.0,4095.0,4011.0,3383.0,2922.0,2800.0,3207.0,2758.0,7.93,2.59,8.85,-0.7,1.29,-0.07,0.0,4095.0,3935.0,3283.0,2975.0,4095.0,4095.0,4095.0,4014.0,-6.04,1.86,6.02,-0.66,-0.74,0.5,1.0,tired
3114.0,4095.0,4095.0,3364.0,2974.0,2867.0,3251.0,2793.0,6.61,2.49,9.76,-0.51,0.72,-0.25,0.0,4095.0,3939.0,3297.0,2983.0,4095.0,4095.0,4095.0,4063.0,-5.22,2.19,6.16,-0.78,0.28,0.77,1.0,tired
3179.0,4095.0,4095.0,3376.0,3143.0,2967.0,3306.0,2749.0,7.11,2.19,10.75,0.01,-0.1,-0.2,0.0,3971.0,3927.0,3282.0,2997.0,4095.0,4095.0,4095.0,4064.0,-5.85,1.85,7.33,-0.34,0.22,0.28,1.0,tired
3187.0,4095.0,4095.0,3357.0,3137.0,2960.0,3321.0,2749.0,7.27,2.26,10.3,-0.28,-0.05,-0.18,0.0,3953.0,3921.0,3273.0,3008.0,4095.0,4095.0,4095.0,4037.0,-6.91,2.09,6.08,-0.33,0.3,0.11,1.0,tired
3201.0,4095.0,4095.0,3376.0,3123.0,2969.0,3317.0,2763.0,7.59,2.14,10.48,0.08,-0.27,-0.17,0.0,3920.0,3941.0,3275.0,3047.0,4095.0,4095.0,4095.0,4023.0,-6.98,1.9,6.81,0.0,0.22,0.01,1.0,tired
3184.0,4095.0,4095.0,3391.0,3113.0,2963.0,3303.0,2752.0,7.83,2.2,10.81,-0.02,0.02,-0.16,0.0,3885.0,3931.0,3262.0,3087.0,4095.0,4095.0,4095.0,4006.0,-7.18,2.29,6.75,-0.0,0.01,-0.14,1.0,tired
3202.0,4095.0,4095.0,3387.0,3099.0,2976.0,3333.0,2753.0,8.13,2.39,10.76,-0.11,0.09,-0.13,0.0,3888.0,3941.0,3266.0,3071.0,4095.0,4095.0,4095.0,4023.0,-6.83,2.18,6.52,-0.01,-0.03,-0.11,1.0,tired
3190.0,4095.0,4095.0,3415.0,3106.0,2970.0,3341.0,2783.0,7.29,1.94,10.84,-0.16,0.17,-0.15,0.0,3882.0,3930.0,3263.0,3047.0,4095.0,4095.0,4095.0,4033.0,-7.05,1.99,6.62,-0.05,-0.02,-0.16,1.0,tired
3189.0,4095.0,4095.0,3436.0,3099.0,2976.0,3328.0,2797.0,7.85,2.01,10.69,-0.11,0.18,-0.12,0.0,3873.0,3931.0,3259.0,3056.0,4095.0,4095.0,4095.0,4046.0,-6.85,1.97,6.69,-0.12,-0.09,-0.1,1.0,tired
3184.0,4095.0,4095.0,3408.0,3097.0,2973.0,3339.0,2775.0,6.94,1.68,10.98,-0.09,0.18,-0.05,0.0,3870.0,3922.0,3280.0,3059.0,4095.0,4095.0,4095.0,4058.0,-6.56,1.81,6.89,-0.1,-0.09,-0.04,1.0,tired
3202.0,4095.0,4095.0,3430.0,3109.0,2975.0,3343.0,2787.0,3.9,1.14,9.04,0.25,-0.63,0.18,0.0,3823.0,3935.0,3266.0,3070.0,4095.0,4095.0,4095.0,4059.0,-4.81,1.53,6.02,-0.17,0.01,-0.37,1.0,tired
3211.0,4095.0,4095.0,3447.0,3046.0,2911.0,3312.0,2752.0,7.6,0.66,8.95,0.72,-1.72,0.07,0.0,3815.0,3899.0,3274.0,3082.0,4095.0,4095.0,4095.0,4058.0,-6.4,1.42,3.05,0.83,1.99,-0.37,1.0,tired
3197.0,4095.0,4095.0,3429.0,2978.0,2869.0,3211.0,2622.0,8.86,3.97,2.51,1.92,-4.66,-2.18,0.0,3809.0,3915.0,3275.0,3009.0,4095.0,4095.0,4095.0,4070.0,-8.48,1.82,-0.74,0.99,4.02,0.77,1.0,tired
3186.0,4095.0,4095.0,3376.0,2985.0,2835.0,3050.0,2608.0,9.39,4.84,-2.87,2.11,-3.11,-1.49,0.0,3785.0,3886.0,3295.0,2864.0,4095.0,4076.0,4095.0,4095.0,-8.05,4.64,-9.28,0.89,2.63,1.13,1.0,tired
3197.0,4095.0,4095.0,3305.0,2946.0,2867.0,3091.0,2741.0,6.61,5.58,-7.06,1.5,-0.66,-0.61,0.0,3767.0,3883.0,3279.0,2863.0,4095.0,4093.0,4095.0,4095.0,-8.01,3.98,-9.13,0.09,-0.4,0.32,1.0,tired
3191.0,4095.0,4095.0,3374.0,2983.0,2865.0,3113.0,2723.0,4.78,4.03,-3.04,-0.17,0.43,0.03,0.0,3787.0,3904.0,3277.0,2942.0,4095.0,4095.0,4095.0,4095.0,-5.12,3.31,-6.15,-0.0,-0.21,0.06,1.0,tired
3200.0,4095.0,4095.0,3390.0,2966.0,2864.0,3142.0,2758.0,5.19,3.71,-3.21,0.03,-0.01,-0.11,0.0,3786.0,3879.0,3274.0,2975.0,4095.0,4095.0,4095.0,4095.0,-5.13,3.01,-6.91,-0.06,-0.03,-0.11,1.0,tired
3189.0,4095.0,4095.0,3392.0,2998.0,2871.0,3136.0,2763.0,5.61,3.84,-3.6,0.11,-0.12,-0.23,0.0,3778.0,3877.0,3264.0,2988.0,4095.0,4095.0,4095.0,4095.0,-5.32,3.27,-7.6,-0.0,0.1,-0.02,1.0,tired
3189.0,4095.0,4095.0,3404.0,2997.0,2882.0,3129.0,2764.0,5.31,3.58,-3.36,0.1,-0.04,-0.27,0.0,3782.0,3899.0,3261.0,2988.0,4095.0,4095.0,4095.0,4095.0,-5.12,3.03,-7.44,-0.04,0.09,-0.07,1.0,tired
3192.0,4095.0,4095.0,3400.0,3002.0,2887.0,3142.0,2787.0,5.2,3.72,-3.46,0.12,-0.11,-0.22,0.0,3792.0,3876.0,3278.0,2989.0,4095.0,4095.0,4095.0,4095.0,-5.19,3.1,-7.62,-0.05,0.12,-0.1,1.0,tired
3126.0,4095.0,4095.0,3282.0,2832.0,2715.0,3103.0,2649.0,7.53,3.47,6.63,-1.38,0.82,-1.42,0.0,4054.0,3775.0,3533.0,3158.0,4095.0,3838.0,4095.0,3635.0,-7.23,-0.0,2.52,-0.57,-2.01,2.2,1.0,tired
3170.0,4095.0,4095.0,3311.0,2930.0,2803.0,3177.0,2672.0,4.7,2.77,7.86,-0.75,0.9,-0.9,0.0,3983.0,3840.0,3393.0,3217.0,4095.0,4095.0,4095.0,4059.0,-3.26,0.66,6.74,-0.49,-0.62,0.85,1.0,tired
3210.0,4095.0,4095.0,3332.0,3027.0,2877.0,3294.0,2716.0,7.18,1.79,11.78,-0.38,-0.06,-0.02,0.0,4017.0,3918.0,3367.0,3303.0,4095.0,4095.0,4095.0,3975.0,-6.56,2.28,6.85,-0.16,0.33,0.57,1.0,tired
3230.0,4095.0,4095.0,3425.0,2985.0,2896.0,3282.0,2703.0,7.11,2.6,10.62,-0.07,-0.23,-0.0,0.0,3920.0,3910.0,3323.0,3275.0,4095.0,4095.0,4095.0,4066.0,-5.95,2.48,6.87,-0.14,0.16,-0.04,1.0,tired
3211.0,4095.0,4095.0,3422.0,2985.0,2859.0,3275.0,2723.0,8.63,2.42,11.33,0.24,-0.1,-0.16,0.0,3775.0,3910.0,3331.0,3135.0,4095.0,4095.0,4095.0,4079.0,-7.02,1.99,6.89,-0.24,0.22,-0.29,1.0,tired
3222.0,4095.0,4095.0,3446.0,2933.0,2849.0,3248.0,2713.0,6.24,1.7,10.6,-0.11,-0.06,0.27,0.0,3739.0,3933.0,3350.0,3024.0,4095.0,4095.0,4095.0,4093.0,-6.83,1.53,6.9,-0.27,0.25,-0.17,1.0,tired
3254.0,4095.0,4095.0,3461.0,2928.0,2864.0,3274.0,2717.0,6.67,1.12,9.9,0.35,-1.14,-0.13,0.0,3727.0,3888.0,3366.0,3058.0,4095.0,4095.0,4095.0,4078.0,-6.19,1.27,5.72,0.14,1.06,-0.06,1.0,tired
3236.0,4095.0,4095.0,3476.0,2937.0,2852.0,3216.0,2653.0,7.42,1.35,5.39,1.23,-2.75,-1.0,0.0,3771.0,3862.0,3344.0,3027.0,4095.0,4095.0,4095.0,4051.0,-6.89,1.78,1.23,0.65,2.71,0.33,1.0,tired
3219.0,4095.0,4095.0,3486.0,2906.0,2851.0,3173.0,2717.0,9.26,4.34,-1.05,2.2,-3.67,-1.89,0.0,3779.0,3855.0,3322.0,2995.0,4095.0,4095.0,4095.0,3897.0,-9.12,3.28,-5.65,1.09,3.27,1.05,1.0,tired
3245.0,4095.0,4095.0,3471.0,2912.0,2836.0,3148.0,2551.0,7.3,4.72,-4.65,1.01,-1.52,-0.29,0.0,3739.0,3836.0,3312.0,3031.0,4095.0,4095.0,4095.0,3967.0,-7.62,4.8,-6.65,1.52,1.17,1.15,1.0,tired
3258.0,4095.0,4095.0,3478.0,2868.0,2834.0,3155.0,2690.0,9.47,4.51,-5.85,0.46,-1.3,-0.17,0.0,3731.0,3856.0,3296.0,2995.0,4095.0,4066.0,4095.0,4006.0,-9.36,3.5,-8.89,0.87,-0.97,0.05,1.0,tired
3267.0,4095.0,4095.0,3568.0,2875.0,2843.0,3155.0,2791.0,4.62,2.6,-3.39,-0.06,0.08,-0.01,0.0,3729.0,3863.0,3301.0,3045.0,4095.0,4082.0,4095.0,3967.0,-5.9,3.25,-6.97,-0.01,0.07,0.03,1.0,tired
3274.0,4095.0,4095.0,3567.0,2877.0,2850.0,3171.0,2800.0,6.15,2.83,-3.45,-0.01,0.05,-0.25,0.0,3723.0,3856.0,3306.0,3043.0,4095.0,4095.0,4095.0,4004.0,-5.62,2.71,-7.4,-0.09,-0.02,-0.03,1.0,tired
3275.0,4095.0,3754.0,3567.0,2888.0,2866.0,3177.0,2788.0,5.75,2.84,-3.74,0.08,-0.01,-0.21,0.0,3733.0,3862.0,3312.0,3026.0,4095.0,4079.0,4095.0,4003.0,-5.78,2.46,-7.12,-0.04,0.06,-0.03,1.0,tired
3273.0,4095.0,3778.0,3567.0,2900.0,2877.0,3168.0,2809.0,5.69,3.03,-3.75,0.04,0.06,-0.18,0.0,3721.0,3853.0,3289.0,3024.0,4095.0,4083.0,4095.0,4009.0,-5.6,2.38,-7.08,-0.07,0.04,-0.08,1.0,tired
3290.0,4095.0,3945.0,3569.0,2894.0,2863.0,3169.0,2810.0,5.59,2.93,-3.64,0.03,0.03,-0.18,0.0,3735.0,3859.0,3288.0,3024.0,4095.0,4087.0,4095.0,4010.0,-5.89,2.55,-7.52,-0.02,0.09,-0.06,1.0,tired
3280.0,4095.0,3988.0,3580.0,2886.0,2864.0,3165.0,2824.0,5.56,2.95,-3.8,0.08,-0.06,-0.17,0.0,3732.0,3847.0,3293.0,3024.0,4095.0,4095.0,4095.0,4013.0,-5.43,2.45,-7.12,-0.05,0.05,-0.02,1.0,tired
3284.0,4095.0,3982.0,3556.0,2898.0,2875.0,3168.0,2815.0,5.57,2.89,-3.68,0.03,-0.0,-0.15,0.0,3734.0,3870.0,3300.0,3024.0,4095.0,4095.0,4095.0,4007.0,-5.65,2.35,-7.18,-0.06,-0.01,-0.03,1.0,tired
3280.0,4095.0,3981.0,3547.0,2896.0,2846.0,3157.0,2816.0,5.63,2.84,-3.73,0.04,-0.08,-0.18,0.0,3749.0,3834.0,3292.0,3010.0,4095.0,4095.0,4095.0,4019.0,-5.51,2.4,-7.4,-0.03,0.02,-0.08,1.0,tired
3267.0,4095.0,4095.0,3520.0,2912.0,2863.0,3153.0,2810.0,5.67,2.98,-4.07,0.04,-0.03,-0.18,0.0,3739.0,3843.0,3302.0,3024.0,4095.0,4095.0,4095.0,4016.0,-5.7,2.26,-7.56,-0.06,-0.04,-0.06,1.0,tired
3180.0,4095.0,3858.0,3365.0,2668.0,2687.0,3056.0,2708.0,7.85,3.44,10.01,-0.04,-0.12,-0.17,0.0,3705.0,3799.0,3434.0,2771.0,4095.0,3947.0,4095.0,4095.0,-7.37,2.4,6.4,-0.15,0.11,0.01,1.0,tired
3199.0,4095.0,4061.0,3358.0,2430.0,2770.0,3149.0,2741.0,8.34,3.27,9.95,-0.04,-0.01,-0.2,0.0,3701.0,3855.0,3419.0,2799.0,4095.0,3952.0,4095.0,4095.0,-7.6,2.36,6.54,-0.07,0.17,-0.01,1.0,tired
3206.0,4095.0,4031.0,3401.0,2531.0,2783.0,3184.0,2758.0,5.37,2.54,10.12,-0.12,0.07,0.1,0.0,3715.0,3865.0,3406.0,2839.0,4095.0,3984.0,4095.0,4095.0,-5.58,1.94,6.66,-0.18,-0.18,-0.23,1.0,tired
3213.0,4095.0,3985.0,3394.0,2613.0,2761.0,3142.0,2693.0,7.67,1.22,10.85,0.64,-1.08,-0.62,0.0,3685.0,3829.0,3418.0,2894.0,4095.0,3967.0,4095.0,4095.0,-7.28,2.14,5.45,0.48,0.6,0.07,1.0,tired
3211.0,4095.0,3846.0,3411.0,2656.0,2741.0,3139.0,2665.0,8.72,3.4,9.28,0.52,-0.25,0.01,0.0,3681.0,3820.0,3390.0,2896.0,4095.0,3958.0,4095.0,4095.0,-7.49,2.15,5.1,0.28,0.36,-0.46,1.0,tired
3215.0,4095.0,3900.0,3434.0,2530.0,2758.0,3159.0,2660.0,7.61,3.78,7.26,0.32,-0.47,0.19,0.0,3678.0,3801.0,3397.0,2901.0,4095.0,3934.0,4095.0,4095.0,-8.11,1.94,4.47,0.23,0.72,-0.23,1.0,tired
3215.0,4095.0,3600.0,3430.0,2679.0,2769.0,3189.0,2629.0,8.03,2.83,7.25,0.41,-1.53,-0.26,0.0,3674.0,3729.0,3410.0,2890.0,4095.0,3952.0,4095.0,3998.0,-8.0,1.84,2.03,0.83,1.3,0.11,1.0,tired
3241.0,4095.0,3515.0,3440.0,2735.0,2752.0,3152.0,2559.0,8.06,3.84,1.83,0.97,-1.88,-0.37,0.0,3681.0,3729.0,3377.0,2878.0,4095.0,4005.0,4095.0,3867.0,-8.11,2.84,-0.61,0.89,1.98,0.34,1.0,tired
3231.0,4095.0,3920.0,3440.0,2637.0,2737.0,3105.0,2859.0,8.55,4.69,0.57,0.98,-3.04,-1.55,0.0,3633.0,3700.0,3393.0,2858.0,4095.0,3915.0,4095.0,3891.0,-9.83,4.03,-4.94,1.35,2.07,0.9,1.0,tired
3241.0,4095.0,4095.0,3406.0,2749.0,2755.0,3061.0,2659.0,8.38,4.77,-4.84,1.33,-1.45,-0.67,0.0,3613.0,3696.0,3361.0,2763.0,4095.0,3825.0,4095.0,3839.0,-11.93,3.78,-9.84,1.83,1.17,-0.15,1.0,tired
3253.0,4095.0,4095.0,3421.0,2800.0,2783.0,3071.0,2661.0,5.72,4.92,-4.94,0.17,0.18,-0.24,0.0,3610.0,3703.0,3366.0,2843.0,4095.0,3874.0,4095.0,3845.0,-6.78,2.87,-6.01,0.06,0.04,0.18,1.0,tired
3242.0,4095.0,4095.0,3495.0,2806.0,2800.0,3098.0,2755.0,5.54,3.08,-3.86,0.06,0.03,-0.05,0.0,3613.0,3699.0,3372.0,2855.0,4095.0,3875.0,4095.0,3879.0,-6.25,2.32,-6.76,-0.13,0.04,-0.04,1.0,tired
3252.0,4095.0,4095.0,3485.0,2818.0,2823.0,3117.0,2769.0,5.99,3.19,-3.68,0.01,0.12,-0.16,0.0,3597.0,3706.0,3345.0,2867.0,4095.0,3910.0,4095.0,3904.0,-6.97,2.31,-7.21,-0.1,0.08,-0.07,1.0,tired
3241.0,4095.0,4095.0,3485.0,2815.0,2826.0,3120.0,2799.0,5.97,3.2,-3.38,0.06,-0.02,-0.23,0.0,3606.0,3703.0,3376.0,2883.0,4095.0,3921.0,4095.0,3909.0,-6.58,2.2,-6.85,-0.08,0.1,-0.09,1.0,tired
3251.0,4095.0,4095.0,3489.0,2832.0,2816.0,3114.0,2791.0,5.77,3.03,-3.36,0.03,0.03,-0.21,0.0,3607.0,3703.0,3363.0,2882.0,4095.0,3922.0,4095.0,3906.0,-6.12,2.15,-6.65,-0.1,0.11,-0.11,1.0,tired
3242.0,4095.0,4095.0,3478.0,2811.0,2801.0,3121.0,2791.0,5.91,3.31,-3.56,0.05,0.01,-0.21,0.0,3621.0,3680.0,3353.0,2893.0,4095.0,3946.0,4095.0,3915.0,-6.41,2.15,-6.79,-0.06,-0.03,-0.07,1.0,tired
3241.0,4095.0,4095.0,3471.0,2828.0,2815.0,3120.0,2775.0,5.77,3.13,-3.43,0.01,0.01,-0.17,0.0,3600.0,3696.0,3351.0,2893.0,4095.0,3938.0,4095.0,3965.0,-6.39,2.1,-6.83,-0.02,0.07,-0.08,1.0,tired
3237.0,4095.0,4095.0,3487.0,2832.0,2823.0,3126.0,2779.0,5.61,3.11,-3.02,-0.0,0.03,-0.14,0.0,3603.0,3696.0,3355.0,2897.0,4095.0,3934.0,4095.0,3935.0,-6.33,2.13,-6.84,-0.05,0.02,-0.06,1.0,tired
3228.0,4095.0,4095.0,3501.0,2821.0,2812.0,3129.0,2783.0,5.88,3.23,-3.4,0.02,-0.01,-0.17,0.0,3601.0,3692.0,3355.0,2903.0,4095.0,3934.0,4095.0,3937.0,-6.3,2.06,-6.67,-0.03,0.06,-0.04,1.0,tired
3232.0,4095.0,4095.0,3477.0,2813.0,2831.0,3139.0,2763.0,5.84,3.25,-3.29,0.02,0.03,-0.14,0.0,3604.0,3709.0,3367.0,2909.0,4095.0,3936.0,4095.0,3943.0,-6.18,2.17,-6.84,-0.03,0.01,-0.03,1.0,tired
3119.0,4095.0,4071.0,3551.0,2966.0,2699.0,3181.0,2668.0,7.7,2.8,10.41,-0.05,0.16,-0.19,0.0,4083.0,3869.0,3255.0,2875.0,4095.0,4095.0,4095.0,3699.0,-6.7,2.71,6.79,0.13,-0.16,-0.05,1.0,tired
3099.0,2475.0,4095.0,3535.0,2867.0,2635.0,3155.0,2672.0,7.47,3.04,10.2,-0.14,0.24,-0.11,0.0,4087.0,3854.0,3250.0,2875.0,4095.0,4095.0,4095.0,3600.0,-7.03,3.23,6.0,0.01,0.0,-0.06,1.0,tired
3104.0,2063.0,4095.0,3569.0,2933.0,2637.0,3088.0,2664.0,7.16,2.43,10.86,-0.07,0.2,-0.15,0.0,4061.0,3881.0,3255.0,2915.0,4095.0,4095.0,4095.0,3717.0,-6.26,2.85,6.76,-0.07,0.07,-0.09,1.0,tired
3101.0,2453.0,4070.0,3583.0,3037.0,2724.0,3163.0,2704.0,6.29,1.96,10.07,0.06,0.24,0.51,0.0,4027.0,3901.0,3248.0,2928.0,4095.0,4095.0,4095.0,3765.0,-6.57,2.89,5.1,0.15,0.26,0.21,1.0,tired
3099.0,1895.0,3741.0,3583.0,2982.0,2714.0,3133.0,2629.0,6.49,2.88,8.29,0.37,-0.93,0.01,0.0,3915.0,3895.0,3259.0,2825.0,4095.0,4095.0,4095.0,3754.0,-6.99,3.17,4.0,0.57,0.83,-0.37,1.0,tired
3086.0,1972.0,3671.0,3583.0,2978.0,2704.0,3061.0,2593.0,7.75,2.74,7.73,0.6,-1.99,-0.79,0.0,3845.0,3868.0,3279.0,2852.0,4095.0,4095.0,4095.0,3818.0,-6.95,3.08,0.95,1.0,1.81,-0.01,1.0,tired
3099.0,2181.0,4095.0,3567.0,2803.0,2672.0,3030.0,2624.0,8.52,3.12,2.85,1.12,-1.06,-0.0,0.0,3819.0,3831.0,3280.0,2686.0,4095.0,4095.0,4095.0,3863.0,-8.56,3.52,-0.92,1.24,1.46,-0.06,1.0,tired
3102.0,2517.0,4095.0,3540.0,2815.0,2662.0,3026.0,2592.0,9.01,2.52,2.29,1.56,-2.87,-0.97,0.0,3734.0,3836.0,3297.0,2825.0,4095.0,4042.0,4095.0,3692.0,-7.87,3.24,-4.95,1.26,1.77,0.73,1.0,tired
3107.0,3362.0,4095.0,3501.0,2946.0,2714.0,3088.0,2736.0,6.83,4.87,-5.22,-0.25,0.23,-0.01,0.0,3741.0,3841.0,3303.0,2832.0,4095.0,3918.0,4095.0,3539.0,-6.83,3.4,-7.66,0.26,0.16,-0.19,1.0,tired
3109.0,3397.0,4095.0,3510.0,2960.0,2726.0,3083.0,2804.0,5.92,3.3,-3.44,-0.11,0.38,0.1,0.0,3761.0,3807.0,3303.0,2842.0,4095.0,3962.0,4095.0,3548.0,-7.29,2.65,-6.04,0.03,0.34,-0.09,1.0,tired
3107.0,3365.0,4095.0,3520.0,2944.0,2734.0,3071.0,2789.0,5.8,3.17,-3.18,0.07,0.04,-0.06,0.0,3746.0,3806.0,3308.0,2869.0,4095.0,3965.0,4095.0,3631.0,-6.86,2.17,-6.82,-0.14,0.04,-0.06,1.0,tired
3109.0,3344.0,4095.0,3539.0,2970.0,2727.0,3082.0,2796.0,5.76,3.48,-3.37,0.08,-0.08,-0.31,0.0,3757.0,3807.0,3309.0,2878.0,4095.0,3963.0,4095.0,3648.0,-6.63,2.04,-6.68,-0.05,-0.01,-0.07,1.0,tired
3103.0,3321.0,4095.0,3520.0,2961.0,2736.0,3088.0,2790.0,6.28,3.61,-3.17,0.05,0.02,-0.23,0.0,3747.0,3814.0,3302.0,2886.0,4095.0,3962.0,4095.0,3712.0,-6.63,2.14,-6.44,-0.03,0.05,-0.05,1.0,tired
3110.0,3312.0,4095.0,3522.0,2960.0,2752.0,3091.0,2834.0,5.8,3.37,-3.1,0.06,0.06,-0.18,0.0,3733.0,3793.0,3295.0,2893.0,4095.0,3955.0,4095.0,3734.0,-6.51,2.1,-6.75,-0.06,0.05,-0.02,1.0,tired
3114.0,3325.0,4095.0,3531.0,2955.0,2755.0,3095.0,2841.0,6.11,3.49,-3.26,0.07,-0.0,-0.15,0.0,3748.0,3810.0,3309.0,2896.0,4095.0,3967.0,4095.0,3737.0,-6.31,2.14,-6.71,-0.04,0.07,-0.07,1.0,tired
3105.0,3317.0,4095.0,3518.0,2947.0,2758.0,3104.0,2864.0,5.8,3.4,-3.07,0.1,0.04,-0.13,0.0,3726.0,3799.0,3304.0,2896.0,4095.0,3960.0,4095.0,3753.0,-6.3,2.05,-6.8,-0.06,0.04,-0.05,1.0,tired
3101.0,3318.0,4095.0,3524.0,2960.0,2750.0,3107.0,2851.0,5.82,3.35,-2.95,0.08,0.03,-0.15,0.0,3759.0,3820.0,3301.0,2895.0,4095.0,3953.0,4095.0,3737.0,-6.39,2.05,-7.01,-0.07,0.04,-0.04,1.0,tired
3105.0,3315.0,4095.0,3541.0,2949.0,2748.0,3093.0,2861.0,6.08,3.36,-3.37,0.08,-0.01,-0.21,0.0,3742.0,3798.0,3318.0,2896.0,4095.0,3978.0,4095.0,3752.0,-6.56,2.16,-7.12,-0.1,-0.03,-0.05,1.0,tired
3121.0,3337.0,4095.0,3534.0,2962.0,2757.0,3111.0,2874.0,5.73,3.32,-3.03,0.04,0.05,-0.2,0.0,3750.0,3783.0,3301.0,2897.0,4095.0,3983.0,4095.0,3749.0,-6.3,2.34,-6.97,-0.09,-0.05,-0.01,1.0,tired
3107.0,3319.0,4095.0,3531.0,2959.0,2752.0,3098.0,2864.0,6.11,3.34,-3.22,-0.02,0.15,-0.15,0.0,3742.0,3760.0,3294.0,2905.0,4095.0,3983.0,4095.0,3750.0,-6.54,2.21,-7.02,-0.09,0.07,-0.11,1.0,tired
3183.0,4095.0,3743.0,3571.0,2817.0,2833.0,3255.0,2878.0,7.35,3.43,11.04,-0.16,-0.05,-0.14,0.0,3691.0,4005.0,3264.0,3127.0,4095.0,4095.0,4095.0,4095.0,-6.67,2.61,6.81,0.01,0.12,-0.08,1.0,tired
3169.0,4095.0,3742.0,3568.0,2819.0,2853.0,3286.0,2887.0,7.34,2.92,11.29,-0.23,0.25,0.05,0.0,3673.0,4003.0,3246.0,3122.0,4095.0,4095.0,4095.0,4095.0,-6.76,2.2,7.42,-0.21,-0.09,-0.17,1.0,tired
3189.0,4095.0,3731.0,3542.0,2818.0,2839.0,3325.0,2834.0,6.49,2.79,11.42,0.02,0.18,-0.04,0.0,3666.0,4015.0,3279.0,3120.0,4095.0,4095.0,4095.0,4095.0,-5.6,2.1,6.81,-0.32,-0.07,-0.23,1.0,tired
3195.0,4095.0,3750.0,3536.0,2813.0,2857.0,3328.0,2771.0,5.23,2.07,10.41,0.09,-0.13,0.04,0.0,3680.0,3995.0,3266.0,3121.0,4095.0,4095.0,4095.0,4095.0,-5.62,1.81,5.52,-0.14,0.38,-0.17,1.0,tired
3213.0,4095.0,3725.0,3514.0,2702.0,2782.0,3249.0,2752.0,8.56,1.69,9.22,0.46,-0.96,-0.01,0.0,3707.0,3915.0,3275.0,3102.0,4095.0,4095.0,4095.0,4095.0,-8.16,1.71,4.69,0.33,1.47,0.01,1.0,tired
3210.0,4095.0,3739.0,3511.0,2735.0,2806.0,3261.0,2742.0,8.09,2.56,7.3,0.67,-1.03,-0.16,0.0,3707.0,3923.0,3255.0,3091.0,4095.0,4095.0,4095.0,4095.0,-8.91,1.91,1.77,0.63,1.33,0.28,1.0,tired
3243.0,4095.0,3681.0,3438.0,2779.0,2814.0,3233.0,2729.0,7.74,2.86,6.2,0.82,-1.68,-0.81,0.0,3739.0,3887.0,3283.0,3027.0,4095.0,4095.0,4095.0,4043.0,-8.54,2.3,0.16,1.21,-0.24,-0.21,1.0,tired
3233.0,4095.0,4095.0,3435.0,2769.0,2800.0,3134.0,2773.0,9.29,2.61,3.3,1.76,-2.21,-0.82,0.0,3739.0,3838.0,3286.0,3035.0,4095.0,4095.0,4095.0,3968.0,-7.55,2.84,-0.98,1.03,2.04,0.78,1.0,tired
3261.0,4095.0,4095.0,3388.0,2734.0,2799.0,3143.0,2797.0,8.45,5.38,-2.0,2.09,-2.18,-1.33,0.0,3713.0,3775.0,3296.0,3022.0,4095.0,3951.0,4095.0,3788.0,-9.89,4.59,-8.5,1.88,2.49,0.63,1.0,tired
3267.0,4095.0,4095.0,3373.0,2832.0,2829.0,3155.0,2759.0,6.61,4.46,-4.25,0.32,-0.23,0.2,0.0,3709.0,3779.0,3285.0,2907.0,4095.0,3980.0,4095.0,3917.0,-6.32,3.02,-6.47,0.01,-0.01,-0.25,1.0,tired
3267.0,4095.0,4095.0,3394.0,2849.0,2838.0,3152.0,2816.0,5.69,2.94,-3.16,0.01,0.06,-0.08,0.0,3719.0,3791.0,3280.0,2928.0,4095.0,3969.0,4095.0,3923.0,-5.82,2.81,-6.89,-0.08,0.02,-0.06,1.0,tired
3247.0,4095.0,4095.0,3395.0,2853.0,2846.0,3155.0,2810.0,5.77,3.16,-3.13,0.05,0.08,-0.14,0.0,3715.0,3770.0,3283.0,2939.0,4095.0,3991.0,4095.0,3959.0,-6.09,2.52,-6.76,-0.05,-0.06,-0.11,1.0,tired
3269.0,4095.0,4095.0,3405.0,2853.0,2832.0,3168.0,2827.0,6.22,3.4,-3.13,0.03,0.14,-0.12,0.0,3714.0,3759.0,3286.0,2944.0,4095.0,4012.0,4095.0,3968.0,-6.31,2.55,-7.18,-0.06,0.05,-0.05,1.0,tired
3259.0,4095.0,4095.0,3415.0,2847.0,2835.0,3167.0,2787.0,6.05,3.39,-3.17,-0.03,0.02,-0.16,0.0,3706.0,3781.0,3289.0,2945.0,4095.0,3984.0,4095.0,3994.0,-6.11,2.55,-6.97,-0.07,0.06,-0.05,1.0,tired
3250.0,4095.0,4095.0,3414.0,2853.0,2832.0,3169.0,2813.0,6.08,3.35,-2.81,0.08,0.01,-0.14,0.0,3725.0,3776.0,3283.0,2960.0,4095.0,4007.0,4095.0,3999.0,-6.13,2.68,-7.0,-0.08,0.03,-0.02,1.0,tired
3276.0,4095.0,4095.0,3414.0,2837.0,2838.0,3184.0,2819.0,6.05,3.35,-2.85,0.04,-0.01,-0.14,0.0,3727.0,3760.0,3287.0,2961.0,4095.0,4013.0,4095.0,3997.0,-6.09,2.44,-6.71,-0.06,-0.01,-0.06,1.0,tired
3254.0,4095.0,4095.0,3441.0,2845.0,2819.0,3194.0,2821.0,5.92,3.4,-3.33,0.05,0.01,-0.1,0.0,3713.0,3776.0,3291.0,2923.0,4095.0,4019.0,4095.0,3989.0,-6.0,2.64,-7.05,-0.04,0.13,-0.06,1.0,tired
3264.0,4095.0,4095.0,3442.0,2864.0,2831.0,3210.0,2832.0,6.08,3.35,-3.14,-0.03,0.04,-0.13,0.0,3713.0,3770.0,3285.0,2938.0,4095.0,4032.0,4095.0,4004.0,-5.93,2.55,-7.06,-0.09,-0.02,-0.02,1.0,tired
3264.0,4095.0,4095.0,3435.0,2849.0,2834.0,3197.0,2821.0,6.02,3.3,-3.11,0.03,0.01,-0.12,0.0,3715.0,3775.0,3279.0,2943.0,4095.0,4035.0,4095.0,4011.0,-6.2,2.61,-7.25,-0.06,0.01,-0.05,1.0,tired
3273.0,4095.0,4095.0,3425.0,2857.0,2837.0,3206.0,2829.0,5.96,3.41,-3.21,-0.02,0.03,-0.12,0.0,3706.0,3757.0,3287.0,2943.0,4095.0,4035.0,4095.0,4003.0,-5.93,2.61,-6.92,-0.06,-0.01,-0.07,1.0,tired
3175.0,4095.0,3003.0,3531.0,2934.0,2797.0,3391.0,2807.0,7.15,2.56,11.25,0.08,0.09,-0.25,0.0,3663.0,3886.0,3190.0,3103.0,4095.0,4095.0,4095.0,4095.0,-6.92,2.21,6.21,0.03,0.01,-0.05,1.0,tired
3089.0,4095.0,2485.0,3583.0,3261.0,2787.0,3280.0,2794.0,8.07,2.27,10.81,0.01,-0.18,-0.3,0.0,3723.0,3856.0,3225.0,3117.0,4095.0,4095.0,4095.0,4095.0,-7.21,2.26,6.15,-0.08,0.04,0.01,1.0,tired
3069.0,4095.0,2239.0,3600.0,3453.0,2794.0,3264.0,2783.0,6.94,1.77,11.24,-0.02,0.06,-0.15,0.0,3685.0,3894.0,3214.0,3108.0,4095.0,4095.0,4095.0,4095.0,-7.24,2.3,6.48,-0.15,0.13,-0.05,1.0,tired
3097.0,4095.0,2343.0,3605.0,3205.0,2842.0,3322.0,2800.0,6.76,1.09,10.08,0.02,-0.54,0.2,0.0,3647.0,3889.0,3242.0,3120.0,4095.0,4095.0,4095.0,4095.0,-5.64,1.69,5.89,-0.25,0.04,-0.41,1.0,tired
3069.0,4095.0,2069.0,3583.0,3088.0,2854.0,3313.0,2781.0,7.79,1.45,10.56,0.53,-0.45,0.01,0.0,3634.0,3881.0,3283.0,3105.0,4095.0,4095.0,4095.0,4095.0,-7.99,1.0,5.51,0.32,0.96,-0.14,1.0,tired
3071.0,4095.0,3143.0,3599.0,2987.0,2832.0,3247.0,2731.0,6.81,2.46,9.04,0.73,-1.16,-0.3,0.0,3632.0,3823.0,3490.0,3085.0,4095.0,4045.0,4095.0,4086.0,-8.36,2.23,2.98,0.5,1.26,-0.02,1.0,tired
3084.0,4095.0,3494.0,3571.0,2943.0,2805.0,3066.0,2559.0,7.24,1.92,7.77,0.9,-1.59,-0.46,0.0,3633.0,3819.0,3483.0,3056.0,4095.0,4018.0,4095.0,4057.0,-7.16,2.6,1.2,0.77,1.52,0.11,1.0,tired
3089.0,4095.0,3247.0,3522.0,2880.0,2771.0,3047.0,2435.0,8.84,3.56,1.6,1.89,-2.39,-1.1,0.0,3645.0,3798.0,3495.0,2991.0,4095.0,3950.0,4095.0,3990.0,-8.62,2.11,-1.13,1.12,2.25,0.51,1.0,tired
3081.0,4095.0,4095.0,3499.0,2901.0,2773.0,3120.0,2559.0,6.28,3.45,-0.12,2.24,-2.06,-0.9,0.0,3647.0,3825.0,3473.0,2967.0,4095.0,3981.0,4095.0,4034.0,-7.17,2.15,-2.97,1.53,1.79,0.63,1.0,tired
3106.0,4095.0,3683.0,3456.0,2931.0,2768.0,3133.0,2635.0,6.93,4.69,-2.4,1.76,-2.19,-0.59,0.0,3642.0,3803.0,3386.0,2960.0,4095.0,3951.0,4095.0,4000.0,-7.33,3.28,-5.8,1.56,2.91,1.02,1.0,tired
3120.0,4095.0,2960.0,3452.0,2943.0,2768.0,3134.0,2640.0,5.95,3.99,-4.51,-0.1,-0.54,-0.25,0.0,3651.0,3770.0,3319.0,2768.0,4095.0,3729.0,4095.0,3355.0,-5.1,3.24,-11.48,0.29,-2.1,0.46,1.0,tired
3159.0,4095.0,3007.0,3457.0,2947.0,2775.0,3120.0,2688.0,5.96,2.33,-4.29,-0.17,-0.18,0.45,0.0,3667.0,3748.0,3344.0,2864.0,4095.0,3824.0,4095.0,3492.0,-7.04,2.08,-8.56,-0.09,-0.01,0.18,1.0,tired
3137.0,4095.0,3159.0,3447.0,2928.0,2779.0,3137.0,2719.0,5.24,1.59,-3.77,0.0,-0.24,-0.14,0.0,3654.0,3696.0,3364.0,2871.0,4095.0,3837.0,4095.0,3558.0,-5.75,1.91,-7.81,-0.06,0.1,-0.03,1.0,tired
3150.0,4095.0,3122.0,3433.0,2949.0,2781.0,3106.0,2759.0,4.74,1.89,-4.32,0.13,0.03,-0.29,0.0,3664.0,3696.0,3342.0,2875.0,4095.0,3856.0,4095.0,3571.0,-5.02,1.83,-7.79,0.01,0.05,-0.07,1.0,tired
3143.0,4095.0,2923.0,3408.0,2965.0,2774.0,3118.0,2786.0,5.59,1.92,-4.78,0.2,0.2,-0.17,0.0,3678.0,3699.0,3344.0,2873.0,4095.0,3858.0,4095.0,3610.0,-4.69,1.83,-7.84,-0.1,0.13,-0.11,1.0,tired
3139.0,4095.0,2992.0,3489.0,2960.0,2789.0,3095.0,2791.0,5.01,1.86,-4.01,0.06,0.04,-0.19,0.0,3664.0,3712.0,3337.0,2880.0,4095.0,3862.0,4095.0,3606.0,-5.15,1.81,-7.92,-0.11,-0.03,-0.1,1.0,tired
3136.0,4095.0,2992.0,3518.0,2950.0,2782.0,3120.0,2778.0,5.23,1.93,-4.21,0.07,0.01,-0.19,0.0,3658.0,3697.0,3331.0,2879.0,4095.0,3873.0,4095.0,3513.0,-5.06,1.75,-8.0,-0.04,0.04,-0.01,1.0,tired
3149.0,4095.0,3105.0,3531.0,2967.0,2784.0,3114.0,2786.0,5.08,1.82,-4.18,0.09,-0.09,-0.15,0.0,3675.0,3689.0,3325.0,2893.0,4095.0,3889.0,4095.0,3505.0,-5.12,1.65,-7.77,-0.06,0.02,-0.01,1.0,tired
3134.0,4095.0,3508.0,3505.0,2959.0,2800.0,3115.0,2797.0,5.01,1.85,-4.25,-0.04,0.01,-0.08,0.0,3651.0,3680.0,3326.0,2893.0,4095.0,3890.0,4095.0,3517.0,-5.12,1.83,-7.98,-0.04,-0.06,-0.03,1.0,tired
3146.0,4095.0,3551.0,3516.0,2966.0,2776.0,3122.0,2786.0,5.21,1.93,-4.19,-0.11,0.15,0.0,0.0,3649.0,3691.0,3327.0,2896.0,4095.0,3909.0,4095.0,3535.0,-5.06,1.8,-7.79,-0.04,-0.06,-0.04,1.0,tired
3115.0,4095.0,4095.0,3568.0,3056.0,2804.0,3235.0,2675.0,7.7,2.11,10.67,-0.08,0.1,-0.12,0.0,3391.0,3663.0,3179.0,3083.0,4095.0,4095.0,4095.0,3969.0,-6.34,2.22,6.41,0.09,-0.14,-0.19,1.0,tired
3130.0,4095.0,4095.0,3583.0,3120.0,2799.0,3240.0,2689.0,7.01,2.11,10.96,-0.04,0.16,-0.1,0.0,3362.0,3682.0,3184.0,3071.0,4095.0,4095.0,4095.0,4021.0,-6.16,1.97,6.9,-0.11,0.03,-0.05,1.0,tired
3102.0,4095.0,4095.0,3600.0,3159.0,2807.0,3261.0,2687.0,6.96,2.17,11.07,-0.02,0.06,-0.05,0.0,3346.0,3670.0,3175.0,3071.0,4095.0,4095.0,4095.0,4013.0,-7.07,2.17,6.58,-0.09,0.19,-0.03,1.0,tired
3123.0,4095.0,4046.0,3565.0,3139.0,2803.0,3263.0,2722.0,6.0,1.28,11.06,0.37,-0.44,-0.31,0.0,3309.0,3698.0,3170.0,3071.0,4095.0,4095.0,4095.0,3984.0,-6.01,1.81,7.25,-0.09,-0.1,-0.24,1.0,tired
3126.0,4095.0,4061.0,3600.0,3094.0,2800.0,3211.0,2699.0,6.19,2.2,10.26,0.19,-0.46,0.09,0.0,3288.0,3777.0,3229.0,3071.0,4095.0,4095.0,4095.0,3889.0,-7.43,1.8,6.04,0.27,0.68,0.08,1.0,tired
3143.0,4095.0,4067.0,3597.0,3056.0,2777.0,3171.0,2678.0,8.38,2.31,9.93,0.13,-0.71,0.12,0.0,3287.0,3814.0,3267.0,3086.0,4095.0,4095.0,4095.0,3983.0,-6.53,1.71,6.02,-0.01,0.91,-0.38,1.0,tired
3124.0,4095.0,1957.0,3558.0,2915.0,2669.0,2941.0,2502.0,8.77,0.56,6.89,1.02,-2.44,-1.33,0.0,3293.0,3840.0,3366.0,3057.0,4095.0,4095.0,4095.0,3817.0,-7.77,1.45,0.66,1.15,1.89,0.23,1.0,tired
3137.0,4095.0,2212.0,3510.0,3026.0,2765.0,3051.0,2641.0,4.83,1.62,3.36,2.16,-2.88,-1.92,0.0,3308.0,3854.0,3351.0,3056.0,4095.0,4095.0,4095.0,3991.0,-4.76,4.47,-5.41,1.7,2.23,1.52,1.0,tired
3175.0,4095.0,4095.0,3486.0,3030.0,2779.0,3141.0,2688.0,5.04,3.77,-3.18,0.19,-0.3,0.47,0.0,3326.0,3793.0,3339.0,3104.0,4095.0,4095.0,4095.0,4069.0,-6.64,6.49,-11.09,1.33,2.62,1.35,1.0,tired
3202.0,4095.0,4095.0,3492.0,3066.0,2781.0,3152.0,2730.0,6.72,4.69,-4.53,0.19,-0.11,0.2,0.0,3331.0,3789.0,3321.0,3099.0,4095.0,4095.0,4095.0,3847.0,-6.9,3.19,-5.38,0.19,-0.24,-0.27,1.0,tired
3159.0,4095.0,4095.0,3466.0,3029.0,2764.0,3135.0,2746.0,4.61,2.84,-2.69,-0.12,0.32,0.02,0.0,3330.0,3779.0,3323.0,3114.0,4095.0,4095.0,4095.0,3909.0,-6.0,3.19,-7.37,-0.18,0.08,-0.07,1.0,tired
3181.0,4095.0,4095.0,3495.0,3043.0,2779.0,3151.0,2797.0,5.41,3.32,-3.58,0.01,0.08,-0.23,0.0,3318.0,3778.0,3317.0,3100.0,4095.0,4095.0,4095.0,3933.0,-5.15,3.44,-7.01,-0.07,0.03,-0.17,1.0,tired
3174.0,4095.0,4095.0,3484.0,3044.0,2775.0,3165.0,2814.0,5.86,3.27,-3.67,0.01,0.1,-0.27,0.0,3327.0,3773.0,3311.0,3105.0,4095.0,4095.0,4095.0,3999.0,-5.63,2.94,-7.4,-0.03,0.08,-0.14,1.0,tired
3178.0,4095.0,4095.0,3491.0,3007.0,2775.0,3170.0,2875.0,5.41,3.49,-3.14,0.01,0.25,-0.06,0.0,3325.0,3780.0,3312.0,3105.0,4095.0,4095.0,4095.0,4007.0,-5.67,3.55,-7.76,0.0,0.03,-0.11,1.0,tired
3186.0,4095.0,4095.0,3504.0,3071.0,2838.0,3227.0,2911.0,5.66,3.53,-3.32,0.05,0.04,-0.19,0.0,3328.0,3781.0,3311.0,3107.0,4095.0,4095.0,4095.0,4005.0,-5.54,3.06,-7.35,-0.11,-0.06,-0.1,1.0,tired
3178.0,4095.0,4095.0,3497.0,3071.0,2832.0,3222.0,2896.0,5.79,3.23,-3.63,0.06,0.03,-0.17,0.0,3326.0,3793.0,3307.0,3113.0,4095.0,4095.0,4095.0,3991.0,-5.25,3.36,-7.92,-0.08,0.15,-0.05,1.0,tired
3174.0,4095.0,4095.0,3505.0,3051.0,2819.0,3207.0,2896.0,5.62,3.23,-3.08,0.12,-0.11,-0.28,0.0,3329.0,3775.0,3311.0,3107.0,4095.0,4095.0,4095.0,4011.0,-5.4,3.06,-7.12,-0.05,0.08,-0.04,1.0,tired
3200.0,4095.0,4095.0,3504.0,3047.0,2800.0,3203.0,2919.0,5.65,3.63,-3.24,0.05,-0.01,-0.26,0.0,3326.0,3792.0,3318.0,3116.0,4095.0,4095.0,4095.0,3986.0,-4.99,3.49,-8.06,-0.11,-0.02,-0.0,1.0,tired
3182.0,4095.0,4095.0,3504.0,3038.0,2799.0,3188.0,2911.0,5.8,3.44,-3.46,0.0,-0.09,-0.21,0.0,3321.0,3773.0,3306.0,3099.0,4095.0,4095.0,4095.0,3984.0,-5.12,2.95,-7.17,-0.1,-0.06,-0.04,1.0,tired
3189.0,4095.0,4095.0,3510.0,3030.0,2800.0,3186.0,2906.0,5.8,3.39,-3.68,-0.05,-0.03,-0.17,0.0,3343.0,3766.0,3310.0,3104.0,4095.0,4095.0,4095.0,3994.0,-5.27,3.11,-7.22,-0.02,-0.1,-0.04,1.0,tired
3082.0,914.0,4095.0,3568.0,2944.0,2723.0,3285.0,2793.0,7.31,2.09,10.25,0.0,0.06,-0.11,0.0,3306.0,3728.0,3233.0,3161.0,4095.0,4095.0,4095.0,4039.0,-6.9,2.62,5.74,-0.02,0.08,-0.06,1.0,tired
3071.0,961.0,4095.0,3613.0,2911.0,2673.0,3189.0,2720.0,7.92,2.33,10.51,0.08,-0.14,-0.17,0.0,3295.0,3723.0,3231.0,3155.0,4095.0,4095.0,4095.0,4048.0,-8.12,2.93,5.14,-0.02,0.05,-0.06,1.0,tired
3071.0,973.0,4095.0,3582.0,2937.0,2696.0,3203.0,2713.0,8.02,2.55,10.56,0.05,0.02,-0.1,0.0,3291.0,3727.0,3225.0,3165.0,4095.0,4095.0,4095.0,4033.0,-8.57,2.91,5.55,0.0,-0.39,-0.11,1.0,tired
3082.0,973.0,4095.0,3617.0,3035.0,2719.0,3214.0,2736.0,6.64,1.13,10.97,0.09,-0.42,-0.09,0.0,3287.0,3744.0,3233.0,3162.0,4095.0,4095.0,4095.0,4080.0,-6.71,2.96,5.41,-0.21,-0.41,-0.32,1.0,tired
3071.0,973.0,4095.0,3603.0,3029.0,2736.0,3217.0,2718.0,7.91,1.98,10.19,0.09,0.22,0.28,0.0,3290.0,3742.0,3235.0,3167.0,4095.0,4095.0,4095.0,4073.0,-7.02,2.01,5.47,-0.01,0.12,-0.23,1.0,tired
3088.0,981.0,4095.0,3623.0,3018.0,2749.0,3229.0,2708.0,8.01,2.14,9.84,0.12,0.1,0.15,0.0,3294.0,3733.0,3233.0,3159.0,4095.0,4095.0,4095.0,4095.0,-7.03,1.99,5.38,-0.02,0.06,-0.44,1.0,tired
3071.0,990.0,4095.0,3618.0,3007.0,2736.0,3225.0,2734.0,7.37,1.68,10.24,0.12,-0.05,0.06,0.0,3311.0,3759.0,3239.0,3162.0,4095.0,4095.0,4095.0,4094.0,-7.78,1.6,5.16,-0.0,0.51,-0.36,1.0,tired
3088.0,981.0,4095.0,3617.0,2999.0,2726.0,3215.0,2724.0,6.67,1.12,10.13,0.33,-0.7,-0.3,0.0,3311.0,3806.0,3232.0,3153.0,4095.0,4095.0,4095.0,4082.0,-7.5,1.24,3.83,0.42,0.77,-0.11,1.0,tired
3088.0,984.0,4095.0,3616.0,3005.0,2750.0,3202.0,2721.0,6.96,1.95,8.09,0.71,-1.25,-0.34,0.0,3321.0,3796.0,3245.0,3150.0,4095.0,4095.0,4095.0,4095.0,-7.34,1.58,3.27,0.7,1.28,0.3,1.0,tired
3071.0,967.0,4095.0,3639.0,2918.0,2742.0,3059.0,2662.0,9.52,3.35,5.04,1.49,-1.35,-0.47,0.0,3357.0,3761.0,3259.0,3126.0,4095.0,4095.0,4095.0,3984.0,-7.78,2.74,1.03,0.85,1.34,0.21,1.0,tired
3103.0,963.0,4095.0,3632.0,2899.0,2735.0,3093.0,2691.0,6.63,3.46,4.14,1.33,-2.56,-1.04,0.0,3392.0,3721.0,3267.0,3117.0,4095.0,4095.0,4095.0,4038.0,-7.99,3.43,-1.96,0.96,2.15,0.71,1.0,tired
3046.0,960.0,3982.0,3475.0,2853.0,2683.0,3044.0,2698.0,7.14,5.08,-5.81,1.31,-1.85,-0.04,0.0,3437.0,3701.0,3285.0,3088.0,4095.0,4095.0,4095.0,3966.0,-7.58,6.25,-7.18,0.96,2.37,1.4,1.0,tired
3092.0,958.0,4095.0,3568.0,3014.0,2739.0,3142.0,2704.0,5.67,3.39,-3.37,-0.27,0.21,0.19,0.0,3475.0,3698.0,3274.0,3024.0,4095.0,4095.0,4095.0,3637.0,-7.07,3.76,-5.31,0.19,0.23,-0.16,1.0,tired
3093.0,955.0,4095.0,3579.0,2995.0,2717.0,3140.0,2800.0,5.64,3.01,-3.02,0.02,0.16,-0.1,0.0,3479.0,3724.0,3281.0,3045.0,4095.0,4095.0,4095.0,3494.0,-6.33,3.38,-6.72,0.01,0.27,0.0,1.0,tired
3089.0,950.0,4095.0,3562.0,3003.0,2733.0,3134.0,2825.0,6.2,3.22,-3.28,0.1,-0.03,-0.2,0.0,3471.0,3710.0,3270.0,3050.0,4095.0,4095.0,4095.0,3546.0,-5.87,3.4,-6.76,-0.09,0.02,-0.06,1.0,tired
3089.0,951.0,4095.0,3603.0,3007.0,2726.0,3139.0,2869.0,6.2,3.51,-3.11,0.08,0.0,-0.2,0.0,3485.0,3719.0,3274.0,3056.0,4095.0,4095.0,4095.0,3583.0,-5.84,3.31,-6.79,-0.07,0.0,-0.05,1.0,tired
3089.0,944.0,4095.0,3575.0,3009.0,2736.0,3151.0,2896.0,6.0,3.28,-3.17,0.04,0.0,-0.2,0.0,3479.0,3715.0,3269.0,3055.0,4095.0,4095.0,4095.0,3555.0,-5.83,3.38,-7.02,-0.04,0.04,-0.07,1.0,tired
3071.0,945.0,4095.0,3580.0,3007.0,2749.0,3150.0,2882.0,6.21,3.26,-3.14,0.05,0.01,-0.18,0.0,3479.0,3709.0,3280.0,3055.0,4095.0,4095.0,4095.0,3525.0,-5.93,3.18,-6.95,-0.06,0.04,-0.09,1.0,tired
3110.0,955.0,4095.0,3603.0,3008.0,2737.0,3137.0,2860.0,5.93,3.38,-3.35,-0.06,0.02,-0.13,0.0,3485.0,3714.0,3273.0,3056.0,4095.0,4095.0,4095.0,3638.0,-6.06,3.03,-7.0,-0.08,0.07,-0.07,1.0,tired
3099.0,956.0,4095.0,3563.0,3021.0,2752.0,3146.0,2891.0,6.05,3.27,-3.05,0.07,0.01,-0.2,0.0,3477.0,3722.0,3264.0,3061.0,4095.0,4095.0,4095.0,3728.0,-5.93,3.22,-6.81,-0.06,0.03,-0.06,1.0,tired
