hall_1,hall_2,hall_3,flex_t,flex_i,flex_m,flex_r,flex_p,accel_x,accel_y,accel_z,gyro_x,gyro_y,gyro_z,hand,sign
1109.0,3006.0,3244.0,3341.0,4095.0,4095.0,2741.0,2630.0,0.34,9.77,5.8,0.12,-0.02,-0.13,0.0,u
1097.0,3005.0,3239.0,3331.0,4095.0,4095.0,2737.0,2627.0,0.28,9.84,5.44,0.15,0.01,-0.11,0.0,u
1112.0,2998.0,3237.0,3344.0,4095.0,4095.0,2743.0,2635.0,0.5,9.93,5.07,0.01,0.03,-0.11,0.0,u
1094.0,2992.0,3243.0,3335.0,4095.0,4095.0,2737.0,2630.0,0.38,9.79,5.61,-0.08,-0.01,-0.15,0.0,u
1104.0,3007.0,3248.0,3343.0,4095.0,4095.0,2745.0,2635.0,0.36,9.74,5.91,0.06,-0.08,-0.15,0.0,u
1104.0,2998.0,3230.0,3329.0,4095.0,4095.0,2748.0,2639.0,0.24,9.8,5.71,0.1,-0.08,-0.2,0.0,u
1102.0,3007.0,3247.0,3328.0,4095.0,4095.0,2739.0,2635.0,0.26,9.9,5.24,0.13,-0.04,-0.13,0.0,u
1100.0,2994.0,3232.0,3344.0,4095.0,4095.0,2739.0,2636.0,0.48,9.84,5.35,0.01,-0.03,-0.16,0.0,u
1098.0,2995.0,3238.0,3336.0,4095.0,4095.0,2741.0,2635.0,0.23,9.84,5.47,0.09,-0.07,-0.17,0.0,u
1102.0,2998.0,3235.0,3337.0,4095.0,4095.0,2747.0,2639.0,0.35,9.85,5.17,0.05,-0.07,-0.15,0.0,u
1114.0,3004.0,3233.0,3339.0,4095.0,4095.0,2741.0,2639.0,0.29,9.84,5.18,0.04,-0.04,-0.13,0.0,u
1114.0,3001.0,3237.0,3346.0,4095.0,4095.0,2736.0,2640.0,0.44,9.87,5.14,-0.04,-0.04,-0.13,0.0,u
1109.0,2992.0,3245.0,3339.0,4095.0,4095.0,2733.0,2637.0,0.34,9.82,5.53,-0.07,-0.01,-0.15,0.0,u
1118.0,3018.0,3249.0,3344.0,4095.0,4095.0,2737.0,2642.0,0.37,9.83,5.42,-0.05,-0.01,-0.14,0.0,u
1094.0,2995.0,3231.0,3343.0,4095.0,4095.0,2741.0,2638.0,0.4,9.84,5.43,-0.07,-0.02,-0.14,0.0,u
1113.0,2996.0,3237.0,3351.0,4095.0,4095.0,2738.0,2640.0,0.43,9.81,5.66,-0.09,-0.05,-0.16,0.0,u
1099.0,3003.0,3231.0,3341.0,4095.0,4095.0,2739.0,2639.0,0.39,9.78,5.9,-0.07,-0.02,-0.16,0.0,u
1116.0,3004.0,3242.0,3349.0,4095.0,4095.0,2739.0,2640.0,0.39,9.76,5.95,-0.03,-0.01,-0.16,0.0,u
1109.0,3005.0,3247.0,3351.0,4095.0,4095.0,2737.0,2638.0,0.28,9.75,5.87,-0.0,0.0,-0.17,0.0,u
1103.0,2993.0,3230.0,3344.0,4095.0,4095.0,2738.0,2638.0,0.41,9.85,5.1,-0.02,-0.06,-0.16,0.0,u
1095.0,3003.0,3231.0,3353.0,4095.0,4095.0,2738.0,2641.0,0.32,9.63,6.69,0.01,-0.0,-0.13,0.0,u
1098.0,3009.0,3224.0,3361.0,4095.0,4095.0,2741.0,2640.0,0.23,9.58,6.75,-0.03,0.03,-0.12,0.0,u
1095.0,3005.0,3243.0,3362.0,4095.0,4095.0,2741.0,2654.0,0.57,9.57,6.84,0.0,0.02,-0.11,0.0,u
1086.0,2995.0,3226.0,3356.0,4095.0,4095.0,2735.0,2641.0,0.43,9.62,6.68,0.07,-0.01,-0.13,0.0,u
1100.0,3009.0,3243.0,3365.0,4095.0,4095.0,2746.0,2655.0,0.4,9.65,6.43,0.05,-0.09,-0.1,0.0,u
1085.0,2993.0,3219.0,3347.0,4095.0,4095.0,2736.0,2649.0,0.57,9.61,6.64,-0.0,0.02,-0.08,0.0,u
1093.0,3012.0,3239.0,3359.0,4095.0,4095.0,2744.0,2649.0,0.4,9.59,6.76,0.06,0.03,-0.08,0.0,u
1102.0,2992.0,3229.0,3347.0,4095.0,4095.0,2739.0,2646.0,0.59,9.61,6.55,0.09,0.11,-0.03,0.0,u
1097.0,3012.0,3253.0,3360.0,4095.0,4095.0,2745.0,2653.0,0.85,9.66,6.25,0.1,0.05,-0.02,0.0,u
1103.0,3002.0,3222.0,3360.0,4095.0,4095.0,2736.0,2647.0,0.83,9.65,6.3,0.02,0.04,-0.04,0.0,u
1124.0,3008.0,3236.0,3367.0,4095.0,4095.0,2740.0,2654.0,1.05,9.67,6.13,-0.01,0.04,-0.05,0.0,u
1115.0,2996.0,3232.0,3357.0,4095.0,4095.0,2739.0,2646.0,1.29,9.66,6.28,-0.02,0.05,-0.08,0.0,u
1122.0,3007.0,3230.0,3364.0,4095.0,4095.0,2745.0,2650.0,1.27,9.61,6.43,-0.04,-0.01,-0.13,0.0,u
1118.0,3007.0,3222.0,3367.0,4095.0,4095.0,2745.0,2647.0,1.19,9.61,6.39,-0.05,-0.03,-0.15,0.0,u
1122.0,2991.0,3222.0,3357.0,4095.0,4095.0,2738.0,2640.0,1.18,9.56,6.69,-0.09,-0.05,-0.16,0.0,u
1110.0,2996.0,3242.0,3374.0,4095.0,4095.0,2745.0,2653.0,1.09,9.53,6.84,-0.06,-0.05,-0.14,0.0,u
1118.0,2994.0,3234.0,3359.0,4095.0,4095.0,2736.0,2640.0,1.22,9.51,6.8,-0.03,0.01,-0.15,0.0,u
1115.0,3015.0,3234.0,3351.0,4095.0,4095.0,2741.0,2656.0,1.32,9.52,6.84,-0.03,-0.06,-0.21,0.0,u
1127.0,2998.0,3223.0,3371.0,4095.0,4095.0,2741.0,2646.0,0.93,9.52,6.82,0.02,-0.04,-0.19,0.0,u
1121.0,2997.0,3229.0,3367.0,4095.0,4095.0,2739.0,2656.0,0.99,9.55,6.7,-0.03,-0.03,-0.15,0.0,u
1138.0,3004.0,3243.0,3392.0,4095.0,4095.0,2739.0,2647.0,0.64,9.52,7.03,0.03,-0.09,-0.23,0.0,u
1127.0,3007.0,3248.0,3386.0,4095.0,4095.0,2745.0,2655.0,0.59,9.5,7.05,0.01,-0.04,-0.2,0.0,u
1127.0,3003.0,3227.0,3392.0,4095.0,4095.0,2742.0,2650.0,0.63,9.53,6.94,0.05,-0.01,-0.19,0.0,u
1149.0,3006.0,3247.0,3386.0,4095.0,4095.0,2749.0,2667.0,0.63,9.5,6.94,-0.01,-0.03,-0.21,0.0,u
1142.0,3001.0,3226.0,3381.0,4095.0,4095.0,2750.0,2656.0,0.46,9.53,7.04,0.0,-0.03,-0.21,0.0,u
1141.0,3007.0,3233.0,3387.0,4095.0,4095.0,2751.0,2667.0,0.58,9.5,7.05,-0.03,-0.01,-0.2,0.0,u
1136.0,2993.0,3225.0,3383.0,4095.0,4095.0,2747.0,2656.0,0.62,9.49,7.21,0.04,-0.06,-0.27,0.0,u
1143.0,3011.0,3246.0,3391.0,4095.0,4095.0,2740.0,2661.0,0.3,9.55,6.86,0.04,-0.06,-0.28,0.0,u
1136.0,3008.0,3239.0,3389.0,4095.0,4095.0,2738.0,2655.0,0.23,9.48,7.12,0.03,-0.08,-0.31,0.0,u
1136.0,3007.0,3236.0,3390.0,4095.0,4095.0,2753.0,2662.0,0.01,9.53,6.94,0.08,-0.07,-0.32,0.0,u
1136.0,2993.0,3237.0,3377.0,4095.0,4095.0,2746.0,2661.0,-0.24,9.5,6.98,0.03,-0.03,-0.28,0.0,u
1151.0,2994.0,3234.0,3399.0,4095.0,4095.0,2752.0,2663.0,-0.3,9.47,7.13,0.03,-0.07,-0.26,0.0,u
1140.0,2996.0,3218.0,3393.0,4095.0,4095.0,2755.0,2662.0,-0.26,9.55,6.82,0.08,-0.05,-0.21,0.0,u
1138.0,2991.0,3223.0,3382.0,4095.0,4095.0,2743.0,2663.0,-0.38,9.56,6.83,0.01,-0.05,-0.2,0.0,u
1141.0,3002.0,3241.0,3383.0,4095.0,4095.0,2747.0,2662.0,-0.38,9.53,6.96,0.06,-0.01,-0.18,0.0,u
1132.0,2992.0,3241.0,3387.0,4095.0,4095.0,2751.0,2661.0,-0.37,9.55,6.76,0.08,-0.02,-0.18,0.0,u
1147.0,3004.0,3248.0,3392.0,4095.0,4095.0,2748.0,2667.0,-0.41,9.58,6.63,0.05,-0.0,-0.14,0.0,u
1152.0,2994.0,3238.0,3387.0,4095.0,4095.0,2751.0,2667.0,-0.4,9.51,6.86,0.02,0.02,-0.11,0.0,u
1145.0,3008.0,3243.0,3395.0,4095.0,4095.0,2751.0,2671.0,-0.37,9.59,6.66,0.12,-0.1,-0.09,0.0,u
1150.0,2992.0,3236.0,3385.0,4095.0,4095.0,2749.0,2661.0,0.11,9.59,6.62,-0.03,0.01,-0.1,0.0,u
1167.0,3006.0,3237.0,3408.0,4095.0,4095.0,2763.0,2679.0,-1.53,9.51,6.41,-0.04,-0.02,-0.18,0.0,u
1168.0,2997.0,3245.0,3396.0,4095.0,4095.0,2753.0,2674.0,-1.67,9.45,6.55,-0.03,-0.06,-0.16,0.0,u
1167.0,3005.0,3248.0,3399.0,4095.0,4095.0,2765.0,2683.0,-1.6,9.48,6.54,-0.01,-0.04,-0.16,0.0,u
1170.0,3010.0,3239.0,3394.0,4095.0,4095.0,2751.0,2672.0,-1.63,9.46,6.62,-0.03,0.05,-0.12,0.0,u
1162.0,3013.0,3237.0,3391.0,4095.0,4095.0,2764.0,2684.0,-1.52,9.36,6.89,-0.0,-0.01,-0.15,0.0,u
1153.0,3005.0,3241.0,3395.0,4095.0,4095.0,2761.0,2673.0,-1.56,9.44,6.57,0.02,-0.02,-0.14,0.0,u
1164.0,2994.0,3245.0,3392.0,4095.0,4095.0,2752.0,2672.0,-1.64,9.47,6.43,-0.02,0.01,-0.12,0.0,u
1162.0,3007.0,3245.0,3403.0,4095.0,4095.0,2761.0,2678.0,-1.68,9.33,7.04,-0.06,0.04,-0.08,0.0,u
1157.0,3011.0,3233.0,3395.0,4095.0,4095.0,2755.0,2674.0,-1.4,9.43,6.72,0.05,0.09,-0.05,0.0,u
1164.0,3009.0,3237.0,3395.0,4095.0,4095.0,2766.0,2686.0,-1.2,9.46,6.73,0.04,0.0,-0.1,0.0,u
1152.0,2991.0,3236.0,3395.0,4095.0,4095.0,2762.0,2674.0,-1.47,9.46,6.69,0.03,-0.01,-0.08,0.0,u
1163.0,3006.0,3246.0,3402.0,4095.0,4095.0,2765.0,2679.0,-1.55,9.51,6.48,0.01,0.05,0.03,0.0,u
1157.0,2997.0,3245.0,3399.0,4095.0,4095.0,2757.0,2679.0,-0.91,9.47,6.9,-0.08,0.2,0.05,0.0,u
1164.0,2992.0,3243.0,3407.0,4095.0,4095.0,2758.0,2679.0,-1.11,9.51,6.67,0.02,0.07,0.04,0.0,u
1152.0,3003.0,3233.0,3401.0,4095.0,4095.0,2757.0,2679.0,-0.63,9.47,6.9,-0.0,0.04,0.02,0.0,u
1158.0,3011.0,3247.0,3399.0,4095.0,4095.0,2767.0,2686.0,-0.33,9.58,6.69,0.04,0.05,-0.07,0.0,u
1153.0,3006.0,3248.0,3402.0,4095.0,4095.0,2768.0,2683.0,-0.47,9.58,6.62,0.05,0.05,-0.15,0.0,u
1168.0,3009.0,3248.0,3408.0,4095.0,4095.0,2770.0,2679.0,-0.59,9.6,6.67,0.09,-0.12,-0.23,0.0,u
1166.0,2993.0,3246.0,3411.0,4095.0,4095.0,2763.0,2682.0,-0.92,9.59,6.55,0.04,0.02,-0.17,0.0,u
1167.0,3009.0,3237.0,3406.0,4095.0,4095.0,2763.0,2684.0,-1.06,9.48,6.63,0.02,0.03,-0.1,0.0,u
1143.0,3008.0,3241.0,3440.0,4095.0,4095.0,2769.0,2685.0,-0.82,9.68,6.24,0.08,-0.03,-0.14,0.0,u
1152.0,2993.0,3239.0,3440.0,4095.0,4095.0,2762.0,2687.0,-0.52,9.68,5.95,0.02,-0.03,-0.12,0.0,u
1152.0,2995.0,3237.0,3440.0,4095.0,4095.0,2765.0,2695.0,-0.48,9.71,6.02,0.02,-0.05,-0.15,0.0,u
1147.0,2995.0,3235.0,3438.0,4095.0,4095.0,2765.0,2682.0,-0.63,9.62,6.4,0.04,-0.1,-0.17,0.0,u
1152.0,3002.0,3248.0,3440.0,4095.0,4095.0,2769.0,2690.0,-0.7,9.74,5.95,0.12,-0.09,-0.16,0.0,u
1147.0,3001.0,3241.0,3435.0,4095.0,4095.0,2763.0,2684.0,-0.62,9.72,5.86,0.04,0.02,-0.1,0.0,u
1157.0,3002.0,3235.0,3439.0,4095.0,4095.0,2765.0,2689.0,-0.37,9.71,5.88,0.04,0.01,-0.1,0.0,u
1138.0,3013.0,3249.0,3447.0,4095.0,4095.0,2769.0,2688.0,-0.05,9.8,5.74,-0.04,0.02,-0.2,0.0,u
1139.0,2995.0,3237.0,3439.0,4095.0,4095.0,2765.0,2687.0,-0.66,9.7,6.06,-0.06,-0.09,-0.34,0.0,u
1141.0,3000.0,3239.0,3451.0,4095.0,4095.0,2768.0,2687.0,-1.03,9.67,6.22,-0.0,-0.18,-0.31,0.0,u
1153.0,2997.0,3246.0,3443.0,4095.0,4095.0,2759.0,2682.0,-1.2,9.61,6.26,-0.0,-0.04,-0.21,0.0,u
1145.0,3001.0,3242.0,3445.0,4095.0,4095.0,2768.0,2695.0,-0.93,9.6,6.19,0.03,-0.06,-0.17,0.0,u
1141.0,2993.0,3239.0,3436.0,4095.0,4095.0,2766.0,2688.0,-0.84,9.69,5.96,0.0,-0.02,-0.16,0.0,u
1141.0,3010.0,3242.0,3440.0,4095.0,4095.0,2771.0,2691.0,-0.78,9.63,6.13,-0.03,0.03,-0.18,0.0,u
1141.0,2999.0,3231.0,3435.0,4095.0,4095.0,2768.0,2688.0,-0.88,9.55,6.38,-0.03,-0.04,-0.24,0.0,u
1147.0,3003.0,3248.0,3446.0,4095.0,4095.0,2774.0,2691.0,-0.85,9.62,6.19,-0.01,-0.07,-0.32,0.0,u
1147.0,3002.0,3246.0,3437.0,4095.0,4095.0,2763.0,2687.0,-1.29,9.52,6.25,0.01,-0.1,-0.33,0.0,u
1156.0,3011.0,3248.0,3441.0,4095.0,4095.0,2767.0,2694.0,-1.69,9.55,6.35,0.01,-0.12,-0.29,0.0,u
1152.0,2993.0,3244.0,3452.0,4095.0,4095.0,2768.0,2687.0,-1.64,9.5,6.39,-0.03,-0.09,-0.24,0.0,u
1148.0,3001.0,3226.0,3436.0,4095.0,4095.0,2768.0,2688.0,-1.61,9.49,6.43,-0.01,-0.09,-0.23,0.0,u
1138.0,2989.0,3237.0,3434.0,4095.0,4095.0,2772.0,2688.0,-2.02,9.31,6.85,0.06,-0.02,-0.19,0.0,u
1154.0,3003.0,3231.0,3433.0,4095.0,4095.0,2764.0,2691.0,-2.07,9.37,6.51,0.06,-0.06,-0.16,0.0,u
1148.0,2999.0,3242.0,3435.0,4095.0,4095.0,2768.0,2698.0,-1.98,9.41,6.34,0.02,-0.01,-0.12,0.0,u
1136.0,2994.0,3233.0,3434.0,4095.0,4095.0,2768.0,2686.0,-1.91,9.36,6.63,-0.04,0.07,-0.12,0.0,u
1152.0,3007.0,3239.0,3437.0,4095.0,4095.0,2772.0,2694.0,-1.9,9.37,6.56,0.02,0.03,-0.15,0.0,u
1147.0,2992.0,3234.0,3440.0,4095.0,4095.0,2765.0,2688.0,-1.94,9.41,6.48,0.03,-0.02,-0.17,0.0,u
1154.0,3008.0,3235.0,3440.0,4095.0,4095.0,2767.0,2692.0,-1.96,9.39,6.54,-0.05,0.02,-0.15,0.0,u
1152.0,2998.0,3231.0,3430.0,4095.0,4095.0,2768.0,2689.0,-2.03,9.23,7.06,0.02,-0.02,-0.15,0.0,u
1154.0,3006.0,3248.0,3443.0,4095.0,4095.0,2774.0,2699.0,-1.96,9.35,6.65,0.08,0.02,-0.11,0.0,u
1155.0,3008.0,3231.0,3435.0,4095.0,4095.0,2768.0,2689.0,-1.95,9.4,6.43,0.07,0.01,-0.11,0.0,u
1153.0,3005.0,3246.0,3449.0,4095.0,4095.0,2770.0,2693.0,-1.81,9.45,6.36,0.05,0.04,-0.11,0.0,u
1141.0,2997.0,3237.0,3440.0,4095.0,4095.0,2768.0,2690.0,-1.85,9.46,6.3,0.01,0.03,-0.11,0.0,u
1154.0,3003.0,3246.0,3440.0,4095.0,4095.0,2768.0,2695.0,-2.1,9.41,6.55,0.02,0.04,-0.08,0.0,u
1152.0,3003.0,3245.0,3445.0,4095.0,4095.0,2775.0,2694.0,-1.8,9.47,6.27,-0.01,0.12,0.02,0.0,u
1121.0,3007.0,3239.0,3440.0,4095.0,4095.0,2771.0,2691.0,-1.28,9.45,6.36,-0.03,0.06,-0.04,0.0,u
1121.0,2995.0,3255.0,3446.0,4095.0,4095.0,2775.0,2702.0,-1.2,9.45,6.62,-0.02,-0.02,-0.11,0.0,u
1140.0,2997.0,3237.0,3440.0,4095.0,4095.0,2772.0,2689.0,-1.47,9.45,6.7,0.07,-0.05,-0.16,0.0,u
1161.0,2992.0,3248.0,3451.0,4095.0,4095.0,2771.0,2695.0,-1.41,9.49,6.46,0.06,-0.01,-0.15,0.0,u
1173.0,3004.0,3237.0,3434.0,4095.0,4095.0,2779.0,2692.0,-1.39,9.52,6.41,0.06,-0.0,-0.17,0.0,u
1185.0,3002.0,3250.0,3440.0,4095.0,4095.0,2779.0,2704.0,-1.44,9.52,6.26,0.07,-0.05,-0.18,0.0,u
1302.0,3008.0,3248.0,3431.0,4095.0,4095.0,2771.0,2694.0,-1.64,9.49,6.29,-0.03,-0.02,-0.16,0.0,u
1297.0,3003.0,3248.0,3451.0,4095.0,4095.0,2781.0,2703.0,-1.63,9.51,6.32,0.03,-0.06,-0.17,0.0,u
1297.0,2992.0,3251.0,3441.0,4095.0,4095.0,2771.0,2688.0,-1.59,9.48,6.25,-0.01,-0.02,-0.17,0.0,u
1327.0,3008.0,3261.0,3445.0,4095.0,4095.0,2782.0,2701.0,-1.7,9.45,6.49,-0.02,-0.01,-0.16,0.0,u
1314.0,2995.0,3239.0,3440.0,4095.0,4095.0,2771.0,2702.0,-1.75,9.45,6.51,0.04,0.05,-0.15,0.0,u
1328.0,2994.0,3245.0,3446.0,4095.0,4095.0,2778.0,2703.0,-1.68,9.5,6.26,0.04,0.03,-0.14,0.0,u
1325.0,3007.0,3239.0,3433.0,4095.0,4095.0,2770.0,2702.0,-1.64,9.45,6.5,0.04,0.0,-0.16,0.0,u
1325.0,3013.0,3241.0,3437.0,4095.0,4095.0,2770.0,2694.0,-1.71,9.54,6.08,0.07,-0.02,-0.16,0.0,u
1323.0,3003.0,3247.0,3439.0,4095.0,4095.0,2778.0,2705.0,-1.77,9.53,5.97,0.01,-0.04,-0.15,0.0,u
1313.0,3005.0,3255.0,3440.0,4095.0,4095.0,2772.0,2704.0,-1.61,9.49,6.33,-0.03,0.02,-0.13,0.0,u
1326.0,3008.0,3249.0,3440.0,4095.0,4095.0,2781.0,2703.0,-1.6,9.46,6.42,-0.01,0.01,-0.16,0.0,u
1326.0,2996.0,3244.0,3437.0,4095.0,4095.0,2768.0,2697.0,-1.66,9.5,6.36,-0.0,0.01,-0.17,0.0,u
1328.0,3007.0,3242.0,3442.0,4095.0,4095.0,2778.0,2704.0,-1.66,9.38,6.75,0.02,-0.08,-0.19,0.0,u
1321.0,3007.0,3233.0,3433.0,4095.0,4095.0,2770.0,2699.0,-1.76,9.43,6.28,0.1,-0.07,-0.17,0.0,u
1322.0,3005.0,3239.0,3454.0,4095.0,4095.0,2786.0,2704.0,-1.81,9.56,5.96,0.06,0.03,-0.15,0.0,u
1322.0,2992.0,3241.0,3436.0,4095.0,4095.0,2769.0,2702.0,-1.73,9.53,6.07,-0.01,0.01,-0.14,0.0,u
1320.0,3001.0,3258.0,3446.0,4095.0,4095.0,2781.0,2702.0,-1.78,9.48,6.25,-0.01,0.01,-0.14,0.0,u
1321.0,2998.0,3226.0,3433.0,4095.0,4095.0,2771.0,2703.0,-1.75,9.51,6.2,-0.04,0.06,-0.11,0.0,u
1309.0,2993.0,3248.0,3449.0,4095.0,4095.0,2770.0,2702.0,-1.71,9.45,6.49,-0.07,0.04,-0.09,0.0,u
1319.0,3009.0,3248.0,3439.0,4095.0,4095.0,2785.0,2705.0,-1.53,9.44,6.52,-0.04,-0.03,-0.09,0.0,u
1535.0,2992.0,3248.0,3443.0,4095.0,4095.0,2781.0,2704.0,-1.46,9.4,6.99,-0.06,-0.06,-0.19,0.0,u
1607.0,3000.0,3241.0,3433.0,4095.0,4095.0,2775.0,2701.0,-1.4,9.33,6.96,-0.03,-0.02,-0.19,0.0,u
1734.0,2999.0,3247.0,3449.0,4095.0,4095.0,2781.0,2704.0,-1.52,9.27,7.11,-0.06,-0.04,-0.2,0.0,u
1824.0,2997.0,3236.0,3436.0,4095.0,4095.0,2783.0,2690.0,-1.64,9.29,6.97,0.01,-0.07,-0.3,0.0,u
1957.0,3006.0,3259.0,3439.0,4095.0,4095.0,2780.0,2699.0,-1.8,9.29,7.03,-0.02,-0.07,-0.23,0.0,u
2128.0,3004.0,3246.0,3430.0,4095.0,4095.0,2771.0,2693.0,-1.85,9.31,6.88,-0.07,-0.02,-0.19,0.0,u
2326.0,2995.0,3248.0,3421.0,4095.0,4095.0,2771.0,2690.0,-1.81,9.19,7.34,-0.13,0.04,-0.18,0.0,u
2541.0,3004.0,3252.0,3443.0,4095.0,4095.0,2772.0,2698.0,-1.7,9.1,7.62,-0.03,0.07,-0.18,0.0,u
2881.0,3005.0,3237.0,3434.0,4095.0,4095.0,2781.0,2694.0,-1.79,9.1,7.43,0.02,0.66,-0.08,0.0,u
2886.0,3011.0,3238.0,3450.0,4095.0,4095.0,2779.0,2690.0,-2.05,9.12,7.37,0.1,0.24,-0.18,0.0,u
2871.0,3004.0,3245.0,3431.0,4095.0,4095.0,2774.0,2691.0,-2.15,9.18,7.16,0.1,0.07,-0.24,0.0,u
2890.0,3014.0,3246.0,3434.0,4095.0,4095.0,2786.0,2703.0,-2.24,9.17,7.06,0.18,-0.1,-0.32,0.0,u
2874.0,2995.0,3245.0,3445.0,4095.0,4095.0,2775.0,2694.0,-2.55,9.21,6.74,0.16,-0.09,-0.28,0.0,u
2877.0,3003.0,3241.0,3445.0,4095.0,4095.0,2785.0,2704.0,-2.54,9.19,6.59,0.14,-0.12,-0.26,0.0,u
2879.0,2994.0,3243.0,3443.0,4095.0,4095.0,2780.0,2698.0,-2.48,9.19,6.59,0.08,0.0,-0.24,0.0,u
2887.0,3003.0,3248.0,3440.0,4095.0,4095.0,2784.0,2706.0,-2.93,9.15,6.53,0.11,-0.08,-0.25,0.0,u
2880.0,3003.0,3246.0,3445.0,4095.0,4095.0,2774.0,2700.0,-3.17,9.2,6.45,0.1,-0.1,-0.14,0.0,u
2877.0,3006.0,3240.0,3440.0,4095.0,4095.0,2775.0,2704.0,-2.92,9.16,6.44,0.15,-0.2,-0.03,0.0,u
2887.0,2998.0,3243.0,3442.0,4095.0,4095.0,2778.0,2706.0,-2.28,9.38,6.14,0.11,-0.12,0.05,0.0,u
2873.0,3008.0,3254.0,3440.0,4095.0,4095.0,2779.0,2714.0,-2.03,9.35,6.39,0.05,-0.04,0.03,0.0,u
2651.0,3009.0,3252.0,3471.0,4095.0,4095.0,2793.0,2725.0,-0.75,9.61,6.12,0.11,-0.13,-0.09,0.0,u
2671.0,3006.0,3248.0,3488.0,4095.0,4095.0,2789.0,2725.0,-0.93,9.62,6.22,0.13,0.09,-0.05,0.0,u
2698.0,3003.0,3241.0,3487.0,4095.0,4095.0,2799.0,2719.0,-0.99,9.65,6.15,0.12,0.11,-0.02,0.0,u
2709.0,3007.0,3250.0,3487.0,4095.0,4095.0,2787.0,2732.0,-0.68,9.7,6.0,0.12,0.11,0.02,0.0,u
2718.0,2999.0,3248.0,3478.0,4095.0,4095.0,2791.0,2719.0,-0.16,9.77,5.67,0.08,-0.02,-0.04,0.0,u
2705.0,3017.0,3247.0,3472.0,4095.0,4095.0,2798.0,2730.0,0.07,9.85,5.38,-0.1,-0.06,-0.26,0.0,u
2765.0,3003.0,3248.0,3469.0,4095.0,4095.0,2788.0,2721.0,-0.93,9.65,6.18,-0.13,-0.08,-0.33,0.0,u
2859.0,2999.0,3245.0,3472.0,4095.0,4095.0,2795.0,2721.0,-1.46,9.65,6.28,-0.06,0.08,-0.1,0.0,u
3291.0,2995.0,3246.0,3473.0,4095.0,4095.0,2799.0,2732.0,-0.96,9.77,5.77,-0.11,-0.07,0.07,0.0,u
3356.0,2998.0,3248.0,3467.0,4095.0,4095.0,2796.0,2727.0,-0.22,9.64,6.28,-0.27,0.13,0.15,0.0,u
3394.0,3003.0,3245.0,3472.0,4095.0,4095.0,2793.0,2722.0,0.36,9.51,6.9,-0.25,0.06,0.03,0.0,u
3413.0,3001.0,3242.0,3473.0,4095.0,4095.0,2794.0,2727.0,0.21,9.47,7.24,-0.15,-0.02,-0.11,0.0,u
3455.0,2995.0,3249.0,3488.0,4095.0,4095.0,2791.0,2729.0,0.17,9.45,7.27,-0.09,0.01,-0.15,0.0,u
3475.0,2995.0,3248.0,3472.0,4095.0,4095.0,2795.0,2731.0,-0.03,9.43,7.29,0.0,-0.07,-0.22,0.0,u
3575.0,2993.0,3245.0,3474.0,4095.0,4095.0,2799.0,2731.0,-0.19,9.39,7.54,0.0,-0.03,-0.19,0.0,u
3632.0,3006.0,3241.0,3475.0,4095.0,4095.0,2798.0,2730.0,-0.28,9.49,7.14,0.1,0.0,-0.14,0.0,u
3631.0,3024.0,3254.0,3477.0,4095.0,4095.0,2800.0,2732.0,-0.08,9.53,6.89,0.07,-0.01,-0.16,0.0,u
3625.0,2992.0,3247.0,3477.0,4095.0,4095.0,2797.0,2719.0,-0.09,9.56,6.82,0.04,-0.05,-0.18,0.0,u
3646.0,3014.0,3255.0,3479.0,4095.0,4095.0,2803.0,2735.0,-0.19,9.45,7.26,-0.02,0.05,-0.18,0.0,u
3619.0,3001.0,3243.0,3488.0,4095.0,4095.0,2799.0,2727.0,-0.12,9.48,7.06,0.08,0.02,-0.16,0.0,u
3600.0,2992.0,3254.0,3477.0,4095.0,4095.0,2792.0,2724.0,-0.34,9.69,6.34,0.03,-0.02,-0.18,0.0,u
3583.0,2993.0,3251.0,3485.0,4095.0,4095.0,2800.0,2727.0,-0.38,9.74,6.05,0.01,-0.03,-0.2,0.0,u
3582.0,3006.0,3250.0,3486.0,4095.0,4095.0,2798.0,2723.0,-0.36,9.63,6.52,-0.09,-0.01,-0.28,0.0,u
3601.0,3007.0,3247.0,3481.0,4095.0,4095.0,2787.0,2721.0,-0.79,9.6,6.53,-0.03,-0.03,-0.26,0.0,u
3600.0,3003.0,3251.0,3486.0,4095.0,4095.0,2800.0,2735.0,-1.0,9.6,6.45,0.0,-0.01,-0.24,0.0,u
3583.0,3008.0,3248.0,3473.0,4095.0,4095.0,2800.0,2729.0,-0.88,9.66,6.26,-0.06,-0.01,-0.18,0.0,u
3583.0,2995.0,3248.0,3477.0,4095.0,4095.0,2802.0,2729.0,-0.94,9.53,6.69,-0.12,0.01,-0.16,0.0,u
3578.0,2991.0,3242.0,3473.0,4095.0,4095.0,2797.0,2729.0,-0.89,9.44,7.02,-0.0,0.09,-0.11,0.0,u
3610.0,3008.0,3246.0,3487.0,4095.0,4095.0,2799.0,2731.0,-0.67,9.56,6.51,-0.02,0.01,-0.12,0.0,u
3583.0,2992.0,3248.0,3472.0,4095.0,4095.0,2802.0,2727.0,-0.69,9.44,6.98,-0.06,0.17,-0.11,0.0,u
3583.0,2995.0,3248.0,3487.0,4095.0,4095.0,2803.0,2734.0,-0.55,9.45,7.1,0.07,0.44,-0.12,0.0,u
3571.0,2992.0,3233.0,3472.0,4095.0,4095.0,2798.0,2727.0,-0.77,9.48,6.82,0.14,0.58,-0.18,0.0,u
3602.0,3001.0,3259.0,3479.0,4095.0,4095.0,2800.0,2736.0,-1.12,9.16,6.17,0.42,0.27,-0.34,0.0,u
3567.0,3005.0,3226.0,3474.0,4095.0,4095.0,2799.0,2723.0,-1.73,9.57,6.16,0.27,-0.05,-0.37,0.0,u
3573.0,3001.0,3248.0,3495.0,4095.0,4095.0,2800.0,2720.0,-1.8,9.59,5.86,0.23,-0.06,-0.3,0.0,u
3558.0,3002.0,3262.0,3489.0,4095.0,4095.0,2798.0,2725.0,-1.6,9.51,5.69,0.13,-0.13,-0.3,0.0,u
3559.0,3008.0,3247.0,3472.0,4095.0,4095.0,2792.0,2721.0,-2.0,9.62,5.63,0.07,-0.19,-0.22,0.0,u
3553.0,3007.0,3250.0,3457.0,4095.0,4095.0,2797.0,2727.0,-1.92,9.53,5.89,0.01,-0.17,-0.17,0.0,u
3553.0,3014.0,3241.0,3457.0,4095.0,4095.0,2797.0,2727.0,-1.79,9.55,5.86,0.03,0.01,-0.12,0.0,u
3566.0,3005.0,3252.0,3475.0,4095.0,4095.0,2800.0,2731.0,-1.84,9.6,5.56,0.06,-0.17,-0.16,0.0,u
1713.0,3003.0,2960.0,3557.0,4095.0,4095.0,3050.0,2480.0,0.81,9.87,5.23,0.01,-0.08,-0.23,0.0,u
1703.0,2991.0,2955.0,3552.0,4095.0,4095.0,3041.0,2478.0,1.0,9.77,5.27,-0.0,-0.12,-0.22,0.0,u
1713.0,3002.0,2955.0,3570.0,4095.0,4095.0,3047.0,2480.0,0.79,9.8,5.28,-0.03,-0.1,-0.19,0.0,u
1716.0,2994.0,2947.0,3577.0,4095.0,4095.0,3055.0,2477.0,0.66,9.85,5.12,-0.01,-0.0,-0.15,0.0,u
1711.0,2996.0,2943.0,3580.0,4095.0,4095.0,3041.0,2471.0,0.64,9.88,5.12,-0.05,0.06,-0.11,0.0,u
1723.0,2993.0,2948.0,3583.0,4095.0,4095.0,3053.0,2480.0,0.92,9.87,5.14,-0.13,0.09,-0.05,0.0,u
1700.0,2983.0,2942.0,3583.0,4095.0,4095.0,3045.0,2474.0,1.21,9.79,5.54,-0.14,0.04,-0.12,0.0,u
1691.0,2992.0,2959.0,3601.0,4095.0,4095.0,3053.0,2480.0,1.3,9.68,5.83,-0.13,-0.02,-0.21,0.0,u
1690.0,2986.0,2941.0,3583.0,4095.0,4095.0,3050.0,2480.0,0.8,9.73,5.9,-0.1,-0.06,-0.29,0.0,u
1693.0,2992.0,2960.0,3603.0,4095.0,4095.0,3062.0,2482.0,0.57,9.81,5.78,-0.1,-0.06,-0.24,0.0,u
1685.0,2998.0,2942.0,3583.0,4095.0,4095.0,3053.0,2479.0,0.55,9.7,6.12,-0.1,-0.04,-0.19,0.0,u
1669.0,3001.0,2955.0,3603.0,4095.0,4095.0,3056.0,2480.0,0.7,9.7,6.07,-0.1,-0.04,-0.13,0.0,u
1677.0,2995.0,2945.0,3597.0,4095.0,4095.0,3050.0,2480.0,0.68,9.65,6.45,-0.12,-0.02,-0.16,0.0,u
1681.0,2999.0,2949.0,3612.0,4095.0,4095.0,3056.0,2480.0,0.73,9.6,6.55,-0.04,-0.04,-0.17,0.0,u
1679.0,2999.0,2949.0,3610.0,4095.0,4095.0,3051.0,2481.0,0.64,9.67,6.41,0.02,-0.05,-0.18,0.0,u
1677.0,2992.0,2944.0,3601.0,4095.0,4095.0,3056.0,2480.0,0.57,9.69,6.34,0.01,-0.1,-0.17,0.0,u
1684.0,2987.0,2956.0,3618.0,4095.0,4095.0,3049.0,2483.0,0.73,9.67,6.28,0.0,-0.02,-0.16,0.0,u
1668.0,2986.0,2940.0,3602.0,4095.0,4095.0,3056.0,2480.0,0.68,9.7,6.31,0.02,-0.03,-0.17,0.0,u
1674.0,2999.0,2960.0,3627.0,4095.0,4095.0,3055.0,2480.0,0.6,9.7,6.31,-0.01,-0.0,-0.16,0.0,u
1669.0,2992.0,2948.0,3600.0,4095.0,4095.0,3051.0,2483.0,0.68,9.66,6.32,-0.05,-0.01,-0.14,0.0,u
1651.0,2992.0,2935.0,3607.0,4095.0,4095.0,3050.0,2483.0,0.54,9.63,6.54,0.0,-0.03,-0.19,0.0,u
1654.0,2994.0,2949.0,3613.0,4095.0,4095.0,3050.0,2485.0,0.73,9.61,6.5,-0.07,-0.06,-0.19,0.0,u
1654.0,2993.0,2953.0,3632.0,4095.0,4095.0,3045.0,2484.0,0.51,9.56,6.78,-0.05,-0.07,-0.22,0.0,u
1653.0,3002.0,2946.0,3622.0,4095.0,4095.0,3044.0,2487.0,0.4,9.59,6.73,-0.01,-0.04,-0.18,0.0,u
1671.0,3005.0,2954.0,3627.0,4095.0,4095.0,3056.0,2497.0,0.44,9.59,6.7,-0.03,0.02,-0.15,0.0,u
1657.0,2989.0,2953.0,3623.0,4095.0,4095.0,3042.0,2482.0,0.52,9.57,6.73,-0.03,-0.01,-0.16,0.0,u
1661.0,2997.0,2961.0,3632.0,4095.0,4095.0,3055.0,2486.0,0.61,9.47,7.03,-0.07,-0.02,-0.2,0.0,u
1662.0,2995.0,2951.0,3619.0,4095.0,4095.0,3053.0,2489.0,0.34,9.49,7.15,0.01,-0.08,-0.23,0.0,u
1648.0,2994.0,2957.0,3632.0,4095.0,4095.0,3056.0,2491.0,0.27,9.55,6.93,0.06,-0.05,-0.19,0.0,u
1649.0,2992.0,2947.0,3619.0,4095.0,4095.0,3050.0,2494.0,0.31,9.6,6.74,0.09,-0.03,-0.15,0.0,u
1663.0,2991.0,2952.0,3629.0,4095.0,4095.0,3055.0,2495.0,0.34,9.53,6.91,0.04,0.0,-0.16,0.0,u
1648.0,2997.0,2950.0,3634.0,4095.0,4095.0,3046.0,2487.0,0.3,9.57,6.77,0.13,-0.01,-0.14,0.0,u
1655.0,3000.0,2950.0,3627.0,4095.0,4095.0,3050.0,2490.0,0.35,9.64,6.52,0.15,-0.03,-0.15,0.0,u
1667.0,2983.0,2939.0,3632.0,4095.0,4095.0,3052.0,2490.0,0.36,9.71,6.2,0.18,0.02,-0.13,0.0,u
1648.0,2997.0,2952.0,3623.0,4095.0,4095.0,3046.0,2489.0,0.43,9.75,6.02,0.1,0.03,-0.11,0.0,u
1652.0,2995.0,2958.0,3632.0,4095.0,4095.0,3049.0,2494.0,0.26,9.73,6.26,0.04,0.03,-0.09,0.0,u
1636.0,2997.0,2955.0,3606.0,4095.0,4095.0,3046.0,2494.0,0.63,9.67,6.25,0.08,0.01,-0.08,0.0,u
1650.0,2998.0,2951.0,3626.0,4095.0,4095.0,3056.0,2498.0,0.62,9.71,6.05,0.14,0.02,-0.1,0.0,u
1633.0,2992.0,2946.0,3629.0,4095.0,4095.0,3049.0,2495.0,0.7,9.77,5.87,0.05,0.0,-0.15,0.0,u
1638.0,2998.0,2958.0,3642.0,4095.0,4095.0,3066.0,2501.0,0.45,9.76,6.0,0.08,-0.03,-0.14,0.0,u
1630.0,2994.0,2946.0,3634.0,4095.0,4095.0,3063.0,2502.0,0.57,9.89,5.52,0.03,-0.01,-0.15,0.0,u
1616.0,2997.0,2943.0,3633.0,4095.0,4095.0,3056.0,2497.0,0.71,9.79,5.58,-0.04,-0.0,-0.16,0.0,u
1626.0,2993.0,2950.0,3649.0,4095.0,4095.0,3060.0,2501.0,0.64,9.68,6.1,-0.01,-0.03,-0.19,0.0,u
1620.0,2991.0,2952.0,3632.0,4095.0,4095.0,3059.0,2498.0,0.57,9.79,5.79,0.03,-0.04,-0.2,0.0,u
1627.0,3006.0,2956.0,3659.0,4095.0,4095.0,3061.0,2501.0,0.34,9.82,5.77,0.07,0.01,-0.15,0.0,u
1625.0,2987.0,2939.0,3644.0,4095.0,4095.0,3063.0,2497.0,0.64,9.83,5.6,-0.01,0.03,-0.13,0.0,u
1638.0,2994.0,2949.0,3647.0,4095.0,4095.0,3069.0,2503.0,0.56,9.72,6.02,0.03,-0.04,-0.17,0.0,u
1633.0,2997.0,2952.0,3644.0,4095.0,4095.0,3065.0,2497.0,0.66,9.78,5.62,0.01,-0.05,-0.16,0.0,u
1638.0,2992.0,2955.0,3652.0,4095.0,4095.0,3062.0,2500.0,0.62,9.79,5.64,0.02,0.0,-0.15,0.0,u
1626.0,2991.0,2943.0,3647.0,4095.0,4095.0,3055.0,2495.0,0.69,9.73,5.9,-0.04,-0.02,-0.17,0.0,u
1627.0,3006.0,2960.0,3643.0,4095.0,4095.0,3052.0,2498.0,0.39,9.73,6.07,0.06,0.02,-0.14,0.0,u
1648.0,2992.0,2957.0,3645.0,4095.0,4095.0,3062.0,2507.0,0.62,9.82,5.58,0.06,-0.0,-0.14,0.0,u
1635.0,2992.0,2946.0,3646.0,4095.0,4095.0,3056.0,2497.0,0.5,9.84,5.59,0.01,0.01,-0.12,0.0,u
1637.0,3007.0,2958.0,3653.0,4095.0,4095.0,3065.0,2501.0,0.69,9.84,5.54,0.05,0.04,-0.11,0.0,u
1633.0,2997.0,2953.0,3642.0,4095.0,4095.0,3059.0,2500.0,0.83,9.79,5.75,-0.05,-0.05,-0.16,0.0,u
1645.0,2995.0,2958.0,3645.0,4095.0,4095.0,3059.0,2506.0,0.62,9.73,6.07,-0.0,-0.03,-0.18,0.0,u
1641.0,2981.0,2940.0,3638.0,4095.0,4095.0,3061.0,2501.0,0.55,9.81,5.71,0.05,-0.08,-0.18,0.0,u
1653.0,2990.0,2958.0,3654.0,4095.0,4095.0,3069.0,2506.0,0.57,9.83,5.6,0.02,-0.03,-0.14,0.0,u
1647.0,2998.0,2944.0,3642.0,4095.0,4095.0,3051.0,2499.0,0.57,9.8,5.73,0.01,0.02,-0.13,0.0,u
1638.0,2988.0,2951.0,3661.0,4095.0,4095.0,3057.0,2505.0,0.65,9.8,5.77,-0.02,0.06,-0.14,0.0,u
1636.0,2986.0,2957.0,3650.0,4095.0,4095.0,3054.0,2499.0,1.05,9.72,6.0,-0.05,0.03,-0.1,0.0,u
1651.0,2992.0,2955.0,3658.0,4095.0,4095.0,3063.0,2511.0,0.99,9.73,5.84,-0.02,0.0,-0.12,0.0,u
1651.0,2983.0,2954.0,3653.0,4095.0,4095.0,3056.0,2507.0,0.89,9.74,5.93,-0.05,-0.01,-0.09,0.0,u
1654.0,2991.0,2955.0,3667.0,4095.0,4095.0,3058.0,2508.0,1.01,9.67,6.15,-0.03,-0.0,-0.09,0.0,u
1657.0,2990.0,2944.0,3650.0,4095.0,4095.0,3059.0,2507.0,1.09,9.72,5.93,-0.02,-0.0,-0.1,0.0,u
1648.0,2988.0,2944.0,3664.0,4095.0,4095.0,3063.0,2505.0,1.09,9.72,6.05,-0.08,0.06,-0.08,0.0,u
1648.0,2990.0,2945.0,3657.0,4095.0,4095.0,3042.0,2501.0,1.22,9.65,6.31,-0.03,-0.04,-0.15,0.0,u
1664.0,2993.0,2960.0,3664.0,4095.0,4095.0,3058.0,2506.0,1.18,9.66,6.2,-0.01,0.0,-0.15,0.0,u
1662.0,2998.0,2951.0,3658.0,4095.0,4095.0,3056.0,2501.0,0.83,9.67,6.35,-0.02,-0.0,-0.12,0.0,u
1652.0,2999.0,2954.0,3664.0,4095.0,4095.0,3059.0,2508.0,1.16,9.7,6.11,-0.01,0.02,-0.06,0.0,u
1658.0,2978.0,2949.0,3651.0,4095.0,4095.0,3056.0,2506.0,1.37,9.61,6.34,-0.1,0.02,-0.06,0.0,u
1655.0,2995.0,2946.0,3657.0,4095.0,4095.0,3052.0,2498.0,1.42,9.61,6.46,-0.03,0.08,-0.08,0.0,u
1667.0,2987.0,2951.0,3664.0,4095.0,4095.0,3069.0,2501.0,1.23,9.59,6.39,-0.04,0.02,-0.01,0.0,u
1662.0,2983.0,2959.0,3653.0,4095.0,4095.0,3056.0,2498.0,1.65,9.47,6.73,-0.07,0.07,-0.01,0.0,u
1667.0,2990.0,2947.0,3676.0,4095.0,4095.0,3054.0,2496.0,1.93,9.46,6.56,-0.01,0.04,-0.02,0.0,u
1660.0,2993.0,2959.0,3659.0,4095.0,4095.0,3056.0,2500.0,1.86,9.44,6.78,-0.07,0.01,-0.1,0.0,u
1663.0,2994.0,2960.0,3675.0,4095.0,4095.0,3056.0,2507.0,1.83,9.48,6.67,0.0,0.0,-0.09,0.0,u
1661.0,2995.0,2942.0,3658.0,4095.0,4095.0,3054.0,2501.0,1.92,9.44,6.75,-0.04,0.03,-0.08,0.0,u
1663.0,2992.0,2947.0,3663.0,4095.0,4095.0,3056.0,2507.0,1.86,9.39,6.92,-0.02,-0.01,-0.06,0.0,u
1659.0,2998.0,2944.0,3664.0,4095.0,4095.0,3052.0,2499.0,2.17,9.36,6.77,-0.03,0.0,-0.03,0.0,u
1671.0,2997.0,2950.0,3666.0,4095.0,4095.0,3052.0,2496.0,2.09,9.32,7.03,-0.06,-0.08,-0.21,0.0,u
1660.0,3002.0,2952.0,3673.0,4095.0,4095.0,3066.0,2502.0,2.0,9.33,7.09,-0.09,0.0,-0.18,0.0,u
1664.0,2981.0,2939.0,3671.0,4095.0,4095.0,3056.0,2501.0,1.99,9.21,7.33,-0.08,-0.03,-0.19,0.0,u
1667.0,2999.0,2955.0,3681.0,4095.0,4095.0,3056.0,2506.0,2.02,9.25,7.28,-0.05,-0.03,-0.2,0.0,u
1671.0,2992.0,2959.0,3669.0,4095.0,4095.0,3051.0,2499.0,2.0,9.2,7.56,-0.11,-0.06,-0.24,0.0,u
1671.0,2997.0,2950.0,3689.0,4095.0,4095.0,3057.0,2501.0,1.89,9.37,7.81,-0.05,-0.1,-0.32,0.0,u
1667.0,2986.0,2943.0,3669.0,4095.0,4095.0,3051.0,2499.0,1.72,9.26,7.45,0.02,-0.01,-0.3,0.0,u
1664.0,2997.0,2945.0,3675.0,4095.0,4095.0,3056.0,2507.0,1.46,9.27,7.51,0.02,-0.03,-0.28,0.0,u
1673.0,2991.0,2950.0,3678.0,4095.0,4095.0,3050.0,2500.0,1.43,9.35,7.2,0.02,0.0,-0.23,0.0,u
1673.0,2998.0,2950.0,3683.0,4095.0,4095.0,3056.0,2512.0,1.46,9.25,7.54,-0.06,-0.01,-0.21,0.0,u
1675.0,2992.0,2949.0,3687.0,4095.0,4095.0,3053.0,2511.0,1.4,9.23,7.72,0.0,-0.09,-0.24,0.0,u
1677.0,2990.0,2943.0,3677.0,4095.0,4095.0,3051.0,2502.0,1.33,9.31,7.39,0.0,-0.03,-0.23,0.0,u
1680.0,2996.0,2959.0,3682.0,4095.0,4095.0,3056.0,2507.0,1.21,9.23,7.77,-0.01,-0.05,-0.25,0.0,u
1681.0,2985.0,2935.0,3681.0,4095.0,4095.0,3045.0,2502.0,1.2,9.29,7.46,0.05,-0.03,-0.2,0.0,u
1669.0,3005.0,2960.0,3691.0,4095.0,4095.0,3056.0,2512.0,1.16,9.28,7.57,0.02,-0.02,-0.2,0.0,u
1668.0,2979.0,2944.0,3683.0,4095.0,4095.0,3047.0,2502.0,0.98,9.35,7.5,0.06,-0.04,-0.21,0.0,u
1683.0,3011.0,2947.0,3693.0,4095.0,4095.0,3056.0,2512.0,1.45,9.38,7.36,-0.04,0.01,-0.19,0.0,u
1680.0,2992.0,2955.0,3690.0,4095.0,4095.0,3045.0,2501.0,0.91,9.3,7.66,0.03,-0.05,-0.2,0.0,u
1678.0,3005.0,2955.0,3696.0,4095.0,4095.0,3049.0,2512.0,1.06,9.35,7.35,0.03,-0.02,-0.2,0.0,u
1671.0,2991.0,2943.0,3692.0,4095.0,4095.0,3050.0,2508.0,1.12,9.26,7.6,-0.0,-0.01,-0.24,0.0,u
1681.0,2986.0,2957.0,3682.0,4095.0,4095.0,3051.0,2509.0,0.75,9.44,7.13,0.17,-0.05,-0.23,0.0,u
1680.0,2998.0,2952.0,3707.0,4095.0,4095.0,3055.0,2512.0,0.67,9.5,6.96,0.04,-0.07,-0.29,0.0,u
1681.0,2981.0,2949.0,3690.0,4095.0,4095.0,3051.0,2508.0,0.29,9.54,6.99,0.04,-0.06,-0.29,0.0,u
1677.0,2995.0,2946.0,3690.0,4095.0,4095.0,3056.0,2512.0,0.16,9.47,7.18,-0.02,0.01,-0.21,0.0,u
1673.0,2981.0,2960.0,3694.0,4095.0,4095.0,3047.0,2509.0,0.05,9.41,7.37,0.02,0.02,-0.17,0.0,u
1675.0,2989.0,2955.0,3710.0,4095.0,4095.0,3054.0,2512.0,0.35,9.48,7.08,0.07,0.01,-0.14,0.0,u
1674.0,2989.0,2942.0,3685.0,4095.0,4095.0,3049.0,2510.0,0.33,9.47,7.16,0.05,-0.06,-0.18,0.0,u
1678.0,2997.0,2958.0,3705.0,4095.0,4095.0,3051.0,2510.0,0.13,9.55,7.2,0.12,0.02,-0.17,0.0,u
1687.0,3007.0,2960.0,3707.0,4095.0,4095.0,3063.0,2517.0,0.39,9.51,7.01,0.12,0.01,-0.11,0.0,u
1680.0,2991.0,2953.0,3697.0,4095.0,4095.0,3046.0,2507.0,0.42,9.56,6.79,0.13,-0.01,-0.17,0.0,u
1676.0,2999.0,2960.0,3712.0,4095.0,4095.0,3053.0,2512.0,0.24,9.62,6.61,0.11,-0.0,-0.16,0.0,u
1680.0,2988.0,2958.0,3696.0,4095.0,4095.0,3049.0,2512.0,0.24,9.63,6.64,0.06,-0.01,-0.18,0.0,u
1695.0,2997.0,2946.0,3712.0,4095.0,4095.0,3051.0,2512.0,0.07,9.67,6.54,0.07,-0.04,-0.14,0.0,u
1680.0,2991.0,2957.0,3699.0,4095.0,4095.0,3053.0,2512.0,0.25,9.62,6.63,0.05,-0.02,-0.09,0.0,u
1707.0,2989.0,2945.0,3707.0,4095.0,4095.0,3056.0,2512.0,0.52,9.67,6.31,0.1,0.02,-0.09,0.0,u
1695.0,2986.0,2951.0,3699.0,4095.0,4095.0,3049.0,2512.0,0.46,9.74,6.17,0.07,-0.02,-0.15,0.0,u
1693.0,2993.0,2957.0,3711.0,4095.0,4095.0,3056.0,2513.0,0.36,9.74,6.24,-0.03,0.0,-0.14,0.0,u
1692.0,2997.0,2944.0,3705.0,4095.0,4095.0,3045.0,2509.0,0.32,9.63,6.68,-0.1,0.01,-0.11,0.0,u
1687.0,2993.0,2959.0,3719.0,4095.0,4095.0,3053.0,2513.0,0.37,9.47,7.13,-0.03,0.01,-0.08,0.0,u
1702.0,2985.0,2944.0,3702.0,4095.0,4095.0,3040.0,2512.0,0.63,9.61,6.59,0.06,0.0,-0.12,0.0,u
1713.0,2992.0,2957.0,3725.0,4095.0,4095.0,3050.0,2514.0,0.23,9.68,6.31,0.21,-0.17,-0.36,0.0,u
1693.0,2995.0,2942.0,3710.0,4095.0,4095.0,3051.0,2513.0,-0.12,9.7,6.38,0.09,-0.03,-0.2,0.0,u
1700.0,2987.0,2960.0,3714.0,4095.0,4095.0,3055.0,2514.0,0.05,9.59,6.29,0.26,-0.03,-0.31,0.0,u
1684.0,2987.0,2951.0,3536.0,4095.0,4095.0,3051.0,2513.0,-0.07,9.79,5.64,0.16,0.03,-0.24,0.0,u
1657.0,2999.0,2947.0,3621.0,4095.0,4095.0,3060.0,2518.0,-0.22,9.5,6.14,0.09,0.12,-0.41,0.0,u
1600.0,2987.0,2944.0,3617.0,4095.0,4095.0,3051.0,2516.0,-0.64,9.55,6.32,0.17,-0.01,-0.36,0.0,u
1577.0,2995.0,2955.0,3599.0,4095.0,4095.0,3045.0,2507.0,-0.68,9.81,5.78,0.09,-0.04,-0.17,0.0,u
1559.0,3006.0,2951.0,3600.0,4095.0,4095.0,3051.0,2521.0,-0.41,9.72,5.74,0.06,0.0,-0.09,0.0,u
1535.0,2997.0,2947.0,3575.0,4095.0,4095.0,3033.0,2514.0,-0.42,9.68,5.83,0.11,-0.07,-0.2,0.0,u
1503.0,2985.0,2945.0,3603.0,4095.0,4095.0,3030.0,2514.0,-0.74,9.87,5.73,0.13,-0.08,-0.17,0.0,u
1482.0,2988.0,2944.0,3563.0,4095.0,4095.0,3026.0,2514.0,-0.62,9.84,4.98,0.16,-0.11,-0.23,0.0,u
1450.0,2995.0,2950.0,3564.0,4095.0,4095.0,3024.0,2514.0,-0.81,9.86,5.01,0.17,-0.08,-0.26,0.0,u
1426.0,2993.0,2944.0,3725.0,4095.0,4095.0,3018.0,2512.0,-0.83,9.84,4.77,0.01,0.04,-0.13,0.0,u
1433.0,2992.0,2952.0,3629.0,4095.0,4095.0,3029.0,2522.0,-0.85,9.84,4.98,-0.04,0.02,-0.13,0.0,u
1426.0,2992.0,2944.0,3443.0,4095.0,4095.0,3025.0,2517.0,-0.97,9.78,5.43,-0.1,0.04,-0.08,0.0,u
1458.0,2992.0,2943.0,3502.0,4095.0,4095.0,3041.0,2521.0,-0.84,9.79,5.39,-0.03,0.16,0.07,0.0,u
1510.0,2993.0,2947.0,3536.0,4095.0,4095.0,3039.0,2521.0,-0.55,9.84,5.13,-0.13,0.24,0.13,0.0,u
1535.0,2993.0,2955.0,3559.0,4095.0,4095.0,3046.0,2526.0,-0.15,9.72,5.55,-0.09,0.06,0.05,0.0,u
1559.0,2978.0,2946.0,3541.0,4095.0,4095.0,3056.0,2530.0,0.11,9.79,5.55,-0.02,-0.04,-0.1,0.0,u
1553.0,2991.0,2955.0,3558.0,4095.0,4095.0,3046.0,2517.0,0.16,9.81,5.5,0.0,-0.03,-0.13,0.0,u
1573.0,2993.0,2950.0,3578.0,4095.0,4095.0,3054.0,2523.0,-0.14,9.86,5.0,-0.02,0.03,-0.18,0.0,u
1567.0,2983.0,2955.0,3575.0,4095.0,4095.0,3057.0,2519.0,-0.21,9.87,5.23,-0.02,-0.01,-0.16,0.0,u
1569.0,3001.0,2960.0,3609.0,4095.0,4095.0,3056.0,2526.0,-0.17,9.79,5.49,0.01,-0.02,-0.13,0.0,u
1578.0,3001.0,2957.0,3600.0,4095.0,4095.0,3055.0,2523.0,-0.0,9.83,5.28,0.03,0.02,-0.13,0.0,u
1570.0,2998.0,2954.0,3583.0,4095.0,4095.0,3056.0,2529.0,0.05,9.78,5.34,0.11,0.12,-0.26,0.0,u
1552.0,2995.0,2946.0,3600.0,4095.0,4095.0,3062.0,2534.0,-0.09,9.86,5.08,0.11,-0.07,-0.26,0.0,u
1535.0,2983.0,2937.0,3583.0,4095.0,4095.0,3056.0,2531.0,-0.57,9.84,5.15,0.1,-0.29,-0.31,0.0,u
1535.0,2987.0,2955.0,3613.0,4095.0,4095.0,3066.0,2533.0,-0.47,9.88,4.72,0.18,-0.01,-0.2,0.0,u
1535.0,2994.0,2949.0,3583.0,4095.0,4095.0,3056.0,2530.0,-0.49,9.87,4.72,0.04,-0.49,-0.28,0.0,u
1554.0,3001.0,2955.0,3604.0,4095.0,4095.0,3061.0,2537.0,-0.47,9.75,5.12,0.12,0.18,-0.14,0.0,u
1567.0,2995.0,2957.0,3583.0,4095.0,4095.0,3056.0,2533.0,-0.59,9.88,4.6,0.15,0.26,-0.09,0.0,u
1569.0,3006.0,2957.0,3600.0,4095.0,4095.0,3061.0,2532.0,-0.28,9.83,4.56,0.2,-0.16,-0.26,0.0,u
1584.0,2992.0,2949.0,3577.0,4095.0,4095.0,3055.0,2531.0,-0.75,9.89,3.89,0.24,-0.13,-0.28,0.0,u
1575.0,3005.0,2960.0,3600.0,4095.0,4095.0,3063.0,2538.0,-1.12,9.9,3.73,0.09,-0.01,-0.17,0.0,u
1566.0,2981.0,2957.0,3600.0,4095.0,4095.0,3056.0,2531.0,-0.83,9.85,4.01,0.04,0.05,-0.11,0.0,u
1569.0,2991.0,2955.0,3611.0,4095.0,4095.0,3056.0,2535.0,-0.57,9.92,3.76,0.04,0.03,-0.12,0.0,u
1567.0,3008.0,2955.0,3605.0,4095.0,4095.0,3059.0,2535.0,-0.62,9.89,3.88,0.0,-0.02,-0.17,0.0,u
1575.0,3002.0,2947.0,3607.0,4095.0,4095.0,3046.0,2539.0,-0.82,9.9,3.88,-0.05,0.0,-0.17,0.0,u
1580.0,2992.0,2959.0,3618.0,4095.0,4095.0,3067.0,2542.0,-0.86,9.86,4.21,-0.02,0.09,-0.12,0.0,u
1579.0,2986.0,2956.0,3600.0,4095.0,4095.0,3058.0,2534.0,-0.78,9.86,4.12,0.05,-0.02,-0.14,0.0,u
1581.0,2987.0,2948.0,3599.0,4095.0,4095.0,3061.0,2534.0,-0.55,9.94,4.04,-0.01,0.03,-0.15,0.0,u
1571.0,2992.0,2944.0,3610.0,4095.0,4095.0,3069.0,2544.0,-0.53,9.87,4.29,-0.05,-0.04,-0.16,0.0,u
1583.0,2993.0,2944.0,3606.0,4095.0,4095.0,3056.0,2532.0,-0.53,9.87,4.64,-0.08,-0.05,-0.15,0.0,u
1579.0,2995.0,2947.0,3624.0,4095.0,4095.0,3059.0,2539.0,-0.63,9.83,4.84,0.0,0.07,-0.14,0.0,u
1568.0,2992.0,2942.0,3602.0,4095.0,4095.0,3056.0,2541.0,-0.6,9.97,4.32,0.05,0.06,-0.16,0.0,u
1570.0,2999.0,2953.0,3614.0,4095.0,4095.0,3061.0,2541.0,-0.7,9.87,4.4,0.02,-0.02,-0.17,0.0,u
1595.0,3001.0,2959.0,3602.0,4095.0,4095.0,3056.0,2542.0,-0.57,9.91,4.07,-0.01,-0.01,-0.12,0.0,u
1595.0,3007.0,2959.0,3610.0,4095.0,4095.0,3061.0,2544.0,-0.43,9.93,4.18,-0.08,-0.02,-0.14,0.0,u
1599.0,2983.0,2960.0,3599.0,4095.0,4095.0,3056.0,2531.0,-0.57,9.83,4.76,-0.17,-0.03,-0.17,0.0,u
1600.0,2999.0,2948.0,3601.0,4095.0,4095.0,3063.0,2535.0,-0.55,9.85,5.01,-0.09,0.0,-0.14,0.0,u
1592.0,2991.0,2956.0,3583.0,4095.0,4095.0,3055.0,2531.0,-0.48,9.8,5.26,-0.08,-0.09,-0.17,0.0,u
1603.0,2992.0,2947.0,3601.0,4095.0,4095.0,3067.0,2530.0,-0.45,9.78,5.36,0.06,-0.02,-0.16,0.0,u
1608.0,2997.0,2948.0,3603.0,4095.0,4095.0,3062.0,2541.0,-0.65,9.92,4.63,0.09,-0.09,-0.2,0.0,u
1602.0,2993.0,2945.0,3600.0,4095.0,4095.0,3055.0,2529.0,-0.7,9.9,4.66,-0.01,0.01,-0.17,0.0,u
1600.0,2998.0,2960.0,3607.0,4095.0,4095.0,3070.0,2537.0,-0.62,9.86,4.75,0.0,0.03,-0.15,0.0,u
1600.0,3006.0,2943.0,3598.0,4095.0,4095.0,3060.0,2535.0,-0.53,9.85,4.69,-0.05,-0.07,-0.17,0.0,u
1594.0,3006.0,2960.0,3613.0,4095.0,4095.0,3067.0,2538.0,-0.74,9.79,5.25,-0.06,-0.07,-0.17,0.0,u
1596.0,2985.0,2954.0,3611.0,4095.0,4095.0,3056.0,2534.0,-0.66,9.8,5.18,-0.0,-0.04,-0.15,0.0,u
1614.0,2990.0,2958.0,3600.0,4095.0,4095.0,3070.0,2541.0,-0.76,9.81,5.24,0.07,0.01,-0.16,0.0,u
1601.0,2983.0,2955.0,3601.0,4095.0,4095.0,3056.0,2533.0,-0.67,9.89,4.75,0.12,0.02,-0.16,0.0,u
1559.0,2992.0,2943.0,3575.0,4095.0,4095.0,3063.0,2539.0,-0.67,9.87,4.7,-0.02,-0.02,-0.15,0.0,u
1535.0,2992.0,2953.0,3583.0,4095.0,4095.0,3069.0,2541.0,-0.6,9.87,4.84,-0.08,-0.02,-0.13,0.0,u
1553.0,2997.0,2951.0,3582.0,4095.0,4095.0,3056.0,2533.0,-0.6,9.78,5.41,-0.02,0.04,-0.14,0.0,u
1535.0,3005.0,2957.0,3583.0,4095.0,4095.0,3063.0,2543.0,-0.55,9.82,5.05,0.07,0.0,-0.15,0.0,u
1532.0,2986.0,2950.0,3568.0,4095.0,4095.0,3063.0,2538.0,-0.54,9.89,4.7,0.06,0.05,-0.12,0.0,u
1535.0,2992.0,2957.0,3573.0,4095.0,4095.0,3058.0,2529.0,-0.28,9.68,5.08,-0.05,-0.06,-0.09,0.0,u
1498.0,3002.0,2950.0,3583.0,4095.0,4095.0,3066.0,2535.0,-0.47,9.87,4.79,0.04,-0.05,-0.17,0.0,u
1491.0,2995.0,2943.0,3577.0,4095.0,4095.0,3057.0,2527.0,-0.66,9.86,4.76,0.02,-0.0,-0.16,0.0,u
1489.0,3003.0,2960.0,3583.0,4095.0,4095.0,3062.0,2535.0,-0.59,9.94,4.64,0.0,0.03,-0.14,0.0,u
1490.0,2985.0,2944.0,3580.0,4095.0,4095.0,3058.0,2531.0,-0.5,9.78,5.22,-0.09,0.02,-0.13,0.0,u
1488.0,3002.0,2953.0,3582.0,4095.0,4095.0,3063.0,2533.0,-0.45,9.82,5.18,0.02,-0.01,-0.15,0.0,u
1485.0,2996.0,2944.0,3581.0,4095.0,4095.0,3062.0,2534.0,-0.62,9.86,5.02,0.01,0.01,-0.13,0.0,u
1483.0,2992.0,2948.0,3583.0,4095.0,4095.0,3066.0,2538.0,-0.47,9.81,5.14,0.01,0.02,-0.11,0.0,u
1497.0,2985.0,2940.0,3571.0,4095.0,4095.0,3061.0,2531.0,-0.39,9.84,4.95,0.03,-0.03,-0.14,0.0,u
1494.0,2992.0,2941.0,3570.0,4095.0,4095.0,3063.0,2533.0,-0.43,9.85,4.87,0.07,0.06,-0.16,0.0,u
1483.0,2994.0,2954.0,3577.0,4095.0,4095.0,3054.0,2527.0,-0.61,9.9,4.65,-0.02,0.12,-0.14,0.0,u
1463.0,2985.0,2951.0,3600.0,4095.0,4095.0,3063.0,2534.0,-0.54,9.93,4.72,-0.09,0.08,-0.11,0.0,u
1447.0,2992.0,2943.0,3600.0,4095.0,4095.0,3059.0,2533.0,-0.41,9.85,5.26,-0.11,-0.01,-0.12,0.0,u
1424.0,2998.0,2951.0,3583.0,4095.0,4095.0,3054.0,2525.0,-0.45,9.8,5.5,-0.07,-0.02,-0.14,0.0,u
1456.0,2993.0,2951.0,3583.0,4095.0,4095.0,3058.0,2528.0,-0.46,9.82,5.29,-0.06,-0.03,-0.13,0.0,u
2549.0,3003.0,2960.0,3620.0,4095.0,4095.0,2769.0,2517.0,-0.1,10.05,4.61,-0.05,0.03,-0.08,0.0,u
2655.0,3010.0,2963.0,3631.0,4095.0,4095.0,2768.0,2519.0,0.33,9.91,5.13,-0.21,0.0,-0.04,0.0,u
2832.0,3009.0,2965.0,3616.0,4095.0,4095.0,2768.0,2518.0,0.38,9.83,5.57,-0.29,0.06,-0.07,0.0,u
2873.0,3007.0,2975.0,3644.0,4095.0,4095.0,2771.0,2522.0,0.56,9.69,6.01,-0.35,-0.0,-0.13,0.0,u
3034.0,3002.0,2961.0,3627.0,4095.0,4095.0,2768.0,2514.0,0.46,9.63,6.42,-0.39,-0.16,-0.13,0.0,u
3154.0,3011.0,2965.0,3641.0,4095.0,4095.0,2782.0,2528.0,0.5,9.49,6.98,-0.42,-0.03,-0.13,0.0,u
3439.0,3006.0,2961.0,3622.0,4095.0,4095.0,2774.0,2523.0,0.61,9.31,7.72,-0.27,-0.2,-0.24,0.0,u
3498.0,3019.0,2981.0,3633.0,4095.0,4095.0,2775.0,2528.0,0.46,9.18,8.08,-0.2,-0.01,-0.15,0.0,u
3525.0,3007.0,2960.0,3625.0,4095.0,4095.0,2778.0,2525.0,0.36,9.22,7.88,-0.07,-0.01,-0.16,0.0,u
3548.0,3018.0,2976.0,3631.0,4095.0,4095.0,2768.0,2531.0,0.33,9.26,7.77,-0.02,0.01,-0.13,0.0,u
3571.0,2999.0,2978.0,3648.0,4095.0,4095.0,2775.0,2527.0,0.42,9.31,7.56,-0.04,-0.03,-0.1,0.0,u
3577.0,2994.0,2965.0,3648.0,4095.0,4095.0,2759.0,2527.0,0.46,9.15,8.04,-0.13,0.04,-0.07,0.0,u
3616.0,2999.0,2981.0,3650.0,4095.0,4095.0,2769.0,2534.0,0.74,9.11,8.17,-0.03,0.07,-0.07,0.0,u
3614.0,3007.0,2960.0,3658.0,4095.0,4095.0,2769.0,2528.0,0.74,9.15,7.98,0.02,-0.04,-0.13,0.0,u
3660.0,3007.0,2967.0,3645.0,4095.0,4095.0,2780.0,2541.0,0.63,9.15,8.01,-0.01,-0.04,-0.11,0.0,u
3650.0,3009.0,2970.0,3643.0,4095.0,4095.0,2770.0,2539.0,0.69,9.14,8.1,0.01,0.07,-0.08,0.0,u
3664.0,3009.0,2969.0,3658.0,4095.0,4095.0,2775.0,2539.0,0.92,9.15,7.99,0.03,0.02,-0.11,0.0,u
3689.0,3008.0,2953.0,3634.0,4095.0,4095.0,2775.0,2537.0,0.79,9.16,7.92,0.01,-0.05,-0.1,0.0,u
3728.0,3011.0,2975.0,3642.0,4095.0,4095.0,2778.0,2534.0,0.94,9.11,8.22,0.01,-0.06,-0.12,0.0,u
3697.0,2992.0,2962.0,3644.0,4095.0,4095.0,2779.0,2537.0,1.03,9.16,7.9,0.04,-0.02,-0.11,0.0,u
3703.0,3005.0,2960.0,3635.0,4095.0,4095.0,2779.0,2541.0,1.06,9.18,7.97,0.09,0.0,-0.14,0.0,u
3699.0,3001.0,2967.0,3664.0,4095.0,4095.0,2779.0,2541.0,1.11,9.18,7.79,0.06,-0.05,-0.15,0.0,u
3684.0,3002.0,2961.0,3643.0,4095.0,4095.0,2778.0,2536.0,0.96,9.16,7.91,0.08,-0.05,-0.13,0.0,u
3706.0,3004.0,2966.0,3644.0,4095.0,4095.0,2784.0,2543.0,1.07,9.25,7.75,0.12,0.1,-0.08,0.0,u
3679.0,2998.0,2975.0,3659.0,4095.0,4095.0,2780.0,2538.0,1.14,9.3,7.52,0.12,0.04,-0.1,0.0,u
3691.0,3013.0,2972.0,3653.0,4095.0,4095.0,2783.0,2543.0,1.31,9.32,7.41,0.06,0.04,-0.11,0.0,u
3678.0,3006.0,2963.0,3635.0,4095.0,4095.0,2771.0,2541.0,1.26,9.33,7.54,0.04,-0.08,-0.15,0.0,u
3679.0,3009.0,2976.0,3658.0,4095.0,4095.0,2783.0,2544.0,1.19,9.32,7.52,0.07,-0.02,-0.17,0.0,u
3674.0,3008.0,2966.0,3650.0,4095.0,4095.0,2777.0,2544.0,1.09,9.29,7.66,0.09,0.05,-0.17,0.0,u
3675.0,3014.0,2978.0,3647.0,4095.0,4095.0,2783.0,2545.0,1.21,9.38,7.31,0.15,0.04,-0.16,0.0,u
3686.0,3015.0,2962.0,3655.0,4095.0,4095.0,2785.0,2549.0,1.23,9.39,7.2,0.1,-0.06,-0.19,0.0,u
3665.0,2992.0,2973.0,3648.0,4095.0,4095.0,2783.0,2542.0,1.1,9.45,7.05,0.13,-0.1,-0.2,0.0,u
3671.0,3002.0,2967.0,3649.0,4095.0,4095.0,2791.0,2545.0,1.12,9.49,6.94,0.1,-0.01,-0.2,0.0,u
3658.0,3009.0,2958.0,3651.0,4095.0,4095.0,2783.0,2544.0,0.95,9.5,6.97,0.07,0.01,-0.22,0.0,u
3680.0,2999.0,2962.0,3662.0,4095.0,4095.0,2785.0,2544.0,0.96,9.51,6.84,0.11,-0.06,-0.22,0.0,u
3665.0,2992.0,2961.0,3645.0,4095.0,4095.0,2784.0,2545.0,0.88,9.56,6.76,0.08,-0.01,-0.22,0.0,u
3671.0,3015.0,2974.0,3660.0,4095.0,4095.0,2786.0,2547.0,0.74,9.6,6.58,0.1,-0.04,-0.22,0.0,u
3654.0,2992.0,2951.0,3641.0,4095.0,4095.0,2785.0,2542.0,0.78,9.62,6.53,0.06,-0.05,-0.21,0.0,u
3655.0,3021.0,2965.0,3657.0,4095.0,4095.0,2785.0,2555.0,0.68,9.59,6.65,0.03,-0.04,-0.21,0.0,u
3631.0,3008.0,2973.0,3657.0,4095.0,4095.0,2785.0,2547.0,0.64,9.62,6.57,0.08,0.04,-0.21,0.0,u
3649.0,3002.0,2962.0,3647.0,4095.0,4095.0,2784.0,2549.0,0.25,9.64,6.48,0.02,-0.04,-0.21,0.0,u
3646.0,2997.0,2978.0,3649.0,4095.0,4095.0,2791.0,2559.0,0.18,9.68,6.36,0.07,-0.04,-0.22,0.0,u
3627.0,2999.0,2961.0,3643.0,4095.0,4095.0,2783.0,2557.0,0.21,9.69,6.25,0.02,-0.02,-0.22,0.0,u
3643.0,2995.0,2964.0,3664.0,4095.0,4095.0,2789.0,2559.0,0.05,9.71,6.26,0.03,-0.04,-0.22,0.0,u
3633.0,2996.0,2959.0,3643.0,4095.0,4095.0,2791.0,2558.0,-0.01,9.65,6.37,0.0,-0.03,-0.21,0.0,u
3648.0,3020.0,2967.0,3655.0,4095.0,4095.0,2791.0,2559.0,-0.11,9.68,6.35,0.04,-0.03,-0.2,0.0,u
3650.0,3008.0,2961.0,3648.0,4095.0,4095.0,2791.0,2559.0,-0.0,9.7,6.28,0.02,-0.01,-0.2,0.0,u
3633.0,2992.0,2966.0,3655.0,4095.0,4095.0,2797.0,2559.0,-0.17,9.68,6.32,0.03,-0.0,-0.19,0.0,u
3643.0,3012.0,2967.0,3661.0,4095.0,4095.0,2799.0,2559.0,-0.21,9.69,6.28,0.01,-0.03,-0.19,0.0,u
3635.0,2995.0,2957.0,3650.0,4095.0,4095.0,2793.0,2559.0,-0.24,9.66,6.35,-0.01,-0.01,-0.17,0.0,u
3647.0,3002.0,2960.0,3659.0,4095.0,4095.0,2800.0,2559.0,-0.2,9.64,6.46,0.02,-0.05,-0.18,0.0,u
3634.0,3002.0,2960.0,3646.0,4095.0,4095.0,2797.0,2559.0,-0.18,9.69,6.25,0.02,-0.03,-0.18,0.0,u
3639.0,2998.0,2967.0,3665.0,4095.0,4095.0,2795.0,2559.0,-0.23,9.64,6.35,0.01,-0.04,-0.19,0.0,u
3651.0,3001.0,2966.0,3655.0,4095.0,4095.0,2793.0,2559.0,-0.36,9.64,6.4,-0.01,-0.03,-0.19,0.0,u
3659.0,3007.0,2970.0,3670.0,4095.0,4095.0,2799.0,2559.0,-0.34,9.68,6.37,0.03,0.03,-0.18,0.0,u
3647.0,2998.0,2963.0,3664.0,4095.0,4095.0,2793.0,2559.0,-0.37,9.68,6.29,0.01,-0.01,-0.18,0.0,u
3638.0,3006.0,2971.0,3678.0,4095.0,4095.0,2795.0,2559.0,-0.29,9.65,6.3,-0.03,-0.07,-0.19,0.0,u
3639.0,2995.0,2960.0,3662.0,4095.0,4095.0,2796.0,2559.0,-0.57,9.62,6.51,-0.01,-0.04,-0.19,0.0,u
3637.0,2996.0,2970.0,3670.0,4095.0,4095.0,2790.0,2559.0,-0.44,9.65,6.39,-0.02,-0.01,-0.18,0.0,u
3641.0,3018.0,2960.0,3665.0,4095.0,4095.0,2805.0,2559.0,-0.48,9.61,6.52,-0.03,-0.04,-0.19,0.0,u
3649.0,3012.0,2960.0,3668.0,4095.0,4095.0,2800.0,2559.0,-0.72,9.56,6.48,0.01,0.03,-0.18,0.0,u
3631.0,2998.0,2967.0,3661.0,4095.0,4095.0,2800.0,2559.0,-0.8,9.55,6.73,-0.01,-0.0,-0.19,0.0,u
3648.0,3003.0,2963.0,3683.0,4095.0,4095.0,2805.0,2559.0,-0.94,9.55,6.66,-0.01,0.01,-0.15,0.0,u
3633.0,2997.0,2960.0,3675.0,4095.0,4095.0,2805.0,2559.0,-0.87,9.58,6.59,0.0,-0.02,-0.14,0.0,u
3642.0,3002.0,2959.0,3669.0,4095.0,4095.0,2798.0,2559.0,-0.74,9.54,6.69,-0.06,0.01,-0.15,0.0,u
3634.0,2997.0,2964.0,3674.0,4095.0,4095.0,2806.0,2578.0,-0.78,9.52,6.78,-0.06,-0.03,-0.16,0.0,u
3646.0,3010.0,2960.0,3662.0,4095.0,4095.0,2798.0,2559.0,-0.81,9.48,6.96,-0.05,-0.04,-0.16,0.0,u
3657.0,3008.0,2966.0,3667.0,4095.0,4095.0,2800.0,2559.0,-0.8,9.41,7.13,-0.02,-0.07,-0.16,0.0,u
3631.0,2992.0,2959.0,3666.0,4095.0,4095.0,2791.0,2559.0,-0.85,9.48,6.89,-0.03,-0.0,-0.14,0.0,u
3660.0,3010.0,2972.0,3666.0,4095.0,4095.0,2801.0,2588.0,-0.86,9.39,7.13,-0.05,0.03,-0.15,0.0,u
3631.0,3009.0,2961.0,3666.0,4095.0,4095.0,2798.0,2559.0,-0.83,9.42,7.16,-0.0,-0.0,-0.14,0.0,u
3648.0,3010.0,2974.0,3682.0,4095.0,4095.0,2804.0,2582.0,-0.72,9.41,7.1,-0.01,-0.05,-0.16,0.0,u
3632.0,2999.0,2961.0,3669.0,4095.0,4095.0,2788.0,2559.0,-0.9,9.4,7.19,0.01,-0.08,-0.16,0.0,u
3655.0,3011.0,2974.0,3683.0,4095.0,4095.0,2801.0,2584.0,-0.7,9.43,7.13,0.03,0.13,-0.12,0.0,u
3632.0,2995.0,2960.0,3674.0,4095.0,4095.0,2801.0,2582.0,-0.82,9.43,7.13,0.04,-0.06,-0.17,0.0,u
3655.0,3002.0,2962.0,3673.0,4095.0,4095.0,2798.0,2582.0,-0.8,9.42,7.01,0.01,-0.03,-0.13,0.0,u
3648.0,3007.0,2979.0,3679.0,4095.0,4095.0,2801.0,2587.0,-0.73,9.37,7.26,-0.01,0.03,-0.13,0.0,u
3648.0,3009.0,2960.0,3677.0,4095.0,4095.0,2800.0,2583.0,-0.71,9.44,7.03,0.02,0.01,-0.15,0.0,u
3653.0,3008.0,2963.0,3687.0,4095.0,4095.0,2810.0,2591.0,-0.83,9.39,7.24,0.01,-0.03,-0.17,0.0,u
3643.0,3003.0,2963.0,3679.0,4095.0,4095.0,2801.0,2592.0,-0.8,9.44,7.06,0.03,0.0,-0.14,0.0,u
3567.0,3013.0,2961.0,3689.0,4095.0,4095.0,2794.0,2592.0,-0.76,9.43,7.03,0.02,-0.03,-0.17,0.0,u
3582.0,3001.0,2974.0,3702.0,4095.0,4095.0,2799.0,2599.0,-0.81,9.42,7.2,-0.0,-0.02,-0.16,0.0,u
3581.0,2994.0,2969.0,3691.0,4095.0,4095.0,2799.0,2597.0,-0.88,9.45,7.02,0.04,-0.03,-0.14,0.0,u
3601.0,3015.0,2974.0,3695.0,4095.0,4095.0,2805.0,2604.0,-0.87,9.43,7.12,-0.01,0.07,-0.12,0.0,u
3595.0,3002.0,2971.0,3687.0,4095.0,4095.0,2798.0,2595.0,-0.79,9.42,7.15,0.04,0.03,-0.1,0.0,u
3618.0,3003.0,2963.0,3697.0,4095.0,4095.0,2803.0,2601.0,-0.67,9.44,7.06,0.03,-0.03,-0.11,0.0,u
3619.0,3010.0,2970.0,3681.0,4095.0,4095.0,2791.0,2601.0,-0.73,9.44,7.12,-0.01,0.05,-0.09,0.0,u
3633.0,3018.0,2974.0,3696.0,4095.0,4095.0,2803.0,2602.0,-0.88,9.42,7.16,0.02,0.06,-0.03,0.0,u
3632.0,3003.0,2960.0,3678.0,4095.0,4095.0,2807.0,2606.0,-0.43,9.47,7.08,0.0,0.02,-0.02,0.0,u
3622.0,3007.0,2960.0,3687.0,4095.0,4095.0,2797.0,2597.0,-0.4,9.43,7.1,-0.0,0.02,-0.03,0.0,u
3639.0,2997.0,2969.0,3696.0,4095.0,4095.0,2806.0,2598.0,-0.2,9.45,7.09,0.01,0.12,0.0,0.0,u
3632.0,3009.0,2955.0,3683.0,4095.0,4095.0,2801.0,2605.0,-0.04,9.44,7.15,0.02,-0.01,-0.06,0.0,u
3639.0,3007.0,2966.0,3694.0,4095.0,4095.0,2803.0,2608.0,-0.0,9.49,7.05,0.0,0.02,-0.1,0.0,u
3606.0,2998.0,2970.0,3697.0,4095.0,4095.0,2799.0,2601.0,-0.08,9.43,7.28,0.02,0.06,-0.11,0.0,u
3635.0,3018.0,2960.0,3696.0,4095.0,4095.0,2814.0,2607.0,-0.0,9.49,7.02,0.03,0.02,-0.1,0.0,u
3623.0,3007.0,2964.0,3693.0,4095.0,4095.0,2797.0,2603.0,0.12,9.46,7.21,0.01,-0.09,-0.14,0.0,u
3632.0,3008.0,2988.0,3702.0,4095.0,4095.0,2798.0,2603.0,0.06,9.48,7.11,0.0,-0.03,-0.14,0.0,u
3629.0,3011.0,2959.0,3683.0,4095.0,4095.0,2803.0,2605.0,-0.11,9.38,7.41,0.01,-0.06,-0.16,0.0,u
3636.0,3008.0,2960.0,3708.0,4095.0,4095.0,2803.0,2602.0,-0.1,9.51,7.03,0.05,0.02,-0.13,0.0,u
3618.0,2991.0,2961.0,3696.0,4095.0,4095.0,2800.0,2599.0,-0.0,9.5,6.99,0.01,0.06,-0.12,0.0,u
3629.0,3005.0,2980.0,3706.0,4095.0,4095.0,2810.0,2606.0,-0.04,9.48,7.15,0.05,-0.01,-0.11,0.0,u
3614.0,2995.0,2970.0,3692.0,4095.0,4095.0,2803.0,2601.0,0.1,9.53,7.06,0.06,0.08,-0.11,0.0,u
3623.0,3001.0,2966.0,3696.0,4095.0,4095.0,2820.0,2608.0,0.19,9.52,6.97,0.09,0.07,-0.12,0.0,u
3623.0,2997.0,2964.0,3690.0,4095.0,4095.0,2812.0,2608.0,0.18,9.54,6.85,0.07,-0.01,-0.16,0.0,u
3625.0,3013.0,2980.0,3706.0,4095.0,4095.0,2819.0,2608.0,0.05,9.57,6.76,0.07,-0.1,-0.15,0.0,u
3643.0,3002.0,2963.0,3694.0,4095.0,4095.0,2819.0,2606.0,0.09,9.57,6.79,0.03,0.06,-0.1,0.0,u
3632.0,3018.0,2975.0,3696.0,4095.0,4095.0,2811.0,2611.0,0.33,9.55,6.83,0.02,0.02,-0.13,0.0,u
3614.0,3003.0,2969.0,3705.0,4095.0,4095.0,2816.0,2607.0,0.27,9.56,6.83,0.05,-0.08,-0.18,0.0,u
3619.0,2994.0,2953.0,3695.0,4095.0,4095.0,2814.0,2608.0,0.11,9.59,6.77,0.06,-0.04,-0.16,0.0,u
3622.0,3014.0,2975.0,3711.0,4095.0,4095.0,2817.0,2609.0,0.17,9.55,6.77,0.07,-0.02,-0.14,0.0,u
3612.0,2992.0,2960.0,3693.0,4095.0,4095.0,2815.0,2608.0,0.36,9.62,6.61,0.06,-0.03,-0.18,0.0,u
3605.0,3007.0,2969.0,3705.0,4095.0,4095.0,2811.0,2609.0,0.17,9.59,6.66,0.06,-0.07,-0.19,0.0,u
3583.0,2992.0,2963.0,3715.0,4095.0,4095.0,2805.0,2607.0,0.24,9.59,6.76,0.08,-0.12,-0.17,0.0,u
3610.0,3019.0,2971.0,3697.0,4095.0,4095.0,2821.0,2614.0,0.3,9.65,6.49,0.14,-0.09,-0.2,0.0,u
3605.0,3002.0,2963.0,3689.0,4095.0,4095.0,2811.0,2608.0,0.11,9.68,6.38,0.09,-0.13,-0.25,0.0,u
3622.0,3021.0,2977.0,3699.0,4095.0,4095.0,2815.0,2610.0,-0.23,9.73,6.19,0.07,-0.17,-0.21,0.0,u
3614.0,3002.0,2971.0,3701.0,4095.0,4095.0,2807.0,2608.0,-0.24,9.7,6.29,0.01,0.01,-0.08,0.0,u
3611.0,3010.0,2966.0,3703.0,4095.0,4095.0,2817.0,2608.0,0.25,9.62,6.49,0.04,0.04,-0.05,0.0,u
3607.0,3007.0,2959.0,3698.0,4095.0,4095.0,2816.0,2610.0,0.36,9.59,6.38,0.07,0.04,-0.09,0.0,u
3600.0,2993.0,2954.0,3696.0,4095.0,4095.0,2813.0,2608.0,0.4,9.69,6.26,0.07,-0.03,-0.15,0.0,u
3583.0,2999.0,2959.0,3692.0,4095.0,4095.0,2811.0,2607.0,0.36,9.79,5.87,0.05,-0.04,-0.22,0.0,u
3597.0,3008.0,2971.0,3721.0,4095.0,4095.0,2815.0,2615.0,0.37,9.82,5.68,0.02,-0.1,-0.23,0.0,u
3605.0,3007.0,2971.0,3709.0,4095.0,4095.0,2811.0,2613.0,0.06,9.8,5.69,0.02,-0.02,-0.19,0.0,u
3603.0,3007.0,2975.0,3716.0,4095.0,4095.0,2815.0,2611.0,0.06,9.75,5.9,0.0,0.03,-0.18,0.0,u
3600.0,2994.0,2960.0,3712.0,4095.0,4095.0,2814.0,2608.0,0.08,9.77,5.81,0.03,-0.0,-0.16,0.0,u
3603.0,3002.0,2966.0,3724.0,4095.0,4095.0,2826.0,2614.0,0.24,9.78,5.67,0.04,0.06,-0.14,0.0,u
3605.0,3008.0,2963.0,3702.0,4095.0,4095.0,2822.0,2609.0,0.15,9.77,5.81,0.01,-0.14,-0.18,0.0,u
3604.0,2990.0,2959.0,3703.0,4095.0,4095.0,2820.0,2608.0,0.11,9.81,5.74,0.01,-0.01,-0.16,0.0,u
3613.0,2999.0,2960.0,3713.0,4095.0,4095.0,2822.0,2610.0,0.09,9.75,5.83,0.02,0.03,-0.17,0.0,u
3600.0,2993.0,2966.0,3693.0,4095.0,4095.0,2821.0,2605.0,0.17,9.77,5.84,0.03,-0.06,-0.18,0.0,u
3598.0,3008.0,2967.0,3687.0,4095.0,4095.0,2826.0,2614.0,0.04,9.79,5.77,0.02,-0.05,-0.15,0.0,u
3601.0,2999.0,2954.0,3696.0,4095.0,4095.0,2818.0,2608.0,0.14,9.81,5.76,0.01,-0.02,-0.14,0.0,u
3602.0,3003.0,2978.0,3694.0,4095.0,4095.0,2818.0,2621.0,0.2,9.76,5.84,0.02,-0.03,-0.17,0.0,u
3583.0,3013.0,2967.0,3689.0,4095.0,4095.0,2816.0,2609.0,0.16,9.79,5.66,0.01,-0.1,-0.19,0.0,u
3600.0,2999.0,2964.0,3702.0,4095.0,4095.0,2821.0,2610.0,-0.01,9.82,5.79,-0.01,-0.06,-0.16,0.0,u
3583.0,3005.0,2957.0,3690.0,4095.0,4095.0,2818.0,2614.0,0.07,9.8,5.78,-0.01,0.05,-0.15,0.0,u
3613.0,3007.0,2973.0,3714.0,4095.0,4095.0,2819.0,2608.0,0.02,9.72,6.1,0.03,-0.03,-0.18,0.0,u
3614.0,3008.0,2955.0,3689.0,4095.0,4095.0,2821.0,2613.0,-0.01,9.82,5.67,0.06,-0.14,-0.15,0.0,u
3636.0,3002.0,2965.0,3695.0,4095.0,4095.0,2817.0,2609.0,0.06,9.82,5.66,0.04,-0.01,-0.12,0.0,u
3633.0,3006.0,2966.0,3696.0,4095.0,4095.0,2821.0,2615.0,0.11,9.83,5.59,-0.01,0.12,-0.12,0.0,u
3575.0,2999.0,2978.0,3696.0,4095.0,4095.0,2815.0,2608.0,0.23,9.82,5.7,0.01,0.06,-0.05,0.0,u
3600.0,3007.0,2970.0,3696.0,4095.0,4095.0,2818.0,2620.0,0.12,9.81,5.64,-0.0,0.03,-0.05,0.0,u
3583.0,2994.0,2965.0,3683.0,4095.0,4095.0,2822.0,2609.0,0.23,9.77,5.75,-0.02,-0.0,-0.0,0.0,u
3583.0,2999.0,2973.0,3699.0,4095.0,4095.0,2826.0,2619.0,0.37,9.76,5.86,-0.03,0.08,0.05,0.0,u
3569.0,3005.0,2978.0,3703.0,4095.0,4095.0,2823.0,2619.0,0.56,9.74,5.92,-0.03,0.15,0.04,0.0,u
3583.0,3008.0,2962.0,3693.0,4095.0,4095.0,2815.0,2610.0,1.03,9.72,5.98,-0.03,0.11,0.03,0.0,u
3600.0,3007.0,2960.0,3698.0,4095.0,4095.0,2823.0,2612.0,1.1,9.72,5.91,-0.03,-0.01,-0.07,0.0,u
3581.0,3007.0,2966.0,3693.0,4095.0,4095.0,2815.0,2612.0,0.91,9.73,5.91,-0.03,0.04,-0.04,0.0,u
3583.0,3008.0,2969.0,3709.0,4095.0,4095.0,2819.0,2612.0,0.95,9.72,5.89,-0.08,0.07,0.0,0.0,u
3570.0,3003.0,2958.0,3696.0,4095.0,4095.0,2814.0,2612.0,1.37,9.64,6.19,-0.15,0.09,0.02,0.0,u
3574.0,3005.0,2966.0,3707.0,4095.0,4095.0,2816.0,2613.0,1.62,9.6,6.36,-0.12,0.02,0.03,0.0,u
3555.0,3008.0,2967.0,3715.0,4095.0,4095.0,2815.0,2608.0,1.84,9.49,6.57,-0.14,-0.01,-0.01,0.0,u
3583.0,3017.0,2971.0,3729.0,4095.0,4095.0,2816.0,2615.0,1.72,9.48,6.57,-0.1,-0.15,0.05,0.0,u
3568.0,2993.0,2969.0,3712.0,4095.0,4095.0,2811.0,2609.0,1.88,9.39,6.91,-0.04,-0.11,0.08,0.0,u
3577.0,3005.0,2977.0,3731.0,4095.0,4095.0,2821.0,2613.0,2.37,9.7,7.03,0.16,-0.17,0.43,0.0,u
3583.0,3005.0,2960.0,3719.0,4095.0,4095.0,2811.0,2613.0,3.56,9.07,6.25,0.19,0.08,0.1,0.0,u
3601.0,2999.0,2960.0,3717.0,4095.0,4095.0,2813.0,2611.0,2.63,9.05,6.13,0.05,-0.13,-0.09,0.0,u
3599.0,3008.0,2967.0,3733.0,4095.0,4095.0,2822.0,2613.0,3.19,9.3,6.28,0.05,0.02,0.1,0.0,u
3583.0,3014.0,2964.0,3715.0,4095.0,4095.0,2816.0,2614.0,3.59,9.24,6.33,0.02,0.13,0.08,0.0,u
3570.0,3008.0,2978.0,3728.0,4095.0,4095.0,2819.0,2613.0,3.62,8.97,6.42,0.01,0.09,0.13,0.0,u
3571.0,3022.0,2978.0,3745.0,4095.0,4095.0,2814.0,2623.0,4.05,8.8,6.6,-0.03,-0.01,-0.24,0.0,u
3570.0,3010.0,2970.0,3733.0,4095.0,4089.0,2805.0,2610.0,4.24,8.72,6.89,-0.03,-0.01,-0.21,0.0,u
3568.0,3022.0,2963.0,3734.0,4095.0,4095.0,2813.0,2615.0,4.0,8.96,6.65,-0.02,-0.03,-0.29,0.0,u
3571.0,3002.0,2959.0,3729.0,4095.0,4095.0,2807.0,2619.0,3.87,8.92,6.85,-0.01,-0.01,-0.31,0.0,u
3571.0,2995.0,2970.0,3741.0,4095.0,4093.0,2807.0,2612.0,3.56,8.9,6.9,-0.0,-0.06,-0.39,0.0,u
3573.0,3016.0,2975.0,3733.0,4095.0,4095.0,2818.0,2622.0,3.39,9.01,6.75,-0.0,-0.04,-0.37,0.0,u
3566.0,3004.0,2965.0,3739.0,4095.0,4084.0,2810.0,2611.0,3.59,9.17,6.53,-0.07,-0.28,-0.4,0.0,u
3568.0,3001.0,2981.0,3742.0,4095.0,4095.0,2817.0,2622.0,2.94,9.38,6.85,-0.16,-0.16,-0.46,0.0,u
3568.0,3005.0,2963.0,3731.0,4095.0,4095.0,2817.0,2617.0,2.96,9.01,6.7,-0.14,-0.11,-0.28,0.0,u
3583.0,3008.0,2982.0,3743.0,4095.0,4095.0,2817.0,2624.0,3.08,9.1,6.85,-0.3,0.09,-0.41,0.0,u
3558.0,2995.0,2966.0,3727.0,4095.0,4090.0,2807.0,2617.0,2.06,9.46,7.46,-0.38,0.23,-0.49,0.0,u
3568.0,3009.0,2965.0,3747.0,4095.0,4095.0,2822.0,2619.0,2.05,9.26,8.26,-0.36,0.51,-0.31,0.0,u
3536.0,3002.0,2961.0,3742.0,4095.0,4087.0,2810.0,2617.0,1.46,8.73,8.79,-0.25,0.43,-0.32,0.0,u
3567.0,3005.0,2967.0,3758.0,4095.0,4083.0,2817.0,2624.0,1.32,8.43,7.96,-0.37,0.7,-0.49,0.0,u
3499.0,2998.0,2967.0,3725.0,4095.0,4084.0,2820.0,2639.0,-1.19,8.14,10.88,-1.02,0.76,-0.45,0.0,u
3500.0,2995.0,2962.0,3701.0,4095.0,4080.0,2818.0,2633.0,-0.94,7.23,10.36,-0.23,0.71,-0.25,0.0,u
3455.0,3009.0,2970.0,3707.0,4095.0,4095.0,2822.0,2634.0,-0.2,7.2,9.72,0.13,0.3,0.0,0.0,u
3457.0,2991.0,2963.0,3697.0,4095.0,4095.0,2827.0,2633.0,-0.67,7.93,9.94,0.05,-0.02,0.02,0.0,u
3471.0,3011.0,2975.0,3713.0,4095.0,4095.0,2833.0,2639.0,0.24,8.98,9.57,-0.1,0.15,-0.0,0.0,u
3470.0,2994.0,2963.0,3701.0,4095.0,4095.0,2827.0,2639.0,0.33,8.96,10.03,0.17,0.39,-0.22,0.0,u
3438.0,2997.0,2962.0,3691.0,4095.0,4095.0,2827.0,2639.0,-0.05,9.77,6.71,0.28,0.12,-0.26,0.0,u
3455.0,3008.0,2964.0,3705.0,4095.0,4095.0,2829.0,2640.0,0.34,9.46,6.53,0.4,0.04,-0.1,0.0,u
3453.0,3005.0,2971.0,3686.0,4095.0,4095.0,2826.0,2630.0,0.38,9.73,5.74,0.34,0.03,-0.08,0.0,u
3462.0,2992.0,2962.0,3695.0,4095.0,4095.0,2828.0,2631.0,0.15,9.71,5.66,0.27,-0.0,-0.07,0.0,u
3468.0,3003.0,2963.0,3696.0,4095.0,4095.0,2829.0,2636.0,0.43,9.89,5.45,0.28,-0.0,-0.13,0.0,u
3460.0,3007.0,2960.0,3689.0,4095.0,4095.0,2821.0,2634.0,0.48,9.9,5.14,0.25,0.08,-0.21,0.0,u
3467.0,2997.0,2967.0,3668.0,4095.0,4095.0,2832.0,2639.0,0.27,9.75,4.85,0.27,-0.02,-0.23,0.0,u
3441.0,3001.0,2966.0,3636.0,4095.0,4095.0,2829.0,2634.0,0.15,9.93,4.59,0.08,0.1,-0.16,0.0,u
3440.0,3007.0,2975.0,3824.0,4095.0,4095.0,2829.0,2633.0,0.11,9.71,5.11,0.05,-0.06,-0.19,0.0,u
3437.0,2995.0,2970.0,3799.0,4095.0,4095.0,2833.0,2637.0,0.37,9.88,4.46,0.14,0.06,-0.02,0.0,u
3465.0,3003.0,2962.0,3809.0,4095.0,4095.0,2838.0,2640.0,0.31,10.0,4.24,0.02,0.04,-0.08,0.0,u
3431.0,2999.0,2969.0,3821.0,4095.0,4095.0,2830.0,2639.0,0.59,9.87,4.69,-0.09,0.1,-0.06,0.0,u
3444.0,3010.0,2979.0,3847.0,4095.0,4095.0,2841.0,2640.0,0.63,9.97,4.71,0.02,-0.06,-0.31,0.0,u
3441.0,2997.0,2970.0,3814.0,4095.0,4095.0,2832.0,2644.0,0.09,9.93,4.67,-0.03,-0.03,-0.17,0.0,u
3440.0,2992.0,2963.0,3834.0,4095.0,4095.0,2834.0,2647.0,0.3,9.91,4.63,-0.1,0.05,-0.03,0.0,u
3442.0,3007.0,2965.0,3831.0,4095.0,4095.0,2834.0,2646.0,0.44,9.9,5.07,-0.15,0.15,0.06,0.0,u
3439.0,3003.0,2971.0,3838.0,4095.0,4095.0,2837.0,2645.0,0.88,9.83,5.11,-0.11,0.01,-0.12,0.0,u
3457.0,2997.0,2967.0,3834.0,4095.0,4095.0,2842.0,2651.0,0.63,9.79,5.16,-0.14,-0.0,-0.2,0.0,u
3440.0,3007.0,2961.0,3825.0,4095.0,4095.0,2832.0,2645.0,0.64,9.93,5.33,-0.14,-0.1,-0.18,0.0,u
3449.0,3008.0,2975.0,3852.0,4095.0,4095.0,2835.0,2653.0,0.43,9.79,5.68,-0.11,-0.01,-0.15,0.0,u
1001.0,2997.0,2962.0,3507.0,4095.0,4095.0,2788.0,2549.0,-1.33,9.83,5.42,-0.02,0.03,-0.12,0.0,u
1010.0,2996.0,2957.0,3509.0,4095.0,4095.0,2787.0,2543.0,-1.06,9.66,5.47,-0.05,-0.01,-0.13,0.0,u
1007.0,3002.0,2961.0,3527.0,4095.0,4095.0,2794.0,2548.0,-1.12,9.52,5.82,-0.04,-0.02,-0.15,0.0,u
1008.0,2993.0,2962.0,3526.0,4095.0,4095.0,2784.0,2544.0,-1.24,9.76,5.57,0.02,0.01,-0.14,0.0,u
1003.0,2997.0,2974.0,3535.0,4095.0,4095.0,2797.0,2550.0,-1.21,9.68,5.57,-0.05,0.02,-0.13,0.0,u
997.0,2998.0,2962.0,3536.0,4095.0,4095.0,2791.0,2546.0,-1.2,9.62,5.83,-0.02,-0.01,-0.1,0.0,u
1008.0,3003.0,2979.0,3547.0,4095.0,4095.0,2797.0,2551.0,-0.99,9.66,5.79,-0.03,0.01,-0.08,0.0,u
1000.0,3009.0,2964.0,3540.0,4095.0,4095.0,2806.0,2559.0,-1.12,9.62,5.74,-0.06,-0.03,-0.11,0.0,u
1005.0,3001.0,2955.0,3539.0,4095.0,4095.0,2800.0,2556.0,-1.05,9.76,5.93,-0.05,0.02,-0.06,0.0,u
999.0,3009.0,2954.0,3536.0,4095.0,4095.0,2806.0,2559.0,-0.87,9.73,5.96,-0.03,0.03,-0.11,0.0,u
1008.0,2997.0,2946.0,3536.0,4095.0,4095.0,2803.0,2559.0,-0.82,9.65,5.94,0.01,-0.01,-0.14,0.0,u
999.0,2992.0,2960.0,3550.0,4095.0,4095.0,2811.0,2559.0,-0.85,9.69,5.86,-0.03,-0.03,-0.12,0.0,u
996.0,3006.0,2960.0,3546.0,4095.0,4095.0,2800.0,2555.0,-0.8,9.63,6.02,-0.12,-0.05,-0.11,0.0,u
994.0,3011.0,2966.0,3561.0,4095.0,4095.0,2811.0,2559.0,-0.76,9.63,6.27,-0.1,-0.06,-0.15,0.0,u
997.0,2995.0,2954.0,3539.0,4095.0,4095.0,2811.0,2559.0,-0.93,9.61,6.39,-0.11,-0.05,-0.16,0.0,u
997.0,3006.0,2966.0,3555.0,4095.0,4095.0,2821.0,2559.0,-0.81,9.56,6.5,-0.08,0.01,-0.14,0.0,u
1007.0,3003.0,2962.0,3537.0,4095.0,4095.0,2811.0,2559.0,-0.77,9.49,6.57,-0.14,-0.02,-0.16,0.0,u
1009.0,3004.0,2973.0,3571.0,4095.0,4095.0,2809.0,2559.0,-0.79,9.42,6.75,-0.18,-0.02,-0.17,0.0,u
1003.0,2992.0,2970.0,3572.0,4095.0,4095.0,2820.0,2559.0,-0.56,9.43,7.0,-0.22,-0.01,-0.16,0.0,u
1007.0,2993.0,2960.0,3562.0,4095.0,4095.0,2810.0,2559.0,-0.86,9.52,7.41,-0.17,-0.05,-0.17,0.0,u
1010.0,3003.0,2955.0,3567.0,4095.0,4095.0,2813.0,2559.0,-0.45,9.05,8.25,-0.09,-0.03,-0.12,0.0,u
1015.0,3002.0,2961.0,3571.0,4095.0,4095.0,2814.0,2582.0,-0.59,8.77,8.32,-0.16,-0.09,-0.17,0.0,u
1020.0,3003.0,2960.0,3565.0,4095.0,4095.0,2825.0,2588.0,-0.64,8.94,8.64,-0.21,-0.13,-0.17,0.0,u
1009.0,3010.0,2950.0,3562.0,4095.0,4095.0,2817.0,2559.0,-0.71,8.82,9.11,-0.17,0.01,-0.14,0.0,u
1006.0,3010.0,2974.0,3566.0,4095.0,4095.0,2827.0,2579.0,-0.44,8.72,9.3,-0.04,-0.01,-0.12,0.0,u
1014.0,2992.0,2965.0,3567.0,4095.0,4095.0,2814.0,2559.0,-0.38,8.66,8.88,-0.01,-0.04,-0.21,0.0,u
1007.0,2992.0,2958.0,3578.0,4095.0,4095.0,2821.0,2559.0,-0.73,8.64,9.07,-0.01,-0.01,-0.22,0.0,u
1014.0,3006.0,2957.0,3569.0,4095.0,4095.0,2817.0,2581.0,-0.56,8.61,9.23,0.04,0.01,-0.11,0.0,u
1019.0,3002.0,2969.0,3571.0,4095.0,4095.0,2825.0,2578.0,-0.66,8.74,8.78,0.0,0.0,-0.2,0.0,u
1010.0,3013.0,2954.0,3564.0,4095.0,4095.0,2817.0,2559.0,-0.42,8.61,8.95,-0.06,0.03,-0.14,0.0,u
1009.0,2997.0,2960.0,3566.0,4095.0,4095.0,2832.0,2589.0,-0.38,8.57,9.02,-0.1,-0.04,-0.36,0.0,u
1021.0,3008.0,2966.0,3566.0,4095.0,4095.0,2817.0,2581.0,-0.87,8.56,9.37,-0.15,-0.08,-0.21,0.0,u
1023.0,3001.0,2971.0,3568.0,4095.0,4095.0,2827.0,2578.0,-0.7,8.37,9.33,-0.12,-0.08,-0.18,0.0,u
1014.0,2999.0,2960.0,3568.0,4095.0,4095.0,2829.0,2590.0,-0.75,8.31,9.61,-0.15,0.04,-0.18,0.0,u
1023.0,3002.0,2949.0,3563.0,4095.0,4095.0,2830.0,2583.0,-0.75,8.26,9.8,-0.09,-0.08,-0.12,0.0,u
1011.0,2992.0,2955.0,3573.0,4095.0,4095.0,2825.0,2586.0,-0.62,8.22,9.41,-0.12,-0.08,-0.16,0.0,u
1011.0,3004.0,2959.0,3568.0,4095.0,4095.0,2830.0,2582.0,-0.8,7.99,10.13,-0.25,0.02,-0.17,0.0,u
1013.0,2995.0,2965.0,3579.0,4095.0,4095.0,2829.0,2597.0,-0.01,7.14,11.7,0.0,0.1,0.19,0.0,u
1020.0,3008.0,2954.0,3579.0,4095.0,4095.0,2829.0,2594.0,-0.67,7.79,10.53,-0.05,-0.03,-0.16,0.0,u
1019.0,3007.0,2973.0,3583.0,4095.0,4095.0,2832.0,2597.0,-0.66,7.83,10.13,-0.05,-0.07,-0.18,0.0,u
1037.0,3014.0,2960.0,3600.0,4095.0,4095.0,2832.0,2599.0,-0.85,7.56,10.69,0.0,-0.03,-0.15,0.0,u
1015.0,3005.0,2965.0,3583.0,4095.0,4095.0,2830.0,2596.0,-0.89,7.6,10.75,0.07,0.01,-0.13,0.0,u
1017.0,3003.0,2962.0,3583.0,4095.0,4095.0,2840.0,2607.0,-0.84,7.62,10.81,0.14,-0.04,-0.13,0.0,u
1019.0,3001.0,2957.0,3583.0,4095.0,4095.0,2834.0,2598.0,-0.91,7.75,10.4,0.22,0.03,-0.07,0.0,u
1014.0,3014.0,2971.0,3583.0,4095.0,4095.0,2834.0,2608.0,-0.78,7.93,10.06,0.2,0.09,-0.06,0.0,u
1034.0,2993.0,2960.0,3573.0,4095.0,4095.0,2833.0,2605.0,-0.59,8.07,9.79,0.12,0.09,-0.06,0.0,u
1023.0,3001.0,2973.0,3583.0,4095.0,4095.0,2832.0,2614.0,-0.51,8.13,9.95,0.12,0.01,-0.08,0.0,u
1019.0,2992.0,2956.0,3573.0,4095.0,4095.0,2836.0,2607.0,-0.55,8.27,9.67,0.16,-0.13,-0.11,0.0,u
1039.0,3012.0,2976.0,3583.0,4095.0,4095.0,2837.0,2608.0,-0.61,8.23,9.65,0.09,0.0,-0.06,0.0,u
1023.0,3005.0,2961.0,3582.0,4095.0,4095.0,2832.0,2603.0,-0.17,8.17,9.9,0.12,-0.17,-0.12,0.0,u
1023.0,3011.0,2958.0,3583.0,4095.0,4095.0,2834.0,2605.0,-0.63,8.33,9.73,0.22,-0.04,-0.12,0.0,u
1017.0,3010.0,2971.0,3583.0,4095.0,4095.0,2843.0,2611.0,-0.31,8.49,9.17,0.24,0.1,-0.08,0.0,u
1018.0,3002.0,2951.0,3574.0,4095.0,4095.0,2832.0,2607.0,0.0,8.64,8.95,0.24,-0.21,-0.16,0.0,u
1039.0,2999.0,2965.0,3600.0,4095.0,4095.0,2837.0,2608.0,0.05,8.71,9.12,0.24,-0.5,-0.25,0.0,u
1039.0,3009.0,2956.0,3578.0,4095.0,4095.0,2826.0,2598.0,-0.22,8.75,9.1,0.24,-0.47,-0.22,0.0,u
1040.0,3007.0,2965.0,3597.0,4095.0,4095.0,2829.0,2599.0,0.14,8.82,8.68,0.28,-0.32,-0.18,0.0,u
1056.0,2992.0,2960.0,3578.0,4095.0,4095.0,2825.0,2605.0,0.48,9.03,7.98,0.16,-0.06,-0.16,0.0,u
1051.0,3001.0,2975.0,3603.0,4095.0,4095.0,2822.0,2603.0,0.16,9.14,8.13,0.06,0.02,-0.15,0.0,u
1067.0,2997.0,2960.0,3583.0,4095.0,4095.0,2825.0,2606.0,0.22,9.06,8.37,0.06,0.03,-0.14,0.0,u
1077.0,2999.0,2964.0,3600.0,4095.0,4095.0,2827.0,2612.0,0.21,9.19,8.11,0.07,-0.08,-0.18,0.0,u
1136.0,3005.0,2970.0,3600.0,4095.0,4095.0,2838.0,2621.0,0.4,9.22,7.88,0.04,0.02,-0.12,0.0,u
1148.0,3002.0,2960.0,3583.0,4095.0,4095.0,2832.0,2611.0,0.46,9.22,7.66,0.03,-0.04,-0.15,0.0,u
1169.0,3009.0,2974.0,3607.0,4095.0,4095.0,2833.0,2617.0,0.33,9.23,8.02,0.01,0.02,-0.15,0.0,u
1171.0,2999.0,2961.0,3599.0,4095.0,4095.0,2829.0,2611.0,0.45,9.24,7.76,0.04,0.01,-0.15,0.0,u
1154.0,3012.0,2962.0,3599.0,4095.0,4095.0,2833.0,2617.0,0.41,9.28,7.58,0.02,-0.03,-0.17,0.0,u
1163.0,3002.0,2959.0,3582.0,4095.0,4095.0,2834.0,2614.0,0.36,9.18,7.9,-0.0,-0.01,-0.16,0.0,u
1152.0,3005.0,2978.0,3601.0,4095.0,4095.0,2846.0,2621.0,0.32,9.26,7.91,0.02,-0.03,-0.17,0.0,u
1136.0,2997.0,2967.0,3583.0,4095.0,4095.0,2833.0,2621.0,0.33,9.33,7.7,0.04,0.0,-0.15,0.0,u
1138.0,2995.0,2952.0,3583.0,4095.0,4095.0,2835.0,2620.0,0.41,9.35,7.63,0.03,-0.01,-0.15,0.0,u
1117.0,3002.0,2960.0,3602.0,4095.0,4095.0,2841.0,2622.0,0.28,9.25,7.75,0.05,-0.0,-0.16,0.0,u
1139.0,2992.0,2951.0,3600.0,4095.0,4095.0,2835.0,2617.0,0.24,9.27,7.77,0.06,0.02,-0.13,0.0,u
1147.0,2996.0,2960.0,3600.0,4095.0,4095.0,2842.0,2621.0,0.34,9.38,7.67,0.07,0.01,-0.12,0.0,u
1183.0,2997.0,2950.0,3600.0,4095.0,4095.0,2841.0,2624.0,0.4,9.27,7.6,0.09,0.02,-0.1,0.0,u
1212.0,3001.0,2977.0,3601.0,4095.0,4095.0,2839.0,2624.0,0.49,9.4,7.41,0.08,0.0,-0.12,0.0,u
1219.0,3003.0,2971.0,3600.0,4095.0,4095.0,2832.0,2613.0,0.41,9.39,7.49,0.09,0.01,-0.12,0.0,u
1205.0,3002.0,2959.0,3604.0,4095.0,4095.0,2837.0,2624.0,0.51,9.39,7.38,0.08,-0.01,-0.14,0.0,u
1200.0,2992.0,2962.0,3601.0,4095.0,4095.0,2834.0,2621.0,0.39,9.5,7.26,0.07,0.0,-0.14,0.0,u
1214.0,3005.0,2967.0,3610.0,4095.0,4095.0,2843.0,2623.0,0.55,9.34,7.26,0.1,0.08,-0.11,0.0,u
1253.0,3011.0,2969.0,3602.0,4095.0,4095.0,2832.0,2618.0,0.59,9.51,7.19,0.09,0.01,-0.17,0.0,u
1243.0,3007.0,2966.0,3582.0,4095.0,4095.0,2841.0,2624.0,0.54,9.5,6.96,0.1,-0.04,-0.2,0.0,u
1197.0,3007.0,2970.0,3605.0,4095.0,4095.0,2846.0,2626.0,0.31,9.7,6.22,0.07,0.07,-0.12,0.0,u
1195.0,3005.0,2959.0,3583.0,4095.0,4095.0,2845.0,2623.0,0.49,9.84,6.32,0.04,0.04,-0.15,0.0,u
1202.0,3009.0,2960.0,3600.0,4095.0,4095.0,2851.0,2624.0,0.49,9.59,6.17,0.05,0.0,-0.17,0.0,u
1209.0,2996.0,2957.0,3600.0,4095.0,4095.0,2850.0,2627.0,0.27,9.7,6.45,0.1,0.04,-0.13,0.0,u
1214.0,3008.0,2970.0,3583.0,4095.0,4095.0,2849.0,2629.0,0.38,9.64,5.88,0.14,-0.02,-0.16,0.0,u
1200.0,3010.0,2960.0,3599.0,4095.0,4095.0,2858.0,2635.0,0.26,9.58,6.01,0.06,0.1,-0.09,0.0,u
1200.0,2994.0,2962.0,3583.0,4095.0,4095.0,2847.0,2626.0,0.42,9.76,5.66,0.06,0.03,-0.11,0.0,u
1209.0,3001.0,2966.0,3605.0,4095.0,4095.0,2850.0,2625.0,0.5,9.77,5.83,0.03,-0.01,-0.11,0.0,u
1198.0,3005.0,2960.0,3583.0,4095.0,4095.0,2843.0,2624.0,0.5,9.66,5.9,0.05,0.03,-0.09,0.0,u
1216.0,2999.0,2965.0,3583.0,4095.0,4095.0,2861.0,2627.0,0.59,9.9,5.92,-0.0,0.01,-0.12,0.0,u
1221.0,3007.0,2953.0,3578.0,4095.0,4095.0,2847.0,2628.0,0.5,9.66,5.93,0.08,0.01,-0.11,0.0,u
1206.0,3008.0,2961.0,3597.0,4095.0,4095.0,2852.0,2630.0,0.81,9.8,5.71,0.04,0.03,-0.12,0.0,u
1209.0,3003.0,2966.0,3599.0,4095.0,4095.0,2849.0,2625.0,0.74,9.76,5.68,0.03,-0.01,-0.17,0.0,u
1215.0,3005.0,2971.0,3607.0,4095.0,4095.0,2847.0,2626.0,0.65,9.85,5.85,0.11,-0.04,-0.13,0.0,u
1215.0,3013.0,2959.0,3583.0,4095.0,4095.0,2848.0,2629.0,0.71,9.79,5.3,0.07,-0.14,-0.22,0.0,u
1215.0,3007.0,2968.0,3600.0,4095.0,4095.0,2850.0,2625.0,0.41,9.8,5.65,-0.01,0.06,-0.13,0.0,u
1210.0,3009.0,2962.0,3615.0,4095.0,4095.0,2846.0,2629.0,0.72,9.72,5.74,0.02,-0.01,-0.16,0.0,u
1199.0,3002.0,2957.0,3583.0,4095.0,4095.0,2849.0,2630.0,0.4,9.81,5.55,0.04,-0.01,-0.13,0.0,u
1197.0,3024.0,2963.0,3614.0,4095.0,4095.0,2854.0,2627.0,0.7,9.8,5.6,-0.02,0.06,-0.09,0.0,u
1183.0,3003.0,2958.0,3616.0,4095.0,4095.0,2847.0,2626.0,0.74,9.8,5.68,-0.0,-0.04,-0.17,0.0,u
1261.0,3006.0,2962.0,3623.0,4095.0,4095.0,2857.0,2634.0,0.67,9.77,5.78,0.01,-0.01,-0.14,0.0,u
1250.0,2999.0,2948.0,3609.0,4095.0,4095.0,2854.0,2634.0,0.66,9.77,5.66,0.01,-0.02,-0.15,0.0,u
1248.0,3007.0,2976.0,3629.0,4095.0,4095.0,2861.0,2634.0,0.61,9.83,5.64,-0.03,-0.1,-0.2,0.0,u
1235.0,3006.0,2960.0,3634.0,4095.0,4095.0,2852.0,2634.0,0.54,9.78,5.9,0.0,-0.03,-0.16,0.0,u
1246.0,2992.0,2955.0,3611.0,4095.0,4095.0,2854.0,2630.0,0.57,9.76,5.79,0.03,0.01,-0.13,0.0,u
1239.0,3008.0,2954.0,3627.0,4095.0,4095.0,2864.0,2640.0,0.62,9.74,5.72,0.02,0.02,-0.13,0.0,u
1252.0,3006.0,2956.0,3621.0,4095.0,4095.0,2848.0,2626.0,0.76,9.83,5.7,-0.01,0.0,-0.15,0.0,u
1250.0,3009.0,2960.0,3623.0,4095.0,4095.0,2862.0,2639.0,0.64,9.74,5.79,-0.02,-0.04,-0.17,0.0,u
1264.0,3006.0,2960.0,3611.0,4095.0,4095.0,2851.0,2629.0,0.6,9.82,5.64,-0.03,-0.07,-0.15,0.0,u
1289.0,2992.0,2961.0,3632.0,4095.0,4095.0,2857.0,2630.0,0.79,9.7,6.02,-0.01,-0.01,-0.16,0.0,u
1278.0,2996.0,2953.0,3614.0,4095.0,4095.0,2855.0,2630.0,0.54,9.76,5.89,0.01,-0.05,-0.18,0.0,u
1275.0,3007.0,2958.0,3626.0,4095.0,4095.0,2860.0,2636.0,0.55,9.79,5.79,-0.02,-0.02,-0.15,0.0,u
1258.0,2998.0,2962.0,3625.0,4095.0,4095.0,2855.0,2629.0,0.64,9.8,5.77,-0.02,-0.05,-0.15,0.0,u
1245.0,3011.0,2969.0,3631.0,4095.0,4095.0,2861.0,2639.0,0.63,9.79,5.96,-0.03,-0.03,-0.14,0.0,u
1243.0,3002.0,2959.0,3622.0,4095.0,4095.0,2857.0,2627.0,0.71,9.72,6.09,-0.03,-0.03,-0.16,0.0,u
1248.0,3011.0,2960.0,3621.0,4095.0,4095.0,2859.0,2631.0,0.57,9.76,5.98,0.0,-0.03,-0.15,0.0,u
1255.0,3008.0,2963.0,3628.0,4095.0,4095.0,2861.0,2633.0,0.65,9.67,6.17,-0.01,0.0,-0.14,0.0,u
1254.0,2995.0,2960.0,3629.0,4095.0,4095.0,2861.0,2628.0,0.68,9.79,5.9,0.01,-0.06,-0.16,0.0,u
1249.0,3015.0,2960.0,3627.0,4095.0,4095.0,2863.0,2627.0,0.62,9.73,6.1,-0.0,-0.03,-0.15,0.0,u
1236.0,3008.0,2960.0,3632.0,4095.0,4095.0,2855.0,2627.0,0.65,9.65,6.16,0.02,-0.02,-0.16,0.0,u
1271.0,3019.0,2960.0,3635.0,4095.0,4095.0,2865.0,2640.0,0.59,9.73,6.17,0.04,0.01,-0.12,0.0,u
1264.0,3008.0,2970.0,3638.0,4095.0,4095.0,2858.0,2632.0,0.68,9.73,6.0,0.01,0.01,-0.13,0.0,u
1267.0,3008.0,2966.0,3644.0,4095.0,4095.0,2863.0,2636.0,0.92,9.8,6.14,-0.03,-0.01,-0.13,0.0,u
1264.0,3003.0,2971.0,3646.0,4095.0,4095.0,2860.0,2640.0,0.63,9.63,6.14,0.03,-0.08,-0.19,0.0,u
1285.0,3002.0,2969.0,3632.0,4095.0,4095.0,2855.0,2631.0,0.65,9.78,5.83,-0.05,-0.04,-0.17,0.0,u
1296.0,3001.0,2962.0,3637.0,4095.0,4095.0,2864.0,2640.0,0.67,9.65,6.42,-0.04,0.04,-0.1,0.0,u
1299.0,2999.0,2960.0,3629.0,4095.0,4095.0,2860.0,2637.0,0.75,9.58,6.24,-0.03,0.03,-0.13,0.0,u
1302.0,2993.0,2965.0,3645.0,4095.0,4095.0,2864.0,2641.0,0.72,9.67,6.26,-0.04,0.06,-0.09,0.0,u
1328.0,3001.0,2972.0,3639.0,4095.0,4095.0,2864.0,2639.0,0.75,9.4,6.76,-0.03,-0.02,-0.17,0.0,u
1315.0,2995.0,2947.0,3626.0,4095.0,4095.0,2861.0,2640.0,0.83,9.53,6.4,0.01,-0.0,-0.17,0.0,u
1351.0,2997.0,2969.0,3630.0,4095.0,4095.0,2865.0,2643.0,0.78,9.65,6.36,-0.0,-0.07,-0.14,0.0,u
1342.0,3007.0,2959.0,3620.0,4095.0,4095.0,2862.0,2637.0,0.84,9.72,6.38,-0.01,-0.02,-0.16,0.0,u
1360.0,3009.0,2964.0,3635.0,4095.0,4095.0,2867.0,2643.0,0.97,9.61,6.6,0.02,0.05,-0.11,0.0,u
1356.0,2998.0,2961.0,3630.0,4095.0,4095.0,2867.0,2640.0,0.74,9.74,6.38,-0.03,-0.08,-0.23,0.0,u
1447.0,2997.0,2960.0,3619.0,4095.0,4095.0,2864.0,2641.0,0.68,9.63,6.47,-0.06,-0.04,-0.15,0.0,u
1442.0,3003.0,2960.0,3633.0,4095.0,4095.0,2869.0,2646.0,0.75,9.43,6.98,0.01,0.08,-0.1,0.0,u
1445.0,3001.0,2965.0,3619.0,4095.0,4095.0,2870.0,2649.0,0.98,9.69,6.34,0.03,0.02,-0.16,0.0,u
1439.0,3012.0,2951.0,3622.0,4095.0,4095.0,2877.0,2650.0,0.91,9.64,6.47,-0.02,-0.09,-0.2,0.0,u
1451.0,2998.0,2960.0,3632.0,4095.0,4095.0,2867.0,2643.0,0.69,9.58,6.79,-0.04,-0.1,-0.2,0.0,u
1457.0,3003.0,2960.0,3638.0,4095.0,4095.0,2871.0,2656.0,0.73,9.59,6.73,0.0,-0.1,-0.21,0.0,u
1433.0,3005.0,2961.0,3621.0,4095.0,4058.0,2867.0,2657.0,0.41,9.54,6.65,-0.02,-0.02,-0.2,0.0,u
1435.0,3010.0,2966.0,3638.0,4095.0,4048.0,2865.0,2657.0,0.74,9.56,6.66,0.01,-0.06,-0.09,0.0,u
1439.0,3017.0,2961.0,3632.0,4095.0,4078.0,2880.0,2665.0,0.78,9.66,6.49,-0.06,-0.08,-0.19,0.0,u
1434.0,2995.0,2963.0,3632.0,4095.0,4050.0,2871.0,2658.0,0.33,9.47,7.29,-0.14,0.05,-0.23,0.0,u
1437.0,3005.0,2974.0,3633.0,4095.0,4064.0,2873.0,2663.0,0.66,9.41,7.06,-0.04,0.03,-0.23,0.0,u
1429.0,2997.0,2967.0,3626.0,4095.0,4065.0,2874.0,2662.0,0.24,9.55,7.36,0.02,0.09,-0.19,0.0,u
1424.0,3002.0,2965.0,3632.0,4095.0,4080.0,2883.0,2670.0,0.06,9.39,7.21,0.06,-0.04,-0.19,0.0,u
1415.0,2999.0,2960.0,3629.0,4095.0,4067.0,2871.0,2665.0,0.17,9.49,6.86,-0.05,0.05,-0.14,0.0,u
1421.0,3007.0,2960.0,3633.0,4095.0,4093.0,2885.0,2667.0,0.34,9.49,7.26,-0.05,-0.05,-0.15,0.0,u
1410.0,2994.0,2955.0,3639.0,4095.0,4083.0,2880.0,2663.0,0.26,9.42,7.34,0.04,-0.08,-0.13,0.0,u
1434.0,3001.0,2963.0,3647.0,4095.0,4095.0,2881.0,2669.0,0.46,9.37,7.14,0.01,-0.01,-0.16,0.0,u
1434.0,2994.0,2965.0,3642.0,4095.0,4074.0,2881.0,2667.0,0.13,9.45,7.45,-0.02,0.01,-0.16,0.0,u
1427.0,3003.0,2955.0,3638.0,4095.0,4095.0,2886.0,2671.0,0.28,9.5,7.26,-0.01,0.02,-0.17,0.0,u
1424.0,3010.0,2962.0,3658.0,4095.0,4089.0,2882.0,2672.0,0.34,9.41,7.17,0.0,0.01,-0.14,0.0,u
1418.0,3008.0,2959.0,3647.0,4095.0,4092.0,2883.0,2670.0,0.33,9.5,7.46,0.0,0.02,-0.15,0.0,u
1418.0,2997.0,2960.0,3655.0,4095.0,4095.0,2887.0,2672.0,0.02,9.48,7.43,0.07,0.03,-0.13,0.0,u
1408.0,2999.0,2961.0,3650.0,4095.0,4090.0,2880.0,2670.0,-0.26,9.4,7.19,0.08,0.14,0.04,0.0,u
1408.0,3007.0,2968.0,3664.0,4095.0,4092.0,2881.0,2667.0,1.28,9.35,7.17,0.08,0.14,0.21,0.0,u
1422.0,3007.0,2964.0,3645.0,4095.0,4091.0,2882.0,2670.0,1.28,9.48,7.04,0.03,-0.03,-0.18,0.0,u
1418.0,3010.0,2958.0,3659.0,4095.0,4095.0,2887.0,2672.0,0.46,9.49,6.99,-0.04,-0.12,-0.35,0.0,u
1390.0,3007.0,2969.0,3660.0,4095.0,4095.0,2880.0,2670.0,0.41,9.41,7.43,0.04,0.1,-0.11,0.0,u
1395.0,3015.0,2957.0,3652.0,4095.0,4090.0,2885.0,2669.0,0.64,9.34,7.0,-0.04,-0.01,-0.15,0.0,u
1411.0,3003.0,2966.0,3669.0,4095.0,4095.0,2887.0,2673.0,0.54,9.32,7.88,-0.09,-0.04,-0.18,0.0,u
1398.0,2999.0,2966.0,3658.0,4095.0,4095.0,2883.0,2670.0,0.17,9.35,7.51,0.04,-0.11,-0.17,0.0,u
1408.0,3017.0,2969.0,3681.0,4095.0,4095.0,2889.0,2674.0,0.58,9.35,7.52,-0.05,0.09,-0.08,0.0,u
1408.0,3008.0,2954.0,3665.0,4095.0,4095.0,2883.0,2671.0,0.68,9.36,7.49,0.03,-0.07,-0.15,0.0,u
1402.0,3002.0,2955.0,3678.0,4095.0,4095.0,2890.0,2671.0,0.42,9.3,7.56,-0.01,-0.02,-0.17,0.0,u
1406.0,2992.0,2955.0,3661.0,4095.0,4095.0,2882.0,2670.0,0.5,9.31,7.62,-0.02,-0.01,-0.17,0.0,u
1407.0,3015.0,2970.0,3667.0,4095.0,4095.0,2887.0,2672.0,0.37,9.37,7.68,0.06,-0.03,-0.17,0.0,u
1407.0,3003.0,2956.0,3667.0,4095.0,4095.0,2880.0,2665.0,0.47,9.3,7.19,-0.0,-0.02,-0.14,0.0,u
1412.0,3010.0,2964.0,3675.0,4095.0,4095.0,2887.0,2670.0,0.45,9.22,8.04,-0.03,-0.0,-0.15,0.0,u
1407.0,3008.0,2957.0,3659.0,4095.0,4095.0,2887.0,2672.0,0.36,9.24,7.68,0.09,-0.02,-0.16,0.0,u
1413.0,3017.0,2977.0,3678.0,4095.0,4095.0,2884.0,2672.0,0.44,9.5,7.3,0.07,0.04,-0.1,0.0,u
1410.0,3015.0,2965.0,3669.0,4095.0,4095.0,2891.0,2678.0,0.7,9.48,7.28,-0.05,-0.03,-0.14,0.0,u
1414.0,2999.0,2965.0,3664.0,4095.0,4095.0,2885.0,2671.0,0.47,9.17,8.03,-0.05,-0.02,-0.17,0.0,u
1411.0,3009.0,2960.0,3675.0,4095.0,4095.0,2895.0,2674.0,0.32,9.3,7.82,0.05,-0.0,-0.16,0.0,u
1419.0,3004.0,2951.0,3666.0,4095.0,4095.0,2884.0,2672.0,0.64,9.3,7.43,0.01,0.02,-0.14,0.0,u
1421.0,3012.0,2971.0,3675.0,4095.0,4095.0,2890.0,2677.0,0.64,9.26,7.33,0.05,-0.03,-0.12,0.0,u
1408.0,2995.0,2962.0,3662.0,4095.0,4095.0,2887.0,2672.0,0.56,9.49,7.67,-0.1,-0.02,-0.19,0.0,u
1415.0,3008.0,2960.0,3674.0,4095.0,4095.0,2890.0,2673.0,0.47,9.16,7.97,0.09,-0.03,-0.16,0.0,u
1426.0,2998.0,2955.0,3673.0,4095.0,4095.0,2886.0,2676.0,0.57,9.39,7.7,-0.08,0.0,-0.17,0.0,u
1410.0,3006.0,2960.0,3671.0,4095.0,4092.0,2885.0,2672.0,0.51,9.22,7.91,0.03,-0.04,-0.18,0.0,u
1419.0,3003.0,2969.0,3687.0,4095.0,4095.0,2890.0,2672.0,0.43,9.36,7.3,0.06,-0.03,-0.14,0.0,u
1407.0,3002.0,2961.0,3677.0,4095.0,4086.0,2884.0,2671.0,0.52,9.35,7.69,-0.07,0.01,-0.18,0.0,u
1424.0,3003.0,2966.0,3682.0,4095.0,4095.0,2896.0,2675.0,0.4,9.2,7.91,0.05,-0.02,-0.16,0.0,u
1422.0,3004.0,2963.0,3671.0,4095.0,4095.0,2882.0,2672.0,0.41,9.39,7.5,0.04,0.01,-0.13,0.0,u
1410.0,3015.0,2965.0,3679.0,4095.0,4095.0,2890.0,2674.0,0.57,9.33,7.56,-0.0,0.0,-0.15,0.0,u
1410.0,2990.0,2959.0,3663.0,4095.0,4095.0,2885.0,2671.0,0.45,9.28,7.62,0.01,0.03,-0.14,0.0,u
1342.0,3013.0,2970.0,3677.0,4095.0,4095.0,2891.0,2676.0,0.51,9.3,7.7,-0.02,-0.0,-0.14,0.0,u
1182.0,2994.0,2960.0,3671.0,4095.0,4095.0,2885.0,2672.0,0.5,9.31,7.8,0.02,-0.04,-0.17,0.0,u
1193.0,3018.0,2970.0,3677.0,4095.0,4095.0,2895.0,2677.0,0.38,9.32,7.62,-0.01,-0.02,-0.16,0.0,u
1183.0,2994.0,2956.0,3669.0,4095.0,4095.0,2885.0,2671.0,0.39,9.26,7.74,-0.02,0.05,-0.13,0.0,u
1184.0,3018.0,2960.0,3671.0,4095.0,4095.0,2893.0,2673.0,0.54,9.3,7.67,-0.03,-0.01,-0.13,0.0,u
1183.0,3008.0,2960.0,3677.0,4095.0,4095.0,2893.0,2679.0,0.38,9.27,7.96,-0.06,0.02,-0.15,0.0,u
1195.0,2995.0,2954.0,3661.0,4095.0,4095.0,2879.0,2675.0,0.78,9.13,8.03,-0.01,0.18,-0.11,0.0,u
1181.0,3008.0,2965.0,3677.0,4095.0,4095.0,2896.0,2679.0,0.3,9.17,7.8,-0.03,0.75,0.01,0.0,u
1177.0,2992.0,2960.0,3667.0,4095.0,4095.0,2890.0,2672.0,0.59,9.2,7.92,-0.05,0.93,0.05,0.0,u
1136.0,3004.0,2969.0,3693.0,4095.0,4095.0,2894.0,2672.0,0.04,9.27,6.19,-0.11,1.39,0.34,0.0,u
1070.0,3005.0,2969.0,3671.0,4095.0,4095.0,2885.0,2675.0,0.02,9.1,8.47,-0.08,0.48,-0.03,0.0,u
1071.0,3021.0,2960.0,3674.0,4095.0,4095.0,2896.0,2685.0,0.06,9.1,8.17,0.05,0.21,-0.16,0.0,u
1131.0,2999.0,2948.0,3494.0,4095.0,4095.0,2954.0,2505.0,-0.06,9.57,7.15,0.01,-0.03,-0.16,0.0,u
1119.0,3006.0,2960.0,3487.0,4095.0,4095.0,2946.0,2507.0,-0.04,9.56,7.0,0.09,-0.01,-0.15,0.0,u
1135.0,2987.0,2950.0,3487.0,4095.0,4095.0,2949.0,2505.0,0.16,9.52,6.63,0.05,-0.05,-0.17,0.0,u
1118.0,3002.0,2957.0,3500.0,4095.0,4095.0,2954.0,2512.0,-0.4,9.48,6.97,-0.02,-0.08,-0.22,0.0,u
1121.0,2995.0,2935.0,3500.0,4095.0,4095.0,2944.0,2503.0,-0.2,9.56,6.82,0.01,-0.01,-0.15,0.0,u
1123.0,2992.0,2946.0,3497.0,4095.0,4095.0,2955.0,2506.0,0.06,9.51,7.14,-0.07,-0.07,-0.21,0.0,u
1117.0,2989.0,2944.0,3502.0,4095.0,4095.0,2946.0,2503.0,-0.34,9.54,7.47,0.08,-0.06,-0.17,0.0,u
1134.0,2993.0,2957.0,3509.0,4095.0,4095.0,2960.0,2512.0,-0.29,9.63,6.78,0.06,-0.0,-0.16,0.0,u
1123.0,2992.0,2960.0,3515.0,4095.0,4095.0,2946.0,2511.0,-0.08,9.53,6.87,-0.01,0.01,-0.12,0.0,u
1121.0,2978.0,2939.0,3503.0,4095.0,4095.0,2951.0,2509.0,-0.12,9.57,6.95,0.01,-0.1,-0.16,0.0,u
1129.0,2999.0,2954.0,3513.0,4095.0,4095.0,2958.0,2515.0,-0.0,9.39,6.94,-0.07,-0.03,-0.17,0.0,u
1124.0,2986.0,2944.0,3510.0,4095.0,4095.0,2949.0,2503.0,-0.53,9.49,7.61,-0.03,-0.01,-0.18,0.0,u
1121.0,3009.0,2958.0,3511.0,4095.0,4095.0,2957.0,2513.0,-0.24,9.44,6.92,0.06,0.03,-0.13,0.0,u
1125.0,2994.0,2937.0,3499.0,4095.0,4095.0,2956.0,2512.0,-0.18,9.48,6.94,0.02,0.02,-0.12,0.0,u
1130.0,2991.0,2949.0,3504.0,4095.0,4095.0,2959.0,2513.0,-0.49,9.62,6.63,-0.06,0.37,-0.03,0.0,u
1118.0,2989.0,2946.0,3502.0,4095.0,4095.0,2959.0,2512.0,0.11,9.48,7.45,-0.16,-0.03,-0.12,0.0,u
1118.0,3002.0,2959.0,3506.0,4095.0,4095.0,2962.0,2519.0,-0.08,9.37,7.33,-0.01,-0.05,-0.16,0.0,u
1127.0,2993.0,2940.0,3169.0,4095.0,4095.0,2955.0,2511.0,-0.29,9.37,7.36,-0.08,-0.03,-0.15,0.0,u
1129.0,2999.0,2958.0,3262.0,4095.0,4095.0,2956.0,2512.0,-0.08,9.36,7.5,-0.06,0.04,-0.14,0.0,u
1124.0,2999.0,2949.0,3267.0,4095.0,4095.0,2958.0,2511.0,-0.11,9.4,7.55,-0.07,0.06,-0.17,0.0,u
1114.0,2982.0,2944.0,3317.0,4095.0,4095.0,2958.0,2507.0,-0.14,9.4,7.63,0.02,-0.08,-0.19,0.0,u
1122.0,2994.0,2960.0,3339.0,4095.0,4095.0,2960.0,2510.0,-0.16,9.3,7.58,0.01,0.02,-0.15,0.0,u
1107.0,2992.0,2946.0,3331.0,4095.0,4095.0,2961.0,2506.0,-0.25,9.3,7.67,0.01,0.02,-0.16,0.0,u
1120.0,3005.0,2958.0,3344.0,4095.0,4095.0,2960.0,2512.0,-0.25,9.29,7.86,0.05,-0.01,-0.17,0.0,u
1105.0,2992.0,2953.0,3340.0,4095.0,4095.0,2958.0,2506.0,-0.09,9.37,7.26,0.1,0.08,-0.13,0.0,u
1110.0,2991.0,2951.0,3344.0,4095.0,4095.0,2960.0,2510.0,-0.08,9.45,7.18,0.0,0.03,-0.16,0.0,u
1111.0,2993.0,2951.0,3344.0,4095.0,4095.0,2966.0,2512.0,0.17,9.21,7.53,-0.02,-0.12,-0.16,0.0,u
1104.0,2996.0,2935.0,3327.0,4095.0,4095.0,2971.0,2508.0,-0.41,9.34,8.02,-0.0,-0.1,-0.21,0.0,u
1110.0,2996.0,2945.0,3341.0,4095.0,4095.0,2979.0,2512.0,-0.14,9.3,7.47,0.09,0.02,-0.14,0.0,u
1110.0,2980.0,2937.0,3328.0,4095.0,4095.0,2973.0,2510.0,-0.13,9.48,7.23,0.02,-0.05,-0.12,0.0,u
1109.0,3007.0,2947.0,3339.0,4095.0,4095.0,2972.0,2511.0,-0.06,9.42,7.5,-0.0,0.07,-0.16,0.0,u
1116.0,2994.0,2935.0,3342.0,4095.0,4095.0,2973.0,2506.0,-0.04,9.33,7.38,0.01,-0.05,-0.15,0.0,u
1131.0,2992.0,2954.0,3349.0,4095.0,4095.0,2976.0,2512.0,-0.07,9.31,7.55,-0.05,-0.06,-0.19,0.0,u
1131.0,2992.0,2954.0,3338.0,4095.0,4095.0,2971.0,2504.0,-0.21,9.21,7.89,0.02,-0.02,-0.16,0.0,u
1118.0,2987.0,2957.0,3335.0,4095.0,4095.0,2979.0,2508.0,-0.2,9.38,7.44,0.03,0.05,-0.16,0.0,u
1120.0,2990.0,2943.0,3333.0,4095.0,4095.0,2968.0,2502.0,0.14,9.31,7.5,0.03,0.02,-0.18,0.0,u
1104.0,2999.0,2951.0,3338.0,4095.0,4095.0,2977.0,2511.0,-0.02,9.23,7.21,-0.01,-0.09,-0.24,0.0,u
1119.0,2995.0,2955.0,3343.0,4095.0,4095.0,2969.0,2512.0,-0.46,9.25,7.84,-0.06,-0.12,-0.25,0.0,u
1106.0,2987.0,2955.0,3341.0,4095.0,4095.0,2967.0,2509.0,-0.4,9.23,7.74,0.01,-0.06,-0.17,0.0,u
1117.0,3007.0,2957.0,3344.0,4095.0,4095.0,2976.0,2512.0,-0.17,9.21,7.5,-0.02,-0.01,-0.11,0.0,u
1105.0,2985.0,2951.0,3350.0,4095.0,4095.0,2971.0,2502.0,-0.09,9.3,7.52,0.05,-0.02,-0.14,0.0,u
1108.0,2991.0,2960.0,3365.0,4095.0,4095.0,2974.0,2512.0,-0.11,9.22,7.3,0.01,0.06,-0.11,0.0,u
1114.0,2994.0,2944.0,3354.0,4095.0,4095.0,2959.0,2509.0,-0.47,9.4,7.98,-0.06,-0.01,-0.18,0.0,u
1117.0,2992.0,2947.0,3364.0,4095.0,4095.0,2977.0,2512.0,-0.33,9.56,7.85,0.03,0.14,-0.1,0.0,u
1101.0,2989.0,2948.0,3361.0,4095.0,4095.0,2973.0,2510.0,0.18,9.09,7.37,0.12,0.18,-0.02,0.0,u
1104.0,3008.0,2953.0,3358.0,4095.0,4095.0,2968.0,2512.0,0.1,9.39,7.26,0.01,-0.1,-0.27,0.0,u
1120.0,3003.0,2960.0,3362.0,4095.0,4095.0,2973.0,2515.0,-0.1,9.1,7.66,-0.04,-0.21,-0.28,0.0,u
1103.0,2993.0,2950.0,3361.0,4095.0,4095.0,2976.0,2515.0,-1.05,9.32,8.27,0.01,-0.03,-0.24,0.0,u
1109.0,3001.0,2960.0,3363.0,4095.0,4095.0,2981.0,2518.0,-0.37,9.35,7.35,0.1,0.05,-0.05,0.0,u
1101.0,2994.0,2948.0,3359.0,4095.0,4095.0,2977.0,2510.0,0.06,9.33,7.08,0.02,0.1,-0.05,0.0,u
1115.0,3001.0,2960.0,3365.0,4095.0,4095.0,2975.0,2519.0,0.05,9.33,7.41,-0.06,-0.05,-0.18,0.0,u
1110.0,2987.0,2941.0,3363.0,4095.0,4095.0,2979.0,2522.0,-0.36,9.33,7.89,-0.01,-0.11,-0.2,0.0,u
1103.0,2991.0,2954.0,3372.0,4095.0,4095.0,2982.0,2513.0,-0.23,9.28,7.63,0.02,-0.15,-0.17,0.0,u
1121.0,2987.0,2939.0,3359.0,4095.0,4095.0,2967.0,2513.0,-0.42,9.3,7.9,0.04,-0.04,-0.13,0.0,u
1106.0,2992.0,2944.0,3371.0,4095.0,4095.0,2976.0,2518.0,-0.08,9.5,7.12,0.02,0.15,-0.06,0.0,u
1104.0,2992.0,2956.0,3365.0,4095.0,4095.0,2970.0,2514.0,0.24,9.26,7.56,-0.05,0.07,-0.15,0.0,u
1115.0,2993.0,2944.0,3376.0,4095.0,4095.0,2970.0,2512.0,-0.11,9.12,7.88,-0.01,-0.14,-0.22,0.0,u
1120.0,2998.0,2959.0,3378.0,4095.0,4095.0,2977.0,2523.0,-0.69,9.28,7.86,0.03,-0.02,-0.18,0.0,u
1110.0,2983.0,2950.0,3365.0,4095.0,4095.0,2976.0,2518.0,-0.14,9.22,7.82,0.05,0.01,-0.13,0.0,u
1111.0,2995.0,2960.0,3377.0,4095.0,4095.0,2979.0,2524.0,0.1,9.29,7.5,0.07,-0.08,-0.14,0.0,u
1109.0,2991.0,2953.0,3367.0,4095.0,4095.0,2962.0,2529.0,-0.07,9.32,7.65,-0.04,-0.03,-0.18,0.0,u
1104.0,2997.0,2953.0,3380.0,4095.0,4095.0,2977.0,2521.0,-0.35,9.22,7.92,0.01,-0.06,-0.2,0.0,u
1119.0,2992.0,2947.0,3376.0,4095.0,4095.0,2974.0,2518.0,-0.42,9.3,7.69,0.1,-0.06,-0.15,0.0,u
1104.0,2998.0,2960.0,3383.0,4095.0,4095.0,2974.0,2525.0,-0.12,9.35,7.57,0.1,0.05,-0.15,0.0,u
1104.0,2991.0,2959.0,3553.0,4095.0,4095.0,2973.0,2521.0,0.03,9.25,7.52,0.21,0.26,-0.33,0.0,u
1112.0,3011.0,2959.0,3581.0,4095.0,4095.0,2970.0,2535.0,-0.37,9.48,7.07,0.23,0.26,-0.34,0.0,u
1205.0,2996.0,2956.0,3569.0,4095.0,4095.0,2918.0,2505.0,-0.62,9.59,6.63,0.36,-0.23,-0.51,0.0,u
1393.0,2978.0,2945.0,3546.0,4095.0,4095.0,2902.0,2478.0,-1.13,9.58,6.31,0.29,-0.19,-0.47,0.0,u
1468.0,3001.0,2945.0,3577.0,4095.0,4095.0,2913.0,2485.0,-1.26,9.53,6.45,0.02,-0.0,-0.14,0.0,u
1487.0,2996.0,2943.0,3568.0,4095.0,4095.0,2915.0,2485.0,-1.06,9.4,6.65,-0.03,0.14,-0.05,0.0,u
1493.0,2990.0,2957.0,3583.0,4095.0,4095.0,2922.0,2491.0,-1.07,9.61,6.72,0.11,0.05,-0.08,0.0,u
1495.0,2997.0,2949.0,3519.0,4095.0,4095.0,2910.0,2478.0,-0.98,9.39,6.53,0.23,0.16,-0.01,0.0,u
1523.0,2989.0,2948.0,3551.0,4095.0,4095.0,2913.0,2491.0,-0.69,9.7,5.61,0.23,-0.01,-0.02,0.0,u
1552.0,2989.0,2937.0,3568.0,4095.0,4095.0,2913.0,2496.0,-0.49,9.91,5.22,0.06,0.0,-0.07,0.0,u
1527.0,2994.0,2960.0,3571.0,4095.0,4095.0,2929.0,2509.0,-0.42,9.77,6.07,-0.0,0.03,-0.09,0.0,u
1511.0,2981.0,2942.0,3573.0,4095.0,4095.0,2928.0,2499.0,-0.56,9.82,5.95,0.12,-0.02,-0.13,0.0,u
1501.0,2993.0,2947.0,3583.0,4095.0,4095.0,2938.0,2510.0,-0.36,9.78,5.43,0.16,-0.01,-0.13,0.0,u
1490.0,2997.0,2942.0,3583.0,4095.0,4095.0,2931.0,2507.0,-0.4,9.79,5.38,0.09,-0.09,-0.2,0.0,u
1507.0,2995.0,2949.0,3609.0,4095.0,4095.0,2933.0,2507.0,-0.69,9.78,5.27,0.05,-0.22,-0.18,0.0,u
1485.0,2995.0,2943.0,3603.0,4095.0,4095.0,2938.0,2518.0,-0.46,9.73,5.79,-0.13,-0.08,-0.11,0.0,u
1455.0,2990.0,2935.0,3629.0,4095.0,4095.0,2937.0,2527.0,-0.53,9.76,5.41,-0.05,0.04,-0.14,0.0,u
1441.0,2997.0,2946.0,3635.0,4095.0,4095.0,2939.0,2527.0,-0.69,9.71,6.15,0.04,0.01,-0.1,0.0,u
1447.0,2992.0,2945.0,3633.0,4095.0,4095.0,2941.0,2529.0,-0.61,9.88,4.98,0.11,0.03,-0.15,0.0,u
1469.0,2990.0,2960.0,3662.0,4095.0,4095.0,2945.0,2535.0,-0.5,9.85,5.36,0.02,0.03,-0.12,0.0,u
1465.0,2986.0,2951.0,3642.0,4095.0,4095.0,2947.0,2535.0,-0.54,9.79,5.39,0.03,0.04,-0.13,0.0,u
1473.0,2999.0,2941.0,3648.0,4095.0,4095.0,2944.0,2531.0,-0.26,9.84,5.28,0.04,0.05,-0.1,0.0,u
1485.0,3002.0,2944.0,3653.0,4095.0,4095.0,2951.0,2542.0,-0.27,9.79,5.25,0.03,0.0,-0.11,0.0,u
1481.0,2982.0,2957.0,3643.0,4095.0,4095.0,2946.0,2535.0,-0.46,9.87,5.29,0.01,0.0,-0.11,0.0,u
1476.0,2997.0,2959.0,3668.0,4095.0,4095.0,2949.0,2537.0,-0.3,9.81,5.32,0.07,0.05,-0.12,0.0,u
1495.0,2979.0,2937.0,3649.0,4095.0,4095.0,2942.0,2543.0,-0.33,9.79,5.33,0.06,-0.04,-0.13,0.0,u
1488.0,2997.0,2951.0,3665.0,4095.0,4095.0,2944.0,2541.0,-0.36,9.85,5.2,0.04,-0.05,-0.1,0.0,u
1491.0,2995.0,2951.0,3657.0,4095.0,4095.0,2945.0,2539.0,-0.32,9.89,5.03,0.05,0.01,-0.11,0.0,u
1483.0,2992.0,2960.0,3667.0,4095.0,4095.0,2944.0,2545.0,-0.1,9.87,4.93,0.01,-0.04,-0.13,0.0,u
1475.0,2990.0,2941.0,3652.0,4095.0,4095.0,2947.0,2542.0,-0.16,9.82,5.11,-0.01,0.12,-0.12,0.0,u
1478.0,2991.0,2954.0,3655.0,4095.0,4095.0,2955.0,2545.0,-0.08,9.84,5.11,-0.02,0.02,-0.13,0.0,u
1469.0,2996.0,2941.0,3657.0,4095.0,4095.0,2945.0,2539.0,-0.13,9.86,5.22,-0.01,-0.07,-0.13,0.0,u
1477.0,3008.0,2958.0,3676.0,4095.0,4095.0,2943.0,2542.0,-0.3,9.86,5.39,-0.02,0.01,-0.09,0.0,u
1467.0,2995.0,2960.0,3669.0,4095.0,4095.0,2945.0,2543.0,-0.09,9.81,5.42,0.03,0.12,-0.08,0.0,u
1459.0,2999.0,2953.0,3664.0,4095.0,4095.0,2945.0,2543.0,0.06,9.75,5.3,0.06,0.2,0.04,0.0,u
1456.0,2991.0,2948.0,3666.0,4095.0,4095.0,2953.0,2544.0,0.23,9.88,5.05,0.03,0.16,-0.04,0.0,u
1438.0,2981.0,2947.0,3664.0,4095.0,4095.0,2951.0,2544.0,0.65,9.81,5.37,-0.07,-0.03,-0.13,0.0,u
1431.0,3008.0,2951.0,3675.0,4095.0,4095.0,2959.0,2546.0,0.56,9.9,5.21,-0.04,-0.07,-0.15,0.0,u
1412.0,2991.0,2957.0,3665.0,4095.0,4095.0,2951.0,2545.0,0.51,9.86,5.37,-0.08,0.02,-0.15,0.0,u
1399.0,2992.0,2944.0,3683.0,4095.0,4095.0,2955.0,2546.0,0.75,9.74,5.55,-0.0,-0.01,-0.15,0.0,u
1397.0,3003.0,2946.0,3679.0,4095.0,4095.0,2957.0,2547.0,0.73,9.79,5.37,-0.02,-0.12,-0.16,0.0,u
1395.0,2990.0,2942.0,3677.0,4095.0,4095.0,2954.0,2543.0,0.35,9.8,5.63,-0.02,-0.03,-0.16,0.0,u
1409.0,3001.0,2953.0,3681.0,4095.0,4095.0,2962.0,2546.0,0.58,9.88,5.48,-0.03,0.05,-0.16,0.0,u
1394.0,2983.0,2942.0,3675.0,4095.0,4095.0,2951.0,2543.0,0.5,9.89,5.47,-0.02,-0.06,-0.15,0.0,u
1392.0,2992.0,2942.0,3682.0,4095.0,4095.0,2959.0,2546.0,0.63,9.77,5.67,-0.05,0.03,-0.08,0.0,u
1391.0,2993.0,2951.0,3665.0,4095.0,4095.0,2953.0,2543.0,0.9,9.9,5.52,-0.08,-0.08,-0.22,0.0,u
1382.0,3007.0,2960.0,3664.0,4095.0,4095.0,2965.0,2548.0,0.7,9.66,6.0,-0.03,-0.14,-0.17,0.0,u
1371.0,2992.0,2956.0,3655.0,4095.0,4095.0,2955.0,2544.0,0.33,9.82,6.0,-0.03,0.06,-0.19,0.0,u
1360.0,2997.0,2965.0,3668.0,4095.0,4095.0,2959.0,2543.0,0.47,9.77,5.76,-0.03,-0.0,-0.15,0.0,u
1345.0,2997.0,2944.0,3649.0,4095.0,4095.0,2960.0,2547.0,0.32,9.85,6.11,-0.06,0.09,-0.15,0.0,u
1348.0,3009.0,2960.0,3648.0,4095.0,4095.0,2961.0,2550.0,0.49,9.72,6.02,0.01,0.0,-0.17,0.0,u
1315.0,2998.0,2944.0,3658.0,4095.0,4095.0,2947.0,2544.0,0.36,9.82,6.01,0.02,0.08,-0.13,0.0,u
1310.0,2998.0,2947.0,3654.0,4095.0,4095.0,2954.0,2547.0,0.6,9.69,6.08,0.04,-0.0,-0.14,0.0,u
1310.0,2997.0,2960.0,3665.0,4095.0,4095.0,2965.0,2550.0,0.54,9.74,6.03,0.09,-0.06,-0.16,0.0,u
1311.0,2999.0,2949.0,3651.0,4095.0,4095.0,2960.0,2548.0,0.33,9.75,6.16,0.16,-0.02,-0.18,0.0,u
1311.0,3005.0,2951.0,3657.0,4095.0,4095.0,2967.0,2553.0,0.4,9.85,5.15,0.14,0.01,-0.18,0.0,u
1331.0,3003.0,2953.0,3662.0,4095.0,4095.0,2961.0,2553.0,0.38,9.8,5.45,-0.03,-0.06,-0.2,0.0,u
1325.0,3003.0,2940.0,3664.0,4095.0,4095.0,2970.0,2558.0,0.18,9.81,5.64,-0.03,0.01,-0.15,0.0,u
1330.0,3003.0,2942.0,3657.0,4095.0,4095.0,2969.0,2556.0,0.31,9.84,5.61,0.01,-0.06,-0.16,0.0,u
1331.0,2999.0,2945.0,3667.0,4095.0,4095.0,2967.0,2559.0,0.38,9.89,5.43,-0.0,0.08,-0.12,0.0,u
1325.0,3004.0,2951.0,3671.0,4095.0,4095.0,2969.0,2559.0,0.48,9.9,5.54,0.02,-0.05,-0.16,0.0,u
1313.0,2998.0,2959.0,3668.0,4095.0,4095.0,2962.0,2551.0,0.32,9.83,5.52,0.03,-0.08,-0.17,0.0,u
1309.0,2991.0,2943.0,3675.0,4095.0,4095.0,2966.0,2551.0,0.39,9.78,5.44,0.04,-0.01,-0.15,0.0,u
1303.0,2994.0,2939.0,3665.0,4095.0,4095.0,2963.0,2551.0,0.51,9.77,5.54,-0.0,-0.05,-0.13,0.0,u
1305.0,2991.0,2964.0,3670.0,4095.0,4095.0,2969.0,2559.0,0.48,9.81,5.55,0.01,-0.07,-0.15,0.0,u
1305.0,2982.0,2957.0,3677.0,4095.0,4095.0,2960.0,2556.0,0.44,9.78,5.57,0.0,-0.04,-0.14,0.0,u
1267.0,2995.0,2959.0,3671.0,4095.0,4095.0,2967.0,2557.0,0.44,9.84,5.8,0.0,0.04,-0.11,0.0,u
1264.0,3002.0,2944.0,3661.0,4095.0,4095.0,2962.0,2558.0,0.67,9.73,5.53,0.05,-0.02,-0.11,0.0,u
1264.0,2993.0,2948.0,3675.0,4095.0,4095.0,2966.0,2552.0,0.73,9.91,5.42,0.0,-0.04,-0.14,0.0,u
1266.0,3000.0,2945.0,3662.0,4095.0,4095.0,2960.0,2551.0,0.63,9.84,5.33,0.02,-0.05,-0.18,0.0,u
1264.0,2990.0,2949.0,3683.0,4095.0,4095.0,2964.0,2559.0,0.39,9.75,5.61,-0.0,-0.13,-0.19,0.0,u
1257.0,2993.0,2941.0,3669.0,4095.0,4095.0,2969.0,2559.0,0.47,9.83,5.56,-0.01,0.01,-0.13,0.0,u
1266.0,2992.0,2945.0,3671.0,4095.0,4095.0,2962.0,2555.0,0.51,9.86,5.56,-0.01,0.02,-0.16,0.0,u
1264.0,3002.0,2962.0,3679.0,4095.0,4095.0,2971.0,2559.0,0.53,9.87,5.5,0.01,-0.04,-0.13,0.0,u
1267.0,3004.0,2955.0,3675.0,4095.0,4095.0,2967.0,2557.0,0.64,9.84,5.57,-0.01,-0.06,-0.13,0.0,u
1271.0,3002.0,2950.0,3681.0,4095.0,4095.0,2971.0,2557.0,0.42,9.81,5.59,0.04,0.03,-0.16,0.0,u
1262.0,2995.0,2961.0,3697.0,4095.0,4095.0,2967.0,2559.0,0.44,9.75,5.59,-0.03,-0.0,-0.12,0.0,u
1260.0,2994.0,2955.0,3679.0,4095.0,4095.0,2969.0,2557.0,0.5,9.81,5.75,0.0,-0.01,-0.17,0.0,u
1261.0,3001.0,2955.0,3691.0,4095.0,4095.0,2974.0,2559.0,0.55,9.82,5.67,-0.03,0.02,-0.16,0.0,u
1259.0,2999.0,2941.0,3666.0,4095.0,4095.0,2970.0,2559.0,0.55,9.77,5.72,0.01,-0.04,-0.15,0.0,u
1259.0,2992.0,2954.0,3683.0,4095.0,4095.0,2971.0,2557.0,0.61,9.76,5.71,-0.0,-0.08,-0.15,0.0,u
1258.0,2992.0,2951.0,3683.0,4095.0,4095.0,2979.0,2559.0,0.37,9.81,5.77,-0.0,0.01,-0.15,0.0,u
1263.0,2992.0,2945.0,3685.0,4095.0,4095.0,2970.0,2556.0,0.5,9.86,5.62,-0.03,-0.05,-0.16,0.0,u
1265.0,2992.0,2950.0,3691.0,4095.0,4095.0,2974.0,2559.0,0.52,9.79,5.87,0.02,0.02,-0.14,0.0,u
1247.0,2989.0,2946.0,3686.0,4095.0,4095.0,2965.0,2558.0,0.62,9.77,5.54,0.04,0.0,-0.15,0.0,u
1255.0,3009.0,2957.0,3694.0,4095.0,4095.0,2982.0,2559.0,0.58,9.79,5.74,-0.03,0.03,-0.16,0.0,u
1246.0,2992.0,2958.0,3685.0,4095.0,4095.0,2973.0,2559.0,0.19,9.79,5.75,-0.1,0.22,-0.16,0.0,u
1249.0,2997.0,2953.0,3687.0,4095.0,4095.0,2974.0,2559.0,0.78,9.73,6.03,-0.03,-0.02,-0.2,0.0,u
1245.0,3000.0,2949.0,3691.0,4095.0,4095.0,2974.0,2559.0,0.45,9.76,5.97,-0.06,-0.25,-0.25,0.0,u
1248.0,2997.0,2960.0,3693.0,4095.0,4095.0,2974.0,2559.0,0.18,9.76,6.17,-0.07,-0.13,-0.18,0.0,u
1245.0,2991.0,2958.0,3691.0,4095.0,4095.0,2960.0,2555.0,0.24,9.68,6.2,-0.06,0.04,-0.17,0.0,u
1231.0,2989.0,2960.0,3696.0,4095.0,4095.0,2967.0,2559.0,0.27,9.67,6.09,-0.02,0.07,-0.19,0.0,u
1239.0,2992.0,2960.0,3670.0,4095.0,4095.0,2966.0,2559.0,0.27,9.68,6.3,-0.02,-0.05,-0.21,0.0,u
1231.0,2998.0,2953.0,3658.0,4095.0,4095.0,2971.0,2559.0,0.4,9.73,6.06,-0.05,-0.15,-0.26,0.0,u
1231.0,2991.0,2950.0,3693.0,4095.0,4095.0,2960.0,2559.0,-0.04,9.62,6.41,-0.07,-0.13,-0.28,0.0,u
1222.0,2987.0,2944.0,3687.0,4095.0,4095.0,2961.0,2559.0,-0.09,9.56,6.56,-0.05,-0.15,-0.25,0.0,u
1225.0,2983.0,2939.0,3693.0,4095.0,4095.0,2961.0,2559.0,-0.16,9.81,6.27,-0.03,0.17,-0.15,0.0,u
1227.0,2993.0,2959.0,3702.0,4095.0,4095.0,2959.0,2559.0,-0.16,9.6,6.62,-0.01,0.09,-0.13,0.0,u
1210.0,2999.0,2946.0,3696.0,4095.0,4095.0,2950.0,2559.0,-0.56,9.29,6.68,0.02,0.02,-0.05,0.0,u
1203.0,3007.0,2956.0,3706.0,4095.0,4095.0,2958.0,2559.0,-0.21,9.65,6.55,0.05,-0.1,-0.23,0.0,u
1206.0,3002.0,2943.0,3690.0,4095.0,4095.0,2954.0,2581.0,-0.46,9.64,6.38,0.02,-0.03,-0.18,0.0,u
1215.0,2991.0,2942.0,3695.0,4095.0,4095.0,2953.0,2559.0,-0.25,9.6,6.44,-0.01,0.02,-0.13,0.0,u
1211.0,2996.0,2955.0,3685.0,4095.0,4095.0,2958.0,2583.0,-0.11,9.64,6.6,-0.01,0.02,-0.17,0.0,u
1203.0,2992.0,2945.0,3691.0,4095.0,4095.0,2951.0,2559.0,-0.2,9.68,6.63,0.03,-0.0,-0.16,0.0,u
1218.0,2995.0,2953.0,3699.0,4095.0,4095.0,2960.0,2579.0,-0.17,9.7,6.34,0.04,-0.1,-0.2,0.0,u
1206.0,2993.0,2949.0,3683.0,4095.0,4095.0,2958.0,2580.0,-0.24,9.66,6.38,-0.0,-0.12,-0.19,0.0,u
1216.0,3006.0,2945.0,3696.0,4095.0,4095.0,2959.0,2581.0,-0.3,9.61,6.63,0.01,-0.07,-0.19,0.0,u
1217.0,2981.0,2946.0,3689.0,4095.0,4095.0,2955.0,2559.0,-0.24,9.63,6.57,0.02,-0.13,-0.2,0.0,u
1227.0,3008.0,2948.0,3696.0,4095.0,4095.0,2956.0,2579.0,-0.44,9.58,6.41,0.06,-0.12,-0.21,0.0,u
1205.0,2987.0,2941.0,3686.0,4095.0,4095.0,2956.0,2559.0,-0.45,9.64,6.48,-0.0,-0.04,-0.16,0.0,u
1209.0,2992.0,2945.0,3698.0,4095.0,4095.0,2960.0,2581.0,-0.44,9.73,6.56,-0.01,-0.03,-0.15,0.0,u
1200.0,2993.0,2944.0,3696.0,4095.0,4095.0,2959.0,2559.0,-0.18,9.58,6.63,0.02,-0.11,-0.19,0.0,u
1199.0,2999.0,2951.0,3711.0,4095.0,4095.0,2961.0,2581.0,-0.38,9.59,6.5,0.01,-0.1,-0.2,0.0,u
1206.0,2992.0,2959.0,3715.0,4095.0,4095.0,2955.0,2559.0,-0.6,9.57,6.63,0.0,-0.0,-0.19,0.0,u
1209.0,2993.0,2952.0,3697.0,4095.0,4095.0,2954.0,2579.0,-0.67,9.6,6.55,0.02,0.06,-0.15,0.0,u
1199.0,2997.0,2960.0,3703.0,4095.0,4095.0,2960.0,2585.0,-0.38,9.58,6.64,-0.02,0.12,-0.09,0.0,u
1198.0,3008.0,2955.0,3714.0,4095.0,4095.0,2962.0,2579.0,-0.44,9.53,6.63,0.01,-0.01,-0.15,0.0,u
1200.0,2987.0,2958.0,3706.0,4095.0,4095.0,2954.0,2559.0,-0.41,9.6,6.54,-0.0,-0.13,-0.18,0.0,u
1205.0,2999.0,2953.0,3713.0,4095.0,4095.0,2961.0,2559.0,-0.5,9.58,6.64,-0.03,-0.02,-0.17,0.0,u
1203.0,2981.0,2947.0,3711.0,4095.0,4095.0,2967.0,2582.0,-0.48,9.63,6.69,0.01,-0.04,-0.19,0.0,u
1198.0,2995.0,2957.0,3721.0,4095.0,4095.0,2969.0,2559.0,-0.61,9.52,6.73,-0.01,-0.08,-0.18,0.0,u
1203.0,2992.0,2944.0,3715.0,4095.0,4095.0,2972.0,2580.0,-0.64,9.57,6.67,-0.01,0.06,-0.15,0.0,u
1200.0,2990.0,2958.0,3707.0,4095.0,4095.0,2961.0,2559.0,-0.34,9.58,6.67,-0.02,0.01,-0.14,0.0,u
1198.0,2992.0,2946.0,3724.0,4095.0,4095.0,2974.0,2559.0,-0.36,9.49,6.82,-0.02,-0.08,-0.17,0.0,u
1201.0,2992.0,2952.0,3714.0,4095.0,4095.0,2961.0,2559.0,-0.5,9.59,6.7,-0.01,-0.03,-0.19,0.0,u
1183.0,3007.0,2957.0,3712.0,4095.0,4095.0,2967.0,2559.0,-0.53,9.54,6.92,-0.0,-0.07,-0.2,0.0,u
1191.0,2992.0,2955.0,3726.0,4095.0,4095.0,2967.0,2559.0,-0.58,9.54,6.77,-0.01,-0.1,-0.19,0.0,u
1196.0,3015.0,2960.0,3709.0,4095.0,4095.0,2971.0,2582.0,-0.64,9.5,6.98,-0.01,-0.07,-0.18,0.0,u
1193.0,2992.0,2951.0,3701.0,4095.0,4095.0,2969.0,2559.0,-0.63,9.48,6.95,0.01,0.02,-0.18,0.0,u
1198.0,3007.0,2947.0,3718.0,4095.0,4095.0,2977.0,2583.0,-0.67,9.45,6.86,0.01,-0.09,-0.23,0.0,u
1186.0,2992.0,2949.0,3712.0,4095.0,4095.0,2973.0,2559.0,-0.87,9.42,6.94,-0.04,-0.02,-0.13,0.0,u
1183.0,2989.0,2962.0,3728.0,4095.0,4095.0,2965.0,2559.0,-0.47,9.49,7.06,-0.04,0.02,-0.11,0.0,u
1188.0,2992.0,2944.0,3707.0,4095.0,4095.0,2970.0,2559.0,-0.45,9.51,7.12,-0.02,-0.06,-0.2,0.0,u
1186.0,2996.0,2947.0,3712.0,4095.0,4095.0,2965.0,2559.0,-0.7,9.45,7.12,-0.01,-0.13,-0.23,0.0,u
1179.0,2998.0,2960.0,3724.0,4095.0,4095.0,2970.0,2559.0,-0.63,9.44,7.03,-0.02,-0.08,-0.23,0.0,u
1187.0,2992.0,2943.0,3713.0,4095.0,4095.0,2960.0,2559.0,-0.86,9.43,7.21,-0.01,-0.08,-0.26,0.0,u
