hall_1,hall_2,hall_3,flex_t,flex_i,flex_m,flex_r,flex_p,accel_x,accel_y,accel_z,gyro_x,gyro_y,gyro_z,sign
950.0,2896.0,943.0,4095.0,4095.0,4095.0,2609.0,2559.0,1.4,10.05,5.24,0.16,-0.12,-0.15,u
945.0,2896.0,935.0,4095.0,4095.0,4095.0,2613.0,2559.0,1.1,9.87,4.89,-0.05,-0.08,-0.16,u
951.0,2893.0,944.0,4095.0,4095.0,4095.0,2609.0,2559.0,1.17,9.9,5.18,0.01,0.03,-0.15,u
944.0,2896.0,949.0,4095.0,4095.0,4095.0,2608.0,2559.0,0.88,9.77,5.05,0.05,-0.02,-0.19,u
942.0,2901.0,942.0,4095.0,4095.0,4095.0,2609.0,2559.0,0.12,10.12,4.88,-0.12,-0.45,-0.02,u
944.0,2905.0,935.0,4095.0,4095.0,4095.0,2613.0,2559.0,2.37,9.76,4.73,-0.13,-0.8,0.39,u
930.0,2897.0,944.0,4095.0,4095.0,4095.0,2608.0,2553.0,1.19,10.01,5.22,-0.17,0.25,0.47,u
934.0,2897.0,946.0,4095.0,4095.0,4095.0,2614.0,2559.0,2.66,9.42,5.27,0.01,0.39,0.31,u
939.0,2899.0,941.0,4095.0,4095.0,4095.0,2615.0,2559.0,2.11,9.13,5.23,0.04,0.12,-0.09,u
941.0,2903.0,942.0,4095.0,4095.0,4095.0,2615.0,2557.0,2.32,9.3,5.25,0.04,-0.08,-0.07,u
946.0,2896.0,953.0,4095.0,4095.0,4095.0,2618.0,2559.0,2.07,9.63,5.51,0.03,-0.01,-0.11,u
944.0,2896.0,944.0,4095.0,4095.0,4095.0,2622.0,2559.0,2.55,9.94,5.07,-0.01,0.02,-0.12,u
939.0,2897.0,950.0,4095.0,4095.0,4095.0,2621.0,2559.0,2.2,9.68,5.81,0.03,-0.06,-0.22,u
935.0,2896.0,948.0,4095.0,4095.0,4095.0,2621.0,2559.0,2.39,9.77,5.4,0.11,0.1,-0.25,u
944.0,2903.0,946.0,4095.0,4095.0,4095.0,2614.0,2559.0,2.16,9.65,5.23,0.15,0.02,-0.24,u
937.0,2896.0,951.0,4095.0,4095.0,4095.0,2621.0,2559.0,2.05,9.53,4.97,0.04,0.05,-0.21,u
941.0,2902.0,951.0,4095.0,4095.0,4095.0,2624.0,2559.0,1.94,9.61,5.15,0.02,-0.13,-0.26,u
941.0,2900.0,963.0,4095.0,4095.0,4095.0,2626.0,2559.0,1.79,9.69,5.21,0.03,-0.08,-0.2,u
941.0,2893.0,954.0,4095.0,4095.0,4095.0,2624.0,2559.0,2.22,9.85,5.03,0.05,-0.11,-0.12,u
941.0,2908.0,969.0,4095.0,4095.0,4095.0,2624.0,2559.0,2.05,9.61,5.52,0.01,-0.05,-0.18,u
942.0,2896.0,968.0,4095.0,4095.0,4095.0,2624.0,2559.0,2.22,9.45,5.45,0.23,-0.21,-0.32,u
930.0,2897.0,969.0,4095.0,4095.0,4095.0,2627.0,2559.0,1.67,10.33,4.53,0.14,-0.1,-0.29,u
931.0,2897.0,972.0,4095.0,4095.0,4095.0,2624.0,2559.0,1.75,9.4,4.76,0.02,-0.17,-0.22,u
939.0,2895.0,987.0,4095.0,4095.0,4095.0,2629.0,2559.0,1.62,9.81,4.44,-0.02,0.02,-0.14,u
930.0,2898.0,994.0,4095.0,4095.0,4095.0,2626.0,2559.0,1.7,9.52,4.89,0.02,-0.03,-0.12,u
940.0,2903.0,995.0,4095.0,4095.0,4095.0,2625.0,2559.0,1.73,9.87,5.19,0.09,0.02,-0.14,u
944.0,2896.0,996.0,4095.0,4095.0,4095.0,2634.0,2559.0,1.97,9.75,4.59,0.09,-0.01,-0.12,u
934.0,2895.0,994.0,4095.0,4095.0,4095.0,2628.0,2559.0,2.05,9.76,4.71,0.05,0.01,-0.15,u
944.0,2896.0,1039.0,4095.0,4095.0,4095.0,2631.0,2559.0,1.83,9.81,4.75,0.03,-0.01,-0.17,u
942.0,2901.0,1133.0,4027.0,4095.0,4095.0,2630.0,2559.0,2.09,9.51,4.8,-0.06,-0.15,-0.22,u
944.0,2899.0,1168.0,3953.0,4095.0,4095.0,2638.0,2559.0,1.71,9.75,5.22,0.19,-0.09,-0.36,u
934.0,2896.0,1173.0,3969.0,4095.0,4095.0,2640.0,2559.0,1.27,9.57,4.87,-0.03,-0.13,-0.26,u
939.0,2893.0,1181.0,3987.0,4095.0,4095.0,2643.0,2559.0,1.54,9.95,4.87,0.14,-0.02,-0.18,u
944.0,2896.0,1189.0,3984.0,4095.0,4095.0,2639.0,2559.0,1.63,9.5,4.25,0.07,0.01,-0.17,u
949.0,2907.0,1189.0,3994.0,4095.0,4095.0,2640.0,2559.0,1.65,9.78,4.19,-0.0,0.03,-0.19,u
940.0,2907.0,1187.0,3996.0,4095.0,4095.0,2641.0,2559.0,1.45,9.98,4.77,0.02,-0.08,-0.16,u
944.0,2898.0,1180.0,3984.0,4095.0,4095.0,2640.0,2559.0,1.71,9.67,4.85,0.03,-0.25,-0.2,u
937.0,2896.0,1182.0,4002.0,4095.0,4095.0,2641.0,2559.0,1.29,9.67,4.63,0.12,-0.44,-0.14,u
934.0,2897.0,1184.0,4002.0,4095.0,4095.0,2639.0,2559.0,1.92,9.67,4.4,0.04,-0.19,-0.15,u
932.0,2896.0,1192.0,4018.0,4095.0,4095.0,2640.0,2559.0,1.49,10.16,4.26,0.03,-0.36,-0.22,u
935.0,2901.0,1197.0,4046.0,4095.0,4095.0,2639.0,2559.0,1.96,10.04,4.08,-0.04,-0.4,-0.2,u
930.0,2897.0,1200.0,4058.0,4095.0,4095.0,2641.0,2559.0,1.07,10.63,4.1,-0.04,-0.73,-0.28,u
927.0,2898.0,1200.0,4067.0,4095.0,4095.0,2640.0,2559.0,2.62,9.17,3.78,0.15,-0.43,-0.44,u
940.0,2900.0,1197.0,4015.0,4095.0,4095.0,2640.0,2559.0,1.02,9.51,4.46,0.09,0.03,-0.42,u
932.0,2893.0,2590.0,3898.0,4095.0,4095.0,2623.0,2550.0,1.26,9.56,4.61,-0.08,-0.06,-0.28,u
914.0,2906.0,3053.0,3850.0,4095.0,4095.0,2602.0,2550.0,0.91,9.59,4.43,-0.21,-0.24,-0.17,u
915.0,2896.0,3057.0,3852.0,4095.0,4095.0,2559.0,2522.0,1.62,9.82,4.81,-0.06,-0.16,-0.07,u
910.0,2901.0,3071.0,3846.0,4095.0,4095.0,2535.0,2485.0,1.33,9.76,4.89,-0.12,0.04,-0.25,u
939.0,2901.0,3059.0,3823.0,4095.0,4095.0,2499.0,2447.0,1.14,10.28,4.73,0.02,0.02,-0.23,u
951.0,2902.0,3081.0,3807.0,4095.0,4095.0,2479.0,2401.0,1.41,9.89,4.79,0.02,0.09,-0.24,u
1221.0,2928.0,3104.0,3821.0,4095.0,4095.0,2474.0,2387.0,0.85,10.37,4.31,-0.01,0.21,-0.24,u
1134.0,2899.0,3120.0,3821.0,4095.0,4095.0,2461.0,2378.0,1.01,9.92,4.36,-0.16,0.03,-0.2,u
950.0,2897.0,3134.0,3841.0,4095.0,4095.0,2448.0,2374.0,0.68,9.72,4.85,-0.2,0.07,-0.03,u
931.0,2902.0,3152.0,3829.0,4095.0,4095.0,2446.0,2368.0,1.17,9.63,4.97,0.08,0.1,-0.13,u
930.0,2910.0,3149.0,3834.0,4095.0,4095.0,2448.0,2358.0,0.67,9.54,4.99,0.12,0.09,-0.22,u
937.0,2899.0,3242.0,3830.0,4095.0,4095.0,2448.0,2356.0,1.12,10.0,4.46,0.07,0.04,-0.09,u
945.0,2898.0,3259.0,3831.0,4095.0,4095.0,2455.0,2367.0,0.91,9.6,4.86,0.13,0.08,-0.09,u
1005.0,2889.0,3321.0,3846.0,4095.0,4095.0,2469.0,2375.0,1.68,9.93,4.46,0.12,0.0,-0.13,u
1162.0,2905.0,3408.0,3863.0,4095.0,4095.0,2481.0,2384.0,1.5,10.03,4.46,0.2,-0.02,-0.23,u
1418.0,2896.0,3417.0,3883.0,4095.0,4095.0,2497.0,2396.0,1.08,9.96,4.19,0.09,-0.04,-0.24,u
1662.0,2901.0,3407.0,3905.0,4095.0,4095.0,2487.0,2394.0,0.96,9.98,4.35,0.13,0.07,-0.28,u
1770.0,2905.0,3406.0,3891.0,4095.0,4095.0,2490.0,2384.0,1.06,9.72,4.37,0.07,0.01,-0.24,u
1842.0,2906.0,3273.0,3882.0,4095.0,4095.0,2493.0,2371.0,0.67,9.94,4.21,0.06,0.08,-0.24,u
2027.0,2890.0,3047.0,3888.0,4095.0,3985.0,2491.0,2352.0,0.95,9.79,4.1,0.13,-0.01,-0.19,u
2256.0,2906.0,3038.0,3871.0,4095.0,3888.0,2493.0,2337.0,0.97,9.87,4.1,0.04,0.06,-0.26,u
2247.0,2909.0,3031.0,3819.0,4095.0,3861.0,2495.0,2343.0,1.12,9.97,4.31,0.22,-0.07,-0.35,u
2288.0,2903.0,3033.0,3728.0,4095.0,3792.0,2495.0,2320.0,0.54,9.98,4.08,0.12,-0.04,-0.24,u
2279.0,2896.0,3037.0,3666.0,4095.0,3821.0,2498.0,2320.0,0.92,9.85,4.0,0.08,0.05,-0.32,u
2199.0,2928.0,3058.0,3633.0,4095.0,3934.0,2515.0,2330.0,0.45,9.78,4.2,0.08,-0.08,-0.25,u
2192.0,2904.0,3071.0,3615.0,4095.0,4089.0,2518.0,2338.0,0.52,10.05,3.67,-0.05,-0.05,-0.15,u
2209.0,2896.0,3086.0,3583.0,4095.0,4095.0,2517.0,2339.0,0.54,9.9,4.1,0.03,-0.02,-0.18,u
2226.0,2895.0,3090.0,3577.0,4095.0,4095.0,2513.0,2341.0,0.47,9.68,4.23,0.1,0.06,-0.14,u
2425.0,2906.0,3088.0,3602.0,4095.0,4095.0,2514.0,2342.0,0.74,10.07,3.75,0.06,-0.03,-0.13,u
2547.0,2903.0,3101.0,3605.0,4095.0,4095.0,2528.0,2346.0,0.67,9.67,3.93,0.01,-0.05,-0.15,u
2617.0,2908.0,3100.0,3604.0,4095.0,4095.0,2529.0,2352.0,0.68,9.86,3.93,0.01,0.02,-0.18,u
2874.0,2899.0,3097.0,3632.0,4095.0,4095.0,2532.0,2354.0,0.46,10.05,3.88,0.06,-0.02,-0.14,u
2994.0,2900.0,3454.0,3673.0,4095.0,4095.0,2537.0,2367.0,0.1,10.19,3.86,-0.24,0.03,-0.0,u
2827.0,2896.0,3663.0,3734.0,4095.0,4095.0,2538.0,2391.0,0.92,10.08,3.89,-0.28,-0.2,0.19,u
3001.0,2900.0,3665.0,3799.0,4095.0,4095.0,2535.0,2416.0,0.99,10.37,4.5,-0.35,0.07,0.07,u
2956.0,2909.0,3663.0,3825.0,4095.0,4095.0,2535.0,2427.0,1.25,9.53,4.73,-0.19,0.04,-0.02,u
3042.0,2897.0,3637.0,3855.0,4095.0,4095.0,2541.0,2430.0,1.27,8.53,4.97,0.05,-0.2,-0.24,u
3120.0,2896.0,3636.0,3858.0,4095.0,4095.0,2544.0,2427.0,0.79,9.56,4.85,0.3,0.02,-0.4,u
3195.0,2897.0,3647.0,3815.0,4095.0,4095.0,2544.0,2420.0,0.36,10.51,4.18,0.41,0.09,-0.35,u
3248.0,2899.0,3637.0,3824.0,4095.0,4095.0,2545.0,2416.0,0.82,9.91,3.85,0.09,0.0,-0.1,u
3321.0,2906.0,3623.0,3819.0,4095.0,4095.0,2545.0,2419.0,0.84,10.17,3.62,-0.0,0.05,-0.06,u
3333.0,2906.0,3665.0,3867.0,4095.0,4095.0,2547.0,2431.0,0.8,9.68,3.88,-0.24,0.15,0.07,u
3345.0,2893.0,3966.0,3869.0,4095.0,4095.0,2541.0,2445.0,0.94,10.06,4.42,-0.12,0.46,0.14,u
3882.0,2905.0,4064.0,3874.0,4095.0,4095.0,2545.0,2455.0,1.53,9.57,4.16,-0.07,0.19,0.14,u
4045.0,2901.0,4095.0,3937.0,4095.0,4095.0,2544.0,2469.0,1.0,9.7,4.8,-0.4,0.05,0.03,u
4046.0,2897.0,4095.0,3963.0,4095.0,4095.0,2547.0,2475.0,1.25,9.87,4.8,-0.02,0.06,-0.04,u
3997.0,2895.0,4095.0,3962.0,4095.0,4095.0,2546.0,2469.0,1.33,9.67,4.76,0.07,-0.04,-0.13,u
3301.0,2894.0,4095.0,3969.0,4095.0,4095.0,2546.0,2475.0,1.34,9.77,4.65,-0.02,-0.07,-0.16,u
1433.0,2895.0,4095.0,3953.0,4095.0,4095.0,2554.0,2479.0,1.43,9.7,4.48,0.12,-0.1,-0.16,u
1778.0,2894.0,4095.0,3950.0,4095.0,4095.0,2551.0,2477.0,1.22,9.83,4.46,-0.03,-0.02,-0.13,u
1899.0,2895.0,4095.0,3952.0,4095.0,4095.0,2547.0,2471.0,1.47,9.84,4.9,0.03,0.04,-0.14,u
2047.0,2896.0,4095.0,3952.0,4095.0,4095.0,2544.0,2469.0,1.63,9.66,4.98,0.11,0.08,-0.19,u
1803.0,2895.0,4095.0,3957.0,4095.0,4095.0,2550.0,2467.0,1.52,9.83,4.51,0.16,0.15,-0.26,u
1084.0,2900.0,4095.0,3973.0,4095.0,4095.0,2549.0,2474.0,0.85,9.71,4.61,0.16,0.06,-0.22,u
990.0,2907.0,4095.0,3984.0,4095.0,4095.0,2544.0,2473.0,1.18,10.24,3.91,0.05,0.3,-0.16,u
982.0,2906.0,4095.0,3971.0,4095.0,4095.0,2547.0,2469.0,1.0,10.09,4.79,0.13,0.31,-0.12,u
960.0,2900.0,4095.0,3964.0,4095.0,4095.0,2551.0,2475.0,1.35,10.71,5.0,0.1,0.43,-0.18,u
963.0,2896.0,4095.0,3955.0,4095.0,4095.0,2554.0,2476.0,1.2,10.65,3.85,-0.06,0.57,-0.28,u
964.0,2894.0,4095.0,3977.0,4095.0,4095.0,2553.0,2475.0,1.56,9.45,5.0,-0.29,0.72,-0.28,u
965.0,2896.0,4095.0,3977.0,4095.0,4095.0,2554.0,2470.0,1.04,9.62,5.66,-0.1,0.93,-0.28,u
960.0,2898.0,4095.0,3984.0,4095.0,4095.0,2548.0,2474.0,1.35,9.92,5.41,0.14,1.48,-0.24,u
965.0,2906.0,4095.0,3966.0,4095.0,4095.0,2557.0,2478.0,0.59,10.55,4.82,0.19,1.67,-0.03,u
946.0,2896.0,4095.0,3950.0,4095.0,4095.0,2555.0,2479.0,1.06,9.68,4.61,0.17,1.69,-0.15,u
964.0,2899.0,4095.0,3956.0,4095.0,4095.0,2550.0,2471.0,1.02,9.11,4.14,0.05,1.63,-0.3,u
957.0,2904.0,4095.0,3946.0,4095.0,4095.0,2551.0,2466.0,1.04,9.55,4.07,-0.02,1.31,-0.21,u
954.0,2893.0,4095.0,3955.0,4095.0,4095.0,2559.0,2478.0,0.85,9.65,4.68,-0.05,1.06,-0.2,u
951.0,2896.0,4095.0,3942.0,4095.0,4095.0,2558.0,2478.0,-0.16,9.99,5.04,0.19,0.82,-0.22,u
957.0,2896.0,4095.0,3939.0,4095.0,4095.0,2558.0,2478.0,0.96,10.05,4.75,0.17,0.77,-0.08,u
960.0,2902.0,4095.0,3931.0,4095.0,4095.0,2555.0,2474.0,0.36,10.19,4.52,0.21,1.14,-0.15,u
962.0,2900.0,4095.0,3945.0,4095.0,4095.0,2559.0,2475.0,1.03,9.96,4.24,0.16,0.72,-0.18,u
944.0,2893.0,4095.0,3961.0,4095.0,4095.0,2555.0,2475.0,1.2,10.21,4.05,0.19,0.63,-0.14,u
943.0,2903.0,4095.0,3954.0,4095.0,4095.0,2559.0,2477.0,0.69,9.73,4.69,0.17,0.59,-0.2,u
941.0,2895.0,4095.0,3951.0,4095.0,4095.0,2558.0,2478.0,0.71,10.0,4.11,0.18,0.44,-0.2,u
935.0,2898.0,4095.0,3958.0,4095.0,4095.0,2559.0,2479.0,0.31,9.9,4.17,0.15,0.4,-0.27,u
944.0,2910.0,4095.0,3952.0,4095.0,4095.0,2559.0,2477.0,0.6,9.57,4.25,0.15,0.26,-0.23,u
933.0,2898.0,4095.0,3952.0,4095.0,4095.0,2559.0,2477.0,0.94,9.77,3.84,0.14,0.23,-0.21,u
941.0,2909.0,4095.0,3968.0,4095.0,4095.0,2559.0,2480.0,0.49,9.75,4.01,0.11,0.26,-0.27,u
944.0,2901.0,4095.0,3972.0,4095.0,4095.0,2559.0,2478.0,-0.13,9.79,3.81,0.12,0.26,-0.26,u
944.0,2889.0,4095.0,3965.0,4095.0,4095.0,2559.0,2480.0,0.38,9.35,3.87,0.09,0.2,-0.22,u
934.0,2906.0,4095.0,3966.0,4095.0,4095.0,2559.0,2480.0,0.13,9.72,3.68,0.07,0.27,-0.15,u
941.0,2891.0,4095.0,3968.0,4095.0,4095.0,2559.0,2480.0,0.4,9.68,3.37,0.02,0.22,-0.11,u
942.0,2900.0,4095.0,3963.0,4095.0,4095.0,2559.0,2480.0,0.24,9.88,3.59,-0.01,0.2,-0.07,u
945.0,2897.0,4095.0,3963.0,4095.0,4095.0,2559.0,2480.0,0.43,9.87,3.74,-0.05,0.09,-0.06,u
944.0,2896.0,4095.0,3958.0,4095.0,4095.0,2559.0,2480.0,0.55,9.85,3.86,-0.02,0.09,-0.1,u
943.0,2891.0,4095.0,3958.0,4095.0,4095.0,2559.0,2480.0,-0.08,10.09,3.91,0.02,0.12,-0.12,u
939.0,2895.0,4095.0,3952.0,4095.0,4095.0,2559.0,2480.0,0.34,10.12,3.74,0.0,0.05,-0.08,u
949.0,2903.0,4095.0,3970.0,4095.0,4095.0,2559.0,2480.0,0.47,10.02,4.02,0.06,0.04,-0.13,u
942.0,2896.0,4095.0,3972.0,4095.0,4095.0,2559.0,2480.0,0.31,9.93,4.2,0.08,0.04,-0.15,u
945.0,2899.0,4095.0,3959.0,4095.0,4095.0,2559.0,2480.0,0.41,10.08,3.77,0.12,0.06,-0.15,u
941.0,2906.0,4095.0,3973.0,4095.0,4095.0,2559.0,2480.0,0.62,9.79,3.63,0.09,-0.01,-0.18,u
933.0,2896.0,4095.0,3966.0,4095.0,4095.0,2559.0,2482.0,0.46,9.83,3.75,0.02,0.05,-0.21,u
944.0,2898.0,4095.0,3955.0,4095.0,4095.0,2559.0,2482.0,0.28,9.84,3.88,0.07,0.01,-0.2,u
957.0,2896.0,4095.0,3967.0,4095.0,4095.0,2559.0,2482.0,0.33,9.9,3.56,0.04,0.03,-0.17,u
942.0,2902.0,4095.0,3955.0,4095.0,4095.0,2559.0,2481.0,0.35,9.82,3.57,0.03,-0.0,-0.16,u
944.0,2896.0,4095.0,3976.0,4095.0,4095.0,2559.0,2480.0,0.4,9.88,3.54,-0.0,0.0,-0.16,u
947.0,2896.0,4095.0,3967.0,4095.0,4095.0,2559.0,2481.0,0.45,9.87,3.65,-0.01,-0.04,-0.16,u
954.0,2895.0,4095.0,3959.0,4095.0,4095.0,2559.0,2482.0,0.28,9.83,3.81,0.01,-0.01,-0.18,u
950.0,2898.0,4095.0,3966.0,4095.0,4095.0,2559.0,2483.0,0.22,9.91,3.78,0.01,-0.03,-0.15,u
944.0,2906.0,4095.0,3971.0,4095.0,4095.0,2559.0,2481.0,0.2,9.87,3.84,0.05,0.02,-0.17,u
946.0,2906.0,4095.0,3967.0,4095.0,4095.0,2559.0,2483.0,0.18,9.96,3.66,0.01,0.04,-0.14,u
945.0,2900.0,4095.0,3977.0,4095.0,4095.0,2559.0,2484.0,0.11,9.94,3.8,0.03,0.03,-0.12,u
949.0,2898.0,4095.0,3971.0,4095.0,4095.0,2559.0,2481.0,0.4,9.88,3.78,0.03,0.0,-0.14,u
943.0,2907.0,4095.0,3984.0,4095.0,4095.0,2559.0,2483.0,0.36,9.91,3.66,0.04,0.03,-0.14,u
950.0,2911.0,4095.0,3983.0,4095.0,4095.0,2559.0,2483.0,0.46,9.82,3.59,0.05,0.02,-0.16,u
946.0,2896.0,4095.0,3963.0,4095.0,4095.0,2559.0,2483.0,0.4,9.96,3.56,0.05,-0.03,-0.15,u
947.0,2899.0,4095.0,3971.0,4095.0,4095.0,2559.0,2483.0,0.22,9.87,3.56,0.03,0.03,-0.14,u
944.0,2906.0,4095.0,3983.0,4095.0,4095.0,2559.0,2479.0,0.4,9.95,3.56,0.03,-0.0,-0.13,u
949.0,2910.0,4095.0,3975.0,4095.0,4095.0,2559.0,2481.0,0.33,10.0,3.6,-0.0,-0.04,-0.16,u
949.0,2899.0,4095.0,3981.0,4095.0,4095.0,2559.0,2481.0,0.26,9.93,3.64,-0.01,-0.02,-0.17,u
949.0,2897.0,4095.0,3975.0,4095.0,4095.0,2559.0,2482.0,0.21,9.94,3.64,0.0,-0.01,-0.14,u
955.0,2901.0,4095.0,3983.0,4095.0,4095.0,2559.0,2480.0,0.38,9.91,3.63,0.02,0.02,-0.14,u
947.0,2907.0,4095.0,3975.0,4095.0,4095.0,2559.0,2480.0,0.55,9.77,3.68,0.02,-0.01,-0.15,u
957.0,2910.0,4095.0,3957.0,4095.0,4095.0,2559.0,2481.0,0.53,9.85,3.66,0.02,-0.02,-0.17,u
957.0,2909.0,4095.0,3966.0,4095.0,4095.0,2559.0,2482.0,0.19,9.93,3.63,0.02,0.0,-0.16,u
955.0,2901.0,4095.0,3975.0,4095.0,4095.0,2559.0,2480.0,0.4,10.0,3.41,-0.01,-0.01,-0.15,u
951.0,2903.0,4095.0,3974.0,4095.0,4095.0,2559.0,2484.0,0.42,9.92,3.69,0.0,-0.0,-0.16,u
944.0,2908.0,4095.0,3969.0,4095.0,4095.0,2559.0,2486.0,0.28,10.02,3.65,0.01,-0.02,-0.17,u
955.0,2901.0,4095.0,3970.0,4095.0,4095.0,2559.0,2480.0,0.3,10.0,3.56,0.03,-0.01,-0.17,u
948.0,2899.0,4095.0,3986.0,4095.0,4095.0,2559.0,2482.0,0.17,10.0,3.7,0.02,-0.01,-0.17,u
953.0,2897.0,4095.0,3969.0,4095.0,4095.0,2559.0,2481.0,0.4,10.22,3.48,0.03,-0.04,-0.17,u
953.0,2897.0,4095.0,3972.0,4095.0,4095.0,2559.0,2485.0,0.27,10.25,3.63,0.03,-0.07,-0.2,u
944.0,2894.0,4095.0,3965.0,4095.0,4095.0,2559.0,2481.0,0.53,9.85,3.66,0.06,-0.07,-0.25,u
951.0,2899.0,4095.0,3984.0,4095.0,4095.0,2559.0,2481.0,0.13,9.3,3.76,0.06,-0.02,-0.24,u
951.0,2897.0,4095.0,3984.0,4095.0,4095.0,2559.0,2483.0,0.28,9.52,3.52,0.0,-0.06,-0.17,u
963.0,2896.0,4095.0,3973.0,4095.0,4095.0,2559.0,2487.0,0.17,9.71,3.7,-0.01,-0.02,-0.16,u
960.0,2895.0,4095.0,3960.0,4095.0,4095.0,2559.0,2487.0,0.26,9.67,3.72,-0.01,0.02,-0.17,u
949.0,2902.0,4095.0,3969.0,4095.0,4095.0,2559.0,2482.0,0.14,9.54,3.76,-0.0,0.01,-0.16,u
944.0,2897.0,4095.0,3962.0,4095.0,4095.0,2559.0,2482.0,0.15,9.67,3.62,-0.01,-0.01,-0.1,u
953.0,2897.0,4095.0,3979.0,4095.0,4095.0,2559.0,2484.0,0.12,9.87,3.74,0.01,-0.06,-0.1,u
955.0,2907.0,4095.0,3966.0,4095.0,4095.0,2559.0,2486.0,0.39,10.03,3.58,-0.05,-0.03,-0.14,u
951.0,2902.0,4095.0,3969.0,4095.0,4095.0,2559.0,2483.0,0.18,9.85,3.78,-0.03,-0.06,-0.16,u
953.0,2896.0,4095.0,3969.0,4095.0,4095.0,2559.0,2482.0,0.38,9.7,3.58,-0.02,-0.11,-0.18,u
954.0,2902.0,4095.0,3976.0,4095.0,4095.0,2559.0,2482.0,0.56,9.65,3.52,-0.02,-0.18,-0.17,u
949.0,2907.0,4095.0,3979.0,4095.0,4095.0,2559.0,2480.0,0.43,9.85,3.67,-0.07,-0.3,-0.15,u
955.0,2899.0,4095.0,3969.0,4095.0,4095.0,2559.0,2489.0,0.18,9.92,3.8,-0.1,-0.44,-0.13,u
955.0,2896.0,4095.0,3985.0,4095.0,4095.0,2559.0,2485.0,0.49,9.64,4.05,-0.15,-0.53,-0.16,u
960.0,2906.0,4095.0,3981.0,4095.0,4095.0,2559.0,2486.0,0.17,9.81,3.97,-0.18,-0.74,-0.12,u
959.0,2900.0,4095.0,3975.0,4095.0,4095.0,2559.0,2487.0,-0.6,9.47,4.04,-0.23,-0.45,0.17,u
957.0,2896.0,4095.0,3981.0,4095.0,4095.0,2559.0,2486.0,0.39,9.87,4.08,-0.28,-1.44,0.37,u
960.0,2909.0,4095.0,3971.0,4095.0,4095.0,2559.0,2487.0,1.11,9.78,4.97,-0.03,-0.51,-0.09,u
957.0,2902.0,4095.0,3975.0,4095.0,4095.0,2559.0,2482.0,1.8,10.27,4.22,-0.0,-0.47,-0.15,u
950.0,2896.0,4095.0,3967.0,4095.0,4095.0,2559.0,2493.0,0.52,10.57,4.11,0.0,-0.39,-0.15,u
971.0,2911.0,4095.0,3973.0,4095.0,4095.0,2559.0,2490.0,-0.28,10.82,4.35,-0.13,-1.39,-0.09,u
961.0,2911.0,4095.0,3962.0,4095.0,4095.0,2559.0,2492.0,2.8,10.13,4.1,-0.33,-3.21,-0.03,u
965.0,2896.0,4095.0,3959.0,4095.0,4095.0,2559.0,2485.0,-0.01,10.71,4.77,0.05,-1.15,-0.39,u
960.0,2906.0,4095.0,3972.0,4095.0,4095.0,2559.0,2487.0,0.79,10.05,4.19,-0.13,-2.18,-0.18,u
975.0,2903.0,4095.0,3962.0,4095.0,4095.0,2559.0,2491.0,0.42,9.95,4.21,0.05,-1.23,-0.51,u
962.0,2903.0,4095.0,3957.0,4095.0,4095.0,2559.0,2490.0,0.25,10.22,3.82,-0.17,-1.83,-0.41,u
967.0,2901.0,4095.0,3966.0,4095.0,4095.0,2559.0,2490.0,0.34,9.75,4.01,-0.03,-0.95,-0.45,u
973.0,2895.0,4095.0,3975.0,4095.0,4095.0,2559.0,2493.0,-0.84,10.03,4.09,-0.02,-0.98,-0.3,u
971.0,2898.0,4095.0,3955.0,4095.0,4095.0,2559.0,2493.0,0.03,9.62,4.28,-0.05,-1.2,-0.18,u
967.0,2912.0,4095.0,3965.0,4095.0,4095.0,2559.0,2491.0,-0.21,9.46,4.6,-0.13,-1.56,-0.13,u
970.0,2903.0,4095.0,3978.0,4095.0,4095.0,2559.0,2489.0,0.79,9.18,4.83,0.06,-0.87,-0.19,u
982.0,2907.0,4095.0,3967.0,4095.0,4095.0,2559.0,2498.0,0.21,9.32,4.61,0.23,-0.32,-0.14,u
999.0,2903.0,4095.0,3955.0,4095.0,4095.0,2559.0,2496.0,0.74,9.32,4.35,0.09,-0.57,-0.02,u
989.0,2896.0,4095.0,3955.0,4095.0,4095.0,2559.0,2494.0,0.38,9.49,4.53,0.31,-0.28,-0.13,u
981.0,2896.0,4095.0,3946.0,4095.0,4095.0,2559.0,2495.0,0.48,9.43,4.11,0.23,-0.65,-0.06,u
991.0,2896.0,4095.0,3952.0,4095.0,4095.0,2559.0,2498.0,0.67,9.51,3.75,0.25,-0.62,0.06,u
997.0,2901.0,4095.0,3954.0,4095.0,4095.0,2559.0,2493.0,1.2,9.41,3.38,0.18,-0.72,0.16,u
977.0,2903.0,4095.0,3945.0,4095.0,4095.0,2559.0,2490.0,1.41,9.9,3.12,-0.02,-0.33,0.18,u
986.0,2901.0,4095.0,3963.0,4095.0,4095.0,2559.0,2482.0,2.55,9.57,3.3,0.01,0.27,0.24,u
976.0,2896.0,4095.0,3952.0,4095.0,4095.0,2559.0,2487.0,0.17,10.45,4.53,-0.01,0.67,0.3,u
976.0,2911.0,4095.0,3949.0,4095.0,4095.0,2559.0,2491.0,1.99,9.82,3.81,-0.39,-0.81,0.33,u
973.0,2902.0,4095.0,3946.0,4095.0,4095.0,2559.0,2488.0,1.02,9.84,4.81,-0.29,-0.71,0.13,u
976.0,2907.0,4095.0,3958.0,4095.0,4095.0,2559.0,2482.0,2.8,9.79,3.69,-0.15,-0.75,0.15,u
971.0,2897.0,4095.0,3930.0,4095.0,4095.0,2559.0,2489.0,2.37,9.7,5.19,0.11,0.61,0.22,u
974.0,2911.0,4095.0,3942.0,4095.0,4095.0,2559.0,2496.0,2.25,10.05,4.87,0.11,0.02,0.01,u
977.0,2906.0,4095.0,3951.0,4095.0,4095.0,2559.0,2496.0,2.68,10.45,4.04,-0.31,-0.02,-0.11,u
973.0,2914.0,4095.0,3961.0,4095.0,4095.0,2559.0,2493.0,3.14,9.45,4.8,-0.31,-0.37,-0.18,u
977.0,2901.0,4095.0,3941.0,4095.0,4095.0,2559.0,2493.0,2.2,9.9,4.12,-0.22,-0.06,-0.35,u
976.0,2896.0,4095.0,3942.0,4095.0,4095.0,2559.0,2499.0,1.84,9.43,4.62,-0.16,-0.29,-0.14,u
976.0,2901.0,4095.0,3946.0,4095.0,4095.0,2559.0,2496.0,1.92,9.71,4.29,-0.07,-0.24,-0.25,u
976.0,2906.0,4095.0,3952.0,4095.0,4095.0,2559.0,2497.0,1.65,9.77,4.75,-0.08,-0.67,-0.28,u
975.0,2899.0,4095.0,3959.0,4095.0,4095.0,2559.0,2498.0,2.1,9.55,4.89,-0.08,-0.69,-0.37,u
974.0,2912.0,4095.0,3962.0,4095.0,4095.0,2559.0,2498.0,1.76,9.9,5.0,0.2,-1.18,-0.51,u
962.0,2901.0,4095.0,3976.0,4095.0,4095.0,2559.0,2499.0,2.07,10.06,4.09,0.15,-0.93,-0.39,u
971.0,2915.0,4095.0,3969.0,4095.0,4095.0,2559.0,2501.0,1.08,10.07,3.88,0.0,-0.59,-0.15,u
979.0,2903.0,4095.0,3965.0,4095.0,4095.0,2559.0,2505.0,2.34,9.64,3.69,-0.09,-0.51,-0.11,u
976.0,2903.0,4095.0,3979.0,4095.0,4095.0,2559.0,2503.0,1.54,9.69,4.38,-0.1,-0.16,-0.14,u
977.0,2897.0,4095.0,3977.0,4095.0,4095.0,2559.0,2509.0,2.12,9.75,4.25,-0.05,-0.25,-0.11,u
975.0,2897.0,4095.0,3962.0,4095.0,4095.0,2559.0,2507.0,1.83,9.85,4.35,-0.0,0.1,-0.16,u
976.0,2898.0,4095.0,3985.0,4095.0,4095.0,2559.0,2509.0,1.75,9.77,4.22,-0.07,-0.04,-0.16,u
