hall_1,hall_2,hall_3,flex_t,flex_i,flex_m,flex_r,flex_p,accel_x,accel_y,accel_z,gyro_x,gyro_y,gyro_z,hand,sign
1004.0,2973.0,3036.0,3357.0,4095.0,4095.0,3096.0,3393.0,-1.32,9.42,3.32,-0.15,-0.02,0.05,1.0,u
1043.0,2965.0,3024.0,3353.0,4095.0,4095.0,3100.0,3387.0,-1.13,9.42,3.48,-0.05,0.03,0.02,1.0,u
1124.0,2951.0,3030.0,3358.0,4095.0,4095.0,3093.0,3366.0,-1.25,9.46,3.38,-0.11,-0.01,-0.0,1.0,u
1219.0,2960.0,3035.0,3350.0,4095.0,4095.0,3085.0,3358.0,-1.29,9.4,3.36,-0.05,0.01,0.01,1.0,u
1271.0,2960.0,3027.0,3337.0,4095.0,4095.0,3090.0,3327.0,-1.22,9.43,3.43,-0.1,-0.02,0.0,1.0,u
1472.0,2967.0,3037.0,3315.0,4095.0,4095.0,3088.0,3374.0,-1.19,9.35,3.52,-0.06,0.02,0.01,1.0,u
1565.0,2962.0,3036.0,3322.0,4095.0,4095.0,3087.0,3376.0,-1.2,9.37,3.47,-0.05,-0.02,-0.02,1.0,u
1584.0,2953.0,3025.0,3301.0,4095.0,4095.0,3090.0,3370.0,-1.12,9.33,3.54,-0.07,-0.01,-0.0,1.0,u
1741.0,2954.0,3033.0,3315.0,4095.0,4095.0,3088.0,3375.0,-1.0,9.31,3.62,-0.08,-0.02,0.03,1.0,u
1787.0,2958.0,3041.0,3316.0,4095.0,4095.0,3088.0,3376.0,-1.01,9.44,3.51,-0.06,-0.07,0.0,1.0,u
1800.0,2958.0,3028.0,3301.0,4095.0,4095.0,3098.0,3365.0,-1.12,9.39,3.48,-0.05,-0.02,-0.02,1.0,u
1804.0,2958.0,3024.0,3298.0,4095.0,4095.0,3098.0,3376.0,-1.26,9.37,3.4,0.02,0.01,0.01,1.0,u
1776.0,2970.0,3026.0,3303.0,4095.0,4095.0,3093.0,3378.0,-1.02,9.45,3.25,-0.01,0.02,0.03,1.0,u
1808.0,2969.0,3024.0,3312.0,4095.0,4095.0,3093.0,3390.0,-0.87,9.53,3.27,-0.07,0.01,0.03,1.0,u
1792.0,2960.0,3034.0,3316.0,4095.0,4095.0,3106.0,3389.0,-0.86,9.47,3.28,0.0,0.02,-0.01,1.0,u
1786.0,2960.0,3029.0,3322.0,4095.0,4095.0,3090.0,3406.0,-0.89,9.57,3.26,-0.02,-0.05,-0.03,1.0,u
1798.0,2959.0,3034.0,3330.0,4095.0,4095.0,3111.0,3394.0,-0.93,9.43,3.38,-0.07,-0.05,-0.07,1.0,u
1791.0,2966.0,3031.0,3328.0,4095.0,4095.0,3092.0,3381.0,-0.9,9.36,3.59,-0.08,-0.07,-0.06,1.0,u
1797.0,2958.0,3037.0,3344.0,4095.0,4095.0,3106.0,3394.0,-1.01,9.42,3.43,-0.02,-0.02,-0.03,1.0,u
1808.0,2954.0,3038.0,3331.0,4095.0,4095.0,3099.0,3378.0,-0.88,9.43,3.45,-0.07,-0.02,-0.0,1.0,u
1841.0,2975.0,3041.0,3344.0,4095.0,4095.0,3097.0,3365.0,-0.85,9.47,3.33,-0.02,0.05,-0.01,1.0,u
1831.0,2961.0,3030.0,3344.0,4095.0,4095.0,3115.0,3397.0,-0.82,9.51,3.28,-0.08,-0.0,-0.01,1.0,u
1840.0,2954.0,3031.0,3341.0,4095.0,4095.0,3107.0,3383.0,-0.74,9.52,3.43,-0.04,0.04,-0.05,1.0,u
1872.0,2963.0,3035.0,3340.0,4095.0,4095.0,3103.0,3393.0,-0.95,9.49,3.22,-0.06,-0.0,-0.08,1.0,u
1865.0,2950.0,3028.0,3340.0,4095.0,4095.0,3099.0,3393.0,-1.04,9.49,3.25,-0.01,-0.03,-0.09,1.0,u
1875.0,2960.0,3042.0,3345.0,4095.0,4095.0,3099.0,3394.0,-1.1,9.51,3.11,-0.08,-0.08,-0.08,1.0,u
1856.0,2960.0,3036.0,3353.0,4095.0,4095.0,3104.0,3408.0,-1.08,9.5,3.25,-0.04,-0.0,-0.08,1.0,u
1872.0,2960.0,3022.0,3353.0,4095.0,4095.0,3106.0,3397.0,-1.1,9.55,3.12,-0.06,-0.02,-0.04,1.0,u
1870.0,2959.0,3044.0,3343.0,4095.0,4095.0,3102.0,3405.0,-0.97,9.48,3.24,-0.02,0.06,-0.03,1.0,u
1886.0,2967.0,3038.0,3346.0,4095.0,4095.0,3114.0,3393.0,-0.96,9.41,3.4,-0.11,-0.01,-0.03,1.0,u
1873.0,2967.0,3030.0,3344.0,4095.0,4095.0,3115.0,3397.0,-0.95,9.43,3.63,-0.08,0.02,-0.04,1.0,u
1877.0,2971.0,3031.0,3359.0,4095.0,4095.0,3111.0,3397.0,-0.95,9.4,3.42,-0.04,0.05,-0.02,1.0,u
1868.0,2958.0,3025.0,3355.0,4095.0,4095.0,3103.0,3391.0,-1.06,9.51,3.3,-0.09,0.03,-0.01,1.0,u
1876.0,2959.0,3033.0,3354.0,4095.0,4095.0,3092.0,3393.0,-0.99,9.45,3.29,-0.03,0.01,-0.04,1.0,u
1875.0,2963.0,3033.0,3346.0,4095.0,4095.0,3111.0,3405.0,-1.18,9.49,3.19,-0.08,0.01,-0.03,1.0,u
1888.0,2959.0,3035.0,3355.0,4095.0,4095.0,3111.0,3408.0,-1.12,9.42,3.28,-0.07,-0.01,-0.03,1.0,u
1888.0,2960.0,3042.0,3359.0,4095.0,4095.0,3111.0,3394.0,-1.02,9.41,3.4,-0.09,-0.03,-0.03,1.0,u
1886.0,2970.0,3027.0,3355.0,4095.0,4095.0,3109.0,3393.0,-0.9,9.53,3.21,-0.09,-0.03,-0.05,1.0,u
1887.0,2962.0,3032.0,3363.0,4095.0,4095.0,3111.0,3398.0,-0.91,9.52,3.27,-0.08,-0.03,-0.07,1.0,u
1895.0,2965.0,3036.0,3361.0,4095.0,4095.0,3114.0,3407.0,-1.1,9.53,3.32,-0.08,-0.01,-0.05,1.0,u
1909.0,2957.0,3042.0,3373.0,4095.0,4095.0,3112.0,3396.0,-0.96,9.43,3.41,-0.06,-0.01,-0.04,1.0,u
1918.0,2960.0,3044.0,3353.0,4095.0,4095.0,3101.0,3411.0,-0.97,9.45,3.3,-0.06,0.0,-0.04,1.0,u
1925.0,2978.0,3034.0,3371.0,4095.0,4095.0,3103.0,3409.0,-1.03,9.48,3.21,-0.09,-0.01,-0.02,1.0,u
1949.0,2960.0,3043.0,3366.0,4095.0,4095.0,3113.0,3418.0,-0.83,9.46,3.34,-0.09,0.01,-0.05,1.0,u
1939.0,2977.0,3038.0,3371.0,4095.0,4095.0,3107.0,3417.0,-1.0,9.45,3.37,-0.13,-0.01,-0.06,1.0,u
1938.0,2951.0,3030.0,3362.0,4095.0,4095.0,3109.0,3391.0,-1.03,9.4,3.51,-0.06,0.0,-0.07,1.0,u
1951.0,2971.0,3026.0,3369.0,4095.0,4095.0,3110.0,3417.0,-1.1,9.39,3.44,-0.09,-0.01,-0.05,1.0,u
1959.0,2955.0,3034.0,3361.0,4095.0,4095.0,3107.0,3405.0,-1.05,9.45,3.43,-0.04,-0.0,-0.06,1.0,u
2005.0,2965.0,3027.0,3357.0,4095.0,4095.0,3120.0,3414.0,-1.12,9.38,3.39,-0.06,-0.01,-0.03,1.0,u
2032.0,2966.0,3054.0,3359.0,4095.0,4095.0,3114.0,3417.0,-1.08,9.5,3.26,-0.06,-0.02,-0.04,1.0,u
2024.0,2960.0,3049.0,3356.0,4095.0,4095.0,3116.0,3402.0,-1.02,9.4,3.39,-0.07,-0.01,-0.02,1.0,u
2086.0,2965.0,3039.0,3367.0,4095.0,4095.0,3114.0,3418.0,-0.98,9.46,3.37,-0.06,-0.03,-0.05,1.0,u
2096.0,2959.0,3027.0,3363.0,4095.0,4095.0,3111.0,3403.0,-1.1,9.34,3.49,-0.12,-0.03,-0.03,1.0,u
2096.0,2975.0,3027.0,3366.0,4095.0,4095.0,3120.0,3410.0,-1.04,9.36,3.68,-0.05,-0.02,-0.03,1.0,u
2112.0,2955.0,3035.0,3361.0,4095.0,4095.0,3109.0,3409.0,-1.05,9.38,3.53,-0.04,-0.0,-0.01,1.0,u
2112.0,2965.0,3039.0,3372.0,4095.0,4095.0,3122.0,3408.0,-1.02,9.4,3.37,-0.05,0.01,0.0,1.0,u
2122.0,2971.0,3041.0,3362.0,4095.0,4095.0,3109.0,3412.0,-0.95,9.47,3.47,-0.04,-0.0,-0.01,1.0,u
2116.0,2959.0,3031.0,3365.0,4095.0,4095.0,3109.0,3409.0,-0.93,9.45,3.38,-0.04,0.02,-0.03,1.0,u
2113.0,2969.0,3033.0,3375.0,4095.0,4095.0,3121.0,3413.0,-0.99,9.5,3.28,-0.05,-0.01,-0.03,1.0,u
2119.0,2974.0,3031.0,3367.0,4095.0,4095.0,3120.0,3421.0,-0.93,9.49,3.3,-0.07,-0.0,-0.04,1.0,u
2121.0,2965.0,3050.0,3376.0,4095.0,4095.0,3120.0,3408.0,-1.04,9.42,3.38,-0.07,-0.01,-0.04,1.0,u
2125.0,2967.0,3039.0,3361.0,4095.0,4095.0,3119.0,3411.0,-1.06,9.42,3.41,-0.07,0.01,-0.03,1.0,u
2112.0,2961.0,3029.0,3371.0,4095.0,4095.0,3120.0,3418.0,-0.97,9.45,3.39,-0.08,0.01,-0.03,1.0,u
2126.0,2960.0,3035.0,3365.0,4095.0,4095.0,3113.0,3422.0,-1.02,9.44,3.42,-0.12,0.02,-0.03,1.0,u
2115.0,2969.0,3031.0,3361.0,4095.0,4095.0,3113.0,3414.0,-0.96,9.35,3.61,-0.08,-0.03,-0.03,1.0,u
2125.0,2966.0,3029.0,3375.0,4095.0,4095.0,3107.0,3412.0,-0.96,9.39,3.61,-0.06,0.01,-0.01,1.0,u
2128.0,2959.0,3031.0,3380.0,4095.0,4095.0,3115.0,3405.0,-0.91,9.39,3.48,-0.06,-0.01,-0.03,1.0,u
2119.0,2960.0,3031.0,3360.0,4095.0,4095.0,3115.0,3427.0,-0.97,9.47,3.39,-0.06,-0.02,-0.03,1.0,u
2117.0,2961.0,3031.0,3376.0,4095.0,4095.0,3115.0,3408.0,-0.86,9.45,3.42,-0.06,-0.01,-0.05,1.0,u
2124.0,2950.0,3037.0,3362.0,4095.0,4095.0,3109.0,3412.0,-0.99,9.46,3.35,-0.06,0.01,-0.03,1.0,u
2130.0,2957.0,3039.0,3376.0,4095.0,4095.0,3111.0,3423.0,-1.03,9.51,3.37,-0.05,-0.0,-0.03,1.0,u
2368.0,2949.0,3035.0,3371.0,4095.0,4095.0,3105.0,3395.0,-0.94,9.43,3.45,-0.05,0.02,-0.02,1.0,u
2398.0,2955.0,3020.0,3376.0,4095.0,4095.0,3119.0,3408.0,-0.91,9.43,3.53,-0.07,0.01,-0.03,1.0,u
2398.0,2962.0,3039.0,3369.0,4095.0,4095.0,3119.0,3409.0,-0.89,9.4,3.52,-0.04,-0.01,-0.04,1.0,u
2397.0,2966.0,3034.0,3371.0,4095.0,4095.0,3122.0,3419.0,-0.94,9.44,3.45,-0.09,-0.01,-0.04,1.0,u
2391.0,2958.0,3044.0,3377.0,4095.0,4095.0,3114.0,3414.0,-0.9,9.41,3.51,-0.05,-0.0,-0.04,1.0,u
2403.0,2959.0,3025.0,3375.0,4095.0,4095.0,3118.0,3409.0,-0.99,9.46,3.39,-0.07,-0.01,-0.04,1.0,u
2398.0,2959.0,3033.0,3373.0,4095.0,4095.0,3120.0,3426.0,-1.02,9.37,3.47,-0.05,0.0,-0.05,1.0,u
2402.0,2963.0,3034.0,3362.0,4095.0,4095.0,3124.0,3408.0,-0.96,9.39,3.43,-0.07,-0.01,-0.01,1.0,u
2401.0,2961.0,3024.0,3370.0,4095.0,4095.0,3117.0,3421.0,-0.84,9.45,3.39,-0.06,0.01,-0.04,1.0,u
2397.0,2963.0,3030.0,3375.0,4095.0,4095.0,3119.0,3418.0,-0.94,9.39,3.48,-0.07,0.07,-0.02,1.0,u
2357.0,2960.0,3038.0,3356.0,4095.0,4095.0,3124.0,3419.0,-0.95,9.47,3.44,-0.07,0.0,-0.02,1.0,u
2288.0,2971.0,3054.0,3341.0,4095.0,4095.0,3133.0,3431.0,-0.86,9.44,3.44,-0.08,0.0,-0.03,1.0,u
2278.0,2968.0,3033.0,3344.0,4095.0,4095.0,3117.0,3434.0,-1.0,9.43,3.53,-0.03,-0.02,-0.03,1.0,u
2285.0,2967.0,3039.0,3346.0,4095.0,4095.0,3127.0,3417.0,-0.86,9.41,3.46,-0.01,0.03,-0.03,1.0,u
2303.0,2965.0,3040.0,3330.0,4095.0,4095.0,3127.0,3415.0,-0.99,9.42,3.38,0.04,0.07,0.0,1.0,u
2544.0,2963.0,3042.0,3328.0,4095.0,4095.0,3119.0,3408.0,-1.0,9.58,3.19,-0.06,0.01,-0.0,1.0,u
2544.0,2965.0,3039.0,3344.0,4095.0,4095.0,3119.0,3425.0,-0.79,9.45,3.24,-0.09,-0.02,-0.0,1.0,u
2554.0,2957.0,3029.0,3341.0,4095.0,4095.0,3121.0,3426.0,-0.92,9.45,3.42,-0.07,0.0,-0.02,1.0,u
2559.0,2961.0,3028.0,3342.0,4095.0,4095.0,3124.0,3425.0,-0.88,9.39,3.47,-0.07,0.0,-0.03,1.0,u
2559.0,2974.0,3037.0,3335.0,4095.0,4095.0,3120.0,3431.0,-0.8,9.5,3.4,-0.05,0.0,-0.04,1.0,u
2551.0,2966.0,3025.0,3345.0,4095.0,4095.0,3123.0,3425.0,-0.83,9.45,3.34,-0.13,-0.02,-0.04,1.0,u
2559.0,2960.0,3032.0,3347.0,4095.0,4095.0,3122.0,3424.0,-0.89,9.44,3.42,-0.05,-0.02,-0.07,1.0,u
2559.0,2958.0,3028.0,3343.0,4095.0,4095.0,3118.0,3425.0,-0.95,9.41,3.43,-0.11,-0.01,-0.03,1.0,u
2559.0,2971.0,3027.0,3344.0,4095.0,4095.0,3126.0,3426.0,-0.92,9.41,3.47,-0.04,-0.01,-0.04,1.0,u
2559.0,2955.0,3037.0,3349.0,4095.0,4095.0,3115.0,3409.0,-0.83,9.41,3.47,-0.11,-0.02,-0.02,1.0,u
2554.0,2961.0,3033.0,3345.0,4095.0,4095.0,3120.0,3419.0,-0.87,9.39,3.58,-0.05,-0.01,-0.05,1.0,u
2555.0,2961.0,3024.0,3357.0,4095.0,4095.0,3120.0,3425.0,-0.9,9.39,3.48,-0.08,-0.01,-0.04,1.0,u
2558.0,2959.0,3038.0,3344.0,4095.0,4095.0,3135.0,3430.0,-0.92,9.43,3.38,-0.07,-0.0,-0.04,1.0,u
2557.0,2961.0,3026.0,3353.0,4095.0,4095.0,3120.0,3427.0,-0.93,9.45,3.39,-0.08,-0.03,-0.03,1.0,u
2544.0,2967.0,3031.0,3356.0,4095.0,4095.0,3128.0,3409.0,-0.85,9.44,3.46,-0.06,0.01,-0.04,1.0,u
2466.0,2961.0,3043.0,3357.0,4095.0,4095.0,3121.0,3423.0,-0.89,9.37,3.49,-0.09,-0.02,-0.04,1.0,u
2408.0,2955.0,3038.0,3353.0,4095.0,4095.0,3117.0,3425.0,-0.84,9.44,3.52,-0.07,-0.02,-0.03,1.0,u
2394.0,2963.0,3043.0,3367.0,4095.0,4095.0,3117.0,3439.0,-0.84,9.49,3.44,-0.05,-0.02,-0.05,1.0,u
2388.0,2956.0,3039.0,3357.0,4095.0,4095.0,3127.0,3423.0,-0.87,9.4,3.5,-0.08,-0.03,-0.04,1.0,u
2379.0,2957.0,3033.0,3353.0,4095.0,4095.0,3119.0,3419.0,-0.94,9.42,3.57,-0.07,-0.0,-0.05,1.0,u
2362.0,2964.0,3041.0,3367.0,4095.0,4095.0,3117.0,3415.0,-0.9,9.38,3.52,-0.05,-0.02,-0.04,1.0,u
2364.0,2967.0,3051.0,3362.0,4095.0,4095.0,3120.0,3428.0,-0.9,9.44,3.41,-0.05,0.01,-0.03,1.0,u
2380.0,2957.0,3035.0,3363.0,4095.0,4095.0,3125.0,3429.0,-0.89,9.49,3.49,-0.04,0.01,-0.03,1.0,u
2454.0,2959.0,3026.0,3373.0,4095.0,4095.0,3122.0,3418.0,-0.96,9.45,3.45,-0.1,0.01,-0.04,1.0,u
2459.0,2954.0,3035.0,3363.0,4095.0,4095.0,3122.0,3440.0,-0.91,9.4,3.5,-0.08,-0.01,-0.04,1.0,u
2446.0,2960.0,3034.0,3377.0,4095.0,4095.0,3120.0,3411.0,-0.84,9.36,3.64,-0.05,-0.01,-0.03,1.0,u
2444.0,2961.0,3034.0,3365.0,4095.0,4095.0,3133.0,3423.0,-0.78,9.38,3.61,-0.07,-0.02,-0.03,1.0,u
2447.0,2975.0,3038.0,3374.0,4095.0,4095.0,3119.0,3419.0,-0.92,9.42,3.58,-0.03,-0.03,-0.04,1.0,u
2432.0,2966.0,3026.0,3363.0,4095.0,4095.0,3120.0,3422.0,-0.97,9.49,3.29,-0.02,0.03,-0.02,1.0,u
2348.0,2960.0,3037.0,3360.0,4095.0,4095.0,3120.0,3435.0,-0.87,9.53,3.09,-0.03,-0.01,-0.01,1.0,u
2361.0,2959.0,3033.0,3383.0,4095.0,4095.0,3120.0,3438.0,-0.79,9.5,3.3,-0.09,-0.0,-0.01,1.0,u
2352.0,2951.0,3031.0,3379.0,4095.0,4095.0,3129.0,3431.0,-0.83,9.28,3.72,-0.15,-0.04,-0.02,1.0,u
2354.0,2955.0,3033.0,3381.0,4095.0,4095.0,3115.0,3422.0,-0.88,9.31,3.91,-0.08,-0.01,-0.0,1.0,u
2353.0,2960.0,3053.0,3382.0,4095.0,4095.0,3121.0,3431.0,-0.7,9.34,3.72,-0.05,-0.0,0.01,1.0,u
2351.0,2959.0,3035.0,3376.0,4095.0,4095.0,3120.0,3422.0,-0.69,9.4,3.64,-0.05,0.02,-0.0,1.0,u
2343.0,2954.0,3036.0,3376.0,4095.0,4095.0,3123.0,3438.0,-0.63,9.48,3.54,-0.04,-0.02,-0.03,1.0,u
2358.0,2957.0,3024.0,3385.0,4095.0,4095.0,3120.0,3440.0,-0.67,9.43,3.6,-0.03,-0.0,-0.05,1.0,u
2355.0,2946.0,3024.0,3376.0,4095.0,4095.0,3120.0,3419.0,-0.75,9.46,3.46,-0.03,0.01,-0.03,1.0,u
2357.0,2956.0,3038.0,3391.0,4095.0,4095.0,3121.0,3429.0,-0.78,9.51,3.37,-0.02,-0.03,-0.04,1.0,u
2357.0,2960.0,3042.0,3377.0,4095.0,4095.0,3114.0,3440.0,-0.82,9.4,3.52,-0.04,-0.05,-0.06,1.0,u
2352.0,2967.0,3043.0,3376.0,4095.0,4095.0,3123.0,3435.0,-0.78,9.38,3.49,-0.05,-0.04,-0.05,1.0,u
2350.0,2967.0,3034.0,3383.0,4095.0,4095.0,3131.0,3421.0,-0.82,9.45,3.39,-0.0,-0.04,-0.04,1.0,u
2349.0,2959.0,3030.0,3390.0,4095.0,4095.0,3123.0,3443.0,-0.69,9.54,3.33,-0.04,-0.01,-0.03,1.0,u
2351.0,2949.0,3041.0,3395.0,4095.0,4095.0,3119.0,3438.0,-0.72,9.44,3.51,-0.07,-0.04,-0.04,1.0,u
2250.0,2958.0,3027.0,3388.0,4095.0,4095.0,3119.0,3443.0,-0.57,9.39,3.66,-0.07,-0.02,-0.03,1.0,u
2130.0,2960.0,3019.0,3383.0,4095.0,4095.0,3131.0,3440.0,-0.7,9.44,3.38,-0.05,0.01,-0.03,1.0,u
2115.0,2960.0,3023.0,3384.0,4095.0,4095.0,3121.0,3439.0,-0.68,9.45,3.39,-0.05,-0.0,-0.02,1.0,u
1958.0,2959.0,3029.0,3391.0,4095.0,4095.0,3124.0,3440.0,-0.59,9.54,3.38,-0.05,0.01,-0.08,1.0,u
1595.0,2953.0,3031.0,3378.0,4095.0,4095.0,3123.0,3421.0,-0.72,9.41,3.36,-0.09,-0.08,-0.11,1.0,u
1519.0,2963.0,3029.0,3394.0,4095.0,4095.0,3125.0,3436.0,-0.72,9.51,3.41,-0.04,0.01,-0.1,1.0,u
1510.0,2949.0,3028.0,3394.0,4095.0,4095.0,3123.0,3443.0,-0.72,9.5,3.3,-0.08,-0.08,-0.11,1.0,u
1483.0,2960.0,3036.0,3380.0,4095.0,4095.0,3123.0,3429.0,-0.79,9.53,3.47,-0.07,-0.07,-0.16,1.0,u
1474.0,2959.0,3027.0,3384.0,4095.0,4095.0,3119.0,3435.0,-1.03,9.43,3.4,-0.1,-0.07,-0.13,1.0,u
1423.0,2965.0,3047.0,3385.0,4095.0,4095.0,3120.0,3422.0,-1.16,9.34,3.46,-0.07,-0.02,-0.09,1.0,u
1424.0,2956.0,3030.0,3392.0,4095.0,4095.0,3121.0,3430.0,-0.81,9.3,3.71,-0.06,-0.03,-0.04,1.0,u
1422.0,2965.0,3030.0,3381.0,4095.0,4095.0,3131.0,3437.0,-0.72,9.46,3.58,-0.04,0.05,-0.05,1.0,u
1422.0,2954.0,3034.0,3376.0,4095.0,4095.0,3127.0,3444.0,-0.87,9.31,3.61,-0.06,0.06,-0.05,1.0,u
1424.0,2959.0,3039.0,3376.0,4095.0,4095.0,3135.0,3436.0,-0.85,9.49,3.41,-0.04,0.04,-0.05,1.0,u
1503.0,2966.0,3029.0,3397.0,4095.0,4095.0,3135.0,3438.0,-0.72,9.48,3.35,-0.03,0.02,-0.1,1.0,u
1519.0,2960.0,3034.0,3398.0,4095.0,4095.0,3129.0,3435.0,-0.78,9.42,3.38,-0.12,-0.04,-0.15,1.0,u
1581.0,2960.0,3033.0,3389.0,4095.0,4095.0,3121.0,3445.0,-1.08,9.29,3.36,0.01,-0.17,-0.21,1.0,u
1584.0,2951.0,3027.0,3393.0,4095.0,4095.0,3136.0,3423.0,-1.09,9.2,3.52,-0.07,-0.17,-0.19,1.0,u
1571.0,2975.0,3031.0,3387.0,4095.0,4095.0,3136.0,3440.0,-1.52,9.33,3.41,-0.1,-0.26,-0.19,1.0,u
1488.0,2961.0,3029.0,3375.0,4095.0,4095.0,3120.0,3425.0,-1.38,9.46,3.49,-0.06,-0.23,-0.13,1.0,u
1470.0,2957.0,3045.0,3376.0,4095.0,4095.0,3126.0,3439.0,-1.4,9.41,3.5,-0.09,-0.08,-0.08,1.0,u
1469.0,2941.0,3028.0,3377.0,4095.0,4095.0,3132.0,3425.0,-1.29,9.33,3.67,-0.06,-0.13,-0.09,1.0,u
1452.0,2955.0,3030.0,3377.0,4095.0,4095.0,3124.0,3430.0,-1.08,9.24,3.75,-0.1,-0.06,-0.07,1.0,u
1445.0,2953.0,3024.0,3376.0,4095.0,4095.0,3118.0,3440.0,-1.25,9.3,3.77,-0.16,-0.02,-0.02,1.0,u
1488.0,2958.0,3026.0,3391.0,4095.0,4095.0,3134.0,3441.0,-1.24,9.27,3.76,-0.06,-0.13,-0.11,1.0,u
1491.0,2949.0,3029.0,3378.0,4095.0,4095.0,3130.0,3431.0,-1.26,9.26,3.68,-0.13,-0.08,-0.06,1.0,u
1591.0,2962.0,3027.0,3381.0,4095.0,4095.0,3120.0,3445.0,-1.3,9.26,3.72,-0.08,-0.01,-0.03,1.0,u
1646.0,2963.0,3039.0,3377.0,4095.0,4095.0,3121.0,3440.0,-1.17,9.28,3.82,-0.06,0.01,-0.01,1.0,u
1770.0,2960.0,3048.0,3376.0,4095.0,4095.0,3133.0,3445.0,-1.03,9.31,3.86,-0.05,0.03,-0.0,1.0,u
1963.0,2959.0,3040.0,3386.0,4095.0,4095.0,3129.0,3456.0,-0.95,9.26,3.78,-0.05,-0.04,-0.05,1.0,u
2035.0,2953.0,3038.0,3395.0,4095.0,4095.0,3131.0,3450.0,-1.08,9.31,3.83,-0.01,0.06,-0.06,1.0,u
2084.0,2948.0,3029.0,3386.0,4095.0,4095.0,3120.0,3440.0,-1.2,9.31,3.64,-0.03,0.04,-0.02,1.0,u
2146.0,2954.0,3029.0,3398.0,4095.0,4095.0,3135.0,3447.0,-1.12,9.35,3.68,-0.03,-0.02,-0.03,1.0,u
2173.0,2958.0,3038.0,3379.0,4095.0,4095.0,3131.0,3450.0,-1.2,9.35,3.64,-0.02,0.05,-0.01,1.0,u
2239.0,2959.0,3022.0,3377.0,4095.0,4095.0,3133.0,3446.0,-1.19,9.4,3.43,-0.08,-0.0,-0.02,1.0,u
2256.0,2962.0,3031.0,3391.0,4095.0,4095.0,3135.0,3442.0,-1.27,9.32,3.65,-0.0,0.05,-0.02,1.0,u
2281.0,2957.0,3045.0,3379.0,4095.0,4095.0,3123.0,3445.0,-1.28,9.29,3.56,-0.07,-0.02,-0.01,1.0,u
2283.0,2963.0,3036.0,3387.0,4095.0,4095.0,3137.0,3439.0,-1.19,9.4,3.54,-0.06,0.05,-0.0,1.0,u
2341.0,2961.0,3031.0,3377.0,4095.0,4095.0,3123.0,3440.0,-1.2,9.34,3.66,-0.07,-0.01,0.0,1.0,u
2371.0,2955.0,3030.0,3394.0,4095.0,4095.0,3123.0,3440.0,-0.95,9.31,3.87,-0.05,0.02,-0.0,1.0,u
2385.0,2967.0,3033.0,3389.0,4095.0,4095.0,3137.0,3455.0,-0.95,9.31,3.76,-0.04,-0.01,-0.03,1.0,u
2387.0,2959.0,3024.0,3386.0,4095.0,4095.0,3125.0,3461.0,-0.9,9.47,3.5,-0.03,0.04,-0.05,1.0,u
2418.0,2955.0,3024.0,3389.0,4095.0,4095.0,3122.0,3447.0,-1.02,9.3,3.48,-0.03,-0.0,-0.04,1.0,u
2501.0,2960.0,3029.0,3385.0,4095.0,4095.0,3131.0,3443.0,-1.14,9.35,3.56,-0.05,0.03,-0.05,1.0,u
2534.0,2961.0,3042.0,3376.0,4095.0,4095.0,3136.0,3451.0,-1.12,9.35,3.56,-0.05,0.0,-0.06,1.0,u
2594.0,2971.0,3034.0,3391.0,4095.0,4095.0,3121.0,3449.0,-1.03,9.33,3.62,-0.04,0.02,-0.06,1.0,u
2599.0,2961.0,3041.0,3393.0,4095.0,4095.0,3130.0,3458.0,-1.15,9.38,3.48,-0.02,0.04,-0.06,1.0,u
2731.0,2959.0,3038.0,3399.0,4095.0,4095.0,3120.0,3457.0,-1.17,9.31,3.55,0.03,0.0,-0.04,1.0,u
3218.0,2965.0,3024.0,3411.0,4095.0,4095.0,3133.0,3445.0,-1.17,9.45,3.35,0.02,0.01,-0.03,1.0,u
3389.0,2960.0,3030.0,3424.0,4095.0,4095.0,3125.0,3451.0,-1.06,9.45,3.25,-0.06,-0.06,-0.03,1.0,u
3391.0,2960.0,3030.0,3424.0,4095.0,4095.0,3127.0,3455.0,-1.06,9.46,3.41,-0.09,-0.02,-0.04,1.0,u
3376.0,2950.0,3035.0,3426.0,4095.0,4095.0,3120.0,3457.0,-1.26,9.38,3.46,-0.08,-0.04,-0.04,1.0,u
3397.0,2954.0,3036.0,3439.0,4095.0,4095.0,3121.0,3460.0,-1.12,9.41,3.6,-0.03,-0.04,-0.03,1.0,u
3401.0,2961.0,3030.0,3436.0,4095.0,4095.0,3113.0,3442.0,-1.21,9.32,3.58,0.01,-0.21,-0.01,1.0,u
3410.0,2960.0,3039.0,3432.0,4095.0,4095.0,3109.0,3431.0,-0.84,9.52,3.47,0.19,-0.23,-0.04,1.0,u
3408.0,2942.0,3027.0,3409.0,4095.0,4095.0,3110.0,3439.0,-0.87,9.49,3.22,-0.07,-0.07,-0.0,1.0,u
3409.0,2960.0,3031.0,3373.0,4095.0,4095.0,3102.0,3409.0,-1.11,9.5,3.39,0.02,-0.0,0.01,1.0,u
3423.0,2957.0,3043.0,3325.0,4095.0,4095.0,3104.0,3392.0,-1.05,9.34,3.34,-0.06,-0.1,0.02,1.0,u
3437.0,2961.0,3033.0,3287.0,4095.0,4095.0,3109.0,3269.0,-1.15,9.42,3.23,0.17,-0.68,-0.01,1.0,u
3446.0,2960.0,3029.0,3316.0,4095.0,4095.0,3107.0,3153.0,-0.29,9.64,3.2,0.02,-0.38,-0.02,1.0,u
3446.0,2955.0,3041.0,3329.0,4095.0,4095.0,3103.0,3179.0,-0.7,9.46,3.39,0.09,-0.22,-0.09,1.0,u
3433.0,2955.0,3056.0,3330.0,4095.0,4095.0,3109.0,3278.0,-0.43,9.79,3.12,0.09,-0.22,-0.09,1.0,u
3452.0,2958.0,3030.0,3331.0,4095.0,4095.0,3118.0,3307.0,-0.68,9.48,3.18,-0.08,0.12,-0.01,1.0,u
3455.0,2967.0,3037.0,3339.0,4095.0,4095.0,3111.0,3333.0,-0.73,9.64,3.17,-0.04,-0.02,-0.04,1.0,u
3420.0,2964.0,3033.0,3331.0,4095.0,4095.0,3106.0,3387.0,-0.6,9.59,3.03,-0.11,0.07,-0.0,1.0,u
3376.0,2953.0,3031.0,3343.0,4095.0,4095.0,3117.0,3395.0,-0.72,9.55,3.2,-0.08,0.09,-0.0,1.0,u
3399.0,2961.0,3034.0,3344.0,4095.0,4095.0,3101.0,3399.0,-0.55,9.62,3.14,-0.11,0.11,-0.03,1.0,u
3404.0,2960.0,3023.0,3353.0,4095.0,4095.0,3117.0,3394.0,-0.73,9.54,3.26,-0.09,0.08,-0.03,1.0,u
3406.0,2960.0,3033.0,3345.0,4095.0,4095.0,3111.0,3391.0,-0.6,9.59,2.99,-0.1,0.09,-0.03,1.0,u
3525.0,2951.0,3024.0,3370.0,4095.0,4095.0,3109.0,3412.0,-0.93,9.49,3.01,-0.11,0.04,-0.07,1.0,u
3567.0,2959.0,3039.0,3367.0,4095.0,4095.0,3101.0,3394.0,-0.49,9.65,3.14,-0.02,-0.06,-0.09,1.0,u
3844.0,2960.0,3044.0,3335.0,4095.0,4095.0,3115.0,3361.0,-0.95,9.42,3.38,-0.17,0.25,-0.02,1.0,u
3863.0,2954.0,3026.0,3319.0,4095.0,4095.0,3101.0,3386.0,-1.01,9.5,3.37,-0.05,0.09,-0.04,1.0,u
3884.0,2962.0,3024.0,3322.0,4095.0,4095.0,3113.0,3390.0,-0.44,9.55,3.37,-0.18,0.26,-0.0,1.0,u
3888.0,2960.0,3024.0,3363.0,4095.0,4095.0,3104.0,3351.0,-0.94,9.26,3.63,-0.33,0.95,0.06,1.0,u
3920.0,2963.0,3029.0,3365.0,4095.0,4095.0,3105.0,3359.0,-1.17,9.31,3.48,-0.09,0.26,-0.01,1.0,u
3922.0,2954.0,3039.0,3359.0,4095.0,4095.0,3099.0,3363.0,-0.6,9.58,3.32,-0.16,0.38,-0.0,1.0,u
3920.0,2974.0,3031.0,3348.0,4095.0,4095.0,3107.0,3366.0,-1.19,9.38,3.48,-0.19,0.41,0.01,1.0,u
3946.0,2960.0,3024.0,3359.0,4095.0,4095.0,3111.0,3370.0,-1.03,9.45,3.3,-0.07,0.17,-0.05,1.0,u
3943.0,2972.0,3030.0,3376.0,4095.0,4095.0,3109.0,3314.0,-1.21,9.43,3.33,-0.06,0.06,-0.03,1.0,u
3949.0,2957.0,3042.0,3381.0,4095.0,4095.0,3111.0,3367.0,-1.05,9.44,3.32,-0.05,0.01,-0.05,1.0,u
1015.0,2947.0,2985.0,2858.0,4095.0,4095.0,2887.0,2669.0,1.62,8.92,5.29,-0.01,-0.01,-0.13,1.0,u
1037.0,2934.0,2987.0,2881.0,4095.0,4095.0,2895.0,2674.0,1.53,8.78,4.88,0.02,-0.1,-0.11,1.0,u
1018.0,2933.0,2982.0,2883.0,4095.0,4095.0,2896.0,2681.0,1.46,8.64,5.05,0.07,0.02,-0.1,1.0,u
1015.0,2943.0,2983.0,2869.0,4095.0,4095.0,2900.0,2684.0,1.37,9.1,4.58,0.1,0.04,-0.18,1.0,u
1021.0,2931.0,2992.0,2889.0,4095.0,4095.0,2898.0,2689.0,1.09,8.96,4.9,0.06,0.09,-0.29,1.0,u
1022.0,2928.0,2985.0,2884.0,4095.0,4095.0,2896.0,2706.0,0.73,9.03,4.74,0.06,0.14,-0.14,1.0,u
1018.0,2939.0,2985.0,2889.0,4095.0,4095.0,2903.0,2719.0,0.8,9.12,4.26,0.04,0.05,-0.11,1.0,u
1019.0,2933.0,2980.0,2896.0,4095.0,4095.0,2909.0,2726.0,1.08,9.25,4.32,0.04,0.01,-0.05,1.0,u
1021.0,2941.0,2982.0,2897.0,4095.0,4095.0,2911.0,2731.0,0.78,9.19,4.1,0.07,0.02,-0.06,1.0,u
1023.0,2931.0,2985.0,2912.0,4095.0,4095.0,2910.0,2730.0,0.8,9.14,4.08,0.01,0.02,-0.05,1.0,u
1040.0,2928.0,2981.0,2925.0,4095.0,4095.0,2915.0,2734.0,0.76,9.3,3.85,-0.03,0.04,-0.04,1.0,u
1040.0,2929.0,2987.0,2923.0,4095.0,4095.0,2923.0,2733.0,0.74,9.36,3.95,-0.09,0.05,-0.03,1.0,u
1043.0,2937.0,2981.0,2924.0,4095.0,4095.0,2923.0,2739.0,0.64,9.37,3.87,-0.04,0.07,-0.01,1.0,u
1046.0,2937.0,2983.0,2928.0,4095.0,4095.0,2910.0,2736.0,0.65,9.28,4.02,-0.08,0.06,-0.05,1.0,u
1055.0,2928.0,2979.0,2928.0,4095.0,4095.0,2917.0,2727.0,0.62,9.36,4.03,-0.06,0.02,0.0,1.0,u
1041.0,2946.0,2992.0,2932.0,4095.0,4095.0,2922.0,2733.0,0.73,9.24,4.09,-0.07,-0.02,-0.01,1.0,u
1043.0,2933.0,2970.0,2944.0,4095.0,4095.0,2915.0,2735.0,0.8,9.19,4.19,-0.05,0.03,-0.03,1.0,u
1039.0,2931.0,2981.0,2939.0,4095.0,4095.0,2925.0,2741.0,0.72,9.16,3.95,-0.13,-0.03,-0.08,1.0,u
1041.0,2933.0,2991.0,2934.0,4095.0,4095.0,2923.0,2741.0,0.59,9.28,4.27,-0.08,-0.0,-0.09,1.0,u
1036.0,2941.0,2983.0,2945.0,4095.0,4095.0,2928.0,2739.0,0.6,9.31,4.2,-0.1,0.02,-0.04,1.0,u
1055.0,2941.0,2992.0,2947.0,4095.0,4095.0,2926.0,2746.0,0.65,9.17,4.11,-0.07,-0.0,-0.03,1.0,u
1044.0,2930.0,2978.0,2951.0,4095.0,4095.0,2928.0,2743.0,0.48,9.28,4.01,0.0,0.02,-0.07,1.0,u
1047.0,2943.0,2990.0,2945.0,4095.0,4095.0,2928.0,2739.0,0.49,9.17,4.15,-0.05,-0.0,-0.03,1.0,u
1079.0,2932.0,2992.0,2951.0,4095.0,4095.0,2931.0,2751.0,0.62,9.37,3.95,-0.07,0.02,-0.02,1.0,u
1088.0,2942.0,2978.0,2947.0,4095.0,4095.0,2939.0,2752.0,0.47,9.24,4.07,-0.06,0.04,-0.02,1.0,u
1100.0,2929.0,2989.0,2949.0,4095.0,4095.0,2931.0,2741.0,0.51,9.27,4.13,-0.06,0.04,-0.02,1.0,u
1153.0,2928.0,2985.0,2957.0,4095.0,4095.0,2937.0,2736.0,0.55,9.3,3.93,-0.08,0.03,-0.01,1.0,u
1165.0,2939.0,2995.0,2958.0,4095.0,4095.0,2930.0,2742.0,0.54,9.29,4.13,-0.07,0.01,-0.01,1.0,u
1200.0,2928.0,2985.0,2961.0,4095.0,4095.0,2935.0,2752.0,0.59,9.33,4.05,-0.06,0.04,-0.03,1.0,u
1242.0,2933.0,2981.0,2958.0,4095.0,4095.0,2928.0,2747.0,0.55,9.27,4.08,-0.05,0.03,-0.03,1.0,u
1263.0,2941.0,2982.0,2965.0,4095.0,4095.0,2939.0,2751.0,0.6,9.24,4.13,-0.07,0.02,-0.02,1.0,u
1278.0,2934.0,2976.0,2966.0,4095.0,4095.0,2933.0,2736.0,0.57,9.26,4.04,-0.06,0.02,-0.04,1.0,u
1318.0,2938.0,2997.0,2967.0,4095.0,4095.0,2937.0,2742.0,0.56,9.26,4.2,-0.08,0.01,-0.02,1.0,u
1328.0,2928.0,2991.0,2974.0,4095.0,4095.0,2933.0,2736.0,0.58,9.28,4.07,-0.04,0.03,-0.02,1.0,u
1095.0,2928.0,2981.0,2945.0,4095.0,4095.0,2912.0,2647.0,0.15,9.84,2.56,-0.21,0.05,-0.03,1.0,u
1088.0,2942.0,2974.0,2961.0,4095.0,4095.0,2917.0,2646.0,0.15,9.73,2.76,-0.05,-0.06,-0.1,1.0,u
1075.0,2944.0,2978.0,2963.0,4095.0,4095.0,2913.0,2655.0,-0.13,9.72,2.61,-0.02,-0.05,-0.12,1.0,u
1131.0,2939.0,2988.0,2973.0,4095.0,4095.0,2922.0,2660.0,-0.23,9.76,2.39,-0.03,-0.03,-0.08,1.0,u
1141.0,2930.0,2981.0,2981.0,4095.0,4095.0,2918.0,2661.0,-0.05,9.74,2.46,-0.03,-0.03,-0.05,1.0,u
1151.0,2937.0,2992.0,2983.0,4095.0,4095.0,2928.0,2666.0,-0.37,9.7,2.38,-0.01,0.02,-0.06,1.0,u
1164.0,2949.0,2977.0,2992.0,4095.0,4095.0,2928.0,2677.0,-0.3,9.79,2.27,-0.1,0.09,0.04,1.0,u
1183.0,2929.0,2983.0,2991.0,4095.0,4095.0,2925.0,2672.0,0.11,9.89,2.24,-0.06,0.04,0.03,1.0,u
1183.0,2931.0,2981.0,2989.0,4095.0,4095.0,2923.0,2678.0,0.06,9.83,2.54,-0.11,0.0,-0.03,1.0,u
1248.0,2930.0,2990.0,2991.0,4095.0,4095.0,2918.0,2682.0,-0.08,9.64,2.59,-0.08,0.03,0.01,1.0,u
1261.0,2945.0,2999.0,2991.0,4095.0,4095.0,2929.0,2672.0,0.09,9.88,2.46,-0.03,-0.03,-0.04,1.0,u
1253.0,2944.0,2992.0,2992.0,4095.0,4095.0,2928.0,2672.0,0.04,9.76,2.44,-0.02,-0.05,-0.04,1.0,u
1290.0,2933.0,2982.0,2996.0,4095.0,4095.0,2928.0,2672.0,-0.1,9.84,2.22,-0.1,0.0,-0.01,1.0,u
1325.0,2934.0,2992.0,3001.0,4095.0,4095.0,2927.0,2670.0,-0.02,9.73,2.44,-0.07,0.04,-0.02,1.0,u
1335.0,2944.0,2986.0,3001.0,4095.0,4095.0,2931.0,2670.0,0.23,9.81,2.7,-0.05,-0.01,-0.06,1.0,u
1303.0,2929.0,2994.0,3010.0,4095.0,4095.0,2925.0,2672.0,-0.17,9.72,2.44,-0.04,-0.01,-0.03,1.0,u
1338.0,2931.0,2992.0,3011.0,4095.0,4095.0,2927.0,2672.0,0.09,9.86,2.33,-0.06,-0.05,0.01,1.0,u
1328.0,2943.0,2983.0,3008.0,4095.0,4095.0,2931.0,2666.0,-0.05,9.83,2.44,0.01,-0.03,-0.04,1.0,u
1326.0,2931.0,2990.0,3005.0,4095.0,4095.0,2929.0,2665.0,-0.03,9.72,2.33,-0.05,0.06,-0.03,1.0,u
1328.0,2928.0,2977.0,3009.0,4095.0,4095.0,2937.0,2662.0,0.1,9.85,2.31,-0.05,0.02,-0.04,1.0,u
1330.0,2935.0,2989.0,3010.0,4095.0,4095.0,2929.0,2665.0,-0.09,9.91,2.18,-0.04,-0.04,-0.04,1.0,u
1347.0,2951.0,2976.0,3014.0,4095.0,4095.0,2941.0,2651.0,-0.02,9.72,2.4,-0.05,-0.03,-0.03,1.0,u
1404.0,2935.0,2994.0,3008.0,4095.0,4095.0,2928.0,2642.0,0.17,9.84,2.46,-0.07,0.02,-0.03,1.0,u
1380.0,2946.0,2989.0,3008.0,4095.0,4095.0,2931.0,2635.0,0.09,9.85,2.27,-0.04,-0.03,-0.01,1.0,u
1411.0,2944.0,2993.0,3014.0,4095.0,4095.0,2929.0,2649.0,0.36,9.84,2.28,-0.04,0.08,-0.06,1.0,u
1553.0,2930.0,2976.0,3031.0,4095.0,4095.0,2943.0,2658.0,0.07,9.76,2.21,-0.05,-0.18,-0.06,1.0,u
1407.0,2943.0,2981.0,3017.0,4095.0,4095.0,2935.0,2658.0,-0.08,9.79,2.16,-0.04,-0.03,-0.04,1.0,u
1402.0,2943.0,2990.0,3019.0,4095.0,4095.0,2931.0,2663.0,0.08,9.81,2.38,-0.07,0.03,-0.03,1.0,u
1429.0,2939.0,2980.0,3025.0,4095.0,4095.0,2939.0,2654.0,-0.03,9.86,2.23,-0.07,0.06,-0.04,1.0,u
1300.0,2960.0,2982.0,3024.0,4095.0,4095.0,2933.0,2669.0,0.14,9.81,2.3,-0.09,0.03,-0.02,1.0,u
1275.0,2947.0,2987.0,3034.0,4095.0,4095.0,2937.0,2665.0,-0.06,9.79,2.36,-0.04,0.03,-0.06,1.0,u
1244.0,2935.0,2987.0,3036.0,4095.0,4095.0,2935.0,2671.0,0.07,9.8,2.21,-0.05,-0.03,-0.06,1.0,u
1250.0,2942.0,2985.0,3021.0,4095.0,4095.0,2933.0,2674.0,0.05,9.83,2.46,-0.06,-0.03,-0.08,1.0,u
1190.0,2943.0,2992.0,3029.0,4095.0,4095.0,2935.0,2688.0,-0.06,9.79,2.21,-0.06,0.03,-0.03,1.0,u
962.0,2931.0,2986.0,2928.0,4095.0,4095.0,2928.0,2711.0,-0.19,9.87,2.45,-0.1,0.02,0.02,1.0,u
976.0,2928.0,2981.0,2914.0,4095.0,4095.0,2941.0,2707.0,-0.06,9.84,2.5,-0.1,-0.09,0.03,1.0,u
976.0,2938.0,2977.0,2913.0,4095.0,4095.0,2938.0,2672.0,0.0,9.78,2.62,-0.05,-0.03,0.03,1.0,u
982.0,2928.0,2987.0,2919.0,4095.0,4095.0,2939.0,2678.0,0.3,9.75,2.63,-0.02,-0.03,-0.06,1.0,u
1007.0,2931.0,2981.0,2895.0,4095.0,4095.0,2939.0,2745.0,0.03,9.85,2.25,-0.09,-0.0,-0.02,1.0,u
1022.0,2943.0,2980.0,2890.0,4095.0,4095.0,2928.0,2765.0,0.25,9.79,2.53,-0.13,-0.0,-0.04,1.0,u
1035.0,2943.0,2986.0,2906.0,4095.0,4095.0,2933.0,2768.0,0.26,9.73,2.72,-0.09,-0.01,-0.04,1.0,u
1071.0,2933.0,2983.0,2902.0,4095.0,4095.0,2928.0,2762.0,0.26,9.7,2.68,-0.07,-0.02,-0.02,1.0,u
1070.0,2931.0,2991.0,2895.0,4095.0,4095.0,2934.0,2758.0,0.49,9.73,2.66,-0.05,-0.03,-0.11,1.0,u
1066.0,2944.0,2977.0,2898.0,4095.0,4095.0,2935.0,2768.0,-0.06,9.73,2.71,0.01,-0.05,-0.11,1.0,u
1071.0,2939.0,2987.0,2915.0,4095.0,4095.0,2928.0,2782.0,0.36,9.88,2.5,-0.05,-0.06,-0.05,1.0,u
1061.0,2929.0,2973.0,2919.0,4095.0,4095.0,2938.0,2755.0,0.07,9.85,2.65,0.04,-0.01,-0.12,1.0,u
1072.0,2950.0,2976.0,2915.0,4095.0,4095.0,2944.0,2768.0,-0.05,9.71,2.74,-0.02,-0.02,-0.03,1.0,u
1083.0,2931.0,2986.0,2925.0,4095.0,4095.0,2930.0,2778.0,0.06,9.78,2.52,0.02,-0.04,-0.03,1.0,u
1073.0,2922.0,2986.0,2912.0,4095.0,4095.0,2945.0,2777.0,0.1,9.87,2.42,-0.02,-0.02,-0.03,1.0,u
1082.0,2941.0,2977.0,2919.0,4095.0,4095.0,2943.0,2797.0,0.07,9.75,2.28,0.0,-0.04,-0.03,1.0,u
1078.0,2933.0,2974.0,2928.0,4095.0,4095.0,2943.0,2798.0,0.13,9.79,2.24,-0.05,0.0,-0.04,1.0,u
1078.0,2928.0,2978.0,2921.0,4095.0,4095.0,2947.0,2797.0,0.06,9.86,2.25,-0.06,-0.03,-0.03,1.0,u
1090.0,2938.0,2983.0,2929.0,4095.0,4095.0,2943.0,2802.0,0.1,9.86,2.24,-0.04,0.0,-0.01,1.0,u
1087.0,2926.0,2978.0,2930.0,4095.0,4095.0,2945.0,2800.0,-0.02,9.85,2.21,-0.06,0.04,-0.01,1.0,u
1085.0,2931.0,2982.0,2928.0,4095.0,4095.0,2947.0,2800.0,0.15,9.94,2.41,-0.09,-0.04,-0.03,1.0,u
1088.0,2929.0,2980.0,2934.0,4095.0,4095.0,2947.0,2799.0,-0.02,9.79,2.22,-0.11,-0.01,0.0,1.0,u
1073.0,2933.0,2980.0,2929.0,4095.0,4095.0,2940.0,2800.0,0.24,9.72,2.47,-0.09,-0.02,-0.03,1.0,u
1087.0,2933.0,2981.0,2934.0,4095.0,4095.0,2947.0,2793.0,-0.06,9.79,2.34,-0.06,0.01,-0.09,1.0,u
1088.0,2925.0,2971.0,2935.0,4095.0,4095.0,2947.0,2787.0,0.06,9.93,2.47,-0.05,0.03,-0.01,1.0,u
1087.0,2945.0,2976.0,2919.0,4095.0,4095.0,2951.0,2777.0,0.23,9.81,2.49,-0.0,0.02,-0.02,1.0,u
1083.0,2938.0,2971.0,2923.0,4095.0,4095.0,2951.0,2786.0,0.12,9.73,2.32,-0.02,0.05,-0.01,1.0,u
1086.0,2938.0,2980.0,2929.0,4095.0,4095.0,2956.0,2800.0,0.25,9.85,2.2,-0.01,-0.03,-0.02,1.0,u
1082.0,2947.0,2981.0,2933.0,4095.0,4095.0,2945.0,2777.0,0.22,9.74,2.18,-0.03,-0.01,-0.04,1.0,u
1072.0,2937.0,2979.0,2928.0,4095.0,4095.0,2957.0,2793.0,0.2,9.74,2.11,-0.08,0.01,-0.06,1.0,u
1071.0,2945.0,2979.0,2922.0,4095.0,4095.0,2954.0,2795.0,0.21,9.88,2.24,-0.07,-0.01,-0.07,1.0,u
1072.0,2934.0,2976.0,2921.0,4095.0,4095.0,2959.0,2793.0,0.05,9.85,2.11,-0.02,-0.02,-0.06,1.0,u
1072.0,2944.0,2989.0,2913.0,4095.0,4095.0,2944.0,2790.0,0.14,9.84,2.15,-0.09,0.01,-0.03,1.0,u
1073.0,2938.0,2967.0,2924.0,4095.0,4095.0,2960.0,2797.0,0.01,9.88,2.17,-0.05,0.01,-0.06,1.0,u
982.0,2930.0,2985.0,2913.0,4095.0,4095.0,2942.0,2621.0,-0.14,9.77,2.54,-0.01,0.06,-0.04,1.0,u
951.0,2944.0,2987.0,2919.0,4095.0,4095.0,2941.0,2640.0,-0.19,9.85,2.75,-0.03,0.03,-0.04,1.0,u
958.0,2934.0,2989.0,2939.0,4095.0,4095.0,2943.0,2677.0,-0.19,9.85,2.35,0.04,0.03,-0.09,1.0,u
969.0,2935.0,2993.0,2945.0,4095.0,4095.0,2944.0,2687.0,-0.21,9.85,2.51,0.01,-0.08,-0.03,1.0,u
971.0,2943.0,2977.0,2950.0,4095.0,4095.0,2947.0,2684.0,0.17,9.95,2.44,0.02,-0.08,-0.03,1.0,u
991.0,2939.0,2987.0,2958.0,4095.0,4095.0,2957.0,2704.0,-0.09,9.89,2.38,-0.02,-0.08,-0.03,1.0,u
985.0,2931.0,2974.0,2965.0,4095.0,4095.0,2955.0,2710.0,-0.05,9.8,2.3,-0.06,-0.04,0.01,1.0,u
983.0,2931.0,2982.0,2964.0,4095.0,4095.0,2957.0,2715.0,0.13,9.77,2.25,-0.11,0.02,-0.01,1.0,u
1003.0,2935.0,2982.0,2961.0,4095.0,4095.0,2945.0,2720.0,0.08,9.75,2.39,-0.1,0.01,-0.06,1.0,u
999.0,2930.0,2977.0,2960.0,4095.0,4095.0,2951.0,2711.0,0.13,9.79,2.42,-0.01,-0.01,-0.09,1.0,u
1014.0,2937.0,2979.0,2967.0,4095.0,4095.0,2960.0,2704.0,0.15,9.69,2.38,-0.07,-0.02,-0.05,1.0,u
1008.0,2926.0,2979.0,2977.0,4095.0,4095.0,2961.0,2691.0,-0.06,9.82,2.32,-0.07,0.04,0.0,1.0,u
1004.0,2943.0,2989.0,2972.0,4095.0,4095.0,2969.0,2678.0,0.2,9.93,2.32,-0.07,0.08,-0.01,1.0,u
1001.0,2940.0,2983.0,2962.0,4095.0,4095.0,2960.0,2635.0,-0.02,9.91,2.26,-0.01,0.04,-0.03,1.0,u
999.0,2934.0,2992.0,2964.0,4095.0,4095.0,2970.0,2649.0,-0.01,9.79,2.45,-0.02,0.06,-0.04,1.0,u
1006.0,2939.0,2987.0,2958.0,4095.0,4095.0,2964.0,2658.0,-0.0,9.79,2.45,-0.02,0.02,-0.03,1.0,u
1013.0,2928.0,2989.0,2973.0,4095.0,4095.0,2961.0,2677.0,0.1,9.76,2.33,-0.05,-0.04,-0.02,1.0,u
1007.0,2932.0,2973.0,2962.0,4095.0,4095.0,2963.0,2682.0,0.06,9.81,2.3,-0.03,-0.0,-0.06,1.0,u
1003.0,2944.0,2983.0,2965.0,4095.0,4095.0,2967.0,2679.0,0.01,9.86,2.38,-0.01,-0.01,-0.05,1.0,u
1002.0,2931.0,2986.0,2975.0,4095.0,4095.0,2971.0,2688.0,-0.07,9.84,2.17,-0.04,0.04,-0.04,1.0,u
1010.0,2934.0,2971.0,2973.0,4095.0,4095.0,2961.0,2688.0,0.15,9.84,2.2,-0.03,0.08,-0.07,1.0,u
1004.0,2946.0,2989.0,2970.0,4095.0,4095.0,2967.0,2687.0,-0.17,9.86,2.15,-0.05,0.06,-0.02,1.0,u
1004.0,2926.0,2982.0,2974.0,4095.0,4095.0,2973.0,2702.0,0.12,9.9,2.1,-0.06,0.01,-0.02,1.0,u
990.0,2925.0,2983.0,2986.0,4095.0,4095.0,2969.0,2705.0,-0.03,9.89,2.14,-0.07,-0.0,-0.0,1.0,u
1008.0,2943.0,2969.0,2990.0,4095.0,4095.0,2971.0,2702.0,0.14,9.87,2.08,-0.06,-0.03,-0.0,1.0,u
1011.0,2941.0,2987.0,2981.0,4095.0,4095.0,2973.0,2708.0,0.1,9.78,2.3,-0.07,-0.03,-0.03,1.0,u
1009.0,2943.0,2986.0,2979.0,4095.0,4095.0,2973.0,2704.0,0.01,9.85,2.17,-0.08,-0.02,-0.02,1.0,u
1009.0,2933.0,2978.0,2991.0,4095.0,4095.0,2973.0,2722.0,0.17,9.86,2.24,-0.12,-0.03,-0.02,1.0,u
993.0,2932.0,2979.0,2993.0,4095.0,4095.0,2971.0,2746.0,0.05,9.84,2.35,-0.05,-0.01,-0.04,1.0,u
1003.0,2930.0,2986.0,3003.0,4095.0,4095.0,2976.0,2747.0,0.13,9.79,2.11,-0.09,-0.02,-0.05,1.0,u
1006.0,2939.0,2982.0,2998.0,4095.0,4095.0,2976.0,2746.0,0.13,9.81,2.43,-0.1,0.01,-0.04,1.0,u
1014.0,2941.0,2974.0,2994.0,4095.0,4095.0,2978.0,2734.0,0.06,9.83,2.25,-0.08,0.02,-0.02,1.0,u
1007.0,2940.0,2979.0,2998.0,4095.0,4095.0,2975.0,2751.0,0.0,9.85,2.38,-0.08,0.02,-0.0,1.0,u
1012.0,2929.0,2975.0,2998.0,4095.0,4095.0,2985.0,2757.0,0.01,9.8,2.39,-0.07,0.04,-0.01,1.0,u
942.0,2926.0,2987.0,2887.0,4095.0,4095.0,2922.0,2550.0,-0.08,9.88,1.92,-0.07,-0.12,-0.06,1.0,u
946.0,2929.0,2990.0,2883.0,4095.0,4095.0,2928.0,2557.0,-0.06,9.8,2.15,-0.05,-0.15,-0.08,1.0,u
958.0,2931.0,2977.0,2889.0,4095.0,4095.0,2928.0,2547.0,-0.34,9.62,1.93,-0.13,0.01,-0.07,1.0,u
954.0,2947.0,2986.0,2896.0,4095.0,4095.0,2926.0,2545.0,-0.14,9.91,1.88,-0.11,-0.05,-0.15,1.0,u
971.0,2943.0,2980.0,2893.0,4095.0,4095.0,2932.0,2544.0,-0.38,10.01,2.24,-0.11,-0.06,-0.12,1.0,u
958.0,2943.0,2989.0,2896.0,4095.0,4095.0,2931.0,2549.0,-0.44,9.94,2.12,-0.08,-0.03,-0.02,1.0,u
945.0,2941.0,2978.0,2900.0,4095.0,4095.0,2931.0,2548.0,-0.55,9.86,2.19,-0.03,-0.03,-0.01,1.0,u
948.0,2928.0,2987.0,2894.0,4095.0,4095.0,2947.0,2559.0,-0.38,9.77,2.29,0.02,-0.0,-0.04,1.0,u
960.0,2938.0,2989.0,2891.0,4095.0,4095.0,2945.0,2558.0,-0.59,9.88,2.41,-0.06,-0.08,-0.1,1.0,u
967.0,2929.0,2991.0,2887.0,4095.0,4095.0,2947.0,2585.0,-0.34,9.99,1.96,-0.01,-0.13,-0.07,1.0,u
967.0,2928.0,2991.0,2896.0,4095.0,4095.0,2949.0,2596.0,-0.51,9.7,2.35,-0.03,-0.07,-0.06,1.0,u
963.0,2935.0,2978.0,2910.0,4095.0,4095.0,2955.0,2608.0,-0.37,9.89,1.94,-0.0,0.01,-0.03,1.0,u
960.0,2938.0,2979.0,2915.0,4095.0,4095.0,2948.0,2599.0,-0.46,9.92,2.11,-0.09,0.08,0.01,1.0,u
973.0,2937.0,2978.0,2905.0,4095.0,4095.0,2955.0,2608.0,-0.3,9.86,2.07,-0.06,-0.01,0.0,1.0,u
961.0,2932.0,2989.0,2905.0,4095.0,4095.0,2946.0,2595.0,-0.39,9.56,2.04,-0.05,0.06,-0.01,1.0,u
969.0,2941.0,2981.0,2921.0,4095.0,4095.0,2958.0,2559.0,-0.24,9.88,2.1,-0.03,0.05,-0.02,1.0,u
971.0,2928.0,2989.0,2915.0,4095.0,4095.0,2959.0,2559.0,-0.38,9.98,2.32,0.01,-0.07,0.01,1.0,u
965.0,2939.0,2991.0,2914.0,4095.0,4095.0,2959.0,2608.0,-0.27,9.86,2.09,0.0,-0.03,-0.03,1.0,u
974.0,2939.0,2991.0,2931.0,4095.0,4095.0,2960.0,2595.0,-0.07,9.76,1.92,-0.02,-0.01,-0.06,1.0,u
966.0,2931.0,2992.0,2928.0,4095.0,4095.0,2960.0,2613.0,-0.22,9.7,2.21,-0.06,-0.01,-0.04,1.0,u
965.0,2931.0,2983.0,2928.0,4095.0,4095.0,2960.0,2613.0,-0.29,9.93,1.92,-0.07,0.02,-0.03,1.0,u
966.0,2932.0,2986.0,2937.0,4095.0,4095.0,2957.0,2623.0,-0.23,9.84,1.98,-0.05,-0.03,-0.02,1.0,u
971.0,2922.0,2987.0,2931.0,4095.0,4095.0,2953.0,2627.0,-0.15,9.85,2.02,-0.03,-0.04,-0.05,1.0,u
959.0,2930.0,2981.0,2931.0,4095.0,4095.0,2957.0,2634.0,-0.09,9.92,2.0,0.02,0.04,-0.03,1.0,u
975.0,2929.0,2992.0,2938.0,4095.0,4095.0,2958.0,2640.0,-0.2,9.9,1.75,-0.06,0.0,-0.03,1.0,u
971.0,2942.0,2997.0,2910.0,4095.0,4095.0,2960.0,2635.0,-0.33,9.88,2.05,-0.06,0.02,-0.04,1.0,u
960.0,2943.0,2992.0,2935.0,4095.0,4095.0,2960.0,2636.0,-0.2,9.89,1.98,-0.03,-0.04,-0.02,1.0,u
959.0,2931.0,2991.0,2947.0,4095.0,4095.0,2957.0,2630.0,-0.27,9.92,1.95,-0.05,-0.05,-0.04,1.0,u
966.0,2938.0,2986.0,2948.0,4095.0,4095.0,2959.0,2624.0,-0.19,9.96,1.84,-0.05,-0.05,-0.02,1.0,u
967.0,2941.0,2990.0,2941.0,4095.0,4095.0,2960.0,2638.0,-0.41,9.89,1.82,-0.05,-0.03,-0.0,1.0,u
970.0,2923.0,2981.0,2941.0,4095.0,4095.0,2961.0,2612.0,-0.22,9.92,1.87,-0.04,-0.04,-0.04,1.0,u
976.0,2919.0,2978.0,2943.0,4095.0,4095.0,2965.0,2620.0,-0.33,9.94,1.94,-0.07,-0.01,-0.01,1.0,u
986.0,2932.0,2998.0,2961.0,4095.0,4095.0,2968.0,2635.0,-0.02,9.91,1.84,-0.06,-0.03,-0.03,1.0,u
971.0,2928.0,2979.0,2963.0,4095.0,4095.0,2962.0,2640.0,0.05,10.01,1.83,-0.06,-0.03,-0.01,1.0,u
