hall_1,hall_2,hall_3,flex_t,flex_i,flex_m,flex_r,flex_p,accel_x,accel_y,accel_z,gyro_x,gyro_y,gyro_z,hand,sign
2399.0,2995.0,3003.0,3384.0,4095.0,4095.0,2800.0,2266.0,0.4,9.78,5.14,0.03,-0.02,-0.2,0.0,u
2376.0,2994.0,3007.0,3444.0,4095.0,4095.0,2799.0,2263.0,0.06,9.85,5.06,-0.03,-0.08,-0.21,0.0,u
2237.0,3017.0,3005.0,3491.0,4095.0,4095.0,2798.0,2256.0,0.1,9.83,5.18,0.0,-0.01,-0.14,0.0,u
2111.0,3007.0,2997.0,3371.0,4095.0,4095.0,2803.0,2265.0,0.08,9.85,5.2,-0.01,-0.03,-0.16,0.0,u
2009.0,3004.0,3006.0,3379.0,4095.0,4095.0,2807.0,2274.0,0.09,9.85,5.18,0.04,0.0,-0.14,0.0,u
1919.0,2988.0,2998.0,3481.0,4095.0,4095.0,2803.0,2266.0,0.1,9.92,4.97,0.03,-0.02,-0.16,0.0,u
1719.0,2991.0,2998.0,3382.0,4095.0,4095.0,2803.0,2272.0,-0.02,9.84,5.05,0.05,-0.02,-0.17,0.0,u
1597.0,2993.0,2995.0,3337.0,4095.0,4095.0,2807.0,2273.0,-0.04,9.89,4.98,-0.05,0.01,-0.12,0.0,u
1569.0,3002.0,2995.0,3390.0,4095.0,4095.0,2810.0,2282.0,0.38,9.74,5.39,-0.03,0.02,-0.12,0.0,u
1479.0,2994.0,2992.0,3394.0,4095.0,4095.0,2751.0,2288.0,0.07,9.87,5.02,0.04,0.02,-0.14,0.0,u
1403.0,3011.0,2987.0,3402.0,4095.0,4095.0,2814.0,2283.0,0.11,9.83,4.97,0.04,-0.02,-0.16,0.0,u
1294.0,2992.0,2997.0,3395.0,4095.0,4095.0,2825.0,2278.0,0.28,9.96,5.12,-0.02,-0.01,-0.14,0.0,u
1295.0,3005.0,2993.0,3395.0,4095.0,4095.0,2806.0,2274.0,0.2,9.87,5.03,0.03,0.01,-0.15,0.0,u
1296.0,2997.0,2995.0,3407.0,4095.0,4095.0,2830.0,2276.0,0.24,9.8,5.01,0.01,-0.0,-0.14,0.0,u
1282.0,2992.0,3006.0,3395.0,4095.0,4095.0,2827.0,2272.0,0.26,9.87,5.02,0.01,-0.01,-0.12,0.0,u
1199.0,3009.0,2994.0,3442.0,4095.0,4095.0,2820.0,2283.0,0.25,9.8,5.18,0.02,-0.01,-0.14,0.0,u
1191.0,2991.0,2989.0,3423.0,4095.0,4095.0,2829.0,2288.0,0.34,9.88,5.03,0.02,-0.02,-0.11,0.0,u
1147.0,2992.0,3003.0,3465.0,4095.0,4095.0,2815.0,2279.0,0.25,9.94,5.04,0.0,-0.01,-0.13,0.0,u
1069.0,2992.0,2992.0,3507.0,4095.0,4095.0,2827.0,2285.0,0.29,9.92,4.96,-0.05,-0.02,-0.12,0.0,u
1047.0,2998.0,2994.0,3527.0,4095.0,4095.0,2824.0,2288.0,0.37,9.81,5.14,0.05,0.01,-0.14,0.0,u
1061.0,2997.0,3006.0,3527.0,4095.0,4095.0,2831.0,2290.0,0.28,9.93,4.95,-0.02,-0.02,-0.14,0.0,u
1062.0,3005.0,2995.0,3522.0,4095.0,4095.0,2827.0,2297.0,0.34,9.8,5.06,0.01,0.01,-0.12,0.0,u
1059.0,2992.0,3008.0,3523.0,4095.0,4095.0,2843.0,2289.0,0.49,9.81,5.15,-0.01,-0.05,-0.12,0.0,u
1067.0,2996.0,2999.0,3525.0,4095.0,4095.0,2832.0,2286.0,0.29,9.92,5.07,0.02,-0.05,-0.14,0.0,u
1070.0,2998.0,2997.0,3523.0,4095.0,4095.0,2850.0,2297.0,0.32,9.9,5.08,0.04,-0.05,-0.15,0.0,u
1070.0,3010.0,3002.0,3521.0,4095.0,4095.0,2833.0,2298.0,0.36,9.89,5.06,0.03,0.01,-0.16,0.0,u
1060.0,3007.0,3001.0,3531.0,4095.0,4095.0,2835.0,2297.0,0.37,9.84,4.89,0.02,0.02,-0.16,0.0,u
1072.0,2985.0,3010.0,3526.0,4095.0,4095.0,2835.0,2293.0,0.31,9.83,5.06,0.02,0.01,-0.14,0.0,u
1078.0,2992.0,2995.0,3531.0,4095.0,4095.0,2846.0,2293.0,0.39,9.95,5.06,0.03,0.02,-0.14,0.0,u
1074.0,2997.0,2998.0,3534.0,4095.0,4095.0,2846.0,2297.0,0.5,9.92,4.95,-0.01,-0.02,-0.17,0.0,u
1078.0,2992.0,3005.0,3536.0,4095.0,4095.0,2843.0,2301.0,0.37,9.83,5.0,0.02,0.01,-0.16,0.0,u
1088.0,2990.0,3008.0,3537.0,4095.0,4095.0,2849.0,2302.0,0.3,9.82,5.06,0.03,-0.01,-0.15,0.0,u
1104.0,3002.0,3006.0,3536.0,4095.0,4095.0,2841.0,2298.0,0.42,9.84,5.04,0.01,-0.04,-0.15,0.0,u
1090.0,2995.0,3005.0,3551.0,4095.0,4095.0,2847.0,2291.0,0.35,9.97,4.87,0.01,-0.05,-0.17,0.0,u
1089.0,2999.0,2999.0,3539.0,4095.0,4095.0,2857.0,2289.0,0.21,9.89,5.04,0.02,-0.03,-0.15,0.0,u
1088.0,3001.0,2992.0,3539.0,4095.0,4095.0,2858.0,2295.0,0.32,9.94,5.04,0.0,0.0,-0.17,0.0,u
1213.0,3001.0,3008.0,3551.0,4095.0,4095.0,2838.0,2294.0,0.4,9.84,5.0,0.05,0.06,-0.22,0.0,u
1328.0,3002.0,2999.0,3536.0,4095.0,4095.0,2823.0,2290.0,0.29,9.9,5.05,0.02,-0.0,-0.17,0.0,u
1561.0,2992.0,3005.0,3567.0,4095.0,4095.0,2845.0,2294.0,0.26,9.93,4.82,0.01,0.04,-0.17,0.0,u
1851.0,3011.0,3006.0,3539.0,4095.0,4095.0,2848.0,2296.0,0.39,9.88,5.04,0.03,-0.09,-0.17,0.0,u
1937.0,2985.0,3002.0,3534.0,4095.0,4095.0,2847.0,2282.0,0.31,9.87,4.85,0.04,-0.03,-0.16,0.0,u
1326.0,2993.0,4000.0,3408.0,4095.0,4095.0,2721.0,2372.0,0.12,9.84,4.93,0.03,0.04,-0.17,0.0,u
1337.0,3001.0,3998.0,3414.0,4095.0,4095.0,2723.0,2370.0,-0.15,9.93,5.01,0.04,-0.01,-0.17,0.0,u
1319.0,2999.0,4004.0,3408.0,4095.0,4095.0,2727.0,2384.0,-0.11,9.86,4.92,0.05,0.02,-0.17,0.0,u
1338.0,2997.0,3981.0,3418.0,4095.0,4095.0,2730.0,2379.0,-0.16,9.88,4.94,0.01,-0.03,-0.16,0.0,u
1328.0,2995.0,3995.0,3401.0,4095.0,4095.0,2709.0,2365.0,0.06,9.95,4.91,0.06,-0.03,-0.19,0.0,u
1323.0,2981.0,3973.0,3408.0,4095.0,4095.0,2721.0,2384.0,-0.25,9.93,4.79,0.04,-0.01,-0.14,0.0,u
1333.0,2979.0,3975.0,3418.0,4095.0,4095.0,2729.0,2375.0,-0.2,9.94,4.99,0.01,0.08,-0.15,0.0,u
1333.0,2991.0,3990.0,3406.0,4095.0,4095.0,2734.0,2385.0,0.0,9.89,4.96,0.04,0.01,-0.17,0.0,u
1361.0,3001.0,3997.0,3415.0,4095.0,4095.0,2736.0,2387.0,-0.25,9.87,4.84,0.03,0.03,-0.13,0.0,u
1350.0,2993.0,3977.0,3423.0,4095.0,4095.0,2735.0,2391.0,-0.01,9.94,4.89,0.01,-0.0,-0.14,0.0,u
1357.0,2998.0,3997.0,3408.0,4095.0,4095.0,2741.0,2386.0,-0.2,9.9,4.96,0.02,-0.01,-0.15,0.0,u
1350.0,2998.0,3989.0,3420.0,4095.0,4095.0,2734.0,2387.0,-0.15,9.93,4.86,0.04,0.03,-0.17,0.0,u
1338.0,2983.0,3985.0,3424.0,4095.0,4095.0,2747.0,2385.0,-0.11,9.93,4.86,0.02,-0.03,-0.15,0.0,u
1342.0,2992.0,3987.0,3411.0,4095.0,4095.0,2736.0,2391.0,-0.28,9.84,4.96,0.02,0.0,-0.15,0.0,u
1317.0,3001.0,4003.0,3411.0,4095.0,4095.0,2743.0,2387.0,-0.13,9.83,4.9,0.01,-0.02,-0.15,0.0,u
1318.0,2992.0,3996.0,3408.0,4095.0,4095.0,2738.0,2389.0,-0.21,9.95,4.91,0.03,0.02,-0.15,0.0,u
1319.0,2992.0,3985.0,3411.0,4095.0,4095.0,2746.0,2385.0,-0.06,9.89,4.73,0.02,-0.03,-0.14,0.0,u
1311.0,2992.0,3978.0,3419.0,4095.0,4095.0,2746.0,2387.0,0.12,9.88,4.79,-0.01,-0.03,-0.14,0.0,u
1326.0,2986.0,3984.0,3417.0,4095.0,4095.0,2753.0,2396.0,0.03,9.84,5.02,0.01,-0.03,-0.15,0.0,u
1318.0,3006.0,3998.0,3411.0,4095.0,4095.0,2751.0,2375.0,-0.15,9.86,4.83,0.02,0.03,-0.15,0.0,u
1329.0,3003.0,3987.0,3414.0,4095.0,4095.0,2752.0,2401.0,-0.2,9.81,4.88,0.01,-0.02,-0.14,0.0,u
1328.0,2999.0,3977.0,3425.0,4095.0,4095.0,2704.0,2399.0,0.18,9.79,4.89,0.01,0.01,-0.16,0.0,u
1328.0,2996.0,3989.0,3415.0,4095.0,4095.0,2750.0,2402.0,-0.14,9.85,4.87,0.03,-0.04,-0.15,0.0,u
1343.0,2995.0,4001.0,3418.0,4095.0,4095.0,2751.0,2394.0,-0.19,9.94,4.74,0.03,-0.0,-0.15,0.0,u
1342.0,2992.0,3968.0,3415.0,4095.0,4095.0,2759.0,2396.0,-0.17,9.91,4.84,0.01,-0.01,-0.15,0.0,u
1329.0,3001.0,4002.0,3423.0,4095.0,4095.0,2765.0,2391.0,-0.09,9.9,4.81,0.03,-0.03,-0.16,0.0,u
1361.0,2997.0,3969.0,3415.0,4095.0,4095.0,2759.0,2401.0,-0.21,9.94,4.85,0.06,-0.02,-0.16,0.0,u
1349.0,2995.0,3975.0,3419.0,4095.0,4095.0,2752.0,2410.0,-0.09,9.9,4.71,0.03,-0.0,-0.17,0.0,u
1360.0,2995.0,3984.0,3418.0,4095.0,4095.0,2755.0,2399.0,-0.17,9.84,4.78,0.02,-0.01,-0.14,0.0,u
1351.0,2978.0,3976.0,3415.0,4095.0,4095.0,2752.0,2400.0,-0.07,9.88,4.74,0.03,0.02,-0.15,0.0,u
1347.0,2990.0,3977.0,3408.0,4095.0,4095.0,2757.0,2410.0,-0.11,9.84,4.81,0.03,-0.02,-0.16,0.0,u
1354.0,2994.0,3979.0,3408.0,4095.0,4095.0,2757.0,2414.0,-0.06,9.84,4.79,-0.01,-0.02,-0.15,0.0,u
1351.0,2993.0,3984.0,3428.0,4095.0,4095.0,2755.0,2412.0,-0.08,9.9,4.64,0.0,-0.01,-0.14,0.0,u
1354.0,2994.0,4002.0,3409.0,4095.0,4095.0,2764.0,2402.0,-0.14,9.9,4.81,0.01,0.0,-0.15,0.0,u
1355.0,2989.0,3984.0,3408.0,4095.0,4095.0,2766.0,2404.0,-0.13,9.9,4.8,0.03,-0.01,-0.17,0.0,u
1348.0,2999.0,3993.0,3417.0,4095.0,4095.0,2759.0,2409.0,-0.0,9.9,4.74,0.03,-0.02,-0.16,0.0,u
1349.0,2997.0,3979.0,3414.0,4095.0,4095.0,2757.0,2406.0,-0.21,9.88,4.8,0.02,0.0,-0.14,0.0,u
1352.0,3003.0,3996.0,3413.0,4095.0,4095.0,2766.0,2406.0,-0.01,9.89,4.74,0.03,0.02,-0.16,0.0,u
1360.0,2997.0,3987.0,3406.0,4095.0,4095.0,2773.0,2413.0,-0.08,9.92,4.74,0.04,-0.01,-0.16,0.0,u
1363.0,2994.0,3967.0,3410.0,4095.0,4095.0,2761.0,2414.0,-0.06,9.89,4.72,0.01,-0.01,-0.16,0.0,u
1367.0,3001.0,3990.0,3409.0,4095.0,4095.0,2768.0,2405.0,-0.2,9.94,4.7,0.01,-0.05,-0.15,0.0,u
3387.0,2973.0,3037.0,3418.0,4095.0,4095.0,2559.0,2043.0,-0.1,9.87,5.64,0.01,0.07,-0.15,0.0,u
3377.0,2971.0,3032.0,3422.0,4095.0,4095.0,2559.0,2037.0,-0.07,9.9,5.55,0.04,0.02,-0.14,0.0,u
3378.0,2987.0,3038.0,3408.0,4095.0,4095.0,2559.0,2047.0,-0.1,9.82,5.62,0.03,-0.02,-0.16,0.0,u
3372.0,2962.0,3035.0,3408.0,4095.0,4095.0,2559.0,2054.0,-0.11,9.79,5.6,0.03,0.01,-0.17,0.0,u
3389.0,2966.0,3030.0,3408.0,4095.0,4095.0,2559.0,2055.0,-0.03,9.82,5.54,0.01,0.02,-0.14,0.0,u
3376.0,2981.0,3032.0,3408.0,4095.0,4095.0,2559.0,2061.0,-0.04,9.84,5.58,0.03,-0.02,-0.16,0.0,u
3376.0,2970.0,3033.0,3419.0,4095.0,4095.0,2559.0,2059.0,-0.15,9.83,5.59,0.01,0.02,-0.16,0.0,u
3378.0,2966.0,3041.0,3408.0,4095.0,4095.0,2559.0,2057.0,-0.14,9.85,5.6,0.03,0.01,-0.16,0.0,u
3382.0,2973.0,3044.0,3417.0,4095.0,4095.0,2559.0,2047.0,-0.21,9.8,5.61,0.03,0.06,-0.15,0.0,u
3371.0,2971.0,3034.0,3411.0,4095.0,4095.0,2581.0,2059.0,-0.24,9.83,5.6,0.03,0.02,-0.15,0.0,u
3365.0,2987.0,3045.0,3406.0,4095.0,4095.0,2578.0,2064.0,-0.23,9.8,5.59,0.01,0.01,-0.15,0.0,u
3387.0,2973.0,3031.0,3411.0,4095.0,4095.0,2580.0,2064.0,-0.13,9.79,5.62,0.01,0.08,-0.14,0.0,u
3385.0,2966.0,3043.0,3399.0,4095.0,4095.0,2583.0,2067.0,-0.15,9.83,5.65,0.02,0.06,-0.14,0.0,u
3391.0,2970.0,3041.0,3407.0,4095.0,4095.0,2559.0,2066.0,-0.17,9.84,5.45,0.03,0.03,-0.13,0.0,u
3407.0,2971.0,3027.0,3408.0,4095.0,4095.0,2586.0,2070.0,-0.03,9.81,5.54,-0.03,0.07,-0.13,0.0,u
3411.0,2966.0,3055.0,3410.0,4095.0,4095.0,2586.0,2077.0,0.06,9.81,5.67,-0.03,0.01,-0.16,0.0,u
3426.0,2985.0,3033.0,3411.0,4095.0,4095.0,2587.0,2071.0,-0.16,9.81,5.67,0.04,-0.02,-0.14,0.0,u
3408.0,2973.0,3037.0,3408.0,4095.0,4095.0,2588.0,2081.0,-0.16,9.83,5.62,0.02,-0.01,-0.13,0.0,u
3411.0,2967.0,3028.0,3419.0,4095.0,4095.0,2608.0,2082.0,-0.03,9.8,5.61,0.01,-0.0,-0.15,0.0,u
3408.0,2967.0,3043.0,3418.0,4095.0,4095.0,2589.0,2079.0,-0.03,9.83,5.53,0.03,0.02,-0.15,0.0,u
3392.0,2970.0,3037.0,3430.0,4095.0,4095.0,2589.0,2081.0,-0.18,9.76,5.5,0.01,0.03,-0.11,0.0,u
3399.0,2975.0,3043.0,3437.0,4095.0,4095.0,2591.0,2083.0,0.14,9.89,5.55,0.01,0.04,-0.14,0.0,u
3406.0,2978.0,3038.0,3438.0,4095.0,4095.0,2597.0,2087.0,-0.15,9.8,5.69,0.04,0.02,-0.13,0.0,u
3402.0,2967.0,3039.0,3439.0,4095.0,4095.0,2592.0,2085.0,-0.08,9.85,5.49,0.02,-0.04,-0.14,0.0,u
3374.0,2978.0,3040.0,3425.0,4095.0,4095.0,2595.0,2087.0,0.06,9.84,5.55,-0.0,-0.01,-0.16,0.0,u
3376.0,2981.0,3037.0,3435.0,4095.0,4095.0,2593.0,2081.0,-0.05,9.8,5.59,0.03,-0.01,-0.15,0.0,u
3367.0,2974.0,3045.0,3438.0,4095.0,4095.0,2599.0,2086.0,-0.08,9.86,5.56,0.03,-0.01,-0.15,0.0,u
3363.0,2990.0,3043.0,3440.0,4095.0,4095.0,2613.0,2082.0,-0.01,9.83,5.58,0.01,-0.05,-0.15,0.0,u
3363.0,2971.0,3041.0,3422.0,4095.0,4095.0,2598.0,2094.0,-0.02,9.82,5.53,0.04,-0.0,-0.16,0.0,u
3366.0,2967.0,3036.0,3429.0,4095.0,4095.0,2603.0,2087.0,-0.06,9.83,5.53,-0.0,-0.03,-0.16,0.0,u
3363.0,2978.0,3035.0,3419.0,4095.0,4095.0,2603.0,2094.0,0.03,9.87,5.52,0.01,0.02,-0.13,0.0,u
3375.0,2987.0,3043.0,3440.0,4095.0,4095.0,2602.0,2092.0,-0.08,9.82,5.51,0.01,0.02,-0.15,0.0,u
3365.0,2975.0,3042.0,3435.0,4095.0,4095.0,2601.0,2096.0,-0.07,9.83,5.57,0.01,-0.01,-0.15,0.0,u
3350.0,2966.0,3037.0,3440.0,4095.0,4095.0,2605.0,2096.0,-0.01,9.86,5.61,0.02,0.01,-0.15,0.0,u
3350.0,2971.0,3035.0,3440.0,4095.0,4095.0,2596.0,2096.0,0.11,9.79,5.4,0.03,0.06,-0.16,0.0,u
3344.0,2965.0,3043.0,3440.0,4095.0,4095.0,2608.0,2097.0,-0.01,9.79,5.65,0.02,0.01,-0.14,0.0,u
3350.0,2962.0,3024.0,3444.0,4095.0,4095.0,2605.0,2109.0,0.01,9.87,5.48,0.02,-0.02,-0.15,0.0,u
3345.0,2977.0,3036.0,3444.0,4095.0,4095.0,2607.0,2095.0,0.02,9.84,5.45,0.03,-0.01,-0.15,0.0,u
3334.0,2968.0,3037.0,3447.0,4095.0,4095.0,2603.0,2095.0,-0.02,9.82,5.54,0.01,-0.02,-0.15,0.0,u
3319.0,2971.0,3029.0,3440.0,4095.0,4095.0,2608.0,2095.0,-0.03,9.86,5.33,-0.04,-0.0,-0.13,0.0,u
3325.0,2981.0,3033.0,3441.0,4095.0,4095.0,2610.0,2096.0,0.1,9.78,5.72,0.01,0.01,-0.13,0.0,u
3475.0,2983.0,2953.0,3477.0,4095.0,4095.0,2365.0,2142.0,0.29,9.83,5.3,0.01,0.02,-0.15,0.0,u
3472.0,2992.0,2960.0,3481.0,4095.0,4095.0,2371.0,2135.0,0.26,9.85,5.3,0.01,-0.01,-0.15,0.0,u
3486.0,2971.0,2956.0,3473.0,4095.0,4095.0,2368.0,2143.0,0.27,9.93,5.21,0.02,0.01,-0.14,0.0,u
3535.0,2986.0,2958.0,3481.0,4095.0,4095.0,2374.0,2138.0,0.37,9.86,5.3,-0.01,-0.13,-0.16,0.0,u
3536.0,2978.0,2955.0,3487.0,4095.0,4095.0,2372.0,2144.0,0.31,9.9,5.24,0.03,0.05,-0.17,0.0,u
3536.0,2981.0,2959.0,3491.0,4095.0,4095.0,2371.0,2142.0,0.2,9.83,5.38,0.01,0.01,-0.15,0.0,u
3531.0,2976.0,2949.0,3486.0,4095.0,4095.0,2369.0,2139.0,0.28,9.93,5.19,0.02,0.03,-0.16,0.0,u
3523.0,2978.0,2949.0,3479.0,4095.0,4095.0,2377.0,2135.0,0.19,9.84,5.3,0.01,-0.08,-0.15,0.0,u
3519.0,2990.0,2951.0,3483.0,4095.0,4095.0,2379.0,2142.0,0.19,9.85,5.34,0.01,0.03,-0.15,0.0,u
3536.0,2981.0,2960.0,3483.0,4095.0,4095.0,2381.0,2133.0,0.19,9.81,5.34,0.01,-0.0,-0.15,0.0,u
3522.0,2973.0,2959.0,3494.0,4095.0,4095.0,2375.0,2145.0,0.14,9.88,5.27,0.03,-0.05,-0.14,0.0,u
3530.0,2992.0,2949.0,3479.0,4095.0,4095.0,2379.0,2138.0,0.3,9.88,5.26,0.02,0.03,-0.15,0.0,u
3522.0,2977.0,2959.0,3504.0,4095.0,4095.0,2384.0,2145.0,0.29,9.88,5.31,-0.0,0.02,-0.16,0.0,u
3535.0,2989.0,2957.0,3494.0,4095.0,4095.0,2385.0,2143.0,0.33,9.9,5.2,0.03,0.01,-0.16,0.0,u
3527.0,2971.0,2944.0,3506.0,4095.0,4095.0,2375.0,2151.0,0.35,9.86,5.28,0.0,-0.03,-0.16,0.0,u
3525.0,2976.0,2965.0,3519.0,4095.0,4095.0,2382.0,2146.0,0.29,9.91,5.34,0.02,-0.08,-0.13,0.0,u
3511.0,2983.0,2946.0,3514.0,4095.0,4095.0,2384.0,2150.0,0.26,9.88,5.29,0.0,0.04,-0.15,0.0,u
3523.0,2983.0,2963.0,3515.0,4095.0,4095.0,2384.0,2146.0,0.14,9.85,5.22,0.0,-0.01,-0.16,0.0,u
3521.0,2990.0,2950.0,3514.0,4095.0,4095.0,2384.0,2150.0,0.27,9.87,5.35,0.01,-0.05,-0.14,0.0,u
3486.0,2975.0,2960.0,3507.0,4095.0,4095.0,2386.0,2151.0,0.2,9.91,5.33,0.02,-0.0,-0.16,0.0,u
3504.0,2981.0,2964.0,3517.0,4095.0,4095.0,2386.0,2151.0,0.28,9.9,5.21,0.0,-0.02,-0.16,0.0,u
3510.0,2978.0,2956.0,3506.0,4095.0,4095.0,2384.0,2155.0,0.2,9.95,5.27,0.01,0.0,-0.14,0.0,u
3490.0,2975.0,2960.0,3506.0,4095.0,4095.0,2384.0,2146.0,0.34,9.86,5.38,0.03,-0.03,-0.17,0.0,u
3489.0,2986.0,2956.0,3511.0,4095.0,4095.0,2386.0,2151.0,0.16,9.86,5.25,0.03,0.01,-0.15,0.0,u
3494.0,2973.0,2954.0,3516.0,4095.0,4095.0,2383.0,2155.0,0.27,9.94,5.25,0.01,-0.0,-0.14,0.0,u
3472.0,2988.0,2960.0,3515.0,4095.0,4095.0,2385.0,2150.0,0.31,9.87,5.31,0.02,-0.04,-0.15,0.0,u
3485.0,2981.0,2949.0,3515.0,4095.0,4095.0,2384.0,2154.0,0.12,9.86,5.39,0.01,-0.05,-0.15,0.0,u
3471.0,2973.0,2963.0,3521.0,4095.0,4095.0,2390.0,2157.0,0.17,9.84,5.4,0.02,-0.01,-0.14,0.0,u
3465.0,2971.0,2957.0,3519.0,4095.0,4095.0,2417.0,2159.0,0.23,9.86,5.34,0.02,0.02,-0.15,0.0,u
3460.0,2974.0,2965.0,3520.0,4095.0,4095.0,2394.0,2155.0,0.16,9.83,5.43,0.03,-0.02,-0.15,0.0,u
3450.0,2977.0,2961.0,3536.0,4095.0,4095.0,2399.0,2161.0,0.2,9.84,5.33,0.01,0.01,-0.16,0.0,u
3455.0,2974.0,2962.0,3536.0,4095.0,4095.0,2396.0,2163.0,0.26,9.84,5.31,0.02,0.0,-0.16,0.0,u
3456.0,2979.0,2958.0,3531.0,4095.0,4095.0,2400.0,2167.0,0.25,9.84,5.35,0.02,0.02,-0.15,0.0,u
3456.0,2974.0,2954.0,3525.0,4095.0,4095.0,2398.0,2171.0,0.28,9.9,5.25,0.03,0.02,-0.15,0.0,u
3439.0,2975.0,2958.0,3521.0,4095.0,4095.0,2399.0,2160.0,0.26,9.87,5.22,-0.01,-0.01,-0.15,0.0,u
3453.0,2974.0,2960.0,3525.0,4095.0,4095.0,2397.0,2166.0,0.31,9.87,5.3,0.01,0.01,-0.14,0.0,u
3431.0,2992.0,2955.0,3531.0,4095.0,4095.0,2402.0,2170.0,0.32,9.86,5.34,0.03,-0.02,-0.16,0.0,u
3439.0,2969.0,2966.0,3522.0,4095.0,4095.0,2403.0,2173.0,0.23,9.88,5.26,0.02,-0.01,-0.14,0.0,u
3418.0,2975.0,2954.0,3526.0,4095.0,4095.0,2399.0,2173.0,0.25,9.9,5.29,0.01,0.0,-0.15,0.0,u
3426.0,2990.0,2944.0,3532.0,4095.0,4095.0,2400.0,2173.0,0.24,9.92,5.35,0.02,-0.01,-0.16,0.0,u
3418.0,2983.0,2963.0,3535.0,4095.0,4095.0,2395.0,2167.0,0.2,9.9,5.29,0.02,-0.03,-0.15,0.0,u
3559.0,2979.0,3154.0,3449.0,4095.0,4095.0,2754.0,2119.0,0.19,9.82,5.11,0.01,0.01,-0.15,0.0,u
3554.0,2967.0,3167.0,3440.0,4095.0,4095.0,2753.0,2119.0,0.11,9.86,5.2,0.01,0.0,-0.16,0.0,u
3539.0,2971.0,3174.0,3461.0,4095.0,4095.0,2753.0,2126.0,0.19,9.87,4.97,0.02,-0.02,-0.14,0.0,u
3551.0,2970.0,3169.0,3441.0,4095.0,4095.0,2754.0,2128.0,0.18,9.87,5.14,0.03,0.0,-0.18,0.0,u
3538.0,2980.0,3170.0,3442.0,4095.0,4095.0,2757.0,2123.0,0.03,9.88,5.05,-0.02,0.02,-0.16,0.0,u
3571.0,2966.0,3179.0,3440.0,4095.0,4095.0,2754.0,2078.0,-0.03,9.82,5.27,0.06,-0.04,-0.13,0.0,u
3552.0,2978.0,3164.0,3437.0,4095.0,4095.0,2751.0,2128.0,0.12,9.87,5.0,0.02,0.04,-0.16,0.0,u
3536.0,2962.0,3175.0,3442.0,4095.0,4095.0,2753.0,2131.0,0.17,9.84,5.08,0.01,0.01,-0.14,0.0,u
3551.0,2967.0,3171.0,3439.0,4095.0,4095.0,2758.0,2130.0,0.09,9.94,5.07,0.0,-0.02,-0.16,0.0,u
3541.0,2971.0,3167.0,3436.0,4095.0,4095.0,2758.0,2130.0,0.11,9.9,5.09,0.02,-0.0,-0.16,0.0,u
3559.0,2965.0,3169.0,3440.0,4095.0,4095.0,2766.0,2140.0,0.06,9.87,5.0,0.01,-0.07,-0.15,0.0,u
3548.0,2975.0,3162.0,3437.0,4095.0,4095.0,2754.0,2143.0,0.19,9.86,5.16,0.0,0.0,-0.15,0.0,u
3545.0,2975.0,3169.0,3442.0,4095.0,4095.0,2761.0,2144.0,0.18,9.86,5.14,0.02,0.01,-0.16,0.0,u
3559.0,2985.0,3154.0,3440.0,4095.0,4095.0,2767.0,2139.0,-0.01,9.91,5.05,-0.01,-0.01,-0.15,0.0,u
3562.0,2977.0,3168.0,3440.0,4095.0,4095.0,2753.0,2157.0,0.16,9.85,5.2,-0.01,0.04,-0.14,0.0,u
3564.0,2970.0,3169.0,3441.0,4095.0,4095.0,2759.0,2141.0,0.16,9.86,5.17,0.01,0.0,-0.17,0.0,u
3566.0,2982.0,3174.0,3445.0,4095.0,4095.0,2754.0,2145.0,0.06,9.89,5.06,0.0,0.02,-0.15,0.0,u
3566.0,2975.0,3171.0,3443.0,4095.0,4095.0,2766.0,2145.0,0.09,9.88,5.13,-0.03,0.01,-0.14,0.0,u
3566.0,2960.0,3168.0,3445.0,4095.0,4095.0,2765.0,2146.0,0.14,9.84,5.16,-0.0,-0.01,-0.15,0.0,u
3541.0,2970.0,3170.0,3460.0,4095.0,4095.0,2763.0,2147.0,0.1,9.87,5.21,0.01,-0.01,-0.14,0.0,u
3567.0,2975.0,3162.0,3461.0,4095.0,4095.0,2763.0,2154.0,-0.03,9.89,5.01,0.01,-0.01,-0.15,0.0,u
3557.0,2983.0,3177.0,3455.0,4095.0,4095.0,2761.0,2153.0,0.3,9.82,5.18,0.01,0.01,-0.12,0.0,u
3547.0,2988.0,3163.0,3449.0,4095.0,4095.0,2759.0,2160.0,-0.03,9.91,5.2,0.02,-0.02,-0.16,0.0,u
3534.0,2979.0,3175.0,3446.0,4095.0,4095.0,2764.0,2155.0,0.17,9.88,5.22,0.03,-0.03,-0.13,0.0,u
3530.0,2988.0,3179.0,3453.0,4095.0,4095.0,2765.0,2153.0,0.1,9.86,5.12,0.01,0.0,-0.15,0.0,u
3545.0,2980.0,3155.0,3457.0,4095.0,4095.0,2766.0,2151.0,0.16,9.86,5.11,0.01,0.01,-0.15,0.0,u
3546.0,2979.0,3170.0,3453.0,4095.0,4095.0,2759.0,2158.0,0.07,9.93,5.23,-0.0,-0.01,-0.15,0.0,u
3522.0,2976.0,3174.0,3458.0,4095.0,4095.0,2766.0,2158.0,0.13,9.87,5.09,0.02,-0.03,-0.16,0.0,u
3531.0,2977.0,3159.0,3447.0,4095.0,4095.0,2763.0,2160.0,0.12,9.92,5.11,0.02,0.0,-0.15,0.0,u
3534.0,2973.0,3156.0,3457.0,4095.0,4095.0,2760.0,2159.0,0.19,9.96,5.15,0.03,0.01,-0.14,0.0,u
3525.0,2979.0,3175.0,3449.0,4095.0,4095.0,2766.0,2160.0,0.09,9.9,5.1,0.03,0.03,-0.16,0.0,u
3521.0,2980.0,3178.0,3445.0,4095.0,4095.0,2768.0,2161.0,0.08,9.94,5.12,0.03,-0.03,-0.16,0.0,u
3536.0,2969.0,3178.0,3441.0,4095.0,4095.0,2736.0,2160.0,0.13,9.9,5.16,0.01,0.02,-0.14,0.0,u
3520.0,2963.0,3174.0,3453.0,4095.0,4095.0,2768.0,2160.0,0.13,9.82,5.23,0.04,-0.0,-0.15,0.0,u
3517.0,2976.0,3167.0,3455.0,4095.0,4095.0,2768.0,2162.0,0.1,9.81,5.12,0.0,0.0,-0.16,0.0,u
3536.0,2967.0,3167.0,3447.0,4095.0,4095.0,2768.0,2162.0,0.14,9.86,5.15,0.01,-0.0,-0.15,0.0,u
3536.0,2971.0,3152.0,3447.0,4095.0,4095.0,2773.0,2163.0,0.19,9.84,5.09,0.02,0.01,-0.15,0.0,u
3534.0,2966.0,3163.0,3449.0,4095.0,4095.0,2768.0,2171.0,0.26,9.85,5.15,0.01,-0.03,-0.16,0.0,u
3535.0,2976.0,3166.0,3450.0,4095.0,4095.0,2768.0,2170.0,0.15,9.86,5.14,0.01,-0.0,-0.15,0.0,u
3530.0,2974.0,3174.0,3455.0,4095.0,4095.0,2769.0,2170.0,0.18,9.83,5.11,0.01,0.02,-0.17,0.0,u
3510.0,2974.0,3157.0,3453.0,4095.0,4095.0,2769.0,2175.0,0.12,9.85,5.21,0.01,0.0,-0.14,0.0,u
1297.0,2935.0,3013.0,3297.0,4095.0,4095.0,2287.0,1946.0,-0.89,9.73,5.76,0.02,-0.0,-0.15,0.0,u
1291.0,2923.0,3008.0,3296.0,4095.0,4095.0,2278.0,1935.0,-0.85,9.72,5.74,0.02,-0.02,-0.16,0.0,u
1290.0,2939.0,3007.0,3302.0,4095.0,4095.0,2288.0,1951.0,-0.91,9.71,5.67,0.02,0.01,-0.14,0.0,u
1294.0,2926.0,3005.0,3306.0,4095.0,4095.0,2288.0,1947.0,-0.93,9.67,5.63,-0.0,-0.02,-0.14,0.0,u
1289.0,2930.0,3011.0,3307.0,4095.0,4095.0,2292.0,1943.0,-0.68,9.78,5.72,0.01,-0.0,-0.14,0.0,u
1295.0,2927.0,3017.0,3301.0,4095.0,4095.0,2289.0,1953.0,-0.86,9.65,5.83,-0.01,0.03,-0.14,0.0,u
1279.0,2928.0,3003.0,3306.0,4095.0,4095.0,2262.0,1951.0,-0.69,9.82,5.72,0.05,-0.01,-0.15,0.0,u
1286.0,2934.0,3011.0,3311.0,4095.0,4095.0,2298.0,1949.0,-0.89,9.72,5.66,0.02,-0.05,-0.15,0.0,u
1296.0,2929.0,3003.0,3312.0,4095.0,4095.0,2291.0,1957.0,-0.82,9.69,5.74,0.05,-0.07,-0.17,0.0,u
1289.0,2941.0,3020.0,3315.0,4095.0,4095.0,2295.0,1951.0,-0.76,9.61,5.9,0.06,-0.05,-0.15,0.0,u
1289.0,2929.0,3017.0,3319.0,4095.0,4095.0,2303.0,1954.0,-0.9,9.71,5.83,0.03,-0.03,-0.14,0.0,u
1278.0,2937.0,3008.0,3314.0,4095.0,4095.0,2304.0,1957.0,-0.85,9.67,5.72,0.01,0.03,-0.14,0.0,u
1286.0,2929.0,2998.0,3329.0,4095.0,4095.0,2302.0,1955.0,-0.89,9.63,5.98,-0.01,0.02,-0.14,0.0,u
1278.0,2945.0,3017.0,3317.0,4095.0,4095.0,2302.0,1957.0,-0.85,9.83,5.57,-0.0,-0.0,-0.13,0.0,u
1283.0,2944.0,3016.0,3318.0,4095.0,4095.0,2299.0,1962.0,-0.78,9.77,5.67,0.06,-0.01,-0.14,0.0,u
1283.0,2939.0,3010.0,3319.0,4095.0,4095.0,2298.0,1957.0,-0.79,9.72,5.83,0.03,0.02,-0.15,0.0,u
1287.0,2943.0,3021.0,3317.0,4095.0,4095.0,2302.0,1965.0,-0.81,9.78,5.77,0.04,-0.06,-0.16,0.0,u
1290.0,2929.0,3009.0,3327.0,4095.0,4095.0,2299.0,1966.0,-0.79,9.72,5.6,0.03,0.02,-0.16,0.0,u
1282.0,2942.0,3018.0,3312.0,4095.0,4095.0,2302.0,1961.0,-0.7,9.79,5.71,0.0,0.01,-0.15,0.0,u
1276.0,2948.0,3007.0,3328.0,4095.0,4095.0,2300.0,1961.0,-0.75,9.76,5.71,0.03,0.02,-0.15,0.0,u
1281.0,2939.0,3015.0,3335.0,4095.0,4095.0,2306.0,1966.0,-0.77,9.73,5.69,0.02,0.03,-0.16,0.0,u
1280.0,2933.0,3006.0,3333.0,4095.0,4095.0,2311.0,1959.0,-0.84,9.74,5.66,0.01,-0.03,-0.14,0.0,u
1277.0,2933.0,3017.0,3335.0,4095.0,4095.0,2308.0,1968.0,-0.62,9.68,5.72,0.02,-0.02,-0.15,0.0,u
1290.0,2930.0,3007.0,3345.0,4095.0,4095.0,2317.0,1968.0,-0.79,9.77,5.66,0.01,-0.02,-0.15,0.0,u
1287.0,2950.0,3023.0,3348.0,4095.0,4095.0,2313.0,1971.0,-0.72,9.73,5.64,0.01,-0.0,-0.16,0.0,u
1293.0,2935.0,3019.0,3344.0,4095.0,4095.0,2317.0,1969.0,-0.81,9.78,5.61,0.01,0.01,-0.15,0.0,u
1303.0,2943.0,3020.0,3344.0,4095.0,4095.0,2305.0,1968.0,-0.59,9.76,5.7,-0.02,0.01,-0.17,0.0,u
1296.0,2937.0,3005.0,3353.0,4095.0,4095.0,2309.0,1969.0,-0.72,9.81,5.56,0.03,0.0,-0.15,0.0,u
1297.0,2930.0,3019.0,3348.0,4095.0,4095.0,2311.0,1970.0,-0.72,9.8,5.56,-0.01,0.01,-0.15,0.0,u
1302.0,2943.0,3008.0,3364.0,4095.0,4095.0,2311.0,1972.0,-0.61,9.76,5.61,0.02,-0.06,-0.17,0.0,u
1321.0,2933.0,3019.0,3355.0,4095.0,4095.0,2315.0,1984.0,-0.87,9.81,5.64,0.03,-0.02,-0.17,0.0,u
1319.0,2934.0,3015.0,3371.0,4095.0,4095.0,2313.0,1977.0,-0.77,9.73,5.69,0.01,-0.01,-0.16,0.0,u
1329.0,2935.0,3009.0,3374.0,4095.0,4095.0,2310.0,1981.0,-0.72,9.63,5.72,0.01,-0.01,-0.15,0.0,u
1325.0,2931.0,3018.0,3372.0,4095.0,4095.0,2318.0,1982.0,-0.78,9.74,5.67,0.0,0.01,-0.14,0.0,u
1327.0,2941.0,3019.0,3374.0,4095.0,4095.0,2317.0,1987.0,-0.77,9.77,5.74,-0.01,-0.01,-0.13,0.0,u
1315.0,2937.0,3018.0,3371.0,4095.0,4095.0,2315.0,1989.0,-0.76,9.84,5.77,0.02,-0.0,-0.17,0.0,u
1312.0,2943.0,3009.0,3376.0,4095.0,4095.0,2323.0,1987.0,-0.8,9.71,5.65,0.03,0.03,-0.17,0.0,u
1319.0,2933.0,3024.0,3382.0,4095.0,4095.0,2322.0,1991.0,-0.68,9.71,5.69,0.01,0.0,-0.15,0.0,u
1306.0,2951.0,3019.0,3382.0,4095.0,4095.0,2323.0,1994.0,-0.76,9.76,5.71,0.01,0.0,-0.13,0.0,u
1312.0,2954.0,3013.0,3376.0,4095.0,4095.0,2323.0,1991.0,-0.76,9.81,5.66,0.0,-0.03,-0.14,0.0,u
1311.0,2935.0,3029.0,3385.0,4095.0,4095.0,2321.0,1990.0,-0.8,9.73,5.72,0.02,0.01,-0.14,0.0,u
1381.0,2950.0,2928.0,3299.0,4095.0,4095.0,2288.0,2117.0,0.25,9.86,5.58,0.02,0.01,-0.13,0.0,u
1370.0,2943.0,2922.0,3297.0,4095.0,4095.0,2299.0,2122.0,0.23,9.92,5.71,0.03,-0.03,-0.18,0.0,u
1385.0,2964.0,2924.0,3290.0,4095.0,4095.0,2288.0,2118.0,0.06,9.76,5.82,0.04,-0.05,-0.16,0.0,u
1375.0,2949.0,2914.0,3287.0,4095.0,4095.0,2298.0,2118.0,0.19,9.88,5.48,0.08,-0.01,-0.12,0.0,u
1360.0,2955.0,2930.0,3287.0,4095.0,4095.0,2302.0,2126.0,0.5,9.83,5.77,0.05,-0.01,-0.16,0.0,u
1377.0,2945.0,2928.0,3293.0,4095.0,4095.0,2299.0,2128.0,0.09,9.8,5.61,0.01,-0.01,-0.21,0.0,u
1385.0,2957.0,2917.0,3278.0,4095.0,4095.0,2304.0,2127.0,-0.06,9.85,5.37,-0.03,-0.02,-0.19,0.0,u
1387.0,2953.0,2923.0,3280.0,4095.0,4095.0,2297.0,2127.0,0.2,9.87,5.63,-0.03,0.03,-0.17,0.0,u
1378.0,2970.0,2929.0,3280.0,4095.0,4095.0,2310.0,2128.0,-0.23,9.77,5.32,-0.02,-0.04,-0.13,0.0,u
1387.0,2955.0,2928.0,3278.0,4095.0,4095.0,2304.0,2135.0,0.17,10.0,5.62,-0.01,0.06,-0.1,0.0,u
1391.0,2959.0,2928.0,3264.0,4095.0,4095.0,2306.0,2130.0,0.25,9.95,5.61,-0.02,-0.03,-0.18,0.0,u
1393.0,2954.0,2928.0,3275.0,4095.0,4095.0,2305.0,2128.0,0.19,9.74,5.73,-0.0,-0.06,-0.18,0.0,u
1393.0,2965.0,2926.0,3264.0,4095.0,4095.0,2313.0,2131.0,-0.06,9.64,5.98,0.03,-0.08,-0.16,0.0,u
1385.0,2961.0,2918.0,3254.0,4095.0,4095.0,2310.0,2131.0,-0.1,9.83,5.75,0.02,0.0,-0.11,0.0,u
1406.0,2946.0,2921.0,3255.0,4095.0,4095.0,2301.0,2138.0,0.11,9.98,5.46,0.04,-0.0,-0.14,0.0,u
1407.0,2957.0,2923.0,3277.0,4095.0,4095.0,2304.0,2139.0,0.05,9.73,5.89,0.02,-0.01,-0.16,0.0,u
1416.0,2949.0,2927.0,3264.0,4095.0,4095.0,2311.0,2141.0,0.51,9.65,5.52,0.03,-0.06,-0.22,0.0,u
1391.0,2953.0,2928.0,3279.0,4095.0,4095.0,2320.0,2151.0,-0.1,9.92,5.56,0.05,-0.01,-0.12,0.0,u
1407.0,2960.0,2930.0,3278.0,4095.0,4095.0,2314.0,2156.0,-0.1,9.99,5.45,-0.01,0.02,-0.14,0.0,u
1410.0,2960.0,2923.0,3273.0,4095.0,4095.0,2315.0,2153.0,0.08,9.83,5.46,0.02,0.04,-0.16,0.0,u
1394.0,2960.0,2921.0,3278.0,4095.0,4095.0,2318.0,2153.0,0.16,9.72,5.69,-0.01,0.01,-0.16,0.0,u
1408.0,2949.0,2922.0,3267.0,4095.0,4095.0,2314.0,2152.0,-0.27,9.93,5.55,0.09,-0.04,-0.1,0.0,u
1415.0,2956.0,2917.0,3264.0,4095.0,4095.0,2320.0,2160.0,0.27,9.84,5.2,-0.01,-0.04,-0.11,0.0,u
1424.0,2946.0,2927.0,3267.0,4095.0,4095.0,2319.0,2161.0,0.11,9.8,5.56,-0.0,0.02,-0.19,0.0,u
1424.0,2946.0,2927.0,3279.0,4095.0,4095.0,2317.0,2162.0,0.12,9.91,5.23,0.01,0.01,-0.16,0.0,u
1423.0,2946.0,2924.0,3282.0,4095.0,4095.0,2320.0,2162.0,0.06,9.79,5.6,0.01,-0.06,-0.11,0.0,u
1414.0,2962.0,2923.0,3289.0,4095.0,4095.0,2327.0,2161.0,0.05,9.81,5.55,-0.06,0.0,-0.11,0.0,u
1408.0,2962.0,2923.0,3292.0,4095.0,4095.0,2323.0,2161.0,0.27,9.94,5.73,0.03,-0.03,-0.16,0.0,u
1411.0,2966.0,2928.0,3286.0,4095.0,4095.0,2325.0,2161.0,0.05,9.9,5.66,0.01,-0.02,-0.16,0.0,u
1409.0,2961.0,2924.0,3283.0,4095.0,4095.0,2321.0,2160.0,0.15,9.83,5.57,0.02,0.03,-0.14,0.0,u
1414.0,2946.0,2917.0,3280.0,4095.0,4095.0,2321.0,2160.0,0.13,9.81,5.34,0.02,0.03,-0.15,0.0,u
1424.0,2959.0,2918.0,3290.0,4095.0,4095.0,2325.0,2163.0,0.17,9.94,5.62,0.04,-0.01,-0.12,0.0,u
1411.0,2953.0,2929.0,3281.0,4095.0,4095.0,2322.0,2165.0,-0.01,9.92,5.57,0.03,0.0,-0.17,0.0,u
1424.0,2945.0,2914.0,3282.0,4095.0,4095.0,2323.0,2167.0,0.2,9.84,5.63,0.01,-0.01,-0.15,0.0,u
1411.0,2960.0,2931.0,3283.0,4095.0,4095.0,2326.0,2170.0,0.17,9.86,5.58,0.02,-0.0,-0.15,0.0,u
1421.0,2959.0,2927.0,3280.0,4095.0,4095.0,2327.0,2167.0,0.16,9.84,5.57,0.04,0.01,-0.14,0.0,u
1411.0,2960.0,2928.0,3293.0,4095.0,4095.0,2332.0,2167.0,0.15,9.97,5.57,-0.0,-0.02,-0.14,0.0,u
1417.0,2951.0,2927.0,3283.0,4095.0,4095.0,2327.0,2170.0,0.17,9.87,5.58,0.02,0.04,-0.14,0.0,u
1394.0,2958.0,2933.0,3285.0,4095.0,4095.0,2329.0,2167.0,0.07,9.92,5.5,0.02,0.01,-0.16,0.0,u
1397.0,2962.0,2928.0,3277.0,4095.0,4095.0,2330.0,2171.0,0.19,9.67,5.66,-0.0,0.03,-0.17,0.0,u
1385.0,2960.0,2930.0,3276.0,4095.0,4095.0,2323.0,2167.0,0.11,9.71,5.53,-0.05,0.06,-0.14,0.0,u
1273.0,2960.0,3254.0,3280.0,4095.0,4095.0,2533.0,2260.0,0.07,9.9,5.23,0.03,-0.03,-0.17,0.0,u
1281.0,2959.0,3253.0,3287.0,4095.0,4095.0,2528.0,2263.0,0.17,9.77,5.22,-0.01,-0.01,-0.18,0.0,u
1287.0,2953.0,3255.0,3293.0,4095.0,4095.0,2533.0,2266.0,-0.1,9.85,5.13,0.05,0.01,-0.15,0.0,u
1296.0,2946.0,3262.0,3275.0,4095.0,4095.0,2531.0,2261.0,0.26,9.74,5.15,-0.06,0.0,-0.12,0.0,u
1289.0,2939.0,3248.0,3271.0,4095.0,4095.0,2521.0,2256.0,0.31,9.83,5.27,0.0,-0.03,-0.1,0.0,u
1301.0,2944.0,3252.0,3265.0,4095.0,4095.0,2533.0,2258.0,0.06,9.79,5.05,0.04,0.01,-0.17,0.0,u
1291.0,2939.0,3243.0,3276.0,4095.0,4095.0,2537.0,2263.0,-0.03,9.79,5.34,-0.03,-0.06,-0.14,0.0,u
1286.0,2953.0,3244.0,3269.0,4095.0,4095.0,2542.0,2266.0,0.31,9.9,5.3,-0.02,-0.03,-0.14,0.0,u
1297.0,2944.0,3245.0,3279.0,4095.0,4095.0,2537.0,2267.0,0.16,9.94,5.14,-0.0,-0.0,-0.16,0.0,u
1303.0,2941.0,3245.0,3274.0,4095.0,4095.0,2539.0,2279.0,0.11,9.99,5.3,-0.01,-0.01,-0.15,0.0,u
1317.0,2951.0,3262.0,3275.0,4095.0,4095.0,2539.0,2279.0,0.13,9.75,5.47,0.08,-0.02,-0.18,0.0,u
1308.0,2951.0,3244.0,3273.0,4095.0,4095.0,2544.0,2288.0,-0.03,9.93,5.25,-0.0,-0.01,-0.15,0.0,u
1331.0,2939.0,3252.0,3269.0,4095.0,4095.0,2545.0,2287.0,0.2,9.88,5.48,0.06,0.0,-0.15,0.0,u
1317.0,2950.0,3250.0,3266.0,4095.0,4095.0,2546.0,2286.0,0.44,9.84,5.29,0.04,-0.0,-0.17,0.0,u
1323.0,2944.0,3238.0,3269.0,4095.0,4095.0,2551.0,2287.0,-0.1,9.93,5.44,0.04,-0.04,-0.18,0.0,u
1321.0,2947.0,3246.0,3278.0,4095.0,4095.0,2547.0,2286.0,0.23,9.7,5.18,0.04,0.02,-0.15,0.0,u
1319.0,2960.0,3249.0,3267.0,4095.0,4095.0,2559.0,2291.0,-0.07,9.94,5.22,-0.0,0.02,-0.13,0.0,u
1315.0,2951.0,3253.0,3250.0,4095.0,4095.0,2558.0,2295.0,0.28,9.86,5.28,0.03,0.03,-0.14,0.0,u
1313.0,2960.0,3257.0,3234.0,4095.0,4095.0,2559.0,2299.0,0.26,9.86,5.26,-0.01,-0.04,-0.17,0.0,u
1318.0,2944.0,3254.0,3255.0,4095.0,4095.0,2559.0,2300.0,0.05,9.79,5.35,0.03,-0.01,-0.16,0.0,u
1323.0,2946.0,3242.0,3256.0,4095.0,4095.0,2559.0,2301.0,0.06,9.85,5.19,0.01,-0.04,-0.16,0.0,u
1327.0,2960.0,3254.0,3269.0,4095.0,4095.0,2559.0,2293.0,0.18,9.9,5.32,0.01,-0.02,-0.16,0.0,u
1329.0,2956.0,3250.0,3264.0,4095.0,4095.0,2559.0,2304.0,0.18,9.79,5.25,0.01,-0.03,-0.16,0.0,u
1338.0,2945.0,3253.0,3273.0,4095.0,4095.0,2559.0,2303.0,0.06,9.92,5.35,0.01,-0.03,-0.13,0.0,u
1349.0,2943.0,3248.0,3275.0,4095.0,4095.0,2559.0,2306.0,0.12,9.86,5.28,0.03,0.03,-0.15,0.0,u
1360.0,2948.0,3243.0,3282.0,4095.0,4095.0,2559.0,2305.0,0.07,9.9,5.32,0.01,-0.01,-0.14,0.0,u
1353.0,2961.0,3247.0,3293.0,4095.0,4095.0,2559.0,2309.0,0.2,9.87,5.29,0.01,0.01,-0.16,0.0,u
1357.0,2944.0,3241.0,3289.0,4095.0,4095.0,2559.0,2304.0,0.13,9.8,5.26,0.02,0.02,-0.15,0.0,u
1353.0,2955.0,3237.0,3294.0,4095.0,4095.0,2559.0,2305.0,0.15,9.93,5.4,0.02,-0.02,-0.14,0.0,u
1335.0,2943.0,3248.0,3263.0,4095.0,4095.0,2559.0,2317.0,0.17,9.81,5.24,0.01,0.01,-0.12,0.0,u
1345.0,2958.0,3261.0,3280.0,4095.0,4095.0,2559.0,2315.0,0.35,9.9,5.38,0.01,-0.02,-0.14,0.0,u
1353.0,2960.0,3241.0,3283.0,4095.0,4095.0,2559.0,2308.0,0.15,9.85,5.28,-0.0,-0.03,-0.15,0.0,u
1366.0,2955.0,3248.0,3290.0,4095.0,4095.0,2559.0,2311.0,0.11,9.93,5.23,-0.03,-0.03,-0.14,0.0,u
1363.0,2960.0,3263.0,3293.0,4095.0,4095.0,2559.0,2314.0,0.36,10.06,5.34,0.06,0.04,-0.15,0.0,u
1383.0,2958.0,3263.0,3305.0,4095.0,4095.0,2582.0,2315.0,0.25,9.92,5.27,0.02,0.02,-0.14,0.0,u
1365.0,2944.0,3250.0,3307.0,4095.0,4095.0,2583.0,2320.0,0.26,9.82,5.27,0.0,-0.01,-0.15,0.0,u
1371.0,2953.0,3253.0,3303.0,4095.0,4095.0,2581.0,2313.0,0.24,9.94,5.36,0.03,0.05,-0.14,0.0,u
1367.0,2955.0,3255.0,3293.0,4095.0,4095.0,2583.0,2313.0,0.23,9.92,5.19,-0.03,0.02,-0.15,0.0,u
1364.0,2945.0,3249.0,3311.0,4095.0,4095.0,2588.0,2320.0,0.27,9.81,5.41,-0.01,0.01,-0.16,0.0,u
1376.0,2949.0,3257.0,3307.0,4095.0,4095.0,2594.0,2320.0,0.23,9.88,5.36,0.0,-0.02,-0.15,0.0,u
1379.0,2951.0,3251.0,3321.0,4095.0,4095.0,2588.0,2320.0,0.34,9.88,5.35,0.01,-0.01,-0.15,0.0,u
