hall_1,hall_2,hall_3,flex_t,flex_i,flex_m,flex_r,flex_p,accel_x,accel_y,accel_z,gyro_x,gyro_y,gyro_z,hand,sign
1066.0,2960.0,3770.0,3356.0,4095.0,4095.0,3280.0,3536.0,2.3,8.97,4.28,-0.09,0.03,-0.02,1.0,u
1067.0,2962.0,3764.0,3344.0,4095.0,4095.0,3279.0,3536.0,2.33,9.1,4.19,-0.05,-0.02,-0.04,1.0,u
1062.0,2955.0,3751.0,3349.0,4095.0,4095.0,3280.0,3525.0,2.32,9.03,4.22,-0.07,-0.01,-0.05,1.0,u
1070.0,2963.0,3760.0,3344.0,4095.0,4095.0,3280.0,3532.0,2.24,9.01,4.23,-0.06,-0.03,-0.06,1.0,u
1059.0,2973.0,3754.0,3346.0,4095.0,4095.0,3283.0,3530.0,2.08,9.12,4.09,-0.06,0.05,-0.07,1.0,u
1063.0,2966.0,3766.0,3345.0,4095.0,4095.0,3282.0,3529.0,2.05,8.99,4.09,-0.07,-0.01,-0.05,1.0,u
1072.0,2965.0,3760.0,3346.0,4095.0,4095.0,3285.0,3537.0,2.11,9.16,4.09,-0.08,0.01,-0.01,1.0,u
1068.0,2961.0,3760.0,3344.0,4095.0,4095.0,3286.0,3531.0,2.22,9.01,4.24,-0.07,-0.01,-0.01,1.0,u
1067.0,2963.0,3776.0,3345.0,4095.0,4095.0,3280.0,3526.0,2.22,9.01,4.24,-0.08,0.04,-0.0,1.0,u
1067.0,2962.0,3777.0,3345.0,4095.0,4095.0,3282.0,3535.0,2.27,8.92,4.29,-0.06,-0.02,-0.01,1.0,u
1055.0,2971.0,3749.0,3345.0,4095.0,4095.0,3283.0,3525.0,2.4,9.1,4.23,-0.07,0.0,-0.04,1.0,u
1071.0,2961.0,3751.0,3345.0,4095.0,4095.0,3282.0,3525.0,2.24,9.0,4.28,-0.03,0.0,-0.06,1.0,u
1074.0,2969.0,3760.0,3337.0,4095.0,4095.0,3281.0,3522.0,2.15,9.09,4.09,-0.04,0.01,-0.05,1.0,u
1079.0,2972.0,3750.0,3334.0,4095.0,4095.0,3291.0,3536.0,2.17,9.03,4.08,-0.08,-0.02,-0.04,1.0,u
1065.0,2974.0,3768.0,3342.0,4095.0,4095.0,3282.0,3535.0,2.13,9.03,4.17,-0.1,-0.0,-0.03,1.0,u
1071.0,2973.0,3766.0,3329.0,4095.0,4095.0,3283.0,3536.0,2.16,9.0,4.38,-0.07,-0.03,-0.02,1.0,u
1061.0,2967.0,3760.0,3340.0,4095.0,4095.0,3290.0,3536.0,2.39,9.09,4.3,-0.05,0.01,-0.02,1.0,u
1069.0,2960.0,3759.0,3334.0,4095.0,4095.0,3285.0,3535.0,2.36,9.02,4.13,-0.05,0.01,-0.04,1.0,u
1063.0,2963.0,3760.0,3343.0,4095.0,4095.0,3295.0,3536.0,2.31,9.06,4.13,-0.07,-0.01,-0.04,1.0,u
1069.0,2965.0,3767.0,3344.0,4095.0,4095.0,3287.0,3527.0,2.26,8.99,4.24,-0.08,-0.0,-0.04,1.0,u
1103.0,2973.0,3779.0,3334.0,4095.0,4095.0,3296.0,3543.0,-4.04,7.62,5.94,-0.3,-0.0,-0.17,1.0,u
1094.0,2973.0,3776.0,3341.0,4095.0,4095.0,3298.0,3547.0,-3.71,7.65,5.97,-0.2,-0.04,-0.05,1.0,u
1102.0,2981.0,3790.0,3344.0,4095.0,4095.0,3295.0,3540.0,-3.2,7.79,5.88,-0.1,-0.05,0.02,1.0,u
1088.0,2972.0,3776.0,3344.0,4095.0,4095.0,3296.0,3550.0,-2.79,8.0,5.48,-0.06,-0.0,0.02,1.0,u
1091.0,2971.0,3761.0,3344.0,4095.0,4095.0,3298.0,3547.0,-2.61,8.03,5.25,-0.05,0.01,-0.02,1.0,u
1103.0,2969.0,3792.0,3339.0,4095.0,4095.0,3299.0,3558.0,-2.79,8.02,5.22,-0.12,-0.0,-0.04,1.0,u
1098.0,2966.0,3772.0,3342.0,4095.0,4095.0,3295.0,3545.0,-2.94,7.92,5.39,-0.09,0.01,-0.07,1.0,u
1104.0,2973.0,3782.0,3344.0,4095.0,4095.0,3289.0,3545.0,-3.13,7.86,5.52,-0.13,0.01,-0.04,1.0,u
1098.0,2974.0,3771.0,3334.0,4095.0,4095.0,3293.0,3549.0,-3.22,7.89,5.6,-0.05,-0.01,-0.03,1.0,u
1109.0,2971.0,3790.0,3344.0,4095.0,4095.0,3297.0,3543.0,-3.12,7.79,5.57,-0.07,-0.02,0.02,1.0,u
1093.0,2963.0,3775.0,3344.0,4095.0,4095.0,3294.0,3543.0,-2.89,7.91,5.47,-0.04,-0.04,0.03,1.0,u
1088.0,2965.0,3771.0,3342.0,4095.0,4095.0,3293.0,3539.0,-2.69,7.99,5.41,-0.03,0.01,0.02,1.0,u
1087.0,2970.0,3759.0,3344.0,4095.0,4095.0,3294.0,3536.0,-2.72,8.03,5.32,-0.06,0.02,-0.01,1.0,u
1103.0,2961.0,3763.0,3344.0,4095.0,4095.0,3293.0,3549.0,-2.67,8.01,5.39,-0.07,0.0,-0.04,1.0,u
1088.0,2969.0,3771.0,3347.0,4095.0,4095.0,3295.0,3547.0,-2.79,8.02,5.45,-0.06,-0.0,-0.05,1.0,u
1101.0,2979.0,3787.0,3354.0,4095.0,4095.0,3301.0,3553.0,-3.03,7.76,5.35,-0.1,0.04,-0.03,1.0,u
1102.0,2979.0,3765.0,3348.0,4095.0,4095.0,3293.0,3544.0,-3.06,7.92,5.5,-0.04,0.0,-0.05,1.0,u
1093.0,2966.0,3770.0,3347.0,4095.0,4095.0,3289.0,3543.0,-3.01,7.84,5.55,-0.07,0.0,-0.01,1.0,u
1098.0,2971.0,3783.0,3350.0,4095.0,4095.0,3299.0,3554.0,-3.04,7.96,5.37,-0.02,0.01,0.01,1.0,u
1090.0,2981.0,3777.0,3345.0,4095.0,4095.0,3296.0,3545.0,-2.88,7.96,5.38,-0.06,0.01,0.01,1.0,u
1159.0,2974.0,3771.0,3328.0,4095.0,4095.0,3297.0,3522.0,-0.97,9.72,2.1,-0.09,0.2,-0.15,1.0,u
1159.0,2974.0,3771.0,3328.0,4095.0,4095.0,3297.0,3522.0,-0.97,9.72,2.1,-0.09,0.2,-0.15,1.0,u
1159.0,2963.0,3791.0,3326.0,4095.0,4095.0,3299.0,3533.0,-1.37,9.88,1.93,-0.13,0.18,-0.12,1.0,u
1163.0,2962.0,3770.0,3322.0,4095.0,4095.0,3301.0,3527.0,-1.14,9.71,2.28,-0.13,0.21,-0.07,1.0,u
1164.0,2977.0,3795.0,3326.0,4095.0,4095.0,3305.0,3535.0,-0.92,9.97,2.06,-0.21,0.22,-0.06,1.0,u
1151.0,2971.0,3797.0,3324.0,4095.0,4095.0,3296.0,3521.0,-1.1,9.45,2.79,-0.02,0.02,-0.1,1.0,u
1162.0,2967.0,3781.0,3312.0,4095.0,4095.0,3296.0,3523.0,-1.22,9.67,2.5,-0.11,-0.03,-0.01,1.0,u
1157.0,2973.0,3776.0,3209.0,4095.0,4095.0,3289.0,3465.0,-1.09,9.64,2.55,-0.07,0.06,-0.01,1.0,u
1155.0,2975.0,3773.0,3180.0,4095.0,4095.0,3300.0,3442.0,-0.96,9.43,2.39,0.0,0.03,-0.04,1.0,u
1229.0,2957.0,3781.0,3186.0,4095.0,4095.0,3304.0,3430.0,-1.09,10.15,2.11,0.15,0.04,-0.06,1.0,u
1219.0,2963.0,3777.0,3213.0,4095.0,4095.0,3312.0,3449.0,-0.94,9.89,1.94,-0.0,0.17,-0.01,1.0,u
1215.0,2965.0,3777.0,3231.0,4095.0,4095.0,3310.0,3450.0,-0.92,10.0,2.16,0.04,-0.02,-0.02,1.0,u
1278.0,2977.0,3778.0,3223.0,4095.0,4095.0,3312.0,3453.0,-1.05,10.0,1.82,-0.04,-0.04,-0.09,1.0,u
1306.0,2971.0,3773.0,3220.0,4095.0,4095.0,3313.0,3463.0,-1.15,9.58,2.22,-0.01,-0.0,-0.1,1.0,u
1427.0,2963.0,3787.0,3233.0,4095.0,4095.0,3305.0,3451.0,-1.16,9.81,1.97,-0.11,0.05,0.01,1.0,u
2682.0,2965.0,3773.0,3232.0,4095.0,4095.0,3312.0,3467.0,-1.45,9.82,1.98,-0.04,0.02,-0.02,1.0,u
2595.0,2963.0,3760.0,3245.0,4095.0,4095.0,3308.0,3465.0,-1.16,9.78,1.86,-0.09,0.04,-0.06,1.0,u
2645.0,2969.0,3771.0,3238.0,4095.0,4095.0,3306.0,3472.0,-1.02,9.78,2.03,-0.07,-0.04,-0.03,1.0,u
2762.0,2967.0,3771.0,3243.0,4095.0,4095.0,3296.0,3473.0,-1.16,10.05,2.07,0.11,0.04,-0.14,1.0,u
1937.0,2975.0,3777.0,3246.0,4095.0,4095.0,3306.0,3467.0,-1.06,9.48,2.19,-0.13,-0.11,-0.06,1.0,u
1840.0,2961.0,3760.0,3257.0,4095.0,4095.0,3312.0,3498.0,-0.81,10.01,1.16,-0.24,0.06,-0.08,1.0,u
1840.0,2961.0,3760.0,3257.0,4095.0,4095.0,3312.0,3498.0,-0.81,10.01,1.16,-0.24,0.06,-0.08,1.0,u
1838.0,2967.0,3756.0,3251.0,4095.0,4095.0,3307.0,3491.0,-0.99,9.85,1.03,-0.09,0.03,-0.04,1.0,u
1835.0,2959.0,3767.0,3252.0,4095.0,4095.0,3311.0,3495.0,-0.56,10.08,0.72,-0.04,-0.0,-0.02,1.0,u
1826.0,2970.0,3781.0,3259.0,4095.0,4095.0,3311.0,3488.0,-0.51,10.09,0.56,-0.05,0.05,-0.03,1.0,u
1829.0,2969.0,3770.0,3257.0,4095.0,4095.0,3319.0,3500.0,-0.5,10.1,0.53,-0.07,0.01,-0.05,1.0,u
1810.0,2969.0,3773.0,3268.0,4095.0,4095.0,3302.0,3502.0,-0.63,10.02,0.7,-0.07,0.08,-0.02,1.0,u
1792.0,2954.0,3762.0,3261.0,4095.0,4095.0,3305.0,3499.0,-0.57,10.03,0.82,-0.06,-0.01,-0.05,1.0,u
1793.0,2967.0,3775.0,3269.0,4095.0,4095.0,3303.0,3495.0,-0.49,10.05,0.63,-0.03,0.03,-0.04,1.0,u
1797.0,2963.0,3778.0,3264.0,4095.0,4095.0,3309.0,3505.0,-0.54,10.08,0.49,-0.04,0.02,-0.05,1.0,u
1785.0,2966.0,3770.0,3261.0,4095.0,4095.0,3309.0,3499.0,-0.53,10.02,0.57,-0.06,0.05,-0.05,1.0,u
1778.0,2962.0,3773.0,3265.0,4095.0,4095.0,3311.0,3507.0,-0.55,10.0,0.65,-0.07,0.01,-0.07,1.0,u
1782.0,2971.0,3765.0,3277.0,4095.0,4095.0,3304.0,3510.0,-0.61,9.92,0.96,-0.11,-0.03,-0.04,1.0,u
1777.0,2965.0,3762.0,3264.0,4095.0,4095.0,3302.0,3504.0,-0.54,10.04,0.93,-0.01,-0.01,-0.04,1.0,u
1776.0,2960.0,3760.0,3271.0,4095.0,4095.0,3299.0,3504.0,-0.5,10.01,0.52,0.03,0.03,-0.06,1.0,u
1782.0,2955.0,3751.0,3271.0,4095.0,4095.0,3306.0,3504.0,-0.71,10.13,0.09,-0.01,0.07,-0.09,1.0,u
1773.0,2976.0,3770.0,3278.0,4095.0,4095.0,3303.0,3500.0,-0.77,10.03,0.19,-0.14,0.09,-0.06,1.0,u
1774.0,2980.0,3770.0,3271.0,4095.0,4095.0,3304.0,3502.0,-0.72,9.97,0.52,-0.11,0.0,-0.03,1.0,u
1763.0,2961.0,3759.0,3279.0,4095.0,4095.0,3299.0,3504.0,-0.74,10.04,0.61,-0.09,0.01,-0.04,1.0,u
1776.0,2969.0,3767.0,3275.0,4095.0,4095.0,3303.0,3502.0,-0.76,10.0,0.7,-0.09,0.01,-0.02,1.0,u
1692.0,2962.0,3741.0,3264.0,4095.0,4095.0,3302.0,3527.0,1.58,9.48,3.64,-0.35,0.19,0.34,1.0,u
1699.0,2971.0,3754.0,3274.0,4095.0,4095.0,3306.0,3536.0,1.98,9.72,3.52,-0.19,0.04,0.2,1.0,u
1683.0,2965.0,3742.0,3269.0,4095.0,4095.0,3302.0,3531.0,1.68,9.66,3.07,-0.13,-0.02,0.12,1.0,u
1686.0,2961.0,3760.0,3271.0,4095.0,4095.0,3306.0,3529.0,1.57,9.7,2.74,-0.04,-0.05,0.06,1.0,u
1679.0,2969.0,3760.0,3275.0,4095.0,4095.0,3302.0,3533.0,1.61,9.82,2.71,-0.02,-0.03,-0.06,1.0,u
1673.0,2959.0,3760.0,3273.0,4095.0,4095.0,3307.0,3536.0,1.53,9.77,2.82,-0.05,-0.06,-0.14,1.0,u
1669.0,2971.0,3749.0,3278.0,4095.0,4095.0,3311.0,3534.0,0.93,9.69,2.65,-0.09,0.06,-0.13,1.0,u
1664.0,2969.0,3747.0,3273.0,4095.0,4095.0,3304.0,3530.0,0.89,9.67,2.74,-0.09,-0.02,-0.07,1.0,u
1664.0,2976.0,3755.0,3283.0,4095.0,4095.0,3299.0,3532.0,1.11,9.69,2.94,-0.12,-0.06,-0.02,1.0,u
1648.0,2960.0,3746.0,3285.0,4095.0,4095.0,3303.0,3527.0,1.29,9.77,3.0,-0.06,-0.01,-0.05,1.0,u
1648.0,2961.0,3763.0,3283.0,4095.0,4095.0,3312.0,3536.0,0.93,9.63,2.84,-0.09,0.03,-0.04,1.0,u
1649.0,2961.0,3746.0,3285.0,4095.0,4095.0,3306.0,3536.0,1.21,9.58,3.07,-0.05,-0.11,-0.0,1.0,u
1647.0,2965.0,3761.0,3285.0,4095.0,4095.0,3312.0,3539.0,1.33,9.62,2.98,-0.05,-0.02,0.0,1.0,u
1647.0,2972.0,3748.0,3287.0,4095.0,4095.0,3307.0,3534.0,1.24,9.69,2.78,-0.04,-0.03,-0.05,1.0,u
1633.0,2977.0,3747.0,3280.0,4095.0,4095.0,3309.0,3542.0,1.02,9.63,2.79,-0.08,-0.02,-0.06,1.0,u
1625.0,2977.0,3738.0,3282.0,4095.0,4095.0,3307.0,3536.0,0.85,9.54,2.63,-0.1,0.0,-0.01,1.0,u
1626.0,2966.0,3745.0,3280.0,4095.0,4095.0,3311.0,3532.0,0.99,9.7,2.61,-0.13,0.0,0.02,1.0,u
1623.0,2966.0,3759.0,3289.0,4095.0,4095.0,3311.0,3536.0,1.27,9.66,2.92,-0.15,0.01,0.03,1.0,u
1626.0,2967.0,3761.0,3290.0,4095.0,4095.0,3312.0,3536.0,1.3,9.67,3.14,-0.11,-0.01,0.01,1.0,u
1617.0,2963.0,3761.0,3289.0,4095.0,4095.0,3303.0,3526.0,1.43,9.58,3.2,-0.09,0.02,-0.01,1.0,u
1652.0,2982.0,3742.0,3312.0,4095.0,4095.0,3303.0,3553.0,-0.74,7.55,6.97,0.01,0.02,0.01,1.0,u
1652.0,2982.0,3742.0,3312.0,4095.0,4095.0,3303.0,3553.0,-0.74,7.55,6.97,0.01,0.02,0.01,1.0,u
1649.0,2969.0,3748.0,3309.0,4095.0,4095.0,3308.0,3559.0,-0.43,7.62,6.68,0.03,0.0,0.01,1.0,u
1657.0,2982.0,3747.0,3313.0,4095.0,4095.0,3301.0,3540.0,-0.34,7.76,6.55,0.05,0.03,-0.01,1.0,u
1645.0,2970.0,3734.0,3311.0,4095.0,4095.0,3301.0,3549.0,-0.38,7.7,6.16,-0.04,0.0,-0.0,1.0,u
1649.0,2969.0,3735.0,3313.0,4095.0,4095.0,3306.0,3547.0,-0.32,7.87,6.34,-0.05,0.01,-0.04,1.0,u
1643.0,2973.0,3753.0,3314.0,4095.0,4095.0,3297.0,3547.0,-0.55,7.68,6.65,-0.12,-0.0,-0.02,1.0,u
1648.0,2975.0,3743.0,3313.0,4095.0,4095.0,3301.0,3550.0,-0.61,7.69,6.89,-0.05,-0.01,-0.05,1.0,u
1645.0,2970.0,3730.0,3312.0,4095.0,4095.0,3300.0,3550.0,-0.62,7.51,6.97,-0.03,-0.0,-0.0,1.0,u
1647.0,2967.0,3729.0,3312.0,4095.0,4095.0,3301.0,3547.0,-0.51,7.65,6.74,-0.0,-0.02,0.01,1.0,u
1646.0,2967.0,3746.0,3321.0,4095.0,4095.0,3309.0,3552.0,-0.31,7.68,6.59,-0.04,-0.02,0.02,1.0,u
1638.0,2959.0,3749.0,3312.0,4095.0,4095.0,3303.0,3554.0,-0.19,7.81,6.48,-0.03,0.0,-0.02,1.0,u
1633.0,2969.0,3738.0,3313.0,4095.0,4095.0,3301.0,3559.0,-0.34,7.72,6.41,-0.1,-0.0,-0.01,1.0,u
1626.0,2967.0,3743.0,3311.0,4095.0,4095.0,3298.0,3551.0,-0.32,7.66,6.72,-0.04,0.04,-0.02,1.0,u
1627.0,2967.0,3746.0,3316.0,4095.0,4095.0,3298.0,3543.0,-0.28,7.82,6.67,-0.09,0.01,-0.01,1.0,u
1634.0,2973.0,3755.0,3321.0,4095.0,4095.0,3305.0,3549.0,-0.28,7.81,6.65,-0.06,-0.02,-0.05,1.0,u
1629.0,2976.0,3739.0,3311.0,4095.0,4095.0,3309.0,3558.0,-0.29,7.7,6.58,-0.07,0.0,-0.04,1.0,u
1634.0,2973.0,3742.0,3312.0,4095.0,4095.0,3299.0,3543.0,-0.28,7.78,6.61,-0.08,-0.01,-0.05,1.0,u
1619.0,2966.0,3743.0,3319.0,4095.0,4095.0,3299.0,3555.0,-0.29,7.71,6.85,-0.06,-0.0,-0.06,1.0,u
1639.0,2967.0,3739.0,3314.0,4095.0,4095.0,3309.0,3566.0,-0.48,7.71,6.85,-0.01,0.05,-0.07,1.0,u
1593.0,2975.0,3743.0,3322.0,4095.0,4095.0,3303.0,3559.0,-2.11,8.09,5.78,-0.13,0.01,0.09,1.0,u
1587.0,2970.0,3749.0,3329.0,4095.0,4095.0,3311.0,3550.0,-1.81,8.04,5.98,-0.1,0.05,0.08,1.0,u
1587.0,2965.0,3747.0,3325.0,4095.0,4095.0,3300.0,3553.0,-1.74,7.99,5.94,-0.09,-0.02,0.06,1.0,u
1595.0,2977.0,3741.0,3322.0,4095.0,4095.0,3306.0,3556.0,-1.9,8.12,5.83,-0.09,0.03,-0.03,1.0,u
1597.0,2963.0,3735.0,3322.0,4095.0,4095.0,3311.0,3557.0,-2.03,7.98,5.87,-0.02,0.0,-0.09,1.0,u
1584.0,2966.0,3729.0,3323.0,4095.0,4095.0,3298.0,3552.0,-2.34,7.99,5.64,-0.05,0.05,-0.06,1.0,u
1593.0,2972.0,3744.0,3332.0,4095.0,4095.0,3309.0,3554.0,-2.42,8.01,5.57,-0.03,-0.01,-0.05,1.0,u
1590.0,2978.0,3754.0,3329.0,4095.0,4095.0,3310.0,3567.0,-2.29,8.03,5.62,-0.05,-0.0,-0.03,1.0,u
1583.0,2966.0,3746.0,3327.0,4095.0,4095.0,3312.0,3562.0,-2.22,8.06,5.63,-0.05,0.02,-0.03,1.0,u
1593.0,2973.0,3731.0,3327.0,4095.0,4095.0,3305.0,3555.0,-2.32,8.04,5.57,-0.08,0.0,-0.01,1.0,u
1589.0,2973.0,3744.0,3335.0,4095.0,4095.0,3308.0,3551.0,-1.92,8.07,5.74,-0.07,-0.03,-0.03,1.0,u
1580.0,2967.0,3728.0,3319.0,4095.0,4095.0,3306.0,3555.0,-2.14,8.03,5.82,-0.06,0.05,-0.04,1.0,u
1584.0,2966.0,3751.0,3334.0,4095.0,4095.0,3310.0,3554.0,-2.11,8.04,6.05,-0.02,0.01,-0.04,1.0,u
1577.0,2978.0,3747.0,3327.0,4095.0,4095.0,3311.0,3558.0,-2.52,8.2,5.77,0.06,0.13,0.01,1.0,u
1574.0,2976.0,3746.0,3328.0,4095.0,4095.0,3302.0,3554.0,-2.56,7.94,5.73,0.11,0.07,0.0,1.0,u
1563.0,2969.0,3759.0,3338.0,4095.0,4095.0,3311.0,3565.0,-2.91,7.83,5.36,0.0,0.14,0.09,1.0,u
1535.0,2971.0,3737.0,3327.0,4095.0,4095.0,3308.0,3562.0,-2.9,8.18,5.46,0.02,-0.01,0.21,1.0,u
1529.0,2970.0,3732.0,3334.0,4095.0,4095.0,3303.0,3559.0,-2.41,8.34,5.12,0.07,0.05,0.34,1.0,u
1525.0,2977.0,3740.0,3330.0,4095.0,4095.0,3300.0,3563.0,-2.31,7.86,5.4,0.0,0.0,0.41,1.0,u
1457.0,2972.0,3739.0,3337.0,4095.0,4095.0,3294.0,3559.0,-2.82,7.89,5.91,-0.17,-0.1,0.5,1.0,u
3572.0,2979.0,3804.0,3293.0,4095.0,4095.0,3301.0,3627.0,0.37,9.84,2.16,-0.07,0.05,-0.06,1.0,u
3577.0,2969.0,3823.0,3286.0,4095.0,4095.0,3311.0,3629.0,0.34,9.81,2.64,-0.2,-0.12,-0.07,1.0,u
3568.0,2977.0,3823.0,3296.0,4095.0,4095.0,3309.0,3633.0,0.29,9.63,3.08,-0.12,-0.02,-0.01,1.0,u
3567.0,2972.0,3815.0,3292.0,4095.0,4095.0,3312.0,3637.0,0.56,9.6,2.85,-0.12,0.0,0.05,1.0,u
3559.0,2972.0,3803.0,3295.0,4095.0,4095.0,3308.0,3632.0,0.93,9.94,2.61,-0.05,0.01,0.01,1.0,u
3551.0,2967.0,3822.0,3295.0,4095.0,4095.0,3313.0,3636.0,0.78,9.79,2.68,-0.12,0.07,-0.03,1.0,u
3567.0,2967.0,3814.0,3295.0,4095.0,4095.0,3313.0,3644.0,0.56,9.68,2.92,-0.09,0.01,-0.06,1.0,u
3549.0,2958.0,3810.0,3285.0,4095.0,4095.0,3306.0,3630.0,0.44,9.66,3.0,-0.14,0.05,-0.01,1.0,u
3567.0,2974.0,3797.0,3298.0,4095.0,4095.0,3307.0,3629.0,0.54,9.77,3.11,-0.02,0.04,-0.02,1.0,u
3575.0,2960.0,3801.0,3294.0,4095.0,4095.0,3309.0,3637.0,0.66,9.7,2.84,-0.02,0.1,-0.01,1.0,u
3570.0,2967.0,3809.0,3299.0,4095.0,4095.0,3307.0,3641.0,0.78,9.71,2.77,-0.04,0.03,-0.01,1.0,u
3570.0,2958.0,3792.0,3307.0,4095.0,4095.0,3305.0,3628.0,0.68,9.75,2.75,-0.01,0.05,-0.01,1.0,u
3568.0,2973.0,3829.0,3310.0,4095.0,4095.0,3311.0,3632.0,0.65,9.79,2.73,-0.07,0.03,-0.02,1.0,u
3568.0,2962.0,3803.0,3305.0,4095.0,4095.0,3311.0,3642.0,0.56,9.64,2.93,-0.1,0.01,-0.02,1.0,u
3568.0,2956.0,3795.0,3312.0,4095.0,4095.0,3312.0,3642.0,0.63,9.79,2.98,-0.04,0.03,-0.01,1.0,u
3579.0,2973.0,3809.0,3311.0,4095.0,4095.0,3312.0,3639.0,0.75,9.63,2.97,-0.04,0.02,-0.0,1.0,u
3568.0,2973.0,3794.0,3308.0,4095.0,4095.0,3311.0,3633.0,0.62,9.66,3.05,-0.03,-0.02,-0.04,1.0,u
3570.0,2961.0,3808.0,3312.0,4095.0,4095.0,3309.0,3626.0,0.72,9.66,3.01,0.08,-0.0,-0.04,1.0,u
3568.0,2962.0,3792.0,3306.0,4095.0,4095.0,3309.0,3632.0,0.71,9.64,2.65,0.09,-0.0,-0.02,1.0,u
3555.0,2966.0,3792.0,3313.0,4095.0,4095.0,3302.0,3627.0,0.65,9.8,2.32,0.06,0.01,-0.04,1.0,u
1631.0,2973.0,3809.0,3316.0,4095.0,4095.0,3314.0,3642.0,-2.32,9.7,0.69,-0.1,0.06,0.09,1.0,u
1625.0,2975.0,3803.0,3315.0,4095.0,4095.0,3310.0,3645.0,-1.44,9.97,0.75,-0.1,0.04,0.1,1.0,u
1634.0,2971.0,3795.0,3323.0,4095.0,4095.0,3313.0,3641.0,-1.35,9.85,1.01,-0.21,0.07,0.1,1.0,u
1627.0,2976.0,3792.0,3321.0,4095.0,4095.0,3311.0,3639.0,-1.16,9.93,1.17,-0.17,0.0,0.03,1.0,u
1616.0,2977.0,3803.0,3313.0,4095.0,4095.0,3319.0,3647.0,-1.2,9.85,1.23,-0.15,0.07,0.0,1.0,u
1634.0,2976.0,3797.0,3323.0,4095.0,4095.0,3315.0,3651.0,-1.35,9.85,1.29,-0.13,-0.0,-0.07,1.0,u
1627.0,2962.0,3790.0,3326.0,4095.0,4095.0,3312.0,3642.0,-1.6,9.79,1.39,-0.1,0.03,-0.05,1.0,u
1619.0,2987.0,3811.0,3326.0,4095.0,4095.0,3314.0,3651.0,-1.64,9.81,1.42,-0.06,-0.03,-0.04,1.0,u
1623.0,2973.0,3820.0,3317.0,4095.0,4095.0,3313.0,3648.0,-1.49,9.82,1.33,-0.05,-0.01,-0.01,1.0,u
1617.0,2983.0,3809.0,3313.0,4095.0,4095.0,3317.0,3647.0,-1.4,9.81,1.28,-0.04,-0.01,-0.05,1.0,u
1621.0,2983.0,3807.0,3325.0,4095.0,4095.0,3315.0,3643.0,-1.43,9.84,1.27,-0.04,-0.02,-0.08,1.0,u
1616.0,2970.0,3817.0,3319.0,4095.0,4095.0,3319.0,3643.0,-1.45,9.79,1.26,-0.03,0.0,-0.07,1.0,u
1615.0,2969.0,3809.0,3313.0,4095.0,4095.0,3317.0,3648.0,-1.44,9.89,1.12,-0.03,0.04,-0.11,1.0,u
1611.0,2983.0,3807.0,3319.0,4095.0,4095.0,3317.0,3631.0,-1.56,9.83,1.11,-0.05,-0.01,-0.11,1.0,u
1609.0,2960.0,3805.0,3316.0,4095.0,4095.0,3318.0,3650.0,-1.65,9.86,1.15,-0.03,0.02,-0.1,1.0,u
1600.0,2973.0,3799.0,3328.0,4095.0,4095.0,3312.0,3632.0,-1.71,9.83,1.09,-0.03,0.0,-0.11,1.0,u
1588.0,2979.0,3821.0,3321.0,4095.0,4095.0,3316.0,3633.0,-1.87,9.8,1.09,-0.04,0.02,-0.09,1.0,u
1585.0,2977.0,3799.0,3309.0,4095.0,4095.0,3312.0,3635.0,-1.77,9.79,1.16,-0.04,-0.02,-0.08,1.0,u
1585.0,2965.0,3792.0,3312.0,4095.0,4095.0,3318.0,3643.0,-1.89,9.77,1.13,-0.06,0.04,-0.07,1.0,u
1589.0,2980.0,3824.0,3315.0,4095.0,4095.0,3317.0,3647.0,-1.98,9.75,1.17,-0.06,-0.01,-0.06,1.0,u
926.0,2968.0,3792.0,3278.0,4095.0,4095.0,3299.0,3567.0,-4.18,8.68,2.9,-0.08,0.0,0.0,1.0,u
935.0,2966.0,3811.0,3280.0,4095.0,4095.0,3305.0,3579.0,-3.88,8.5,2.9,-0.09,-0.03,0.05,1.0,u
930.0,2971.0,3803.0,3284.0,4095.0,4095.0,3303.0,3579.0,-3.81,8.76,2.82,-0.04,-0.02,0.03,1.0,u
927.0,2977.0,3806.0,3294.0,4095.0,4095.0,3296.0,3572.0,-3.57,8.86,2.74,-0.06,0.02,0.02,1.0,u
935.0,2978.0,3823.0,3291.0,4095.0,4095.0,3298.0,3568.0,-3.59,8.83,2.59,-0.04,0.04,-0.03,1.0,u
934.0,2963.0,3791.0,3282.0,4095.0,4095.0,3294.0,3565.0,-3.65,8.75,2.68,-0.11,0.01,-0.05,1.0,u
940.0,2979.0,3795.0,3301.0,4095.0,4095.0,3296.0,3563.0,-3.78,8.8,2.78,-0.07,0.03,-0.06,1.0,u
928.0,2992.0,3823.0,3305.0,4095.0,4095.0,3302.0,3568.0,-3.85,8.75,2.81,-0.08,0.08,-0.07,1.0,u
931.0,2976.0,3815.0,3299.0,4095.0,4095.0,3302.0,3570.0,-4.06,8.82,2.85,-0.07,0.07,-0.03,1.0,u
926.0,2980.0,3819.0,3311.0,4095.0,4095.0,3303.0,3562.0,-3.82,8.78,2.68,-0.03,0.01,-0.05,1.0,u
937.0,2978.0,3818.0,3312.0,4095.0,4095.0,3301.0,3562.0,-3.92,8.77,2.67,-0.06,0.02,-0.03,1.0,u
944.0,2971.0,3805.0,3312.0,4095.0,4095.0,3299.0,3573.0,-3.97,8.62,2.85,-0.1,-0.01,-0.03,1.0,u
928.0,2973.0,3792.0,3312.0,4095.0,4095.0,3297.0,3569.0,-3.88,8.8,2.79,-0.02,-0.04,0.01,1.0,u
935.0,2967.0,3804.0,3311.0,4095.0,4095.0,3307.0,3568.0,-3.61,8.77,2.7,-0.02,-0.05,0.01,1.0,u
934.0,2973.0,3811.0,3318.0,4095.0,4095.0,3298.0,3563.0,-3.61,8.86,2.66,-0.05,0.05,-0.01,1.0,u
927.0,2978.0,3802.0,3319.0,4095.0,4095.0,3293.0,3567.0,-3.62,8.83,2.54,-0.06,-0.01,-0.05,1.0,u
933.0,2991.0,3796.0,3318.0,4095.0,4095.0,3297.0,3571.0,-3.71,8.84,2.65,-0.08,-0.01,-0.06,1.0,u
924.0,2980.0,3801.0,3315.0,4095.0,4095.0,3297.0,3568.0,-3.73,8.74,2.8,-0.09,-0.01,-0.06,1.0,u
942.0,2973.0,3809.0,3324.0,4095.0,4095.0,3306.0,3577.0,-3.91,8.78,2.83,-0.07,0.02,-0.06,1.0,u
942.0,2975.0,3806.0,3309.0,4095.0,4095.0,3306.0,3571.0,-4.03,8.76,2.79,-0.03,0.0,-0.0,1.0,u
925.0,2978.0,3805.0,3348.0,4095.0,4095.0,3305.0,3633.0,1.31,9.38,3.93,-0.11,0.13,-0.13,1.0,u
930.0,2982.0,3801.0,3347.0,4095.0,4095.0,3305.0,3639.0,0.29,9.31,4.0,-0.18,0.04,-0.16,1.0,u
927.0,2971.0,3798.0,3351.0,4095.0,4095.0,3301.0,3639.0,-0.06,9.23,4.33,-0.14,-0.01,-0.18,1.0,u
934.0,2985.0,3792.0,3351.0,4095.0,4095.0,3295.0,3632.0,-0.31,9.28,4.12,-0.04,0.01,-0.16,1.0,u
927.0,2980.0,3803.0,3350.0,4095.0,4095.0,3306.0,3633.0,-0.56,9.33,3.85,-0.02,0.03,-0.08,1.0,u
930.0,2982.0,3801.0,3343.0,4095.0,4095.0,3307.0,3623.0,-0.39,9.36,3.71,-0.03,-0.02,-0.04,1.0,u
932.0,2971.0,3790.0,3213.0,4095.0,4095.0,3297.0,3622.0,0.34,9.34,4.24,-0.06,-0.15,-0.01,1.0,u
931.0,2967.0,3791.0,3186.0,4095.0,4095.0,3297.0,3621.0,0.9,9.4,4.25,0.14,-0.25,-0.13,1.0,u
932.0,2976.0,3792.0,3200.0,4095.0,4095.0,3292.0,3615.0,0.17,9.43,3.48,0.09,-0.08,-0.18,1.0,u
926.0,2980.0,3781.0,3225.0,4095.0,4095.0,3294.0,3622.0,-0.71,9.36,3.22,-0.09,-0.07,-0.14,1.0,u
926.0,2975.0,3788.0,3250.0,4095.0,4095.0,3289.0,3607.0,-0.62,9.31,3.75,-0.18,-0.13,-0.13,1.0,u
932.0,2978.0,3795.0,3271.0,4095.0,4095.0,3293.0,3617.0,-0.71,9.24,4.15,-0.13,-0.07,-0.07,1.0,u
929.0,2976.0,3787.0,3273.0,4095.0,4095.0,3307.0,3639.0,-0.62,9.32,3.95,-0.03,0.01,-0.01,1.0,u
923.0,2975.0,3770.0,3274.0,4095.0,4095.0,3299.0,3623.0,-0.17,9.39,3.7,-0.01,0.03,-0.01,1.0,u
926.0,2987.0,3782.0,3277.0,4095.0,4095.0,3298.0,3634.0,0.21,9.49,3.83,-0.06,-0.05,-0.02,1.0,u
929.0,2983.0,3794.0,3236.0,4095.0,4095.0,3304.0,3638.0,0.57,9.39,4.11,-0.01,-0.09,-0.13,1.0,u
938.0,2973.0,3783.0,3175.0,4095.0,4095.0,3308.0,3637.0,0.05,9.33,4.12,0.01,0.09,-0.22,1.0,u
923.0,2985.0,3789.0,3190.0,4095.0,4095.0,3309.0,3636.0,-0.71,9.27,3.79,-0.02,-0.01,-0.19,1.0,u
921.0,2976.0,3804.0,3213.0,4095.0,4095.0,3307.0,3634.0,-0.73,9.33,3.64,0.01,-0.03,-0.14,1.0,u
922.0,2972.0,3786.0,3217.0,4095.0,4095.0,3306.0,3635.0,-0.57,9.52,3.53,0.0,0.01,-0.08,1.0,u
880.0,2961.0,3791.0,3374.0,4095.0,4095.0,3285.0,3603.0,1.87,9.61,3.15,-0.07,0.01,-0.03,1.0,u
892.0,2963.0,3785.0,3376.0,4095.0,4095.0,3283.0,3600.0,1.76,9.52,3.23,-0.14,-0.02,-0.02,1.0,u
885.0,2967.0,3792.0,3375.0,4095.0,4095.0,3287.0,3605.0,1.81,9.54,3.44,-0.08,-0.04,-0.05,1.0,u
880.0,2992.0,3783.0,3374.0,4095.0,4095.0,3280.0,3601.0,1.6,9.41,3.46,-0.12,0.02,-0.05,1.0,u
881.0,2971.0,3793.0,3366.0,4095.0,4095.0,3291.0,3606.0,1.51,9.48,3.49,-0.03,0.01,-0.05,1.0,u
893.0,2983.0,3791.0,3372.0,4095.0,4095.0,3292.0,3601.0,1.6,9.39,3.4,-0.07,0.02,-0.01,1.0,u
890.0,2969.0,3796.0,3373.0,4095.0,4095.0,3285.0,3600.0,1.72,9.55,3.23,-0.05,-0.02,-0.01,1.0,u
885.0,2975.0,3792.0,3372.0,4095.0,4095.0,3290.0,3606.0,1.85,9.49,3.27,-0.08,0.02,-0.04,1.0,u
896.0,2970.0,3792.0,3373.0,4095.0,4095.0,3286.0,3600.0,1.62,9.49,3.36,-0.09,0.03,-0.04,1.0,u
893.0,2977.0,3806.0,3371.0,4095.0,4095.0,3287.0,3601.0,1.71,9.34,3.64,-0.06,-0.02,-0.03,1.0,u
880.0,2981.0,3799.0,3373.0,4095.0,4095.0,3295.0,3614.0,1.74,9.44,3.56,-0.05,-0.0,-0.04,1.0,u
880.0,2973.0,3805.0,3364.0,4095.0,4095.0,3287.0,3601.0,1.68,9.42,3.52,-0.05,-0.04,-0.03,1.0,u
883.0,2969.0,3793.0,3363.0,4095.0,4095.0,3297.0,3615.0,1.65,9.5,3.45,-0.04,0.02,-0.01,1.0,u
897.0,2961.0,3788.0,3357.0,4095.0,4095.0,3293.0,3605.0,1.72,9.38,3.53,-0.03,-0.03,-0.03,1.0,u
887.0,2967.0,3795.0,3362.0,4095.0,4095.0,3297.0,3619.0,1.83,9.48,3.39,-0.05,-0.0,-0.03,1.0,u
894.0,2975.0,3792.0,3359.0,4095.0,4095.0,3295.0,3616.0,1.85,9.36,3.5,0.04,0.01,-0.06,1.0,u
893.0,2966.0,3799.0,3361.0,4095.0,4095.0,3296.0,3606.0,1.74,9.72,3.34,0.02,0.03,-0.04,1.0,u
897.0,2971.0,3785.0,3349.0,4095.0,4095.0,3295.0,3617.0,1.77,9.37,3.24,0.0,0.04,-0.08,1.0,u
895.0,2966.0,3798.0,3354.0,4095.0,4095.0,3291.0,3607.0,1.61,9.52,3.15,-0.13,-0.05,-0.05,1.0,u
880.0,2976.0,3787.0,3361.0,4095.0,4095.0,3299.0,3616.0,1.49,9.34,3.45,-0.11,0.01,-0.06,1.0,u
886.0,2970.0,3781.0,3376.0,4095.0,4095.0,3297.0,3607.0,0.45,10.24,0.85,0.3,-0.16,-0.11,1.0,u
898.0,2963.0,3792.0,3371.0,4095.0,4095.0,3307.0,3623.0,0.02,10.19,0.55,0.12,0.07,-0.15,1.0,u
891.0,2973.0,3801.0,3379.0,4095.0,4095.0,3303.0,3614.0,-0.07,10.0,0.86,0.02,-0.07,-0.18,1.0,u
891.0,2975.0,3793.0,3372.0,4095.0,4095.0,3306.0,3618.0,-0.27,10.02,1.23,-0.14,-0.05,-0.13,1.0,u
880.0,2992.0,3777.0,3374.0,4095.0,4095.0,3301.0,3627.0,-0.05,9.86,1.86,-0.11,-0.1,-0.12,1.0,u
886.0,2974.0,3792.0,3380.0,4095.0,4095.0,3309.0,3626.0,0.03,10.03,1.98,-0.07,0.01,-0.14,1.0,u
890.0,2976.0,3790.0,3375.0,4095.0,4095.0,3305.0,3619.0,-0.15,9.93,1.84,0.0,0.04,-0.16,1.0,u
886.0,2977.0,3801.0,3379.0,4095.0,4095.0,3306.0,3632.0,-0.14,9.95,1.46,-0.03,-0.03,-0.15,1.0,u
885.0,2973.0,3796.0,3373.0,4095.0,4095.0,3299.0,3615.0,-0.35,9.99,1.39,-0.08,-0.01,-0.16,1.0,u
895.0,2977.0,3799.0,3376.0,4095.0,4095.0,3307.0,3625.0,-0.45,9.89,1.5,-0.12,-0.06,-0.15,1.0,u
887.0,2964.0,3793.0,3371.0,4095.0,4095.0,3303.0,3627.0,-0.62,9.91,1.64,-0.14,-0.02,-0.11,1.0,u
890.0,2973.0,3804.0,3376.0,4095.0,4095.0,3307.0,3631.0,-0.7,9.83,1.76,-0.16,-0.02,-0.07,1.0,u
887.0,2978.0,3786.0,3375.0,4095.0,4095.0,3309.0,3629.0,-0.73,9.85,1.87,-0.12,0.01,-0.04,1.0,u
886.0,2974.0,3790.0,3371.0,4095.0,4095.0,3306.0,3620.0,-0.67,9.77,1.99,-0.1,0.0,0.02,1.0,u
887.0,2979.0,3795.0,3377.0,4095.0,4095.0,3299.0,3617.0,-0.33,9.96,1.81,-0.07,0.03,0.02,1.0,u
895.0,2967.0,3803.0,3375.0,4095.0,4095.0,3311.0,3632.0,-0.33,9.83,1.98,-0.1,-0.02,0.01,1.0,u
891.0,2978.0,3812.0,3359.0,4095.0,4095.0,3310.0,3618.0,-0.3,9.96,1.93,-0.08,0.0,-0.01,1.0,u
889.0,2967.0,3785.0,3344.0,4095.0,4095.0,3307.0,3632.0,-0.29,9.82,1.94,-0.06,0.03,-0.03,1.0,u
895.0,2983.0,3783.0,3320.0,4095.0,4095.0,3299.0,3618.0,-0.32,10.03,1.83,-0.09,-0.02,-0.02,1.0,u
888.0,2971.0,3790.0,3293.0,4095.0,4095.0,3303.0,3625.0,-0.26,9.84,1.91,-0.01,0.04,-0.03,1.0,u
892.0,2992.0,3798.0,3348.0,4095.0,4095.0,3314.0,3636.0,-2.76,9.61,0.99,-0.3,0.15,-0.33,1.0,u
890.0,2973.0,3811.0,3354.0,4095.0,4095.0,3312.0,3643.0,-3.27,9.39,1.19,-0.34,0.06,-0.26,1.0,u
882.0,2957.0,3795.0,3353.0,4095.0,4095.0,3317.0,3645.0,-3.49,9.31,1.72,-0.28,0.0,-0.24,1.0,u
891.0,2971.0,3802.0,3360.0,4095.0,4095.0,3311.0,3635.0,-3.53,9.14,2.21,-0.23,0.07,-0.15,1.0,u
887.0,2970.0,3798.0,3360.0,4095.0,4095.0,3309.0,3633.0,-3.33,9.13,2.3,-0.16,0.02,-0.08,1.0,u
893.0,2975.0,3798.0,3357.0,4095.0,4095.0,3311.0,3637.0,-3.04,9.26,2.35,-0.13,0.01,-0.02,1.0,u
888.0,2986.0,3810.0,3353.0,4095.0,4095.0,3312.0,3638.0,-2.92,9.33,2.25,-0.1,0.07,0.03,1.0,u
894.0,2981.0,3810.0,3351.0,4095.0,4095.0,3312.0,3639.0,-2.67,9.39,2.18,-0.04,-0.02,0.02,1.0,u
880.0,2977.0,3803.0,3344.0,4095.0,4095.0,3314.0,3650.0,-2.51,9.45,1.8,-0.06,0.08,0.01,1.0,u
902.0,2986.0,3789.0,3339.0,4095.0,4095.0,3315.0,3636.0,-2.71,9.51,1.59,-0.09,0.08,-0.02,1.0,u
886.0,2980.0,3795.0,3343.0,4095.0,4095.0,3311.0,3646.0,-2.82,9.42,1.94,-0.13,0.06,-0.0,1.0,u
887.0,2977.0,3798.0,3342.0,4095.0,4095.0,3317.0,3647.0,-2.69,9.47,1.96,-0.09,0.04,-0.0,1.0,u
892.0,2954.0,3789.0,3343.0,4095.0,4095.0,3319.0,3651.0,-2.76,9.36,2.11,-0.09,0.01,-0.01,1.0,u
885.0,2975.0,3802.0,3346.0,4095.0,4095.0,3319.0,3651.0,-2.73,9.39,2.09,-0.07,0.02,-0.01,1.0,u
891.0,2983.0,3805.0,3351.0,4095.0,4095.0,3319.0,3645.0,-2.61,9.39,2.06,-0.09,0.02,-0.01,1.0,u
896.0,2937.0,3792.0,3344.0,4095.0,4095.0,3316.0,3647.0,-2.7,9.23,2.16,-0.05,0.0,-0.02,1.0,u
896.0,2987.0,3793.0,3342.0,4095.0,4095.0,3318.0,3649.0,-2.81,9.3,2.15,-0.03,-0.04,-0.02,1.0,u
902.0,2970.0,3798.0,3353.0,4095.0,4095.0,3308.0,3639.0,-2.9,9.39,2.01,-0.04,-0.01,-0.02,1.0,u
898.0,2969.0,3802.0,3351.0,4095.0,4095.0,3312.0,3646.0,-2.69,9.38,2.03,-0.04,0.0,-0.01,1.0,u
896.0,2983.0,3819.0,3350.0,4095.0,4095.0,3312.0,3632.0,-2.72,9.36,1.95,-0.05,0.01,-0.01,1.0,u
903.0,2976.0,3781.0,3312.0,4095.0,4095.0,3312.0,3642.0,-3.52,9.1,1.69,-0.13,-0.02,-0.36,1.0,u
894.0,2975.0,3790.0,3323.0,4095.0,4095.0,3319.0,3646.0,-4.04,8.95,1.78,-0.22,0.07,-0.34,1.0,u
897.0,2980.0,3799.0,3330.0,4095.0,4095.0,3314.0,3639.0,-4.7,8.65,2.21,-0.32,0.03,-0.24,1.0,u
897.0,2979.0,3789.0,3330.0,4095.0,4095.0,3325.0,3651.0,-5.12,8.55,2.77,-0.27,-0.01,-0.14,1.0,u
891.0,2973.0,3794.0,3328.0,4095.0,4095.0,3317.0,3650.0,-5.28,8.37,3.04,-0.19,0.04,0.05,1.0,u
892.0,2967.0,3792.0,3332.0,4095.0,4095.0,3322.0,3648.0,-4.33,8.63,2.56,-0.04,-0.04,0.15,1.0,u
893.0,2977.0,3791.0,3333.0,4095.0,4095.0,3315.0,3642.0,-3.49,8.81,2.2,-0.03,0.02,0.14,1.0,u
899.0,2975.0,3791.0,3335.0,4095.0,4095.0,3326.0,3651.0,-3.27,8.83,2.31,-0.13,0.01,0.04,1.0,u
910.0,2971.0,3795.0,3334.0,4095.0,4095.0,3325.0,3654.0,-3.42,8.97,2.85,0.01,0.0,-0.08,1.0,u
911.0,2975.0,3786.0,3334.0,4095.0,4095.0,3315.0,3639.0,-3.83,8.85,3.07,-0.04,0.02,-0.04,1.0,u
918.0,2971.0,3799.0,3342.0,4095.0,4095.0,3325.0,3649.0,-3.63,8.74,2.81,0.07,0.08,-0.02,1.0,u
911.0,2960.0,3796.0,3344.0,4095.0,4095.0,3312.0,3633.0,-3.95,8.91,1.98,0.27,0.29,-0.08,1.0,u
912.0,2971.0,3795.0,3335.0,4095.0,4095.0,3318.0,3642.0,-4.3,8.98,1.69,-0.06,0.05,0.04,1.0,u
906.0,2950.0,3787.0,3342.0,4095.0,4095.0,3322.0,3649.0,-3.78,8.92,2.1,-0.07,-0.03,0.06,1.0,u
912.0,2973.0,3792.0,3344.0,4095.0,4095.0,3325.0,3650.0,-3.56,9.04,2.0,-0.15,0.0,0.04,1.0,u
911.0,2969.0,3792.0,3342.0,4095.0,4095.0,3325.0,3648.0,-3.59,8.91,2.18,-0.11,-0.01,-0.02,1.0,u
912.0,2965.0,3781.0,3344.0,4095.0,4095.0,3318.0,3643.0,-3.62,9.02,2.22,-0.12,-0.02,-0.03,1.0,u
906.0,2970.0,3807.0,3344.0,4095.0,4095.0,3325.0,3652.0,-3.65,8.78,2.39,-0.11,-0.0,-0.06,1.0,u
918.0,2981.0,3803.0,3347.0,4095.0,4095.0,3327.0,3655.0,-3.88,8.89,2.48,-0.13,-0.02,-0.05,1.0,u
912.0,2973.0,3795.0,3345.0,4095.0,4095.0,3326.0,3651.0,-3.74,8.88,2.4,-0.09,0.01,-0.03,1.0,u
1599.0,2975.0,3790.0,3335.0,4095.0,4095.0,3326.0,3654.0,0.54,9.73,2.35,-0.03,0.0,0.05,1.0,u
1605.0,2986.0,3781.0,3334.0,4095.0,4095.0,3312.0,3642.0,0.74,9.92,2.17,-0.04,0.0,0.08,1.0,u
1605.0,2966.0,3773.0,3331.0,4095.0,4095.0,3315.0,3647.0,1.1,9.89,2.22,-0.04,-0.01,0.05,1.0,u
1599.0,2977.0,3776.0,3337.0,4095.0,4095.0,3313.0,3642.0,1.16,9.9,2.11,-0.05,-0.02,0.01,1.0,u
1587.0,2969.0,3791.0,3340.0,4095.0,4095.0,3317.0,3654.0,1.26,9.93,2.12,-0.08,-0.05,-0.06,1.0,u
1591.0,2972.0,3791.0,3329.0,4095.0,4095.0,3317.0,3655.0,0.85,9.95,2.19,-0.1,-0.01,-0.12,1.0,u
1595.0,2971.0,3787.0,3339.0,4095.0,4095.0,3319.0,3653.0,0.68,9.75,2.55,-0.12,-0.05,-0.11,1.0,u
1599.0,2977.0,3779.0,3334.0,4095.0,4095.0,3323.0,3656.0,0.7,9.75,2.77,-0.1,-0.04,-0.06,1.0,u
1595.0,2970.0,3792.0,3330.0,4095.0,4095.0,3315.0,3639.0,0.73,9.78,2.67,-0.01,0.01,-0.04,1.0,u
1600.0,2980.0,3803.0,3344.0,4095.0,4095.0,3317.0,3648.0,0.9,9.89,2.34,0.03,0.02,-0.05,1.0,u
1584.0,2970.0,3781.0,3329.0,4095.0,4095.0,3323.0,3655.0,0.81,9.9,2.1,-0.0,0.02,-0.07,1.0,u
1587.0,2986.0,3787.0,3331.0,4095.0,4095.0,3323.0,3655.0,0.7,9.87,2.11,-0.04,-0.01,-0.07,1.0,u
1598.0,2974.0,3785.0,3335.0,4095.0,4095.0,3326.0,3653.0,0.58,9.86,2.19,-0.05,0.01,-0.05,1.0,u
1598.0,2977.0,3792.0,3335.0,4095.0,4095.0,3325.0,3649.0,0.55,9.82,2.34,-0.05,-0.01,-0.05,1.0,u
1595.0,2965.0,3791.0,3334.0,4095.0,4095.0,3324.0,3661.0,0.56,9.84,2.39,-0.03,-0.0,-0.03,1.0,u
1594.0,2973.0,3794.0,3337.0,4095.0,4095.0,3323.0,3655.0,0.64,9.85,2.34,-0.0,-0.0,-0.03,1.0,u
1593.0,2975.0,3780.0,3330.0,4095.0,4095.0,3315.0,3645.0,0.75,9.87,2.18,-0.03,-0.0,-0.02,1.0,u
1586.0,2979.0,3782.0,3339.0,4095.0,4095.0,3326.0,3651.0,0.84,9.92,2.07,-0.03,-0.01,-0.03,1.0,u
1581.0,2966.0,3794.0,3335.0,4095.0,4095.0,3320.0,3652.0,0.81,9.95,2.11,-0.05,-0.03,-0.05,1.0,u
1571.0,2974.0,3806.0,3331.0,4095.0,4095.0,3316.0,3654.0,0.77,9.89,2.24,-0.04,-0.02,-0.07,1.0,u
1473.0,2971.0,3815.0,3297.0,4095.0,4095.0,3335.0,3650.0,-0.22,10.04,0.44,-0.12,0.2,-0.03,1.0,u
1456.0,2961.0,3792.0,3291.0,4095.0,4095.0,3328.0,3643.0,-0.08,9.88,0.43,-0.09,0.06,-0.02,1.0,u
1458.0,2976.0,3808.0,3309.0,4095.0,4095.0,3328.0,3637.0,0.13,10.15,0.35,-0.04,-0.01,-0.01,1.0,u
1456.0,2989.0,3810.0,3303.0,4095.0,4095.0,3331.0,3639.0,0.23,10.14,0.21,-0.04,0.08,-0.04,1.0,u
1442.0,2983.0,3813.0,3306.0,4095.0,4095.0,3331.0,3647.0,-0.07,10.02,0.18,-0.07,0.16,-0.08,1.0,u
1450.0,2981.0,3801.0,3302.0,4095.0,4095.0,3330.0,3660.0,-0.16,10.02,0.32,-0.06,0.06,-0.07,1.0,u
1456.0,2969.0,3814.0,3299.0,4095.0,4095.0,3330.0,3645.0,-0.17,10.01,0.4,-0.08,0.01,-0.07,1.0,u
1449.0,2975.0,3795.0,3296.0,4095.0,4095.0,3331.0,3647.0,-0.28,10.13,0.32,-0.02,0.05,-0.07,1.0,u
1454.0,2970.0,3802.0,3269.0,4095.0,4095.0,3323.0,3649.0,-0.13,10.01,0.11,-0.13,0.09,-0.04,1.0,u
1450.0,2974.0,3798.0,3231.0,4095.0,4095.0,3326.0,3649.0,-0.4,9.98,0.35,-0.08,0.1,-0.07,1.0,u
1459.0,2977.0,3809.0,3247.0,4095.0,4095.0,3321.0,3641.0,-0.1,9.9,0.44,-0.03,-0.0,-0.06,1.0,u
1453.0,2978.0,3818.0,3255.0,4095.0,4095.0,3325.0,3646.0,0.07,10.1,0.49,-0.02,0.01,-0.03,1.0,u
1456.0,2974.0,3805.0,3253.0,4095.0,4095.0,3331.0,3645.0,0.2,9.95,0.43,0.06,0.12,-0.09,1.0,u
963.0,2960.0,3798.0,3248.0,4095.0,4095.0,3326.0,3643.0,0.07,10.36,0.17,0.04,0.41,-0.17,1.0,u
963.0,2970.0,3801.0,3250.0,4095.0,4095.0,3323.0,3647.0,-0.7,9.91,0.18,-0.08,0.44,-0.15,1.0,u
964.0,2969.0,3814.0,3248.0,4095.0,4095.0,3328.0,3637.0,-0.86,9.98,-0.12,0.01,-0.07,-0.1,1.0,u
960.0,2990.0,3807.0,3264.0,4095.0,4095.0,3333.0,3650.0,-0.47,10.1,-0.09,-0.12,-0.06,-0.03,1.0,u
949.0,2963.0,3813.0,3269.0,4095.0,4095.0,3330.0,3641.0,-0.32,9.92,0.12,-0.14,-0.06,-0.03,1.0,u
958.0,2981.0,3799.0,3271.0,4095.0,4095.0,3329.0,3645.0,-0.37,10.11,0.2,-0.1,-0.02,-0.04,1.0,u
949.0,2975.0,3807.0,3274.0,4095.0,4095.0,3326.0,3646.0,-0.39,9.99,0.29,-0.07,-0.01,-0.05,1.0,u
912.0,2963.0,3792.0,3239.0,4095.0,4095.0,3340.0,3652.0,-4.47,8.41,2.79,-0.07,-0.04,0.02,1.0,u
917.0,2975.0,3791.0,3250.0,4095.0,4095.0,3334.0,3647.0,-4.39,8.49,2.68,-0.05,-0.03,-0.0,1.0,u
909.0,2977.0,3793.0,3248.0,4095.0,4095.0,3345.0,3648.0,-4.35,8.53,2.58,-0.03,-0.02,-0.03,1.0,u
912.0,2977.0,3803.0,3252.0,4095.0,4095.0,3332.0,3643.0,-4.32,8.5,2.66,-0.06,-0.03,-0.04,1.0,u
907.0,2973.0,3793.0,3245.0,4095.0,4095.0,3342.0,3658.0,-4.46,8.41,2.67,-0.06,0.03,-0.05,1.0,u
915.0,2981.0,3809.0,3253.0,4095.0,4095.0,3344.0,3649.0,-4.62,8.45,2.63,-0.05,0.01,-0.05,1.0,u
913.0,2978.0,3797.0,3250.0,4095.0,4095.0,3344.0,3650.0,-4.65,8.34,2.64,-0.07,0.02,-0.03,1.0,u
912.0,2980.0,3806.0,3255.0,4095.0,4095.0,3344.0,3650.0,-4.58,8.44,2.7,-0.04,-0.02,-0.02,1.0,u
917.0,2982.0,3805.0,3261.0,4095.0,4095.0,3344.0,3655.0,-4.48,8.37,2.64,-0.05,0.03,-0.0,1.0,u
903.0,2980.0,3802.0,3261.0,4095.0,4095.0,3343.0,3655.0,-4.41,8.49,2.62,-0.03,-0.02,-0.03,1.0,u
905.0,2977.0,3811.0,3254.0,4095.0,4095.0,3343.0,3649.0,-4.34,8.51,2.56,-0.03,0.01,-0.03,1.0,u
912.0,2970.0,3803.0,3257.0,4095.0,4095.0,3344.0,3654.0,-4.38,8.5,2.55,-0.03,0.01,-0.04,1.0,u
912.0,2975.0,3805.0,3262.0,4095.0,4095.0,3344.0,3655.0,-4.45,8.51,2.55,-0.04,0.01,-0.05,1.0,u
911.0,2973.0,3807.0,3255.0,4095.0,4095.0,3344.0,3654.0,-4.44,8.44,2.62,-0.05,0.0,-0.04,1.0,u
912.0,2975.0,3795.0,3259.0,4095.0,4095.0,3342.0,3659.0,-4.54,8.35,2.59,-0.07,0.01,-0.03,1.0,u
912.0,2986.0,3817.0,3263.0,4095.0,4095.0,3341.0,3654.0,-4.53,8.47,2.55,-0.07,-0.01,-0.03,1.0,u
912.0,2974.0,3802.0,3264.0,4095.0,4095.0,3342.0,3655.0,-4.53,8.43,2.54,-0.08,-0.02,-0.02,1.0,u
902.0,2965.0,3803.0,3263.0,4095.0,4095.0,3339.0,3657.0,-4.45,8.47,2.59,-0.06,-0.03,-0.03,1.0,u
911.0,2978.0,3797.0,3264.0,4095.0,4095.0,3335.0,3651.0,-4.46,8.44,2.69,-0.07,-0.01,-0.03,1.0,u
903.0,2977.0,3805.0,3269.0,4095.0,4095.0,3341.0,3654.0,-4.37,8.46,2.66,-0.05,-0.01,-0.04,1.0,u
912.0,2974.0,3794.0,3340.0,4095.0,4095.0,3312.0,3669.0,1.64,9.53,3.36,-0.01,0.02,-0.12,1.0,u
910.0,2975.0,3773.0,3339.0,4095.0,4095.0,3312.0,3671.0,1.41,9.26,3.49,-0.1,0.0,-0.09,1.0,u
913.0,2982.0,3782.0,3325.0,4095.0,4095.0,3313.0,3674.0,1.27,9.4,3.63,-0.09,-0.02,-0.06,1.0,u
912.0,2976.0,3787.0,3335.0,4095.0,4095.0,3327.0,3681.0,1.39,9.38,3.76,-0.08,-0.03,-0.02,1.0,u
915.0,2960.0,3776.0,3334.0,4095.0,4095.0,3314.0,3667.0,1.47,9.42,3.61,-0.08,0.04,-0.01,1.0,u
909.0,2978.0,3797.0,3342.0,4095.0,4095.0,3312.0,3661.0,1.56,9.48,3.57,-0.08,0.02,-0.02,1.0,u
915.0,2979.0,3794.0,3335.0,4095.0,4095.0,3321.0,3671.0,1.78,9.45,3.5,-0.09,0.02,-0.05,1.0,u
911.0,2973.0,3801.0,3332.0,4095.0,4095.0,3319.0,3674.0,1.75,9.4,3.56,-0.14,0.02,-0.08,1.0,u
923.0,2975.0,3788.0,3332.0,4095.0,4095.0,3323.0,3677.0,1.43,9.32,3.78,-0.19,-0.01,-0.09,1.0,u
914.0,2971.0,3801.0,3342.0,4095.0,4095.0,3326.0,3678.0,1.29,9.27,3.97,-0.15,0.0,-0.07,1.0,u
913.0,2974.0,3792.0,3344.0,4095.0,4095.0,3323.0,3664.0,1.37,9.35,4.0,-0.1,0.01,-0.06,1.0,u
913.0,2978.0,3771.0,3338.0,4095.0,4095.0,3321.0,3665.0,1.45,9.28,4.03,-0.05,0.01,-0.06,1.0,u
905.0,2981.0,3781.0,3343.0,4095.0,4095.0,3316.0,3674.0,1.2,9.15,3.99,-0.06,0.01,-0.02,1.0,u
909.0,2990.0,3791.0,3343.0,4095.0,4095.0,3318.0,3675.0,1.48,9.39,3.89,-0.02,-0.0,-0.02,1.0,u
907.0,2982.0,3792.0,3339.0,4095.0,4095.0,3325.0,3674.0,1.62,9.42,3.75,-0.01,0.0,-0.04,1.0,u
912.0,2992.0,3781.0,3347.0,4095.0,4095.0,3318.0,3663.0,1.57,9.48,3.68,-0.02,0.0,-0.07,1.0,u
912.0,2983.0,3804.0,3347.0,4095.0,4095.0,3321.0,3669.0,1.3,9.29,3.75,-0.05,0.0,-0.05,1.0,u
912.0,2990.0,3795.0,3346.0,4095.0,4095.0,3314.0,3671.0,1.39,9.16,3.95,-0.07,-0.01,-0.04,1.0,u
902.0,2982.0,3794.0,3340.0,4095.0,4095.0,3318.0,3666.0,1.38,9.41,3.8,-0.05,-0.0,-0.02,1.0,u
917.0,2983.0,3793.0,3346.0,4095.0,4095.0,3327.0,3682.0,1.51,9.39,3.67,-0.05,0.02,-0.02,1.0,u
907.0,2970.0,3792.0,3325.0,4095.0,4095.0,3329.0,3669.0,2.32,9.66,2.04,-0.04,-0.02,-0.06,1.0,u
918.0,2982.0,3813.0,3331.0,4095.0,4095.0,3328.0,3653.0,2.48,9.6,1.88,-0.05,-0.01,-0.03,1.0,u
907.0,2983.0,3795.0,3328.0,4095.0,4095.0,3329.0,3665.0,2.65,9.62,1.79,-0.09,-0.0,-0.04,1.0,u
910.0,2975.0,3805.0,3328.0,4095.0,4095.0,3330.0,3671.0,2.65,9.69,1.8,-0.08,-0.02,-0.06,1.0,u
899.0,2970.0,3790.0,3321.0,4095.0,4095.0,3328.0,3667.0,2.43,9.74,1.85,-0.09,0.01,-0.07,1.0,u
916.0,2979.0,3792.0,3326.0,4095.0,4095.0,3323.0,3667.0,2.45,9.61,2.02,-0.1,-0.02,-0.06,1.0,u
917.0,2969.0,3792.0,3323.0,4095.0,4095.0,3329.0,3675.0,2.5,9.66,2.15,-0.07,-0.0,-0.06,1.0,u
912.0,2987.0,3791.0,3327.0,4095.0,4095.0,3324.0,3665.0,2.49,9.53,2.12,-0.07,-0.02,-0.04,1.0,u
916.0,2978.0,3813.0,3330.0,4095.0,4095.0,3339.0,3664.0,2.77,9.7,2.09,0.03,-0.09,-0.05,1.0,u
909.0,2985.0,3808.0,3329.0,4095.0,4095.0,3327.0,3664.0,2.52,9.71,1.86,-0.04,-0.01,-0.14,1.0,u
912.0,2967.0,3792.0,3322.0,4095.0,4095.0,3340.0,3674.0,2.26,9.68,1.84,-0.06,-0.07,-0.13,1.0,u
916.0,2966.0,3804.0,3327.0,4095.0,4095.0,3343.0,3667.0,2.22,9.66,1.95,-0.06,-0.02,-0.1,1.0,u
918.0,2985.0,3804.0,3329.0,4095.0,4095.0,3327.0,3663.0,2.3,9.73,1.96,-0.03,-0.03,-0.1,1.0,u
919.0,2981.0,3793.0,3316.0,4095.0,4095.0,3332.0,3664.0,2.34,9.69,1.83,-0.06,-0.03,-0.09,1.0,u
913.0,2975.0,3815.0,3328.0,4095.0,4095.0,3329.0,3658.0,2.31,9.8,1.75,-0.05,-0.02,-0.1,1.0,u
917.0,2977.0,3795.0,3317.0,4095.0,4095.0,3332.0,3670.0,2.4,9.7,1.78,-0.09,-0.03,-0.1,1.0,u
911.0,2976.0,3792.0,3323.0,4095.0,4095.0,3331.0,3664.0,2.28,9.82,1.8,-0.1,-0.03,-0.12,1.0,u
912.0,2980.0,3796.0,3321.0,4095.0,4095.0,3337.0,3667.0,2.42,9.74,2.0,-0.08,-0.06,-0.16,1.0,u
915.0,2979.0,3797.0,3328.0,4095.0,4095.0,3330.0,3651.0,2.15,9.79,1.88,-0.1,-0.02,-0.18,1.0,u
917.0,2981.0,3802.0,3331.0,4095.0,4095.0,3331.0,3661.0,2.0,9.73,1.91,-0.1,-0.07,-0.2,1.0,u
916.0,2983.0,3798.0,3347.0,4095.0,4095.0,3337.0,3669.0,-2.06,9.73,1.72,-0.05,-0.0,-0.02,1.0,u
916.0,2983.0,3798.0,3347.0,4095.0,4095.0,3337.0,3669.0,-2.06,9.73,1.72,-0.05,-0.0,-0.02,1.0,u
915.0,3017.0,3790.0,3343.0,4095.0,4095.0,3335.0,3674.0,-1.98,9.56,1.72,-0.06,0.01,-0.03,1.0,u
914.0,2976.0,3790.0,3343.0,4095.0,4095.0,3335.0,3667.0,-1.94,9.67,1.68,-0.05,0.0,-0.05,1.0,u
907.0,2989.0,3807.0,3346.0,4095.0,4095.0,3334.0,3664.0,-2.14,9.64,1.64,-0.06,0.0,-0.05,1.0,u
907.0,2974.0,3783.0,3344.0,4095.0,4095.0,3328.0,3663.0,-2.12,9.67,1.67,-0.06,0.0,-0.03,1.0,u
912.0,2975.0,3792.0,3341.0,4095.0,4095.0,3337.0,3677.0,-2.09,9.62,1.55,-0.06,0.03,-0.03,1.0,u
907.0,2982.0,3792.0,3341.0,4095.0,4095.0,3335.0,3674.0,-2.16,9.66,1.53,-0.1,0.02,-0.02,1.0,u
911.0,2990.0,3792.0,3347.0,4095.0,4095.0,3331.0,3662.0,-2.15,9.63,1.64,-0.09,0.0,-0.01,1.0,u
907.0,2975.0,3793.0,3344.0,4095.0,4095.0,3341.0,3669.0,-2.25,9.62,1.6,-0.1,0.04,-0.01,1.0,u
906.0,2973.0,3784.0,3343.0,4095.0,4095.0,3329.0,3664.0,-2.18,9.63,1.69,-0.1,0.0,0.0,1.0,u
911.0,2981.0,3789.0,3341.0,4095.0,4095.0,3330.0,3660.0,-2.01,9.69,1.75,-0.09,0.0,0.01,1.0,u
906.0,2982.0,3792.0,3343.0,4095.0,4095.0,3338.0,3664.0,-2.01,9.73,1.64,-0.09,0.04,-0.0,1.0,u
904.0,2987.0,3797.0,3349.0,4095.0,4095.0,3333.0,3669.0,-1.95,9.68,1.78,-0.08,0.0,-0.02,1.0,u
907.0,2979.0,3808.0,3349.0,4095.0,4095.0,3338.0,3675.0,-1.86,9.69,1.84,-0.07,-0.03,-0.02,1.0,u
905.0,2987.0,3790.0,3354.0,4095.0,4095.0,3339.0,3654.0,-1.92,9.67,1.77,-0.05,0.04,-0.03,1.0,u
922.0,2970.0,3799.0,3347.0,4095.0,4095.0,3335.0,3664.0,-1.97,9.66,1.75,-0.09,0.0,-0.03,1.0,u
915.0,2985.0,3795.0,3346.0,4095.0,4095.0,3331.0,3662.0,-1.87,9.64,1.89,-0.07,-0.01,-0.04,1.0,u
907.0,2980.0,3798.0,3343.0,4095.0,4095.0,3335.0,3671.0,-2.02,9.69,1.79,-0.06,0.03,-0.04,1.0,u
914.0,2974.0,3789.0,3344.0,4095.0,4095.0,3329.0,3665.0,-1.97,9.66,1.81,-0.07,-0.01,-0.04,1.0,u
918.0,2979.0,3797.0,3360.0,4095.0,4095.0,3341.0,3675.0,-4.49,7.97,3.79,-0.11,0.01,-0.03,1.0,u
935.0,2983.0,3809.0,3370.0,4095.0,4095.0,3335.0,3664.0,-4.65,7.93,3.95,-0.12,-0.01,-0.03,1.0,u
916.0,2983.0,3792.0,3358.0,4095.0,4095.0,3335.0,3671.0,-4.56,7.91,4.05,-0.11,-0.05,-0.0,1.0,u
916.0,2976.0,3808.0,3367.0,4095.0,4095.0,3339.0,3666.0,-4.38,7.87,4.01,-0.09,-0.0,-0.02,1.0,u
921.0,2977.0,3803.0,3365.0,4095.0,4095.0,3339.0,3671.0,-4.48,7.9,4.09,-0.09,-0.01,-0.03,1.0,u
922.0,2973.0,3788.0,3362.0,4095.0,4095.0,3332.0,3667.0,-4.45,7.82,4.11,-0.09,-0.01,-0.03,1.0,u
917.0,2974.0,3787.0,3367.0,4095.0,4095.0,3337.0,3669.0,-4.47,7.9,4.2,-0.07,-0.01,-0.03,1.0,u
923.0,2975.0,3802.0,3367.0,4095.0,4095.0,3343.0,3673.0,-4.46,7.82,4.1,-0.04,0.02,-0.03,1.0,u
919.0,2978.0,3792.0,3358.0,4095.0,4095.0,3338.0,3673.0,-4.5,7.89,4.0,-0.04,0.01,-0.05,1.0,u
923.0,2980.0,3792.0,3365.0,4095.0,4095.0,3330.0,3664.0,-4.56,7.92,3.84,-0.07,0.02,-0.04,1.0,u
914.0,2984.0,3796.0,3359.0,4095.0,4095.0,3334.0,3671.0,-4.58,7.9,3.9,-0.06,-0.0,-0.04,1.0,u
912.0,2973.0,3791.0,3362.0,4095.0,4095.0,3334.0,3670.0,-4.64,7.9,4.0,-0.08,-0.04,-0.02,1.0,u
930.0,2975.0,3801.0,3366.0,4095.0,4095.0,3341.0,3674.0,-4.53,7.84,4.02,-0.09,-0.01,0.0,1.0,u
917.0,2979.0,3794.0,3359.0,4095.0,4095.0,3341.0,3681.0,-4.48,7.85,4.1,-0.08,-0.04,0.0,1.0,u
933.0,2953.0,3792.0,3363.0,4095.0,4095.0,3335.0,3678.0,-4.43,7.84,4.12,-0.07,-0.01,-0.0,1.0,u
949.0,2974.0,3791.0,3359.0,4095.0,4095.0,3338.0,3679.0,-4.35,7.91,4.08,-0.08,-0.04,-0.01,1.0,u
939.0,2977.0,3783.0,3369.0,4095.0,4095.0,3331.0,3673.0,-4.4,7.93,4.04,-0.1,-0.01,-0.01,1.0,u
935.0,2975.0,3790.0,3365.0,4095.0,4095.0,3332.0,3675.0,-4.39,7.83,4.22,-0.09,-0.01,-0.03,1.0,u
944.0,2978.0,3787.0,3359.0,4095.0,4095.0,3339.0,3676.0,-4.62,7.89,4.23,-0.07,0.04,0.0,1.0,u
940.0,3141.0,3786.0,3370.0,4095.0,4095.0,3341.0,3678.0,-4.44,7.96,4.04,-0.04,-0.0,-0.01,1.0,u
928.0,2942.0,3789.0,3382.0,4095.0,4095.0,3326.0,3675.0,0.91,9.01,4.82,-0.06,0.01,-0.03,1.0,u
937.0,2982.0,3787.0,3379.0,4095.0,4095.0,3330.0,3671.0,0.73,9.05,4.7,-0.02,0.02,-0.08,1.0,u
934.0,2973.0,3775.0,3375.0,4095.0,4095.0,3327.0,3674.0,0.65,9.02,4.63,-0.03,-0.01,-0.09,1.0,u
938.0,2918.0,3789.0,3371.0,4095.0,4095.0,3328.0,3676.0,0.53,9.12,4.57,-0.03,0.0,-0.09,1.0,u
940.0,2976.0,3787.0,3378.0,4095.0,4095.0,3328.0,3664.0,0.47,9.08,4.54,-0.02,-0.0,-0.08,1.0,u
934.0,2977.0,3762.0,3375.0,4095.0,4095.0,3330.0,3674.0,0.39,9.09,4.38,-0.04,0.02,-0.07,1.0,u
942.0,2977.0,3788.0,3377.0,4095.0,4095.0,3330.0,3671.0,0.31,9.04,4.45,-0.07,0.02,-0.05,1.0,u
934.0,2996.0,3795.0,3382.0,4095.0,4095.0,3328.0,3674.0,0.36,9.06,4.48,-0.08,-0.01,-0.01,1.0,u
930.0,2974.0,3787.0,3376.0,4095.0,4095.0,3334.0,3666.0,0.51,9.08,4.62,-0.07,0.02,-0.01,1.0,u
934.0,2977.0,3782.0,3383.0,4095.0,4095.0,3330.0,3665.0,0.54,9.06,4.69,-0.05,0.02,-0.01,1.0,u
934.0,2978.0,3795.0,3376.0,4095.0,4095.0,3328.0,3680.0,0.5,9.05,4.64,-0.06,0.03,-0.02,1.0,u
944.0,2971.0,3792.0,3376.0,4095.0,4095.0,3329.0,3667.0,0.48,9.09,4.55,-0.06,-0.02,-0.03,1.0,u
926.0,2975.0,3784.0,3376.0,4095.0,4095.0,3329.0,3679.0,0.58,9.03,4.74,-0.05,-0.01,-0.04,1.0,u
941.0,2977.0,3774.0,3385.0,4095.0,4095.0,3325.0,3668.0,0.48,9.03,4.65,-0.05,0.0,-0.05,1.0,u
927.0,2969.0,3798.0,3376.0,4095.0,4095.0,3328.0,3673.0,0.43,9.1,4.59,-0.05,-0.01,-0.03,1.0,u
934.0,2926.0,3798.0,3378.0,4095.0,4095.0,3329.0,3664.0,0.68,9.09,4.61,0.0,-0.01,-0.05,1.0,u
935.0,2970.0,3789.0,3382.0,4095.0,4095.0,3328.0,3666.0,0.56,9.08,4.46,-0.03,0.01,-0.06,1.0,u
939.0,2978.0,3781.0,3373.0,4095.0,4095.0,3329.0,3669.0,0.54,9.06,4.43,-0.07,-0.05,-0.07,1.0,u
934.0,2978.0,3787.0,3373.0,4095.0,4095.0,3336.0,3680.0,0.41,9.17,4.56,-0.05,0.0,-0.08,1.0,u
947.0,2979.0,3803.0,3376.0,4095.0,4095.0,3333.0,3673.0,0.39,8.88,4.77,0.02,-0.02,-0.11,1.0,u
897.0,2961.0,3815.0,3342.0,4095.0,4095.0,3281.0,3631.0,-0.01,10.1,0.75,-0.26,-0.04,-0.03,1.0,u
906.0,2960.0,3811.0,3338.0,4095.0,4095.0,3290.0,3641.0,0.05,9.99,0.84,-0.07,0.02,-0.04,1.0,u
912.0,2961.0,3819.0,3344.0,4095.0,4095.0,3301.0,3631.0,0.11,9.97,0.8,-0.15,-0.03,-0.01,1.0,u
909.0,2958.0,3815.0,3341.0,4095.0,4095.0,3297.0,3635.0,0.18,9.97,0.8,-0.07,-0.02,-0.03,1.0,u
906.0,3019.0,3819.0,3343.0,4095.0,4095.0,3301.0,3636.0,0.26,9.92,0.7,-0.04,-0.01,-0.07,1.0,u
903.0,2947.0,3815.0,3334.0,4095.0,4095.0,3291.0,3633.0,0.15,10.15,0.62,-0.07,-0.04,-0.06,1.0,u
906.0,2955.0,3815.0,3341.0,4095.0,4095.0,3294.0,3636.0,0.06,9.93,0.66,-0.06,-0.02,-0.06,1.0,u
905.0,2957.0,3817.0,3337.0,4095.0,4095.0,3298.0,3645.0,-0.05,9.97,0.59,-0.08,-0.03,-0.04,1.0,u
912.0,2967.0,3825.0,3342.0,4095.0,4095.0,3297.0,3632.0,-0.1,10.12,0.65,-0.08,-0.01,-0.04,1.0,u
906.0,2958.0,3817.0,3340.0,4095.0,4095.0,3301.0,3643.0,0.03,10.1,0.6,-0.07,0.0,-0.03,1.0,u
907.0,2966.0,3824.0,3344.0,4095.0,4095.0,3302.0,3635.0,-0.02,10.09,0.54,-0.04,0.02,-0.04,1.0,u
906.0,2955.0,3811.0,3346.0,4095.0,4095.0,3293.0,3632.0,0.02,10.11,0.54,-0.16,-0.01,-0.02,1.0,u
909.0,2955.0,3817.0,3341.0,4095.0,4095.0,3294.0,3634.0,0.07,10.01,0.71,-0.02,0.03,-0.06,1.0,u
912.0,2955.0,3811.0,3341.0,4095.0,4095.0,3291.0,3635.0,0.06,9.99,0.66,-0.14,-0.05,-0.04,1.0,u
912.0,2929.0,3821.0,3344.0,4095.0,4095.0,3301.0,3645.0,-0.13,10.11,0.71,-0.09,0.01,-0.05,1.0,u
907.0,2964.0,3819.0,3345.0,4095.0,4095.0,3297.0,3642.0,-0.09,10.03,0.36,-0.07,0.02,0.01,1.0,u
910.0,2960.0,3815.0,3344.0,4095.0,4095.0,3300.0,3641.0,-0.07,10.33,-0.17,-0.2,-0.02,-0.01,1.0,u
914.0,2947.0,3801.0,3333.0,4095.0,4095.0,3296.0,3639.0,-0.08,10.11,0.33,-0.36,-0.02,-0.08,1.0,u
906.0,2957.0,3811.0,3339.0,4095.0,4095.0,3297.0,3639.0,-0.01,10.05,1.17,-0.37,-0.09,-0.04,1.0,u
911.0,2965.0,3833.0,3344.0,4095.0,4095.0,3293.0,3633.0,0.23,9.92,1.76,-0.39,-0.09,0.01,1.0,u
930.0,2969.0,3827.0,3330.0,4095.0,4095.0,3296.0,3623.0,-0.88,8.49,5.16,-0.02,-0.01,-0.08,1.0,u
924.0,2966.0,3828.0,3337.0,4095.0,4095.0,3303.0,3630.0,-0.97,8.61,5.26,0.02,-0.0,-0.07,1.0,u
925.0,2955.0,3841.0,3327.0,4095.0,4095.0,3303.0,3635.0,-1.09,8.65,5.11,-0.04,0.06,-0.02,1.0,u
929.0,2956.0,3813.0,3313.0,4095.0,4095.0,3299.0,3629.0,-1.04,8.82,5.05,-0.01,0.05,0.0,1.0,u
923.0,2965.0,3839.0,3313.0,4095.0,4095.0,3304.0,3633.0,-1.04,8.81,4.97,-0.07,0.01,-0.03,1.0,u
929.0,2960.0,3815.0,3323.0,4095.0,4095.0,3301.0,3631.0,-0.98,8.89,4.98,-0.06,0.01,-0.03,1.0,u
939.0,2960.0,3824.0,3318.0,4095.0,4095.0,3303.0,3635.0,-0.87,8.67,5.13,-0.09,-0.03,-0.03,1.0,u
930.0,3024.0,3823.0,3322.0,4095.0,4095.0,3305.0,3634.0,-1.1,8.5,5.22,-0.1,0.01,-0.03,1.0,u
921.0,2967.0,3839.0,3329.0,4095.0,4095.0,3305.0,3635.0,-0.99,8.7,5.26,-0.05,0.02,-0.03,1.0,u
927.0,2957.0,3817.0,3311.0,4095.0,4095.0,3301.0,3637.0,-1.08,8.57,5.22,-0.01,0.07,-0.01,1.0,u
914.0,2973.0,3829.0,3310.0,4095.0,4095.0,3309.0,3643.0,-0.99,8.57,5.19,-0.03,-0.04,-0.02,1.0,u
929.0,2966.0,3823.0,3307.0,4095.0,4095.0,3303.0,3633.0,-0.91,8.77,5.07,0.05,-0.03,-0.02,1.0,u
928.0,2962.0,3838.0,3306.0,4095.0,4095.0,3306.0,3642.0,-0.95,8.61,5.03,-0.08,0.04,-0.0,1.0,u
923.0,2963.0,3824.0,3303.0,4095.0,4095.0,3306.0,3638.0,-1.04,8.62,5.01,-0.08,-0.0,-0.01,1.0,u
929.0,2966.0,3827.0,3312.0,4095.0,4095.0,3298.0,3638.0,-0.86,8.89,4.83,-0.16,-0.0,-0.05,1.0,u
931.0,2965.0,3839.0,3312.0,4095.0,4095.0,3306.0,3632.0,-0.85,8.83,5.16,-0.12,-0.01,-0.03,1.0,u
919.0,2961.0,3831.0,3312.0,4095.0,4095.0,3311.0,3632.0,-0.93,8.55,5.45,-0.06,0.01,-0.02,1.0,u
927.0,2967.0,3847.0,3312.0,4095.0,4095.0,3312.0,3648.0,-0.7,8.7,5.31,-0.0,0.01,-0.04,1.0,u
937.0,2965.0,3827.0,3311.0,4095.0,4095.0,3310.0,3634.0,-0.85,8.62,5.19,-0.04,0.08,-0.03,1.0,u
916.0,2963.0,3823.0,3294.0,4095.0,4095.0,3303.0,3645.0,-0.88,8.65,5.25,-0.04,0.03,-0.04,1.0,u
919.0,2971.0,3825.0,3335.0,4095.0,4095.0,3305.0,3633.0,-4.53,8.63,1.76,-0.29,-0.02,-0.16,1.0,u
926.0,2972.0,3815.0,3334.0,4095.0,4095.0,3302.0,3638.0,-4.78,8.57,2.1,-0.2,0.06,-0.11,1.0,u
927.0,2965.0,3819.0,3337.0,4095.0,4095.0,3307.0,3646.0,-4.77,8.55,2.2,-0.13,0.0,-0.04,1.0,u
926.0,2960.0,3819.0,3343.0,4095.0,4095.0,3309.0,3639.0,-4.57,8.57,2.11,-0.08,0.01,0.01,1.0,u
933.0,2971.0,3797.0,3344.0,4095.0,4095.0,3303.0,3637.0,-4.4,8.66,1.88,-0.07,0.0,0.03,1.0,u
932.0,2971.0,3824.0,3346.0,4095.0,4095.0,3309.0,3647.0,-4.25,8.77,1.79,-0.02,-0.0,0.03,1.0,u
925.0,2973.0,3802.0,3343.0,4095.0,4095.0,3301.0,3637.0,-4.13,8.82,1.67,-0.05,0.02,0.03,1.0,u
926.0,2975.0,3812.0,3339.0,4095.0,4095.0,3306.0,3632.0,-4.15,8.85,1.65,-0.04,-0.0,0.01,1.0,u
928.0,2977.0,3808.0,3342.0,4095.0,4095.0,3310.0,3633.0,-4.1,8.81,1.73,-0.05,-0.03,0.0,1.0,u
922.0,2970.0,3806.0,3348.0,4095.0,4095.0,3302.0,3631.0,-4.16,8.78,1.59,-0.07,-0.07,-0.02,1.0,u
923.0,2961.0,3819.0,3356.0,4095.0,4095.0,3301.0,3632.0,-4.08,8.86,1.66,-0.07,-0.26,-0.02,1.0,u
936.0,2973.0,3814.0,3351.0,4095.0,4095.0,3302.0,3632.0,-4.04,8.72,1.95,-0.07,0.06,-0.02,1.0,u
918.0,2962.0,3811.0,3361.0,4095.0,4095.0,3309.0,3631.0,-4.45,8.75,1.89,-0.09,0.07,-0.03,1.0,u
925.0,2976.0,3824.0,3363.0,4095.0,4095.0,3299.0,3622.0,-4.25,8.76,1.9,-0.04,0.02,-0.03,1.0,u
931.0,2971.0,3818.0,3359.0,4095.0,4095.0,3302.0,3630.0,-4.32,8.8,1.85,-0.08,0.01,-0.01,1.0,u
927.0,2970.0,3828.0,3365.0,4095.0,4095.0,3301.0,3638.0,-4.27,8.81,1.83,-0.08,0.0,0.0,1.0,u
934.0,2965.0,3810.0,3357.0,4095.0,4095.0,3299.0,3629.0,-4.23,8.76,1.88,-0.07,-0.03,0.01,1.0,u
918.0,2969.0,3819.0,3364.0,4095.0,4095.0,3290.0,3628.0,-4.56,8.78,1.7,-0.03,-0.07,0.01,1.0,u
923.0,2962.0,3792.0,3357.0,4095.0,4095.0,3291.0,3632.0,-4.5,8.73,1.71,-0.06,-0.4,0.06,1.0,u
927.0,2963.0,3814.0,3361.0,4095.0,4095.0,3289.0,3632.0,-3.97,8.86,2.06,-0.04,-0.32,0.1,1.0,u
915.0,2971.0,3824.0,3376.0,4095.0,4095.0,3298.0,3642.0,-0.27,10.18,-0.86,0.12,0.1,0.19,1.0,u
924.0,2960.0,3798.0,3371.0,4095.0,4095.0,3295.0,3633.0,-0.31,10.19,-0.85,-0.03,0.13,0.15,1.0,u
926.0,2966.0,3802.0,3376.0,4095.0,4095.0,3302.0,3643.0,-0.2,10.13,-0.64,-0.04,0.0,0.05,1.0,u
921.0,2972.0,3792.0,3371.0,4095.0,4095.0,3299.0,3638.0,-0.22,10.11,-0.44,-0.1,0.0,-0.01,1.0,u
931.0,2964.0,3791.0,3375.0,4095.0,4095.0,3299.0,3639.0,-0.38,10.06,-0.16,-0.09,0.01,-0.06,1.0,u
926.0,2966.0,3805.0,3373.0,4095.0,4095.0,3296.0,3637.0,-0.51,9.94,0.0,-0.08,-0.06,-0.06,1.0,u
928.0,2967.0,3803.0,3376.0,4095.0,4095.0,3299.0,3635.0,-0.61,9.98,0.1,0.03,-0.08,-0.09,1.0,u
927.0,2965.0,3818.0,3380.0,4095.0,4095.0,3302.0,3626.0,-0.66,10.06,-0.13,0.02,-0.04,-0.06,1.0,u
921.0,2963.0,3815.0,3377.0,4095.0,4095.0,3306.0,3634.0,-0.68,9.98,-0.39,-0.04,0.04,-0.02,1.0,u
926.0,2968.0,3807.0,3376.0,4095.0,4095.0,3305.0,3637.0,-0.74,10.17,-0.73,-0.04,0.03,-0.04,1.0,u
931.0,2974.0,3807.0,3377.0,4095.0,4095.0,3293.0,3623.0,-0.5,9.95,-0.61,-0.09,0.04,-0.06,1.0,u
930.0,2978.0,3787.0,3370.0,4095.0,4095.0,3294.0,3621.0,-0.74,9.96,-0.35,-0.12,0.1,-0.07,1.0,u
926.0,2964.0,3803.0,3376.0,4095.0,4095.0,3291.0,3618.0,-0.94,9.81,-0.07,-0.08,0.0,-0.06,1.0,u
927.0,2970.0,3811.0,3361.0,4095.0,4095.0,3299.0,3627.0,-1.08,9.96,0.12,0.12,0.1,-0.03,1.0,u
935.0,2970.0,3801.0,3370.0,4095.0,4095.0,3304.0,3626.0,-0.83,10.01,-0.25,-0.05,0.02,0.05,1.0,u
937.0,2963.0,3818.0,3366.0,4095.0,4095.0,3298.0,3619.0,-0.66,10.03,-0.3,0.0,0.03,0.06,1.0,u
930.0,2976.0,3822.0,3371.0,4095.0,4095.0,3302.0,3619.0,-0.5,10.04,-0.44,-0.09,-0.01,0.09,1.0,u
932.0,2984.0,3812.0,3376.0,4095.0,4095.0,3301.0,3622.0,-0.94,9.99,-0.43,-0.04,-0.02,0.1,1.0,u
930.0,2959.0,3806.0,3367.0,4095.0,4095.0,3303.0,3631.0,-0.51,9.92,-0.31,0.0,-0.13,0.14,1.0,u
918.0,2975.0,3792.0,3374.0,4095.0,4095.0,3306.0,3631.0,-0.35,10.18,-0.59,-0.02,0.13,0.21,1.0,u
929.0,2974.0,3814.0,3363.0,4095.0,4095.0,3312.0,3662.0,2.04,9.84,1.17,-0.17,-0.04,-0.05,1.0,u
930.0,2963.0,3821.0,3371.0,4095.0,4095.0,3318.0,3657.0,2.17,9.77,1.41,-0.14,-0.0,-0.01,1.0,u
919.0,2972.0,3824.0,3376.0,4095.0,4095.0,3315.0,3663.0,2.32,9.8,1.54,-0.14,-0.02,-0.02,1.0,u
925.0,2974.0,3795.0,3365.0,4095.0,4095.0,3313.0,3649.0,2.46,9.77,1.79,-0.09,-0.02,-0.04,1.0,u
925.0,2961.0,3824.0,3370.0,4095.0,4095.0,3319.0,3661.0,2.3,9.73,1.66,-0.08,-0.03,-0.04,1.0,u
930.0,2981.0,3813.0,3377.0,4095.0,4095.0,3321.0,3654.0,2.33,9.69,1.67,-0.09,-0.03,-0.02,1.0,u
929.0,2971.0,3806.0,3375.0,4095.0,4095.0,3319.0,3660.0,2.71,9.84,1.71,-0.11,-0.02,-0.03,1.0,u
923.0,2981.0,3818.0,3375.0,4095.0,4095.0,3319.0,3659.0,2.66,10.09,1.49,0.0,0.04,-0.18,1.0,u
931.0,2960.0,3807.0,3374.0,4095.0,4095.0,3313.0,3654.0,2.17,9.81,1.5,0.01,-0.02,-0.24,1.0,u
933.0,2951.0,3819.0,3377.0,4095.0,4095.0,3319.0,3664.0,1.92,9.74,1.57,-0.04,-0.05,-0.17,1.0,u
919.0,2975.0,3814.0,3377.0,4095.0,4095.0,3321.0,3663.0,1.57,9.82,1.5,-0.04,-0.09,-0.1,1.0,u
926.0,2969.0,3797.0,3376.0,4095.0,4095.0,3316.0,3664.0,1.92,9.73,1.55,-0.02,-0.07,-0.09,1.0,u
923.0,2971.0,3803.0,3383.0,4095.0,4095.0,3312.0,3659.0,1.69,9.92,1.31,-0.03,0.04,-0.06,1.0,u
919.0,2965.0,3812.0,3386.0,4095.0,4095.0,3319.0,3661.0,1.86,9.87,1.22,-0.09,0.06,-0.02,1.0,u
923.0,2974.0,3803.0,3383.0,4095.0,4095.0,3314.0,3664.0,2.01,9.96,1.33,-0.12,0.35,0.02,1.0,u
932.0,2975.0,3818.0,3376.0,4095.0,4095.0,3314.0,3655.0,1.8,9.74,1.49,-0.14,0.08,0.02,1.0,u
914.0,2963.0,3819.0,3378.0,4095.0,4095.0,3322.0,3665.0,2.12,9.91,1.58,-0.07,-0.05,-0.03,1.0,u
930.0,2973.0,3815.0,3386.0,4095.0,4095.0,3323.0,3671.0,2.04,9.8,1.6,-0.15,0.04,-0.0,1.0,u
928.0,2966.0,3806.0,3386.0,4095.0,4095.0,3312.0,3653.0,2.17,9.81,1.71,-0.07,-0.01,-0.04,1.0,u
927.0,2967.0,3797.0,3376.0,4095.0,4095.0,3313.0,3651.0,2.17,9.7,1.69,-0.13,0.1,-0.0,1.0,u
929.0,2979.0,3822.0,3383.0,4095.0,4095.0,3331.0,3677.0,0.97,8.72,5.29,-0.2,0.03,0.18,1.0,u
923.0,2987.0,3803.0,3380.0,4095.0,4095.0,3326.0,3677.0,1.48,8.76,5.18,-0.18,-0.01,0.17,1.0,u
922.0,2973.0,3817.0,3378.0,4095.0,4095.0,3327.0,3673.0,1.95,8.82,5.28,-0.12,-0.04,0.08,1.0,u
922.0,2971.0,3819.0,3380.0,4095.0,4095.0,3323.0,3675.0,1.76,8.74,5.23,-0.1,0.03,-0.02,1.0,u
931.0,2976.0,3818.0,3376.0,4095.0,4095.0,3328.0,3680.0,1.59,8.74,5.09,-0.08,0.01,-0.07,1.0,u
923.0,2969.0,3803.0,3374.0,4095.0,4095.0,3321.0,3673.0,1.3,8.74,4.96,-0.08,-0.01,-0.06,1.0,u
922.0,2962.0,3822.0,3374.0,4095.0,4095.0,3328.0,3680.0,1.37,8.85,5.06,-0.08,-0.03,-0.06,1.0,u
937.0,2971.0,3810.0,3377.0,4095.0,4095.0,3326.0,3675.0,1.36,8.84,5.14,-0.06,-0.01,-0.04,1.0,u
930.0,2971.0,3809.0,3376.0,4095.0,4095.0,3328.0,3678.0,1.22,8.66,5.11,-0.04,0.04,-0.03,1.0,u
925.0,2977.0,3825.0,3376.0,4095.0,4095.0,3329.0,3671.0,1.24,8.66,5.18,0.02,0.1,0.02,1.0,u
930.0,2987.0,3813.0,3376.0,4095.0,4095.0,3323.0,3671.0,1.24,8.9,5.03,-0.01,0.06,-0.01,1.0,u
922.0,2982.0,3825.0,3373.0,4095.0,4095.0,3330.0,3683.0,1.36,8.85,4.88,0.0,-0.05,-0.08,1.0,u
913.0,2977.0,3824.0,3375.0,4095.0,4095.0,3328.0,3678.0,1.28,8.79,4.86,-0.03,-0.01,-0.06,1.0,u
929.0,2985.0,3824.0,3378.0,4095.0,4095.0,3330.0,3680.0,1.36,8.84,4.92,-0.03,-0.04,-0.05,1.0,u
927.0,2974.0,3815.0,3376.0,4095.0,4095.0,3332.0,3685.0,1.42,8.82,5.0,-0.04,-0.0,-0.05,1.0,u
925.0,2966.0,3824.0,3376.0,4095.0,4095.0,3333.0,3692.0,1.35,8.99,4.87,-0.01,0.04,-0.11,1.0,u
937.0,2983.0,3802.0,3375.0,4095.0,4095.0,3325.0,3674.0,1.12,8.91,4.78,-0.02,0.02,-0.08,1.0,u
931.0,2978.0,3824.0,3381.0,4095.0,4095.0,3331.0,3685.0,1.31,8.86,4.92,-0.02,-0.01,-0.07,1.0,u
922.0,2972.0,3826.0,3371.0,4095.0,4095.0,3328.0,3667.0,1.2,8.92,4.91,-0.01,0.01,-0.07,1.0,u
926.0,2970.0,3824.0,3363.0,4095.0,4095.0,3328.0,3678.0,1.16,8.89,4.88,0.01,-0.02,-0.08,1.0,u
923.0,2965.0,3823.0,3378.0,4095.0,4095.0,3314.0,3662.0,-3.36,9.2,1.8,-0.27,0.09,-0.23,1.0,u
923.0,2973.0,3823.0,3381.0,4095.0,4095.0,3327.0,3663.0,-3.55,9.36,1.65,-0.18,0.11,-0.14,1.0,u
922.0,2973.0,3810.0,3376.0,4095.0,4095.0,3316.0,3659.0,-3.27,9.32,1.55,-0.12,-0.03,-0.04,1.0,u
924.0,2965.0,3825.0,3376.0,4095.0,4095.0,3326.0,3663.0,-2.94,9.51,1.51,-0.08,-0.07,-0.0,1.0,u
931.0,2986.0,3828.0,3379.0,4095.0,4095.0,3315.0,3659.0,-2.72,9.34,1.49,-0.07,-0.02,0.01,1.0,u
927.0,2979.0,3820.0,3378.0,4095.0,4095.0,3328.0,3665.0,-2.73,9.56,1.42,-0.03,-0.0,-0.02,1.0,u
926.0,2913.0,3814.0,3382.0,4095.0,4095.0,3327.0,3662.0,-2.73,9.46,1.4,-0.09,0.01,0.0,1.0,u
929.0,2967.0,3830.0,3390.0,4095.0,4095.0,3315.0,3664.0,-2.74,9.52,1.44,-0.07,-0.02,-0.01,1.0,u
917.0,2977.0,3839.0,3382.0,4095.0,4095.0,3327.0,3666.0,-2.72,9.5,1.45,-0.08,-0.0,-0.03,1.0,u
921.0,2974.0,3825.0,3381.0,4095.0,4095.0,3329.0,3675.0,-2.58,9.4,1.43,-0.1,-0.0,-0.05,1.0,u
929.0,2982.0,3822.0,3390.0,4095.0,4095.0,3322.0,3669.0,-2.77,9.46,1.48,-0.07,0.04,-0.05,1.0,u
928.0,2978.0,3819.0,3386.0,4095.0,4095.0,3330.0,3664.0,-2.88,9.47,1.41,-0.08,0.08,-0.06,1.0,u
926.0,2976.0,3838.0,3381.0,4095.0,4095.0,3325.0,3674.0,-2.87,9.4,1.5,-0.05,0.03,-0.05,1.0,u
929.0,2972.0,3809.0,3377.0,4095.0,4095.0,3327.0,3665.0,-2.91,9.42,1.41,-0.07,0.03,-0.02,1.0,u
930.0,2967.0,3819.0,3387.0,4095.0,4095.0,3328.0,3673.0,-2.79,9.37,1.38,-0.09,-0.02,-0.01,1.0,u
934.0,2979.0,3823.0,3385.0,4095.0,4095.0,3319.0,3661.0,-2.68,9.49,1.49,-0.01,-0.01,-0.04,1.0,u
929.0,2977.0,3824.0,3386.0,4095.0,4095.0,3328.0,3670.0,-2.61,9.45,1.46,-0.07,-0.05,-0.03,1.0,u
926.0,2977.0,3835.0,3393.0,4095.0,4095.0,3325.0,3663.0,-2.71,9.57,1.31,-0.09,0.02,-0.05,1.0,u
925.0,2977.0,3827.0,3382.0,4095.0,4095.0,3327.0,3667.0,-2.83,9.42,1.47,-0.08,-0.01,-0.06,1.0,u
925.0,2973.0,3821.0,3378.0,4095.0,4095.0,3326.0,3664.0,-2.85,9.53,1.52,-0.07,0.01,-0.06,1.0,u
923.0,2885.0,3811.0,3404.0,4095.0,4095.0,3324.0,3666.0,-3.79,8.13,4.34,-0.08,-0.01,-0.07,1.0,u
933.0,3082.0,3819.0,3393.0,4095.0,4095.0,3328.0,3676.0,-4.02,8.18,4.21,-0.08,-0.0,-0.05,1.0,u
917.0,2967.0,3810.0,3401.0,4095.0,4095.0,3323.0,3674.0,-4.0,8.27,4.1,-0.05,0.02,-0.02,1.0,u
926.0,2985.0,3826.0,3404.0,4095.0,4095.0,3330.0,3664.0,-4.0,8.2,4.1,-0.07,0.02,-0.01,1.0,u
929.0,2974.0,3814.0,3391.0,4095.0,4095.0,3328.0,3680.0,-4.2,8.0,4.37,-0.06,-0.01,0.04,1.0,u
937.0,2985.0,3824.0,3396.0,4095.0,4095.0,3328.0,3668.0,-4.11,8.18,4.39,-0.04,-0.04,0.12,1.0,u
929.0,2979.0,3822.0,3328.0,4095.0,4095.0,3316.0,3661.0,-3.7,8.13,4.29,-0.04,-0.02,0.18,1.0,u
925.0,2989.0,3807.0,3343.0,4095.0,4095.0,3316.0,3663.0,-3.36,8.37,4.07,0.03,-0.0,0.11,1.0,u
929.0,2977.0,3835.0,3356.0,4095.0,4095.0,3323.0,3658.0,-3.3,8.44,4.01,-0.01,-0.01,0.09,1.0,u
938.0,2975.0,3812.0,3359.0,4095.0,4095.0,3316.0,3663.0,-3.19,8.46,4.14,-0.02,0.01,0.05,1.0,u
932.0,2974.0,3814.0,3351.0,4095.0,4095.0,3326.0,3674.0,-3.27,8.52,4.06,-0.02,0.04,0.02,1.0,u
940.0,2975.0,3812.0,3346.0,4095.0,4095.0,3319.0,3675.0,-3.41,8.53,4.05,-0.01,0.04,0.01,1.0,u
929.0,2973.0,3830.0,3362.0,4095.0,4095.0,3319.0,3664.0,-3.36,8.52,3.97,-0.02,-0.0,0.01,1.0,u
928.0,2979.0,3807.0,3349.0,4095.0,4095.0,3318.0,3666.0,-3.39,8.58,3.92,-0.07,-0.01,0.02,1.0,u
931.0,2975.0,3815.0,3362.0,4095.0,4095.0,3320.0,3664.0,-3.34,8.5,4.03,-0.05,-0.04,0.02,1.0,u
934.0,2974.0,3815.0,3360.0,4095.0,4095.0,3318.0,3663.0,-3.24,8.52,4.02,-0.05,-0.01,-0.01,1.0,u
931.0,2977.0,3817.0,3360.0,4095.0,4095.0,3328.0,3657.0,-3.24,8.46,4.04,-0.05,0.0,-0.03,1.0,u
919.0,2976.0,3813.0,3363.0,4095.0,4095.0,3322.0,3668.0,-3.29,8.57,4.02,-0.08,0.01,-0.06,1.0,u
929.0,2992.0,3816.0,3365.0,4095.0,4095.0,3323.0,3670.0,-3.33,8.54,4.12,-0.07,0.01,-0.04,1.0,u
927.0,2981.0,3818.0,3361.0,4095.0,4095.0,3327.0,3675.0,-3.41,8.47,4.09,-0.09,0.03,-0.03,1.0,u
912.0,2976.0,3796.0,3355.0,4095.0,4095.0,3329.0,3681.0,0.08,9.81,2.49,-0.07,-0.0,-0.05,1.0,u
929.0,2974.0,3803.0,3357.0,4095.0,4095.0,3334.0,3678.0,0.05,9.72,2.57,-0.08,-0.01,-0.04,1.0,u
929.0,2987.0,3819.0,3356.0,4095.0,4095.0,3331.0,3673.0,-0.04,9.79,2.69,-0.03,-0.02,-0.04,1.0,u
926.0,2974.0,3803.0,3355.0,4095.0,4095.0,3327.0,3669.0,0.02,9.79,2.62,-0.03,0.01,-0.01,1.0,u
926.0,2972.0,3798.0,3348.0,4095.0,4095.0,3325.0,3666.0,0.14,9.84,2.45,-0.0,0.03,-0.01,1.0,u
935.0,2977.0,3794.0,3361.0,4095.0,4095.0,3325.0,3664.0,0.23,9.92,2.25,-0.05,-0.01,-0.02,1.0,u
935.0,2930.0,3810.0,3361.0,4095.0,4095.0,3328.0,3693.0,0.26,9.79,2.31,-0.1,0.01,-0.03,1.0,u
927.0,2974.0,3801.0,3353.0,4095.0,4095.0,3328.0,3681.0,0.23,9.81,2.5,-0.09,-0.02,-0.08,1.0,u
931.0,2977.0,3806.0,3361.0,4095.0,4095.0,3332.0,3679.0,0.05,9.73,2.65,-0.1,-0.04,-0.06,1.0,u
928.0,2985.0,3820.0,3365.0,4095.0,4095.0,3329.0,3669.0,0.02,9.68,2.55,-0.1,0.02,-0.03,1.0,u
913.0,2966.0,3823.0,3367.0,4095.0,4095.0,3329.0,3675.0,0.1,9.88,2.53,-0.08,-0.03,-0.02,1.0,u
921.0,2967.0,3795.0,3362.0,4095.0,4095.0,3328.0,3675.0,0.13,9.82,2.52,-0.08,0.02,-0.03,1.0,u
917.0,3008.0,3802.0,3363.0,4095.0,4095.0,3331.0,3679.0,0.06,9.83,2.61,-0.06,0.03,-0.05,1.0,u
927.0,2977.0,3811.0,3359.0,4095.0,4095.0,3325.0,3669.0,-0.07,9.68,2.77,-0.06,0.03,-0.02,1.0,u
928.0,2973.0,3806.0,3370.0,4095.0,4095.0,3339.0,3681.0,0.01,9.75,2.62,-0.05,0.02,0.03,1.0,u
917.0,2982.0,3818.0,3365.0,4095.0,4095.0,3329.0,3685.0,0.49,9.92,2.4,-0.01,-0.02,-0.01,1.0,u
929.0,2965.0,3792.0,3371.0,4095.0,4095.0,3322.0,3673.0,0.52,9.85,2.31,-0.07,0.01,-0.05,1.0,u
933.0,3019.0,3823.0,3361.0,4095.0,4095.0,3327.0,3675.0,0.35,9.84,2.4,-0.09,-0.08,-0.09,1.0,u
924.0,2979.0,3814.0,3371.0,4095.0,4095.0,3323.0,3671.0,0.28,9.83,2.56,-0.11,-0.05,-0.11,1.0,u
929.0,2978.0,3803.0,3369.0,4095.0,4095.0,3333.0,3680.0,-0.01,9.81,2.79,-0.09,-0.0,-0.1,1.0,u
927.0,2977.0,3817.0,3399.0,4095.0,4095.0,3325.0,3674.0,0.94,9.94,-0.14,-0.21,-0.02,0.03,1.0,u
922.0,2976.0,3795.0,3402.0,4095.0,4095.0,3322.0,3673.0,1.27,9.98,0.07,-0.18,0.07,0.05,1.0,u
929.0,2979.0,3807.0,3398.0,4095.0,4095.0,3322.0,3675.0,1.39,10.03,0.16,-0.12,0.06,0.01,1.0,u
923.0,2986.0,3809.0,3393.0,4095.0,4095.0,3326.0,3670.0,1.49,9.98,0.13,-0.14,0.03,-0.03,1.0,u
918.0,2972.0,3824.0,3376.0,4095.0,4095.0,3319.0,3664.0,1.48,10.0,0.42,-0.09,-0.07,-0.09,1.0,u
927.0,2989.0,3802.0,3377.0,4095.0,4095.0,3316.0,3655.0,1.2,10.01,0.26,-0.05,-0.01,-0.11,1.0,u
931.0,2981.0,3824.0,3375.0,4095.0,4095.0,3312.0,3665.0,0.89,9.98,0.11,-0.06,-0.01,-0.1,1.0,u
927.0,2971.0,3801.0,3376.0,4095.0,4095.0,3313.0,3661.0,0.82,9.97,0.15,-0.03,-0.01,-0.07,1.0,u
927.0,2983.0,3815.0,3376.0,4095.0,4095.0,3312.0,3664.0,0.95,10.03,-0.03,-0.02,0.02,-0.07,1.0,u
928.0,2987.0,3792.0,3382.0,4095.0,4095.0,3311.0,3654.0,0.85,10.01,-0.11,-0.06,0.03,-0.03,1.0,u
933.0,2991.0,3814.0,3388.0,4095.0,4095.0,3317.0,3665.0,0.89,10.13,-0.28,-0.1,0.01,-0.01,1.0,u
923.0,2989.0,3811.0,3391.0,4095.0,4095.0,3321.0,3664.0,1.06,10.07,-0.2,-0.14,0.01,-0.0,1.0,u
932.0,2983.0,3807.0,3392.0,4095.0,4095.0,3325.0,3673.0,1.13,10.1,-0.01,-0.15,0.01,-0.0,1.0,u
919.0,2981.0,3818.0,3394.0,4095.0,4095.0,3312.0,3664.0,1.23,10.12,0.13,-0.17,0.02,-0.05,1.0,u
926.0,2972.0,3815.0,3386.0,4095.0,4095.0,3316.0,3666.0,1.12,10.09,0.23,-0.16,0.01,-0.06,1.0,u
939.0,2975.0,3793.0,3386.0,4095.0,4095.0,3312.0,3665.0,0.94,10.08,0.22,-0.2,0.04,-0.05,1.0,u
919.0,2981.0,3795.0,3385.0,4095.0,4095.0,3319.0,3671.0,1.01,10.07,0.27,-0.15,0.05,-0.06,1.0,u
921.0,2991.0,3808.0,3387.0,4095.0,4095.0,3315.0,3671.0,0.95,10.06,0.33,-0.2,0.05,0.01,1.0,u
931.0,2973.0,3811.0,3391.0,4095.0,4095.0,3326.0,3678.0,1.04,10.0,0.57,-0.18,-0.02,0.0,1.0,u
928.0,2974.0,3809.0,3393.0,4095.0,4095.0,3323.0,3676.0,1.35,10.02,0.76,-0.13,-0.02,-0.05,1.0,u
921.0,2974.0,3822.0,3351.0,4095.0,4095.0,3323.0,3665.0,0.28,8.01,6.58,-0.05,0.04,-0.11,1.0,u
926.0,2965.0,3826.0,3346.0,4095.0,4095.0,3316.0,3671.0,0.02,7.95,6.43,-0.04,0.04,-0.13,1.0,u
911.0,2960.0,3815.0,3354.0,4095.0,4095.0,3322.0,3674.0,-0.04,7.9,6.37,-0.06,-0.01,-0.1,1.0,u
912.0,2971.0,3825.0,3363.0,4095.0,4095.0,3327.0,3682.0,0.03,8.12,6.41,0.03,0.01,-0.12,1.0,u
916.0,2975.0,3806.0,3362.0,4095.0,4095.0,3327.0,3678.0,0.05,8.01,6.22,0.01,0.02,-0.11,1.0,u
918.0,2963.0,3813.0,3346.0,4095.0,4095.0,3318.0,3668.0,-0.18,8.24,5.93,0.01,0.08,-0.13,1.0,u
918.0,2960.0,3830.0,3344.0,4095.0,4095.0,3316.0,3666.0,-0.2,8.04,6.05,-0.02,0.05,-0.13,1.0,u
926.0,2978.0,3824.0,3350.0,4095.0,4095.0,3315.0,3664.0,-0.34,8.21,5.97,-0.0,0.06,-0.1,1.0,u
912.0,2975.0,3826.0,3363.0,4095.0,4095.0,3319.0,3681.0,-0.29,8.16,6.04,0.01,0.05,-0.1,1.0,u
924.0,2972.0,3820.0,3350.0,4095.0,4095.0,3318.0,3669.0,-0.43,8.1,5.94,-0.09,0.02,-0.06,1.0,u
914.0,2960.0,3810.0,3358.0,4095.0,4095.0,3326.0,3685.0,-0.37,8.15,6.03,-0.01,0.0,-0.06,1.0,u
923.0,2963.0,3830.0,3367.0,4095.0,4095.0,3327.0,3681.0,-0.41,8.11,6.0,-0.09,0.01,-0.03,1.0,u
926.0,2965.0,3815.0,3365.0,4095.0,4095.0,3328.0,3690.0,-0.17,8.08,6.2,-0.05,-0.04,-0.05,1.0,u
922.0,2979.0,3825.0,3381.0,4095.0,4095.0,3322.0,3675.0,-0.23,7.99,6.26,-0.06,0.01,-0.05,1.0,u
922.0,2966.0,3822.0,3381.0,4095.0,4095.0,3319.0,3679.0,-0.29,7.97,6.26,-0.07,-0.01,-0.05,1.0,u
918.0,2976.0,3815.0,3390.0,4095.0,4095.0,3317.0,3673.0,-0.33,8.06,6.21,-0.05,0.0,-0.05,1.0,u
922.0,2978.0,3817.0,3382.0,4095.0,4095.0,3321.0,3671.0,-0.25,8.12,6.08,-0.02,0.01,-0.05,1.0,u
916.0,2979.0,3824.0,3389.0,4095.0,4095.0,3318.0,3670.0,-0.35,8.15,5.99,-0.07,0.01,-0.04,1.0,u
925.0,2960.0,3822.0,3389.0,4095.0,4095.0,3327.0,3686.0,-0.26,8.0,6.13,-0.09,-0.0,-0.06,1.0,u
919.0,2971.0,3823.0,3393.0,4095.0,4095.0,3319.0,3679.0,-0.22,8.14,6.29,-0.06,-0.03,-0.05,1.0,u
928.0,2967.0,3820.0,3408.0,4095.0,4095.0,3328.0,3687.0,-4.99,7.82,3.4,-0.11,0.06,0.04,1.0,u
922.0,2987.0,3817.0,3413.0,4095.0,4095.0,3333.0,3691.0,-4.83,7.8,3.67,-0.14,0.01,0.02,1.0,u
917.0,2981.0,3826.0,3408.0,4095.0,4095.0,3330.0,3690.0,-4.74,7.77,3.94,-0.11,-0.0,-0.0,1.0,u
927.0,2986.0,3818.0,3417.0,4095.0,4095.0,3325.0,3679.0,-4.72,7.76,4.05,-0.06,-0.03,-0.01,1.0,u
921.0,2977.0,3819.0,3408.0,4095.0,4095.0,3330.0,3693.0,-4.72,7.77,3.94,-0.03,-0.05,-0.04,1.0,u
925.0,2992.0,3819.0,3413.0,4095.0,4095.0,3328.0,3696.0,-4.86,7.81,3.77,-0.0,0.03,-0.05,1.0,u
926.0,2971.0,3827.0,3414.0,4095.0,4095.0,3328.0,3678.0,-4.84,7.83,3.63,0.0,0.03,-0.05,1.0,u
924.0,2975.0,3819.0,3408.0,4095.0,4095.0,3334.0,3691.0,-4.91,7.88,3.37,-0.06,0.16,-0.04,1.0,u
931.0,2970.0,3805.0,3402.0,4095.0,4095.0,3330.0,3678.0,-5.6,7.78,3.22,-0.18,0.32,0.11,1.0,u
923.0,2977.0,3823.0,3405.0,4095.0,4095.0,3334.0,3694.0,-5.26,7.71,3.39,-0.13,-0.09,0.12,1.0,u
919.0,2971.0,3815.0,3401.0,4095.0,4095.0,3337.0,3687.0,-4.63,7.93,3.52,-0.08,-0.18,0.09,1.0,u
922.0,2973.0,3815.0,3409.0,4095.0,4095.0,3328.0,3685.0,-4.4,7.93,3.64,-0.13,-0.05,0.07,1.0,u
921.0,2973.0,3808.0,3407.0,4095.0,4095.0,3328.0,3683.0,-4.38,7.97,3.73,-0.15,-0.01,0.03,1.0,u
926.0,2973.0,3818.0,3391.0,4095.0,4095.0,3337.0,3690.0,-4.52,7.9,3.94,-0.16,0.05,0.01,1.0,u
922.0,2973.0,3809.0,3393.0,4095.0,4095.0,3333.0,3693.0,-4.51,7.93,4.07,-0.13,0.04,-0.0,1.0,u
915.0,2982.0,3829.0,3399.0,4095.0,4095.0,3343.0,3687.0,-4.56,7.92,4.01,-0.06,0.09,-0.03,1.0,u
927.0,2864.0,3815.0,3398.0,4095.0,4095.0,3327.0,3686.0,-4.62,7.73,4.06,0.02,0.05,-0.03,1.0,u
926.0,2966.0,3818.0,3360.0,4095.0,4095.0,3324.0,3683.0,-4.68,7.98,3.63,0.01,-0.06,-0.02,1.0,u
925.0,3120.0,3793.0,3354.0,4095.0,4095.0,3331.0,3691.0,-4.69,7.93,3.73,-0.02,0.01,-0.01,1.0,u
919.0,2971.0,3806.0,3357.0,4095.0,4095.0,3333.0,3694.0,-4.81,8.0,3.64,0.01,-0.0,-0.0,1.0,u
3457.0,2959.0,3799.0,3397.0,4095.0,4095.0,3318.0,3658.0,0.27,10.11,0.43,-0.15,0.0,-0.03,1.0,u
3465.0,2957.0,3799.0,3389.0,4095.0,4095.0,3329.0,3664.0,0.33,10.15,0.45,-0.04,-0.0,-0.04,1.0,u
3459.0,2966.0,3813.0,3389.0,4095.0,4095.0,3328.0,3668.0,0.44,10.17,0.34,-0.07,0.0,-0.02,1.0,u
3450.0,2960.0,3805.0,3391.0,4095.0,4095.0,3325.0,3666.0,0.51,10.18,0.26,-0.08,0.02,-0.04,1.0,u
3455.0,2962.0,3806.0,3382.0,4095.0,4095.0,3328.0,3667.0,0.46,10.2,0.28,-0.08,0.01,-0.06,1.0,u
3468.0,2966.0,3805.0,3386.0,4095.0,4095.0,3328.0,3665.0,0.41,9.99,0.45,-0.13,-0.01,-0.05,1.0,u
3472.0,2962.0,3803.0,3383.0,4095.0,4095.0,3321.0,3664.0,0.34,10.13,0.49,-0.1,-0.02,-0.04,1.0,u
3465.0,2963.0,3793.0,3395.0,4095.0,4095.0,3330.0,3658.0,0.34,10.17,0.58,-0.04,0.01,-0.04,1.0,u
3458.0,2969.0,3801.0,3390.0,4095.0,4095.0,3333.0,3668.0,0.35,10.04,0.48,-0.11,0.02,-0.0,1.0,u
3453.0,2961.0,3803.0,3389.0,4095.0,4095.0,3327.0,3677.0,0.5,10.11,0.43,-0.1,0.0,-0.0,1.0,u
3449.0,2966.0,3823.0,3395.0,4095.0,4095.0,3323.0,3662.0,0.49,10.14,0.6,-0.05,-0.01,-0.03,1.0,u
3440.0,2957.0,3792.0,3391.0,4095.0,4095.0,3327.0,3670.0,0.55,10.07,0.6,-0.06,0.01,-0.03,1.0,u
3434.0,2960.0,3807.0,3391.0,4095.0,4095.0,3329.0,3667.0,0.5,9.95,0.55,-0.08,-0.02,-0.03,1.0,u
3455.0,2971.0,3795.0,3393.0,4095.0,4095.0,3322.0,3659.0,0.48,10.03,0.61,-0.09,-0.01,-0.04,1.0,u
3439.0,2975.0,3804.0,3390.0,4095.0,4095.0,3333.0,3668.0,0.41,10.11,0.63,-0.06,0.01,-0.04,1.0,u
3439.0,2963.0,3807.0,3392.0,4095.0,4095.0,3326.0,3661.0,0.48,10.02,0.65,-0.05,0.02,-0.04,1.0,u
3438.0,2960.0,3801.0,3391.0,4095.0,4095.0,3332.0,3667.0,0.46,10.06,0.54,-0.06,0.0,-0.04,1.0,u
3427.0,2963.0,3796.0,3395.0,4095.0,4095.0,3330.0,3664.0,0.51,10.07,0.47,-0.07,0.01,-0.04,1.0,u
3431.0,2967.0,3795.0,3392.0,4095.0,4095.0,3322.0,3664.0,0.49,10.13,0.49,-0.07,0.0,-0.06,1.0,u
3427.0,2973.0,3795.0,3389.0,4095.0,4095.0,3330.0,3670.0,0.4,10.07,0.5,-0.08,0.01,-0.07,1.0,u
3440.0,2969.0,3804.0,3405.0,4095.0,4095.0,3329.0,3674.0,1.9,8.25,5.78,0.03,0.03,-0.1,1.0,u
3438.0,2960.0,3790.0,3398.0,4095.0,4095.0,3331.0,3669.0,1.71,8.32,5.54,0.08,0.04,-0.11,1.0,u
3435.0,2977.0,3822.0,3409.0,4095.0,4095.0,3334.0,3685.0,1.74,8.34,5.43,0.04,0.05,-0.09,1.0,u
3441.0,2962.0,3795.0,3407.0,4095.0,4095.0,3339.0,3680.0,1.68,8.36,5.37,0.02,0.04,-0.06,1.0,u
3466.0,2965.0,3818.0,3402.0,4095.0,4095.0,3339.0,3678.0,1.85,8.37,5.46,-0.02,-0.01,-0.04,1.0,u
3463.0,2965.0,3803.0,3408.0,4095.0,4095.0,3330.0,3675.0,1.84,8.35,5.57,-0.05,0.01,-0.02,1.0,u
3452.0,2965.0,3798.0,3399.0,4095.0,4095.0,3330.0,3672.0,1.91,8.43,5.57,-0.05,0.01,-0.03,1.0,u
3468.0,2972.0,3798.0,3408.0,4095.0,4095.0,3329.0,3665.0,1.81,8.49,5.55,-0.04,0.0,-0.02,1.0,u
3461.0,2965.0,3791.0,3402.0,4095.0,4095.0,3332.0,3671.0,1.9,8.52,5.56,-0.0,0.02,-0.05,1.0,u
3472.0,2961.0,3811.0,3403.0,4095.0,4095.0,3335.0,3684.0,1.85,8.47,5.47,-0.02,0.02,-0.05,1.0,u
3469.0,2975.0,3818.0,3408.0,4095.0,4095.0,3339.0,3677.0,1.82,8.46,5.45,-0.04,0.01,-0.07,1.0,u
3473.0,2960.0,3798.0,3402.0,4095.0,4095.0,3330.0,3687.0,1.68,8.44,5.47,-0.05,0.03,-0.06,1.0,u
3486.0,2960.0,3819.0,3405.0,4095.0,4095.0,3339.0,3678.0,1.77,8.52,5.62,0.0,-0.01,-0.07,1.0,u
3477.0,2963.0,3806.0,3403.0,4095.0,4095.0,3340.0,3685.0,1.86,8.42,5.66,0.01,0.01,-0.08,1.0,u
3475.0,2963.0,3799.0,3405.0,4095.0,4095.0,3330.0,3683.0,1.59,8.47,5.38,0.01,0.04,-0.07,1.0,u
3481.0,2960.0,3802.0,3411.0,4095.0,4095.0,3330.0,3675.0,1.62,8.41,5.32,0.01,0.03,-0.06,1.0,u
3493.0,2971.0,3805.0,3410.0,4095.0,4095.0,3335.0,3685.0,1.67,8.56,5.26,-0.02,-0.0,-0.03,1.0,u
3486.0,2970.0,3793.0,3399.0,4095.0,4095.0,3332.0,3679.0,1.77,8.56,5.26,-0.03,0.04,-0.05,1.0,u
3481.0,2958.0,3796.0,3406.0,4095.0,4095.0,3331.0,3675.0,1.7,8.55,5.26,-0.07,0.02,-0.04,1.0,u
3495.0,2967.0,3797.0,3406.0,4095.0,4095.0,3343.0,3686.0,1.71,8.51,5.37,-0.1,0.01,-0.03,1.0,u
3694.0,2971.0,3817.0,3431.0,4095.0,4095.0,3344.0,3687.0,-4.23,9.0,1.68,-0.2,-0.04,0.01,1.0,u
3697.0,2986.0,3821.0,3431.0,4095.0,4095.0,3334.0,3680.0,-3.87,9.07,1.67,-0.19,-0.0,0.1,1.0,u
3714.0,2969.0,3811.0,3429.0,4095.0,4095.0,3343.0,3678.0,-3.56,9.08,1.79,-0.16,-0.01,0.1,1.0,u
3692.0,2975.0,3829.0,3430.0,4095.0,4095.0,3340.0,3687.0,-3.24,9.11,1.9,-0.11,-0.06,0.08,1.0,u
3696.0,2982.0,3819.0,3431.0,4095.0,4095.0,3338.0,3677.0,-3.22,9.23,1.66,-0.09,0.0,0.04,1.0,u
3696.0,2967.0,3815.0,3415.0,4095.0,4095.0,3335.0,3679.0,-3.36,9.22,1.59,-0.13,-0.0,0.03,1.0,u
3691.0,2960.0,3806.0,3414.0,4095.0,4095.0,3319.0,3677.0,-3.37,9.29,1.64,-0.13,-0.03,0.03,1.0,u
3713.0,2979.0,3812.0,3428.0,4095.0,4095.0,3323.0,3670.0,-3.3,9.23,1.71,-0.13,-0.01,0.04,1.0,u
3699.0,2960.0,3817.0,3422.0,4095.0,4095.0,3327.0,3675.0,-3.21,9.23,1.7,-0.12,0.01,0.05,1.0,u
3645.0,2975.0,3813.0,3417.0,4095.0,4095.0,3326.0,3673.0,-3.17,9.29,1.66,-0.13,0.04,0.05,1.0,u
3661.0,2974.0,3801.0,3418.0,4095.0,4095.0,3324.0,3677.0,-3.27,9.31,1.7,-0.16,0.03,0.06,1.0,u
3637.0,2982.0,3811.0,3408.0,4095.0,4095.0,3323.0,3666.0,-3.15,9.24,1.9,-0.13,0.03,0.04,1.0,u
3660.0,2975.0,3827.0,3413.0,4095.0,4095.0,3323.0,3676.0,-3.17,9.32,1.96,-0.09,0.04,0.04,1.0,u
3661.0,2970.0,3827.0,3427.0,4095.0,4095.0,3328.0,3665.0,-3.02,9.27,2.01,-0.1,-0.0,0.06,1.0,u
3643.0,2974.0,3823.0,3425.0,4095.0,4095.0,3327.0,3674.0,-2.88,9.3,1.9,-0.06,0.04,0.03,1.0,u
3641.0,2981.0,3819.0,3426.0,4095.0,4095.0,3329.0,3681.0,-2.91,9.31,1.86,-0.07,0.01,0.02,1.0,u
3647.0,2971.0,3799.0,3431.0,4095.0,4095.0,3329.0,3683.0,-2.84,9.4,2.01,-0.08,0.01,0.0,1.0,u
3664.0,2972.0,3824.0,3440.0,4095.0,4095.0,3319.0,3671.0,-2.96,9.36,1.94,-0.07,0.01,0.02,1.0,u
3651.0,2982.0,3831.0,3428.0,4095.0,4095.0,3329.0,3680.0,-2.82,9.39,1.89,-0.08,0.02,0.01,1.0,u
3662.0,2969.0,3824.0,3427.0,4095.0,4095.0,3335.0,3685.0,-2.85,9.39,1.88,-0.06,0.02,0.01,1.0,u
1855.0,2979.0,3807.0,3415.0,4095.0,4095.0,3346.0,3701.0,-1.89,8.6,4.97,-0.03,-0.03,0.01,1.0,u
1847.0,2981.0,3818.0,3419.0,4095.0,4095.0,3349.0,3701.0,-1.76,8.67,4.83,-0.07,-0.02,-0.03,1.0,u
1827.0,2970.0,3824.0,3423.0,4095.0,4095.0,3350.0,3715.0,-1.9,8.49,4.61,-0.18,-0.05,-0.07,1.0,u
1822.0,2970.0,3817.0,3430.0,4095.0,4095.0,3351.0,3713.0,-2.05,8.6,4.7,-0.1,-0.07,-0.09,1.0,u
1814.0,2982.0,3823.0,3440.0,4095.0,4095.0,3346.0,3705.0,-2.25,8.51,4.88,-0.14,-0.03,-0.06,1.0,u
1818.0,2975.0,3822.0,3431.0,4095.0,4095.0,3358.0,3713.0,-2.38,8.41,5.14,-0.12,-0.05,-0.01,1.0,u
1810.0,2974.0,3815.0,3435.0,4095.0,4095.0,3351.0,3709.0,-2.15,8.49,5.06,-0.1,-0.03,0.04,1.0,u
1806.0,2971.0,3819.0,3426.0,4095.0,4095.0,3350.0,3711.0,-1.93,8.53,4.98,-0.1,-0.02,0.05,1.0,u
1801.0,2971.0,3818.0,3435.0,4095.0,4095.0,3350.0,3709.0,-1.83,8.48,5.07,-0.16,-0.07,0.06,1.0,u
1805.0,2976.0,3805.0,3440.0,4095.0,4095.0,3351.0,3715.0,-1.81,8.45,5.27,-0.15,-0.06,0.03,1.0,u
1810.0,2977.0,3823.0,3439.0,4095.0,4095.0,3350.0,3717.0,-1.84,8.27,5.48,-0.11,-0.03,0.02,1.0,u
1799.0,2975.0,3821.0,3439.0,4095.0,4095.0,3358.0,3712.0,-1.71,8.33,5.43,-0.09,-0.03,0.02,1.0,u
1803.0,2981.0,3821.0,3445.0,4095.0,4095.0,3346.0,3710.0,-1.59,8.48,5.33,-0.04,-0.0,-0.01,1.0,u
1808.0,2971.0,3803.0,3434.0,4095.0,4095.0,3349.0,3712.0,-1.51,8.48,5.04,-0.06,0.0,-0.05,1.0,u
1802.0,2966.0,3831.0,3442.0,4095.0,4095.0,3351.0,3702.0,-1.71,8.56,5.06,-0.12,-0.07,-0.07,1.0,u
1806.0,2975.0,3810.0,3440.0,4095.0,4095.0,3353.0,3717.0,-1.74,8.4,5.41,-0.08,-0.04,-0.08,1.0,u
1806.0,2967.0,3806.0,3446.0,4095.0,4095.0,3350.0,3703.0,-1.93,8.39,5.45,-0.06,0.03,-0.06,1.0,u
1814.0,2971.0,3820.0,3430.0,4095.0,4095.0,3354.0,3723.0,-1.77,8.4,5.31,-0.02,-0.0,-0.06,1.0,u
1807.0,2975.0,3824.0,3440.0,4095.0,4095.0,3353.0,3715.0,-1.78,8.43,5.12,-0.07,0.03,-0.02,1.0,u
1793.0,2977.0,3821.0,3449.0,4095.0,4095.0,3356.0,3711.0,-1.76,8.54,5.13,-0.05,-0.02,-0.04,1.0,u
1840.0,2982.0,3809.0,3407.0,4095.0,4095.0,3326.0,3671.0,1.62,8.25,5.87,-0.03,0.01,-0.03,1.0,u
1840.0,2982.0,3809.0,3407.0,4095.0,4095.0,3326.0,3671.0,1.62,8.25,5.87,-0.03,0.01,-0.03,1.0,u
1840.0,2980.0,3821.0,3411.0,4095.0,4095.0,3315.0,3669.0,1.61,8.15,5.87,-0.05,0.0,-0.05,1.0,u
1843.0,2981.0,3837.0,3408.0,4095.0,4095.0,3327.0,3683.0,1.58,8.16,5.92,-0.06,-0.03,-0.05,1.0,u
1829.0,2979.0,3809.0,3414.0,4095.0,4095.0,3322.0,3666.0,1.42,8.16,5.91,-0.08,0.02,-0.03,1.0,u
1840.0,2979.0,3824.0,3410.0,4095.0,4095.0,3327.0,3664.0,1.65,8.14,6.04,-0.05,-0.02,-0.05,1.0,u
1842.0,2965.0,3829.0,3408.0,4095.0,4095.0,3327.0,3680.0,1.43,8.13,5.98,-0.08,0.01,-0.01,1.0,u
1841.0,2971.0,3821.0,3408.0,4095.0,4095.0,3327.0,3679.0,1.59,8.19,5.99,-0.04,-0.01,-0.04,1.0,u
1840.0,2971.0,3830.0,3405.0,4095.0,4095.0,3322.0,3679.0,1.52,8.07,5.96,-0.08,0.03,-0.03,1.0,u
1840.0,2981.0,3815.0,3415.0,4095.0,4095.0,3322.0,3674.0,1.53,8.16,5.95,-0.06,-0.03,-0.04,1.0,u
1840.0,2977.0,3838.0,3411.0,4095.0,4095.0,3319.0,3675.0,1.63,8.19,6.03,-0.06,0.0,-0.03,1.0,u
1851.0,2975.0,3808.0,3407.0,4095.0,4095.0,3326.0,3675.0,1.63,8.15,6.06,-0.03,-0.0,-0.06,1.0,u
1846.0,2979.0,3814.0,3408.0,4095.0,4095.0,3326.0,3674.0,1.5,8.15,5.91,-0.06,0.02,-0.04,1.0,u
1840.0,2991.0,3820.0,3418.0,4095.0,4095.0,3327.0,3673.0,1.48,8.18,5.88,-0.07,0.0,-0.03,1.0,u
1843.0,2983.0,3828.0,3422.0,4095.0,4095.0,3327.0,3666.0,1.52,8.17,5.96,-0.07,-0.01,-0.03,1.0,u
1840.0,2978.0,3821.0,3414.0,4095.0,4095.0,3322.0,3671.0,1.55,8.09,6.14,-0.05,-0.05,-0.04,1.0,u
1843.0,2987.0,3834.0,3415.0,4095.0,4095.0,3335.0,3675.0,1.57,8.04,6.12,-0.08,-0.0,-0.02,1.0,u
1840.0,2973.0,3818.0,3405.0,4095.0,4095.0,3327.0,3687.0,1.77,8.05,6.19,-0.06,-0.05,-0.03,1.0,u
1850.0,2985.0,3825.0,3424.0,4095.0,4095.0,3333.0,3664.0,1.64,8.22,5.98,-0.05,0.03,-0.04,1.0,u
1847.0,2991.0,3823.0,3414.0,4095.0,4095.0,3331.0,3683.0,1.57,8.06,5.98,-0.03,0.06,-0.07,1.0,u
1755.0,2981.0,3815.0,3440.0,4095.0,4095.0,3338.0,3690.0,-2.63,9.27,2.9,-0.1,0.06,-0.09,1.0,u
1753.0,2972.0,3824.0,3441.0,4095.0,4095.0,3338.0,3697.0,-2.72,9.19,2.85,-0.09,0.04,-0.07,1.0,u
1763.0,2966.0,3827.0,3445.0,4095.0,4095.0,3328.0,3679.0,-2.83,9.26,2.71,-0.08,0.05,-0.04,1.0,u
1761.0,2977.0,3808.0,3440.0,4095.0,4095.0,3328.0,3691.0,-2.81,9.24,2.73,-0.09,0.0,-0.0,1.0,u
1754.0,2977.0,3814.0,3441.0,4095.0,4095.0,3326.0,3685.0,-2.62,9.19,2.92,-0.08,0.01,0.0,1.0,u
1757.0,2976.0,3821.0,3441.0,4095.0,4095.0,3328.0,3685.0,-2.59,9.26,2.98,-0.08,-0.02,0.01,1.0,u
1759.0,2982.0,3839.0,3443.0,4095.0,4095.0,3330.0,3693.0,-2.39,9.31,2.94,-0.03,0.02,-0.01,1.0,u
1759.0,2982.0,3819.0,3442.0,4095.0,4095.0,3330.0,3680.0,-2.37,9.35,2.73,-0.02,0.02,-0.03,1.0,u
1751.0,2975.0,3810.0,3450.0,4095.0,4095.0,3329.0,3681.0,-2.33,9.28,2.86,-0.03,0.0,-0.07,1.0,u
1755.0,2983.0,3838.0,3451.0,4095.0,4095.0,3331.0,3691.0,-2.6,9.3,2.79,-0.01,0.06,-0.07,1.0,u
1746.0,2987.0,3822.0,3445.0,4095.0,4095.0,3331.0,3681.0,-2.58,9.29,2.68,-0.01,0.03,-0.06,1.0,u
1759.0,2974.0,3813.0,3447.0,4095.0,4095.0,3323.0,3680.0,-2.71,9.3,2.51,-0.03,0.05,-0.06,1.0,u
1744.0,2976.0,3819.0,3440.0,4095.0,4095.0,3333.0,3696.0,-2.79,9.31,2.49,-0.05,0.02,-0.05,1.0,u
1757.0,2987.0,3824.0,3446.0,4095.0,4095.0,3331.0,3683.0,-2.87,9.27,2.47,-0.09,0.02,-0.02,1.0,u
1754.0,2991.0,3807.0,3434.0,4095.0,4095.0,3328.0,3683.0,-2.82,9.31,2.58,-0.1,0.02,-0.0,1.0,u
1760.0,2981.0,3823.0,3447.0,4095.0,4095.0,3334.0,3691.0,-3.0,9.25,2.49,-0.15,0.04,0.07,1.0,u
1755.0,2981.0,3810.0,3445.0,4095.0,4095.0,3335.0,3696.0,-2.77,9.26,2.64,-0.16,-0.03,0.11,1.0,u
1771.0,2988.0,3837.0,3447.0,4095.0,4095.0,3328.0,3687.0,-2.38,9.23,2.87,-0.16,-0.02,0.13,1.0,u
1765.0,2986.0,3803.0,3440.0,4095.0,4095.0,3331.0,3689.0,-2.19,9.36,2.89,-0.14,-0.02,0.11,1.0,u
1776.0,2987.0,3819.0,3445.0,4095.0,4095.0,3334.0,3691.0,-2.07,9.31,2.99,-0.13,-0.02,0.07,1.0,u
1840.0,2978.0,3813.0,3381.0,4095.0,4095.0,3328.0,3662.0,1.24,9.93,1.13,-0.2,-0.01,-0.12,1.0,u
1840.0,2978.0,3813.0,3381.0,4095.0,4095.0,3328.0,3662.0,1.24,9.93,1.13,-0.2,-0.01,-0.12,1.0,u
1834.0,2960.0,3823.0,3386.0,4095.0,4095.0,3334.0,3677.0,1.3,9.95,1.3,-0.18,-0.05,-0.11,1.0,u
1827.0,2977.0,3822.0,3378.0,4095.0,4095.0,3328.0,3670.0,1.16,9.95,1.25,-0.13,-0.01,-0.12,1.0,u
1838.0,2965.0,3824.0,3385.0,4095.0,4095.0,3326.0,3664.0,1.07,9.97,1.27,-0.13,-0.02,-0.09,1.0,u
1842.0,2973.0,3806.0,3385.0,4095.0,4095.0,3327.0,3666.0,1.14,9.94,1.27,-0.13,-0.02,-0.07,1.0,u
1837.0,2977.0,3815.0,3385.0,4095.0,4095.0,3336.0,3671.0,1.17,9.95,1.17,-0.13,-0.01,-0.08,1.0,u
1833.0,2969.0,3824.0,3389.0,4095.0,4095.0,3338.0,3675.0,1.16,10.04,1.22,-0.14,-0.03,-0.1,1.0,u
1839.0,2982.0,3809.0,3397.0,4095.0,4095.0,3327.0,3663.0,1.04,10.0,1.35,-0.1,0.0,-0.11,1.0,u
1827.0,2962.0,3809.0,3392.0,4095.0,4095.0,3330.0,3667.0,0.96,9.95,1.57,-0.1,-0.02,-0.1,1.0,u
1842.0,2978.0,3823.0,3401.0,4095.0,4095.0,3328.0,3663.0,0.81,9.92,1.55,-0.08,0.02,-0.08,1.0,u
1843.0,2966.0,3824.0,3393.0,4095.0,4095.0,3332.0,3665.0,0.93,9.95,1.59,-0.09,-0.03,-0.03,1.0,u
1834.0,2975.0,3817.0,3317.0,4095.0,4095.0,3322.0,3669.0,0.92,9.87,1.45,-0.08,-0.01,-0.03,1.0,u
1850.0,2975.0,3809.0,3325.0,4095.0,4095.0,3323.0,3664.0,0.96,9.93,1.47,-0.02,0.01,-0.04,1.0,u
1856.0,2966.0,3810.0,3335.0,4095.0,4095.0,3334.0,3671.0,0.94,10.05,1.26,-0.04,0.01,-0.01,1.0,u
1854.0,2969.0,3827.0,3347.0,4095.0,4095.0,3327.0,3663.0,1.09,10.02,1.32,-0.04,-0.02,-0.01,1.0,u
1854.0,2975.0,3792.0,3345.0,4095.0,4095.0,3328.0,3665.0,1.13,10.01,1.29,-0.08,0.01,-0.03,1.0,u
1840.0,2961.0,3795.0,3339.0,4095.0,4095.0,3329.0,3671.0,1.04,10.01,1.27,-0.11,-0.01,-0.04,1.0,u
1850.0,2974.0,3813.0,3351.0,4095.0,4095.0,3335.0,3664.0,1.1,9.9,1.54,-0.15,-0.03,-0.03,1.0,u
1845.0,2971.0,3811.0,3351.0,4095.0,4095.0,3328.0,3664.0,0.98,9.96,1.57,-0.11,0.0,-0.04,1.0,u
1827.0,2977.0,3810.0,3367.0,4095.0,4095.0,3329.0,3677.0,0.82,9.98,1.46,-0.06,-0.01,-0.03,1.0,u
1827.0,2977.0,3810.0,3367.0,4095.0,4095.0,3329.0,3677.0,0.82,9.98,1.46,-0.06,-0.01,-0.03,1.0,u
1825.0,2967.0,3815.0,3369.0,4095.0,4095.0,3339.0,3679.0,0.81,9.95,1.52,-0.07,-0.01,-0.01,1.0,u
1834.0,2982.0,3819.0,3371.0,4095.0,4095.0,3330.0,3666.0,0.97,10.03,1.51,-0.04,-0.0,-0.02,1.0,u
1822.0,2972.0,3821.0,3370.0,4095.0,4095.0,3331.0,3664.0,0.94,10.03,1.4,-0.04,0.03,-0.04,1.0,u
1817.0,2976.0,3806.0,3375.0,4095.0,4095.0,3334.0,3673.0,0.9,9.98,1.41,-0.05,-0.01,-0.05,1.0,u
1824.0,2979.0,3819.0,3367.0,4095.0,4095.0,3327.0,3664.0,0.85,9.93,1.43,-0.08,-0.0,-0.03,1.0,u
1817.0,2975.0,3802.0,3357.0,4095.0,4095.0,3325.0,3672.0,0.8,10.01,1.37,-0.06,-0.0,-0.04,1.0,u
1808.0,2966.0,3789.0,3363.0,4095.0,4095.0,3318.0,3665.0,0.81,9.99,1.36,-0.07,-0.0,-0.04,1.0,u
1811.0,2977.0,3810.0,3374.0,4095.0,4095.0,3322.0,3673.0,0.91,9.96,1.46,-0.08,-0.02,-0.03,1.0,u
1815.0,2977.0,3824.0,3374.0,4095.0,4095.0,3315.0,3669.0,0.89,9.94,1.53,-0.09,0.02,-0.02,1.0,u
1825.0,2973.0,3817.0,3381.0,4095.0,4095.0,3326.0,3664.0,0.88,10.01,1.56,-0.1,0.01,-0.02,1.0,u
1824.0,2979.0,3801.0,3381.0,4095.0,4095.0,3312.0,3661.0,0.77,9.79,1.46,-0.08,-0.07,0.0,1.0,u
1823.0,2982.0,3802.0,3391.0,4095.0,4095.0,3318.0,3664.0,0.94,9.97,1.56,-0.07,-0.0,-0.02,1.0,u
1825.0,2974.0,3809.0,3379.0,4095.0,4095.0,3315.0,3669.0,0.98,9.97,1.57,-0.02,0.04,-0.05,1.0,u
1831.0,2978.0,3817.0,3383.0,4095.0,4095.0,3324.0,3668.0,0.9,10.04,1.45,-0.02,0.02,-0.07,1.0,u
1831.0,2990.0,3820.0,3390.0,4095.0,4095.0,3320.0,3663.0,0.86,9.86,1.6,-0.04,-0.01,-0.04,1.0,u
1826.0,2978.0,3805.0,3381.0,4095.0,4095.0,3323.0,3664.0,0.93,10.01,1.66,-0.03,-0.01,-0.04,1.0,u
1821.0,2976.0,3811.0,3390.0,4095.0,4095.0,3323.0,3663.0,0.98,9.96,1.59,0.02,-0.0,-0.06,1.0,u
1825.0,2970.0,3805.0,3386.0,4095.0,4095.0,3321.0,3666.0,1.02,9.99,1.32,-0.03,-0.0,-0.06,1.0,u
960.0,2970.0,3917.0,3413.0,4095.0,4095.0,3322.0,3435.0,-4.3,8.77,1.83,-0.16,0.0,0.01,1.0,u
960.0,2970.0,3917.0,3413.0,4095.0,4095.0,3322.0,3435.0,-4.3,8.77,1.83,-0.16,0.0,0.01,1.0,u
950.0,3014.0,3894.0,3409.0,4095.0,4095.0,3315.0,3435.0,-4.23,8.58,1.99,-0.08,0.03,0.01,1.0,u
947.0,2956.0,3919.0,3386.0,4095.0,4095.0,3317.0,3431.0,-4.21,8.73,2.01,-0.1,0.0,-0.01,1.0,u
950.0,2960.0,3923.0,3393.0,4095.0,4095.0,3329.0,3440.0,-4.18,8.58,2.04,-0.09,-0.0,-0.03,1.0,u
946.0,2963.0,3908.0,3391.0,4095.0,4095.0,3322.0,3436.0,-4.33,8.77,1.97,-0.09,0.01,-0.02,1.0,u
953.0,2962.0,3921.0,3403.0,4095.0,4095.0,3328.0,3431.0,-4.36,8.69,1.9,-0.1,0.02,-0.02,1.0,u
950.0,2960.0,3913.0,3362.0,4095.0,4095.0,3326.0,3446.0,-4.42,8.66,1.79,-0.13,0.1,-0.01,1.0,u
951.0,2972.0,3914.0,3330.0,4095.0,4095.0,3328.0,3440.0,-4.5,8.69,2.01,-0.11,0.05,-0.0,1.0,u
949.0,2951.0,3914.0,3338.0,4095.0,4095.0,3330.0,3450.0,-4.31,8.69,2.16,-0.05,-0.03,-0.0,1.0,u
949.0,2957.0,3907.0,3350.0,4095.0,4095.0,3331.0,3442.0,-4.21,8.62,2.04,-0.1,0.01,0.01,1.0,u
957.0,2964.0,3915.0,3345.0,4095.0,4095.0,3331.0,3450.0,-4.25,8.81,1.99,-0.1,0.02,-0.0,1.0,u
944.0,2960.0,3920.0,3344.0,4095.0,4095.0,3335.0,3455.0,-4.09,8.77,2.01,-0.12,-0.02,-0.01,1.0,u
958.0,2956.0,3906.0,3347.0,4095.0,4095.0,3335.0,3453.0,-4.13,8.67,2.23,-0.11,-0.01,-0.07,1.0,u
949.0,2959.0,3934.0,3358.0,4095.0,4095.0,3343.0,3458.0,-4.2,8.67,2.22,-0.09,0.0,-0.06,1.0,u
955.0,2957.0,3919.0,3360.0,4095.0,4095.0,3341.0,3456.0,-4.33,8.71,2.24,-0.05,-0.0,-0.06,1.0,u
944.0,2963.0,3927.0,3353.0,4095.0,4095.0,3333.0,3451.0,-4.13,8.7,2.19,-0.06,0.06,-0.01,1.0,u
947.0,2970.0,3921.0,3337.0,4095.0,4095.0,3334.0,3455.0,-4.21,8.73,2.04,-0.07,0.08,-0.0,1.0,u
954.0,2963.0,3918.0,3328.0,4095.0,4095.0,3340.0,3446.0,-4.26,8.75,1.88,-0.09,0.03,-0.05,1.0,u
941.0,2958.0,3915.0,3327.0,4095.0,4095.0,3338.0,3451.0,-4.42,8.73,1.88,-0.08,-0.01,-0.04,1.0,u
941.0,2964.0,3920.0,3379.0,4095.0,4095.0,3337.0,3457.0,3.44,8.6,4.32,-0.02,0.04,-0.03,1.0,u
943.0,2963.0,3908.0,3382.0,4095.0,4095.0,3335.0,3455.0,3.53,8.68,4.25,0.01,0.02,-0.06,1.0,u
941.0,2951.0,3891.0,3367.0,4095.0,4095.0,3344.0,3453.0,3.46,8.75,4.13,-0.07,0.0,-0.04,1.0,u
939.0,2960.0,3911.0,3376.0,4095.0,4095.0,3335.0,3457.0,3.33,8.67,4.23,-0.06,0.02,-0.04,1.0,u
931.0,2970.0,3915.0,3376.0,4095.0,4095.0,3344.0,3470.0,3.56,8.68,4.32,-0.05,-0.05,-0.03,1.0,u
931.0,2958.0,3904.0,3344.0,4095.0,4095.0,3341.0,3467.0,3.55,8.26,4.59,0.16,0.02,-0.14,1.0,u
945.0,2960.0,3920.0,3332.0,4095.0,4095.0,3346.0,3469.0,3.3,9.36,3.84,0.16,0.04,-0.11,1.0,u
944.0,2964.0,3908.0,3330.0,4095.0,4095.0,3344.0,3467.0,3.62,8.62,3.91,0.01,-0.03,-0.09,1.0,u
946.0,2957.0,3914.0,3327.0,4095.0,4095.0,3345.0,3462.0,3.45,8.92,3.81,-0.06,-0.05,-0.07,1.0,u
955.0,2947.0,3914.0,3343.0,4095.0,4095.0,3344.0,3461.0,3.41,8.82,3.92,-0.09,-0.05,-0.1,1.0,u
940.0,2960.0,3918.0,3343.0,4095.0,4095.0,3343.0,3463.0,3.29,8.86,3.97,-0.06,-0.02,-0.11,1.0,u
944.0,2946.0,3901.0,3333.0,4095.0,4095.0,3344.0,3471.0,3.17,8.74,4.0,-0.1,0.04,-0.09,1.0,u
939.0,2960.0,3919.0,3333.0,4095.0,4095.0,3350.0,3471.0,3.12,8.88,3.95,-0.09,-0.04,-0.08,1.0,u
944.0,2958.0,3899.0,3341.0,4095.0,4095.0,3348.0,3460.0,3.06,8.77,4.14,-0.11,-0.0,-0.03,1.0,u
936.0,2928.0,3893.0,3334.0,4095.0,4095.0,3344.0,3466.0,3.24,8.85,4.06,-0.1,0.0,-0.02,1.0,u
937.0,2957.0,3904.0,3340.0,4095.0,4095.0,3359.0,3467.0,3.34,8.83,4.12,-0.01,0.04,-0.04,1.0,u
941.0,2955.0,3893.0,3343.0,4095.0,4095.0,3345.0,3463.0,3.34,8.74,4.06,-0.1,-0.03,-0.04,1.0,u
929.0,2954.0,3919.0,3344.0,4095.0,4095.0,3349.0,3477.0,3.42,8.77,4.13,-0.01,0.01,-0.09,1.0,u
938.0,3133.0,3919.0,3354.0,4095.0,4095.0,3347.0,3472.0,3.31,8.9,4.18,0.14,0.04,-0.13,1.0,u
944.0,2960.0,3913.0,3349.0,4095.0,4095.0,3344.0,3471.0,3.06,9.06,3.93,0.02,-0.0,-0.11,1.0,u
925.0,2942.0,3607.0,3618.0,4095.0,4095.0,3709.0,3649.0,0.71,8.73,4.99,-0.1,-0.01,-0.03,1.0,u
927.0,2950.0,3603.0,3622.0,4095.0,4095.0,3725.0,3648.0,0.81,8.73,5.21,-0.07,-0.01,-0.01,1.0,u
918.0,2953.0,3602.0,3622.0,4095.0,4095.0,3726.0,3654.0,0.8,8.81,5.21,-0.04,0.01,-0.02,1.0,u
916.0,2927.0,3602.0,3632.0,4095.0,4095.0,3723.0,3657.0,0.95,8.81,5.11,-0.02,0.01,-0.03,1.0,u
927.0,2941.0,3597.0,3600.0,4095.0,4095.0,3707.0,3648.0,0.84,8.89,5.03,-0.04,0.02,-0.04,1.0,u
915.0,2947.0,3599.0,3583.0,4095.0,4095.0,3709.0,3648.0,0.93,8.76,5.15,-0.03,0.02,-0.06,1.0,u
926.0,2954.0,3600.0,3581.0,4095.0,4095.0,3703.0,3632.0,0.86,8.72,5.13,-0.06,-0.01,-0.05,1.0,u
926.0,2953.0,3605.0,3567.0,4095.0,4095.0,3709.0,3648.0,0.7,8.79,4.98,-0.01,0.04,-0.06,1.0,u
919.0,2957.0,3613.0,3567.0,4095.0,4095.0,3701.0,3637.0,0.72,8.79,4.98,-0.05,-0.0,-0.03,1.0,u
933.0,2927.0,3606.0,3557.0,4095.0,4095.0,3702.0,3648.0,0.79,8.86,5.0,-0.05,0.0,-0.03,1.0,u
919.0,2946.0,3610.0,3536.0,4095.0,4095.0,3699.0,3643.0,0.79,8.9,5.02,-0.05,0.02,-0.03,1.0,u
924.0,2938.0,3607.0,3446.0,4095.0,4095.0,3697.0,3636.0,0.76,8.8,5.04,0.01,0.01,0.01,1.0,u
912.0,2937.0,3613.0,3487.0,4095.0,4095.0,3711.0,3640.0,0.87,8.86,5.05,-0.05,-0.0,-0.06,1.0,u
917.0,2947.0,3612.0,3483.0,4095.0,4095.0,3718.0,3646.0,0.98,8.91,5.26,0.0,-0.01,-0.08,1.0,u
918.0,2945.0,3626.0,3492.0,4095.0,4095.0,3727.0,3649.0,1.13,8.83,5.25,-0.01,0.0,-0.08,1.0,u
926.0,2942.0,3620.0,3485.0,4095.0,4095.0,3713.0,3646.0,0.98,8.83,5.04,0.04,0.02,-0.14,1.0,u
930.0,2963.0,3617.0,3489.0,4095.0,4095.0,3714.0,3641.0,0.63,8.91,4.86,0.04,0.03,-0.13,1.0,u
929.0,2939.0,3605.0,3486.0,4095.0,4095.0,3717.0,3646.0,0.64,8.88,4.78,0.03,-0.0,-0.12,1.0,u
923.0,2946.0,3623.0,3499.0,4095.0,4095.0,3712.0,3633.0,0.45,9.01,4.62,0.0,0.02,-0.13,1.0,u
925.0,2954.0,3610.0,3490.0,4095.0,4095.0,3719.0,3633.0,0.29,8.96,4.58,-0.03,-0.03,-0.05,1.0,u
924.0,2955.0,3600.0,3499.0,4095.0,4095.0,3728.0,3655.0,-1.82,9.69,2.61,-0.1,0.03,0.04,1.0,u
926.0,2950.0,3623.0,3504.0,4095.0,4095.0,3726.0,3650.0,-1.94,9.45,2.48,-0.09,0.01,0.02,1.0,u
929.0,2959.0,3615.0,3504.0,4095.0,4095.0,3734.0,3664.0,-1.98,9.57,2.43,-0.18,-0.03,-0.02,1.0,u
923.0,2947.0,3606.0,3506.0,4095.0,4095.0,3725.0,3652.0,-2.0,9.37,2.9,-0.12,-0.08,-0.03,1.0,u
915.0,2953.0,3620.0,3500.0,4095.0,4095.0,3734.0,3665.0,-1.93,9.5,2.89,-0.1,-0.03,-0.01,1.0,u
919.0,2935.0,3613.0,3503.0,4095.0,4095.0,3730.0,3665.0,-2.03,9.33,2.83,-0.1,0.01,-0.02,1.0,u
926.0,2960.0,3632.0,3504.0,4095.0,4095.0,3742.0,3660.0,-1.93,9.49,2.84,-0.03,0.02,-0.03,1.0,u
917.0,2947.0,3606.0,3493.0,4095.0,4095.0,3738.0,3661.0,-1.95,9.37,2.77,-0.1,0.0,-0.0,1.0,u
929.0,2943.0,3627.0,3500.0,4095.0,4095.0,3730.0,3653.0,-1.81,9.51,2.75,-0.1,-0.0,-0.0,1.0,u
921.0,2955.0,3616.0,3504.0,4095.0,4095.0,3739.0,3661.0,-2.01,9.43,2.67,-0.12,0.03,-0.03,1.0,u
918.0,2953.0,3617.0,3508.0,4095.0,4095.0,3729.0,3658.0,-2.07,9.5,2.83,-0.17,-0.03,-0.01,1.0,u
923.0,2951.0,3617.0,3515.0,4095.0,4095.0,3730.0,3655.0,-1.89,9.21,3.09,-0.17,-0.06,0.02,1.0,u
915.0,2960.0,3611.0,3504.0,4095.0,4095.0,3728.0,3659.0,-1.77,9.42,3.08,-0.03,0.05,-0.05,1.0,u
921.0,2953.0,3630.0,3509.0,4095.0,4095.0,3750.0,3664.0,-1.91,9.37,2.97,0.01,0.03,-0.07,1.0,u
915.0,2965.0,3615.0,3517.0,4095.0,4095.0,3742.0,3664.0,-2.04,9.45,2.89,-0.06,-0.01,-0.02,1.0,u
924.0,2950.0,3622.0,3515.0,4095.0,4095.0,3733.0,3650.0,-1.77,9.47,2.99,0.0,0.01,-0.04,1.0,u
923.0,2947.0,3631.0,3510.0,4095.0,4095.0,3733.0,3667.0,-1.75,9.51,2.72,-0.04,0.06,-0.03,1.0,u
919.0,2951.0,3627.0,3517.0,4095.0,4095.0,3741.0,3670.0,-1.64,9.52,2.8,-0.02,-0.01,-0.08,1.0,u
930.0,2947.0,3626.0,3513.0,4095.0,4095.0,3718.0,3656.0,-1.72,9.5,2.83,0.02,-0.01,-0.13,1.0,u
929.0,2945.0,3615.0,3507.0,4095.0,4095.0,3714.0,3659.0,-1.5,9.46,2.92,0.02,-0.1,-0.19,1.0,u
912.0,2961.0,3618.0,3493.0,4095.0,4095.0,3735.0,3674.0,-3.76,9.03,2.59,-0.16,0.03,0.03,1.0,u
912.0,2961.0,3618.0,3493.0,4095.0,4095.0,3735.0,3674.0,-3.76,9.03,2.59,-0.16,0.03,0.03,1.0,u
927.0,2953.0,3620.0,3504.0,4095.0,4095.0,3734.0,3650.0,-3.38,8.97,2.71,-0.19,-0.01,0.11,1.0,u
932.0,2951.0,3632.0,3504.0,4095.0,4095.0,3731.0,3663.0,-3.03,9.02,2.85,-0.16,-0.03,0.09,1.0,u
921.0,2943.0,3609.0,3490.0,4095.0,4095.0,3725.0,3663.0,-2.95,9.04,2.92,-0.13,0.0,0.04,1.0,u
923.0,2950.0,3630.0,3489.0,4095.0,4095.0,3719.0,3655.0,-2.99,9.02,2.94,-0.12,-0.0,0.02,1.0,u
931.0,2954.0,3632.0,3485.0,4095.0,4095.0,3727.0,3662.0,-3.1,9.03,2.91,-0.12,0.04,0.01,1.0,u
930.0,2960.0,3627.0,3494.0,4095.0,4095.0,3738.0,3673.0,-3.05,9.02,3.01,-0.11,-0.02,0.01,1.0,u
924.0,2950.0,3629.0,3491.0,4095.0,4095.0,3743.0,3671.0,-2.99,9.0,3.06,-0.07,0.01,0.02,1.0,u
921.0,2960.0,3623.0,3478.0,4095.0,4095.0,3737.0,3671.0,-3.09,9.04,2.98,-0.07,-0.01,0.02,1.0,u
913.0,2955.0,3606.0,3500.0,4095.0,4095.0,3727.0,3662.0,-3.36,9.02,2.89,-0.04,-0.23,0.04,1.0,u
925.0,2957.0,3620.0,3501.0,4095.0,4095.0,3729.0,3664.0,-2.97,9.12,2.91,-0.04,-0.32,0.02,1.0,u
919.0,2981.0,3615.0,3488.0,4095.0,4095.0,3731.0,3669.0,-2.55,9.16,3.02,-0.04,-0.2,0.01,1.0,u
924.0,2954.0,3626.0,3491.0,4095.0,4095.0,3730.0,3654.0,-2.65,9.06,3.06,-0.1,0.07,0.01,1.0,u
926.0,2958.0,3622.0,3491.0,4095.0,4095.0,3739.0,3667.0,-2.9,9.01,3.08,-0.09,0.04,-0.0,1.0,u
926.0,2962.0,3630.0,3501.0,4095.0,4095.0,3745.0,3673.0,-2.9,9.01,3.29,-0.07,0.01,0.01,1.0,u
926.0,2864.0,3627.0,3506.0,4095.0,4095.0,3749.0,3671.0,-3.04,9.04,3.46,-0.01,-0.11,0.04,1.0,u
924.0,2963.0,3630.0,3508.0,4095.0,4095.0,3739.0,3669.0,-2.99,9.03,3.34,0.04,-0.06,0.1,1.0,u
913.0,2960.0,3631.0,3504.0,4095.0,4095.0,3734.0,3671.0,-2.64,9.15,3.05,0.07,-0.03,0.1,1.0,u
927.0,2953.0,3622.0,3502.0,4095.0,4095.0,3746.0,3678.0,-2.59,9.19,3.0,0.04,0.01,0.14,1.0,u
919.0,2950.0,3618.0,3490.0,4095.0,4095.0,3754.0,3686.0,0.29,10.22,0.28,-0.08,0.02,0.0,1.0,u
926.0,2941.0,3613.0,3482.0,4095.0,4095.0,3743.0,3670.0,0.36,10.02,0.59,-0.12,0.04,-0.04,1.0,u
919.0,2953.0,3607.0,3494.0,4095.0,4095.0,3734.0,3670.0,-0.0,10.1,0.64,-0.14,-0.02,-0.05,1.0,u
922.0,2955.0,3615.0,3486.0,4095.0,4095.0,3755.0,3686.0,-0.02,9.9,0.88,-0.15,-0.01,-0.04,1.0,u
923.0,2948.0,3612.0,3490.0,4095.0,4095.0,3751.0,3686.0,-0.05,10.09,0.9,-0.06,0.01,-0.04,1.0,u
917.0,2945.0,3606.0,3488.0,4095.0,4095.0,3746.0,3678.0,0.08,10.01,0.97,-0.05,-0.0,-0.03,1.0,u
923.0,2942.0,3611.0,3491.0,4095.0,4095.0,3755.0,3687.0,0.11,10.06,0.88,-0.02,0.07,-0.01,1.0,u
918.0,2940.0,3607.0,3489.0,4095.0,4095.0,3749.0,3683.0,-0.03,9.96,0.72,-0.07,0.04,0.01,1.0,u
923.0,2954.0,3619.0,3493.0,4095.0,4095.0,3746.0,3682.0,0.19,10.1,0.61,-0.02,-0.01,-0.04,1.0,u
921.0,2949.0,3607.0,3487.0,4095.0,4095.0,3753.0,3678.0,0.26,10.13,0.59,-0.05,0.01,-0.03,1.0,u
924.0,2959.0,3619.0,3499.0,4095.0,4095.0,3757.0,3680.0,0.22,10.07,0.66,-0.08,0.03,-0.05,1.0,u
925.0,2947.0,3609.0,3490.0,4095.0,4095.0,3760.0,3689.0,0.09,10.06,0.82,-0.09,-0.01,-0.04,1.0,u
928.0,2943.0,3619.0,3490.0,4095.0,4095.0,3756.0,3680.0,0.21,10.03,0.84,-0.02,-0.02,-0.03,1.0,u
922.0,2951.0,3617.0,3495.0,4095.0,4095.0,3760.0,3687.0,0.14,10.08,0.59,-0.05,-0.03,-0.03,1.0,u
919.0,2946.0,3623.0,3501.0,4095.0,4095.0,3754.0,3681.0,0.01,10.09,0.54,-0.07,0.02,-0.05,1.0,u
919.0,2960.0,3613.0,3482.0,4095.0,4095.0,3764.0,3691.0,-0.07,10.11,0.61,-0.11,0.05,-0.01,1.0,u
923.0,2944.0,3628.0,3470.0,4095.0,4095.0,3758.0,3691.0,-0.75,9.97,0.42,-0.2,0.24,0.13,1.0,u
930.0,2959.0,3606.0,3461.0,4095.0,4095.0,3760.0,3687.0,-0.03,9.98,0.73,-0.2,-0.03,0.21,1.0,u
927.0,2941.0,3618.0,3493.0,4095.0,4095.0,3747.0,3678.0,0.74,10.16,0.99,-0.16,0.05,0.15,1.0,u
918.0,2946.0,3607.0,3487.0,4095.0,4095.0,3762.0,3692.0,0.72,10.0,1.03,-0.15,0.09,0.11,1.0,u
927.0,2942.0,3625.0,3497.0,4095.0,4095.0,3757.0,3696.0,0.79,9.74,2.48,-0.46,-0.01,-0.07,1.0,u
931.0,2947.0,3631.0,3495.0,4095.0,4095.0,3758.0,3690.0,0.62,9.7,2.9,-0.46,0.04,-0.09,1.0,u
925.0,2954.0,3611.0,3502.0,4095.0,4095.0,3760.0,3691.0,0.34,9.51,3.25,-0.44,0.01,-0.09,1.0,u
924.0,2944.0,3617.0,3504.0,4095.0,4095.0,3767.0,3696.0,0.21,9.58,3.44,-0.35,0.01,-0.06,1.0,u
927.0,2946.0,3613.0,3490.0,4095.0,4095.0,3755.0,3693.0,0.37,9.59,3.29,-0.35,0.02,0.0,1.0,u
927.0,2949.0,3604.0,3490.0,4095.0,4095.0,3771.0,3696.0,0.52,9.43,3.62,-0.25,-0.01,-0.02,1.0,u
922.0,2957.0,3601.0,3494.0,4095.0,4095.0,3761.0,3695.0,0.41,9.55,3.71,-0.24,0.03,-0.0,1.0,u
929.0,2942.0,3621.0,3495.0,4095.0,4095.0,3770.0,3696.0,0.48,9.46,3.8,-0.17,0.0,-0.0,1.0,u
925.0,2960.0,3616.0,3501.0,4095.0,4095.0,3767.0,3693.0,0.65,9.42,3.88,-0.16,0.0,0.01,1.0,u
926.0,2944.0,3607.0,3504.0,4095.0,4095.0,3750.0,3689.0,0.66,9.45,3.76,-0.13,0.0,-0.01,1.0,u
927.0,2949.0,3615.0,3501.0,4095.0,4095.0,3760.0,3690.0,0.63,9.51,3.68,-0.12,0.0,-0.01,1.0,u
929.0,2951.0,3627.0,3504.0,4095.0,4095.0,3766.0,3696.0,0.74,9.42,3.7,-0.12,0.01,-0.02,1.0,u
923.0,2958.0,3616.0,3504.0,4095.0,4095.0,3753.0,3696.0,0.63,9.48,3.78,-0.13,-0.01,-0.02,1.0,u
927.0,2960.0,3619.0,3511.0,4095.0,4095.0,3753.0,3683.0,0.48,9.43,3.81,-0.1,0.02,-0.03,1.0,u
926.0,2960.0,3617.0,3511.0,4095.0,4095.0,3747.0,3687.0,0.51,9.34,3.85,-0.1,0.01,-0.03,1.0,u
931.0,2953.0,3622.0,3505.0,4095.0,4095.0,3759.0,3681.0,0.68,9.35,3.94,-0.07,0.03,-0.02,1.0,u
918.0,2949.0,3615.0,3503.0,4095.0,4095.0,3746.0,3690.0,0.58,9.32,3.95,-0.08,0.02,-0.01,1.0,u
934.0,2953.0,3623.0,3492.0,4095.0,4095.0,3749.0,3691.0,0.72,9.33,3.94,-0.03,0.02,-0.02,1.0,u
923.0,2851.0,3616.0,3504.0,4095.0,4095.0,3757.0,3698.0,0.66,9.39,3.79,-0.06,0.01,-0.03,1.0,u
925.0,2960.0,3615.0,3504.0,4095.0,4095.0,3762.0,3694.0,0.65,9.4,3.74,-0.06,0.04,-0.04,1.0,u
