hall_1,hall_2,hall_3,flex_t,flex_i,flex_m,flex_r,flex_p,accel_x,accel_y,accel_z,gyro_x,gyro_y,gyro_z,hand,sign
919.0,2983.0,3745.0,3366.0,4095.0,4095.0,3291.0,3379.0,0.14,9.31,3.76,-0.05,0.01,-0.05,1.0,u
924.0,2974.0,3760.0,3366.0,4095.0,4095.0,3291.0,3394.0,-0.12,9.46,3.52,-0.08,0.02,-0.1,1.0,u
927.0,2987.0,3765.0,3376.0,4095.0,4095.0,3280.0,3387.0,-0.21,9.48,3.39,-0.06,0.03,-0.13,1.0,u
922.0,2985.0,3759.0,3376.0,4095.0,4095.0,3281.0,3387.0,-0.7,9.56,3.38,-0.1,0.06,-0.1,1.0,u
922.0,2988.0,3760.0,3376.0,4095.0,4095.0,3293.0,3394.0,-0.84,9.38,3.56,-0.14,0.07,-0.05,1.0,u
916.0,2992.0,3769.0,3378.0,4095.0,4095.0,3293.0,3387.0,-0.64,9.48,3.54,-0.15,0.06,0.02,1.0,u
929.0,2978.0,3762.0,3376.0,4095.0,4095.0,3298.0,3394.0,-0.41,9.36,3.69,-0.15,0.06,0.02,1.0,u
927.0,2982.0,3757.0,3376.0,4095.0,4095.0,3287.0,3391.0,0.1,9.25,3.79,-0.04,0.07,-0.05,1.0,u
929.0,2990.0,3760.0,3375.0,4095.0,4095.0,3287.0,3395.0,-0.67,9.21,2.86,-0.13,0.26,-0.13,1.0,u
916.0,2991.0,3766.0,3383.0,4095.0,4095.0,3294.0,3395.0,-1.58,9.71,2.07,-0.26,0.3,-0.13,1.0,u
921.0,2982.0,3770.0,3387.0,4095.0,4095.0,3289.0,3397.0,-1.69,9.56,2.7,-0.54,0.36,0.05,1.0,u
929.0,2977.0,3760.0,3378.0,4095.0,4095.0,3291.0,3401.0,-0.7,9.11,5.03,-0.36,-0.25,0.07,1.0,u
918.0,2983.0,3760.0,3387.0,4095.0,4095.0,3298.0,3397.0,-0.87,8.88,5.38,-0.26,0.14,0.02,1.0,u
927.0,2991.0,3758.0,3378.0,4095.0,4095.0,3299.0,3403.0,-1.74,8.6,5.2,-0.25,0.46,0.27,1.0,u
915.0,2987.0,3771.0,3389.0,4095.0,4095.0,3291.0,3397.0,-1.14,8.65,5.16,-0.23,0.15,0.4,1.0,u
927.0,2985.0,3767.0,3381.0,4095.0,4095.0,3293.0,3393.0,-0.23,8.67,5.46,-0.15,0.14,0.47,1.0,u
921.0,2982.0,3760.0,3389.0,4095.0,4095.0,3295.0,3404.0,0.43,8.87,5.64,0.06,0.09,0.4,1.0,u
921.0,2975.0,3760.0,3385.0,4095.0,4095.0,3291.0,3397.0,1.13,9.28,5.16,0.23,0.03,0.25,1.0,u
927.0,2983.0,3754.0,3376.0,4095.0,4095.0,3295.0,3399.0,0.75,9.35,4.1,0.24,-0.01,0.14,1.0,u
922.0,2988.0,3763.0,3376.0,4095.0,4095.0,3299.0,3406.0,0.42,9.08,4.08,0.15,-0.19,0.04,1.0,u
919.0,2991.0,3764.0,3379.0,4095.0,4095.0,3298.0,3403.0,0.72,9.07,4.07,0.22,-0.24,-0.03,1.0,u
923.0,2986.0,3767.0,3357.0,4095.0,4095.0,3298.0,3405.0,0.4,9.19,4.03,0.21,-0.12,-0.08,1.0,u
927.0,2989.0,3763.0,3312.0,4095.0,4095.0,3287.0,3395.0,0.32,9.09,4.06,0.31,-0.11,-0.13,1.0,u
949.0,2980.0,3760.0,3185.0,4095.0,4095.0,3270.0,3383.0,0.03,9.09,3.57,0.88,0.17,-0.1,1.0,u
951.0,2992.0,3750.0,3059.0,4095.0,4095.0,3270.0,3347.0,0.94,9.91,2.28,0.72,-0.09,-0.22,1.0,u
954.0,2992.0,3761.0,3037.0,4095.0,4095.0,3274.0,3355.0,1.27,10.07,2.76,0.31,-0.41,-0.47,1.0,u
944.0,2992.0,3760.0,3051.0,4095.0,4095.0,3273.0,3349.0,0.37,10.16,1.84,0.2,-0.09,-0.51,1.0,u
944.0,2982.0,3763.0,3084.0,4095.0,4095.0,3287.0,3362.0,-0.66,9.5,1.5,0.27,-0.22,-0.54,1.0,u
945.0,2976.0,3753.0,3084.0,4095.0,4095.0,3283.0,3355.0,-1.18,10.03,1.83,0.21,-0.32,-0.43,1.0,u
950.0,2992.0,3760.0,3129.0,4095.0,4095.0,3286.0,3362.0,-1.57,9.73,2.43,0.04,-0.35,-0.26,1.0,u
959.0,2987.0,3761.0,3157.0,4095.0,4095.0,3284.0,3365.0,-1.58,9.75,2.83,0.5,-0.54,-0.12,1.0,u
944.0,2984.0,3753.0,3162.0,4095.0,4095.0,3280.0,3363.0,-0.85,10.17,1.26,0.38,-0.15,0.04,1.0,u
949.0,2986.0,3759.0,3161.0,4095.0,4095.0,3291.0,3376.0,-0.35,10.39,-0.17,0.33,0.16,0.05,1.0,u
948.0,2979.0,3760.0,3170.0,4095.0,4095.0,3290.0,3369.0,0.46,10.17,0.15,-0.01,-0.21,-0.05,1.0,u
945.0,2988.0,3760.0,3173.0,4095.0,4095.0,3298.0,3376.0,-0.08,10.23,-0.35,-0.28,0.02,-0.16,1.0,u
944.0,2987.0,3757.0,3177.0,4095.0,4095.0,3291.0,3367.0,0.42,10.28,-1.22,-0.61,0.22,-0.29,1.0,u
937.0,2982.0,3749.0,3177.0,4095.0,4095.0,3293.0,3376.0,-0.15,9.54,0.35,-1.19,0.06,-0.4,1.0,u
943.0,2989.0,3753.0,3184.0,4095.0,4095.0,3299.0,3379.0,-0.85,8.97,2.74,-1.26,-0.15,-0.5,1.0,u
941.0,2980.0,3754.0,3187.0,4095.0,4095.0,3297.0,3381.0,-1.84,8.95,4.79,-0.98,0.01,-0.38,1.0,u
944.0,2994.0,3760.0,3200.0,4095.0,4095.0,3297.0,3386.0,-2.35,8.99,4.81,-0.6,0.16,-0.35,1.0,u
941.0,2986.0,3747.0,3206.0,4095.0,4095.0,3294.0,3378.0,-2.32,9.14,4.38,-0.42,0.08,-0.29,1.0,u
945.0,2986.0,3754.0,3203.0,4095.0,4095.0,3302.0,3387.0,-2.07,9.11,4.26,-0.27,0.14,-0.12,1.0,u
945.0,2983.0,3751.0,3210.0,4095.0,4095.0,3292.0,3378.0,-1.91,9.03,4.3,-0.28,0.01,-0.1,1.0,u
944.0,2990.0,3746.0,3212.0,4095.0,4095.0,3301.0,3383.0,-1.92,9.03,4.39,-0.21,0.05,-0.07,1.0,u
951.0,2982.0,3760.0,3214.0,4095.0,4095.0,3295.0,3378.0,-1.82,8.98,4.31,-0.18,-0.01,-0.05,1.0,u
944.0,2983.0,3758.0,3215.0,4095.0,4095.0,3303.0,3389.0,-1.73,9.04,4.4,-0.14,0.0,-0.04,1.0,u
948.0,2992.0,3750.0,3216.0,4095.0,4095.0,3307.0,3392.0,-1.6,8.92,4.24,-0.16,-0.04,-0.04,1.0,u
943.0,2989.0,3753.0,3217.0,4095.0,4095.0,3302.0,3387.0,-1.58,9.14,3.97,-0.14,0.02,-0.08,1.0,u
942.0,2989.0,3758.0,3219.0,4095.0,4095.0,3305.0,3383.0,-1.37,9.05,3.8,-0.25,-0.03,-0.14,1.0,u
953.0,2980.0,3749.0,3219.0,4095.0,4095.0,3302.0,3394.0,-1.6,8.86,4.09,-0.37,-0.08,-0.17,1.0,u
947.0,2982.0,3741.0,3217.0,4095.0,4095.0,3300.0,3389.0,-2.06,8.74,4.44,-0.41,-0.06,-0.15,1.0,u
944.0,2983.0,3741.0,3227.0,4095.0,4095.0,3302.0,3395.0,-2.11,8.76,4.57,-0.36,-0.03,-0.15,1.0,u
943.0,2987.0,3762.0,3232.0,4095.0,4095.0,3297.0,3387.0,-2.43,8.48,4.78,-0.29,-0.0,-0.1,1.0,u
949.0,2991.0,3764.0,3235.0,4095.0,4095.0,3309.0,3395.0,-2.23,8.41,5.1,-0.3,-0.03,-0.08,1.0,u
943.0,2991.0,3746.0,3234.0,4095.0,4095.0,3305.0,3395.0,-2.26,8.46,5.32,-0.21,0.01,-0.01,1.0,u
951.0,2986.0,3746.0,3239.0,4095.0,4095.0,3301.0,3397.0,-2.14,8.56,5.21,-0.22,0.0,0.02,1.0,u
941.0,2990.0,3760.0,3245.0,4095.0,4095.0,3305.0,3397.0,-2.3,8.28,5.59,-0.27,-0.07,0.08,1.0,u
945.0,2975.0,3742.0,3238.0,4095.0,4095.0,3301.0,3393.0,-1.97,8.35,5.54,-0.12,-0.1,0.09,1.0,u
948.0,2992.0,3760.0,3247.0,4095.0,4095.0,3309.0,3392.0,-1.81,8.41,5.13,-0.18,-0.03,0.12,1.0,u
943.0,2983.0,3745.0,3245.0,4095.0,4095.0,3300.0,3393.0,-1.66,8.32,5.28,-0.16,-0.08,0.08,1.0,u
941.0,2992.0,3758.0,3248.0,4095.0,4095.0,3305.0,3397.0,-1.46,8.28,5.4,-0.18,-0.08,0.05,1.0,u
947.0,2990.0,3759.0,3246.0,4095.0,4095.0,3301.0,3397.0,-1.43,8.23,5.59,-0.19,-0.07,0.06,1.0,u
949.0,2990.0,3760.0,3248.0,4095.0,4095.0,3303.0,3395.0,-1.52,8.32,5.5,-0.18,-0.02,0.03,1.0,u
942.0,2979.0,3753.0,3246.0,4095.0,4095.0,3306.0,3395.0,-1.54,8.27,5.46,-0.24,0.01,0.05,1.0,u
939.0,2983.0,3759.0,3248.0,4095.0,4095.0,3306.0,3399.0,-1.58,8.22,5.5,-0.28,0.0,0.05,1.0,u
946.0,2986.0,3753.0,3254.0,4095.0,4095.0,3303.0,3392.0,-1.64,8.08,5.91,-0.25,-0.04,0.07,1.0,u
949.0,2992.0,3759.0,3253.0,4095.0,4095.0,3309.0,3402.0,-1.85,7.98,5.87,-0.27,-0.0,0.11,1.0,u
938.0,2985.0,3755.0,3255.0,4095.0,4095.0,3300.0,3399.0,-1.91,7.75,6.23,-0.27,-0.04,0.25,1.0,u
943.0,2993.0,3750.0,3253.0,4095.0,4095.0,3306.0,3401.0,-1.24,8.16,6.28,-0.15,-0.2,0.25,1.0,u
947.0,2992.0,3761.0,3247.0,4095.0,4095.0,3301.0,3402.0,-0.72,8.18,6.18,-0.09,-0.13,0.25,1.0,u
944.0,2989.0,3753.0,3249.0,4095.0,4095.0,3295.0,3393.0,-0.83,8.01,6.14,-0.12,-0.2,0.25,1.0,u
941.0,2985.0,3760.0,3246.0,4095.0,4095.0,3299.0,3389.0,-0.35,8.13,6.12,-0.1,-0.07,0.21,1.0,u
947.0,2977.0,3751.0,3237.0,4095.0,4095.0,3291.0,3398.0,-0.53,7.92,6.24,-0.18,-0.01,0.25,1.0,u
944.0,2990.0,3751.0,3235.0,4095.0,4095.0,3291.0,3395.0,-0.32,8.01,6.24,-0.17,0.03,0.19,1.0,u
939.0,2982.0,3739.0,3239.0,4095.0,4095.0,3294.0,3386.0,-0.4,7.81,6.53,-0.13,-0.08,0.21,1.0,u
950.0,2989.0,3747.0,3248.0,4095.0,4095.0,3295.0,3391.0,-0.02,7.84,6.69,0.03,-0.03,0.15,1.0,u
944.0,2991.0,3751.0,3249.0,4095.0,4095.0,3281.0,3378.0,-0.09,7.99,6.52,0.04,0.09,0.2,1.0,u
945.0,2992.0,3757.0,3187.0,4095.0,4095.0,3275.0,3376.0,0.05,8.23,6.42,0.25,0.04,0.18,1.0,u
951.0,2983.0,3757.0,3062.0,4095.0,4095.0,3267.0,3357.0,0.22,8.19,6.2,0.25,-0.01,0.16,1.0,u
949.0,2990.0,3735.0,3014.0,4095.0,4095.0,3276.0,3327.0,0.42,8.56,5.82,0.29,0.02,0.11,1.0,u
955.0,2971.0,3732.0,3003.0,4095.0,4095.0,3276.0,3290.0,0.47,8.42,5.8,0.23,0.07,0.15,1.0,u
960.0,2977.0,3743.0,3010.0,4095.0,4095.0,3267.0,3253.0,0.45,8.3,5.99,0.19,-0.04,0.14,1.0,u
959.0,2990.0,3777.0,3065.0,4095.0,4095.0,3273.0,3240.0,0.37,8.23,5.71,0.17,0.12,0.09,1.0,u
958.0,2977.0,3808.0,3143.0,4095.0,4095.0,3263.0,3247.0,0.57,8.68,5.45,0.47,0.19,0.0,1.0,u
944.0,2981.0,3792.0,3229.0,4095.0,4095.0,3250.0,3282.0,0.23,8.86,4.83,0.28,0.28,0.04,1.0,u
947.0,2986.0,3823.0,3439.0,4095.0,4095.0,3248.0,3323.0,0.28,8.95,4.91,0.2,0.01,-0.05,1.0,u
959.0,2988.0,3820.0,3503.0,4095.0,4095.0,3267.0,3344.0,0.72,9.14,5.15,0.49,-0.26,-0.14,1.0,u
918.0,2989.0,3815.0,3455.0,4095.0,4095.0,3264.0,3346.0,0.63,9.24,4.7,-0.02,0.16,0.06,1.0,u
929.0,2993.0,3808.0,3423.0,4095.0,4095.0,3267.0,3348.0,0.53,9.16,4.41,0.78,0.03,-0.24,1.0,u
935.0,2982.0,3799.0,3338.0,4095.0,4095.0,3255.0,3333.0,0.59,9.12,3.95,0.25,0.02,-0.09,1.0,u
942.0,2987.0,3797.0,3327.0,4095.0,4095.0,3259.0,3330.0,0.23,9.35,3.8,0.36,-0.18,-0.16,1.0,u
944.0,2975.0,3814.0,3295.0,4095.0,4095.0,3265.0,3330.0,0.38,9.39,3.82,0.1,-0.04,-0.1,1.0,u
960.0,2989.0,3823.0,3313.0,4095.0,4095.0,3266.0,3325.0,0.55,9.07,4.31,0.17,-0.11,-0.1,1.0,u
942.0,2979.0,3824.0,3312.0,4095.0,4095.0,3278.0,3325.0,0.09,9.89,2.7,0.57,0.19,-0.36,1.0,u
953.0,2992.0,3834.0,3280.0,4095.0,4095.0,3298.0,3331.0,-0.16,9.39,3.39,0.21,0.0,-0.14,1.0,u
954.0,2975.0,3818.0,3278.0,4095.0,4095.0,3303.0,3342.0,-0.21,9.39,3.28,0.07,-0.04,-0.05,1.0,u
967.0,2982.0,3806.0,3280.0,4095.0,4095.0,3311.0,3342.0,0.39,9.49,3.41,0.27,-0.08,-0.27,1.0,u
963.0,2987.0,3839.0,3233.0,4095.0,4095.0,3291.0,3317.0,0.25,9.39,3.56,0.26,-0.34,-0.42,1.0,u
995.0,2974.0,3850.0,3198.0,4095.0,4095.0,3273.0,3280.0,-0.75,10.32,2.41,0.11,-0.46,-0.4,1.0,u
935.0,2975.0,3841.0,3183.0,4095.0,4095.0,3280.0,3287.0,-0.85,9.46,2.73,0.17,-0.04,-0.25,1.0,u
964.0,2974.0,3823.0,3191.0,4095.0,4095.0,3283.0,3287.0,-0.78,9.9,2.16,0.26,-0.19,-0.23,1.0,u
1023.0,2979.0,3851.0,3221.0,4095.0,4095.0,3284.0,3289.0,-0.85,9.39,2.4,0.14,0.13,0.0,1.0,u
963.0,2988.0,3840.0,3277.0,4095.0,4095.0,3250.0,3288.0,-0.75,9.79,2.85,0.32,-0.11,0.02,1.0,u
989.0,2981.0,3833.0,3316.0,4095.0,4095.0,3244.0,3273.0,-0.22,9.78,1.95,-0.01,-0.13,0.09,1.0,u
970.0,2985.0,3827.0,3351.0,4095.0,4095.0,3249.0,3281.0,-0.05,9.73,2.06,-0.1,0.05,0.3,1.0,u
980.0,2985.0,3818.0,3339.0,4095.0,4095.0,3253.0,3281.0,-0.08,9.73,2.23,0.02,-0.2,0.18,1.0,u
899.0,2998.0,3826.0,3344.0,4095.0,4095.0,3270.0,3290.0,0.15,10.01,1.76,-0.03,0.15,-0.03,1.0,u
2273.0,2992.0,3813.0,3354.0,4095.0,4095.0,3291.0,3314.0,-0.34,9.49,2.46,-0.09,-0.01,-0.05,1.0,u
2439.0,2988.0,3827.0,3346.0,4095.0,4095.0,3297.0,3316.0,-0.27,9.91,2.31,0.12,0.13,-0.11,1.0,u
2323.0,2987.0,3837.0,3349.0,4095.0,4095.0,3299.0,3305.0,0.29,9.92,2.57,0.03,-0.04,-0.07,1.0,u
2242.0,2981.0,3827.0,3314.0,4095.0,4095.0,3283.0,3277.0,-0.02,9.89,2.49,0.23,-0.23,-0.24,1.0,u
2767.0,2986.0,3824.0,3301.0,4095.0,4095.0,3285.0,3263.0,0.09,9.47,2.7,-0.22,0.03,-0.05,1.0,u
2613.0,2973.0,3828.0,3303.0,4095.0,4095.0,3274.0,3245.0,-0.35,10.19,2.01,0.34,-0.14,-0.17,1.0,u
1314.0,2905.0,3843.0,3317.0,4095.0,4095.0,3264.0,3234.0,-0.34,9.78,1.88,0.16,-0.19,0.0,1.0,u
1034.0,2971.0,3830.0,3341.0,4095.0,4095.0,3241.0,3219.0,-0.56,10.06,1.57,0.27,-0.01,-0.09,1.0,u
1117.0,2979.0,3815.0,3376.0,4095.0,4095.0,3231.0,3222.0,-0.17,9.69,1.64,-0.16,-0.22,-0.03,1.0,u
881.0,2982.0,3773.0,3411.0,4095.0,4095.0,3233.0,3225.0,0.24,9.98,1.74,0.19,-0.12,-0.07,1.0,u
894.0,2981.0,3760.0,3411.0,4095.0,4095.0,3221.0,3232.0,1.13,9.65,2.36,0.39,-0.19,-0.33,1.0,u
881.0,2978.0,3742.0,3441.0,4095.0,4095.0,3223.0,3233.0,0.28,10.66,0.62,0.3,-0.02,-0.56,1.0,u
891.0,2976.0,3749.0,3678.0,4095.0,4095.0,3216.0,3265.0,0.23,9.81,0.66,0.56,-0.38,-0.67,1.0,u
896.0,2972.0,3745.0,3752.0,4095.0,4095.0,3237.0,3277.0,-1.24,9.85,0.03,-0.22,-0.25,-0.51,1.0,u
893.0,2971.0,3764.0,3563.0,4095.0,4095.0,3273.0,3280.0,-1.63,10.11,0.99,-0.05,-0.3,-0.44,1.0,u
4095.0,2969.0,3761.0,3547.0,4095.0,4095.0,3292.0,3296.0,-1.65,8.03,0.23,-0.47,-0.01,-0.27,1.0,u
3836.0,2983.0,3820.0,3536.0,4095.0,4095.0,3312.0,3297.0,-1.69,10.14,-0.11,-0.33,-0.22,-0.41,1.0,u
3764.0,2979.0,3842.0,3503.0,4095.0,4095.0,3305.0,3299.0,-1.9,9.68,0.82,-0.51,-0.02,-0.36,1.0,u
3831.0,2978.0,3841.0,3536.0,4095.0,4095.0,3317.0,3302.0,-2.11,9.54,1.1,-0.74,-0.29,-0.22,1.0,u
3868.0,2966.0,3831.0,3503.0,4095.0,4095.0,3305.0,3289.0,-2.38,9.48,1.56,-0.33,0.12,-0.34,1.0,u
3920.0,2889.0,3819.0,3466.0,4095.0,4095.0,3303.0,3287.0,-2.21,9.9,1.53,-0.71,-0.1,-0.25,1.0,u
3997.0,2972.0,3829.0,3435.0,4095.0,4095.0,3311.0,3287.0,-2.36,9.25,2.55,-0.7,-0.1,-0.14,1.0,u
4042.0,2978.0,3819.0,3439.0,4095.0,4095.0,3305.0,3280.0,-2.21,9.29,3.1,-0.72,-0.08,-0.11,1.0,u
4095.0,2966.0,3818.0,3392.0,4095.0,4095.0,3303.0,3283.0,-2.43,8.71,3.78,-0.55,0.01,-0.03,1.0,u
4095.0,2977.0,3824.0,3381.0,4095.0,4095.0,3311.0,3288.0,-2.23,9.77,3.09,-0.73,-0.03,0.13,1.0,u
4095.0,3015.0,3798.0,3422.0,4095.0,4095.0,3312.0,3290.0,-1.84,8.53,4.0,-0.49,0.01,0.02,1.0,u
4095.0,2979.0,3811.0,3455.0,4095.0,4095.0,3315.0,3291.0,-1.66,9.45,3.73,-0.54,-0.31,0.12,1.0,u
4095.0,2977.0,3803.0,3459.0,4095.0,4095.0,3317.0,3299.0,-0.41,9.2,4.72,-0.4,-0.67,-0.32,1.0,u
4095.0,2979.0,3811.0,3451.0,4095.0,4095.0,3323.0,3301.0,-1.22,8.84,5.16,-0.4,0.02,-0.5,1.0,u
4095.0,2985.0,3817.0,3451.0,4095.0,4095.0,3329.0,3312.0,-1.98,8.49,5.37,-0.31,0.19,-0.56,1.0,u
4095.0,3035.0,3811.0,3456.0,4095.0,4095.0,3325.0,3302.0,-2.78,8.39,5.07,-0.04,-0.06,-0.44,1.0,u
4095.0,2969.0,3803.0,3452.0,4095.0,4095.0,3327.0,3301.0,-3.37,7.96,4.96,-0.1,-0.01,-0.41,1.0,u
4095.0,2982.0,3811.0,3459.0,4095.0,4095.0,3333.0,3296.0,-4.19,7.36,5.25,-0.04,0.07,-0.31,1.0,u
4095.0,2977.0,3814.0,3446.0,4095.0,4095.0,3325.0,3297.0,-6.35,6.88,4.94,0.15,0.35,0.04,1.0,u
4095.0,2978.0,3811.0,3433.0,4095.0,4095.0,3332.0,3302.0,-6.29,6.82,5.29,0.08,0.24,0.82,1.0,u
4095.0,2965.0,3803.0,3426.0,4095.0,4095.0,3335.0,3295.0,-1.99,9.11,4.31,0.26,-0.0,1.08,1.0,u
4095.0,2968.0,3814.0,3425.0,4095.0,4095.0,3333.0,3290.0,-0.17,9.75,3.63,0.15,0.32,0.83,1.0,u
4095.0,2970.0,3805.0,3435.0,4095.0,4095.0,3329.0,3290.0,0.2,9.73,3.88,0.09,0.05,0.74,1.0,u
4095.0,2967.0,3813.0,3447.0,4095.0,4095.0,3335.0,3286.0,-0.82,9.55,2.92,0.0,0.42,0.4,1.0,u
4095.0,2973.0,3818.0,3472.0,4095.0,4095.0,3312.0,3298.0,-1.06,9.37,2.85,-0.36,0.3,0.57,1.0,u
4095.0,2980.0,3818.0,3495.0,4095.0,4095.0,3297.0,3280.0,-0.37,9.72,2.82,-0.42,0.12,0.44,1.0,u
4095.0,2969.0,3811.0,3526.0,4095.0,4095.0,3275.0,3273.0,-0.24,9.17,3.98,-0.49,0.07,0.43,1.0,u
4095.0,2981.0,3821.0,3520.0,4095.0,4095.0,3247.0,3237.0,0.5,8.77,5.65,-0.03,-0.44,0.01,1.0,u
4095.0,2975.0,3806.0,3393.0,4095.0,4095.0,3264.0,3241.0,-0.17,9.44,5.0,-0.1,0.18,0.0,1.0,u
4095.0,2966.0,3798.0,3362.0,4095.0,4095.0,3269.0,3249.0,-0.34,9.18,5.14,-0.08,0.28,-0.03,1.0,u
4095.0,2987.0,3808.0,3377.0,4095.0,4095.0,3280.0,3261.0,-0.58,9.03,4.9,-0.0,0.08,0.01,1.0,u
4095.0,2979.0,3789.0,3403.0,4095.0,4095.0,3279.0,3270.0,-0.6,8.98,4.52,0.03,0.11,0.01,1.0,u
4095.0,2982.0,3783.0,3545.0,4095.0,4095.0,3261.0,3279.0,-0.21,9.11,4.32,-0.0,0.13,-0.01,1.0,u
4095.0,2971.0,3786.0,3850.0,4095.0,4095.0,3242.0,3301.0,-0.36,9.0,4.14,-0.03,0.19,0.02,1.0,u
4095.0,2971.0,3794.0,4095.0,4095.0,4095.0,3267.0,3313.0,-0.87,9.28,3.85,-0.07,0.06,-0.05,1.0,u
4095.0,3134.0,3791.0,4095.0,4095.0,4095.0,3271.0,3333.0,-0.66,9.03,4.26,-0.22,0.03,0.1,1.0,u
4095.0,2979.0,3803.0,3997.0,4095.0,4095.0,3263.0,3331.0,-0.69,8.95,4.79,-0.06,0.05,0.01,1.0,u
4095.0,2970.0,3808.0,3658.0,4095.0,4095.0,3311.0,3324.0,-0.52,9.02,4.48,-0.13,-0.04,-0.02,1.0,u
4095.0,2975.0,3786.0,3527.0,4095.0,4095.0,3329.0,3315.0,-0.85,9.25,4.39,-0.22,-0.06,-0.02,1.0,u
4095.0,2973.0,3770.0,3461.0,4095.0,4095.0,3343.0,3318.0,-0.91,8.89,4.22,-0.34,-0.0,0.09,1.0,u
4095.0,2960.0,3798.0,3473.0,4095.0,4095.0,3354.0,3313.0,-0.41,8.56,4.91,-0.63,-0.03,0.35,1.0,u
4095.0,2967.0,3792.0,3421.0,4095.0,4095.0,3355.0,3321.0,0.06,8.66,5.22,-0.32,0.08,0.22,1.0,u
4095.0,2967.0,3777.0,3412.0,4095.0,4095.0,3344.0,3322.0,0.48,8.77,5.38,-0.12,0.05,0.06,1.0,u
4095.0,2971.0,3777.0,3423.0,4095.0,4095.0,3351.0,3327.0,-0.03,9.0,4.92,-0.42,-0.02,0.1,1.0,u
4095.0,2975.0,3771.0,3439.0,4095.0,4095.0,3342.0,3323.0,0.37,8.61,5.57,-0.27,0.06,0.08,1.0,u
4095.0,2964.0,3777.0,3469.0,4095.0,4095.0,3346.0,3321.0,-0.34,8.96,5.09,0.18,0.12,-0.09,1.0,u
4095.0,2967.0,3789.0,3467.0,4095.0,4095.0,3347.0,3322.0,-0.2,8.88,5.05,-0.1,-0.03,-0.03,1.0,u
4095.0,2987.0,3772.0,3479.0,4095.0,4095.0,3345.0,3327.0,-0.35,8.59,5.23,-0.14,-0.04,0.07,1.0,u
4095.0,2985.0,3771.0,3491.0,4095.0,4095.0,3344.0,3330.0,-0.08,8.53,5.45,0.08,-0.02,0.07,1.0,u
4095.0,2988.0,3792.0,3504.0,4095.0,4095.0,3354.0,3330.0,-0.4,8.72,5.27,-0.03,0.14,0.06,1.0,u
4095.0,2974.0,3765.0,3489.0,4095.0,4095.0,3344.0,3324.0,-0.32,8.7,5.48,0.11,0.22,0.07,1.0,u
4095.0,2971.0,3785.0,3478.0,4095.0,4095.0,3354.0,3331.0,-0.46,8.62,5.46,0.06,0.3,0.18,1.0,u
4095.0,2960.0,3770.0,3435.0,4095.0,4095.0,3347.0,3329.0,0.3,8.77,5.16,0.19,0.16,0.23,1.0,u
4095.0,2982.0,3767.0,3417.0,4095.0,4095.0,3356.0,3330.0,0.85,9.17,4.75,0.21,0.07,0.13,1.0,u
4095.0,2977.0,3787.0,3430.0,4095.0,4095.0,3357.0,3339.0,0.83,9.21,4.69,0.02,0.04,0.11,1.0,u
4095.0,2965.0,3776.0,3455.0,4095.0,4095.0,3357.0,3331.0,0.71,9.21,4.24,-0.03,-0.04,0.09,1.0,u
4095.0,2978.0,3785.0,3470.0,4095.0,4095.0,3360.0,3328.0,0.64,9.05,4.37,-0.04,0.04,0.06,1.0,u
4095.0,2979.0,3779.0,3466.0,4095.0,4095.0,3353.0,3338.0,0.73,8.97,4.67,-0.19,-0.11,0.07,1.0,u
4095.0,2985.0,3794.0,3467.0,4095.0,4095.0,3372.0,3343.0,0.53,8.65,5.01,-0.28,-0.07,0.02,1.0,u
4095.0,2975.0,3781.0,3463.0,4095.0,4095.0,3369.0,3343.0,0.85,8.51,5.32,-0.1,0.09,-0.01,1.0,u
4095.0,2931.0,3787.0,3439.0,4095.0,4095.0,3365.0,3337.0,0.56,9.24,4.8,0.0,-0.0,-0.12,1.0,u
4095.0,2973.0,3774.0,3455.0,4095.0,4095.0,3374.0,3342.0,0.86,8.84,5.04,-0.19,-0.11,-0.09,1.0,u
4095.0,2981.0,3794.0,3467.0,4095.0,4095.0,3360.0,3335.0,1.15,8.62,5.84,0.23,0.03,-0.3,1.0,u
4095.0,2973.0,3799.0,3445.0,4095.0,4095.0,3371.0,3339.0,0.52,8.87,5.61,0.3,0.13,-0.43,1.0,u
3995.0,2980.0,3778.0,3443.0,4095.0,4095.0,3355.0,3333.0,-0.37,9.42,4.54,0.17,0.2,-0.14,1.0,u
2919.0,2973.0,3783.0,3461.0,4095.0,4095.0,3367.0,3344.0,-0.32,8.58,4.32,0.06,-0.12,-0.09,1.0,u
2367.0,2981.0,3793.0,3430.0,4095.0,4095.0,3355.0,3328.0,0.41,9.12,4.69,0.53,-0.15,-0.27,1.0,u
2127.0,2971.0,3786.0,3411.0,4095.0,4095.0,3351.0,3323.0,-0.18,9.35,3.88,0.02,0.02,-0.05,1.0,u
893.0,2977.0,3792.0,3430.0,4095.0,4095.0,3373.0,3317.0,0.32,9.14,4.3,0.2,0.15,-0.1,1.0,u
885.0,2961.0,3799.0,3421.0,4095.0,4095.0,3367.0,3325.0,-0.1,9.27,4.25,0.05,-0.05,-0.04,1.0,u
879.0,2970.0,3791.0,3446.0,4095.0,4095.0,3367.0,3323.0,0.28,9.21,4.48,0.07,-0.01,-0.07,1.0,u
880.0,2972.0,3807.0,3471.0,4095.0,4095.0,3367.0,3323.0,0.16,9.19,4.25,0.19,0.02,-0.12,1.0,u
2864.0,2971.0,3793.0,3453.0,4095.0,4095.0,3370.0,3335.0,-0.32,9.47,3.76,0.28,0.12,-0.16,1.0,u
4095.0,2983.0,3787.0,3440.0,4095.0,4095.0,3381.0,3333.0,-0.01,9.56,3.77,0.19,-0.12,-0.11,1.0,u
4095.0,2966.0,3780.0,3424.0,4095.0,4095.0,3383.0,3342.0,0.04,9.53,3.68,0.34,-0.06,-0.2,1.0,u
4095.0,2965.0,3798.0,3450.0,4095.0,4095.0,3379.0,3333.0,0.06,9.78,3.21,0.32,-0.19,-0.28,1.0,u
4095.0,2982.0,3795.0,3453.0,4095.0,4095.0,3383.0,3331.0,-0.62,9.39,3.03,0.36,-0.12,-0.24,1.0,u
4095.0,2963.0,3792.0,3453.0,4095.0,4095.0,3387.0,3342.0,-1.02,9.37,2.84,0.25,-0.13,-0.08,1.0,u
4095.0,2975.0,3807.0,3454.0,4095.0,4095.0,3385.0,3338.0,-0.96,9.53,2.58,0.23,-0.11,0.01,1.0,u
4095.0,2975.0,3809.0,3440.0,4095.0,4095.0,3391.0,3343.0,-0.66,9.86,2.23,0.02,-0.07,0.15,1.0,u
4095.0,2976.0,3793.0,3452.0,4095.0,4095.0,3390.0,3338.0,-0.03,9.65,2.48,0.09,0.06,0.19,1.0,u
983.0,2975.0,3789.0,3451.0,4095.0,4095.0,3398.0,3345.0,0.25,9.89,1.93,0.22,-0.1,0.13,1.0,u
947.0,2972.0,3815.0,3446.0,4095.0,4095.0,3402.0,3357.0,0.62,10.15,2.21,0.31,0.16,-0.1,1.0,u
958.0,2970.0,3824.0,3377.0,4095.0,4095.0,3410.0,3355.0,0.23,9.86,1.89,0.15,-0.12,-0.11,1.0,u
965.0,2963.0,3823.0,3386.0,4095.0,4095.0,3418.0,3347.0,0.23,9.87,1.53,-0.05,-0.26,-0.16,1.0,u
947.0,2973.0,3810.0,3385.0,4095.0,4095.0,3414.0,3351.0,0.18,9.92,2.07,-0.1,-0.24,-0.28,1.0,u
941.0,2973.0,3807.0,3391.0,4095.0,4095.0,3415.0,3358.0,0.03,9.81,2.5,-0.16,-0.17,-0.25,1.0,u
945.0,2963.0,3814.0,3387.0,4095.0,4095.0,3418.0,3356.0,-0.24,9.53,2.83,-0.01,-0.2,-0.26,1.0,u
942.0,2977.0,3808.0,3395.0,4095.0,4095.0,3417.0,3355.0,-0.16,9.9,2.5,0.24,-0.28,-0.34,1.0,u
913.0,2971.0,3822.0,3406.0,4095.0,4095.0,3415.0,3358.0,-0.39,10.08,2.07,0.06,-0.39,-0.29,1.0,u
2807.0,2976.0,3824.0,3399.0,4095.0,4095.0,3423.0,3358.0,-0.57,9.9,2.09,0.09,-0.36,-0.35,1.0,u
3874.0,2975.0,3827.0,3411.0,4095.0,4095.0,3426.0,3363.0,-0.7,9.53,2.05,0.21,-0.44,-0.41,1.0,u
3888.0,2971.0,3839.0,3409.0,4095.0,4095.0,3426.0,3365.0,-1.18,9.73,1.6,0.19,-0.39,-0.32,1.0,u
3895.0,2973.0,3819.0,3420.0,4095.0,4095.0,3433.0,3360.0,-1.44,9.62,1.71,0.2,-0.37,-0.35,1.0,u
3920.0,2974.0,3822.0,3423.0,4095.0,4095.0,3430.0,3350.0,-1.74,10.01,1.3,0.15,-0.26,-0.31,1.0,u
3897.0,2962.0,3813.0,3404.0,4095.0,4095.0,3422.0,3362.0,-1.75,9.79,1.34,0.03,-0.36,-0.23,1.0,u
915.0,2974.0,3829.0,3402.0,4095.0,4095.0,3422.0,3366.0,-1.38,10.1,1.11,0.16,-0.28,-0.28,1.0,u
881.0,2972.0,3827.0,3410.0,4095.0,4095.0,3433.0,3370.0,-1.38,9.87,0.84,0.06,-0.21,-0.18,1.0,u
1118.0,2971.0,3827.0,3399.0,4095.0,4095.0,3424.0,3360.0,-1.47,9.91,1.02,0.0,-0.25,-0.23,1.0,u
1815.0,2965.0,3811.0,3403.0,4095.0,4095.0,3425.0,3361.0,-1.5,9.77,1.42,-0.11,-0.35,-0.24,1.0,u
1838.0,2976.0,3819.0,3399.0,4095.0,4095.0,3425.0,3362.0,-1.66,9.68,1.47,-0.08,-0.3,-0.26,1.0,u
1823.0,2973.0,3819.0,3405.0,4095.0,4095.0,3429.0,3370.0,-1.58,9.86,1.35,-0.04,-0.28,-0.24,1.0,u
1755.0,2962.0,3815.0,3359.0,4095.0,4095.0,3418.0,3362.0,-1.93,9.79,1.27,-0.09,-0.2,-0.22,1.0,u
1718.0,2975.0,3837.0,3357.0,4095.0,4095.0,3428.0,3359.0,-2.31,9.43,1.78,-0.08,-0.27,-0.24,1.0,u
939.0,2991.0,906.0,3293.0,4095.0,4095.0,3266.0,3668.0,-0.44,9.03,4.72,-0.06,-0.1,0.07,1.0,u
944.0,2994.0,895.0,3291.0,4095.0,4095.0,3263.0,3661.0,-0.45,9.08,4.23,-0.02,0.05,0.07,1.0,u
944.0,2992.0,895.0,3289.0,4095.0,4095.0,3257.0,3659.0,-1.0,9.17,4.01,-0.11,0.09,0.09,1.0,u
944.0,2912.0,893.0,3289.0,4095.0,4095.0,3261.0,3657.0,-0.52,9.04,4.32,-0.08,0.05,0.06,1.0,u
939.0,2982.0,895.0,3290.0,4095.0,4095.0,3261.0,3664.0,-0.47,8.93,4.35,-0.05,0.21,0.14,1.0,u
951.0,2985.0,896.0,3295.0,4095.0,4095.0,3263.0,3669.0,-0.33,9.17,4.28,-0.1,0.17,0.09,1.0,u
944.0,2985.0,894.0,3289.0,4095.0,4095.0,3263.0,3664.0,-0.63,9.05,4.48,-0.2,0.33,0.1,1.0,u
937.0,2975.0,895.0,3295.0,4095.0,4095.0,3258.0,3664.0,-0.7,8.79,4.84,-0.12,0.38,0.09,1.0,u
946.0,2989.0,896.0,3290.0,4095.0,4095.0,3260.0,3663.0,-0.28,8.63,5.14,-0.03,0.36,0.12,1.0,u
955.0,2890.0,901.0,3296.0,4095.0,4095.0,3261.0,3661.0,-0.03,9.02,4.91,-0.04,0.39,0.13,1.0,u
940.0,2998.0,895.0,3294.0,4095.0,4095.0,3269.0,3665.0,-0.66,8.87,4.92,-0.15,0.33,0.12,1.0,u
944.0,2987.0,903.0,3295.0,4095.0,4095.0,3259.0,3664.0,-0.83,8.72,5.11,-0.16,0.34,0.21,1.0,u
944.0,2986.0,898.0,3297.0,4095.0,4095.0,3255.0,3675.0,-0.4,8.69,5.05,-0.11,0.3,0.34,1.0,u
944.0,2987.0,896.0,3299.0,4095.0,4095.0,3270.0,3665.0,0.57,8.84,5.04,-0.06,0.16,0.27,1.0,u
943.0,2990.0,901.0,3303.0,4095.0,4095.0,3263.0,3671.0,0.63,8.9,5.21,-0.09,0.12,0.16,1.0,u
944.0,2991.0,900.0,3283.0,4095.0,4095.0,3258.0,3661.0,0.85,8.95,4.67,0.1,0.13,-0.03,1.0,u
944.0,2986.0,895.0,3291.0,4095.0,4095.0,3265.0,3664.0,0.31,8.98,4.43,-0.09,0.03,-0.05,1.0,u
940.0,2989.0,895.0,3281.0,4095.0,4095.0,3263.0,3660.0,0.55,9.17,4.58,-0.22,-0.23,-0.07,1.0,u
943.0,2991.0,898.0,3291.0,4095.0,4095.0,3266.0,3665.0,0.65,8.81,5.07,-0.22,-0.29,-0.11,1.0,u
943.0,2982.0,898.0,3285.0,4095.0,4095.0,3274.0,3667.0,0.3,8.75,5.26,-0.23,-0.35,-0.16,1.0,u
929.0,2992.0,891.0,3280.0,4095.0,4095.0,3255.0,3663.0,0.13,8.84,5.02,-0.16,-0.32,-0.18,1.0,u
930.0,2982.0,896.0,3289.0,4095.0,4095.0,3265.0,3673.0,0.01,8.73,5.04,-0.16,-0.34,-0.19,1.0,u
937.0,2992.0,894.0,3285.0,4095.0,4095.0,3264.0,3658.0,0.17,8.68,5.01,-0.11,-0.29,-0.25,1.0,u
933.0,2992.0,896.0,3285.0,4095.0,4095.0,3266.0,3663.0,0.2,8.68,4.82,-0.09,-0.21,-0.3,1.0,u
937.0,2981.0,903.0,3287.0,4095.0,4095.0,3269.0,3664.0,0.51,9.1,4.57,-0.14,-0.18,-0.41,1.0,u
929.0,2991.0,897.0,3289.0,4095.0,4095.0,3275.0,3669.0,0.05,8.75,5.24,-0.26,-0.35,-0.49,1.0,u
927.0,2992.0,896.0,3285.0,4095.0,4095.0,3265.0,3669.0,-0.45,8.72,5.46,-0.18,-0.26,-0.54,1.0,u
934.0,2987.0,893.0,3280.0,4095.0,4095.0,3258.0,3665.0,-1.12,8.45,5.37,-0.1,-0.17,-0.51,1.0,u
939.0,2992.0,893.0,3283.0,4095.0,4095.0,3267.0,3675.0,-1.25,8.41,5.31,-0.12,-0.17,-0.41,1.0,u
941.0,2983.0,896.0,3281.0,4095.0,4095.0,3261.0,3667.0,-1.2,8.26,5.19,-0.09,-0.1,-0.33,1.0,u
931.0,2988.0,896.0,3257.0,4095.0,4095.0,3259.0,3664.0,-1.43,8.12,4.98,-0.17,0.09,-0.21,1.0,u
939.0,2975.0,901.0,3264.0,4095.0,4095.0,3271.0,3663.0,-1.58,8.11,5.09,-0.24,-0.01,-0.15,1.0,u
929.0,2987.0,896.0,3258.0,4095.0,4095.0,3265.0,3666.0,-1.53,8.16,5.69,-0.25,0.05,-0.09,1.0,u
942.0,2979.0,893.0,3264.0,4095.0,4095.0,3250.0,3664.0,-1.4,8.33,6.01,-0.16,0.12,-0.08,1.0,u
936.0,2990.0,897.0,3263.0,4095.0,4095.0,3269.0,3678.0,-1.36,8.23,6.16,-0.1,0.11,-0.06,1.0,u
934.0,2985.0,896.0,3263.0,4095.0,4095.0,3263.0,3664.0,-1.41,8.28,5.83,-0.01,0.17,0.0,1.0,u
928.0,2983.0,897.0,3266.0,4095.0,4095.0,3266.0,3678.0,-1.71,8.27,5.61,-0.03,0.17,0.02,1.0,u
931.0,2990.0,896.0,3264.0,4095.0,4095.0,3266.0,3695.0,-1.29,8.29,5.51,-0.08,0.06,0.07,1.0,u
941.0,2991.0,893.0,3259.0,4095.0,4095.0,3262.0,3671.0,-1.6,8.31,5.35,-0.11,0.16,0.16,1.0,u
935.0,2981.0,902.0,3247.0,4095.0,4095.0,3248.0,3662.0,-1.6,8.44,5.39,-0.14,0.26,0.15,1.0,u
928.0,2988.0,885.0,3241.0,4095.0,4095.0,3264.0,3654.0,-1.94,8.28,5.74,-0.22,0.18,0.27,1.0,u
919.0,2987.0,896.0,3207.0,4095.0,4095.0,3250.0,3639.0,-1.12,8.31,6.19,-0.0,0.19,0.42,1.0,u
929.0,2987.0,902.0,3155.0,4095.0,4095.0,3250.0,3583.0,-0.77,8.52,6.07,-0.1,0.43,0.53,1.0,u
923.0,2982.0,903.0,3120.0,4095.0,4095.0,3245.0,3507.0,0.05,8.73,6.09,-0.1,0.12,0.37,1.0,u
928.0,2990.0,913.0,3117.0,4095.0,4095.0,3248.0,3518.0,0.54,8.71,5.89,-0.02,0.28,0.3,1.0,u
929.0,2985.0,927.0,3093.0,4095.0,4095.0,3248.0,3473.0,-0.11,8.44,5.86,0.2,0.15,0.11,1.0,u
890.0,3103.0,917.0,3090.0,4095.0,4095.0,3178.0,3445.0,-0.29,8.56,5.44,0.04,0.13,0.04,1.0,u
890.0,2981.0,922.0,3081.0,4095.0,4095.0,3175.0,3456.0,-0.82,8.44,5.34,-0.08,0.4,0.18,1.0,u
894.0,2981.0,917.0,3088.0,4095.0,4095.0,3188.0,3455.0,-0.32,8.47,5.59,0.13,0.1,0.13,1.0,u
896.0,2981.0,921.0,3103.0,4095.0,4095.0,3174.0,3466.0,0.02,8.38,5.65,-0.06,0.78,0.23,1.0,u
891.0,2987.0,914.0,3112.0,4095.0,4095.0,3182.0,3472.0,-0.65,8.55,5.55,-0.08,1.25,0.51,1.0,u
899.0,2981.0,923.0,3115.0,4095.0,4095.0,3131.0,3466.0,-0.55,8.84,5.06,-0.1,1.65,0.47,1.0,u
885.0,2979.0,925.0,3089.0,4095.0,4095.0,3167.0,3447.0,-1.24,8.73,4.91,-0.04,1.18,0.5,1.0,u
911.0,2979.0,927.0,3079.0,4095.0,4095.0,3159.0,3466.0,-0.73,8.83,4.75,-0.03,0.45,0.24,1.0,u
917.0,2974.0,923.0,3082.0,4095.0,4095.0,3122.0,3509.0,-0.56,8.66,4.92,-0.1,0.73,0.27,1.0,u
942.0,2981.0,924.0,3067.0,4095.0,4095.0,3169.0,3347.0,-1.03,8.67,5.01,-0.16,0.72,0.24,1.0,u
1104.0,2979.0,924.0,3059.0,4095.0,4095.0,3190.0,3322.0,-1.2,8.7,4.87,-0.07,0.17,0.08,1.0,u
1521.0,2981.0,920.0,3046.0,4095.0,4095.0,3117.0,3327.0,-1.02,8.68,5.0,-0.1,0.07,0.02,1.0,u
2388.0,2979.0,921.0,3013.0,4095.0,4095.0,3136.0,3478.0,-1.11,8.6,5.05,-0.09,0.25,0.12,1.0,u
2832.0,2977.0,925.0,3008.0,4095.0,4095.0,3147.0,3495.0,-1.13,8.71,5.02,-0.1,0.17,0.13,1.0,u
3220.0,2973.0,917.0,2992.0,4095.0,4095.0,3133.0,3495.0,-1.02,8.62,5.17,-0.08,0.04,0.08,1.0,u
3408.0,2974.0,929.0,2991.0,4095.0,4095.0,3143.0,3503.0,-0.7,8.75,5.17,-0.05,0.23,0.1,1.0,u
3577.0,2970.0,927.0,2990.0,4095.0,4095.0,3126.0,3452.0,-0.78,8.61,5.16,-0.21,0.79,0.25,1.0,u
3676.0,2975.0,924.0,2998.0,4095.0,4095.0,3179.0,3480.0,-1.13,8.61,5.12,-0.04,0.66,0.15,1.0,u
3783.0,2982.0,927.0,2999.0,4095.0,4095.0,3147.0,3410.0,-1.3,8.67,4.83,-0.06,0.58,0.1,1.0,u
3837.0,2976.0,919.0,3013.0,4095.0,4095.0,3174.0,3467.0,-1.35,8.64,4.79,-0.01,0.33,0.07,1.0,u
3833.0,2979.0,930.0,3010.0,4095.0,4095.0,3165.0,3472.0,-0.93,9.0,4.6,-0.01,0.14,0.03,1.0,u
3883.0,2980.0,928.0,3013.0,4095.0,4095.0,3177.0,3460.0,-1.75,8.66,4.86,-0.23,0.53,0.13,1.0,u
3873.0,2983.0,915.0,3011.0,4095.0,4095.0,3205.0,3509.0,-1.18,9.04,4.55,0.1,-0.6,-0.07,1.0,u
3893.0,2987.0,927.0,3015.0,4095.0,4095.0,3091.0,3519.0,-0.91,8.88,4.71,-0.12,-0.23,-0.07,1.0,u
3919.0,2990.0,926.0,3017.0,4095.0,4095.0,3187.0,3533.0,-0.83,8.76,4.96,-0.15,0.21,0.16,1.0,u
3906.0,2986.0,930.0,3024.0,4095.0,4095.0,3210.0,3532.0,-1.06,8.78,4.97,-0.15,0.01,-0.03,1.0,u
3904.0,2979.0,921.0,3021.0,4095.0,4095.0,3184.0,3536.0,-0.93,8.74,4.98,-0.08,0.07,-0.05,1.0,u
3918.0,2974.0,924.0,3020.0,4095.0,4095.0,3187.0,3536.0,-1.32,8.69,5.0,-0.09,0.36,0.06,1.0,u
3933.0,2970.0,919.0,3023.0,4095.0,4095.0,3184.0,3519.0,-1.31,8.67,4.88,-0.13,0.32,0.07,1.0,u
3947.0,2986.0,918.0,3024.0,4095.0,4095.0,3152.0,3530.0,-1.37,8.68,4.91,-0.07,0.13,0.04,1.0,u
3955.0,2981.0,919.0,3025.0,4095.0,4095.0,3117.0,3520.0,-0.93,8.87,4.86,-0.03,0.05,-0.0,1.0,u
3975.0,2981.0,930.0,3023.0,4095.0,4095.0,3152.0,3517.0,-1.27,8.68,4.81,-0.11,0.01,0.01,1.0,u
4016.0,2971.0,924.0,3024.0,4095.0,4095.0,3123.0,3509.0,-1.1,8.86,4.83,-0.08,0.03,-0.03,1.0,u
4030.0,2978.0,921.0,3029.0,4095.0,4095.0,3126.0,3508.0,-1.11,8.74,5.05,-0.12,0.2,0.05,1.0,u
4016.0,2977.0,929.0,3025.0,4095.0,4095.0,3138.0,3491.0,-1.33,8.6,5.16,-0.12,0.52,0.14,1.0,u
4042.0,2979.0,918.0,3030.0,4095.0,4095.0,3157.0,3522.0,-1.36,8.61,5.03,0.13,0.33,0.09,1.0,u
4016.0,2966.0,923.0,3025.0,4095.0,4095.0,3137.0,3520.0,-1.11,8.97,4.55,0.02,0.2,0.03,1.0,u
4035.0,2989.0,923.0,3024.0,4095.0,4095.0,3128.0,3456.0,-1.21,8.92,4.55,-0.17,0.63,0.09,1.0,u
4030.0,2986.0,919.0,3029.0,4095.0,4095.0,3138.0,3426.0,-1.31,8.88,4.49,-0.2,0.67,0.15,1.0,u
4095.0,2970.0,925.0,3033.0,4095.0,4095.0,3120.0,3492.0,-1.8,8.7,4.37,-0.28,0.57,0.07,1.0,u
4095.0,2981.0,928.0,3027.0,4095.0,4095.0,3114.0,3495.0,-1.81,8.73,4.64,-0.09,0.35,0.07,1.0,u
4095.0,2982.0,929.0,3036.0,4095.0,4095.0,3153.0,3514.0,-1.74,8.63,4.9,-0.02,0.19,0.07,1.0,u
4095.0,2977.0,915.0,3035.0,4095.0,4095.0,3120.0,3536.0,-1.64,8.88,4.79,-0.06,0.35,0.07,1.0,u
4095.0,2980.0,928.0,3037.0,4095.0,4095.0,3194.0,3536.0,-1.87,8.76,4.86,-0.05,0.13,0.06,1.0,u
4095.0,2990.0,925.0,3035.0,4095.0,4095.0,3170.0,3535.0,-1.72,8.65,4.76,-0.08,-0.12,-0.01,1.0,u
4095.0,2978.0,925.0,3034.0,4095.0,4095.0,3154.0,3535.0,-1.59,8.6,4.85,0.13,-0.35,-0.07,1.0,u
4095.0,2982.0,922.0,3039.0,4095.0,4095.0,3216.0,3555.0,-2.16,8.83,4.24,0.11,-1.39,-0.29,1.0,u
4095.0,2982.0,916.0,3037.0,4095.0,4095.0,3164.0,3567.0,-1.18,8.94,4.32,0.21,-1.54,-0.55,1.0,u
4095.0,2971.0,927.0,3035.0,4095.0,4095.0,3216.0,3547.0,-0.6,9.14,4.58,-0.1,-1.02,-0.25,1.0,u
4095.0,2977.0,925.0,3046.0,4095.0,4095.0,3229.0,3543.0,-0.36,8.96,4.75,-0.3,-0.49,-0.21,1.0,u
4095.0,2979.0,924.0,3056.0,4095.0,4095.0,3218.0,3560.0,-0.67,8.5,5.12,-0.07,-0.32,-0.25,1.0,u
4095.0,2989.0,928.0,3051.0,4095.0,4095.0,3233.0,3553.0,-0.99,8.85,5.03,-0.04,0.08,-0.23,1.0,u
4095.0,2977.0,929.0,3057.0,4095.0,4095.0,3215.0,3546.0,-1.49,8.27,5.41,0.06,0.23,-0.2,1.0,u
4095.0,2981.0,924.0,3056.0,4095.0,4095.0,3221.0,3545.0,-1.65,8.91,4.73,-0.05,0.21,-0.15,1.0,u
4095.0,2986.0,928.0,3058.0,4095.0,4095.0,3228.0,3555.0,-1.42,8.88,4.59,-0.05,0.09,-0.1,1.0,u
4095.0,2982.0,922.0,3062.0,4095.0,4095.0,3229.0,3546.0,-1.51,8.64,4.91,-0.08,-0.0,-0.06,1.0,u
4095.0,2966.0,922.0,3056.0,4095.0,4095.0,3227.0,3543.0,-1.53,8.61,5.02,-0.07,-0.01,-0.07,1.0,u
4095.0,2984.0,929.0,3068.0,4095.0,4095.0,3231.0,3552.0,-1.46,8.6,5.13,0.02,-0.05,-0.03,1.0,u
4095.0,2990.0,925.0,3059.0,4095.0,4095.0,3225.0,3551.0,-1.43,8.59,4.94,0.01,-0.11,-0.06,1.0,u
4095.0,2986.0,928.0,3063.0,4095.0,4095.0,3215.0,3545.0,-1.17,8.71,4.78,0.05,-0.21,-0.08,1.0,u
4095.0,2973.0,914.0,3056.0,4095.0,4095.0,3219.0,3527.0,-1.55,8.81,4.75,0.05,-0.08,-0.08,1.0,u
4095.0,2985.0,921.0,3066.0,4095.0,4095.0,3202.0,3536.0,-2.5,8.69,4.52,0.0,-0.75,-0.14,1.0,u
4095.0,2987.0,923.0,3057.0,4095.0,4095.0,3229.0,3536.0,-1.01,8.83,4.71,0.09,-1.38,-0.39,1.0,u
4095.0,2985.0,919.0,3059.0,4095.0,4095.0,3227.0,3536.0,-0.32,9.03,4.93,-0.01,-0.69,-0.15,1.0,u
2967.0,2981.0,927.0,3071.0,4095.0,4095.0,3242.0,3535.0,-1.39,8.43,5.06,-0.2,-0.11,-0.0,1.0,u
1051.0,2985.0,921.0,3070.0,4095.0,4095.0,3243.0,3517.0,-0.58,8.65,5.13,0.07,-0.86,-0.3,1.0,u
909.0,2983.0,918.0,3068.0,4095.0,4095.0,3245.0,3529.0,-1.0,8.6,5.09,0.06,-0.65,-0.17,1.0,u
915.0,2981.0,929.0,3088.0,4095.0,4095.0,3234.0,3521.0,-0.32,9.08,4.95,-0.0,-0.74,-0.24,1.0,u
1103.0,2977.0,919.0,3086.0,4095.0,4095.0,3246.0,3525.0,-0.68,8.68,4.97,0.13,-1.33,-0.26,1.0,u
899.0,2978.0,919.0,3082.0,4095.0,4095.0,3248.0,3516.0,0.24,9.15,5.04,0.18,-0.84,-0.33,1.0,u
907.0,2977.0,918.0,3087.0,4095.0,4095.0,3246.0,3518.0,0.28,9.0,5.03,0.04,-0.81,-0.3,1.0,u
912.0,2995.0,923.0,3088.0,4095.0,4095.0,3248.0,3514.0,-0.05,8.85,4.9,0.11,-1.06,-0.34,1.0,u
915.0,2982.0,919.0,3089.0,4095.0,4095.0,3244.0,3518.0,-0.12,8.86,4.82,0.16,-0.82,-0.26,1.0,u
917.0,2989.0,920.0,3094.0,4095.0,4095.0,3253.0,3519.0,0.05,9.15,4.49,0.06,-0.86,-0.3,1.0,u
1373.0,2987.0,919.0,3093.0,4095.0,4095.0,3243.0,3509.0,0.34,8.98,4.42,-0.01,-0.95,-0.28,1.0,u
1535.0,2987.0,919.0,3096.0,4095.0,4095.0,3249.0,3504.0,0.43,9.02,4.46,-0.0,-0.67,-0.24,1.0,u
1520.0,2982.0,923.0,3095.0,4095.0,4095.0,3259.0,3510.0,0.08,8.98,4.56,-0.07,-0.46,-0.13,1.0,u
1535.0,2991.0,923.0,3107.0,4095.0,4095.0,3242.0,3493.0,0.38,8.97,4.56,-0.07,-0.56,-0.22,1.0,u
1590.0,2983.0,912.0,3094.0,4095.0,4095.0,3231.0,3472.0,0.28,8.93,4.76,0.01,-0.35,-0.18,1.0,u
1584.0,2992.0,918.0,3104.0,4095.0,4095.0,3236.0,3421.0,0.55,8.98,4.85,-0.01,-0.4,-0.2,1.0,u
1611.0,2973.0,912.0,3116.0,4095.0,4095.0,3221.0,3335.0,0.5,9.19,4.54,-0.02,-0.39,-0.2,1.0,u
1598.0,2992.0,917.0,3119.0,4095.0,4095.0,3230.0,3203.0,0.47,9.01,4.53,-0.11,-0.49,-0.18,1.0,u
1588.0,2986.0,906.0,3126.0,4095.0,4095.0,3242.0,3203.0,0.57,9.11,4.77,-0.1,-0.32,-0.12,1.0,u
1600.0,2990.0,909.0,3122.0,4095.0,4095.0,3238.0,3293.0,0.62,8.97,4.89,-0.05,-0.11,-0.09,1.0,u
1059.0,2984.0,912.0,3127.0,4095.0,4095.0,3235.0,3223.0,0.75,8.95,5.04,-0.07,-0.26,-0.09,1.0,u
1063.0,2992.0,911.0,3129.0,4095.0,4095.0,3243.0,3264.0,1.02,9.16,4.64,-0.09,0.12,-0.08,1.0,u
1072.0,2987.0,914.0,3131.0,4095.0,4095.0,3241.0,3267.0,0.25,9.02,4.64,-0.02,-0.19,-0.15,1.0,u
1087.0,2978.0,920.0,3131.0,4095.0,4095.0,3235.0,3301.0,0.56,8.97,4.57,-0.17,-0.11,-0.14,1.0,u
944.0,2987.0,918.0,3136.0,4095.0,4095.0,3248.0,3318.0,0.52,8.83,4.92,-0.05,-0.2,-0.17,1.0,u
944.0,2990.0,912.0,3141.0,4095.0,4095.0,3245.0,3293.0,0.35,8.88,4.81,-0.03,-0.08,-0.12,1.0,u
935.0,2989.0,911.0,3152.0,4095.0,4095.0,3239.0,3274.0,0.43,8.99,4.73,-0.02,-0.18,-0.1,1.0,u
934.0,2986.0,913.0,3155.0,4095.0,4095.0,3243.0,3305.0,0.52,9.05,4.52,-0.09,-0.06,-0.09,1.0,u
931.0,2992.0,912.0,3152.0,4095.0,4095.0,3243.0,3313.0,0.6,8.98,4.72,-0.06,-0.16,-0.14,1.0,u
924.0,2991.0,912.0,3158.0,4095.0,4095.0,3243.0,3312.0,0.47,9.01,4.66,-0.08,-0.03,-0.11,1.0,u
913.0,2993.0,902.0,3163.0,4095.0,4095.0,3248.0,3243.0,0.52,9.04,4.73,-0.04,-0.05,-0.13,1.0,u
947.0,2991.0,905.0,3162.0,4095.0,4095.0,3243.0,3262.0,0.35,8.93,4.73,-0.06,0.0,-0.09,1.0,u
953.0,2991.0,912.0,3162.0,4095.0,4095.0,3233.0,3268.0,0.2,8.93,4.73,-0.02,-0.11,-0.09,1.0,u
951.0,2989.0,912.0,3165.0,4095.0,4095.0,3245.0,3309.0,0.45,9.0,4.66,-0.02,-0.11,-0.1,1.0,u
947.0,2992.0,908.0,3169.0,4095.0,4095.0,3245.0,3251.0,0.55,8.97,4.76,-0.05,-0.07,-0.13,1.0,u
938.0,2979.0,911.0,3162.0,4095.0,4095.0,3243.0,3216.0,0.3,8.9,4.67,-0.06,0.0,-0.11,1.0,u
962.0,2982.0,910.0,3167.0,4095.0,4095.0,3242.0,3234.0,0.12,8.95,4.64,-0.11,-0.07,-0.08,1.0,u
954.0,2986.0,913.0,3170.0,4095.0,4095.0,3245.0,3262.0,0.23,9.05,4.62,-0.08,-0.03,-0.08,1.0,u
935.0,2988.0,913.0,3164.0,4095.0,4095.0,3248.0,3233.0,0.53,8.95,4.82,-0.06,-0.14,-0.11,1.0,u
923.0,2985.0,912.0,3178.0,4095.0,4095.0,3248.0,3269.0,0.53,8.94,4.79,-0.05,-0.04,-0.15,1.0,u
902.0,2988.0,911.0,3165.0,4095.0,4095.0,3243.0,3239.0,0.55,8.6,4.68,0.02,-0.21,-0.27,1.0,u
913.0,2993.0,907.0,3170.0,4095.0,4095.0,3248.0,3287.0,0.48,8.87,4.7,-0.01,-0.22,-0.25,1.0,u
915.0,2992.0,912.0,3170.0,4095.0,4095.0,3248.0,3205.0,0.3,9.19,4.71,-0.05,-0.29,-0.33,1.0,u
918.0,2987.0,911.0,3165.0,4095.0,4095.0,3248.0,3316.0,-0.25,9.2,4.74,-0.08,-0.27,-0.32,1.0,u
922.0,2979.0,907.0,3168.0,4095.0,4095.0,3247.0,3248.0,-0.67,9.11,4.81,0.13,-0.21,-0.27,1.0,u
921.0,3001.0,907.0,3163.0,4095.0,4095.0,3253.0,3263.0,-0.64,9.13,4.55,-0.09,-0.01,-0.1,1.0,u
924.0,3001.0,911.0,3170.0,4095.0,4095.0,3254.0,3169.0,-0.32,9.12,4.49,0.04,-0.05,-0.05,1.0,u
927.0,2992.0,906.0,3167.0,4095.0,4095.0,3247.0,3351.0,0.02,9.04,4.32,0.04,0.2,-0.01,1.0,u
936.0,2984.0,912.0,3169.0,4095.0,4095.0,3249.0,3365.0,-0.21,9.05,4.08,-0.01,0.11,-0.04,1.0,u
949.0,2997.0,909.0,3163.0,4095.0,4095.0,3247.0,3360.0,-0.14,9.23,4.14,-0.06,0.18,-0.03,1.0,u
924.0,2975.0,910.0,3174.0,4095.0,4095.0,3253.0,3340.0,-0.12,9.03,4.56,0.04,0.11,-0.09,1.0,u
944.0,2979.0,912.0,3171.0,4095.0,4095.0,3250.0,3319.0,-0.56,9.45,4.28,-0.18,0.21,0.03,1.0,u
910.0,3031.0,907.0,3172.0,4095.0,4095.0,3249.0,3312.0,-0.3,9.18,4.64,-0.12,-0.06,-0.03,1.0,u
911.0,2989.0,915.0,3183.0,4095.0,4095.0,3250.0,3353.0,-0.01,9.1,5.08,-0.17,0.16,0.07,1.0,u
906.0,2994.0,912.0,3179.0,4095.0,4095.0,3247.0,3361.0,-0.14,9.04,5.2,0.01,0.12,-0.03,1.0,u
912.0,2983.0,912.0,3181.0,4095.0,4095.0,3245.0,3342.0,-0.15,8.9,4.79,0.2,0.16,-0.05,1.0,u
922.0,2986.0,912.0,3184.0,4095.0,4095.0,3254.0,3347.0,-0.62,9.05,4.07,0.09,0.17,0.07,1.0,u
2965.0,2981.0,912.0,3183.0,4095.0,4095.0,3252.0,3344.0,-0.16,9.13,3.95,0.1,-0.1,0.04,1.0,u
3856.0,2983.0,907.0,3175.0,4095.0,4095.0,3231.0,3376.0,0.15,9.17,4.2,0.16,0.22,0.15,1.0,u
3949.0,2985.0,912.0,3183.0,4095.0,4095.0,3248.0,3376.0,-0.26,8.96,4.33,0.04,0.19,0.08,1.0,u
3936.0,2981.0,909.0,3178.0,4095.0,4095.0,3241.0,3379.0,-0.01,9.34,3.9,0.22,0.15,-0.13,1.0,u
3910.0,2992.0,905.0,3178.0,4095.0,4095.0,3248.0,3405.0,-0.43,9.18,3.62,0.1,0.2,-0.11,1.0,u
3910.0,2988.0,909.0,3178.0,4095.0,4095.0,3255.0,3385.0,-0.43,9.73,3.37,0.22,0.11,-0.15,1.0,u
3910.0,2988.0,903.0,3179.0,4095.0,4095.0,3245.0,3394.0,-0.57,9.53,3.52,0.1,0.1,-0.08,1.0,u
3888.0,2983.0,903.0,3175.0,4095.0,4095.0,3251.0,3376.0,-0.36,9.67,3.47,0.21,0.11,-0.09,1.0,u
3861.0,2981.0,913.0,3179.0,4095.0,4095.0,3253.0,3379.0,-0.41,9.41,3.34,0.2,0.22,-0.1,1.0,u
3873.0,2981.0,903.0,3173.0,4095.0,4095.0,3249.0,3347.0,-0.38,9.56,3.22,0.31,0.25,-0.24,1.0,u
3863.0,2991.0,906.0,3179.0,4095.0,4095.0,3255.0,3370.0,-0.95,9.57,2.78,0.25,0.37,-0.2,1.0,u
3781.0,2987.0,902.0,3181.0,4095.0,4095.0,3260.0,3360.0,-1.0,9.42,2.62,0.25,0.27,-0.19,1.0,u
3792.0,2980.0,909.0,3175.0,4095.0,4095.0,3249.0,3312.0,-0.74,9.51,2.66,0.26,0.3,-0.22,1.0,u
3775.0,2983.0,912.0,3165.0,4095.0,4095.0,3248.0,3276.0,-0.94,9.76,2.39,0.08,0.24,-0.16,1.0,u
3761.0,2980.0,912.0,3173.0,4095.0,4095.0,3249.0,3271.0,-0.92,9.68,2.67,0.19,0.16,-0.24,1.0,u
3705.0,2991.0,911.0,3171.0,4095.0,4095.0,3257.0,3289.0,-1.36,9.8,2.47,0.09,0.26,-0.16,1.0,u
3680.0,2977.0,911.0,3171.0,4095.0,4095.0,3255.0,3276.0,-1.3,9.43,2.58,0.25,0.15,-0.17,1.0,u
3663.0,2977.0,912.0,3165.0,4095.0,4095.0,3257.0,3243.0,-1.55,9.64,1.99,0.33,0.37,-0.24,1.0,u
3108.0,2981.0,909.0,3152.0,4095.0,4095.0,3248.0,3250.0,-2.55,9.65,1.44,0.35,1.05,-0.07,1.0,u
2901.0,2979.0,899.0,3152.0,4095.0,4095.0,3264.0,3293.0,-1.63,10.0,0.99,-0.2,0.31,0.18,1.0,u
3017.0,2983.0,895.0,3152.0,4095.0,4095.0,3265.0,3334.0,-1.02,9.32,1.58,0.0,0.04,0.12,1.0,u
3006.0,2978.0,911.0,3155.0,4095.0,4095.0,3263.0,3323.0,-0.7,10.33,1.43,-0.13,0.2,-0.02,1.0,u
3009.0,2979.0,908.0,3167.0,4095.0,4095.0,3270.0,3263.0,-1.5,9.5,1.85,-0.01,0.18,-0.09,1.0,u
2880.0,2973.0,910.0,3163.0,4095.0,4095.0,3257.0,3214.0,-1.91,9.02,2.34,0.58,-0.05,-0.21,1.0,u
2465.0,2971.0,903.0,3133.0,4095.0,4095.0,3249.0,3224.0,-1.73,9.51,1.29,0.53,0.24,-0.16,1.0,u
2118.0,2974.0,896.0,3127.0,4095.0,4095.0,3264.0,3338.0,-1.82,10.5,0.2,-0.2,0.57,0.04,1.0,u
2352.0,2977.0,907.0,3147.0,4095.0,4095.0,3277.0,3346.0,-1.72,9.32,0.79,0.15,0.05,0.03,1.0,u
3963.0,2987.0,911.0,3138.0,4095.0,4095.0,3279.0,3449.0,-1.07,10.43,0.32,-0.19,0.04,0.05,1.0,u
3947.0,2981.0,906.0,3146.0,4095.0,4095.0,3283.0,3460.0,-1.54,9.45,1.03,-0.19,0.14,-0.0,1.0,u
3919.0,2981.0,901.0,3152.0,4095.0,4095.0,3280.0,3457.0,-1.56,10.31,0.81,0.03,-0.1,-0.11,1.0,u
3898.0,2973.0,911.0,3143.0,4095.0,4095.0,3279.0,3462.0,-1.61,9.69,0.81,-0.14,0.01,-0.07,1.0,u
3885.0,2975.0,902.0,3143.0,4095.0,4095.0,3275.0,3453.0,-1.9,9.62,1.07,0.33,-0.04,-0.07,1.0,u
4095.0,2974.0,897.0,3132.0,4095.0,4095.0,3279.0,3456.0,-1.83,10.05,0.36,-0.19,0.09,-0.01,1.0,u
4095.0,2966.0,901.0,3131.0,4095.0,4095.0,3277.0,3471.0,-1.73,10.02,0.32,-0.08,-0.04,-0.05,1.0,u
4095.0,2987.0,895.0,3139.0,4095.0,4095.0,3283.0,3461.0,-1.73,10.11,0.22,-0.16,-0.0,-0.05,1.0,u
4095.0,2983.0,901.0,3131.0,4095.0,4095.0,3280.0,3459.0,-1.86,9.65,0.51,-0.11,0.04,-0.03,1.0,u
4095.0,2971.0,906.0,3136.0,4095.0,4095.0,3282.0,3483.0,-2.09,10.01,0.14,-0.43,0.11,0.07,1.0,u
4095.0,2977.0,897.0,3147.0,4095.0,4095.0,3286.0,3494.0,-1.65,9.68,0.6,-0.57,-0.09,0.08,1.0,u
4095.0,2977.0,896.0,3142.0,4095.0,4095.0,3296.0,3515.0,-1.76,9.5,0.99,-0.51,-0.07,0.14,1.0,u
4095.0,2979.0,907.0,3143.0,4095.0,4095.0,3291.0,3519.0,-1.44,10.07,1.17,-0.58,0.02,0.13,1.0,u
4095.0,2991.0,896.0,3163.0,4095.0,4095.0,3290.0,3523.0,-1.38,9.57,1.79,-0.59,0.03,0.17,1.0,u
4095.0,2978.0,905.0,3154.0,4095.0,4095.0,3281.0,3531.0,-1.5,9.43,2.18,-0.5,0.01,0.08,1.0,u
4095.0,2985.0,901.0,3155.0,4095.0,4095.0,3280.0,3534.0,-1.06,9.67,2.57,-0.41,0.02,0.07,1.0,u
4095.0,2975.0,903.0,3163.0,4095.0,4095.0,3287.0,3527.0,-0.84,9.82,2.74,-0.4,-0.03,0.04,1.0,u
4095.0,2987.0,898.0,3155.0,4095.0,4095.0,3296.0,3535.0,-1.07,9.68,2.55,-0.19,-0.0,-0.05,1.0,u
4095.0,2977.0,901.0,3158.0,4095.0,4095.0,3286.0,3525.0,-1.21,9.73,2.83,-0.31,0.15,-0.03,1.0,u
4095.0,2979.0,900.0,3153.0,4095.0,4095.0,3299.0,3530.0,-1.79,9.5,2.51,-0.44,0.11,0.09,1.0,u
919.0,2979.0,898.0,3160.0,4095.0,4095.0,3280.0,3537.0,-1.04,9.56,2.86,-0.4,0.01,0.08,1.0,u
887.0,2977.0,901.0,3158.0,4095.0,4095.0,3302.0,3536.0,-0.81,9.38,3.24,-0.43,0.06,0.11,1.0,u
880.0,2973.0,894.0,3161.0,4095.0,4095.0,3281.0,3529.0,-0.76,9.41,3.73,-0.75,-0.1,0.24,1.0,u
893.0,2981.0,893.0,3175.0,4095.0,4095.0,3269.0,3526.0,-0.77,9.22,3.99,-0.41,0.21,0.03,1.0,u
904.0,2979.0,897.0,3203.0,4095.0,4095.0,3270.0,3520.0,-0.81,9.31,4.13,-0.3,0.15,-0.01,1.0,u
956.0,2986.0,900.0,3209.0,4095.0,4095.0,3274.0,3530.0,-0.84,9.17,4.04,-0.3,0.38,-0.05,1.0,u
1249.0,2987.0,896.0,3209.0,4095.0,4095.0,3267.0,3521.0,-1.09,9.06,4.03,-0.21,0.17,0.01,1.0,u
1381.0,2978.0,1501.0,3200.0,4095.0,4095.0,3250.0,3296.0,-0.97,9.29,3.97,-0.24,0.29,-0.04,1.0,u
1239.0,2992.0,3375.0,3200.0,4095.0,4095.0,3251.0,3085.0,-1.25,9.38,4.3,-0.33,0.15,0.06,1.0,u
1449.0,2993.0,3793.0,3200.0,4095.0,4095.0,3263.0,3229.0,-1.02,8.84,4.72,-0.12,0.03,-0.03,1.0,u
1370.0,2987.0,3797.0,3210.0,4095.0,4095.0,3270.0,3245.0,-0.91,9.45,4.4,-0.26,0.21,0.03,1.0,u
1355.0,2988.0,3792.0,3195.0,4095.0,4095.0,3264.0,3235.0,-1.15,9.29,4.23,-0.03,0.19,-0.03,1.0,u
