hall_1,hall_2,hall_3,flex_t,flex_i,flex_m,flex_r,flex_p,accel_x,accel_y,accel_z,gyro_x,gyro_y,gyro_z,hand,sign
2975.0,2991.0,2943.0,3457.0,4095.0,4095.0,3009.0,2558.0,0.33,9.48,7.27,0.06,-0.02,-0.15,0.0,v
2986.0,2992.0,2959.0,3470.0,4095.0,4095.0,3017.0,2559.0,0.31,9.44,7.15,0.04,0.02,-0.15,0.0,v
2987.0,2993.0,2947.0,3455.0,4095.0,4095.0,3003.0,2559.0,0.39,9.48,7.24,-0.03,0.08,-0.15,0.0,v
2981.0,2995.0,2955.0,3456.0,4095.0,4095.0,3013.0,2558.0,0.28,9.31,7.45,0.02,-0.01,-0.2,0.0,v
2992.0,3003.0,2959.0,3466.0,4095.0,4095.0,3023.0,2559.0,0.01,9.45,7.3,0.03,-0.1,-0.16,0.0,v
2992.0,2992.0,2938.0,3460.0,4095.0,4095.0,3015.0,2559.0,0.37,9.37,7.35,0.0,-0.05,-0.1,0.0,v
2992.0,2999.0,2944.0,3458.0,4095.0,4095.0,3024.0,2559.0,0.37,9.41,7.31,0.03,-0.04,-0.05,0.0,v
2975.0,2994.0,2947.0,3465.0,4095.0,4095.0,3009.0,2559.0,0.45,9.34,7.61,0.05,0.06,-0.01,0.0,v
2991.0,2993.0,2958.0,3472.0,4095.0,4095.0,3023.0,2559.0,0.62,9.55,7.09,0.08,0.05,-0.02,0.0,v
2978.0,2986.0,2945.0,3470.0,4095.0,4095.0,3009.0,2558.0,0.91,9.53,6.9,0.04,-0.0,-0.08,0.0,v
2992.0,2999.0,2944.0,3470.0,4095.0,4095.0,3021.0,2559.0,0.68,9.36,7.37,-0.03,0.0,-0.13,0.0,v
2975.0,3002.0,2944.0,3462.0,4095.0,4095.0,3011.0,2559.0,0.95,9.53,6.85,0.09,-0.07,-0.08,0.0,v
2987.0,2989.0,2960.0,3475.0,4095.0,4095.0,3019.0,2559.0,0.74,9.56,7.05,0.0,-0.12,-0.16,0.0,v
2979.0,2991.0,2942.0,3470.0,4095.0,4095.0,3008.0,2559.0,0.77,9.46,7.07,0.02,0.03,-0.1,0.0,v
2988.0,3004.0,2950.0,3486.0,4095.0,4095.0,3011.0,2559.0,0.83,9.52,7.02,0.02,0.03,-0.05,0.0,v
2991.0,3004.0,2943.0,3476.0,4095.0,4095.0,3018.0,2559.0,1.01,9.36,7.33,0.06,0.08,-0.06,0.0,v
2988.0,2990.0,2942.0,3471.0,4095.0,4095.0,3009.0,2559.0,1.21,9.52,6.97,0.08,0.01,-0.09,0.0,v
2978.0,3007.0,2962.0,3472.0,4095.0,4095.0,3012.0,2559.0,1.04,9.62,6.5,-0.0,0.06,-0.14,0.0,v
2977.0,2992.0,2950.0,3479.0,4095.0,4095.0,3002.0,2559.0,1.2,9.45,7.08,-0.04,-0.02,-0.13,0.0,v
2988.0,3004.0,2958.0,3489.0,4095.0,4095.0,3009.0,2559.0,1.1,9.5,7.06,-0.04,0.01,-0.12,0.0,v
2960.0,2981.0,2943.0,3472.0,4095.0,4095.0,3005.0,2559.0,0.9,9.29,7.45,-0.01,0.02,-0.16,0.0,v
2973.0,2995.0,2958.0,3487.0,4095.0,4095.0,3010.0,2586.0,0.93,9.27,7.65,-0.02,-0.1,-0.19,0.0,v
2962.0,2994.0,2960.0,3483.0,4095.0,4095.0,2994.0,2559.0,0.75,9.38,7.54,0.04,-0.07,-0.12,0.0,v
2983.0,3007.0,2959.0,3490.0,4095.0,4095.0,3007.0,2559.0,0.77,9.48,7.39,0.06,-0.02,-0.09,0.0,v
2961.0,2991.0,2949.0,3479.0,4095.0,4095.0,2999.0,2581.0,1.15,9.22,7.37,0.02,0.2,-0.1,0.0,v
2965.0,3004.0,2955.0,3475.0,4095.0,4095.0,3011.0,2591.0,0.81,9.43,7.51,0.02,0.05,-0.15,0.0,v
2965.0,2987.0,2943.0,3472.0,4095.0,4095.0,3007.0,2579.0,1.12,9.45,7.24,0.07,-0.04,-0.13,0.0,v
2970.0,2994.0,2958.0,3489.0,4095.0,4095.0,3008.0,2583.0,1.11,9.33,7.25,0.01,-0.08,-0.15,0.0,v
2960.0,2987.0,2938.0,3483.0,4095.0,4095.0,3008.0,2579.0,0.9,9.36,7.51,0.01,-0.06,-0.16,0.0,v
2962.0,3008.0,2950.0,3504.0,4095.0,4095.0,3003.0,2559.0,0.85,9.53,7.19,0.04,0.05,-0.15,0.0,v
2975.0,3008.0,2955.0,3495.0,4095.0,4095.0,3010.0,2586.0,1.34,9.31,7.26,-0.01,-0.0,-0.15,0.0,v
2960.0,2993.0,2943.0,3479.0,4095.0,4095.0,3007.0,2587.0,0.9,9.39,7.68,0.05,-0.06,-0.22,0.0,v
2960.0,2992.0,2947.0,3485.0,4095.0,4095.0,3013.0,2592.0,0.76,9.46,7.21,0.08,-0.05,-0.16,0.0,v
2955.0,2992.0,2955.0,3499.0,4095.0,4095.0,3010.0,2584.0,1.04,9.24,7.98,0.11,0.32,-0.05,0.0,v
2970.0,3002.0,2944.0,3494.0,4095.0,4095.0,3011.0,2590.0,1.01,9.45,6.94,0.25,-0.01,-0.15,0.0,v
2959.0,2999.0,2955.0,3489.0,4095.0,4095.0,3006.0,2587.0,1.0,9.5,6.73,0.13,-0.03,-0.18,0.0,v
2953.0,2999.0,2961.0,3499.0,4095.0,4095.0,3008.0,2591.0,0.81,9.61,6.73,0.1,0.04,-0.16,0.0,v
2951.0,2994.0,2959.0,3491.0,4095.0,4095.0,3007.0,2590.0,0.91,9.6,6.13,-0.03,0.02,-0.16,0.0,v
2959.0,2995.0,2959.0,3494.0,4095.0,4095.0,3010.0,2596.0,0.75,9.54,7.59,-0.06,0.02,-0.19,0.0,v
2962.0,2999.0,2943.0,3490.0,4095.0,4095.0,3009.0,2589.0,0.85,9.7,6.93,0.09,-0.09,-0.13,0.0,v
2944.0,2995.0,2940.0,3495.0,4095.0,4095.0,3003.0,2583.0,0.12,9.55,6.47,-0.02,-0.05,-0.26,0.0,v
2963.0,2992.0,2959.0,3502.0,4095.0,4095.0,3018.0,2597.0,-0.13,9.58,6.88,-0.05,0.0,-0.25,0.0,v
2949.0,2994.0,2957.0,3495.0,4095.0,4095.0,3001.0,2591.0,-0.21,9.47,7.23,0.05,0.02,-0.14,0.0,v
2948.0,3005.0,2950.0,3503.0,4095.0,4095.0,3009.0,2604.0,0.17,9.67,6.66,0.08,-0.01,-0.09,0.0,v
2941.0,2992.0,2943.0,3494.0,4095.0,4095.0,3007.0,2596.0,0.44,9.61,6.56,0.07,-0.07,-0.17,0.0,v
2943.0,2991.0,2957.0,3489.0,4095.0,4095.0,3006.0,2593.0,0.13,9.58,6.73,0.04,-0.11,-0.23,0.0,v
2951.0,2998.0,2964.0,3506.0,4095.0,4095.0,3008.0,2603.0,-0.0,9.58,6.73,0.04,-0.15,-0.33,0.0,v
2954.0,2991.0,2944.0,3490.0,4095.0,4095.0,3013.0,2596.0,-0.26,9.6,6.4,0.01,-0.08,-0.31,0.0,v
2955.0,3006.0,2960.0,3504.0,4095.0,4095.0,3007.0,2603.0,-0.18,9.69,6.58,0.03,-0.07,-0.24,0.0,v
2960.0,2991.0,2954.0,3489.0,4095.0,4095.0,3005.0,2593.0,-0.3,9.49,6.88,0.05,-0.13,-0.3,0.0,v
2958.0,2999.0,2950.0,3499.0,4095.0,4095.0,3012.0,2594.0,-0.4,9.74,5.89,0.18,-0.25,-0.38,0.0,v
2973.0,2990.0,2949.0,3481.0,4095.0,4095.0,2995.0,2586.0,-1.6,9.0,7.81,0.06,-0.04,-0.31,0.0,v
2997.0,3003.0,2949.0,3479.0,4095.0,4095.0,2985.0,2559.0,-0.98,9.59,6.08,0.06,0.16,-0.13,0.0,v
2978.0,2992.0,2944.0,3477.0,4095.0,4095.0,2979.0,2559.0,-0.52,9.52,6.25,-0.07,0.09,-0.08,0.0,v
2987.0,2999.0,2947.0,3492.0,4095.0,4095.0,2989.0,2559.0,-0.59,9.65,6.58,-0.08,-0.07,-0.18,0.0,v
2975.0,2992.0,2947.0,3486.0,4095.0,4095.0,2992.0,2585.0,-0.69,9.56,6.89,-0.02,-0.01,-0.09,0.0,v
2971.0,3002.0,2945.0,3491.0,4095.0,4095.0,2993.0,2583.0,-0.31,9.58,6.63,-0.02,0.02,-0.14,0.0,v
2990.0,2996.0,2955.0,3490.0,4095.0,4095.0,3005.0,2591.0,-0.5,9.57,6.78,0.02,-0.06,-0.23,0.0,v
2968.0,3002.0,2945.0,3489.0,4095.0,4095.0,2994.0,2586.0,-0.71,9.56,6.66,0.03,-0.19,-0.26,0.0,v
2974.0,2995.0,2959.0,3494.0,4095.0,4095.0,3001.0,2589.0,-0.96,9.51,6.65,-0.01,-0.14,-0.26,0.0,v
2960.0,2992.0,2960.0,3495.0,4095.0,4095.0,3006.0,2586.0,-0.74,9.54,6.85,-0.04,-0.03,-0.17,0.0,v
2965.0,2995.0,2947.0,3485.0,4095.0,4095.0,2991.0,2587.0,-0.88,9.48,7.05,0.01,-0.13,-0.19,0.0,v
2969.0,2997.0,2960.0,3489.0,4095.0,4095.0,3007.0,2599.0,-1.11,9.47,7.11,0.03,-0.06,-0.2,0.0,v
2964.0,2998.0,2950.0,3488.0,4095.0,4095.0,2992.0,2587.0,-0.99,9.52,6.77,0.02,-0.04,-0.19,0.0,v
2978.0,3010.0,2957.0,3485.0,4095.0,4095.0,3009.0,2602.0,-0.97,9.45,6.92,0.0,-0.05,-0.19,0.0,v
2961.0,2998.0,2955.0,3487.0,4095.0,4095.0,3001.0,2596.0,-1.04,9.39,6.97,0.0,-0.07,-0.22,0.0,v
2964.0,2990.0,2950.0,3504.0,4095.0,4095.0,2997.0,2597.0,-1.08,9.45,7.0,-0.03,-0.09,-0.24,0.0,v
2967.0,2985.0,2954.0,3489.0,4095.0,4095.0,2994.0,2592.0,-1.18,9.37,7.05,-0.0,-0.14,-0.23,0.0,v
2963.0,2991.0,2951.0,3490.0,4095.0,4095.0,3006.0,2602.0,-1.29,9.35,7.2,-0.01,-0.04,-0.19,0.0,v
2957.0,2999.0,2949.0,3489.0,4095.0,4095.0,2994.0,2597.0,-1.26,9.32,7.53,0.06,-0.05,-0.15,0.0,v
2960.0,2997.0,2947.0,3491.0,4095.0,4095.0,2999.0,2602.0,-1.1,9.42,6.98,0.02,0.0,-0.15,0.0,v
2949.0,2992.0,2951.0,3497.0,4095.0,4095.0,2992.0,2593.0,-1.25,9.37,7.09,0.01,-0.0,-0.14,0.0,v
2961.0,3007.0,2947.0,3489.0,4095.0,4095.0,2992.0,2593.0,-1.15,9.35,7.18,-0.03,0.02,-0.13,0.0,v
2957.0,3002.0,2958.0,3497.0,4095.0,4095.0,2993.0,2599.0,-1.11,9.36,7.26,0.01,0.03,-0.14,0.0,v
2953.0,2992.0,2941.0,3490.0,4095.0,4095.0,2992.0,2598.0,-1.11,9.33,7.1,0.01,-0.02,-0.14,0.0,v
2959.0,2991.0,2949.0,3501.0,4095.0,4095.0,3001.0,2601.0,-1.14,9.35,7.18,-0.01,-0.0,-0.13,0.0,v
2960.0,2991.0,2953.0,3499.0,4095.0,4095.0,2992.0,2597.0,-1.13,9.27,7.36,-0.03,-0.04,-0.15,0.0,v
2977.0,3001.0,2946.0,3495.0,4095.0,4095.0,3007.0,2608.0,-1.19,9.29,7.18,-0.03,0.09,-0.12,0.0,v
2967.0,2992.0,2954.0,3493.0,4095.0,4095.0,2990.0,2601.0,-1.02,9.34,7.33,-0.07,0.02,-0.09,0.0,v
2960.0,3005.0,2957.0,3499.0,4095.0,4095.0,3005.0,2604.0,-1.08,9.34,7.43,-0.05,0.03,-0.09,0.0,v
2958.0,2993.0,2946.0,3498.0,4095.0,4095.0,2992.0,2608.0,-0.8,9.21,7.45,0.03,-0.09,-0.08,0.0,v
2960.0,2986.0,2951.0,3478.0,4095.0,4095.0,2992.0,2601.0,-0.94,9.29,7.53,-0.01,0.25,-0.06,0.0,v
2959.0,3001.0,2960.0,3490.0,4095.0,4095.0,2999.0,2609.0,-0.66,9.4,7.27,-0.02,0.18,-0.03,0.0,v
2958.0,3005.0,2947.0,3478.0,4095.0,4095.0,2993.0,2607.0,-0.64,9.33,7.42,-0.01,0.12,0.03,0.0,v
2961.0,3003.0,2949.0,3493.0,4095.0,4095.0,2995.0,2613.0,-0.29,9.36,7.53,-0.01,0.05,-0.05,0.0,v
2960.0,2992.0,2948.0,3487.0,4095.0,4095.0,2991.0,2606.0,-0.22,9.41,7.45,0.04,0.03,-0.01,0.0,v
2960.0,2998.0,2953.0,3503.0,4095.0,4095.0,2994.0,2608.0,-0.5,9.5,7.38,0.0,0.12,-0.1,0.0,v
2961.0,2992.0,2942.0,3485.0,4095.0,4095.0,2981.0,2604.0,-0.3,9.31,7.53,0.04,0.12,-0.08,0.0,v
2955.0,2992.0,2960.0,3497.0,4095.0,4095.0,2992.0,2607.0,-0.34,9.5,7.23,0.05,0.16,-0.02,0.0,v
2955.0,2998.0,2949.0,3484.0,4095.0,4095.0,2986.0,2597.0,-0.06,9.51,7.13,0.06,0.06,-0.07,0.0,v
2951.0,3003.0,2945.0,3484.0,4095.0,4095.0,2987.0,2608.0,-0.25,9.52,7.21,0.03,0.03,-0.01,0.0,v
2953.0,3004.0,2950.0,3488.0,4095.0,4095.0,2982.0,2606.0,-0.03,9.5,7.41,0.08,0.07,-0.05,0.0,v
2943.0,2985.0,2941.0,3485.0,4095.0,4095.0,2983.0,2603.0,0.12,9.52,7.11,0.09,0.01,-0.05,0.0,v
2950.0,3010.0,2964.0,3504.0,4095.0,4095.0,2985.0,2607.0,-0.05,9.57,6.89,0.02,0.09,-0.06,0.0,v
2947.0,2997.0,2945.0,3491.0,4095.0,4095.0,2988.0,2602.0,0.13,9.55,7.18,-0.0,0.08,-0.1,0.0,v
2945.0,2993.0,2957.0,3509.0,4095.0,4095.0,2989.0,2603.0,0.32,9.34,7.08,0.03,0.04,-0.11,0.0,v
2940.0,2993.0,2942.0,3501.0,4095.0,4095.0,2981.0,2598.0,0.21,9.54,7.11,0.04,0.05,-0.1,0.0,v
2946.0,2999.0,2953.0,3504.0,4095.0,4095.0,2992.0,2603.0,0.21,9.47,7.06,0.05,0.1,-0.1,0.0,v
2952.0,2990.0,2944.0,3497.0,4095.0,4095.0,2982.0,2594.0,0.36,9.57,6.91,0.05,0.07,-0.09,0.0,v
2951.0,3007.0,2958.0,3504.0,4095.0,4095.0,2989.0,2603.0,0.53,9.6,6.77,0.04,0.02,-0.1,0.0,v
2956.0,3001.0,2950.0,3509.0,4095.0,4095.0,2993.0,2607.0,0.73,9.47,6.71,0.07,0.07,-0.14,0.0,v
2954.0,2993.0,2941.0,3497.0,4095.0,4095.0,2986.0,2605.0,0.14,9.56,6.81,0.08,0.06,-0.13,0.0,v
2960.0,2999.0,2954.0,3510.0,4095.0,4095.0,2987.0,2603.0,0.71,9.61,6.47,0.12,-0.06,-0.06,0.0,v
2955.0,2995.0,2955.0,3503.0,4095.0,4095.0,2992.0,2598.0,0.62,9.74,6.34,0.06,0.06,-0.08,0.0,v
2949.0,3006.0,2944.0,3504.0,4095.0,4095.0,2992.0,2599.0,0.9,9.65,6.41,0.01,0.09,-0.12,0.0,v
2946.0,2992.0,2953.0,3499.0,4095.0,4095.0,2986.0,2602.0,0.72,9.67,6.45,0.02,0.01,-0.16,0.0,v
2947.0,3005.0,2959.0,3510.0,4095.0,4095.0,2992.0,2608.0,0.57,9.65,6.63,0.03,0.04,-0.15,0.0,v
2941.0,2992.0,2953.0,3508.0,4095.0,4095.0,2986.0,2603.0,0.49,9.68,6.43,0.05,0.07,-0.13,0.0,v
2951.0,2999.0,2949.0,3517.0,4095.0,4095.0,2986.0,2602.0,0.76,9.67,6.29,0.02,0.04,-0.12,0.0,v
2945.0,2998.0,2947.0,3498.0,4095.0,4095.0,2991.0,2605.0,0.74,9.65,6.54,0.05,0.01,-0.13,0.0,v
2958.0,3006.0,2967.0,3515.0,4095.0,4095.0,2997.0,2607.0,0.78,9.61,6.53,0.13,-0.11,-0.17,0.0,v
2951.0,3001.0,2948.0,3509.0,4095.0,4095.0,2992.0,2605.0,0.65,9.69,6.14,0.1,0.01,-0.19,0.0,v
2954.0,3005.0,2944.0,3499.0,4095.0,4095.0,2987.0,2599.0,0.71,9.75,6.18,0.09,-0.07,-0.2,0.0,v
2965.0,2998.0,2959.0,3504.0,4095.0,4095.0,2992.0,2611.0,0.46,9.75,6.03,0.1,0.0,-0.18,0.0,v
2957.0,2991.0,2953.0,3504.0,4095.0,4095.0,2992.0,2618.0,0.46,9.75,5.76,0.05,-0.04,-0.18,0.0,v
2960.0,3008.0,2954.0,3504.0,4095.0,4095.0,3002.0,2615.0,0.58,9.7,5.96,-0.01,-0.03,-0.17,0.0,v
2954.0,2986.0,2955.0,3501.0,4095.0,4095.0,2992.0,2607.0,0.51,9.69,6.06,0.01,-0.09,-0.18,0.0,v
2957.0,2995.0,2957.0,3504.0,4095.0,4095.0,2994.0,2611.0,0.44,9.78,6.02,0.02,-0.01,-0.15,0.0,v
2951.0,2997.0,2951.0,3504.0,4095.0,4095.0,2994.0,2608.0,0.62,9.74,6.03,0.01,-0.06,-0.18,0.0,v
2967.0,3010.0,2953.0,3506.0,4095.0,4095.0,2992.0,2609.0,0.5,9.74,6.0,0.0,-0.03,-0.15,0.0,v
2958.0,3002.0,2958.0,3503.0,4095.0,4095.0,2992.0,2608.0,0.61,9.72,5.99,-0.0,-0.04,-0.18,0.0,v
2958.0,2995.0,2947.0,3515.0,4095.0,4095.0,2992.0,2613.0,0.48,9.71,6.13,-0.03,-0.03,-0.15,0.0,v
2962.0,3001.0,2960.0,3504.0,4095.0,4095.0,2992.0,2609.0,0.49,9.76,6.13,-0.04,-0.03,-0.16,0.0,v
2962.0,3005.0,2965.0,3511.0,4095.0,4095.0,2993.0,2618.0,0.49,9.7,6.16,-0.02,-0.02,-0.18,0.0,v
2962.0,2998.0,2955.0,3501.0,4095.0,4095.0,2992.0,2613.0,0.44,9.68,6.24,-0.05,-0.03,-0.17,0.0,v
2960.0,2995.0,2955.0,3504.0,4095.0,4095.0,3001.0,2615.0,0.47,9.72,6.34,-0.05,-0.08,-0.18,0.0,v
2948.0,2999.0,2948.0,3497.0,4095.0,4095.0,2990.0,2609.0,0.35,9.73,6.46,0.01,-0.07,-0.15,0.0,v
2953.0,2997.0,2962.0,3505.0,4095.0,4095.0,2993.0,2616.0,0.34,9.71,6.26,-0.02,-0.02,-0.15,0.0,v
2958.0,2986.0,2939.0,3489.0,4095.0,4095.0,2992.0,2608.0,0.47,9.65,6.41,-0.04,-0.01,-0.15,0.0,v
2950.0,2991.0,2953.0,3503.0,4095.0,4095.0,2998.0,2614.0,0.43,9.64,6.38,-0.04,-0.06,-0.17,0.0,v
2949.0,2985.0,2947.0,3498.0,4095.0,4095.0,2989.0,2608.0,0.44,9.63,6.43,-0.04,-0.06,-0.16,0.0,v
2947.0,3002.0,2947.0,3499.0,4095.0,4095.0,2998.0,2612.0,0.35,9.62,6.64,-0.03,-0.06,-0.17,0.0,v
2959.0,2992.0,2957.0,3504.0,4095.0,4095.0,3002.0,2619.0,0.4,9.58,6.59,-0.02,-0.03,-0.16,0.0,v
2953.0,2992.0,2943.0,3494.0,4095.0,4095.0,2994.0,2611.0,0.4,9.66,6.55,-0.02,0.01,-0.15,0.0,v
2965.0,2992.0,2965.0,3501.0,4095.0,4095.0,2992.0,2619.0,0.42,9.66,6.58,-0.03,-0.02,-0.15,0.0,v
2960.0,2995.0,2949.0,3494.0,4095.0,4095.0,2994.0,2609.0,0.41,9.61,6.6,-0.09,-0.09,-0.15,0.0,v
2957.0,2995.0,2947.0,3507.0,4095.0,4095.0,3001.0,2616.0,0.54,9.53,7.15,-0.06,-0.04,-0.17,0.0,v
2960.0,2989.0,2947.0,3501.0,4095.0,4095.0,2992.0,2608.0,0.4,9.51,6.9,0.04,-0.1,-0.21,0.0,v
2951.0,2995.0,2954.0,3503.0,4095.0,4095.0,2994.0,2617.0,0.28,9.55,6.82,-0.01,-0.03,-0.17,0.0,v
2949.0,2994.0,2953.0,3487.0,4095.0,4095.0,2992.0,2609.0,0.51,9.51,7.12,0.02,-0.03,-0.17,0.0,v
2966.0,3008.0,2960.0,3506.0,4095.0,4095.0,2997.0,2620.0,0.28,9.59,6.84,0.0,-0.03,-0.16,0.0,v
2975.0,2991.0,2947.0,3501.0,4095.0,4095.0,2992.0,2610.0,0.35,9.53,6.93,0.03,-0.05,-0.16,0.0,v
2977.0,2998.0,2950.0,3504.0,4095.0,4095.0,3001.0,2615.0,0.26,9.63,6.79,0.01,-0.08,-0.18,0.0,v
2960.0,2995.0,2943.0,3495.0,4095.0,4095.0,2995.0,2619.0,0.23,9.59,6.83,0.01,-0.09,-0.15,0.0,v
2982.0,3002.0,2947.0,3498.0,4095.0,4095.0,3005.0,2621.0,0.25,9.55,6.98,0.03,-0.03,-0.15,0.0,v
2974.0,3001.0,2949.0,3499.0,4095.0,4095.0,2995.0,2621.0,0.36,9.52,6.77,0.04,-0.12,-0.17,0.0,v
2979.0,2998.0,2955.0,3509.0,4095.0,4095.0,2997.0,2617.0,0.23,9.52,6.83,-0.0,0.02,-0.15,0.0,v
2962.0,2993.0,2943.0,3490.0,4095.0,4095.0,2995.0,2615.0,0.22,9.55,6.87,0.02,0.01,-0.15,0.0,v
2966.0,2997.0,2944.0,3495.0,4095.0,4095.0,2995.0,2611.0,0.19,9.58,6.74,0.0,0.02,-0.15,0.0,v
2971.0,2991.0,2968.0,3513.0,4095.0,4095.0,2993.0,2617.0,0.32,9.53,6.96,-0.01,0.03,-0.14,0.0,v
2965.0,2992.0,2951.0,3495.0,4095.0,4095.0,2993.0,2617.0,0.36,9.56,6.87,0.01,0.01,-0.15,0.0,v
2971.0,3001.0,2955.0,3504.0,4095.0,4095.0,2995.0,2622.0,0.4,9.58,6.9,-0.01,-0.04,-0.16,0.0,v
2960.0,2992.0,2946.0,3504.0,4095.0,4095.0,2991.0,2613.0,0.23,9.58,6.91,0.04,-0.07,-0.18,0.0,v
2973.0,2997.0,2960.0,3503.0,4095.0,4095.0,2994.0,2613.0,0.13,9.56,6.78,0.03,-0.05,-0.19,0.0,v
2960.0,3007.0,2953.0,3487.0,4095.0,4095.0,2992.0,2621.0,0.29,9.5,6.94,-0.0,-0.0,-0.16,0.0,v
2963.0,2992.0,2965.0,3510.0,4095.0,4095.0,2997.0,2624.0,0.25,9.59,6.81,0.01,-0.07,-0.2,0.0,v
2959.0,2999.0,2946.0,3499.0,4095.0,4095.0,2991.0,2613.0,0.06,9.52,6.95,0.01,-0.05,-0.18,0.0,v
2975.0,2999.0,2960.0,3514.0,4095.0,4095.0,3002.0,2625.0,0.05,9.51,6.94,0.04,-0.0,-0.17,0.0,v
2960.0,2986.0,2951.0,3493.0,4095.0,4095.0,2994.0,2618.0,0.15,9.49,6.88,-0.01,0.04,-0.13,0.0,v
2960.0,2997.0,2937.0,3510.0,4095.0,4095.0,2996.0,2624.0,0.3,9.52,6.92,-0.01,0.0,-0.13,0.0,v
2965.0,2995.0,2945.0,3495.0,4095.0,4095.0,2995.0,2621.0,0.19,9.61,6.92,-0.01,0.01,-0.15,0.0,v
2969.0,2991.0,2955.0,3514.0,4095.0,4095.0,2992.0,2611.0,0.21,9.52,6.89,0.03,-0.04,-0.17,0.0,v
2960.0,3001.0,2945.0,3502.0,4095.0,4095.0,2996.0,2620.0,0.12,9.53,6.89,-0.01,-0.03,-0.15,0.0,v
2974.0,2996.0,2955.0,3507.0,4095.0,4095.0,3002.0,2620.0,0.09,9.46,7.06,0.02,-0.02,-0.15,0.0,v
2960.0,3003.0,2943.0,3507.0,4095.0,4095.0,2992.0,2622.0,0.28,9.45,7.22,-0.0,0.05,-0.17,0.0,v
2970.0,2999.0,2960.0,3504.0,4095.0,4095.0,2999.0,2624.0,0.1,9.52,6.9,0.06,0.03,-0.14,0.0,v
2960.0,2999.0,2951.0,3507.0,4095.0,4095.0,2993.0,2617.0,0.44,9.5,6.71,0.05,-0.04,-0.17,0.0,v
2962.0,3005.0,2957.0,3518.0,4095.0,4095.0,2992.0,2623.0,0.2,9.61,6.86,-0.01,-0.06,-0.26,0.0,v
2963.0,3001.0,2943.0,3501.0,4095.0,4095.0,3002.0,2619.0,-0.08,9.39,7.17,0.07,-0.16,-0.27,0.0,v
2966.0,2992.0,2959.0,3505.0,4095.0,4095.0,2996.0,2624.0,-0.52,9.54,6.77,0.09,-0.13,-0.19,0.0,v
2960.0,2983.0,2955.0,3500.0,4095.0,4095.0,3006.0,2626.0,0.25,9.56,6.3,0.01,0.04,-0.09,0.0,v
2957.0,2995.0,2957.0,3503.0,4095.0,4095.0,2992.0,2618.0,0.0,9.57,6.8,-0.04,0.0,-0.1,0.0,v
2975.0,2998.0,2954.0,3511.0,4095.0,4095.0,3004.0,2626.0,0.07,9.57,6.85,-0.04,-0.04,-0.14,0.0,v
2966.0,2999.0,2954.0,3506.0,4095.0,4095.0,2990.0,2615.0,0.09,9.49,6.89,-0.01,-0.07,-0.16,0.0,v
2969.0,2994.0,2960.0,3519.0,4095.0,4095.0,2992.0,2621.0,-0.06,9.49,7.2,0.01,0.03,-0.11,0.0,v
2960.0,2992.0,2957.0,3504.0,4095.0,4095.0,2991.0,2623.0,0.27,9.5,6.9,0.02,0.0,-0.14,0.0,v
2979.0,2999.0,2960.0,3511.0,4095.0,4095.0,3003.0,2630.0,0.26,9.56,6.84,0.03,-0.01,-0.15,0.0,v
2965.0,2992.0,2947.0,3507.0,4095.0,4095.0,2990.0,2622.0,0.11,9.55,6.93,-0.0,-0.03,-0.18,0.0,v
2972.0,3001.0,2960.0,3521.0,4095.0,4095.0,2995.0,2627.0,0.02,9.5,7.02,0.02,-0.02,-0.18,0.0,v
2960.0,3009.0,2945.0,3510.0,4095.0,4095.0,2992.0,2623.0,0.1,9.5,6.94,0.03,0.02,-0.13,0.0,v
2960.0,3013.0,2958.0,3502.0,4095.0,4095.0,2992.0,2627.0,0.2,9.65,6.65,0.04,0.11,-0.16,0.0,v
2960.0,2999.0,2963.0,3514.0,4095.0,4095.0,2994.0,2629.0,-0.27,9.64,6.47,-0.14,0.33,-0.13,0.0,v
2960.0,3002.0,2944.0,3507.0,4095.0,4095.0,2990.0,2630.0,-0.15,9.39,6.83,-0.01,0.02,-0.16,0.0,v
2943.0,2994.0,2953.0,3519.0,4095.0,4095.0,2992.0,2636.0,-0.5,9.52,6.63,-0.08,0.19,-0.15,0.0,v
2960.0,2999.0,2955.0,3511.0,4095.0,4095.0,2992.0,2627.0,-0.19,9.67,6.73,-0.12,0.24,-0.17,0.0,v
2959.0,2997.0,2962.0,3518.0,4095.0,4095.0,2992.0,2624.0,-0.2,9.5,7.24,-0.08,0.23,-0.14,0.0,v
2951.0,2995.0,2950.0,3520.0,4095.0,4095.0,2991.0,2628.0,-0.55,9.51,7.01,0.02,-0.03,-0.15,0.0,v
2955.0,3009.0,2958.0,3521.0,4095.0,4095.0,2998.0,2630.0,-0.45,9.5,6.98,-0.01,0.05,-0.15,0.0,v
2959.0,3003.0,2951.0,3508.0,4095.0,4095.0,2992.0,2624.0,-0.34,9.54,6.8,0.01,0.29,-0.13,0.0,v
2970.0,3002.0,2959.0,3527.0,4095.0,4095.0,2990.0,2626.0,-0.42,9.57,7.04,-0.11,0.16,-0.18,0.0,v
2946.0,2994.0,2944.0,3515.0,4095.0,4095.0,2991.0,2624.0,-0.55,9.35,7.52,0.11,0.09,-0.24,0.0,v
2991.0,2990.0,2945.0,3714.0,4095.0,4095.0,2992.0,2624.0,-0.82,9.72,6.62,0.17,0.13,-0.43,0.0,v
2978.0,2997.0,2966.0,3652.0,4095.0,4095.0,2979.0,2619.0,-1.63,9.53,6.68,0.05,0.04,-0.36,0.0,v
2960.0,2990.0,2959.0,3651.0,4095.0,4095.0,2942.0,2623.0,-1.39,9.4,6.71,-0.01,-0.04,-0.15,0.0,v
2978.0,3004.0,2958.0,3664.0,4095.0,4095.0,2958.0,2639.0,-1.19,9.46,6.58,-0.11,0.09,-0.07,0.0,v
2975.0,2989.0,2949.0,3678.0,4095.0,4095.0,2954.0,2635.0,-1.08,9.47,6.99,-0.12,0.21,-0.03,0.0,v
2999.0,3005.0,2958.0,3713.0,4095.0,4095.0,2971.0,2641.0,-0.8,9.43,7.09,-0.07,0.02,-0.1,0.0,v
2982.0,2997.0,2959.0,3701.0,4095.0,4095.0,2975.0,2625.0,-0.99,9.43,7.19,-0.03,0.02,-0.12,0.0,v
2998.0,2991.0,2946.0,3705.0,4095.0,4095.0,2999.0,2633.0,-0.96,9.48,7.04,0.03,-0.07,-0.16,0.0,v
2987.0,2989.0,2960.0,3721.0,4095.0,4095.0,3003.0,2622.0,-1.1,9.48,6.99,-0.01,-0.12,-0.11,0.0,v
3008.0,3009.0,2960.0,3778.0,4095.0,4095.0,2831.0,2512.0,-0.15,9.39,7.39,-0.02,-0.07,-0.17,0.0,v
2994.0,3003.0,2961.0,3786.0,4095.0,4095.0,2830.0,2508.0,-0.37,9.39,7.49,-0.01,-0.07,-0.18,0.0,v
2990.0,2996.0,2957.0,3797.0,4095.0,4095.0,2832.0,2519.0,-0.44,9.29,7.65,0.01,-0.01,-0.14,0.0,v
2987.0,2998.0,2943.0,3783.0,4095.0,4095.0,2827.0,2512.0,-0.43,9.21,7.59,0.06,0.03,-0.13,0.0,v
2994.0,2993.0,2962.0,3815.0,4095.0,4095.0,2817.0,2512.0,-0.32,9.34,7.27,0.03,0.06,-0.15,0.0,v
2991.0,3002.0,2959.0,3797.0,4095.0,4095.0,2826.0,2512.0,-0.48,9.27,7.25,-0.05,0.01,-0.12,0.0,v
2973.0,2992.0,2949.0,3794.0,4095.0,4095.0,2833.0,2512.0,-0.18,9.28,7.77,-0.01,0.01,-0.13,0.0,v
2992.0,2992.0,2960.0,3800.0,4095.0,4095.0,2832.0,2515.0,-0.49,9.36,7.37,0.1,-0.15,-0.18,0.0,v
2986.0,3003.0,2958.0,3794.0,4095.0,4095.0,2831.0,2513.0,-0.33,9.27,7.44,0.01,-0.02,-0.16,0.0,v
2992.0,2993.0,2961.0,3807.0,4095.0,4095.0,2839.0,2515.0,-0.34,9.17,7.78,0.02,0.06,-0.13,0.0,v
2981.0,3006.0,2957.0,3815.0,4095.0,4095.0,2834.0,2516.0,-0.32,9.42,7.21,0.07,-0.13,-0.13,0.0,v
2983.0,3004.0,2969.0,3824.0,4095.0,4095.0,2825.0,2522.0,-0.3,9.42,7.03,-0.01,-0.07,-0.11,0.0,v
2974.0,2992.0,2954.0,3804.0,4095.0,4095.0,2834.0,2518.0,-0.27,9.26,7.47,0.01,0.04,-0.12,0.0,v
2978.0,3007.0,2960.0,3823.0,4095.0,4095.0,2835.0,2523.0,-0.17,9.4,7.49,0.05,-0.04,-0.18,0.0,v
2971.0,3007.0,2949.0,3821.0,4095.0,4095.0,2837.0,2519.0,-0.25,9.45,7.45,0.07,0.01,-0.17,0.0,v
2978.0,2990.0,2965.0,3839.0,4095.0,4095.0,2838.0,2523.0,-0.19,9.27,7.39,0.11,-0.01,-0.17,0.0,v
2972.0,2993.0,2960.0,3808.0,4095.0,4095.0,2835.0,2519.0,-0.29,9.5,7.12,0.19,-0.05,-0.2,0.0,v
2987.0,2997.0,2959.0,3831.0,4095.0,4095.0,2837.0,2525.0,-0.2,9.56,6.78,0.12,0.03,-0.13,0.0,v
2976.0,2998.0,2960.0,3835.0,4095.0,4095.0,2849.0,2527.0,-0.21,9.69,6.6,0.04,0.02,-0.11,0.0,v
2979.0,2995.0,2944.0,3824.0,4095.0,4095.0,2846.0,2518.0,0.03,9.34,7.02,0.05,0.0,-0.07,0.0,v
2961.0,2995.0,2965.0,3835.0,4095.0,4095.0,2846.0,2525.0,-0.26,9.7,6.35,0.03,-0.09,-0.24,0.0,v
2972.0,2991.0,2953.0,3828.0,4095.0,4095.0,2849.0,2525.0,-0.13,9.71,6.3,0.03,-0.13,-0.17,0.0,v
2970.0,2994.0,2953.0,3845.0,4095.0,4095.0,2847.0,2529.0,-0.3,9.83,6.4,0.17,0.01,-0.18,0.0,v
2971.0,2990.0,2960.0,3833.0,4095.0,4095.0,2848.0,2527.0,-0.32,9.51,6.19,0.25,0.02,-0.19,0.0,v
2962.0,2999.0,2956.0,3833.0,4095.0,4095.0,2854.0,2531.0,-0.35,9.73,5.65,0.13,-0.02,-0.15,0.0,v
2961.0,3005.0,2954.0,3824.0,4095.0,4095.0,2850.0,2531.0,-0.3,9.78,5.93,0.08,-0.04,-0.21,0.0,v
2966.0,2992.0,2951.0,3814.0,4095.0,4095.0,2848.0,2527.0,-0.4,9.57,6.11,0.26,0.0,-0.24,0.0,v
2971.0,2999.0,2960.0,3823.0,4095.0,4095.0,2858.0,2534.0,-0.63,10.0,5.41,0.19,0.01,-0.21,0.0,v
2960.0,2997.0,2960.0,3796.0,4095.0,4095.0,2849.0,2528.0,-0.6,9.76,5.32,0.14,0.05,-0.15,0.0,v
2967.0,3009.0,2957.0,3811.0,4095.0,4095.0,2854.0,2528.0,-0.67,9.83,5.2,0.13,0.04,-0.12,0.0,v
2960.0,2999.0,2958.0,3801.0,4095.0,4095.0,2849.0,2531.0,-0.6,9.81,5.23,0.13,-0.0,-0.09,0.0,v
2971.0,3002.0,2963.0,3818.0,4095.0,4095.0,2858.0,2531.0,-0.35,9.77,4.8,0.11,-0.07,-0.09,0.0,v
2963.0,3005.0,2960.0,3807.0,4095.0,4095.0,2849.0,2531.0,-0.47,10.0,5.02,0.09,-0.02,-0.1,0.0,v
2969.0,3010.0,2960.0,3819.0,4095.0,4095.0,2855.0,2535.0,-0.16,9.74,4.7,0.11,-0.03,-0.11,0.0,v
2968.0,2994.0,2953.0,3802.0,4095.0,4095.0,2850.0,2533.0,-0.36,9.98,4.84,0.04,-0.04,-0.13,0.0,v
2954.0,2993.0,2967.0,3826.0,4095.0,4095.0,2846.0,2529.0,-0.21,9.9,4.71,0.11,-0.05,-0.16,0.0,v
2961.0,3008.0,2957.0,3815.0,4095.0,4095.0,2849.0,2529.0,-0.32,9.89,4.49,0.05,-0.08,-0.19,0.0,v
2946.0,2992.0,2954.0,3810.0,4095.0,4095.0,2848.0,2531.0,-0.44,9.86,4.6,-0.01,-0.05,-0.14,0.0,v
2954.0,3003.0,2951.0,3830.0,4095.0,4095.0,2853.0,2530.0,-0.23,9.79,4.71,-0.06,-0.03,-0.16,0.0,v
2947.0,2992.0,2961.0,3799.0,4095.0,4095.0,2843.0,2531.0,-0.35,9.83,4.6,-0.07,-0.04,-0.2,0.0,v
2909.0,2995.0,2959.0,3804.0,4095.0,4095.0,2842.0,2527.0,-1.88,9.72,3.98,-0.05,0.09,0.21,0.0,v
2913.0,3005.0,2947.0,3811.0,4095.0,4095.0,2849.0,2530.0,-0.84,9.69,4.09,-0.25,-0.03,0.03,0.0,v
2903.0,2996.0,2953.0,3818.0,4095.0,4095.0,2842.0,2530.0,-0.84,9.11,4.2,-0.58,0.0,-0.1,0.0,v
2875.0,2992.0,2960.0,3855.0,4095.0,4095.0,2852.0,2523.0,-1.35,7.68,5.03,-0.54,0.58,-0.34,0.0,v
2869.0,3005.0,2957.0,3857.0,4095.0,4095.0,2858.0,2529.0,-0.13,9.86,5.37,-0.51,0.19,0.15,0.0,v
2865.0,3001.0,2960.0,3870.0,4095.0,4095.0,2862.0,2534.0,0.08,9.46,6.69,-0.5,-0.12,0.09,0.0,v
2887.0,2993.0,2955.0,3859.0,4095.0,4095.0,2864.0,2532.0,0.27,9.58,6.53,-0.3,-0.22,-0.11,0.0,v
2887.0,3010.0,2962.0,3884.0,4095.0,4095.0,2869.0,2535.0,0.08,9.4,7.34,-0.39,0.0,-0.2,0.0,v
2871.0,3006.0,2961.0,3869.0,4095.0,4095.0,2864.0,2535.0,-0.17,9.21,7.96,-0.27,0.09,-0.17,0.0,v
2877.0,2995.0,2947.0,3872.0,4095.0,4095.0,2875.0,2541.0,-0.12,9.35,7.6,-0.08,-0.15,-0.21,0.0,v
2878.0,2989.0,2961.0,3876.0,4095.0,4095.0,2871.0,2541.0,-0.16,9.24,7.64,-0.16,-0.09,-0.18,0.0,v
2879.0,3006.0,2960.0,3870.0,4095.0,4095.0,2871.0,2538.0,-0.29,9.2,8.04,-0.12,0.04,-0.14,0.0,v
2885.0,3008.0,2963.0,3886.0,4095.0,4095.0,2882.0,2544.0,0.03,9.08,8.14,-0.04,-0.06,-0.18,0.0,v
2869.0,2997.0,2957.0,3888.0,4095.0,4095.0,2870.0,2528.0,-0.44,9.12,8.01,0.05,-0.1,-0.21,0.0,v
2881.0,3006.0,2970.0,3901.0,4095.0,4095.0,2870.0,2538.0,-0.37,9.2,7.91,0.05,-0.01,-0.21,0.0,v
2890.0,2997.0,2946.0,3881.0,4095.0,4095.0,2867.0,2538.0,-0.29,9.28,7.49,0.05,-0.02,-0.19,0.0,v
2881.0,2999.0,2960.0,3895.0,4095.0,4095.0,2877.0,2538.0,-0.23,9.14,7.88,-0.17,-0.0,-0.12,0.0,v
2891.0,2991.0,2949.0,3876.0,4095.0,4095.0,2877.0,2539.0,-0.21,9.05,8.25,-0.12,0.04,-0.1,0.0,v
2883.0,2994.0,2960.0,3899.0,4095.0,4095.0,2879.0,2540.0,-0.25,8.96,8.73,-0.07,0.06,-0.2,0.0,v
2890.0,2997.0,2952.0,3858.0,4095.0,4095.0,2879.0,2541.0,-0.38,8.96,8.54,0.05,0.06,-0.24,0.0,v
2998.0,2993.0,2963.0,3821.0,4095.0,4095.0,2887.0,2519.0,0.1,9.09,8.2,-0.04,0.13,-0.13,0.0,v
3008.0,2991.0,2961.0,3831.0,4095.0,4095.0,2892.0,2529.0,0.02,8.94,8.47,-0.15,-0.09,-0.17,0.0,v
2994.0,2993.0,2943.0,3831.0,4095.0,4095.0,2893.0,2528.0,0.08,8.65,9.0,-0.14,-0.06,-0.1,0.0,v
2992.0,2998.0,2958.0,3837.0,4095.0,4095.0,2891.0,2528.0,0.2,8.67,9.19,-0.13,-0.08,-0.19,0.0,v
2992.0,3007.0,2960.0,3829.0,4095.0,4095.0,2899.0,2530.0,0.26,8.71,8.91,-0.03,0.02,-0.12,0.0,v
2998.0,3003.0,2945.0,3839.0,4095.0,4095.0,2885.0,2528.0,0.13,8.67,9.17,-0.08,-0.1,-0.21,0.0,v
2985.0,2994.0,2958.0,3841.0,4095.0,4095.0,2893.0,2534.0,0.06,8.58,9.24,-0.05,0.04,-0.16,0.0,v
2975.0,2989.0,2946.0,3846.0,4095.0,4095.0,2884.0,2528.0,0.25,8.49,9.58,0.01,-0.0,-0.16,0.0,v
2988.0,2995.0,2961.0,3842.0,4095.0,4095.0,2893.0,2541.0,0.13,8.64,9.36,0.07,-0.09,-0.17,0.0,v
2981.0,3002.0,2951.0,3826.0,4095.0,4095.0,2879.0,2535.0,0.32,8.69,9.22,0.17,-0.15,-0.22,0.0,v
2973.0,2996.0,2966.0,3839.0,4095.0,4095.0,2883.0,2538.0,-0.06,8.8,8.69,0.16,0.01,-0.19,0.0,v
2982.0,2992.0,2951.0,3830.0,4095.0,4095.0,2880.0,2526.0,-0.03,8.87,8.7,0.09,0.16,-0.18,0.0,v
2975.0,2994.0,2969.0,3824.0,4095.0,4095.0,2887.0,2533.0,0.08,8.9,8.5,0.07,-0.09,-0.24,0.0,v
2969.0,2994.0,2951.0,3806.0,4095.0,4095.0,2884.0,2536.0,-0.27,8.94,8.43,0.12,-0.26,-0.21,0.0,v
2971.0,3005.0,2960.0,3815.0,4095.0,4095.0,2887.0,2535.0,-0.17,8.94,8.54,0.02,0.08,-0.09,0.0,v
2965.0,3001.0,2949.0,3828.0,4095.0,4095.0,2897.0,2541.0,0.18,8.9,8.69,0.04,0.11,-0.05,0.0,v
2978.0,3001.0,2951.0,3838.0,4095.0,4095.0,2896.0,2541.0,0.49,8.92,8.42,0.23,0.09,-0.12,0.0,v
2976.0,3011.0,2961.0,3858.0,4095.0,4095.0,2902.0,2544.0,0.05,9.17,7.89,0.22,0.08,-0.17,0.0,v
2963.0,2992.0,2947.0,3838.0,4095.0,4095.0,2905.0,2543.0,0.14,9.24,7.61,0.13,-0.08,-0.22,0.0,v
2985.0,2999.0,2960.0,3871.0,4095.0,4095.0,2910.0,2543.0,-0.28,9.21,7.98,0.13,0.05,-0.15,0.0,v
3009.0,2987.0,2948.0,3870.0,4095.0,4095.0,2947.0,2557.0,0.73,9.84,5.17,0.23,-0.09,-0.17,0.0,v
3019.0,2995.0,2951.0,3882.0,4095.0,4095.0,2950.0,2559.0,0.59,9.89,4.97,0.2,-0.05,-0.13,0.0,v
3008.0,2990.0,2953.0,3892.0,4095.0,4095.0,2951.0,2557.0,0.87,9.92,4.7,0.06,0.0,-0.09,0.0,v
3020.0,2991.0,2960.0,3902.0,4095.0,4095.0,2962.0,2559.0,1.0,9.88,4.97,0.04,0.04,-0.12,0.0,v
3006.0,2993.0,2954.0,3917.0,4095.0,4095.0,2958.0,2559.0,0.77,9.74,4.97,0.1,0.01,-0.13,0.0,v
2992.0,2992.0,2950.0,3917.0,4095.0,4095.0,2950.0,2559.0,0.98,9.9,4.81,0.01,0.01,-0.17,0.0,v
2994.0,2993.0,2961.0,3939.0,4095.0,4095.0,2949.0,2559.0,0.78,9.87,4.94,0.01,-0.06,-0.16,0.0,v
3001.0,2992.0,2938.0,3934.0,4095.0,4095.0,2955.0,2559.0,0.83,9.92,4.65,-0.06,-0.06,-0.12,0.0,v
3001.0,3008.0,2957.0,3937.0,4095.0,4095.0,2974.0,2559.0,1.02,9.88,4.94,-0.05,0.02,-0.14,0.0,v
2990.0,2992.0,2943.0,3907.0,4095.0,4095.0,2953.0,2579.0,0.89,9.84,5.15,-0.03,-0.01,-0.17,0.0,v
3006.0,2999.0,2966.0,3951.0,4095.0,4095.0,2955.0,2589.0,0.99,9.84,5.01,-0.02,-0.02,-0.15,0.0,v
3003.0,2999.0,2947.0,3943.0,4095.0,4095.0,2948.0,2559.0,0.91,9.9,4.9,-0.03,-0.1,-0.17,0.0,v
3005.0,3009.0,2957.0,3947.0,4095.0,4095.0,2956.0,2589.0,0.93,9.83,5.13,-0.04,-0.08,-0.15,0.0,v
3003.0,2995.0,2946.0,3921.0,4095.0,4095.0,2954.0,2585.0,0.77,9.87,5.2,-0.06,-0.01,-0.13,0.0,v
2999.0,2994.0,2947.0,3955.0,4095.0,4095.0,2960.0,2589.0,0.78,9.83,5.28,-0.12,0.03,-0.1,0.0,v
3005.0,2999.0,2960.0,3951.0,4095.0,4095.0,2950.0,2583.0,1.05,9.8,5.38,-0.1,0.11,-0.11,0.0,v
2992.0,2992.0,2955.0,3957.0,4095.0,4095.0,2960.0,2586.0,1.13,9.79,5.45,-0.1,0.06,-0.15,0.0,v
3006.0,2997.0,2955.0,3941.0,4095.0,4095.0,2952.0,2595.0,1.09,9.79,5.63,-0.09,-0.05,-0.16,0.0,v
2987.0,2982.0,2958.0,3929.0,4095.0,4095.0,2950.0,2590.0,1.0,9.74,5.84,-0.06,-0.04,-0.18,0.0,v
2993.0,2993.0,2949.0,3966.0,4095.0,4095.0,2960.0,2589.0,0.97,9.85,5.82,-0.04,0.01,-0.16,0.0,v
2998.0,3001.0,2955.0,3965.0,4095.0,4095.0,2965.0,2590.0,0.92,9.7,6.03,-0.03,-0.06,-0.2,0.0,v
2992.0,3003.0,2955.0,3960.0,4095.0,4095.0,2960.0,2587.0,0.78,9.71,6.18,-0.04,-0.05,-0.2,0.0,v
3002.0,3006.0,2960.0,3957.0,4095.0,4095.0,2974.0,2596.0,0.74,9.64,6.4,-0.04,-0.01,-0.19,0.0,v
2987.0,2991.0,2955.0,3968.0,4095.0,4095.0,2963.0,2589.0,0.8,9.7,6.23,-0.02,-0.03,-0.19,0.0,v
2990.0,2983.0,2955.0,3941.0,4095.0,4095.0,2967.0,2594.0,0.68,9.69,6.31,-0.05,0.01,-0.19,0.0,v
2997.0,2994.0,2953.0,3952.0,4095.0,4095.0,2977.0,2593.0,0.72,9.66,6.39,-0.1,0.04,-0.17,0.0,v
2983.0,2987.0,2947.0,3954.0,4095.0,4095.0,2961.0,2581.0,0.66,9.63,6.51,-0.15,-0.04,-0.17,0.0,v
2998.0,3015.0,2965.0,3952.0,4095.0,4095.0,2970.0,2594.0,0.62,9.57,6.75,-0.15,-0.03,-0.16,0.0,v
2999.0,2992.0,2942.0,3934.0,4095.0,4095.0,2966.0,2585.0,0.7,9.49,6.9,-0.2,0.16,-0.14,0.0,v
2998.0,2991.0,2953.0,3959.0,4095.0,4095.0,2961.0,2593.0,0.58,9.42,7.35,-0.2,0.03,-0.18,0.0,v
3007.0,2990.0,2955.0,3934.0,4095.0,4095.0,2971.0,2559.0,0.51,9.34,7.55,-0.11,-0.09,-0.18,0.0,v
3011.0,2992.0,2959.0,3959.0,4095.0,4095.0,2977.0,2559.0,0.61,9.33,7.47,-0.02,-0.03,-0.15,0.0,v
2995.0,2997.0,2940.0,3937.0,4095.0,4095.0,2979.0,2559.0,0.58,9.38,7.45,-0.0,-0.04,-0.15,0.0,v
3024.0,3006.0,2958.0,3941.0,4095.0,4095.0,2993.0,2559.0,0.54,9.36,7.47,0.05,-0.05,-0.16,0.0,v
3001.0,2993.0,2958.0,3933.0,4095.0,4095.0,2983.0,2559.0,0.49,9.42,7.27,-0.0,-0.05,-0.16,0.0,v
3003.0,3002.0,2955.0,3926.0,4095.0,4095.0,2986.0,2559.0,0.6,9.4,7.43,-0.03,-0.08,-0.19,0.0,v
3005.0,2992.0,2965.0,3650.0,4095.0,4095.0,2991.0,2582.0,0.52,9.36,7.42,-0.05,-0.1,-0.21,0.0,v
2998.0,2988.0,2945.0,3651.0,4095.0,4095.0,2991.0,2559.0,0.43,9.38,7.46,-0.04,-0.04,-0.24,0.0,v
3007.0,2999.0,2950.0,3679.0,4095.0,4095.0,2991.0,2585.0,0.22,9.36,7.48,-0.13,-0.06,-0.19,0.0,v
2999.0,2990.0,2944.0,3661.0,4095.0,4095.0,2979.0,2559.0,0.28,9.25,7.92,-0.22,0.1,-0.0,0.0,v
3008.0,3005.0,2947.0,3632.0,4095.0,4095.0,2993.0,2594.0,0.43,9.02,8.21,-0.01,-0.02,-0.23,0.0,v
3013.0,2999.0,2958.0,3639.0,4095.0,4095.0,3002.0,2594.0,0.33,9.03,8.29,-0.03,-0.07,-0.24,0.0,v
3001.0,2993.0,2957.0,3632.0,4095.0,4095.0,2993.0,2598.0,0.16,9.03,8.36,-0.02,-0.03,-0.2,0.0,v
3001.0,3007.0,2958.0,3648.0,4095.0,4095.0,3001.0,2601.0,0.26,8.96,8.41,-0.04,-0.01,-0.16,0.0,v
3007.0,2995.0,2957.0,3643.0,4095.0,4095.0,2993.0,2593.0,0.37,8.92,8.47,-0.05,-0.01,-0.16,0.0,v
3011.0,2990.0,2951.0,3665.0,4095.0,4095.0,2998.0,2599.0,0.28,8.94,8.43,-0.02,-0.03,-0.17,0.0,v
2992.0,2992.0,2953.0,3649.0,4095.0,4095.0,2997.0,2593.0,0.26,8.92,8.61,-0.02,-0.03,-0.15,0.0,v
2996.0,2988.0,2951.0,3674.0,4095.0,4095.0,2991.0,2593.0,0.28,8.89,8.69,0.0,-0.05,-0.16,0.0,v
2998.0,2992.0,2949.0,3664.0,4095.0,4095.0,2990.0,2587.0,0.21,8.81,8.98,0.01,0.0,-0.15,0.0,v
3008.0,3006.0,2957.0,3664.0,4095.0,4095.0,2992.0,2599.0,0.17,8.9,8.77,0.11,0.04,-0.15,0.0,v
3006.0,2993.0,2944.0,3648.0,4095.0,4095.0,2991.0,2600.0,0.22,8.71,9.23,0.3,0.09,-0.12,0.0,v
2992.0,2995.0,2958.0,3642.0,4095.0,4095.0,2990.0,2590.0,0.27,9.25,7.64,0.35,0.05,-0.17,0.0,v
3008.0,2983.0,2955.0,3637.0,4095.0,4095.0,2993.0,2594.0,0.1,9.37,7.42,0.21,0.02,-0.13,0.0,v
3004.0,2999.0,2946.0,3649.0,4095.0,4095.0,2989.0,2591.0,0.23,9.38,7.35,0.17,0.03,-0.14,0.0,v
3003.0,3003.0,2960.0,3649.0,4095.0,4095.0,3001.0,2599.0,0.34,9.34,7.49,0.04,-0.01,-0.16,0.0,v
3008.0,2995.0,2951.0,3659.0,4095.0,4095.0,2990.0,2592.0,0.24,9.31,7.63,0.05,-0.07,-0.18,0.0,v
3014.0,3005.0,2964.0,3659.0,4095.0,4095.0,2995.0,2605.0,0.18,9.39,7.4,0.08,0.01,-0.14,0.0,v
2995.0,2991.0,2946.0,3648.0,4095.0,4095.0,2990.0,2596.0,0.2,9.36,7.52,0.08,-0.01,-0.14,0.0,v
3007.0,2997.0,2962.0,3648.0,4095.0,4095.0,2998.0,2605.0,0.23,9.4,7.37,0.08,0.11,-0.13,0.0,v
2999.0,2992.0,2956.0,3630.0,4095.0,4095.0,2991.0,2593.0,0.2,9.35,7.46,0.09,0.03,-0.16,0.0,v
2991.0,3002.0,2959.0,3664.0,4095.0,4095.0,2990.0,2610.0,0.33,9.55,6.78,0.05,0.05,-0.1,0.0,v
2998.0,2992.0,2949.0,3653.0,4095.0,4095.0,2987.0,2604.0,0.33,9.63,6.74,0.07,0.03,-0.12,0.0,v
2996.0,2991.0,2960.0,3667.0,4095.0,4095.0,2993.0,2608.0,0.35,9.6,6.71,0.02,0.02,-0.1,0.0,v
2992.0,2990.0,2955.0,3657.0,4095.0,4095.0,2981.0,2606.0,0.37,9.58,6.72,0.04,0.02,-0.1,0.0,v
3003.0,3007.0,2963.0,3661.0,4095.0,4095.0,2998.0,2611.0,0.51,9.61,6.6,0.03,0.06,-0.05,0.0,v
2998.0,2992.0,2948.0,3661.0,4095.0,4095.0,2987.0,2602.0,0.71,9.6,6.68,0.02,0.03,-0.08,0.0,v
3004.0,3008.0,2958.0,3665.0,4095.0,4095.0,2994.0,2611.0,0.79,9.57,6.71,-0.01,-0.03,-0.15,0.0,v
2983.0,2992.0,2946.0,3665.0,4095.0,4095.0,2989.0,2607.0,0.54,9.62,6.56,0.01,-0.06,-0.17,0.0,v
2998.0,3000.0,2951.0,3679.0,4095.0,4095.0,2992.0,2611.0,0.49,9.7,6.4,-0.05,0.0,-0.13,0.0,v
2992.0,2992.0,2939.0,3657.0,4095.0,4095.0,2995.0,2615.0,0.57,9.56,6.79,-0.11,0.0,-0.14,0.0,v
2997.0,2989.0,2957.0,3666.0,4095.0,4095.0,2982.0,2605.0,0.81,9.46,7.06,-0.12,-0.04,-0.11,0.0,v
3007.0,3004.0,2964.0,3687.0,4095.0,4095.0,2991.0,2620.0,0.73,9.4,7.36,-0.11,-0.04,-0.1,0.0,v
2987.0,2987.0,2948.0,3695.0,4095.0,4095.0,2983.0,2608.0,0.77,9.44,7.16,-0.02,0.09,-0.09,0.0,v
2994.0,3003.0,2964.0,3708.0,4095.0,4095.0,2974.0,2611.0,0.79,9.42,7.43,0.01,-0.02,-0.26,0.0,v
2987.0,2990.0,2952.0,3691.0,4095.0,4095.0,2971.0,2608.0,0.67,9.46,7.24,0.07,0.01,-0.17,0.0,v
3003.0,2991.0,2953.0,3703.0,4095.0,4095.0,2978.0,2615.0,0.73,9.46,7.21,0.04,-0.03,-0.15,0.0,v
2981.0,2990.0,2947.0,3695.0,4095.0,4095.0,2971.0,2608.0,0.73,9.48,7.03,0.07,-0.03,-0.18,0.0,v
2999.0,2992.0,2955.0,3719.0,4095.0,4095.0,2971.0,2614.0,0.5,9.45,6.95,0.15,-0.05,-0.35,0.0,v
2989.0,2995.0,2951.0,3682.0,4095.0,4095.0,2955.0,2606.0,0.17,9.47,6.79,0.29,-0.29,-0.47,0.0,v
2998.0,2995.0,2965.0,3830.0,4095.0,4095.0,2933.0,2606.0,-0.21,10.07,6.33,0.2,-0.27,-0.29,0.0,v
2974.0,2984.0,2946.0,3767.0,4095.0,4095.0,2930.0,2598.0,-0.62,9.77,5.71,-0.05,0.2,-0.05,0.0,v
2969.0,2984.0,2944.0,3792.0,4095.0,4095.0,2926.0,2599.0,-0.14,9.78,5.73,-0.03,0.04,-0.08,0.0,v
2982.0,2983.0,2954.0,3791.0,4095.0,4095.0,2940.0,2608.0,-0.06,9.73,5.96,0.09,-0.16,-0.23,0.0,v
2963.0,2988.0,2954.0,3783.0,4095.0,4095.0,2929.0,2606.0,-0.12,9.73,5.89,-0.0,0.06,-0.12,0.0,v
2973.0,2979.0,2955.0,3794.0,4095.0,4095.0,2933.0,2607.0,-0.24,9.7,5.79,0.0,0.07,-0.11,0.0,v
2978.0,2996.0,2946.0,3815.0,4095.0,4095.0,2939.0,2602.0,-0.07,9.65,5.78,-0.08,0.24,0.03,0.0,v
2987.0,2993.0,2953.0,3810.0,4095.0,4095.0,2939.0,2599.0,0.06,9.9,5.88,-0.18,0.15,-0.01,0.0,v
2998.0,3000.0,2954.0,3833.0,4095.0,4095.0,2945.0,2605.0,0.23,9.6,6.31,-0.09,-0.01,-0.07,0.0,v
2992.0,2990.0,2960.0,3823.0,4095.0,4095.0,2942.0,2595.0,0.28,9.74,6.15,-0.05,0.13,-0.08,0.0,v
2993.0,2999.0,2956.0,3838.0,4095.0,4095.0,2944.0,2591.0,0.27,9.71,6.31,-0.06,0.08,-0.09,0.0,v
2995.0,2992.0,2960.0,3856.0,4095.0,4095.0,2945.0,2588.0,0.31,9.66,6.41,-0.02,-0.04,-0.15,0.0,v
2992.0,2991.0,2963.0,3846.0,4095.0,4095.0,2947.0,2595.0,0.2,9.69,6.37,-0.01,0.0,-0.12,0.0,v
2986.0,2985.0,2954.0,3833.0,4095.0,4095.0,2960.0,2583.0,0.29,9.73,6.26,-0.02,0.02,-0.1,0.0,v
2993.0,2997.0,2965.0,3857.0,4095.0,4095.0,2958.0,2587.0,0.6,9.58,6.51,-0.08,0.07,-0.01,0.0,v
2991.0,2991.0,2961.0,3827.0,4095.0,4095.0,2960.0,2589.0,0.62,9.6,6.56,-0.08,0.02,-0.08,0.0,v
2992.0,3006.0,2947.0,3837.0,4095.0,4095.0,2963.0,2603.0,0.62,9.6,6.68,-0.08,-0.02,-0.15,0.0,v
2992.0,2997.0,2946.0,3850.0,4095.0,4095.0,2969.0,2608.0,0.6,9.54,6.82,-0.11,-0.01,-0.12,0.0,v
2981.0,2983.0,2960.0,3843.0,4095.0,4095.0,2963.0,2603.0,0.7,9.5,6.94,-0.12,-0.03,-0.12,0.0,v
2992.0,3005.0,2955.0,3852.0,4095.0,4095.0,2965.0,2608.0,0.61,9.58,7.0,-0.06,0.01,-0.14,0.0,v
2974.0,2992.0,2953.0,3842.0,4095.0,4095.0,2963.0,2598.0,0.66,9.46,7.06,-0.06,0.09,-0.14,0.0,v
2991.0,2995.0,2959.0,3865.0,4095.0,4095.0,2971.0,2607.0,0.68,9.46,7.15,-0.02,0.04,-0.17,0.0,v
2992.0,2996.0,2960.0,3857.0,4095.0,4095.0,2963.0,2585.0,0.63,9.46,7.24,0.01,-0.0,-0.19,0.0,v
2996.0,2993.0,2963.0,3876.0,4095.0,4095.0,2970.0,2587.0,0.56,9.38,7.15,0.01,-0.04,-0.17,0.0,v
2987.0,2994.0,2954.0,3854.0,4095.0,4095.0,2973.0,2590.0,0.65,9.45,7.14,0.01,-0.08,-0.19,0.0,v
2998.0,2992.0,2971.0,3859.0,4095.0,4095.0,2981.0,2586.0,0.45,9.42,7.2,-0.0,-0.06,-0.17,0.0,v
3006.0,3008.0,2961.0,3871.0,4095.0,4095.0,2978.0,2594.0,0.52,9.46,7.19,0.01,-0.06,-0.19,0.0,v
2982.0,3002.0,2947.0,3863.0,4095.0,4095.0,2973.0,2559.0,-0.14,9.21,7.37,-0.01,-0.02,-0.14,0.0,v
2998.0,3003.0,2966.0,3881.0,4095.0,4095.0,2975.0,2579.0,0.42,9.48,7.17,-0.01,0.0,-0.22,0.0,v
2992.0,2997.0,2961.0,3865.0,4095.0,4095.0,2971.0,2559.0,0.13,9.44,7.29,0.0,0.02,-0.21,0.0,v
3003.0,3009.0,2961.0,3871.0,4095.0,4095.0,2978.0,2586.0,0.34,9.48,7.23,0.0,-0.0,-0.17,0.0,v
2990.0,2987.0,2959.0,3863.0,4095.0,4095.0,2974.0,2579.0,0.32,9.44,7.44,-0.01,-0.05,-0.18,0.0,v
2989.0,3007.0,2950.0,3881.0,4095.0,4095.0,2981.0,2589.0,0.3,9.48,7.22,0.03,0.0,-0.22,0.0,v
2998.0,2992.0,2955.0,3862.0,4095.0,4095.0,2982.0,2583.0,0.15,9.46,7.18,0.01,-0.02,-0.23,0.0,v
2991.0,2992.0,2973.0,3883.0,4095.0,4095.0,2979.0,2586.0,0.1,9.45,7.31,0.0,0.01,-0.24,0.0,v
2992.0,3005.0,2958.0,3875.0,4095.0,4095.0,2976.0,2582.0,0.11,9.45,7.2,0.02,-0.04,-0.24,0.0,v
2992.0,3006.0,2951.0,3876.0,4095.0,4095.0,2987.0,2590.0,0.0,9.45,7.17,0.0,-0.08,-0.22,0.0,v
2981.0,2997.0,2944.0,3872.0,4095.0,4095.0,2982.0,2597.0,0.02,9.3,7.31,0.01,-0.1,-0.21,0.0,v
2992.0,2983.0,2955.0,3879.0,4095.0,4095.0,2979.0,2594.0,-0.11,9.43,7.22,-0.01,-0.04,-0.21,0.0,v
2992.0,3001.0,2961.0,3879.0,4095.0,4095.0,2989.0,2603.0,-0.16,9.43,7.27,0.02,-0.06,-0.23,0.0,v
2982.0,2992.0,2956.0,3873.0,4095.0,4095.0,2977.0,2598.0,-0.4,9.42,7.27,0.04,-0.08,-0.24,0.0,v
2999.0,2992.0,2952.0,3599.0,4095.0,4095.0,2870.0,2461.0,0.87,9.99,4.1,0.09,0.05,-0.03,0.0,v
2990.0,2999.0,2961.0,3583.0,4095.0,4095.0,2878.0,2457.0,1.04,9.96,4.22,0.0,-0.0,-0.17,0.0,v
2992.0,2997.0,2959.0,3601.0,4095.0,4095.0,2877.0,2462.0,0.83,9.9,4.42,-0.05,-0.08,-0.21,0.0,v
2983.0,2999.0,2951.0,3602.0,4095.0,4095.0,2875.0,2457.0,0.66,9.9,4.69,-0.09,0.03,-0.17,0.0,v
2995.0,2995.0,2960.0,3605.0,4095.0,4095.0,2873.0,2469.0,0.78,9.89,4.73,-0.06,0.04,-0.12,0.0,v
2993.0,2992.0,2945.0,3583.0,4095.0,4095.0,2867.0,2463.0,0.86,10.01,4.66,-0.07,0.0,-0.13,0.0,v
2992.0,3007.0,2947.0,3602.0,4095.0,4095.0,2878.0,2469.0,0.59,9.89,4.84,-0.06,-0.0,-0.16,0.0,v
2979.0,2985.0,2953.0,3607.0,4095.0,4095.0,2876.0,2464.0,0.84,9.84,5.13,-0.13,0.15,-0.08,0.0,v
2983.0,2991.0,2960.0,3601.0,4095.0,4095.0,2889.0,2464.0,0.74,9.83,5.36,-0.1,0.06,-0.11,0.0,v
2995.0,2991.0,2960.0,3602.0,4095.0,4095.0,2891.0,2461.0,0.93,9.87,5.16,0.0,0.05,-0.08,0.0,v
2982.0,2990.0,2947.0,3619.0,4095.0,4095.0,2889.0,2467.0,1.03,9.91,5.06,-0.07,-0.06,-0.13,0.0,v
2983.0,2992.0,2955.0,3601.0,4095.0,4095.0,2885.0,2469.0,1.08,9.83,5.29,-0.2,-0.05,-0.18,0.0,v
2999.0,3003.0,2949.0,3610.0,4095.0,4095.0,2893.0,2477.0,0.95,9.79,5.54,-0.13,-0.05,-0.18,0.0,v
2986.0,2989.0,2941.0,3583.0,4095.0,4095.0,2889.0,2466.0,1.08,9.68,5.86,-0.14,-0.13,-0.19,0.0,v
2988.0,3007.0,2951.0,3583.0,4095.0,4095.0,2896.0,2471.0,0.81,9.61,6.07,-0.07,0.01,-0.11,0.0,v
2981.0,2995.0,2941.0,3583.0,4095.0,4095.0,2896.0,2477.0,0.96,9.75,5.96,-0.02,-0.01,-0.14,0.0,v
2975.0,2992.0,2940.0,3595.0,4095.0,4095.0,2891.0,2463.0,0.9,9.77,5.95,-0.04,-0.04,-0.16,0.0,v
2986.0,2992.0,2956.0,3583.0,4095.0,4095.0,2896.0,2471.0,0.86,9.65,6.02,-0.06,-0.11,-0.13,0.0,v
2987.0,2983.0,2947.0,3599.0,4095.0,4095.0,2895.0,2463.0,1.05,9.72,6.04,-0.02,0.03,-0.12,0.0,v
2989.0,2988.0,2956.0,3600.0,4095.0,4095.0,2899.0,2471.0,0.94,9.67,6.34,0.01,-0.05,-0.19,0.0,v
2977.0,2991.0,2955.0,3599.0,4095.0,4095.0,2893.0,2471.0,0.89,9.69,6.16,0.02,0.07,-0.15,0.0,v
2981.0,2994.0,2947.0,3614.0,4095.0,4095.0,2898.0,2474.0,0.92,9.7,6.19,0.03,-0.0,-0.19,0.0,v
2986.0,2982.0,2960.0,3603.0,4095.0,4095.0,2896.0,2476.0,0.87,9.61,6.39,0.11,-0.06,-0.19,0.0,v
3002.0,2991.0,2960.0,3601.0,4095.0,4095.0,2898.0,2471.0,0.67,9.82,5.71,0.14,-0.04,-0.16,0.0,v
2992.0,2995.0,2948.0,3600.0,4095.0,4095.0,2907.0,2480.0,0.82,9.82,5.55,0.08,0.0,-0.13,0.0,v
2973.0,2992.0,2948.0,3601.0,4095.0,4095.0,2896.0,2477.0,0.79,9.83,5.74,-0.01,-0.06,-0.13,0.0,v
2981.0,2995.0,2950.0,3607.0,4095.0,4095.0,2909.0,2477.0,0.92,9.78,5.83,-0.01,-0.09,-0.11,0.0,v
2992.0,2981.0,2955.0,3583.0,4095.0,4095.0,2902.0,2478.0,0.97,9.73,5.96,0.01,-0.1,-0.21,0.0,v
2992.0,2997.0,2946.0,3611.0,4095.0,4095.0,2910.0,2480.0,0.79,9.82,5.59,0.1,-0.06,-0.15,0.0,v
2983.0,2992.0,2956.0,3600.0,4095.0,4095.0,2902.0,2479.0,0.96,9.9,5.47,0.1,0.0,-0.18,0.0,v
2991.0,2988.0,2958.0,3599.0,4095.0,4095.0,2921.0,2480.0,1.07,9.76,5.84,-0.07,-0.03,-0.22,0.0,v
2981.0,2993.0,2941.0,3599.0,4095.0,4095.0,2915.0,2478.0,0.56,9.73,6.03,-0.04,-0.14,-0.26,0.0,v
2991.0,3005.0,2947.0,3601.0,4095.0,4095.0,2918.0,2483.0,0.58,9.78,5.82,0.04,-0.02,-0.18,0.0,v
2978.0,2985.0,2960.0,3604.0,4095.0,4095.0,2914.0,2480.0,0.66,9.74,5.89,0.02,-0.01,-0.21,0.0,v
2987.0,2987.0,2949.0,3610.0,4095.0,4095.0,2918.0,2483.0,0.3,9.73,5.9,0.26,-0.04,-0.3,0.0,v
2986.0,3006.0,2951.0,3619.0,4095.0,4095.0,2917.0,2481.0,0.51,9.88,5.06,0.12,-0.0,-0.16,0.0,v
2979.0,2993.0,2941.0,3618.0,4095.0,4095.0,2903.0,2478.0,0.52,9.98,4.96,-0.01,-0.04,-0.14,0.0,v
2978.0,3003.0,2962.0,3633.0,4095.0,4095.0,2907.0,2486.0,0.49,9.78,5.73,-0.14,-0.02,-0.19,0.0,v
2970.0,2992.0,2958.0,3632.0,4095.0,4095.0,2894.0,2480.0,0.32,9.75,6.05,0.02,-0.07,-0.16,0.0,v
2978.0,3000.0,2966.0,3646.0,4095.0,4095.0,2898.0,2486.0,0.4,9.77,5.71,0.06,-0.06,-0.13,0.0,v
2967.0,2985.0,2943.0,3627.0,4095.0,4095.0,2896.0,2481.0,1.24,9.91,4.88,0.01,-0.0,-0.12,0.0,v
2974.0,2988.0,2959.0,3639.0,4095.0,4095.0,2896.0,2493.0,1.08,9.85,4.98,-0.07,-0.05,-0.14,0.0,v
2963.0,2992.0,2945.0,3631.0,4095.0,4095.0,2902.0,2491.0,0.99,9.88,5.15,-0.12,-0.04,-0.13,0.0,v
2963.0,2992.0,2939.0,3623.0,4095.0,4095.0,2891.0,2488.0,1.16,9.75,5.59,-0.12,-0.01,-0.11,0.0,v
2966.0,3002.0,2949.0,3631.0,4095.0,4095.0,2903.0,2497.0,1.36,9.78,5.25,-0.05,-0.02,-0.15,0.0,v
2959.0,2995.0,2955.0,3627.0,4095.0,4095.0,2899.0,2494.0,1.44,9.78,5.5,-0.09,0.09,-0.18,0.0,v
2967.0,2995.0,2962.0,3628.0,4095.0,4095.0,2907.0,2496.0,0.69,9.73,5.94,-0.08,-0.06,-0.19,0.0,v
2964.0,2991.0,2939.0,3625.0,4095.0,4095.0,2911.0,2496.0,0.92,9.67,6.15,-0.05,0.05,-0.08,0.0,v
2965.0,3001.0,2958.0,3633.0,4095.0,4095.0,2910.0,2496.0,1.13,9.74,5.85,0.05,-0.06,-0.09,0.0,v
2959.0,2992.0,2944.0,3618.0,4095.0,4095.0,2896.0,2492.0,1.35,9.73,5.78,0.05,-0.08,-0.11,0.0,v
2962.0,2994.0,2954.0,3631.0,4095.0,4095.0,2905.0,2499.0,1.35,9.82,5.34,0.04,0.01,-0.1,0.0,v
2967.0,2986.0,2960.0,3631.0,4095.0,4095.0,2910.0,2495.0,1.46,9.78,5.44,-0.03,0.09,-0.09,0.0,v
2985.0,3006.0,2960.0,3623.0,4095.0,4095.0,2911.0,2502.0,1.4,9.72,5.86,-0.12,0.11,-0.1,0.0,v
2961.0,2990.0,2950.0,3629.0,4095.0,4095.0,2906.0,2487.0,1.34,9.62,6.24,-0.11,-0.0,-0.17,0.0,v
2974.0,2991.0,2950.0,3623.0,4095.0,4095.0,2911.0,2494.0,1.24,9.6,6.3,-0.06,-0.06,-0.12,0.0,v
2974.0,2996.0,2960.0,3620.0,4095.0,4095.0,2921.0,2500.0,1.35,9.66,6.15,-0.05,-0.06,-0.11,0.0,v
2960.0,2997.0,2955.0,3621.0,4095.0,4095.0,2918.0,2490.0,1.56,9.76,5.58,-0.11,-0.06,-0.18,0.0,v
2970.0,2989.0,2954.0,3635.0,4095.0,4095.0,2928.0,2498.0,1.41,9.63,6.21,-0.18,0.0,-0.13,0.0,v
2969.0,2995.0,2950.0,3615.0,4095.0,4095.0,2914.0,2498.0,1.62,9.49,6.75,-0.14,0.07,-0.12,0.0,v
2955.0,2991.0,2958.0,3642.0,4095.0,4095.0,2928.0,2508.0,1.95,9.48,6.7,-0.13,0.12,-0.21,0.0,v
2960.0,2994.0,2957.0,3629.0,4095.0,4095.0,2925.0,2503.0,0.56,9.52,7.1,-0.01,-0.13,-0.21,0.0,v
2949.0,2990.0,2955.0,3616.0,4095.0,4095.0,2925.0,2501.0,0.37,9.46,7.25,-0.05,0.01,-0.13,0.0,v
2966.0,2995.0,2957.0,3627.0,4095.0,4095.0,2928.0,2507.0,0.53,9.39,7.31,-0.03,0.09,-0.1,0.0,v
2958.0,2997.0,2961.0,3630.0,4095.0,4095.0,2924.0,2499.0,0.69,9.39,7.38,-0.01,0.01,-0.12,0.0,v
2960.0,2999.0,2958.0,3614.0,4095.0,4095.0,2935.0,2512.0,0.74,9.41,7.23,-0.0,-0.03,-0.17,0.0,v
2955.0,2993.0,2945.0,3612.0,4095.0,4095.0,2928.0,2502.0,0.82,9.36,7.4,-0.02,-0.07,-0.18,0.0,v
2961.0,2998.0,2961.0,3621.0,4095.0,4095.0,2934.0,2510.0,0.65,9.39,7.46,0.03,-0.08,-0.19,0.0,v
2960.0,2994.0,2943.0,3618.0,4095.0,4095.0,2929.0,2505.0,0.47,9.42,7.41,0.02,-0.06,-0.24,0.0,v
2959.0,2992.0,2956.0,3630.0,4095.0,4095.0,2933.0,2505.0,0.38,9.38,7.44,0.01,0.03,-0.16,0.0,v
2960.0,2988.0,2950.0,3615.0,4095.0,4095.0,2928.0,2508.0,0.52,9.4,7.52,0.05,-0.03,-0.16,0.0,v
2973.0,2992.0,2947.0,3623.0,4095.0,4095.0,2926.0,2498.0,0.49,9.41,7.37,0.03,-0.04,-0.18,0.0,v
2965.0,2996.0,2958.0,3627.0,4095.0,4095.0,2935.0,2507.0,0.44,9.43,7.32,0.03,0.0,-0.16,0.0,v
2960.0,2992.0,2945.0,3621.0,4095.0,4095.0,2928.0,2511.0,0.44,9.43,7.34,0.01,-0.01,-0.18,0.0,v
2961.0,3003.0,2960.0,3629.0,4095.0,4095.0,2933.0,2505.0,0.39,9.41,7.37,0.02,-0.0,-0.16,0.0,v
2957.0,2983.0,2960.0,3616.0,4095.0,4095.0,2928.0,2502.0,0.49,9.36,7.37,0.0,-0.06,-0.16,0.0,v
2971.0,2996.0,2955.0,3623.0,4095.0,4095.0,2931.0,2509.0,0.46,9.38,7.41,-0.02,-0.06,-0.16,0.0,v
2959.0,2988.0,2955.0,3606.0,4095.0,4095.0,2922.0,2507.0,0.33,9.38,7.43,0.01,0.03,-0.14,0.0,v
2971.0,2998.0,2959.0,3618.0,4095.0,4095.0,2928.0,2507.0,0.46,9.43,7.3,0.0,-0.01,-0.15,0.0,v
2960.0,2987.0,2960.0,3613.0,4095.0,4095.0,2932.0,2500.0,0.44,9.38,7.32,-0.02,-0.07,-0.16,0.0,v
2964.0,2995.0,2947.0,3626.0,4095.0,4095.0,2928.0,2505.0,0.39,9.39,7.5,-0.0,0.03,-0.13,0.0,v
2961.0,2994.0,2949.0,3790.0,4095.0,4095.0,2902.0,2512.0,0.41,9.58,6.74,0.1,0.02,-0.07,0.0,v
2951.0,2988.0,2946.0,3783.0,4095.0,4095.0,2893.0,2503.0,0.55,9.71,6.67,0.1,0.0,-0.08,0.0,v
2964.0,2998.0,2954.0,3790.0,4095.0,4095.0,2898.0,2509.0,0.49,9.53,6.89,0.14,-0.08,-0.07,0.0,v
2945.0,2994.0,2944.0,3792.0,4095.0,4095.0,2887.0,2506.0,0.35,9.6,6.55,0.19,0.05,-0.0,0.0,v
2946.0,3005.0,2957.0,3813.0,4095.0,4095.0,2896.0,2506.0,0.96,9.69,6.11,0.24,0.04,-0.04,0.0,v
2932.0,2979.0,2939.0,3799.0,4095.0,4095.0,2895.0,2509.0,0.81,9.77,5.77,0.26,0.07,-0.1,0.0,v
2931.0,2983.0,2949.0,3808.0,4095.0,4095.0,2883.0,2506.0,0.94,9.83,5.41,0.21,0.09,-0.13,0.0,v
2939.0,2995.0,2958.0,3810.0,4095.0,4095.0,2896.0,2513.0,0.95,9.81,5.38,0.13,-0.19,-0.19,0.0,v
2930.0,2992.0,2951.0,3808.0,4095.0,4095.0,2893.0,2510.0,0.8,9.86,5.23,0.08,-0.06,-0.15,0.0,v
2931.0,2998.0,2960.0,3824.0,4095.0,4095.0,2902.0,2506.0,0.82,9.84,5.38,0.06,-0.04,-0.16,0.0,v
2928.0,2998.0,2954.0,3799.0,4095.0,4095.0,2896.0,2510.0,0.81,9.9,5.27,0.07,-0.07,-0.15,0.0,v
2928.0,2998.0,2951.0,3815.0,4095.0,4095.0,2907.0,2511.0,0.98,9.89,5.17,0.01,0.06,-0.15,0.0,v
2928.0,2999.0,2959.0,3801.0,4095.0,4095.0,2897.0,2511.0,1.03,9.77,5.41,0.02,-0.11,-0.2,0.0,v
2939.0,2990.0,2945.0,3807.0,4095.0,4095.0,2913.0,2513.0,0.76,9.87,5.18,0.03,-0.16,-0.17,0.0,v
2935.0,2991.0,2957.0,3799.0,4095.0,4095.0,2899.0,2509.0,0.64,9.86,5.33,0.01,0.06,-0.14,0.0,v
2929.0,2998.0,2959.0,3803.0,4095.0,4095.0,2912.0,2515.0,0.9,9.82,5.21,0.03,0.04,-0.12,0.0,v
2928.0,2990.0,2957.0,3809.0,4095.0,4095.0,2903.0,2510.0,0.95,9.83,5.23,0.02,-0.07,-0.18,0.0,v
2919.0,2998.0,2957.0,3811.0,4095.0,4095.0,2906.0,2511.0,0.74,9.86,5.16,-0.03,-0.08,-0.17,0.0,v
2935.0,2995.0,2955.0,3814.0,4095.0,4095.0,2917.0,2517.0,0.58,9.88,5.26,-0.05,0.1,-0.11,0.0,v
2926.0,2990.0,2958.0,3457.0,4095.0,4095.0,2911.0,2509.0,0.85,9.76,5.59,0.02,0.06,-0.08,0.0,v
2923.0,2989.0,2951.0,3479.0,4095.0,4095.0,2911.0,2512.0,1.02,9.83,5.14,-0.04,-0.15,-0.18,0.0,v
2927.0,3002.0,2947.0,3493.0,4095.0,4095.0,2914.0,2517.0,0.98,9.85,5.14,-0.03,0.02,-0.11,0.0,v
2929.0,2993.0,2960.0,3503.0,4095.0,4095.0,2908.0,2512.0,0.94,9.81,5.26,0.03,-0.03,-0.15,0.0,v
2942.0,2991.0,2960.0,3781.0,4095.0,4095.0,2928.0,2521.0,0.96,9.84,5.08,0.06,0.02,-0.13,0.0,v
2957.0,2992.0,2959.0,3791.0,4095.0,4095.0,2927.0,2511.0,0.94,9.86,5.03,0.03,0.04,-0.1,0.0,v
2935.0,2993.0,2958.0,3774.0,4095.0,4095.0,2926.0,2518.0,1.16,9.89,4.9,0.01,-0.02,-0.12,0.0,v
2951.0,2992.0,2962.0,3799.0,4095.0,4095.0,2930.0,2517.0,1.11,9.88,4.97,0.01,-0.02,-0.15,0.0,v
2944.0,2986.0,2958.0,3802.0,4095.0,4095.0,2924.0,2519.0,1.09,9.84,5.05,0.01,-0.07,-0.18,0.0,v
2945.0,2992.0,2954.0,3809.0,4095.0,4095.0,2928.0,2523.0,0.89,9.9,5.0,0.01,-0.05,-0.17,0.0,v
2941.0,2988.0,2953.0,3803.0,4095.0,4095.0,2926.0,2517.0,1.0,9.87,5.02,-0.0,0.05,-0.13,0.0,v
2957.0,2992.0,2949.0,3805.0,4095.0,4095.0,2934.0,2526.0,1.01,9.83,5.13,0.0,-0.03,-0.14,0.0,v
2946.0,2998.0,2955.0,3808.0,4095.0,4095.0,2927.0,2516.0,1.06,9.86,4.94,0.03,0.08,-0.11,0.0,v
2960.0,2994.0,2951.0,3792.0,4095.0,4095.0,2932.0,2518.0,1.26,9.82,5.08,0.03,-0.01,-0.13,0.0,v
2938.0,2999.0,2954.0,3765.0,4095.0,4095.0,2928.0,2515.0,1.2,9.84,5.07,0.03,-0.07,-0.15,0.0,v
2954.0,3002.0,2959.0,3813.0,4095.0,4095.0,2939.0,2528.0,1.07,9.83,5.06,0.04,-0.05,-0.14,0.0,v
2947.0,2981.0,2957.0,3809.0,4095.0,4095.0,2934.0,2519.0,1.07,9.89,4.95,0.02,0.07,-0.09,0.0,v
2941.0,2992.0,2960.0,3820.0,4095.0,4095.0,2934.0,2526.0,1.28,9.85,4.93,0.04,0.13,-0.08,0.0,v
2944.0,2993.0,2960.0,3831.0,4095.0,4095.0,2941.0,2522.0,1.23,9.82,4.89,0.04,0.16,-0.05,0.0,v
2935.0,2993.0,2949.0,3824.0,4095.0,4095.0,2929.0,2522.0,1.41,9.84,4.91,0.02,0.21,-0.03,0.0,v
2958.0,3006.0,2959.0,3583.0,4095.0,4095.0,2943.0,2525.0,1.82,9.81,4.96,0.06,-0.02,-0.17,0.0,v
2965.0,2985.0,2957.0,3488.0,4095.0,4095.0,2945.0,2519.0,1.6,9.76,5.32,-0.07,0.09,-0.11,0.0,v
2986.0,3007.0,2954.0,3474.0,4095.0,4095.0,2958.0,2528.0,1.65,9.73,5.49,-0.03,-0.05,-0.17,0.0,v
2969.0,2992.0,2947.0,3483.0,4095.0,4095.0,2949.0,2525.0,1.51,9.78,5.37,-0.01,-0.03,-0.17,0.0,v
2979.0,3002.0,2955.0,3499.0,4095.0,4095.0,2949.0,2528.0,1.45,9.73,5.47,0.0,-0.05,-0.19,0.0,v
2975.0,2999.0,2957.0,3504.0,4095.0,4095.0,2960.0,2527.0,1.4,9.77,5.42,0.01,0.02,-0.18,0.0,v
2971.0,2993.0,2943.0,3495.0,4095.0,4095.0,2947.0,2525.0,1.28,9.82,5.35,0.02,0.06,-0.19,0.0,v
2966.0,2996.0,2953.0,3514.0,4095.0,4095.0,2945.0,2526.0,1.18,9.76,5.53,-0.04,-0.02,-0.15,0.0,v
2959.0,2989.0,2951.0,3500.0,4095.0,4095.0,2950.0,2523.0,1.34,9.76,5.54,-0.01,0.0,-0.11,0.0,v
2983.0,2998.0,2955.0,3507.0,4095.0,4095.0,2946.0,2534.0,1.46,9.76,5.5,-0.06,-0.02,-0.14,0.0,v
2955.0,2992.0,2955.0,3504.0,4095.0,4095.0,2947.0,2525.0,1.24,9.72,5.7,-0.05,0.01,-0.11,0.0,v
2966.0,3003.0,2948.0,3503.0,4095.0,4095.0,2954.0,2530.0,1.47,9.75,5.62,-0.07,0.06,-0.08,0.0,v
2965.0,2992.0,2954.0,3506.0,4095.0,4095.0,2946.0,2527.0,1.69,9.66,5.93,-0.1,0.01,-0.11,0.0,v
2975.0,2999.0,2950.0,3509.0,4095.0,4095.0,2945.0,2528.0,1.57,9.61,6.05,-0.03,-0.07,-0.2,0.0,v
2972.0,2990.0,2950.0,3490.0,4095.0,4095.0,2941.0,2529.0,1.57,9.68,5.86,-0.02,-0.04,-0.21,0.0,v
2990.0,3003.0,2954.0,3502.0,4095.0,4095.0,2949.0,2527.0,1.15,9.72,6.07,-0.08,0.02,-0.16,0.0,v
2994.0,3003.0,2955.0,3504.0,4095.0,4095.0,2958.0,2519.0,1.02,9.47,6.47,0.01,0.05,-0.04,0.0,v
2983.0,2986.0,2943.0,3498.0,4095.0,4095.0,2951.0,2519.0,1.53,9.59,6.14,-0.04,-0.0,-0.1,0.0,v
3006.0,2992.0,2959.0,3508.0,4095.0,4095.0,2962.0,2530.0,1.67,9.6,6.13,-0.08,0.04,-0.04,0.0,v
2992.0,2983.0,2960.0,3498.0,4095.0,4095.0,2959.0,2528.0,1.74,9.49,6.53,-0.09,0.02,-0.1,0.0,v
3005.0,3004.0,2961.0,3505.0,4095.0,4095.0,2949.0,2526.0,1.91,9.53,6.55,0.05,-0.06,-0.17,0.0,v
2994.0,3005.0,2957.0,3525.0,4095.0,4095.0,2971.0,2537.0,1.64,9.52,6.66,-0.01,-0.07,-0.21,0.0,v
2989.0,2992.0,2960.0,3511.0,4095.0,4095.0,2962.0,2531.0,1.66,9.55,6.57,-0.03,-0.01,-0.2,0.0,v
2992.0,2993.0,2949.0,3517.0,4095.0,4095.0,2970.0,2540.0,1.43,9.5,6.83,-0.05,-0.1,-0.24,0.0,v
2992.0,3005.0,2966.0,3522.0,4095.0,4095.0,2966.0,2542.0,1.33,9.5,6.86,-0.04,-0.01,-0.17,0.0,v
2987.0,3007.0,2950.0,3510.0,4095.0,4095.0,2963.0,2539.0,1.65,9.5,6.72,-0.01,0.02,-0.17,0.0,v
2981.0,2992.0,2949.0,3525.0,4095.0,4095.0,2974.0,2539.0,1.45,9.43,7.1,-0.07,-0.11,-0.23,0.0,v
2983.0,3001.0,2943.0,3518.0,4095.0,4095.0,2961.0,2535.0,1.32,9.48,6.89,0.04,-0.04,-0.15,0.0,v
2998.0,3007.0,2960.0,3523.0,4095.0,4095.0,2971.0,2542.0,1.46,9.55,6.54,0.01,-0.04,-0.15,0.0,v
2987.0,2992.0,2960.0,3526.0,4095.0,4095.0,2963.0,2535.0,1.39,9.47,7.01,-0.05,0.02,-0.14,0.0,v
2987.0,2991.0,2962.0,3542.0,4095.0,4095.0,2966.0,2535.0,1.55,9.42,6.99,-0.04,0.0,-0.17,0.0,v
2985.0,2997.0,2945.0,3532.0,4095.0,4095.0,2967.0,2537.0,1.45,9.45,6.97,-0.02,-0.01,-0.19,0.0,v
2987.0,2994.0,2965.0,3543.0,4095.0,4095.0,2971.0,2544.0,1.41,9.4,7.11,-0.02,-0.02,-0.2,0.0,v
2976.0,3005.0,2948.0,3509.0,4095.0,4095.0,2966.0,2530.0,1.28,9.49,6.91,0.05,-0.02,-0.18,0.0,v
2984.0,2987.0,2946.0,3519.0,4095.0,4095.0,2967.0,2541.0,1.29,9.51,6.88,-0.06,-0.07,-0.19,0.0,v
2991.0,2998.0,2956.0,3511.0,4095.0,4095.0,2975.0,2540.0,1.04,9.38,7.35,-0.01,0.02,-0.16,0.0,v
2991.0,2987.0,2960.0,3511.0,4095.0,4095.0,2964.0,2534.0,1.23,9.5,6.84,0.03,0.03,-0.1,0.0,v
2992.0,2991.0,2950.0,3531.0,4095.0,4095.0,2982.0,2546.0,1.38,9.45,7.05,-0.07,-0.0,-0.13,0.0,v
2988.0,2986.0,2951.0,3536.0,4095.0,4095.0,2961.0,2539.0,1.32,9.43,7.04,-0.0,-0.03,-0.16,0.0,v
2981.0,2992.0,2962.0,3549.0,4095.0,4095.0,2967.0,2539.0,1.32,9.44,6.96,-0.04,-0.06,-0.18,0.0,v
2985.0,2986.0,2957.0,3537.0,4095.0,4095.0,2969.0,2533.0,1.08,9.36,7.42,-0.02,-0.01,-0.16,0.0,v
2970.0,2995.0,2958.0,3531.0,4095.0,4095.0,2966.0,2534.0,1.24,9.46,7.05,0.06,-0.01,-0.16,0.0,v
2987.0,3005.0,2955.0,3542.0,4095.0,4095.0,2980.0,2544.0,1.25,9.43,7.15,-0.04,0.02,-0.15,0.0,v
2974.0,2991.0,2953.0,3538.0,4095.0,4095.0,2975.0,2544.0,1.36,9.41,7.1,0.05,0.05,-0.12,0.0,v
2982.0,2988.0,2940.0,3546.0,4095.0,4095.0,2969.0,2543.0,1.42,9.38,7.19,-0.03,-0.08,-0.17,0.0,v
2992.0,3008.0,2955.0,3554.0,4095.0,4095.0,2978.0,2544.0,1.26,9.39,7.24,0.05,-0.03,-0.15,0.0,v
2975.0,2989.0,2951.0,3539.0,4095.0,4095.0,2963.0,2537.0,1.46,9.46,6.9,0.0,-0.11,-0.17,0.0,v
2979.0,3002.0,2957.0,3550.0,4095.0,4095.0,2974.0,2543.0,1.26,9.39,7.15,-0.05,-0.02,-0.14,0.0,v
2970.0,2979.0,2957.0,3528.0,4095.0,4095.0,2963.0,2535.0,1.31,9.38,7.35,0.02,-0.05,-0.18,0.0,v
2973.0,2999.0,2959.0,3538.0,4095.0,4095.0,2976.0,2549.0,1.25,9.45,7.13,0.01,-0.04,-0.17,0.0,v
2976.0,2991.0,2950.0,3534.0,4095.0,4095.0,2965.0,2539.0,1.18,9.51,6.88,0.0,0.23,-0.04,0.0,v
2974.0,2986.0,2956.0,3552.0,4095.0,4095.0,2971.0,2544.0,1.53,9.34,7.34,-0.06,0.07,-0.13,0.0,v
2976.0,2989.0,2954.0,3526.0,4095.0,4095.0,2970.0,2541.0,1.6,9.41,7.14,0.03,-0.03,-0.14,0.0,v
2981.0,3006.0,2955.0,3537.0,4095.0,4095.0,2977.0,2545.0,1.34,9.35,7.33,-0.02,-0.02,-0.23,0.0,v
2972.0,2994.0,2961.0,3541.0,4095.0,4095.0,2960.0,2542.0,1.21,9.49,6.96,0.03,0.08,-0.15,0.0,v
2987.0,3005.0,2960.0,3552.0,4095.0,4095.0,2964.0,2537.0,1.19,9.43,7.16,0.0,0.0,-0.14,0.0,v
2975.0,2996.0,2939.0,3536.0,4095.0,4095.0,2971.0,2544.0,1.37,9.3,7.48,-0.02,0.02,-0.13,0.0,v
2971.0,2991.0,2951.0,3536.0,4095.0,4095.0,2963.0,2538.0,1.28,9.35,7.33,0.07,-0.04,-0.18,0.0,v
2978.0,2986.0,2957.0,3521.0,4095.0,4095.0,2971.0,2544.0,1.23,9.48,6.93,0.03,-0.03,-0.16,0.0,v
2967.0,2995.0,2958.0,3539.0,4095.0,4095.0,2960.0,2540.0,1.19,9.41,7.26,-0.05,0.01,-0.13,0.0,v
2976.0,2991.0,2947.0,3535.0,4095.0,4095.0,2965.0,2543.0,1.35,9.32,7.43,0.03,-0.03,-0.14,0.0,v
2966.0,2982.0,2939.0,3556.0,4095.0,4095.0,2971.0,2541.0,1.45,9.42,7.16,-0.02,-0.09,-0.16,0.0,v
2974.0,3007.0,2955.0,3551.0,4095.0,4095.0,2978.0,2549.0,1.14,9.31,7.58,0.01,0.03,-0.16,0.0,v
2975.0,2997.0,2949.0,3559.0,4095.0,4095.0,2975.0,2547.0,1.2,9.45,7.07,0.06,-0.02,-0.12,0.0,v
2974.0,2987.0,2941.0,3553.0,4095.0,4095.0,2967.0,2543.0,1.36,9.37,7.28,-0.04,0.02,-0.11,0.0,v
2986.0,2992.0,2956.0,3557.0,4095.0,4095.0,2981.0,2547.0,1.35,9.34,7.35,0.04,-0.01,-0.13,0.0,v
2975.0,2992.0,2947.0,3547.0,4095.0,4095.0,2970.0,2544.0,1.43,9.38,7.21,-0.01,-0.05,-0.17,0.0,v
2985.0,2993.0,2951.0,3547.0,4095.0,4095.0,2971.0,2545.0,1.25,9.33,7.41,0.02,0.03,-0.18,0.0,v
2975.0,2981.0,2945.0,3543.0,4095.0,4095.0,2965.0,2542.0,1.48,9.45,6.94,0.04,0.06,-0.18,0.0,v
2966.0,2992.0,2955.0,3568.0,4095.0,4095.0,2973.0,2547.0,1.48,9.31,7.43,-0.04,0.3,-0.2,0.0,v
2973.0,2993.0,2945.0,3547.0,4095.0,4095.0,2965.0,2535.0,1.07,9.32,7.56,0.09,0.23,-0.23,0.0,v
2989.0,2991.0,2957.0,3559.0,4095.0,4095.0,2974.0,2547.0,0.32,9.47,7.25,0.08,-0.32,-0.31,0.0,v
2989.0,2990.0,2945.0,3555.0,4095.0,4095.0,2967.0,2541.0,0.43,9.5,7.09,0.05,-0.03,-0.06,0.0,v
2995.0,3003.0,2947.0,3553.0,4095.0,4095.0,2981.0,2550.0,0.93,9.37,7.3,0.04,-0.09,0.05,0.0,v
2980.0,2995.0,2953.0,3562.0,4095.0,4095.0,2967.0,2546.0,1.77,9.4,7.13,-0.0,0.16,0.03,0.0,v
2978.0,2991.0,2942.0,3565.0,4095.0,4095.0,2971.0,2541.0,1.84,9.42,7.03,0.09,-0.06,-0.11,0.0,v
2981.0,2985.0,2961.0,3570.0,4095.0,4095.0,2980.0,2546.0,1.74,9.49,6.87,0.06,-0.17,-0.28,0.0,v
2975.0,2992.0,2943.0,3563.0,4095.0,4095.0,2971.0,2544.0,1.01,9.48,6.95,0.03,-0.28,-0.44,0.0,v
2983.0,3005.0,2950.0,3568.0,4095.0,4095.0,2977.0,2558.0,0.37,9.52,7.0,-0.05,-0.21,-0.21,0.0,v
2971.0,2986.0,2952.0,3559.0,4095.0,4095.0,2961.0,2540.0,1.03,9.41,7.32,0.03,0.1,-0.03,0.0,v
2992.0,2993.0,2951.0,3561.0,4095.0,4095.0,2981.0,2545.0,1.69,9.48,6.82,0.07,-0.06,-0.03,0.0,v
3025.0,2992.0,2064.0,3643.0,4095.0,4095.0,2624.0,2768.0,0.23,9.24,7.62,-0.04,0.13,-0.09,0.0,v
3021.0,2998.0,2075.0,3638.0,4095.0,4095.0,2630.0,2777.0,0.05,9.32,7.75,0.03,-0.02,-0.13,0.0,v
3014.0,3009.0,2077.0,3653.0,4095.0,4095.0,2630.0,2781.0,-0.25,9.49,7.93,-0.04,-0.0,0.02,0.0,v
3024.0,3023.0,2085.0,3650.0,4095.0,4095.0,2620.0,2800.0,0.32,9.36,7.46,0.07,-0.0,-0.19,0.0,v
3024.0,3005.0,2076.0,3638.0,4095.0,4095.0,2608.0,2787.0,-0.02,9.38,7.39,0.06,-0.0,-0.19,0.0,v
3014.0,3007.0,2091.0,3652.0,4095.0,4095.0,2597.0,2773.0,0.18,9.22,7.65,-0.02,0.06,-0.07,0.0,v
3013.0,3003.0,2092.0,3665.0,4095.0,4095.0,2608.0,2784.0,0.17,9.36,7.64,0.13,-0.04,-0.15,0.0,v
3018.0,3006.0,2081.0,3655.0,4095.0,4095.0,2608.0,2783.0,0.31,9.44,7.25,0.14,-0.07,-0.16,0.0,v
3027.0,3009.0,2086.0,3648.0,4095.0,4095.0,2620.0,2785.0,0.09,9.49,7.1,-0.0,-0.01,-0.13,0.0,v
3023.0,3007.0,2090.0,3632.0,4095.0,4095.0,2614.0,2781.0,0.13,9.42,7.35,0.03,-0.03,-0.14,0.0,v
3017.0,3007.0,2092.0,3660.0,4095.0,4095.0,2618.0,2774.0,0.25,9.43,7.32,0.03,-0.05,-0.14,0.0,v
3017.0,2991.0,2081.0,3630.0,4095.0,4095.0,2603.0,2755.0,0.28,9.46,7.15,-0.02,-0.07,-0.14,0.0,v
3025.0,3008.0,2089.0,3638.0,4095.0,4095.0,2610.0,2774.0,0.43,9.44,7.15,-0.02,-0.09,-0.17,0.0,v
3014.0,3003.0,2079.0,3620.0,4095.0,4095.0,2615.0,2779.0,0.28,9.41,7.38,-0.05,-0.04,-0.14,0.0,v
3012.0,3001.0,2096.0,3645.0,4095.0,4095.0,2617.0,2781.0,0.46,9.32,7.49,-0.08,-0.03,-0.18,0.0,v
3017.0,3005.0,2083.0,3620.0,4095.0,4095.0,2621.0,2775.0,0.25,9.29,7.8,-0.1,-0.16,-0.24,0.0,v
3007.0,3006.0,2096.0,3626.0,4095.0,4095.0,2630.0,2784.0,0.68,9.35,7.49,0.02,0.12,-0.2,0.0,v
3024.0,3024.0,2103.0,3605.0,4095.0,4095.0,2619.0,2793.0,0.74,9.47,7.03,-0.18,0.27,-0.2,0.0,v
3019.0,2997.0,2095.0,3600.0,4095.0,4095.0,2621.0,2791.0,0.02,9.28,7.45,-0.23,0.19,-0.44,0.0,v
3019.0,3010.0,2099.0,3601.0,4095.0,4095.0,2630.0,2794.0,-0.84,9.03,8.05,-0.2,0.11,-0.47,0.0,v
3009.0,3005.0,2099.0,3616.0,4095.0,4095.0,2627.0,2800.0,-0.7,8.45,9.15,-0.2,0.15,-0.09,0.0,v
3014.0,3008.0,2098.0,3638.0,4095.0,4095.0,2635.0,2803.0,-1.21,8.03,9.95,-0.24,0.03,-0.25,0.0,v
2997.0,3004.0,2099.0,3635.0,4095.0,4095.0,2633.0,2807.0,-1.26,7.94,9.76,-0.13,-0.1,-0.32,0.0,v
2993.0,3008.0,2102.0,3645.0,4095.0,4095.0,2629.0,2799.0,-1.2,8.0,9.88,-0.03,-0.1,-0.29,0.0,v
3003.0,3001.0,2106.0,3635.0,4095.0,4095.0,2638.0,2813.0,-1.76,7.91,10.13,0.06,-0.12,-0.29,0.0,v
3008.0,2991.0,2096.0,3645.0,4095.0,4095.0,2633.0,2805.0,-1.53,8.09,9.62,0.07,-0.08,-0.21,0.0,v
3015.0,3004.0,2111.0,3649.0,4095.0,4095.0,2639.0,2810.0,-1.9,8.01,9.85,0.02,-0.01,-0.15,0.0,v
2998.0,2992.0,2103.0,3648.0,4095.0,4095.0,2634.0,2805.0,-1.69,8.17,9.39,0.08,-0.12,-0.12,0.0,v
3010.0,3014.0,2094.0,3661.0,4095.0,4095.0,2640.0,2817.0,-1.8,8.26,9.44,0.11,-0.13,0.01,0.0,v
2992.0,2999.0,2108.0,3677.0,4095.0,4095.0,2639.0,2807.0,-1.42,7.99,10.23,0.09,-0.06,0.1,0.0,v
3008.0,3003.0,2102.0,3674.0,4095.0,4095.0,2639.0,2814.0,-0.81,8.29,9.52,0.25,0.04,0.1,0.0,v
2999.0,3008.0,2093.0,3671.0,4095.0,4095.0,2637.0,2802.0,-0.55,8.65,8.73,0.24,-0.07,-0.02,0.0,v
3007.0,3011.0,2099.0,3691.0,4095.0,4095.0,2639.0,2810.0,-0.21,8.65,8.89,0.04,-0.03,-0.11,0.0,v
3001.0,2992.0,2100.0,3680.0,4095.0,4095.0,2637.0,2805.0,0.01,8.22,9.37,-0.08,0.11,-0.18,0.0,v
3001.0,3003.0,2096.0,3670.0,4095.0,4095.0,2638.0,2809.0,-1.39,8.52,9.01,0.17,-0.19,-0.28,0.0,v
3006.0,3007.0,2096.0,3675.0,4095.0,4095.0,2640.0,2816.0,-0.74,8.7,9.16,-0.3,0.15,-0.2,0.0,v
2994.0,3009.0,2095.0,3666.0,4095.0,4095.0,2635.0,2815.0,-1.91,7.83,10.34,-0.08,-0.08,-0.22,0.0,v
2994.0,3007.0,2100.0,3678.0,4095.0,4095.0,2630.0,2816.0,-1.34,8.3,9.6,0.23,0.66,0.18,0.0,v
2992.0,3003.0,2083.0,3659.0,4095.0,4095.0,2634.0,2817.0,-0.62,8.52,8.94,0.06,-0.0,0.04,0.0,v
3012.0,3015.0,2096.0,3652.0,4095.0,4095.0,2636.0,2823.0,-0.91,8.56,9.31,0.04,0.05,0.01,0.0,v
3002.0,3005.0,2058.0,3678.0,4095.0,4095.0,2633.0,2819.0,0.73,9.48,6.91,0.2,-0.29,-0.13,0.0,v
2992.0,3008.0,2062.0,3682.0,4095.0,4095.0,2618.0,2810.0,0.39,9.51,6.95,0.24,-0.11,-0.18,0.0,v
2992.0,3014.0,2062.0,3691.0,4095.0,4095.0,2630.0,2821.0,0.24,9.69,6.55,0.17,-0.05,-0.14,0.0,v
2990.0,3007.0,2057.0,3680.0,4095.0,4095.0,2635.0,2814.0,0.35,9.67,6.46,0.04,-0.06,-0.2,0.0,v
3007.0,3016.0,2064.0,3674.0,4095.0,4095.0,2635.0,2827.0,-0.02,9.72,6.42,-0.03,0.03,-0.15,0.0,v
3005.0,3004.0,2059.0,3690.0,4095.0,4095.0,2615.0,2806.0,0.4,9.58,6.96,-0.26,0.15,0.01,0.0,v
3017.0,3005.0,2064.0,3696.0,4095.0,4095.0,2627.0,2821.0,0.88,9.43,7.16,-0.18,0.16,-0.1,0.0,v
3011.0,2992.0,2066.0,3679.0,4095.0,4095.0,2621.0,2821.0,0.56,9.45,7.15,-0.09,0.02,-0.25,0.0,v
3023.0,3007.0,2083.0,3686.0,4095.0,4095.0,2629.0,2827.0,0.01,9.39,7.54,0.08,0.05,-0.24,0.0,v
3019.0,2993.0,2062.0,3651.0,4095.0,4095.0,2637.0,2819.0,-0.1,9.39,7.41,-0.05,0.07,-0.18,0.0,v
3022.0,3006.0,2064.0,3660.0,4095.0,4095.0,2642.0,2821.0,0.11,9.37,7.41,-0.01,0.13,-0.07,0.0,v
3013.0,2999.0,2059.0,3668.0,4095.0,4095.0,2651.0,2829.0,0.11,9.35,7.53,-0.1,0.04,-0.15,0.0,v
3010.0,3007.0,2068.0,3685.0,4095.0,4095.0,2649.0,2830.0,0.12,9.37,7.52,-0.04,-0.0,-0.14,0.0,v
3011.0,3006.0,2066.0,3696.0,4095.0,4095.0,2647.0,2835.0,0.12,9.37,7.49,-0.06,-0.01,-0.15,0.0,v
3003.0,3007.0,2067.0,3667.0,4095.0,4095.0,2656.0,2838.0,0.03,9.3,7.66,-0.06,-0.05,-0.19,0.0,v
3024.0,3005.0,2066.0,3691.0,4095.0,4095.0,2655.0,2845.0,0.24,9.29,7.63,0.01,-0.07,-0.15,0.0,v
3009.0,2996.0,2069.0,3674.0,4095.0,4095.0,2646.0,2834.0,0.24,9.34,7.53,-0.03,-0.01,-0.18,0.0,v
3007.0,3008.0,2065.0,3692.0,4095.0,4095.0,2647.0,2849.0,0.17,9.21,7.85,-0.05,-0.05,-0.23,0.0,v
3012.0,3002.0,2061.0,3693.0,4095.0,4095.0,2630.0,2849.0,0.06,9.21,7.9,-0.03,-0.05,-0.22,0.0,v
3021.0,3010.0,2064.0,3696.0,4095.0,4095.0,2639.0,2850.0,-0.04,9.27,7.88,-0.02,-0.02,-0.25,0.0,v
3014.0,3008.0,2057.0,3698.0,4095.0,4095.0,2656.0,2850.0,0.39,9.18,7.87,0.01,-0.01,-0.15,0.0,v
3010.0,3015.0,2066.0,3712.0,4095.0,4095.0,2657.0,2858.0,0.27,9.21,7.91,0.01,-0.06,-0.18,0.0,v
2999.0,2998.0,2065.0,3712.0,4095.0,4095.0,2651.0,2847.0,0.08,9.2,8.06,0.05,0.01,-0.15,0.0,v
3010.0,2998.0,2065.0,3712.0,4095.0,4095.0,2661.0,2855.0,0.1,9.25,7.82,-0.03,-0.01,-0.12,0.0,v
3007.0,2995.0,2060.0,3703.0,4095.0,4095.0,2651.0,2850.0,0.19,9.24,7.92,-0.01,0.02,-0.12,0.0,v
3024.0,3021.0,2071.0,3710.0,4095.0,4095.0,2663.0,2862.0,0.15,9.18,8.04,0.02,0.01,-0.12,0.0,v
3009.0,2997.0,2064.0,3701.0,4095.0,4095.0,2655.0,2853.0,0.3,9.21,7.96,0.03,0.02,-0.13,0.0,v
3007.0,3004.0,2073.0,3712.0,4095.0,4095.0,2649.0,2843.0,0.43,9.17,7.99,0.0,-0.01,-0.14,0.0,v
3023.0,3009.0,2084.0,3716.0,4095.0,4095.0,2660.0,2855.0,0.21,9.17,8.06,0.01,-0.01,-0.12,0.0,v
3013.0,3011.0,2071.0,3685.0,4095.0,4095.0,2650.0,2854.0,0.44,9.16,7.97,0.01,0.01,-0.13,0.0,v
3022.0,3003.0,2071.0,3721.0,4095.0,4095.0,2656.0,2861.0,0.3,9.15,8.01,0.01,0.03,-0.15,0.0,v
3015.0,2999.0,2071.0,3703.0,4095.0,4095.0,2654.0,2852.0,0.43,9.19,7.96,-0.0,0.02,-0.17,0.0,v
3007.0,3013.0,2070.0,3715.0,4095.0,4095.0,2654.0,2852.0,0.31,9.19,8.02,-0.07,-0.04,-0.22,0.0,v
3013.0,2998.0,2075.0,3711.0,4095.0,4095.0,2653.0,2851.0,0.14,9.11,8.15,-0.1,-0.04,-0.22,0.0,v
3023.0,3015.0,2086.0,3718.0,4095.0,4095.0,2656.0,2854.0,-0.02,9.06,8.23,-0.1,-0.03,-0.2,0.0,v
3018.0,3013.0,2076.0,3705.0,4095.0,4095.0,2642.0,2863.0,-0.04,9.01,8.4,-0.05,0.11,-0.13,0.0,v
3011.0,3014.0,2064.0,3701.0,4095.0,4095.0,2650.0,2863.0,-0.03,9.05,8.39,-0.1,0.05,-0.14,0.0,v
3004.0,2995.0,2070.0,3696.0,4095.0,4095.0,2646.0,2863.0,0.03,8.95,8.63,-0.08,0.08,-0.1,0.0,v
3009.0,3001.0,2079.0,3713.0,4095.0,4095.0,2640.0,2858.0,0.19,8.88,8.65,-0.03,0.01,-0.16,0.0,v
3008.0,3018.0,2073.0,3711.0,4095.0,4095.0,2643.0,2865.0,0.06,8.89,8.7,-0.02,-0.13,-0.2,0.0,v
3006.0,3004.0,2082.0,3701.0,4095.0,4095.0,2650.0,2867.0,0.09,8.86,8.66,-0.06,-0.12,-0.24,0.0,v
3006.0,3005.0,2075.0,3696.0,4095.0,4095.0,2642.0,2860.0,-0.23,8.85,8.65,-0.03,-0.03,-0.18,0.0,v
3009.0,3011.0,2085.0,3717.0,4095.0,4095.0,2645.0,2864.0,0.15,8.72,8.98,-0.06,-0.08,-0.18,0.0,v
2999.0,3002.0,2071.0,3698.0,4095.0,4095.0,2644.0,2863.0,0.06,8.75,8.94,-0.01,-0.12,-0.24,0.0,v
3021.0,3010.0,2079.0,3692.0,4095.0,4095.0,2649.0,2871.0,-0.3,8.68,9.07,0.03,-0.06,-0.17,0.0,v
3007.0,3018.0,2073.0,3690.0,4095.0,4095.0,2643.0,2864.0,0.12,8.78,8.68,0.03,-0.04,-0.14,0.0,v
3008.0,3010.0,2074.0,3702.0,4095.0,4095.0,2653.0,2865.0,-0.05,8.78,8.9,-0.01,-0.06,-0.18,0.0,v
3001.0,3006.0,2064.0,3710.0,4095.0,4095.0,2641.0,2864.0,-0.21,8.63,9.18,-0.1,-0.11,-0.22,0.0,v
3006.0,3001.0,2078.0,3699.0,4095.0,4095.0,2638.0,2863.0,-0.06,8.62,9.09,-0.02,-0.06,-0.21,0.0,v
3007.0,3005.0,2069.0,3714.0,4095.0,4095.0,2646.0,2865.0,-0.17,8.66,8.92,0.08,0.08,-0.13,0.0,v
2999.0,2997.0,2061.0,3697.0,4095.0,4095.0,2640.0,2864.0,-0.17,8.75,9.04,0.0,-0.06,-0.19,0.0,v
3014.0,3006.0,2080.0,3685.0,4095.0,4095.0,2645.0,2865.0,-0.03,8.64,9.04,0.04,-0.14,-0.18,0.0,v
3017.0,3013.0,2075.0,3651.0,4095.0,4095.0,2639.0,2864.0,-0.2,8.66,9.03,0.11,-0.14,-0.25,0.0,v
3005.0,3015.0,2072.0,3664.0,4095.0,4095.0,2650.0,2870.0,-0.3,8.69,8.93,0.1,0.02,-0.17,0.0,v
3004.0,3003.0,2075.0,3653.0,4095.0,4095.0,2646.0,2864.0,-0.08,8.72,9.0,0.03,-0.09,-0.17,0.0,v
3001.0,3008.0,2070.0,3664.0,4095.0,4095.0,2649.0,2878.0,-0.11,8.86,8.83,0.06,-0.09,-0.18,0.0,v
3012.0,3013.0,2065.0,3666.0,4095.0,4095.0,2643.0,2864.0,0.09,8.83,8.96,-0.05,-0.03,-0.13,0.0,v
3003.0,3023.0,2066.0,3691.0,4095.0,4095.0,2646.0,2877.0,-0.21,8.6,9.34,-0.0,-0.11,-0.2,0.0,v
2995.0,3006.0,2066.0,3675.0,4095.0,4095.0,2640.0,2875.0,0.06,8.89,8.62,0.06,-0.01,-0.16,0.0,v
3004.0,3011.0,2071.0,3667.0,4095.0,4095.0,2642.0,2866.0,-0.26,8.77,8.91,-0.04,0.01,-0.19,0.0,v
3015.0,3006.0,2064.0,3694.0,4095.0,4095.0,2643.0,2873.0,-0.46,8.73,9.0,-0.07,-0.05,-0.23,0.0,v
3007.0,2997.0,2063.0,3664.0,4095.0,4095.0,2645.0,2874.0,0.06,8.73,8.88,-0.04,-0.02,-0.15,0.0,v
3018.0,3009.0,2062.0,3694.0,4095.0,4095.0,2651.0,2877.0,-0.49,8.63,9.29,0.0,-0.12,-0.22,0.0,v
3008.0,3003.0,2063.0,3691.0,4095.0,4095.0,2647.0,2874.0,-0.15,8.65,8.98,0.07,-0.07,-0.18,0.0,v
3005.0,3006.0,2065.0,3687.0,4095.0,4095.0,2651.0,2880.0,-0.36,8.72,8.91,0.06,-0.07,-0.13,0.0,v
3011.0,3007.0,2064.0,3694.0,4095.0,4095.0,2645.0,2873.0,0.04,8.66,8.97,-0.01,-0.0,-0.14,0.0,v
3010.0,3008.0,2058.0,3701.0,4095.0,4095.0,2650.0,2876.0,-0.14,8.75,8.89,0.01,0.02,-0.14,0.0,v
3007.0,3011.0,2059.0,3703.0,4095.0,4095.0,2647.0,2874.0,0.11,8.68,9.06,-0.01,0.12,-0.1,0.0,v
3024.0,3010.0,2054.0,3683.0,4095.0,4095.0,2641.0,2866.0,-0.08,8.68,9.53,0.08,-0.03,-0.15,0.0,v
3019.0,3005.0,2043.0,3667.0,4095.0,4095.0,2659.0,2875.0,-0.31,8.93,8.62,-0.0,0.02,-0.13,0.0,v
3024.0,2999.0,2032.0,3671.0,4095.0,4095.0,2660.0,2866.0,0.15,8.84,8.58,0.06,0.03,-0.1,0.0,v
3008.0,3010.0,2033.0,3690.0,4095.0,4095.0,2659.0,2871.0,0.03,8.78,8.67,-0.0,-0.17,-0.25,0.0,v
3022.0,3009.0,2033.0,3681.0,4095.0,4095.0,2655.0,2870.0,-0.09,8.78,8.76,0.04,-0.05,-0.16,0.0,v
3013.0,3010.0,2027.0,3707.0,4095.0,4095.0,2661.0,2879.0,0.0,8.85,8.63,-0.06,0.09,-0.1,0.0,v
3012.0,2999.0,2027.0,3699.0,4095.0,4095.0,2658.0,2875.0,0.07,8.81,8.94,-0.0,-0.04,-0.17,0.0,v
3010.0,3007.0,2034.0,3719.0,4095.0,4095.0,2663.0,2878.0,-0.07,8.79,8.83,-0.03,-0.07,-0.17,0.0,v
3015.0,3001.0,2029.0,3698.0,4095.0,4095.0,2662.0,2875.0,-0.0,8.8,8.96,0.02,-0.06,-0.15,0.0,v
3021.0,3011.0,2036.0,3715.0,4095.0,4095.0,2665.0,2893.0,0.26,8.79,9.0,-0.02,-0.05,-0.17,0.0,v
3019.0,3003.0,2027.0,3719.0,4095.0,4095.0,2665.0,2888.0,-0.12,8.73,8.93,0.02,-0.18,-0.26,0.0,v
3005.0,3011.0,2027.0,3703.0,4095.0,4095.0,2661.0,2880.0,-0.17,8.82,8.63,0.02,0.06,-0.11,0.0,v
3019.0,3012.0,2039.0,3715.0,4095.0,4095.0,2661.0,2879.0,0.0,8.77,8.87,0.01,-0.02,-0.15,0.0,v
3023.0,3014.0,2032.0,3728.0,4095.0,4095.0,2671.0,2881.0,0.03,8.85,8.78,0.01,0.01,-0.16,0.0,v
3008.0,3008.0,2042.0,3727.0,4095.0,4095.0,2659.0,2880.0,-0.11,8.77,9.0,-0.06,-0.06,-0.2,0.0,v
3024.0,3008.0,2035.0,3725.0,4095.0,4095.0,2667.0,2890.0,-0.04,8.76,8.91,-0.0,0.03,-0.12,0.0,v
3017.0,3008.0,2034.0,3712.0,4095.0,4095.0,2665.0,2880.0,0.11,8.77,8.93,0.02,-0.04,-0.17,0.0,v
3013.0,3015.0,2043.0,3737.0,4095.0,4095.0,2669.0,2887.0,-0.05,8.82,8.77,0.07,-0.03,-0.17,0.0,v
3009.0,3017.0,2036.0,3726.0,4095.0,4095.0,2659.0,2877.0,0.12,8.76,8.88,0.01,0.01,-0.13,0.0,v
3021.0,3021.0,2032.0,3727.0,4095.0,4095.0,2657.0,2877.0,-0.05,8.76,8.9,0.05,-0.05,-0.19,0.0,v
3018.0,3003.0,2034.0,3731.0,4095.0,4095.0,2670.0,2883.0,0.12,8.8,8.66,0.0,0.02,-0.14,0.0,v
3001.0,3003.0,2027.0,3722.0,4095.0,4095.0,2661.0,2879.0,0.1,8.73,8.83,0.01,0.02,-0.12,0.0,v
3010.0,3022.0,2034.0,3746.0,4095.0,4095.0,2663.0,2879.0,0.17,8.8,8.8,0.03,-0.03,-0.15,0.0,v
3002.0,2995.0,2025.0,3719.0,4095.0,4095.0,2662.0,2879.0,0.02,8.77,8.8,0.01,-0.02,-0.13,0.0,v
3020.0,3023.0,2033.0,3738.0,4095.0,4095.0,2671.0,2889.0,0.23,8.83,8.69,-0.03,0.03,-0.12,0.0,v
3003.0,3007.0,2032.0,3722.0,4095.0,4095.0,2665.0,2882.0,0.23,8.73,8.9,-0.0,-0.01,-0.14,0.0,v
3007.0,3009.0,2035.0,3728.0,4095.0,4095.0,2669.0,2887.0,0.03,8.75,9.12,0.04,-0.05,-0.15,0.0,v
3002.0,3019.0,2029.0,3718.0,4095.0,4095.0,2661.0,2878.0,0.2,8.76,8.99,0.27,-0.17,-0.2,0.0,v
3015.0,3024.0,2027.0,3700.0,4095.0,4095.0,2662.0,2882.0,-0.02,9.13,8.18,0.11,-0.05,-0.18,0.0,v
3023.0,3008.0,2005.0,3690.0,4095.0,4095.0,2654.0,2878.0,0.21,9.05,8.32,0.05,-0.07,-0.16,0.0,v
3013.0,3024.0,2015.0,3707.0,4095.0,4095.0,2665.0,2889.0,0.09,8.91,8.58,-0.08,-0.02,-0.15,0.0,v
3017.0,3023.0,2016.0,3696.0,4095.0,4095.0,2669.0,2896.0,0.22,8.9,8.65,0.02,-0.01,-0.14,0.0,v
3008.0,3018.0,2005.0,3694.0,4095.0,4095.0,2662.0,2886.0,0.1,8.93,8.52,-0.02,-0.02,-0.17,0.0,v
3007.0,3015.0,2001.0,3687.0,4095.0,4095.0,2665.0,2886.0,0.24,9.01,8.35,0.02,-0.04,-0.17,0.0,v
3007.0,3004.0,2000.0,3702.0,4095.0,4095.0,2670.0,2896.0,-0.01,8.94,8.55,-0.03,-0.05,-0.19,0.0,v
3017.0,3002.0,2000.0,3685.0,4095.0,4095.0,2669.0,2891.0,0.14,8.94,8.49,-0.0,-0.06,-0.17,0.0,v
3003.0,3011.0,1993.0,3703.0,4095.0,4095.0,2672.0,2885.0,0.14,8.92,8.58,0.0,0.03,-0.14,0.0,v
3003.0,3014.0,2005.0,3690.0,4095.0,4095.0,2672.0,2893.0,0.08,8.95,8.48,0.05,0.0,-0.14,0.0,v
2999.0,3009.0,1998.0,3690.0,4095.0,4095.0,2671.0,2892.0,0.24,8.95,8.41,0.01,-0.02,-0.15,0.0,v
3024.0,3023.0,2004.0,3696.0,4095.0,4095.0,2672.0,2896.0,0.06,8.91,8.61,0.02,-0.02,-0.15,0.0,v
3002.0,3014.0,1997.0,3696.0,4095.0,4095.0,2669.0,2885.0,0.09,8.94,8.55,0.02,-0.02,-0.15,0.0,v
3007.0,3025.0,2000.0,3705.0,4095.0,4095.0,2672.0,2896.0,0.17,8.93,8.59,-0.03,-0.0,-0.15,0.0,v
3006.0,3015.0,2002.0,3694.0,4095.0,4095.0,2669.0,2886.0,0.19,8.89,8.58,0.01,-0.01,-0.16,0.0,v
3018.0,3008.0,2001.0,3707.0,4095.0,4095.0,2672.0,2896.0,0.14,8.94,8.49,0.04,-0.01,-0.15,0.0,v
3014.0,2997.0,2001.0,3696.0,4095.0,4095.0,2671.0,2893.0,-0.06,8.85,8.76,0.07,0.07,-0.1,0.0,v
3009.0,3019.0,2007.0,3707.0,4095.0,4095.0,2672.0,2896.0,0.12,8.99,8.41,0.13,0.15,-0.07,0.0,v
3006.0,3006.0,1995.0,3685.0,4095.0,4095.0,2668.0,2894.0,0.27,8.82,8.28,0.05,0.07,-0.2,0.0,v
3019.0,3014.0,1988.0,3696.0,4095.0,4095.0,2670.0,2896.0,0.19,9.05,8.4,0.06,0.15,0.01,0.0,v
3010.0,3005.0,1982.0,3695.0,4095.0,4095.0,2670.0,2890.0,0.57,8.94,8.55,0.05,-0.06,-0.16,0.0,v
3013.0,3013.0,1990.0,3702.0,4095.0,4095.0,2671.0,2890.0,0.1,8.98,8.53,0.01,-0.1,-0.23,0.0,v
3024.0,3021.0,1996.0,3705.0,4095.0,4095.0,2675.0,2895.0,0.19,9.03,8.33,-0.01,0.03,-0.13,0.0,v
3020.0,3007.0,1989.0,3695.0,4095.0,4095.0,2670.0,2889.0,0.58,9.0,8.35,-0.03,-0.06,-0.17,0.0,v
3011.0,3026.0,2000.0,3712.0,4095.0,4095.0,2675.0,2893.0,0.14,8.97,8.45,0.01,0.0,-0.13,0.0,v
3011.0,3014.0,2004.0,3719.0,4095.0,4095.0,2672.0,2895.0,0.18,8.96,8.51,0.01,-0.05,-0.17,0.0,v
3015.0,3014.0,1994.0,3703.0,4095.0,4095.0,2672.0,2891.0,0.06,8.95,8.48,0.04,-0.01,-0.15,0.0,v
3013.0,3011.0,1993.0,3711.0,4095.0,4095.0,2673.0,2897.0,0.09,9.01,8.42,0.05,0.04,-0.11,0.0,v
3003.0,3006.0,1987.0,3709.0,4095.0,4095.0,2673.0,2895.0,0.17,9.0,8.45,0.08,-0.02,-0.15,0.0,v
3010.0,3024.0,1999.0,3719.0,4095.0,4095.0,2679.0,2895.0,0.05,9.0,8.43,0.0,-0.02,-0.15,0.0,v
3021.0,3007.0,2000.0,3711.0,4095.0,4095.0,2672.0,2887.0,0.09,9.01,8.42,0.01,0.01,-0.14,0.0,v
3009.0,3020.0,1997.0,3729.0,4095.0,4095.0,2677.0,2896.0,0.16,9.02,8.33,0.0,-0.02,-0.16,0.0,v
3011.0,3000.0,1996.0,3713.0,4095.0,4095.0,2675.0,2893.0,0.17,8.99,8.4,0.0,-0.03,-0.17,0.0,v
3012.0,3010.0,1999.0,3710.0,4095.0,4095.0,2682.0,2897.0,0.08,8.99,8.43,0.01,-0.03,-0.17,0.0,v
3007.0,3007.0,2000.0,3712.0,4095.0,4095.0,2673.0,2890.0,0.03,9.0,8.42,-0.0,0.03,-0.13,0.0,v
3023.0,3014.0,2000.0,3725.0,4095.0,4095.0,2673.0,2896.0,0.13,8.98,8.42,0.01,0.03,-0.15,0.0,v
3005.0,3006.0,1999.0,3709.0,4095.0,4095.0,2674.0,2899.0,0.15,9.01,8.37,0.03,-0.03,-0.16,0.0,v
2999.0,3015.0,1991.0,3709.0,4095.0,4095.0,2673.0,2896.0,0.01,8.97,8.52,-0.02,0.02,-0.14,0.0,v
3007.0,3014.0,2003.0,3718.0,4095.0,4095.0,2682.0,2901.0,0.11,8.98,8.46,0.02,0.02,-0.14,0.0,v
3015.0,3009.0,1991.0,3708.0,4095.0,4095.0,2680.0,2896.0,0.12,9.07,8.24,0.03,0.06,-0.12,0.0,v
3008.0,3017.0,2005.0,3728.0,4095.0,4095.0,2677.0,2898.0,0.13,8.97,8.44,0.02,0.0,-0.13,0.0,v
3011.0,3009.0,1994.0,3714.0,4095.0,4095.0,2672.0,2891.0,0.23,8.97,8.34,0.02,-0.08,-0.16,0.0,v
3022.0,3015.0,2002.0,3726.0,4095.0,4095.0,2682.0,2899.0,0.15,8.98,8.35,-0.0,0.01,-0.16,0.0,v
3019.0,3011.0,1998.0,3711.0,4095.0,4095.0,2678.0,2896.0,0.1,8.97,8.46,-0.01,0.0,-0.19,0.0,v
3013.0,3013.0,1995.0,3712.0,4095.0,4095.0,2672.0,2898.0,0.1,8.93,8.47,0.04,-0.07,-0.18,0.0,v
3014.0,3015.0,1991.0,3728.0,4095.0,4095.0,2671.0,2895.0,0.07,8.91,8.64,0.05,0.01,-0.12,0.0,v
3014.0,3009.0,1991.0,3702.0,4095.0,4095.0,2671.0,2896.0,0.24,8.91,8.64,0.04,-0.02,-0.16,0.0,v
3023.0,3023.0,2005.0,3726.0,4095.0,4095.0,2679.0,2901.0,0.15,8.94,8.46,0.03,-0.06,-0.18,0.0,v
3018.0,3022.0,1994.0,3714.0,4095.0,4095.0,2672.0,2897.0,0.14,9.0,8.43,0.04,-0.02,-0.14,0.0,v
3006.0,3025.0,2005.0,3728.0,4095.0,4095.0,2683.0,2910.0,0.16,8.98,8.41,0.05,-0.04,-0.14,0.0,v
3010.0,3005.0,1999.0,3703.0,4095.0,4095.0,2673.0,2898.0,0.11,8.98,8.34,0.02,-0.07,-0.15,0.0,v
3006.0,3020.0,2004.0,3728.0,4095.0,4095.0,2683.0,2907.0,0.42,9.0,8.48,-0.02,0.05,-0.13,0.0,v
3005.0,3011.0,2001.0,3715.0,4095.0,4095.0,2675.0,2898.0,0.11,9.03,8.58,0.03,-0.09,-0.25,0.0,v
3022.0,3018.0,1993.0,3728.0,4095.0,4095.0,2688.0,2907.0,-0.17,8.99,8.39,0.02,-0.02,-0.16,0.0,v
3010.0,3009.0,2006.0,3718.0,4095.0,4095.0,2688.0,2909.0,0.21,8.96,8.5,0.02,-0.0,-0.14,0.0,v
3011.0,3019.0,1997.0,3739.0,4095.0,4095.0,2682.0,2899.0,0.08,8.94,8.44,-0.04,-0.03,-0.2,0.0,v
3011.0,3014.0,2000.0,3722.0,4095.0,4095.0,2684.0,2906.0,-0.1,8.92,8.56,0.02,-0.0,-0.17,0.0,v
2997.0,3009.0,1997.0,3714.0,4095.0,4095.0,2673.0,2898.0,-0.12,8.93,8.55,-0.02,0.0,-0.14,0.0,v
3011.0,3027.0,2003.0,3731.0,4095.0,4095.0,2679.0,2905.0,0.16,8.92,8.56,0.05,0.01,-0.1,0.0,v
3006.0,3024.0,2000.0,3727.0,4095.0,4095.0,2667.0,2898.0,0.15,8.95,8.5,-0.01,-0.07,-0.21,0.0,v
3008.0,3009.0,2002.0,3735.0,4095.0,4095.0,2681.0,2899.0,-0.16,8.93,8.53,0.01,-0.04,-0.17,0.0,v
2991.0,3021.0,1999.0,3712.0,4095.0,4095.0,2673.0,2910.0,0.04,8.96,8.48,0.01,0.06,-0.1,0.0,v
3007.0,3027.0,2003.0,3728.0,4095.0,4095.0,2673.0,2909.0,0.23,8.94,8.51,0.03,-0.03,-0.15,0.0,v
2998.0,3011.0,2000.0,3726.0,4095.0,4095.0,2672.0,2901.0,-0.03,8.94,8.54,0.02,-0.03,-0.16,0.0,v
3012.0,3007.0,2987.0,3389.0,4095.0,4095.0,2731.0,2511.0,-0.06,9.52,6.65,0.08,-0.06,-0.31,0.0,v
2999.0,2995.0,2963.0,3376.0,4095.0,4095.0,2720.0,2505.0,-0.29,9.72,6.18,-0.02,0.02,-0.33,0.0,v
2996.0,3010.0,2978.0,3381.0,4095.0,4095.0,2725.0,2513.0,-0.61,9.65,6.2,-0.06,0.08,-0.34,0.0,v
2999.0,2994.0,2980.0,3373.0,4095.0,4095.0,2721.0,2510.0,-1.32,9.52,6.62,-0.03,0.16,-0.18,0.0,v
3005.0,2997.0,2967.0,3379.0,4095.0,4095.0,2727.0,2512.0,-0.87,9.56,6.37,-0.05,0.3,-0.03,0.0,v
2998.0,2993.0,2970.0,3376.0,4095.0,4095.0,2718.0,2510.0,-0.84,9.5,6.81,-0.12,0.35,0.04,0.0,v
3002.0,3008.0,2969.0,3376.0,4095.0,4095.0,2725.0,2512.0,-0.86,9.45,7.08,-0.01,0.12,0.11,0.0,v
2994.0,2989.0,2967.0,3362.0,4095.0,4095.0,2721.0,2511.0,-0.67,9.52,6.82,0.11,-0.1,0.15,0.0,v
2997.0,3006.0,2977.0,3354.0,4095.0,4095.0,2712.0,2518.0,-0.1,9.52,6.75,0.08,-0.1,0.18,0.0,v
2987.0,2990.0,2975.0,3348.0,4095.0,4095.0,2710.0,2513.0,1.23,9.53,6.76,-0.03,-0.2,0.05,0.0,v
2998.0,3008.0,2981.0,3342.0,4095.0,4095.0,2722.0,2527.0,0.17,9.5,7.03,0.04,-0.39,-0.26,0.0,v
2995.0,3001.0,2981.0,3358.0,4095.0,4095.0,2720.0,2527.0,0.43,9.53,6.8,0.13,-0.25,-0.2,0.0,v
2999.0,2991.0,2962.0,3351.0,4095.0,4095.0,2717.0,2523.0,0.6,9.57,6.72,0.17,-0.3,-0.31,0.0,v
2992.0,2992.0,2983.0,3361.0,4095.0,4095.0,2722.0,2527.0,-0.34,9.56,6.98,0.26,-0.38,-0.32,0.0,v
2992.0,2994.0,2966.0,3355.0,4095.0,4095.0,2711.0,2516.0,0.48,9.77,5.88,0.23,-0.16,-0.18,0.0,v
2995.0,3001.0,2967.0,3359.0,4095.0,4095.0,2716.0,2521.0,0.67,9.78,5.82,0.25,-0.32,-0.11,0.0,v
2992.0,3003.0,2976.0,3374.0,4095.0,4095.0,2709.0,2516.0,0.32,9.91,5.45,0.21,-0.22,-0.4,0.0,v
2991.0,3014.0,2977.0,3373.0,4095.0,4095.0,2718.0,2524.0,-0.32,9.84,5.09,0.28,-0.24,-0.37,0.0,v
2972.0,2990.0,2981.0,3369.0,4095.0,4095.0,2719.0,2519.0,-0.36,10.05,4.72,0.1,-0.01,-0.06,0.0,v
2983.0,3009.0,2987.0,3376.0,4095.0,4095.0,2720.0,2529.0,0.17,9.86,5.05,-0.05,-0.13,-0.04,0.0,v
2960.0,2987.0,2982.0,3374.0,4095.0,4095.0,2706.0,2534.0,-1.04,9.55,6.63,-0.23,0.25,-0.19,0.0,v
2981.0,3006.0,2971.0,3392.0,4095.0,4095.0,2706.0,2534.0,-1.12,9.49,6.85,-0.17,0.29,-0.11,0.0,v
2960.0,2991.0,2966.0,3391.0,4095.0,4095.0,2699.0,2534.0,-0.96,9.51,6.81,-0.15,0.28,-0.05,0.0,v
2962.0,2992.0,2971.0,3407.0,4095.0,4095.0,2711.0,2538.0,-1.04,9.62,6.73,-0.23,0.23,0.0,0.0,v
2972.0,3002.0,2969.0,3397.0,4095.0,4095.0,2709.0,2531.0,-0.76,9.49,6.91,-0.24,0.21,-0.03,0.0,v
2974.0,2997.0,2975.0,3409.0,4095.0,4095.0,2716.0,2546.0,-0.8,9.12,7.97,-0.24,0.05,-0.05,0.0,v
2978.0,2986.0,2963.0,3425.0,4095.0,4095.0,2710.0,2534.0,-0.56,9.1,7.61,0.07,-0.06,-0.08,0.0,v
2978.0,2996.0,2974.0,3442.0,4095.0,4095.0,2707.0,2539.0,-0.43,9.14,8.12,-0.11,-0.08,-0.01,0.0,v
2978.0,3008.0,2979.0,3440.0,4095.0,4095.0,2713.0,2544.0,-0.52,9.02,8.26,-0.08,-0.23,-0.05,0.0,v
2958.0,2997.0,2977.0,3440.0,4095.0,4095.0,2705.0,2543.0,0.04,9.05,8.24,-0.03,-0.16,-0.01,0.0,v
2966.0,2993.0,2974.0,3447.0,4095.0,4095.0,2706.0,2551.0,0.32,9.14,8.1,0.12,-0.21,-0.07,0.0,v
2974.0,3002.0,2965.0,3440.0,4095.0,4095.0,2705.0,2545.0,0.5,9.22,7.71,0.12,0.01,-0.06,0.0,v
2973.0,3000.0,2966.0,3441.0,4095.0,4095.0,2713.0,2549.0,0.34,9.31,7.58,0.07,0.16,0.03,0.0,v
2967.0,3001.0,2974.0,3422.0,4095.0,4095.0,2711.0,2549.0,0.53,9.26,7.85,0.17,0.03,-0.1,0.0,v
2971.0,3003.0,2982.0,3413.0,4095.0,4095.0,2718.0,2555.0,0.47,9.34,7.53,0.23,0.06,-0.14,0.0,v
2971.0,3002.0,2961.0,3405.0,4095.0,4095.0,2706.0,2546.0,0.91,9.81,6.97,0.33,0.3,-0.19,0.0,v
2990.0,3013.0,2978.0,3408.0,4095.0,4095.0,2699.0,2553.0,0.78,9.9,6.68,0.22,0.31,-0.09,0.0,v
2979.0,2991.0,2978.0,3409.0,4095.0,4095.0,2688.0,2543.0,0.62,9.6,6.65,0.06,0.19,-0.06,0.0,v
3003.0,3008.0,2981.0,3410.0,4095.0,4095.0,2687.0,2559.0,0.33,9.53,6.83,-0.03,0.19,-0.12,0.0,v
2993.0,2999.0,2985.0,3427.0,4095.0,4095.0,2678.0,2559.0,0.17,9.4,7.42,-0.09,0.07,-0.13,0.0,v
2995.0,2990.0,2971.0,3441.0,4095.0,4095.0,2691.0,2613.0,0.87,9.5,6.9,-0.0,-0.14,-0.2,0.0,v
3000.0,3001.0,2982.0,3461.0,4095.0,4095.0,2701.0,2615.0,0.63,9.53,7.03,0.05,-0.13,-0.19,0.0,v
3006.0,3005.0,2983.0,3462.0,4095.0,4095.0,2701.0,2621.0,0.77,9.33,6.65,0.14,-0.12,-0.11,0.0,v
2999.0,2991.0,2970.0,3447.0,4095.0,4095.0,2703.0,2613.0,1.11,9.6,6.45,0.09,-0.01,-0.06,0.0,v
3006.0,3009.0,2976.0,3469.0,4095.0,4095.0,2699.0,2617.0,1.02,9.58,6.61,0.01,-0.11,-0.17,0.0,v
2994.0,2994.0,2970.0,3453.0,4095.0,4095.0,2697.0,2609.0,1.13,9.59,6.55,0.01,-0.07,-0.2,0.0,v
2997.0,2992.0,2971.0,3455.0,4095.0,4095.0,2709.0,2619.0,0.93,9.61,6.5,0.13,-0.13,-0.19,0.0,v
2994.0,2994.0,2983.0,3455.0,4095.0,4095.0,2702.0,2613.0,0.99,9.69,6.22,-0.0,-0.03,-0.25,0.0,v
2992.0,3011.0,2977.0,3470.0,4095.0,4095.0,2705.0,2619.0,0.54,9.61,6.53,0.02,0.0,-0.18,0.0,v
2992.0,2985.0,2966.0,3442.0,4095.0,4095.0,2705.0,2617.0,0.87,9.59,6.47,0.06,0.11,-0.11,0.0,v
2995.0,3020.0,2987.0,3454.0,4095.0,4095.0,2707.0,2617.0,0.87,9.64,6.46,0.08,-0.01,-0.18,0.0,v
3001.0,3003.0,2991.0,3457.0,4095.0,4095.0,2705.0,2623.0,0.95,9.71,6.12,0.08,-0.04,-0.23,0.0,v
2986.0,2982.0,2971.0,3446.0,4095.0,4095.0,2711.0,2622.0,0.64,9.68,6.27,0.02,-0.11,-0.24,0.0,v
3008.0,2999.0,2988.0,3453.0,4095.0,4095.0,2706.0,2623.0,0.6,9.61,6.54,0.05,-0.16,-0.18,0.0,v
2984.0,3002.0,2980.0,3455.0,4095.0,4095.0,2705.0,2619.0,0.79,9.74,5.97,0.07,-0.01,-0.15,0.0,v
3006.0,3004.0,2975.0,3451.0,4095.0,4095.0,2711.0,2624.0,0.83,9.77,5.82,0.04,-0.09,-0.19,0.0,v
2998.0,3005.0,2976.0,3442.0,4095.0,4095.0,2705.0,2617.0,0.6,9.71,6.14,-0.01,-0.13,-0.25,0.0,v
3008.0,3003.0,2981.0,3463.0,4095.0,4095.0,2711.0,2625.0,0.48,9.73,6.09,0.01,-0.05,-0.2,0.0,v
2999.0,2992.0,2967.0,3455.0,4095.0,4095.0,2704.0,2619.0,0.26,9.76,6.03,0.0,-0.02,-0.19,0.0,v
2992.0,3008.0,2978.0,3457.0,4095.0,4095.0,2714.0,2624.0,0.43,9.77,6.05,-0.02,0.01,-0.14,0.0,v
2999.0,2998.0,2985.0,3455.0,4095.0,4095.0,2720.0,2629.0,0.5,9.85,5.76,-0.08,-0.05,-0.22,0.0,v
2992.0,3008.0,2979.0,3450.0,4095.0,4095.0,2715.0,2626.0,0.11,9.64,6.7,-0.24,0.01,-0.25,0.0,v
2995.0,2995.0,2977.0,3472.0,4095.0,4095.0,2710.0,2627.0,0.03,9.42,7.25,-0.14,0.0,-0.19,0.0,v
2999.0,2998.0,2976.0,3467.0,4095.0,4095.0,2705.0,2621.0,0.17,9.48,7.15,0.03,-0.02,-0.18,0.0,v
2995.0,3003.0,2979.0,3467.0,4095.0,4095.0,2719.0,2629.0,0.1,9.64,6.54,0.03,0.03,-0.17,0.0,v
2992.0,3001.0,2979.0,3463.0,4095.0,4095.0,2710.0,2626.0,0.09,9.58,6.74,-0.01,0.11,-0.13,0.0,v
3001.0,3006.0,2976.0,3657.0,4095.0,4095.0,2721.0,2637.0,0.03,9.49,6.98,-0.04,-0.02,-0.06,0.0,v
3004.0,3005.0,2973.0,3431.0,4095.0,4095.0,2722.0,2634.0,-0.16,9.97,6.84,-0.14,0.09,-0.09,0.0,v
3012.0,3004.0,2967.0,3453.0,4095.0,4095.0,2735.0,2641.0,0.26,9.51,6.98,-0.1,0.18,-0.09,0.0,v
3006.0,3009.0,2978.0,3462.0,4095.0,4095.0,2724.0,2637.0,0.07,9.39,7.33,-0.11,0.19,-0.1,0.0,v
3006.0,2992.0,2981.0,3459.0,4095.0,4095.0,2731.0,2640.0,0.43,9.36,7.43,-0.03,0.04,-0.1,0.0,v
3014.0,3008.0,2973.0,3472.0,4095.0,4095.0,2738.0,2645.0,0.14,9.39,7.53,-0.02,-0.04,-0.17,0.0,v
3002.0,3003.0,2973.0,3467.0,4095.0,4095.0,2731.0,2640.0,0.33,9.37,7.46,-0.03,-0.0,-0.14,0.0,v
3008.0,2992.0,2977.0,3475.0,4095.0,4095.0,2735.0,2649.0,-0.08,9.34,7.62,0.01,-0.06,-0.08,0.0,v
3002.0,2994.0,2963.0,3470.0,4095.0,4095.0,2732.0,2641.0,0.95,9.33,7.42,-0.04,0.01,-0.15,0.0,v
3014.0,2995.0,2981.0,3481.0,4095.0,4095.0,2736.0,2650.0,0.44,9.37,7.58,0.12,-0.18,-0.34,0.0,v
3003.0,2991.0,2982.0,3469.0,4095.0,4095.0,2732.0,2646.0,0.24,9.49,6.89,0.09,-0.13,-0.35,0.0,v
3011.0,3002.0,2985.0,3487.0,4095.0,4095.0,2733.0,2651.0,0.43,9.4,7.33,-0.11,-0.21,-0.43,0.0,v
3007.0,2990.0,2977.0,3472.0,4095.0,4095.0,2725.0,2641.0,-0.93,9.35,7.62,0.05,-0.28,-0.34,0.0,v
3015.0,2999.0,2982.0,3475.0,4095.0,4095.0,2729.0,2645.0,-0.16,9.39,7.33,-0.05,-0.03,-0.16,0.0,v
3001.0,3004.0,2964.0,3484.0,4095.0,4095.0,2723.0,2651.0,0.66,9.54,6.53,-0.14,0.33,-0.24,0.0,v
2999.0,3001.0,2965.0,3489.0,4095.0,4095.0,2734.0,2651.0,-0.98,9.22,7.48,-0.38,0.14,-0.49,0.0,v
2992.0,3007.0,2970.0,3481.0,4095.0,4095.0,2721.0,2645.0,-1.81,8.74,9.0,-0.35,0.18,-0.31,0.0,v
2998.0,2992.0,2977.0,3491.0,4095.0,4095.0,2727.0,2646.0,-1.01,8.65,9.06,-0.17,0.06,-0.13,0.0,v
2995.0,2992.0,2966.0,3482.0,4095.0,4095.0,2728.0,2646.0,-1.57,8.39,9.1,0.01,-0.11,-0.25,0.0,v
3011.0,3006.0,2971.0,3487.0,4095.0,4095.0,2735.0,2650.0,-1.71,8.43,9.72,0.04,-0.14,0.0,0.0,v
2995.0,2997.0,2963.0,3487.0,4095.0,4095.0,2731.0,2647.0,-0.66,8.91,8.35,0.39,-0.2,-0.07,0.0,v
3010.0,3012.0,2974.0,3488.0,4095.0,4095.0,2735.0,2656.0,-0.78,9.19,7.61,0.57,-0.2,-0.23,0.0,v
2979.0,3004.0,2977.0,3486.0,4095.0,4095.0,2726.0,2645.0,-0.92,9.37,7.13,0.18,-0.19,-0.25,0.0,v
3007.0,2996.0,2985.0,3479.0,4095.0,4095.0,2736.0,2658.0,-0.75,9.27,7.41,0.12,-0.1,-0.26,0.0,v
2992.0,2992.0,2970.0,3476.0,4095.0,4095.0,2736.0,2651.0,-1.19,9.22,7.5,-0.05,-0.08,-0.24,0.0,v
2995.0,2998.0,2971.0,3478.0,4095.0,4095.0,2735.0,2649.0,-0.63,9.23,7.3,-0.15,0.06,-0.09,0.0,v
2991.0,2997.0,2973.0,3498.0,4095.0,4095.0,2735.0,2654.0,-0.89,9.2,7.55,-0.27,0.25,-0.22,0.0,v
2992.0,2998.0,2979.0,3481.0,4095.0,4095.0,2721.0,2652.0,-1.77,8.94,8.67,-0.46,-0.06,-0.27,0.0,v
2992.0,2994.0,2979.0,3499.0,4095.0,4095.0,2734.0,2652.0,-2.04,8.53,9.28,-0.06,-0.03,-0.18,0.0,v
3006.0,2989.0,2980.0,3487.0,4095.0,4095.0,2733.0,2657.0,-1.19,8.51,9.43,0.23,-0.08,-0.06,0.0,v
2998.0,3003.0,2975.0,3491.0,4095.0,4095.0,2735.0,2661.0,-1.52,8.73,8.86,0.5,-0.28,-0.09,0.0,v
2989.0,2992.0,2969.0,3491.0,4095.0,4095.0,2733.0,2647.0,-0.65,8.96,7.82,0.54,-0.35,-0.06,0.0,v
2993.0,3006.0,2977.0,3499.0,4095.0,4095.0,2735.0,2654.0,-0.72,9.08,7.41,0.77,-0.53,-0.1,0.0,v
2992.0,2993.0,2967.0,3494.0,4095.0,4095.0,2732.0,2653.0,-0.82,9.77,5.75,0.53,-0.47,-0.1,0.0,v
3000.0,2993.0,2984.0,3509.0,4095.0,4095.0,2733.0,2661.0,-0.29,9.65,5.94,0.22,-0.28,-0.21,0.0,v
3003.0,2988.0,2960.0,3490.0,4095.0,4095.0,2733.0,2654.0,-1.24,9.85,5.27,0.25,-0.28,-0.33,0.0,v
2993.0,2997.0,2981.0,3504.0,4095.0,4095.0,2736.0,2666.0,-0.68,9.93,4.84,0.12,-0.01,-0.1,0.0,v
2997.0,2987.0,2967.0,3487.0,4095.0,4095.0,2736.0,2655.0,-0.91,9.86,5.23,0.02,0.05,-0.07,0.0,v
3007.0,2992.0,2972.0,3499.0,4095.0,4095.0,2736.0,2669.0,-0.81,9.78,5.41,0.04,0.13,-0.03,0.0,v
2985.0,2987.0,2965.0,3499.0,4095.0,4095.0,2735.0,2653.0,-0.62,9.9,4.93,0.07,0.21,0.01,0.0,v
3019.0,3007.0,2967.0,3502.0,4095.0,4095.0,2739.0,2661.0,-0.52,9.88,4.88,0.06,0.29,0.11,0.0,v
3008.0,2992.0,2975.0,3501.0,4095.0,4095.0,2735.0,2653.0,0.21,9.86,4.92,-0.02,0.3,0.15,0.0,v
3019.0,3005.0,2987.0,3495.0,4095.0,4095.0,2738.0,2667.0,0.44,9.89,4.86,0.01,0.12,-0.06,0.0,v
3009.0,3011.0,2971.0,3491.0,4095.0,4095.0,2735.0,2663.0,0.01,9.89,5.03,-0.04,-0.06,-0.16,0.0,v
2992.0,3006.0,2988.0,3505.0,4095.0,4095.0,2731.0,2665.0,0.23,9.84,5.18,-0.06,-0.06,-0.19,0.0,v
3003.0,3002.0,2976.0,3505.0,4095.0,4095.0,2724.0,2663.0,0.19,9.77,5.4,0.01,-0.12,-0.19,0.0,v
2993.0,2981.0,2962.0,3696.0,4095.0,4095.0,2718.0,2659.0,0.04,9.91,5.0,0.12,-0.11,-0.16,0.0,v
3003.0,3003.0,2977.0,3502.0,4095.0,4095.0,2731.0,2672.0,0.41,9.96,4.65,-0.04,-0.04,-0.11,0.0,v
2983.0,3001.0,2974.0,3697.0,4095.0,4095.0,2721.0,2662.0,0.02,9.84,5.2,0.05,-0.12,-0.13,0.0,v
3007.0,3005.0,2967.0,3492.0,4095.0,4095.0,2727.0,2667.0,0.47,9.89,4.94,0.04,0.0,-0.16,0.0,v
2976.0,2999.0,2977.0,3699.0,4095.0,4095.0,2713.0,2661.0,0.4,9.81,5.24,-0.01,-0.08,-0.16,0.0,v
2993.0,2999.0,2973.0,3705.0,4095.0,4095.0,2725.0,2666.0,-0.28,9.8,5.39,-0.01,-0.19,-0.29,0.0,v
2983.0,2997.0,2963.0,3691.0,4095.0,4095.0,2715.0,2665.0,-0.09,9.91,4.97,0.0,0.11,-0.01,0.0,v
2992.0,3016.0,2978.0,3701.0,4095.0,4095.0,2720.0,2672.0,0.35,9.79,5.36,0.01,-0.02,-0.02,0.0,v
2983.0,2993.0,2979.0,3686.0,4095.0,4095.0,2726.0,2671.0,0.2,9.94,4.9,-0.09,-0.07,-0.18,0.0,v
2994.0,2995.0,2974.0,3699.0,4095.0,4095.0,2724.0,2677.0,0.62,9.85,5.44,-0.05,0.08,-0.11,0.0,v
2993.0,2990.0,2971.0,3696.0,4095.0,4095.0,2721.0,2671.0,0.36,9.83,5.3,0.06,0.08,-0.08,0.0,v
3002.0,3003.0,2980.0,3696.0,4095.0,4095.0,2729.0,2672.0,0.6,9.88,5.13,-0.03,0.01,-0.1,0.0,v
2992.0,2992.0,2973.0,3687.0,4095.0,4095.0,2726.0,2672.0,0.62,9.87,5.12,-0.05,-0.04,-0.13,0.0,v
3008.0,2988.0,2981.0,3686.0,4095.0,4095.0,2736.0,2679.0,0.74,9.81,5.17,-0.02,-0.03,-0.14,0.0,v
3008.0,2993.0,2973.0,3683.0,4095.0,4095.0,2733.0,2673.0,0.69,9.87,5.19,-0.07,-0.11,-0.19,0.0,v
3013.0,2994.0,2966.0,3690.0,4095.0,4095.0,2736.0,2684.0,0.7,9.81,5.34,-0.06,-0.07,-0.16,0.0,v
3003.0,3003.0,2972.0,3677.0,4095.0,4095.0,2736.0,2678.0,0.42,9.78,5.44,-0.03,-0.0,-0.18,0.0,v
2998.0,2999.0,2980.0,3697.0,4095.0,4095.0,2738.0,2684.0,0.7,9.78,5.43,-0.0,0.06,-0.14,0.0,v
3017.0,3002.0,2985.0,3697.0,4095.0,4095.0,2736.0,2683.0,0.58,9.79,5.5,-0.02,-0.04,-0.2,0.0,v
3002.0,2996.0,2970.0,3693.0,4095.0,4095.0,2736.0,2674.0,0.47,9.87,5.28,0.0,0.01,-0.22,0.0,v
3010.0,2999.0,2963.0,3702.0,4095.0,4095.0,2736.0,2679.0,0.38,9.83,5.42,-0.04,-0.01,-0.19,0.0,v
2985.0,3001.0,2963.0,3693.0,4095.0,4095.0,2737.0,2673.0,0.36,9.88,5.41,-0.07,0.05,-0.12,0.0,v
2992.0,3005.0,2972.0,3702.0,4095.0,4095.0,2743.0,2685.0,0.57,9.87,5.46,-0.1,0.05,-0.11,0.0,v
2996.0,2992.0,2976.0,3696.0,4095.0,4095.0,2735.0,2675.0,0.69,9.8,5.7,-0.07,-0.04,-0.2,0.0,v
2991.0,2992.0,2978.0,3702.0,4095.0,4095.0,2747.0,2681.0,0.3,9.77,5.85,-0.05,-0.02,-0.2,0.0,v
2987.0,2992.0,2967.0,3694.0,4095.0,4095.0,2739.0,2677.0,0.44,9.82,5.81,-0.03,0.06,-0.18,0.0,v
3007.0,2994.0,2966.0,3701.0,4095.0,4095.0,2740.0,2677.0,0.51,9.72,5.82,-0.0,-0.08,-0.23,0.0,v
2992.0,2991.0,2968.0,3700.0,4095.0,4095.0,2735.0,2672.0,0.26,9.76,5.89,0.01,-0.03,-0.22,0.0,v
2979.0,2995.0,2969.0,3695.0,4095.0,4095.0,2737.0,2677.0,0.03,9.7,5.84,0.05,-0.01,-0.13,0.0,v
2990.0,2991.0,2978.0,3703.0,4095.0,4095.0,2736.0,2688.0,0.47,9.8,5.83,-0.02,-0.01,-0.15,0.0,v
2986.0,2991.0,2972.0,3699.0,4095.0,4095.0,2735.0,2679.0,0.04,9.77,5.87,0.02,-0.03,-0.19,0.0,v
2999.0,2997.0,2989.0,3707.0,4095.0,4095.0,2743.0,2689.0,0.15,9.76,5.96,-0.01,-0.05,-0.2,0.0,v
2994.0,2997.0,2967.0,3705.0,4095.0,4095.0,2736.0,2677.0,0.12,9.76,5.92,0.05,-0.02,-0.12,0.0,v
2989.0,3006.0,2978.0,3707.0,4095.0,4095.0,2736.0,2687.0,0.35,9.79,5.77,0.03,-0.03,-0.19,0.0,v
2979.0,3001.0,2961.0,3701.0,4095.0,4095.0,2736.0,2679.0,0.01,9.72,6.02,0.06,0.02,-0.17,0.0,v
2994.0,3007.0,2978.0,3700.0,4095.0,4095.0,2742.0,2692.0,0.29,9.79,5.67,0.06,-0.01,-0.13,0.0,v
2992.0,2988.0,2960.0,3699.0,4095.0,4095.0,2736.0,2686.0,0.11,9.81,5.73,0.01,0.02,-0.11,0.0,v
2983.0,2997.0,2973.0,3711.0,4095.0,4095.0,2736.0,2682.0,0.42,9.77,5.7,0.0,-0.04,-0.17,0.0,v
2992.0,3006.0,2975.0,3721.0,4095.0,4095.0,2736.0,2683.0,-0.11,9.74,5.99,-0.01,-0.06,-0.24,0.0,v
2971.0,2993.0,2971.0,3696.0,4095.0,4095.0,2736.0,2686.0,-0.09,9.83,5.72,0.07,-0.02,-0.09,0.0,v
2987.0,2999.0,2975.0,3703.0,4095.0,4095.0,2738.0,2691.0,0.24,9.86,5.6,0.02,0.06,-0.12,0.0,v
2967.0,2987.0,2981.0,3713.0,4095.0,4095.0,2735.0,2680.0,0.21,9.82,5.66,0.0,-0.0,-0.18,0.0,v
2987.0,2992.0,2965.0,3710.0,4095.0,4095.0,2740.0,2687.0,0.01,9.79,5.65,0.05,0.0,-0.16,0.0,v
2978.0,2992.0,2975.0,3706.0,4095.0,4095.0,2735.0,2681.0,0.19,9.82,5.54,-0.0,-0.03,-0.17,0.0,v
2980.0,3008.0,2983.0,3710.0,4095.0,4095.0,2742.0,2689.0,0.14,9.72,5.94,0.01,-0.08,-0.18,0.0,v
2981.0,2991.0,2980.0,3696.0,4095.0,4095.0,2736.0,2687.0,0.04,9.84,5.61,0.09,-0.09,-0.18,0.0,v
2976.0,2999.0,2982.0,3703.0,4095.0,4095.0,2742.0,2689.0,-0.04,9.86,5.46,0.05,-0.02,-0.15,0.0,v
2971.0,2990.0,2963.0,3698.0,4095.0,4095.0,2738.0,2687.0,0.02,9.81,5.72,0.03,0.01,-0.16,0.0,v
2999.0,3003.0,2986.0,3698.0,4095.0,4095.0,2739.0,2697.0,0.39,9.84,5.36,-0.0,-0.01,-0.15,0.0,v
2998.0,2994.0,2972.0,3686.0,4095.0,4095.0,2735.0,2688.0,0.41,9.83,5.53,-0.02,-0.05,-0.16,0.0,v
3008.0,3008.0,2978.0,3695.0,4095.0,4095.0,2736.0,2701.0,0.53,9.79,5.66,0.05,-0.0,-0.16,0.0,v
2997.0,2994.0,2976.0,3679.0,4095.0,4095.0,2734.0,2696.0,0.33,9.85,5.42,0.0,-0.0,-0.2,0.0,v
3007.0,2999.0,2963.0,3696.0,4095.0,4095.0,2737.0,2698.0,0.21,9.8,5.59,0.01,0.07,-0.13,0.0,v
3007.0,2987.0,2975.0,3681.0,4095.0,4095.0,2725.0,2694.0,0.34,9.83,5.55,-0.05,0.04,-0.1,0.0,v
3024.0,2992.0,2982.0,3299.0,4095.0,4095.0,2725.0,2700.0,0.67,9.88,5.55,-0.1,-0.02,-0.09,0.0,v
3005.0,2993.0,2971.0,3378.0,4095.0,4095.0,2724.0,2699.0,0.57,9.77,5.76,-0.11,-0.03,-0.16,0.0,v
3023.0,3003.0,2979.0,3391.0,4095.0,4095.0,2718.0,2703.0,0.34,9.71,5.95,-0.03,-0.03,-0.14,0.0,v
3027.0,3011.0,2974.0,3399.0,4095.0,4095.0,2736.0,2710.0,0.48,9.82,5.81,-0.01,0.01,-0.14,0.0,v
3026.0,2989.0,2966.0,3401.0,4095.0,4095.0,2736.0,2710.0,0.45,9.77,5.83,0.02,-0.01,-0.17,0.0,v
3013.0,2992.0,2978.0,3415.0,4095.0,4095.0,2736.0,2714.0,0.39,9.51,6.09,0.01,-0.01,-0.06,0.0,v
3011.0,2992.0,2974.0,3410.0,4095.0,4095.0,2735.0,2706.0,0.49,9.78,5.71,0.0,0.06,-0.11,0.0,v
3025.0,2998.0,2985.0,3410.0,4095.0,4095.0,2736.0,2710.0,0.48,9.78,5.75,0.0,-0.03,-0.14,0.0,v
3023.0,2997.0,2961.0,3408.0,4095.0,4095.0,2736.0,2695.0,0.36,9.83,5.81,0.0,0.03,-0.11,0.0,v
3007.0,2992.0,2981.0,3437.0,4095.0,4095.0,2742.0,2704.0,0.7,9.82,5.73,0.01,0.06,-0.12,0.0,v
3023.0,3003.0,2977.0,3462.0,4095.0,4095.0,2735.0,2702.0,0.53,9.75,5.78,-0.03,-0.03,-0.17,0.0,v
3022.0,3008.0,2981.0,3472.0,4095.0,4095.0,2743.0,2709.0,0.51,9.75,5.86,0.02,-0.02,-0.15,0.0,v
3023.0,2987.0,2965.0,3470.0,4095.0,4095.0,2737.0,2704.0,0.71,9.77,5.92,-0.05,-0.04,-0.11,0.0,v
3012.0,3006.0,2982.0,3481.0,4095.0,4095.0,2746.0,2709.0,0.5,9.78,5.83,0.02,0.01,-0.14,0.0,v
3023.0,2998.0,2977.0,3507.0,4095.0,4095.0,2742.0,2713.0,0.44,9.83,5.35,0.02,0.02,-0.19,0.0,v
3008.0,2995.0,2960.0,3495.0,4095.0,4095.0,2746.0,2713.0,0.41,9.82,5.37,0.0,0.0,-0.16,0.0,v
3027.0,2992.0,2966.0,3503.0,4095.0,4095.0,2752.0,2723.0,0.51,9.86,5.44,0.01,-0.04,-0.13,0.0,v
3008.0,3001.0,2971.0,3504.0,4095.0,4095.0,2742.0,2711.0,0.58,9.72,5.68,-0.0,-0.05,-0.14,0.0,v
3021.0,2994.0,2979.0,3510.0,4095.0,4095.0,2747.0,2716.0,0.63,9.88,5.24,0.08,-0.04,-0.11,0.0,v
3010.0,2992.0,2972.0,3505.0,4095.0,4095.0,2745.0,2716.0,0.66,9.86,5.29,0.01,-0.03,-0.12,0.0,v
3011.0,2997.0,2971.0,3493.0,4095.0,4095.0,2749.0,2709.0,0.8,9.93,5.09,-0.0,-0.01,-0.16,0.0,v
3021.0,2998.0,2971.0,3504.0,4095.0,4095.0,2754.0,2715.0,0.54,9.78,5.39,-0.0,-0.01,-0.18,0.0,v
3015.0,2989.0,2959.0,3484.0,4095.0,4095.0,2753.0,2714.0,0.52,9.82,5.43,0.0,0.06,-0.11,0.0,v
3008.0,2986.0,2965.0,3504.0,4095.0,4095.0,2749.0,2712.0,0.67,9.81,5.37,0.01,0.05,-0.14,0.0,v
2996.0,2983.0,2960.0,3491.0,4095.0,4095.0,2746.0,2711.0,0.73,9.84,5.37,-0.01,-0.02,-0.2,0.0,v
3014.0,3002.0,2977.0,3470.0,4095.0,4095.0,2752.0,2719.0,0.53,9.84,5.33,-0.01,-0.03,-0.22,0.0,v
3015.0,2998.0,2973.0,3467.0,4095.0,4095.0,2751.0,2718.0,0.43,9.84,5.42,-0.03,-0.04,-0.18,0.0,v
3007.0,3002.0,2980.0,3462.0,4095.0,4095.0,2753.0,2713.0,0.62,9.8,5.5,-0.05,-0.06,-0.19,0.0,v
3018.0,2994.0,2960.0,3462.0,4095.0,4095.0,2741.0,2704.0,0.59,9.81,5.6,-0.05,-0.07,-0.29,0.0,v
3019.0,2996.0,2969.0,3472.0,4095.0,4095.0,2752.0,2711.0,0.33,9.76,5.69,0.0,-0.17,-0.37,0.0,v
3015.0,2995.0,2963.0,3458.0,4095.0,4095.0,2743.0,2710.0,-0.28,9.85,5.58,0.03,-0.06,-0.27,0.0,v
3014.0,3003.0,2975.0,3478.0,4095.0,4095.0,2746.0,2707.0,0.0,9.9,5.39,-0.02,-0.03,-0.18,0.0,v
3020.0,3006.0,2972.0,3481.0,4095.0,4095.0,2747.0,2713.0,0.14,9.86,5.52,-0.08,-0.05,-0.25,0.0,v
3003.0,3003.0,2965.0,3472.0,4095.0,4095.0,2745.0,2710.0,-0.48,9.8,5.71,-0.05,-0.04,-0.18,0.0,v
