hall_1,hall_2,hall_3,flex_t,flex_i,flex_m,flex_r,flex_p,accel_x,accel_y,accel_z,gyro_x,gyro_y,gyro_z,hand,sign
2855.0,2944.0,3543.0,3024.0,4095.0,4095.0,3147.0,3369.0,0.24,9.34,3.94,-0.11,0.0,-0.07,1.0,v
2861.0,2947.0,3547.0,3024.0,4095.0,4095.0,3151.0,3392.0,-0.5,9.14,4.05,0.06,-0.0,-0.15,1.0,v
2845.0,2963.0,3549.0,3043.0,4095.0,4095.0,3149.0,3380.0,-0.21,9.44,3.59,-0.04,0.05,0.0,1.0,v
2855.0,2954.0,3543.0,3051.0,4095.0,4095.0,3134.0,3370.0,0.1,9.51,3.73,-0.12,-0.05,-0.04,1.0,v
2861.0,2962.0,3543.0,3053.0,4095.0,4095.0,3149.0,3376.0,0.1,9.28,4.19,-0.14,-0.03,-0.04,1.0,v
2855.0,2962.0,3537.0,3045.0,4095.0,4095.0,3138.0,3363.0,0.4,9.33,4.3,0.07,-0.18,-0.16,1.0,v
2850.0,2956.0,3546.0,3055.0,4095.0,4095.0,3149.0,3382.0,-0.27,9.45,3.59,0.06,0.02,-0.07,1.0,v
2854.0,2966.0,3543.0,3046.0,4095.0,4095.0,3135.0,3379.0,-0.05,9.59,3.38,-0.01,0.08,0.04,1.0,v
2861.0,2951.0,3547.0,3056.0,4095.0,4095.0,3152.0,3383.0,-0.02,9.52,3.6,-0.13,0.06,0.04,1.0,v
2852.0,2957.0,3545.0,3056.0,4095.0,4095.0,3143.0,3373.0,-0.04,9.31,3.9,-0.14,0.04,0.06,1.0,v
2854.0,2957.0,3547.0,3058.0,4095.0,4095.0,3154.0,3371.0,0.12,9.38,3.9,-0.05,-0.0,-0.08,1.0,v
2857.0,2952.0,3549.0,3055.0,4095.0,4095.0,3147.0,3377.0,0.19,9.41,3.81,-0.07,-0.03,-0.06,1.0,v
2864.0,2961.0,3561.0,3060.0,4095.0,4095.0,3152.0,3382.0,0.06,9.48,3.59,-0.14,-0.03,-0.25,1.0,v
2864.0,2974.0,3536.0,3059.0,4095.0,4095.0,3148.0,3391.0,-0.64,9.37,3.8,-0.03,0.13,-0.07,1.0,v
2853.0,2965.0,3547.0,3055.0,4095.0,4095.0,3152.0,3386.0,-0.24,9.19,4.12,-0.09,0.09,0.05,1.0,v
2870.0,2964.0,3534.0,3050.0,4095.0,4095.0,3157.0,3394.0,-0.38,9.36,3.8,-0.02,0.04,-0.01,1.0,v
2859.0,2979.0,3509.0,3042.0,4095.0,4095.0,3157.0,3401.0,-0.36,9.54,3.43,-0.03,-0.0,0.04,1.0,v
2857.0,2969.0,3529.0,3050.0,4095.0,4095.0,3166.0,3407.0,0.15,9.41,3.94,-0.11,0.04,0.04,1.0,v
2847.0,2961.0,3508.0,3049.0,4095.0,4095.0,3152.0,3392.0,-0.04,9.41,3.8,-0.04,0.02,-0.02,1.0,v
2848.0,2955.0,3536.0,3056.0,4095.0,4095.0,3159.0,3402.0,-0.06,9.43,3.7,-0.08,0.0,-0.03,1.0,v
2851.0,2960.0,3507.0,3035.0,4095.0,4095.0,3169.0,3457.0,-0.2,9.45,3.62,-0.02,-0.02,-0.04,1.0,v
2843.0,2961.0,3499.0,3034.0,4095.0,4095.0,3164.0,3446.0,0.36,9.47,3.78,-0.1,0.01,0.0,1.0,v
2849.0,2957.0,3502.0,3035.0,4095.0,4095.0,3157.0,3455.0,-0.07,9.55,3.48,-0.02,0.05,-0.04,1.0,v
2831.0,2951.0,3503.0,3034.0,4095.0,4095.0,3162.0,3456.0,-0.06,9.41,3.66,-0.1,-0.1,-0.04,1.0,v
2838.0,2964.0,3520.0,3045.0,4095.0,4095.0,3168.0,3455.0,0.11,9.4,3.91,-0.06,0.05,-0.02,1.0,v
2832.0,2963.0,3495.0,3026.0,4095.0,4095.0,3168.0,3452.0,0.01,9.47,3.64,-0.03,-0.0,-0.02,1.0,v
2827.0,2964.0,3504.0,3035.0,4095.0,4095.0,3164.0,3459.0,0.05,9.48,3.65,-0.1,0.01,-0.01,1.0,v
2832.0,2973.0,3497.0,3024.0,4095.0,4095.0,3165.0,3446.0,0.29,9.33,4.11,-0.04,-0.03,-0.08,1.0,v
2832.0,2966.0,3508.0,3038.0,4095.0,4095.0,3178.0,3469.0,-0.12,9.54,3.34,-0.03,-0.01,-0.02,1.0,v
2822.0,2956.0,3503.0,3023.0,4095.0,4095.0,3161.0,3456.0,0.09,9.41,3.71,-0.11,0.06,0.02,1.0,v
2833.0,2962.0,3521.0,3024.0,4095.0,4095.0,3166.0,3461.0,0.0,9.34,3.97,-0.04,0.07,-0.03,1.0,v
2832.0,2960.0,3498.0,3010.0,4095.0,4095.0,3164.0,3458.0,0.12,9.43,3.75,-0.02,-0.03,-0.08,1.0,v
2834.0,2967.0,3502.0,2993.0,4095.0,4095.0,3165.0,3470.0,0.09,9.46,3.63,-0.08,-0.01,-0.03,1.0,v
2832.0,2963.0,3509.0,3009.0,4095.0,4095.0,3170.0,3490.0,0.04,9.4,3.74,-0.05,0.03,-0.02,1.0,v
2818.0,2961.0,3504.0,2992.0,4095.0,4095.0,3162.0,3472.0,-0.0,9.45,3.64,-0.01,-0.04,-0.06,1.0,v
2830.0,2977.0,3510.0,2993.0,4095.0,4095.0,3171.0,3475.0,-0.01,9.47,3.54,-0.01,0.06,-0.02,1.0,v
2825.0,2960.0,3490.0,2996.0,4095.0,4095.0,3167.0,3477.0,0.18,9.46,3.73,-0.09,-0.02,-0.03,1.0,v
2834.0,2963.0,3503.0,3015.0,4095.0,4095.0,3171.0,3479.0,0.16,9.37,3.91,-0.06,0.03,-0.02,1.0,v
2832.0,2956.0,3487.0,3007.0,4095.0,4095.0,3178.0,3481.0,-0.04,9.5,3.41,-0.03,0.01,-0.02,1.0,v
2823.0,2972.0,3535.0,3020.0,4095.0,4095.0,3170.0,3471.0,0.06,9.45,3.66,-0.06,0.05,-0.01,1.0,v
2830.0,2986.0,3536.0,3029.0,4095.0,4095.0,3199.0,3535.0,-0.9,9.05,4.52,-0.28,0.23,0.21,1.0,v
2831.0,2973.0,3514.0,3029.0,4095.0,4095.0,3190.0,3516.0,-0.7,8.87,4.87,-0.27,-0.03,0.11,1.0,v
2835.0,2969.0,3519.0,3030.0,4095.0,4095.0,3210.0,3537.0,-0.73,8.62,5.74,-0.04,-0.21,-0.04,1.0,v
2819.0,2979.0,3519.0,3018.0,4095.0,4095.0,3196.0,3532.0,-0.98,8.72,4.99,0.22,-0.24,-0.08,1.0,v
2835.0,2992.0,3525.0,3017.0,4095.0,4095.0,3194.0,3549.0,-0.6,9.25,4.09,0.11,-0.74,-0.31,1.0,v
2847.0,2970.0,3527.0,3013.0,4095.0,4095.0,3200.0,3557.0,-0.92,8.99,4.91,-0.16,-0.26,-0.18,1.0,v
2832.0,2970.0,3515.0,2992.0,4095.0,4095.0,3193.0,3536.0,0.19,9.61,3.82,-0.04,-0.19,0.09,1.0,v
2834.0,2978.0,3527.0,3021.0,4095.0,4095.0,3191.0,3551.0,-0.55,9.0,4.64,-0.32,-0.02,-0.15,1.0,v
2830.0,2960.0,3516.0,3007.0,4095.0,4095.0,3187.0,3531.0,-0.03,9.06,4.53,0.03,0.13,0.19,1.0,v
2832.0,2971.0,3523.0,3008.0,4095.0,4095.0,3198.0,3547.0,0.68,9.42,4.13,0.22,0.23,0.38,1.0,v
2823.0,2967.0,3536.0,3006.0,4095.0,4095.0,3184.0,3535.0,0.23,9.28,3.77,0.14,0.2,0.25,1.0,v
2842.0,2986.0,3529.0,3013.0,4095.0,4095.0,3191.0,3546.0,0.21,9.28,3.86,0.0,0.05,0.35,1.0,v
2832.0,2964.0,3509.0,3019.0,4095.0,4095.0,3190.0,3541.0,0.87,9.32,4.48,-0.17,0.05,0.19,1.0,v
2832.0,2966.0,3536.0,3029.0,4095.0,4095.0,3203.0,3559.0,0.71,9.09,4.55,-0.11,0.07,0.1,1.0,v
2847.0,2966.0,3521.0,3027.0,4095.0,4095.0,3199.0,3559.0,0.71,9.19,4.31,-0.13,0.03,-0.01,1.0,v
2841.0,2982.0,3537.0,3039.0,4095.0,4095.0,3194.0,3564.0,0.87,9.15,4.42,-0.07,-0.06,-0.08,1.0,v
2832.0,2971.0,3522.0,3038.0,4095.0,4095.0,3191.0,3572.0,0.85,9.11,4.66,-0.1,-0.06,-0.15,1.0,v
2832.0,2970.0,3529.0,3023.0,4095.0,4095.0,3199.0,3546.0,0.45,9.22,4.22,0.0,0.02,-0.12,1.0,v
2829.0,2977.0,3540.0,3023.0,4095.0,4095.0,3198.0,3553.0,0.55,9.24,4.31,-0.11,-0.07,-0.11,1.0,v
2829.0,2967.0,3515.0,3008.0,4095.0,4095.0,3197.0,3559.0,0.5,9.22,4.3,-0.06,0.13,0.0,1.0,v
2843.0,2989.0,3546.0,3043.0,4095.0,4095.0,3195.0,3565.0,0.26,9.24,4.23,-0.04,-0.13,-0.23,1.0,v
2833.0,2971.0,3536.0,3025.0,4095.0,4095.0,3190.0,3554.0,-0.24,9.02,4.59,-0.01,-0.14,-0.23,1.0,v
2836.0,2979.0,3536.0,3025.0,4095.0,4095.0,3200.0,3583.0,-0.3,9.13,4.33,0.05,-0.05,-0.11,1.0,v
2832.0,2981.0,3523.0,3024.0,4095.0,4095.0,3189.0,3564.0,-0.18,9.33,3.86,-0.01,0.05,-0.03,1.0,v
2823.0,2983.0,3534.0,3031.0,4095.0,4095.0,3213.0,3569.0,0.03,9.33,4.11,-0.06,0.0,-0.1,1.0,v
2831.0,2975.0,3522.0,3035.0,4095.0,4095.0,3199.0,3555.0,-0.04,9.43,3.84,-0.1,0.03,-0.12,1.0,v
2829.0,2965.0,3533.0,3045.0,4095.0,4095.0,3207.0,3568.0,-0.58,9.04,4.47,-0.18,-0.14,-0.21,1.0,v
2829.0,2966.0,3523.0,3029.0,4095.0,4095.0,3202.0,3569.0,-0.32,9.06,4.63,-0.07,-0.04,-0.14,1.0,v
2832.0,2967.0,3525.0,3030.0,4095.0,4095.0,3202.0,3568.0,-0.45,9.23,4.16,-0.04,0.06,-0.13,1.0,v
2831.0,2977.0,3543.0,3039.0,4095.0,4095.0,3209.0,3583.0,-0.81,9.19,4.08,-0.06,0.04,-0.08,1.0,v
2823.0,2962.0,3533.0,3024.0,4095.0,4095.0,3191.0,3561.0,-0.51,9.09,4.58,-0.06,0.07,-0.07,1.0,v
2830.0,2974.0,3561.0,3040.0,4095.0,4095.0,3201.0,3583.0,-0.79,9.11,4.29,0.01,0.09,-0.08,1.0,v
2835.0,2974.0,3536.0,3034.0,4095.0,4095.0,3197.0,3569.0,-0.57,9.3,4.13,-0.02,-0.02,-0.09,1.0,v
2837.0,2988.0,3547.0,3031.0,4095.0,4095.0,3217.0,3583.0,-0.76,9.2,4.16,0.0,0.07,-0.12,1.0,v
2821.0,2973.0,3534.0,3038.0,4095.0,4095.0,3205.0,3558.0,-1.24,9.1,4.04,-0.02,0.11,-0.15,1.0,v
2826.0,2971.0,3536.0,3040.0,4095.0,4095.0,3207.0,3570.0,-1.36,9.24,3.86,-0.0,0.02,-0.1,1.0,v
2822.0,2962.0,3533.0,3024.0,4095.0,4095.0,3200.0,3568.0,-1.13,9.2,4.11,-0.01,-0.08,-0.09,1.0,v
2834.0,2972.0,3546.0,3035.0,4095.0,4095.0,3206.0,3577.0,-1.34,9.16,4.04,0.04,0.08,-0.05,1.0,v
2827.0,2982.0,3527.0,3024.0,4095.0,4095.0,3201.0,3566.0,-1.3,9.24,3.78,0.06,0.01,-0.09,1.0,v
2832.0,2982.0,3556.0,3023.0,4095.0,4095.0,3210.0,3583.0,-1.25,9.41,3.47,0.05,0.02,-0.04,1.0,v
2829.0,2969.0,3521.0,3026.0,4095.0,4095.0,3191.0,3574.0,-1.29,9.33,3.61,-0.08,-0.12,-0.12,1.0,v
2832.0,2979.0,3553.0,3042.0,4095.0,4095.0,3200.0,3565.0,-1.66,9.42,2.93,0.05,0.1,-0.0,1.0,v
2826.0,2970.0,3537.0,3029.0,4095.0,4095.0,3187.0,3568.0,-1.41,9.43,3.12,-0.06,-0.06,-0.03,1.0,v
2821.0,2976.0,3536.0,3034.0,4095.0,4095.0,3199.0,3567.0,-1.51,9.48,3.05,-0.03,-0.0,-0.03,1.0,v
2830.0,2969.0,3529.0,3035.0,4095.0,4095.0,3216.0,3583.0,-1.37,9.46,3.12,-0.0,0.02,-0.01,1.0,v
2817.0,2969.0,3520.0,3039.0,4095.0,4095.0,3202.0,3577.0,-1.6,9.57,2.89,0.0,-0.05,-0.07,1.0,v
2821.0,2975.0,3543.0,3042.0,4095.0,4095.0,3206.0,3583.0,-1.47,9.56,2.83,-0.01,-0.01,-0.02,1.0,v
2821.0,2971.0,3520.0,3039.0,4095.0,4095.0,3201.0,3568.0,-1.42,9.56,2.83,-0.06,0.03,0.01,1.0,v
2829.0,2981.0,3523.0,3035.0,4095.0,4095.0,3215.0,3572.0,-1.24,9.55,2.96,-0.03,-0.02,-0.03,1.0,v
2818.0,2974.0,3538.0,3039.0,4095.0,4095.0,3199.0,3568.0,-1.45,9.51,2.93,-0.01,-0.02,-0.09,1.0,v
2818.0,2987.0,3539.0,3042.0,4095.0,4095.0,3216.0,3583.0,-1.51,9.52,2.81,-0.01,-0.01,-0.07,1.0,v
2817.0,2969.0,3531.0,3027.0,4095.0,4095.0,3209.0,3568.0,-1.38,9.58,2.74,-0.01,-0.01,-0.02,1.0,v
2833.0,2977.0,3539.0,3046.0,4095.0,4095.0,3205.0,3574.0,-1.49,9.56,2.75,-0.02,-0.05,-0.04,1.0,v
2815.0,2961.0,3530.0,3033.0,4095.0,4095.0,3207.0,3572.0,-1.44,9.58,2.66,-0.04,-0.0,-0.04,1.0,v
2831.0,2971.0,3535.0,3037.0,4095.0,4095.0,3211.0,3583.0,-1.37,9.61,2.74,-0.03,0.03,-0.03,1.0,v
2811.0,2974.0,3550.0,3040.0,4095.0,4095.0,3218.0,3575.0,-1.53,9.61,2.65,-0.02,-0.04,-0.02,1.0,v
2823.0,2972.0,3533.0,3030.0,4095.0,4095.0,3214.0,3571.0,-1.46,9.58,2.56,-0.04,0.04,-0.03,1.0,v
2813.0,2982.0,3531.0,3043.0,4095.0,4095.0,3217.0,3583.0,-1.39,9.62,2.63,-0.04,0.01,-0.03,1.0,v
2819.0,2979.0,3527.0,3034.0,4095.0,4095.0,3214.0,3568.0,-1.32,9.63,2.54,-0.03,-0.04,-0.04,1.0,v
2830.0,2981.0,3539.0,3038.0,4095.0,4095.0,3214.0,3569.0,-1.54,9.59,2.55,-0.03,-0.04,-0.08,1.0,v
2834.0,2981.0,3539.0,3043.0,4095.0,4095.0,3202.0,3582.0,-1.09,9.79,2.2,-0.05,0.06,0.05,1.0,v
2818.0,2971.0,3531.0,3039.0,4095.0,4095.0,3207.0,3573.0,-1.02,9.72,2.2,-0.0,-0.15,-0.04,1.0,v
2823.0,2975.0,3535.0,3033.0,4095.0,4095.0,3200.0,3564.0,-1.14,9.84,1.97,-0.04,0.03,0.03,1.0,v
2816.0,2991.0,3536.0,3037.0,4095.0,4095.0,3206.0,3577.0,-1.04,9.8,2.09,-0.06,-0.01,0.04,1.0,v
2821.0,2971.0,3547.0,3039.0,4095.0,4095.0,3207.0,3567.0,-0.8,9.78,2.19,-0.05,-0.05,0.02,1.0,v
2819.0,2972.0,3540.0,3039.0,4095.0,4095.0,3216.0,3583.0,-0.89,9.86,2.09,-0.05,-0.0,0.05,1.0,v
2818.0,2963.0,3525.0,3034.0,4095.0,4095.0,3204.0,3574.0,-0.81,9.82,2.02,-0.04,-0.06,0.04,1.0,v
2825.0,2979.0,3531.0,3035.0,4095.0,4095.0,3210.0,3578.0,-0.71,9.79,2.03,-0.06,0.0,0.08,1.0,v
2811.0,2961.0,3520.0,3030.0,4095.0,4095.0,3213.0,3571.0,-0.48,9.88,2.04,-0.02,-0.07,0.05,1.0,v
2809.0,2982.0,3533.0,3043.0,4095.0,4095.0,3202.0,3571.0,-0.35,9.94,1.92,-0.06,-0.05,0.05,1.0,v
2811.0,2971.0,3517.0,3053.0,4095.0,4095.0,3191.0,3565.0,-0.43,9.84,2.02,-0.05,0.02,-0.0,1.0,v
2827.0,2969.0,3535.0,3033.0,4095.0,4095.0,3200.0,3565.0,-0.41,9.9,1.99,-0.05,-0.08,0.02,1.0,v
2815.0,2967.0,3535.0,3042.0,4095.0,4095.0,3207.0,3583.0,-0.33,9.88,1.95,-0.05,0.03,0.05,1.0,v
2815.0,2971.0,3519.0,3027.0,4095.0,4095.0,3201.0,3570.0,-0.26,9.88,1.99,-0.06,0.01,0.04,1.0,v
2827.0,2983.0,3526.0,3035.0,4095.0,4095.0,3201.0,3583.0,-0.16,9.88,1.88,-0.08,0.07,0.08,1.0,v
2812.0,2963.0,3517.0,3017.0,4095.0,4095.0,3198.0,3568.0,-0.28,9.91,1.91,-0.12,0.07,0.1,1.0,v
2818.0,2970.0,3540.0,3038.0,4095.0,4095.0,3206.0,3575.0,0.24,9.92,2.19,-0.09,-0.01,0.02,1.0,v
2813.0,2975.0,3511.0,3029.0,4095.0,4095.0,3197.0,3569.0,0.29,9.94,2.15,-0.06,-0.01,0.01,1.0,v
2818.0,2967.0,3530.0,3044.0,4095.0,4095.0,3216.0,3583.0,0.18,9.9,2.07,-0.09,0.05,0.01,1.0,v
2821.0,2965.0,3517.0,3031.0,4095.0,4095.0,3199.0,3567.0,0.14,9.86,2.04,-0.08,0.01,0.01,1.0,v
2766.0,2964.0,3518.0,3023.0,4095.0,4095.0,3202.0,3563.0,0.19,9.71,2.9,-0.09,-0.04,-0.07,1.0,v
2779.0,2979.0,3529.0,3024.0,4095.0,4095.0,3215.0,3573.0,0.38,9.77,2.95,-0.04,-0.02,-0.04,1.0,v
2768.0,2976.0,3533.0,3025.0,4095.0,4095.0,3204.0,3568.0,0.18,9.73,2.77,-0.1,0.09,-0.05,1.0,v
2771.0,2978.0,3548.0,3027.0,4095.0,4095.0,3208.0,3570.0,0.16,9.75,2.83,-0.08,-0.08,-0.11,1.0,v
2759.0,2960.0,3541.0,3024.0,4095.0,4095.0,3203.0,3569.0,0.18,9.7,3.09,-0.14,-0.0,-0.12,1.0,v
2769.0,2971.0,3530.0,3025.0,4095.0,4095.0,3200.0,3563.0,-0.06,9.59,3.2,-0.09,0.03,-0.11,1.0,v
2769.0,2982.0,3549.0,3031.0,4095.0,4095.0,3217.0,3581.0,-0.14,9.61,3.17,-0.06,-0.05,-0.08,1.0,v
2759.0,2970.0,3522.0,3024.0,4095.0,4095.0,3207.0,3571.0,-0.14,9.58,3.25,-0.07,0.0,-0.07,1.0,v
2756.0,2969.0,3532.0,3035.0,4095.0,4095.0,3214.0,3583.0,-0.26,9.62,3.2,-0.07,-0.04,-0.08,1.0,v
2768.0,2967.0,3538.0,3023.0,4095.0,4095.0,3202.0,3564.0,-0.18,9.6,3.08,-0.08,0.01,-0.03,1.0,v
2759.0,2979.0,3533.0,3031.0,4095.0,4095.0,3216.0,3572.0,-0.16,9.62,3.17,-0.09,0.03,-0.07,1.0,v
2765.0,2965.0,3536.0,3031.0,4095.0,4095.0,3200.0,3568.0,-0.18,9.59,3.26,-0.04,-0.03,-0.1,1.0,v
2768.0,2965.0,3536.0,3038.0,4095.0,4095.0,3217.0,3574.0,-0.3,9.61,3.1,-0.05,-0.03,-0.06,1.0,v
2768.0,2986.0,3524.0,3024.0,4095.0,4095.0,3209.0,3577.0,-0.49,9.56,3.09,-0.07,0.05,-0.02,1.0,v
2767.0,2981.0,3533.0,3038.0,4095.0,4095.0,3213.0,3583.0,-0.3,9.58,3.18,-0.1,0.0,-0.03,1.0,v
2767.0,2961.0,3542.0,3027.0,4095.0,4095.0,3203.0,3573.0,-0.21,9.62,3.27,-0.1,-0.02,-0.04,1.0,v
2761.0,2983.0,3542.0,3038.0,4095.0,4095.0,3211.0,3570.0,-0.27,9.58,3.29,-0.05,-0.01,-0.04,1.0,v
2767.0,2966.0,3520.0,3034.0,4095.0,4095.0,3215.0,3578.0,-0.28,9.64,3.11,-0.07,-0.01,-0.05,1.0,v
2757.0,2967.0,3537.0,3024.0,4095.0,4095.0,3212.0,3577.0,-0.28,9.58,3.26,-0.09,-0.02,-0.05,1.0,v
2763.0,2986.0,3545.0,3041.0,4095.0,4095.0,3198.0,3582.0,-0.2,9.59,3.24,-0.08,0.0,-0.05,1.0,v
2765.0,2975.0,3536.0,3034.0,4095.0,4095.0,3203.0,3565.0,-0.57,9.48,3.42,-0.03,-0.01,-0.01,1.0,v
2768.0,2973.0,3529.0,3037.0,4095.0,4095.0,3211.0,3581.0,-0.11,9.48,3.7,-0.05,0.04,0.03,1.0,v
2758.0,2961.0,3545.0,3039.0,4095.0,4095.0,3216.0,3571.0,-0.25,9.5,3.51,-0.06,0.09,-0.04,1.0,v
2765.0,2963.0,3539.0,3041.0,4095.0,4095.0,3216.0,3574.0,-0.52,9.46,3.36,-0.08,-0.07,-0.09,1.0,v
2770.0,2962.0,3522.0,3028.0,4095.0,4095.0,3207.0,3570.0,-0.42,9.47,3.43,-0.06,-0.02,-0.06,1.0,v
2768.0,2974.0,3523.0,3054.0,4095.0,4095.0,3210.0,3577.0,-0.32,9.46,3.63,-0.06,0.03,-0.05,1.0,v
2751.0,2966.0,3527.0,3036.0,4095.0,4095.0,3211.0,3562.0,-0.55,9.45,3.45,-0.06,0.0,-0.09,1.0,v
2768.0,2970.0,3527.0,3034.0,4095.0,4095.0,3219.0,3581.0,-0.54,9.46,3.56,-0.05,-0.02,-0.05,1.0,v
2758.0,2977.0,3516.0,3035.0,4095.0,4095.0,3215.0,3572.0,-0.59,9.44,3.56,-0.05,0.04,-0.01,1.0,v
2768.0,2978.0,3530.0,3043.0,4095.0,4095.0,3212.0,3583.0,-0.55,9.48,3.51,-0.06,0.12,0.0,1.0,v
2758.0,2971.0,3522.0,3031.0,4095.0,4095.0,3213.0,3577.0,-0.59,9.5,3.45,-0.09,0.05,-0.01,1.0,v
2767.0,2975.0,3557.0,3046.0,4095.0,4095.0,3217.0,3568.0,-0.4,9.51,3.54,-0.05,0.01,-0.02,1.0,v
2767.0,2965.0,3523.0,3042.0,4095.0,4095.0,3219.0,3577.0,-0.57,9.42,3.57,-0.08,0.04,-0.01,1.0,v
2767.0,2979.0,3534.0,3037.0,4095.0,4095.0,3200.0,3581.0,-0.46,9.51,3.47,-0.07,0.08,0.01,1.0,v
2767.0,2981.0,3546.0,3046.0,4095.0,4095.0,3215.0,3582.0,-0.45,9.42,3.59,-0.07,0.02,-0.02,1.0,v
2765.0,2971.0,3534.0,3025.0,4095.0,4095.0,3213.0,3575.0,-0.47,9.4,3.59,-0.06,0.03,-0.02,1.0,v
2771.0,2971.0,3536.0,3039.0,4095.0,4095.0,3217.0,3583.0,-0.52,9.48,3.53,-0.06,0.03,-0.02,1.0,v
2762.0,2963.0,3531.0,3033.0,4095.0,4095.0,3210.0,3572.0,-0.42,9.5,3.46,-0.08,0.04,-0.01,1.0,v
2762.0,2979.0,3550.0,3050.0,4095.0,4095.0,3216.0,3581.0,-0.41,9.43,3.6,-0.08,0.01,-0.03,1.0,v
2765.0,2974.0,3527.0,3041.0,4095.0,4095.0,3213.0,3578.0,-0.4,9.44,3.63,-0.08,-0.05,-0.07,1.0,v
2768.0,2987.0,3561.0,3040.0,4095.0,4095.0,3216.0,3583.0,-0.67,9.44,3.61,-0.04,0.02,-0.07,1.0,v
2768.0,2975.0,3540.0,3031.0,4095.0,4095.0,3204.0,3569.0,-0.86,9.38,3.69,-0.06,-0.01,-0.1,1.0,v
2770.0,2978.0,3543.0,3035.0,4095.0,4095.0,3210.0,3599.0,-0.75,9.4,3.61,-0.0,-0.06,-0.12,1.0,v
2779.0,2982.0,3543.0,3034.0,4095.0,4095.0,3216.0,3583.0,-1.13,9.32,3.64,-0.04,-0.11,-0.08,1.0,v
2765.0,2976.0,3531.0,3030.0,4095.0,4095.0,3206.0,3574.0,-0.87,9.33,3.79,-0.09,0.02,-0.06,1.0,v
2776.0,2967.0,3536.0,3041.0,4095.0,4095.0,3215.0,3583.0,-1.01,9.3,3.82,0.01,0.01,-0.08,1.0,v
2768.0,2970.0,3522.0,3029.0,4095.0,4095.0,3216.0,3583.0,-1.02,9.36,3.6,0.03,-0.0,-0.08,1.0,v
2769.0,2979.0,3549.0,3040.0,4095.0,4095.0,3216.0,3583.0,-1.23,9.41,3.4,0.02,0.03,-0.05,1.0,v
2761.0,2974.0,3536.0,3038.0,4095.0,4095.0,3222.0,3583.0,-1.23,9.39,3.37,-0.01,-0.01,-0.05,1.0,v
2768.0,2978.0,3541.0,3041.0,4095.0,4095.0,3216.0,3583.0,-1.09,9.43,3.43,-0.01,-0.03,-0.06,1.0,v
2768.0,2973.0,3557.0,3045.0,4095.0,4095.0,3210.0,3583.0,-1.13,9.45,3.32,-0.02,0.03,-0.0,1.0,v
2769.0,2981.0,3549.0,3042.0,4095.0,4095.0,3216.0,3606.0,-1.09,9.43,3.34,-0.05,-0.05,-0.06,1.0,v
2767.0,2971.0,3525.0,3034.0,4095.0,4095.0,3214.0,3583.0,-1.17,9.37,3.48,-0.14,-0.01,-0.08,1.0,v
2768.0,2979.0,3547.0,3056.0,4095.0,4095.0,3203.0,3600.0,-1.07,9.39,3.38,-0.1,0.06,-0.04,1.0,v
2770.0,2966.0,3537.0,3041.0,4095.0,4095.0,3214.0,3583.0,-1.18,9.41,3.5,-0.08,0.03,-0.03,1.0,v
2755.0,2975.0,3530.0,3039.0,4095.0,4095.0,3216.0,3582.0,-1.22,9.46,3.28,-0.06,-0.01,-0.03,1.0,v
2768.0,2987.0,3539.0,3035.0,4095.0,4095.0,3219.0,3597.0,-1.14,9.48,3.29,-0.07,0.08,0.01,1.0,v
2766.0,2976.0,3547.0,3039.0,4095.0,4095.0,3210.0,3570.0,-0.91,9.37,3.68,-0.15,-0.17,-0.1,1.0,v
2763.0,2981.0,3552.0,3046.0,4095.0,4095.0,3215.0,3583.0,-1.11,9.38,3.66,-0.08,0.04,-0.06,1.0,v
2774.0,2978.0,3537.0,3041.0,4095.0,4095.0,3216.0,3579.0,-1.23,9.43,3.39,-0.05,0.04,-0.01,1.0,v
2770.0,2976.0,3568.0,3051.0,4095.0,4095.0,3215.0,3583.0,-1.49,9.47,3.04,0.03,-0.04,-0.08,1.0,v
2774.0,2969.0,3527.0,3035.0,4095.0,4095.0,3215.0,3579.0,-1.79,9.46,2.92,-0.02,0.01,0.05,1.0,v
2771.0,2975.0,3548.0,3049.0,4095.0,4095.0,3216.0,3578.0,-1.2,9.5,3.09,0.0,0.0,0.01,1.0,v
2769.0,2974.0,3533.0,3040.0,4095.0,4095.0,3218.0,3583.0,-1.06,9.56,3.06,-0.04,-0.05,-0.03,1.0,v
2775.0,2988.0,3564.0,3046.0,4095.0,4095.0,3239.0,3607.0,-1.27,9.49,3.14,-0.05,-0.02,-0.1,1.0,v
2754.0,2965.0,3535.0,3037.0,4095.0,4095.0,3211.0,3583.0,-1.45,9.54,2.92,-0.02,0.03,-0.05,1.0,v
2768.0,2978.0,3536.0,3041.0,4095.0,4095.0,3231.0,3600.0,-1.36,9.52,2.99,-0.03,0.03,-0.08,1.0,v
2766.0,2973.0,3543.0,3043.0,4095.0,4095.0,3216.0,3583.0,-1.49,9.49,3.02,-0.02,-0.02,-0.06,1.0,v
2768.0,2987.0,3555.0,3054.0,4095.0,4095.0,3219.0,3599.0,-1.28,9.51,3.04,-0.02,-0.02,-0.06,1.0,v
2755.0,2971.0,3533.0,3031.0,4095.0,4095.0,3216.0,3583.0,-1.43,9.66,2.44,-0.01,0.08,-0.04,1.0,v
2767.0,2974.0,3553.0,3049.0,4095.0,4095.0,3216.0,3599.0,-1.68,9.51,2.75,-0.09,-0.03,-0.04,1.0,v
2768.0,2982.0,3547.0,3030.0,4095.0,4095.0,3214.0,3574.0,-1.78,9.75,2.7,-0.12,0.13,0.02,1.0,v
2775.0,2985.0,3538.0,3037.0,4095.0,4095.0,3211.0,3599.0,-1.63,9.56,2.93,-0.16,-0.06,-0.01,1.0,v
2778.0,2982.0,3540.0,3043.0,4095.0,4095.0,3223.0,3583.0,-1.53,9.53,2.86,-0.33,0.85,0.26,1.0,v
2769.0,2970.0,3536.0,3042.0,4095.0,4095.0,3216.0,3579.0,-1.63,9.32,3.31,-0.07,-0.22,-0.06,1.0,v
2787.0,2982.0,3543.0,3045.0,4095.0,4095.0,3213.0,3603.0,-1.48,9.42,3.18,-0.1,0.08,-0.01,1.0,v
2775.0,2969.0,3536.0,3044.0,4095.0,4095.0,3216.0,3583.0,-1.38,9.55,3.0,-0.06,-0.01,-0.03,1.0,v
2790.0,2976.0,3536.0,3045.0,4095.0,4095.0,3217.0,3597.0,-1.51,9.46,3.15,-0.09,0.01,-0.01,1.0,v
2768.0,2971.0,3534.0,3038.0,4095.0,4095.0,3220.0,3583.0,-1.38,9.39,3.42,-0.13,0.0,-0.03,1.0,v
2782.0,2965.0,3537.0,3050.0,4095.0,4095.0,3227.0,3601.0,-1.46,9.45,3.16,-0.05,-0.01,-0.05,1.0,v
2864.0,2970.0,3467.0,3114.0,4095.0,4095.0,3243.0,3452.0,-0.16,9.44,3.66,-0.16,0.02,-0.02,1.0,v
2850.0,2974.0,3477.0,3120.0,4095.0,4095.0,3245.0,3446.0,-0.02,9.45,3.81,-0.11,-0.0,-0.06,1.0,v
2835.0,2974.0,3455.0,3126.0,4095.0,4095.0,3242.0,3445.0,-0.23,9.42,3.74,-0.06,-0.06,-0.11,1.0,v
2833.0,2974.0,3487.0,3133.0,4095.0,4095.0,3239.0,3459.0,-0.25,9.46,3.78,-0.07,-0.11,-0.14,1.0,v
2836.0,2962.0,3479.0,3127.0,4095.0,4095.0,3233.0,3447.0,-0.34,9.37,3.86,-0.14,0.03,-0.11,1.0,v
2834.0,2975.0,3472.0,3134.0,4095.0,4095.0,3247.0,3453.0,-0.48,9.28,4.0,-0.13,0.01,-0.12,1.0,v
2832.0,2960.0,3475.0,3121.0,4095.0,4095.0,3237.0,3454.0,-0.48,9.28,4.04,-0.13,-0.01,-0.12,1.0,v
2834.0,2972.0,3472.0,3123.0,4095.0,4095.0,3239.0,3462.0,-0.61,9.28,3.95,-0.17,0.08,-0.05,1.0,v
2832.0,2965.0,3471.0,3119.0,4095.0,4095.0,3233.0,3451.0,-0.62,9.22,4.19,-0.12,-0.08,-0.11,1.0,v
2831.0,2978.0,3472.0,3120.0,4095.0,4095.0,3255.0,3471.0,-0.45,9.13,4.47,-0.13,-0.02,-0.11,1.0,v
2819.0,2961.0,3477.0,3119.0,4095.0,4095.0,3245.0,3454.0,-0.75,9.13,4.37,-0.09,0.04,-0.11,1.0,v
2831.0,2978.0,3475.0,3120.0,4095.0,4095.0,3251.0,3462.0,-0.8,9.17,4.25,-0.03,-0.02,-0.11,1.0,v
2823.0,2962.0,3472.0,3114.0,4095.0,4095.0,3238.0,3455.0,-0.78,9.14,4.36,-0.05,-0.07,-0.13,1.0,v
2832.0,2971.0,3461.0,3109.0,4095.0,4095.0,3250.0,3465.0,-0.96,9.17,4.19,-0.06,-0.01,-0.1,1.0,v
2829.0,2960.0,3469.0,3120.0,4095.0,4095.0,3251.0,3479.0,-1.0,9.07,4.31,-0.09,-0.08,-0.1,1.0,v
2826.0,2979.0,3459.0,3113.0,4095.0,4095.0,3246.0,3469.0,-0.95,9.0,4.48,-0.08,0.0,-0.08,1.0,v
2831.0,2971.0,3491.0,3118.0,4095.0,4095.0,3251.0,3469.0,-0.98,9.07,4.32,-0.07,0.04,-0.07,1.0,v
2815.0,2973.0,3476.0,3117.0,4095.0,4095.0,3246.0,3456.0,-1.07,9.12,4.29,-0.03,-0.09,-0.12,1.0,v
2821.0,2974.0,3482.0,3129.0,4095.0,4095.0,3249.0,3472.0,-1.21,9.03,4.38,-0.06,-0.03,-0.11,1.0,v
2813.0,2963.0,3477.0,3118.0,4095.0,4095.0,3243.0,3460.0,-1.28,9.03,4.26,-0.07,0.08,-0.05,1.0,v
2837.0,2969.0,3479.0,3059.0,4095.0,4095.0,3283.0,3488.0,-1.83,9.04,4.2,-0.06,-0.06,-0.14,1.0,v
2839.0,2966.0,3456.0,3050.0,4095.0,4095.0,3271.0,3476.0,-2.38,8.9,4.08,0.02,0.08,-0.01,1.0,v
2835.0,2979.0,3477.0,3067.0,4095.0,4095.0,3281.0,3493.0,-1.69,9.12,3.94,-0.03,0.1,-0.03,1.0,v
2833.0,2976.0,3470.0,3061.0,4095.0,4095.0,3279.0,3487.0,-1.9,9.05,4.04,0.1,0.08,-0.19,1.0,v
2839.0,2969.0,3465.0,3053.0,4095.0,4095.0,3265.0,3481.0,-2.67,9.03,3.23,-0.15,-0.01,-0.2,1.0,v
2841.0,2975.0,3475.0,3056.0,4095.0,4095.0,3271.0,3498.0,-2.19,8.87,4.29,-0.12,0.12,-0.2,1.0,v
2835.0,2971.0,3471.0,3057.0,4095.0,4095.0,3262.0,3488.0,-3.09,8.32,5.0,-0.15,-0.26,-0.26,1.0,v
2832.0,2965.0,3457.0,3058.0,4095.0,4095.0,3275.0,3507.0,-2.79,8.65,4.22,0.16,0.13,-0.08,1.0,v
2832.0,2967.0,3464.0,3057.0,4095.0,4095.0,3268.0,3495.0,-2.56,9.1,3.57,0.1,0.0,-0.11,1.0,v
2832.0,2966.0,3478.0,3071.0,4095.0,4095.0,3269.0,3495.0,-2.87,8.87,3.46,-0.11,-0.03,-0.13,1.0,v
2826.0,2973.0,3467.0,3063.0,4095.0,4095.0,3267.0,3492.0,-2.88,8.65,4.04,-0.14,-0.12,-0.15,1.0,v
2855.0,2966.0,3460.0,3061.0,4095.0,4095.0,3276.0,3507.0,-2.95,8.56,4.05,-0.09,0.05,-0.24,1.0,v
2847.0,2958.0,3453.0,3043.0,4095.0,4095.0,3258.0,3488.0,-4.08,8.2,3.97,0.09,0.19,-0.2,1.0,v
2843.0,2977.0,3457.0,3047.0,4095.0,4095.0,3270.0,3514.0,-2.96,8.6,4.42,-0.01,-0.11,-0.06,1.0,v
2833.0,2965.0,3453.0,3055.0,4095.0,4095.0,3264.0,3504.0,-3.35,8.61,3.9,0.1,0.19,0.01,1.0,v
2855.0,2986.0,3461.0,3067.0,4095.0,4095.0,3263.0,3497.0,-3.34,8.72,3.63,-0.04,-0.07,-0.07,1.0,v
2848.0,2954.0,3453.0,3062.0,4095.0,4095.0,3277.0,3507.0,-3.23,8.78,3.42,0.04,0.08,-0.05,1.0,v
2846.0,2963.0,3462.0,3058.0,4095.0,4095.0,3261.0,3501.0,-3.67,8.58,3.53,-0.02,-0.05,-0.08,1.0,v
2832.0,2983.0,3475.0,3062.0,4095.0,4095.0,3280.0,3509.0,-3.19,8.68,3.82,-0.04,0.12,-0.01,1.0,v
2832.0,2973.0,3465.0,3045.0,4095.0,4095.0,3274.0,3495.0,-2.43,9.02,3.66,-0.12,-0.08,-0.18,1.0,v
2832.0,2967.0,3456.0,3024.0,4095.0,4095.0,3274.0,3515.0,-3.76,8.8,2.73,0.01,0.09,-0.09,1.0,v
2836.0,2974.0,3469.0,3034.0,4095.0,4095.0,3281.0,3525.0,-4.01,8.77,2.37,0.1,0.02,-0.1,1.0,v
2834.0,2963.0,3453.0,3043.0,4095.0,4095.0,3270.0,3519.0,-3.88,8.97,2.04,0.11,0.02,-0.03,1.0,v
2832.0,2975.0,3471.0,3043.0,4095.0,4095.0,3279.0,3517.0,-4.11,8.93,1.73,0.08,-0.02,-0.03,1.0,v
2837.0,2981.0,3466.0,3041.0,4095.0,4095.0,3280.0,3520.0,-3.78,8.97,1.83,-0.01,0.15,0.04,1.0,v
2822.0,2969.0,3469.0,3042.0,4095.0,4095.0,3268.0,3504.0,-3.79,9.0,1.69,0.01,0.04,-0.04,1.0,v
2832.0,2983.0,3466.0,3036.0,4095.0,4095.0,3284.0,3531.0,-4.02,8.9,1.75,-0.03,0.01,0.02,1.0,v
2832.0,2973.0,3472.0,3042.0,4095.0,4095.0,3271.0,3505.0,-3.73,9.01,1.78,0.0,0.08,0.08,1.0,v
2833.0,2974.0,3467.0,3049.0,4095.0,4095.0,3284.0,3527.0,-3.45,9.22,1.53,0.06,0.0,-0.02,1.0,v
2816.0,2964.0,3472.0,3038.0,4095.0,4095.0,3280.0,3511.0,-3.48,9.16,1.26,0.05,0.0,-0.07,1.0,v
2849.0,2978.0,3476.0,3044.0,4095.0,4095.0,3281.0,3524.0,-3.8,9.13,1.19,-0.01,0.01,-0.09,1.0,v
2832.0,2966.0,3463.0,3038.0,4095.0,4095.0,3277.0,3517.0,-4.0,8.89,1.47,-0.05,0.04,0.01,1.0,v
2830.0,2975.0,3461.0,3049.0,4095.0,4095.0,3286.0,3523.0,-3.77,9.1,1.3,0.0,0.04,0.06,1.0,v
2830.0,2974.0,3453.0,3036.0,4095.0,4095.0,3278.0,3518.0,-3.66,9.14,1.22,0.06,0.05,0.09,1.0,v
2832.0,2967.0,3467.0,3052.0,4095.0,4095.0,3281.0,3520.0,-3.38,9.21,1.05,0.07,0.04,0.05,1.0,v
2832.0,2967.0,3459.0,3033.0,4095.0,4095.0,3278.0,3523.0,-3.44,9.28,0.74,0.03,0.08,0.06,1.0,v
2832.0,2977.0,3470.0,3037.0,4095.0,4095.0,3270.0,3511.0,-3.2,9.45,0.6,-0.06,-0.02,0.05,1.0,v
2825.0,2967.0,3457.0,3045.0,4095.0,4095.0,3281.0,3525.0,-3.3,9.32,0.81,-0.1,-0.02,-0.01,1.0,v
2819.0,2981.0,3471.0,3041.0,4095.0,4095.0,3271.0,3515.0,-3.38,9.31,0.91,-0.09,0.08,0.06,1.0,v
2833.0,2977.0,3463.0,3047.0,4095.0,4095.0,3283.0,3534.0,-3.19,9.32,1.04,-0.11,0.03,0.11,1.0,v
2825.0,2975.0,3474.0,3043.0,4095.0,4095.0,3280.0,3519.0,-2.57,9.65,0.84,-0.06,0.05,0.03,1.0,v
2831.0,2985.0,3479.0,3054.0,4095.0,4095.0,3286.0,3525.0,-2.5,9.55,1.03,-0.06,0.01,0.02,1.0,v
2838.0,2967.0,3475.0,3044.0,4095.0,4095.0,3279.0,3517.0,-2.56,9.58,0.93,-0.03,-0.01,0.02,1.0,v
2834.0,2967.0,3462.0,3050.0,4095.0,4095.0,3289.0,3527.0,-2.34,9.61,1.01,-0.01,-0.05,0.03,1.0,v
2832.0,2973.0,3472.0,3045.0,4095.0,4095.0,3280.0,3526.0,-2.43,9.64,0.87,-0.02,0.04,0.11,1.0,v
2832.0,2967.0,3488.0,3039.0,4095.0,4095.0,3251.0,3517.0,-2.11,9.72,0.78,-0.02,0.05,0.07,1.0,v
2832.0,2973.0,3472.0,3051.0,4095.0,4095.0,3280.0,3533.0,-2.07,9.8,0.65,-0.04,0.01,0.05,1.0,v
2832.0,2966.0,3472.0,3052.0,4095.0,4095.0,3279.0,3516.0,-2.13,9.76,0.66,-0.04,0.03,0.05,1.0,v
2830.0,2973.0,3474.0,3050.0,4095.0,4095.0,3280.0,3519.0,-2.04,9.8,0.6,-0.06,-0.03,0.09,1.0,v
2839.0,2973.0,3472.0,3039.0,4095.0,4095.0,3274.0,3520.0,-1.83,9.83,0.73,-0.07,0.01,0.1,1.0,v
2832.0,2974.0,3476.0,3047.0,4095.0,4095.0,3287.0,3527.0,-1.52,9.87,0.8,-0.08,0.05,0.13,1.0,v
2822.0,2960.0,3456.0,3036.0,4095.0,4095.0,3270.0,3519.0,-1.36,9.91,0.76,-0.03,0.01,0.04,1.0,v
2832.0,2971.0,3472.0,3047.0,4095.0,4095.0,3281.0,3529.0,-1.32,9.87,0.72,-0.05,-0.02,0.01,1.0,v
2835.0,2979.0,3472.0,3042.0,4095.0,4095.0,3275.0,3522.0,-1.39,9.93,0.64,-0.06,-0.02,-0.03,1.0,v
2828.0,2979.0,3489.0,3056.0,4095.0,4095.0,3282.0,3522.0,-1.58,9.83,0.71,-0.04,0.06,0.03,1.0,v
2826.0,2977.0,3478.0,3045.0,4095.0,4095.0,3263.0,3518.0,-1.41,9.89,0.58,-0.05,-0.0,0.04,1.0,v
2831.0,2983.0,3479.0,3051.0,4095.0,4095.0,3273.0,3524.0,-1.26,10.0,0.57,-0.06,0.03,0.05,1.0,v
2816.0,2973.0,3478.0,3056.0,4095.0,4095.0,3273.0,3525.0,-1.19,9.93,0.74,-0.1,0.05,0.03,1.0,v
2820.0,2966.0,3475.0,3046.0,4095.0,4095.0,3273.0,3523.0,-1.05,10.0,0.71,-0.06,0.06,0.06,1.0,v
2821.0,2979.0,3474.0,3059.0,4095.0,4095.0,3280.0,3535.0,-0.94,9.92,0.77,-0.05,0.05,-0.03,1.0,v
2823.0,2974.0,3490.0,3065.0,4095.0,4095.0,3280.0,3525.0,-0.68,10.0,0.74,-0.08,-0.02,-0.01,1.0,v
2819.0,2981.0,3481.0,3059.0,4095.0,4095.0,3265.0,3519.0,-0.76,10.01,0.69,-0.08,0.0,-0.02,1.0,v
2827.0,2963.0,3501.0,3066.0,4095.0,4095.0,3280.0,3527.0,-0.69,10.02,0.7,-0.08,-0.01,-0.04,1.0,v
2825.0,2967.0,3486.0,3067.0,4095.0,4095.0,3280.0,3535.0,-0.77,10.03,0.83,-0.08,-0.04,-0.04,1.0,v
2826.0,2971.0,3472.0,3056.0,4095.0,4095.0,3268.0,3510.0,-0.72,10.01,0.82,-0.1,0.01,-0.04,1.0,v
2821.0,2965.0,3490.0,3058.0,4095.0,4095.0,3283.0,3517.0,-0.87,10.03,0.79,-0.15,-0.05,-0.04,1.0,v
2814.0,2979.0,3471.0,3059.0,4095.0,4095.0,3266.0,3519.0,-0.83,9.96,1.06,-0.14,-0.03,-0.03,1.0,v
2831.0,2975.0,3486.0,3068.0,4095.0,4095.0,3277.0,3521.0,-0.72,9.93,1.22,-0.12,-0.02,-0.01,1.0,v
2817.0,2974.0,3473.0,3056.0,4095.0,4095.0,3275.0,3526.0,-0.73,9.96,1.24,-0.11,-0.03,-0.04,1.0,v
2822.0,2978.0,3485.0,3063.0,4095.0,4095.0,3276.0,3536.0,-0.79,9.97,1.17,-0.1,-0.03,-0.01,1.0,v
2821.0,2971.0,3478.0,3060.0,4095.0,4095.0,3287.0,3518.0,-0.72,9.94,1.27,-0.12,0.01,-0.01,1.0,v
2816.0,2982.0,3477.0,3059.0,4095.0,4095.0,3283.0,3529.0,-0.69,9.92,1.39,-0.14,0.01,-0.01,1.0,v
2832.0,2976.0,3473.0,3055.0,4095.0,4095.0,3274.0,3527.0,-0.66,9.98,1.36,-0.15,-0.05,0.0,1.0,v
2832.0,2959.0,3483.0,3070.0,4095.0,4095.0,3279.0,3522.0,-0.68,9.82,1.62,-0.24,0.04,-0.02,1.0,v
2810.0,2967.0,3476.0,3061.0,4095.0,4095.0,3268.0,3513.0,-0.62,9.84,1.88,-0.14,-0.05,0.0,1.0,v
2826.0,2971.0,3485.0,3058.0,4095.0,4095.0,3270.0,3520.0,-0.5,9.94,1.83,-0.15,0.01,-0.04,1.0,v
2813.0,2966.0,3483.0,3071.0,4095.0,4095.0,3280.0,3517.0,-0.71,9.74,1.97,-0.16,0.01,0.02,1.0,v
2820.0,2975.0,3473.0,3063.0,4095.0,4095.0,3267.0,3513.0,-0.41,9.84,2.07,-0.09,-0.01,-0.02,1.0,v
2820.0,2971.0,3479.0,3071.0,4095.0,4095.0,3278.0,3515.0,-0.59,9.84,2.01,-0.1,-0.04,0.02,1.0,v
2832.0,2961.0,3470.0,3060.0,4095.0,4095.0,3271.0,3521.0,-0.19,9.96,2.14,-0.09,-0.03,-0.02,1.0,v
2813.0,2969.0,3489.0,3065.0,4095.0,4095.0,3263.0,3519.0,-0.43,9.57,3.17,-0.11,-0.02,-0.07,1.0,v
2823.0,2973.0,3487.0,3070.0,4095.0,4095.0,3266.0,3541.0,-0.37,9.61,3.09,-0.06,-0.01,-0.03,1.0,v
2819.0,2961.0,3479.0,3057.0,4095.0,4095.0,3261.0,3519.0,-0.37,9.61,3.02,-0.11,0.02,-0.01,1.0,v
2817.0,2966.0,3473.0,3069.0,4095.0,4095.0,3270.0,3536.0,-0.3,9.58,3.22,-0.11,-0.07,-0.09,1.0,v
2800.0,2967.0,3472.0,3062.0,4095.0,4095.0,3267.0,3520.0,-0.56,9.53,3.18,-0.07,-0.05,-0.08,1.0,v
2817.0,2988.0,3490.0,3067.0,4095.0,4095.0,3273.0,3533.0,-0.44,9.52,3.28,-0.11,-0.04,-0.05,1.0,v
2807.0,2969.0,3487.0,3056.0,4095.0,4095.0,3262.0,3513.0,-0.32,9.6,3.32,-0.06,-0.12,-0.1,1.0,v
2832.0,2971.0,3503.0,3069.0,4095.0,4095.0,3270.0,3521.0,-0.49,9.55,3.22,-0.08,-0.0,-0.07,1.0,v
2819.0,2965.0,3485.0,3067.0,4095.0,4095.0,3254.0,3516.0,-0.52,9.54,3.29,-0.06,-0.01,-0.07,1.0,v
2822.0,2971.0,3483.0,3065.0,4095.0,4095.0,3269.0,3530.0,-0.55,9.55,3.3,-0.07,-0.03,-0.06,1.0,v
2821.0,2992.0,3497.0,3065.0,4095.0,4095.0,3275.0,3530.0,-0.61,9.51,3.29,-0.08,-0.02,-0.08,1.0,v
2814.0,2960.0,3483.0,3066.0,4095.0,4095.0,3263.0,3517.0,-0.64,9.48,3.41,-0.09,-0.04,-0.07,1.0,v
2825.0,2969.0,3475.0,3069.0,4095.0,4095.0,3269.0,3527.0,-0.57,9.52,3.38,-0.13,0.01,-0.09,1.0,v
2825.0,2961.0,3477.0,3066.0,4095.0,4095.0,3260.0,3519.0,-0.7,9.46,3.45,-0.07,-0.08,-0.06,1.0,v
2847.0,2979.0,3484.0,3069.0,4095.0,4095.0,3279.0,3531.0,-0.61,9.49,3.42,-0.06,-0.04,-0.05,1.0,v
2831.0,2960.0,3482.0,3071.0,4095.0,4095.0,3261.0,3506.0,-0.56,9.56,3.39,-0.11,0.02,-0.05,1.0,v
2846.0,2967.0,3484.0,3087.0,4095.0,4095.0,3271.0,3518.0,-0.64,9.41,3.51,-0.06,-0.04,-0.06,1.0,v
2860.0,2970.0,3472.0,3071.0,4095.0,4095.0,3266.0,3514.0,-0.64,9.44,3.46,-0.06,-0.02,-0.03,1.0,v
2864.0,2976.0,3486.0,3086.0,4095.0,4095.0,3269.0,3504.0,-0.68,9.47,3.41,-0.08,0.01,-0.04,1.0,v
2842.0,2982.0,3477.0,3066.0,4095.0,4095.0,3271.0,3504.0,-0.65,9.45,3.52,-0.08,0.07,-0.01,1.0,v
2845.0,2972.0,3489.0,3091.0,4095.0,4095.0,3280.0,3515.0,-1.12,9.45,3.28,-0.08,0.0,-0.03,1.0,v
2853.0,2976.0,3466.0,3086.0,4095.0,4095.0,3270.0,3504.0,-0.57,9.45,3.58,-0.1,0.03,-0.01,1.0,v
2845.0,2970.0,3477.0,3088.0,4095.0,4095.0,3280.0,3529.0,-0.97,9.39,3.6,-0.05,0.04,-0.1,1.0,v
2829.0,2965.0,3477.0,3091.0,4095.0,4095.0,3273.0,3504.0,-1.2,9.43,3.38,-0.08,0.05,-0.04,1.0,v
2836.0,2972.0,3475.0,3098.0,4095.0,4095.0,3282.0,3515.0,-1.06,9.34,3.65,-0.11,0.0,-0.02,1.0,v
2846.0,2972.0,3467.0,3088.0,4095.0,4095.0,3268.0,3510.0,-0.8,9.43,3.67,-0.07,-0.01,-0.03,1.0,v
2849.0,2956.0,3479.0,3085.0,4095.0,4095.0,3280.0,3513.0,-0.88,9.49,3.42,-0.04,-0.06,-0.08,1.0,v
2842.0,2975.0,3483.0,3094.0,4095.0,4095.0,3290.0,3521.0,-1.02,9.33,3.72,-0.09,-0.04,-0.08,1.0,v
2832.0,2974.0,3477.0,3089.0,4095.0,4095.0,3301.0,3517.0,-1.12,9.31,3.64,-0.07,0.05,-0.03,1.0,v
2845.0,2971.0,3494.0,3094.0,4095.0,4095.0,3286.0,3531.0,-1.08,9.4,3.52,-0.07,0.05,-0.03,1.0,v
2834.0,2983.0,3489.0,3098.0,4095.0,4095.0,3281.0,3514.0,-0.93,9.41,3.66,-0.08,-0.01,-0.06,1.0,v
2833.0,2976.0,3490.0,3104.0,4095.0,4095.0,3282.0,3527.0,-1.06,9.39,3.61,-0.07,-0.03,-0.08,1.0,v
2841.0,2966.0,3462.0,3089.0,4095.0,4095.0,3281.0,3520.0,-1.23,9.31,3.65,-0.03,-0.04,-0.08,1.0,v
2843.0,2983.0,3491.0,3103.0,4095.0,4095.0,3287.0,3533.0,-1.08,9.36,3.66,-0.12,-0.06,-0.06,1.0,v
2838.0,2970.0,3471.0,3090.0,4095.0,4095.0,3280.0,3530.0,-1.14,9.26,3.87,-0.17,0.11,-0.02,1.0,v
2835.0,2978.0,3499.0,3097.0,4095.0,4095.0,3284.0,3533.0,-1.22,9.15,4.07,-0.12,-0.01,-0.05,1.0,v
2839.0,2971.0,3494.0,3090.0,4095.0,4095.0,3280.0,3525.0,-1.41,9.32,3.59,-0.1,0.05,-0.05,1.0,v
2835.0,2972.0,3497.0,3098.0,4095.0,4095.0,3283.0,3536.0,-1.05,9.24,3.99,-0.12,-0.01,0.03,1.0,v
2829.0,2982.0,3481.0,3089.0,4095.0,4095.0,3279.0,3520.0,-1.15,9.07,4.25,-0.1,0.03,-0.05,1.0,v
2832.0,2965.0,3477.0,3091.0,4095.0,4095.0,3280.0,3515.0,-1.12,9.17,4.07,-0.09,0.0,-0.04,1.0,v
2835.0,2981.0,3501.0,3099.0,4095.0,4095.0,3283.0,3527.0,-0.87,9.23,4.14,-0.09,0.02,-0.06,1.0,v
2827.0,2975.0,3472.0,3091.0,4095.0,4095.0,3277.0,3523.0,-1.15,9.19,3.99,-0.01,0.07,-0.06,1.0,v
2830.0,2973.0,3488.0,3091.0,4095.0,4095.0,3290.0,3543.0,-1.18,9.31,3.72,-0.05,-0.04,-0.07,1.0,v
2821.0,2973.0,3475.0,3099.0,4095.0,4095.0,3287.0,3530.0,-1.09,9.35,3.8,-0.09,-0.03,-0.07,1.0,v
2832.0,2974.0,3474.0,3091.0,4095.0,4095.0,3274.0,3523.0,-1.04,9.2,4.05,-0.11,-0.03,-0.06,1.0,v
2827.0,2964.0,3495.0,3103.0,4095.0,4095.0,3293.0,3535.0,-0.92,9.15,4.22,-0.04,-0.08,-0.12,1.0,v
2839.0,2961.0,3472.0,3090.0,4095.0,4095.0,3278.0,3520.0,-1.23,9.22,3.93,-0.01,0.04,-0.12,1.0,v
2835.0,2980.0,3471.0,3099.0,4095.0,4095.0,3291.0,3542.0,-1.33,9.2,3.87,-0.03,-0.04,-0.12,1.0,v
2827.0,2974.0,3478.0,3090.0,4095.0,4095.0,3280.0,3525.0,-1.35,9.23,3.89,-0.02,-0.01,-0.11,1.0,v
2835.0,2979.0,3489.0,3098.0,4095.0,4095.0,3279.0,3523.0,-1.41,9.18,3.89,-0.08,-0.04,-0.13,1.0,v
2823.0,2963.0,3488.0,3091.0,4095.0,4095.0,3277.0,3522.0,-1.56,9.11,4.1,-0.06,-0.02,-0.13,1.0,v
2829.0,2974.0,3489.0,3105.0,4095.0,4095.0,3285.0,3534.0,-1.65,9.16,3.89,-0.04,0.03,-0.08,1.0,v
2835.0,2967.0,3472.0,3094.0,4095.0,4095.0,3277.0,3522.0,-1.49,9.19,3.94,-0.03,-0.04,-0.1,1.0,v
2830.0,2981.0,3486.0,3094.0,4095.0,4095.0,3284.0,3537.0,-1.77,9.12,3.9,-0.07,0.02,-0.09,1.0,v
2826.0,2966.0,3479.0,3097.0,4095.0,4095.0,3270.0,3514.0,-1.68,9.09,4.03,-0.05,-0.03,-0.08,1.0,v
2832.0,2975.0,3488.0,3104.0,4095.0,4095.0,3280.0,3525.0,-1.67,9.15,3.9,-0.03,0.01,-0.08,1.0,v
2834.0,2986.0,3477.0,3098.0,4095.0,4095.0,3283.0,3540.0,-1.91,9.08,3.87,-0.06,-0.01,-0.09,1.0,v
2830.0,2987.0,3474.0,3094.0,4095.0,4095.0,3269.0,3527.0,-1.84,9.08,3.92,-0.04,0.0,-0.05,1.0,v
2827.0,2983.0,3503.0,3105.0,4095.0,4095.0,3280.0,3531.0,-1.83,9.11,3.91,-0.05,0.0,-0.06,1.0,v
2834.0,2975.0,3472.0,3099.0,4095.0,4095.0,3272.0,3526.0,-1.92,9.11,3.85,-0.03,0.02,-0.09,1.0,v
2830.0,2960.0,3478.0,3090.0,4095.0,4095.0,3280.0,3526.0,-2.1,9.15,3.66,-0.02,0.04,-0.06,1.0,v
2834.0,2987.0,3474.0,3102.0,4095.0,4095.0,3297.0,3537.0,-2.23,9.12,3.67,-0.04,-0.01,-0.05,1.0,v
2832.0,2971.0,3479.0,3098.0,4095.0,4095.0,3275.0,3530.0,-2.14,9.14,3.73,-0.03,0.02,-0.05,1.0,v
2832.0,2963.0,3481.0,3101.0,4095.0,4095.0,3284.0,3531.0,-2.21,9.11,3.71,-0.02,0.02,-0.04,1.0,v
2832.0,2965.0,3502.0,3104.0,4095.0,4095.0,3280.0,3536.0,-2.12,9.21,3.45,-0.06,-0.04,-0.06,1.0,v
2832.0,2964.0,3477.0,3089.0,4095.0,4095.0,3284.0,3527.0,-1.95,9.09,3.83,-0.04,-0.07,-0.08,1.0,v
2830.0,2963.0,3485.0,3099.0,4095.0,4095.0,3290.0,3536.0,-2.34,9.05,3.64,-0.02,0.08,-0.04,1.0,v
2834.0,2967.0,3479.0,3088.0,4095.0,4095.0,3283.0,3527.0,-2.16,9.19,3.46,-0.0,-0.04,-0.08,1.0,v
2828.0,2978.0,3509.0,3104.0,4095.0,4095.0,3278.0,3523.0,-2.1,9.13,3.64,-0.05,0.03,-0.09,1.0,v
2820.0,2974.0,3472.0,3089.0,4095.0,4095.0,3280.0,3521.0,-2.3,9.1,3.59,0.01,0.0,-0.08,1.0,v
2832.0,2989.0,3490.0,3094.0,4095.0,4095.0,3283.0,3538.0,-2.43,9.15,3.32,-0.01,0.0,-0.03,1.0,v
2835.0,2972.0,3483.0,3093.0,4095.0,4095.0,3281.0,3534.0,-2.2,9.15,3.44,-0.02,-0.05,-0.08,1.0,v
2822.0,2995.0,3498.0,3107.0,4095.0,4095.0,3294.0,3538.0,-2.12,9.2,3.51,-0.02,-0.01,-0.1,1.0,v
2826.0,2979.0,3485.0,3093.0,4095.0,4095.0,3277.0,3520.0,-2.64,9.11,3.23,-0.02,0.02,-0.09,1.0,v
2829.0,2978.0,3482.0,3107.0,4095.0,4095.0,3281.0,3543.0,-2.63,9.09,3.26,-0.02,-0.01,-0.06,1.0,v
2841.0,2977.0,3491.0,3097.0,4095.0,4095.0,3291.0,3536.0,-2.39,9.15,3.29,-0.02,-0.03,-0.04,1.0,v
2823.0,2971.0,3478.0,3089.0,4095.0,4095.0,3286.0,3532.0,-2.49,9.18,3.2,-0.03,0.04,-0.04,1.0,v
2832.0,2977.0,3488.0,3100.0,4095.0,4095.0,3283.0,3517.0,-2.31,9.26,3.11,-0.1,0.03,-0.1,1.0,v
2831.0,2965.0,3476.0,3094.0,4095.0,4095.0,3280.0,3519.0,-2.54,9.1,3.25,-0.07,0.01,-0.09,1.0,v
2845.0,2970.0,3485.0,3098.0,4095.0,4095.0,3291.0,3535.0,-2.75,9.06,3.15,-0.02,-0.04,-0.08,1.0,v
2868.0,2979.0,3471.0,3065.0,4095.0,4095.0,3307.0,3536.0,-2.09,9.44,2.7,-0.05,0.04,0.04,1.0,v
2861.0,2967.0,3471.0,3056.0,4095.0,4095.0,3295.0,3534.0,-2.0,9.41,2.8,-0.06,0.02,-0.01,1.0,v
2875.0,2982.0,3491.0,3071.0,4095.0,4095.0,3296.0,3530.0,-2.08,9.4,2.76,-0.04,-0.0,-0.0,1.0,v
2879.0,2980.0,3493.0,3071.0,4095.0,4095.0,3312.0,3539.0,-2.03,9.39,2.9,-0.07,-0.06,0.04,1.0,v
2865.0,2960.0,3470.0,3059.0,4095.0,4095.0,3303.0,3537.0,-1.68,9.48,2.79,0.01,0.04,0.09,1.0,v
2862.0,2963.0,3482.0,3071.0,4095.0,4095.0,3296.0,3547.0,-1.58,9.68,2.4,-0.01,0.06,0.05,1.0,v
2863.0,2975.0,3467.0,3066.0,4095.0,4095.0,3293.0,3531.0,-1.47,9.61,2.63,-0.08,0.04,0.05,1.0,v
2875.0,2981.0,3476.0,3071.0,4095.0,4095.0,3295.0,3558.0,-1.7,9.59,2.59,-0.06,0.0,0.02,1.0,v
2863.0,2965.0,3473.0,3061.0,4095.0,4095.0,3295.0,3542.0,-1.53,9.59,2.68,-0.05,0.02,0.03,1.0,v
2864.0,2978.0,3477.0,3079.0,4095.0,4095.0,3305.0,3551.0,-1.4,9.6,2.64,-0.05,0.04,0.02,1.0,v
2859.0,2973.0,3465.0,3063.0,4095.0,4095.0,3296.0,3543.0,-1.47,9.64,2.55,-0.03,0.08,0.02,1.0,v
2871.0,2978.0,3483.0,3068.0,4095.0,4095.0,3303.0,3563.0,-1.38,9.62,2.6,-0.05,-0.04,-0.03,1.0,v
2861.0,2970.0,3487.0,3067.0,4095.0,4095.0,3283.0,3538.0,-1.44,9.62,2.61,-0.06,0.0,-0.01,1.0,v
2871.0,2977.0,3476.0,3063.0,4095.0,4095.0,3295.0,3553.0,-1.3,9.68,2.55,-0.05,-0.04,-0.04,1.0,v
2869.0,2978.0,3477.0,3055.0,4095.0,4095.0,3280.0,3536.0,-1.31,9.57,2.77,-0.08,0.09,-0.03,1.0,v
2854.0,2978.0,3486.0,3062.0,4095.0,4095.0,3293.0,3542.0,-1.66,9.67,2.34,-0.08,0.07,-0.0,1.0,v
2863.0,2977.0,3477.0,3055.0,4095.0,4095.0,3297.0,3567.0,-1.37,9.6,2.55,-0.12,0.08,0.06,1.0,v
2851.0,2967.0,3477.0,3056.0,4095.0,4095.0,3283.0,3543.0,-1.04,9.76,2.65,-0.04,0.06,0.01,1.0,v
2864.0,2966.0,3490.0,3069.0,4095.0,4095.0,3297.0,3568.0,-1.44,9.55,2.83,-0.11,0.07,0.05,1.0,v
2862.0,2974.0,3478.0,3068.0,4095.0,4095.0,3282.0,3542.0,-1.38,9.7,2.36,-0.12,0.04,0.06,1.0,v
2881.0,2960.0,3814.0,2811.0,4095.0,4095.0,3147.0,3412.0,-0.06,9.31,3.64,0.15,-0.05,-0.23,1.0,v
2871.0,2975.0,3771.0,2809.0,4095.0,4095.0,3136.0,3404.0,-0.32,9.51,3.63,0.06,-0.1,-0.27,1.0,v
2875.0,2963.0,3782.0,2832.0,4095.0,4095.0,3141.0,3440.0,-0.6,9.75,2.93,0.23,-0.09,-0.03,1.0,v
2869.0,2966.0,3762.0,2821.0,4095.0,4095.0,3143.0,3399.0,-0.55,10.01,2.19,-0.07,0.01,0.01,1.0,v
2874.0,2955.0,3782.0,2836.0,4095.0,4095.0,3149.0,3437.0,0.07,9.5,3.53,-0.19,-0.26,0.05,1.0,v
2866.0,2963.0,3747.0,2839.0,4095.0,4095.0,3142.0,3438.0,-0.23,9.56,3.45,-0.09,-0.04,-0.13,1.0,v
2868.0,2967.0,3783.0,2846.0,4095.0,4095.0,3149.0,3446.0,-0.74,9.64,2.97,-0.09,0.02,0.01,1.0,v
2861.0,2956.0,3751.0,2836.0,4095.0,4095.0,3156.0,3431.0,-0.18,9.58,3.16,-0.15,-0.01,-0.0,1.0,v
2873.0,2960.0,3750.0,2853.0,4095.0,4095.0,3157.0,3439.0,0.46,9.54,3.74,-0.12,0.06,0.04,1.0,v
2874.0,2960.0,3759.0,2848.0,4095.0,4095.0,3151.0,3433.0,0.09,9.71,3.19,-0.04,0.14,-0.07,1.0,v
2871.0,2969.0,3773.0,2842.0,4095.0,4095.0,3157.0,3426.0,-0.24,9.55,3.22,-0.18,0.15,-0.14,1.0,v
2877.0,2966.0,3731.0,2836.0,4095.0,4095.0,3155.0,3397.0,-0.06,9.28,3.97,0.46,-0.71,-1.27,1.0,v
2853.0,2959.0,3741.0,2842.0,4095.0,4095.0,3152.0,3414.0,-1.84,9.11,3.22,-0.46,1.03,-0.31,1.0,v
2867.0,2974.0,3735.0,2864.0,4095.0,4095.0,3154.0,3439.0,-1.7,9.08,3.8,-0.47,0.55,0.21,1.0,v
2857.0,2960.0,3728.0,2863.0,4095.0,4095.0,3152.0,3456.0,-1.41,9.32,3.54,-0.22,0.5,-0.03,1.0,v
2867.0,2967.0,3743.0,2874.0,4095.0,4095.0,3170.0,3459.0,-2.29,9.1,3.66,-0.48,0.41,-0.07,1.0,v
2853.0,2960.0,3724.0,2866.0,4095.0,4095.0,3162.0,3460.0,-2.25,8.88,4.14,-0.31,0.33,0.15,1.0,v
2882.0,2974.0,3753.0,2868.0,4095.0,4095.0,3162.0,3451.0,-2.52,8.71,4.41,-0.09,0.28,0.17,1.0,v
2861.0,2957.0,3714.0,2858.0,4095.0,4095.0,3166.0,3495.0,-0.85,9.17,4.4,0.02,-0.05,0.34,1.0,v
2864.0,2961.0,3728.0,2864.0,4095.0,4095.0,3175.0,3503.0,-1.75,8.87,4.28,0.22,-0.42,0.14,1.0,v
2867.0,2959.0,3734.0,2864.0,4095.0,4095.0,3168.0,3505.0,-0.85,9.04,4.33,-0.0,0.19,0.02,1.0,v
2866.0,2970.0,3733.0,2879.0,4095.0,4095.0,3173.0,3511.0,-0.66,9.24,3.96,0.09,0.17,0.06,1.0,v
2869.0,2971.0,3729.0,2864.0,4095.0,4095.0,3173.0,3507.0,-0.28,9.51,3.58,0.08,0.18,0.0,1.0,v
2866.0,2977.0,3739.0,2874.0,4095.0,4095.0,3173.0,3529.0,-0.5,9.6,3.19,0.09,0.1,-0.01,1.0,v
2864.0,2958.0,3720.0,2866.0,4095.0,4095.0,3168.0,3521.0,-0.77,9.44,3.4,-0.16,-0.04,-0.14,1.0,v
2879.0,2992.0,3759.0,2875.0,4095.0,4095.0,3181.0,3520.0,-0.62,9.39,3.68,-0.16,-0.01,-0.04,1.0,v
2865.0,2973.0,3730.0,2871.0,4095.0,4095.0,3169.0,3503.0,-0.46,9.29,4.03,-0.18,-0.04,-0.09,1.0,v
2879.0,2977.0,3728.0,2870.0,4095.0,4095.0,3169.0,3519.0,-0.71,9.36,3.87,-0.07,-0.06,-0.03,1.0,v
2874.0,2961.0,3728.0,2871.0,4095.0,4095.0,3181.0,3527.0,-0.88,9.1,4.3,0.06,-0.95,-0.34,1.0,v
2877.0,2960.0,3715.0,2863.0,4095.0,4095.0,3169.0,3514.0,-0.6,9.27,4.12,-0.03,0.08,-0.01,1.0,v
2861.0,2958.0,3713.0,2865.0,4095.0,4095.0,3182.0,3517.0,-0.71,9.55,3.35,0.1,-0.03,-0.05,1.0,v
2864.0,2967.0,3717.0,2859.0,4095.0,4095.0,3169.0,3523.0,-0.47,9.45,3.71,-0.07,-0.1,-0.05,1.0,v
2861.0,2971.0,3721.0,2863.0,4095.0,4095.0,3184.0,3536.0,-0.42,9.36,4.05,-0.04,-0.0,-0.07,1.0,v
2862.0,2971.0,3738.0,2864.0,4095.0,4095.0,3164.0,3525.0,-0.97,9.32,3.68,-0.04,0.12,-0.0,1.0,v
2864.0,2973.0,3729.0,2870.0,4095.0,4095.0,3177.0,3526.0,-0.89,9.29,3.76,-0.09,0.07,0.02,1.0,v
2860.0,2963.0,3711.0,2863.0,4095.0,4095.0,3173.0,3514.0,-0.68,9.35,3.9,-0.04,0.07,0.04,1.0,v
2867.0,2961.0,3735.0,2863.0,4095.0,4095.0,3182.0,3531.0,-0.34,9.39,3.79,-0.03,0.04,-0.03,1.0,v
2864.0,2969.0,3729.0,2860.0,4095.0,4095.0,3170.0,3531.0,-0.72,9.51,3.36,0.02,-0.04,-0.09,1.0,v
2864.0,2980.0,3719.0,2867.0,4095.0,4095.0,3177.0,3521.0,-1.02,9.39,3.39,-0.03,0.08,0.05,1.0,v
2859.0,2970.0,3711.0,2861.0,4095.0,4095.0,3179.0,3530.0,-0.5,9.33,3.77,-0.14,0.05,0.09,1.0,v
2861.0,2978.0,3745.0,2871.0,4095.0,4095.0,3191.0,3535.0,-0.52,9.37,3.75,-0.06,-0.01,-0.05,1.0,v
2848.0,2970.0,3729.0,2864.0,4095.0,4095.0,3174.0,3531.0,-0.47,9.4,3.67,-0.05,0.05,-0.05,1.0,v
2848.0,2966.0,3727.0,2871.0,4095.0,4095.0,3191.0,3531.0,-0.65,9.42,3.59,-0.04,0.02,-0.05,1.0,v
2858.0,2961.0,3735.0,2869.0,4095.0,4095.0,3184.0,3525.0,-0.58,9.44,3.47,-0.09,-0.0,-0.04,1.0,v
2864.0,2965.0,3726.0,2874.0,4095.0,4095.0,3185.0,3538.0,-0.55,9.41,3.64,-0.06,0.01,-0.03,1.0,v
2850.0,2963.0,3723.0,2869.0,4095.0,4095.0,3180.0,3536.0,-0.68,9.29,3.84,-0.04,0.03,-0.02,1.0,v
2860.0,2965.0,3727.0,2870.0,4095.0,4095.0,3184.0,3529.0,-0.54,9.4,3.77,-0.07,0.05,-0.02,1.0,v
2871.0,2971.0,3714.0,2865.0,4095.0,4095.0,3184.0,3542.0,-0.48,9.54,3.54,0.01,0.0,-0.09,1.0,v
2853.0,2961.0,3722.0,2865.0,4095.0,4095.0,3183.0,3521.0,-0.57,9.51,3.51,-0.06,0.01,-0.09,1.0,v
2853.0,2969.0,3726.0,2875.0,4095.0,4095.0,3184.0,3537.0,-0.69,9.45,3.49,-0.05,0.0,-0.06,1.0,v
2853.0,2970.0,3712.0,2865.0,4095.0,4095.0,3184.0,3532.0,-0.69,9.41,3.67,-0.05,0.07,-0.05,1.0,v
2862.0,2976.0,3727.0,2881.0,4095.0,4095.0,3189.0,3537.0,-0.83,9.41,3.6,-0.04,0.01,-0.08,1.0,v
2844.0,2979.0,3707.0,2873.0,4095.0,4095.0,3179.0,3525.0,-0.97,9.44,3.36,-0.04,0.06,-0.02,1.0,v
2849.0,2961.0,3722.0,2877.0,4095.0,4095.0,3190.0,3536.0,-0.78,9.41,3.48,-0.04,0.03,-0.0,1.0,v
2863.0,2957.0,3724.0,2864.0,4095.0,4095.0,3184.0,3529.0,-0.67,9.44,3.56,-0.08,-0.03,-0.05,1.0,v
2861.0,2969.0,3717.0,2877.0,4095.0,4095.0,3191.0,3537.0,-1.07,9.41,3.44,-0.07,0.14,-0.0,1.0,v
2846.0,2962.0,3717.0,2869.0,4095.0,4095.0,3183.0,3525.0,-0.68,9.46,3.53,-0.04,-0.08,-0.05,1.0,v
2846.0,2980.0,3718.0,2871.0,4095.0,4095.0,3183.0,3534.0,-0.43,9.52,3.58,-0.07,-0.1,-0.1,1.0,v
2836.0,2981.0,3715.0,2867.0,4095.0,4095.0,3184.0,3538.0,-1.18,9.5,3.22,-0.05,-0.02,-0.12,1.0,v
2844.0,2960.0,3703.0,2864.0,4095.0,4095.0,3184.0,3531.0,-1.07,9.34,3.73,-0.1,-0.04,-0.02,1.0,v
2843.0,2965.0,3739.0,2864.0,4095.0,4095.0,3181.0,3536.0,-0.43,9.47,3.52,-0.08,0.1,-0.01,1.0,v
2848.0,2976.0,3731.0,2864.0,4095.0,4095.0,3190.0,3539.0,-0.65,9.46,3.56,-0.02,-0.06,-0.04,1.0,v
2843.0,2953.0,3726.0,2861.0,4095.0,4095.0,3184.0,3536.0,-0.82,9.43,3.39,-0.07,0.1,0.07,1.0,v
2853.0,2975.0,3720.0,2863.0,4095.0,4095.0,3189.0,3549.0,-0.29,9.5,3.58,-0.07,-0.08,-0.05,1.0,v
2844.0,2969.0,3716.0,2866.0,4095.0,4095.0,3182.0,3529.0,-0.86,9.49,3.22,-0.1,0.08,0.03,1.0,v
2847.0,2979.0,3728.0,2873.0,4095.0,4095.0,3187.0,3541.0,-0.57,9.43,3.63,-0.19,-0.09,0.02,1.0,v
2847.0,2960.0,3696.0,2864.0,4095.0,4095.0,3182.0,3534.0,-0.42,9.34,3.96,-0.15,-0.18,-0.05,1.0,v
2861.0,2971.0,3722.0,2837.0,4095.0,4095.0,3191.0,3533.0,-0.12,9.31,4.05,-0.04,0.05,0.04,1.0,v
2853.0,2967.0,3731.0,2837.0,4095.0,4095.0,3195.0,3536.0,-0.43,9.46,3.53,-0.03,0.06,0.02,1.0,v
2846.0,2989.0,3722.0,2837.0,4095.0,4095.0,3186.0,3538.0,0.1,9.75,3.31,-0.03,0.12,0.1,1.0,v
2857.0,2982.0,3717.0,2839.0,4095.0,4095.0,3193.0,3543.0,-0.04,9.34,4.01,-0.11,-0.03,-0.07,1.0,v
2864.0,2966.0,3721.0,2836.0,4095.0,4095.0,3195.0,3541.0,-0.39,9.32,3.63,-0.07,0.12,-0.02,1.0,v
2866.0,2975.0,3721.0,2855.0,4095.0,4095.0,3191.0,3541.0,-0.36,9.37,3.68,-0.14,0.07,-0.03,1.0,v
2848.0,2971.0,3712.0,2838.0,4095.0,4095.0,3184.0,3529.0,0.01,9.4,3.9,-0.02,-0.09,-0.12,1.0,v
2861.0,2975.0,3716.0,2835.0,4095.0,4095.0,3186.0,3536.0,-0.57,9.4,3.52,0.0,0.02,-0.07,1.0,v
2861.0,2960.0,3696.0,2832.0,4095.0,4095.0,3186.0,3525.0,-0.4,9.47,3.57,-0.09,-0.16,-0.15,1.0,v
2857.0,2970.0,3695.0,2829.0,4095.0,4095.0,3197.0,3546.0,-0.57,9.39,3.63,-0.0,0.0,-0.13,1.0,v
2857.0,2969.0,3684.0,2803.0,4095.0,4095.0,3184.0,3521.0,-0.63,9.59,3.22,-0.2,-0.11,-0.04,1.0,v
2867.0,2975.0,3691.0,2789.0,4095.0,4095.0,3190.0,3536.0,-0.95,9.33,3.68,-0.08,-0.15,-0.0,1.0,v
2864.0,2979.0,3672.0,2768.0,4095.0,4095.0,3179.0,3535.0,-0.23,9.42,4.0,-0.13,-0.18,-0.07,1.0,v
2889.0,2963.0,3721.0,2828.0,4095.0,4095.0,3186.0,3546.0,-0.57,9.02,4.64,0.08,0.05,-0.08,1.0,v
2879.0,2975.0,3690.0,2826.0,4095.0,4095.0,3199.0,3553.0,-0.45,9.03,4.68,0.09,-0.01,-0.04,1.0,v
2882.0,2973.0,3707.0,2838.0,4095.0,4095.0,3199.0,3583.0,-0.89,9.29,3.85,0.1,0.11,0.05,1.0,v
2869.0,2960.0,3681.0,2846.0,4095.0,4095.0,3198.0,3569.0,-0.56,9.32,3.62,-0.0,0.04,0.07,1.0,v
2864.0,2966.0,3702.0,2857.0,4095.0,4095.0,3191.0,3575.0,-0.01,9.32,3.97,-0.17,0.01,0.02,1.0,v
2873.0,2976.0,3712.0,2851.0,4095.0,4095.0,3195.0,3583.0,-0.28,9.02,4.36,-0.16,0.08,-0.08,1.0,v
2873.0,2975.0,3687.0,2858.0,4095.0,4095.0,3171.0,3573.0,-0.56,9.18,4.14,0.02,0.02,-0.07,1.0,v
2864.0,2963.0,3699.0,2864.0,4095.0,4095.0,3187.0,3583.0,-0.34,9.34,4.04,-0.07,0.01,-0.02,1.0,v
2864.0,2970.0,3677.0,2861.0,4095.0,4095.0,3186.0,3579.0,-0.45,9.28,4.05,-0.13,-0.03,-0.07,1.0,v
2870.0,2961.0,3702.0,2865.0,4095.0,4095.0,3200.0,3600.0,-0.58,9.14,4.33,-0.14,0.03,-0.02,1.0,v
2862.0,2958.0,3692.0,2871.0,4095.0,4095.0,3185.0,3573.0,-0.38,9.19,4.31,-0.15,-0.02,-0.06,1.0,v
2867.0,2973.0,3708.0,2875.0,4095.0,4095.0,3184.0,3583.0,-0.56,9.12,4.32,-0.15,-0.03,-0.06,1.0,v
2864.0,2960.0,3677.0,2877.0,4095.0,4095.0,3181.0,3575.0,-0.44,9.11,4.47,-0.18,-0.04,-0.02,1.0,v
2882.0,2972.0,3705.0,2878.0,4095.0,4095.0,3191.0,3605.0,-0.52,8.97,4.66,-0.2,0.01,-0.02,1.0,v
2861.0,2961.0,3697.0,2874.0,4095.0,4095.0,3177.0,3583.0,-0.35,9.0,4.75,-0.19,-0.04,-0.02,1.0,v
2864.0,2973.0,3690.0,2877.0,4095.0,4095.0,3197.0,3606.0,-0.42,8.87,5.02,-0.12,0.06,-0.0,1.0,v
2858.0,2963.0,3702.0,2867.0,4095.0,4095.0,3183.0,3600.0,-0.44,8.9,4.9,-0.07,-0.06,-0.03,1.0,v
2864.0,2969.0,3697.0,2870.0,4095.0,4095.0,3182.0,3581.0,-0.34,8.9,4.9,-0.09,0.0,-0.03,1.0,v
2873.0,2973.0,3702.0,2869.0,4095.0,4095.0,3184.0,3606.0,-0.34,8.92,4.93,-0.07,0.01,0.01,1.0,v
2855.0,2959.0,3677.0,2864.0,4095.0,4095.0,3191.0,3597.0,-0.27,8.86,5.01,-0.11,0.02,-0.0,1.0,v
2849.0,2965.0,3703.0,2867.0,4095.0,4095.0,3189.0,3583.0,-0.25,8.72,5.17,-0.09,0.01,0.07,1.0,v
2871.0,2973.0,3707.0,2869.0,4095.0,4095.0,3193.0,3617.0,0.12,8.79,5.29,-0.03,-0.02,0.02,1.0,v
2864.0,2969.0,3711.0,2877.0,4095.0,4095.0,3189.0,3598.0,-0.25,8.81,4.83,-0.07,0.14,0.04,1.0,v
2870.0,2987.0,3721.0,2881.0,4095.0,4095.0,3195.0,3614.0,-0.19,8.81,4.91,-0.09,-0.03,0.02,1.0,v
2851.0,2971.0,3714.0,2880.0,4095.0,4095.0,3195.0,3583.0,0.05,8.68,5.38,-0.13,-0.03,-0.0,1.0,v
2852.0,2971.0,3691.0,2873.0,4095.0,4095.0,3184.0,3601.0,-0.1,8.68,5.31,-0.03,0.06,0.04,1.0,v
2864.0,2985.0,3692.0,2864.0,4095.0,4095.0,3201.0,3607.0,0.07,8.8,5.07,0.0,0.02,0.05,1.0,v
2851.0,2963.0,3683.0,2866.0,4095.0,4095.0,3187.0,3600.0,0.05,8.68,5.36,0.01,0.07,0.04,1.0,v
2860.0,2972.0,3723.0,2867.0,4095.0,4095.0,3201.0,3603.0,0.17,8.78,5.12,0.05,0.06,0.06,1.0,v
2852.0,2963.0,3711.0,2869.0,4095.0,4095.0,3193.0,3583.0,0.15,8.96,4.84,0.03,0.03,0.07,1.0,v
2859.0,2976.0,3700.0,2868.0,4095.0,4095.0,3199.0,3611.0,0.26,8.99,4.72,0.03,0.06,0.06,1.0,v
2849.0,2966.0,3696.0,2867.0,4095.0,4095.0,3185.0,3602.0,0.46,9.0,4.82,0.02,-0.01,0.03,1.0,v
2848.0,2982.0,3714.0,2875.0,4095.0,4095.0,3200.0,3609.0,0.45,9.06,4.72,0.0,0.09,0.04,1.0,v
2855.0,2973.0,3694.0,2874.0,4095.0,4095.0,3189.0,3583.0,0.54,9.06,4.66,0.0,-0.06,-0.01,1.0,v
2853.0,2974.0,3699.0,2864.0,4095.0,4095.0,3204.0,3609.0,0.4,9.02,4.71,0.05,0.04,-0.06,1.0,v
2861.0,2966.0,3686.0,2863.0,4095.0,4095.0,3185.0,3605.0,0.46,9.14,4.47,-0.01,0.13,-0.02,1.0,v
2847.0,2971.0,3709.0,2863.0,4095.0,4095.0,3188.0,3583.0,0.52,9.19,4.43,-0.04,0.05,-0.03,1.0,v
2866.0,2967.0,3694.0,2872.0,4095.0,4095.0,3201.0,3613.0,0.2,9.1,4.42,0.03,0.14,-0.03,1.0,v
2849.0,2967.0,3686.0,2861.0,4095.0,4095.0,3188.0,3600.0,0.15,9.09,4.55,0.03,-0.05,-0.09,1.0,v
2851.0,2974.0,3702.0,2857.0,4095.0,4095.0,3201.0,3615.0,0.1,9.13,4.32,0.1,0.07,-0.04,1.0,v
2841.0,2960.0,3712.0,2877.0,4095.0,4095.0,3202.0,3605.0,0.08,9.46,3.55,-0.04,0.03,-0.09,1.0,v
2833.0,2964.0,3705.0,2864.0,4095.0,4095.0,3201.0,3598.0,0.2,9.5,3.67,-0.01,-0.12,-0.11,1.0,v
2850.0,2974.0,3695.0,2864.0,4095.0,4095.0,3206.0,3616.0,-0.08,9.43,3.65,-0.01,-0.0,-0.15,1.0,v
2850.0,2962.0,3693.0,2864.0,4095.0,4095.0,3211.0,3611.0,-0.4,9.48,3.47,-0.01,-0.01,-0.15,1.0,v
2861.0,2966.0,3681.0,2870.0,4095.0,4095.0,3200.0,3612.0,-0.27,9.54,3.39,0.0,-0.03,-0.06,1.0,v
2831.0,2979.0,3694.0,2861.0,4095.0,4095.0,3201.0,3611.0,0.03,9.64,3.28,-0.03,-0.02,-0.06,1.0,v
2849.0,2987.0,3709.0,2867.0,4095.0,4095.0,3207.0,3619.0,-0.31,9.43,3.56,-0.05,-0.02,-0.07,1.0,v
2839.0,2960.0,3700.0,2866.0,4095.0,4095.0,3196.0,3600.0,-0.23,9.6,3.22,-0.03,-0.02,-0.16,1.0,v
2851.0,2983.0,3706.0,2870.0,4095.0,4095.0,3201.0,3621.0,-0.52,9.53,3.37,0.03,-0.13,-0.16,1.0,v
2846.0,2973.0,3691.0,2869.0,4095.0,4095.0,3194.0,3611.0,-0.73,9.6,3.06,-0.03,0.1,-0.11,1.0,v
2846.0,2968.0,3728.0,2877.0,4095.0,4095.0,3202.0,3610.0,-0.46,9.56,3.22,0.03,-0.04,-0.06,1.0,v
2837.0,2969.0,3691.0,2864.0,4095.0,4095.0,3200.0,3610.0,-0.78,9.53,3.13,-0.06,0.06,-0.06,1.0,v
2850.0,2978.0,3727.0,2875.0,4095.0,4095.0,3200.0,3610.0,-0.66,9.54,3.18,-0.03,0.05,-0.07,1.0,v
2855.0,2987.0,3713.0,2877.0,4095.0,4095.0,3210.0,3616.0,-0.57,9.61,3.1,-0.02,-0.01,-0.08,1.0,v
2862.0,2973.0,3684.0,2864.0,4095.0,4095.0,3203.0,3605.0,-0.72,9.57,3.01,-0.07,0.04,-0.06,1.0,v
2847.0,2975.0,3699.0,2873.0,4095.0,4095.0,3201.0,3627.0,-0.7,9.6,3.07,-0.03,-0.01,-0.03,1.0,v
2855.0,2977.0,3702.0,2868.0,4095.0,4095.0,3197.0,3610.0,-0.67,9.63,2.95,-0.03,-0.01,-0.04,1.0,v
2836.0,2965.0,3727.0,2881.0,4095.0,4095.0,3197.0,3609.0,-0.68,9.65,2.94,-0.04,0.03,-0.04,1.0,v
2843.0,2963.0,3695.0,2867.0,4095.0,4095.0,3200.0,3601.0,-0.88,9.56,2.94,-0.01,-0.06,-0.06,1.0,v
2864.0,2976.0,3709.0,2879.0,4095.0,4095.0,3199.0,3616.0,-1.05,9.59,2.82,-0.07,-0.0,-0.05,1.0,v
2846.0,2965.0,3727.0,2880.0,4095.0,4095.0,3207.0,3621.0,-1.13,9.6,2.92,-0.1,-0.01,-0.1,1.0,v
2835.0,2971.0,3716.0,2879.0,4095.0,4095.0,3195.0,3607.0,-1.33,9.48,3.14,-0.06,-0.06,-0.11,1.0,v
2847.0,2970.0,3722.0,2880.0,4095.0,4095.0,3213.0,3619.0,-1.22,9.6,2.96,-0.09,-0.02,-0.08,1.0,v
2839.0,2960.0,3695.0,2874.0,4095.0,4095.0,3207.0,3606.0,-1.46,9.47,3.01,-0.15,0.06,-0.05,1.0,v
2847.0,2983.0,3713.0,2883.0,4095.0,4095.0,3200.0,3617.0,-1.34,9.42,3.26,-0.11,-0.04,-0.08,1.0,v
2863.0,2986.0,3699.0,2877.0,4095.0,4095.0,3197.0,3605.0,-1.43,9.44,3.17,-0.12,-0.03,-0.11,1.0,v
2855.0,2973.0,3711.0,2879.0,4095.0,4095.0,3207.0,3620.0,-1.37,9.41,3.33,-0.1,-0.06,-0.11,1.0,v
2864.0,2992.0,3723.0,2877.0,4095.0,4095.0,3215.0,3633.0,-1.51,9.34,3.47,-0.14,-0.03,-0.1,1.0,v
2841.0,2978.0,3696.0,2877.0,4095.0,4095.0,3205.0,3623.0,-1.6,9.32,3.49,-0.1,0.02,-0.09,1.0,v
2859.0,2979.0,3720.0,2886.0,4095.0,4095.0,3206.0,3632.0,-1.56,9.34,3.5,-0.1,-0.03,-0.12,1.0,v
2843.0,2981.0,3709.0,2881.0,4095.0,4095.0,3201.0,3626.0,-1.52,9.36,3.44,-0.11,-0.12,-0.18,1.0,v
2864.0,2971.0,3713.0,2880.0,4095.0,4095.0,3209.0,3622.0,-1.84,9.17,3.66,-0.13,0.08,-0.13,1.0,v
2837.0,2981.0,3696.0,2877.0,4095.0,4095.0,3203.0,3618.0,-2.07,9.15,3.61,-0.12,0.02,-0.1,1.0,v
2836.0,2975.0,3712.0,2886.0,4095.0,4095.0,3207.0,3620.0,-1.82,9.1,3.69,-0.09,0.01,-0.09,1.0,v
2844.0,2986.0,3695.0,2878.0,4095.0,4095.0,3205.0,3621.0,-1.95,9.09,3.77,-0.04,0.01,-0.15,1.0,v
2832.0,2976.0,3703.0,2885.0,4095.0,4095.0,3207.0,3616.0,-2.19,9.05,3.78,-0.06,0.15,-0.17,1.0,v
2841.0,2967.0,3707.0,2878.0,4095.0,4095.0,3200.0,3615.0,-2.66,8.97,3.62,-0.0,0.01,-0.17,1.0,v
2851.0,2987.0,3713.0,2882.0,4095.0,4095.0,3204.0,3629.0,-2.62,9.0,3.59,-0.0,0.02,-0.1,1.0,v
2845.0,2965.0,3701.0,2880.0,4095.0,4095.0,3200.0,3620.0,-2.8,8.99,3.54,0.02,0.06,-0.07,1.0,v
2838.0,2978.0,3717.0,2891.0,4095.0,4095.0,3203.0,3616.0,-2.44,9.09,3.42,0.03,-0.03,-0.06,1.0,v
2844.0,2969.0,3712.0,2891.0,4095.0,4095.0,3207.0,3617.0,-2.24,9.53,2.45,0.01,-0.03,0.0,1.0,v
2837.0,2970.0,3696.0,2883.0,4095.0,4095.0,3200.0,3621.0,-2.28,9.43,2.32,0.0,-0.09,0.08,1.0,v
2842.0,2967.0,3709.0,2884.0,4095.0,4095.0,3206.0,3631.0,-1.92,9.54,2.37,0.02,-0.18,-0.05,1.0,v
2837.0,2962.0,3696.0,2882.0,4095.0,4095.0,3213.0,3616.0,-1.89,9.55,2.39,-0.04,-0.03,-0.02,1.0,v
2832.0,2971.0,3709.0,2891.0,4095.0,4095.0,3211.0,3623.0,-2.06,9.51,2.34,-0.03,-0.03,-0.01,1.0,v
2834.0,2970.0,3703.0,2881.0,4095.0,4095.0,3210.0,3605.0,-2.07,9.57,2.27,-0.04,-0.02,0.05,1.0,v
2841.0,2977.0,3717.0,2891.0,4095.0,4095.0,3210.0,3630.0,-1.85,9.63,2.31,-0.05,0.13,0.04,1.0,v
2832.0,2970.0,3702.0,2887.0,4095.0,4095.0,3199.0,3602.0,-1.79,9.56,2.46,-0.07,-0.05,0.1,1.0,v
2832.0,2976.0,3701.0,2883.0,4095.0,4095.0,3211.0,3626.0,-1.52,9.56,2.4,0.04,0.12,0.06,1.0,v
2832.0,2977.0,3690.0,2882.0,4095.0,4095.0,3197.0,3583.0,-1.47,9.74,1.98,-0.03,0.03,0.07,1.0,v
2840.0,2975.0,3696.0,2882.0,4095.0,4095.0,3204.0,3627.0,-1.29,9.75,2.09,-0.12,0.03,0.04,1.0,v
2832.0,2974.0,3665.0,2881.0,4095.0,4095.0,3204.0,3626.0,-1.29,9.63,2.33,-0.15,0.03,0.04,1.0,v
2837.0,2957.0,3681.0,2881.0,4095.0,4095.0,3199.0,3603.0,-1.43,9.62,2.36,-0.14,0.04,-0.01,1.0,v
2833.0,2976.0,3710.0,2890.0,4095.0,4095.0,3209.0,3621.0,-1.51,9.59,2.38,-0.15,0.12,0.09,1.0,v
2838.0,2960.0,3696.0,2891.0,4095.0,4095.0,3196.0,3610.0,-1.31,9.68,2.43,-0.09,0.01,0.05,1.0,v
2841.0,2983.0,3701.0,2887.0,4095.0,4095.0,3214.0,3626.0,-0.92,9.81,2.26,-0.05,0.06,0.02,1.0,v
2831.0,2969.0,3693.0,2887.0,4095.0,4095.0,3207.0,3609.0,-1.06,9.69,2.49,-0.04,-0.0,-0.07,1.0,v
2842.0,2976.0,3706.0,2889.0,4095.0,4095.0,3204.0,3616.0,-1.09,9.73,2.48,-0.12,0.01,0.05,1.0,v
2833.0,2976.0,3679.0,2878.0,4095.0,4095.0,3202.0,3623.0,-0.96,9.73,2.43,-0.1,0.11,0.0,1.0,v
2845.0,2969.0,3703.0,2892.0,4095.0,4095.0,3209.0,3619.0,-0.99,9.67,2.58,-0.1,-0.05,-0.02,1.0,v
2849.0,2971.0,3689.0,2880.0,4095.0,4095.0,3211.0,3626.0,-0.69,9.72,2.68,-0.07,-0.08,-0.01,1.0,v
2849.0,2971.0,3703.0,2879.0,4095.0,4095.0,3210.0,3617.0,-0.58,9.7,2.77,-0.1,-0.1,0.08,1.0,v
2851.0,2973.0,3709.0,2879.0,4095.0,4095.0,3199.0,3617.0,-0.58,9.69,2.78,-0.15,-0.12,-0.1,1.0,v
2862.0,2987.0,3723.0,2890.0,4095.0,4095.0,3202.0,3631.0,-0.43,9.67,3.01,-0.19,-0.05,0.06,1.0,v
2845.0,2975.0,3703.0,2889.0,4095.0,4095.0,3203.0,3623.0,-0.17,9.65,3.23,-0.15,-0.01,-0.0,1.0,v
2861.0,2980.0,3716.0,2896.0,4095.0,4095.0,3206.0,3627.0,-0.62,9.62,3.04,-0.09,0.01,-0.04,1.0,v
2851.0,2977.0,3689.0,2888.0,4095.0,4095.0,3217.0,3632.0,-0.53,9.46,3.45,-0.11,-0.01,-0.06,1.0,v
2844.0,2976.0,3706.0,2896.0,4095.0,4095.0,3218.0,3632.0,-0.64,9.53,3.25,-0.02,-0.0,-0.05,1.0,v
2859.0,2975.0,3694.0,2891.0,4095.0,4095.0,3206.0,3630.0,-0.61,9.63,3.01,-0.1,0.03,-0.02,1.0,v
2853.0,2979.0,3712.0,2899.0,4095.0,4095.0,3217.0,3630.0,-0.76,9.59,3.05,-0.1,0.09,-0.02,1.0,v
2850.0,2972.0,3691.0,2881.0,4095.0,4095.0,3209.0,3623.0,-0.68,9.38,3.51,-0.07,0.02,0.03,1.0,v
2860.0,2985.0,3714.0,2881.0,4095.0,4095.0,3211.0,3633.0,-0.7,9.56,3.06,-0.26,-0.28,-0.2,1.0,v
2855.0,2976.0,3701.0,2874.0,4095.0,4095.0,3203.0,3632.0,-0.73,9.52,3.25,-0.19,-0.26,-0.09,1.0,v
2858.0,2960.0,3709.0,2882.0,4095.0,4095.0,3206.0,3614.0,-0.81,9.33,3.57,-0.11,-0.19,0.02,1.0,v
2851.0,2963.0,3728.0,2889.0,4095.0,4095.0,3215.0,3630.0,-0.56,9.62,3.11,-0.08,-0.15,0.09,1.0,v
2850.0,2970.0,3708.0,2880.0,4095.0,4095.0,3206.0,3623.0,0.12,9.4,3.75,-0.18,-0.15,0.18,1.0,v
2862.0,2962.0,3683.0,2879.0,4095.0,4095.0,3220.0,3636.0,0.31,9.33,4.08,-0.09,0.05,0.11,1.0,v
2847.0,2981.0,3695.0,2873.0,4095.0,4095.0,3214.0,3626.0,0.27,9.44,3.85,-0.19,-0.01,-0.04,1.0,v
2850.0,2975.0,3696.0,2884.0,4095.0,4095.0,3227.0,3644.0,0.38,9.34,4.09,-0.19,-0.01,-0.12,1.0,v
2851.0,2967.0,3681.0,2880.0,4095.0,4095.0,3220.0,3648.0,-0.0,9.3,4.05,0.03,-0.27,-0.18,1.0,v
2831.0,2944.0,3114.0,3071.0,4095.0,4095.0,3056.0,3039.0,0.01,9.38,3.99,-0.06,0.05,0.03,1.0,v
2845.0,2943.0,3108.0,3084.0,4095.0,4095.0,3067.0,3058.0,0.13,9.47,3.88,-0.02,0.0,-0.03,1.0,v
2838.0,2944.0,3090.0,3087.0,4095.0,4095.0,3063.0,3056.0,-0.12,9.45,4.01,-0.08,0.02,-0.03,1.0,v
2843.0,2945.0,3120.0,3102.0,4095.0,4095.0,3082.0,3059.0,-0.21,9.27,4.15,-0.06,-0.0,-0.04,1.0,v
2838.0,2932.0,3110.0,3094.0,4095.0,4095.0,3083.0,3066.0,-0.18,9.33,3.87,-0.01,0.02,0.06,1.0,v
2847.0,2939.0,3117.0,3099.0,4095.0,4095.0,3071.0,3061.0,0.27,9.52,3.73,-0.06,-0.02,-0.0,1.0,v
2839.0,2947.0,3115.0,3094.0,4095.0,4095.0,3071.0,3060.0,0.06,9.35,3.85,-0.08,-0.05,-0.02,1.0,v
2842.0,2947.0,3115.0,3101.0,4095.0,4095.0,3071.0,3081.0,0.06,9.34,3.9,-0.06,0.01,0.01,1.0,v
2833.0,2948.0,3121.0,3101.0,4095.0,4095.0,3071.0,3070.0,0.07,9.36,3.8,-0.06,0.05,-0.01,1.0,v
2835.0,2945.0,3129.0,3101.0,4095.0,4095.0,3088.0,3065.0,0.17,9.4,3.94,-0.07,-0.01,-0.03,1.0,v
2832.0,2949.0,3110.0,3093.0,4095.0,4095.0,3088.0,3084.0,0.02,9.38,3.87,-0.04,-0.01,-0.01,1.0,v
2837.0,2957.0,3119.0,3108.0,4095.0,4095.0,3086.0,3082.0,0.24,9.42,3.89,-0.06,0.02,-0.03,1.0,v
2839.0,2951.0,3119.0,3103.0,4095.0,4095.0,3088.0,3095.0,0.25,9.45,3.81,-0.06,-0.02,-0.05,1.0,v
2845.0,2944.0,3123.0,3102.0,4095.0,4095.0,3083.0,3087.0,0.09,9.41,3.74,-0.06,-0.01,-0.03,1.0,v
2837.0,2953.0,3120.0,3109.0,4095.0,4095.0,3098.0,3092.0,0.13,9.35,3.86,-0.09,-0.03,-0.04,1.0,v
2836.0,2951.0,3125.0,3104.0,4095.0,4095.0,3094.0,3082.0,0.41,9.69,3.63,-0.12,-0.2,-0.07,1.0,v
2827.0,2953.0,3134.0,3115.0,4095.0,4095.0,3091.0,3088.0,0.39,9.35,3.63,-0.09,-0.73,0.15,1.0,v
2835.0,2947.0,3123.0,3116.0,4095.0,4095.0,3095.0,3098.0,0.18,9.15,4.24,-0.29,-0.15,-0.09,1.0,v
2839.0,2946.0,3125.0,3123.0,4095.0,4095.0,3105.0,3102.0,0.21,9.05,4.7,-0.24,0.18,0.05,1.0,v
2828.0,2944.0,3122.0,3106.0,4095.0,4095.0,3107.0,3098.0,0.56,9.13,4.6,-0.11,0.22,0.01,1.0,v
2844.0,2974.0,3156.0,3029.0,4095.0,4095.0,3152.0,3149.0,-0.36,9.31,4.24,-0.1,-0.04,-0.1,1.0,v
2836.0,2975.0,3151.0,3019.0,4095.0,4095.0,3152.0,3136.0,-0.38,9.27,3.96,-0.05,-0.13,-0.13,1.0,v
2834.0,2971.0,3155.0,3033.0,4095.0,4095.0,3152.0,3135.0,-0.27,9.49,4.32,0.04,-0.27,-0.02,1.0,v
2835.0,2963.0,3146.0,3020.0,4095.0,4095.0,3153.0,3141.0,-0.54,9.2,4.18,-0.13,0.08,-0.1,1.0,v
2864.0,2960.0,3152.0,3024.0,4095.0,4095.0,3151.0,3136.0,-0.4,9.12,4.23,-0.21,0.08,-0.02,1.0,v
2855.0,2963.0,3155.0,3030.0,4095.0,4095.0,3155.0,3142.0,-0.31,9.17,4.54,-0.12,0.01,-0.17,1.0,v
2845.0,2963.0,3152.0,3024.0,4095.0,4095.0,3155.0,3143.0,-1.05,9.03,4.13,-0.14,0.17,-0.05,1.0,v
2854.0,2961.0,3143.0,3030.0,4095.0,4095.0,3165.0,3149.0,-0.65,9.17,4.16,-0.11,0.15,0.0,1.0,v
2854.0,2965.0,3150.0,3019.0,4095.0,4095.0,3140.0,3145.0,-0.59,9.11,4.6,-0.1,0.02,-0.07,1.0,v
2851.0,2960.0,3147.0,3024.0,4095.0,4095.0,3156.0,3152.0,-0.71,9.18,4.31,-0.08,0.0,-0.13,1.0,v
2864.0,2971.0,3152.0,3021.0,4095.0,4095.0,3149.0,3145.0,-1.05,8.95,4.48,-0.12,-0.0,-0.11,1.0,v
2864.0,2960.0,3152.0,3020.0,4095.0,4095.0,3162.0,3161.0,-0.55,9.08,4.8,-0.16,0.15,-0.03,1.0,v
2852.0,2962.0,3153.0,3018.0,4095.0,4095.0,3152.0,3158.0,-1.25,8.84,4.5,-0.01,0.0,-0.11,1.0,v
2864.0,2991.0,3156.0,3029.0,4095.0,4095.0,3155.0,3156.0,-1.11,8.92,4.55,-0.04,-0.13,-0.04,1.0,v
2864.0,2959.0,3152.0,3024.0,4095.0,4095.0,3155.0,3153.0,-0.88,8.99,4.64,-0.09,0.08,0.0,1.0,v
2865.0,2971.0,3147.0,3024.0,4095.0,4095.0,3169.0,3173.0,-0.9,9.05,4.43,-0.03,-0.04,-0.03,1.0,v
2861.0,2970.0,3152.0,3034.0,4095.0,4095.0,3158.0,3168.0,-0.76,8.97,4.65,-0.09,0.0,-0.01,1.0,v
2853.0,2961.0,3161.0,3019.0,4095.0,4095.0,3158.0,3157.0,-0.74,9.08,4.47,-0.02,0.0,-0.07,1.0,v
2857.0,2971.0,3152.0,3015.0,4095.0,4095.0,3162.0,3166.0,-1.11,9.07,4.24,-0.12,0.06,-0.06,1.0,v
2842.0,2963.0,3141.0,3015.0,4095.0,4095.0,3154.0,3167.0,-1.22,8.91,4.57,-0.11,-0.03,-0.06,1.0,v
2867.0,2989.0,3153.0,3024.0,4095.0,4095.0,3181.0,3182.0,-1.73,8.86,4.48,-0.02,-0.02,-0.1,1.0,v
2864.0,2971.0,3152.0,3013.0,4095.0,4095.0,3169.0,3183.0,-1.71,8.86,4.58,-0.06,0.0,-0.12,1.0,v
2867.0,2971.0,3158.0,3021.0,4095.0,4095.0,3171.0,3187.0,-1.79,8.84,4.47,-0.07,0.02,-0.1,1.0,v
2858.0,2971.0,3150.0,3015.0,4095.0,4095.0,3169.0,3180.0,-2.03,8.75,4.56,-0.04,0.03,-0.12,1.0,v
2854.0,2977.0,3152.0,3011.0,4095.0,4095.0,3167.0,3190.0,-2.11,8.8,4.47,0.0,-0.05,-0.08,1.0,v
2848.0,2971.0,3164.0,3021.0,4095.0,4095.0,3171.0,3195.0,-1.99,8.81,4.38,-0.06,0.0,-0.07,1.0,v
2849.0,2961.0,3143.0,3011.0,4095.0,4095.0,3169.0,3184.0,-1.84,8.71,4.78,-0.08,-0.03,-0.09,1.0,v
2852.0,2970.0,3165.0,3024.0,4095.0,4095.0,3170.0,3185.0,-2.19,8.69,4.58,0.0,0.04,-0.1,1.0,v
2844.0,2957.0,3149.0,3013.0,4095.0,4095.0,3168.0,3191.0,-2.32,8.74,4.46,-0.01,0.12,-0.05,1.0,v
2858.0,2963.0,3159.0,3022.0,4095.0,4095.0,3175.0,3191.0,-2.24,8.78,4.28,0.05,0.05,-0.09,1.0,v
2843.0,2971.0,3152.0,3023.0,4095.0,4095.0,3169.0,3184.0,-2.51,8.83,4.07,0.06,0.02,-0.08,1.0,v
2849.0,2973.0,3163.0,3024.0,4095.0,4095.0,3172.0,3189.0,-2.41,8.73,4.28,-0.03,0.07,-0.02,1.0,v
2847.0,2961.0,3151.0,3018.0,4095.0,4095.0,3169.0,3186.0,-2.43,8.72,4.47,-0.03,0.16,0.04,1.0,v
2863.0,2978.0,3159.0,3024.0,4095.0,4095.0,3174.0,3194.0,-2.52,8.83,4.02,0.01,0.46,0.04,1.0,v
2843.0,2960.0,3151.0,3020.0,4095.0,4095.0,3163.0,3189.0,-2.48,9.11,3.3,0.1,0.02,0.06,1.0,v
2859.0,2973.0,3163.0,3024.0,4095.0,4095.0,3178.0,3199.0,-2.77,8.8,3.97,-0.23,0.35,0.06,1.0,v
2852.0,2965.0,3153.0,3024.0,4095.0,4095.0,3178.0,3204.0,-2.74,9.0,3.35,0.13,0.02,-0.15,1.0,v
2845.0,2965.0,3151.0,3020.0,4095.0,4095.0,3173.0,3200.0,-2.98,8.85,3.51,-0.05,0.01,0.11,1.0,v
2855.0,2971.0,3152.0,3026.0,4095.0,4095.0,3184.0,3213.0,-2.38,9.01,3.75,-0.05,-0.07,0.04,1.0,v
2861.0,2971.0,3161.0,3023.0,4095.0,4095.0,3166.0,3191.0,-2.21,9.13,3.63,0.05,0.01,0.01,1.0,v
2861.0,2974.0,3152.0,3039.0,4095.0,4095.0,3184.0,3205.0,-1.85,9.41,2.94,-0.04,0.06,0.02,1.0,v
2847.0,2975.0,3157.0,3027.0,4095.0,4095.0,3184.0,3207.0,-1.85,9.38,3.09,-0.04,-0.05,-0.01,1.0,v
2846.0,2978.0,3156.0,3038.0,4095.0,4095.0,3169.0,3205.0,-1.71,9.37,3.16,-0.02,-0.0,0.01,1.0,v
2864.0,2969.0,3158.0,3043.0,4095.0,4095.0,3179.0,3211.0,-1.76,9.38,2.99,0.01,0.08,0.06,1.0,v
2855.0,2965.0,3152.0,3034.0,4095.0,4095.0,3173.0,3202.0,-1.83,9.48,2.74,-0.04,-0.05,0.03,1.0,v
2854.0,2983.0,3162.0,3038.0,4095.0,4095.0,3184.0,3211.0,-1.53,9.59,2.75,0.01,0.06,0.06,1.0,v
2855.0,2972.0,3152.0,3028.0,4095.0,4095.0,3175.0,3209.0,-1.36,9.61,3.0,-0.06,-0.21,-0.09,1.0,v
2864.0,2988.0,3153.0,3034.0,4095.0,4095.0,3179.0,3219.0,-1.67,9.48,2.85,0.02,0.18,0.02,1.0,v
2859.0,2965.0,3146.0,3026.0,4095.0,4095.0,3175.0,3210.0,-1.7,9.46,2.81,-0.06,-0.09,-0.02,1.0,v
2854.0,2987.0,3161.0,3035.0,4095.0,4095.0,3175.0,3214.0,-1.56,9.53,2.76,-0.07,0.1,0.07,1.0,v
2849.0,2967.0,3158.0,3038.0,4095.0,4095.0,3178.0,3211.0,-1.23,9.56,2.93,-0.08,-0.03,0.01,1.0,v
2855.0,2972.0,3155.0,3037.0,4095.0,4095.0,3181.0,3221.0,-1.42,9.54,2.85,-0.03,0.03,-0.0,1.0,v
2846.0,2960.0,3152.0,3039.0,4095.0,4095.0,3177.0,3211.0,-1.36,9.56,2.89,-0.04,0.04,0.0,1.0,v
2854.0,2975.0,3164.0,3041.0,4095.0,4095.0,3179.0,3216.0,-1.26,9.68,2.61,-0.01,0.04,-0.03,1.0,v
2859.0,2966.0,3145.0,3030.0,4095.0,4095.0,3191.0,3219.0,-1.31,9.62,2.73,-0.03,-0.03,-0.06,1.0,v
2841.0,2963.0,3152.0,3038.0,4095.0,4095.0,3175.0,3209.0,-1.39,9.58,2.78,-0.0,0.01,-0.06,1.0,v
2859.0,2971.0,3153.0,3041.0,4095.0,4095.0,3186.0,3216.0,-1.42,9.66,2.52,-0.04,0.1,-0.02,1.0,v
2850.0,2973.0,3147.0,3040.0,4095.0,4095.0,3179.0,3214.0,-1.31,9.68,2.43,-0.09,-0.19,-0.17,1.0,v
2855.0,2970.0,3159.0,3043.0,4095.0,4095.0,3184.0,3227.0,-1.7,9.64,2.49,-0.07,0.02,-0.13,1.0,v
2853.0,2977.0,3153.0,3041.0,4095.0,4095.0,3184.0,3216.0,-1.61,9.32,3.4,-0.03,-0.08,-0.09,1.0,v
2863.0,2976.0,3154.0,3042.0,4095.0,4095.0,3179.0,3215.0,-1.67,9.85,1.7,0.07,0.13,-0.06,1.0,v
2851.0,2982.0,3158.0,3042.0,4095.0,4095.0,3183.0,3227.0,-1.86,9.71,1.7,0.01,0.01,-0.08,1.0,v
2845.0,2962.0,3152.0,3039.0,4095.0,4095.0,3179.0,3217.0,-1.68,9.68,1.68,0.14,-0.05,-0.08,1.0,v
2851.0,2975.0,3159.0,3041.0,4095.0,4095.0,3188.0,3233.0,-2.1,9.59,1.76,-0.03,0.1,-0.11,1.0,v
2839.0,2958.0,3157.0,3034.0,4095.0,4095.0,3184.0,3222.0,-2.06,9.72,1.2,0.01,0.1,-0.08,1.0,v
2843.0,2977.0,3152.0,3045.0,4095.0,4095.0,3186.0,3233.0,-1.81,9.78,1.44,-0.02,-0.02,-0.1,1.0,v
2856.0,2969.0,3150.0,3036.0,4095.0,4095.0,3181.0,3231.0,-2.0,9.71,1.47,-0.03,0.02,-0.05,1.0,v
2862.0,2972.0,3154.0,3047.0,4095.0,4095.0,3181.0,3236.0,-1.83,9.8,1.26,0.07,-0.18,-0.16,1.0,v
2842.0,2978.0,3161.0,3034.0,4095.0,4095.0,3175.0,3223.0,-2.16,9.66,1.31,0.0,-0.11,-0.16,1.0,v
2847.0,2965.0,3168.0,3050.0,4095.0,4095.0,3174.0,3228.0,-2.39,9.67,1.06,-0.04,0.02,-0.12,1.0,v
2843.0,2983.0,3147.0,3039.0,4095.0,4095.0,3173.0,3223.0,-2.35,9.63,1.2,-0.11,0.08,-0.06,1.0,v
2850.0,2973.0,3151.0,3047.0,4095.0,4095.0,3187.0,3227.0,-2.49,9.53,1.4,-0.14,0.07,-0.08,1.0,v
2846.0,2973.0,3153.0,3036.0,4095.0,4095.0,3182.0,3231.0,-2.55,9.54,1.32,-0.06,-0.03,-0.09,1.0,v
2843.0,2961.0,3152.0,3039.0,4095.0,4095.0,3171.0,3222.0,-2.42,9.63,1.36,-0.07,-0.05,-0.1,1.0,v
2847.0,2969.0,3152.0,3045.0,4095.0,4095.0,3182.0,3234.0,-2.5,9.6,1.31,-0.06,-0.07,-0.15,1.0,v
2842.0,2960.0,3152.0,3036.0,4095.0,4095.0,3167.0,3222.0,-2.84,9.47,1.35,-0.06,-0.09,-0.19,1.0,v
2845.0,2965.0,3158.0,3042.0,4095.0,4095.0,3184.0,3231.0,-2.74,9.49,1.43,-0.14,0.01,-0.07,1.0,v
2838.0,2967.0,3152.0,3039.0,4095.0,4095.0,3175.0,3223.0,-2.82,9.42,1.61,-0.12,-0.02,-0.09,1.0,v
2845.0,2976.0,3151.0,3039.0,4095.0,4095.0,3184.0,3233.0,-2.92,9.35,1.67,-0.12,-0.04,-0.06,1.0,v
2839.0,2975.0,3171.0,3034.0,4095.0,4095.0,3183.0,3223.0,-2.87,9.33,1.76,-0.11,0.04,-0.04,1.0,v
2844.0,2963.0,3152.0,3047.0,4095.0,4095.0,3182.0,3238.0,-3.31,9.33,1.63,-0.23,0.09,0.02,1.0,v
2850.0,2966.0,3152.0,3047.0,4095.0,4095.0,3189.0,3235.0,-2.62,9.36,2.19,-0.14,-0.07,0.01,1.0,v
2833.0,2964.0,3151.0,3035.0,4095.0,4095.0,3182.0,3223.0,-2.81,9.3,2.27,-0.16,-0.0,-0.03,1.0,v
2844.0,2977.0,3152.0,3056.0,4095.0,4095.0,3183.0,3233.0,-2.95,9.25,2.25,-0.15,0.1,0.01,1.0,v
2849.0,2959.0,3145.0,3034.0,4095.0,4095.0,3179.0,3233.0,-2.61,9.36,2.33,-0.07,-0.11,-0.03,1.0,v
2842.0,2960.0,3158.0,3056.0,4095.0,4095.0,3184.0,3229.0,-2.89,9.29,2.2,-0.14,0.1,-0.03,1.0,v
2837.0,2965.0,3153.0,3043.0,4095.0,4095.0,3179.0,3220.0,-2.8,9.32,2.36,-0.13,-0.08,-0.03,1.0,v
2835.0,2960.0,3161.0,3047.0,4095.0,4095.0,3190.0,3237.0,-2.88,9.24,2.49,-0.09,-0.02,-0.04,1.0,v
2843.0,2970.0,3146.0,3037.0,4095.0,4095.0,3181.0,3228.0,-2.94,9.2,2.5,-0.12,-0.0,-0.02,1.0,v
2847.0,2974.0,3165.0,3051.0,4095.0,4095.0,3184.0,3237.0,-2.79,9.25,2.49,-0.14,0.04,-0.02,1.0,v
2839.0,2961.0,3162.0,3046.0,4095.0,4095.0,3184.0,3223.0,-2.83,9.23,2.66,-0.11,-0.06,-0.06,1.0,v
2845.0,2977.0,3168.0,3047.0,4095.0,4095.0,3190.0,3238.0,-2.84,9.18,2.77,-0.09,-0.03,-0.06,1.0,v
2832.0,2959.0,3144.0,3039.0,4095.0,4095.0,3184.0,3238.0,-2.92,9.21,2.68,-0.08,0.01,-0.03,1.0,v
2837.0,2967.0,3153.0,3044.0,4095.0,4095.0,3178.0,3247.0,-2.9,9.19,2.59,-0.1,-0.03,-0.01,1.0,v
2842.0,2977.0,3154.0,3055.0,4095.0,4095.0,3190.0,3237.0,-2.7,9.23,2.81,-0.13,-0.01,-0.02,1.0,v
2842.0,2985.0,3143.0,3043.0,4095.0,4095.0,3182.0,3232.0,-2.79,9.17,2.94,-0.12,0.01,-0.02,1.0,v
2845.0,2970.0,3152.0,3056.0,4095.0,4095.0,3189.0,3241.0,-2.74,9.2,2.89,-0.06,-0.03,-0.02,1.0,v
2841.0,2971.0,3149.0,3041.0,4095.0,4095.0,3186.0,3237.0,-2.8,9.14,2.9,-0.1,0.02,0.01,1.0,v
2857.0,2974.0,3153.0,3051.0,4095.0,4095.0,3197.0,3248.0,-2.93,9.09,2.94,-0.11,0.02,0.1,1.0,v
2843.0,2965.0,3153.0,3042.0,4095.0,4095.0,3184.0,3240.0,-2.24,9.32,2.95,-0.07,0.02,0.05,1.0,v
2848.0,2964.0,3152.0,3055.0,4095.0,4095.0,3186.0,3247.0,-2.48,9.23,3.09,-0.06,-0.04,-0.02,1.0,v
2848.0,2983.0,3159.0,3059.0,4095.0,4095.0,3193.0,3250.0,-2.64,9.19,3.04,-0.09,0.11,0.1,1.0,v
2835.0,2978.0,3157.0,3062.0,4095.0,4095.0,3187.0,3250.0,-2.1,9.36,2.97,-0.04,0.05,0.09,1.0,v
2832.0,2960.0,3152.0,3055.0,4095.0,4095.0,3186.0,3243.0,-2.09,9.34,2.94,-0.07,0.03,0.01,1.0,v
2843.0,2979.0,3154.0,3051.0,4095.0,4095.0,3199.0,3253.0,-2.1,9.34,3.04,-0.04,0.01,-0.01,1.0,v
2845.0,2977.0,3153.0,3045.0,4095.0,4095.0,3183.0,3245.0,-2.16,9.32,2.99,-0.05,0.05,0.01,1.0,v
2848.0,2966.0,3168.0,3054.0,4095.0,4095.0,3191.0,3248.0,-2.2,9.34,2.9,-0.04,0.03,0.01,1.0,v
2854.0,2978.0,3156.0,3047.0,4095.0,4095.0,3184.0,3244.0,-2.23,9.28,3.03,-0.02,0.04,0.05,1.0,v
2850.0,2969.0,3165.0,3053.0,4095.0,4095.0,3187.0,3239.0,-2.08,9.44,2.68,-0.03,0.07,0.1,1.0,v
2846.0,2973.0,3152.0,3042.0,4095.0,4095.0,3183.0,3242.0,-1.8,9.51,2.67,-0.08,0.06,0.1,1.0,v
2860.0,2985.0,3164.0,3040.0,4095.0,4095.0,3191.0,3249.0,-1.7,9.54,2.83,-0.07,0.02,0.08,1.0,v
2851.0,2966.0,3144.0,3027.0,4095.0,4095.0,3187.0,3238.0,-1.48,9.45,2.86,-0.04,0.03,0.11,1.0,v
2855.0,2977.0,3165.0,3024.0,4095.0,4095.0,3191.0,3241.0,-1.5,9.45,2.83,0.01,-0.06,0.03,1.0,v
2883.0,2970.0,3135.0,2947.0,4095.0,4095.0,3196.0,3235.0,-1.27,9.34,2.82,0.01,-0.02,0.05,1.0,v
2880.0,2982.0,3149.0,2911.0,4095.0,4095.0,3196.0,3206.0,-1.19,9.63,2.73,-0.0,0.06,0.06,1.0,v
2889.0,2975.0,3135.0,2926.0,4095.0,4095.0,3209.0,3218.0,-1.21,9.66,2.55,-0.04,0.06,0.07,1.0,v
2879.0,2978.0,3131.0,2935.0,4095.0,4095.0,3202.0,3183.0,-1.01,9.66,2.78,-0.1,0.03,0.06,1.0,v
2880.0,2985.0,3136.0,2951.0,4095.0,4095.0,3216.0,3215.0,-0.86,9.67,2.86,-0.08,0.08,0.02,1.0,v
2880.0,2971.0,3137.0,2957.0,4095.0,4095.0,3205.0,3213.0,-1.05,9.66,2.87,-0.07,0.03,0.02,1.0,v
2878.0,2974.0,3136.0,2967.0,4095.0,4095.0,3214.0,3217.0,-1.0,9.62,2.86,-0.07,0.02,0.02,1.0,v
2880.0,2974.0,3137.0,2955.0,4095.0,4095.0,3216.0,3248.0,-0.68,9.71,2.75,-0.05,-0.0,-0.0,1.0,v
2864.0,2963.0,3148.0,2964.0,4095.0,4095.0,3219.0,3245.0,-0.74,9.64,2.85,-0.06,-0.0,0.02,1.0,v
2864.0,2965.0,3139.0,2966.0,4095.0,4095.0,3210.0,3234.0,-0.64,9.66,2.84,-0.07,0.02,0.02,1.0,v
2878.0,2967.0,3127.0,2973.0,4095.0,4095.0,3227.0,3245.0,-0.52,9.68,2.9,-0.06,-0.03,0.04,1.0,v
2873.0,2972.0,3137.0,2970.0,4095.0,4095.0,3214.0,3235.0,-0.53,9.68,2.79,-0.06,0.01,0.01,1.0,v
2875.0,2975.0,3153.0,2981.0,4095.0,4095.0,3223.0,3242.0,-0.59,9.67,2.88,-0.09,0.07,0.01,1.0,v
2880.0,2963.0,3142.0,2971.0,4095.0,4095.0,3215.0,3243.0,-0.54,9.65,2.9,-0.06,0.1,0.04,1.0,v
2880.0,2977.0,3152.0,2991.0,4095.0,4095.0,3220.0,3246.0,-0.33,9.74,2.76,-0.06,0.0,0.0,1.0,v
2884.0,2965.0,3134.0,2977.0,4095.0,4095.0,3216.0,3243.0,-0.38,9.73,2.82,-0.07,-0.0,-0.04,1.0,v
2868.0,2967.0,3149.0,2986.0,4095.0,4095.0,3219.0,3245.0,-0.47,9.67,2.9,-0.08,0.02,-0.03,1.0,v
2865.0,2960.0,3137.0,2978.0,4095.0,4095.0,3216.0,3235.0,-0.51,9.62,2.97,-0.09,0.08,-0.01,1.0,v
2877.0,2975.0,3141.0,2982.0,4095.0,4095.0,3229.0,3248.0,-0.39,9.73,2.85,-0.07,-0.0,-0.03,1.0,v
2866.0,2967.0,3139.0,2979.0,4095.0,4095.0,3223.0,3247.0,-0.47,9.69,2.89,-0.06,-0.08,-0.06,1.0,v
2869.0,2977.0,3141.0,2980.0,4095.0,4095.0,3216.0,3248.0,-0.43,9.71,2.99,-0.1,0.02,-0.03,1.0,v
2869.0,2967.0,3150.0,2994.0,4095.0,4095.0,3222.0,3248.0,-0.51,9.55,3.01,-0.06,-0.02,-0.05,1.0,v
2865.0,2953.0,3137.0,2985.0,4095.0,4095.0,3218.0,3243.0,-0.32,9.73,2.93,-0.07,0.01,-0.03,1.0,v
2874.0,2979.0,3140.0,2992.0,4095.0,4095.0,3223.0,3248.0,-0.46,9.65,2.95,-0.05,-0.01,-0.04,1.0,v
2875.0,2969.0,3137.0,2985.0,4095.0,4095.0,3223.0,3248.0,-0.34,9.72,2.93,-0.1,0.05,-0.01,1.0,v
2886.0,2977.0,3152.0,2990.0,4095.0,4095.0,3224.0,3257.0,-0.36,9.68,3.01,-0.08,-0.03,-0.05,1.0,v
2864.0,2961.0,3143.0,2991.0,4095.0,4095.0,3216.0,3242.0,-0.45,9.62,3.16,-0.09,-0.01,-0.04,1.0,v
2867.0,2972.0,3150.0,2987.0,4095.0,4095.0,3221.0,3248.0,-0.39,9.63,3.13,-0.07,-0.14,-0.05,1.0,v
2874.0,2975.0,3142.0,2998.0,4095.0,4095.0,3221.0,3254.0,-0.34,9.63,3.21,-0.11,-0.02,-0.03,1.0,v
2864.0,2975.0,3136.0,2997.0,4095.0,4095.0,3237.0,3260.0,-0.31,9.66,3.21,-0.08,-0.09,-0.06,1.0,v
2865.0,2977.0,3142.0,2989.0,4095.0,4095.0,3218.0,3251.0,-0.36,9.58,3.3,-0.11,-0.0,-0.03,1.0,v
2877.0,2986.0,3137.0,3005.0,4095.0,4095.0,3230.0,3259.0,-0.34,9.58,3.36,-0.12,0.01,-0.01,1.0,v
2874.0,2971.0,3147.0,2994.0,4095.0,4095.0,3223.0,3248.0,-0.28,9.62,3.31,-0.1,0.01,0.03,1.0,v
2865.0,2971.0,3151.0,3002.0,4095.0,4095.0,3222.0,3251.0,-0.19,9.51,3.43,-0.12,-0.01,0.01,1.0,v
2864.0,2979.0,3146.0,3001.0,4095.0,4095.0,3220.0,3255.0,-0.15,9.5,3.56,-0.1,-0.02,0.0,1.0,v
2881.0,2976.0,3148.0,2994.0,4095.0,4095.0,3235.0,3260.0,-0.17,9.41,3.59,-0.06,-0.04,0.03,1.0,v
2880.0,2971.0,3141.0,2993.0,4095.0,4095.0,3223.0,3251.0,0.03,9.5,3.63,-0.07,0.02,0.02,1.0,v
2879.0,2975.0,3147.0,2995.0,4095.0,4095.0,3223.0,3258.0,0.03,9.53,3.52,-0.07,0.04,0.02,1.0,v
2879.0,2972.0,3152.0,2997.0,4095.0,4095.0,3219.0,3255.0,0.08,9.55,3.51,-0.04,-0.01,-0.01,1.0,v
2875.0,2982.0,3146.0,2998.0,4095.0,4095.0,3234.0,3267.0,-0.0,9.51,3.5,-0.0,-0.03,-0.03,1.0,v
2865.0,2976.0,3139.0,2995.0,4095.0,4095.0,3223.0,3255.0,0.13,9.53,3.51,-0.07,-0.01,-0.0,1.0,v
2861.0,2970.0,3151.0,3002.0,4095.0,4095.0,3217.0,3249.0,0.12,9.52,3.51,-0.05,0.01,-0.02,1.0,v
2862.0,2974.0,3152.0,3003.0,4095.0,4095.0,3227.0,3263.0,0.04,9.48,3.48,-0.09,0.06,0.0,1.0,v
2864.0,2963.0,3145.0,2992.0,4095.0,4095.0,3217.0,3259.0,0.08,9.51,3.53,-0.04,0.01,-0.01,1.0,v
2864.0,2960.0,3152.0,3006.0,4095.0,4095.0,3230.0,3257.0,0.06,9.53,3.49,-0.08,0.02,0.02,1.0,v
2869.0,2964.0,3141.0,2995.0,4095.0,4095.0,3217.0,3253.0,0.12,9.51,3.59,-0.04,-0.0,0.02,1.0,v
2881.0,2977.0,3148.0,2999.0,4095.0,4095.0,3230.0,3265.0,0.2,9.56,3.56,-0.03,0.06,0.0,1.0,v
2875.0,2957.0,3143.0,2992.0,4095.0,4095.0,3223.0,3253.0,0.29,9.52,3.46,-0.08,0.04,0.03,1.0,v
2877.0,2974.0,3150.0,2995.0,4095.0,4095.0,3230.0,3267.0,0.31,9.49,3.5,-0.08,0.04,0.01,1.0,v
2864.0,2973.0,3141.0,2994.0,4095.0,4095.0,3216.0,3261.0,0.27,9.48,3.42,-0.06,0.01,0.02,1.0,v
2877.0,2982.0,3167.0,3006.0,4095.0,4095.0,3229.0,3263.0,0.54,9.56,3.5,-0.1,0.06,0.01,1.0,v
2865.0,2979.0,3142.0,2999.0,4095.0,4095.0,3229.0,3263.0,0.43,9.43,3.5,-0.02,-0.06,-0.07,1.0,v
2870.0,2962.0,3150.0,2993.0,4095.0,4095.0,3222.0,3259.0,0.43,9.61,3.38,-0.02,-0.05,-0.04,1.0,v
2865.0,2969.0,3149.0,3008.0,4095.0,4095.0,3231.0,3259.0,0.39,9.55,3.31,-0.07,0.01,-0.05,1.0,v
2871.0,2970.0,3143.0,2992.0,4095.0,4095.0,3210.0,3259.0,0.49,9.61,3.4,-0.1,-0.01,-0.05,1.0,v
2870.0,2966.0,3147.0,3007.0,4095.0,4095.0,3231.0,3264.0,0.22,9.45,3.49,-0.1,-0.01,-0.04,1.0,v
2869.0,2983.0,3134.0,2992.0,4095.0,4095.0,3220.0,3263.0,0.56,9.57,3.51,-0.08,0.01,-0.07,1.0,v
2877.0,2960.0,3143.0,3005.0,4095.0,4095.0,3234.0,3271.0,0.31,9.45,3.49,-0.1,-0.08,-0.13,1.0,v
2880.0,2965.0,3138.0,2992.0,4095.0,4095.0,3226.0,3263.0,0.22,9.5,3.64,-0.09,-0.03,-0.1,1.0,v
2871.0,2971.0,3139.0,3002.0,4095.0,4095.0,3234.0,3267.0,0.2,9.48,3.56,-0.1,-0.01,-0.1,1.0,v
2870.0,2960.0,3142.0,2995.0,4095.0,4095.0,3222.0,3265.0,0.08,9.4,3.72,-0.1,-0.0,-0.04,1.0,v
2870.0,2967.0,3143.0,3007.0,4095.0,4095.0,3227.0,3268.0,0.13,9.45,3.72,-0.03,-0.04,-0.06,1.0,v
2864.0,2976.0,3143.0,2996.0,4095.0,4095.0,3227.0,3269.0,0.08,9.44,3.65,-0.08,0.03,-0.02,1.0,v
2862.0,2971.0,3159.0,3007.0,4095.0,4095.0,3214.0,3259.0,0.22,9.5,3.64,-0.07,-0.03,-0.04,1.0,v
2874.0,2973.0,3153.0,3001.0,4095.0,4095.0,3225.0,3260.0,0.19,9.55,3.57,-0.02,-0.06,-0.08,1.0,v
2870.0,2966.0,3145.0,2993.0,4095.0,4095.0,3221.0,3263.0,0.2,9.44,3.72,-0.1,-0.01,-0.06,1.0,v
2869.0,2966.0,3142.0,3003.0,4095.0,4095.0,3225.0,3264.0,0.06,9.43,3.66,-0.1,0.05,-0.05,1.0,v
2887.0,2979.0,3463.0,2638.0,4095.0,4095.0,3149.0,3423.0,-0.61,7.73,6.36,-0.17,-0.38,0.02,1.0,v
2893.0,2969.0,3445.0,2639.0,4095.0,4095.0,3151.0,3399.0,0.74,8.62,6.81,0.41,0.16,0.11,1.0,v
2889.0,2957.0,3450.0,2614.0,4095.0,4095.0,3139.0,3278.0,-0.04,8.71,4.3,0.29,0.39,0.12,1.0,v
2893.0,2961.0,3461.0,2634.0,4095.0,4095.0,3151.0,3189.0,0.08,9.51,3.38,0.03,0.05,0.02,1.0,v
2887.0,2971.0,3463.0,2635.0,4095.0,4095.0,3151.0,3389.0,-1.09,8.84,3.98,-0.19,0.11,0.14,1.0,v
2885.0,2966.0,3450.0,2640.0,4095.0,4095.0,3159.0,3440.0,0.41,8.95,5.23,0.15,-0.44,-0.06,1.0,v
2885.0,2969.0,3441.0,2637.0,4095.0,4095.0,3139.0,3427.0,0.48,9.33,3.98,0.09,-0.06,-0.27,1.0,v
2892.0,2963.0,3441.0,2638.0,4095.0,4095.0,3152.0,3434.0,0.17,9.32,4.12,-0.09,-0.04,-0.14,1.0,v
2882.0,2960.0,3431.0,2641.0,4095.0,4095.0,3152.0,3435.0,-0.45,9.01,4.35,-0.06,0.08,-0.05,1.0,v
2892.0,2970.0,3439.0,2647.0,4095.0,4095.0,3157.0,3440.0,0.06,9.14,4.56,-0.1,0.12,0.04,1.0,v
2886.0,2965.0,3430.0,2642.0,4095.0,4095.0,3152.0,3435.0,0.02,9.17,4.3,-0.08,0.05,0.02,1.0,v
2895.0,2973.0,3463.0,2656.0,4095.0,4095.0,3154.0,3422.0,0.13,9.25,4.24,-0.1,0.19,0.0,1.0,v
2894.0,2975.0,3445.0,2653.0,4095.0,4095.0,3158.0,3443.0,-0.29,9.24,4.34,-0.03,0.0,-0.15,1.0,v
2879.0,2966.0,3472.0,2661.0,4095.0,4095.0,3156.0,3431.0,-0.34,9.24,4.34,0.04,-0.08,-0.11,1.0,v
2887.0,2963.0,3469.0,2670.0,4095.0,4095.0,3165.0,3453.0,-0.2,9.23,4.39,-0.09,0.11,-0.06,1.0,v
2876.0,2960.0,3455.0,2658.0,4095.0,4095.0,3158.0,3443.0,-0.59,9.18,4.23,-0.04,0.0,-0.11,1.0,v
2887.0,2962.0,3477.0,2668.0,4095.0,4095.0,3163.0,3449.0,-0.65,9.15,4.23,-0.09,0.07,-0.04,1.0,v
2880.0,2958.0,3470.0,2668.0,4095.0,4095.0,3161.0,3447.0,-0.59,9.16,4.19,-0.17,0.11,-0.0,1.0,v
2890.0,2970.0,3474.0,2672.0,4095.0,4095.0,3161.0,3455.0,-0.46,9.1,4.54,-0.19,-0.07,-0.05,1.0,v
2895.0,2966.0,3472.0,2666.0,4095.0,4095.0,3151.0,3455.0,-0.24,9.04,4.7,-0.18,-0.06,-0.1,1.0,v
2887.0,2969.0,3473.0,2678.0,4095.0,4095.0,3168.0,3472.0,-0.48,8.61,5.34,-0.12,0.06,0.07,1.0,v
2889.0,2975.0,3493.0,2683.0,4095.0,4095.0,3166.0,3477.0,-0.17,8.79,5.25,-0.05,-0.05,0.03,1.0,v
2875.0,2970.0,3472.0,2675.0,4095.0,4095.0,3153.0,3462.0,-0.33,8.66,5.28,-0.06,-0.09,0.02,1.0,v
2887.0,2977.0,3487.0,2687.0,4095.0,4095.0,3165.0,3469.0,-0.14,8.77,5.12,-0.06,0.01,0.07,1.0,v
2874.0,2974.0,3472.0,2677.0,4095.0,4095.0,3158.0,3461.0,0.11,8.89,5.09,-0.05,0.14,0.09,1.0,v
2873.0,2963.0,3479.0,2686.0,4095.0,4095.0,3167.0,3467.0,-0.18,8.84,4.94,-0.07,0.09,0.1,1.0,v
2873.0,2967.0,3491.0,2678.0,4095.0,4095.0,3167.0,3462.0,0.06,8.78,5.26,-0.02,0.02,0.02,1.0,v
2887.0,2981.0,3495.0,2694.0,4095.0,4095.0,3157.0,3473.0,0.0,8.84,5.01,0.08,0.1,0.03,1.0,v
2874.0,2963.0,3478.0,2689.0,4095.0,4095.0,3163.0,3461.0,0.12,8.95,4.8,0.02,0.11,0.0,1.0,v
2880.0,2977.0,3499.0,2690.0,4095.0,4095.0,3164.0,3462.0,-0.05,8.95,4.67,-0.0,0.06,0.01,1.0,v
2875.0,2963.0,3487.0,2688.0,4095.0,4095.0,3165.0,3456.0,0.04,8.98,4.72,-0.04,0.08,0.0,1.0,v
2873.0,2967.0,3488.0,2688.0,4095.0,4095.0,3170.0,3467.0,0.21,8.99,4.93,-0.05,-0.03,0.01,1.0,v
2863.0,2967.0,3487.0,2681.0,4095.0,4095.0,3162.0,3340.0,0.42,9.21,4.59,0.21,-0.64,-0.25,1.0,v
2883.0,2960.0,3476.0,2683.0,4095.0,4095.0,3166.0,3439.0,0.5,8.94,4.73,-0.08,-0.39,-0.18,1.0,v
2887.0,2967.0,3475.0,2687.0,4095.0,4095.0,3170.0,3450.0,0.02,9.18,4.82,0.19,-0.15,-0.17,1.0,v
2885.0,2963.0,3471.0,2674.0,4095.0,4095.0,3165.0,3454.0,-0.07,9.34,4.0,0.09,0.07,0.01,1.0,v
2882.0,2983.0,3461.0,2698.0,4095.0,4095.0,3163.0,3431.0,0.32,9.39,3.87,-0.1,0.17,0.06,1.0,v
2873.0,2963.0,3440.0,2701.0,4095.0,4095.0,3166.0,3370.0,0.41,9.17,4.08,-0.02,0.02,-0.07,1.0,v
2875.0,2965.0,3454.0,2704.0,4095.0,4095.0,3173.0,3349.0,0.07,9.11,4.24,0.04,0.1,-0.01,1.0,v
2864.0,2960.0,3441.0,2700.0,4095.0,4095.0,3173.0,3375.0,0.02,9.39,3.75,-0.0,0.18,0.07,1.0,v
2871.0,2979.0,3472.0,2710.0,4095.0,4095.0,3182.0,3443.0,-0.58,9.4,3.42,-0.11,0.06,-0.14,1.0,v
2877.0,2960.0,3455.0,2703.0,4095.0,4095.0,3178.0,3442.0,-0.61,9.51,3.3,0.01,-0.07,-0.13,1.0,v
2882.0,2967.0,3465.0,2705.0,4095.0,4095.0,3190.0,3459.0,-0.48,9.46,3.44,-0.04,0.08,-0.04,1.0,v
2870.0,2960.0,3434.0,2700.0,4095.0,4095.0,3184.0,3445.0,-0.32,9.51,3.48,0.04,0.03,-0.17,1.0,v
2870.0,2960.0,3458.0,2710.0,4095.0,4095.0,3184.0,3453.0,-1.2,9.64,2.69,-0.01,0.09,-0.08,1.0,v
2864.0,2975.0,3439.0,2703.0,4095.0,4095.0,3184.0,3454.0,-0.63,9.56,3.22,-0.1,-0.05,-0.08,1.0,v
2864.0,2979.0,3459.0,2709.0,4095.0,4095.0,3190.0,3462.0,-0.73,9.53,3.17,-0.07,0.05,-0.07,1.0,v
2864.0,2963.0,3451.0,2701.0,4095.0,4095.0,3170.0,3455.0,-0.85,9.55,3.16,-0.0,-0.01,-0.1,1.0,v
2867.0,2975.0,3450.0,2702.0,4095.0,4095.0,3184.0,3455.0,-1.12,9.53,2.91,-0.05,0.05,-0.09,1.0,v
2865.0,2981.0,3453.0,2706.0,4095.0,4095.0,3186.0,3467.0,-1.19,9.5,2.98,-0.1,0.06,-0.08,1.0,v
2863.0,2977.0,3456.0,2707.0,4095.0,4095.0,3172.0,3429.0,-1.28,9.48,3.06,-0.06,0.03,-0.04,1.0,v
2864.0,2967.0,3470.0,2705.0,4095.0,4095.0,3187.0,3466.0,-0.89,9.61,3.05,-0.09,-0.04,-0.07,1.0,v
2869.0,2963.0,3450.0,2704.0,4095.0,4095.0,3188.0,3466.0,-1.0,9.54,3.03,-0.13,-0.06,-0.13,1.0,v
2865.0,2967.0,3459.0,2711.0,4095.0,4095.0,3185.0,3467.0,-1.3,9.44,3.27,-0.2,0.1,-0.11,1.0,v
2864.0,2977.0,3454.0,2708.0,4095.0,4095.0,3181.0,3431.0,-1.46,9.22,3.56,-0.12,-0.1,-0.14,1.0,v
2870.0,2975.0,3469.0,2717.0,4095.0,4095.0,3184.0,3455.0,-1.64,9.29,3.37,-0.13,0.02,-0.08,1.0,v
2863.0,2971.0,3468.0,2715.0,4095.0,4095.0,3173.0,3440.0,-1.35,9.33,3.51,-0.11,-0.06,-0.14,1.0,v
2877.0,2991.0,3459.0,2711.0,4095.0,4095.0,3194.0,3456.0,-1.54,9.34,3.49,-0.04,0.05,-0.09,1.0,v
2862.0,2959.0,3456.0,2707.0,4095.0,4095.0,3184.0,3427.0,-1.84,9.18,3.56,0.06,-0.0,-0.12,1.0,v
2876.0,2986.0,3461.0,2707.0,4095.0,4095.0,3177.0,3451.0,-1.58,9.5,3.28,0.05,-0.01,-0.06,1.0,v
2867.0,2977.0,3447.0,2720.0,4095.0,4095.0,3191.0,3455.0,-1.55,9.64,2.33,0.02,0.02,-0.0,1.0,v
2863.0,2971.0,3456.0,2720.0,4095.0,4095.0,3198.0,3469.0,-1.51,9.66,2.32,0.02,-0.04,-0.09,1.0,v
2857.0,2977.0,3463.0,2719.0,4095.0,4095.0,3183.0,3450.0,-1.47,9.64,2.25,0.09,-0.14,-0.16,1.0,v
2857.0,2980.0,3471.0,2727.0,4095.0,4095.0,3187.0,3465.0,-1.76,9.66,2.14,0.0,0.0,-0.16,1.0,v
2851.0,2951.0,3457.0,2721.0,4095.0,4095.0,3184.0,3459.0,-1.85,9.61,2.05,0.11,0.05,-0.07,1.0,v
2858.0,2974.0,3472.0,2725.0,4095.0,4095.0,3183.0,3469.0,-1.69,9.8,1.74,0.05,-0.05,-0.17,1.0,v
2862.0,2966.0,3456.0,2719.0,4095.0,4095.0,3184.0,3456.0,-2.04,9.61,1.66,-0.04,0.07,-0.15,1.0,v
2851.0,2969.0,3466.0,2724.0,4095.0,4095.0,3186.0,3462.0,-2.14,9.66,1.47,-0.01,-0.1,-0.19,1.0,v
2858.0,2974.0,3467.0,2730.0,4095.0,4095.0,3183.0,3456.0,-2.2,9.62,1.63,-0.1,-0.1,-0.16,1.0,v
2864.0,2986.0,3447.0,2726.0,4095.0,4095.0,3191.0,3462.0,-2.43,9.48,1.97,-0.13,-0.07,-0.17,1.0,v
2858.0,2960.0,3447.0,2725.0,4095.0,4095.0,3193.0,3461.0,-2.54,9.37,2.15,-0.09,0.01,-0.11,1.0,v
2861.0,2963.0,3455.0,2735.0,4095.0,4095.0,3198.0,3478.0,-2.55,9.45,1.91,-0.03,-0.0,-0.13,1.0,v
2863.0,2963.0,3461.0,2727.0,4095.0,4095.0,3190.0,3472.0,-2.59,9.54,1.71,-0.09,-0.07,-0.13,1.0,v
2849.0,2956.0,3452.0,2725.0,4095.0,4095.0,3177.0,3466.0,-2.75,9.38,1.98,-0.16,0.07,-0.08,1.0,v
2849.0,2971.0,3451.0,2721.0,4095.0,4095.0,3199.0,3479.0,-2.81,9.34,2.1,-0.14,0.08,-0.12,1.0,v
2845.0,2967.0,3454.0,2733.0,4095.0,4095.0,3181.0,3462.0,-2.96,9.29,2.09,-0.22,0.13,-0.05,1.0,v
2865.0,2973.0,3467.0,2733.0,4095.0,4095.0,3184.0,3463.0,-3.01,9.22,2.24,-0.14,-0.05,-0.14,1.0,v
2861.0,2964.0,3446.0,2721.0,4095.0,4095.0,3182.0,3467.0,-3.16,9.21,2.27,-0.12,-0.02,-0.04,1.0,v
2864.0,2976.0,3469.0,2735.0,4095.0,4095.0,3198.0,3474.0,-3.0,9.25,2.29,-0.14,-0.0,-0.02,1.0,v
2860.0,2971.0,3457.0,2734.0,4095.0,4095.0,3182.0,3456.0,-2.95,9.16,2.58,-0.14,-0.07,-0.05,1.0,v
2854.0,2963.0,3455.0,2741.0,4095.0,4095.0,3191.0,3472.0,-3.06,9.05,2.89,-0.07,-0.03,-0.01,1.0,v
2850.0,2960.0,3461.0,2736.0,4095.0,4095.0,3182.0,3456.0,-2.94,9.12,2.78,-0.11,0.07,0.04,1.0,v
2853.0,2979.0,3474.0,2737.0,4095.0,4095.0,3191.0,3466.0,-2.82,9.16,2.85,-0.18,-0.02,0.03,1.0,v
2867.0,2958.0,3450.0,2729.0,4095.0,4095.0,3186.0,3467.0,-3.13,9.01,3.0,-0.13,-0.03,-0.0,1.0,v
2867.0,2960.0,3459.0,2736.0,4095.0,4095.0,3195.0,3472.0,-2.7,9.08,3.23,-0.08,-0.08,0.04,1.0,v
2864.0,2973.0,3463.0,2734.0,4095.0,4095.0,3190.0,3470.0,-2.66,9.07,3.21,-0.07,-0.04,0.01,1.0,v
2864.0,2970.0,3468.0,2729.0,4095.0,4095.0,3193.0,3483.0,-2.72,9.07,3.2,-0.06,0.04,0.04,1.0,v
2851.0,2972.0,3457.0,2751.0,4095.0,4095.0,3184.0,3463.0,-2.54,9.17,3.2,-0.11,-0.02,0.03,1.0,v
2867.0,2977.0,3461.0,2736.0,4095.0,4095.0,3200.0,3484.0,-2.8,9.04,3.08,-0.12,0.1,0.15,1.0,v
2863.0,2963.0,3456.0,2737.0,4095.0,4095.0,3191.0,3468.0,-2.12,9.28,3.33,-0.08,-0.08,0.07,1.0,v
2874.0,2977.0,3463.0,2741.0,4095.0,4095.0,3200.0,3481.0,-2.2,9.23,3.36,-0.09,0.04,0.06,1.0,v
2855.0,2970.0,3455.0,2736.0,4095.0,4095.0,3189.0,3485.0,-2.37,9.21,3.17,-0.08,0.09,0.06,1.0,v
2869.0,2977.0,3464.0,2736.0,4095.0,4095.0,3189.0,3469.0,-2.11,9.31,3.23,-0.08,0.06,0.06,1.0,v
2862.0,2975.0,3478.0,2737.0,4095.0,4095.0,3189.0,3479.0,-2.05,9.26,3.33,-0.1,-0.02,0.02,1.0,v
2864.0,2971.0,3453.0,2733.0,4095.0,4095.0,3193.0,3473.0,-2.02,9.25,3.37,-0.08,0.05,0.05,1.0,v
2863.0,2974.0,3455.0,2747.0,4095.0,4095.0,3193.0,3485.0,-1.85,9.29,3.34,-0.08,0.03,0.03,1.0,v
2865.0,2971.0,3456.0,2735.0,4095.0,4095.0,3197.0,3472.0,-1.76,9.35,3.27,-0.04,-0.03,-0.07,1.0,v
2868.0,2986.0,3465.0,2736.0,4095.0,4095.0,3198.0,3485.0,-2.28,9.17,3.26,-0.09,0.02,0.01,1.0,v
2863.0,2966.0,3458.0,2736.0,4095.0,4095.0,3184.0,3472.0,-1.98,9.26,3.32,-0.11,0.02,0.05,1.0,v
2867.0,2971.0,3470.0,2738.0,4095.0,4095.0,3198.0,3482.0,-1.68,9.34,3.38,-0.08,-0.05,0.02,1.0,v
2864.0,2977.0,3458.0,2737.0,4095.0,4095.0,3194.0,3486.0,-1.82,9.28,3.44,-0.1,0.02,0.03,1.0,v
2861.0,2992.0,3471.0,2733.0,4095.0,4095.0,3188.0,3475.0,-1.53,9.28,3.51,-0.1,-0.11,0.01,1.0,v
2880.0,2962.0,3451.0,2729.0,4095.0,4095.0,3182.0,3470.0,-1.5,9.39,3.43,-0.1,-0.04,0.03,1.0,v
2858.0,2967.0,3443.0,2726.0,4095.0,4095.0,3197.0,3466.0,-1.34,9.62,3.16,-0.19,-0.05,0.07,1.0,v
2867.0,2979.0,3414.0,2751.0,4095.0,4095.0,3198.0,3379.0,-1.05,9.18,4.01,-0.57,-0.11,0.17,1.0,v
2878.0,2966.0,3418.0,2771.0,4095.0,4095.0,3197.0,3066.0,-1.16,9.01,4.33,-0.22,0.04,-0.02,1.0,v
2879.0,2973.0,3408.0,2773.0,4095.0,4095.0,3214.0,3258.0,-1.3,9.15,4.01,-0.09,-0.02,0.02,1.0,v
2882.0,2965.0,3421.0,2797.0,4095.0,4095.0,3220.0,3242.0,-1.02,9.09,4.22,-0.19,-0.06,0.04,1.0,v
2867.0,2963.0,3408.0,2797.0,4095.0,4095.0,3216.0,3267.0,-0.98,8.99,4.46,-0.13,-0.02,-0.03,1.0,v
2881.0,2964.0,3409.0,2811.0,4095.0,4095.0,3219.0,3313.0,-1.07,9.05,4.33,-0.06,-0.06,-0.04,1.0,v
2865.0,2973.0,3390.0,2807.0,4095.0,4095.0,3214.0,3282.0,-0.93,9.14,4.35,-0.04,-0.08,-0.04,1.0,v
2880.0,2975.0,3394.0,2821.0,4095.0,4095.0,3221.0,3315.0,-1.18,9.02,4.37,-0.04,-0.0,-0.01,1.0,v
2889.0,2961.0,3377.0,2810.0,4095.0,4095.0,3217.0,3303.0,-1.02,9.19,4.11,-0.02,0.04,0.1,1.0,v
2883.0,2969.0,3381.0,2815.0,4095.0,4095.0,3219.0,3342.0,-0.74,8.99,4.61,-0.06,0.02,0.06,1.0,v
2873.0,2967.0,3395.0,2816.0,4095.0,4095.0,3220.0,3343.0,-0.53,9.38,3.89,0.0,-0.06,-0.01,1.0,v
2889.0,2962.0,3373.0,2813.0,4095.0,4095.0,3216.0,3338.0,-0.84,9.09,4.29,-0.1,-0.02,-0.01,1.0,v
2882.0,2970.0,3358.0,2815.0,4095.0,4095.0,3237.0,3365.0,-0.71,9.08,4.43,-0.06,-0.03,0.0,1.0,v
2873.0,2965.0,3353.0,2815.0,4095.0,4095.0,3216.0,3361.0,-0.59,9.22,4.23,-0.04,0.03,0.0,1.0,v
2875.0,2962.0,3357.0,2818.0,4095.0,4095.0,3222.0,3376.0,-0.58,9.23,4.13,-0.11,0.04,0.02,1.0,v
2882.0,2965.0,3349.0,2812.0,4095.0,4095.0,3223.0,3375.0,-0.45,9.17,4.35,-0.09,-0.0,-0.0,1.0,v
2882.0,2960.0,3357.0,2807.0,4095.0,4095.0,3230.0,3423.0,-0.48,9.14,4.32,-0.07,-0.01,-0.05,1.0,v
2877.0,2971.0,3369.0,2815.0,4095.0,4095.0,3225.0,3429.0,-0.59,9.05,4.37,-0.05,-0.0,-0.08,1.0,v
2880.0,2973.0,3377.0,2814.0,4095.0,4095.0,3226.0,3427.0,-0.53,9.13,4.36,-0.01,-0.01,-0.02,1.0,v
2882.0,2981.0,3376.0,2806.0,4095.0,4095.0,3203.0,3407.0,-0.41,9.27,4.17,-0.07,-0.0,-0.06,1.0,v
2891.0,2977.0,3381.0,2807.0,4095.0,4095.0,3227.0,3443.0,-0.52,9.2,4.26,-0.09,-0.04,-0.07,1.0,v
2874.0,2961.0,3367.0,2814.0,4095.0,4095.0,3222.0,3438.0,-0.6,9.07,4.36,-0.1,0.0,-0.04,1.0,v
2883.0,2967.0,3376.0,2808.0,4095.0,4095.0,3237.0,3450.0,-0.61,9.07,4.44,-0.09,-0.05,-0.03,1.0,v
2869.0,2977.0,3356.0,2806.0,4095.0,4095.0,3217.0,3440.0,-0.49,9.11,4.47,-0.1,0.02,-0.01,1.0,v
2880.0,2980.0,3378.0,2802.0,4095.0,4095.0,3226.0,3455.0,-0.48,9.09,4.49,-0.09,0.06,-0.04,1.0,v
2878.0,2961.0,3359.0,2799.0,4095.0,4095.0,3223.0,3441.0,-0.66,9.02,4.48,-0.08,-0.05,-0.07,1.0,v
2877.0,2973.0,3380.0,2811.0,4095.0,4095.0,3235.0,3450.0,-0.5,9.08,4.56,-0.1,0.02,-0.02,1.0,v
2876.0,2971.0,3377.0,2807.0,4095.0,4095.0,3217.0,3435.0,-0.43,9.08,4.53,-0.13,-0.0,-0.07,1.0,v
2894.0,2979.0,3377.0,2822.0,4095.0,4095.0,3229.0,3446.0,-0.62,8.94,4.74,-0.16,-0.02,-0.06,1.0,v
2871.0,2960.0,3363.0,2805.0,4095.0,4095.0,3228.0,3450.0,-0.59,8.89,4.81,-0.14,0.0,-0.05,1.0,v
2873.0,2974.0,3390.0,2807.0,4095.0,4095.0,3227.0,3446.0,-0.57,8.8,5.07,-0.12,-0.02,-0.04,1.0,v
2896.0,2971.0,3367.0,2800.0,4095.0,4095.0,3246.0,3468.0,-0.79,8.8,5.06,0.09,-0.06,-0.1,1.0,v
2890.0,2967.0,3361.0,2766.0,4095.0,4095.0,3226.0,3454.0,-0.69,9.02,4.59,0.05,-0.07,-0.11,1.0,v
2901.0,2972.0,3355.0,2747.0,4095.0,4095.0,3234.0,3483.0,-0.61,8.99,4.55,-0.03,0.06,-0.06,1.0,v
2890.0,2963.0,3343.0,2746.0,4095.0,4095.0,3230.0,3483.0,-0.59,9.15,4.4,-0.09,0.04,-0.03,1.0,v
2895.0,2983.0,3349.0,2758.0,4095.0,4095.0,3233.0,3489.0,-0.6,9.03,4.67,-0.16,-0.07,-0.08,1.0,v
2898.0,2979.0,3350.0,2779.0,4095.0,4095.0,3241.0,3479.0,-0.58,8.7,5.13,-0.1,-0.01,-0.02,1.0,v
2907.0,2963.0,3346.0,2778.0,4095.0,4095.0,3232.0,3472.0,-0.6,8.75,5.11,-0.08,-0.02,-0.03,1.0,v
2887.0,2970.0,3333.0,2778.0,4095.0,4095.0,3235.0,3475.0,-0.56,8.79,5.01,-0.11,-0.05,-0.01,1.0,v
2899.0,2983.0,3344.0,2788.0,4095.0,4095.0,3241.0,3475.0,-0.43,8.67,5.32,-0.14,-0.03,-0.03,1.0,v
2882.0,2970.0,3346.0,2786.0,4095.0,4095.0,3233.0,3471.0,-0.54,8.62,5.33,-0.1,0.01,-0.05,1.0,v
2899.0,2987.0,3346.0,2791.0,4095.0,4095.0,3238.0,3478.0,-0.59,8.61,5.32,-0.11,-0.07,-0.05,1.0,v
2896.0,2978.0,3349.0,2781.0,4095.0,4095.0,3228.0,3479.0,-0.51,8.55,5.45,-0.16,-0.04,-0.08,1.0,v
2886.0,2976.0,3353.0,2783.0,4095.0,4095.0,3231.0,3486.0,-0.49,8.52,5.49,-0.12,-0.01,-0.07,1.0,v
2890.0,2975.0,3340.0,2785.0,4095.0,4095.0,3222.0,3479.0,-0.53,8.54,5.43,-0.13,-0.05,-0.14,1.0,v
2890.0,2978.0,3341.0,2799.0,4095.0,4095.0,3242.0,3455.0,-0.87,8.38,5.58,-0.16,-0.01,-0.11,1.0,v
2896.0,2971.0,3344.0,2787.0,4095.0,4095.0,3228.0,3471.0,-0.89,8.31,5.68,-0.14,-0.05,-0.06,1.0,v
2886.0,2970.0,3353.0,2797.0,4095.0,4095.0,3239.0,3465.0,-0.57,8.35,5.88,-0.12,-0.03,-0.06,1.0,v
2882.0,2974.0,3344.0,2785.0,4095.0,4095.0,3239.0,3445.0,-0.75,8.25,5.98,-0.05,-0.07,-0.08,1.0,v
2896.0,2974.0,3346.0,2791.0,4095.0,4095.0,3231.0,3456.0,-0.74,8.36,5.76,0.01,0.01,-0.05,1.0,v
2894.0,2974.0,3359.0,2795.0,4095.0,4095.0,3233.0,3456.0,-0.68,8.49,5.47,-0.04,0.0,-0.08,1.0,v
2890.0,2973.0,3351.0,2787.0,4095.0,4095.0,3231.0,3447.0,-0.82,8.33,5.76,-0.07,0.0,-0.14,1.0,v
2896.0,2980.0,3350.0,2797.0,4095.0,4095.0,3243.0,3458.0,-1.08,8.28,5.75,-0.03,-0.01,-0.11,1.0,v
2882.0,2963.0,3348.0,2794.0,4095.0,4095.0,3234.0,3444.0,-1.13,8.28,5.69,-0.03,0.04,-0.03,1.0,v
2892.0,2977.0,3361.0,2799.0,4095.0,4095.0,3243.0,3459.0,-0.85,8.43,5.58,-0.02,-0.01,-0.03,1.0,v
2893.0,2980.0,3344.0,2797.0,4095.0,4095.0,3221.0,3439.0,-0.75,8.4,5.72,0.0,-0.01,-0.09,1.0,v
2881.0,2975.0,3348.0,2799.0,4095.0,4095.0,3229.0,3440.0,-1.04,8.54,5.34,-0.05,0.01,-0.03,1.0,v
2891.0,2974.0,3361.0,2800.0,4095.0,4095.0,3247.0,3435.0,-0.95,8.62,5.25,-0.07,0.06,-0.01,1.0,v
2890.0,2965.0,3351.0,2802.0,4095.0,4095.0,3233.0,3437.0,-0.91,8.59,5.3,-0.05,-0.04,-0.05,1.0,v
2896.0,2986.0,3347.0,2800.0,4095.0,4095.0,3231.0,3443.0,-0.97,8.6,5.28,-0.08,0.02,-0.02,1.0,v
2891.0,2975.0,3349.0,2794.0,4095.0,4095.0,3235.0,3449.0,-0.95,8.59,5.29,-0.05,-0.02,-0.04,1.0,v
2886.0,2971.0,3344.0,2800.0,4095.0,4095.0,3237.0,3455.0,-0.96,8.58,5.35,-0.06,-0.0,-0.02,1.0,v
2887.0,2960.0,3344.0,2800.0,4095.0,4095.0,3235.0,3442.0,-1.01,8.61,5.23,-0.07,0.1,-0.0,1.0,v
2894.0,2971.0,3358.0,2803.0,4095.0,4095.0,3239.0,3456.0,-0.91,8.62,5.25,-0.04,-0.03,-0.04,1.0,v
2883.0,2959.0,3342.0,2804.0,4095.0,4095.0,3227.0,3450.0,-1.0,8.6,5.26,-0.07,0.01,-0.03,1.0,v
2896.0,2975.0,3356.0,2800.0,4095.0,4095.0,3231.0,3463.0,-0.99,8.62,5.2,-0.1,0.07,-0.02,1.0,v
2889.0,2967.0,3345.0,2795.0,4095.0,4095.0,3237.0,3450.0,-0.89,8.62,5.3,-0.06,-0.03,-0.03,1.0,v
2893.0,2970.0,3353.0,2807.0,4095.0,4095.0,3242.0,3457.0,-0.97,8.61,5.19,-0.06,-0.02,-0.05,1.0,v
2893.0,2986.0,3359.0,2803.0,4095.0,4095.0,3232.0,3451.0,-0.97,8.61,5.22,-0.07,-0.04,-0.02,1.0,v
2881.0,2973.0,3354.0,2800.0,4095.0,4095.0,3231.0,3439.0,-0.91,8.56,5.38,-0.07,0.02,-0.03,1.0,v
2880.0,2962.0,3347.0,2809.0,4095.0,4095.0,3239.0,3447.0,-0.99,8.6,5.29,-0.03,-0.04,-0.04,1.0,v
2886.0,2974.0,3365.0,2801.0,4095.0,4095.0,3231.0,3450.0,-1.0,8.62,5.22,-0.07,0.07,-0.0,1.0,v
2900.0,2989.0,3349.0,2800.0,4095.0,4095.0,3245.0,3463.0,-0.91,8.6,5.3,-0.07,0.06,-0.01,1.0,v
2879.0,2987.0,3355.0,2801.0,4095.0,4095.0,3231.0,3447.0,-0.88,8.61,5.29,-0.05,-0.03,-0.05,1.0,v
2887.0,2971.0,3355.0,2814.0,4095.0,4095.0,3239.0,3445.0,-0.93,8.63,5.23,-0.05,-0.01,-0.04,1.0,v
2871.0,2982.0,3351.0,2803.0,4095.0,4095.0,3231.0,3445.0,-0.9,8.61,5.32,-0.05,-0.03,-0.03,1.0,v
2883.0,2979.0,3351.0,2803.0,4095.0,4095.0,3227.0,3439.0,-0.92,8.59,5.26,-0.06,0.01,-0.03,1.0,v
2879.0,2981.0,3358.0,2810.0,4095.0,4095.0,3240.0,3431.0,-1.01,8.58,5.25,-0.07,0.03,-0.01,1.0,v
2889.0,2981.0,3354.0,2807.0,4095.0,4095.0,3230.0,3455.0,-0.84,8.63,5.28,-0.04,-0.02,-0.04,1.0,v
2880.0,2979.0,3353.0,2811.0,4095.0,4095.0,3227.0,3433.0,-0.88,8.6,5.34,-0.08,0.02,-0.04,1.0,v
2887.0,2991.0,3365.0,2810.0,4095.0,4095.0,3237.0,3440.0,-0.89,8.63,5.26,-0.05,-0.03,-0.05,1.0,v
2886.0,2982.0,3349.0,2802.0,4095.0,4095.0,3231.0,3447.0,-0.96,8.61,5.29,-0.05,0.01,-0.02,1.0,v
2886.0,2974.0,3366.0,2814.0,4095.0,4095.0,3246.0,3453.0,-0.94,8.59,5.26,-0.07,0.05,-0.04,1.0,v
2896.0,2976.0,3354.0,2807.0,4095.0,4095.0,3228.0,3437.0,-0.89,8.59,5.3,-0.04,-0.04,-0.04,1.0,v
2890.0,2979.0,3364.0,2813.0,4095.0,4095.0,3230.0,3455.0,-0.9,8.6,5.29,-0.06,-0.01,-0.05,1.0,v
2880.0,2976.0,3341.0,2800.0,4095.0,4095.0,3239.0,3446.0,-0.87,8.61,5.27,-0.06,-0.01,-0.03,1.0,v
2896.0,2987.0,3357.0,2811.0,4095.0,4095.0,3236.0,3462.0,-0.96,8.59,5.28,-0.09,0.0,-0.0,1.0,v
2879.0,2969.0,3349.0,2810.0,4095.0,4095.0,3233.0,3436.0,-0.85,8.61,5.27,-0.08,0.06,-0.01,1.0,v
2895.0,2973.0,3355.0,2815.0,4095.0,4095.0,3236.0,3440.0,-0.87,8.55,5.37,-0.04,0.02,-0.03,1.0,v
2879.0,2989.0,3353.0,2811.0,4095.0,4095.0,3238.0,3461.0,-0.94,8.61,5.24,-0.08,0.03,-0.03,1.0,v
2885.0,2971.0,3353.0,2803.0,4095.0,4095.0,3235.0,3449.0,-0.87,8.57,5.28,-0.08,0.0,-0.02,1.0,v
2889.0,2990.0,3363.0,2809.0,4095.0,4095.0,3233.0,3458.0,-0.88,8.6,5.26,-0.05,-0.04,-0.04,1.0,v
2884.0,2967.0,3363.0,2805.0,4095.0,4095.0,3227.0,3441.0,-0.85,8.6,5.25,-0.06,-0.04,-0.04,1.0,v
2891.0,2982.0,3363.0,2813.0,4095.0,4095.0,3231.0,3441.0,-0.95,8.58,5.33,-0.08,0.07,-0.01,1.0,v
2896.0,2969.0,3347.0,2805.0,4095.0,4095.0,3232.0,3436.0,-0.9,8.63,5.22,-0.07,0.02,-0.03,1.0,v
2880.0,2976.0,3361.0,2810.0,4095.0,4095.0,3242.0,3428.0,-0.99,8.59,5.3,-0.06,-0.11,-0.04,1.0,v
