hall_1,hall_2,hall_3,flex_t,flex_i,flex_m,flex_r,flex_p,accel_x,accel_y,accel_z,gyro_x,gyro_y,gyro_z,sign
2963.0,2986.0,3035.0,3401.0,4095.0,4095.0,2441.0,3303.0,-1.75,9.13,1.9,-0.28,-0.06,0.19,v
2882.0,2967.0,3027.0,3401.0,4095.0,4095.0,2451.0,3263.0,-1.79,9.01,1.92,-0.17,0.08,0.13,v
3022.0,2974.0,3024.0,3411.0,4095.0,4095.0,2447.0,3271.0,-1.81,8.66,2.04,-0.24,0.07,0.03,v
3039.0,2969.0,3030.0,3403.0,4095.0,4095.0,2451.0,3287.0,-1.72,9.09,1.9,-0.0,0.19,-0.1,v
3041.0,2966.0,3035.0,3439.0,4095.0,4095.0,2416.0,3307.0,-1.94,9.05,1.96,0.07,0.04,-0.14,v
3047.0,2973.0,3037.0,3493.0,4095.0,4095.0,2399.0,3280.0,-2.02,9.26,2.46,0.18,0.03,-0.2,v
3030.0,2987.0,3041.0,3488.0,4095.0,4095.0,2414.0,3280.0,-2.43,9.05,2.23,0.32,-0.1,-0.14,v
3006.0,2976.0,3038.0,3477.0,4095.0,4095.0,2428.0,3251.0,-1.43,8.88,1.76,0.22,-0.15,-0.11,v
3007.0,2976.0,3039.0,3494.0,4095.0,4095.0,2416.0,3263.0,-1.29,9.0,1.5,0.2,-0.22,-0.17,v
3035.0,2970.0,3026.0,3517.0,4095.0,4095.0,2417.0,3264.0,-2.4,8.95,1.64,0.14,-0.17,-0.21,v
3035.0,2980.0,3027.0,3574.0,4095.0,4095.0,2407.0,3286.0,-2.25,9.71,1.24,0.01,-0.01,0.14,v
3035.0,2974.0,3029.0,3575.0,4095.0,4095.0,2403.0,3291.0,-0.74,9.78,1.85,-0.03,0.18,0.46,v
3044.0,2975.0,3034.0,3518.0,4095.0,4095.0,2417.0,3291.0,0.93,9.72,1.66,0.35,-0.36,-0.19,v
3046.0,2975.0,3042.0,3472.0,4095.0,4095.0,2430.0,3271.0,-0.75,8.79,0.33,0.2,-0.27,-0.29,v
3042.0,2975.0,3037.0,3470.0,4095.0,4095.0,2495.0,3252.0,-2.39,8.53,-0.25,-0.19,-0.22,-0.08,v
3041.0,2961.0,3030.0,3467.0,4095.0,4095.0,2411.0,3264.0,-2.65,9.32,0.61,-0.59,0.23,-0.11,v
3017.0,2976.0,3031.0,3470.0,4095.0,4095.0,2416.0,3263.0,-3.19,9.48,2.47,-0.22,0.44,0.16,v
2993.0,2971.0,3039.0,3458.0,4095.0,4095.0,2407.0,3271.0,-0.96,8.37,2.63,-0.23,0.22,0.19,v
2975.0,2967.0,3031.0,3453.0,4095.0,4095.0,2426.0,3249.0,-0.28,9.7,2.09,-0.0,-0.37,-0.25,v
3017.0,2972.0,3030.0,3444.0,4095.0,4095.0,2418.0,3261.0,-1.5,10.61,2.67,-0.14,-0.16,-0.27,v
3030.0,2975.0,3037.0,3445.0,4095.0,4095.0,2419.0,3264.0,-1.17,9.58,1.61,0.23,-0.31,-0.13,v
3037.0,2977.0,3038.0,3430.0,4095.0,4095.0,2430.0,3271.0,-2.21,8.64,1.03,-0.01,-0.23,-0.11,v
3033.0,2962.0,3037.0,3418.0,4095.0,4095.0,2455.0,3277.0,-3.51,8.88,0.58,-0.13,-0.02,0.0,v
3014.0,2970.0,3033.0,3424.0,4095.0,4095.0,2461.0,3291.0,-2.52,10.14,2.31,-0.17,0.32,0.5,v
3009.0,2974.0,3029.0,3427.0,4095.0,4095.0,2460.0,3299.0,-1.71,9.17,2.75,0.18,0.33,0.73,v
3504.0,2965.0,3032.0,3440.0,4095.0,4095.0,2459.0,3294.0,-0.11,8.88,2.81,0.38,0.21,0.5,v
3026.0,2970.0,3042.0,3440.0,4095.0,4095.0,2448.0,3315.0,1.29,9.12,2.62,0.22,-0.03,0.08,v
3035.0,2977.0,3035.0,3440.0,4095.0,4095.0,2448.0,3322.0,-0.54,7.97,0.13,0.01,-0.28,-0.33,v
3040.0,2970.0,3035.0,3428.0,4095.0,4095.0,2446.0,3319.0,-2.11,8.73,0.46,-0.26,-0.07,-0.46,v
3022.0,2972.0,3046.0,3443.0,4095.0,4095.0,2455.0,3315.0,-2.22,9.74,1.09,-0.37,0.18,-0.33,v
3037.0,2971.0,3034.0,3475.0,4095.0,4095.0,2451.0,3327.0,-2.6,10.16,2.09,-0.43,0.37,-0.05,v
3041.0,2967.0,3041.0,3455.0,4095.0,4095.0,2428.0,3317.0,-1.95,10.04,2.51,-0.19,0.52,0.2,v
3029.0,2977.0,3039.0,3462.0,4095.0,4095.0,2453.0,3320.0,-1.27,10.0,3.06,0.04,0.05,0.34,v
3025.0,2969.0,3041.0,3413.0,4095.0,4095.0,2457.0,3310.0,-0.7,9.31,2.79,0.13,-0.06,0.4,v
3021.0,2978.0,3029.0,3375.0,4095.0,4095.0,2458.0,3307.0,-0.71,7.75,2.24,0.3,-0.23,0.23,v
2987.0,2974.0,3031.0,3378.0,4095.0,4095.0,2462.0,3312.0,0.65,8.54,0.5,0.3,-0.38,-0.07,v
3018.0,2974.0,3037.0,3376.0,4095.0,4095.0,2463.0,3307.0,-1.39,8.95,-0.02,-0.21,-0.04,-0.23,v
3033.0,2979.0,3034.0,3390.0,4095.0,4095.0,2466.0,3320.0,-1.18,9.56,1.05,-0.36,0.24,-0.26,v
3040.0,2974.0,3030.0,3393.0,4095.0,4095.0,2448.0,3318.0,-2.06,9.75,1.68,-0.4,0.72,0.14,v
3041.0,2967.0,3033.0,3383.0,4095.0,4095.0,2448.0,3309.0,-1.72,9.96,2.41,-0.29,2.27,0.14,v
3037.0,2971.0,3041.0,3383.0,4095.0,4095.0,2471.0,3315.0,-1.33,9.76,2.75,-0.02,0.84,0.4,v
3028.0,2976.0,3034.0,3405.0,4095.0,4095.0,2448.0,3312.0,0.11,10.11,2.56,0.52,-1.3,0.32,v
3023.0,2960.0,3033.0,3402.0,4095.0,4095.0,2448.0,3318.0,0.23,8.86,1.92,0.47,-0.74,0.01,v
3026.0,2971.0,3033.0,3381.0,4095.0,4095.0,2449.0,3322.0,-0.24,7.88,0.93,0.09,-0.74,-0.1,v
3028.0,2969.0,3040.0,3390.0,4095.0,4095.0,2446.0,3317.0,-0.69,8.89,0.01,-0.01,-1.04,-0.31,v
3011.0,2965.0,3026.0,3381.0,4095.0,4095.0,2453.0,3315.0,-1.17,9.54,0.51,-0.28,-0.08,-0.38,v
3022.0,2975.0,3030.0,3392.0,4095.0,4095.0,2452.0,3318.0,-1.5,9.21,1.32,-0.27,0.32,-0.27,v
3023.0,2971.0,3029.0,3389.0,4095.0,4095.0,2468.0,3337.0,-2.15,9.54,1.13,-0.22,-0.03,-0.07,v
3027.0,2971.0,3024.0,3397.0,4095.0,4095.0,2470.0,3330.0,-2.0,9.9,2.54,-0.17,-0.27,0.37,v
3016.0,2966.0,3027.0,3424.0,4095.0,4095.0,2458.0,3339.0,-0.3,9.63,3.5,0.1,-0.17,0.27,v
3024.0,2965.0,3025.0,3434.0,4095.0,4095.0,2503.0,3341.0,1.06,9.5,2.04,0.35,-0.38,0.06,v
3023.0,2967.0,3029.0,3392.0,4095.0,4095.0,2461.0,3328.0,0.51,9.1,0.9,0.32,-0.43,-0.33,v
3013.0,2981.0,3027.0,3393.0,4095.0,4095.0,2470.0,3321.0,-0.75,9.17,0.79,0.1,-0.65,-0.6,v
3008.0,2976.0,3035.0,3385.0,4095.0,4095.0,2450.0,3318.0,-3.44,9.33,0.29,0.04,-0.04,-0.29,v
3021.0,2975.0,3035.0,3373.0,4095.0,4095.0,2448.0,3334.0,-2.55,9.45,0.67,-0.15,0.37,0.42,v
3011.0,2962.0,3027.0,3392.0,4095.0,4095.0,2448.0,3341.0,-0.19,9.19,1.14,-0.37,0.49,0.69,v
3012.0,2971.0,3025.0,3392.0,4095.0,4095.0,2455.0,3343.0,0.8,8.83,2.68,-0.33,0.44,0.28,v
3014.0,2972.0,3027.0,3394.0,4095.0,4095.0,2473.0,3342.0,2.0,10.36,3.87,0.09,-0.2,-0.4,v
3003.0,2970.0,3033.0,3397.0,4095.0,4095.0,2455.0,3342.0,0.92,10.65,3.63,0.45,-1.04,-0.72,v
3008.0,2978.0,3036.0,3397.0,4095.0,4095.0,2459.0,3335.0,-2.69,8.62,0.62,0.79,-0.87,-1.21,v
3003.0,2975.0,3033.0,3418.0,4095.0,4095.0,2463.0,3331.0,-3.84,7.59,0.21,-0.12,-0.9,-0.26,v
3001.0,2976.0,3030.0,3411.0,4095.0,4095.0,2475.0,3327.0,-3.78,7.98,-0.29,-0.55,-0.43,-0.04,v
2993.0,2967.0,3035.0,3412.0,4095.0,4095.0,2477.0,3338.0,-3.38,9.35,0.85,-0.59,0.46,0.32,v
2874.0,2965.0,3030.0,3414.0,4095.0,4095.0,2466.0,3333.0,-1.37,9.74,2.32,-0.36,0.64,0.41,v
2977.0,2973.0,3025.0,3368.0,4095.0,4095.0,2480.0,3344.0,-0.37,9.95,4.66,-0.14,0.48,0.43,v
3015.0,2979.0,3024.0,3349.0,4095.0,4095.0,2476.0,3350.0,0.63,10.14,3.71,0.39,0.17,0.2,v
3023.0,2972.0,3029.0,3376.0,4095.0,4095.0,2491.0,3354.0,-0.41,8.97,1.89,0.48,0.07,0.02,v
3015.0,2966.0,3041.0,3376.0,4095.0,4095.0,2487.0,3328.0,-0.99,8.02,1.16,0.36,0.09,-0.06,v
3010.0,2966.0,3047.0,3374.0,4095.0,4095.0,2471.0,3303.0,-1.93,7.61,-0.85,0.32,-0.07,-0.36,v
2992.0,2978.0,3041.0,3393.0,4095.0,4095.0,2475.0,3297.0,-3.11,11.0,0.59,-0.29,0.61,-0.04,v
2929.0,2963.0,3024.0,3408.0,4095.0,4095.0,2473.0,3311.0,-2.82,10.8,1.86,-0.24,1.4,0.39,v
2999.0,2975.0,3029.0,3426.0,4095.0,4095.0,2462.0,3312.0,-1.67,10.02,2.98,-0.11,1.19,0.54,v
3015.0,2974.0,3027.0,3411.0,4095.0,4095.0,2482.0,3322.0,-0.44,9.46,2.38,0.32,0.62,0.44,v
3021.0,2971.0,3033.0,3414.0,4095.0,4095.0,2480.0,3325.0,-0.37,7.9,0.33,0.13,0.19,0.24,v
3017.0,2975.0,3027.0,3411.0,4095.0,4095.0,2559.0,3334.0,0.91,9.0,0.96,0.03,-0.22,0.09,v
2977.0,2969.0,3035.0,3437.0,4095.0,4095.0,2559.0,3318.0,-0.36,8.87,-0.65,-0.1,-0.33,-0.26,v
2992.0,2969.0,3027.0,3440.0,4095.0,4095.0,2559.0,3322.0,-1.25,9.06,-1.42,-0.43,0.03,-0.19,v
3014.0,2973.0,3029.0,3435.0,4095.0,4095.0,2559.0,3314.0,-2.23,11.09,0.54,-0.51,0.67,-0.1,v
3024.0,2981.0,3037.0,3431.0,4095.0,4095.0,2559.0,3330.0,-1.38,9.73,3.97,-0.59,0.41,0.41,v
3024.0,2967.0,3032.0,3419.0,4095.0,4095.0,2559.0,3329.0,0.43,10.15,2.6,0.29,0.06,0.35,v
3023.0,2981.0,3033.0,3408.0,4095.0,4095.0,2559.0,3329.0,0.54,9.06,1.24,0.49,-0.47,0.02,v
2990.0,2971.0,3025.0,3423.0,4095.0,4095.0,2559.0,3330.0,-0.29,7.71,-1.03,0.37,-0.64,-0.48,v
2983.0,2974.0,3024.0,3447.0,4095.0,4095.0,2559.0,3327.0,-2.56,8.51,-1.78,-0.46,-0.1,-0.4,v
2910.0,2974.0,3035.0,3450.0,4095.0,4095.0,2559.0,3334.0,-2.47,10.0,0.75,-0.49,0.37,-0.04,v
2963.0,2970.0,3029.0,3428.0,4095.0,4095.0,2580.0,3347.0,-1.37,10.16,1.53,-0.31,0.54,0.22,v
3024.0,2973.0,3027.0,3440.0,4095.0,4095.0,2661.0,3363.0,0.82,10.36,3.84,0.09,0.15,0.22,v
3030.0,2973.0,3034.0,3427.0,4095.0,4095.0,2539.0,3343.0,0.35,8.91,1.6,0.68,-0.46,-0.3,v
3025.0,2973.0,3024.0,3440.0,4095.0,4095.0,2588.0,3344.0,-1.24,7.7,-0.54,0.45,-0.66,-0.37,v
3019.0,2974.0,3027.0,3432.0,4095.0,4095.0,2559.0,3341.0,-1.54,8.48,-2.62,-0.22,-0.34,-0.55,v
3022.0,2976.0,3032.0,3439.0,4095.0,4095.0,2559.0,3338.0,-2.23,9.32,0.17,-0.72,0.13,-0.42,v
3017.0,2970.0,3035.0,3457.0,4095.0,4095.0,2559.0,3344.0,-1.33,10.89,2.83,-0.45,0.14,-0.31,v
2988.0,2963.0,3026.0,3456.0,4095.0,4095.0,2559.0,3346.0,-2.66,10.83,1.85,-0.05,-0.15,0.05,v
3016.0,2963.0,3035.0,3471.0,4095.0,4095.0,2559.0,3343.0,-1.81,10.0,2.63,-0.04,0.14,0.52,v
3031.0,2970.0,3024.0,3437.0,4095.0,4095.0,2559.0,3317.0,-0.36,8.93,1.84,0.13,0.12,0.45,v
3037.0,2973.0,3037.0,3447.0,4095.0,4095.0,2592.0,3319.0,0.44,9.22,0.78,0.04,0.2,-0.02,v
3024.0,2973.0,3024.0,3470.0,4095.0,4095.0,2557.0,3319.0,-1.95,9.23,0.3,-0.34,0.2,-0.03,v
3006.0,2973.0,3026.0,3472.0,4095.0,4095.0,2585.0,3328.0,-0.54,9.27,2.94,-0.63,0.59,0.32,v
2992.0,2971.0,3035.0,3472.0,4095.0,4095.0,2588.0,3326.0,0.46,8.89,2.49,-0.28,0.28,-0.02,v
2985.0,2960.0,3035.0,3503.0,4095.0,4095.0,2581.0,3312.0,-0.95,9.41,2.31,0.08,0.21,-0.29,v
3001.0,2969.0,3033.0,3502.0,4095.0,4095.0,2559.0,3309.0,-1.01,9.52,2.6,0.18,0.09,-0.21,v
3019.0,2980.0,3030.0,3515.0,4095.0,4095.0,2538.0,3313.0,-2.22,9.57,2.22,0.21,-0.07,0.05,v
3015.0,2967.0,3039.0,3526.0,4095.0,4095.0,2541.0,3315.0,-0.99,8.57,1.52,0.33,-0.1,0.15,v
2979.0,2967.0,3038.0,3504.0,4095.0,4095.0,2548.0,3323.0,-0.82,8.61,0.36,0.03,-0.08,-0.23,v
3003.0,2977.0,3030.0,3511.0,4095.0,4095.0,2559.0,3319.0,-2.18,9.14,0.17,-0.3,0.12,-0.32,v
3022.0,2973.0,3033.0,3520.0,4095.0,4095.0,2559.0,3318.0,-2.58,9.79,1.43,-0.6,0.35,0.05,v
3023.0,2975.0,3042.0,3526.0,4095.0,4095.0,2559.0,3328.0,-2.01,9.64,3.64,-0.36,0.2,0.36,v
3019.0,2975.0,3027.0,3531.0,4095.0,4095.0,2559.0,3333.0,-1.16,9.1,3.16,0.27,0.0,0.34,v
3013.0,2971.0,3034.0,3542.0,4095.0,4095.0,2559.0,3328.0,-0.29,8.89,1.61,0.58,-0.27,0.01,v
3013.0,2965.0,3027.0,3519.0,4095.0,4095.0,2559.0,3329.0,-0.34,8.88,-0.57,0.39,-0.33,-0.41,v
3006.0,2967.0,3027.0,3523.0,4095.0,4095.0,2559.0,3343.0,-2.95,8.96,-0.93,-0.05,-0.02,-0.64,v
3009.0,2975.0,3031.0,3527.0,4095.0,4095.0,2559.0,3328.0,-3.74,9.43,0.77,-0.41,0.28,-0.19,v
3002.0,2969.0,3037.0,3526.0,4095.0,4095.0,2559.0,3327.0,-3.02,9.45,1.8,-0.38,0.3,0.17,v
3008.0,2970.0,3037.0,3537.0,4095.0,4095.0,2559.0,3337.0,-2.04,9.37,2.16,-0.12,0.21,0.32,v
3004.0,2981.0,3025.0,3520.0,4095.0,4095.0,2559.0,3344.0,-1.05,9.1,3.25,0.29,-0.15,0.28,v
2995.0,2969.0,3027.0,3520.0,4095.0,4095.0,2586.0,3344.0,-0.55,9.15,1.48,0.73,-0.48,-0.06,v
2986.0,2971.0,3037.0,3539.0,4095.0,4095.0,2559.0,3344.0,-0.81,8.92,-0.24,0.53,-0.58,-0.38,v
2982.0,2976.0,3025.0,3536.0,4095.0,4095.0,2581.0,3342.0,-2.24,8.88,-0.68,0.13,-0.47,-0.44,v
2993.0,2981.0,3024.0,3533.0,4095.0,4095.0,2559.0,3339.0,-3.68,9.39,-0.14,-0.35,0.02,-0.12,v
3001.0,2967.0,3027.0,3531.0,4095.0,4095.0,2589.0,3344.0,-2.21,10.04,1.88,-0.42,0.1,0.27,v
3008.0,2967.0,3037.0,3531.0,4095.0,4095.0,2578.0,3333.0,-1.56,10.02,2.34,0.0,-0.13,0.3,v
3004.0,2973.0,3039.0,3524.0,4095.0,4095.0,2559.0,3351.0,-0.12,9.53,2.06,0.38,-0.33,0.18,v
2963.0,2969.0,3029.0,3530.0,4095.0,4095.0,2585.0,3348.0,-0.24,8.86,0.05,0.33,-0.33,-0.22,v
2899.0,2978.0,3035.0,3525.0,4095.0,4095.0,2559.0,3344.0,-1.55,8.83,-0.12,-0.14,-0.13,-0.45,v
2973.0,2972.0,3031.0,3533.0,4095.0,4095.0,2559.0,3344.0,-3.63,9.07,-0.57,-0.63,0.23,-0.12,v
3007.0,2975.0,3024.0,3568.0,4095.0,4095.0,2559.0,3346.0,-2.54,9.86,1.65,-0.69,0.54,0.21,v
3005.0,2976.0,3029.0,3535.0,4095.0,4095.0,2559.0,3360.0,-1.99,9.3,2.24,-0.3,0.48,0.46,v
3009.0,2969.0,3023.0,3538.0,4095.0,4095.0,2559.0,3365.0,-1.43,9.56,3.5,0.11,0.03,0.45,v
3005.0,2966.0,3027.0,3539.0,4095.0,4095.0,2559.0,3357.0,-0.53,9.11,1.54,0.35,-0.12,0.34,v
2970.0,2993.0,3034.0,3531.0,4095.0,4095.0,2559.0,3360.0,-0.93,9.51,0.51,0.39,-0.13,0.1,v
2960.0,2975.0,3034.0,3532.0,4095.0,4095.0,2559.0,3374.0,-0.93,8.74,-0.46,0.12,0.16,0.16,v
2873.0,2964.0,3035.0,3532.0,4095.0,4095.0,2590.0,3363.0,-0.62,9.35,-1.0,-0.28,0.47,0.02,v
2992.0,2965.0,3037.0,3547.0,4095.0,4095.0,2579.0,3363.0,-1.78,10.32,0.82,-0.47,0.71,0.12,v
2993.0,2971.0,3021.0,3507.0,4095.0,4095.0,2599.0,3371.0,-0.75,9.51,2.21,-0.1,0.36,0.27,v
2948.0,2971.0,3024.0,3524.0,4095.0,4095.0,2595.0,3366.0,-0.44,10.04,1.59,0.18,0.12,0.07,v
2931.0,2971.0,3028.0,3527.0,4095.0,4095.0,2587.0,3355.0,-0.91,9.51,1.07,0.39,-0.07,0.15,v
2870.0,2966.0,3024.0,3520.0,4095.0,4095.0,2594.0,3351.0,-0.27,7.92,-0.59,0.42,0.17,-0.06,v
2891.0,2976.0,3026.0,3513.0,4095.0,4095.0,2592.0,3353.0,-1.06,7.81,-1.45,-0.11,0.26,-0.28,v
2986.0,2975.0,3034.0,3519.0,4095.0,4095.0,2607.0,3362.0,-0.59,10.09,0.11,-0.58,0.73,-0.47,v
3003.0,2982.0,3026.0,3519.0,4095.0,4095.0,2597.0,3365.0,-1.48,11.2,2.87,-0.69,0.36,-0.11,v
2999.0,2960.0,3031.0,3518.0,4095.0,4095.0,2589.0,3354.0,-1.4,9.54,3.44,0.26,-0.29,0.27,v
3002.0,2966.0,3024.0,3536.0,4095.0,4095.0,2605.0,3354.0,-0.46,8.79,1.57,0.49,-0.6,0.12,v
3002.0,2965.0,3029.0,3522.0,4095.0,4095.0,2606.0,3367.0,-0.34,8.04,1.05,0.51,-0.89,-0.24,v
2987.0,2973.0,3027.0,3527.0,4095.0,4095.0,2589.0,3370.0,-1.5,9.4,-0.89,0.27,-0.76,-0.55,v
2983.0,2977.0,3034.0,3552.0,4095.0,4095.0,2586.0,3360.0,-2.35,9.52,-0.52,-0.01,-0.29,-0.24,v
3011.0,2972.0,3035.0,3472.0,4095.0,4095.0,2607.0,3365.0,-1.65,9.68,1.43,-0.32,-0.22,0.09,v
3008.0,2982.0,3039.0,3470.0,4095.0,4095.0,2591.0,3353.0,-1.23,10.69,2.52,-0.02,-0.08,0.06,v
3001.0,2963.0,3025.0,3471.0,4095.0,4095.0,2588.0,3328.0,-1.13,9.79,1.65,0.03,-0.13,0.13,v
3010.0,2975.0,3030.0,3479.0,4095.0,4095.0,2603.0,3324.0,-1.5,9.46,0.47,-0.15,0.54,0.13,v
3008.0,2967.0,3033.0,3472.0,4095.0,4095.0,2601.0,3331.0,-1.58,9.29,1.71,-0.44,0.99,0.29,v
3006.0,2967.0,3026.0,3474.0,4095.0,4095.0,2614.0,3331.0,1.21,10.03,1.43,-0.02,0.18,-0.16,v
3004.0,2969.0,3027.0,3482.0,4095.0,4095.0,2619.0,3326.0,-1.96,8.84,0.43,-0.06,0.92,-0.45,v
3012.0,2974.0,3035.0,3491.0,4095.0,4095.0,2607.0,3337.0,3.51,10.18,1.62,0.37,-3.79,-0.06,v
3011.0,2978.0,3038.0,3499.0,4095.0,4095.0,2608.0,3337.0,-3.55,10.79,1.47,0.19,0.32,-0.23,v
3014.0,2977.0,3037.0,3511.0,4095.0,4095.0,2608.0,3327.0,-2.18,9.6,1.28,0.29,-0.02,0.86,v
3000.0,2970.0,3038.0,3504.0,4095.0,4095.0,2593.0,3365.0,0.72,7.56,-0.26,0.61,-0.89,0.51,v
3023.0,2975.0,3031.0,3488.0,4095.0,4095.0,2587.0,3318.0,0.91,7.66,-1.36,0.43,1.42,-0.67,v
3014.0,2966.0,3027.0,3431.0,4095.0,4095.0,2496.0,3291.0,-3.55,9.11,-1.61,-0.33,0.66,-0.42,v
3012.0,2969.0,3029.0,3376.0,4095.0,4095.0,2507.0,3224.0,-3.16,9.77,-2.98,-0.35,-0.01,0.0,v
3019.0,2973.0,3038.0,3421.0,4095.0,4095.0,2495.0,3264.0,-1.72,11.05,2.07,-0.85,0.72,0.4,v
3023.0,2973.0,3035.0,3426.0,4095.0,4095.0,2499.0,3277.0,0.49,9.87,3.19,-0.28,0.88,0.39,v
3007.0,2965.0,3039.0,3418.0,4095.0,4095.0,2506.0,3289.0,0.19,9.01,1.08,0.32,0.97,-0.09,v
2925.0,2970.0,3035.0,3439.0,4095.0,4095.0,2521.0,3280.0,-0.28,9.33,-1.24,0.53,-0.22,-0.26,v
2921.0,2969.0,3035.0,3442.0,4095.0,4095.0,2499.0,3282.0,-1.76,9.42,-1.17,-0.17,-0.13,-0.5,v
2704.0,2974.0,3031.0,3442.0,4095.0,4095.0,2512.0,3287.0,-2.41,9.72,-0.12,-0.1,-0.29,-0.22,v
3009.0,2976.0,3031.0,3462.0,4095.0,4095.0,2512.0,3323.0,-1.49,9.51,0.04,-0.09,-0.52,-0.15,v
3025.0,2971.0,3035.0,3408.0,4095.0,4095.0,2506.0,3330.0,-1.53,9.08,0.35,-0.33,-0.31,-0.36,v
2802.0,2973.0,3041.0,3408.0,4095.0,4095.0,2505.0,3281.0,-3.04,9.39,0.85,0.01,-0.15,-0.31,v
2480.0,2975.0,3047.0,3408.0,4095.0,4095.0,2503.0,3280.0,-2.08,9.5,0.81,-0.1,-0.04,-0.08,v
2106.0,2977.0,3030.0,3416.0,4095.0,4095.0,2503.0,3291.0,-1.71,9.58,0.8,0.11,-0.31,-0.05,v
2251.0,2981.0,3037.0,3441.0,4095.0,4095.0,2507.0,3298.0,-2.67,8.88,0.81,-0.0,-0.59,-0.1,v
2533.0,2976.0,3042.0,3439.0,4095.0,4095.0,2509.0,3312.0,-1.46,9.02,0.76,-0.0,-1.31,-0.04,v
2989.0,2971.0,3037.0,3425.0,4095.0,4095.0,2519.0,3331.0,-1.56,9.19,1.73,0.05,-1.55,-0.02,v
2992.0,2975.0,3035.0,3462.0,4095.0,4095.0,2525.0,3329.0,-1.0,9.74,2.28,0.04,-0.72,-0.17,v
2896.0,2974.0,3031.0,3488.0,4095.0,4095.0,2984.0,3317.0,-1.3,9.91,1.53,0.17,-0.22,-0.09,v
2715.0,2978.0,3037.0,3490.0,4095.0,4095.0,2865.0,3319.0,-1.53,9.71,1.24,0.14,-0.0,-0.11,v
2606.0,2977.0,3035.0,3482.0,4095.0,4095.0,2752.0,3317.0,-1.28,9.26,0.88,-0.01,0.13,-0.04,v
2845.0,2981.0,3043.0,3488.0,4095.0,4095.0,2800.0,3315.0,-1.42,9.36,1.62,-0.17,0.23,-0.12,v
2981.0,2966.0,3034.0,3483.0,4095.0,4095.0,2585.0,3331.0,-3.33,9.28,1.77,0.26,0.51,0.0,v
2970.0,2971.0,3039.0,3481.0,4095.0,4095.0,2587.0,3344.0,-1.9,9.17,-0.29,-0.1,0.61,0.6,v
3008.0,2974.0,3043.0,3493.0,4095.0,4095.0,2513.0,3339.0,0.02,9.59,1.17,-0.42,0.74,-0.09,v
3024.0,2973.0,3035.0,3489.0,4095.0,4095.0,2502.0,3346.0,-1.11,8.67,1.23,-0.07,-0.08,-0.24,v
2994.0,2971.0,3035.0,3504.0,4095.0,4095.0,2526.0,3338.0,-2.55,9.2,-0.31,-0.23,-0.23,-0.43,v
2967.0,2975.0,3039.0,3523.0,4095.0,4095.0,2526.0,3347.0,-4.53,8.5,0.98,-0.56,0.19,-0.18,v
2911.0,2976.0,3037.0,3507.0,4095.0,4095.0,2517.0,3346.0,-3.56,8.89,1.77,-0.45,0.21,0.23,v
2943.0,2971.0,3025.0,3511.0,4095.0,4095.0,2523.0,3333.0,-3.34,9.31,2.07,-0.24,0.25,0.61,v
2960.0,2973.0,3034.0,3487.0,4095.0,4095.0,2512.0,3329.0,-1.89,9.01,1.84,-0.33,0.38,0.63,v
3003.0,2977.0,3041.0,3488.0,4095.0,4095.0,2506.0,3337.0,-0.91,9.48,3.37,0.03,0.22,0.16,v
3025.0,2981.0,3027.0,3511.0,4095.0,4095.0,2847.0,3344.0,-1.07,9.47,2.23,0.58,-0.09,-0.04,v
3034.0,2977.0,3031.0,3471.0,4095.0,4095.0,2675.0,3340.0,-0.42,8.81,0.82,0.49,-0.3,-0.25,v
3039.0,2983.0,3035.0,3483.0,4095.0,4095.0,2656.0,3344.0,-1.43,8.89,0.26,0.3,-0.24,-0.69,v
3040.0,2977.0,3037.0,3466.0,4095.0,4095.0,2647.0,3348.0,-3.49,9.16,-0.51,-0.05,0.14,-0.53,v
3047.0,2973.0,3037.0,3470.0,4095.0,4095.0,2647.0,3357.0,-3.85,9.99,1.79,-0.3,0.27,-0.08,v
3045.0,2971.0,3035.0,3462.0,4095.0,4095.0,2711.0,3351.0,-3.04,9.09,1.86,0.11,0.2,0.43,v
3024.0,2974.0,3027.0,3451.0,4095.0,4095.0,2618.0,3346.0,-1.77,9.1,1.77,0.22,0.27,0.39,v
3021.0,2970.0,3033.0,3483.0,4095.0,4095.0,2622.0,3334.0,-2.11,9.01,0.44,0.41,-0.1,0.18,v
3033.0,2973.0,3045.0,3484.0,4095.0,4095.0,2612.0,3346.0,-1.21,9.54,-0.48,0.27,0.05,0.27,v
3004.0,2986.0,3039.0,3491.0,4095.0,4095.0,2694.0,3345.0,-0.24,9.85,-0.65,0.1,0.2,0.1,v
2986.0,2967.0,3030.0,3482.0,4095.0,4095.0,2736.0,3345.0,0.29,9.67,-0.15,-0.01,0.04,-0.22,v
3012.0,2975.0,3027.0,3482.0,4095.0,4095.0,2912.0,3335.0,-1.03,9.74,-0.53,0.05,-0.15,-0.51,v
3023.0,2970.0,3039.0,3474.0,4095.0,4095.0,2912.0,3351.0,-2.94,9.43,-0.36,-0.04,0.01,-0.51,v
3034.0,2970.0,3027.0,3478.0,4095.0,4095.0,2851.0,3353.0,-3.16,9.53,-1.41,-0.24,0.01,-0.04,v
3005.0,2975.0,3039.0,3494.0,4095.0,4095.0,2832.0,3364.0,-3.0,9.14,-0.23,-0.57,0.23,0.27,v
3006.0,2970.0,3029.0,3482.0,4095.0,4095.0,2802.0,3362.0,-1.3,9.53,1.3,-0.56,0.34,0.24,v
3022.0,2970.0,3031.0,3513.0,4095.0,4095.0,2764.0,3345.0,-1.66,9.26,2.24,-0.09,0.18,-0.11,v
3020.0,2971.0,3037.0,3505.0,4095.0,4095.0,2752.0,3355.0,-2.04,9.18,0.78,0.01,0.05,-0.12,v
3003.0,2984.0,3036.0,3501.0,4095.0,4095.0,2754.0,3360.0,-1.76,9.19,0.52,0.05,-0.04,-0.21,v
3006.0,2978.0,3041.0,3518.0,4095.0,4095.0,2730.0,3364.0,-2.3,9.19,0.23,0.03,-0.06,-0.31,v
3007.0,2977.0,3037.0,3515.0,4095.0,4095.0,2751.0,3382.0,-3.44,9.13,-0.51,-0.19,0.06,-0.12,v
3024.0,2971.0,3033.0,3504.0,4095.0,4095.0,2743.0,3372.0,-3.23,9.35,0.03,-0.52,0.38,0.2,v
3026.0,2976.0,3037.0,3501.0,4095.0,4095.0,2730.0,3356.0,-2.56,9.58,2.19,-0.59,0.38,0.49,v
3039.0,2967.0,3033.0,3505.0,4095.0,4095.0,2756.0,3358.0,-1.38,8.93,2.71,-0.21,0.3,0.52,v
3055.0,2973.0,3034.0,3525.0,4095.0,4095.0,2737.0,3360.0,-0.89,8.99,1.49,-0.0,0.09,0.22,v
3071.0,2974.0,3037.0,3504.0,4095.0,4095.0,2754.0,3362.0,-1.53,9.18,1.16,0.01,-0.06,0.0,v
3071.0,2979.0,3035.0,3506.0,4095.0,4095.0,2762.0,3365.0,-1.93,9.24,0.95,0.11,-0.03,-0.04,v
3082.0,2977.0,3030.0,3508.0,4095.0,4095.0,2735.0,3367.0,-1.84,9.4,0.77,0.05,-0.02,0.02,v
3038.0,2974.0,3035.0,3515.0,4095.0,4095.0,2727.0,3362.0,-2.18,9.31,0.72,0.07,0.11,0.13,v
3027.0,2970.0,3035.0,3525.0,4095.0,4095.0,2717.0,3371.0,-1.26,9.25,0.28,-0.37,0.28,0.22,v
3050.0,2970.0,3027.0,3504.0,4095.0,4095.0,2714.0,3373.0,-0.66,9.61,1.78,-0.3,0.16,0.11,v
3038.0,2978.0,3035.0,3513.0,4095.0,4095.0,2718.0,3367.0,-0.84,9.34,2.93,0.34,-0.23,-0.21,v
3046.0,2981.0,3031.0,3536.0,4095.0,4095.0,2722.0,3371.0,-1.4,8.95,0.67,0.6,-0.38,-0.26,v
3035.0,2971.0,3031.0,3530.0,4095.0,4095.0,2730.0,3364.0,-1.27,8.89,0.25,0.32,-0.28,-0.45,v
3034.0,2977.0,3030.0,3531.0,4095.0,4095.0,2726.0,3386.0,-2.14,9.55,-0.82,0.15,-0.3,-0.48,v
3039.0,2967.0,3030.0,3518.0,4095.0,4095.0,2548.0,3361.0,-3.32,9.49,0.03,-0.3,-0.03,-0.24,v
3033.0,2969.0,3039.0,3532.0,4095.0,4095.0,2541.0,3360.0,-2.54,9.27,1.52,-0.27,0.19,0.21,v
3038.0,2973.0,3035.0,3525.0,4095.0,4095.0,2544.0,3375.0,-2.21,9.31,1.6,-0.14,0.13,0.22,v
