hall_1,hall_2,hall_3,flex_t,flex_i,flex_m,flex_r,flex_p,accel_x,accel_y,accel_z,gyro_x,gyro_y,gyro_z,hand,sign
2897.0,2955.0,3006.0,3344.0,4095.0,4095.0,3229.0,3757.0,-0.23,8.85,4.87,-0.03,-0.02,-0.1,1.0,v
2896.0,2955.0,3015.0,3332.0,4095.0,4095.0,3216.0,3755.0,-0.54,9.09,4.96,-0.04,0.03,-0.07,1.0,v
2882.0,2954.0,2998.0,3344.0,4095.0,4095.0,3223.0,3710.0,-0.34,8.94,4.89,-0.07,-0.03,-0.08,1.0,v
2880.0,2950.0,3008.0,3344.0,4095.0,4095.0,3218.0,3754.0,-0.53,8.78,4.92,-0.04,0.0,-0.05,1.0,v
2889.0,2959.0,2999.0,3350.0,4095.0,4095.0,3220.0,3757.0,-0.33,8.8,4.89,-0.01,-0.03,-0.05,1.0,v
2896.0,2954.0,3004.0,3351.0,4095.0,4095.0,3219.0,3735.0,-0.25,8.95,4.74,-0.07,0.03,-0.05,1.0,v
2885.0,2960.0,3003.0,3352.0,4095.0,4095.0,3213.0,3743.0,-0.46,8.84,4.88,-0.09,-0.02,-0.05,1.0,v
2899.0,2955.0,3014.0,3365.0,4095.0,4095.0,3213.0,3754.0,-0.22,8.89,4.98,-0.05,-0.04,-0.07,1.0,v
2890.0,2955.0,2995.0,3363.0,4095.0,4095.0,3222.0,3735.0,-0.53,8.84,4.77,-0.04,-0.01,-0.1,1.0,v
2885.0,2960.0,2995.0,3351.0,4095.0,4095.0,3229.0,3749.0,-0.45,8.92,4.7,0.02,-0.07,-0.09,1.0,v
2902.0,2954.0,3008.0,3347.0,4095.0,4095.0,3213.0,3753.0,-0.33,8.89,4.61,-0.02,-0.12,-0.12,1.0,v
2881.0,2951.0,3021.0,3349.0,4095.0,4095.0,3215.0,3733.0,-0.35,8.96,4.8,-0.07,-0.04,-0.12,1.0,v
2891.0,2958.0,3009.0,3359.0,4095.0,4095.0,3218.0,3733.0,-0.44,8.55,5.37,0.25,0.02,-0.19,1.0,v
2871.0,2958.0,3002.0,3358.0,4095.0,4095.0,3202.0,3721.0,-0.94,9.1,4.4,-0.15,-0.15,0.02,1.0,v
2886.0,2960.0,2998.0,3349.0,4095.0,4095.0,3185.0,3712.0,-0.39,8.8,4.57,-0.11,-0.05,-0.11,1.0,v
2896.0,2949.0,3018.0,3347.0,4095.0,4095.0,3184.0,3726.0,-0.57,8.99,4.73,-0.14,-0.05,-0.1,1.0,v
2880.0,2949.0,3001.0,3307.0,4095.0,4095.0,3198.0,3711.0,-0.58,8.84,4.94,-0.07,-0.01,-0.08,1.0,v
2887.0,2960.0,3001.0,3306.0,4095.0,4095.0,3201.0,3709.0,-0.54,9.14,4.45,-0.06,-0.08,0.04,1.0,v
2878.0,2961.0,3010.0,3312.0,4095.0,4095.0,3195.0,3710.0,-0.45,9.0,4.64,-0.19,-0.02,-0.0,1.0,v
2877.0,2962.0,3005.0,3328.0,4095.0,4095.0,3197.0,3699.0,-0.39,8.79,4.97,-0.14,-0.09,-0.07,1.0,v
2881.0,2947.0,3000.0,3310.0,4095.0,4095.0,3200.0,3698.0,-0.59,8.84,5.02,0.01,0.03,-0.07,1.0,v
2875.0,2960.0,3010.0,3315.0,4095.0,4095.0,3198.0,3696.0,-0.43,8.89,4.78,-0.03,-0.08,-0.07,1.0,v
2885.0,2949.0,3006.0,3339.0,4095.0,4095.0,3193.0,3685.0,-0.57,8.97,4.69,-0.11,0.0,-0.06,1.0,v
2875.0,2953.0,3008.0,3338.0,4095.0,4095.0,3203.0,3690.0,-0.45,8.79,4.89,-0.07,-0.07,-0.07,1.0,v
2886.0,2963.0,3007.0,3333.0,4095.0,4095.0,3195.0,3696.0,-0.52,8.85,4.99,-0.01,-0.01,-0.1,1.0,v
2866.0,2951.0,3003.0,3339.0,4095.0,4095.0,3184.0,3674.0,-0.8,8.74,5.01,0.11,0.04,-0.07,1.0,v
2890.0,2958.0,3002.0,3354.0,4095.0,4095.0,3191.0,3683.0,-0.6,9.17,4.55,-0.16,-0.04,-0.02,1.0,v
2885.0,2965.0,3004.0,3357.0,4095.0,4095.0,3194.0,3695.0,-0.27,8.75,4.93,0.0,-0.06,-0.07,1.0,v
2873.0,2954.0,3009.0,3357.0,4095.0,4095.0,3203.0,3703.0,-0.55,8.95,4.77,-0.21,-0.03,-0.01,1.0,v
2873.0,2957.0,3015.0,3361.0,4095.0,4095.0,3216.0,3691.0,-0.32,9.01,4.78,-0.05,-0.03,-0.07,1.0,v
2880.0,2960.0,2998.0,3373.0,4095.0,4095.0,3203.0,3680.0,-0.56,8.79,4.92,-0.06,-0.04,-0.03,1.0,v
2864.0,2945.0,3005.0,3373.0,4095.0,4095.0,3201.0,3696.0,-0.49,8.88,4.89,-0.05,-0.03,-0.1,1.0,v
2871.0,2963.0,3007.0,3350.0,4095.0,4095.0,3198.0,3697.0,-0.73,8.85,4.85,-0.12,-0.01,-0.04,1.0,v
2880.0,2945.0,3006.0,3387.0,4095.0,4095.0,3197.0,3711.0,-0.49,8.74,5.13,-0.03,-0.01,-0.0,1.0,v
2874.0,2958.0,3003.0,3376.0,4095.0,4095.0,3205.0,3712.0,-0.56,8.84,4.97,-0.03,0.02,-0.03,1.0,v
2867.0,2950.0,3003.0,3376.0,4095.0,4095.0,3203.0,3718.0,-0.35,8.77,4.93,0.01,-0.03,-0.03,1.0,v
2882.0,2960.0,3007.0,3382.0,4095.0,4095.0,3197.0,3703.0,-0.5,8.8,4.96,0.03,-0.04,-0.06,1.0,v
2882.0,2964.0,3013.0,3371.0,4095.0,4095.0,3197.0,3703.0,-0.43,8.9,4.83,0.01,-0.02,-0.04,1.0,v
2864.0,2959.0,3009.0,3378.0,4095.0,4095.0,3210.0,3702.0,-0.34,8.93,4.68,-0.03,-0.03,0.0,1.0,v
2873.0,2949.0,3003.0,3385.0,4095.0,4095.0,3200.0,3700.0,-0.37,8.88,4.85,-0.01,0.07,0.16,1.0,v
2864.0,2959.0,3005.0,3370.0,4095.0,4095.0,3211.0,3698.0,-0.16,9.01,4.83,0.07,0.05,0.07,1.0,v
2874.0,2953.0,3006.0,3376.0,4095.0,4095.0,3211.0,3703.0,0.13,9.0,4.89,0.04,0.03,0.07,1.0,v
2863.0,2947.0,3011.0,3377.0,4095.0,4095.0,3197.0,3685.0,-0.02,9.0,4.82,0.02,-0.13,-0.1,1.0,v
2858.0,2959.0,3018.0,3366.0,4095.0,4095.0,3204.0,3701.0,0.08,8.96,4.77,0.03,-0.06,-0.2,1.0,v
2862.0,2960.0,3018.0,3378.0,4095.0,4095.0,3205.0,3695.0,-0.56,8.98,4.52,0.06,-0.06,-0.23,1.0,v
2861.0,2953.0,3004.0,3376.0,4095.0,4095.0,3213.0,3682.0,-0.4,9.02,4.6,0.01,-0.04,-0.18,1.0,v
2858.0,2951.0,3009.0,3360.0,4095.0,4095.0,3190.0,3663.0,-0.94,8.76,4.71,0.12,0.07,-0.0,1.0,v
2862.0,2954.0,2996.0,3379.0,4095.0,4095.0,3194.0,3666.0,-0.52,9.14,4.43,0.19,0.2,0.01,1.0,v
2857.0,2951.0,3014.0,3385.0,4095.0,4095.0,3200.0,3648.0,-1.1,8.88,4.32,0.05,0.54,0.1,1.0,v
2854.0,2943.0,3009.0,3389.0,4095.0,4095.0,3196.0,3601.0,-1.04,9.42,3.58,0.19,-0.24,0.01,1.0,v
2865.0,2966.0,3006.0,3381.0,4095.0,4095.0,3207.0,3610.0,-0.35,9.24,3.85,0.04,-0.07,0.12,1.0,v
2858.0,2951.0,3007.0,3376.0,4095.0,4095.0,3201.0,3616.0,-0.45,9.44,3.78,0.16,-0.13,-0.04,1.0,v
2846.0,2947.0,2995.0,3391.0,4095.0,4095.0,3197.0,3659.0,-0.4,9.31,3.88,0.05,-0.07,0.11,1.0,v
2864.0,2959.0,3013.0,3401.0,4095.0,4095.0,3201.0,3659.0,-0.34,9.45,3.76,0.01,-0.02,0.0,1.0,v
2851.0,2956.0,3001.0,3401.0,4095.0,4095.0,3211.0,3661.0,-0.29,9.45,3.49,-0.06,-0.05,-0.12,1.0,v
2864.0,2965.0,3008.0,3397.0,4095.0,4095.0,3208.0,3661.0,-0.17,9.41,3.87,-0.07,-0.07,-0.16,1.0,v
2864.0,2954.0,3002.0,3404.0,4095.0,4095.0,3205.0,3680.0,-0.52,9.19,3.96,-0.09,-0.12,-0.2,1.0,v
2862.0,2951.0,3011.0,3393.0,4095.0,4095.0,3203.0,3694.0,-0.63,9.4,3.84,0.08,-0.17,-0.18,1.0,v
2851.0,2950.0,3003.0,3393.0,4095.0,4095.0,3203.0,3677.0,-0.62,9.35,3.74,-0.14,-0.02,-0.12,1.0,v
2864.0,2949.0,3017.0,3392.0,4095.0,4095.0,3198.0,3691.0,-0.71,9.35,3.88,-0.0,-0.14,-0.14,1.0,v
2869.0,2947.0,3004.0,3395.0,4095.0,4095.0,3214.0,3683.0,-0.56,9.22,3.92,-0.07,-0.27,-0.19,1.0,v
2864.0,2949.0,3009.0,3402.0,4095.0,4095.0,3197.0,3698.0,-0.53,9.35,3.82,-0.13,-0.15,-0.24,1.0,v
2858.0,2963.0,3021.0,3393.0,4095.0,4095.0,3212.0,3691.0,-0.73,9.22,3.96,-0.07,-0.19,-0.19,1.0,v
2874.0,2958.0,3003.0,3399.0,4095.0,4095.0,3203.0,3675.0,-0.44,9.29,3.92,-0.17,-0.08,-0.18,1.0,v
2857.0,2948.0,2994.0,3409.0,4095.0,4095.0,3202.0,3671.0,-0.59,9.18,4.17,-0.08,0.32,-0.07,1.0,v
2877.0,2966.0,2999.0,3413.0,4095.0,4095.0,3205.0,3681.0,-0.86,9.15,4.05,-0.13,0.16,-0.11,1.0,v
2871.0,2953.0,3005.0,3409.0,4095.0,4095.0,3204.0,3675.0,-0.74,9.14,4.17,-0.02,0.05,-0.13,1.0,v
2867.0,2958.0,3001.0,3405.0,4095.0,4095.0,3205.0,3693.0,-0.91,9.26,3.91,-0.04,-0.03,-0.21,1.0,v
2862.0,2950.0,3015.0,3408.0,4095.0,4095.0,3197.0,3677.0,-1.08,9.17,3.99,-0.04,-0.07,-0.22,1.0,v
2861.0,2954.0,3009.0,3376.0,4095.0,4095.0,3213.0,3691.0,-1.51,9.11,4.05,-0.14,-0.09,-0.28,1.0,v
2855.0,2955.0,3010.0,3359.0,4095.0,4095.0,3211.0,3697.0,-1.41,9.08,4.0,-0.15,-0.17,-0.35,1.0,v
2861.0,2956.0,2998.0,3343.0,4095.0,4095.0,3206.0,3696.0,-1.22,9.05,4.25,-0.09,-0.09,-0.22,1.0,v
2880.0,2950.0,3013.0,3323.0,4095.0,4095.0,3202.0,3666.0,-1.44,9.05,4.08,-0.1,-0.03,-0.39,1.0,v
2874.0,2960.0,3008.0,3302.0,4095.0,4095.0,3190.0,3639.0,-1.88,8.97,4.03,0.02,-0.1,-0.06,1.0,v
2877.0,2969.0,3004.0,3281.0,4095.0,4095.0,3162.0,3600.0,-1.55,9.2,4.03,0.1,0.01,-0.07,1.0,v
2879.0,2951.0,3009.0,3240.0,4095.0,4095.0,3151.0,3551.0,-1.93,9.13,3.76,-0.12,0.04,0.01,1.0,v
2882.0,2947.0,3003.0,3216.0,4095.0,4095.0,3138.0,3509.0,-1.4,8.75,4.32,0.01,0.01,0.02,1.0,v
2880.0,2960.0,3001.0,3259.0,4095.0,4095.0,3119.0,3446.0,-1.61,9.43,3.71,-0.05,0.18,0.01,1.0,v
2880.0,2960.0,3007.0,3299.0,4095.0,4095.0,3125.0,3435.0,-1.36,8.85,4.31,-0.03,-0.02,-0.19,1.0,v
2895.0,2960.0,3018.0,3329.0,4095.0,4095.0,3119.0,3423.0,-1.6,9.29,3.98,-0.18,0.02,0.02,1.0,v
2896.0,2955.0,3010.0,3385.0,4095.0,4095.0,3115.0,3397.0,-1.45,9.09,4.14,0.0,-0.18,-0.09,1.0,v
2899.0,2959.0,3021.0,3440.0,4095.0,4095.0,3118.0,3405.0,-1.43,9.22,4.01,-0.05,-0.05,0.07,1.0,v
2906.0,2960.0,3009.0,3682.0,4095.0,4095.0,3119.0,3399.0,-1.64,8.94,4.4,0.19,-0.09,-0.05,1.0,v
2906.0,2966.0,3014.0,4022.0,4095.0,4095.0,3110.0,3402.0,-1.55,9.29,3.47,-0.27,-0.1,0.14,1.0,v
2899.0,2960.0,3008.0,4095.0,4095.0,4095.0,3101.0,3405.0,-1.09,9.37,3.85,0.19,-0.31,-0.28,1.0,v
2915.0,2960.0,3011.0,4095.0,4095.0,4095.0,3088.0,3392.0,-1.37,9.06,3.96,-0.19,-0.03,0.06,1.0,v
2898.0,2960.0,3024.0,4095.0,4095.0,4095.0,3071.0,3381.0,-1.42,9.28,4.13,0.05,-0.1,-0.04,1.0,v
2902.0,2955.0,3018.0,4095.0,4095.0,4095.0,3085.0,3395.0,-1.3,8.91,4.36,0.03,0.01,0.05,1.0,v
2887.0,2974.0,3008.0,4095.0,4095.0,4095.0,3085.0,3404.0,-1.29,9.31,3.66,-0.1,-0.05,0.03,1.0,v
2890.0,2953.0,3018.0,4095.0,4095.0,4095.0,3066.0,3355.0,-1.28,9.08,3.94,-0.05,0.05,0.08,1.0,v
2893.0,2959.0,3023.0,4095.0,4095.0,4095.0,3067.0,3275.0,-1.25,9.28,3.99,-0.12,0.04,0.09,1.0,v
2894.0,2960.0,3023.0,4095.0,4095.0,4095.0,3062.0,3248.0,-1.38,8.96,4.12,0.02,-0.14,-0.08,1.0,v
2917.0,2975.0,3015.0,4095.0,4095.0,4095.0,3051.0,3236.0,-1.03,9.31,3.87,0.0,-0.24,-0.11,1.0,v
2913.0,2961.0,3005.0,4047.0,4095.0,4095.0,3056.0,3263.0,-0.97,9.14,3.97,0.13,-0.33,-0.1,1.0,v
2919.0,2960.0,3024.0,3611.0,4095.0,4095.0,3039.0,3287.0,-0.86,9.31,3.38,-0.37,-0.11,0.13,1.0,v
2915.0,2957.0,3001.0,3358.0,4095.0,4095.0,3029.0,3309.0,-1.02,9.4,3.96,-0.16,-0.21,-0.04,1.0,v
2921.0,2950.0,3010.0,3321.0,4095.0,4095.0,3026.0,3302.0,-0.8,9.03,4.3,-0.02,-0.02,-0.05,1.0,v
2897.0,2954.0,3005.0,3314.0,4095.0,4095.0,3026.0,3315.0,-1.23,9.2,4.04,-0.15,-0.06,-0.06,1.0,v
2863.0,2962.0,2998.0,3328.0,4095.0,4095.0,3031.0,3311.0,-0.91,9.26,3.98,0.06,-0.17,-0.07,1.0,v
2859.0,2958.0,3018.0,3338.0,4095.0,4095.0,3031.0,3321.0,-0.92,9.16,3.68,-0.25,-0.07,-0.06,1.0,v
2826.0,2971.0,3005.0,3327.0,4095.0,4095.0,3049.0,3328.0,-0.78,9.25,4.32,0.04,-0.08,-0.11,1.0,v
2827.0,2963.0,3011.0,3305.0,4095.0,4095.0,3039.0,3328.0,-1.06,8.99,4.18,-0.13,-0.01,-0.09,1.0,v
2816.0,2962.0,3010.0,3315.0,4095.0,4095.0,3039.0,3323.0,-1.06,9.32,3.89,-0.12,0.01,-0.05,1.0,v
2816.0,2959.0,3001.0,3305.0,4095.0,4095.0,3045.0,3319.0,-0.99,9.15,4.01,-0.1,-0.02,-0.1,1.0,v
2827.0,2960.0,3007.0,3308.0,4095.0,4095.0,3036.0,3328.0,-1.03,9.25,4.23,-0.21,-0.03,-0.09,1.0,v
2832.0,2960.0,3017.0,3305.0,4095.0,4095.0,3038.0,3319.0,-0.84,9.17,4.29,-0.06,-0.0,-0.1,1.0,v
2838.0,2957.0,3005.0,3309.0,4095.0,4095.0,3040.0,3321.0,-1.19,8.94,4.24,-0.19,0.0,-0.06,1.0,v
2830.0,2960.0,3005.0,3313.0,4095.0,4095.0,3038.0,3314.0,-1.16,9.12,4.47,-0.1,0.0,-0.06,1.0,v
2834.0,2961.0,3011.0,3312.0,4095.0,4095.0,3037.0,3325.0,-1.23,8.86,4.43,-0.0,-0.0,-0.02,1.0,v
2815.0,2960.0,3015.0,3313.0,4095.0,4095.0,3022.0,3312.0,-0.87,9.23,4.08,-0.01,0.03,0.06,1.0,v
2787.0,2960.0,3013.0,3313.0,4095.0,4095.0,3001.0,3326.0,-1.05,8.85,4.33,0.01,0.08,-0.02,1.0,v
2780.0,2963.0,3001.0,3307.0,4095.0,4095.0,3011.0,3327.0,-1.07,9.12,4.54,0.07,-0.05,-0.18,1.0,v
2768.0,2961.0,3005.0,3297.0,4095.0,4095.0,3011.0,3312.0,-1.15,8.97,4.32,-0.04,0.11,-0.18,1.0,v
2736.0,2966.0,3015.0,3283.0,4095.0,4095.0,2983.0,3255.0,-1.89,9.01,4.13,-0.09,0.12,-0.02,1.0,v
2709.0,2966.0,3019.0,3264.0,4095.0,4095.0,2955.0,3198.0,-1.46,8.9,4.25,-0.01,-0.13,0.14,1.0,v
2678.0,2967.0,3011.0,3225.0,4095.0,4095.0,2947.0,3187.0,-1.05,9.13,4.23,0.15,-0.06,0.28,1.0,v
2673.0,2975.0,3009.0,3233.0,4095.0,4095.0,2971.0,3194.0,-0.75,9.51,3.78,0.02,-0.03,0.09,1.0,v
2672.0,2963.0,3019.0,3245.0,4095.0,4095.0,2974.0,3216.0,-0.79,9.09,4.2,-0.19,-0.08,-0.08,1.0,v
2694.0,2960.0,3003.0,3259.0,4095.0,4095.0,2977.0,3216.0,-0.79,9.08,4.38,-0.23,-0.04,0.06,1.0,v
2694.0,2960.0,3018.0,3248.0,4095.0,4095.0,2976.0,3198.0,-0.74,9.1,4.4,-0.1,-0.14,-0.02,1.0,v
2703.0,2960.0,3024.0,3273.0,4095.0,4095.0,2977.0,3205.0,-0.52,9.14,4.27,-0.22,-0.06,-0.06,1.0,v
2726.0,2962.0,3015.0,3298.0,4095.0,4095.0,2979.0,3215.0,-0.57,9.11,4.36,-0.0,-0.03,-0.09,1.0,v
2738.0,2966.0,3006.0,3309.0,4095.0,4095.0,2973.0,3226.0,-0.92,9.09,4.23,-0.08,0.04,-0.06,1.0,v
2759.0,2961.0,3002.0,3324.0,4095.0,4095.0,2973.0,3245.0,-0.75,9.14,4.35,0.02,-0.03,-0.13,1.0,v
2740.0,2963.0,2998.0,3341.0,4095.0,4095.0,2970.0,3245.0,-0.93,9.08,4.28,-0.1,0.08,-0.09,1.0,v
2739.0,2963.0,3001.0,3346.0,4095.0,4095.0,2972.0,3261.0,-1.02,9.25,4.2,-0.06,0.02,-0.12,1.0,v
2752.0,2960.0,3011.0,3361.0,4095.0,4095.0,2974.0,3265.0,-0.84,9.11,4.25,0.08,0.05,-0.1,1.0,v
2771.0,2970.0,3006.0,3367.0,4095.0,4095.0,2967.0,3263.0,-1.01,9.32,4.02,-0.19,0.1,-0.09,1.0,v
2790.0,2967.0,3017.0,3390.0,4095.0,4095.0,2977.0,3252.0,-1.1,8.76,4.69,0.11,0.03,-0.11,1.0,v
2771.0,2961.0,3008.0,3410.0,4095.0,4095.0,2979.0,3278.0,-1.13,9.28,4.07,-0.16,-0.03,-0.02,1.0,v
2777.0,2969.0,3015.0,3400.0,4095.0,4095.0,2988.0,3275.0,-0.99,9.02,4.22,-0.01,0.02,-0.07,1.0,v
2800.0,2960.0,3017.0,3407.0,4095.0,4095.0,2982.0,3294.0,-1.15,9.18,4.04,-0.31,-0.02,-0.03,1.0,v
2797.0,2960.0,3008.0,3405.0,4095.0,4095.0,2986.0,3299.0,-1.08,9.13,4.39,-0.06,0.04,-0.05,1.0,v
2797.0,2971.0,3002.0,3406.0,4095.0,4095.0,2978.0,3306.0,-1.14,8.94,4.45,-0.27,-0.07,-0.03,1.0,v
2800.0,2960.0,3012.0,3411.0,4095.0,4095.0,2968.0,3295.0,-1.07,8.98,4.54,-0.16,-0.01,-0.01,1.0,v
2789.0,2962.0,3007.0,3433.0,4095.0,4095.0,2982.0,3291.0,-1.15,8.92,4.58,-0.11,0.01,-0.0,1.0,v
2781.0,2961.0,3015.0,3461.0,4095.0,4095.0,2986.0,3285.0,-0.97,9.0,4.58,-0.04,-0.02,0.0,1.0,v
2770.0,2964.0,3018.0,3485.0,4095.0,4095.0,2981.0,3299.0,-0.84,8.91,4.62,0.05,0.02,-0.02,1.0,v
2768.0,2970.0,3009.0,3515.0,4095.0,4095.0,2991.0,3280.0,-1.0,9.06,4.51,0.03,0.02,0.03,1.0,v
2768.0,2959.0,3005.0,3503.0,4095.0,4095.0,3001.0,3312.0,-1.06,8.96,4.49,0.06,0.02,-0.03,1.0,v
2784.0,2960.0,2994.0,3520.0,4095.0,4095.0,3008.0,3273.0,-1.13,8.98,4.45,0.24,-0.07,-0.09,1.0,v
2773.0,2960.0,2997.0,3566.0,4095.0,4095.0,3021.0,3310.0,-1.03,9.04,4.21,0.32,0.06,-0.0,1.0,v
2784.0,2959.0,3004.0,3517.0,4095.0,4095.0,3030.0,3377.0,-1.12,9.37,3.62,0.06,-0.04,0.09,1.0,v
2807.0,2963.0,3007.0,3495.0,4095.0,4095.0,3039.0,3386.0,-0.73,9.3,3.97,-0.03,-0.02,0.09,1.0,v
2867.0,2958.0,2997.0,3536.0,4095.0,4095.0,3044.0,3395.0,-0.71,9.23,4.12,-0.08,-0.03,0.02,1.0,v
2907.0,2967.0,3005.0,3559.0,4095.0,4095.0,3056.0,3413.0,-0.62,9.34,3.88,-0.01,-0.19,-0.04,1.0,v
2816.0,2959.0,3002.0,3579.0,4095.0,4095.0,3071.0,3409.0,-0.52,9.39,3.73,-0.4,-0.08,-0.12,1.0,v
2741.0,2958.0,2993.0,3583.0,4095.0,4095.0,3067.0,3399.0,-1.06,9.1,4.13,-0.49,-0.09,-0.1,1.0,v
2738.0,2962.0,3007.0,3599.0,4095.0,4095.0,3087.0,3448.0,-0.94,9.0,4.44,-0.38,0.01,-0.02,1.0,v
2757.0,2960.0,3005.0,3602.0,4095.0,4095.0,3062.0,3447.0,-0.77,8.85,4.59,-0.24,0.07,0.01,1.0,v
2759.0,2962.0,3000.0,3603.0,4095.0,4095.0,3059.0,3442.0,-0.85,8.98,4.69,-0.16,0.17,-0.03,1.0,v
2783.0,2953.0,3004.0,3613.0,4095.0,4095.0,3053.0,3440.0,-0.83,9.01,4.62,-0.05,0.15,-0.03,1.0,v
2793.0,2960.0,3009.0,3615.0,4095.0,4095.0,3046.0,3418.0,-0.78,9.06,4.39,-0.31,0.04,0.01,1.0,v
2800.0,2966.0,3001.0,3650.0,4095.0,4095.0,3029.0,3401.0,-0.6,8.83,4.99,-0.02,0.02,-0.06,1.0,v
2802.0,2955.0,3006.0,3675.0,4095.0,4095.0,3024.0,3404.0,-0.67,9.03,4.54,-0.22,0.09,-0.09,1.0,v
2827.0,2964.0,3007.0,3782.0,4095.0,4095.0,3030.0,3423.0,-0.85,8.8,4.93,-0.14,-0.07,-0.2,1.0,v
2838.0,2955.0,2993.0,3829.0,4095.0,4095.0,3035.0,3419.0,-1.0,8.88,4.8,-0.27,-0.05,-0.06,1.0,v
2866.0,2954.0,2991.0,3978.0,4095.0,4095.0,3055.0,3457.0,-0.74,8.5,5.45,0.17,0.03,-0.13,1.0,v
2915.0,2955.0,3001.0,4082.0,4095.0,4095.0,3066.0,3472.0,-1.37,8.91,4.66,0.1,0.04,-0.08,1.0,v
2932.0,2962.0,3011.0,4087.0,4095.0,4095.0,3088.0,3493.0,-1.01,8.76,4.7,-0.01,-0.06,-0.02,1.0,v
2927.0,2956.0,3006.0,4095.0,4095.0,4095.0,3100.0,3454.0,-0.96,9.02,4.5,-0.02,-0.02,0.01,1.0,v
2931.0,2957.0,3008.0,4095.0,4095.0,4095.0,3104.0,3553.0,-0.98,8.88,4.6,-0.08,-0.04,-0.04,1.0,v
2950.0,2951.0,3010.0,4095.0,4095.0,4095.0,3107.0,3574.0,-1.03,8.84,4.84,-0.05,0.03,-0.02,1.0,v
2944.0,2960.0,3008.0,4095.0,4095.0,4095.0,3115.0,3583.0,-0.97,8.9,4.66,0.0,0.02,-0.03,1.0,v
2951.0,2962.0,3002.0,4095.0,4095.0,4095.0,3121.0,3581.0,-0.91,8.9,4.7,-0.01,0.05,-0.05,1.0,v
2967.0,2959.0,3002.0,4095.0,4095.0,4095.0,3121.0,3583.0,-0.85,8.96,4.59,-0.08,0.01,-0.03,1.0,v
2960.0,2965.0,2992.0,4074.0,4095.0,4095.0,3106.0,3583.0,-0.95,8.91,4.73,-0.02,0.08,-0.04,1.0,v
2960.0,2976.0,2995.0,3935.0,4095.0,4095.0,3114.0,3553.0,-1.04,8.93,4.65,-0.11,0.03,-0.01,1.0,v
2955.0,2960.0,3015.0,3943.0,4095.0,4095.0,3104.0,3553.0,-1.06,8.91,4.63,-0.06,0.12,0.02,1.0,v
2948.0,2958.0,3007.0,3746.0,4095.0,4095.0,3088.0,3523.0,-1.09,8.83,4.72,-0.0,0.02,0.04,1.0,v
2974.0,2963.0,3006.0,3535.0,4095.0,4095.0,3071.0,3447.0,-0.92,8.98,4.66,0.04,0.1,0.13,1.0,v
2963.0,2957.0,3002.0,3361.0,4095.0,4095.0,3047.0,3450.0,-1.08,9.1,4.12,-0.28,0.37,0.27,1.0,v
2973.0,2960.0,3002.0,3341.0,4095.0,4095.0,3034.0,3438.0,-0.76,8.95,4.46,-0.08,-0.04,0.31,1.0,v
2965.0,2962.0,2993.0,3301.0,4095.0,4095.0,3037.0,3445.0,-0.38,9.05,4.74,0.0,0.01,0.02,1.0,v
2972.0,2976.0,3007.0,3286.0,4095.0,4095.0,3030.0,3433.0,-0.58,9.0,4.63,-0.18,0.01,-0.05,1.0,v
2966.0,2974.0,3006.0,3269.0,4095.0,4095.0,3033.0,3440.0,-0.76,8.77,4.93,-0.11,0.19,0.04,1.0,v
2956.0,2960.0,3005.0,3263.0,4095.0,4095.0,3023.0,3417.0,-0.55,8.9,4.84,-0.11,0.08,0.06,1.0,v
2961.0,2964.0,3008.0,3295.0,4095.0,4095.0,3013.0,3408.0,-0.57,8.84,4.81,-0.06,0.12,-0.04,1.0,v
2929.0,2958.0,2998.0,3295.0,4095.0,4095.0,3009.0,3390.0,-0.58,9.01,4.86,-0.12,0.01,-0.11,1.0,v
2875.0,2963.0,3007.0,3265.0,4095.0,4095.0,3009.0,3393.0,-0.78,8.76,4.81,-0.05,0.01,-0.09,1.0,v
2832.0,2966.0,2997.0,3264.0,4095.0,4095.0,3006.0,3399.0,-0.94,9.16,4.35,-0.04,0.0,-0.22,1.0,v
2799.0,2963.0,3010.0,3244.0,4095.0,4095.0,3008.0,3393.0,-0.94,8.68,4.78,-0.06,-0.02,-0.07,1.0,v
2818.0,2965.0,3003.0,3233.0,4095.0,4095.0,2998.0,3395.0,-1.04,9.11,4.55,-0.15,-0.18,-0.2,1.0,v
2810.0,2962.0,3013.0,3231.0,4095.0,4095.0,2998.0,3408.0,-0.7,8.61,4.85,-0.17,-0.09,0.06,1.0,v
2841.0,2961.0,3005.0,3239.0,4095.0,4095.0,3001.0,3402.0,-0.89,8.96,4.83,-0.15,-0.06,-0.04,1.0,v
2851.0,2958.0,2998.0,3248.0,4095.0,4095.0,3004.0,3397.0,-0.76,8.72,5.01,-0.01,-0.11,-0.05,1.0,v
2859.0,2962.0,3006.0,3261.0,4095.0,4095.0,2998.0,3407.0,-0.67,8.88,4.59,-0.13,-0.04,0.02,1.0,v
2865.0,2953.0,3010.0,3276.0,4095.0,4095.0,2996.0,3408.0,-0.74,8.84,4.92,0.05,-0.04,-0.06,1.0,v
2875.0,2947.0,3010.0,3291.0,4095.0,4095.0,3003.0,3407.0,-0.6,8.76,4.76,-0.23,-0.08,-0.02,1.0,v
2864.0,2961.0,3006.0,3312.0,4095.0,4095.0,3003.0,3402.0,-0.72,8.79,5.08,0.09,0.07,-0.08,1.0,v
2870.0,2940.0,3003.0,3303.0,4095.0,4095.0,3005.0,3397.0,-0.72,8.86,4.67,-0.17,-0.01,0.03,1.0,v
2866.0,2926.0,2967.0,2933.0,4095.0,4095.0,3031.0,2835.0,0.96,9.24,4.39,-0.05,-0.09,-0.1,1.0,v
2882.0,2930.0,2966.0,2957.0,4095.0,4095.0,3023.0,2830.0,0.85,9.17,4.04,-0.01,0.02,-0.07,1.0,v
2869.0,2931.0,2975.0,2960.0,4095.0,4095.0,3023.0,2847.0,0.99,9.19,4.34,-0.01,-0.02,-0.06,1.0,v
2880.0,2939.0,2981.0,2955.0,4095.0,4095.0,3025.0,2871.0,0.67,9.36,4.11,0.01,0.03,-0.07,1.0,v
2870.0,2924.0,2967.0,2950.0,4095.0,4095.0,3023.0,2874.0,0.77,9.48,4.07,0.07,-0.06,-0.07,1.0,v
2866.0,2934.0,2975.0,2931.0,4095.0,4095.0,3023.0,2895.0,0.64,9.23,4.03,0.13,0.1,-0.15,1.0,v
2874.0,2928.0,2963.0,2950.0,4095.0,4095.0,3027.0,2911.0,0.58,9.36,3.65,0.04,0.01,-0.1,1.0,v
2861.0,2930.0,2965.0,2958.0,4095.0,4095.0,3034.0,2902.0,0.46,9.34,3.8,-0.02,0.04,-0.09,1.0,v
2878.0,2928.0,2977.0,2963.0,4095.0,4095.0,3031.0,2911.0,0.65,9.57,3.66,-0.02,0.0,-0.07,1.0,v
2864.0,2938.0,2977.0,2955.0,4095.0,4095.0,3034.0,2926.0,0.28,9.41,3.71,-0.02,0.04,-0.01,1.0,v
2855.0,2935.0,2971.0,2970.0,4095.0,4095.0,3031.0,2922.0,0.65,9.47,3.53,-0.0,0.05,-0.05,1.0,v
2870.0,2931.0,2967.0,2955.0,4095.0,4095.0,3040.0,2926.0,0.57,9.4,3.52,-0.05,0.04,-0.03,1.0,v
2864.0,2932.0,2976.0,2970.0,4095.0,4095.0,3043.0,2942.0,0.56,9.52,3.55,-0.02,0.02,-0.02,1.0,v
2878.0,2937.0,2973.0,2993.0,4095.0,4095.0,3039.0,2941.0,0.45,9.43,3.48,-0.01,0.02,-0.03,1.0,v
2862.0,2928.0,2977.0,3007.0,4095.0,4095.0,3046.0,2943.0,0.46,9.57,3.29,0.07,-0.01,-0.07,1.0,v
2868.0,2938.0,2967.0,3010.0,4095.0,4095.0,3052.0,2947.0,0.42,9.66,3.31,-0.01,0.01,-0.03,1.0,v
2870.0,2928.0,2981.0,3020.0,4095.0,4095.0,3047.0,2947.0,0.64,9.63,3.39,-0.02,0.0,-0.02,1.0,v
2870.0,2928.0,2971.0,3001.0,4095.0,4095.0,3047.0,2944.0,0.53,9.56,3.11,-0.04,-0.03,-0.04,1.0,v
2869.0,2928.0,2977.0,3019.0,4095.0,4095.0,3041.0,2951.0,0.65,9.57,3.14,-0.07,-0.02,-0.02,1.0,v
2873.0,2926.0,2966.0,3024.0,4095.0,4095.0,3050.0,2960.0,0.56,9.57,3.14,-0.1,-0.0,-0.02,1.0,v
2859.0,2920.0,2975.0,3026.0,4095.0,4095.0,3054.0,2947.0,0.49,9.51,3.34,-0.09,0.05,-0.02,1.0,v
2867.0,2934.0,2974.0,3023.0,4095.0,4095.0,3053.0,2945.0,0.57,9.46,3.01,-0.09,0.09,-0.04,1.0,v
2866.0,2930.0,2978.0,3021.0,4095.0,4095.0,3055.0,2940.0,0.61,9.57,3.5,-0.06,0.08,-0.01,1.0,v
2871.0,2932.0,2974.0,3024.0,4095.0,4095.0,3059.0,2944.0,0.55,9.59,3.41,-0.06,0.06,-0.05,1.0,v
2859.0,2925.0,2962.0,3025.0,4095.0,4095.0,3056.0,2948.0,0.49,9.61,3.31,-0.03,0.03,-0.05,1.0,v
2862.0,2928.0,2964.0,3034.0,4095.0,4095.0,3059.0,2954.0,0.44,9.59,3.26,-0.06,0.0,-0.0,1.0,v
2864.0,2925.0,2965.0,3026.0,4095.0,4095.0,3056.0,2958.0,0.52,9.6,3.15,-0.03,0.05,-0.03,1.0,v
2871.0,2928.0,2967.0,3035.0,4095.0,4095.0,3058.0,2960.0,0.51,9.53,3.37,-0.08,0.05,-0.0,1.0,v
2864.0,2928.0,2962.0,3031.0,4095.0,4095.0,3056.0,2961.0,0.58,9.56,3.19,-0.06,0.04,0.01,1.0,v
2863.0,2921.0,2975.0,3029.0,4095.0,4095.0,3053.0,2956.0,0.44,9.56,3.18,-0.08,0.01,-0.03,1.0,v
2862.0,2928.0,2961.0,3013.0,4095.0,4095.0,3067.0,2971.0,0.4,9.61,3.22,-0.04,0.02,-0.03,1.0,v
2863.0,2934.0,2975.0,3022.0,4095.0,4095.0,3065.0,2951.0,0.49,9.65,3.07,-0.04,0.01,-0.04,1.0,v
2867.0,2925.0,2971.0,3022.0,4095.0,4095.0,3066.0,2960.0,0.45,9.67,3.12,-0.07,0.05,-0.04,1.0,v
2864.0,2930.0,2979.0,3031.0,4095.0,4095.0,3062.0,2959.0,0.5,9.64,3.3,-0.09,0.0,-0.03,1.0,v
2864.0,2930.0,2973.0,2974.0,4095.0,4095.0,3011.0,2613.0,0.15,9.59,3.16,-0.06,0.02,-0.04,1.0,v
2869.0,2924.0,2970.0,2963.0,4095.0,4095.0,2999.0,2592.0,0.13,9.65,3.15,-0.07,0.08,-0.02,1.0,v
2871.0,2923.0,2976.0,2989.0,4095.0,4095.0,3007.0,2635.0,0.05,9.57,3.34,-0.05,0.01,-0.0,1.0,v
2873.0,2928.0,2979.0,2982.0,4095.0,4095.0,3014.0,2627.0,0.14,9.69,3.0,-0.12,0.0,0.03,1.0,v
2871.0,2938.0,2974.0,2983.0,4095.0,4095.0,3023.0,2667.0,0.2,9.62,3.29,-0.09,0.01,-0.02,1.0,v
2874.0,2939.0,2973.0,2993.0,4095.0,4095.0,3015.0,2714.0,0.24,9.45,3.35,-0.13,-0.01,0.0,1.0,v
2873.0,2935.0,2977.0,2994.0,4095.0,4095.0,3026.0,2738.0,0.33,9.45,3.39,-0.1,-0.05,-0.01,1.0,v
2869.0,2925.0,2978.0,2999.0,4095.0,4095.0,3024.0,2755.0,0.26,9.61,3.43,0.01,-0.01,-0.07,1.0,v
2865.0,2939.0,2989.0,3006.0,4095.0,4095.0,3025.0,2752.0,0.02,9.57,3.6,-0.05,-0.04,0.01,1.0,v
2866.0,2933.0,2967.0,2999.0,4095.0,4095.0,3021.0,2723.0,0.49,9.52,2.97,-0.08,-0.04,0.02,1.0,v
2855.0,2928.0,2974.0,3022.0,4095.0,4095.0,3023.0,2741.0,0.43,9.44,3.64,-0.08,-0.04,-0.03,1.0,v
2865.0,2938.0,2967.0,3047.0,4095.0,4095.0,3035.0,2767.0,0.55,9.59,3.25,-0.07,-0.01,-0.04,1.0,v
2865.0,2941.0,2971.0,3041.0,4095.0,4095.0,3037.0,2800.0,0.26,9.53,3.3,-0.01,0.04,-0.06,1.0,v
2875.0,2931.0,2973.0,3055.0,4095.0,4095.0,3031.0,2800.0,0.2,9.5,3.22,-0.04,0.05,-0.05,1.0,v
2873.0,2928.0,2983.0,3056.0,4095.0,4095.0,3039.0,2810.0,0.28,9.48,3.34,-0.05,0.01,-0.03,1.0,v
2864.0,2938.0,2969.0,3058.0,4095.0,4095.0,3035.0,2807.0,0.27,9.58,3.21,-0.05,0.01,-0.03,1.0,v
2845.0,2937.0,2974.0,3054.0,4095.0,4095.0,3034.0,2800.0,0.33,9.63,3.35,-0.01,0.02,-0.05,1.0,v
2875.0,2923.0,2974.0,3066.0,4095.0,4095.0,3042.0,2783.0,0.16,9.6,3.21,-0.02,0.02,-0.02,1.0,v
2862.0,2936.0,2973.0,3063.0,4095.0,4095.0,3038.0,2785.0,0.51,9.61,3.11,-0.06,0.04,-0.03,1.0,v
2853.0,2930.0,2967.0,3066.0,4095.0,4095.0,3040.0,2785.0,0.23,9.71,3.19,-0.04,-0.02,-0.03,1.0,v
2863.0,2925.0,2979.0,3071.0,4095.0,4095.0,3033.0,2780.0,0.3,9.62,3.26,-0.04,-0.04,-0.02,1.0,v
2865.0,2928.0,2977.0,3071.0,4095.0,4095.0,3040.0,2794.0,0.24,9.6,3.08,-0.05,0.03,-0.03,1.0,v
2864.0,2935.0,2981.0,3056.0,4095.0,4095.0,3046.0,2809.0,0.36,9.63,3.05,-0.03,-0.04,-0.04,1.0,v
2862.0,2928.0,2966.0,3066.0,4095.0,4095.0,3030.0,2831.0,0.22,9.67,3.03,-0.07,-0.02,0.0,1.0,v
2864.0,2928.0,2983.0,3071.0,4095.0,4095.0,3045.0,2815.0,0.25,9.63,3.14,-0.03,0.02,-0.04,1.0,v
2858.0,2923.0,2971.0,3069.0,4095.0,4095.0,3046.0,2817.0,0.32,9.64,3.05,-0.04,-0.03,-0.04,1.0,v
2863.0,2931.0,2963.0,3054.0,4095.0,4095.0,3046.0,2814.0,0.31,9.68,3.01,-0.06,-0.02,-0.04,1.0,v
2864.0,2923.0,2975.0,3060.0,4095.0,4095.0,3051.0,2783.0,0.4,9.62,3.23,-0.05,-0.03,-0.05,1.0,v
2861.0,2929.0,2976.0,3085.0,4095.0,4095.0,3045.0,2787.0,0.34,9.65,2.83,-0.09,0.01,0.04,1.0,v
2855.0,2931.0,2969.0,3092.0,4095.0,4095.0,3055.0,2796.0,0.38,9.58,3.18,-0.07,0.03,-0.06,1.0,v
2859.0,2935.0,2979.0,3105.0,4095.0,4095.0,3044.0,2816.0,0.44,9.7,3.19,-0.02,0.05,-0.05,1.0,v
2863.0,2937.0,2971.0,3102.0,4095.0,4095.0,3054.0,2818.0,0.25,9.64,3.13,-0.06,-0.02,-0.02,1.0,v
2854.0,2933.0,2978.0,3108.0,4095.0,4095.0,3050.0,2821.0,0.36,9.57,3.01,-0.1,0.02,-0.0,1.0,v
2854.0,2930.0,2969.0,3102.0,4095.0,4095.0,3049.0,2807.0,0.34,9.56,3.1,-0.07,0.0,-0.04,1.0,v
2865.0,2926.0,2975.0,3043.0,4095.0,4095.0,3051.0,2714.0,-0.32,9.68,3.62,-0.0,0.05,-0.07,1.0,v
2867.0,2933.0,2976.0,3045.0,4095.0,4095.0,3056.0,2717.0,-0.21,9.49,3.28,-0.09,-0.02,-0.01,1.0,v
2864.0,2928.0,2977.0,3058.0,4095.0,4095.0,3056.0,2688.0,-0.25,9.44,3.64,-0.09,0.02,-0.02,1.0,v
2874.0,2933.0,2981.0,3059.0,4095.0,4095.0,3049.0,2843.0,-0.27,9.41,3.67,-0.02,0.02,-0.01,1.0,v
2874.0,2929.0,2974.0,3071.0,4095.0,4095.0,3055.0,2863.0,-0.24,9.52,3.39,-0.06,0.09,-0.02,1.0,v
2864.0,2928.0,2987.0,3085.0,4095.0,4095.0,3059.0,2832.0,-0.25,9.36,3.51,-0.09,-0.03,-0.03,1.0,v
2882.0,2931.0,2983.0,3094.0,4095.0,4095.0,3063.0,2830.0,-0.28,9.48,3.73,-0.05,0.0,-0.03,1.0,v
2871.0,2931.0,2973.0,3095.0,4095.0,4095.0,3071.0,2846.0,-0.14,9.48,3.7,-0.02,0.03,-0.04,1.0,v
2863.0,2928.0,2974.0,3101.0,4095.0,4095.0,3062.0,2858.0,-0.39,9.17,3.51,-0.02,-0.02,-0.05,1.0,v
2865.0,2929.0,2971.0,3090.0,4095.0,4095.0,3070.0,2864.0,-0.21,9.57,3.55,-0.04,-0.02,-0.04,1.0,v
2878.0,2939.0,2987.0,3101.0,4095.0,4095.0,3066.0,2880.0,-0.23,9.53,3.34,-0.02,-0.01,-0.05,1.0,v
2865.0,2928.0,2974.0,3088.0,4095.0,4095.0,3071.0,2894.0,-0.29,9.47,3.43,-0.06,0.07,-0.08,1.0,v
2864.0,2934.0,2982.0,3089.0,4095.0,4095.0,3060.0,2880.0,-0.47,9.51,3.45,0.0,0.05,-0.07,1.0,v
2867.0,2929.0,2989.0,3102.0,4095.0,4095.0,3070.0,2891.0,-0.37,9.56,3.54,-0.02,-0.02,-0.06,1.0,v
2864.0,2919.0,2981.0,3104.0,4095.0,4095.0,3067.0,2896.0,-0.5,9.58,3.25,-0.02,-0.01,-0.02,1.0,v
2875.0,2922.0,2975.0,3102.0,4095.0,4095.0,3062.0,2896.0,-0.3,9.49,3.41,-0.06,-0.03,0.01,1.0,v
2866.0,2928.0,2979.0,3095.0,4095.0,4095.0,3067.0,2901.0,-0.11,9.56,3.33,-0.01,-0.03,-0.03,1.0,v
2867.0,2928.0,2981.0,3099.0,4095.0,4095.0,3083.0,2899.0,-0.19,9.54,3.18,-0.02,0.0,-0.03,1.0,v
2867.0,2935.0,2977.0,3098.0,4095.0,4095.0,3071.0,2887.0,-0.12,9.46,3.06,-0.03,-0.02,-0.06,1.0,v
2871.0,2931.0,2980.0,3107.0,4095.0,4095.0,3071.0,2897.0,-0.44,9.51,3.43,-0.06,0.06,-0.05,1.0,v
2869.0,2944.0,2973.0,3123.0,4095.0,4095.0,3079.0,2906.0,-0.27,9.68,3.11,-0.08,0.04,-0.03,1.0,v
2866.0,2931.0,2974.0,3122.0,4095.0,4095.0,3081.0,2899.0,-0.35,9.56,3.23,-0.04,0.0,-0.01,1.0,v
2864.0,2935.0,2976.0,3120.0,4095.0,4095.0,3071.0,2919.0,-0.26,9.57,2.82,-0.04,0.05,-0.05,1.0,v
2853.0,2929.0,2978.0,3120.0,4095.0,4095.0,3088.0,2928.0,-0.2,9.51,3.51,-0.17,-0.02,-0.01,1.0,v
2865.0,2931.0,2972.0,3120.0,4095.0,4095.0,3088.0,2927.0,-0.28,9.66,3.27,-0.1,0.01,0.01,1.0,v
2853.0,2941.0,2964.0,3135.0,4095.0,4095.0,3088.0,2918.0,-0.25,9.51,3.13,-0.08,0.01,-0.03,1.0,v
2870.0,2920.0,2990.0,3127.0,4095.0,4095.0,3091.0,2930.0,-0.27,9.53,3.25,-0.06,0.02,-0.02,1.0,v
2862.0,2938.0,2987.0,3125.0,4095.0,4095.0,3083.0,2938.0,-0.77,9.5,3.6,-0.04,0.06,-0.07,1.0,v
2863.0,2941.0,2977.0,3120.0,4095.0,4095.0,3088.0,2954.0,-0.35,9.57,3.4,-0.06,-0.01,-0.02,1.0,v
2865.0,2933.0,2965.0,3127.0,4095.0,4095.0,3097.0,2928.0,-0.45,9.61,3.11,-0.06,0.01,-0.0,1.0,v
2865.0,2928.0,2969.0,3129.0,4095.0,4095.0,3085.0,2948.0,-0.21,9.42,3.31,-0.02,0.03,-0.04,1.0,v
2860.0,2931.0,2965.0,3137.0,4095.0,4095.0,3088.0,2942.0,-0.2,9.53,3.28,-0.05,0.03,-0.02,1.0,v
2862.0,2929.0,2972.0,3126.0,4095.0,4095.0,3095.0,2960.0,-0.4,9.68,3.37,-0.01,0.02,-0.02,1.0,v
2864.0,2928.0,2979.0,3136.0,4095.0,4095.0,3095.0,2975.0,-0.4,9.64,3.07,-0.01,0.03,-0.02,1.0,v
2861.0,2933.0,2981.0,3133.0,4095.0,4095.0,3093.0,2958.0,-0.22,9.62,3.06,-0.02,0.02,-0.02,1.0,v
2866.0,2934.0,2974.0,3150.0,4095.0,4095.0,3087.0,2959.0,-0.08,9.56,3.01,-0.1,-0.02,-0.01,1.0,v
2861.0,2928.0,2988.0,3152.0,4095.0,4095.0,3087.0,2973.0,-0.28,9.64,3.05,-0.03,-0.03,-0.05,1.0,v
2862.0,2928.0,2971.0,3141.0,4095.0,4095.0,3088.0,2970.0,-0.09,9.57,3.17,0.0,-0.06,-0.03,1.0,v
2878.0,2938.0,2982.0,3120.0,4095.0,4095.0,3088.0,3024.0,-0.2,9.46,3.56,-0.07,-0.01,-0.02,1.0,v
2865.0,2938.0,2981.0,3133.0,4095.0,4095.0,3091.0,3033.0,-0.05,9.48,3.46,0.0,0.01,-0.02,1.0,v
2875.0,2946.0,2983.0,3130.0,4095.0,4095.0,3103.0,3042.0,-0.25,9.43,3.56,0.0,0.01,-0.08,1.0,v
2883.0,2926.0,2971.0,3130.0,4095.0,4095.0,3101.0,3045.0,-0.02,9.47,3.49,-0.04,-0.04,-0.02,1.0,v
2886.0,2928.0,2983.0,3131.0,4095.0,4095.0,3107.0,3056.0,-0.32,9.52,3.43,-0.04,0.02,-0.03,1.0,v
2869.0,2930.0,2978.0,3138.0,4095.0,4095.0,3109.0,3061.0,-0.16,9.57,3.31,-0.04,0.04,-0.03,1.0,v
2876.0,2928.0,2977.0,3150.0,4095.0,4095.0,3117.0,3082.0,-0.09,9.51,3.36,-0.1,0.02,-0.04,1.0,v
2870.0,2934.0,2967.0,3153.0,4095.0,4095.0,3119.0,3088.0,-0.06,9.32,3.74,-0.12,0.01,-0.02,1.0,v
2880.0,2929.0,2982.0,3152.0,4095.0,4095.0,3107.0,3084.0,-0.25,9.49,3.54,-0.04,0.05,0.0,1.0,v
2877.0,2939.0,2974.0,3149.0,4095.0,4095.0,3120.0,3088.0,-0.02,9.52,3.36,-0.01,0.02,-0.03,1.0,v
2873.0,2933.0,2991.0,3151.0,4095.0,4095.0,3116.0,3099.0,-0.3,9.42,3.52,-0.03,0.04,-0.06,1.0,v
2866.0,2938.0,2983.0,3157.0,4095.0,4095.0,3120.0,3103.0,-0.12,9.58,3.41,-0.06,0.04,-0.02,1.0,v
2880.0,2934.0,2977.0,3151.0,4095.0,4095.0,3121.0,3106.0,-0.06,9.59,3.47,-0.03,-0.02,-0.05,1.0,v
2880.0,2927.0,2989.0,3152.0,4095.0,4095.0,3113.0,3120.0,-0.07,9.49,3.39,-0.02,-0.01,-0.04,1.0,v
2878.0,2929.0,2977.0,3139.0,4095.0,4095.0,3122.0,3114.0,-0.16,9.45,3.35,-0.03,0.01,-0.07,1.0,v
2878.0,2928.0,2967.0,3142.0,4095.0,4095.0,3121.0,3119.0,-0.29,9.61,3.06,-0.05,0.02,-0.04,1.0,v
2867.0,2928.0,2985.0,3139.0,4095.0,4095.0,3127.0,3120.0,-0.24,9.55,3.22,-0.04,0.05,-0.06,1.0,v
2880.0,2931.0,2977.0,3147.0,4095.0,4095.0,3130.0,3130.0,-0.26,9.6,3.44,-0.05,-0.05,-0.05,1.0,v
2882.0,2941.0,2977.0,3147.0,4095.0,4095.0,3126.0,3127.0,-0.21,9.57,3.22,-0.02,-0.01,-0.04,1.0,v
2875.0,2941.0,2969.0,3152.0,4095.0,4095.0,3136.0,3119.0,-0.16,9.52,3.21,-0.07,-0.04,-0.04,1.0,v
2874.0,2938.0,2971.0,3158.0,4095.0,4095.0,3122.0,3120.0,-0.13,9.59,3.25,-0.05,-0.06,-0.06,1.0,v
2881.0,2931.0,2983.0,3143.0,4095.0,4095.0,3132.0,3123.0,-0.25,9.56,3.11,-0.05,0.0,-0.04,1.0,v
2874.0,2935.0,2980.0,3152.0,4095.0,4095.0,3129.0,3125.0,-0.22,9.5,3.34,-0.04,0.03,-0.04,1.0,v
2871.0,2935.0,2971.0,3147.0,4095.0,4095.0,3134.0,3113.0,-0.21,9.55,3.27,-0.06,0.0,-0.03,1.0,v
2876.0,2938.0,2971.0,3167.0,4095.0,4095.0,3135.0,3119.0,-0.21,9.57,3.28,-0.06,0.03,-0.03,1.0,v
2879.0,2929.0,2974.0,3151.0,4095.0,4095.0,3140.0,3110.0,-0.18,9.52,3.19,-0.06,0.03,-0.04,1.0,v
2871.0,2933.0,2970.0,3154.0,4095.0,4095.0,3131.0,3093.0,-0.28,9.53,3.25,-0.03,0.02,-0.05,1.0,v
2883.0,2925.0,2967.0,3170.0,4095.0,4095.0,3139.0,3119.0,-0.15,9.59,3.28,-0.06,-0.04,-0.05,1.0,v
2871.0,2928.0,2976.0,3152.0,4095.0,4095.0,3141.0,3121.0,-0.41,9.56,3.22,-0.03,-0.01,-0.03,1.0,v
2878.0,2930.0,2970.0,3159.0,4095.0,4095.0,3135.0,3118.0,-0.14,9.62,3.21,-0.06,-0.03,-0.03,1.0,v
2866.0,2939.0,2960.0,3159.0,4095.0,4095.0,3145.0,3110.0,-0.29,9.55,3.27,-0.08,0.02,-0.03,1.0,v
2873.0,2932.0,2976.0,3157.0,4095.0,4095.0,3150.0,3113.0,-0.16,9.61,3.23,-0.06,0.05,-0.01,1.0,v
2864.0,2928.0,2978.0,3172.0,4095.0,4095.0,3145.0,3120.0,-0.23,9.66,2.98,-0.07,0.04,0.0,1.0,v
2867.0,2928.0,2976.0,3177.0,4095.0,4095.0,3137.0,3129.0,-0.19,9.59,3.21,-0.05,-0.0,-0.03,1.0,v
