hall_1,hall_2,hall_3,flex_t,flex_i,flex_m,flex_r,flex_p,accel_x,accel_y,accel_z,gyro_x,gyro_y,gyro_z,hand,sign
2960.0,2979.0,3071.0,3382.0,4095.0,4095.0,3114.0,3101.0,-1.29,8.49,6.91,-0.4,0.62,0.53,0.0,v
2967.0,2981.0,3085.0,3377.0,4095.0,4095.0,3049.0,3055.0,-0.94,8.89,7.06,-0.29,0.51,0.03,0.0,v
2960.0,2975.0,3087.0,3386.0,4095.0,4095.0,3056.0,3066.0,-0.73,9.26,7.4,-0.43,-0.03,-0.16,0.0,v
2965.0,2977.0,3085.0,3399.0,4095.0,4095.0,3070.0,3091.0,-1.52,9.01,8.18,-0.41,0.36,-0.29,0.0,v
2969.0,2983.0,3071.0,3410.0,4095.0,4095.0,3059.0,3102.0,-2.18,9.23,8.62,-0.16,-0.26,-0.23,0.0,v
2959.0,2974.0,3071.0,3404.0,4095.0,4095.0,3055.0,3104.0,-1.38,9.62,8.16,-0.04,0.03,-0.16,0.0,v
2957.0,2986.0,3071.0,3376.0,4095.0,4095.0,3018.0,3069.0,-2.15,9.3,8.13,0.06,-0.08,-0.27,0.0,v
2945.0,2977.0,3054.0,3221.0,4095.0,4095.0,2956.0,2946.0,-2.23,9.24,7.73,0.11,-0.13,-0.49,0.0,v
2951.0,2978.0,3045.0,3318.0,4095.0,4095.0,3019.0,3027.0,-2.08,9.24,7.67,0.05,-0.36,-0.25,0.0,v
2957.0,2987.0,3039.0,3350.0,4095.0,4095.0,3055.0,3071.0,-1.26,9.29,7.49,0.05,-0.29,-0.45,0.0,v
2957.0,2978.0,3048.0,3373.0,4095.0,4095.0,3031.0,3060.0,-1.45,8.88,8.02,0.22,-0.6,-0.64,0.0,v
2976.0,2977.0,3055.0,3379.0,4095.0,4095.0,3052.0,3095.0,-2.47,8.76,8.27,0.13,-0.23,-0.77,0.0,v
2972.0,2971.0,3042.0,3376.0,4095.0,4095.0,3053.0,3101.0,-3.01,8.58,8.27,0.39,0.02,-0.42,0.0,v
2979.0,2983.0,3056.0,3387.0,4095.0,4095.0,3052.0,3098.0,-2.36,8.74,7.51,0.26,-0.73,-0.5,0.0,v
2978.0,2992.0,3046.0,3389.0,4095.0,4095.0,3053.0,3101.0,-2.7,8.69,7.8,0.36,-0.73,-0.54,0.0,v
2987.0,2985.0,3042.0,3390.0,4095.0,4095.0,3056.0,3105.0,-2.85,8.67,7.74,0.14,-0.58,-0.58,0.0,v
2992.0,2985.0,3055.0,3386.0,4095.0,4095.0,3057.0,3109.0,-2.87,8.57,8.0,0.29,-0.82,-0.62,0.0,v
2965.0,2986.0,3041.0,3387.0,4095.0,4095.0,3056.0,3113.0,-2.96,8.24,8.26,0.21,-0.64,-0.58,0.0,v
2986.0,2993.0,3056.0,3392.0,4095.0,4095.0,3063.0,3111.0,-2.87,8.74,7.58,0.23,-0.82,-0.65,0.0,v
2991.0,2992.0,3058.0,3393.0,4095.0,4095.0,3062.0,3110.0,-3.83,7.73,8.36,0.08,-0.46,-0.58,0.0,v
2986.0,2971.0,3061.0,3382.0,4095.0,4095.0,3071.0,3115.0,-3.45,8.24,7.93,0.08,-0.71,-0.61,0.0,v
2975.0,2987.0,3056.0,3379.0,4095.0,4095.0,3071.0,3119.0,-3.94,7.74,8.63,0.06,-0.46,-0.43,0.0,v
2978.0,2970.0,3056.0,3376.0,4095.0,4095.0,3082.0,3121.0,-3.54,8.02,8.0,0.02,-0.44,-0.42,0.0,v
2977.0,2977.0,3062.0,3387.0,4095.0,4095.0,3079.0,3123.0,-3.52,7.91,8.43,0.04,-0.33,-0.47,0.0,v
2987.0,2974.0,3069.0,3381.0,4095.0,4095.0,3067.0,3114.0,-3.58,7.97,8.12,-0.09,-0.23,-0.55,0.0,v
2986.0,2989.0,3066.0,3384.0,4095.0,4095.0,3059.0,3104.0,-3.52,7.58,8.79,0.04,-0.46,-0.69,0.0,v
2986.0,2968.0,3060.0,3381.0,4095.0,4095.0,3088.0,3133.0,-2.95,7.92,8.0,-0.4,-0.11,-0.66,0.0,v
2993.0,2973.0,3062.0,3383.0,4095.0,4095.0,3066.0,3121.0,-3.79,7.24,9.6,-0.14,-0.16,-0.62,0.0,v
2989.0,2978.0,3062.0,3386.0,4095.0,4095.0,3071.0,3120.0,-4.76,7.46,8.85,-0.16,-0.12,-0.53,0.0,v
2988.0,2977.0,3056.0,3391.0,4095.0,4095.0,3058.0,3099.0,-5.97,7.44,9.26,0.21,-0.29,-0.46,0.0,v
2992.0,2983.0,3070.0,3391.0,4095.0,4095.0,3041.0,3086.0,-4.95,7.21,9.38,0.03,-0.35,-0.28,0.0,v
2992.0,2978.0,3057.0,3387.0,4095.0,4095.0,3034.0,3080.0,-5.0,7.66,8.69,0.08,-0.07,0.2,0.0,v
2978.0,2971.0,3038.0,3382.0,4095.0,4095.0,3031.0,3095.0,-4.84,7.36,9.01,0.24,0.08,0.26,0.0,v
2991.0,2989.0,3037.0,3394.0,4095.0,4095.0,3043.0,3102.0,-3.92,7.94,8.41,-0.07,0.2,0.38,0.0,v
2985.0,2991.0,3054.0,3397.0,4095.0,4095.0,3051.0,3105.0,-4.35,7.62,8.91,0.11,0.17,0.28,0.0,v
2984.0,2971.0,3046.0,3395.0,4095.0,4095.0,3055.0,3105.0,-3.66,7.72,8.53,-0.18,0.45,0.35,0.0,v
2992.0,2974.0,3054.0,3405.0,4095.0,4095.0,3055.0,3100.0,-3.71,7.57,9.0,-0.04,0.21,0.25,0.0,v
2981.0,2973.0,3045.0,3399.0,4095.0,4095.0,3059.0,3109.0,-3.18,7.86,8.81,-0.17,0.42,0.3,0.0,v
2990.0,2982.0,3043.0,3401.0,4095.0,4095.0,3057.0,3102.0,-3.38,8.12,8.93,0.02,0.34,0.26,0.0,v
2991.0,2983.0,3046.0,3391.0,4095.0,4095.0,3058.0,3103.0,-3.08,8.28,8.82,-0.01,0.38,0.21,0.0,v
2979.0,2977.0,3046.0,3391.0,4095.0,4095.0,3056.0,3090.0,-3.18,8.59,8.37,0.11,0.35,0.2,0.0,v
2987.0,2967.0,3043.0,3389.0,4095.0,4095.0,3065.0,3097.0,-3.54,8.19,8.85,-0.02,0.51,0.39,0.0,v
2987.0,2981.0,3049.0,3392.0,4095.0,4095.0,3057.0,3083.0,-2.43,8.61,8.38,0.02,0.34,0.37,0.0,v
2980.0,2981.0,3056.0,3391.0,4095.0,4095.0,3067.0,3085.0,-2.15,8.18,8.76,0.04,0.37,0.43,0.0,v
2974.0,2978.0,3051.0,3357.0,4095.0,4095.0,3063.0,3071.0,-1.55,8.62,7.99,0.02,0.34,0.27,0.0,v
2985.0,2982.0,3047.0,3335.0,4095.0,4095.0,3087.0,3085.0,-1.71,8.07,8.27,0.12,0.32,0.14,0.0,v
2965.0,2979.0,3044.0,3344.0,4095.0,4095.0,3088.0,3090.0,-1.73,8.14,7.54,-0.21,0.41,0.1,0.0,v
2971.0,2978.0,3035.0,3347.0,4095.0,4095.0,3093.0,3091.0,-1.59,8.32,7.99,-0.15,0.28,0.01,0.0,v
2974.0,2973.0,3038.0,3350.0,4095.0,4095.0,3088.0,3087.0,-1.73,8.38,8.33,-0.42,0.48,0.04,0.0,v
2976.0,2988.0,3038.0,3359.0,4095.0,4095.0,3092.0,3090.0,-2.34,9.01,8.74,-0.18,0.2,-0.04,0.0,v
2981.0,2978.0,3046.0,3351.0,4095.0,4095.0,3091.0,3093.0,-2.1,9.25,8.5,-0.08,0.2,0.06,0.0,v
2988.0,2977.0,3040.0,3362.0,4095.0,4095.0,3089.0,3090.0,-1.39,9.66,8.27,0.0,-0.0,-0.04,0.0,v
2970.0,2987.0,3037.0,3356.0,4095.0,4095.0,3095.0,3098.0,-1.57,9.28,8.49,0.11,-0.0,-0.13,0.0,v
2986.0,2971.0,3045.0,3353.0,4095.0,4095.0,3090.0,3095.0,-1.24,9.1,7.97,0.11,-0.13,-0.31,0.0,v
2970.0,2987.0,3041.0,3364.0,4095.0,4095.0,3095.0,3095.0,-1.72,9.06,7.89,0.14,0.02,-0.38,0.0,v
2975.0,2992.0,3042.0,3359.0,4095.0,4095.0,3093.0,3094.0,-2.01,9.15,7.58,0.02,-0.31,-0.64,0.0,v
2974.0,2972.0,3031.0,3355.0,4095.0,4095.0,3099.0,3105.0,-2.52,8.95,7.86,0.05,-0.4,-0.49,0.0,v
2974.0,2975.0,3030.0,3357.0,4095.0,4095.0,3103.0,3103.0,-1.96,8.69,8.33,-0.08,-0.49,-0.51,0.0,v
2987.0,2975.0,3043.0,3363.0,4095.0,4095.0,3107.0,3109.0,-3.18,8.3,9.0,0.01,-0.35,-0.52,0.0,v
2966.0,2983.0,3042.0,3361.0,4095.0,4095.0,3109.0,3110.0,-2.89,8.23,9.18,0.05,-0.45,-0.46,0.0,v
2989.0,2983.0,3026.0,3363.0,4095.0,4095.0,3099.0,3109.0,-2.69,8.51,8.62,0.09,-0.1,-0.35,0.0,v
2971.0,2981.0,3043.0,3366.0,4095.0,4095.0,3095.0,3107.0,-3.06,8.43,8.64,0.03,-0.18,-0.39,0.0,v
2977.0,2989.0,3031.0,3371.0,4095.0,4095.0,3094.0,3115.0,-2.56,8.41,8.76,0.06,-0.43,-0.47,0.0,v
2977.0,2987.0,3038.0,3367.0,4095.0,4095.0,3105.0,3120.0,-3.13,8.17,9.25,0.07,-0.14,-0.45,0.0,v
2977.0,2983.0,3026.0,3365.0,4095.0,4095.0,3105.0,3120.0,-2.81,8.08,9.01,0.16,-0.21,-0.39,0.0,v
2981.0,2976.0,3039.0,3363.0,4095.0,4095.0,3107.0,3121.0,-2.88,8.41,8.7,0.24,-0.34,-0.43,0.0,v
2981.0,2986.0,3030.0,3373.0,4095.0,4095.0,3107.0,3123.0,-3.23,8.27,8.85,0.31,-0.17,-0.44,0.0,v
2986.0,2991.0,3037.0,3376.0,4095.0,4095.0,3109.0,3122.0,-3.16,8.14,9.08,0.37,-0.2,-0.45,0.0,v
2979.0,2971.0,3030.0,3369.0,4095.0,4095.0,3111.0,3127.0,-3.44,8.15,8.72,0.43,-0.13,-0.38,0.0,v
2982.0,2990.0,3039.0,3365.0,4095.0,4095.0,3119.0,3133.0,-3.88,8.14,8.52,0.48,-0.11,-0.36,0.0,v
2981.0,2983.0,3027.0,3375.0,4095.0,4095.0,3113.0,3133.0,-4.02,8.39,7.68,0.47,-0.12,-0.26,0.0,v
2987.0,2991.0,3037.0,3374.0,4095.0,4095.0,3115.0,3133.0,-4.18,8.22,7.65,0.46,-0.48,-0.23,0.0,v
2990.0,2991.0,3027.0,3369.0,4095.0,4095.0,3113.0,3131.0,-3.19,8.35,6.94,0.36,-0.5,-0.26,0.0,v
2979.0,2987.0,3041.0,3371.0,4095.0,4095.0,3115.0,3135.0,-4.07,8.33,7.2,0.11,-0.55,-0.22,0.0,v
2987.0,2986.0,3025.0,3374.0,4095.0,4095.0,3120.0,3143.0,-1.19,8.53,7.46,0.2,-1.84,-0.53,0.0,v
2980.0,2973.0,3039.0,3367.0,4095.0,4095.0,3119.0,3151.0,-3.78,8.48,7.6,0.0,0.16,-0.08,0.0,v
2993.0,2992.0,3024.0,3376.0,4095.0,4095.0,3116.0,3152.0,-3.83,8.11,8.32,0.03,-1.4,-0.3,0.0,v
2989.0,2986.0,3038.0,3381.0,4095.0,4095.0,3123.0,3157.0,-2.71,8.58,8.34,0.09,-1.15,-0.31,0.0,v
2977.0,2981.0,3034.0,3376.0,4095.0,4095.0,3125.0,3162.0,-2.14,8.45,8.57,0.1,-0.93,-0.26,0.0,v
2981.0,2982.0,3035.0,3375.0,4095.0,4095.0,3118.0,3157.0,-2.51,8.66,8.3,-0.03,-0.47,-0.24,0.0,v
2992.0,2989.0,3027.0,3382.0,4095.0,4095.0,3114.0,3154.0,-2.53,8.29,9.31,0.05,-0.6,-0.2,0.0,v
2979.0,2987.0,3037.0,3381.0,4095.0,4095.0,3115.0,3158.0,-1.83,8.48,8.94,0.16,-1.04,-0.34,0.0,v
2983.0,2976.0,3043.0,3377.0,4095.0,4095.0,3119.0,3167.0,-2.37,8.6,8.82,0.16,-1.02,-0.38,0.0,v
2989.0,2982.0,3025.0,3376.0,4095.0,4095.0,3114.0,3166.0,-1.7,8.79,8.63,0.2,-0.86,-0.43,0.0,v
2983.0,2981.0,3037.0,3377.0,4095.0,4095.0,3119.0,3170.0,-2.1,8.74,8.72,0.14,-0.16,-0.29,0.0,v
2975.0,2983.0,3027.0,3377.0,4095.0,4095.0,3117.0,3173.0,-2.38,8.56,8.78,0.13,0.02,-0.25,0.0,v
2992.0,2994.0,3034.0,3383.0,4095.0,4095.0,3098.0,3163.0,-1.76,8.34,8.76,0.06,-1.22,-0.31,0.0,v
2992.0,2987.0,3043.0,3374.0,4095.0,4095.0,3091.0,3162.0,-1.93,8.29,8.58,0.22,-1.1,-0.36,0.0,v
2994.0,2983.0,3033.0,3376.0,4095.0,4095.0,3092.0,3167.0,-1.38,8.42,8.57,0.21,-0.63,-0.35,0.0,v
2984.0,2990.0,3035.0,3387.0,4095.0,4095.0,3098.0,3161.0,-2.24,8.67,8.55,0.08,-0.6,-0.26,0.0,v
2991.0,2989.0,3035.0,3398.0,4095.0,4095.0,3091.0,3163.0,-0.95,8.56,9.1,0.06,-1.64,-0.38,0.0,v
2986.0,2985.0,3040.0,3397.0,4095.0,4095.0,3099.0,3179.0,-1.58,8.81,9.08,0.02,-0.91,-0.33,0.0,v
2986.0,2977.0,3030.0,3395.0,4095.0,4095.0,3103.0,3181.0,-0.62,8.56,9.18,0.09,-0.71,-0.32,0.0,v
2990.0,2983.0,3041.0,3401.0,4095.0,4095.0,3099.0,3177.0,-1.0,8.6,8.95,0.04,-0.77,-0.29,0.0,v
2987.0,2975.0,3034.0,3405.0,4095.0,4095.0,3101.0,3181.0,-0.62,8.67,8.94,0.05,-0.92,-0.37,0.0,v
2991.0,2993.0,3035.0,3406.0,4095.0,4095.0,3101.0,3178.0,-0.59,8.75,9.11,0.08,-0.31,-0.24,0.0,v
2975.0,2985.0,3024.0,3404.0,4095.0,4095.0,3107.0,3177.0,-0.54,8.73,9.09,0.13,0.84,-0.03,0.0,v
2987.0,2975.0,3031.0,3403.0,4095.0,4095.0,3106.0,3174.0,-1.04,8.78,8.65,0.13,1.04,0.05,0.0,v
2982.0,2982.0,3025.0,3381.0,4095.0,4095.0,3114.0,3159.0,0.08,8.63,8.43,0.26,1.15,-0.23,0.0,v
2977.0,2979.0,3029.0,3381.0,4095.0,4095.0,3117.0,3177.0,-2.22,8.92,8.37,-0.12,1.41,0.0,0.0,v
2974.0,2986.0,3019.0,3383.0,4095.0,4095.0,3109.0,3180.0,-1.48,8.59,8.52,-0.17,0.94,-0.12,0.0,v
2989.0,2991.0,3029.0,3394.0,4095.0,4095.0,3109.0,3183.0,-2.32,8.62,8.52,-0.26,1.47,0.06,0.0,v
2983.0,2974.0,3029.0,3401.0,4095.0,4095.0,3111.0,3184.0,-2.43,8.69,8.42,-0.1,1.55,0.2,0.0,v
2973.0,2973.0,3037.0,3403.0,4095.0,4095.0,3116.0,3179.0,-2.34,8.65,8.42,-0.09,0.92,0.13,0.0,v
2985.0,2986.0,3034.0,3404.0,4095.0,4095.0,3120.0,3179.0,-2.45,8.71,7.97,-0.1,1.48,0.01,0.0,v
2971.0,2979.0,3041.0,3399.0,4095.0,4095.0,3121.0,3183.0,-2.17,8.51,8.63,-0.14,1.02,0.02,0.0,v
2982.0,2979.0,3035.0,3399.0,4095.0,4095.0,3125.0,3177.0,-3.42,8.81,7.78,-0.16,1.93,0.19,0.0,v
2970.0,2975.0,3038.0,3402.0,4095.0,4095.0,3127.0,3182.0,-3.64,8.43,8.01,0.04,1.08,0.14,0.0,v
2975.0,2981.0,3035.0,3392.0,4095.0,4095.0,3135.0,3177.0,-2.44,9.0,7.02,-0.06,1.09,0.08,0.0,v
2970.0,2992.0,3033.0,3402.0,4095.0,4095.0,3135.0,3175.0,-3.71,8.53,7.75,-0.12,0.9,0.15,0.0,v
2977.0,2981.0,3027.0,3373.0,4095.0,4095.0,3143.0,3179.0,-3.36,8.94,7.11,-0.17,1.13,0.15,0.0,v
2979.0,2985.0,3040.0,3370.0,4095.0,4095.0,3147.0,3213.0,-2.88,8.69,7.78,-0.02,0.76,0.18,0.0,v
2993.0,2986.0,3044.0,3367.0,4095.0,4095.0,3151.0,3211.0,-3.49,9.05,6.79,-0.08,0.66,0.13,0.0,v
2985.0,2980.0,3042.0,3375.0,4095.0,4095.0,3158.0,3217.0,-2.95,8.82,7.07,-0.01,0.27,0.08,0.0,v
2983.0,2992.0,3047.0,3408.0,4095.0,4095.0,3122.0,3197.0,-2.71,8.79,7.01,-0.21,0.85,0.17,0.0,v
2975.0,2971.0,3041.0,3408.0,4095.0,4095.0,3119.0,3200.0,-2.73,8.9,6.88,-0.14,0.74,0.04,0.0,v
2960.0,2976.0,3058.0,3415.0,4095.0,4095.0,3116.0,3215.0,-3.16,8.32,7.56,-0.21,1.0,-0.07,0.0,v
2960.0,2973.0,3055.0,3415.0,4095.0,4095.0,3113.0,3190.0,-3.48,8.97,6.8,-0.08,0.71,-0.02,0.0,v
2969.0,2992.0,3053.0,3421.0,4095.0,4095.0,3089.0,3159.0,-4.5,8.5,7.18,-0.18,0.72,0.07,0.0,v
2970.0,2983.0,3061.0,3421.0,4095.0,4095.0,3098.0,3173.0,-4.36,8.44,7.31,-0.15,0.57,0.46,0.0,v
2961.0,2985.0,3071.0,3403.0,4095.0,4095.0,3121.0,3184.0,-2.79,8.94,6.44,-0.13,0.6,0.67,0.0,v
2971.0,2991.0,3063.0,3389.0,4095.0,4095.0,3155.0,3223.0,-1.42,8.96,6.82,-0.33,0.34,0.5,0.0,v
2987.0,2990.0,3091.0,3386.0,4095.0,4095.0,3202.0,3303.0,-1.49,8.94,7.59,-0.55,0.52,0.18,0.0,v
2983.0,2975.0,3094.0,3374.0,4095.0,4095.0,3214.0,3335.0,-2.06,8.43,8.06,-0.09,0.38,0.21,0.0,v
2980.0,2976.0,3107.0,3361.0,4095.0,4095.0,3228.0,3356.0,-0.83,8.88,6.66,-0.32,0.31,0.11,0.0,v
2995.0,2987.0,3106.0,3371.0,4095.0,4095.0,3231.0,3359.0,-1.47,8.89,6.76,-0.09,0.29,-0.13,0.0,v
3006.0,2986.0,3117.0,3354.0,4095.0,4095.0,3237.0,3375.0,-2.21,9.13,6.54,-0.37,0.39,-0.25,0.0,v
2992.0,2974.0,3111.0,3346.0,4095.0,4095.0,3237.0,3376.0,-2.82,8.68,7.4,-0.36,0.48,0.07,0.0,v
2994.0,2987.0,3114.0,3344.0,4095.0,4095.0,3235.0,3367.0,-2.58,8.74,7.27,-0.58,0.34,0.03,0.0,v
3009.0,2978.0,3111.0,3348.0,4095.0,4095.0,3242.0,3371.0,-1.98,8.89,7.97,-0.5,0.52,0.14,0.0,v
2993.0,2983.0,3115.0,3331.0,4095.0,4095.0,3248.0,3371.0,-1.56,8.81,8.25,-0.59,0.45,0.13,0.0,v
3006.0,2977.0,3119.0,3319.0,4095.0,4095.0,3264.0,3359.0,-1.69,8.68,9.26,-0.38,0.9,0.48,0.0,v
3003.0,2992.0,3120.0,3314.0,4095.0,4095.0,3282.0,3376.0,-1.46,9.19,9.05,-0.35,0.68,0.08,0.0,v
3009.0,2981.0,3127.0,3329.0,4095.0,4095.0,3285.0,3379.0,-1.88,9.21,9.38,-0.06,-0.01,-0.3,0.0,v
3015.0,2983.0,3111.0,3337.0,4095.0,4095.0,3291.0,3387.0,-2.01,9.28,8.83,-0.13,0.3,0.03,0.0,v
2997.0,2972.0,3114.0,3326.0,4095.0,4095.0,3285.0,3376.0,-1.92,9.61,8.49,0.2,0.13,0.07,0.0,v
2994.0,2980.0,3123.0,3328.0,4095.0,4095.0,3286.0,3383.0,-1.6,9.2,8.27,0.16,0.04,0.02,0.0,v
2991.0,2990.0,3118.0,3328.0,4095.0,4095.0,3289.0,3390.0,-1.62,9.39,8.03,0.21,0.13,0.02,0.0,v
3013.0,2982.0,3123.0,3336.0,4095.0,4095.0,3293.0,3382.0,-1.42,9.06,8.19,0.23,-0.01,-0.05,0.0,v
2999.0,2985.0,3120.0,3336.0,4095.0,4095.0,3283.0,3379.0,-1.46,9.05,7.77,0.31,-0.06,-0.05,0.0,v
3009.0,2987.0,3127.0,3338.0,4095.0,4095.0,3281.0,3383.0,-1.18,9.1,7.49,0.25,-0.07,-0.12,0.0,v
3007.0,2978.0,3127.0,3338.0,4095.0,4095.0,3287.0,3390.0,-1.29,9.55,7.92,0.29,-0.17,-0.2,0.0,v
3013.0,2974.0,3119.0,3336.0,4095.0,4095.0,3280.0,3383.0,-1.01,9.75,7.43,0.38,-0.23,-0.26,0.0,v
3003.0,2964.0,3121.0,3333.0,4095.0,4095.0,3280.0,3387.0,-1.14,9.35,7.11,0.39,-0.28,-0.33,0.0,v
2999.0,2978.0,3121.0,3337.0,4095.0,4095.0,3271.0,3381.0,-1.28,8.93,7.01,0.34,-0.43,-0.32,0.0,v
3009.0,2962.0,3127.0,3344.0,4095.0,4095.0,3279.0,3383.0,-1.29,9.0,6.78,0.35,-0.41,-0.28,0.0,v
2993.0,2974.0,3125.0,3341.0,4095.0,4095.0,3267.0,3377.0,-1.19,8.87,6.71,0.28,-0.49,-0.39,0.0,v
3008.0,2978.0,3120.0,3339.0,4095.0,4095.0,3265.0,3377.0,-2.05,9.09,6.88,0.23,-0.36,-0.32,0.0,v
2996.0,2977.0,3135.0,3343.0,4095.0,4095.0,3264.0,3375.0,-2.17,8.97,6.79,0.15,-0.4,-0.21,0.0,v
3007.0,2973.0,3133.0,3266.0,4095.0,4095.0,3230.0,3333.0,-2.33,9.11,6.49,0.13,0.72,0.34,0.0,v
2999.0,2981.0,3121.0,3279.0,4095.0,4095.0,3259.0,3343.0,-2.04,8.83,7.13,0.07,-0.31,0.34,0.0,v
3007.0,2981.0,3125.0,3280.0,4095.0,4095.0,3280.0,3365.0,0.15,9.34,6.46,-0.03,-0.73,-0.08,0.0,v
2999.0,2983.0,3139.0,3302.0,4095.0,4095.0,3284.0,3370.0,-0.68,9.55,6.56,-0.07,-0.53,-0.39,0.0,v
3011.0,2986.0,3136.0,3301.0,4095.0,4095.0,3289.0,3382.0,-0.77,9.26,7.01,-0.1,-0.63,-0.48,0.0,v
2997.0,2988.0,3143.0,3306.0,4095.0,4095.0,3279.0,3376.0,-1.86,9.49,7.37,-0.05,-0.64,-0.3,0.0,v
3002.0,2985.0,3133.0,3309.0,4095.0,4095.0,3283.0,3376.0,-0.97,9.13,7.27,0.06,-0.77,-0.22,0.0,v
2991.0,2971.0,3134.0,3303.0,4095.0,4095.0,3283.0,3376.0,-0.49,9.39,7.22,0.06,-0.85,-0.36,0.0,v
2996.0,2983.0,3137.0,3303.0,4095.0,4095.0,3280.0,3377.0,-1.26,9.52,7.12,0.01,-0.56,-0.46,0.0,v
2989.0,2986.0,3126.0,3305.0,4095.0,4095.0,3285.0,3383.0,-1.21,9.21,7.33,0.01,-0.88,-0.58,0.0,v
2994.0,2986.0,3129.0,3267.0,4095.0,4095.0,3276.0,3361.0,-1.46,9.04,7.59,-0.18,-0.25,-0.39,0.0,v
3006.0,2979.0,3140.0,3251.0,4095.0,4095.0,3283.0,3357.0,-2.09,8.94,7.93,-0.11,0.35,-0.05,0.0,v
2990.0,2987.0,3139.0,3253.0,4095.0,4095.0,3287.0,3371.0,-2.24,9.27,7.64,0.07,-0.37,-0.32,0.0,v
3001.0,2979.0,3135.0,3250.0,4095.0,4095.0,3293.0,3370.0,-2.39,9.11,7.48,0.0,0.11,-0.27,0.0,v
2994.0,2992.0,3137.0,3261.0,4095.0,4095.0,3282.0,3354.0,-2.49,9.27,7.4,-0.02,0.04,-0.2,0.0,v
2996.0,2977.0,3142.0,3260.0,4095.0,4095.0,3289.0,3367.0,-1.54,9.17,7.75,0.03,-0.06,-0.21,0.0,v
3006.0,2992.0,3133.0,3265.0,4095.0,4095.0,3297.0,3373.0,-1.56,9.17,7.65,-0.08,0.16,-0.2,0.0,v
3003.0,2981.0,3136.0,3263.0,4095.0,4095.0,3287.0,3370.0,-1.29,8.95,7.77,0.04,-0.02,-0.24,0.0,v
3006.0,2991.0,3140.0,3275.0,4095.0,4095.0,3294.0,3369.0,-1.35,9.08,7.44,-0.01,0.04,-0.24,0.0,v
2992.0,2985.0,3136.0,3277.0,4095.0,4095.0,3290.0,3366.0,-1.87,9.19,7.35,0.07,0.02,-0.22,0.0,v
3007.0,2973.0,3127.0,3269.0,4095.0,4095.0,3297.0,3375.0,-0.74,9.18,7.22,-0.02,-0.17,-0.33,0.0,v
2992.0,2990.0,3134.0,3265.0,4095.0,4095.0,3295.0,3367.0,-0.86,9.32,7.1,-0.06,-0.16,-0.44,0.0,v
2986.0,2983.0,3142.0,3275.0,4095.0,4095.0,3300.0,3361.0,-1.8,9.53,7.55,-0.05,-0.24,-0.53,0.0,v
2999.0,2983.0,3141.0,3267.0,4095.0,4095.0,3298.0,3365.0,-2.12,9.59,7.7,0.04,-0.7,-0.53,0.0,v
2993.0,2983.0,3123.0,3252.0,4095.0,4095.0,3303.0,3376.0,-2.23,9.58,7.68,0.06,-0.22,-0.48,0.0,v
3005.0,2983.0,3141.0,3254.0,4095.0,4095.0,3309.0,3375.0,-2.22,9.42,7.66,0.03,-0.42,-0.29,0.0,v
3013.0,2992.0,3141.0,3248.0,4095.0,4095.0,3311.0,3379.0,-2.13,9.18,8.1,-0.03,-0.11,-0.15,0.0,v
2998.0,2976.0,3137.0,3217.0,4095.0,4095.0,3322.0,3387.0,-1.62,9.1,7.62,-0.05,-0.31,-0.08,0.0,v
3007.0,2981.0,3146.0,3136.0,4095.0,4095.0,3344.0,3377.0,-1.68,9.26,7.5,0.13,-0.4,-0.35,0.0,v
3007.0,2990.0,3141.0,3137.0,4095.0,4095.0,3312.0,3379.0,-3.23,8.85,7.59,0.37,0.07,-0.32,0.0,v
3021.0,2977.0,3145.0,3138.0,4095.0,4095.0,3349.0,3405.0,-2.04,9.19,7.03,0.04,-0.37,-0.43,0.0,v
3021.0,2981.0,3137.0,3171.0,4095.0,4095.0,3347.0,3403.0,-1.62,8.78,7.27,0.07,-0.35,-0.51,0.0,v
3024.0,2992.0,3129.0,3216.0,4095.0,4095.0,3301.0,3376.0,-2.78,8.18,8.06,-0.22,-0.49,-0.69,0.0,v
3029.0,2990.0,3121.0,3234.0,4095.0,4095.0,3311.0,3378.0,-3.08,8.54,8.07,-0.09,-0.56,-0.47,0.0,v
3013.0,2983.0,3106.0,3233.0,4095.0,4095.0,3306.0,3394.0,-3.28,8.44,8.26,0.16,-0.2,-0.34,0.0,v
3026.0,2982.0,3128.0,3235.0,4095.0,4095.0,3311.0,3403.0,-3.26,8.77,7.78,0.29,-0.24,-0.33,0.0,v
3029.0,2976.0,3125.0,3231.0,4095.0,4095.0,3315.0,3410.0,-2.53,8.76,7.51,0.07,-0.49,-0.39,0.0,v
3029.0,2995.0,3120.0,3237.0,4095.0,4095.0,3302.0,3400.0,-2.83,8.85,7.66,0.07,-0.06,-0.31,0.0,v
3021.0,2989.0,3130.0,3225.0,4095.0,4095.0,3280.0,3389.0,-3.42,8.6,8.28,0.08,-0.1,-0.3,0.0,v
3024.0,2991.0,3123.0,3197.0,4095.0,4095.0,3275.0,3382.0,-3.42,8.75,7.99,0.07,-0.17,-0.22,0.0,v
3024.0,2992.0,3120.0,3197.0,4095.0,4095.0,3269.0,3378.0,-3.06,8.78,7.84,0.13,0.1,-0.14,0.0,v
3020.0,2986.0,3122.0,3197.0,4095.0,4095.0,3278.0,3381.0,-2.71,8.72,7.48,0.12,0.04,-0.21,0.0,v
3023.0,2982.0,3130.0,3200.0,4095.0,4095.0,3286.0,3387.0,-3.1,8.77,7.4,0.06,0.06,-0.21,0.0,v
3024.0,2988.0,3129.0,3214.0,4095.0,4095.0,3280.0,3392.0,-3.12,8.63,7.41,-0.02,0.06,-0.14,0.0,v
3023.0,2989.0,3125.0,3179.0,4095.0,4095.0,3263.0,3397.0,-2.69,8.8,7.27,0.09,0.05,-0.17,0.0,v
3021.0,2991.0,3131.0,3152.0,4095.0,4095.0,3167.0,3322.0,-2.82,8.65,7.3,0.09,0.56,-0.23,0.0,v
3015.0,2975.0,3120.0,3143.0,4095.0,4095.0,3186.0,3343.0,-3.17,8.39,7.62,-0.06,-0.19,-0.2,0.0,v
3022.0,2975.0,3120.0,3147.0,4095.0,4095.0,3210.0,3349.0,-3.07,8.17,7.78,0.04,0.05,-0.17,0.0,v
3030.0,2991.0,3120.0,3159.0,4095.0,4095.0,3207.0,3354.0,-3.35,8.62,7.46,0.07,-0.17,-0.13,0.0,v
3022.0,2992.0,3120.0,3167.0,4095.0,4095.0,3225.0,3362.0,-3.06,8.59,7.46,-0.02,-0.14,-0.09,0.0,v
3018.0,2985.0,3119.0,3173.0,4095.0,4095.0,3219.0,3364.0,-3.07,8.52,7.55,0.08,-0.08,-0.12,0.0,v
3023.0,2976.0,3126.0,3187.0,4095.0,4095.0,3204.0,3354.0,-3.3,8.42,7.79,0.12,0.17,-0.14,0.0,v
3019.0,2989.0,3126.0,3199.0,4095.0,4095.0,3204.0,3358.0,-2.38,8.85,7.16,-0.14,-0.09,-0.14,0.0,v
3027.0,2981.0,3127.0,3205.0,4095.0,4095.0,3204.0,3348.0,-2.16,8.82,7.46,-0.25,-0.09,-0.38,0.0,v
3026.0,2975.0,3142.0,3207.0,4095.0,4095.0,3206.0,3350.0,-3.42,8.76,7.97,-0.13,-0.15,-0.36,0.0,v
3025.0,2988.0,3136.0,3207.0,4095.0,4095.0,3217.0,3365.0,-3.28,8.68,8.08,-0.03,-0.31,-0.36,0.0,v
3015.0,2993.0,3127.0,3215.0,4095.0,4095.0,3216.0,3369.0,-3.74,8.71,8.06,0.06,-0.27,-0.21,0.0,v
3024.0,2992.0,3137.0,3211.0,4095.0,4095.0,3221.0,3379.0,-3.16,8.53,7.75,0.05,-0.25,-0.2,0.0,v
3019.0,2978.0,3133.0,3203.0,4095.0,4095.0,3223.0,3377.0,-3.29,8.3,7.82,0.02,-0.13,-0.2,0.0,v
3005.0,2987.0,3134.0,3216.0,4095.0,4095.0,3198.0,3361.0,-2.41,8.22,7.9,0.13,0.05,-0.31,0.0,v
3009.0,2974.0,3125.0,3248.0,4095.0,4095.0,3166.0,3327.0,-3.12,7.74,7.12,-0.1,0.04,-0.21,0.0,v
3014.0,2990.0,3120.0,3261.0,4095.0,4095.0,3189.0,3347.0,-2.81,8.01,8.01,-0.35,-0.2,-0.55,0.0,v
3007.0,2986.0,3136.0,3265.0,4095.0,4095.0,3200.0,3351.0,-5.21,8.43,8.88,-0.23,-0.06,-0.27,0.0,v
3008.0,2980.0,3121.0,3262.0,4095.0,4095.0,3193.0,3350.0,-4.29,8.73,8.59,-0.09,-0.1,-0.01,0.0,v
3022.0,2987.0,3133.0,3264.0,4095.0,4095.0,3200.0,3354.0,-3.21,8.75,8.3,-0.0,-0.06,-0.07,0.0,v
3007.0,2989.0,3131.0,3264.0,4095.0,4095.0,3201.0,3356.0,-3.17,8.34,8.38,-0.18,0.04,-0.2,0.0,v
3012.0,2973.0,3133.0,3258.0,4095.0,4095.0,3199.0,3359.0,-3.87,8.16,8.59,-0.04,0.12,-0.16,0.0,v
3019.0,2983.0,3120.0,3263.0,4095.0,4095.0,3149.0,3332.0,-3.73,7.91,8.53,-0.17,0.26,-0.07,0.0,v
3011.0,2988.0,3113.0,3262.0,4095.0,4095.0,3155.0,3331.0,-2.91,7.92,8.17,-0.02,0.18,-0.07,0.0,v
3011.0,2966.0,3120.0,3264.0,4095.0,4095.0,3152.0,3326.0,-2.4,8.02,7.8,-0.34,0.12,-0.3,0.0,v
3015.0,2985.0,3121.0,3273.0,4095.0,4095.0,3151.0,3323.0,-3.22,8.09,8.54,-0.36,-0.02,-0.48,0.0,v
3021.0,2989.0,3127.0,3266.0,4095.0,4095.0,3155.0,3339.0,-4.49,7.86,9.42,-0.37,0.09,-0.34,0.0,v
3005.0,2977.0,3114.0,3267.0,4095.0,4095.0,3169.0,3344.0,-4.87,8.01,9.17,-0.04,0.1,-0.17,0.0,v
3018.0,2990.0,3126.0,3270.0,4095.0,4095.0,3185.0,3349.0,-4.35,8.01,8.71,-0.03,0.15,-0.08,0.0,v
3003.0,2977.0,3119.0,3266.0,4095.0,4095.0,3187.0,3351.0,-4.43,7.92,9.0,-0.01,0.23,0.03,0.0,v
3021.0,2986.0,3129.0,3273.0,4095.0,4095.0,3185.0,3350.0,-3.98,7.77,9.09,-0.0,0.28,0.13,0.0,v
3014.0,2980.0,3117.0,3274.0,4095.0,4095.0,3193.0,3352.0,-3.97,7.99,8.8,0.03,0.22,0.19,0.0,v
2974.0,2980.0,3235.0,3511.0,4095.0,4095.0,2667.0,2940.0,-3.68,8.49,7.19,0.01,0.45,0.13,0.0,v
2979.0,2989.0,3258.0,3508.0,4095.0,4095.0,2672.0,2943.0,-3.11,8.83,6.92,-0.07,0.5,0.22,0.0,v
2975.0,2992.0,3249.0,3504.0,4095.0,4095.0,2682.0,2954.0,-3.1,8.79,7.1,-0.11,0.24,0.08,0.0,v
2963.0,2990.0,3264.0,3505.0,4095.0,4095.0,2688.0,2957.0,-3.08,9.05,6.84,-0.06,0.29,0.03,0.0,v
2966.0,2978.0,3254.0,3502.0,4095.0,4095.0,2691.0,2959.0,-3.32,9.7,7.68,-0.1,0.44,-0.03,0.0,v
2959.0,2983.0,3245.0,3501.0,4095.0,4095.0,2691.0,2960.0,-2.64,9.42,6.4,0.1,0.03,0.18,0.0,v
2963.0,2983.0,3245.0,3488.0,4095.0,4095.0,2688.0,2958.0,-2.19,8.37,6.66,-0.07,0.16,0.11,0.0,v
2960.0,2992.0,3241.0,3499.0,4095.0,4095.0,2699.0,2960.0,-1.23,8.36,6.51,-0.1,-0.06,0.17,0.0,v
2947.0,2989.0,3261.0,3497.0,4095.0,4095.0,2699.0,2959.0,-1.16,9.08,7.28,-0.27,-0.06,-0.12,0.0,v
2962.0,2981.0,3239.0,3487.0,4095.0,4095.0,2702.0,2960.0,-2.16,9.17,7.9,-0.23,0.09,-0.11,0.0,v
2950.0,2981.0,3245.0,3482.0,4095.0,4095.0,2698.0,2960.0,-1.8,9.31,7.54,-0.1,0.07,-0.1,0.0,v
2949.0,2986.0,3230.0,3493.0,4095.0,4095.0,2690.0,2954.0,-1.82,9.26,7.55,-0.14,0.1,-0.32,0.0,v
2951.0,2990.0,3238.0,3479.0,4095.0,4095.0,2694.0,2957.0,-1.67,9.0,7.82,-0.02,-0.1,-0.33,0.0,v
2954.0,2992.0,3238.0,3486.0,4095.0,4095.0,2703.0,2960.0,-1.43,9.21,7.87,0.21,-0.23,-0.32,0.0,v
2945.0,2997.0,3248.0,3453.0,4095.0,4095.0,2713.0,2961.0,-2.86,9.5,7.91,0.11,-0.31,-0.53,0.0,v
2954.0,2983.0,3267.0,3439.0,4095.0,4095.0,2736.0,2941.0,-2.62,8.42,8.32,0.37,-0.28,-0.45,0.0,v
2958.0,2994.0,3293.0,3439.0,4095.0,4095.0,2729.0,2989.0,-2.78,8.44,7.18,0.41,-0.4,-0.39,0.0,v
2960.0,2988.0,3294.0,3428.0,4095.0,4095.0,2736.0,2999.0,-2.5,8.48,6.7,0.41,-0.58,-0.33,0.0,v
2955.0,2989.0,3296.0,3427.0,4095.0,4095.0,2740.0,3003.0,-3.15,8.64,7.41,0.22,-0.5,-0.28,0.0,v
2958.0,2982.0,3284.0,3424.0,4095.0,4095.0,2739.0,2991.0,-3.92,8.75,7.29,0.18,-0.34,-0.06,0.0,v
2958.0,2989.0,3285.0,3374.0,4095.0,4095.0,2752.0,2995.0,-2.48,9.09,6.67,0.06,-0.33,0.27,0.0,v
2939.0,2985.0,3296.0,3376.0,4095.0,4095.0,2758.0,2995.0,-1.59,9.25,7.51,0.02,-0.2,-0.22,0.0,v
2941.0,2998.0,3279.0,3313.0,4095.0,4095.0,2768.0,2999.0,-1.98,9.47,7.21,0.19,-0.43,-0.21,0.0,v
2928.0,2987.0,3283.0,3330.0,4095.0,4095.0,2770.0,3015.0,-1.85,9.35,6.98,0.15,-0.36,-0.32,0.0,v
2943.0,2987.0,3287.0,3349.0,4095.0,4095.0,2775.0,3019.0,-1.84,9.06,6.71,0.12,-0.46,-0.41,0.0,v
2930.0,2987.0,3282.0,3360.0,4095.0,4095.0,2774.0,3024.0,-2.35,8.71,7.24,-0.02,-0.34,-0.42,0.0,v
2941.0,2985.0,3264.0,3273.0,4095.0,4095.0,2762.0,2987.0,-3.39,8.44,7.14,-0.2,-0.13,-0.44,0.0,v
2931.0,2985.0,3267.0,3276.0,4095.0,4095.0,2762.0,3005.0,-2.51,8.65,7.8,-0.29,-0.1,-0.25,0.0,v
2930.0,2985.0,3286.0,3305.0,4095.0,4095.0,2768.0,3019.0,-2.72,8.76,7.97,-0.17,-0.27,-0.47,0.0,v
2928.0,2992.0,3305.0,3314.0,4095.0,4095.0,2779.0,3033.0,-4.11,8.56,8.46,-0.24,0.15,-0.26,0.0,v
2930.0,2989.0,3305.0,3332.0,4095.0,4095.0,2785.0,3039.0,-3.84,8.49,8.32,-0.16,0.22,-0.12,0.0,v
2928.0,2999.0,3314.0,3344.0,4095.0,4095.0,2793.0,3043.0,-3.13,8.62,8.32,-0.07,0.19,0.07,0.0,v
2923.0,2977.0,3302.0,3334.0,4095.0,4095.0,2795.0,3039.0,-2.87,8.54,8.21,0.04,0.16,0.01,0.0,v
2910.0,2971.0,3312.0,3339.0,4095.0,4095.0,2775.0,3041.0,-3.05,8.54,8.12,-0.02,0.24,0.02,0.0,v
2930.0,2981.0,3337.0,3328.0,4095.0,4095.0,2786.0,3036.0,-2.98,8.66,7.94,0.03,0.15,0.05,0.0,v
2927.0,2975.0,3325.0,3341.0,4095.0,4095.0,2790.0,3041.0,-2.75,8.9,7.84,-0.0,0.19,0.01,0.0,v
2923.0,2986.0,3325.0,3355.0,4095.0,4095.0,2790.0,3055.0,-2.41,8.95,7.98,-0.01,0.14,-0.04,0.0,v
2919.0,2990.0,3327.0,3366.0,4095.0,4095.0,2787.0,3056.0,-2.9,8.62,8.03,-0.03,0.3,-0.14,0.0,v
2945.0,2997.0,3342.0,3359.0,4095.0,4095.0,2800.0,3062.0,-3.93,8.78,7.69,0.05,0.48,-0.06,0.0,v
2924.0,2992.0,3333.0,3367.0,4095.0,4095.0,2795.0,3071.0,-2.68,8.68,7.87,-0.06,0.45,0.2,0.0,v
2918.0,2982.0,3344.0,3376.0,4095.0,4095.0,2785.0,3085.0,-3.74,8.24,7.02,-0.06,0.24,0.01,0.0,v
2917.0,2987.0,3343.0,3386.0,4095.0,4095.0,2781.0,3090.0,-1.4,8.46,8.08,-0.3,0.41,0.61,0.0,v
2921.0,2982.0,3328.0,3392.0,4095.0,4095.0,2790.0,3091.0,-0.85,9.11,8.14,-0.12,0.23,0.26,0.0,v
2914.0,2992.0,3327.0,3387.0,4095.0,4095.0,2789.0,3091.0,-1.1,8.95,8.02,0.06,0.08,0.1,0.0,v
2917.0,2993.0,3331.0,3389.0,4095.0,4095.0,2793.0,3067.0,-0.79,9.0,7.4,-0.15,0.09,-0.13,0.0,v
2917.0,2992.0,3335.0,3397.0,4095.0,4095.0,2798.0,3087.0,-1.67,8.87,8.11,-0.26,0.15,0.02,0.0,v
2914.0,2983.0,3331.0,3393.0,4095.0,4095.0,2797.0,3088.0,-1.61,9.8,8.09,-0.19,0.16,-0.06,0.0,v
2886.0,2981.0,3326.0,3378.0,4095.0,4095.0,2789.0,3068.0,-1.02,9.68,7.85,0.19,-0.42,-0.29,0.0,v
2887.0,2975.0,3324.0,3369.0,4095.0,4095.0,2795.0,3071.0,-0.7,9.09,7.81,0.13,-0.16,-0.25,0.0,v
2880.0,2995.0,3329.0,3385.0,4095.0,4095.0,2795.0,3070.0,-0.56,9.15,7.61,0.02,-0.32,-0.31,0.0,v
2875.0,2985.0,3319.0,3383.0,4095.0,4095.0,2800.0,3071.0,-1.63,8.87,8.49,-0.03,-0.28,-0.5,0.0,v
2866.0,2981.0,3322.0,3381.0,4095.0,4095.0,2797.0,3071.0,-1.86,8.43,8.8,0.05,-0.25,-0.47,0.0,v
2863.0,2978.0,3318.0,3394.0,4095.0,4095.0,2786.0,3061.0,-1.2,9.0,8.15,0.04,-0.33,-0.37,0.0,v
2871.0,2994.0,3326.0,3428.0,4095.0,4095.0,2770.0,3041.0,-2.09,8.45,8.33,0.13,-0.4,-0.44,0.0,v
2864.0,2994.0,3321.0,3435.0,4095.0,4095.0,2775.0,3056.0,-2.32,8.52,8.39,0.17,-0.47,-0.37,0.0,v
2845.0,2979.0,3328.0,3431.0,4095.0,4095.0,2785.0,3070.0,-2.39,8.59,8.58,0.01,-0.36,-0.32,0.0,v
2861.0,2991.0,3315.0,3427.0,4095.0,4095.0,2783.0,3071.0,-0.99,8.73,8.26,0.24,-0.92,-0.21,0.0,v
2879.0,2988.0,3325.0,3427.0,4095.0,4095.0,2785.0,3086.0,-2.07,9.2,8.34,-0.03,-0.41,-0.24,0.0,v
2911.0,2977.0,3328.0,3433.0,4095.0,4095.0,2775.0,3088.0,-1.63,8.67,8.64,-0.14,0.03,-0.28,0.0,v
2935.0,2992.0,3337.0,3440.0,4095.0,4095.0,2787.0,3105.0,-1.91,8.59,8.66,-0.16,-0.04,-0.16,0.0,v
2943.0,2993.0,3341.0,3440.0,4095.0,4095.0,2789.0,3094.0,-2.25,8.55,8.46,-0.24,-0.07,-0.24,0.0,v
2954.0,2985.0,3340.0,3426.0,4095.0,4095.0,2766.0,3103.0,-1.68,9.08,8.75,0.22,-0.9,-0.68,0.0,v
2943.0,2982.0,3347.0,3422.0,4095.0,4095.0,2767.0,3120.0,-1.97,9.08,8.54,0.18,-0.18,-0.24,0.0,v
2960.0,2982.0,3357.0,3431.0,4095.0,4095.0,2778.0,3134.0,-1.23,9.37,7.37,-0.01,-0.36,-0.58,0.0,v
2955.0,2981.0,3366.0,3438.0,4095.0,4095.0,2784.0,3137.0,-3.43,7.94,8.8,-0.01,-0.22,-0.84,0.0,v
2939.0,2967.0,3357.0,3420.0,4095.0,4095.0,2781.0,3120.0,-4.35,8.5,8.84,0.11,-0.35,-0.23,0.0,v
2947.0,2989.0,3361.0,3469.0,4095.0,4095.0,2820.0,3142.0,-3.42,8.25,9.22,-0.3,0.61,-0.17,0.0,v
2959.0,2987.0,3376.0,3489.0,4095.0,4095.0,2832.0,3152.0,-3.3,7.63,9.27,-0.14,0.47,-0.19,0.0,v
2960.0,2992.0,3364.0,3398.0,4095.0,4095.0,2831.0,3152.0,-3.68,7.69,9.13,0.07,0.32,-0.14,0.0,v
2932.0,2979.0,3383.0,3415.0,4095.0,4095.0,2830.0,3155.0,-3.64,7.7,8.92,0.09,0.39,-0.03,0.0,v
2928.0,2975.0,3363.0,3413.0,4095.0,4095.0,2823.0,3151.0,-3.3,7.98,8.47,0.15,0.27,0.03,0.0,v
2941.0,2981.0,3363.0,3423.0,4095.0,4095.0,2827.0,3152.0,-3.85,7.93,8.33,-0.01,0.49,0.01,0.0,v
2915.0,2993.0,3355.0,3426.0,4095.0,4095.0,2829.0,3149.0,-3.58,7.74,8.31,-0.07,0.32,0.04,0.0,v
2923.0,2983.0,3366.0,3431.0,4095.0,4095.0,2830.0,3152.0,-3.36,8.01,8.28,-0.02,0.25,0.14,0.0,v
2909.0,2990.0,3360.0,3423.0,4095.0,4095.0,2831.0,3145.0,-2.63,8.61,7.32,0.05,-0.11,0.21,0.0,v
2907.0,2986.0,3351.0,3425.0,4095.0,4095.0,2836.0,3149.0,-3.05,8.71,8.42,-0.09,0.12,-0.03,0.0,v
2903.0,2975.0,3359.0,3422.0,4095.0,4095.0,2833.0,3147.0,-3.06,8.58,8.17,0.02,0.13,0.04,0.0,v
2902.0,2988.0,3354.0,3425.0,4095.0,4095.0,2832.0,3149.0,-3.2,9.0,7.5,-0.19,0.3,0.06,0.0,v
2949.0,2983.0,3321.0,3429.0,4095.0,4095.0,2801.0,3141.0,-2.59,8.24,8.87,-0.19,0.33,0.15,0.0,v
2945.0,2977.0,3330.0,3425.0,4095.0,4095.0,2815.0,3158.0,-2.16,9.51,8.01,0.04,0.31,-0.02,0.0,v
2940.0,2991.0,3337.0,3419.0,4095.0,4095.0,2820.0,3164.0,-3.05,8.58,7.56,0.0,0.12,-0.15,0.0,v
2949.0,2992.0,3340.0,3427.0,4095.0,4095.0,2820.0,3162.0,-2.33,8.74,7.71,-0.21,0.29,-0.04,0.0,v
2946.0,2989.0,3344.0,3435.0,4095.0,4095.0,2821.0,3163.0,-2.88,8.84,8.22,-0.15,0.41,-0.09,0.0,v
2934.0,2992.0,3329.0,3441.0,4095.0,4095.0,2826.0,3169.0,-3.24,9.02,8.22,0.04,0.44,0.02,0.0,v
2929.0,2987.0,3335.0,3444.0,4095.0,4095.0,2829.0,3174.0,-2.02,9.03,7.23,0.13,0.19,-0.06,0.0,v
2944.0,2986.0,3348.0,3449.0,4095.0,4095.0,2827.0,3185.0,-2.64,8.55,7.31,0.18,0.05,-0.2,0.0,v
2923.0,2982.0,3335.0,3453.0,4095.0,4095.0,2830.0,3181.0,-3.51,8.29,7.47,0.18,0.03,-0.11,0.0,v
2928.0,2992.0,3321.0,3455.0,4095.0,4095.0,2832.0,3177.0,-2.88,8.72,7.52,0.13,-0.06,0.18,0.0,v
2943.0,2992.0,3289.0,3451.0,4095.0,4095.0,2795.0,3022.0,-2.09,9.01,6.96,-0.0,0.19,-0.12,0.0,v
2933.0,2982.0,3303.0,3451.0,4095.0,4095.0,2801.0,3091.0,-3.85,8.25,8.09,0.15,-0.22,-0.4,0.0,v
2961.0,2992.0,3311.0,3469.0,4095.0,4095.0,2810.0,3148.0,-2.9,8.87,6.29,0.28,0.29,0.31,0.0,v
2966.0,2992.0,3295.0,3472.0,4095.0,4095.0,2814.0,3161.0,-2.06,9.45,5.63,-0.19,0.31,0.18,0.0,v
2942.0,2992.0,3286.0,3474.0,4095.0,4095.0,2817.0,3178.0,-2.3,9.33,6.91,-0.45,0.27,-0.1,0.0,v
2941.0,2991.0,3293.0,3472.0,4095.0,4095.0,2815.0,3178.0,-1.28,9.44,7.58,-0.05,-0.16,0.03,0.0,v
2923.0,2979.0,3291.0,3551.0,4095.0,4095.0,2829.0,3167.0,-1.56,9.27,6.94,-0.0,-0.13,-0.22,0.0,v
2931.0,2969.0,3282.0,3565.0,4095.0,4095.0,2834.0,3181.0,-2.03,9.03,7.54,-0.1,-0.01,-0.04,0.0,v
2934.0,2978.0,3297.0,3487.0,4095.0,4095.0,2836.0,3199.0,-2.13,9.45,8.03,0.43,-0.21,0.19,0.0,v
2933.0,2979.0,3302.0,3472.0,4095.0,4095.0,2846.0,3202.0,-1.5,9.39,6.15,0.15,0.09,0.11,0.0,v
2925.0,2987.0,3287.0,3471.0,4095.0,4095.0,2843.0,3203.0,-0.96,8.96,6.53,-0.23,-0.04,0.06,0.0,v
2923.0,2983.0,3298.0,3487.0,4095.0,4095.0,2849.0,3216.0,-0.44,8.82,7.6,-0.01,-0.36,0.23,0.0,v
2905.0,2981.0,3295.0,3481.0,4095.0,4095.0,2849.0,3216.0,0.09,10.19,7.21,-0.06,-0.42,-0.07,0.0,v
2917.0,2994.0,3301.0,3477.0,4095.0,4095.0,2847.0,3216.0,-0.78,8.75,7.93,0.0,-0.3,-0.01,0.0,v
2905.0,2993.0,3292.0,3485.0,4095.0,4095.0,2849.0,3216.0,-0.31,8.6,7.67,0.04,-0.11,0.23,0.0,v
2883.0,2992.0,3295.0,3473.0,4095.0,4095.0,2850.0,3200.0,1.3,10.01,7.11,-0.03,-0.15,0.11,0.0,v
2890.0,2979.0,3287.0,3483.0,4095.0,4095.0,2854.0,3205.0,0.56,10.07,7.26,-0.06,-0.13,-0.04,0.0,v
2886.0,2988.0,3281.0,3474.0,4095.0,4095.0,2851.0,3192.0,0.87,9.52,6.95,-0.07,-0.1,-0.22,0.0,v
2896.0,2989.0,3293.0,3504.0,4095.0,4095.0,2850.0,3174.0,1.61,9.5,6.61,0.02,-0.4,-0.29,0.0,v
2901.0,2991.0,3293.0,3515.0,4095.0,4095.0,2849.0,3162.0,0.53,10.0,7.83,-0.26,-0.39,-0.68,0.0,v
2897.0,2979.0,3299.0,3525.0,4095.0,4095.0,2851.0,3166.0,-0.07,9.52,8.65,0.0,-0.34,-0.51,0.0,v
2896.0,2992.0,3302.0,3537.0,4095.0,4095.0,2849.0,3163.0,-1.06,9.91,7.38,0.18,-0.3,-0.59,0.0,v
2899.0,2979.0,3314.0,3542.0,4095.0,4095.0,2851.0,3165.0,-0.79,9.64,8.09,0.01,-0.0,-0.43,0.0,v
2882.0,2987.0,3290.0,3536.0,4095.0,4095.0,2846.0,3170.0,-0.85,9.16,8.03,0.19,0.23,-0.37,0.0,v
2890.0,2974.0,3301.0,3538.0,4095.0,4095.0,2847.0,3174.0,-0.24,9.69,6.75,0.12,0.21,-0.52,0.0,v
2896.0,2990.0,3299.0,3533.0,4095.0,4095.0,2843.0,3175.0,-0.48,9.17,6.57,0.14,-0.16,-0.75,0.0,v
2883.0,2976.0,3291.0,3438.0,4095.0,4095.0,2847.0,3184.0,-2.19,8.15,7.04,0.06,-0.22,-0.66,0.0,v
2884.0,2979.0,3296.0,3543.0,4095.0,4095.0,2848.0,3179.0,-4.02,8.31,5.83,-0.11,-0.42,-0.47,0.0,v
2877.0,2986.0,3280.0,3565.0,4095.0,4095.0,2842.0,3183.0,-2.05,8.43,8.35,-0.24,-0.05,0.16,0.0,v
