hall_1,hall_2,hall_3,flex_t,flex_i,flex_m,flex_r,flex_p,accel_x,accel_y,accel_z,gyro_x,gyro_y,gyro_z,hand,sign
3041.0,3447.0,2970.0,3534.0,3195.0,2159.0,2433.0,2332.0,1.77,9.19,7.65,-0.02,-0.29,-0.3,0.0,x
3038.0,3461.0,2974.0,3538.0,3209.0,2157.0,2446.0,2342.0,2.19,9.7,6.72,0.06,-0.23,-0.46,0.0,x
3042.0,3449.0,2973.0,3526.0,3216.0,2155.0,2445.0,2342.0,1.25,9.27,7.0,-0.01,-0.17,-0.73,0.0,x
3051.0,3451.0,2976.0,3532.0,3230.0,2155.0,2447.0,2342.0,0.41,9.1,6.9,0.2,0.62,-0.66,0.0,x
3030.0,3440.0,2962.0,3536.0,3231.0,2161.0,2445.0,2347.0,-0.6,8.28,6.84,0.14,0.68,-0.56,0.0,x
3040.0,3472.0,2974.0,3547.0,3227.0,2163.0,2446.0,2349.0,-3.09,9.22,8.6,0.05,1.11,-0.68,0.0,x
3043.0,3457.0,2969.0,3561.0,3227.0,2160.0,2449.0,2350.0,-3.3,9.62,6.92,0.08,-0.15,-0.83,0.0,x
3043.0,3447.0,2966.0,3572.0,3259.0,2164.0,2458.0,2355.0,-2.45,9.56,6.43,-0.0,-0.32,-0.07,0.0,x
3037.0,3443.0,2961.0,3547.0,3265.0,2157.0,2454.0,2351.0,-2.83,9.05,6.79,-0.19,-0.57,0.05,0.0,x
3040.0,3451.0,2983.0,3547.0,3185.0,2153.0,2453.0,2361.0,-0.91,10.06,6.88,0.01,-0.51,0.39,0.0,x
3047.0,3447.0,2975.0,3540.0,3255.0,2157.0,2458.0,2362.0,-0.4,9.18,7.03,-0.13,0.12,0.24,0.0,x
3035.0,3456.0,2979.0,3551.0,3293.0,2157.0,2455.0,2365.0,-0.47,9.27,7.72,-0.27,0.39,0.21,0.0,x
3052.0,3452.0,2971.0,3546.0,3288.0,2157.0,2461.0,2369.0,0.04,8.97,7.87,-0.19,0.39,0.05,0.0,x
3039.0,3457.0,2964.0,3537.0,3284.0,2156.0,2454.0,2368.0,-0.2,8.59,7.78,0.14,0.2,0.16,0.0,x
3034.0,3457.0,2974.0,3550.0,3299.0,2166.0,2457.0,2368.0,0.45,9.92,7.13,0.15,0.17,-0.1,0.0,x
3037.0,3437.0,2963.0,3540.0,3295.0,2161.0,2457.0,2366.0,-0.03,9.11,7.13,-0.09,0.09,-0.18,0.0,x
3038.0,3469.0,2988.0,3553.0,3297.0,2158.0,2462.0,2374.0,-0.15,9.63,7.59,-0.09,0.26,-0.21,0.0,x
3038.0,3451.0,2974.0,3557.0,3303.0,2169.0,2463.0,2369.0,-0.47,9.16,7.72,-0.16,-0.15,-0.15,0.0,x
3053.0,3455.0,2970.0,3558.0,3301.0,2179.0,2463.0,2373.0,-0.41,9.35,7.86,-0.02,-0.22,-0.08,0.0,x
3050.0,3455.0,2970.0,3567.0,3297.0,2166.0,2458.0,2370.0,-0.41,9.24,7.68,-0.11,-0.2,-0.17,0.0,x
3044.0,3451.0,2972.0,3557.0,3314.0,2177.0,2463.0,2371.0,0.27,8.85,8.68,-0.03,-0.44,-0.29,0.0,x
3051.0,3465.0,2983.0,3569.0,3319.0,2177.0,2470.0,2384.0,0.28,8.93,8.85,0.04,-0.31,-0.31,0.0,x
3047.0,3440.0,2974.0,3559.0,3322.0,2174.0,2464.0,2375.0,0.32,8.88,8.44,0.12,-0.15,-0.32,0.0,x
3041.0,3452.0,2974.0,3583.0,3344.0,2176.0,2471.0,2375.0,0.26,8.92,8.96,-0.23,-2.25,-0.77,0.0,x
3034.0,3430.0,2969.0,3569.0,3349.0,2176.0,2471.0,2375.0,1.13,8.44,8.91,-0.58,-4.0,-1.26,0.0,x
3035.0,3463.0,2976.0,3600.0,3358.0,2181.0,2479.0,2373.0,2.65,8.09,9.26,-0.29,-1.54,-0.62,0.0,x
3044.0,3436.0,2967.0,3600.0,3359.0,2183.0,2469.0,2365.0,2.59,8.24,9.24,0.29,1.14,-0.01,0.0,x
3047.0,3440.0,2966.0,3618.0,3374.0,2183.0,2475.0,2367.0,1.36,8.87,8.61,0.45,1.94,0.15,0.0,x
3025.0,3435.0,2973.0,3614.0,3372.0,2184.0,2478.0,2365.0,0.49,9.0,8.63,0.06,0.43,-0.23,0.0,x
3055.0,3449.0,2979.0,3623.0,3375.0,2182.0,2478.0,2372.0,1.26,8.82,8.74,0.0,-0.51,-0.64,0.0,x
3037.0,3440.0,2975.0,3632.0,3378.0,2189.0,2479.0,2372.0,0.59,8.7,8.49,0.36,1.31,-0.32,0.0,x
3053.0,3430.0,2966.0,3621.0,3368.0,2181.0,2468.0,2369.0,-0.73,8.96,7.92,0.33,1.37,-0.32,0.0,x
3053.0,3440.0,2970.0,3621.0,3376.0,2191.0,2480.0,2379.0,-1.63,9.1,7.58,0.3,1.5,-0.21,0.0,x
3047.0,3425.0,2978.0,3629.0,3375.0,2186.0,2470.0,2367.0,-2.33,9.2,7.32,0.27,1.21,-0.14,0.0,x
3037.0,3451.0,2978.0,3634.0,3374.0,2190.0,2480.0,2378.0,-2.59,9.28,6.68,0.23,0.9,-0.05,0.0,x
3033.0,3430.0,2964.0,3632.0,3376.0,2191.0,2475.0,2369.0,-2.45,9.45,6.39,0.04,0.24,-0.11,0.0,x
3031.0,3431.0,2972.0,3645.0,3389.0,2192.0,2479.0,2378.0,-2.19,9.27,6.74,-0.05,-0.07,-0.13,0.0,x
3036.0,3426.0,2972.0,3633.0,3390.0,2193.0,2479.0,2366.0,-1.97,9.4,6.66,0.08,0.05,-0.03,0.0,x
3047.0,3440.0,2975.0,3645.0,3391.0,2192.0,2480.0,2383.0,-1.8,9.33,6.56,0.08,0.13,-0.08,0.0,x
3046.0,3423.0,2977.0,3638.0,3380.0,2191.0,2478.0,2373.0,-1.88,9.47,6.43,0.14,0.15,-0.11,0.0,x
3043.0,3429.0,2970.0,3653.0,3390.0,2192.0,2487.0,2381.0,-2.38,9.91,5.95,0.15,0.1,-0.12,0.0,x
3031.0,3423.0,2965.0,3657.0,3390.0,2192.0,2481.0,2371.0,-1.77,10.26,4.52,0.3,0.22,0.02,0.0,x
3043.0,3412.0,2970.0,3664.0,3397.0,2192.0,2483.0,2373.0,-1.31,9.9,4.35,0.09,0.26,-0.0,0.0,x
3039.0,3403.0,2979.0,3658.0,3382.0,2192.0,2483.0,2370.0,-2.27,8.76,4.79,0.25,0.23,0.15,0.0,x
3055.0,3386.0,2976.0,3632.0,3385.0,2201.0,2487.0,2373.0,-1.56,9.74,4.21,0.16,-0.3,0.56,0.0,x
3044.0,3381.0,2973.0,3632.0,3381.0,2197.0,2480.0,2362.0,-0.88,10.24,5.21,-0.02,-0.04,0.48,0.0,x
3053.0,3394.0,2985.0,3663.0,3391.0,2204.0,2490.0,2375.0,0.14,9.17,4.73,0.01,-0.37,-0.12,0.0,x
3046.0,3382.0,2963.0,3651.0,3391.0,2194.0,2480.0,2371.0,-0.47,9.17,5.21,-0.37,-0.35,-0.08,0.0,x
3042.0,3408.0,2991.0,3653.0,3407.0,2192.0,2485.0,2379.0,0.44,9.79,5.87,-0.84,-0.56,-0.21,0.0,x
3046.0,3397.0,2962.0,3666.0,3467.0,2195.0,2496.0,2375.0,-0.12,8.04,7.75,-1.47,-0.05,-1.01,0.0,x
3035.0,3382.0,2969.0,3667.0,3472.0,2201.0,2497.0,2383.0,-0.66,8.57,8.98,-0.99,-0.36,-0.43,0.0,x
3041.0,3413.0,2975.0,3671.0,3487.0,2208.0,2511.0,2385.0,-1.1,8.32,11.31,-0.27,0.15,-0.07,0.0,x
3040.0,3410.0,2982.0,3670.0,3495.0,2202.0,2491.0,2369.0,1.15,8.37,8.89,0.32,-0.26,-0.07,0.0,x
3056.0,3407.0,2975.0,3657.0,3536.0,2207.0,2508.0,2373.0,-0.36,8.82,8.61,-0.03,0.37,-0.53,0.0,x
3047.0,3389.0,2960.0,3645.0,3550.0,2214.0,2501.0,2375.0,-1.76,9.21,7.97,0.0,0.08,-0.48,0.0,x
3035.0,3393.0,2979.0,3678.0,3561.0,2216.0,2501.0,2381.0,-1.81,8.9,8.57,-0.07,0.21,-0.07,0.0,x
3039.0,3399.0,2975.0,3674.0,3570.0,2210.0,2501.0,2381.0,-1.14,8.67,9.17,0.12,0.55,0.08,0.0,x
3043.0,3390.0,2989.0,3681.0,3583.0,2221.0,2511.0,2382.0,-0.72,8.95,8.0,0.1,-0.18,-0.14,0.0,x
3038.0,3401.0,2981.0,3673.0,3578.0,2214.0,2511.0,2379.0,-1.54,8.94,8.6,0.1,-0.14,-0.1,0.0,x
3044.0,3402.0,2971.0,3685.0,3596.0,2219.0,2511.0,2382.0,-0.98,8.96,8.23,0.07,-0.27,-0.17,0.0,x
3039.0,3399.0,2976.0,3681.0,3392.0,2221.0,2511.0,2391.0,-0.36,8.76,8.76,-0.06,0.01,-0.02,0.0,x
3037.0,3403.0,2977.0,3694.0,3408.0,2227.0,2515.0,2402.0,-0.22,8.74,9.07,0.13,0.02,-0.13,0.0,x
3043.0,3408.0,2974.0,3687.0,3408.0,2223.0,2511.0,2393.0,-0.13,8.84,8.66,0.27,0.05,-0.15,0.0,x
3038.0,3406.0,2967.0,3697.0,3424.0,2224.0,2517.0,2401.0,-0.41,8.96,8.32,0.27,0.02,-0.21,0.0,x
3031.0,3408.0,2973.0,3686.0,3417.0,2224.0,2513.0,2403.0,-0.4,9.16,7.85,0.26,-0.04,-0.23,0.0,x
3027.0,3406.0,2971.0,3691.0,3417.0,2224.0,2512.0,2395.0,-0.74,9.17,7.84,0.19,0.0,-0.23,0.0,x
3041.0,3397.0,2962.0,3696.0,3435.0,2230.0,2517.0,2397.0,-0.74,9.27,7.64,0.22,0.05,-0.13,0.0,x
3049.0,3403.0,2962.0,3681.0,3419.0,2227.0,2513.0,2399.0,-0.39,9.39,7.16,0.23,-0.01,-0.13,0.0,x
3041.0,3390.0,2971.0,3712.0,3439.0,2227.0,2514.0,2399.0,-0.67,9.42,7.22,0.14,-0.05,-0.16,0.0,x
3045.0,3407.0,2968.0,3691.0,3439.0,2226.0,2514.0,2400.0,-0.62,9.56,6.87,0.19,-0.12,-0.16,0.0,x
3041.0,3405.0,2978.0,3703.0,3441.0,2224.0,2519.0,2401.0,-0.58,9.49,6.86,0.08,-0.04,-0.22,0.0,x
3029.0,3397.0,2968.0,3696.0,3456.0,2223.0,2512.0,2397.0,-0.98,9.49,7.03,-0.06,-0.39,-0.23,0.0,x
3046.0,3406.0,2974.0,3702.0,3471.0,2227.0,2523.0,2402.0,-0.14,9.44,7.05,0.02,-0.58,-0.24,0.0,x
3029.0,3391.0,2970.0,3696.0,3466.0,2226.0,2517.0,2401.0,-0.64,9.45,6.93,0.06,0.31,-0.17,0.0,x
3055.0,3420.0,2974.0,3711.0,3467.0,2224.0,2515.0,2407.0,-0.77,9.48,7.08,0.04,-0.04,-0.18,0.0,x
3036.0,3383.0,2970.0,3701.0,3472.0,2226.0,2516.0,2399.0,-0.53,9.49,6.77,0.06,-0.03,-0.16,0.0,x
3041.0,3394.0,2983.0,3707.0,3470.0,2224.0,2518.0,2401.0,-0.84,9.48,7.1,-0.01,-0.01,-0.18,0.0,x
3047.0,3395.0,2979.0,3715.0,3482.0,2228.0,2521.0,2398.0,-0.72,9.5,6.86,0.03,-0.02,-0.14,0.0,x
3042.0,3395.0,2984.0,3696.0,3468.0,2226.0,2515.0,2402.0,-0.43,9.5,6.77,-0.01,-0.0,-0.16,0.0,x
3046.0,3408.0,2977.0,3699.0,3470.0,2229.0,2519.0,2409.0,-0.78,9.35,7.5,0.06,0.05,-0.17,0.0,x
3041.0,3397.0,2985.0,3713.0,3477.0,2231.0,2525.0,2407.0,-0.61,9.45,7.08,-0.2,0.03,-0.1,0.0,x
3051.0,3389.0,2973.0,3695.0,3470.0,2224.0,2519.0,2402.0,-0.52,9.31,7.46,-0.19,0.07,-0.06,0.0,x
3040.0,3382.0,2978.0,3715.0,3484.0,2233.0,2531.0,2406.0,-0.32,9.26,7.63,-0.23,0.01,-0.06,0.0,x
3043.0,3382.0,2978.0,3707.0,3490.0,2231.0,2525.0,2406.0,-0.27,9.18,7.82,-0.25,-0.06,-0.09,0.0,x
3049.0,3381.0,2962.0,3703.0,3472.0,2227.0,2518.0,2407.0,-0.21,9.01,8.38,-0.25,0.04,-0.07,0.0,x
3050.0,3393.0,2977.0,3717.0,3482.0,2230.0,2527.0,2410.0,-0.09,8.87,8.67,-0.18,-0.06,-0.1,0.0,x
3035.0,3378.0,2974.0,3707.0,3473.0,2226.0,2522.0,2397.0,-0.04,8.88,8.56,-0.07,-0.01,-0.14,0.0,x
3049.0,3379.0,2977.0,3719.0,3489.0,2237.0,2529.0,2411.0,-0.09,8.92,8.5,-0.08,-0.03,-0.16,0.0,x
3031.0,3380.0,2970.0,3712.0,3478.0,2229.0,2521.0,2401.0,-0.23,8.85,8.77,-0.05,0.04,-0.15,0.0,x
3054.0,3382.0,2961.0,3712.0,3479.0,2230.0,2530.0,2410.0,-0.11,8.8,8.87,0.0,0.06,-0.16,0.0,x
3039.0,3382.0,2964.0,3711.0,3472.0,2224.0,2519.0,2405.0,-0.13,8.74,8.89,0.04,0.03,-0.19,0.0,x
3041.0,3397.0,2979.0,3728.0,3487.0,2234.0,2527.0,2411.0,-0.21,8.81,8.81,0.1,-0.01,-0.2,0.0,x
3047.0,3389.0,2978.0,3712.0,3472.0,2227.0,2523.0,2403.0,-0.24,8.84,8.72,0.1,-0.07,-0.23,0.0,x
3053.0,3391.0,2973.0,3728.0,3491.0,2231.0,2527.0,2405.0,-0.26,8.84,8.74,0.18,-0.4,-0.31,0.0,x
3039.0,3373.0,2971.0,3710.0,3471.0,2229.0,2525.0,2405.0,-0.41,9.07,8.13,0.23,0.1,-0.2,0.0,x
3040.0,3397.0,2977.0,3712.0,3473.0,2228.0,2528.0,2405.0,-0.42,9.12,7.95,0.19,-0.01,-0.24,0.0,x
3042.0,3382.0,2970.0,3706.0,3486.0,2237.0,2530.0,2410.0,-0.54,9.2,8.0,0.17,-0.03,-0.24,0.0,x
3039.0,3377.0,2978.0,3711.0,3472.0,2227.0,2524.0,2409.0,-0.58,9.19,7.82,0.18,0.01,-0.23,0.0,x
3050.0,3376.0,2973.0,3728.0,3491.0,2239.0,2529.0,2407.0,-0.56,9.29,7.49,0.2,-0.01,-0.27,0.0,x
3035.0,3382.0,2971.0,3714.0,3486.0,2237.0,2529.0,2402.0,-0.95,9.34,7.37,0.17,-0.03,-0.29,0.0,x
3046.0,3387.0,2976.0,3725.0,3488.0,2237.0,2529.0,2410.0,-1.34,9.56,6.58,0.15,0.08,-0.12,0.0,x
3041.0,3378.0,2967.0,3721.0,3497.0,2243.0,2533.0,2413.0,-0.89,9.56,6.42,0.08,0.04,-0.12,0.0,x
3039.0,3376.0,2973.0,3721.0,3486.0,2238.0,2535.0,2407.0,-0.91,9.44,6.79,0.11,-0.15,-0.2,0.0,x
3055.0,3377.0,2970.0,3723.0,3480.0,2243.0,2539.0,2415.0,-1.09,9.5,6.37,0.13,-0.05,-0.22,0.0,x
3053.0,3383.0,2965.0,3711.0,3474.0,2239.0,2531.0,2413.0,-1.22,9.6,6.07,0.14,-0.02,-0.19,0.0,x
3045.0,3391.0,2975.0,3714.0,3489.0,2242.0,2539.0,2416.0,-1.36,9.73,5.81,0.08,-0.11,-0.17,0.0,x
3047.0,3376.0,2965.0,3718.0,3482.0,2239.0,2528.0,2410.0,-1.31,9.66,5.89,-0.0,0.09,-0.1,0.0,x
3031.0,3382.0,2975.0,3723.0,3490.0,2242.0,2531.0,2415.0,-1.23,9.66,5.98,-0.04,0.03,-0.07,0.0,x
3039.0,3378.0,2969.0,3714.0,3482.0,2246.0,2534.0,2414.0,-1.24,9.7,5.94,-0.12,0.07,-0.02,0.0,x
3053.0,3377.0,2971.0,3719.0,3495.0,2246.0,2539.0,2416.0,-1.05,9.69,6.11,-0.23,0.03,0.04,0.0,x
3035.0,3365.0,2967.0,3715.0,3485.0,2245.0,2530.0,2411.0,-0.67,9.5,6.58,-0.42,-0.5,-0.08,0.0,x
3047.0,3385.0,2976.0,3726.0,3489.0,2246.0,2539.0,2416.0,-0.32,9.3,7.31,-0.31,-0.14,-0.01,0.0,x
3038.0,3365.0,2973.0,3712.0,3477.0,2246.0,2543.0,2416.0,-0.08,9.22,7.7,-0.19,0.09,-0.01,0.0,x
3051.0,3376.0,2975.0,3721.0,3479.0,2243.0,2534.0,2411.0,-0.17,9.26,7.71,-0.13,-0.07,-0.12,0.0,x
3054.0,3376.0,2971.0,3731.0,3492.0,2246.0,2540.0,2418.0,-0.22,9.25,7.76,-0.1,-0.02,-0.12,0.0,x
3052.0,3375.0,2969.0,3715.0,3489.0,2244.0,2541.0,2415.0,-0.4,9.22,7.86,-0.07,-0.01,-0.11,0.0,x
3049.0,3382.0,2983.0,3735.0,3488.0,2253.0,2542.0,2419.0,-0.25,9.23,7.84,-0.07,-0.01,-0.06,0.0,x
3033.0,3375.0,2971.0,3725.0,3488.0,2249.0,2539.0,2415.0,0.01,9.16,8.1,-0.07,0.02,-0.06,0.0,x
3052.0,3378.0,2987.0,3731.0,3492.0,2251.0,2543.0,2416.0,-0.07,9.11,8.19,-0.01,-0.03,-0.08,0.0,x
3042.0,3386.0,2967.0,3721.0,3485.0,2249.0,2535.0,2416.0,0.07,9.14,8.11,0.03,0.0,-0.05,0.0,x
3041.0,3375.0,2974.0,3727.0,3487.0,2247.0,2540.0,2415.0,0.43,9.17,8.0,0.05,0.12,0.13,0.0,x
3038.0,3390.0,2966.0,3737.0,3501.0,2256.0,2541.0,2415.0,1.29,9.17,7.68,0.01,0.01,0.13,0.0,x
3047.0,3377.0,2969.0,3741.0,3495.0,2253.0,2544.0,2416.0,1.41,9.17,7.87,0.05,0.07,0.06,0.0,x
3043.0,3377.0,2962.0,3729.0,3489.0,2245.0,2539.0,2413.0,1.74,9.16,7.7,-0.07,-0.1,-0.1,0.0,x
3053.0,3375.0,2973.0,3729.0,3489.0,2254.0,2549.0,2419.0,1.24,9.13,8.03,-0.0,-0.08,-0.09,0.0,x
3042.0,3376.0,2969.0,3726.0,3489.0,2250.0,2544.0,2416.0,1.34,9.25,7.57,-0.04,-0.13,0.01,0.0,x
3043.0,3374.0,2965.0,3735.0,3497.0,2256.0,2547.0,2418.0,1.77,9.07,7.79,-0.09,0.01,0.07,0.0,x
3051.0,3374.0,2979.0,3730.0,3493.0,2253.0,2544.0,2419.0,1.92,8.94,8.1,-0.13,-0.02,0.05,0.0,x
3052.0,3390.0,2982.0,3742.0,3501.0,2255.0,2546.0,2420.0,2.21,8.75,8.43,-0.13,0.01,0.07,0.0,x
3039.0,3371.0,2978.0,3731.0,3499.0,2256.0,2543.0,2413.0,2.95,8.86,8.74,-0.0,0.03,0.0,0.0,x
3043.0,3376.0,2965.0,3731.0,3500.0,2255.0,2547.0,2420.0,2.82,8.7,8.32,-0.03,-0.02,-0.06,0.0,x
3051.0,3370.0,2971.0,3733.0,3489.0,2247.0,2545.0,2416.0,2.59,8.72,8.39,-0.02,-0.04,-0.13,0.0,x
3049.0,3393.0,2977.0,3735.0,3504.0,2256.0,2548.0,2422.0,2.42,8.7,8.42,-0.01,-0.0,-0.08,0.0,x
3049.0,3376.0,2980.0,3745.0,3501.0,2253.0,2551.0,2424.0,2.62,8.71,8.26,-0.06,-0.02,-0.05,0.0,x
3030.0,3382.0,2970.0,3732.0,3489.0,2250.0,2544.0,2419.0,2.8,8.56,8.51,-0.06,0.01,-0.05,0.0,x
3046.0,3387.0,2971.0,3732.0,3497.0,2256.0,2549.0,2429.0,2.95,8.48,8.73,-0.05,0.08,-0.05,0.0,x
3043.0,3376.0,2975.0,3728.0,3498.0,2255.0,2544.0,2416.0,2.93,8.42,8.81,0.0,0.03,-0.09,0.0,x
3054.0,3373.0,2981.0,3742.0,3507.0,2257.0,2550.0,2420.0,3.03,8.47,8.5,-0.0,0.04,-0.1,0.0,x
3035.0,3367.0,2976.0,3735.0,3499.0,2255.0,2545.0,2418.0,2.93,8.38,8.97,0.06,0.05,-0.11,0.0,x
3045.0,3392.0,2977.0,3737.0,3506.0,2256.0,2549.0,2419.0,3.14,8.43,8.7,0.09,0.02,-0.16,0.0,x
3060.0,3381.0,2974.0,3738.0,3509.0,2270.0,2551.0,2427.0,2.05,9.27,7.14,0.25,0.01,-0.27,0.0,x
3035.0,3369.0,2962.0,3728.0,3504.0,2262.0,2549.0,2428.0,1.89,9.4,6.82,0.22,0.02,-0.28,0.0,x
3040.0,3380.0,2974.0,3729.0,3509.0,2261.0,2550.0,2430.0,1.74,9.5,6.66,0.17,0.02,-0.25,0.0,x
3044.0,3376.0,2974.0,3729.0,3504.0,2260.0,2548.0,2423.0,1.67,9.52,6.61,0.16,0.01,-0.23,0.0,x
3038.0,3377.0,2972.0,3746.0,3511.0,2263.0,2555.0,2423.0,1.63,9.56,6.41,0.12,0.03,-0.19,0.0,x
3041.0,3358.0,2965.0,3728.0,3504.0,2260.0,2553.0,2427.0,1.63,9.54,6.51,0.08,-0.03,-0.22,0.0,x
3054.0,3377.0,2975.0,3731.0,3514.0,2264.0,2555.0,2431.0,1.62,9.57,6.36,0.08,-0.04,-0.25,0.0,x
3049.0,3370.0,2965.0,3734.0,3503.0,2258.0,2549.0,2426.0,1.36,9.62,6.34,0.07,-0.03,-0.21,0.0,x
3056.0,3376.0,2976.0,3728.0,3507.0,2267.0,2553.0,2430.0,1.38,9.61,6.3,0.06,-0.02,-0.2,0.0,x
3051.0,3381.0,2969.0,3729.0,3510.0,2269.0,2555.0,2430.0,1.45,9.63,6.28,0.07,-0.02,-0.21,0.0,x
3037.0,3367.0,2967.0,3711.0,3511.0,2266.0,2553.0,2430.0,1.28,9.65,6.16,0.09,-0.06,-0.23,0.0,x
3059.0,3373.0,2982.0,3725.0,3507.0,2267.0,2559.0,2431.0,1.23,9.7,6.06,0.09,-0.03,-0.23,0.0,x
3030.0,3361.0,2980.0,3713.0,3502.0,2260.0,2547.0,2426.0,1.24,9.72,5.95,0.06,-0.04,-0.23,0.0,x
3051.0,3377.0,2969.0,3728.0,3513.0,2268.0,2559.0,2430.0,0.95,9.78,5.83,0.0,-0.07,-0.24,0.0,x
3039.0,3361.0,2960.0,3725.0,3502.0,2263.0,2557.0,2430.0,0.98,9.75,5.97,-0.05,-0.04,-0.18,0.0,x
3046.0,3376.0,2974.0,3734.0,3517.0,2271.0,2559.0,2430.0,1.05,9.7,6.05,-0.07,-0.04,-0.15,0.0,x
3039.0,3359.0,2973.0,3728.0,3504.0,2273.0,2553.0,2423.0,1.13,9.71,6.03,-0.06,-0.04,-0.14,0.0,x
3048.0,3387.0,2981.0,3727.0,3509.0,2274.0,2557.0,2435.0,1.29,9.66,6.12,-0.08,-0.07,-0.2,0.0,x
3039.0,3362.0,2976.0,3723.0,3504.0,2266.0,2551.0,2427.0,1.09,9.7,6.15,-0.14,-0.1,-0.24,0.0,x
3037.0,3369.0,2972.0,3733.0,3519.0,2273.0,2559.0,2433.0,0.81,9.57,6.71,-0.13,0.01,-0.19,0.0,x
3041.0,3358.0,2981.0,3760.0,3511.0,2283.0,2559.0,2431.0,0.64,9.22,7.82,-0.01,0.01,-0.22,0.0,x
3027.0,3366.0,2971.0,3745.0,3506.0,2281.0,2559.0,2431.0,0.51,9.2,8.01,0.0,-0.01,-0.2,0.0,x
3037.0,3385.0,2979.0,3751.0,3515.0,2276.0,2559.0,2433.0,0.51,9.17,8.03,0.03,0.02,-0.18,0.0,x
3047.0,3367.0,2971.0,3733.0,3510.0,2278.0,2559.0,2432.0,0.63,9.2,7.92,0.1,-0.02,-0.2,0.0,x
3039.0,3372.0,2985.0,3758.0,3516.0,2277.0,2559.0,2439.0,0.41,9.32,7.58,0.06,-0.02,-0.2,0.0,x
3042.0,3375.0,2966.0,3749.0,3511.0,2279.0,2559.0,2432.0,0.35,9.3,7.63,0.01,-0.01,-0.16,0.0,x
3047.0,3376.0,2969.0,3757.0,3518.0,2282.0,2559.0,2439.0,0.47,9.24,7.76,-0.03,0.02,-0.15,0.0,x
3053.0,3371.0,2986.0,3747.0,3504.0,2277.0,2559.0,2431.0,0.43,9.2,7.95,0.02,-0.01,-0.16,0.0,x
3046.0,3365.0,2976.0,3753.0,3517.0,2281.0,2559.0,2437.0,0.44,9.23,7.86,0.03,0.0,-0.16,0.0,x
3042.0,3377.0,2978.0,3760.0,3515.0,2283.0,2559.0,2437.0,0.43,9.25,7.79,0.04,-0.02,-0.17,0.0,x
3043.0,3366.0,2966.0,3734.0,3504.0,2278.0,2559.0,2434.0,0.45,9.27,7.69,0.06,0.02,-0.16,0.0,x
3046.0,3371.0,2979.0,3749.0,3509.0,2285.0,2559.0,2443.0,0.43,9.29,7.64,0.05,0.02,-0.18,0.0,x
3044.0,3367.0,2976.0,3735.0,3504.0,2277.0,2557.0,2431.0,0.29,9.28,7.7,0.05,0.0,-0.19,0.0,x
3041.0,3381.0,2988.0,3741.0,3514.0,2286.0,2559.0,2438.0,0.26,9.32,7.61,0.05,-0.01,-0.18,0.0,x
3038.0,3374.0,2973.0,3749.0,3506.0,2283.0,2559.0,2432.0,0.3,9.36,7.52,0.04,-0.0,-0.15,0.0,x
3043.0,3369.0,2981.0,3755.0,3509.0,2275.0,2559.0,2437.0,0.32,9.32,7.61,0.04,0.01,-0.15,0.0,x
3035.0,3369.0,2967.0,3743.0,3504.0,2282.0,2553.0,2432.0,0.34,9.34,7.49,0.04,-0.01,-0.17,0.0,x
3049.0,3365.0,2987.0,3747.0,3516.0,2288.0,2559.0,2435.0,0.24,9.37,7.48,0.03,-0.03,-0.17,0.0,x
3031.0,3358.0,2978.0,3748.0,3513.0,2286.0,2559.0,2432.0,0.25,9.39,7.45,0.02,-0.03,-0.16,0.0,x
3050.0,3376.0,2967.0,3743.0,3518.0,2288.0,2559.0,2435.0,0.3,9.36,7.48,0.01,-0.03,-0.16,0.0,x
3046.0,3360.0,2965.0,3734.0,3503.0,2277.0,2559.0,2434.0,0.25,9.35,7.55,0.01,-0.01,-0.16,0.0,x
3055.0,3387.0,2985.0,3742.0,3509.0,2283.0,2559.0,2443.0,0.23,9.32,7.68,0.05,0.02,-0.15,0.0,x
3037.0,3358.0,2981.0,3745.0,3509.0,2283.0,2559.0,2431.0,0.26,9.37,7.38,0.02,-0.06,-0.17,0.0,x
3042.0,3379.0,2990.0,3760.0,3519.0,2288.0,2582.0,2437.0,0.26,9.41,7.28,-0.02,-0.05,-0.17,0.0,x
3044.0,3370.0,2962.0,3734.0,3508.0,2283.0,2579.0,2435.0,0.17,9.44,7.18,-0.11,-0.08,-0.16,0.0,x
3055.0,3382.0,2979.0,3753.0,3513.0,2288.0,2581.0,2438.0,0.22,9.23,7.82,-0.18,0.05,-0.1,0.0,x
3031.0,3369.0,2973.0,3757.0,3511.0,2285.0,2559.0,2433.0,0.62,9.11,8.09,-0.12,-0.01,-0.12,0.0,x
3046.0,3376.0,2977.0,3764.0,3520.0,2283.0,2579.0,2438.0,0.42,9.09,8.16,-0.04,-0.01,-0.2,0.0,x
3045.0,3367.0,2971.0,3741.0,3507.0,2287.0,2559.0,2435.0,0.17,9.15,8.13,0.02,-0.02,-0.21,0.0,x
3046.0,3369.0,2979.0,3761.0,3518.0,2289.0,2583.0,2439.0,0.21,9.22,7.88,0.04,-0.08,-0.22,0.0,x
3039.0,3372.0,2977.0,3760.0,3524.0,2279.0,2580.0,2443.0,0.17,9.17,7.93,-0.06,-0.12,-0.18,0.0,x
3047.0,3371.0,2962.0,3739.0,3507.0,2285.0,2559.0,2433.0,0.09,9.07,8.24,-0.08,-0.17,-0.3,0.0,x
3041.0,3379.0,2971.0,3746.0,3519.0,2289.0,2591.0,2439.0,-0.18,9.1,8.29,-0.01,-0.0,-0.09,0.0,x
3046.0,3374.0,2970.0,3748.0,3505.0,2283.0,2582.0,2433.0,0.74,9.15,7.74,-0.01,-0.04,-0.16,0.0,x
3049.0,3382.0,2976.0,3758.0,3520.0,2288.0,2583.0,2444.0,0.36,9.1,8.19,-0.05,0.13,-0.27,0.0,x
3029.0,3371.0,2975.0,3754.0,3518.0,2288.0,2579.0,2436.0,-0.28,9.03,8.27,-0.07,0.23,-0.25,0.0,x
3047.0,3370.0,2976.0,3755.0,3529.0,2292.0,2583.0,2434.0,-0.45,8.9,8.48,-0.08,0.06,-0.27,0.0,x
3043.0,3372.0,2970.0,3748.0,3504.0,2286.0,2580.0,2432.0,-0.02,8.99,8.29,-0.0,-0.01,-0.26,0.0,x
3041.0,3376.0,2987.0,3759.0,3518.0,2291.0,2585.0,2439.0,-0.48,8.92,8.57,-0.05,0.07,-0.31,0.0,x
3042.0,3375.0,2980.0,3728.0,3514.0,2288.0,2581.0,2437.0,-0.9,8.87,8.65,0.0,-0.03,-0.26,0.0,x
3043.0,4095.0,1394.0,3399.0,2909.0,2342.0,2986.0,2583.0,1.15,9.39,7.27,0.18,0.33,0.02,0.0,x
3033.0,4095.0,1399.0,3392.0,2901.0,2339.0,2977.0,2583.0,1.62,9.47,6.95,0.01,0.1,-0.14,0.0,x
3051.0,4095.0,1405.0,3402.0,2907.0,2342.0,2992.0,2590.0,1.3,9.39,7.15,-0.13,-0.22,-0.39,0.0,x
3043.0,4095.0,1389.0,3391.0,2896.0,2336.0,2985.0,2590.0,0.5,9.28,7.85,-0.05,0.11,-0.17,0.0,x
3042.0,4095.0,1396.0,3407.0,2912.0,2337.0,2992.0,2603.0,1.35,9.33,7.36,0.02,0.04,-0.16,0.0,x
3039.0,4095.0,1392.0,3399.0,2907.0,2342.0,2986.0,2598.0,0.76,9.23,7.79,0.03,-0.13,-0.35,0.0,x
3055.0,4095.0,1397.0,3395.0,2907.0,2349.0,2993.0,2607.0,0.51,9.39,7.42,0.1,0.03,-0.21,0.0,x
3047.0,4095.0,1397.0,3396.0,2898.0,2338.0,2987.0,2595.0,0.58,9.36,7.38,0.15,0.25,-0.08,0.0,x
3035.0,4095.0,1407.0,3403.0,2909.0,2338.0,2990.0,2604.0,0.72,9.48,7.1,0.16,0.19,-0.09,0.0,x
3037.0,4095.0,1393.0,3398.0,2910.0,2337.0,2983.0,2598.0,0.74,9.52,6.92,0.13,0.21,-0.11,0.0,x
3049.0,4095.0,1397.0,3403.0,2895.0,2346.0,2991.0,2601.0,0.65,9.57,6.8,0.1,0.06,-0.13,0.0,x
3031.0,4095.0,1398.0,3398.0,2857.0,2349.0,2996.0,2608.0,0.72,9.58,6.7,0.04,0.04,-0.15,0.0,x
3035.0,4095.0,1394.0,3391.0,2863.0,2346.0,2987.0,2600.0,0.69,9.6,6.75,0.02,0.02,-0.16,0.0,x
3041.0,4095.0,1404.0,3398.0,2879.0,2352.0,2992.0,2606.0,0.58,9.55,6.89,-0.0,-0.02,-0.16,0.0,x
3040.0,4095.0,1389.0,3399.0,2864.0,2349.0,2990.0,2608.0,0.47,9.58,6.79,-0.02,-0.01,-0.13,0.0,x
3040.0,4095.0,1395.0,3406.0,2883.0,2354.0,2992.0,2607.0,0.49,9.65,6.7,-0.09,0.04,-0.02,0.0,x
3030.0,4095.0,1397.0,3391.0,2875.0,2350.0,2986.0,2605.0,1.09,9.5,6.96,-0.14,0.3,0.05,0.0,x
3046.0,4095.0,1392.0,3403.0,2887.0,2355.0,2991.0,2610.0,0.85,9.33,7.53,-0.18,0.02,-0.08,0.0,x
3038.0,4095.0,1395.0,3394.0,2879.0,2352.0,2983.0,2607.0,0.96,9.42,7.28,-0.1,0.03,-0.09,0.0,x
3049.0,4095.0,1391.0,3409.0,2892.0,2353.0,2993.0,2614.0,1.21,9.31,7.47,-0.17,0.02,-0.13,0.0,x
3047.0,4095.0,1406.0,3410.0,2891.0,2352.0,2985.0,2608.0,0.64,8.97,8.4,-0.13,0.19,-0.1,0.0,x
3042.0,4095.0,1395.0,3408.0,2896.0,2358.0,2989.0,2608.0,0.64,8.85,8.8,-0.08,0.32,0.03,0.0,x
3037.0,4095.0,1393.0,3410.0,2894.0,2350.0,2977.0,2608.0,0.95,8.91,8.47,-0.05,0.3,-0.09,0.0,x
3056.0,4095.0,1408.0,3413.0,2896.0,2353.0,2982.0,2609.0,0.36,8.98,8.45,-0.06,0.13,-0.17,0.0,x
3045.0,4095.0,1399.0,3409.0,2891.0,2349.0,2971.0,2609.0,-0.11,9.05,8.42,-0.06,0.06,-0.02,0.0,x
3053.0,4095.0,1408.0,3419.0,2895.0,2354.0,2979.0,2617.0,0.93,8.85,8.5,-0.15,0.21,0.14,0.0,x
3026.0,4095.0,1393.0,3415.0,2893.0,2354.0,2970.0,2608.0,1.05,8.76,8.71,-0.11,-0.02,0.04,0.0,x
3045.0,4095.0,1405.0,3422.0,2895.0,2352.0,2974.0,2618.0,1.16,8.67,8.98,-0.07,-0.02,-0.04,0.0,x
3045.0,4095.0,1403.0,3414.0,2893.0,2353.0,2972.0,2611.0,1.46,8.69,8.87,-0.06,-0.02,-0.12,0.0,x
3054.0,4095.0,1404.0,3425.0,2896.0,2358.0,2973.0,2619.0,1.45,8.51,9.15,-0.22,0.03,-0.14,0.0,x
3039.0,4095.0,1400.0,3417.0,2895.0,2352.0,2963.0,2615.0,1.03,8.64,8.98,-0.18,-0.09,-0.23,0.0,x
3051.0,4095.0,1413.0,3422.0,2898.0,2358.0,2975.0,2625.0,1.18,8.29,9.62,-0.21,0.09,-0.21,0.0,x
3039.0,4095.0,1405.0,3415.0,2899.0,2352.0,2974.0,2634.0,0.85,8.14,10.0,-0.17,-0.06,-0.29,0.0,x
3037.0,4095.0,1402.0,3424.0,2905.0,2352.0,2962.0,2621.0,0.8,8.17,9.81,-0.15,-0.06,-0.22,0.0,x
3041.0,4095.0,1401.0,3431.0,2903.0,2356.0,2963.0,2625.0,0.74,7.97,10.16,-0.13,0.03,-0.1,0.0,x
3047.0,4095.0,1398.0,3427.0,2909.0,2352.0,2959.0,2625.0,0.83,7.92,10.36,-0.05,0.07,-0.03,0.0,x
3045.0,4095.0,1397.0,3433.0,2905.0,2354.0,2960.0,2635.0,1.32,7.92,10.1,0.02,0.08,-0.07,0.0,x
3029.0,4095.0,1409.0,3433.0,2906.0,2353.0,2955.0,2627.0,1.0,7.86,10.26,0.04,0.02,-0.16,0.0,x
3054.0,4095.0,1410.0,3440.0,2908.0,2355.0,2962.0,2638.0,1.18,7.97,10.18,-0.0,-0.08,-0.18,0.0,x
3035.0,4095.0,1402.0,3422.0,2903.0,2357.0,2949.0,2627.0,0.94,7.84,10.3,0.09,-0.01,-0.14,0.0,x
3035.0,4095.0,1407.0,3443.0,2916.0,2362.0,2957.0,2632.0,0.85,8.49,9.38,0.1,-0.06,-0.17,0.0,x
3039.0,4095.0,1398.0,3438.0,2912.0,2358.0,2957.0,2640.0,0.88,8.52,9.42,0.13,0.05,-0.06,0.0,x
3034.0,4095.0,1405.0,3444.0,2910.0,2363.0,2956.0,2640.0,1.21,8.59,9.12,0.05,0.03,-0.08,0.0,x
3037.0,4095.0,1403.0,3451.0,2922.0,2371.0,2960.0,2640.0,1.49,8.6,9.05,0.05,0.04,-0.05,0.0,x
3034.0,4095.0,1399.0,3440.0,2909.0,2363.0,2954.0,2640.0,1.29,8.56,9.05,0.09,0.02,-0.15,0.0,x
3035.0,4095.0,1402.0,3440.0,2903.0,2369.0,2960.0,2643.0,0.74,8.64,9.13,0.08,0.02,-0.1,0.0,x
3029.0,4095.0,1394.0,3440.0,2900.0,2365.0,2951.0,2645.0,1.06,8.75,8.87,-0.01,0.05,0.03,0.0,x
3054.0,4095.0,1417.0,3446.0,2907.0,2369.0,2960.0,2643.0,1.66,8.65,8.84,-0.03,0.04,0.03,0.0,x
3042.0,4095.0,1399.0,3440.0,2900.0,2364.0,2957.0,2641.0,1.67,8.6,9.07,-0.07,0.07,0.04,0.0,x
3047.0,4095.0,1408.0,3462.0,2916.0,2369.0,2955.0,2645.0,2.1,8.53,9.08,-0.1,0.03,-0.02,0.0,x
3039.0,4095.0,1392.0,3450.0,2910.0,2359.0,2957.0,2650.0,1.81,8.4,9.15,0.03,-0.01,-0.14,0.0,x
3043.0,4095.0,1405.0,3459.0,2908.0,2365.0,2960.0,2650.0,1.58,8.47,9.0,0.05,-0.03,-0.15,0.0,x
3030.0,4095.0,1398.0,3461.0,2913.0,2373.0,2960.0,2654.0,1.74,8.59,8.94,-0.12,-0.05,-0.15,0.0,x
3035.0,4095.0,1406.0,3459.0,2913.0,2368.0,2960.0,2647.0,1.72,8.41,9.36,-0.13,-0.05,-0.17,0.0,x
3056.0,4095.0,1408.0,3458.0,2909.0,2371.0,2960.0,2654.0,1.81,8.4,9.43,-0.06,0.01,-0.16,0.0,x
3043.0,4095.0,1405.0,3460.0,2907.0,2367.0,2959.0,2651.0,1.49,8.2,9.69,-0.0,0.08,-0.17,0.0,x
3038.0,4095.0,1406.0,3471.0,2921.0,2375.0,2966.0,2649.0,1.94,8.38,9.28,-0.1,0.03,-0.17,0.0,x
3046.0,4095.0,1407.0,3463.0,2914.0,2368.0,2954.0,2647.0,1.66,8.24,9.69,-0.1,-0.05,-0.26,0.0,x
3041.0,4095.0,1411.0,3474.0,2925.0,2374.0,2959.0,2655.0,1.78,8.26,9.71,0.04,0.06,-0.26,0.0,x
3027.0,4095.0,1407.0,3467.0,2922.0,2367.0,2960.0,2651.0,1.37,8.2,9.68,-0.01,-0.02,-0.39,0.0,x
3038.0,4095.0,1411.0,3455.0,2928.0,2370.0,2949.0,2654.0,1.11,8.26,9.7,-0.13,0.0,-0.23,0.0,x
3056.0,4095.0,1406.0,3461.0,2924.0,2375.0,2949.0,2661.0,1.08,8.14,9.87,0.01,0.05,-0.17,0.0,x
3047.0,4095.0,1407.0,3471.0,2932.0,2378.0,2955.0,2662.0,0.89,8.12,9.85,0.07,0.02,-0.29,0.0,x
3041.0,4095.0,1412.0,3459.0,2928.0,2369.0,2951.0,2659.0,0.68,8.25,9.56,0.06,-0.02,-0.31,0.0,x
3055.0,4095.0,1414.0,3472.0,2930.0,2379.0,2951.0,2665.0,0.44,8.36,9.6,-0.03,0.02,-0.21,0.0,x
3031.0,4095.0,1408.0,3459.0,2926.0,2371.0,2948.0,2661.0,0.69,8.26,9.73,-0.08,0.03,-0.22,0.0,x
3042.0,4095.0,1415.0,3481.0,2934.0,2379.0,2951.0,2671.0,0.46,8.11,10.15,-0.05,0.04,-0.19,0.0,x
3047.0,4095.0,1406.0,3471.0,2927.0,2378.0,2951.0,2663.0,0.58,7.93,10.26,0.03,0.06,-0.21,0.0,x
3052.0,4095.0,1414.0,3486.0,2934.0,2383.0,2953.0,2665.0,0.42,8.13,9.76,0.14,-0.06,-0.3,0.0,x
3043.0,4095.0,1408.0,3473.0,2929.0,2377.0,2954.0,2659.0,-0.16,8.32,9.73,0.04,-0.07,-0.28,0.0,x
3043.0,4095.0,1417.0,3478.0,2932.0,2375.0,2958.0,2672.0,0.06,8.32,9.58,-0.03,-0.06,-0.22,0.0,x
3035.0,4095.0,1408.0,3472.0,2931.0,2374.0,2954.0,2665.0,0.06,8.12,10.16,0.02,-0.04,-0.2,0.0,x
3032.0,4095.0,1415.0,3481.0,2930.0,2377.0,2955.0,2670.0,0.31,8.16,9.83,0.1,-0.03,-0.23,0.0,x
3033.0,4095.0,1413.0,3485.0,2942.0,2381.0,2959.0,2672.0,0.01,8.15,9.86,0.15,-0.04,-0.21,0.0,x
3027.0,4095.0,1415.0,3486.0,2934.0,2374.0,2953.0,2663.0,-0.02,8.34,9.71,0.09,-0.07,-0.19,0.0,x
3034.0,4095.0,1420.0,3479.0,2949.0,2386.0,2960.0,2668.0,0.2,8.35,9.67,0.03,-0.03,-0.18,0.0,x
3047.0,4095.0,1408.0,3473.0,2928.0,2378.0,2959.0,2671.0,-0.05,8.17,10.21,0.01,0.02,-0.17,0.0,x
3033.0,4095.0,1423.0,3490.0,2941.0,2384.0,2963.0,2672.0,0.25,8.23,9.8,0.11,0.05,-0.12,0.0,x
3041.0,4095.0,1413.0,3477.0,2940.0,2370.0,2959.0,2662.0,0.09,8.33,9.52,0.19,0.03,-0.18,0.0,x
3050.0,4095.0,1419.0,3488.0,2961.0,2384.0,2965.0,2670.0,-0.03,8.47,9.28,0.15,-0.02,-0.2,0.0,x
3043.0,4095.0,1407.0,3479.0,2954.0,2379.0,2949.0,2669.0,0.49,8.63,8.92,0.27,0.07,-0.08,0.0,x
3053.0,4095.0,1414.0,3495.0,2963.0,2384.0,2955.0,2670.0,0.11,8.73,8.89,0.16,-0.04,-0.18,0.0,x
3039.0,4095.0,1407.0,3489.0,2963.0,2382.0,2944.0,2666.0,0.16,8.83,8.68,0.12,-0.06,-0.18,0.0,x
3051.0,4095.0,1420.0,3504.0,2967.0,2384.0,2945.0,2674.0,-0.01,8.9,8.6,0.14,-0.03,-0.16,0.0,x
3042.0,4095.0,1423.0,3502.0,2967.0,2377.0,2935.0,2669.0,-0.11,8.76,9.02,0.1,0.01,-0.17,0.0,x
3047.0,4095.0,1411.0,3505.0,2977.0,2384.0,2942.0,2672.0,0.03,8.76,8.9,0.12,0.01,-0.13,0.0,x
3035.0,4095.0,1408.0,3495.0,2963.0,2382.0,2935.0,2672.0,-0.25,8.94,8.74,0.1,0.08,-0.03,0.0,x
3026.0,4095.0,1423.0,3514.0,2976.0,2384.0,2933.0,2670.0,0.91,9.01,8.17,-0.01,-0.0,-0.05,0.0,x
3041.0,4095.0,1411.0,3507.0,2974.0,2384.0,2930.0,2665.0,0.23,8.98,8.54,0.1,-0.11,-0.18,0.0,x
3042.0,4095.0,1421.0,3513.0,2979.0,2385.0,2934.0,2674.0,0.03,8.99,8.53,0.04,-0.04,-0.09,0.0,x
3041.0,4095.0,1406.0,3502.0,2973.0,2384.0,2930.0,2670.0,0.39,9.0,8.44,-0.03,0.0,-0.06,0.0,x
3045.0,4095.0,1411.0,3507.0,2975.0,2385.0,2930.0,2672.0,0.51,8.96,8.43,0.09,0.05,-0.01,0.0,x
3053.0,4095.0,1413.0,3509.0,2977.0,2384.0,2918.0,2678.0,0.39,8.98,8.47,0.09,0.07,-0.02,0.0,x
3036.0,4095.0,1414.0,3514.0,2974.0,2376.0,2919.0,2670.0,0.73,9.08,8.35,0.01,0.04,-0.04,0.0,x
3039.0,4095.0,1412.0,3518.0,2978.0,2384.0,2923.0,2674.0,0.91,8.98,8.39,-0.06,0.02,-0.06,0.0,x
3041.0,4095.0,1424.0,3517.0,2978.0,2384.0,2923.0,2672.0,0.94,8.93,8.43,-0.05,-0.06,-0.14,0.0,x
3055.0,4095.0,1423.0,3525.0,2983.0,2389.0,2929.0,2674.0,0.65,8.93,8.51,0.0,-0.02,-0.1,0.0,x
3024.0,4095.0,1411.0,3529.0,2979.0,2384.0,2923.0,2671.0,1.18,8.94,8.49,-0.08,-0.0,-0.09,0.0,x
3041.0,4095.0,1423.0,3531.0,2985.0,2391.0,2930.0,2674.0,0.99,8.86,8.6,-0.03,-0.02,-0.12,0.0,x
3041.0,4095.0,1408.0,3525.0,2983.0,2386.0,2926.0,2670.0,0.93,8.94,8.35,-0.0,0.05,-0.04,0.0,x
3044.0,4095.0,1413.0,3522.0,2983.0,2387.0,2937.0,2678.0,0.88,8.69,8.95,-0.01,-0.0,-0.17,0.0,x
3039.0,4095.0,1419.0,3527.0,2981.0,2385.0,2936.0,2673.0,0.91,8.73,8.85,-0.03,0.04,-0.07,0.0,x
3052.0,4095.0,1419.0,3535.0,2988.0,2390.0,2941.0,2685.0,1.27,8.76,8.73,-0.09,0.02,-0.06,0.0,x
3045.0,4095.0,1409.0,3532.0,2990.0,2390.0,2933.0,2675.0,1.24,8.57,9.15,-0.11,0.04,-0.11,0.0,x
3046.0,4095.0,1413.0,3534.0,2992.0,2404.0,2944.0,2685.0,1.29,8.46,9.37,-0.03,0.04,-0.14,0.0,x
3027.0,4095.0,1408.0,3536.0,2990.0,2396.0,2935.0,2677.0,1.15,8.55,9.22,-0.05,0.01,-0.2,0.0,x
3049.0,4095.0,1424.0,3542.0,2994.0,2393.0,2942.0,2683.0,0.92,8.63,9.07,-0.04,0.01,-0.15,0.0,x
3037.0,4095.0,1419.0,3536.0,2997.0,2391.0,2928.0,2672.0,1.07,8.49,9.32,-0.1,0.04,-0.1,0.0,x
3035.0,4095.0,1424.0,3541.0,2996.0,2398.0,2943.0,2681.0,1.29,8.38,9.48,-0.04,0.06,-0.14,0.0,x
3037.0,4095.0,1418.0,3541.0,2990.0,2395.0,2933.0,2676.0,1.1,8.28,9.71,-0.02,0.04,-0.18,0.0,x
3035.0,4095.0,1413.0,3553.0,2998.0,2394.0,2930.0,2677.0,1.17,8.29,9.52,0.01,0.04,-0.21,0.0,x
3033.0,4095.0,1418.0,3538.0,2989.0,2389.0,2928.0,2675.0,1.01,8.37,9.35,0.01,0.04,-0.24,0.0,x
3047.0,4095.0,1409.0,3539.0,2995.0,2395.0,2934.0,2677.0,1.01,8.36,9.34,-0.02,0.1,-0.26,0.0,x
3045.0,4095.0,1413.0,3549.0,2997.0,2397.0,2930.0,2679.0,0.81,8.27,9.6,-0.13,0.08,-0.33,0.0,x
3041.0,4095.0,1410.0,3535.0,2987.0,2394.0,2931.0,2677.0,0.29,8.19,9.9,-0.29,-0.05,-0.38,0.0,x
3044.0,4095.0,1415.0,3542.0,2992.0,2395.0,2940.0,2686.0,0.21,7.74,10.82,-0.04,0.03,-0.26,0.0,x
3047.0,4095.0,1415.0,3536.0,2985.0,2394.0,2934.0,2685.0,0.28,7.83,10.42,0.13,-0.07,-0.2,0.0,x
3049.0,4095.0,1410.0,3551.0,2992.0,2399.0,2937.0,2684.0,0.11,8.12,9.97,0.2,-0.2,-0.27,0.0,x
3047.0,4095.0,1423.0,3535.0,2992.0,2396.0,2932.0,2679.0,0.13,8.32,9.66,0.1,-0.13,-0.18,0.0,x
3053.0,4095.0,1418.0,3537.0,2997.0,2400.0,2944.0,2689.0,0.44,8.24,9.75,0.05,-0.08,-0.13,0.0,x
3050.0,4095.0,1408.0,3535.0,2992.0,2405.0,2951.0,2694.0,0.47,8.96,8.54,0.26,0.02,-0.17,0.0,x
3045.0,4095.0,1419.0,3535.0,2992.0,2399.0,2944.0,2688.0,0.18,9.02,8.33,0.19,0.03,-0.18,0.0,x
3051.0,4095.0,1420.0,3545.0,2997.0,2407.0,2953.0,2693.0,0.24,9.02,8.41,0.06,0.06,-0.11,0.0,x
3027.0,4095.0,1410.0,3537.0,2992.0,2395.0,2939.0,2683.0,0.48,9.15,8.04,0.06,0.02,-0.12,0.0,x
3035.0,4095.0,1418.0,3551.0,2998.0,2400.0,2950.0,2693.0,0.32,9.14,8.06,0.03,-0.03,-0.18,0.0,x
3037.0,4095.0,1413.0,3547.0,2998.0,2397.0,2945.0,2685.0,0.54,8.99,8.49,0.0,0.05,-0.09,0.0,x
3041.0,4095.0,1426.0,3562.0,3005.0,2407.0,2949.0,2691.0,0.5,9.08,8.19,0.0,-0.19,-0.25,0.0,x
3035.0,4095.0,1421.0,3542.0,2994.0,2398.0,2945.0,2688.0,0.52,9.11,8.08,0.03,0.0,-0.27,0.0,x
3049.0,4095.0,1415.0,3556.0,3007.0,2403.0,2950.0,2693.0,0.12,9.12,8.15,0.0,-0.11,-0.3,0.0,x
3039.0,4095.0,1411.0,3540.0,2998.0,2400.0,2945.0,2689.0,-0.09,9.04,8.39,0.0,-0.02,-0.24,0.0,x
3045.0,4095.0,1411.0,3551.0,2998.0,2407.0,2951.0,2691.0,0.0,9.1,8.19,0.07,0.02,-0.21,0.0,x
3039.0,4095.0,1412.0,3536.0,3001.0,2402.0,2949.0,2690.0,0.14,9.05,8.15,-0.03,0.03,-0.22,0.0,x
3040.0,4095.0,1418.0,3554.0,2999.0,2398.0,2945.0,2689.0,-0.34,8.95,8.56,-0.06,-0.09,-0.25,0.0,x
3046.0,4095.0,1414.0,3545.0,3002.0,2416.0,2949.0,2689.0,-0.26,9.01,8.4,0.0,-0.0,-0.15,0.0,x
3046.0,4095.0,1422.0,3538.0,2994.0,2400.0,2947.0,2691.0,-0.04,8.97,8.47,-0.01,-0.07,-0.17,0.0,x
3053.0,4095.0,1421.0,3547.0,3004.0,2410.0,2951.0,2695.0,-0.05,9.01,8.41,0.03,-0.09,-0.21,0.0,x
3039.0,4095.0,1410.0,3542.0,2998.0,2407.0,2945.0,2691.0,-0.45,9.05,8.37,-0.0,-0.1,-0.15,0.0,x
3046.0,4095.0,1423.0,3554.0,3007.0,2410.0,2948.0,2697.0,0.05,8.86,8.69,-0.02,0.01,-0.09,0.0,x
3043.0,4095.0,1419.0,3543.0,3005.0,2411.0,2945.0,2689.0,0.26,9.05,8.17,0.01,-0.06,-0.15,0.0,x
3041.0,4095.0,1424.0,3557.0,3013.0,2403.0,2946.0,2691.0,0.06,8.93,8.54,0.01,-0.03,-0.19,0.0,x
3029.0,4095.0,1410.0,3553.0,3008.0,2406.0,2938.0,2688.0,0.19,9.06,8.25,-0.04,-0.05,-0.16,0.0,x
3043.0,4095.0,1414.0,3556.0,3023.0,2414.0,2946.0,2695.0,0.21,9.02,8.42,-0.02,-0.02,-0.15,0.0,x
3046.0,4095.0,1419.0,3547.0,3006.0,2409.0,2942.0,2692.0,0.26,8.96,8.39,-0.07,-0.03,-0.18,0.0,x
3038.0,4095.0,1419.0,3567.0,3018.0,2411.0,2946.0,2693.0,0.18,9.0,8.4,-0.06,-0.07,-0.19,0.0,x
3041.0,4095.0,1408.0,3539.0,3008.0,2406.0,2943.0,2691.0,0.2,8.85,8.71,-0.09,-0.01,-0.19,0.0,x
3045.0,4095.0,1417.0,3563.0,3017.0,2413.0,2947.0,2691.0,0.19,8.84,8.77,-0.05,-0.06,-0.24,0.0,x
3037.0,4095.0,1408.0,3549.0,3010.0,2407.0,2946.0,2689.0,-0.03,8.82,8.79,-0.04,-0.05,-0.25,0.0,x
3056.0,4095.0,1420.0,3552.0,3008.0,2416.0,2954.0,2699.0,-0.08,8.8,8.83,-0.02,-0.03,-0.19,0.0,x
3033.0,4095.0,1414.0,3547.0,3014.0,2411.0,2943.0,2688.0,-0.05,8.78,8.88,-0.02,-0.01,-0.18,0.0,x
3038.0,4095.0,1404.0,3536.0,3008.0,2413.0,2945.0,2694.0,-0.08,8.75,8.94,-0.01,-0.03,-0.17,0.0,x
3052.0,4095.0,1409.0,3546.0,3008.0,2416.0,2960.0,2694.0,0.05,8.74,8.88,-0.02,-0.04,-0.19,0.0,x
3030.0,4095.0,1419.0,3550.0,3013.0,2406.0,2945.0,2689.0,0.56,8.66,8.82,-0.0,-0.03,-0.28,0.0,x
3049.0,4095.0,1418.0,3546.0,3014.0,2411.0,2957.0,2699.0,-0.37,8.69,9.01,-0.04,-0.19,-0.41,0.0,x
3034.0,4095.0,1418.0,3548.0,3008.0,2407.0,2945.0,2688.0,-0.67,8.64,9.14,-0.05,-0.1,-0.29,0.0,x
3042.0,4095.0,1410.0,3553.0,3018.0,2416.0,2958.0,2698.0,-0.49,8.61,9.18,0.03,-0.02,-0.16,0.0,x
3027.0,4095.0,1409.0,3536.0,3007.0,2406.0,2950.0,2693.0,-0.41,8.67,9.02,0.04,-0.01,-0.16,0.0,x
3045.0,4095.0,1412.0,3555.0,3014.0,2415.0,2953.0,2699.0,-0.52,8.66,9.09,0.06,0.02,-0.12,0.0,x
3036.0,4095.0,1414.0,3546.0,3011.0,2415.0,2951.0,2695.0,-0.38,8.52,9.4,0.14,0.05,-0.05,0.0,x
3051.0,4095.0,1419.0,3551.0,3020.0,2417.0,2955.0,2698.0,-0.16,8.8,8.72,0.19,0.05,-0.09,0.0,x
3046.0,4095.0,1415.0,3552.0,3014.0,2416.0,2947.0,2692.0,-0.11,8.88,8.56,0.15,0.04,-0.13,0.0,x
3041.0,4095.0,1418.0,3543.0,3015.0,2416.0,2957.0,2700.0,-0.5,9.16,7.96,0.09,0.02,-0.13,0.0,x
3029.0,4095.0,1418.0,3550.0,3016.0,2415.0,2955.0,2691.0,-0.48,9.05,8.29,0.07,0.06,-0.09,0.0,x
3045.0,4095.0,1420.0,3550.0,3010.0,2412.0,2953.0,2703.0,-0.62,9.1,8.17,0.17,0.12,0.03,0.0,x
3039.0,4095.0,1407.0,3553.0,3015.0,2411.0,2952.0,2690.0,-0.03,9.24,7.78,0.15,0.14,0.05,0.0,x
3056.0,4095.0,1415.0,3563.0,3015.0,2417.0,2956.0,2699.0,0.13,9.24,7.67,0.13,0.11,-0.03,0.0,x
3035.0,4095.0,1419.0,3544.0,3008.0,2415.0,2953.0,2693.0,-0.29,9.32,7.69,0.12,0.07,-0.07,0.0,x
3047.0,4095.0,1417.0,3551.0,3009.0,2416.0,2960.0,2703.0,0.14,9.39,7.38,0.22,0.19,0.12,0.0,x
3040.0,4095.0,1411.0,3546.0,3011.0,2413.0,2949.0,2690.0,0.56,9.45,7.03,0.13,0.13,-0.02,0.0,x
3047.0,4095.0,1411.0,3551.0,3014.0,2413.0,2947.0,2694.0,0.39,9.53,6.94,0.11,0.05,-0.06,0.0,x
3043.0,4095.0,1408.0,3549.0,3018.0,2411.0,2947.0,2693.0,0.35,9.48,7.14,0.02,-0.01,-0.13,0.0,x
3044.0,4095.0,1418.0,3536.0,3011.0,2414.0,2953.0,2694.0,-0.08,9.49,7.24,0.08,0.06,-0.01,0.0,x
3049.0,4095.0,1414.0,3539.0,3018.0,2416.0,2959.0,2695.0,0.8,9.56,6.84,0.06,0.16,0.06,0.0,x
3035.0,4095.0,1412.0,3541.0,3011.0,2413.0,2947.0,2691.0,1.03,9.54,6.78,0.03,0.03,-0.06,0.0,x
3042.0,4095.0,1412.0,3562.0,3024.0,2419.0,2959.0,2688.0,0.75,9.52,6.93,-0.02,-0.05,-0.14,0.0,x
3045.0,4095.0,1414.0,3548.0,3010.0,2413.0,2955.0,2695.0,0.74,9.46,7.1,-0.05,0.02,-0.13,0.0,x
3038.0,4095.0,1423.0,3563.0,3023.0,2418.0,2960.0,2699.0,0.71,9.5,7.06,-0.07,-0.01,-0.12,0.0,x
3043.0,4095.0,1417.0,3540.0,3015.0,2414.0,2958.0,2695.0,0.82,9.43,7.2,-0.11,0.01,-0.12,0.0,x
3035.0,4095.0,1422.0,3555.0,3021.0,2415.0,2957.0,2695.0,0.57,9.36,7.54,-0.06,0.02,-0.11,0.0,x
3046.0,4095.0,1423.0,3542.0,3012.0,2413.0,2953.0,2694.0,1.02,9.39,7.24,-0.07,0.13,-0.02,0.0,x
3054.0,4095.0,1410.0,3558.0,3022.0,2415.0,2955.0,2692.0,1.07,9.29,7.56,-0.09,0.03,-0.11,0.0,x
3040.0,4095.0,1414.0,3559.0,3015.0,2415.0,2950.0,2695.0,0.89,9.23,7.77,-0.02,-0.05,-0.18,0.0,x
3044.0,4095.0,1423.0,3564.0,3022.0,2425.0,2958.0,2702.0,0.78,9.25,7.74,-0.04,-0.01,-0.12,0.0,x
3041.0,4095.0,1424.0,3552.0,3013.0,2416.0,2954.0,2695.0,1.1,9.15,7.92,-0.03,0.02,-0.11,0.0,x
3043.0,4095.0,1415.0,3566.0,3027.0,2422.0,2960.0,2698.0,1.02,9.14,7.91,-0.05,-0.05,-0.18,0.0,x
3041.0,4095.0,1418.0,3557.0,3015.0,2413.0,2947.0,2691.0,0.94,9.06,8.16,-0.07,-0.01,-0.16,0.0,x
3042.0,4095.0,1421.0,3555.0,3024.0,2418.0,2961.0,2703.0,0.95,9.05,8.22,-0.07,0.01,-0.13,0.0,x
3035.0,4095.0,1413.0,3546.0,3020.0,2416.0,2954.0,2698.0,1.04,9.01,8.29,-0.08,0.0,-0.16,0.0,x
3051.0,4095.0,1410.0,3567.0,3029.0,2423.0,2960.0,2698.0,0.93,8.98,8.37,-0.08,-0.03,-0.19,0.0,x
3046.0,4095.0,1407.0,3553.0,3024.0,2416.0,2962.0,2701.0,1.02,8.91,8.52,-0.05,0.01,-0.18,0.0,x
3033.0,4095.0,1413.0,3552.0,3014.0,2416.0,2953.0,2695.0,0.93,8.93,8.46,-0.03,-0.04,-0.23,0.0,x
3045.0,4095.0,1417.0,3564.0,3025.0,2416.0,2956.0,2704.0,0.8,8.88,8.62,-0.04,-0.04,-0.26,0.0,x
3037.0,4095.0,1413.0,3547.0,3021.0,2418.0,2955.0,2702.0,0.67,8.95,8.47,-0.04,-0.05,-0.25,0.0,x
3047.0,4095.0,1424.0,3563.0,3024.0,2423.0,2960.0,2701.0,0.64,8.88,8.68,-0.05,-0.04,-0.25,0.0,x
3030.0,4095.0,1419.0,3555.0,3024.0,2420.0,2951.0,2698.0,0.53,8.92,8.57,-0.02,-0.05,-0.23,0.0,x
3052.0,4095.0,1419.0,3559.0,3026.0,2423.0,2961.0,2703.0,0.51,8.93,8.49,-0.06,-0.06,-0.22,0.0,x
3033.0,4095.0,1413.0,3557.0,3024.0,2425.0,2957.0,2700.0,0.51,8.88,8.64,-0.07,-0.02,-0.22,0.0,x
3039.0,4095.0,1423.0,3562.0,3023.0,2425.0,2963.0,2704.0,0.43,8.78,8.87,-0.08,-0.09,-0.21,0.0,x
3047.0,4095.0,1407.0,3555.0,3023.0,2416.0,2944.0,2703.0,0.32,8.84,8.82,-0.11,-0.24,-0.2,0.0,x
3050.0,4095.0,1418.0,3554.0,3031.0,2429.0,2955.0,2704.0,0.75,8.6,9.13,-0.08,0.05,-0.1,0.0,x
3051.0,4095.0,1417.0,3538.0,3014.0,2420.0,2946.0,2703.0,0.67,8.58,9.25,-0.0,-0.08,-0.21,0.0,x
3038.0,3051.0,2973.0,3199.0,2891.0,2434.0,2686.0,2363.0,0.71,9.47,7.27,0.01,-0.03,-0.13,0.0,x
3037.0,3053.0,2966.0,3184.0,2887.0,2427.0,2676.0,2359.0,0.91,9.43,7.15,-0.0,-0.04,-0.12,0.0,x
3039.0,3053.0,2981.0,3195.0,2895.0,2427.0,2682.0,2356.0,0.51,9.41,7.41,0.03,0.09,-0.08,0.0,x
3040.0,3058.0,2985.0,3191.0,2895.0,2432.0,2684.0,2362.0,1.19,9.43,7.13,0.07,0.19,0.1,0.0,x
3027.0,3037.0,2967.0,3185.0,2895.0,2428.0,2686.0,2363.0,1.88,9.54,6.46,0.01,0.03,-0.18,0.0,x
3049.0,3046.0,2982.0,3189.0,2899.0,2433.0,2689.0,2369.0,0.76,9.47,7.06,-0.17,0.28,-0.17,0.0,x
3042.0,3037.0,2978.0,3189.0,2896.0,2428.0,2685.0,2366.0,1.41,9.26,7.59,-0.31,0.65,0.08,0.0,x
3043.0,3051.0,2975.0,3207.0,2910.0,2433.0,2689.0,2359.0,1.34,9.25,7.52,-0.05,0.29,-0.28,0.0,x
3030.0,3038.0,2980.0,3198.0,2905.0,2431.0,2691.0,2369.0,0.15,9.33,7.27,-0.4,1.8,0.03,0.0,x
3037.0,3056.0,2981.0,3202.0,2907.0,2430.0,2693.0,2374.0,0.36,9.04,8.01,-0.45,0.34,-0.31,0.0,x
3024.0,3051.0,2976.0,3213.0,2911.0,2431.0,2685.0,2365.0,-1.17,8.63,9.74,-0.18,0.02,-0.35,0.0,x
3053.0,3047.0,2974.0,3209.0,2911.0,2429.0,2689.0,2374.0,-0.21,8.41,9.79,-0.04,-0.06,-0.13,0.0,x
3039.0,3042.0,2967.0,3191.0,2896.0,2419.0,2691.0,2371.0,-0.46,8.53,9.48,0.61,-0.27,-0.42,0.0,x
3033.0,3050.0,2979.0,3205.0,2907.0,2429.0,2694.0,2371.0,0.09,9.22,7.28,0.57,-0.46,-0.36,0.0,x
3033.0,3050.0,2977.0,3214.0,2914.0,2435.0,2698.0,2378.0,-0.81,9.41,7.44,0.29,-0.6,-0.42,0.0,x
3045.0,3056.0,2963.0,3203.0,2901.0,2429.0,2695.0,2373.0,-0.77,9.57,6.84,0.11,-0.44,-0.26,0.0,x
3044.0,3042.0,2969.0,3206.0,2908.0,2439.0,2704.0,2384.0,-0.34,9.77,6.59,0.03,-0.13,-0.06,0.0,x
3028.0,3047.0,2962.0,3206.0,2907.0,2434.0,2704.0,2384.0,0.27,9.18,7.62,-0.31,-0.05,-0.12,0.0,x
3043.0,3056.0,2973.0,3214.0,2911.0,2441.0,2704.0,2384.0,-0.39,9.07,7.57,-0.28,0.17,-0.17,0.0,x
3029.0,3034.0,2970.0,3203.0,2903.0,2433.0,2704.0,2384.0,-1.72,9.0,9.37,-0.56,0.58,0.03,0.0,x
3031.0,3041.0,2972.0,3198.0,2912.0,2442.0,2707.0,2391.0,-0.38,9.92,5.1,0.06,0.16,0.06,0.0,x
3051.0,3044.0,2971.0,3202.0,2922.0,2441.0,2711.0,2399.0,0.37,9.86,5.1,0.05,0.41,0.18,0.0,x
3024.0,3035.0,2963.0,3200.0,2915.0,2441.0,2706.0,2391.0,0.72,9.85,5.16,-0.03,0.17,0.0,0.0,x
3038.0,3041.0,2974.0,3199.0,2926.0,2447.0,2713.0,2399.0,0.66,9.87,5.34,-0.08,0.09,-0.07,0.0,x
3050.0,3051.0,2971.0,3201.0,2913.0,2435.0,2705.0,2398.0,0.67,9.67,5.82,-0.08,-0.04,-0.19,0.0,x
3045.0,3063.0,2986.0,3205.0,2919.0,2450.0,2717.0,2405.0,0.37,9.79,5.69,0.0,-0.07,-0.21,0.0,x
3049.0,3042.0,2963.0,3199.0,2917.0,2442.0,2711.0,2405.0,0.13,9.77,5.82,0.05,-0.18,-0.27,0.0,x
3049.0,3054.0,2992.0,3212.0,2920.0,2438.0,2711.0,2405.0,0.07,9.74,5.88,0.17,0.01,-0.13,0.0,x
3042.0,3043.0,2971.0,3206.0,2922.0,2448.0,2716.0,2410.0,0.6,9.74,5.37,0.21,0.0,-0.18,0.0,x
3034.0,3043.0,2973.0,3205.0,2921.0,2439.0,2706.0,2402.0,0.11,9.91,5.09,0.18,-0.04,-0.17,0.0,x
3041.0,3051.0,2992.0,3215.0,2925.0,2447.0,2710.0,2406.0,0.23,9.89,4.78,0.2,0.02,-0.12,0.0,x
3031.0,3037.0,2965.0,3206.0,2923.0,2439.0,2705.0,2402.0,0.44,9.97,4.45,0.17,0.13,-0.13,0.0,x
3046.0,3047.0,2979.0,3216.0,2928.0,2446.0,2714.0,2407.0,0.19,9.93,4.38,0.08,0.13,-0.13,0.0,x
3043.0,3039.0,2977.0,3214.0,2922.0,2443.0,2706.0,2402.0,0.36,9.97,4.36,-0.07,0.01,-0.14,0.0,x
3041.0,3043.0,2966.0,3211.0,2924.0,2442.0,2717.0,2411.0,0.11,9.93,4.7,-0.11,-0.05,-0.15,0.0,x
3037.0,3048.0,2971.0,3211.0,2925.0,2445.0,2710.0,2401.0,0.35,9.89,4.92,-0.08,0.02,-0.05,0.0,x
3043.0,3056.0,2977.0,3216.0,2924.0,2442.0,2711.0,2410.0,0.59,9.87,4.94,-0.09,0.09,-0.02,0.0,x
3040.0,3056.0,2960.0,3207.0,2918.0,2444.0,2717.0,2411.0,0.78,9.81,5.1,-0.08,0.03,-0.1,0.0,x
3053.0,3047.0,2985.0,3221.0,2927.0,2448.0,2720.0,2413.0,0.75,9.84,5.2,-0.04,-0.02,-0.16,0.0,x
3041.0,3056.0,2973.0,3215.0,2919.0,2442.0,2722.0,2412.0,0.58,9.84,5.31,-0.05,0.0,-0.14,0.0,x
3035.0,3053.0,2962.0,3218.0,2928.0,2439.0,2719.0,2415.0,0.62,9.92,5.33,-0.06,-0.0,-0.09,0.0,x
3054.0,3045.0,2975.0,3234.0,2930.0,2443.0,2721.0,2416.0,0.93,9.79,5.61,-0.12,-0.01,-0.11,0.0,x
3043.0,3045.0,2975.0,3226.0,2931.0,2443.0,2719.0,2413.0,0.88,9.71,5.89,-0.12,-0.03,-0.14,0.0,x
3046.0,3053.0,2969.0,3233.0,2930.0,2447.0,2729.0,2416.0,0.87,9.71,6.09,-0.06,-0.01,-0.14,0.0,x
3035.0,3049.0,2970.0,3231.0,2928.0,2438.0,2721.0,2415.0,0.93,9.62,6.21,0.02,-0.02,-0.17,0.0,x
3031.0,3051.0,2976.0,3229.0,2928.0,2445.0,2725.0,2415.0,0.7,9.77,5.81,0.07,0.01,-0.18,0.0,x
3035.0,3049.0,2982.0,3230.0,2935.0,2448.0,2731.0,2423.0,0.63,9.89,5.54,-0.01,-0.01,-0.15,0.0,x
3029.0,3055.0,2973.0,3229.0,2930.0,2441.0,2718.0,2412.0,0.75,9.76,5.94,-0.07,-0.03,-0.09,0.0,x
3056.0,3057.0,2974.0,3226.0,2939.0,2447.0,2725.0,2421.0,0.97,9.7,6.04,-0.06,-0.02,-0.14,0.0,x
3041.0,3044.0,2964.0,3231.0,2933.0,2442.0,2725.0,2416.0,0.84,9.71,6.09,-0.06,-0.02,-0.15,0.0,x
3054.0,3040.0,2967.0,3229.0,2933.0,2447.0,2730.0,2419.0,0.88,9.66,6.3,-0.04,0.02,-0.12,0.0,x
3042.0,3039.0,2977.0,3236.0,2931.0,2437.0,2729.0,2416.0,1.04,9.65,6.28,0.01,-0.01,-0.16,0.0,x
3041.0,3050.0,2983.0,3243.0,2935.0,2439.0,2731.0,2419.0,0.9,9.68,6.24,0.03,-0.05,-0.21,0.0,x
3040.0,3045.0,2963.0,3233.0,2929.0,2443.0,2727.0,2419.0,0.73,9.76,6.04,0.04,-0.0,-0.18,0.0,x
3053.0,3060.0,2971.0,3244.0,2941.0,2443.0,2725.0,2418.0,0.78,9.76,6.07,0.04,0.02,-0.15,0.0,x
3029.0,3053.0,2966.0,3244.0,2935.0,2440.0,2730.0,2417.0,0.81,9.69,6.13,0.01,0.03,-0.15,0.0,x
3053.0,3057.0,2975.0,3245.0,2934.0,2443.0,2736.0,2427.0,0.81,9.73,6.09,0.01,0.01,-0.15,0.0,x
3039.0,3035.0,2973.0,3247.0,2944.0,2447.0,2735.0,2417.0,0.83,9.72,6.13,-0.03,-0.03,-0.17,0.0,x
3039.0,3035.0,2973.0,3239.0,2933.0,2442.0,2730.0,2416.0,0.8,9.66,6.25,-0.03,-0.03,-0.16,0.0,x
3047.0,3050.0,2980.0,3253.0,2943.0,2443.0,2731.0,2421.0,0.85,9.66,6.34,0.01,0.03,-0.17,0.0,x
3043.0,3058.0,2973.0,3249.0,2939.0,2448.0,2736.0,2429.0,0.62,9.71,6.27,0.03,-0.03,-0.17,0.0,x
3034.0,3045.0,2975.0,3250.0,2937.0,2432.0,2722.0,2416.0,0.57,9.78,6.07,0.03,-0.01,-0.14,0.0,x
3035.0,3049.0,2970.0,3249.0,2944.0,2451.0,2736.0,2421.0,0.63,9.72,6.16,0.0,0.04,-0.1,0.0,x
3043.0,3049.0,2967.0,3248.0,2939.0,2443.0,2732.0,2419.0,0.58,9.66,6.34,0.03,0.05,-0.06,0.0,x
3031.0,3051.0,2985.0,3255.0,2937.0,2439.0,2729.0,2421.0,0.83,9.69,6.19,0.08,0.06,-0.0,0.0,x
3050.0,3044.0,2973.0,3253.0,2944.0,2443.0,2736.0,2428.0,1.13,9.67,6.04,0.03,0.03,-0.07,0.0,x
3035.0,3041.0,2981.0,3248.0,2935.0,2437.0,2731.0,2423.0,1.09,9.71,6.09,-0.02,0.03,-0.08,0.0,x
3033.0,3051.0,2981.0,3264.0,2947.0,2448.0,2736.0,2423.0,1.17,9.64,6.25,-0.01,-0.06,-0.14,0.0,x
3030.0,3043.0,2965.0,3248.0,2941.0,2442.0,2735.0,2421.0,1.19,9.67,6.13,0.04,-0.13,-0.2,0.0,x
3042.0,3039.0,2961.0,3252.0,2943.0,2448.0,2736.0,2425.0,0.94,9.69,6.15,0.03,-0.05,-0.16,0.0,x
3049.0,3047.0,2971.0,3249.0,2927.0,2438.0,2730.0,2423.0,0.9,9.73,6.23,-0.03,-0.35,-0.2,0.0,x
3043.0,3053.0,2985.0,3259.0,2943.0,2448.0,2740.0,2430.0,1.31,9.62,6.23,0.01,-0.25,-0.22,0.0,x
3033.0,3042.0,2973.0,3255.0,2934.0,2440.0,2725.0,2426.0,1.13,9.62,6.26,0.02,-0.46,-0.33,0.0,x
3052.0,3050.0,2978.0,3257.0,2943.0,2450.0,2740.0,2431.0,0.92,9.67,6.13,0.12,-0.17,-0.27,0.0,x
3028.0,3047.0,2960.0,3248.0,2934.0,2443.0,2736.0,2427.0,1.14,9.62,6.25,-0.19,-1.66,-0.6,0.0,x
3043.0,3055.0,2981.0,3262.0,2937.0,2448.0,2737.0,2431.0,0.94,9.67,6.04,0.16,-0.13,-0.23,0.0,x
3040.0,3041.0,2977.0,3264.0,2942.0,2448.0,2736.0,2431.0,0.74,9.79,5.67,0.22,0.33,-0.09,0.0,x
3051.0,3054.0,2976.0,3257.0,2938.0,2448.0,2738.0,2432.0,0.85,9.8,5.59,0.19,0.44,-0.05,0.0,x
3043.0,3056.0,2975.0,3261.0,2938.0,2449.0,2741.0,2436.0,0.9,9.78,5.56,0.16,0.19,-0.16,0.0,x
3035.0,3042.0,2973.0,3261.0,2934.0,2448.0,2734.0,2429.0,0.91,9.81,5.32,0.12,-0.05,-0.28,0.0,x
3037.0,3039.0,2974.0,3269.0,2949.0,2446.0,2736.0,2430.0,0.58,9.77,5.67,-0.06,0.07,-0.1,0.0,x
3042.0,3045.0,2969.0,3269.0,2939.0,2445.0,2735.0,2431.0,0.45,9.69,5.71,0.03,-0.06,-0.17,0.0,x
3034.0,3059.0,2989.0,3273.0,2943.0,2439.0,2737.0,2441.0,0.66,9.86,5.4,-0.12,-0.25,-0.21,0.0,x
3035.0,3031.0,2970.0,3266.0,2943.0,2438.0,2736.0,2432.0,0.29,9.71,5.96,0.04,0.15,-0.15,0.0,x
3050.0,3043.0,2979.0,3270.0,2958.0,2450.0,2746.0,2437.0,0.2,10.04,5.09,0.02,-0.15,-0.23,0.0,x
3041.0,3044.0,2965.0,3269.0,2946.0,2448.0,2739.0,2429.0,0.41,9.74,5.87,-0.01,0.18,-0.11,0.0,x
3041.0,3046.0,2979.0,3264.0,2944.0,2451.0,2750.0,2439.0,0.32,9.82,5.59,0.06,-0.09,-0.21,0.0,x
3045.0,3037.0,2965.0,3268.0,2946.0,2447.0,2746.0,2436.0,0.53,9.8,5.66,-0.05,0.1,-0.12,0.0,x
3055.0,3036.0,2974.0,3269.0,2957.0,2448.0,2750.0,2438.0,0.27,9.66,5.95,0.01,-0.08,-0.2,0.0,x
3035.0,3046.0,2967.0,3271.0,2943.0,2445.0,2738.0,2432.0,0.52,9.82,5.66,-0.06,0.04,-0.12,0.0,x
3035.0,3042.0,2985.0,3279.0,2949.0,2444.0,2742.0,2439.0,0.17,9.66,6.14,0.03,-0.05,-0.18,0.0,x
3043.0,3046.0,2971.0,3271.0,2945.0,2446.0,2742.0,2432.0,0.41,9.83,5.54,0.0,0.01,-0.14,0.0,x
3039.0,3042.0,2978.0,3281.0,2954.0,2450.0,2751.0,2441.0,0.28,9.71,6.05,-0.02,-0.04,-0.13,0.0,x
3045.0,3051.0,2970.0,3270.0,2951.0,2449.0,2751.0,2439.0,0.38,9.8,5.79,0.08,-0.04,-0.16,0.0,x
3045.0,3039.0,2970.0,3267.0,2946.0,2442.0,2741.0,2431.0,0.24,9.83,5.6,0.06,0.01,-0.16,0.0,x
3053.0,3045.0,2983.0,3279.0,2951.0,2443.0,2743.0,2437.0,0.27,9.82,5.63,-0.01,-0.01,-0.12,0.0,x
3034.0,3040.0,2975.0,3270.0,2947.0,2442.0,2742.0,2439.0,0.39,9.75,5.83,-0.02,-0.01,-0.13,0.0,x
3055.0,3044.0,2980.0,3278.0,2946.0,2447.0,2751.0,2447.0,0.39,9.72,5.89,0.01,-0.01,-0.16,0.0,x
3038.0,3029.0,2969.0,3273.0,2948.0,2447.0,2747.0,2441.0,0.36,9.79,5.7,0.05,-0.01,-0.15,0.0,x
3035.0,3047.0,2973.0,3278.0,2958.0,2448.0,2751.0,2448.0,0.38,9.8,5.65,0.03,-0.02,-0.15,0.0,x
3031.0,3039.0,2982.0,3277.0,2948.0,2443.0,2751.0,2447.0,0.24,9.82,5.63,-0.03,-0.01,-0.19,0.0,x
3040.0,3050.0,2967.0,3271.0,2950.0,2447.0,2749.0,2445.0,0.32,9.68,5.93,0.02,0.06,-0.15,0.0,x
3041.0,3046.0,2986.0,3273.0,2950.0,2448.0,2750.0,2446.0,0.34,9.74,5.8,0.04,0.03,-0.11,0.0,x
3039.0,3045.0,2965.0,3265.0,2944.0,2445.0,2747.0,2441.0,0.18,9.78,5.73,0.1,0.04,-0.11,0.0,x
3042.0,3054.0,2982.0,3275.0,2946.0,2449.0,2753.0,2443.0,0.27,9.93,5.32,0.12,0.0,-0.15,0.0,x
3031.0,3049.0,2983.0,3274.0,2935.0,2443.0,2747.0,2441.0,0.32,9.92,5.19,0.06,0.02,-0.12,0.0,x
3053.0,3051.0,2987.0,3274.0,2945.0,2453.0,2753.0,2446.0,0.53,9.9,5.08,0.01,0.08,-0.11,0.0,x
3039.0,3050.0,2965.0,3267.0,2929.0,2445.0,2752.0,2446.0,0.58,9.83,5.41,-0.06,0.06,-0.19,0.0,x
3041.0,3057.0,2981.0,3280.0,2939.0,2452.0,2753.0,2448.0,0.17,9.76,5.8,-0.01,-0.04,-0.21,0.0,x
3044.0,3040.0,2960.0,3266.0,2930.0,2448.0,2753.0,2442.0,0.14,9.85,5.4,0.05,-0.08,-0.21,0.0,x
3047.0,3057.0,2971.0,3276.0,2941.0,2448.0,2752.0,2448.0,0.22,9.9,5.33,0.02,-0.06,-0.16,0.0,x
3044.0,3047.0,2972.0,3273.0,2931.0,2448.0,2750.0,2445.0,0.33,9.85,5.35,0.01,0.0,-0.11,0.0,x
3051.0,3042.0,2978.0,3278.0,2931.0,2451.0,2749.0,2439.0,0.43,9.82,5.54,-0.04,0.03,-0.14,0.0,x
3049.0,3046.0,2981.0,3285.0,2941.0,2448.0,2755.0,2445.0,0.37,9.77,5.63,-0.01,-0.01,-0.18,0.0,x
3042.0,3052.0,2977.0,3274.0,2930.0,2447.0,2753.0,2445.0,0.17,9.82,5.63,-0.01,-0.07,-0.22,0.0,x
3047.0,3051.0,2981.0,3283.0,2933.0,2447.0,2752.0,2447.0,0.06,9.8,5.73,0.04,-0.03,-0.14,0.0,x
3039.0,3037.0,2960.0,3264.0,2930.0,2447.0,2753.0,2446.0,0.17,9.85,5.57,0.11,-0.01,-0.1,0.0,x
3050.0,3045.0,2970.0,3280.0,2938.0,2448.0,2755.0,2451.0,0.65,9.75,5.51,0.08,-0.09,-0.1,0.0,x
3035.0,3036.0,2974.0,3282.0,2939.0,2447.0,2750.0,2445.0,0.88,9.71,5.38,0.12,-0.01,-0.21,0.0,x
3056.0,3037.0,2981.0,3279.0,2943.0,2455.0,2759.0,2449.0,-0.21,9.96,5.31,0.26,0.38,-0.13,0.0,x
3047.0,3035.0,2978.0,3275.0,2933.0,2448.0,2755.0,2448.0,0.62,9.91,4.62,0.0,0.2,-0.19,0.0,x
3037.0,3047.0,2980.0,3282.0,2944.0,2451.0,2757.0,2452.0,0.37,9.88,4.77,-0.04,0.14,-0.18,0.0,x
3033.0,3038.0,2974.0,3278.0,2939.0,2452.0,2759.0,2450.0,0.33,9.88,4.91,0.0,-0.08,-0.19,0.0,x
3042.0,3050.0,2975.0,3287.0,2945.0,2453.0,2761.0,2453.0,0.43,9.84,4.86,-0.01,-0.14,-0.2,0.0,x
3051.0,3043.0,2970.0,3279.0,2937.0,2448.0,2752.0,2449.0,0.54,9.86,4.82,-0.01,-0.46,-0.32,0.0,x
3051.0,3047.0,2974.0,3282.0,2940.0,2448.0,2761.0,2448.0,0.18,9.94,4.64,0.01,0.09,-0.21,0.0,x
3031.0,3050.0,2977.0,3283.0,2943.0,2448.0,2755.0,2448.0,0.03,9.9,4.86,-0.02,0.03,-0.15,0.0,x
3043.0,3037.0,2972.0,3294.0,2949.0,2448.0,2761.0,2449.0,0.17,9.91,4.92,-0.03,-0.03,-0.14,0.0,x
3038.0,3047.0,2965.0,3281.0,2943.0,2446.0,2752.0,2448.0,0.34,9.91,4.87,-0.02,-0.01,-0.14,0.0,x
3045.0,3055.0,2983.0,3289.0,2946.0,2450.0,2755.0,2447.0,0.21,9.87,5.02,-0.02,-0.01,-0.18,0.0,x
3047.0,3045.0,2973.0,3285.0,2945.0,2451.0,2761.0,2453.0,0.13,9.87,5.08,0.0,-0.04,-0.17,0.0,x
3026.0,3034.0,2970.0,3283.0,2944.0,2448.0,2757.0,2448.0,0.12,9.87,5.03,0.02,0.01,-0.15,0.0,x
3025.0,3056.0,2980.0,3293.0,2942.0,2449.0,2763.0,2453.0,0.17,9.91,4.98,-0.0,-0.01,-0.18,0.0,x
3052.0,3041.0,2976.0,3276.0,2911.0,2447.0,2754.0,2448.0,0.19,9.85,5.07,-0.01,-0.04,-0.18,0.0,x
3039.0,3055.0,2979.0,3287.0,2905.0,2448.0,2766.0,2457.0,0.11,9.88,5.12,0.01,-0.0,-0.14,0.0,x
3043.0,3037.0,2964.0,3279.0,2866.0,2451.0,2757.0,2454.0,0.09,9.89,5.04,-0.02,-0.02,-0.15,0.0,x
3059.0,3058.0,2974.0,3281.0,2878.0,2448.0,2762.0,2457.0,0.14,9.89,5.05,0.0,-0.03,-0.14,0.0,x
3026.0,3037.0,2976.0,3279.0,2869.0,2448.0,2763.0,2451.0,0.22,9.9,5.1,-0.01,-0.02,-0.14,0.0,x
3043.0,3041.0,2976.0,3287.0,2881.0,2459.0,2767.0,2453.0,0.12,9.83,5.23,0.01,0.05,-0.13,0.0,x
3035.0,3041.0,2971.0,3278.0,2876.0,2448.0,2762.0,2448.0,0.24,9.85,5.15,0.01,-0.01,-0.12,0.0,x
3045.0,3043.0,2982.0,3312.0,2915.0,2459.0,2768.0,2455.0,1.39,9.54,6.64,-0.09,-0.01,-0.1,0.0,x
3041.0,3037.0,2974.0,3302.0,2898.0,2450.0,2766.0,2455.0,1.46,9.5,6.77,-0.05,0.01,-0.15,0.0,x
3049.0,3056.0,2961.0,3309.0,2912.0,2458.0,2769.0,2461.0,1.29,9.43,6.97,0.01,0.01,-0.2,0.0,x
3033.0,3043.0,2974.0,3295.0,2905.0,2458.0,2768.0,2453.0,1.13,9.48,6.92,0.08,0.03,-0.2,0.0,x
3051.0,3055.0,2990.0,3312.0,2909.0,2459.0,2768.0,2451.0,1.04,9.57,6.72,0.1,-0.01,-0.23,0.0,x
3042.0,3037.0,2990.0,3303.0,2905.0,2455.0,2768.0,2450.0,1.11,9.65,6.4,0.1,-0.01,-0.24,0.0,x
3041.0,3037.0,2970.0,3311.0,2910.0,2460.0,2775.0,2464.0,0.95,9.67,6.36,0.1,-0.02,-0.26,0.0,x
3039.0,3039.0,2982.0,3305.0,2919.0,2461.0,2775.0,2458.0,0.7,9.66,6.4,0.07,-0.0,-0.24,0.0,x
3030.0,3053.0,2962.0,3302.0,2909.0,2451.0,2768.0,2457.0,0.62,9.71,6.35,0.03,-0.01,-0.17,0.0,x
3042.0,3040.0,2983.0,3311.0,2914.0,2462.0,2775.0,2463.0,0.8,9.65,6.32,0.0,-0.01,-0.13,0.0,x
3034.0,3037.0,2969.0,3301.0,2912.0,2460.0,2773.0,2459.0,0.85,9.68,6.3,-0.01,-0.04,-0.15,0.0,x
3047.0,3060.0,2981.0,3312.0,2909.0,2455.0,2777.0,2467.0,0.81,9.67,6.31,0.0,-0.04,-0.16,0.0,x
3033.0,3040.0,2965.0,3301.0,2915.0,2454.0,2769.0,2459.0,0.62,9.61,6.64,-0.01,0.02,-0.13,0.0,x
3053.0,3049.0,2974.0,3311.0,2922.0,2462.0,2781.0,2464.0,0.91,9.61,6.44,-0.08,-0.04,-0.08,0.0,x
3031.0,3051.0,2978.0,3307.0,2922.0,2454.0,2768.0,2462.0,1.07,9.63,6.47,-0.04,-0.01,-0.11,0.0,x
3041.0,3051.0,2973.0,3314.0,2940.0,2469.0,2775.0,2463.0,0.9,9.61,6.67,-0.04,-0.07,-0.14,0.0,x
3028.0,3035.0,2977.0,3309.0,2930.0,2451.0,2768.0,2455.0,1.02,9.53,6.77,0.02,-0.1,-0.2,0.0,x
3056.0,3049.0,2977.0,3312.0,2930.0,2453.0,2771.0,2465.0,0.91,9.53,6.67,0.06,-0.13,-0.17,0.0,x
3049.0,3039.0,2974.0,3312.0,2929.0,2452.0,2778.0,2469.0,0.97,9.54,6.69,0.03,-0.19,-0.2,0.0,x
3043.0,3039.0,2975.0,3307.0,2927.0,2448.0,2769.0,2461.0,1.16,9.58,6.5,0.04,-0.15,-0.18,0.0,x
3045.0,3043.0,2976.0,3321.0,2960.0,2454.0,2772.0,2466.0,0.99,9.63,6.49,0.05,-0.02,-0.15,0.0,x
3037.0,3046.0,2975.0,3319.0,2957.0,2454.0,2770.0,2467.0,0.77,9.65,6.41,0.03,0.01,-0.16,0.0,x
3041.0,3033.0,2973.0,3327.0,2958.0,2458.0,2778.0,2470.0,0.8,9.67,6.34,0.01,-0.01,-0.15,0.0,x
3038.0,3046.0,2972.0,3322.0,2954.0,2448.0,2769.0,2463.0,0.81,9.68,6.32,-0.01,-0.05,-0.18,0.0,x
3051.0,3041.0,2969.0,3332.0,2961.0,2450.0,2772.0,2462.0,0.76,9.63,6.56,-0.07,-0.06,-0.16,0.0,x
3051.0,3037.0,2971.0,3325.0,2960.0,2460.0,2781.0,2478.0,0.69,9.57,6.76,0.02,-0.01,-0.11,0.0,x
3031.0,3049.0,2965.0,3322.0,2953.0,2448.0,2771.0,2467.0,0.73,9.59,6.68,0.03,-0.03,-0.1,0.0,x
3048.0,3037.0,2966.0,3327.0,2963.0,2461.0,2779.0,2471.0,1.15,9.62,6.41,0.13,-0.0,-0.09,0.0,x
3037.0,3035.0,2964.0,3325.0,2959.0,2453.0,2773.0,2465.0,0.97,9.67,6.29,0.05,-0.03,-0.2,0.0,x
3035.0,3044.0,2963.0,3333.0,2970.0,2459.0,2783.0,2470.0,0.81,9.67,6.33,-0.02,-0.0,-0.2,0.0,x
3046.0,3045.0,2976.0,3322.0,2960.0,2457.0,2777.0,2470.0,0.72,9.61,6.54,-0.02,-0.05,-0.14,0.0,x
3033.0,3038.0,2981.0,3337.0,2965.0,2459.0,2787.0,2477.0,0.94,9.6,6.52,0.03,-0.03,-0.13,0.0,x
3024.0,3031.0,2964.0,3330.0,2960.0,2463.0,2775.0,2467.0,0.95,9.67,6.34,0.02,0.02,-0.18,0.0,x
3054.0,3056.0,2986.0,3335.0,2966.0,2463.0,2786.0,2475.0,0.7,9.69,6.38,-0.01,0.05,-0.16,0.0,x
3033.0,3045.0,2964.0,3327.0,2960.0,2455.0,2784.0,2475.0,0.81,9.59,6.61,-0.04,0.06,-0.12,0.0,x
3050.0,3044.0,2974.0,3344.0,2973.0,2459.0,2786.0,2476.0,1.09,9.58,6.59,0.02,-0.0,-0.17,0.0,x
3041.0,3046.0,2975.0,3343.0,2965.0,2455.0,2785.0,2473.0,0.83,9.51,6.8,0.02,-0.01,-0.2,0.0,x
3025.0,3027.0,2975.0,3331.0,2965.0,2455.0,2780.0,2469.0,0.58,9.62,6.52,0.05,-0.05,-0.22,0.0,x
3040.0,3045.0,2973.0,3335.0,2971.0,2459.0,2785.0,2480.0,0.65,9.78,6.08,0.03,-0.03,-0.17,0.0,x
3042.0,3041.0,2973.0,3327.0,2961.0,2452.0,2783.0,2473.0,0.57,9.68,6.41,-0.04,-0.01,-0.18,0.0,x
3049.0,3037.0,2965.0,3335.0,2965.0,2454.0,2780.0,2474.0,0.79,9.57,6.74,0.07,-0.02,-0.09,0.0,x
3036.0,3054.0,2986.0,3344.0,2970.0,2461.0,2786.0,2480.0,0.82,9.68,6.36,0.08,0.04,-0.12,0.0,x
3042.0,3046.0,2971.0,3340.0,2966.0,2458.0,2781.0,2475.0,0.77,9.56,6.59,0.13,0.03,-0.13,0.0,x
3043.0,3047.0,2967.0,3332.0,2967.0,2454.0,2784.0,2480.0,0.78,9.74,6.18,0.1,0.07,-0.16,0.0,x
3056.0,3051.0,2969.0,3343.0,2975.0,2460.0,2789.0,2482.0,0.71,9.74,6.13,-0.05,0.06,-0.22,0.0,x
3033.0,3044.0,2975.0,3343.0,2975.0,2459.0,2784.0,2474.0,0.59,9.68,6.44,-0.07,0.01,-0.18,0.0,x
3042.0,3052.0,2969.0,3347.0,2979.0,2464.0,2789.0,2478.0,0.6,9.6,6.64,-0.1,-0.03,-0.21,0.0,x
3042.0,3045.0,2969.0,3338.0,2966.0,2453.0,2781.0,2473.0,0.52,9.49,6.94,-0.06,-0.06,-0.2,0.0,x
3047.0,3039.0,2966.0,3344.0,2969.0,2465.0,2791.0,2485.0,0.45,9.55,6.85,0.03,-0.07,-0.21,0.0,x
3045.0,3036.0,2974.0,3337.0,2970.0,2463.0,2787.0,2479.0,0.4,9.58,6.73,0.06,0.0,-0.15,0.0,x
3045.0,3049.0,2981.0,3343.0,2970.0,2462.0,2792.0,2483.0,0.5,9.66,6.48,0.04,-0.0,-0.13,0.0,x
3027.0,3039.0,2970.0,3341.0,2967.0,2460.0,2781.0,2475.0,0.52,9.63,6.59,-0.0,-0.0,-0.14,0.0,x
3047.0,3059.0,2986.0,3353.0,2977.0,2461.0,2783.0,2480.0,0.52,9.6,6.7,-0.04,-0.07,-0.17,0.0,x
3041.0,3043.0,2964.0,3339.0,2971.0,2457.0,2784.0,2480.0,0.59,9.56,6.8,-0.02,-0.03,-0.17,0.0,x
3035.0,3050.0,2972.0,3353.0,2980.0,2468.0,2787.0,2480.0,0.49,9.56,6.83,0.0,-0.02,-0.18,0.0,x
3039.0,3055.0,2982.0,3351.0,2976.0,2464.0,2789.0,2480.0,0.41,9.55,6.81,0.01,-0.0,-0.18,0.0,x
3039.0,3030.0,2973.0,3340.0,2965.0,2463.0,2784.0,2479.0,0.37,9.62,6.71,0.01,-0.02,-0.16,0.0,x
3047.0,3043.0,2989.0,3345.0,2975.0,2467.0,2789.0,2479.0,0.47,9.55,6.85,-0.02,-0.01,-0.14,0.0,x
3033.0,3039.0,2976.0,3344.0,2967.0,2461.0,2784.0,2477.0,0.5,9.55,6.88,0.02,-0.0,-0.15,0.0,x
3055.0,3051.0,2975.0,3343.0,2970.0,2465.0,2795.0,2489.0,0.43,9.52,6.87,0.03,-0.01,-0.14,0.0,x
3034.0,3035.0,2961.0,3337.0,2966.0,2463.0,2789.0,2480.0,0.53,9.53,6.71,0.0,-0.0,-0.16,0.0,x
3056.0,3044.0,2977.0,3346.0,2981.0,2470.0,2796.0,2481.0,0.53,9.57,6.79,0.03,-0.0,-0.13,0.0,x
3041.0,3046.0,2982.0,3337.0,2977.0,2463.0,2784.0,2480.0,0.61,9.59,6.66,0.08,0.0,-0.12,0.0,x
3031.0,3045.0,2974.0,3350.0,2976.0,2468.0,2783.0,2480.0,0.61,9.64,6.54,0.03,0.08,-0.06,0.0,x
3039.0,3049.0,2977.0,3344.0,2970.0,2461.0,2784.0,2478.0,0.97,9.64,6.5,-0.02,0.04,-0.1,0.0,x
3051.0,3041.0,2962.0,3344.0,2973.0,2465.0,2796.0,2486.0,0.74,9.58,6.7,-0.02,0.01,-0.15,0.0,x
3043.0,3035.0,2975.0,3341.0,2971.0,2463.0,2790.0,2480.0,0.68,9.62,6.7,-0.0,0.03,-0.13,0.0,x
3040.0,3043.0,2992.0,3345.0,2962.0,2462.0,2791.0,2485.0,0.84,9.59,6.61,-0.02,0.03,-0.12,0.0,x
3046.0,3035.0,2970.0,3341.0,2950.0,2457.0,2785.0,2480.0,0.79,9.57,6.76,-0.07,0.01,-0.15,0.0,x
3035.0,3037.0,2973.0,3344.0,2962.0,2469.0,2789.0,2482.0,0.76,9.52,6.95,-0.07,0.03,-0.15,0.0,x
3031.0,3048.0,2966.0,3345.0,2963.0,2476.0,2799.0,2481.0,0.82,9.47,7.1,-0.08,0.01,-0.16,0.0,x
3033.0,3042.0,2975.0,3344.0,2960.0,2462.0,2788.0,2477.0,0.8,9.43,7.15,-0.04,-0.01,-0.18,0.0,x
3043.0,3051.0,2978.0,3353.0,2961.0,2467.0,2795.0,2483.0,0.73,9.46,7.16,-0.04,-0.01,-0.18,0.0,x
3039.0,3050.0,2966.0,3344.0,2960.0,2462.0,2789.0,2479.0,0.56,9.42,7.3,0.02,0.0,-0.16,0.0,x
3039.0,3056.0,2987.0,3348.0,2965.0,2464.0,2790.0,2479.0,0.69,9.47,7.12,0.02,-0.0,-0.13,0.0,x
3041.0,3046.0,2974.0,3343.0,2958.0,2461.0,2786.0,2479.0,0.8,9.44,7.11,0.02,0.0,-0.15,0.0,x
3042.0,3040.0,2981.0,3351.0,2966.0,2470.0,2797.0,2480.0,0.76,9.45,7.11,0.01,-0.01,-0.17,0.0,x
3034.0,3041.0,2969.0,3342.0,2958.0,2464.0,2786.0,2480.0,0.66,9.46,7.17,0.01,0.01,-0.15,0.0,x
3043.0,3051.0,2983.0,3349.0,2961.0,2471.0,2794.0,2487.0,0.79,9.5,7.11,-0.08,-0.02,-0.09,0.0,x
3044.0,3039.0,2969.0,3343.0,2962.0,2462.0,2791.0,2479.0,0.84,9.44,7.19,-0.08,0.03,-0.1,0.0,x
3056.0,931.0,3276.0,3376.0,2928.0,2644.0,2906.0,3029.0,1.49,9.13,7.84,-0.04,-0.02,-0.14,0.0,x
3040.0,928.0,3280.0,3376.0,2926.0,2640.0,2896.0,3019.0,1.68,9.05,8.0,-0.02,-0.01,-0.21,0.0,x
3047.0,913.0,3276.0,3389.0,2935.0,2641.0,2897.0,3026.0,1.16,9.19,7.82,0.02,0.07,-0.22,0.0,x
3042.0,913.0,3273.0,3384.0,2926.0,2643.0,2899.0,3023.0,1.05,9.15,7.91,0.05,0.03,-0.16,0.0,x
3042.0,926.0,3280.0,3396.0,2899.0,2639.0,2895.0,3022.0,1.12,9.13,7.94,0.07,0.03,-0.09,0.0,x
3038.0,923.0,3280.0,3406.0,2905.0,2646.0,2903.0,3035.0,1.26,9.17,7.93,0.05,0.01,-0.09,0.0,x
3044.0,917.0,3275.0,3395.0,2909.0,2638.0,2895.0,3023.0,0.92,9.18,7.95,0.11,0.03,0.02,0.0,x
3035.0,912.0,3283.0,3408.0,2921.0,2644.0,2899.0,3026.0,1.88,9.13,7.64,0.1,0.06,0.05,0.0,x
3034.0,917.0,3281.0,3405.0,2921.0,2639.0,2895.0,3024.0,1.95,9.22,7.39,0.12,-0.02,-0.08,0.0,x
3054.0,916.0,3280.0,3399.0,2925.0,2647.0,2901.0,3025.0,1.99,9.21,7.49,-0.02,0.03,-0.08,0.0,x
3045.0,927.0,3280.0,3396.0,2922.0,2640.0,2896.0,3024.0,2.01,9.08,7.78,-0.09,0.01,-0.21,0.0,x
3035.0,915.0,3283.0,3408.0,2928.0,2644.0,2907.0,3031.0,1.54,9.26,7.52,-0.05,0.01,-0.27,0.0,x
3037.0,917.0,3272.0,3405.0,2928.0,2642.0,2901.0,3027.0,1.61,9.07,7.96,-0.05,0.0,-0.22,0.0,x
3036.0,923.0,3280.0,3400.0,2931.0,2646.0,2909.0,3040.0,1.42,9.2,7.72,0.0,-0.0,-0.25,0.0,x
3033.0,930.0,3283.0,3408.0,2933.0,2643.0,2902.0,3024.0,1.36,9.11,7.99,-0.01,-0.0,-0.14,0.0,x
3045.0,925.0,3279.0,3415.0,2943.0,2645.0,2898.0,3024.0,1.47,9.05,8.07,-0.01,-0.02,-0.17,0.0,x
3036.0,914.0,3284.0,3413.0,2944.0,2654.0,2909.0,3034.0,1.41,9.22,7.71,0.01,0.02,-0.08,0.0,x
3031.0,917.0,3267.0,3409.0,2944.0,2649.0,2903.0,3027.0,1.68,8.98,8.19,-0.05,0.02,-0.16,0.0,x
3041.0,915.0,3274.0,3414.0,2950.0,2658.0,2912.0,3039.0,1.3,9.29,7.64,0.06,-0.01,-0.19,0.0,x
3041.0,918.0,3279.0,3408.0,2943.0,2647.0,2903.0,3031.0,1.76,9.04,7.93,-0.04,0.02,-0.17,0.0,x
3030.0,921.0,3265.0,3452.0,3450.0,2663.0,2938.0,3039.0,0.83,9.76,6.05,-0.17,0.02,0.1,0.0,x
3043.0,921.0,3280.0,3462.0,3462.0,2670.0,2955.0,3049.0,1.4,9.6,6.28,-0.26,0.03,0.04,0.0,x
3046.0,931.0,3273.0,3447.0,3446.0,2661.0,2941.0,3044.0,1.1,9.43,6.97,-0.27,0.02,-0.1,0.0,x
3033.0,931.0,3271.0,3470.0,3467.0,2671.0,2946.0,3047.0,0.85,9.49,7.05,-0.23,0.05,-0.01,0.0,x
3025.0,927.0,3280.0,3467.0,3456.0,2671.0,2944.0,3041.0,1.2,9.35,7.3,-0.32,0.06,0.05,0.0,x
3046.0,922.0,3281.0,3466.0,3466.0,2671.0,2946.0,3050.0,1.54,9.21,7.56,-0.25,0.07,0.05,0.0,x
3039.0,913.0,3279.0,3460.0,3448.0,2661.0,2940.0,3040.0,1.77,9.02,7.89,-0.33,0.01,0.01,0.0,x
3047.0,927.0,3280.0,3467.0,3465.0,2673.0,2954.0,3056.0,1.75,8.82,8.42,-0.33,0.05,-0.04,0.0,x
3024.0,931.0,3280.0,3466.0,3457.0,2666.0,2955.0,3062.0,1.92,8.61,8.94,-0.25,-0.02,-0.07,0.0,x
3038.0,928.0,3274.0,3458.0,3447.0,2669.0,2950.0,3056.0,1.94,8.56,8.96,-0.03,0.1,-0.09,0.0,x
3046.0,925.0,3287.0,3472.0,3459.0,2672.0,2951.0,3056.0,1.9,8.62,8.85,-0.04,0.04,-0.12,0.0,x
3046.0,931.0,3280.0,3467.0,3447.0,2665.0,2947.0,3053.0,1.75,8.61,8.97,-0.03,0.05,-0.14,0.0,x
3039.0,926.0,3280.0,3472.0,3470.0,2672.0,2957.0,3055.0,1.78,8.6,8.93,0.03,0.01,-0.11,0.0,x
3031.0,917.0,3281.0,3472.0,3470.0,2670.0,2960.0,3056.0,2.0,8.58,8.88,-0.02,0.0,-0.1,0.0,x
3045.0,928.0,3271.0,3465.0,3456.0,2669.0,2957.0,3063.0,2.05,8.54,9.01,0.02,0.01,-0.14,0.0,x
3030.0,929.0,3274.0,3462.0,3462.0,2662.0,2959.0,3058.0,2.01,8.55,8.95,0.05,0.01,-0.19,0.0,x
3053.0,921.0,3287.0,3472.0,3465.0,2672.0,2960.0,3061.0,1.92,8.6,8.83,0.01,0.0,-0.24,0.0,x
3047.0,930.0,3282.0,3470.0,3463.0,2656.0,2949.0,3056.0,1.7,8.65,8.9,0.02,-0.04,-0.23,0.0,x
3051.0,930.0,3280.0,3472.0,3479.0,2670.0,2971.0,3063.0,1.72,8.61,8.9,0.03,-0.02,-0.2,0.0,x
3045.0,915.0,3280.0,3466.0,3467.0,2665.0,2959.0,3059.0,1.59,8.68,8.92,0.06,-0.03,-0.18,0.0,x
3027.0,930.0,3280.0,3472.0,3497.0,2656.0,2963.0,3064.0,1.27,9.42,6.98,0.12,0.03,-0.14,0.0,x
3039.0,916.0,3280.0,3473.0,3504.0,2657.0,2973.0,3067.0,1.35,9.48,6.91,0.15,0.04,-0.13,0.0,x
3027.0,930.0,3277.0,3472.0,3490.0,2651.0,2961.0,3059.0,0.99,9.49,6.98,0.19,0.07,-0.07,0.0,x
3039.0,923.0,3280.0,3482.0,3504.0,2656.0,2978.0,3071.0,1.57,9.46,6.66,0.28,0.15,0.02,0.0,x
3030.0,938.0,3275.0,3470.0,3503.0,2650.0,2967.0,3069.0,1.84,9.62,6.0,0.3,0.11,-0.1,0.0,x
3042.0,918.0,3274.0,3467.0,3489.0,2652.0,2968.0,3066.0,1.9,9.75,5.59,0.21,0.09,-0.25,0.0,x
3054.0,919.0,3287.0,3482.0,3501.0,2655.0,2974.0,3071.0,1.49,9.66,5.91,0.1,0.05,-0.35,0.0,x
3031.0,926.0,3277.0,3444.0,3490.0,2656.0,2973.0,3069.0,0.75,9.73,5.85,0.18,0.01,-0.33,0.0,x
3038.0,931.0,3286.0,3465.0,3503.0,2660.0,2974.0,3068.0,0.77,9.85,5.39,0.17,0.01,-0.25,0.0,x
3035.0,942.0,3277.0,3454.0,3487.0,2653.0,2971.0,3065.0,0.78,9.92,5.13,0.1,0.01,-0.19,0.0,x
3046.0,927.0,3286.0,3466.0,3497.0,2665.0,2982.0,3071.0,0.87,9.96,5.18,-0.01,0.01,-0.13,0.0,x
3025.0,929.0,3274.0,3459.0,3493.0,2660.0,2975.0,3069.0,0.85,9.82,5.41,-0.1,-0.01,-0.13,0.0,x
3034.0,922.0,3287.0,3470.0,3504.0,2661.0,2976.0,3070.0,0.77,9.79,5.63,-0.07,-0.02,-0.1,0.0,x
3041.0,913.0,3271.0,3451.0,3485.0,2651.0,2975.0,3067.0,0.87,9.75,5.8,-0.04,0.03,-0.02,0.0,x
3035.0,922.0,3283.0,3470.0,3506.0,2663.0,2987.0,3081.0,1.25,9.72,5.77,-0.01,0.04,-0.0,0.0,x
3041.0,921.0,3277.0,3470.0,3482.0,2656.0,2973.0,3068.0,1.38,9.75,5.71,-0.02,0.03,-0.02,0.0,x
3050.0,934.0,3295.0,3479.0,3482.0,2654.0,2972.0,3069.0,1.57,9.72,5.63,-0.08,-0.03,-0.06,0.0,x
3050.0,921.0,3285.0,3472.0,3490.0,2654.0,2991.0,3087.0,1.44,9.72,5.76,-0.1,-0.03,-0.12,0.0,x
3037.0,941.0,3291.0,3472.0,3489.0,2661.0,2980.0,3061.0,1.56,9.73,5.83,-0.13,-0.04,-0.08,0.0,x
3047.0,928.0,3279.0,3485.0,3499.0,2663.0,2982.0,3069.0,1.55,9.62,6.14,-0.15,-0.03,-0.05,0.0,x
3040.0,932.0,3287.0,3475.0,3494.0,2653.0,2988.0,3071.0,2.21,9.38,6.92,-0.16,-0.05,-0.07,0.0,x
3057.0,921.0,3280.0,3475.0,3493.0,2656.0,2996.0,3088.0,2.24,9.28,7.15,-0.24,-0.03,-0.08,0.0,x
3035.0,919.0,3282.0,3478.0,3486.0,2647.0,2987.0,3071.0,2.32,9.12,7.42,-0.23,-0.11,-0.14,0.0,x
3039.0,931.0,3279.0,3487.0,3504.0,2655.0,2995.0,3086.0,2.48,9.01,7.75,-0.22,-0.04,-0.17,0.0,x
3029.0,924.0,3292.0,3487.0,3505.0,2658.0,2992.0,3083.0,2.34,8.87,8.16,-0.14,-0.04,-0.2,0.0,x
3043.0,928.0,3279.0,3475.0,3494.0,2652.0,2993.0,3071.0,2.21,8.86,8.21,-0.08,-0.06,-0.19,0.0,x
3046.0,928.0,3295.0,3491.0,3494.0,2649.0,2992.0,3081.0,2.32,8.91,8.05,-0.02,-0.02,-0.16,0.0,x
3041.0,934.0,3282.0,3479.0,3490.0,2643.0,2989.0,3071.0,2.21,8.95,8.0,-0.02,-0.03,-0.15,0.0,x
3041.0,919.0,3286.0,3490.0,3504.0,2651.0,2993.0,3086.0,2.18,8.9,8.12,-0.01,-0.02,-0.12,0.0,x
3041.0,928.0,3290.0,3486.0,3495.0,2645.0,2992.0,3067.0,2.18,8.79,8.33,0.03,-0.04,-0.09,0.0,x
3046.0,924.0,3281.0,3489.0,3507.0,2655.0,2995.0,3087.0,2.42,8.88,8.12,0.07,-0.03,-0.04,0.0,x
3043.0,926.0,3287.0,3483.0,3493.0,2647.0,2992.0,3067.0,2.83,8.9,7.85,0.07,0.03,-0.08,0.0,x
3033.0,922.0,3278.0,3503.0,3507.0,2653.0,2998.0,3085.0,2.81,8.83,7.97,0.05,-0.09,-0.21,0.0,x
3041.0,918.0,3280.0,3483.0,3491.0,2650.0,2994.0,3067.0,2.59,8.9,7.92,0.08,0.02,-0.24,0.0,x
3052.0,931.0,3279.0,3502.0,3499.0,2655.0,2999.0,3083.0,2.45,9.03,7.76,0.04,-0.0,-0.3,0.0,x
3038.0,926.0,3281.0,3490.0,3499.0,2651.0,2993.0,3066.0,2.18,9.07,7.75,0.0,-0.0,-0.28,0.0,x
3046.0,922.0,3285.0,3493.0,3490.0,2651.0,2995.0,3070.0,2.18,9.04,7.84,-0.0,0.03,-0.29,0.0,x
3034.0,929.0,3301.0,3497.0,3505.0,2655.0,2995.0,3071.0,2.04,9.02,7.91,0.02,0.01,-0.29,0.0,x
3046.0,936.0,3273.0,3494.0,3495.0,2645.0,2992.0,3071.0,1.96,9.05,7.92,0.01,-0.02,-0.33,0.0,x
3035.0,937.0,3280.0,3504.0,3504.0,2658.0,3001.0,3083.0,1.63,9.09,7.95,0.02,-0.01,-0.35,0.0,x
3033.0,929.0,3281.0,3495.0,3497.0,2652.0,2997.0,3087.0,1.02,9.2,7.88,-0.0,-0.04,-0.28,0.0,x
3043.0,932.0,3283.0,3506.0,3504.0,2658.0,2996.0,3086.0,0.86,9.11,7.95,-0.01,-0.02,-0.33,0.0,x
3041.0,935.0,3281.0,3509.0,3497.0,2653.0,2991.0,3086.0,0.51,9.13,8.1,-0.01,-0.03,-0.3,0.0,x
3044.0,922.0,3280.0,3503.0,3501.0,2653.0,2992.0,3071.0,0.41,9.1,8.15,0.02,0.02,-0.27,0.0,x
3045.0,935.0,3295.0,3518.0,3504.0,2654.0,2994.0,3088.0,0.29,9.13,8.09,0.07,0.01,-0.27,0.0,x
3045.0,931.0,3290.0,3505.0,3498.0,2647.0,2992.0,3086.0,0.22,9.18,7.98,0.05,-0.0,-0.25,0.0,x
3027.0,928.0,3292.0,3524.0,3507.0,2656.0,2995.0,3085.0,0.15,9.19,7.89,0.06,-0.01,-0.25,0.0,x
3037.0,934.0,3275.0,3506.0,3498.0,2652.0,2998.0,3084.0,-0.05,9.27,7.89,0.03,-0.02,-0.22,0.0,x
3049.0,927.0,3299.0,3516.0,3504.0,2651.0,2996.0,3086.0,-0.04,9.23,7.88,0.01,0.0,-0.18,0.0,x
3037.0,921.0,3277.0,3510.0,3495.0,2653.0,3002.0,3088.0,0.0,9.19,7.99,0.02,0.04,-0.14,0.0,x
3043.0,929.0,3291.0,3514.0,3502.0,2650.0,3003.0,3094.0,0.18,9.19,7.92,0.02,-0.04,-0.2,0.0,x
3024.0,919.0,3280.0,3509.0,3498.0,2651.0,2994.0,3085.0,-0.09,9.21,7.97,0.04,-0.02,-0.2,0.0,x
3053.0,925.0,3280.0,3517.0,3514.0,2656.0,3006.0,3088.0,-0.19,9.26,7.83,0.04,-0.0,-0.16,0.0,x
3034.0,922.0,3270.0,3504.0,3498.0,2653.0,3008.0,3095.0,-0.11,9.19,7.97,0.01,0.0,-0.1,0.0,x
3046.0,926.0,3285.0,3510.0,3491.0,2652.0,2995.0,3085.0,-0.04,9.19,8.03,0.09,0.03,-0.05,0.0,x
3050.0,923.0,3285.0,3514.0,3504.0,2655.0,3010.0,3101.0,0.21,9.2,7.84,0.11,0.03,-0.07,0.0,x
3044.0,932.0,3276.0,3504.0,3493.0,2650.0,3003.0,3088.0,0.51,9.29,7.53,0.06,0.03,-0.16,0.0,x
3045.0,927.0,3296.0,3522.0,3504.0,2651.0,2999.0,3089.0,0.06,9.24,7.78,0.07,-0.03,-0.24,0.0,x
3039.0,921.0,3287.0,3510.0,3503.0,2655.0,3007.0,3086.0,0.0,9.31,7.6,0.1,-0.02,-0.21,0.0,x
3029.0,932.0,3283.0,3521.0,3505.0,2656.0,3003.0,3088.0,-0.1,9.38,7.48,0.1,-0.03,-0.21,0.0,x
3030.0,933.0,3286.0,3519.0,3499.0,2653.0,2999.0,3083.0,0.23,9.39,7.35,0.01,-0.08,-0.16,0.0,x
3045.0,934.0,3283.0,3527.0,3503.0,2665.0,3011.0,3088.0,-0.09,9.33,7.52,0.04,-0.03,-0.17,0.0,x
3046.0,921.0,3295.0,3531.0,3506.0,2663.0,3005.0,3088.0,-0.05,9.39,7.4,0.06,-0.01,-0.11,0.0,x
3027.0,929.0,3287.0,3527.0,3504.0,2655.0,2999.0,3086.0,0.02,9.41,7.43,0.06,-0.0,-0.07,0.0,x
3054.0,922.0,3294.0,3535.0,3501.0,2661.0,3007.0,3093.0,0.29,9.42,7.26,0.07,0.03,-0.05,0.0,x
3041.0,930.0,3283.0,3523.0,3491.0,2653.0,2998.0,3084.0,0.36,9.44,7.25,0.07,0.02,-0.1,0.0,x
3037.0,923.0,3281.0,3526.0,3504.0,2657.0,3009.0,3098.0,0.35,9.42,7.21,0.09,0.03,-0.12,0.0,x
3031.0,922.0,3287.0,3529.0,3494.0,2651.0,3002.0,3085.0,0.28,9.49,7.0,0.09,0.01,-0.15,0.0,x
3043.0,923.0,3285.0,3535.0,3504.0,2660.0,3008.0,3090.0,0.29,9.56,6.85,0.05,-0.02,-0.17,0.0,x
3038.0,921.0,3291.0,3523.0,3490.0,2655.0,2995.0,3088.0,0.14,9.54,6.99,0.01,0.02,-0.13,0.0,x
3049.0,924.0,3303.0,3536.0,3501.0,2657.0,2997.0,3088.0,0.28,9.49,7.09,0.02,-0.01,-0.12,0.0,x
3037.0,921.0,3280.0,3526.0,3489.0,2655.0,2999.0,3090.0,0.3,9.46,7.07,0.05,0.0,-0.11,0.0,x
3044.0,935.0,3283.0,3536.0,3497.0,2657.0,2999.0,3094.0,0.44,9.53,6.9,0.06,0.01,-0.11,0.0,x
3037.0,935.0,3281.0,3525.0,3502.0,2656.0,3015.0,3099.0,0.43,9.53,6.92,0.02,-0.04,-0.13,0.0,x
3029.0,921.0,3273.0,3525.0,3491.0,2654.0,3004.0,3090.0,0.62,9.56,6.86,0.03,-0.0,-0.11,0.0,x
3039.0,928.0,3287.0,3540.0,3489.0,2664.0,3009.0,3093.0,0.57,9.54,6.86,0.01,-0.0,-0.19,0.0,x
3029.0,930.0,3293.0,3534.0,3470.0,2653.0,2998.0,3091.0,0.28,9.55,6.97,0.01,-0.03,-0.19,0.0,x
3040.0,932.0,3282.0,3536.0,3486.0,2663.0,3008.0,3093.0,0.35,9.47,7.02,0.05,-0.04,-0.16,0.0,x
3043.0,931.0,3277.0,3533.0,3472.0,2655.0,3005.0,3089.0,0.48,9.61,6.8,0.06,-0.01,-0.17,0.0,x
3040.0,925.0,3290.0,3538.0,3472.0,2659.0,3010.0,3094.0,0.53,9.62,6.61,0.03,-0.01,-0.21,0.0,x
3040.0,925.0,3296.0,3549.0,3463.0,2657.0,3008.0,3093.0,-0.01,9.56,6.9,0.02,-0.01,-0.16,0.0,x
3055.0,938.0,3293.0,3536.0,3447.0,2651.0,3003.0,3091.0,-0.02,9.56,6.83,0.04,-0.03,-0.15,0.0,x
3056.0,932.0,3298.0,3536.0,3455.0,2662.0,3019.0,3102.0,0.07,9.61,6.75,-0.01,-0.03,-0.13,0.0,x
3027.0,928.0,3280.0,3535.0,3458.0,2654.0,3008.0,3089.0,0.13,9.53,6.91,-0.02,-0.04,-0.14,0.0,x
3056.0,923.0,3285.0,3543.0,3463.0,2662.0,3019.0,3097.0,0.17,9.51,6.9,-0.02,0.02,-0.13,0.0,x
3043.0,934.0,3290.0,3539.0,3466.0,2660.0,3010.0,3088.0,0.17,9.52,6.96,-0.03,0.0,-0.18,0.0,x
3028.0,924.0,3289.0,3542.0,3470.0,2661.0,3013.0,3090.0,0.04,9.49,7.07,-0.02,-0.02,-0.18,0.0,x
3046.0,922.0,3283.0,3533.0,3448.0,2665.0,3013.0,3090.0,0.03,9.51,7.0,0.0,-0.01,-0.17,0.0,x
3045.0,937.0,3302.0,3552.0,3470.0,2656.0,3010.0,3082.0,-0.02,9.51,7.05,-0.02,-0.0,-0.15,0.0,x
3027.0,925.0,3286.0,3538.0,3463.0,2653.0,3002.0,3071.0,-0.04,9.49,7.09,-0.02,-0.03,-0.14,0.0,x
3044.0,918.0,3279.0,3537.0,3470.0,2663.0,3022.0,3088.0,0.03,9.49,7.13,-0.01,0.0,-0.1,0.0,x
3031.0,919.0,3287.0,3534.0,3459.0,2659.0,3023.0,3101.0,0.25,9.48,7.06,-0.01,-0.02,-0.12,0.0,x
3031.0,914.0,3297.0,3539.0,3461.0,2656.0,3011.0,3091.0,0.13,9.48,7.18,-0.03,-0.03,-0.15,0.0,x
3055.0,928.0,3287.0,3538.0,3468.0,2658.0,3024.0,3107.0,0.07,9.39,7.26,0.02,-0.0,-0.14,0.0,x
3027.0,927.0,3275.0,3538.0,3460.0,2650.0,3010.0,3095.0,0.23,9.48,7.12,-0.01,-0.06,-0.13,0.0,x
3039.0,925.0,3298.0,3548.0,3474.0,2663.0,3024.0,3102.0,0.19,9.45,7.24,-0.02,0.01,-0.11,0.0,x
3031.0,934.0,3289.0,3536.0,3471.0,2655.0,3018.0,3094.0,0.23,9.43,7.28,0.0,-0.0,-0.13,0.0,x
3050.0,935.0,3280.0,3536.0,3472.0,2661.0,3025.0,3102.0,0.24,9.5,7.23,-0.03,-0.03,-0.13,0.0,x
3027.0,937.0,3281.0,3530.0,3463.0,2652.0,3023.0,3099.0,0.24,9.41,7.32,-0.03,0.01,-0.11,0.0,x
3044.0,925.0,3291.0,3537.0,3474.0,2656.0,3019.0,3107.0,0.29,9.38,7.42,-0.03,-0.01,-0.11,0.0,x
3050.0,930.0,3282.0,3536.0,3462.0,2663.0,3030.0,3110.0,0.51,9.32,7.68,-0.06,-0.03,-0.14,0.0,x
3031.0,929.0,3282.0,3534.0,3461.0,2655.0,3021.0,3094.0,0.53,9.24,7.76,-0.06,-0.07,-0.15,0.0,x
3054.0,923.0,3292.0,3541.0,3471.0,2657.0,3030.0,3108.0,0.56,9.2,7.87,-0.02,-0.01,-0.13,0.0,x
3041.0,934.0,3293.0,3536.0,3459.0,2649.0,3025.0,3103.0,0.74,9.22,7.8,-0.04,-0.1,-0.19,0.0,x
3041.0,934.0,3287.0,3543.0,3472.0,2654.0,3029.0,3107.0,0.53,9.19,7.99,-0.04,-0.07,-0.2,0.0,x
3043.0,923.0,3293.0,3538.0,3468.0,2640.0,3040.0,3118.0,0.63,9.19,7.9,-0.03,-0.13,-0.23,0.0,x
3043.0,926.0,3298.0,3549.0,3469.0,2651.0,3054.0,3133.0,0.54,9.14,8.04,-0.06,-0.11,-0.24,0.0,x
3039.0,923.0,3279.0,3545.0,3461.0,2640.0,3054.0,3129.0,0.35,9.09,8.22,0.01,0.0,-0.18,0.0,x
3039.0,925.0,3297.0,3558.0,3478.0,2647.0,3056.0,3134.0,0.38,9.15,8.07,0.05,-0.06,-0.18,0.0,x
3041.0,922.0,3286.0,3545.0,3460.0,2640.0,3055.0,3131.0,0.47,9.23,7.84,0.03,-0.1,-0.18,0.0,x
3051.0,932.0,3290.0,3563.0,3478.0,2649.0,3056.0,3131.0,0.58,9.2,7.87,-0.01,-0.0,-0.15,0.0,x
3046.0,922.0,3280.0,3547.0,3471.0,2655.0,3061.0,3136.0,0.47,9.18,8.02,-0.0,-0.02,-0.17,0.0,x
3043.0,927.0,3307.0,3541.0,3466.0,2645.0,3056.0,3136.0,0.46,9.15,8.03,0.01,0.01,-0.17,0.0,x
3038.0,926.0,3282.0,3559.0,3481.0,2651.0,3062.0,3136.0,0.4,9.17,8.0,0.01,0.0,-0.16,0.0,x
3035.0,927.0,3292.0,3559.0,3471.0,2646.0,3052.0,3132.0,0.49,9.18,8.01,0.0,-0.01,-0.15,0.0,x
3039.0,918.0,3298.0,3567.0,3476.0,2649.0,3055.0,3136.0,0.43,9.13,8.07,0.02,-0.01,-0.17,0.0,x
3043.0,919.0,3283.0,3557.0,3469.0,2645.0,3056.0,3136.0,0.39,9.18,7.96,0.03,0.0,-0.15,0.0,x
3055.0,929.0,3289.0,3568.0,3472.0,2646.0,3060.0,3139.0,0.4,9.17,7.99,0.02,0.0,-0.14,0.0,x
3039.0,919.0,3296.0,3564.0,3472.0,2641.0,3055.0,3143.0,0.53,9.14,8.0,-0.01,-0.01,-0.16,0.0,x
3055.0,938.0,3291.0,3567.0,3468.0,2640.0,3058.0,3155.0,0.41,9.1,8.15,0.0,-0.02,-0.17,0.0,x
3044.0,924.0,3283.0,3563.0,3469.0,2641.0,3098.0,3177.0,0.39,9.19,7.94,0.02,0.0,-0.15,0.0,x
3029.0,923.0,3298.0,3583.0,3477.0,2646.0,3097.0,3181.0,0.39,9.19,7.97,0.0,-0.01,-0.15,0.0,x
3041.0,926.0,3290.0,3574.0,3471.0,2640.0,3094.0,3174.0,0.5,9.13,8.07,-0.01,-0.01,-0.14,0.0,x
3038.0,927.0,3303.0,3579.0,3475.0,2647.0,3106.0,3182.0,0.54,9.1,8.19,-0.0,-0.01,-0.15,0.0,x
3049.0,931.0,3286.0,3571.0,3458.0,2642.0,3093.0,3173.0,0.4,9.1,8.16,0.05,-0.01,-0.16,0.0,x
3050.0,932.0,3287.0,3575.0,3470.0,2651.0,3110.0,3184.0,0.41,9.2,7.96,0.05,0.0,-0.15,0.0,x
3045.0,917.0,3281.0,3571.0,3460.0,2640.0,3088.0,3180.0,0.4,9.25,7.87,0.03,0.01,-0.13,0.0,x
3040.0,919.0,3301.0,3581.0,3472.0,2649.0,3099.0,3185.0,0.48,9.19,7.97,-0.0,-0.0,-0.13,0.0,x
3046.0,924.0,3291.0,3575.0,3468.0,2643.0,3095.0,3174.0,0.49,9.15,8.03,-0.0,-0.01,-0.14,0.0,x
3052.0,931.0,3302.0,3577.0,3472.0,2650.0,3099.0,3179.0,0.5,9.1,8.12,0.01,-0.0,-0.15,0.0,x
3039.0,934.0,3287.0,3573.0,3472.0,2646.0,3093.0,3174.0,0.46,9.13,8.13,0.03,-0.01,-0.16,0.0,x
3041.0,929.0,3301.0,3583.0,3471.0,2645.0,3099.0,3179.0,0.4,9.17,8.03,0.04,-0.02,-0.13,0.0,x
3045.0,928.0,3293.0,3583.0,3473.0,2651.0,3102.0,3179.0,0.53,9.19,7.89,0.04,-0.0,-0.14,0.0,x
3045.0,931.0,3287.0,3568.0,3473.0,2645.0,3094.0,3179.0,0.52,9.2,7.88,0.01,-0.01,-0.16,0.0,x
3047.0,940.0,3303.0,3574.0,3472.0,2650.0,3102.0,3183.0,0.51,9.18,7.92,-0.01,-0.0,-0.16,0.0,x
3040.0,933.0,3287.0,3567.0,3466.0,2642.0,3099.0,3179.0,0.49,9.14,8.13,-0.01,-0.02,-0.15,0.0,x
3040.0,923.0,3290.0,3579.0,3475.0,2651.0,3104.0,3180.0,0.52,9.08,8.19,0.02,0.0,-0.14,0.0,x
3025.0,917.0,3289.0,3568.0,3472.0,2645.0,3101.0,3177.0,0.52,9.14,8.06,0.05,-0.01,-0.14,0.0,x
3037.0,926.0,3306.0,3579.0,3479.0,2652.0,3103.0,3179.0,0.48,9.22,7.91,0.05,-0.01,-0.14,0.0,x
3039.0,935.0,3290.0,3567.0,3470.0,2650.0,3101.0,3177.0,0.53,9.23,7.8,0.03,-0.01,-0.15,0.0,x
3037.0,3467.0,3034.0,3490.0,3301.0,2301.0,2639.0,2509.0,0.06,9.73,6.34,0.25,0.21,-0.2,0.0,x
3046.0,3458.0,3025.0,3482.0,3292.0,2288.0,2634.0,2507.0,-0.34,9.81,6.02,0.15,0.04,-0.03,0.0,x
3043.0,3475.0,3043.0,3503.0,3301.0,2301.0,2643.0,2512.0,0.48,9.69,5.94,0.06,-0.46,0.03,0.0,x
3035.0,3459.0,3024.0,3492.0,3291.0,2290.0,2637.0,2506.0,0.89,9.76,5.79,-0.03,0.26,0.27,0.0,x
3042.0,3471.0,3029.0,3510.0,3312.0,2298.0,2639.0,2507.0,1.63,9.67,5.86,-0.1,-0.29,0.06,0.0,x
3043.0,3468.0,3021.0,3507.0,3303.0,2294.0,2646.0,2512.0,1.64,9.65,6.11,-0.24,-0.01,0.06,0.0,x
3046.0,3457.0,3030.0,3525.0,3316.0,2306.0,2651.0,2512.0,1.78,9.54,6.41,-0.24,-0.04,-0.03,0.0,x
3037.0,3456.0,3032.0,3511.0,3312.0,2299.0,2647.0,2512.0,1.97,9.45,6.72,-0.32,-0.02,-0.08,0.0,x
3045.0,3485.0,3035.0,3525.0,3314.0,2301.0,2651.0,2521.0,2.02,9.26,7.25,-0.37,-0.06,-0.15,0.0,x
3047.0,3470.0,3031.0,3531.0,3322.0,2304.0,2653.0,2519.0,1.95,9.1,7.75,-0.34,-0.01,-0.21,0.0,x
3037.0,3470.0,3034.0,3525.0,3319.0,2307.0,2653.0,2523.0,1.76,9.02,8.03,-0.24,-0.05,-0.29,0.0,x
3043.0,3472.0,3038.0,3534.0,3331.0,2313.0,2665.0,2527.0,1.73,8.92,8.27,-0.21,0.01,-0.32,0.0,x
3035.0,3462.0,3034.0,3516.0,3330.0,2306.0,2656.0,2532.0,1.34,8.84,8.51,-0.19,0.04,-0.28,0.0,x
3053.0,3483.0,3024.0,3504.0,3340.0,2314.0,2667.0,2538.0,1.35,8.88,8.55,-0.15,-0.01,-0.32,0.0,x
3042.0,3472.0,3025.0,3507.0,3344.0,2310.0,2669.0,2544.0,1.11,8.76,8.83,-0.12,0.07,-0.36,0.0,x
3040.0,3475.0,3050.0,3507.0,3350.0,2315.0,2669.0,2544.0,0.74,8.74,8.9,-0.07,0.08,-0.36,0.0,x
3047.0,3477.0,3041.0,3514.0,3344.0,2304.0,2663.0,2544.0,0.5,8.72,9.04,-0.06,0.06,-0.33,0.0,x
3058.0,3478.0,3046.0,3523.0,3354.0,2320.0,2669.0,2544.0,0.24,8.72,9.0,0.01,0.14,-0.27,0.0,x
3036.0,3462.0,3027.0,3518.0,3350.0,2317.0,2670.0,2544.0,0.09,8.76,8.92,0.05,0.09,-0.24,0.0,x
3059.0,3489.0,3026.0,3525.0,3358.0,2320.0,2673.0,2553.0,0.03,8.8,8.84,0.06,0.11,-0.21,0.0,x
3043.0,3491.0,3035.0,3534.0,3355.0,2320.0,2685.0,2558.0,-0.53,8.89,8.57,0.04,0.0,-0.2,0.0,x
3038.0,3456.0,3030.0,3533.0,3359.0,2318.0,2677.0,2554.0,-0.43,8.88,8.65,0.06,0.0,-0.18,0.0,x
3055.0,3479.0,3042.0,3521.0,3363.0,2322.0,2683.0,2559.0,-0.42,8.89,8.52,0.21,0.02,-0.25,0.0,x
3050.0,3476.0,3026.0,3514.0,3350.0,2320.0,2682.0,2555.0,-0.71,9.04,8.09,0.2,0.02,-0.3,0.0,x
3048.0,3475.0,3039.0,3525.0,3363.0,2322.0,2674.0,2555.0,-0.94,9.13,7.86,0.17,-0.02,-0.28,0.0,x
3056.0,3473.0,3038.0,3536.0,3374.0,2320.0,2680.0,2557.0,-0.99,9.12,7.86,0.14,0.0,-0.25,0.0,x
3042.0,3473.0,3032.0,3525.0,3358.0,2317.0,2674.0,2557.0,-1.11,9.2,7.67,0.14,-0.02,-0.25,0.0,x
3053.0,3473.0,3041.0,3545.0,3370.0,2325.0,2679.0,2559.0,-1.21,9.24,7.47,0.11,-0.06,-0.23,0.0,x
3054.0,3470.0,3024.0,3527.0,3365.0,2323.0,2677.0,2558.0,-1.27,9.26,7.46,0.08,-0.0,-0.19,0.0,x
3055.0,3473.0,3033.0,3530.0,3366.0,2325.0,2682.0,2559.0,-1.23,9.24,7.48,0.07,-0.01,-0.18,0.0,x
3034.0,3472.0,3026.0,3529.0,3363.0,2329.0,2679.0,2559.0,-1.24,9.26,7.49,0.08,0.01,-0.18,0.0,x
3047.0,3474.0,3029.0,3546.0,3370.0,2337.0,2685.0,2559.0,-1.23,9.26,7.42,0.07,-0.02,-0.19,0.0,x
3033.0,3474.0,3034.0,3531.0,3363.0,2326.0,2683.0,2559.0,-1.34,9.32,7.27,0.06,-0.14,-0.22,0.0,x
3041.0,3481.0,3033.0,3549.0,3373.0,2325.0,2681.0,2559.0,-1.3,9.27,7.23,0.08,0.06,-0.18,0.0,x
3049.0,3472.0,3027.0,3547.0,3367.0,2323.0,2677.0,2558.0,-1.41,9.34,7.11,0.02,-0.06,-0.17,0.0,x
3051.0,3480.0,3036.0,3565.0,3376.0,2330.0,2683.0,2559.0,-1.42,9.28,7.37,0.01,0.03,-0.13,0.0,x
3050.0,3461.0,3029.0,3567.0,3379.0,2325.0,2679.0,2559.0,-1.29,9.26,7.35,0.05,0.02,-0.13,0.0,x
3047.0,3462.0,3038.0,3547.0,3370.0,2326.0,2685.0,2559.0,-1.26,9.31,7.25,0.07,-0.01,-0.14,0.0,x
3045.0,3479.0,3035.0,3562.0,3376.0,2328.0,2682.0,2559.0,-1.27,9.36,7.15,0.07,-0.0,-0.16,0.0,x
3036.0,3478.0,3039.0,3558.0,3376.0,2327.0,2677.0,2559.0,-1.32,9.34,7.09,0.05,-0.04,-0.18,0.0,x
3029.0,3458.0,3024.0,3612.0,3408.0,2336.0,2697.0,2559.0,-0.89,9.24,7.58,-0.08,0.04,-0.06,0.0,x
3049.0,3475.0,3036.0,3623.0,3407.0,2346.0,2701.0,2559.0,-0.86,9.18,7.77,-0.05,0.01,-0.1,0.0,x
3050.0,3475.0,3022.0,3605.0,3405.0,2341.0,2701.0,2559.0,-0.85,9.13,7.88,-0.03,0.02,-0.13,0.0,x
3039.0,3495.0,3034.0,3623.0,3408.0,2343.0,2702.0,2577.0,-0.86,9.19,7.77,0.01,-0.04,-0.16,0.0,x
3039.0,3475.0,3035.0,3617.0,3400.0,2341.0,2698.0,2559.0,-1.06,9.26,7.58,-0.01,-0.03,-0.14,0.0,x
3056.0,3496.0,3027.0,3623.0,3411.0,2345.0,2701.0,2559.0,-0.91,9.21,7.69,-0.06,0.02,-0.09,0.0,x
3041.0,3472.0,3029.0,3610.0,3399.0,2346.0,2703.0,2559.0,-0.74,9.17,7.85,-0.08,-0.02,-0.08,0.0,x
3058.0,3476.0,3034.0,3632.0,3419.0,2351.0,2703.0,2559.0,-0.67,9.11,7.99,-0.1,0.0,-0.09,0.0,x
3041.0,3479.0,3055.0,3633.0,3415.0,2343.0,2704.0,2559.0,-0.71,9.06,8.14,-0.11,-0.04,-0.11,0.0,x
3038.0,3467.0,3023.0,3620.0,3408.0,2341.0,2702.0,2559.0,-0.63,9.0,8.35,-0.1,-0.06,-0.13,0.0,x
3046.0,3493.0,3043.0,3632.0,3413.0,2342.0,2702.0,2559.0,-0.56,8.95,8.44,-0.05,0.03,-0.12,0.0,x
3045.0,3483.0,3034.0,3613.0,3406.0,2342.0,2704.0,2559.0,-0.68,8.99,8.31,-0.05,-0.03,-0.14,0.0,x
3056.0,3479.0,3035.0,3629.0,3418.0,2351.0,2705.0,2559.0,-0.62,8.97,8.35,-0.08,-0.04,-0.12,0.0,x
3056.0,3472.0,3025.0,3616.0,3409.0,2343.0,2703.0,2559.0,-0.45,8.87,8.53,-0.12,-0.05,-0.11,0.0,x
3047.0,3472.0,3039.0,3614.0,3408.0,2342.0,2703.0,2559.0,-0.46,8.8,8.79,-0.1,-0.03,-0.11,0.0,x
3039.0,3478.0,3035.0,3604.0,3403.0,2340.0,2704.0,2559.0,-0.4,8.75,8.88,-0.06,-0.01,-0.12,0.0,x
3056.0,3489.0,3045.0,3630.0,3411.0,2348.0,2704.0,2582.0,-0.4,8.77,8.84,-0.05,-0.01,-0.13,0.0,x
3043.0,3472.0,3029.0,3611.0,3407.0,2347.0,2704.0,2559.0,-0.56,8.78,8.83,-0.06,-0.03,-0.11,0.0,x
3044.0,3472.0,3041.0,3621.0,3408.0,2351.0,2709.0,2580.0,-0.3,8.68,8.96,-0.14,-0.01,-0.05,0.0,x
3056.0,3483.0,3027.0,3601.0,3397.0,2346.0,2706.0,2559.0,-0.17,8.55,9.25,-0.13,-0.02,-0.08,0.0,x
3056.0,3474.0,3039.0,3627.0,3408.0,2355.0,2715.0,2589.0,-0.42,8.18,9.85,0.16,0.1,-0.23,0.0,x
3050.0,3472.0,3037.0,3613.0,3406.0,2352.0,2711.0,2583.0,-0.01,8.07,9.92,0.24,0.28,-0.24,0.0,x
3057.0,3486.0,3037.0,3633.0,3417.0,2353.0,2717.0,2595.0,-0.91,8.47,9.34,0.37,0.13,-0.36,0.0,x
3051.0,3478.0,3033.0,3637.0,3415.0,2353.0,2710.0,2587.0,-1.87,8.65,8.96,0.31,0.01,-0.21,0.0,x
3031.0,3479.0,3039.0,3648.0,3418.0,2353.0,2719.0,2593.0,-0.94,8.81,8.46,0.14,-0.0,-0.06,0.0,x
3044.0,3470.0,3038.0,3635.0,3408.0,2355.0,2709.0,2588.0,-0.62,8.84,8.6,0.03,0.16,-0.02,0.0,x
3047.0,3486.0,3025.0,3634.0,3417.0,2358.0,2720.0,2592.0,-0.57,8.76,8.73,-0.03,0.14,-0.08,0.0,x
3037.0,3467.0,3031.0,3630.0,3411.0,2354.0,2710.0,2588.0,-0.68,8.7,8.93,-0.02,0.15,-0.16,0.0,x
3056.0,3471.0,3040.0,3654.0,3423.0,2357.0,2726.0,2597.0,-1.08,8.72,8.8,0.03,0.15,-0.15,0.0,x
3030.0,3462.0,3028.0,3645.0,3407.0,2355.0,2709.0,2585.0,-1.25,8.74,8.77,0.05,0.12,-0.11,0.0,x
3056.0,3485.0,3029.0,3666.0,3424.0,2356.0,2716.0,2585.0,-1.34,8.79,8.73,0.05,0.01,-0.04,0.0,x
3053.0,3472.0,3039.0,3650.0,3409.0,2355.0,2716.0,2587.0,-1.19,8.73,8.86,0.07,0.09,0.11,0.0,x
3040.0,3471.0,3037.0,3650.0,3408.0,2352.0,2718.0,2588.0,-0.64,8.82,8.65,0.11,0.19,0.23,0.0,x
3039.0,3470.0,3041.0,3663.0,3425.0,2358.0,2719.0,2587.0,-0.1,8.84,8.63,0.09,0.23,0.23,0.0,x
3044.0,3477.0,3035.0,3649.0,3414.0,2354.0,2721.0,2590.0,0.16,8.94,8.47,0.11,0.09,0.08,0.0,x
3056.0,3466.0,3041.0,3649.0,3419.0,2358.0,2725.0,2595.0,0.1,8.97,8.42,0.14,0.02,0.0,0.0,x
3039.0,3477.0,3025.0,3648.0,3413.0,2352.0,2713.0,2585.0,0.22,9.04,8.26,0.15,-0.05,-0.02,0.0,x
3058.0,3488.0,3035.0,3662.0,3413.0,2355.0,2721.0,2595.0,0.67,9.08,8.12,0.16,-0.02,-0.07,0.0,x
3043.0,3473.0,3035.0,3660.0,3410.0,2363.0,2718.0,2582.0,0.37,9.22,7.89,0.22,-0.12,-0.22,0.0,x
3043.0,3476.0,3037.0,3678.0,3424.0,2354.0,2723.0,2583.0,0.4,9.33,7.42,0.24,-0.21,-0.23,0.0,x
3058.0,3488.0,3033.0,3675.0,3421.0,2362.0,2729.0,2595.0,0.06,9.59,6.75,-0.0,-0.02,-0.22,0.0,x
3047.0,3473.0,3038.0,3665.0,3418.0,2354.0,2723.0,2590.0,-0.18,9.58,6.71,-0.07,0.02,-0.2,0.0,x
3036.0,3462.0,3040.0,3682.0,3430.0,2365.0,2730.0,2591.0,-0.15,9.55,6.89,-0.11,0.0,-0.15,0.0,x
3041.0,3484.0,3027.0,3666.0,3411.0,2356.0,2730.0,2593.0,-0.11,9.41,7.25,-0.08,0.17,-0.11,0.0,x
3047.0,3473.0,3046.0,3674.0,3419.0,2364.0,2730.0,2598.0,-0.12,9.44,7.15,-0.1,-0.11,-0.2,0.0,x
3045.0,3458.0,3026.0,3664.0,3423.0,2359.0,2723.0,2589.0,-0.15,9.35,7.48,-0.13,0.02,-0.16,0.0,x
3051.0,3482.0,3031.0,3679.0,3421.0,2368.0,2732.0,2593.0,-0.25,9.29,7.73,-0.08,-0.0,-0.14,0.0,x
3050.0,3471.0,3035.0,3682.0,3426.0,2364.0,2731.0,2597.0,0.01,9.5,7.08,-0.01,-0.09,-0.17,0.0,x
3046.0,3472.0,3029.0,3678.0,3423.0,2367.0,2725.0,2588.0,0.19,9.31,7.51,-0.2,0.02,-0.21,0.0,x
3055.0,3489.0,3028.0,3677.0,3420.0,2370.0,2733.0,2597.0,-0.44,9.12,8.17,-0.18,-0.02,-0.25,0.0,x
3042.0,3479.0,3032.0,3678.0,3418.0,2365.0,2721.0,2594.0,-0.46,9.2,7.92,-0.1,-0.05,-0.21,0.0,x
3051.0,3469.0,3034.0,3690.0,3421.0,2369.0,2736.0,2599.0,-0.31,9.02,8.31,-0.03,0.02,-0.17,0.0,x
3039.0,3465.0,3024.0,3677.0,3422.0,2369.0,2733.0,2595.0,-0.38,9.16,8.03,-0.0,-0.16,-0.21,0.0,x
3055.0,3479.0,3042.0,3696.0,3427.0,2368.0,2725.0,2598.0,-0.77,9.09,8.35,-0.08,-0.23,-0.2,0.0,x
3030.0,3479.0,3029.0,3685.0,3424.0,2366.0,2725.0,2591.0,-0.28,9.18,7.86,-0.04,-0.23,-0.15,0.0,x
3054.0,3490.0,3039.0,3701.0,3427.0,2369.0,2727.0,2602.0,0.04,9.01,8.18,-0.22,-0.09,-0.17,0.0,x
3051.0,3471.0,3035.0,3663.0,3422.0,2363.0,2727.0,2602.0,-0.2,8.82,8.82,-0.18,0.03,-0.14,0.0,x
3043.0,3485.0,3037.0,3690.0,3433.0,2375.0,2737.0,2602.0,-0.19,8.74,8.96,-0.1,0.12,-0.14,0.0,x
3039.0,3481.0,3024.0,3691.0,3418.0,2374.0,2736.0,2603.0,-0.23,8.69,9.0,-0.13,-0.03,-0.19,0.0,x
3049.0,3487.0,3037.0,3696.0,3433.0,2372.0,2735.0,2592.0,-0.62,8.68,9.18,0.12,0.07,-0.17,0.0,x
3056.0,3487.0,3042.0,3687.0,3437.0,2379.0,2743.0,2608.0,-0.15,8.82,8.88,0.04,0.11,-0.14,0.0,x
3047.0,3472.0,3033.0,3699.0,3438.0,2373.0,2736.0,2599.0,-0.28,8.87,8.68,0.06,-0.06,-0.19,0.0,x
3051.0,3492.0,3031.0,3709.0,3445.0,2377.0,2750.0,2608.0,-0.18,9.01,8.25,-0.02,-0.06,-0.13,0.0,x
3044.0,3479.0,3037.0,3685.0,3434.0,2373.0,2736.0,2605.0,0.12,8.79,8.8,-0.04,0.15,-0.16,0.0,x
3047.0,3499.0,3039.0,3713.0,3436.0,2373.0,2736.0,2607.0,-0.25,8.9,8.49,0.05,-0.1,-0.29,0.0,x
3043.0,3495.0,3036.0,3702.0,3445.0,2381.0,2751.0,2607.0,-0.32,8.73,8.86,-0.09,0.1,-0.16,0.0,x
3051.0,3472.0,3045.0,3699.0,3442.0,2375.0,2738.0,2601.0,-0.47,8.73,9.0,0.01,0.0,-0.17,0.0,x
3041.0,3503.0,3035.0,3697.0,3439.0,2377.0,2741.0,2607.0,-0.39,9.04,8.22,0.04,-0.13,-0.22,0.0,x
3051.0,3472.0,3026.0,3689.0,3440.0,2379.0,2739.0,2598.0,-0.2,8.66,8.94,-0.07,0.22,-0.11,0.0,x
3045.0,3490.0,3031.0,3706.0,3453.0,2383.0,2745.0,2601.0,-0.9,8.81,8.93,0.13,-0.12,-0.18,0.0,x
3037.0,3475.0,3031.0,3698.0,3440.0,2375.0,2742.0,2596.0,-0.08,8.84,8.54,-0.05,0.11,-0.03,0.0,x
3050.0,3478.0,3035.0,3711.0,3447.0,2380.0,2748.0,2606.0,-0.38,8.68,9.18,0.01,0.12,-0.09,0.0,x
3055.0,3485.0,3026.0,3696.0,3440.0,2378.0,2738.0,2597.0,-0.15,9.0,8.19,0.03,-0.3,-0.23,0.0,x
3059.0,3488.0,3031.0,3702.0,3439.0,2383.0,2747.0,2608.0,-0.18,8.71,8.93,-0.01,0.31,-0.11,0.0,x
3045.0,3481.0,3039.0,3705.0,3440.0,2377.0,2736.0,2598.0,-0.64,8.88,8.71,0.07,-0.23,-0.26,0.0,x
3049.0,3499.0,3038.0,3696.0,3440.0,2378.0,2752.0,2608.0,-0.33,8.73,8.76,-0.02,0.17,-0.09,0.0,x
3054.0,3469.0,3024.0,3699.0,3440.0,2383.0,2746.0,2608.0,-0.57,8.72,9.09,0.04,-0.03,-0.14,0.0,x
3051.0,3487.0,3021.0,3690.0,3439.0,2382.0,2749.0,2605.0,-0.07,8.91,8.31,-0.01,-0.07,-0.13,0.0,x
3052.0,3490.0,3041.0,3701.0,3453.0,2384.0,2750.0,2607.0,-0.25,8.71,8.99,-0.01,0.1,-0.18,0.0,x
3052.0,3493.0,3044.0,3700.0,3439.0,2378.0,2745.0,2606.0,-0.28,8.88,8.45,0.03,-0.13,-0.27,0.0,x
3039.0,3475.0,3026.0,3709.0,3435.0,2383.0,2750.0,2606.0,-0.48,8.65,8.94,-0.04,0.14,-0.12,0.0,x
3044.0,3501.0,3053.0,3723.0,3440.0,2384.0,2755.0,2608.0,-0.71,8.72,8.99,0.06,-0.1,-0.18,0.0,x
3051.0,3483.0,3033.0,3714.0,3440.0,2384.0,2751.0,2608.0,-0.41,8.77,8.64,-0.04,0.05,-0.09,0.0,x
3050.0,3488.0,3038.0,3709.0,3438.0,2384.0,2749.0,2608.0,-0.68,8.62,9.28,-0.02,0.03,-0.16,0.0,x
3045.0,3494.0,3030.0,3722.0,3444.0,2385.0,2742.0,2608.0,-0.52,8.88,8.47,0.03,-0.13,-0.19,0.0,x
3038.0,3490.0,3041.0,3709.0,3437.0,2387.0,2747.0,2606.0,-0.67,8.56,9.26,-0.03,0.13,-0.13,0.0,x
3056.0,3506.0,3036.0,3708.0,3437.0,2388.0,2753.0,2608.0,-0.7,8.82,8.75,0.1,-0.14,-0.2,0.0,x
3047.0,3486.0,3037.0,3709.0,3435.0,2384.0,2749.0,2606.0,-0.51,8.66,8.87,-0.05,0.12,-0.1,0.0,x
3043.0,3501.0,3042.0,3724.0,3444.0,2389.0,2753.0,2608.0,-0.68,8.68,9.0,0.05,-0.09,-0.18,0.0,x
3051.0,3498.0,3037.0,3699.0,3437.0,2384.0,2743.0,2607.0,-0.46,8.83,8.57,-0.06,-0.01,-0.15,0.0,x
3055.0,3485.0,3045.0,3723.0,3445.0,2385.0,2755.0,2608.0,-0.7,8.55,9.32,-0.03,0.02,-0.17,0.0,x
3050.0,3487.0,3026.0,3715.0,3435.0,2384.0,2752.0,2608.0,-0.72,8.87,8.44,0.05,-0.14,-0.23,0.0,x
3055.0,3491.0,3047.0,3724.0,3447.0,2391.0,2752.0,2608.0,-0.72,8.49,9.4,-0.07,0.12,-0.14,0.0,x
3037.0,3494.0,3041.0,3707.0,3440.0,2383.0,2752.0,2616.0,-0.77,8.69,8.88,0.1,-0.2,-0.23,0.0,x
3044.0,3482.0,3034.0,3716.0,3440.0,2386.0,2750.0,2606.0,-0.69,8.7,8.85,0.0,0.12,-0.11,0.0,x
3046.0,3509.0,3037.0,3726.0,3442.0,2385.0,2759.0,2617.0,-0.79,8.74,8.87,0.03,-0.05,-0.15,0.0,x
3051.0,3489.0,3029.0,3695.0,3439.0,2387.0,2754.0,2609.0,-0.55,8.56,9.2,-0.04,0.12,-0.12,0.0,x
3049.0,3498.0,3053.0,3728.0,3447.0,2395.0,2755.0,2615.0,-0.88,8.64,9.09,0.07,-0.09,-0.21,0.0,x
3031.0,3493.0,3035.0,3709.0,3439.0,2387.0,2751.0,2608.0,-0.59,8.76,8.64,-0.03,0.01,-0.13,0.0,x
3062.0,3504.0,3043.0,3724.0,3450.0,2397.0,2761.0,2615.0,-0.63,8.58,9.2,-0.02,0.03,-0.19,0.0,x
3057.0,3510.0,3040.0,3711.0,3451.0,2402.0,2766.0,2615.0,-0.31,8.81,8.65,0.04,0.01,-0.07,0.0,x
3056.0,3503.0,3045.0,3739.0,3467.0,2398.0,2764.0,2614.0,-0.43,8.74,8.97,0.03,-0.02,-0.13,0.0,x
3046.0,3504.0,3035.0,3733.0,3456.0,2390.0,2755.0,2608.0,-0.54,8.9,8.5,0.06,-0.01,-0.12,0.0,x
3051.0,3513.0,3041.0,3731.0,3459.0,2401.0,2765.0,2617.0,-0.47,8.7,9.04,-0.02,0.07,-0.08,0.0,x
3049.0,3490.0,3028.0,3728.0,3456.0,2394.0,2756.0,2611.0,-0.4,8.93,8.49,0.09,-0.05,-0.1,0.0,x
3054.0,3514.0,3038.0,3727.0,3460.0,2399.0,2768.0,2619.0,-0.29,8.77,8.89,0.0,0.06,-0.06,0.0,x
3053.0,3498.0,3029.0,3729.0,3454.0,2399.0,2761.0,2612.0,-0.42,8.86,8.72,0.09,-0.05,-0.08,0.0,x
3053.0,3500.0,3053.0,3728.0,3461.0,2397.0,2761.0,2622.0,-0.11,8.89,8.51,0.04,0.01,0.03,0.0,x
3046.0,3490.0,3049.0,3745.0,3470.0,2400.0,2766.0,2615.0,0.13,8.86,8.72,0.05,0.04,-0.02,0.0,x
3044.0,3489.0,3027.0,3725.0,3435.0,2392.0,2759.0,2611.0,0.22,9.05,8.19,0.07,-0.04,-0.07,0.0,x
3047.0,3495.0,3046.0,3741.0,3424.0,2402.0,2768.0,2620.0,0.23,8.85,8.72,0.01,0.04,-0.1,0.0,x
3050.0,3478.0,3031.0,3729.0,3421.0,2399.0,2767.0,2613.0,0.13,9.02,8.44,0.08,-0.04,-0.13,0.0,x
3037.0,3504.0,3051.0,3758.0,3430.0,2397.0,2766.0,2615.0,0.36,8.89,8.54,0.04,-0.01,-0.1,0.0,x
3038.0,3476.0,3041.0,3731.0,3429.0,2394.0,2763.0,2608.0,0.22,9.02,8.39,0.09,-0.08,-0.15,0.0,x
3041.0,3491.0,3039.0,3722.0,3439.0,2389.0,2763.0,2613.0,0.43,9.11,8.12,0.11,-0.07,-0.16,0.0,x
3055.0,3481.0,3037.0,3719.0,3427.0,2384.0,2749.0,2602.0,0.28,9.03,8.32,0.04,-0.01,-0.18,0.0,x
3039.0,3472.0,3051.0,3713.0,3440.0,2387.0,2753.0,2601.0,0.28,9.18,7.89,0.07,-0.05,-0.2,0.0,x
3037.0,3434.0,3029.0,3661.0,3428.0,2363.0,2698.0,2511.0,0.24,9.0,8.41,0.05,-0.01,-0.22,0.0,x
3053.0,3216.0,3021.0,3547.0,3437.0,2352.0,2607.0,2314.0,0.02,9.27,7.91,0.27,-0.15,-0.35,0.0,x
3039.0,3135.0,2991.0,3492.0,3430.0,2352.0,2580.0,2235.0,0.13,9.21,7.84,0.02,-0.0,-0.2,0.0,x
3046.0,3040.0,2975.0,3393.0,3138.0,2401.0,2637.0,2246.0,0.34,9.11,8.1,-0.02,0.01,-0.15,0.0,x
3051.0,3034.0,2981.0,3391.0,3150.0,2399.0,2635.0,2251.0,0.22,9.12,8.13,0.0,-0.04,-0.19,0.0,x
3056.0,3043.0,2979.0,3413.0,3156.0,2401.0,2639.0,2256.0,0.17,9.06,8.21,-0.04,0.03,-0.15,0.0,x
3051.0,3039.0,2979.0,3415.0,3162.0,2394.0,2640.0,2259.0,0.12,9.09,8.3,-0.0,0.0,-0.16,0.0,x
3059.0,3030.0,2981.0,3419.0,3179.0,2407.0,2647.0,2268.0,0.31,9.06,8.17,-0.04,-0.01,-0.16,0.0,x
3042.0,3036.0,2981.0,3421.0,3173.0,2395.0,2640.0,2265.0,0.17,9.04,8.3,0.01,-0.04,-0.21,0.0,x
3039.0,3037.0,2977.0,3440.0,3193.0,2402.0,2642.0,2265.0,0.13,8.99,8.4,-0.04,0.03,-0.2,0.0,x
3050.0,3038.0,2983.0,3426.0,3177.0,2401.0,2639.0,2271.0,-0.11,9.01,8.39,0.01,-0.03,-0.19,0.0,x
3051.0,3035.0,2984.0,3440.0,3193.0,2406.0,2651.0,2286.0,0.12,9.05,8.17,0.03,0.04,-0.14,0.0,x
3051.0,3041.0,2983.0,3439.0,3193.0,2407.0,2652.0,2287.0,0.13,8.99,8.4,-0.16,-0.04,-0.2,0.0,x
3054.0,3037.0,2981.0,3439.0,3193.0,2411.0,2651.0,2283.0,-0.25,8.95,8.51,-0.01,-0.01,-0.17,0.0,x
3047.0,3029.0,2986.0,3440.0,3198.0,2416.0,2658.0,2286.0,-0.24,8.92,8.7,0.06,0.02,-0.09,0.0,x
3038.0,3043.0,2988.0,3435.0,3193.0,2414.0,2658.0,2285.0,0.19,9.01,8.33,0.04,0.06,-0.04,0.0,x
3046.0,3039.0,2981.0,3451.0,3204.0,2418.0,2653.0,2292.0,0.24,9.03,8.26,-0.04,0.03,-0.02,0.0,x
3049.0,3043.0,2986.0,3440.0,3198.0,2411.0,2650.0,2283.0,0.34,9.0,8.43,-0.01,-0.03,-0.13,0.0,x
3056.0,3041.0,2979.0,3455.0,3216.0,2413.0,2657.0,2291.0,0.35,8.98,8.4,-0.04,-0.01,-0.12,0.0,x
3053.0,3039.0,2980.0,3450.0,3215.0,2417.0,2657.0,2295.0,0.65,8.89,8.48,-0.18,-0.04,-0.17,0.0,x
3056.0,3038.0,2972.0,3451.0,3212.0,2421.0,2665.0,2298.0,0.45,8.65,9.07,-0.17,-0.05,-0.3,0.0,x
3049.0,3053.0,2975.0,3445.0,3214.0,2414.0,2654.0,2295.0,0.17,8.57,9.23,-0.12,-0.16,-0.34,0.0,x
3056.0,3041.0,2981.0,3454.0,3219.0,2414.0,2659.0,2305.0,-0.22,8.48,9.69,0.01,-0.12,-0.23,0.0,x
3052.0,3043.0,2979.0,3455.0,3226.0,2418.0,2668.0,2311.0,0.01,9.11,8.17,0.07,-0.0,-0.21,0.0,x
3047.0,3039.0,2971.0,3451.0,3222.0,2419.0,2661.0,2303.0,-0.0,9.2,7.91,0.09,0.03,-0.15,0.0,x
3050.0,3044.0,2992.0,3460.0,3226.0,2417.0,2667.0,2305.0,0.11,9.13,8.01,-0.06,0.02,-0.14,0.0,x
3037.0,3038.0,2983.0,3453.0,3225.0,2417.0,2666.0,2305.0,0.01,9.03,8.38,-0.01,0.06,-0.16,0.0,x
3056.0,3052.0,2985.0,3460.0,3223.0,2419.0,2667.0,2309.0,0.15,8.98,8.34,0.02,0.06,-0.17,0.0,x
3030.0,3035.0,2984.0,3463.0,3227.0,2423.0,2669.0,2313.0,0.0,9.05,8.25,0.04,0.06,-0.18,0.0,x
3051.0,3040.0,2972.0,3451.0,3216.0,2416.0,2667.0,2309.0,-0.08,9.08,8.23,0.04,0.04,-0.21,0.0,x
3051.0,3040.0,2976.0,3456.0,3228.0,2425.0,2672.0,2318.0,-0.1,9.04,8.24,0.09,0.03,-0.2,0.0,x
3050.0,3039.0,2978.0,3455.0,3246.0,2421.0,2667.0,2306.0,-0.21,9.05,8.24,0.09,0.07,-0.18,0.0,x
3047.0,3038.0,2992.0,3466.0,3245.0,2426.0,2668.0,2313.0,-0.33,9.13,8.14,0.04,0.08,-0.17,0.0,x
3046.0,3024.0,2967.0,3454.0,3241.0,2416.0,2668.0,2311.0,-0.37,9.13,8.01,0.13,0.04,-0.21,0.0,x
3048.0,3035.0,2979.0,3458.0,3257.0,2428.0,2672.0,2317.0,-0.55,9.22,7.82,0.15,-0.01,-0.17,0.0,x
3035.0,3027.0,2991.0,3456.0,3246.0,2418.0,2672.0,2311.0,-0.45,9.28,7.67,0.05,-0.02,-0.13,0.0,x
3056.0,3043.0,2992.0,3471.0,3252.0,2423.0,2672.0,2319.0,-0.42,9.24,7.8,0.04,-0.02,-0.1,0.0,x
3042.0,3029.0,2981.0,3456.0,3248.0,2422.0,2677.0,2315.0,-0.34,9.39,7.44,0.11,0.14,-0.02,0.0,x
3055.0,3049.0,2981.0,3461.0,3249.0,2422.0,2675.0,2322.0,-0.03,9.33,7.47,-0.01,0.0,-0.04,0.0,x
3039.0,3052.0,2990.0,3457.0,3241.0,2415.0,2675.0,2320.0,0.01,9.17,7.98,-0.02,0.08,-0.05,0.0,x
3042.0,3038.0,2977.0,3458.0,3247.0,2421.0,2676.0,2315.0,-0.06,9.19,7.97,0.1,-0.01,-0.07,0.0,x
3047.0,3056.0,2989.0,3472.0,3242.0,2422.0,2683.0,2321.0,0.07,9.33,7.61,0.12,-0.02,-0.08,0.0,x
3050.0,3035.0,2981.0,3471.0,3236.0,2418.0,2682.0,2318.0,-0.05,9.4,7.42,0.13,0.01,0.0,0.0,x
3021.0,3046.0,3033.0,3444.0,3826.0,2866.0,2902.0,2447.0,0.99,7.88,10.29,-0.03,0.02,-0.13,0.0,x
3030.0,3056.0,3039.0,3453.0,3835.0,2881.0,2896.0,2447.0,1.23,7.98,10.24,-0.03,-0.04,-0.15,0.0,x
3037.0,3033.0,3027.0,3453.0,3827.0,2876.0,2896.0,2442.0,1.15,7.84,10.42,0.01,-0.03,-0.19,0.0,x
3041.0,3051.0,3014.0,3440.0,3817.0,2864.0,2899.0,2448.0,1.03,7.83,10.45,0.05,0.07,-0.15,0.0,x
3035.0,3056.0,3025.0,3450.0,3824.0,2880.0,2905.0,2450.0,0.88,7.81,10.49,0.08,0.05,-0.14,0.0,x
3024.0,3055.0,3024.0,3446.0,3825.0,2871.0,2899.0,2448.0,1.21,7.82,10.52,0.14,0.01,-0.13,0.0,x
3037.0,3045.0,3031.0,3454.0,3838.0,2869.0,2907.0,2456.0,1.27,7.8,10.58,0.24,0.02,-0.16,0.0,x
3031.0,3055.0,3043.0,3469.0,3829.0,2880.0,2907.0,2454.0,1.24,7.99,10.04,0.28,0.06,-0.18,0.0,x
3035.0,3045.0,3024.0,3451.0,3827.0,2874.0,2904.0,2453.0,1.07,8.01,10.07,0.26,0.15,-0.15,0.0,x
3044.0,3058.0,3041.0,3463.0,3839.0,2875.0,2903.0,2455.0,1.35,8.01,10.07,0.28,0.12,-0.16,0.0,x
3050.0,3055.0,3041.0,3462.0,3827.0,2871.0,2902.0,2455.0,1.29,8.32,9.3,0.26,0.02,-0.25,0.0,x
3042.0,3055.0,3026.0,3458.0,3819.0,2871.0,2897.0,2453.0,0.66,8.45,8.97,0.05,-0.22,-0.35,0.0,x
3035.0,3050.0,3023.0,3469.0,3835.0,2871.0,2901.0,2448.0,0.72,8.34,9.21,-0.15,-0.22,-0.32,0.0,x
3030.0,3037.0,3036.0,3468.0,3827.0,2862.0,2896.0,2449.0,0.79,7.94,9.75,-0.34,-0.16,-0.31,0.0,x
3035.0,3051.0,3024.0,3460.0,3824.0,2864.0,2896.0,2453.0,0.91,7.86,9.17,-0.61,0.01,-0.47,0.0,x
3036.0,3043.0,3043.0,3472.0,3842.0,2870.0,2902.0,2458.0,0.2,7.7,11.28,-0.73,0.49,-0.46,0.0,x
3039.0,3050.0,3020.0,3459.0,3822.0,2861.0,2896.0,2457.0,-0.88,8.13,12.7,-0.05,1.3,-0.17,0.0,x
3037.0,3038.0,3031.0,3461.0,3837.0,2864.0,2907.0,2466.0,-0.67,8.48,10.8,0.63,0.69,-0.11,0.0,x
3053.0,3055.0,3029.0,3467.0,3831.0,2864.0,2896.0,2467.0,0.78,8.23,9.75,0.77,-0.06,-0.19,0.0,x
3039.0,3043.0,3019.0,3455.0,3830.0,2873.0,2900.0,2462.0,0.12,8.4,9.0,0.8,-0.02,-0.41,0.0,x
3062.0,3050.0,3024.0,3467.0,3821.0,2871.0,2911.0,2478.0,0.32,8.71,9.03,0.02,-0.02,-0.17,0.0,x
3031.0,3042.0,3030.0,3466.0,3821.0,2871.0,2903.0,2465.0,-0.17,8.78,9.06,0.08,0.07,-0.13,0.0,x
3042.0,3051.0,3026.0,3457.0,3805.0,2864.0,2896.0,2466.0,-0.09,8.85,8.69,0.14,-0.02,-0.1,0.0,x
3038.0,3055.0,3037.0,3472.0,3822.0,2873.0,2896.0,2465.0,0.38,8.88,8.75,0.12,-0.02,-0.08,0.0,x
3039.0,3056.0,3025.0,3465.0,3818.0,2867.0,2899.0,2466.0,0.43,8.92,8.57,0.14,0.02,-0.11,0.0,x
3039.0,3051.0,3028.0,3457.0,3811.0,2874.0,2903.0,2467.0,0.02,9.01,8.26,0.14,0.09,-0.12,0.0,x
3055.0,3059.0,3025.0,3470.0,3823.0,2875.0,2908.0,2470.0,-0.31,9.08,8.27,0.09,-0.03,-0.09,0.0,x
3039.0,3058.0,3029.0,3458.0,3793.0,2870.0,2899.0,2471.0,-0.2,9.07,8.17,0.08,0.0,-0.02,0.0,x
3039.0,3062.0,3041.0,3470.0,3803.0,2869.0,2902.0,2476.0,0.2,9.04,8.34,0.06,0.12,0.06,0.0,x
3042.0,3056.0,3045.0,3472.0,3813.0,2873.0,2899.0,2475.0,0.69,8.97,8.47,0.04,0.15,0.08,0.0,x
3043.0,3059.0,3026.0,3467.0,3817.0,2870.0,2892.0,2468.0,1.17,8.89,8.64,0.07,0.21,-0.01,0.0,x
3042.0,3056.0,3030.0,3482.0,3820.0,2878.0,2911.0,2475.0,1.14,9.05,8.32,0.08,-0.04,-0.17,0.0,x
3036.0,3045.0,3013.0,3463.0,3814.0,2871.0,2902.0,2474.0,0.5,9.1,8.12,0.08,-0.06,-0.23,0.0,x
3028.0,3056.0,3025.0,3472.0,3810.0,2864.0,2896.0,2463.0,-0.06,9.12,8.11,0.03,0.08,-0.15,0.0,x
3031.0,3058.0,3024.0,3479.0,3823.0,2883.0,2907.0,2471.0,0.04,9.06,8.36,-0.01,-0.04,-0.09,0.0,x
3029.0,3052.0,3022.0,3483.0,3811.0,2871.0,2901.0,2467.0,0.38,9.08,8.28,0.05,-0.03,-0.07,0.0,x
3035.0,3061.0,3031.0,3487.0,3813.0,2866.0,2898.0,2467.0,0.79,9.06,8.2,0.01,-0.05,-0.07,0.0,x
3037.0,3058.0,3025.0,3486.0,3823.0,2878.0,2905.0,2473.0,0.77,9.02,8.44,0.03,-0.01,-0.11,0.0,x
3042.0,3059.0,3024.0,3483.0,3773.0,2864.0,2897.0,2467.0,0.58,9.11,8.2,0.05,-0.08,-0.17,0.0,x
3045.0,3050.0,3043.0,3487.0,3795.0,2880.0,2911.0,2478.0,0.44,9.11,8.07,0.02,-0.21,-0.19,0.0,x
3036.0,3061.0,3033.0,3493.0,3774.0,2878.0,2910.0,2474.0,0.3,9.14,8.15,-0.04,-0.47,-0.14,0.0,x
3050.0,3062.0,3031.0,3486.0,3757.0,2870.0,2901.0,2471.0,0.74,9.1,8.09,-0.04,-0.4,-0.07,0.0,x
3039.0,3035.0,3028.0,3483.0,3760.0,2875.0,2907.0,2465.0,1.19,9.01,8.27,-0.03,-0.06,0.0,0.0,x
3026.0,3053.0,3023.0,3497.0,3759.0,2881.0,2912.0,2478.0,1.38,8.97,8.39,-0.04,0.04,0.04,0.0,x
3039.0,3052.0,3031.0,3477.0,3746.0,2869.0,2901.0,2473.0,1.45,8.98,8.31,-0.04,-0.02,-0.01,0.0,x
3025.0,3042.0,3025.0,3479.0,3727.0,2872.0,2903.0,2468.0,1.45,9.0,8.1,-0.07,-0.01,-0.05,0.0,x
3050.0,3054.0,3026.0,3483.0,3696.0,2874.0,2902.0,2479.0,1.47,9.0,8.17,-0.16,0.08,-0.03,0.0,x
3043.0,3053.0,3023.0,3487.0,3696.0,2871.0,2901.0,2470.0,1.29,8.91,8.46,-0.17,0.05,-0.05,0.0,x
3043.0,3055.0,3026.0,3497.0,3711.0,2878.0,2912.0,2475.0,1.44,8.87,8.56,-0.15,-0.06,-0.07,0.0,x
3035.0,3056.0,3030.0,3486.0,3696.0,2879.0,2907.0,2474.0,1.6,8.79,8.73,-0.15,-0.07,-0.09,0.0,x
3025.0,3056.0,3031.0,3486.0,3696.0,2877.0,2903.0,2466.0,1.8,8.65,8.89,-0.12,0.02,-0.12,0.0,x
3031.0,3054.0,3029.0,3491.0,3687.0,2886.0,2908.0,2453.0,1.7,8.66,8.95,-0.09,-0.04,-0.15,0.0,x
3034.0,3056.0,3018.0,3482.0,3684.0,2875.0,2906.0,2459.0,1.84,8.64,8.91,-0.09,0.05,-0.16,0.0,x
3027.0,3050.0,3019.0,3491.0,3681.0,2876.0,2903.0,2459.0,1.84,8.63,9.16,-0.07,0.07,-0.22,0.0,x
3046.0,3056.0,3029.0,3490.0,3664.0,2879.0,2910.0,2468.0,1.55,8.61,9.03,-0.02,0.01,-0.28,0.0,x
3033.0,3043.0,3031.0,3490.0,3650.0,2873.0,2896.0,2462.0,1.39,8.63,9.01,-0.03,-0.04,-0.28,0.0,x
3041.0,3052.0,3036.0,3494.0,3645.0,2869.0,2898.0,2466.0,1.3,8.67,8.96,-0.0,0.0,-0.28,0.0,x
3041.0,3050.0,3026.0,3493.0,3661.0,2879.0,2909.0,2466.0,1.25,8.8,8.62,-0.03,-0.09,-0.32,0.0,x
3035.0,3054.0,3035.0,3497.0,3652.0,2872.0,2901.0,2457.0,1.05,8.67,9.01,-0.07,-0.07,-0.31,0.0,x
3042.0,3056.0,3033.0,3515.0,3675.0,2882.0,2913.0,2465.0,0.95,8.59,9.19,-0.05,0.03,-0.26,0.0,x
3045.0,3057.0,3024.0,3495.0,3536.0,2873.0,2899.0,2466.0,0.33,8.39,9.66,0.0,-0.01,-0.14,0.0,x
3039.0,3051.0,3041.0,3499.0,3553.0,2884.0,2914.0,2475.0,0.42,8.4,9.69,0.04,0.02,-0.11,0.0,x
3037.0,3049.0,3015.0,3491.0,3545.0,2875.0,2908.0,2465.0,0.28,8.39,9.73,0.1,0.06,-0.08,0.0,x
3039.0,3045.0,3035.0,3499.0,3559.0,2877.0,2915.0,2470.0,0.16,8.4,9.71,0.17,0.05,-0.04,0.0,x
3033.0,3055.0,3030.0,3504.0,3562.0,2869.0,2906.0,2471.0,0.05,8.51,9.46,0.19,-0.04,0.0,0.0,x
3037.0,3046.0,3023.0,3493.0,3558.0,2868.0,2905.0,2467.0,0.33,8.56,9.27,0.23,-0.08,0.05,0.0,x
3036.0,3054.0,3024.0,3504.0,3568.0,2876.0,2910.0,2471.0,0.64,8.79,8.67,0.23,-0.1,0.08,0.0,x
3053.0,3056.0,3025.0,3499.0,3551.0,2867.0,2906.0,2467.0,0.87,8.82,8.52,0.14,-0.05,0.12,0.0,x
3040.0,3054.0,3040.0,3509.0,3551.0,2875.0,2903.0,2468.0,1.25,8.71,8.8,0.11,0.07,0.15,0.0,x
3041.0,3057.0,3027.0,3503.0,3549.0,2875.0,2914.0,2473.0,1.38,8.72,8.77,0.06,0.01,0.1,0.0,x
3042.0,3039.0,3029.0,3509.0,3549.0,2869.0,2902.0,2470.0,1.58,8.73,8.81,0.05,0.01,0.07,0.0,x
3026.0,3034.0,3018.0,3503.0,3551.0,2879.0,2918.0,2474.0,1.54,8.71,8.77,0.03,0.0,0.02,0.0,x
3041.0,3047.0,3027.0,3511.0,3559.0,2880.0,2919.0,2476.0,1.62,8.68,8.88,0.04,0.01,-0.01,0.0,x
3031.0,3051.0,3024.0,3503.0,3555.0,2870.0,2913.0,2467.0,1.61,8.65,8.97,0.05,-0.04,-0.07,0.0,x
3042.0,3056.0,3037.0,3513.0,3565.0,2878.0,2919.0,2477.0,1.64,8.66,8.95,0.06,-0.08,-0.09,0.0,x
3041.0,3055.0,3046.0,3514.0,3563.0,2876.0,2911.0,2471.0,1.61,8.69,8.93,0.1,-0.05,-0.1,0.0,x
3029.0,3040.0,3030.0,3504.0,3563.0,2873.0,2911.0,2465.0,1.61,8.74,8.77,0.1,-0.1,-0.11,0.0,x
3039.0,3055.0,3050.0,3515.0,3578.0,2880.0,2918.0,2471.0,1.68,8.77,8.71,0.11,-0.1,-0.12,0.0,x
3035.0,3051.0,3019.0,3506.0,3569.0,2873.0,2912.0,2470.0,1.76,8.81,8.59,0.1,-0.08,-0.12,0.0,x
3035.0,3058.0,3026.0,3508.0,3572.0,2870.0,2912.0,2472.0,1.86,8.85,8.38,0.08,-0.07,-0.14,0.0,x
3047.0,3051.0,3026.0,3503.0,3804.0,2881.0,2926.0,2471.0,1.69,8.91,8.36,0.01,0.01,-0.15,0.0,x
3037.0,3055.0,3015.0,3498.0,3791.0,2877.0,2915.0,2465.0,1.6,8.91,8.35,0.01,-0.0,-0.16,0.0,x
3055.0,3056.0,3026.0,3501.0,3791.0,2873.0,2921.0,2478.0,1.65,8.88,8.39,-0.01,0.01,-0.14,0.0,x
3042.0,3046.0,3038.0,3503.0,3797.0,2873.0,2909.0,2466.0,1.73,8.87,8.51,0.02,0.02,-0.13,0.0,x
3039.0,3034.0,3024.0,3501.0,3791.0,2869.0,2915.0,2467.0,1.8,8.86,8.44,0.03,-0.0,-0.15,0.0,x
3035.0,3049.0,3027.0,3504.0,3799.0,2877.0,2919.0,2475.0,1.69,8.84,8.5,0.04,0.04,-0.15,0.0,x
3046.0,3047.0,3025.0,3495.0,3779.0,2874.0,2911.0,2466.0,1.69,8.87,8.33,0.02,0.02,-0.13,0.0,x
3039.0,3042.0,3024.0,3497.0,3790.0,2878.0,2916.0,2471.0,1.65,9.03,8.14,0.01,0.08,-0.12,0.0,x
3044.0,3046.0,3026.0,3506.0,3811.0,2882.0,2928.0,2471.0,1.54,8.92,8.37,0.02,0.09,-0.1,0.0,x
3043.0,3050.0,3025.0,3473.0,3783.0,2875.0,2917.0,2467.0,1.83,8.92,8.36,-0.0,0.03,-0.12,0.0,x
3046.0,3057.0,3029.0,3483.0,3796.0,2883.0,2926.0,2470.0,1.89,8.89,8.46,0.03,0.05,-0.16,0.0,x
3042.0,3052.0,3024.0,3494.0,3810.0,2885.0,2925.0,2470.0,1.75,8.92,8.33,0.01,-0.04,-0.2,0.0,x
3027.0,3056.0,3027.0,3475.0,3791.0,2875.0,2913.0,2467.0,1.85,8.87,8.47,-0.01,-0.04,-0.21,0.0,x
3051.0,3055.0,3040.0,3499.0,3810.0,2884.0,2922.0,2471.0,1.67,8.91,8.37,0.03,-0.04,-0.25,0.0,x
3038.0,3036.0,3023.0,3485.0,3799.0,2881.0,2919.0,2473.0,1.55,8.88,8.4,0.01,-0.07,-0.25,0.0,x
3040.0,3033.0,3014.0,3479.0,3790.0,2878.0,2917.0,2474.0,1.36,8.9,8.49,0.03,0.0,-0.21,0.0,x
3056.0,3056.0,3031.0,3504.0,3813.0,2887.0,2919.0,2480.0,1.29,8.97,8.3,0.05,-0.04,-0.18,0.0,x
3041.0,3041.0,3023.0,3487.0,3794.0,2880.0,2921.0,2474.0,1.51,8.94,8.4,0.04,-0.0,-0.14,0.0,x
3042.0,3056.0,3037.0,3503.0,3799.0,2883.0,2927.0,2480.0,1.52,8.96,8.28,0.05,0.05,-0.14,0.0,x
3040.0,3056.0,3046.0,3502.0,3824.0,2889.0,2925.0,2483.0,1.64,8.98,8.22,0.03,0.0,-0.16,0.0,x
3031.0,3054.0,3029.0,3504.0,3808.0,2880.0,2925.0,2480.0,1.7,8.85,8.6,0.04,0.01,-0.14,0.0,x
3041.0,3045.0,3030.0,3487.0,3785.0,2878.0,2911.0,2480.0,1.57,8.89,8.37,0.06,0.03,-0.16,0.0,x
3045.0,3057.0,3040.0,3504.0,3805.0,2883.0,2923.0,2480.0,1.47,8.95,8.37,0.06,0.05,-0.14,0.0,x
3038.0,3049.0,3029.0,3504.0,3797.0,2879.0,2913.0,2473.0,1.44,8.92,8.46,0.06,0.04,-0.11,0.0,x
3030.0,3047.0,3029.0,3498.0,3802.0,2877.0,2915.0,2474.0,1.5,8.9,8.51,0.1,0.07,-0.08,0.0,x
3040.0,3051.0,3038.0,3506.0,3793.0,2880.0,2923.0,2479.0,1.71,8.96,8.4,0.09,0.02,-0.09,0.0,x
3032.0,3039.0,3024.0,3481.0,3792.0,2870.0,2914.0,2479.0,1.69,8.92,8.3,0.11,0.05,-0.11,0.0,x
3031.0,3043.0,3023.0,3499.0,3795.0,2875.0,2918.0,2476.0,1.76,9.0,8.15,0.09,0.02,-0.11,0.0,x
3043.0,3046.0,3033.0,3491.0,3799.0,2894.0,2928.0,2481.0,1.75,9.01,8.09,0.08,0.03,-0.12,0.0,x
3028.0,3040.0,3024.0,3497.0,3791.0,2877.0,2919.0,2477.0,1.69,9.01,8.07,0.06,0.05,-0.14,0.0,x
3041.0,3043.0,3034.0,3506.0,3809.0,2883.0,2926.0,2479.0,1.83,9.02,8.08,0.04,0.02,-0.15,0.0,x
3042.0,3056.0,3029.0,3494.0,3794.0,2877.0,2919.0,2480.0,1.8,8.94,8.27,0.05,-0.01,-0.18,0.0,x
3042.0,3059.0,3018.0,3493.0,3792.0,2877.0,2921.0,2480.0,1.84,8.98,8.28,0.09,0.0,-0.22,0.0,x
3043.0,3039.0,3034.0,3504.0,3811.0,2883.0,2923.0,2478.0,1.63,9.09,7.98,0.08,-0.02,-0.24,0.0,x
3030.0,3047.0,3039.0,3500.0,3793.0,2883.0,2919.0,2478.0,1.48,9.13,7.82,0.05,-0.06,-0.27,0.0,x
3047.0,3039.0,3024.0,3493.0,3792.0,2881.0,2923.0,2480.0,1.49,9.12,7.88,0.01,-0.05,-0.25,0.0,x
3043.0,3058.0,3037.0,3505.0,3796.0,2880.0,2923.0,2478.0,1.34,9.11,7.97,-0.02,0.03,-0.22,0.0,x
3025.0,3055.0,3021.0,3491.0,3788.0,2881.0,2924.0,2480.0,1.21,8.99,8.36,0.02,0.06,-0.19,0.0,x
3024.0,3041.0,3025.0,3500.0,3801.0,2887.0,2927.0,2480.0,1.3,9.0,8.35,0.06,0.03,-0.15,0.0,x
3037.0,3045.0,3035.0,3503.0,3819.0,2888.0,2927.0,2480.0,1.21,9.1,8.02,0.08,0.02,-0.13,0.0,x
3039.0,3055.0,3030.0,3504.0,3814.0,2889.0,2923.0,2481.0,1.23,9.22,8.07,0.13,0.01,-0.14,0.0,x
3055.0,3051.0,3029.0,3502.0,3794.0,2881.0,2921.0,2480.0,1.43,9.18,7.84,0.11,-0.09,-0.13,0.0,x
3034.0,3059.0,3022.0,3503.0,3806.0,2882.0,2924.0,2475.0,1.54,9.24,7.6,0.11,-0.1,-0.13,0.0,x
3042.0,3058.0,3029.0,3509.0,3807.0,2883.0,2928.0,2483.0,1.79,9.32,7.39,0.07,-0.02,-0.14,0.0,x
3047.0,3055.0,3026.0,3504.0,3813.0,2886.0,2925.0,2479.0,1.5,9.29,7.41,0.02,0.02,-0.16,0.0,x
3034.0,3031.0,3026.0,3493.0,3793.0,2883.0,2925.0,2480.0,1.33,9.3,7.55,0.01,-0.0,-0.16,0.0,x
3047.0,3046.0,3024.0,3507.0,3821.0,2886.0,2924.0,2480.0,1.44,9.23,7.75,-0.01,0.02,-0.13,0.0,x
3044.0,3054.0,3024.0,3490.0,3793.0,2881.0,2926.0,2480.0,1.44,9.21,7.65,-0.0,-0.01,-0.13,0.0,x
3046.0,3054.0,3030.0,3485.0,3792.0,2879.0,2917.0,2480.0,1.69,9.18,7.8,-0.01,-0.02,-0.14,0.0,x
3047.0,3057.0,3024.0,3498.0,3801.0,2890.0,2928.0,2481.0,1.68,9.15,7.75,-0.03,-0.0,-0.12,0.0,x
3031.0,3054.0,3033.0,3499.0,3803.0,2883.0,2918.0,2477.0,1.31,9.16,7.92,0.04,0.02,-0.16,0.0,x
3042.0,3047.0,3023.0,3505.0,3806.0,2891.0,2928.0,2480.0,1.26,9.18,7.78,0.08,0.02,-0.12,0.0,x
3046.0,3067.0,3033.0,3509.0,3805.0,2887.0,2928.0,2484.0,1.4,9.26,7.49,0.08,0.01,-0.11,0.0,x
3038.0,3052.0,3021.0,3495.0,3801.0,2880.0,2924.0,2478.0,1.68,9.29,7.45,0.02,0.01,-0.1,0.0,x
3054.0,3055.0,3024.0,3497.0,3803.0,2880.0,2917.0,2480.0,1.68,9.26,7.52,0.02,0.01,-0.14,0.0,x
3043.0,3047.0,3024.0,3493.0,3808.0,2881.0,2923.0,2479.0,1.67,9.23,7.62,-0.0,-0.01,-0.16,0.0,x
3025.0,3045.0,3034.0,3495.0,3804.0,2882.0,2922.0,2478.0,1.35,9.2,7.8,0.03,0.01,-0.16,0.0,x
3034.0,3055.0,3031.0,3504.0,3815.0,2882.0,2927.0,2480.0,1.49,9.19,7.78,0.03,0.01,-0.13,0.0,x
3037.0,3047.0,3030.0,3493.0,3807.0,2889.0,2925.0,2481.0,1.5,9.22,7.66,0.06,0.01,-0.12,0.0,x
3026.0,3041.0,3039.0,3501.0,3799.0,2878.0,2927.0,2480.0,1.64,9.24,7.56,0.04,0.01,-0.11,0.0,x
3035.0,3054.0,3024.0,3510.0,3818.0,2895.0,2934.0,2482.0,1.67,9.25,7.45,0.05,0.01,-0.1,0.0,x
3026.0,3057.0,3043.0,3503.0,3803.0,2887.0,2925.0,2481.0,1.78,9.27,7.43,0.05,-0.01,-0.12,0.0,x
3040.0,3045.0,3029.0,3504.0,3798.0,2878.0,2918.0,2482.0,1.73,9.27,7.41,0.04,0.01,-0.12,0.0,x
3053.0,3054.0,3037.0,3521.0,3822.0,2890.0,2928.0,2484.0,1.64,9.31,7.29,0.04,0.0,-0.12,0.0,x
3045.0,3046.0,3024.0,3503.0,3807.0,2887.0,2928.0,2483.0,1.75,9.31,7.3,0.0,0.02,-0.12,0.0,x
3042.0,3045.0,3015.0,3504.0,3792.0,2879.0,2925.0,2481.0,1.82,9.29,7.28,-0.02,0.01,-0.13,0.0,x
3050.0,3063.0,3031.0,3517.0,3821.0,2885.0,2928.0,2483.0,1.71,9.27,7.52,-0.01,0.02,-0.14,0.0,x
3038.0,3042.0,3033.0,3505.0,3798.0,2880.0,2917.0,2475.0,1.78,9.25,7.52,-0.02,0.02,-0.13,0.0,x
3036.0,3059.0,3025.0,3507.0,3801.0,2883.0,2919.0,2480.0,1.66,9.28,7.41,-0.01,-0.01,-0.15,0.0,x
3042.0,3052.0,3043.0,3516.0,3809.0,2883.0,2917.0,2480.0,1.8,9.24,7.52,-0.03,-0.01,-0.13,0.0,x
3041.0,3046.0,3026.0,3508.0,3792.0,2877.0,2915.0,2480.0,1.85,9.17,7.63,-0.02,0.01,-0.14,0.0,x
3041.0,3055.0,3023.0,3520.0,3810.0,2887.0,2928.0,2482.0,1.75,9.23,7.55,0.01,-0.02,-0.16,0.0,x
3038.0,3061.0,3027.0,3525.0,3815.0,2890.0,2923.0,2481.0,1.81,9.23,7.55,-0.01,-0.0,-0.15,0.0,x
3039.0,3048.0,3024.0,3505.0,3795.0,2880.0,2922.0,2480.0,1.72,9.29,7.43,-0.01,-0.02,-0.16,0.0,x
3049.0,3056.0,3038.0,3519.0,3819.0,2891.0,2923.0,2480.0,1.63,9.21,7.6,-0.02,-0.01,-0.15,0.0,x
3035.0,3068.0,3030.0,3506.0,3799.0,2882.0,2922.0,2480.0,1.62,9.21,7.65,-0.01,-0.0,-0.12,0.0,x
3043.0,3047.0,3024.0,3518.0,3805.0,2880.0,2926.0,2481.0,1.74,9.22,7.56,-0.01,-0.04,-0.12,0.0,x
3043.0,3053.0,3027.0,3518.0,3820.0,2893.0,2926.0,2480.0,1.77,9.21,7.64,0.0,-0.0,-0.11,0.0,x
3047.0,3062.0,3024.0,3510.0,3792.0,2880.0,2926.0,2479.0,1.8,9.17,7.69,0.0,-0.03,-0.1,0.0,x
3026.0,3049.0,3042.0,3513.0,3807.0,2884.0,2928.0,2475.0,1.98,9.16,7.67,0.01,-0.05,-0.12,0.0,x
3034.0,3040.0,3022.0,3511.0,3824.0,2886.0,2928.0,2485.0,2.0,9.15,7.41,-0.04,0.01,-0.1,0.0,x
3056.0,3053.0,3039.0,3519.0,3811.0,2887.0,2930.0,2485.0,1.99,9.25,7.32,-0.07,-0.07,-0.11,0.0,x
3030.0,3041.0,3026.0,3517.0,3792.0,2879.0,2917.0,2480.0,2.22,9.1,7.69,-0.1,-0.15,-0.14,0.0,x
3037.0,3061.0,3031.0,3524.0,3802.0,2879.0,2923.0,2480.0,2.33,9.01,7.96,-0.09,-0.08,-0.13,0.0,x
3051.0,3061.0,3031.0,3509.0,3806.0,2885.0,2927.0,2479.0,2.24,8.99,7.96,-0.04,-0.02,-0.15,0.0,x
3023.0,3059.0,3024.0,3505.0,3798.0,2882.0,2930.0,2478.0,2.21,9.03,7.87,-0.03,-0.04,-0.17,0.0,x
3051.0,3057.0,3030.0,3518.0,3803.0,2881.0,2924.0,2480.0,2.08,9.11,7.66,-0.01,-0.02,-0.17,0.0,x
3054.0,3050.0,3023.0,3516.0,3799.0,2880.0,2925.0,2481.0,2.04,9.15,7.55,-0.05,-0.03,-0.15,0.0,x
3029.0,3045.0,3024.0,3507.0,3804.0,2880.0,2923.0,2480.0,2.15,9.1,7.64,-0.1,-0.0,-0.13,0.0,x
3040.0,3056.0,3032.0,3527.0,3814.0,2887.0,2928.0,2481.0,2.13,9.05,7.75,-0.1,-0.07,-0.15,0.0,x
3043.0,3052.0,3026.0,3511.0,3793.0,2882.0,2923.0,2479.0,2.25,8.89,8.28,-0.09,-0.06,-0.15,0.0,x
3039.0,3046.0,3023.0,3521.0,3824.0,2895.0,2931.0,2486.0,2.19,8.93,8.22,-0.02,0.02,-0.14,0.0,x
3050.0,3056.0,3027.0,3510.0,3811.0,2896.0,2935.0,2494.0,2.28,8.91,8.13,-0.01,-0.05,-0.16,0.0,x
3042.0,3041.0,3034.0,3513.0,3807.0,2881.0,2923.0,2482.0,2.22,8.98,7.98,0.01,0.0,-0.15,0.0,x
3056.0,3052.0,3029.0,3515.0,3806.0,2881.0,2927.0,2483.0,2.16,9.02,7.82,-0.0,-0.01,-0.17,0.0,x
3046.0,3056.0,3034.0,3527.0,3823.0,2884.0,2923.0,2480.0,2.2,9.07,7.71,-0.04,-0.05,-0.17,0.0,x
3041.0,3053.0,3037.0,3511.0,3802.0,2883.0,2926.0,2479.0,2.24,9.04,7.83,-0.09,-0.04,-0.19,0.0,x
3046.0,3056.0,3031.0,3517.0,3824.0,2895.0,2928.0,2487.0,2.23,8.98,8.01,-0.14,-0.08,-0.21,0.0,x
3028.0,3042.0,3031.0,3509.0,3792.0,2877.0,2923.0,2483.0,2.04,8.88,8.28,-0.11,-0.04,-0.2,0.0,x
3033.0,3047.0,3030.0,3507.0,3797.0,2880.0,2926.0,2483.0,1.96,8.82,8.47,-0.09,-0.06,-0.17,0.0,x
3041.0,3069.0,3043.0,3503.0,3811.0,2889.0,2926.0,2483.0,2.38,8.51,8.9,-0.06,-0.05,-0.18,0.0,x
3031.0,3050.0,3024.0,3501.0,3792.0,2886.0,2922.0,2486.0,2.31,8.41,9.11,-0.07,0.0,-0.16,0.0,x
3035.0,3056.0,3033.0,3519.0,3826.0,2890.0,2931.0,2486.0,2.27,8.42,9.05,-0.03,-0.01,-0.16,0.0,x
3038.0,3056.0,3037.0,3503.0,3818.0,2886.0,2927.0,2482.0,2.39,8.55,8.69,-0.06,-0.1,-0.18,0.0,x
3029.0,3041.0,3030.0,3499.0,3805.0,2880.0,2923.0,2482.0,2.63,8.69,8.17,-0.16,-0.13,-0.21,0.0,x
3039.0,3054.0,3026.0,3501.0,3814.0,2890.0,2928.0,2491.0,2.37,8.43,9.08,-0.24,-0.03,-0.22,0.0,x
3043.0,3056.0,3024.0,3488.0,3810.0,2882.0,2922.0,2486.0,2.47,8.2,9.47,-0.22,-0.09,-0.26,0.0,x
3027.0,3059.0,3030.0,3502.0,3833.0,2894.0,2928.0,2490.0,2.17,8.21,9.69,-0.19,-0.03,-0.18,0.0,x
3051.0,3059.0,3039.0,3507.0,3818.0,2885.0,2924.0,2489.0,2.29,8.14,9.61,-0.12,-0.07,-0.19,0.0,x
3041.0,3041.0,3036.0,3494.0,3809.0,2885.0,2921.0,2480.0,2.41,8.2,9.46,-0.11,-0.05,-0.21,0.0,x
3027.0,3052.0,3024.0,3509.0,3821.0,2891.0,2929.0,2491.0,2.34,8.2,9.45,-0.14,-0.04,-0.2,0.0,x
3045.0,3049.0,3038.0,3500.0,3815.0,2887.0,2928.0,2493.0,2.27,8.16,9.53,-0.12,-0.04,-0.22,0.0,x
3041.0,3043.0,3025.0,3507.0,3807.0,2887.0,2921.0,2486.0,2.44,8.05,9.72,-0.13,-0.09,-0.22,0.0,x
3043.0,3068.0,3037.0,3518.0,3819.0,2894.0,2931.0,2496.0,2.62,7.99,9.84,-0.12,-0.11,-0.27,0.0,x
3031.0,3031.0,3027.0,3511.0,3810.0,2883.0,2922.0,2485.0,2.55,7.93,9.96,-0.08,-0.07,-0.3,0.0,x
3031.0,3043.0,3034.0,3515.0,3793.0,2882.0,2926.0,2487.0,2.35,7.97,9.88,-0.06,-0.07,-0.34,0.0,x
3046.0,3055.0,3039.0,3519.0,3817.0,2894.0,2929.0,2496.0,2.17,8.0,9.85,-0.04,0.03,-0.34,0.0,x
3055.0,3043.0,3035.0,3515.0,3803.0,2883.0,2923.0,2487.0,1.83,8.01,9.82,-0.04,0.04,-0.31,0.0,x
3039.0,3058.0,3035.0,3515.0,3814.0,2890.0,2927.0,2491.0,1.77,8.03,9.86,-0.06,0.01,-0.28,0.0,x
3049.0,3063.0,3035.0,3527.0,3825.0,2886.0,2928.0,2493.0,1.77,7.91,10.1,-0.13,0.03,-0.21,0.0,x
3037.0,3193.0,3027.0,3344.0,3696.0,2309.0,2668.0,2337.0,0.95,8.29,10.08,0.17,0.23,-0.03,0.0,x
3058.0,3197.0,3011.0,3344.0,3687.0,2305.0,2673.0,2343.0,1.08,8.38,9.73,0.26,0.29,0.08,0.0,x
3045.0,3193.0,3023.0,3351.0,3702.0,2306.0,2673.0,2347.0,1.18,8.79,8.59,0.41,-0.05,-0.11,0.0,x
3045.0,3202.0,3013.0,3346.0,3690.0,2303.0,2666.0,2343.0,1.25,8.88,8.41,0.33,-0.12,-0.14,0.0,x
3036.0,3195.0,3022.0,3346.0,3697.0,2306.0,2669.0,2350.0,1.08,8.99,8.2,0.3,0.05,-0.07,0.0,x
3041.0,3206.0,3011.0,3348.0,3705.0,2305.0,2668.0,2347.0,1.11,9.13,7.87,0.19,-0.06,-0.05,0.0,x
3051.0,3194.0,3008.0,3342.0,3691.0,2307.0,2666.0,2346.0,1.36,9.14,7.77,0.11,-0.07,-0.05,0.0,x
3031.0,3187.0,3019.0,3343.0,3690.0,2305.0,2659.0,2346.0,1.55,9.09,8.02,0.04,-0.09,-0.07,0.0,x
3052.0,3206.0,3011.0,3347.0,3699.0,2305.0,2672.0,2351.0,1.56,8.98,8.35,0.04,0.01,-0.08,0.0,x
3039.0,3191.0,3015.0,3344.0,3687.0,2302.0,2663.0,2351.0,1.49,8.94,8.48,0.05,0.01,-0.09,0.0,x
3057.0,3201.0,3021.0,3350.0,3708.0,2317.0,2669.0,2352.0,1.48,8.92,8.44,0.1,0.02,-0.09,0.0,x
3044.0,3206.0,3015.0,3345.0,3696.0,2304.0,2672.0,2354.0,1.6,9.06,8.01,0.09,-0.03,-0.11,0.0,x
3033.0,3197.0,3017.0,3344.0,3690.0,2304.0,2667.0,2347.0,1.74,9.16,7.7,0.02,-0.04,-0.13,0.0,x
3040.0,3194.0,3017.0,3359.0,3690.0,2313.0,2662.0,2347.0,1.76,9.1,7.86,-0.05,-0.0,-0.16,0.0,x
3026.0,3184.0,3007.0,3345.0,3697.0,2311.0,2662.0,2346.0,1.65,8.99,8.3,-0.07,-0.02,-0.2,0.0,x
3032.0,3183.0,3016.0,3345.0,3696.0,2307.0,2663.0,2346.0,1.32,8.8,8.86,-0.03,0.02,-0.18,0.0,x
3051.0,3200.0,3024.0,3360.0,3696.0,2307.0,2671.0,2354.0,1.35,8.87,8.65,0.08,0.07,-0.14,0.0,x
3034.0,3184.0,3007.0,3350.0,3702.0,2309.0,2666.0,2343.0,1.52,9.04,8.16,0.11,-0.03,-0.15,0.0,x
3036.0,3197.0,3017.0,3350.0,3696.0,2311.0,2665.0,2350.0,1.65,9.06,8.05,0.07,0.02,-0.16,0.0,x
3042.0,3204.0,3024.0,3351.0,3694.0,2308.0,2666.0,2350.0,1.8,9.1,7.94,0.05,0.1,-0.16,0.0,x
3046.0,3187.0,3022.0,3363.0,3712.0,2315.0,2666.0,2348.0,0.8,9.12,8.11,0.07,-0.05,-0.28,0.0,x
3044.0,3184.0,3022.0,3347.0,3699.0,2309.0,2669.0,2352.0,0.73,9.09,8.17,0.09,-0.07,-0.27,0.0,x
3043.0,3184.0,3006.0,3359.0,3698.0,2312.0,2674.0,2352.0,0.53,9.13,8.17,0.1,-0.12,-0.23,0.0,x
3043.0,3195.0,3023.0,3346.0,3699.0,2317.0,2672.0,2354.0,0.48,9.16,8.02,0.12,-0.13,-0.18,0.0,x
3044.0,3187.0,3012.0,3347.0,3694.0,2314.0,2663.0,2347.0,0.49,9.2,7.92,0.14,-0.06,-0.09,0.0,x
3051.0,3200.0,3010.0,3350.0,3696.0,2309.0,2672.0,2355.0,0.68,9.16,8.01,0.14,-0.07,-0.03,0.0,x
3038.0,3196.0,3013.0,3355.0,3709.0,2320.0,2671.0,2351.0,1.06,9.13,7.97,0.15,-0.1,-0.04,0.0,x
3046.0,3201.0,3008.0,3346.0,3686.0,2307.0,2669.0,2352.0,1.15,9.22,7.75,0.1,-0.09,0.06,0.0,x
3035.0,3193.0,3019.0,3363.0,3709.0,2315.0,2671.0,2353.0,1.23,9.32,7.47,0.18,-0.16,-0.08,0.0,x
3049.0,3195.0,3023.0,3349.0,3687.0,2307.0,2669.0,2349.0,1.3,9.32,7.35,0.14,-0.15,-0.05,0.0,x
3039.0,3185.0,3015.0,3355.0,3698.0,2306.0,2670.0,2352.0,1.17,9.43,7.18,0.12,-0.06,-0.06,0.0,x
3049.0,3198.0,3025.0,3370.0,3706.0,2318.0,2677.0,2357.0,1.02,9.4,7.16,0.1,-0.13,-0.04,0.0,x
3025.0,3181.0,3024.0,3357.0,3696.0,2310.0,2675.0,2351.0,1.38,9.3,7.39,0.05,-0.2,0.02,0.0,x
3042.0,3184.0,3024.0,3367.0,3702.0,2311.0,2672.0,2356.0,1.52,9.3,7.4,0.08,-0.15,0.01,0.0,x
3035.0,3182.0,3011.0,3367.0,3701.0,2319.0,2679.0,2355.0,1.67,9.29,7.3,0.1,-0.19,0.01,0.0,x
3035.0,3183.0,3014.0,3371.0,3699.0,2317.0,2678.0,2353.0,1.76,9.34,7.21,0.06,-0.3,0.01,0.0,x
3040.0,3199.0,3031.0,3367.0,3699.0,2311.0,2672.0,2357.0,2.0,9.29,7.21,0.08,-0.26,-0.01,0.0,x
3046.0,3190.0,3010.0,3360.0,3697.0,2319.0,2675.0,2358.0,2.11,9.33,7.05,0.07,-0.22,-0.01,0.0,x
3050.0,3185.0,3017.0,3359.0,3687.0,2311.0,2672.0,2354.0,2.32,9.3,6.95,0.06,-0.22,-0.02,0.0,x
3063.0,3211.0,3019.0,3358.0,3693.0,2314.0,2678.0,2361.0,2.39,9.31,6.94,0.01,-0.25,-0.04,0.0,x
3050.0,3184.0,3026.0,3365.0,3679.0,2320.0,2688.0,2363.0,2.6,9.11,6.71,-0.06,-0.18,0.08,0.0,x
3050.0,3182.0,3015.0,3376.0,3695.0,2319.0,2677.0,2363.0,3.12,8.93,7.02,-0.09,-0.29,0.13,0.0,x
3039.0,3198.0,3007.0,3373.0,3679.0,2306.0,2674.0,2352.0,3.68,8.82,7.09,-0.06,-0.32,0.12,0.0,x
3050.0,3196.0,3025.0,3376.0,3686.0,2314.0,2675.0,2361.0,3.96,8.82,6.94,-0.02,-0.5,0.05,0.0,x
3043.0,3195.0,3027.0,3379.0,3693.0,2320.0,2679.0,2359.0,4.32,8.82,6.7,-0.02,-0.49,-0.01,0.0,x
3030.0,3188.0,3024.0,3374.0,3675.0,2314.0,2675.0,2352.0,4.38,8.79,6.62,-0.01,-0.36,-0.04,0.0,x
3051.0,3184.0,3012.0,3379.0,3667.0,2317.0,2685.0,2359.0,4.36,8.79,6.36,-0.03,-0.29,-0.07,0.0,x
3032.0,3184.0,3013.0,3371.0,3645.0,2310.0,2677.0,2355.0,4.53,8.82,6.28,-0.09,-0.18,-0.09,0.0,x
3031.0,3170.0,3022.0,3370.0,3644.0,2309.0,2682.0,2356.0,4.56,8.77,6.56,-0.14,-0.08,-0.12,0.0,x
3043.0,3182.0,3010.0,3376.0,3661.0,2316.0,2682.0,2354.0,4.29,8.66,6.94,-0.13,-0.03,-0.14,0.0,x
3037.0,3198.0,3024.0,3372.0,3648.0,2310.0,2677.0,2357.0,4.15,8.71,6.84,-0.1,-0.05,-0.15,0.0,x
3035.0,3188.0,3024.0,3375.0,3662.0,2317.0,2683.0,2359.0,4.08,8.67,6.85,-0.08,-0.03,-0.12,0.0,x
3034.0,3194.0,3031.0,3376.0,3663.0,2319.0,2685.0,2353.0,4.19,8.72,6.6,-0.12,-0.14,-0.1,0.0,x
3037.0,3184.0,3024.0,3371.0,3651.0,2315.0,2674.0,2352.0,4.4,8.69,6.77,-0.16,-0.11,-0.11,0.0,x
3049.0,3187.0,3024.0,3366.0,3663.0,2318.0,2684.0,2363.0,4.38,8.56,7.13,-0.16,-0.05,-0.11,0.0,x
3059.0,3182.0,3019.0,3358.0,3657.0,2319.0,2685.0,2357.0,4.34,8.5,7.25,-0.14,-0.08,-0.11,0.0,x
3034.0,3172.0,3025.0,3361.0,3659.0,2317.0,2678.0,2352.0,4.34,8.48,7.26,-0.1,-0.02,-0.1,0.0,x
3051.0,3194.0,3019.0,3375.0,3668.0,2320.0,2688.0,2365.0,4.45,8.53,7.0,-0.11,-0.07,-0.1,0.0,x
3037.0,3185.0,3018.0,3362.0,3665.0,2317.0,2676.0,2353.0,4.59,8.58,7.0,-0.16,-0.03,-0.12,0.0,x
3033.0,3183.0,3009.0,3372.0,3659.0,2317.0,2677.0,2358.0,4.51,8.5,7.08,-0.17,-0.07,-0.15,0.0,x
3034.0,3196.0,3021.0,3375.0,3667.0,2314.0,2675.0,2362.0,4.45,7.97,8.2,-0.1,-0.03,-0.15,0.0,x
3053.0,3188.0,3024.0,3370.0,3666.0,2319.0,2686.0,2365.0,4.74,8.02,8.22,-0.11,-0.07,-0.15,0.0,x
3040.0,3185.0,3024.0,3374.0,3669.0,2320.0,2687.0,2369.0,4.67,7.94,8.49,-0.1,-0.02,-0.19,0.0,x
3039.0,3178.0,3013.0,3363.0,3653.0,2318.0,2682.0,2367.0,4.42,8.0,8.34,-0.08,-0.0,-0.2,0.0,x
3042.0,3203.0,3020.0,3382.0,3689.0,2320.0,2687.0,2368.0,4.26,8.0,8.39,-0.08,-0.01,-0.18,0.0,x
3035.0,3169.0,3018.0,3376.0,3659.0,2318.0,2681.0,2364.0,4.38,7.98,8.18,-0.1,-0.05,-0.17,0.0,x
3048.0,3183.0,3024.0,3370.0,3660.0,2311.0,2682.0,2365.0,4.7,7.99,8.24,-0.13,-0.07,-0.17,0.0,x
3047.0,3183.0,3026.0,3374.0,3667.0,2320.0,2682.0,2373.0,4.6,7.94,8.5,-0.16,-0.07,-0.23,0.0,x
3041.0,3190.0,3011.0,3365.0,3663.0,2319.0,2679.0,2361.0,4.54,7.9,8.58,-0.13,-0.05,-0.27,0.0,x
3033.0,3179.0,3021.0,3376.0,3671.0,2319.0,2683.0,2367.0,4.34,7.8,8.8,-0.13,0.08,-0.23,0.0,x
3041.0,3197.0,3026.0,3379.0,3666.0,2319.0,2686.0,2368.0,4.34,7.78,8.78,-0.09,0.11,-0.22,0.0,x
3026.0,3177.0,3023.0,3376.0,3661.0,2317.0,2679.0,2357.0,4.24,7.84,8.92,-0.07,0.08,-0.21,0.0,x
3055.0,3179.0,3030.0,3388.0,3675.0,2319.0,2687.0,2363.0,4.3,7.87,8.91,-0.06,0.11,-0.23,0.0,x
3039.0,3194.0,3015.0,3378.0,3665.0,2316.0,2687.0,2363.0,4.13,7.82,8.93,-0.03,0.16,-0.22,0.0,x
3038.0,3174.0,3021.0,3381.0,3671.0,2314.0,2681.0,2358.0,4.06,7.89,8.92,-0.06,0.11,-0.23,0.0,x
3055.0,3197.0,3026.0,3376.0,3666.0,2317.0,2685.0,2367.0,3.9,7.88,8.88,-0.05,0.07,-0.22,0.0,x
3041.0,3184.0,3004.0,3376.0,3660.0,2316.0,2683.0,2365.0,3.98,7.84,8.95,-0.07,0.03,-0.2,0.0,x
3027.0,3177.0,3007.0,3376.0,3659.0,2315.0,2684.0,2362.0,4.1,7.86,9.06,-0.1,0.02,-0.22,0.0,x
3042.0,3184.0,3008.0,3386.0,3678.0,2320.0,2687.0,2366.0,4.02,7.86,9.02,-0.08,0.08,-0.24,0.0,x
3035.0,3179.0,3013.0,3382.0,3664.0,2317.0,2684.0,2365.0,4.0,7.84,9.17,-0.1,0.21,-0.23,0.0,x
3047.0,3194.0,3024.0,3383.0,3664.0,2320.0,2679.0,2363.0,2.05,7.86,10.15,0.07,0.13,-0.39,0.0,x
3039.0,3182.0,3024.0,3387.0,3671.0,2317.0,2688.0,2368.0,1.88,7.92,9.98,0.11,0.18,-0.36,0.0,x
3045.0,3196.0,3023.0,3392.0,3675.0,2324.0,2693.0,2368.0,1.8,7.96,9.97,0.07,0.11,-0.33,0.0,x
