hall_1,hall_2,hall_3,flex_t,flex_i,flex_m,flex_r,flex_p,accel_x,accel_y,accel_z,gyro_x,gyro_y,gyro_z,hand,sign
2922.0,3674.0,3120.0,3095.0,4095.0,2868.0,3088.0,3177.0,-0.86,9.36,3.61,-0.04,-0.01,-0.04,1.0,x
2930.0,3693.0,3124.0,3089.0,4095.0,2875.0,3098.0,3187.0,-0.92,9.39,3.45,-0.05,0.02,-0.03,1.0,x
2925.0,3694.0,3120.0,3093.0,4095.0,2869.0,3101.0,3182.0,-0.86,9.4,3.68,-0.07,0.02,-0.02,1.0,x
2916.0,3664.0,3120.0,3098.0,4095.0,2876.0,3089.0,3169.0,-0.95,9.42,3.51,-0.05,0.0,-0.04,1.0,x
2926.0,3675.0,3118.0,3098.0,4095.0,2870.0,3090.0,3178.0,-0.82,9.45,3.52,-0.05,0.03,-0.02,1.0,x
2913.0,3678.0,3128.0,3090.0,4095.0,2871.0,3093.0,3168.0,-0.88,9.39,3.66,-0.08,-0.01,-0.04,1.0,x
2931.0,3703.0,3121.0,3101.0,4095.0,2875.0,3098.0,3169.0,-0.88,9.41,3.55,-0.07,0.01,-0.03,1.0,x
2928.0,3679.0,3121.0,3088.0,4095.0,2883.0,3098.0,3171.0,-0.82,9.41,3.56,-0.06,0.01,-0.03,1.0,x
2928.0,3696.0,3109.0,3087.0,4095.0,2881.0,3097.0,3170.0,-0.87,9.44,3.58,-0.07,-0.01,-0.03,1.0,x
2922.0,3676.0,3120.0,3094.0,4095.0,2881.0,3099.0,3182.0,-0.81,9.41,3.62,-0.06,-0.01,-0.02,1.0,x
2924.0,3696.0,3115.0,3082.0,4095.0,2884.0,3097.0,3169.0,-0.81,9.44,3.49,-0.06,-0.02,-0.04,1.0,x
2927.0,3691.0,3120.0,3089.0,4095.0,2879.0,3091.0,3166.0,-0.85,9.43,3.64,-0.06,-0.0,-0.04,1.0,x
2922.0,3675.0,3120.0,3098.0,4095.0,2884.0,3089.0,3170.0,-0.84,9.39,3.66,-0.05,0.01,-0.03,1.0,x
2913.0,3698.0,3120.0,3095.0,4090.0,2871.0,3098.0,3173.0,-0.88,9.43,3.48,-0.09,-0.01,-0.03,1.0,x
2915.0,3682.0,3118.0,3098.0,4095.0,2873.0,3098.0,3177.0,-0.85,9.4,3.63,-0.06,-0.0,-0.04,1.0,x
2918.0,3679.0,3118.0,3089.0,4087.0,2875.0,3094.0,3175.0,-0.74,9.41,3.63,-0.07,-0.0,-0.04,1.0,x
2913.0,3681.0,3114.0,3090.0,4094.0,2874.0,3102.0,3167.0,-0.86,9.38,3.66,-0.08,0.0,-0.03,1.0,x
2918.0,3682.0,3107.0,3090.0,4095.0,2886.0,3099.0,3181.0,-0.82,9.46,3.57,-0.06,0.01,-0.04,1.0,x
2918.0,3667.0,3116.0,3099.0,4095.0,2879.0,3094.0,3173.0,-0.8,9.41,3.62,-0.06,0.0,-0.03,1.0,x
2928.0,3671.0,3120.0,3098.0,4095.0,2889.0,3105.0,3172.0,-0.81,9.42,3.55,-0.08,0.0,-0.03,1.0,x
2918.0,3684.0,3116.0,3105.0,4095.0,2894.0,3093.0,3168.0,-0.77,9.37,3.7,-0.05,-0.01,-0.03,1.0,x
2928.0,3681.0,3121.0,3107.0,4095.0,2883.0,3101.0,3179.0,-0.81,9.39,3.62,-0.06,0.0,-0.04,1.0,x
2918.0,3693.0,3098.0,3111.0,4095.0,2880.0,3100.0,3181.0,-0.79,9.36,3.71,-0.07,0.02,-0.02,1.0,x
2922.0,3698.0,3121.0,3114.0,4095.0,2891.0,3109.0,3177.0,-0.84,9.38,3.68,-0.06,0.01,-0.03,1.0,x
2928.0,3696.0,3120.0,3119.0,4095.0,2886.0,3105.0,3185.0,-0.8,9.4,3.59,-0.05,0.01,-0.03,1.0,x
2912.0,3693.0,3135.0,3104.0,4095.0,2896.0,3097.0,3177.0,-0.79,9.34,3.63,-0.07,0.02,-0.02,1.0,x
2906.0,3699.0,3120.0,3111.0,4095.0,2881.0,3107.0,3184.0,-0.84,9.38,3.59,-0.06,-0.01,-0.04,1.0,x
2922.0,3670.0,3107.0,3116.0,4095.0,2885.0,3101.0,3177.0,-0.74,9.42,3.63,-0.05,-0.01,-0.03,1.0,x
2915.0,3679.0,3113.0,3123.0,4095.0,2898.0,3109.0,3189.0,-0.77,9.4,3.65,-0.06,0.01,-0.04,1.0,x
2915.0,3698.0,3124.0,3105.0,4095.0,2886.0,3104.0,3185.0,-0.8,9.34,3.72,-0.06,0.0,-0.03,1.0,x
2923.0,3677.0,3115.0,3108.0,4095.0,2911.0,3098.0,3185.0,-0.78,9.42,3.61,-0.05,0.0,-0.03,1.0,x
2913.0,3683.0,3120.0,3107.0,4095.0,2891.0,3114.0,3174.0,-0.79,9.41,3.53,-0.06,-0.0,-0.02,1.0,x
2925.0,3670.0,3125.0,3111.0,4095.0,2897.0,3107.0,3176.0,-0.75,9.41,3.65,-0.06,-0.0,-0.03,1.0,x
2926.0,3690.0,3120.0,3109.0,4095.0,2882.0,3101.0,3185.0,-0.74,9.43,3.56,-0.06,0.01,-0.02,1.0,x
2928.0,3696.0,3119.0,3106.0,4095.0,2896.0,3106.0,3186.0,-0.68,9.38,3.77,-0.05,0.01,-0.06,1.0,x
2928.0,3680.0,3120.0,3113.0,4095.0,2896.0,3111.0,3189.0,-0.83,9.44,3.5,-0.02,-0.01,-0.06,1.0,x
2918.0,3677.0,3100.0,3106.0,4095.0,2896.0,3107.0,3181.0,-0.78,9.5,3.46,-0.03,-0.02,-0.03,1.0,x
2915.0,3692.0,3120.0,3114.0,4095.0,2890.0,3117.0,3186.0,-0.9,9.45,3.44,-0.06,0.01,-0.05,1.0,x
2925.0,3675.0,3126.0,3114.0,4095.0,2896.0,3113.0,3184.0,-0.85,9.45,3.51,-0.05,0.01,-0.03,1.0,x
2912.0,3664.0,3122.0,3114.0,4095.0,2885.0,3113.0,3184.0,-0.8,9.48,3.41,-0.06,0.0,-0.04,1.0,x
2919.0,3392.0,3088.0,3127.0,3943.0,2823.0,3095.0,3067.0,-1.29,9.64,2.77,-0.07,0.01,-0.02,1.0,x
2929.0,3398.0,3071.0,3129.0,3932.0,2827.0,3095.0,3069.0,-1.22,9.57,2.82,-0.05,-0.01,0.01,1.0,x
2912.0,3385.0,3088.0,3139.0,3949.0,2830.0,3093.0,3066.0,-1.12,9.6,2.77,-0.1,0.0,0.01,1.0,x
2923.0,3376.0,3071.0,3131.0,3961.0,2831.0,3095.0,3071.0,-1.04,9.63,2.83,-0.06,0.04,-0.04,1.0,x
2919.0,3374.0,3086.0,3152.0,3937.0,2832.0,3093.0,3068.0,-1.03,9.64,2.88,-0.07,-0.01,-0.02,1.0,x
2927.0,3390.0,3088.0,3145.0,3952.0,2825.0,3093.0,3069.0,-1.08,9.59,2.89,-0.06,0.01,0.01,1.0,x
2928.0,3375.0,3071.0,3143.0,3953.0,2839.0,3090.0,3088.0,-0.93,9.63,2.82,-0.06,0.03,0.01,1.0,x
2906.0,3371.0,3067.0,3155.0,3937.0,2832.0,3088.0,3071.0,-0.96,9.62,2.95,-0.05,-0.01,-0.02,1.0,x
2926.0,3381.0,3063.0,3147.0,3952.0,2832.0,3085.0,3090.0,-0.82,9.58,2.94,-0.09,-0.01,-0.01,1.0,x
2923.0,3388.0,3071.0,3157.0,3952.0,2826.0,3102.0,3087.0,-0.93,9.58,2.96,-0.08,-0.01,-0.03,1.0,x
2910.0,3377.0,3079.0,3158.0,3939.0,2839.0,3101.0,3097.0,-0.92,9.61,3.0,-0.07,-0.0,-0.01,1.0,x
2922.0,3391.0,3071.0,3152.0,3945.0,2839.0,3095.0,3090.0,-0.99,9.57,2.99,-0.07,0.0,-0.01,1.0,x
2908.0,3383.0,3087.0,3164.0,3940.0,2832.0,3105.0,3102.0,-0.96,9.63,2.91,-0.1,0.02,0.01,1.0,x
2930.0,3376.0,3091.0,3152.0,3919.0,2842.0,3101.0,3089.0,-0.79,9.56,3.21,-0.07,0.02,-0.01,1.0,x
2921.0,3395.0,3071.0,3159.0,3904.0,2843.0,3104.0,3095.0,-0.79,9.61,2.97,-0.05,-0.02,-0.03,1.0,x
2913.0,3386.0,3086.0,3171.0,3920.0,2832.0,3093.0,3105.0,-0.84,9.64,2.94,-0.07,-0.02,-0.03,1.0,x
2925.0,3382.0,3095.0,3159.0,3890.0,2845.0,3098.0,3102.0,-0.83,9.6,2.98,-0.08,-0.0,-0.02,1.0,x
2934.0,3377.0,3087.0,3173.0,3920.0,2832.0,3091.0,3082.0,-0.73,9.65,3.01,-0.06,-0.01,-0.03,1.0,x
2912.0,3376.0,3089.0,3163.0,3934.0,2832.0,3103.0,3105.0,-0.76,9.63,2.98,-0.06,-0.02,-0.05,1.0,x
2918.0,3376.0,3071.0,3166.0,3899.0,2837.0,3100.0,3105.0,-0.83,9.63,2.98,-0.06,-0.03,-0.05,1.0,x
2911.0,3386.0,3082.0,3167.0,3891.0,2834.0,3089.0,3111.0,-0.79,9.64,2.95,-0.06,0.0,-0.03,1.0,x
2928.0,3390.0,3069.0,3168.0,3915.0,2842.0,3089.0,3109.0,-0.8,9.57,3.12,-0.08,0.0,-0.02,1.0,x
2933.0,3363.0,3085.0,3170.0,3907.0,2847.0,3097.0,3102.0,-0.77,9.59,3.05,-0.05,0.02,-0.03,1.0,x
2914.0,3367.0,3061.0,3173.0,3918.0,2838.0,3104.0,3113.0,-0.79,9.6,2.93,-0.07,-0.01,-0.04,1.0,x
2922.0,3389.0,3093.0,3173.0,3901.0,2848.0,3098.0,3120.0,-0.82,9.58,2.95,-0.09,-0.01,-0.04,1.0,x
2919.0,3382.0,3087.0,3175.0,3935.0,2843.0,3103.0,3115.0,-0.83,9.53,3.17,-0.05,0.01,-0.03,1.0,x
2915.0,3365.0,3071.0,3170.0,3914.0,2849.0,3113.0,3118.0,-0.73,9.61,2.99,-0.07,-0.0,-0.05,1.0,x
2927.0,3374.0,3079.0,3179.0,3935.0,2848.0,3101.0,3102.0,-0.89,9.55,3.08,-0.05,-0.01,-0.04,1.0,x
2917.0,3379.0,3069.0,3183.0,3952.0,2853.0,3103.0,3104.0,-0.72,9.59,3.01,-0.08,-0.02,-0.04,1.0,x
2923.0,3392.0,3071.0,3171.0,3945.0,2862.0,3103.0,3120.0,-0.86,9.58,3.1,-0.07,-0.0,-0.04,1.0,x
2913.0,3380.0,3066.0,3171.0,3935.0,2854.0,3105.0,3119.0,-0.76,9.62,3.02,-0.08,0.01,-0.04,1.0,x
2911.0,3392.0,3086.0,3184.0,3941.0,2849.0,3101.0,3110.0,-0.78,9.58,3.11,-0.1,-0.0,-0.04,1.0,x
2910.0,3357.0,3083.0,3182.0,3961.0,2855.0,3109.0,3121.0,-0.85,9.6,3.13,-0.06,0.01,-0.04,1.0,x
2908.0,3382.0,3079.0,3186.0,3964.0,2854.0,3091.0,3120.0,-0.59,9.61,3.16,-0.04,0.01,-0.03,1.0,x
2927.0,3378.0,3084.0,3187.0,3972.0,2847.0,3101.0,3108.0,-0.74,9.53,3.13,-0.08,0.0,-0.04,1.0,x
2919.0,3376.0,3091.0,3167.0,3986.0,2847.0,3089.0,3112.0,-0.84,9.54,3.16,-0.08,-0.0,-0.03,1.0,x
2928.0,3376.0,3063.0,3194.0,3967.0,2851.0,3101.0,3115.0,-0.7,9.57,3.14,-0.04,0.02,-0.04,1.0,x
2915.0,3389.0,3071.0,3181.0,3999.0,2858.0,3105.0,3123.0,-0.72,9.55,3.19,-0.08,-0.01,-0.03,1.0,x
2916.0,3375.0,3088.0,3185.0,4001.0,2850.0,3115.0,3113.0,-0.84,9.56,3.21,-0.09,-0.01,-0.02,1.0,x
2927.0,3393.0,3088.0,3200.0,3982.0,2864.0,3092.0,3120.0,-0.75,9.6,3.12,-0.07,-0.03,-0.05,1.0,x
2928.0,3239.0,3254.0,3133.0,3941.0,2853.0,3041.0,2865.0,-1.16,9.67,2.75,-0.08,0.0,-0.01,1.0,x
2907.0,3254.0,3274.0,3130.0,3951.0,2852.0,3031.0,2892.0,-1.21,9.6,2.9,-0.09,-0.04,0.01,1.0,x
2928.0,3246.0,3275.0,3135.0,3974.0,2846.0,3050.0,2896.0,-1.1,9.66,2.71,-0.01,0.0,-0.03,1.0,x
2917.0,3233.0,3259.0,3137.0,3952.0,2853.0,3052.0,2917.0,-1.03,9.67,2.71,-0.07,0.02,-0.02,1.0,x
2921.0,3231.0,3280.0,3150.0,3966.0,2847.0,3047.0,2928.0,-0.98,9.59,2.94,-0.06,-0.03,-0.01,1.0,x
2912.0,3247.0,3249.0,3145.0,3971.0,2850.0,3053.0,2935.0,-1.06,9.58,2.92,-0.06,-0.01,-0.02,1.0,x
2927.0,3243.0,3246.0,3140.0,3984.0,2849.0,3043.0,2942.0,-1.03,9.6,2.85,-0.07,-0.03,-0.02,1.0,x
2928.0,3248.0,3263.0,3154.0,3986.0,2852.0,3041.0,2945.0,-1.02,9.56,2.87,-0.09,-0.01,-0.02,1.0,x
2919.0,3269.0,3258.0,3149.0,3957.0,2855.0,3056.0,2937.0,-0.98,9.56,2.85,-0.09,-0.01,-0.01,1.0,x
2910.0,3277.0,3271.0,3166.0,3963.0,2864.0,3056.0,2938.0,-0.97,9.57,2.87,-0.09,0.0,-0.01,1.0,x
2915.0,3252.0,3280.0,3161.0,3988.0,2866.0,3045.0,2930.0,-0.98,9.64,2.79,-0.07,-0.01,-0.02,1.0,x
2918.0,3278.0,3271.0,3153.0,3955.0,2864.0,3051.0,2934.0,-1.02,9.56,2.94,-0.03,0.03,-0.02,1.0,x
2926.0,3263.0,3250.0,3158.0,3997.0,2855.0,3054.0,2965.0,-1.03,9.64,2.84,-0.03,0.01,-0.03,1.0,x
2918.0,3238.0,3266.0,3157.0,3997.0,2867.0,3056.0,2975.0,-0.88,9.69,2.77,-0.11,-0.02,-0.03,1.0,x
2921.0,3248.0,3271.0,3167.0,3979.0,2864.0,3047.0,2965.0,-0.96,9.56,2.94,-0.06,-0.02,-0.03,1.0,x
2919.0,3269.0,3254.0,3162.0,3968.0,2864.0,3056.0,2979.0,-0.92,9.66,2.78,-0.09,-0.01,-0.03,1.0,x
2916.0,3248.0,3249.0,3165.0,3984.0,2862.0,3065.0,2975.0,-0.87,9.66,2.96,-0.04,-0.0,-0.03,1.0,x
2913.0,3258.0,3246.0,3165.0,4001.0,2867.0,3055.0,2973.0,-0.84,9.7,2.79,-0.09,-0.02,-0.04,1.0,x
2916.0,3262.0,3259.0,3175.0,3987.0,2863.0,3063.0,2977.0,-0.85,9.6,3.07,-0.07,-0.0,-0.06,1.0,x
2930.0,3271.0,3265.0,3167.0,3952.0,2867.0,3060.0,2985.0,-0.74,9.71,2.77,-0.03,-0.05,-0.07,1.0,x
2921.0,3264.0,3266.0,3181.0,3987.0,2864.0,3056.0,2989.0,-1.02,9.58,2.88,-0.11,-0.04,-0.06,1.0,x
2916.0,3249.0,3261.0,3173.0,3982.0,2863.0,3051.0,2982.0,-0.72,9.64,2.92,-0.07,-0.03,-0.04,1.0,x
2926.0,3262.0,3248.0,3182.0,3983.0,2862.0,3059.0,2990.0,-0.93,9.56,3.05,-0.06,-0.04,-0.04,1.0,x
2920.0,3264.0,3255.0,3173.0,3987.0,2859.0,3058.0,2981.0,-0.88,9.61,3.03,-0.06,0.02,-0.03,1.0,x
2935.0,3279.0,3258.0,3182.0,4009.0,2861.0,3056.0,2998.0,-0.98,9.56,3.09,-0.13,-0.03,-0.04,1.0,x
2929.0,3285.0,3253.0,3175.0,4009.0,2859.0,3066.0,2999.0,-1.09,9.59,2.93,-0.09,-0.0,-0.06,1.0,x
2926.0,3251.0,3279.0,3182.0,4005.0,2864.0,3068.0,2995.0,-0.96,9.59,3.02,-0.11,0.01,-0.03,1.0,x
2910.0,3295.0,3267.0,3179.0,4014.0,2867.0,3063.0,3005.0,-0.87,9.54,3.32,-0.1,-0.02,-0.05,1.0,x
2918.0,3272.0,3262.0,3181.0,4018.0,2866.0,3068.0,2993.0,-1.0,9.5,3.25,-0.1,0.0,-0.03,1.0,x
2914.0,3321.0,3252.0,3200.0,3993.0,2867.0,3055.0,3019.0,-1.07,9.56,3.02,-0.04,0.0,-0.04,1.0,x
2914.0,3312.0,3252.0,3187.0,4016.0,2887.0,3066.0,3024.0,-0.79,9.6,3.17,-0.02,0.03,-0.05,1.0,x
2925.0,3317.0,3257.0,3191.0,4012.0,2874.0,3066.0,3023.0,-1.01,9.55,3.14,-0.02,-0.01,-0.07,1.0,x
2928.0,3317.0,3265.0,3190.0,4016.0,2885.0,3071.0,3022.0,-0.84,9.58,3.12,-0.04,0.01,-0.09,1.0,x
2925.0,3328.0,3257.0,3185.0,4022.0,2879.0,3068.0,3022.0,-0.99,9.61,2.98,-0.06,-0.02,-0.05,1.0,x
2928.0,3329.0,3255.0,3204.0,4016.0,2875.0,3056.0,3041.0,-1.02,9.61,2.9,-0.11,0.03,-0.06,1.0,x
2925.0,3333.0,3245.0,3205.0,4023.0,2880.0,3059.0,3027.0,-1.24,9.47,3.17,-0.11,-0.03,-0.04,1.0,x
2918.0,3347.0,3264.0,3212.0,4004.0,2882.0,3071.0,3034.0,-0.95,9.53,3.19,-0.05,0.01,-0.03,1.0,x
2911.0,3371.0,3235.0,3209.0,3997.0,2877.0,3061.0,3030.0,-0.93,9.56,3.1,-0.06,0.01,-0.02,1.0,x
2922.0,3374.0,3253.0,3205.0,4016.0,2877.0,3063.0,3047.0,-1.04,9.56,3.1,-0.08,-0.01,-0.04,1.0,x
2925.0,3388.0,3255.0,3221.0,4021.0,2874.0,3062.0,3044.0,-1.1,9.54,3.14,-0.06,-0.0,-0.05,1.0,x
2925.0,3760.0,3431.0,3137.0,3912.0,2775.0,3061.0,3099.0,-1.24,9.54,2.87,-0.06,-0.01,-0.04,1.0,x
2923.0,3775.0,3452.0,3142.0,3905.0,2778.0,3079.0,3102.0,-1.23,9.63,2.75,-0.07,-0.02,-0.02,1.0,x
2928.0,3777.0,3455.0,3136.0,3904.0,2777.0,3071.0,3120.0,-1.4,9.62,2.72,-0.12,-0.03,-0.01,1.0,x
2923.0,3761.0,3422.0,3157.0,3914.0,2779.0,3086.0,3120.0,-1.22,9.5,3.02,-0.08,0.01,-0.03,1.0,x
2923.0,3781.0,3435.0,3167.0,3923.0,2791.0,3086.0,3121.0,-1.27,9.56,2.9,-0.0,0.05,-0.01,1.0,x
2928.0,3763.0,3435.0,3157.0,3934.0,2783.0,3086.0,3131.0,-1.29,9.55,2.86,-0.03,-0.02,-0.02,1.0,x
2921.0,3781.0,3440.0,3170.0,3949.0,2785.0,3088.0,3129.0,-1.15,9.63,2.69,-0.07,0.01,-0.01,1.0,x
2931.0,3742.0,3442.0,3155.0,3950.0,2783.0,3085.0,3122.0,-1.28,9.6,2.71,-0.08,-0.04,-0.02,1.0,x
2928.0,3744.0,3438.0,3158.0,3965.0,2791.0,3083.0,3136.0,-1.13,9.58,2.93,-0.09,-0.01,-0.03,1.0,x
2914.0,3751.0,3440.0,3157.0,3946.0,2792.0,3088.0,3136.0,-1.23,9.49,2.99,-0.07,-0.0,-0.02,1.0,x
2927.0,3783.0,3439.0,3167.0,3948.0,2787.0,3071.0,3140.0,-1.12,9.59,2.8,-0.11,-0.0,-0.03,1.0,x
2925.0,3778.0,3439.0,3166.0,3958.0,2785.0,3092.0,3129.0,-1.21,9.57,2.89,-0.11,0.01,-0.01,1.0,x
2908.0,3774.0,3442.0,3169.0,3943.0,2795.0,3086.0,3141.0,-1.13,9.57,3.01,-0.09,-0.01,-0.0,1.0,x
2910.0,3745.0,3422.0,3184.0,3950.0,2797.0,3086.0,3139.0,-1.0,9.58,3.02,0.02,-0.03,-0.05,1.0,x
2913.0,3749.0,3446.0,3171.0,3964.0,2790.0,3095.0,3136.0,-1.04,9.67,2.81,-0.01,-0.08,-0.06,1.0,x
2930.0,3743.0,3439.0,3186.0,3952.0,2786.0,3088.0,3150.0,-1.18,9.64,2.69,-0.07,0.01,-0.02,1.0,x
2923.0,3763.0,3431.0,3184.0,3974.0,2800.0,3093.0,3147.0,-1.08,9.58,3.03,-0.08,-0.01,-0.03,1.0,x
2932.0,3763.0,3429.0,3184.0,3971.0,2801.0,3089.0,3143.0,-1.08,9.57,2.9,-0.06,0.01,-0.01,1.0,x
2923.0,3755.0,3437.0,3183.0,3979.0,2786.0,3082.0,3145.0,-1.03,9.65,2.74,-0.08,0.01,-0.01,1.0,x
2917.0,3750.0,3440.0,3184.0,3977.0,2791.0,3102.0,3150.0,-1.0,9.66,2.81,-0.1,0.02,-0.02,1.0,x
2916.0,3722.0,3435.0,3182.0,3969.0,2800.0,3104.0,3149.0,-1.03,9.6,3.02,-0.02,0.02,-0.03,1.0,x
2913.0,3735.0,3419.0,3179.0,3973.0,2800.0,3088.0,3136.0,-0.95,9.65,2.85,-0.07,-0.01,-0.04,1.0,x
2927.0,3755.0,3431.0,3173.0,3977.0,2798.0,3091.0,3143.0,-1.0,9.61,2.94,-0.05,-0.01,-0.05,1.0,x
2928.0,3735.0,3415.0,3179.0,3978.0,2807.0,3095.0,3151.0,-1.02,9.62,2.8,-0.08,0.03,-0.0,1.0,x
2922.0,3788.0,3440.0,3184.0,3988.0,2815.0,3098.0,3152.0,-0.91,9.59,3.04,-0.09,0.0,-0.01,1.0,x
2916.0,3758.0,3446.0,3184.0,3966.0,2800.0,3101.0,3152.0,-0.98,9.55,3.06,-0.09,0.01,-0.03,1.0,x
2928.0,3758.0,3438.0,3180.0,3977.0,2805.0,3103.0,3152.0,-0.96,9.67,2.88,-0.07,-0.02,-0.02,1.0,x
2917.0,3767.0,3433.0,3195.0,3959.0,2799.0,3102.0,3149.0,-0.96,9.6,2.93,-0.11,-0.01,-0.03,1.0,x
2916.0,3695.0,3453.0,3199.0,3995.0,2804.0,3089.0,3157.0,-0.93,9.57,3.11,-0.07,-0.0,-0.02,1.0,x
2907.0,3740.0,3440.0,3201.0,3979.0,2810.0,3098.0,3152.0,-0.93,9.56,3.17,-0.02,-0.02,-0.05,1.0,x
2928.0,3755.0,3421.0,3198.0,3956.0,2806.0,3106.0,3161.0,-0.94,9.58,2.97,-0.06,-0.0,-0.05,1.0,x
2922.0,3728.0,3445.0,3195.0,3987.0,2810.0,3095.0,3165.0,-0.9,9.61,3.0,-0.07,-0.01,-0.04,1.0,x
2927.0,3729.0,3433.0,3197.0,3966.0,2811.0,3089.0,3169.0,-0.91,9.63,3.03,-0.04,-0.01,-0.05,1.0,x
2923.0,3772.0,3424.0,3199.0,3964.0,2832.0,3106.0,3163.0,-1.0,9.61,2.97,-0.06,-0.02,-0.04,1.0,x
2928.0,3760.0,3454.0,3200.0,3959.0,2811.0,3094.0,3170.0,-0.97,9.61,2.99,-0.08,-0.01,-0.03,1.0,x
2919.0,3787.0,3424.0,3197.0,3991.0,2803.0,3108.0,3163.0,-0.97,9.56,3.07,-0.07,-0.01,-0.04,1.0,x
2914.0,3745.0,3428.0,3187.0,4001.0,2810.0,3099.0,3157.0,-0.99,9.56,3.08,-0.06,0.01,-0.04,1.0,x
2937.0,3751.0,3412.0,3203.0,3992.0,2810.0,3114.0,3170.0,-0.91,9.57,3.08,-0.06,0.02,-0.03,1.0,x
2923.0,3751.0,3434.0,3205.0,3962.0,2800.0,3108.0,3177.0,-0.89,9.6,3.05,-0.07,0.01,-0.04,1.0,x
2919.0,3779.0,3417.0,3200.0,3984.0,2807.0,3095.0,3170.0,-0.96,9.59,3.05,-0.06,-0.01,-0.04,1.0,x
2913.0,3787.0,3287.0,3115.0,3947.0,2817.0,3067.0,3078.0,-1.31,9.59,2.98,-0.06,0.01,-0.02,1.0,x
2921.0,3794.0,3301.0,3124.0,3961.0,2819.0,3086.0,3082.0,-1.2,9.56,2.99,-0.09,-0.01,-0.02,1.0,x
2923.0,3808.0,3296.0,3115.0,3979.0,2815.0,3063.0,3088.0,-1.25,9.61,2.89,-0.1,-0.01,-0.03,1.0,x
2913.0,3825.0,3281.0,3131.0,3951.0,2807.0,3071.0,3088.0,-1.16,9.52,3.05,-0.03,0.03,-0.02,1.0,x
2928.0,3793.0,3291.0,3120.0,3966.0,2823.0,3071.0,3024.0,-1.15,9.56,3.1,-0.03,0.02,0.01,1.0,x
2918.0,3805.0,3303.0,3134.0,3984.0,2816.0,3071.0,3042.0,-1.08,9.53,2.99,-0.08,-0.01,-0.02,1.0,x
2915.0,3791.0,3280.0,3135.0,3962.0,2827.0,3071.0,3003.0,-1.24,9.54,2.93,-0.07,0.0,-0.05,1.0,x
2899.0,3789.0,3282.0,3127.0,3952.0,2829.0,3071.0,3024.0,-1.13,9.56,2.94,-0.09,-0.01,-0.03,1.0,x
2915.0,3781.0,3291.0,3126.0,3983.0,2835.0,3088.0,3024.0,-1.12,9.49,3.19,-0.07,-0.02,-0.03,1.0,x
2914.0,3805.0,3280.0,3150.0,3969.0,2819.0,3086.0,3044.0,-1.03,9.5,3.11,-0.06,0.0,-0.03,1.0,x
2928.0,3792.0,3295.0,3140.0,4003.0,2834.0,3088.0,3055.0,-1.15,9.5,3.05,-0.07,-0.03,-0.04,1.0,x
2915.0,3789.0,3294.0,3151.0,3974.0,2833.0,3088.0,3044.0,-1.06,9.52,3.05,-0.06,-0.01,-0.02,1.0,x
2915.0,3783.0,3287.0,3149.0,3995.0,2835.0,3083.0,3061.0,-1.15,9.56,3.05,-0.04,-0.01,-0.04,1.0,x
2915.0,3829.0,3311.0,3151.0,3983.0,2836.0,3071.0,3054.0,-1.12,9.55,3.02,-0.05,-0.0,-0.04,1.0,x
2913.0,3795.0,3275.0,3153.0,3971.0,2832.0,3071.0,3061.0,-1.13,9.56,3.03,-0.06,-0.01,-0.03,1.0,x
2930.0,3791.0,3282.0,3152.0,3985.0,2832.0,3091.0,3067.0,-1.11,9.57,3.03,-0.07,0.0,-0.03,1.0,x
2909.0,3806.0,3306.0,3152.0,3987.0,2831.0,3082.0,3067.0,-1.11,9.56,3.02,-0.09,0.01,-0.02,1.0,x
2923.0,3802.0,3296.0,3148.0,4005.0,2831.0,3095.0,3088.0,-1.11,9.57,2.98,-0.08,-0.0,-0.04,1.0,x
2918.0,3791.0,3279.0,3163.0,3979.0,2837.0,3071.0,3086.0,-1.1,9.53,3.07,-0.08,-0.01,-0.04,1.0,x
2929.0,3783.0,3282.0,3156.0,3995.0,2831.0,3087.0,3094.0,-1.08,9.59,3.04,-0.05,0.0,-0.03,1.0,x
2927.0,3818.0,3287.0,3157.0,3981.0,2833.0,3083.0,3091.0,-1.06,9.62,2.99,-0.08,0.0,-0.03,1.0,x
2924.0,3782.0,3292.0,3154.0,4000.0,2832.0,3089.0,3104.0,-1.05,9.57,3.08,-0.05,-0.01,-0.04,1.0,x
2914.0,3792.0,3283.0,3153.0,3996.0,2832.0,3095.0,3093.0,-1.04,9.54,3.14,-0.07,0.0,-0.03,1.0,x
2927.0,3792.0,3275.0,3167.0,4002.0,2839.0,3088.0,3100.0,-1.04,9.55,3.02,-0.1,-0.01,-0.02,1.0,x
2919.0,3791.0,3295.0,3170.0,3978.0,2841.0,3091.0,3103.0,-1.05,9.52,3.11,-0.08,-0.0,-0.03,1.0,x
2928.0,3807.0,3325.0,3177.0,3997.0,2825.0,3071.0,3099.0,-1.02,9.53,3.19,-0.05,-0.01,-0.03,1.0,x
2910.0,3792.0,3287.0,3173.0,4004.0,2839.0,3083.0,3103.0,-1.0,9.55,3.08,-0.07,-0.0,-0.04,1.0,x
2923.0,3776.0,3277.0,3158.0,3995.0,2839.0,3085.0,3103.0,-1.06,9.54,3.21,-0.06,0.01,-0.03,1.0,x
2926.0,3794.0,3283.0,3181.0,3987.0,2845.0,3089.0,3136.0,-0.99,9.54,3.16,-0.08,0.0,-0.03,1.0,x
2924.0,3792.0,3286.0,3183.0,3990.0,2835.0,3085.0,3130.0,-1.01,9.56,3.11,-0.07,0.01,-0.03,1.0,x
2916.0,3799.0,3283.0,3177.0,4013.0,2839.0,3083.0,3137.0,-0.99,9.5,3.22,-0.04,-0.0,-0.04,1.0,x
2935.0,3785.0,3285.0,3181.0,3987.0,2832.0,3100.0,3151.0,-0.94,9.55,3.27,-0.04,0.02,-0.03,1.0,x
2922.0,3802.0,3282.0,3184.0,3984.0,2839.0,3089.0,3143.0,-0.91,9.56,3.15,-0.06,-0.01,-0.04,1.0,x
2919.0,3797.0,3294.0,3184.0,3998.0,2833.0,3090.0,3152.0,-1.04,9.52,3.2,-0.05,0.0,-0.02,1.0,x
2905.0,3791.0,3297.0,3193.0,3994.0,2837.0,3090.0,3159.0,-0.94,9.52,3.21,-0.05,0.03,-0.04,1.0,x
2922.0,3794.0,3290.0,3181.0,3996.0,2853.0,3100.0,3158.0,-0.95,9.52,3.28,-0.05,-0.0,-0.03,1.0,x
2923.0,3809.0,3274.0,3183.0,3991.0,2845.0,3091.0,3162.0,-0.89,9.53,3.21,-0.05,-0.01,-0.05,1.0,x
2919.0,3799.0,3270.0,3185.0,3991.0,2837.0,3103.0,3155.0,-0.99,9.5,3.3,-0.05,0.0,-0.04,1.0,x
2922.0,3811.0,3280.0,3191.0,3984.0,2848.0,3087.0,3152.0,-0.95,9.48,3.3,-0.06,-0.0,-0.03,1.0,x
2926.0,3781.0,3280.0,3191.0,4010.0,2843.0,3087.0,3155.0,-0.92,9.51,3.3,-0.06,0.01,-0.04,1.0,x
2916.0,3947.0,3098.0,3146.0,3920.0,2884.0,3111.0,3026.0,-0.32,9.73,2.39,-0.07,-0.02,-0.07,1.0,x
2931.0,3856.0,3111.0,3147.0,3894.0,2878.0,3099.0,3035.0,-0.56,9.73,2.52,-0.05,0.01,-0.07,1.0,x
2922.0,3840.0,3104.0,3141.0,3895.0,2879.0,3099.0,3041.0,-0.54,9.76,2.24,0.03,0.01,-0.12,1.0,x
2933.0,3853.0,3100.0,3139.0,3915.0,2875.0,3101.0,3040.0,-0.76,9.83,2.35,-0.04,0.03,-0.11,1.0,x
2927.0,3847.0,3111.0,3141.0,3894.0,2874.0,3115.0,3056.0,-0.89,9.77,2.52,-0.09,-0.02,-0.03,1.0,x
2903.0,3850.0,3101.0,3143.0,3909.0,2882.0,3117.0,3056.0,-0.61,9.8,2.41,-0.04,0.01,-0.02,1.0,x
2917.0,3835.0,3091.0,3149.0,3920.0,2894.0,3114.0,3071.0,-0.67,9.74,2.33,-0.09,-0.03,-0.03,1.0,x
2933.0,3845.0,3092.0,3152.0,3931.0,2886.0,3110.0,3071.0,-0.65,9.86,2.63,-0.03,-0.02,-0.03,1.0,x
2911.0,3834.0,3101.0,3141.0,3920.0,2881.0,3109.0,3071.0,-0.59,9.66,2.24,-0.03,-0.08,0.01,1.0,x
2919.0,3837.0,3102.0,3152.0,3902.0,2883.0,3104.0,3058.0,-0.58,9.76,2.43,-0.04,-0.0,-0.07,1.0,x
2925.0,3849.0,3099.0,3150.0,3911.0,2882.0,3110.0,3086.0,-0.57,10.07,1.95,-0.08,-0.01,-0.01,1.0,x
2918.0,3845.0,3115.0,3151.0,3906.0,2887.0,3105.0,3090.0,-0.64,9.77,2.46,-0.04,0.03,-0.0,1.0,x
2933.0,3838.0,3099.0,3145.0,3918.0,2886.0,3111.0,3086.0,-0.56,10.02,2.05,-0.08,-0.01,-0.04,1.0,x
2925.0,3847.0,3095.0,3153.0,3922.0,2890.0,3114.0,3096.0,-0.59,9.65,2.39,-0.05,0.0,-0.03,1.0,x
2919.0,3856.0,3107.0,3161.0,3907.0,2883.0,3105.0,3093.0,-0.57,9.85,2.33,-0.09,0.01,-0.07,1.0,x
2919.0,3834.0,3107.0,3153.0,3934.0,2885.0,3103.0,3111.0,-0.77,9.77,2.42,-0.08,0.0,-0.03,1.0,x
2928.0,3840.0,3111.0,3157.0,3945.0,2894.0,3104.0,3111.0,-0.61,9.84,2.26,-0.05,0.04,-0.03,1.0,x
2928.0,3843.0,3097.0,3148.0,3913.0,2890.0,3105.0,3105.0,-0.59,9.81,2.37,-0.07,0.04,-0.01,1.0,x
2928.0,3838.0,3092.0,3159.0,3928.0,2880.0,3118.0,3103.0,-0.57,9.68,2.55,-0.09,0.02,-0.03,1.0,x
2925.0,3857.0,3090.0,3151.0,3923.0,2886.0,3109.0,3099.0,-0.47,9.73,2.52,-0.02,0.01,-0.03,1.0,x
2917.0,3821.0,3093.0,3163.0,3913.0,2881.0,3112.0,3107.0,-0.57,9.78,2.28,-0.07,-0.04,-0.05,1.0,x
2924.0,3838.0,3105.0,3169.0,3920.0,2882.0,3105.0,3115.0,-0.71,9.9,2.3,-0.07,-0.04,-0.08,1.0,x
2922.0,3870.0,3091.0,3168.0,3924.0,2889.0,3110.0,3114.0,-0.68,9.88,2.24,-0.05,-0.0,-0.03,1.0,x
2915.0,3850.0,3095.0,3155.0,3929.0,2889.0,3107.0,3121.0,-0.56,9.79,2.4,-0.06,0.01,-0.02,1.0,x
2901.0,3837.0,3104.0,3177.0,3926.0,2880.0,3108.0,3120.0,-0.51,9.73,2.41,-0.06,0.02,-0.04,1.0,x
2918.0,3846.0,3106.0,3169.0,3924.0,2880.0,3114.0,3114.0,-0.65,9.8,2.3,-0.11,0.01,-0.04,1.0,x
2912.0,3869.0,3093.0,3164.0,3940.0,2882.0,3120.0,3119.0,-0.64,9.88,2.46,-0.09,0.01,-0.05,1.0,x
2923.0,3827.0,3102.0,3167.0,3952.0,2882.0,3117.0,3120.0,-0.66,9.75,2.47,-0.05,0.01,-0.01,1.0,x
2923.0,3854.0,3122.0,3177.0,3922.0,2887.0,3119.0,3106.0,-0.44,9.81,2.38,-0.07,-0.03,-0.02,1.0,x
2917.0,3850.0,3109.0,3174.0,3949.0,2895.0,3111.0,3105.0,-0.77,9.73,2.44,-0.1,-0.01,-0.04,1.0,x
2917.0,3843.0,3098.0,3181.0,3959.0,2894.0,3110.0,3119.0,-0.47,9.92,2.44,-0.07,-0.01,-0.01,1.0,x
2915.0,3849.0,3095.0,3173.0,3937.0,2882.0,3122.0,3120.0,-0.57,9.64,2.49,-0.07,0.0,-0.01,1.0,x
2911.0,3824.0,3097.0,3166.0,3913.0,2888.0,3115.0,3124.0,-0.41,9.79,2.52,-0.07,-0.03,-0.03,1.0,x
2910.0,3819.0,3091.0,3181.0,3922.0,2896.0,3106.0,3116.0,-0.6,9.73,2.48,-0.08,-0.01,-0.03,1.0,x
2911.0,3854.0,3117.0,3193.0,3916.0,2897.0,3120.0,3118.0,-0.42,9.66,2.49,-0.08,-0.02,-0.03,1.0,x
2909.0,3854.0,3102.0,3190.0,3946.0,2897.0,3116.0,3157.0,-0.44,9.6,2.75,-0.07,-0.03,-0.05,1.0,x
2925.0,3854.0,3096.0,3186.0,3915.0,2894.0,3109.0,3121.0,-0.37,9.92,2.37,-0.09,-0.02,-0.05,1.0,x
2914.0,3856.0,3100.0,3180.0,3943.0,2891.0,3115.0,3125.0,-0.69,9.68,2.77,-0.07,-0.01,-0.05,1.0,x
2919.0,3841.0,3103.0,3200.0,3947.0,2901.0,3109.0,3133.0,-0.55,9.78,2.49,-0.04,0.02,-0.02,1.0,x
2935.0,3831.0,3092.0,3183.0,3910.0,2893.0,3120.0,3136.0,-0.38,9.78,2.38,-0.02,0.0,-0.03,1.0,x
2933.0,3286.0,3108.0,3221.0,3954.0,2946.0,3138.0,3136.0,-0.82,9.43,3.53,-0.03,0.01,-0.0,1.0,x
2928.0,3280.0,3101.0,3234.0,3966.0,2944.0,3136.0,3140.0,-0.99,9.25,3.41,-0.04,0.01,-0.06,1.0,x
2914.0,3279.0,3089.0,3225.0,3967.0,2947.0,3139.0,3140.0,-1.13,9.42,3.52,-0.09,-0.01,-0.04,1.0,x
2913.0,3283.0,3093.0,3234.0,3949.0,2948.0,3126.0,3150.0,-1.05,9.41,3.48,-0.04,0.04,-0.0,1.0,x
2928.0,3263.0,3099.0,3231.0,3955.0,2950.0,3133.0,3152.0,-0.93,9.39,3.45,-0.09,0.0,-0.03,1.0,x
2913.0,3277.0,3093.0,3235.0,3951.0,2946.0,3136.0,3147.0,-0.98,9.37,3.47,-0.05,0.0,-0.04,1.0,x
2933.0,3279.0,3088.0,3241.0,3929.0,2947.0,3138.0,3153.0,-0.99,9.46,3.45,-0.07,0.02,-0.01,1.0,x
2923.0,3279.0,3117.0,3241.0,3941.0,2940.0,3140.0,3155.0,-1.07,9.38,3.53,-0.06,0.04,-0.03,1.0,x
2917.0,3271.0,3094.0,3228.0,3934.0,2953.0,3141.0,3173.0,-0.96,9.5,3.35,-0.08,-0.02,-0.01,1.0,x
2930.0,3276.0,3095.0,3230.0,3933.0,2943.0,3141.0,3181.0,-1.07,9.41,3.53,-0.06,0.01,-0.05,1.0,x
2922.0,3295.0,3082.0,3248.0,3967.0,2947.0,3127.0,3177.0,-1.02,9.44,3.42,-0.04,-0.01,-0.01,1.0,x
2928.0,3277.0,3093.0,3231.0,3958.0,2941.0,3127.0,3175.0,-0.98,9.5,3.4,-0.08,-0.01,-0.04,1.0,x
2926.0,3285.0,3082.0,3231.0,3972.0,2934.0,3132.0,3178.0,-1.03,9.43,3.46,-0.04,0.02,-0.03,1.0,x
2926.0,3280.0,3086.0,3226.0,3959.0,2951.0,3143.0,3181.0,-1.0,9.44,3.35,-0.06,-0.0,-0.03,1.0,x
2934.0,3271.0,3093.0,3244.0,3970.0,2944.0,3137.0,3171.0,-0.92,9.45,3.41,-0.07,0.01,-0.03,1.0,x
2915.0,3282.0,3091.0,3232.0,3958.0,2953.0,3146.0,3179.0,-1.09,9.48,3.38,-0.07,0.01,-0.02,1.0,x
2915.0,3263.0,3095.0,3242.0,3965.0,2939.0,3143.0,3175.0,-0.92,9.46,3.45,-0.07,0.02,-0.02,1.0,x
2914.0,3269.0,3094.0,3247.0,3967.0,2958.0,3143.0,3179.0,-1.01,9.45,3.38,-0.1,-0.02,-0.02,1.0,x
2914.0,3275.0,3090.0,3235.0,3975.0,2951.0,3133.0,3182.0,-0.91,9.47,3.4,-0.08,-0.03,-0.02,1.0,x
2918.0,3275.0,3087.0,3242.0,3977.0,2951.0,3148.0,3181.0,-1.1,9.4,3.45,-0.07,0.0,-0.03,1.0,x
2927.0,3283.0,3088.0,3243.0,3998.0,2950.0,3141.0,3183.0,-0.88,9.5,3.47,-0.05,-0.01,-0.03,1.0,x
2915.0,3295.0,3093.0,3233.0,3981.0,2960.0,3145.0,3185.0,-0.88,9.44,3.29,-0.07,-0.01,-0.03,1.0,x
2918.0,3275.0,3099.0,3247.0,3955.0,2949.0,3152.0,3187.0,-0.78,9.39,3.45,-0.07,-0.01,-0.06,1.0,x
2905.0,3283.0,3088.0,3233.0,3979.0,2951.0,3151.0,3199.0,-0.99,9.59,3.5,-0.05,-0.05,-0.14,1.0,x
2921.0,3301.0,3104.0,3242.0,3961.0,2953.0,3131.0,3189.0,-1.24,9.46,3.52,-0.05,-0.04,-0.05,1.0,x
2929.0,3283.0,3107.0,3245.0,3990.0,2959.0,3136.0,3199.0,-0.96,9.43,3.45,-0.03,-0.01,-0.01,1.0,x
2922.0,3287.0,3086.0,3243.0,3958.0,2959.0,3146.0,3184.0,-0.82,9.46,3.13,-0.04,0.02,-0.0,1.0,x
2923.0,3291.0,3117.0,3235.0,3968.0,2947.0,3145.0,3189.0,-0.88,9.5,3.41,-0.08,-0.0,-0.06,1.0,x
2919.0,3287.0,3093.0,3245.0,3951.0,2960.0,3132.0,3185.0,-1.14,9.4,3.52,-0.07,-0.0,-0.04,1.0,x
2926.0,3339.0,3092.0,3244.0,3966.0,2951.0,3147.0,3209.0,-1.02,9.48,3.39,-0.02,-0.0,-0.04,1.0,x
2902.0,3267.0,3098.0,3248.0,3965.0,2951.0,3143.0,3205.0,-0.99,9.43,3.43,-0.05,-0.02,-0.03,1.0,x
2922.0,3287.0,3107.0,3244.0,3973.0,2947.0,3135.0,3201.0,-0.92,9.45,3.35,-0.03,-0.02,-0.04,1.0,x
2927.0,3280.0,3086.0,3237.0,3984.0,2960.0,3142.0,3214.0,-1.02,9.4,3.33,-0.08,-0.0,-0.02,1.0,x
2903.0,3283.0,3102.0,3248.0,3981.0,2957.0,3139.0,3207.0,-0.89,9.45,3.28,-0.07,-0.02,-0.03,1.0,x
2922.0,3284.0,3099.0,3248.0,3966.0,2959.0,3143.0,3199.0,-1.0,9.42,3.39,-0.09,0.02,-0.03,1.0,x
2919.0,3270.0,3087.0,3253.0,3984.0,2950.0,3149.0,3200.0,-0.99,9.5,3.47,-0.09,0.01,-0.07,1.0,x
2913.0,3279.0,3089.0,3249.0,3982.0,2953.0,3140.0,3201.0,-0.96,9.45,3.5,-0.07,0.0,-0.04,1.0,x
2916.0,3278.0,3099.0,3254.0,3973.0,2960.0,3145.0,3200.0,-0.91,9.38,3.55,-0.05,0.02,-0.05,1.0,x
2914.0,3278.0,3089.0,3248.0,3984.0,2958.0,3147.0,3216.0,-1.04,9.37,3.51,-0.07,-0.01,-0.05,1.0,x
2928.0,3263.0,3088.0,3235.0,3995.0,2943.0,3136.0,3216.0,-0.9,9.55,3.48,-0.08,0.0,-0.04,1.0,x
2922.0,3142.0,3045.0,3152.0,3940.0,2880.0,3137.0,3119.0,-1.67,9.28,3.29,-0.03,-0.01,0.01,1.0,x
2927.0,3152.0,3056.0,3163.0,3942.0,2885.0,3142.0,3135.0,-1.61,9.41,3.12,-0.03,0.0,-0.02,1.0,x
2917.0,3146.0,3047.0,3169.0,3943.0,2885.0,3141.0,3136.0,-1.47,9.47,3.15,-0.03,0.01,0.0,1.0,x
2913.0,3139.0,3053.0,3172.0,3926.0,2880.0,3138.0,3143.0,-1.44,9.45,3.14,-0.08,-0.02,-0.02,1.0,x
2915.0,3127.0,3041.0,3184.0,3934.0,2881.0,3136.0,3147.0,-1.5,9.3,3.28,-0.02,0.02,-0.01,1.0,x
2927.0,3143.0,3062.0,3179.0,3941.0,2895.0,3142.0,3150.0,-1.44,9.52,2.88,-0.04,0.03,-0.05,1.0,x
2927.0,3147.0,3059.0,3191.0,3923.0,2898.0,3145.0,3139.0,-1.54,9.57,3.29,-0.08,-0.02,-0.05,1.0,x
2917.0,3133.0,3056.0,3190.0,3941.0,2895.0,3149.0,3139.0,-1.48,9.44,3.12,-0.01,0.0,-0.01,1.0,x
2916.0,3147.0,3051.0,3183.0,3920.0,2895.0,3137.0,3138.0,-1.4,9.47,3.09,-0.05,-0.01,-0.03,1.0,x
2928.0,3152.0,3042.0,3199.0,3963.0,2893.0,3137.0,3152.0,-1.4,9.45,3.21,-0.06,0.0,-0.03,1.0,x
2910.0,3143.0,3044.0,3200.0,3977.0,2897.0,3143.0,3155.0,-1.45,9.4,3.19,-0.05,0.01,-0.04,1.0,x
2915.0,3135.0,3054.0,3184.0,3957.0,2896.0,3147.0,3152.0,-1.43,9.5,3.23,-0.06,-0.02,-0.04,1.0,x
2916.0,3195.0,3052.0,3198.0,3941.0,2892.0,3146.0,3150.0,-1.44,9.41,3.25,-0.04,0.01,-0.04,1.0,x
2907.0,3141.0,3049.0,3188.0,3953.0,2901.0,3143.0,3156.0,-1.37,9.48,3.2,-0.03,0.02,-0.02,1.0,x
2929.0,3136.0,3056.0,3191.0,3955.0,2895.0,3140.0,3164.0,-1.34,9.44,3.08,-0.04,-0.0,-0.03,1.0,x
2919.0,3152.0,3056.0,3200.0,3949.0,2882.0,3143.0,3168.0,-1.36,9.45,3.18,-0.1,-0.02,-0.05,1.0,x
2911.0,3149.0,3053.0,3198.0,3973.0,2890.0,3139.0,3152.0,-1.47,9.5,3.19,-0.07,-0.0,-0.05,1.0,x
2923.0,3150.0,3050.0,3189.0,3966.0,2898.0,3138.0,3161.0,-1.39,9.48,3.25,-0.07,-0.0,-0.03,1.0,x
2911.0,3146.0,3055.0,3209.0,3951.0,2895.0,3150.0,3159.0,-1.39,9.34,3.32,-0.04,-0.0,-0.04,1.0,x
2911.0,3163.0,3043.0,3205.0,3952.0,2896.0,3146.0,3172.0,-1.35,9.48,3.16,-0.08,-0.01,-0.03,1.0,x
2922.0,3145.0,3043.0,3203.0,3963.0,2899.0,3148.0,3152.0,-1.45,9.35,3.35,-0.06,-0.01,-0.03,1.0,x
2922.0,3164.0,3044.0,3207.0,3959.0,2896.0,3135.0,3152.0,-1.47,9.51,3.03,-0.07,-0.04,-0.05,1.0,x
2924.0,3152.0,3047.0,3217.0,3953.0,2899.0,3133.0,3161.0,-1.38,9.38,3.34,-0.08,-0.0,-0.04,1.0,x
2925.0,3145.0,3043.0,3205.0,3936.0,2898.0,3142.0,3172.0,-1.51,9.44,3.15,-0.07,0.01,-0.02,1.0,x
2913.0,3201.0,3049.0,3209.0,3952.0,2894.0,3146.0,3165.0,-1.41,9.45,3.27,-0.07,-0.01,-0.05,1.0,x
2926.0,3161.0,3056.0,3226.0,3952.0,2908.0,3145.0,3171.0,-1.4,9.39,3.33,-0.08,-0.02,-0.03,1.0,x
2928.0,3151.0,3050.0,3209.0,3978.0,2901.0,3152.0,3178.0,-1.51,9.32,3.14,-0.05,0.02,-0.03,1.0,x
2921.0,3151.0,3054.0,3221.0,3982.0,2910.0,3138.0,3173.0,-1.22,9.5,3.5,-0.1,-0.0,0.01,1.0,x
2922.0,3155.0,3056.0,3210.0,3957.0,2912.0,3143.0,3184.0,-1.44,9.45,3.33,0.01,0.01,-0.01,1.0,x
2928.0,3153.0,3051.0,3221.0,3995.0,2911.0,3147.0,3166.0,-1.06,9.38,3.33,-0.05,-0.03,0.01,1.0,x
2909.0,3152.0,3055.0,3223.0,3957.0,2913.0,3138.0,3178.0,-1.23,9.46,3.08,-0.06,-0.04,-0.05,1.0,x
2917.0,3138.0,3043.0,3222.0,3956.0,2911.0,3147.0,3179.0,-1.22,9.55,3.19,-0.07,0.02,-0.04,1.0,x
2928.0,3154.0,3049.0,3213.0,3967.0,2911.0,3142.0,3174.0,-1.11,9.42,3.46,-0.07,0.01,-0.06,1.0,x
2923.0,3151.0,3056.0,3219.0,3952.0,2913.0,3151.0,3176.0,-1.21,9.41,3.39,-0.05,-0.02,-0.03,1.0,x
2919.0,3152.0,3056.0,3222.0,3962.0,2903.0,3143.0,3187.0,-1.16,9.5,3.14,-0.07,-0.0,-0.04,1.0,x
2926.0,3165.0,3037.0,3230.0,3943.0,2901.0,3142.0,3184.0,-1.19,9.39,3.39,-0.08,0.0,-0.05,1.0,x
2913.0,3147.0,3053.0,3222.0,3984.0,2913.0,3152.0,3173.0,-1.39,9.53,3.33,-0.04,0.03,-0.04,1.0,x
2928.0,3155.0,3053.0,3232.0,3965.0,2914.0,3152.0,3179.0,-1.27,9.55,3.28,-0.07,0.0,-0.03,1.0,x
2919.0,3152.0,3041.0,3221.0,3955.0,2905.0,3151.0,3191.0,-1.23,9.49,3.32,-0.08,0.0,-0.01,1.0,x
2913.0,3157.0,3045.0,3228.0,3953.0,2922.0,3143.0,3187.0,-1.17,9.39,3.39,-0.06,0.0,-0.03,1.0,x
2913.0,3445.0,3037.0,3205.0,4055.0,2954.0,3122.0,3175.0,-1.52,9.5,3.11,-0.04,0.02,-0.06,1.0,x
2928.0,3457.0,3041.0,3205.0,4063.0,2941.0,3122.0,3182.0,-1.4,9.53,3.06,-0.02,0.0,-0.03,1.0,x
2925.0,3451.0,3038.0,3209.0,4043.0,2959.0,3127.0,3174.0,-1.39,9.56,2.82,-0.08,-0.02,-0.05,1.0,x
2907.0,3479.0,3034.0,3199.0,4039.0,2955.0,3120.0,3179.0,-1.33,9.46,3.18,-0.07,-0.02,-0.02,1.0,x
2927.0,3455.0,3052.0,3201.0,4036.0,2947.0,3129.0,3167.0,-1.37,9.5,3.1,-0.04,-0.0,-0.02,1.0,x
2916.0,3471.0,3039.0,3211.0,4059.0,2960.0,3133.0,3171.0,-1.29,9.5,2.91,-0.11,-0.06,-0.05,1.0,x
2914.0,3463.0,3041.0,3216.0,4060.0,2953.0,3125.0,3175.0,-1.57,9.46,2.96,-0.05,0.03,-0.05,1.0,x
2916.0,3450.0,3054.0,3209.0,4047.0,2963.0,3127.0,3174.0,-1.33,9.54,2.89,-0.09,0.02,-0.02,1.0,x
2918.0,3465.0,3042.0,3215.0,4039.0,2954.0,3119.0,3173.0,-1.39,9.45,3.09,-0.05,0.02,-0.03,1.0,x
2928.0,3450.0,3049.0,3216.0,4080.0,2959.0,3126.0,3177.0,-1.28,9.51,3.05,-0.08,0.01,-0.01,1.0,x
2918.0,3442.0,3053.0,3214.0,4067.0,2956.0,3131.0,3177.0,-1.36,9.48,3.12,-0.05,-0.01,-0.03,1.0,x
2928.0,3455.0,3046.0,3231.0,4065.0,2949.0,3135.0,3179.0,-1.35,9.57,2.97,-0.03,0.01,-0.02,1.0,x
2930.0,3440.0,3046.0,3231.0,4073.0,2960.0,3130.0,3184.0,-1.35,9.52,2.92,-0.08,0.02,-0.05,1.0,x
2909.0,3459.0,3041.0,3218.0,4048.0,2955.0,3129.0,3177.0,-1.32,9.56,3.0,-0.09,-0.02,-0.03,1.0,x
2919.0,3451.0,3031.0,3229.0,4043.0,2960.0,3123.0,3190.0,-1.44,9.48,3.18,-0.05,0.0,-0.05,1.0,x
2921.0,3460.0,3045.0,3222.0,4027.0,2957.0,3138.0,3184.0,-1.39,9.5,3.04,-0.05,-0.01,-0.04,1.0,x
2928.0,3455.0,3049.0,3230.0,4048.0,2964.0,3123.0,3201.0,-1.49,9.47,3.09,-0.07,-0.03,-0.04,1.0,x
2924.0,3443.0,3047.0,3225.0,4047.0,2961.0,3135.0,3184.0,-1.24,9.55,2.92,-0.05,0.0,-0.05,1.0,x
2928.0,3437.0,3043.0,3223.0,4048.0,2958.0,3123.0,3187.0,-1.48,9.44,3.19,-0.07,0.01,-0.03,1.0,x
2927.0,3461.0,3051.0,3223.0,4047.0,2960.0,3142.0,3179.0,-1.37,9.48,3.08,-0.07,-0.0,-0.02,1.0,x
2926.0,3451.0,3050.0,3229.0,4042.0,2969.0,3136.0,3179.0,-1.28,9.56,2.93,-0.04,0.02,-0.03,1.0,x
2914.0,3458.0,3038.0,3233.0,4048.0,2959.0,3130.0,3184.0,-1.36,9.5,3.05,-0.09,-0.03,-0.04,1.0,x
2925.0,3455.0,3033.0,3237.0,4039.0,2965.0,3125.0,3182.0,-1.48,9.45,3.29,-0.04,0.03,-0.01,1.0,x
2935.0,3457.0,3051.0,3230.0,4031.0,2960.0,3138.0,3191.0,-1.08,9.66,2.86,-0.09,-0.11,-0.02,1.0,x
2918.0,3456.0,3040.0,3227.0,4061.0,2960.0,3137.0,3185.0,-1.42,9.39,3.37,-0.06,-0.07,-0.0,1.0,x
2930.0,3503.0,3054.0,3237.0,4039.0,2974.0,3131.0,3185.0,-1.26,9.69,2.51,0.0,-0.05,-0.02,1.0,x
2927.0,3451.0,3037.0,3244.0,4034.0,2969.0,3131.0,3198.0,-1.17,9.56,3.1,-0.01,-0.01,-0.04,1.0,x
2913.0,3461.0,3038.0,3244.0,4061.0,2963.0,3135.0,3199.0,-1.19,9.65,2.83,-0.05,-0.03,-0.06,1.0,x
2921.0,3450.0,3035.0,3247.0,4029.0,2976.0,3137.0,3200.0,-1.07,9.59,2.92,-0.06,0.0,-0.07,1.0,x
2925.0,3457.0,3050.0,3248.0,4009.0,2960.0,3138.0,3193.0,-1.38,9.57,2.97,-0.07,0.01,-0.05,1.0,x
2928.0,3458.0,3041.0,3250.0,4026.0,2966.0,3142.0,3197.0,-1.35,9.62,2.81,-0.11,-0.01,-0.04,1.0,x
2911.0,3459.0,3045.0,3248.0,4029.0,2973.0,3128.0,3198.0,-1.23,9.61,2.88,-0.07,0.01,-0.01,1.0,x
2910.0,3459.0,3042.0,3235.0,4048.0,2963.0,3146.0,3199.0,-1.37,9.54,3.08,-0.08,-0.0,-0.05,1.0,x
2917.0,3459.0,3038.0,3250.0,4057.0,2962.0,3143.0,3195.0,-1.16,9.54,3.11,-0.06,0.02,-0.05,1.0,x
2925.0,3474.0,3032.0,3248.0,4029.0,2964.0,3140.0,3199.0,-1.17,9.49,3.22,-0.04,-0.01,-0.06,1.0,x
2926.0,3456.0,3056.0,3259.0,4028.0,2965.0,3131.0,3214.0,-1.22,9.58,2.92,-0.09,-0.03,-0.04,1.0,x
2922.0,3440.0,3051.0,3260.0,4048.0,2960.0,3131.0,3201.0,-1.38,9.46,3.22,-0.05,0.01,-0.04,1.0,x
2925.0,3447.0,3044.0,3264.0,4033.0,2967.0,3131.0,3195.0,-1.1,9.55,3.0,-0.08,-0.01,-0.02,1.0,x
2915.0,3462.0,3031.0,3251.0,4041.0,2961.0,3135.0,3200.0,-1.17,9.49,3.27,-0.05,0.04,-0.04,1.0,x
2919.0,3444.0,3042.0,3261.0,4048.0,2974.0,3135.0,3210.0,-1.36,9.57,2.98,-0.07,-0.02,-0.09,1.0,x
2910.0,3377.0,3041.0,3181.0,3895.0,2991.0,3151.0,3155.0,-1.17,9.68,2.94,-0.1,-0.02,-0.04,1.0,x
2921.0,3368.0,3025.0,3182.0,3905.0,2999.0,3146.0,3175.0,-1.12,9.62,2.73,-0.05,0.01,-0.05,1.0,x
2928.0,3376.0,3025.0,3184.0,3895.0,2993.0,3158.0,3168.0,-1.23,9.6,2.8,-0.09,0.01,-0.04,1.0,x
2907.0,3379.0,3030.0,3190.0,3884.0,3007.0,3149.0,3163.0,-1.22,9.59,2.88,-0.09,-0.02,-0.03,1.0,x
2924.0,3391.0,3041.0,3175.0,3890.0,3005.0,3162.0,3177.0,-1.21,9.64,2.79,-0.06,0.02,-0.05,1.0,x
2907.0,3372.0,3042.0,3187.0,3909.0,3003.0,3154.0,3161.0,-1.23,9.63,2.82,-0.06,0.0,-0.03,1.0,x
2911.0,3361.0,3046.0,3184.0,3892.0,3003.0,3165.0,3166.0,-1.22,9.62,2.81,-0.05,0.0,-0.04,1.0,x
2912.0,3392.0,3042.0,3186.0,3899.0,3003.0,3165.0,3178.0,-1.26,9.64,2.72,-0.05,-0.01,-0.04,1.0,x
2935.0,3367.0,3043.0,3198.0,3920.0,3006.0,3143.0,3173.0,-1.19,9.65,2.78,-0.03,0.0,-0.05,1.0,x
2919.0,3366.0,3043.0,3192.0,3889.0,3002.0,3158.0,3173.0,-1.2,9.58,2.85,-0.05,0.02,-0.05,1.0,x
2915.0,3375.0,3042.0,3201.0,3888.0,3003.0,3157.0,3184.0,-1.26,9.63,2.85,-0.05,0.02,-0.03,1.0,x
2926.0,3366.0,3045.0,3186.0,3906.0,3004.0,3152.0,3189.0,-1.3,9.6,2.81,-0.08,-0.02,-0.01,1.0,x
2924.0,3392.0,3035.0,3207.0,3888.0,3005.0,3154.0,3174.0,-1.23,9.59,2.76,-0.08,-0.02,-0.03,1.0,x
2924.0,3369.0,3054.0,3202.0,3899.0,3004.0,3162.0,3172.0,-1.17,9.53,2.83,-0.1,-0.01,-0.03,1.0,x
2925.0,3372.0,3031.0,3191.0,3897.0,2992.0,3166.0,3184.0,-1.2,9.56,2.91,-0.06,-0.01,-0.04,1.0,x
2928.0,3370.0,3041.0,3199.0,3903.0,3007.0,3154.0,3189.0,-1.22,9.59,2.9,-0.07,-0.0,-0.03,1.0,x
2913.0,3374.0,3046.0,3200.0,3897.0,2998.0,3153.0,3188.0,-1.22,9.57,2.8,-0.05,-0.0,-0.05,1.0,x
2917.0,3376.0,3030.0,3202.0,3914.0,3005.0,3165.0,3184.0,-1.16,9.56,2.89,-0.06,-0.05,-0.05,1.0,x
2915.0,3390.0,3044.0,3213.0,3904.0,3011.0,3154.0,3184.0,-1.23,9.52,2.73,-0.05,0.0,-0.07,1.0,x
2919.0,3371.0,3025.0,3195.0,3907.0,3003.0,3155.0,3183.0,-1.41,9.42,2.76,-0.07,0.01,-0.06,1.0,x
2929.0,3383.0,3055.0,3216.0,3926.0,2998.0,3159.0,3183.0,-1.25,9.67,2.73,-0.13,-0.01,-0.07,1.0,x
2927.0,3376.0,3040.0,3206.0,3931.0,2991.0,3161.0,3175.0,-1.34,9.66,2.78,-0.12,-0.01,-0.07,1.0,x
2917.0,3364.0,3046.0,3202.0,3907.0,2995.0,3154.0,3198.0,-1.43,9.58,2.9,-0.11,0.0,-0.06,1.0,x
2924.0,3379.0,3031.0,3214.0,3904.0,3006.0,3155.0,3181.0,-1.42,9.51,2.98,-0.08,-0.0,-0.04,1.0,x
2929.0,3377.0,3028.0,3203.0,3919.0,3010.0,3152.0,3181.0,-1.39,9.53,3.06,-0.06,0.0,-0.04,1.0,x
2928.0,3380.0,3031.0,3199.0,3921.0,3002.0,3157.0,3195.0,-1.45,9.49,2.99,-0.05,0.0,-0.03,1.0,x
2902.0,3373.0,3030.0,3216.0,3905.0,3013.0,3157.0,3184.0,-1.3,9.6,2.87,-0.05,0.01,-0.02,1.0,x
2924.0,3383.0,3042.0,3209.0,3915.0,3010.0,3152.0,3197.0,-1.38,9.56,3.0,-0.04,0.0,-0.04,1.0,x
2928.0,3376.0,3034.0,3215.0,3919.0,2998.0,3166.0,3197.0,-1.41,9.56,2.92,-0.06,0.0,-0.02,1.0,x
2907.0,3395.0,3035.0,3215.0,3897.0,3008.0,3166.0,3197.0,-1.31,9.5,2.99,-0.07,-0.02,-0.02,1.0,x
2926.0,3375.0,3046.0,3204.0,3904.0,3009.0,3169.0,3183.0,-1.31,9.55,2.89,-0.05,0.01,-0.04,1.0,x
2913.0,3375.0,3045.0,3202.0,3906.0,3013.0,3162.0,3184.0,-1.31,9.56,2.96,-0.06,-0.0,-0.03,1.0,x
2906.0,3380.0,3046.0,3217.0,3917.0,2996.0,3157.0,3197.0,-1.29,9.54,2.98,-0.06,0.0,-0.03,1.0,x
2928.0,3383.0,3039.0,3208.0,3903.0,3010.0,3155.0,3195.0,-1.33,9.45,3.01,-0.07,0.0,-0.05,1.0,x
2915.0,3386.0,3043.0,3215.0,3927.0,3009.0,3153.0,3193.0,-1.32,9.56,2.98,-0.07,-0.01,-0.04,1.0,x
2934.0,3366.0,3033.0,3209.0,3906.0,3010.0,3169.0,3198.0,-1.37,9.6,2.96,-0.08,-0.01,-0.04,1.0,x
2912.0,3372.0,3030.0,3215.0,3888.0,3011.0,3155.0,3185.0,-1.36,9.49,3.04,-0.06,-0.01,-0.03,1.0,x
2928.0,3350.0,3031.0,3215.0,3924.0,3004.0,3168.0,3190.0,-1.24,9.46,3.04,-0.05,0.0,-0.03,1.0,x
2928.0,3374.0,3033.0,3202.0,3915.0,3005.0,3156.0,3199.0,-1.31,9.5,2.94,-0.07,-0.01,-0.04,1.0,x
2928.0,3358.0,3061.0,3210.0,3918.0,3021.0,3173.0,3206.0,-1.3,9.45,2.99,-0.05,-0.01,-0.06,1.0,x
2916.0,3661.0,3220.0,3189.0,3824.0,2865.0,3109.0,2896.0,-1.46,9.48,2.95,-0.04,-0.01,-0.04,1.0,x
2927.0,3678.0,3209.0,3191.0,3808.0,2874.0,3121.0,2930.0,-1.64,9.5,2.84,-0.06,-0.03,-0.04,1.0,x
2918.0,3670.0,3223.0,3202.0,3829.0,2882.0,3111.0,2898.0,-1.52,9.59,2.72,-0.06,-0.03,-0.04,1.0,x
2928.0,3659.0,3208.0,3207.0,3838.0,2880.0,3113.0,2914.0,-1.54,9.48,2.93,-0.1,0.01,-0.01,1.0,x
2925.0,3647.0,3219.0,3214.0,3846.0,2881.0,3120.0,2923.0,-1.56,9.48,2.83,-0.02,0.01,-0.03,1.0,x
2935.0,3655.0,3217.0,3217.0,3826.0,2896.0,3120.0,2919.0,-1.51,9.56,2.79,-0.09,-0.01,-0.02,1.0,x
2912.0,3696.0,3216.0,3203.0,3841.0,2883.0,3107.0,2913.0,-1.58,9.58,2.68,-0.07,0.01,-0.04,1.0,x
2927.0,3674.0,3219.0,3210.0,3841.0,2885.0,3120.0,2941.0,-1.48,9.55,2.89,-0.04,-0.0,-0.02,1.0,x
2914.0,3673.0,3226.0,3229.0,3847.0,2880.0,3121.0,2944.0,-1.45,9.51,2.89,-0.05,0.01,-0.04,1.0,x
2925.0,3675.0,3218.0,3227.0,3865.0,2891.0,3107.0,2944.0,-1.4,9.45,2.94,-0.03,0.01,-0.04,1.0,x
2927.0,3662.0,3211.0,3212.0,3863.0,2891.0,3104.0,2960.0,-1.51,9.47,2.91,-0.06,-0.0,-0.03,1.0,x
2923.0,3675.0,3202.0,3232.0,3861.0,2896.0,3120.0,2958.0,-1.46,9.53,2.83,-0.08,-0.02,-0.04,1.0,x
2931.0,3665.0,3209.0,3217.0,3850.0,2898.0,3123.0,2944.0,-1.52,9.47,2.9,-0.07,-0.02,-0.03,1.0,x
2921.0,3657.0,3210.0,3219.0,3859.0,2895.0,3120.0,2963.0,-1.51,9.51,2.9,-0.06,0.01,-0.04,1.0,x
2925.0,3678.0,3216.0,3223.0,3875.0,2896.0,3126.0,2973.0,-1.44,9.57,2.82,-0.07,-0.03,-0.04,1.0,x
2927.0,3650.0,3227.0,3227.0,3872.0,2891.0,3119.0,2985.0,-1.56,9.54,2.94,-0.08,-0.0,-0.05,1.0,x
2932.0,3664.0,3203.0,3234.0,3888.0,2887.0,3121.0,2959.0,-1.41,9.5,2.94,-0.08,-0.01,-0.04,1.0,x
2925.0,3669.0,3220.0,3220.0,3846.0,2894.0,3119.0,2965.0,-1.55,9.52,2.89,-0.11,-0.01,-0.03,1.0,x
2909.0,3674.0,3226.0,3229.0,3872.0,2887.0,3129.0,2935.0,-1.44,9.51,2.93,-0.06,0.01,-0.03,1.0,x
2917.0,3667.0,3222.0,3247.0,3876.0,2898.0,3130.0,2999.0,-1.53,9.52,2.89,-0.09,-0.01,-0.03,1.0,x
2931.0,3662.0,3216.0,3233.0,3866.0,2899.0,3125.0,2989.0,-1.51,9.5,2.97,-0.09,0.02,-0.02,1.0,x
2928.0,3665.0,3211.0,3235.0,3857.0,2891.0,3139.0,2993.0,-1.52,9.53,2.97,-0.09,0.01,-0.03,1.0,x
2913.0,3666.0,3214.0,3231.0,3861.0,2898.0,3131.0,2990.0,-1.45,9.56,2.88,-0.07,0.0,-0.03,1.0,x
2915.0,3678.0,3224.0,3247.0,3886.0,2887.0,3130.0,3007.0,-1.44,9.51,2.94,-0.07,0.01,-0.03,1.0,x
2930.0,3659.0,3221.0,3239.0,3883.0,2891.0,3127.0,3003.0,-1.42,9.53,2.92,-0.1,-0.01,-0.04,1.0,x
2923.0,3701.0,3218.0,3229.0,3872.0,2895.0,3132.0,2987.0,-1.5,9.54,2.98,-0.08,-0.0,-0.04,1.0,x
2927.0,3655.0,3211.0,3229.0,3858.0,2896.0,3129.0,2995.0,-1.4,9.52,2.9,-0.05,-0.01,-0.04,1.0,x
2925.0,3645.0,3224.0,3248.0,3871.0,2891.0,3126.0,2983.0,-1.39,9.48,3.01,-0.06,-0.01,-0.03,1.0,x
2914.0,3654.0,3215.0,3231.0,3888.0,2893.0,3121.0,2982.0,-1.4,9.51,2.99,-0.06,-0.01,-0.03,1.0,x
2929.0,3687.0,3217.0,3231.0,3888.0,2896.0,3121.0,2983.0,-1.44,9.5,2.98,-0.05,0.01,-0.03,1.0,x
2929.0,3650.0,3201.0,3250.0,3893.0,2896.0,3127.0,2981.0,-1.36,9.49,3.03,-0.07,0.01,-0.03,1.0,x
2928.0,3647.0,3216.0,3242.0,3856.0,2909.0,3125.0,2976.0,-1.38,9.51,3.02,-0.05,0.01,-0.04,1.0,x
2908.0,3670.0,3220.0,3242.0,3862.0,2895.0,3134.0,2990.0,-1.45,9.49,3.0,-0.07,0.02,-0.04,1.0,x
2913.0,3665.0,3216.0,3242.0,3855.0,2901.0,3138.0,2990.0,-1.47,9.51,2.96,-0.08,0.0,-0.04,1.0,x
2926.0,3671.0,3221.0,3248.0,3875.0,2899.0,3124.0,2998.0,-1.33,9.55,2.95,-0.06,-0.0,-0.04,1.0,x
2928.0,3658.0,3215.0,3250.0,3879.0,2908.0,3130.0,2997.0,-1.47,9.45,3.09,-0.08,-0.02,-0.04,1.0,x
2909.0,3661.0,3217.0,3261.0,3888.0,2906.0,3125.0,2992.0,-1.34,9.5,3.0,-0.05,-0.01,-0.05,1.0,x
2921.0,3666.0,3223.0,3249.0,3857.0,2905.0,3133.0,2992.0,-1.39,9.5,3.03,-0.05,0.01,-0.04,1.0,x
2928.0,3649.0,3222.0,3250.0,3888.0,2908.0,3135.0,2981.0,-1.35,9.49,3.13,-0.05,-0.0,-0.04,1.0,x
2910.0,3673.0,3231.0,3254.0,3888.0,2911.0,3131.0,2981.0,-1.35,9.51,3.08,-0.03,0.01,-0.05,1.0,x
2915.0,3792.0,3259.0,3137.0,3829.0,2946.0,3118.0,3152.0,-1.74,9.47,2.96,-0.11,-0.01,-0.02,1.0,x
2911.0,3813.0,3265.0,3142.0,3848.0,2939.0,3105.0,3155.0,-1.59,9.42,2.96,-0.03,0.02,-0.02,1.0,x
2918.0,3792.0,3264.0,3136.0,3835.0,2947.0,3101.0,3174.0,-1.58,9.52,2.95,-0.06,0.0,-0.03,1.0,x
2921.0,3811.0,3267.0,3131.0,3849.0,2960.0,3107.0,3171.0,-1.57,9.51,2.93,-0.09,-0.01,-0.03,1.0,x
2917.0,3792.0,3248.0,3133.0,3841.0,2951.0,3117.0,3175.0,-1.53,9.49,3.0,-0.07,0.0,-0.03,1.0,x
2911.0,3797.0,3248.0,3143.0,3838.0,2959.0,3103.0,3171.0,-1.46,9.51,3.01,-0.01,0.02,-0.01,1.0,x
2914.0,3779.0,3246.0,3149.0,3862.0,2958.0,3115.0,3163.0,-1.4,9.51,2.94,-0.06,0.02,-0.04,1.0,x
2915.0,3799.0,3259.0,3147.0,3851.0,2957.0,3111.0,3179.0,-1.47,9.5,2.99,-0.03,0.03,-0.04,1.0,x
2910.0,3819.0,3261.0,3151.0,3843.0,2959.0,3101.0,3173.0,-1.38,9.48,3.06,-0.05,0.01,-0.04,1.0,x
2921.0,3789.0,3243.0,3145.0,3858.0,2953.0,3101.0,3182.0,-1.44,9.56,2.89,-0.09,-0.0,-0.02,1.0,x
2928.0,3801.0,3261.0,3147.0,3845.0,2959.0,3110.0,3179.0,-1.47,9.48,3.07,-0.06,-0.01,-0.05,1.0,x
2909.0,3805.0,3248.0,3154.0,3843.0,2962.0,3109.0,3180.0,-1.51,9.53,2.87,-0.08,-0.03,-0.0,1.0,x
2919.0,3793.0,3241.0,3149.0,3871.0,2961.0,3104.0,3183.0,-1.31,9.52,2.98,-0.07,-0.01,-0.04,1.0,x
2918.0,3806.0,3249.0,3164.0,3863.0,2965.0,3105.0,3191.0,-1.39,9.55,2.84,-0.09,0.0,-0.05,1.0,x
2928.0,3805.0,3248.0,3149.0,3846.0,2960.0,3113.0,3185.0,-1.58,9.48,3.18,-0.06,0.01,-0.04,1.0,x
2930.0,3809.0,3254.0,3157.0,3862.0,2960.0,3106.0,3193.0,-1.47,9.6,2.64,-0.06,0.01,-0.01,1.0,x
2917.0,3804.0,3262.0,3164.0,3851.0,2973.0,3109.0,3183.0,-1.45,9.54,2.88,-0.06,-0.01,-0.02,1.0,x
2923.0,3825.0,3262.0,3157.0,3862.0,2970.0,3113.0,3196.0,-1.47,9.48,3.1,-0.07,0.01,-0.01,1.0,x
2910.0,3824.0,3248.0,3150.0,3853.0,2971.0,3115.0,3201.0,-1.34,9.51,3.02,-0.06,0.01,-0.04,1.0,x
2919.0,3806.0,3244.0,3159.0,3855.0,2967.0,3113.0,3197.0,-1.34,9.46,3.06,-0.06,-0.0,-0.04,1.0,x
2915.0,3817.0,3251.0,3159.0,3855.0,2961.0,3114.0,3196.0,-1.43,9.5,2.98,-0.09,-0.0,-0.02,1.0,x
2928.0,3791.0,3262.0,3166.0,3841.0,2967.0,3113.0,3202.0,-1.41,9.48,3.02,-0.08,-0.01,-0.03,1.0,x
2918.0,3809.0,3257.0,3177.0,3857.0,2959.0,3106.0,3207.0,-1.41,9.51,2.98,-0.07,-0.01,-0.04,1.0,x
2918.0,3824.0,3253.0,3171.0,3842.0,2961.0,3106.0,3187.0,-1.41,9.48,3.07,-0.06,-0.02,-0.05,1.0,x
2915.0,3807.0,3259.0,3165.0,3855.0,2970.0,3106.0,3209.0,-1.35,9.5,2.99,-0.07,-0.02,-0.04,1.0,x
2925.0,3813.0,3248.0,3170.0,3870.0,2978.0,3108.0,3194.0,-1.38,9.48,2.99,-0.08,0.0,-0.03,1.0,x
2918.0,3812.0,3261.0,3182.0,3878.0,2961.0,3109.0,3205.0,-1.41,9.49,3.11,-0.08,-0.02,-0.03,1.0,x
2913.0,3819.0,3264.0,3169.0,3856.0,2966.0,3120.0,3194.0,-1.4,9.53,3.01,-0.09,0.0,-0.03,1.0,x
2928.0,3815.0,3269.0,3175.0,3849.0,2962.0,3122.0,3194.0,-1.35,9.5,3.06,-0.09,0.0,-0.02,1.0,x
2928.0,3821.0,3254.0,3182.0,3863.0,2975.0,3120.0,3190.0,-1.34,9.52,3.07,-0.05,-0.0,-0.05,1.0,x
2925.0,3819.0,3265.0,3170.0,3857.0,2961.0,3122.0,3198.0,-1.32,9.55,2.99,-0.06,-0.01,-0.05,1.0,x
2911.0,3822.0,3264.0,3174.0,3874.0,2972.0,3119.0,3206.0,-1.39,9.48,3.07,-0.06,0.0,-0.03,1.0,x
2922.0,3825.0,3249.0,3184.0,3875.0,2973.0,3122.0,3200.0,-1.34,9.5,3.0,-0.07,-0.01,-0.03,1.0,x
2915.0,3803.0,3249.0,3181.0,3871.0,2971.0,3126.0,3201.0,-1.32,9.5,3.08,-0.05,0.02,-0.03,1.0,x
2922.0,3806.0,3263.0,3184.0,3876.0,2963.0,3127.0,3213.0,-1.29,9.51,3.03,-0.05,0.01,-0.05,1.0,x
2913.0,3802.0,3248.0,3175.0,3872.0,2966.0,3135.0,3210.0,-1.32,9.48,3.17,-0.06,-0.0,-0.03,1.0,x
2916.0,3819.0,3255.0,3172.0,3873.0,2958.0,3121.0,3201.0,-1.3,9.47,3.13,-0.05,0.0,-0.03,1.0,x
2929.0,3825.0,3269.0,3179.0,3877.0,2974.0,3137.0,3203.0,-1.33,9.5,3.13,0.0,0.0,-0.07,1.0,x
2922.0,3827.0,3285.0,3191.0,3857.0,2970.0,3121.0,3200.0,-1.22,9.59,2.86,-0.05,-0.01,-0.02,1.0,x
2927.0,3821.0,3249.0,3186.0,3854.0,2966.0,3120.0,3185.0,-1.45,9.4,3.32,-0.08,-0.01,-0.06,1.0,x
2912.0,3815.0,3038.0,3183.0,3860.0,2915.0,3109.0,3121.0,-1.55,9.6,2.59,-0.12,-0.03,-0.02,1.0,x
2913.0,3822.0,3035.0,3197.0,3870.0,2922.0,3111.0,3135.0,-1.58,9.55,2.78,-0.06,-0.02,-0.04,1.0,x
2928.0,3801.0,3050.0,3193.0,3874.0,2935.0,3109.0,3127.0,-1.74,9.61,2.53,-0.08,-0.01,-0.02,1.0,x
2923.0,3901.0,3039.0,3195.0,3886.0,2933.0,3105.0,3125.0,-1.58,9.61,2.57,-0.1,-0.0,-0.02,1.0,x
2933.0,3794.0,3040.0,3205.0,3878.0,2941.0,3120.0,3142.0,-1.61,9.45,2.89,-0.1,-0.0,-0.02,1.0,x
2931.0,3793.0,3045.0,3215.0,3871.0,2945.0,3115.0,3138.0,-1.69,9.62,2.49,-0.06,0.02,-0.01,1.0,x
2925.0,3792.0,3051.0,3213.0,3888.0,2945.0,3107.0,3147.0,-1.47,9.62,2.69,-0.1,-0.02,0.0,1.0,x
2912.0,3792.0,3044.0,3223.0,3881.0,2946.0,3120.0,3135.0,-1.56,9.64,2.68,-0.06,0.01,-0.02,1.0,x
2912.0,3805.0,3055.0,3216.0,3889.0,2954.0,3113.0,3149.0,-1.36,9.6,2.72,-0.04,-0.03,-0.07,1.0,x
2911.0,3803.0,3051.0,3216.0,3902.0,2947.0,3117.0,3154.0,-1.58,9.62,2.4,-0.05,-0.01,-0.06,1.0,x
2917.0,3793.0,3042.0,3226.0,3885.0,2949.0,3122.0,3146.0,-1.54,9.59,2.53,-0.09,-0.01,-0.03,1.0,x
2914.0,3822.0,3042.0,3216.0,3890.0,2943.0,3119.0,3159.0,-1.44,9.61,2.49,-0.08,0.03,-0.03,1.0,x
2921.0,3782.0,3037.0,3227.0,3910.0,2944.0,3119.0,3157.0,-1.49,9.52,2.93,-0.08,-0.0,-0.02,1.0,x
2928.0,3802.0,3052.0,3224.0,3922.0,2945.0,3115.0,3159.0,-1.5,9.53,2.76,-0.07,-0.01,-0.03,1.0,x
2923.0,3786.0,3034.0,3235.0,3885.0,2945.0,3113.0,3166.0,-1.41,9.59,2.76,-0.09,0.0,-0.01,1.0,x
2928.0,3793.0,3052.0,3226.0,3905.0,2955.0,3111.0,3158.0,-1.33,9.57,2.73,-0.07,0.01,-0.03,1.0,x
2916.0,3806.0,3056.0,3239.0,3888.0,2953.0,3113.0,3152.0,-1.38,9.65,2.75,-0.04,-0.01,-0.05,1.0,x
2922.0,3809.0,3045.0,3223.0,3900.0,2953.0,3120.0,3155.0,-1.47,9.57,2.73,-0.05,0.01,-0.04,1.0,x
2917.0,3792.0,3042.0,3227.0,3901.0,2961.0,3129.0,3166.0,-1.51,9.57,2.69,-0.06,0.0,-0.03,1.0,x
2918.0,3811.0,3039.0,3231.0,3889.0,2960.0,3123.0,3169.0,-1.31,9.62,2.76,-0.09,-0.0,-0.02,1.0,x
2917.0,3786.0,3037.0,3227.0,3893.0,2957.0,3121.0,3173.0,-1.36,9.55,2.97,-0.02,-0.0,-0.05,1.0,x
2914.0,3822.0,3055.0,3217.0,3899.0,2961.0,3125.0,3163.0,-1.61,9.59,2.62,-0.09,-0.0,-0.03,1.0,x
2897.0,3776.0,3042.0,3230.0,3922.0,2951.0,3136.0,3169.0,-1.27,9.63,2.72,-0.03,-0.01,-0.05,1.0,x
2911.0,3785.0,3046.0,3242.0,3922.0,2956.0,3129.0,3158.0,-1.38,9.55,2.74,-0.05,0.0,-0.04,1.0,x
2926.0,3668.0,3046.0,3246.0,3896.0,2960.0,3122.0,3170.0,-1.26,9.56,2.73,-0.06,0.02,-0.01,1.0,x
2928.0,3775.0,3026.0,3233.0,3922.0,2956.0,3135.0,3164.0,-1.3,9.57,2.82,-0.07,0.02,-0.01,1.0,x
2914.0,3794.0,3039.0,3243.0,3895.0,2956.0,3119.0,3169.0,-1.37,9.55,2.78,-0.07,-0.05,-0.05,1.0,x
2919.0,3773.0,3054.0,3243.0,3920.0,2960.0,3122.0,3168.0,-1.33,9.53,2.6,-0.02,-0.0,-0.04,1.0,x
2928.0,3782.0,3040.0,3235.0,3918.0,2959.0,3125.0,3181.0,-1.36,9.48,2.69,-0.09,0.07,-0.05,1.0,x
2919.0,3769.0,3039.0,3246.0,3898.0,2958.0,3126.0,3178.0,-1.33,9.66,2.69,-0.08,-0.01,-0.02,1.0,x
2918.0,3779.0,3050.0,3239.0,3924.0,2963.0,3139.0,3177.0,-1.36,9.62,2.7,-0.1,-0.05,-0.03,1.0,x
2915.0,3792.0,3039.0,3239.0,3904.0,2951.0,3133.0,3184.0,-1.39,9.61,2.7,-0.06,-0.01,-0.04,1.0,x
2927.0,3793.0,3041.0,3250.0,3921.0,2964.0,3130.0,3171.0,-1.36,9.59,2.71,-0.09,0.0,-0.04,1.0,x
2923.0,3781.0,3025.0,3242.0,3894.0,2963.0,3140.0,3181.0,-1.39,9.58,2.82,-0.07,0.02,-0.02,1.0,x
2913.0,3770.0,3052.0,3246.0,3910.0,2960.0,3139.0,3183.0,-1.33,9.69,2.55,-0.06,0.0,-0.04,1.0,x
2928.0,3751.0,3042.0,3235.0,3911.0,2967.0,3126.0,3184.0,-1.34,9.59,2.83,-0.09,0.01,-0.02,1.0,x
2918.0,3779.0,3031.0,3241.0,3892.0,2953.0,3123.0,3184.0,-1.21,9.57,2.81,-0.07,-0.0,-0.04,1.0,x
2917.0,3761.0,3037.0,3258.0,3918.0,2947.0,3120.0,3177.0,-1.3,9.57,2.84,-0.04,0.01,-0.06,1.0,x
2919.0,3783.0,3038.0,3250.0,3888.0,2953.0,3122.0,3183.0,-1.35,9.59,2.72,-0.05,-0.01,-0.05,1.0,x
2928.0,3781.0,3034.0,3243.0,3920.0,2960.0,3135.0,3184.0,-1.34,9.58,2.74,-0.07,-0.01,-0.05,1.0,x
2923.0,3055.0,3050.0,2978.0,3702.0,2897.0,3106.0,3043.0,-1.62,9.35,3.14,-0.02,0.05,-0.05,1.0,x
2919.0,3059.0,3060.0,2991.0,3714.0,2907.0,3093.0,3043.0,-1.74,9.37,3.17,-0.1,-0.02,-0.04,1.0,x
2915.0,3061.0,3052.0,2987.0,3702.0,2902.0,3103.0,3062.0,-1.73,9.38,3.19,-0.05,-0.01,-0.06,1.0,x
2923.0,3058.0,3034.0,2995.0,3706.0,2910.0,3104.0,3058.0,-1.67,9.38,3.23,-0.03,0.01,-0.01,1.0,x
2908.0,3057.0,3057.0,2993.0,3704.0,2900.0,3105.0,3055.0,-1.69,9.5,3.02,-0.04,-0.02,-0.05,1.0,x
2927.0,3055.0,3049.0,2993.0,3664.0,2907.0,3105.0,3056.0,-1.52,9.25,3.06,-0.07,-0.03,-0.04,1.0,x
2915.0,3067.0,3056.0,2991.0,3703.0,2913.0,3091.0,3041.0,-1.83,9.3,3.31,-0.09,-0.04,-0.07,1.0,x
2928.0,3058.0,3055.0,2971.0,3730.0,2912.0,3094.0,3057.0,-1.79,9.36,3.1,-0.06,-0.04,-0.02,1.0,x
2899.0,3133.0,3043.0,2977.0,3759.0,2901.0,3102.0,3063.0,-1.75,9.4,3.12,-0.04,0.02,-0.03,1.0,x
2921.0,3059.0,3044.0,2991.0,3745.0,2905.0,3109.0,3063.0,-1.65,9.37,3.18,-0.09,-0.01,-0.03,1.0,x
2913.0,3053.0,3059.0,2993.0,3761.0,2912.0,3105.0,3081.0,-1.63,9.4,3.28,-0.06,0.03,-0.03,1.0,x
2921.0,3057.0,3049.0,2996.0,3738.0,2919.0,3106.0,3082.0,-1.66,9.36,3.26,-0.04,-0.01,-0.03,1.0,x
2927.0,3057.0,3043.0,3003.0,3759.0,2911.0,3120.0,3084.0,-1.61,9.44,3.04,-0.04,-0.03,-0.08,1.0,x
2914.0,3058.0,3056.0,3005.0,3759.0,2922.0,3115.0,3084.0,-1.86,9.4,3.12,-0.07,-0.02,-0.08,1.0,x
2923.0,3056.0,3059.0,3011.0,3745.0,2919.0,3107.0,3087.0,-1.84,9.36,3.16,-0.07,0.01,-0.04,1.0,x
2909.0,3081.0,3047.0,3009.0,3759.0,2928.0,3113.0,3087.0,-1.7,9.39,3.17,-0.04,0.01,-0.02,1.0,x
2928.0,3053.0,3057.0,3012.0,3757.0,2927.0,3117.0,3085.0,-1.82,9.31,3.32,-0.06,0.0,-0.05,1.0,x
2922.0,3063.0,3059.0,3004.0,3751.0,2923.0,3114.0,3090.0,-1.87,9.43,2.95,-0.06,-0.0,-0.02,1.0,x
2923.0,3045.0,3050.0,3013.0,3748.0,2926.0,3117.0,3083.0,-1.54,9.42,3.26,-0.05,0.0,-0.04,1.0,x
2926.0,3049.0,3047.0,3025.0,3759.0,2924.0,3121.0,3095.0,-1.73,9.39,3.15,-0.07,-0.05,-0.05,1.0,x
2914.0,3057.0,3054.0,3021.0,3768.0,2896.0,3110.0,3096.0,-1.74,9.45,3.06,-0.04,-0.0,-0.03,1.0,x
2914.0,3061.0,3055.0,3027.0,3766.0,2934.0,3129.0,3091.0,-1.65,9.42,3.2,-0.03,0.02,-0.03,1.0,x
2912.0,3062.0,3056.0,3025.0,3789.0,2938.0,3121.0,3085.0,-1.66,9.39,3.11,-0.04,0.0,-0.04,1.0,x
2922.0,3057.0,3027.0,3026.0,3760.0,2927.0,3120.0,3087.0,-1.75,9.43,3.08,-0.07,-0.01,-0.03,1.0,x
2931.0,3062.0,3060.0,3022.0,3767.0,2927.0,3119.0,3088.0,-1.76,9.39,3.08,-0.1,-0.02,-0.03,1.0,x
2919.0,3056.0,3056.0,3036.0,3797.0,2933.0,3117.0,3090.0,-1.6,9.47,2.98,-0.01,-0.11,-0.06,1.0,x
2920.0,3061.0,3042.0,3023.0,3777.0,2928.0,3122.0,3098.0,-1.72,9.39,3.14,-0.1,-0.05,-0.03,1.0,x
2926.0,3047.0,3047.0,3024.0,3789.0,2940.0,3127.0,3093.0,-1.64,9.51,2.89,-0.05,-0.0,-0.06,1.0,x
2911.0,3058.0,3045.0,3024.0,3792.0,2940.0,3123.0,3109.0,-1.96,9.4,3.06,-0.06,-0.03,-0.06,1.0,x
2910.0,3055.0,3050.0,3029.0,3803.0,2929.0,3123.0,3120.0,-1.71,9.43,3.05,-0.06,0.01,-0.04,1.0,x
2915.0,3050.0,3043.0,3045.0,3797.0,2943.0,3120.0,3120.0,-1.7,9.44,3.03,-0.04,0.01,-0.05,1.0,x
2927.0,3055.0,3039.0,3031.0,3790.0,2942.0,3122.0,3103.0,-1.77,9.42,3.04,-0.07,-0.01,-0.04,1.0,x
2927.0,3066.0,3046.0,3050.0,3805.0,2942.0,3127.0,3126.0,-1.74,9.41,3.1,-0.05,-0.01,-0.04,1.0,x
2929.0,3071.0,3043.0,3045.0,3780.0,2940.0,3130.0,3129.0,-1.76,9.4,3.14,-0.05,-0.01,-0.04,1.0,x
2928.0,3049.0,3043.0,3050.0,3787.0,2951.0,3137.0,3120.0,-1.68,9.44,3.04,-0.07,-0.0,-0.03,1.0,x
2911.0,3056.0,3055.0,3034.0,3802.0,2950.0,3124.0,3132.0,-1.7,9.43,3.09,-0.07,0.0,-0.05,1.0,x
2927.0,3057.0,3040.0,3033.0,3820.0,2949.0,3142.0,3129.0,-1.76,9.43,3.1,-0.07,-0.02,-0.04,1.0,x
2915.0,3043.0,3049.0,3049.0,3777.0,2951.0,3125.0,3126.0,-1.76,9.42,3.08,-0.04,0.01,-0.02,1.0,x
2919.0,3057.0,3059.0,3058.0,3815.0,2954.0,3136.0,3125.0,-1.69,9.39,3.21,-0.06,0.01,-0.03,1.0,x
2913.0,3069.0,3047.0,3055.0,3809.0,2954.0,3133.0,3137.0,-1.72,9.42,3.11,-0.08,-0.03,-0.04,1.0,x
2928.0,3115.0,3041.0,3152.0,4095.0,2860.0,3103.0,2950.0,-1.86,9.41,3.04,-0.06,0.02,-0.06,1.0,x
2930.0,3124.0,3052.0,3163.0,4095.0,2853.0,3120.0,3040.0,-1.8,9.44,2.85,-0.03,0.02,-0.02,1.0,x
2919.0,3136.0,3039.0,3171.0,4095.0,2864.0,3108.0,3066.0,-1.73,9.43,3.06,-0.04,-0.01,-0.03,1.0,x
2921.0,3126.0,3051.0,3182.0,4095.0,2860.0,3120.0,3059.0,-1.75,9.47,2.97,-0.09,-0.0,-0.03,1.0,x
2919.0,3129.0,3047.0,3175.0,4095.0,2867.0,3113.0,3087.0,-1.77,9.49,2.89,-0.06,0.02,-0.0,1.0,x
2919.0,3131.0,3044.0,3179.0,4095.0,2864.0,3119.0,3062.0,-1.75,9.46,2.96,-0.11,-0.01,-0.02,1.0,x
2921.0,3121.0,3038.0,3184.0,4095.0,2871.0,3109.0,3091.0,-1.57,9.5,2.92,-0.06,0.03,-0.02,1.0,x
2918.0,3123.0,3045.0,3189.0,4095.0,2866.0,3119.0,3095.0,-1.74,9.48,3.02,-0.13,-0.04,-0.05,1.0,x
2923.0,3140.0,3051.0,3182.0,4095.0,2875.0,3107.0,3114.0,-1.69,9.44,3.03,-0.07,-0.02,-0.04,1.0,x
2914.0,3136.0,3039.0,3197.0,4095.0,2870.0,3115.0,3106.0,-1.68,9.46,3.05,-0.05,-0.02,-0.04,1.0,x
2925.0,3133.0,3043.0,3171.0,4095.0,2875.0,3120.0,3120.0,-1.74,9.46,3.06,-0.07,-0.0,-0.03,1.0,x
2914.0,3130.0,3041.0,3199.0,4095.0,2869.0,3121.0,3117.0,-1.72,9.61,2.85,-0.07,0.1,-0.02,1.0,x
2930.0,3133.0,3043.0,3197.0,4095.0,2878.0,3129.0,3126.0,-1.63,9.45,3.12,-0.1,0.03,-0.02,1.0,x
2929.0,3127.0,3045.0,3209.0,4095.0,2864.0,3120.0,3134.0,-1.75,9.45,3.13,-0.03,0.02,-0.03,1.0,x
2917.0,3125.0,3055.0,3206.0,4095.0,2877.0,3127.0,3130.0,-1.63,9.44,3.12,-0.04,0.02,-0.04,1.0,x
2928.0,3129.0,3041.0,3194.0,4095.0,2867.0,3114.0,3152.0,-1.67,9.42,3.07,-0.06,-0.0,-0.02,1.0,x
2925.0,3134.0,3051.0,3198.0,4095.0,2864.0,3116.0,3134.0,-1.64,9.45,3.14,-0.05,0.0,-0.04,1.0,x
2913.0,3119.0,3054.0,3207.0,4095.0,2867.0,3127.0,3136.0,-1.66,9.42,3.09,-0.07,-0.02,-0.04,1.0,x
2917.0,3133.0,3045.0,3211.0,4095.0,2880.0,3134.0,3136.0,-1.63,9.4,3.04,-0.05,-0.01,-0.03,1.0,x
2927.0,3143.0,3037.0,3206.0,4095.0,2866.0,3120.0,3138.0,-1.45,9.4,3.32,-0.0,0.03,-0.05,1.0,x
2928.0,3130.0,3051.0,3199.0,4095.0,2869.0,3141.0,3158.0,-1.69,9.35,3.23,-0.05,-0.03,-0.1,1.0,x
2940.0,3136.0,3055.0,3206.0,4095.0,2864.0,3136.0,3140.0,-1.64,9.46,2.82,-0.05,-0.04,-0.09,1.0,x
2911.0,3131.0,3049.0,3207.0,4095.0,2870.0,3120.0,3147.0,-2.16,9.29,3.21,-0.06,-0.02,-0.06,1.0,x
2928.0,3135.0,3047.0,3216.0,4095.0,2880.0,3136.0,3152.0,-1.63,9.4,3.17,-0.09,0.0,0.03,1.0,x
2916.0,3136.0,3051.0,3214.0,4095.0,2881.0,3137.0,3155.0,-1.56,9.41,3.22,-0.12,0.03,0.01,1.0,x
2913.0,3137.0,3042.0,3205.0,4095.0,2881.0,3121.0,3142.0,-1.55,9.36,3.46,-0.07,-0.0,-0.04,1.0,x
2928.0,3143.0,3050.0,3216.0,4095.0,2891.0,3135.0,3153.0,-1.62,9.37,3.32,-0.05,-0.02,-0.06,1.0,x
2923.0,3147.0,3058.0,3199.0,4095.0,2881.0,3126.0,3145.0,-1.66,9.37,3.12,-0.02,0.01,-0.04,1.0,x
2909.0,3136.0,3043.0,3217.0,4095.0,2883.0,3132.0,3157.0,-1.65,9.36,3.24,-0.08,-0.0,-0.02,1.0,x
2923.0,3159.0,3043.0,3210.0,4095.0,2881.0,3135.0,3154.0,-1.63,9.4,3.29,-0.04,0.0,-0.04,1.0,x
2919.0,3127.0,3038.0,3215.0,4095.0,2891.0,3129.0,3151.0,-1.57,9.44,3.18,-0.07,-0.03,-0.04,1.0,x
2915.0,3137.0,3034.0,3205.0,4095.0,2874.0,3139.0,3175.0,-1.66,9.42,3.17,-0.08,-0.04,-0.04,1.0,x
2915.0,3136.0,3043.0,3208.0,4095.0,2890.0,3126.0,3148.0,-1.6,9.42,3.23,-0.07,-0.01,-0.04,1.0,x
2928.0,3137.0,3049.0,3219.0,4095.0,2893.0,3127.0,3165.0,-1.68,9.39,3.24,-0.09,-0.01,-0.03,1.0,x
2923.0,3140.0,3047.0,3211.0,4095.0,2883.0,3145.0,3163.0,-1.67,9.31,3.38,-0.07,0.02,-0.03,1.0,x
2921.0,3151.0,3040.0,3222.0,4095.0,2885.0,3126.0,3157.0,-1.61,9.38,3.32,-0.06,-0.0,-0.04,1.0,x
2925.0,3139.0,3056.0,3215.0,4095.0,2891.0,3126.0,3167.0,-1.59,9.41,3.28,-0.06,-0.02,-0.04,1.0,x
2925.0,3133.0,3034.0,3216.0,4095.0,2897.0,3123.0,3168.0,-1.55,9.38,3.3,-0.06,-0.01,-0.04,1.0,x
2917.0,3136.0,3048.0,3233.0,4095.0,2906.0,3125.0,3180.0,-1.64,9.35,3.31,-0.07,0.01,-0.04,1.0,x
2915.0,3132.0,3053.0,3216.0,4095.0,2899.0,3143.0,3157.0,-1.54,9.41,3.27,-0.05,-0.02,-0.04,1.0,x
