hall_1,hall_2,hall_3,flex_t,flex_i,flex_m,flex_r,flex_p,accel_x,accel_y,accel_z,gyro_x,gyro_y,gyro_z,hand,sign
3031.0,4043.0,1364.0,3455.0,3901.0,2307.0,3056.0,3035.0,-0.96,8.88,7.78,-0.08,0.01,0.05,0.0,x
3025.0,4032.0,1359.0,3442.0,3886.0,2305.0,3058.0,3030.0,-0.3,9.57,8.07,-0.04,-0.09,-0.1,0.0,x
3031.0,4048.0,1365.0,3445.0,3894.0,2317.0,3066.0,3039.0,-0.79,9.48,8.66,0.03,-0.22,-0.3,0.0,x
3025.0,4048.0,1363.0,3443.0,3921.0,2314.0,3068.0,3044.0,-0.89,9.47,8.36,0.16,-0.29,-0.41,0.0,x
3034.0,4055.0,1362.0,3450.0,3917.0,2313.0,3062.0,3038.0,-1.8,9.28,8.4,0.24,-0.19,-0.41,0.0,x
3035.0,4051.0,1349.0,3441.0,3929.0,2314.0,3066.0,3042.0,-1.93,9.21,7.94,0.31,-0.3,-0.43,0.0,x
3027.0,4048.0,1361.0,3451.0,3927.0,2315.0,3067.0,3039.0,-2.13,8.95,7.89,0.36,-0.29,-0.35,0.0,x
3036.0,4049.0,1358.0,3451.0,3930.0,2317.0,3071.0,3045.0,-1.78,9.04,7.64,0.31,-0.3,-0.32,0.0,x
3027.0,4069.0,1360.0,3447.0,3931.0,2318.0,3071.0,3050.0,-1.61,8.91,7.48,0.29,-0.33,-0.36,0.0,x
3039.0,4054.0,1358.0,3444.0,3920.0,2317.0,3067.0,3046.0,-1.88,8.83,7.43,0.21,-0.35,-0.4,0.0,x
3039.0,4049.0,1360.0,3451.0,3933.0,2320.0,3071.0,3049.0,-1.98,8.74,7.59,0.21,-0.37,-0.41,0.0,x
3038.0,4065.0,1354.0,3451.0,3931.0,2318.0,3067.0,3043.0,-2.2,8.7,7.41,0.19,-0.33,-0.42,0.0,x
3024.0,4048.0,1347.0,3442.0,3917.0,2317.0,3071.0,3045.0,-2.04,8.96,7.05,0.15,-0.37,-0.38,0.0,x
3031.0,4016.0,1344.0,3379.0,3926.0,2313.0,3054.0,3039.0,-2.23,9.15,7.02,0.06,-0.26,-0.38,0.0,x
3034.0,3793.0,1293.0,3249.0,3915.0,2259.0,2999.0,3012.0,-2.04,8.52,7.69,0.04,-0.42,-0.45,0.0,x
3034.0,3795.0,1307.0,3295.0,3941.0,2276.0,3030.0,3034.0,-2.2,8.71,7.43,0.18,-0.45,-0.49,0.0,x
3040.0,3801.0,1315.0,3323.0,3931.0,2277.0,3046.0,3039.0,-3.13,8.33,7.85,-0.1,-0.24,-0.37,0.0,x
3037.0,3799.0,1322.0,3327.0,3950.0,2287.0,3046.0,3041.0,-3.11,8.54,7.68,0.05,-0.4,-0.23,0.0,x
3031.0,3798.0,1325.0,3336.0,3945.0,2288.0,3039.0,3006.0,-2.48,8.61,7.61,-0.02,-0.31,-0.17,0.0,x
3025.0,3782.0,1328.0,3340.0,3940.0,2288.0,3035.0,3006.0,-2.51,8.72,7.94,0.04,-0.28,-0.23,0.0,x
3028.0,3786.0,1328.0,3340.0,3938.0,2288.0,3041.0,3020.0,-2.55,8.73,7.9,0.05,-0.3,-0.25,0.0,x
3042.0,3792.0,1328.0,3344.0,3939.0,2293.0,3054.0,3027.0,-2.83,8.89,7.76,-0.1,-0.08,-0.2,0.0,x
3047.0,3788.0,1337.0,3347.0,3951.0,2292.0,3055.0,3026.0,-2.5,8.83,8.03,-0.01,-0.11,-0.2,0.0,x
3034.0,3766.0,1325.0,3342.0,3935.0,2293.0,3053.0,3025.0,-2.51,9.07,7.76,-0.13,-0.1,-0.21,0.0,x
3026.0,3781.0,1334.0,3345.0,3951.0,2294.0,3051.0,3023.0,-2.08,8.71,7.94,-0.16,-0.08,-0.23,0.0,x
3037.0,3792.0,1328.0,3346.0,3940.0,2294.0,3050.0,3026.0,-2.66,8.42,8.28,-0.15,-0.06,-0.24,0.0,x
3041.0,3787.0,1327.0,3345.0,3937.0,2302.0,3052.0,3030.0,-3.0,8.74,8.23,0.01,0.01,-0.17,0.0,x
3024.0,3770.0,1329.0,3343.0,3936.0,2303.0,3056.0,3034.0,-2.95,8.97,7.97,0.07,-0.12,-0.16,0.0,x
3024.0,3779.0,1328.0,3341.0,3945.0,2306.0,3056.0,3033.0,-2.77,8.91,7.92,-0.04,0.11,-0.05,0.0,x
3024.0,3788.0,1328.0,3345.0,3939.0,2307.0,3061.0,3041.0,-2.75,8.79,8.11,-0.11,0.08,-0.08,0.0,x
3031.0,3806.0,1330.0,3338.0,3947.0,2315.0,3059.0,3040.0,-2.68,8.65,8.39,-0.13,0.1,-0.03,0.0,x
3025.0,3902.0,1322.0,3297.0,3968.0,2329.0,3042.0,2993.0,-2.25,8.71,8.0,-0.15,0.11,0.01,0.0,x
3029.0,3947.0,1328.0,3294.0,4086.0,2349.0,3031.0,2979.0,-2.25,8.78,8.36,-0.26,0.17,0.08,0.0,x
3039.0,3969.0,1327.0,3294.0,4095.0,2354.0,3029.0,2967.0,-2.23,8.67,8.66,-0.04,0.11,0.04,0.0,x
3042.0,4005.0,1311.0,3300.0,4095.0,2352.0,3029.0,3003.0,-2.02,8.79,8.6,0.06,0.09,-0.02,0.0,x
3025.0,3989.0,1304.0,3314.0,4095.0,2352.0,3045.0,3009.0,-2.03,9.09,8.1,0.19,0.02,-0.09,0.0,x
3029.0,3988.0,1297.0,3370.0,4095.0,2338.0,3054.0,3009.0,-1.7,8.91,8.16,0.01,0.04,-0.13,0.0,x
3024.0,4008.0,1279.0,3395.0,4095.0,2327.0,3044.0,3003.0,-2.2,8.77,8.34,0.11,-0.01,-0.19,0.0,x
3041.0,3963.0,1317.0,3421.0,4095.0,2320.0,2963.0,2885.0,-1.9,8.72,8.16,0.2,0.07,-0.21,0.0,x
3034.0,3941.0,1328.0,3447.0,4095.0,2283.0,2875.0,2823.0,-2.35,8.8,7.96,-0.03,0.1,-0.01,0.0,x
3026.0,3917.0,1328.0,3472.0,4095.0,2299.0,2869.0,2832.0,-2.34,8.79,8.07,0.09,0.02,-0.11,0.0,x
3042.0,3905.0,1330.0,3397.0,4095.0,2322.0,2838.0,2826.0,-2.04,8.91,8.09,0.05,0.03,-0.07,0.0,x
3027.0,3861.0,1347.0,3311.0,4095.0,2343.0,2826.0,2807.0,-2.2,8.93,7.96,0.07,0.1,-0.11,0.0,x
3039.0,3872.0,1369.0,3273.0,4095.0,2366.0,2831.0,2810.0,-1.86,9.14,7.81,-0.01,-0.02,-0.13,0.0,x
3029.0,3850.0,1396.0,3216.0,4095.0,2384.0,2800.0,2773.0,-2.22,8.77,8.05,0.11,0.03,-0.07,0.0,x
3030.0,3835.0,1418.0,3205.0,4095.0,2389.0,2801.0,2773.0,-1.8,8.96,7.72,0.03,0.07,-0.09,0.0,x
3034.0,3827.0,1415.0,3239.0,4095.0,2384.0,2811.0,2795.0,-2.02,8.96,7.95,0.19,0.05,-0.14,0.0,x
3028.0,3858.0,1421.0,3258.0,4095.0,2383.0,2824.0,2800.0,-2.14,8.83,7.72,-0.03,0.21,-0.03,0.0,x
3027.0,3846.0,1423.0,3263.0,4095.0,2384.0,2827.0,2805.0,-2.15,8.95,7.75,0.03,0.14,-0.01,0.0,x
3024.0,3837.0,1424.0,3254.0,4095.0,2394.0,2833.0,2816.0,-1.99,8.77,7.61,-0.07,0.11,-0.05,0.0,x
3030.0,3839.0,1429.0,3246.0,4095.0,2403.0,2839.0,2817.0,-1.87,8.91,7.6,-0.13,0.1,-0.08,0.0,x
3034.0,3835.0,1427.0,3246.0,4095.0,2401.0,2851.0,2826.0,-1.87,8.68,8.06,-0.0,0.1,-0.12,0.0,x
3040.0,3835.0,1415.0,3278.0,4095.0,2385.0,2860.0,2822.0,-1.59,9.36,7.73,0.02,0.02,-0.15,0.0,x
3031.0,3825.0,1421.0,3285.0,4095.0,2388.0,2869.0,2837.0,-1.75,9.17,7.87,-0.1,0.05,-0.05,0.0,x
3033.0,3830.0,1411.0,3280.0,4045.0,2386.0,2866.0,2834.0,-1.49,9.06,8.11,0.18,-0.05,-0.19,0.0,x
3025.0,3825.0,1408.0,3283.0,3807.0,2396.0,2873.0,2834.0,-1.42,9.39,7.54,0.07,-0.07,-0.22,0.0,x
3031.0,3824.0,1393.0,3269.0,3557.0,2387.0,2869.0,2833.0,-1.66,8.85,7.76,0.07,-0.11,-0.33,0.0,x
3027.0,3827.0,1387.0,3273.0,3424.0,2388.0,2873.0,2832.0,-2.03,9.45,7.29,0.1,-0.17,-0.24,0.0,x
3035.0,3835.0,1389.0,3281.0,3329.0,2383.0,2869.0,2825.0,-1.81,8.68,8.15,0.13,-0.16,-0.28,0.0,x
3027.0,3817.0,1380.0,3279.0,3191.0,2383.0,2869.0,2822.0,-1.99,9.45,7.48,0.12,-0.17,-0.27,0.0,x
3026.0,3823.0,1375.0,3279.0,3099.0,2384.0,2877.0,2833.0,-2.27,8.88,7.76,0.06,-0.03,-0.19,0.0,x
3039.0,3835.0,1392.0,3286.0,3046.0,2384.0,2875.0,2830.0,-1.91,8.96,7.66,-0.16,-0.08,-0.15,0.0,x
3029.0,3825.0,1386.0,3283.0,2990.0,2386.0,2881.0,2831.0,-2.15,8.86,7.81,0.15,-0.14,-0.3,0.0,x
3024.0,3825.0,1389.0,3285.0,2955.0,2384.0,2879.0,2839.0,-2.27,8.96,7.81,-0.03,-0.07,-0.14,0.0,x
3039.0,3823.0,1378.0,3293.0,2975.0,2383.0,2886.0,2851.0,-2.06,9.05,7.64,0.06,-0.26,-0.14,0.0,x
3038.0,3843.0,1392.0,3310.0,2957.0,2384.0,2890.0,2857.0,-1.83,8.99,7.51,-0.1,-0.02,-0.11,0.0,x
3038.0,3846.0,1375.0,3317.0,2912.0,2384.0,2890.0,2863.0,-2.11,8.92,7.81,0.09,-0.13,-0.21,0.0,x
3019.0,3821.0,1383.0,3312.0,2896.0,2384.0,2893.0,2870.0,-2.01,8.79,7.79,-0.13,-0.1,-0.15,0.0,x
3029.0,3847.0,1392.0,3327.0,2899.0,2378.0,2894.0,2874.0,-1.83,8.97,7.82,-0.04,-0.07,-0.16,0.0,x
3031.0,3805.0,1389.0,3328.0,3024.0,2376.0,2896.0,2880.0,-2.01,9.05,8.09,-0.15,0.04,-0.08,0.0,x
3035.0,3811.0,1381.0,3335.0,3035.0,2375.0,2896.0,2880.0,-1.77,9.02,8.12,0.09,-0.1,-0.2,0.0,x
3040.0,3822.0,1387.0,3344.0,3054.0,2378.0,2901.0,2883.0,-1.81,8.9,8.07,-0.01,-0.07,-0.2,0.0,x
3027.0,3823.0,1391.0,3343.0,3056.0,2379.0,2899.0,2887.0,-2.09,8.87,8.09,0.0,-0.1,-0.23,0.0,x
3035.0,3810.0,1385.0,3343.0,3037.0,2384.0,2905.0,2896.0,-1.89,8.93,8.07,0.11,-0.26,-0.25,0.0,x
3026.0,3806.0,1377.0,3346.0,2916.0,2380.0,2902.0,2889.0,-2.21,8.92,7.89,0.12,-0.2,-0.26,0.0,x
3034.0,3808.0,1376.0,3349.0,2944.0,2384.0,2911.0,2890.0,-1.88,8.81,7.9,0.02,-0.26,-0.24,0.0,x
3029.0,3803.0,1382.0,3350.0,2950.0,2378.0,2908.0,2896.0,-2.46,8.83,7.89,-0.02,-0.4,-0.18,0.0,x
3031.0,3793.0,1373.0,3351.0,2980.0,2377.0,2912.0,2910.0,-1.41,8.91,8.01,-0.01,-0.36,-0.25,0.0,x
3042.0,3817.0,1367.0,3355.0,3038.0,2381.0,2917.0,2913.0,-2.02,9.0,8.11,-0.12,0.17,-0.11,0.0,x
3031.0,3815.0,1375.0,3368.0,3169.0,2379.0,2924.0,2919.0,-1.84,8.85,8.39,-0.03,-0.02,-0.18,0.0,x
3032.0,3791.0,1371.0,3370.0,3210.0,2375.0,2921.0,2921.0,-1.86,8.69,8.47,0.02,-0.06,-0.21,0.0,x
3037.0,3792.0,1353.0,3376.0,3253.0,2373.0,2927.0,2926.0,-1.83,8.92,8.06,-0.0,-0.04,-0.24,0.0,x
3037.0,3810.0,1355.0,3379.0,3221.0,2378.0,2929.0,2930.0,-2.1,8.74,8.24,-0.03,-0.01,-0.2,0.0,x
3045.0,3806.0,1347.0,3389.0,3110.0,2381.0,2924.0,2929.0,-2.03,8.75,8.31,0.06,-0.09,-0.22,0.0,x
3041.0,3792.0,1343.0,3385.0,3069.0,2383.0,2928.0,2931.0,-2.01,8.71,8.26,0.0,-0.11,-0.18,0.0,x
3029.0,3792.0,1338.0,3381.0,3099.0,2386.0,2926.0,2935.0,-2.09,8.84,8.17,0.05,-0.02,-0.2,0.0,x
3024.0,3803.0,1344.0,3383.0,3107.0,2383.0,2926.0,2931.0,-2.06,8.79,8.17,-0.02,-0.1,-0.18,0.0,x
3038.0,3798.0,1342.0,3393.0,3130.0,2385.0,2928.0,2933.0,-1.84,8.88,8.28,-0.01,-0.12,-0.21,0.0,x
3043.0,3807.0,1339.0,3389.0,3242.0,2384.0,2928.0,2931.0,-1.89,8.88,8.28,-0.1,-0.14,-0.24,0.0,x
3027.0,3798.0,1342.0,3388.0,3281.0,2384.0,2934.0,2939.0,-2.05,8.58,8.53,0.0,-0.05,-0.25,0.0,x
3037.0,3819.0,1343.0,3398.0,3313.0,2384.0,2935.0,2935.0,-2.16,8.82,8.28,0.03,-0.12,-0.24,0.0,x
3024.0,3792.0,1344.0,3392.0,3312.0,2386.0,2940.0,2943.0,-2.08,8.67,8.39,0.07,-0.14,-0.26,0.0,x
3040.0,3803.0,1331.0,3393.0,3291.0,2384.0,2931.0,2939.0,-1.88,8.73,8.23,-0.01,-0.24,-0.25,0.0,x
3033.0,3804.0,1331.0,3401.0,3263.0,2388.0,2934.0,2940.0,-1.99,8.46,8.49,0.03,-0.13,-0.27,0.0,x
3030.0,3799.0,1331.0,3394.0,3152.0,2387.0,2938.0,2942.0,-2.21,8.62,8.29,-0.02,-0.09,-0.23,0.0,x
3024.0,3802.0,1322.0,3395.0,3117.0,2385.0,2933.0,2940.0,-2.03,8.48,8.8,0.21,-0.24,-0.33,0.0,x
3026.0,3762.0,1339.0,3390.0,3006.0,2369.0,2863.0,2919.0,-2.23,8.97,7.9,-0.21,-0.26,-0.19,0.0,x
3041.0,3673.0,1379.0,3391.0,3018.0,2367.0,2782.0,2886.0,-1.5,8.85,8.31,-0.06,-0.25,-0.29,0.0,x
3039.0,3681.0,1367.0,3397.0,3069.0,2379.0,2809.0,2908.0,-1.62,8.86,8.68,-0.09,-0.15,-0.23,0.0,x
3029.0,3669.0,1339.0,3403.0,3121.0,2385.0,2849.0,2927.0,-1.72,8.69,8.68,0.14,-0.38,-0.39,0.0,x
3034.0,3667.0,1341.0,3405.0,3125.0,2385.0,2861.0,2928.0,-1.96,8.82,8.23,0.07,-0.39,-0.41,0.0,x
3026.0,3665.0,1344.0,3406.0,3131.0,2384.0,2858.0,2921.0,-1.96,8.55,8.52,-0.0,-0.35,-0.45,0.0,x
3034.0,3664.0,1331.0,3407.0,3198.0,2384.0,2866.0,2926.0,-2.25,8.57,8.64,0.07,-0.34,-0.45,0.0,x
3024.0,3661.0,1321.0,3404.0,3307.0,2380.0,2887.0,2928.0,-2.27,8.44,8.96,0.04,-0.35,-0.42,0.0,x
3034.0,3679.0,1305.0,3411.0,3334.0,2375.0,2890.0,2931.0,-2.3,8.5,9.17,0.39,-0.43,-0.48,0.0,x
3039.0,3664.0,1296.0,3412.0,3317.0,2383.0,2895.0,2946.0,-2.06,9.31,8.25,0.12,-0.42,-0.34,0.0,x
3030.0,3675.0,1301.0,3410.0,3282.0,2386.0,2896.0,2928.0,-1.86,8.68,8.99,0.15,-0.29,-0.37,0.0,x
3028.0,3669.0,1297.0,3421.0,3179.0,2386.0,2899.0,2928.0,-2.08,8.38,9.34,0.11,-0.27,-0.42,0.0,x
3042.0,3675.0,1302.0,3422.0,3185.0,2389.0,2908.0,2917.0,-2.92,8.25,9.41,0.28,0.09,-0.44,0.0,x
3037.0,3670.0,1290.0,3420.0,3191.0,2386.0,2901.0,2929.0,-3.44,8.12,8.97,0.31,0.12,-0.3,0.0,x
3024.0,3659.0,1294.0,3415.0,3258.0,2384.0,2903.0,2944.0,-3.9,8.2,8.57,0.23,0.51,-0.17,0.0,x
3027.0,3687.0,1289.0,3426.0,3403.0,2384.0,2907.0,2947.0,-3.58,8.21,8.6,0.12,0.51,-0.1,0.0,x
3024.0,3671.0,1291.0,3420.0,3456.0,2384.0,2909.0,2947.0,-3.19,8.2,8.28,0.24,0.55,-0.13,0.0,x
3033.0,3661.0,1279.0,3422.0,3458.0,2388.0,2908.0,2948.0,-3.19,8.39,7.89,0.14,0.35,-0.06,0.0,x
3026.0,3678.0,1283.0,3422.0,3517.0,2385.0,2914.0,2954.0,-3.51,8.45,7.67,0.1,0.74,0.05,0.0,x
3030.0,3664.0,1274.0,3431.0,3599.0,2385.0,2910.0,2950.0,-3.56,8.29,7.69,0.06,0.48,0.15,0.0,x
3031.0,3686.0,1275.0,3431.0,3534.0,2390.0,2914.0,2946.0,-2.8,8.37,7.48,0.1,0.29,0.07,0.0,x
3034.0,3676.0,1276.0,3425.0,3344.0,2394.0,2914.0,2946.0,-2.72,8.55,7.26,0.15,0.47,0.02,0.0,x
3026.0,3670.0,1278.0,3429.0,3270.0,2388.0,2913.0,2950.0,-2.66,8.52,7.28,-0.05,0.45,0.04,0.0,x
3038.0,3664.0,1269.0,3427.0,3300.0,2398.0,2918.0,2955.0,-3.18,8.79,7.15,-0.14,0.57,0.12,0.0,x
3026.0,3658.0,1274.0,3427.0,3287.0,2387.0,2915.0,2954.0,-2.9,8.69,7.38,-0.16,0.53,0.17,0.0,x
3029.0,3685.0,1276.0,3431.0,3195.0,2394.0,2913.0,2954.0,-2.74,8.95,7.14,-0.11,0.43,0.2,0.0,x
3026.0,3664.0,1271.0,3430.0,3147.0,2399.0,2922.0,2953.0,-1.84,8.53,7.02,-0.06,0.38,0.1,0.0,x
3029.0,3675.0,1262.0,3433.0,3137.0,2398.0,2919.0,2957.0,-2.17,9.06,6.72,-0.2,0.54,0.02,0.0,x
3037.0,3669.0,1264.0,3435.0,3105.0,2395.0,2918.0,2957.0,-2.42,8.97,6.91,-0.33,0.4,-0.08,0.0,x
3036.0,3664.0,1262.0,3426.0,3155.0,2399.0,2927.0,2959.0,-2.87,8.52,7.85,-0.38,0.59,0.02,0.0,x
3035.0,3673.0,1269.0,3435.0,3331.0,2394.0,2927.0,2958.0,-3.3,8.48,8.05,-0.25,0.6,0.13,0.0,x
3019.0,3669.0,1258.0,3430.0,3474.0,2377.0,2925.0,2960.0,-3.18,8.94,8.2,-0.05,1.07,0.38,0.0,x
3031.0,3671.0,1254.0,3436.0,3497.0,2385.0,2927.0,2965.0,-3.25,9.54,7.44,0.0,0.91,0.52,0.0,x
3027.0,3666.0,1251.0,3442.0,3488.0,2395.0,2928.0,2961.0,-1.85,9.41,7.18,0.02,0.49,0.46,0.0,x
3025.0,3669.0,1249.0,3433.0,3475.0,2390.0,2928.0,2963.0,-0.98,9.52,6.95,0.06,0.67,0.37,0.0,x
3028.0,3681.0,1248.0,3444.0,3504.0,2398.0,2928.0,2960.0,-0.91,9.72,6.53,0.03,0.4,0.21,0.0,x
3035.0,3664.0,1243.0,3440.0,3722.0,2398.0,2931.0,2951.0,-0.83,9.64,6.41,0.03,0.34,0.07,0.0,x
3040.0,3675.0,1242.0,3445.0,3825.0,2396.0,2930.0,2957.0,-1.09,9.76,6.42,0.0,0.23,0.01,0.0,x
3027.0,3674.0,1237.0,3443.0,3805.0,2399.0,2935.0,2960.0,-0.94,9.39,6.69,-0.04,0.07,-0.09,0.0,x
3035.0,3691.0,1237.0,3450.0,3679.0,2402.0,2937.0,2960.0,-1.23,9.23,6.68,0.04,0.07,-0.18,0.0,x
3035.0,3683.0,1240.0,3441.0,3497.0,2404.0,2935.0,2963.0,-1.5,9.18,6.44,0.05,-0.03,-0.2,0.0,x
3030.0,3670.0,1232.0,3447.0,3423.0,2406.0,2932.0,2962.0,-1.41,9.38,6.32,0.02,-0.15,-0.21,0.0,x
3035.0,3664.0,1229.0,3443.0,3345.0,2402.0,2934.0,2963.0,-1.57,9.39,6.31,-0.07,-0.02,-0.15,0.0,x
3023.0,3680.0,1237.0,3440.0,3343.0,2404.0,2939.0,2966.0,-1.57,9.65,6.3,0.02,-0.17,-0.2,0.0,x
3026.0,3664.0,1233.0,3441.0,3237.0,2403.0,2935.0,2967.0,-1.28,9.64,6.45,-0.08,-0.29,-0.17,0.0,x
3040.0,3671.0,1241.0,3443.0,3230.0,2401.0,2939.0,2971.0,-1.53,9.46,6.79,-0.05,-0.33,-0.23,0.0,x
3039.0,3674.0,1248.0,3452.0,3270.0,2399.0,2938.0,2969.0,-1.38,9.51,6.83,-0.13,-0.46,-0.25,0.0,x
3028.0,3673.0,1237.0,3446.0,3286.0,2401.0,2935.0,2973.0,-1.46,9.41,7.25,-0.14,-0.25,-0.23,0.0,x
3036.0,3670.0,1243.0,3447.0,3344.0,2402.0,2939.0,2979.0,-1.47,9.3,7.42,-0.07,-0.44,-0.27,0.0,x
3028.0,3683.0,1231.0,3446.0,3354.0,2399.0,2930.0,2976.0,-1.28,9.49,7.04,-0.03,-0.65,-0.36,0.0,x
3038.0,3673.0,1233.0,3450.0,3201.0,2402.0,2939.0,2966.0,-1.62,9.2,7.27,0.09,-1.18,-0.42,0.0,x
3038.0,3671.0,1237.0,3443.0,3122.0,2402.0,2941.0,2967.0,-1.42,9.73,6.75,-0.03,-2.16,-0.66,0.0,x
3041.0,3672.0,1232.0,3445.0,3163.0,2402.0,2939.0,2973.0,-0.79,9.26,7.53,-0.29,-2.08,-0.5,0.0,x
3026.0,3666.0,1239.0,3449.0,3196.0,2399.0,2942.0,2981.0,-0.36,8.83,8.48,-0.19,-1.26,-0.43,0.0,x
3024.0,3664.0,1237.0,3446.0,3280.0,2395.0,2944.0,2987.0,-0.81,8.92,8.86,-0.19,-0.67,-0.41,0.0,x
3029.0,3664.0,1243.0,3450.0,3376.0,2398.0,2945.0,2992.0,-0.88,9.22,9.12,0.06,-0.69,-0.36,0.0,x
3029.0,3686.0,1225.0,3461.0,3439.0,2393.0,2943.0,2976.0,0.14,9.06,8.42,0.28,1.09,-0.35,0.0,x
3038.0,3676.0,1225.0,3458.0,3510.0,2393.0,2944.0,2990.0,-0.51,8.87,7.88,-0.04,2.33,-0.15,0.0,x
3034.0,3666.0,1210.0,3455.0,3625.0,2400.0,2948.0,2988.0,-3.93,8.66,8.37,-0.15,1.11,-0.12,0.0,x
3030.0,3670.0,1211.0,3459.0,3697.0,2399.0,2953.0,2986.0,-2.83,8.59,8.53,0.14,-0.13,-0.3,0.0,x
3027.0,3684.0,1207.0,3463.0,3721.0,2407.0,2955.0,2982.0,-2.06,8.79,8.3,-0.01,-0.03,-0.29,0.0,x
3027.0,3673.0,1213.0,3467.0,3730.0,2375.0,2953.0,2989.0,-2.64,8.54,8.84,0.05,-0.26,-0.33,0.0,x
3024.0,3663.0,1221.0,3489.0,3791.0,2352.0,2945.0,2978.0,-1.63,8.99,8.1,0.21,-0.48,-0.42,0.0,x
3027.0,3689.0,1232.0,3491.0,3783.0,2356.0,2933.0,2981.0,-2.36,8.94,7.96,0.23,-0.34,-0.44,0.0,x
3024.0,3667.0,1217.0,3494.0,3792.0,2373.0,2947.0,2992.0,-2.16,8.71,7.95,0.5,-0.76,-0.65,0.0,x
3037.0,3677.0,1218.0,3491.0,3601.0,2378.0,2950.0,2997.0,-2.72,8.83,7.73,0.28,-1.17,-0.54,0.0,x
3037.0,3659.0,1225.0,3492.0,3517.0,2377.0,2953.0,2997.0,-2.66,8.37,7.97,0.34,-0.8,-0.54,0.0,x
3029.0,3662.0,1212.0,3495.0,3526.0,2377.0,2951.0,2992.0,-3.01,8.52,7.93,0.27,-1.75,-0.54,0.0,x
3038.0,3664.0,1216.0,3499.0,3542.0,2372.0,2958.0,2996.0,-2.16,8.52,7.63,0.28,-1.2,-0.62,0.0,x
3031.0,3667.0,1211.0,3504.0,3561.0,2379.0,2959.0,3008.0,-2.98,8.62,7.96,-0.1,-1.15,-0.38,0.0,x
3024.0,3674.0,1216.0,3504.0,3571.0,2377.0,2960.0,3015.0,-2.44,8.54,8.36,-0.06,-1.68,-0.5,0.0,x
3039.0,3667.0,1216.0,3514.0,3583.0,2377.0,2960.0,3011.0,-1.77,8.58,8.69,-0.01,-1.18,-0.37,0.0,x
3024.0,3679.0,1216.0,3509.0,3575.0,2378.0,2961.0,3017.0,-1.79,8.68,8.66,-0.04,-0.32,-0.18,0.0,x
3025.0,3674.0,1215.0,3505.0,3535.0,2375.0,2960.0,3018.0,-1.71,8.79,8.32,-0.09,0.03,-0.17,0.0,x
3035.0,3663.0,1212.0,3504.0,3257.0,2384.0,2965.0,3024.0,-1.71,8.62,8.77,0.01,0.02,-0.19,0.0,x
3037.0,3681.0,1200.0,3510.0,3175.0,2391.0,2966.0,3022.0,-1.74,8.73,8.64,0.03,-0.06,-0.22,0.0,x
3031.0,3667.0,1212.0,3504.0,3202.0,2390.0,2967.0,3024.0,-1.56,8.62,8.5,-0.0,-0.07,-0.21,0.0,x
3029.0,3666.0,1206.0,3507.0,3226.0,2390.0,2963.0,3024.0,-1.55,8.71,8.51,-0.05,-0.17,-0.23,0.0,x
3031.0,3675.0,1213.0,3521.0,3259.0,2386.0,2961.0,3024.0,-1.7,8.61,8.9,-0.02,-0.28,-0.27,0.0,x
3041.0,3670.0,1212.0,3509.0,3350.0,2384.0,2963.0,3027.0,-1.85,9.1,8.71,0.04,-0.24,-0.31,0.0,x
3029.0,3683.0,1219.0,3513.0,3488.0,2383.0,2958.0,3024.0,-2.08,9.52,8.72,0.09,-0.15,-0.57,0.0,x
3038.0,3683.0,1228.0,3519.0,3519.0,2384.0,2961.0,3024.0,-2.43,9.1,9.21,-0.16,0.03,-0.37,0.0,x
3031.0,3687.0,1232.0,3522.0,3517.0,2384.0,2960.0,3024.0,-1.74,8.24,9.74,0.03,0.24,-0.3,0.0,x
3025.0,3680.0,1226.0,3520.0,3514.0,2384.0,2966.0,3031.0,-1.79,8.38,8.81,0.31,0.03,-0.43,0.0,x
3039.0,3694.0,1226.0,3520.0,3504.0,2387.0,2967.0,3034.0,-2.01,8.15,8.31,0.32,-0.22,-0.42,0.0,x
3038.0,3677.0,1219.0,3524.0,3469.0,2390.0,2971.0,3033.0,-2.26,8.2,7.92,0.28,-0.21,-0.36,0.0,x
3031.0,3679.0,1227.0,3520.0,3407.0,2390.0,2971.0,3033.0,-2.26,8.17,7.87,0.22,-0.1,-0.31,0.0,x
3019.0,3665.0,1209.0,3518.0,3319.0,2390.0,2972.0,3035.0,-2.29,8.4,7.51,0.11,-0.12,-0.28,0.0,x
3029.0,3680.0,1223.0,3517.0,3339.0,2397.0,2972.0,3037.0,-2.51,8.59,7.53,-0.03,-0.15,-0.25,0.0,x
3046.0,3687.0,1218.0,3522.0,3388.0,2390.0,2967.0,3033.0,-2.81,8.52,8.13,-0.19,-0.15,-0.12,0.0,x
3045.0,3671.0,1220.0,3519.0,3430.0,2388.0,2965.0,3034.0,-2.41,8.86,8.27,-0.12,-0.15,-0.1,0.0,x
3028.0,3680.0,1217.0,3530.0,3478.0,2395.0,2973.0,3033.0,-2.04,8.97,8.09,-0.1,-0.21,-0.13,0.0,x
3024.0,3670.0,1220.0,3525.0,3506.0,2391.0,2965.0,3034.0,-2.19,8.9,8.36,-0.19,-0.23,-0.25,0.0,x
3030.0,3689.0,1217.0,3531.0,3530.0,2390.0,2970.0,3034.0,-2.05,8.7,8.49,-0.09,-0.25,-0.29,0.0,x
3029.0,3670.0,1216.0,3528.0,3531.0,2398.0,2972.0,3034.0,-2.09,8.61,8.79,-0.18,-0.29,-0.26,0.0,x
3027.0,3665.0,1221.0,3519.0,3451.0,2396.0,2973.0,3040.0,-2.41,8.28,9.09,-0.14,0.17,-0.25,0.0,x
3031.0,3665.0,1205.0,3516.0,3198.0,2391.0,2975.0,3038.0,-2.56,8.08,8.97,-0.01,0.01,-0.25,0.0,x
3027.0,3674.0,1215.0,3524.0,3252.0,2394.0,2971.0,3035.0,-2.77,8.05,9.47,0.01,-0.64,-0.25,0.0,x
3029.0,3671.0,1208.0,3525.0,3323.0,2394.0,2968.0,3033.0,-2.06,8.1,9.53,-0.0,-0.89,-0.3,0.0,x
3025.0,3667.0,1217.0,3527.0,3328.0,2398.0,2977.0,3041.0,-1.73,8.06,9.59,0.0,-0.3,-0.26,0.0,x
3023.0,3660.0,1216.0,3521.0,3323.0,2397.0,2977.0,3039.0,-2.94,8.14,9.55,0.04,-0.3,-0.21,0.0,x
3026.0,3682.0,1211.0,3521.0,3287.0,2400.0,2975.0,3039.0,-2.07,7.87,9.98,0.12,-0.9,-0.26,0.0,x
3035.0,3664.0,1205.0,3517.0,3187.0,2399.0,2974.0,3042.0,-1.51,8.35,9.17,0.14,-0.44,-0.16,0.0,x
3029.0,3681.0,1217.0,3524.0,3121.0,2406.0,2980.0,3046.0,-1.78,8.2,9.21,0.02,0.03,-0.09,0.0,x
3038.0,3673.0,1215.0,3527.0,3135.0,2395.0,2974.0,3035.0,-1.92,8.13,9.36,0.04,0.04,-0.07,0.0,x
3041.0,3695.0,1214.0,3520.0,3122.0,2401.0,2978.0,3043.0,-1.69,8.21,9.29,-0.13,-0.01,0.03,0.0,x
3042.0,3693.0,1218.0,3525.0,3082.0,2404.0,2978.0,3045.0,-1.6,8.38,9.5,-0.01,0.08,-0.01,0.0,x
3024.0,3659.0,1221.0,3523.0,3099.0,2401.0,2974.0,3046.0,-1.65,8.27,9.66,-0.08,0.09,0.03,0.0,x
3027.0,3667.0,1214.0,3521.0,3057.0,2401.0,2979.0,3047.0,-1.4,8.42,9.37,0.05,0.06,-0.02,0.0,x
3029.0,3679.0,1205.0,3520.0,3062.0,2403.0,2979.0,3046.0,-1.26,8.41,9.27,0.03,0.05,-0.03,0.0,x
3024.0,3664.0,1211.0,3519.0,3088.0,2402.0,2979.0,3044.0,-1.41,8.37,9.45,-0.03,0.05,-0.03,0.0,x
3027.0,3671.0,1203.0,3523.0,3104.0,2409.0,2979.0,3050.0,-1.37,8.38,9.45,0.03,0.06,-0.02,0.0,x
3024.0,3679.0,1207.0,3523.0,3107.0,2400.0,2983.0,3051.0,-1.17,8.21,9.53,0.0,0.02,-0.05,0.0,x
3034.0,3678.0,1206.0,3523.0,3125.0,2397.0,2975.0,3040.0,-1.21,8.41,9.48,0.05,0.09,-0.07,0.0,x
3026.0,3686.0,1215.0,3533.0,3123.0,2401.0,2974.0,3041.0,-1.35,8.26,9.63,0.0,0.12,-0.05,0.0,x
3024.0,3671.0,1214.0,3520.0,3120.0,2400.0,2976.0,3042.0,-1.49,8.17,9.9,0.05,0.26,-0.04,0.0,x
3029.0,3682.0,1214.0,3529.0,3135.0,2401.0,2981.0,3045.0,-1.48,8.41,9.84,0.1,0.38,-0.01,0.0,x
3035.0,3682.0,1209.0,3534.0,3137.0,2402.0,2977.0,3042.0,-1.51,8.39,9.89,0.11,0.77,0.07,0.0,x
3031.0,3670.0,1206.0,3528.0,3141.0,2397.0,2982.0,3045.0,-1.44,8.5,9.41,0.21,1.21,0.14,0.0,x
3034.0,3679.0,1211.0,3531.0,3201.0,2393.0,2973.0,3039.0,-1.71,8.83,8.84,0.11,1.3,0.15,0.0,x
3031.0,3669.0,1200.0,3533.0,3285.0,2399.0,2981.0,3047.0,-1.87,8.69,8.84,0.15,1.0,0.09,0.0,x
3035.0,3678.0,1205.0,3527.0,3280.0,2402.0,2983.0,3047.0,-1.96,8.68,8.64,0.16,0.86,0.06,0.0,x
3024.0,3664.0,1195.0,3525.0,3282.0,2401.0,2983.0,3050.0,-2.0,8.59,8.3,0.16,0.89,0.03,0.0,x
3026.0,3685.0,1191.0,3529.0,3301.0,2405.0,2982.0,3044.0,-1.89,8.92,7.99,0.11,0.54,0.01,0.0,x
3041.0,3673.0,1200.0,3523.0,3299.0,2398.0,2981.0,3047.0,-2.1,8.54,8.19,0.14,0.58,-0.01,0.0,x
3035.0,3669.0,1187.0,3536.0,3307.0,2402.0,2979.0,3040.0,-2.25,8.64,7.96,0.07,0.63,0.04,0.0,x
3024.0,3674.0,1194.0,3521.0,3301.0,2399.0,2977.0,3038.0,-1.89,8.97,7.58,0.12,0.87,0.09,0.0,x
3034.0,3691.0,1189.0,3531.0,3306.0,2399.0,2985.0,3036.0,-2.44,8.94,7.35,0.06,1.32,0.21,0.0,x
3027.0,3677.0,1181.0,3529.0,3301.0,2391.0,2979.0,3026.0,-1.87,9.19,6.86,0.09,1.36,0.21,0.0,x
3028.0,3674.0,1168.0,3534.0,3312.0,2397.0,2983.0,3026.0,-2.02,9.24,6.77,-0.1,1.16,0.16,0.0,x
3043.0,3483.0,3007.0,3875.0,3628.0,2294.0,2494.0,2637.0,-2.48,9.65,5.55,-0.1,-0.09,-0.17,0.0,x
3033.0,3471.0,3003.0,3883.0,3705.0,2304.0,2498.0,2637.0,-2.33,9.27,5.84,-0.1,0.0,-0.25,0.0,x
3034.0,3477.0,2996.0,3883.0,3740.0,2306.0,2494.0,2637.0,-2.14,9.28,5.92,-0.05,-0.06,-0.11,0.0,x
3034.0,3477.0,3018.0,3883.0,3402.0,2311.0,2493.0,2627.0,-2.05,9.42,5.97,0.15,-0.25,-0.12,0.0,x
3035.0,3481.0,3009.0,3885.0,3302.0,2310.0,2495.0,2626.0,-2.27,9.42,5.7,-0.03,0.02,-0.18,0.0,x
3024.0,3463.0,3012.0,3886.0,3183.0,2309.0,2494.0,2629.0,-2.3,9.36,6.09,-0.0,-0.02,-0.15,0.0,x
3026.0,3475.0,3014.0,3885.0,3087.0,2301.0,2494.0,2625.0,-1.92,9.49,5.83,0.06,-0.14,-0.14,0.0,x
3034.0,3462.0,3023.0,3885.0,3150.0,2306.0,2496.0,2627.0,-2.17,9.47,5.86,-0.04,-0.02,-0.13,0.0,x
3046.0,3494.0,3027.0,3789.0,3291.0,2294.0,2496.0,2631.0,-2.14,9.63,5.83,-0.09,0.03,-0.13,0.0,x
3027.0,3460.0,3049.0,3666.0,3361.0,2328.0,2494.0,2623.0,-2.1,9.54,5.94,0.02,-0.08,-0.17,0.0,x
3039.0,3465.0,3313.0,3648.0,3559.0,2334.0,2483.0,2619.0,-2.16,9.37,5.99,-0.0,-0.02,-0.19,0.0,x
3041.0,3456.0,3407.0,3661.0,3683.0,2335.0,2496.0,2625.0,-2.16,9.6,6.27,-0.03,0.0,-0.11,0.0,x
3041.0,3467.0,3423.0,3638.0,3620.0,2336.0,2496.0,2630.0,-2.13,9.25,6.31,0.05,0.13,-0.14,0.0,x
3034.0,3457.0,3440.0,3357.0,3434.0,2340.0,2479.0,2621.0,-2.43,8.78,5.95,0.16,0.13,-0.19,0.0,x
3033.0,3443.0,3419.0,3360.0,3527.0,2353.0,2462.0,2556.0,-2.43,9.5,5.02,-0.13,0.04,0.22,0.0,x
3039.0,3441.0,3173.0,3389.0,3637.0,2349.0,2453.0,2523.0,-1.39,9.71,5.73,0.05,-0.28,0.16,0.0,x
3026.0,3435.0,2934.0,3440.0,3697.0,2317.0,2461.0,2526.0,-0.75,9.69,5.87,0.07,-0.2,-0.01,0.0,x
3037.0,3429.0,2915.0,3487.0,3838.0,2294.0,2467.0,2548.0,-0.74,10.22,4.94,0.16,-0.42,0.07,0.0,x
3035.0,3421.0,2913.0,3273.0,3934.0,2306.0,2465.0,2549.0,-1.25,10.33,5.96,-0.14,-0.35,-0.21,0.0,x
3040.0,3424.0,1918.0,3184.0,3936.0,2309.0,2436.0,2453.0,-1.02,9.56,6.97,0.02,-0.28,-0.18,0.0,x
3030.0,3411.0,1662.0,3215.0,3934.0,2310.0,2466.0,2465.0,-0.44,9.53,6.11,0.32,-0.57,-0.26,0.0,x
3031.0,3421.0,1701.0,3280.0,3946.0,2297.0,2477.0,2513.0,-0.65,9.78,6.17,0.23,-0.58,-0.21,0.0,x
3041.0,3427.0,1716.0,3344.0,3946.0,2290.0,2480.0,2530.0,-0.64,9.97,6.38,0.14,-0.43,-0.42,0.0,x
3024.0,3437.0,1718.0,3347.0,3950.0,2311.0,2484.0,2537.0,-1.17,9.58,6.38,-0.04,-0.15,-0.33,0.0,x
3027.0,3440.0,1713.0,3369.0,3947.0,2287.0,2490.0,2543.0,-1.63,9.56,6.12,0.25,-0.19,-0.4,0.0,x
3037.0,3439.0,1715.0,3452.0,3965.0,2285.0,2493.0,2543.0,-2.13,9.72,5.36,0.1,-0.22,-0.36,0.0,x
3038.0,3435.0,1714.0,3477.0,3952.0,2288.0,2490.0,2543.0,-1.55,9.79,5.73,-0.04,-0.1,-0.24,0.0,x
3040.0,3441.0,1013.0,3338.0,3964.0,2314.0,2483.0,2448.0,-1.51,9.5,6.36,0.15,-0.1,-0.5,0.0,x
3045.0,3434.0,977.0,3187.0,3965.0,2335.0,2418.0,2397.0,-2.13,9.47,5.48,-0.1,-0.05,-0.33,0.0,x
3038.0,3409.0,1010.0,3110.0,3888.0,2345.0,2402.0,2359.0,-1.92,9.06,5.71,-0.19,-0.28,-0.21,0.0,x
3035.0,3382.0,1204.0,3213.0,3859.0,2352.0,2424.0,2375.0,-2.29,8.64,6.78,-0.01,-0.06,-0.07,0.0,x
3025.0,3388.0,1349.0,3360.0,3894.0,2331.0,2423.0,2421.0,-2.1,10.41,5.72,0.19,-0.13,-0.04,0.0,x
3041.0,3435.0,3155.0,3405.0,3918.0,2298.0,2432.0,2512.0,-2.12,10.14,5.92,-0.07,-0.01,-0.26,0.0,x
3051.0,3436.0,3906.0,3770.0,3907.0,2317.0,2483.0,2559.0,-2.07,9.54,6.34,-0.15,0.21,-0.2,0.0,x
3029.0,3442.0,4043.0,3920.0,3949.0,2317.0,2493.0,2559.0,-2.5,9.52,5.99,-0.01,-0.08,-0.24,0.0,x
3043.0,3437.0,4095.0,3948.0,4095.0,2309.0,2499.0,2559.0,-2.17,9.42,6.17,-0.08,0.23,-0.1,0.0,x
3030.0,3440.0,4095.0,3680.0,4095.0,2317.0,2500.0,2559.0,-2.09,9.42,7.0,0.18,0.12,-0.05,0.0,x
3036.0,3440.0,4095.0,3896.0,3623.0,2313.0,2493.0,2559.0,-1.53,9.05,6.24,0.5,-0.05,-0.22,0.0,x
3045.0,3451.0,4095.0,3915.0,3312.0,2315.0,2507.0,2554.0,-1.76,9.44,5.42,-0.01,-0.07,-0.12,0.0,x
3030.0,3447.0,4095.0,3927.0,3173.0,2309.0,2503.0,2559.0,-1.81,9.44,5.97,-0.03,0.02,-0.15,0.0,x
3037.0,3452.0,4095.0,3765.0,3071.0,2315.0,2498.0,2559.0,-1.8,9.56,6.04,0.06,-0.71,-0.01,0.0,x
3029.0,3443.0,4095.0,3713.0,3013.0,2311.0,2496.0,2585.0,-1.78,9.64,5.8,-0.07,0.14,-0.1,0.0,x
3035.0,3440.0,4095.0,3719.0,3046.0,2313.0,2492.0,2591.0,-1.68,9.65,6.18,0.01,-0.63,-0.07,0.0,x
3040.0,3440.0,4095.0,3725.0,3199.0,2311.0,2492.0,2594.0,-1.09,9.72,6.31,-0.06,-0.02,-0.02,0.0,x
3042.0,3442.0,4095.0,3738.0,3141.0,2320.0,2493.0,2602.0,-1.34,9.59,6.48,-0.03,0.01,-0.12,0.0,x
3038.0,3455.0,4095.0,3757.0,3067.0,2320.0,2487.0,2597.0,-1.43,9.45,6.26,-0.01,0.37,-0.07,0.0,x
3038.0,3443.0,4095.0,3759.0,2992.0,2332.0,2486.0,2597.0,-1.07,9.5,6.39,-0.04,-0.31,-0.04,0.0,x
3037.0,3440.0,4095.0,3773.0,3168.0,2333.0,2488.0,2599.0,-0.79,9.64,6.59,0.02,-0.06,-0.13,0.0,x
3043.0,3445.0,4095.0,3718.0,3271.0,2343.0,2486.0,2603.0,-1.0,9.65,6.4,0.04,-0.04,-0.16,0.0,x
3027.0,3427.0,4095.0,3710.0,3121.0,2336.0,2480.0,2591.0,-0.89,9.62,6.37,-0.02,0.06,-0.12,0.0,x
3024.0,3441.0,4095.0,3689.0,2970.0,2347.0,2477.0,2593.0,-1.13,9.71,6.47,0.05,-0.03,-0.17,0.0,x
3042.0,3437.0,4095.0,3695.0,3017.0,2352.0,2467.0,2591.0,-1.25,9.68,6.32,0.06,-0.06,-0.29,0.0,x
3039.0,3430.0,4095.0,3634.0,3195.0,2345.0,2467.0,2598.0,-1.08,9.28,6.77,-0.08,0.04,-0.12,0.0,x
3041.0,3415.0,4063.0,3661.0,3215.0,2346.0,2469.0,2597.0,-1.02,9.52,6.59,-0.06,0.04,-0.1,0.0,x
3043.0,3435.0,4087.0,3676.0,3136.0,2352.0,2474.0,2605.0,-0.89,9.5,6.37,-0.06,-0.03,-0.15,0.0,x
3030.0,3424.0,4039.0,3661.0,3065.0,2354.0,2469.0,2601.0,-0.85,9.55,6.84,0.04,0.18,-0.37,0.0,x
3041.0,3415.0,4011.0,3673.0,3138.0,2352.0,2474.0,2607.0,-1.36,9.45,7.11,0.15,-0.06,-0.15,0.0,x
3040.0,3425.0,4005.0,3663.0,3312.0,2342.0,2480.0,2608.0,-1.06,9.61,6.25,0.09,-0.18,-0.18,0.0,x
3047.0,3430.0,3997.0,3667.0,3420.0,2341.0,2483.0,2611.0,-1.21,9.45,6.45,0.01,-0.02,-0.14,0.0,x
3037.0,3422.0,3999.0,3646.0,3318.0,2349.0,2485.0,2611.0,-1.23,9.11,6.56,-0.02,0.14,-0.02,0.0,x
3030.0,3408.0,3988.0,3540.0,3210.0,2370.0,2458.0,2607.0,-1.3,9.55,6.4,-0.07,-0.06,-0.15,0.0,x
3029.0,3419.0,4013.0,3539.0,3145.0,2374.0,2457.0,2602.0,-1.02,9.62,6.85,-0.1,-0.07,-0.12,0.0,x
3038.0,3418.0,4003.0,3563.0,3091.0,2380.0,2468.0,2606.0,-1.04,9.45,6.85,0.03,-0.05,-0.15,0.0,x
3038.0,3414.0,4017.0,3574.0,3248.0,2370.0,2471.0,2599.0,-1.03,9.58,6.63,0.02,-0.06,-0.18,0.0,x
3036.0,3410.0,4004.0,3579.0,3440.0,2365.0,2471.0,2602.0,-1.17,9.54,6.55,0.02,-0.06,-0.17,0.0,x
3035.0,3408.0,4046.0,3568.0,3846.0,2359.0,2475.0,2596.0,-1.1,9.69,6.34,0.0,-0.12,-0.18,0.0,x
3029.0,3411.0,3897.0,3565.0,3885.0,2352.0,2470.0,2552.0,-1.08,9.41,6.84,-0.05,0.02,-0.11,0.0,x
3041.0,3410.0,3428.0,3557.0,3895.0,2357.0,2467.0,2518.0,-1.08,9.39,6.7,0.03,0.0,-0.17,0.0,x
3040.0,3393.0,3103.0,3537.0,3874.0,2352.0,2465.0,2519.0,-1.15,9.55,6.61,-0.03,-0.05,-0.15,0.0,x
3040.0,3408.0,3099.0,3535.0,3925.0,2357.0,2465.0,2533.0,-1.12,9.65,6.71,0.01,-0.06,-0.12,0.0,x
3027.0,3406.0,3110.0,3515.0,3536.0,2365.0,2469.0,2538.0,-1.22,9.85,6.49,0.12,-0.02,-0.19,0.0,x
3042.0,3412.0,3118.0,3519.0,3487.0,2370.0,2471.0,2535.0,-1.1,9.57,6.3,0.01,-0.01,-0.16,0.0,x
3044.0,3397.0,2955.0,3517.0,3583.0,2367.0,2469.0,2525.0,-1.15,9.55,6.81,-0.01,-0.04,-0.19,0.0,x
3039.0,3408.0,2850.0,3533.0,3652.0,2361.0,2468.0,2531.0,-0.98,9.38,7.02,0.22,-1.35,-0.23,0.0,x
3041.0,3395.0,2736.0,3536.0,3678.0,2352.0,2469.0,2531.0,1.87,9.77,6.36,0.6,-4.17,-0.81,0.0,x
3041.0,3394.0,2670.0,3537.0,3793.0,2348.0,2459.0,2543.0,-1.21,9.93,6.38,-0.21,-0.27,-0.22,0.0,x
3036.0,3401.0,2608.0,3543.0,3766.0,2350.0,2463.0,2545.0,0.22,9.49,6.89,0.04,-0.27,-0.37,0.0,x
3035.0,3401.0,2589.0,3546.0,3440.0,2352.0,2463.0,2546.0,-0.64,9.44,6.85,-0.01,0.27,-0.34,0.0,x
3046.0,3403.0,2596.0,3537.0,3210.0,2351.0,2462.0,2551.0,-0.82,9.45,6.76,0.02,0.32,-0.21,0.0,x
3037.0,3389.0,2598.0,3542.0,3224.0,2356.0,2469.0,2557.0,-0.73,9.5,6.55,-0.02,1.17,0.0,0.0,x
3030.0,3405.0,2592.0,3556.0,3423.0,2348.0,2471.0,2559.0,-0.55,9.54,6.81,0.03,-0.12,-0.08,0.0,x
3039.0,3396.0,2590.0,3557.0,3751.0,2318.0,2467.0,2559.0,1.38,9.39,7.26,0.06,-2.03,-0.22,0.0,x
3039.0,3387.0,2593.0,3567.0,3683.0,2320.0,2465.0,2559.0,0.35,9.75,5.91,0.14,2.06,-0.08,0.0,x
3027.0,3405.0,2599.0,3567.0,3489.0,2335.0,2476.0,2559.0,-0.96,9.59,6.2,-0.04,1.99,-0.11,0.0,x
3030.0,3409.0,2644.0,3567.0,3198.0,2332.0,2475.0,2559.0,-1.67,9.4,6.35,-0.29,3.5,-0.07,0.0,x
3036.0,3401.0,2692.0,3578.0,3118.0,2331.0,2481.0,2559.0,-3.38,9.25,7.13,-0.15,-0.09,-0.12,0.0,x
3033.0,3399.0,2720.0,3583.0,3283.0,2316.0,2474.0,2559.0,-0.34,9.63,6.19,-0.16,1.34,0.13,0.0,x
3040.0,3408.0,2726.0,3583.0,3765.0,2309.0,2477.0,2559.0,-1.18,9.43,6.48,-0.2,0.71,0.06,0.0,x
3056.0,3408.0,2864.0,3533.0,3904.0,2302.0,2477.0,2544.0,-0.9,9.31,6.84,-0.37,0.88,0.67,0.0,x
3035.0,3403.0,3034.0,3506.0,3906.0,2297.0,2482.0,2541.0,-0.3,9.42,6.81,-0.18,1.15,0.26,0.0,x
3042.0,3408.0,3062.0,3483.0,3347.0,2301.0,2481.0,2523.0,-1.03,9.39,6.64,0.18,1.44,-0.17,0.0,x
3047.0,3418.0,3178.0,3502.0,3183.0,2309.0,2486.0,2518.0,-1.54,9.42,6.18,0.09,0.81,-0.12,0.0,x
3041.0,3426.0,3274.0,3505.0,3251.0,2304.0,2485.0,2519.0,-1.77,9.54,6.24,-0.2,0.47,-0.12,0.0,x
3035.0,3408.0,3287.0,3504.0,3358.0,2304.0,2492.0,2536.0,-1.54,9.51,6.38,-0.01,0.32,-0.12,0.0,x
3031.0,3408.0,3269.0,3514.0,3059.0,2318.0,2494.0,2544.0,-1.15,9.74,5.97,0.13,-0.16,-0.21,0.0,x
3041.0,3409.0,3280.0,3553.0,3134.0,2311.0,2497.0,2551.0,-1.42,9.6,6.07,0.03,0.15,-0.1,0.0,x
3027.0,3399.0,3280.0,3554.0,3039.0,2314.0,2494.0,2547.0,-1.31,9.69,5.76,0.05,-0.01,-0.13,0.0,x
3024.0,3427.0,3270.0,3563.0,3018.0,2321.0,2497.0,2553.0,-1.59,9.6,5.82,-0.04,0.07,-0.13,0.0,x
3040.0,3418.0,3269.0,3553.0,3184.0,2323.0,2497.0,2556.0,-1.31,9.79,5.89,-0.05,-0.0,-0.12,0.0,x
3031.0,3414.0,3275.0,3556.0,3248.0,2318.0,2501.0,2559.0,-1.35,9.85,6.27,0.06,-0.15,-0.24,0.0,x
3024.0,3412.0,3264.0,3554.0,3090.0,2323.0,2501.0,2559.0,-1.76,9.2,6.12,0.15,-0.01,-0.23,0.0,x
3034.0,3407.0,3279.0,3536.0,3006.0,2327.0,2499.0,2559.0,-1.61,9.46,5.37,0.02,-0.14,-0.16,0.0,x
3041.0,3408.0,3287.0,3538.0,2908.0,2336.0,2501.0,2559.0,-1.89,9.66,6.12,-0.15,-0.06,-0.16,0.0,x
3029.0,3413.0,3280.0,3536.0,2990.0,2333.0,2502.0,2559.0,-1.68,9.6,6.2,-0.0,0.17,-0.06,0.0,x
3037.0,3408.0,3286.0,3527.0,3143.0,2321.0,2502.0,2559.0,-1.42,9.64,6.01,-0.02,-0.02,-0.12,0.0,x
3038.0,3418.0,3280.0,3535.0,3184.0,2323.0,2503.0,2559.0,-1.45,9.46,6.31,-0.01,-0.11,-0.16,0.0,x
3042.0,3407.0,3280.0,3519.0,3139.0,2328.0,2503.0,2582.0,-1.47,9.57,6.18,-0.04,-0.06,-0.17,0.0,x
3034.0,3406.0,3280.0,3526.0,3053.0,2337.0,2510.0,2583.0,-1.46,9.5,6.43,-0.03,-0.16,-0.15,0.0,x
3030.0,3406.0,3290.0,3532.0,3143.0,2326.0,2507.0,2582.0,-2.33,10.13,6.51,-0.01,0.3,-0.4,0.0,x
3037.0,3402.0,3279.0,3540.0,3278.0,2325.0,2503.0,2590.0,-1.78,9.63,5.77,0.48,0.64,0.31,0.0,x
3031.0,3434.0,3291.0,3550.0,3457.0,2325.0,2510.0,2597.0,-1.31,9.27,5.09,0.08,0.97,0.24,0.0,x
3042.0,3418.0,3280.0,3536.0,3328.0,2325.0,2507.0,2594.0,-1.2,9.13,5.56,-0.13,0.56,0.14,0.0,x
3044.0,3420.0,3286.0,3534.0,3165.0,2335.0,2511.0,2604.0,-0.66,8.89,5.8,-0.15,0.57,0.16,0.0,x
3031.0,3411.0,3283.0,3541.0,3184.0,2331.0,2509.0,2603.0,0.61,9.71,5.8,-0.46,0.05,-0.19,0.0,x
3043.0,3421.0,3279.0,3557.0,3233.0,2321.0,2506.0,2605.0,-1.05,9.77,5.93,-0.43,0.4,-0.28,0.0,x
3037.0,3409.0,3279.0,3553.0,3441.0,2325.0,2510.0,2609.0,-0.83,10.06,6.66,-0.48,0.2,-0.1,0.0,x
