hall_1,hall_2,hall_3,flex_t,flex_i,flex_m,flex_r,flex_p,accel_x,accel_y,accel_z,gyro_x,gyro_y,gyro_z,hand,sign
2928.0,888.0,2510.0,2639.0,4095.0,2955.0,3187.0,3319.0,3.68,9.28,3.66,0.23,-0.38,0.36,1.0,z
2912.0,870.0,2382.0,2466.0,4095.0,2933.0,3188.0,3171.0,11.12,10.39,1.26,0.31,-1.55,-3.09,1.0,z
2923.0,877.0,2430.0,2528.0,4095.0,2938.0,3178.0,3267.0,-2.74,3.64,3.81,-1.31,-0.17,-2.34,1.0,z
2908.0,898.0,2847.0,2608.0,4095.0,2967.0,3162.0,3005.0,-16.53,0.91,7.31,-0.77,-0.17,1.83,1.0,z
2929.0,894.0,2923.0,2607.0,4095.0,2999.0,3171.0,1267.0,-9.08,2.83,6.03,-1.49,-1.9,1.37,1.0,z
2903.0,898.0,2736.0,2601.0,4095.0,2962.0,3138.0,3268.0,10.06,4.19,10.24,-1.05,0.47,3.82,1.0,z
2905.0,879.0,2464.0,2447.0,4095.0,2950.0,3130.0,3055.0,19.58,12.97,5.04,0.04,-0.97,-2.75,1.0,z
2917.0,863.0,2416.0,2453.0,4095.0,2992.0,3188.0,3121.0,7.51,7.86,3.59,-2.75,-0.11,-2.99,1.0,z
2928.0,865.0,2558.0,2481.0,4095.0,2987.0,3162.0,3257.0,-4.71,-0.4,10.15,-0.94,-0.83,-3.04,1.0,z
2918.0,877.0,2595.0,2391.0,4095.0,2978.0,3143.0,3265.0,-5.62,1.12,11.31,-0.86,-0.74,-0.46,1.0,z
2915.0,865.0,2587.0,2438.0,4095.0,2975.0,3152.0,3275.0,-1.76,3.6,10.31,-0.08,-0.8,-0.02,1.0,z
2928.0,871.0,2559.0,2482.0,4095.0,2988.0,3169.0,3301.0,0.33,4.9,9.69,-0.1,-0.03,0.35,1.0,z
2927.0,863.0,2548.0,2480.0,4095.0,2985.0,3167.0,3280.0,0.86,5.1,9.18,-0.03,0.05,0.16,1.0,z
2928.0,871.0,2559.0,2512.0,4095.0,2989.0,3182.0,3287.0,0.4,4.77,9.11,-0.05,0.06,0.03,1.0,z
2923.0,865.0,2544.0,2509.0,4095.0,2983.0,3175.0,3287.0,0.43,4.76,8.86,-0.09,-0.08,-0.02,1.0,z
2935.0,867.0,2559.0,2498.0,4095.0,2990.0,3181.0,3303.0,0.52,4.76,9.03,-0.08,-0.1,-0.01,1.0,z
2923.0,871.0,2559.0,2499.0,4095.0,2990.0,3179.0,3286.0,0.35,4.61,9.11,-0.1,0.11,0.03,1.0,z
2928.0,874.0,2559.0,2512.0,4095.0,2989.0,3171.0,3291.0,0.33,4.71,8.93,-0.06,-0.14,0.01,1.0,z
2925.0,864.0,2559.0,2500.0,4095.0,2986.0,3173.0,3293.0,0.3,4.51,9.46,-0.1,0.07,0.23,1.0,z
2928.0,870.0,2559.0,2512.0,4095.0,2991.0,3181.0,3308.0,0.81,4.87,9.24,-0.04,0.05,0.12,1.0,z
2931.0,871.0,2514.0,2603.0,4095.0,2986.0,3205.0,3328.0,2.52,9.37,2.97,-0.06,0.01,-0.13,1.0,z
2932.0,870.0,2483.0,2554.0,4095.0,2977.0,3200.0,3299.0,6.17,9.81,2.67,0.05,-1.13,-0.66,1.0,z
2935.0,874.0,2491.0,2586.0,4095.0,2990.0,3205.0,3313.0,3.38,9.83,3.59,-0.09,-1.9,-0.96,1.0,z
2917.0,873.0,2496.0,2593.0,4095.0,2982.0,3191.0,3314.0,1.87,8.1,5.82,-0.72,-1.28,-1.16,1.0,z
2928.0,863.0,2502.0,2582.0,4095.0,2976.0,3178.0,3318.0,-3.46,6.72,5.17,-0.82,-0.57,-1.57,1.0,z
2928.0,879.0,2559.0,2418.0,4095.0,2971.0,3155.0,3325.0,-7.44,4.85,6.38,-0.83,0.18,0.25,1.0,z
2928.0,887.0,2653.0,2591.0,4095.0,2975.0,3155.0,3297.0,-5.7,5.23,6.69,-0.44,0.02,1.11,1.0,z
2938.0,880.0,2630.0,2608.0,4095.0,2985.0,3166.0,3333.0,-2.16,5.29,6.74,-0.25,-0.3,1.7,1.0,z
2918.0,866.0,2635.0,2610.0,4095.0,2981.0,3169.0,3331.0,4.96,6.63,8.08,-0.36,0.35,1.77,1.0,z
2903.0,878.0,2607.0,2594.0,4095.0,2960.0,3148.0,3312.0,4.3,7.59,8.94,-0.53,1.34,1.3,1.0,z
2927.0,871.0,2547.0,2522.0,4095.0,2981.0,3184.0,3318.0,9.95,9.72,6.52,-0.45,0.94,-0.03,1.0,z
2928.0,871.0,2512.0,2559.0,4095.0,2995.0,3216.0,3313.0,8.58,9.05,4.85,-0.65,-0.18,-1.63,1.0,z
2927.0,880.0,2541.0,2591.0,4095.0,2988.0,3196.0,3327.0,4.2,5.82,8.62,-0.81,-1.05,-2.54,1.0,z
2943.0,875.0,2546.0,2583.0,4095.0,2994.0,3195.0,3327.0,1.1,5.33,9.34,-0.17,-2.04,-2.33,1.0,z
2929.0,857.0,2273.0,2547.0,4095.0,3003.0,3183.0,3317.0,-0.27,1.75,11.95,-1.13,-1.13,-1.25,1.0,z
2945.0,859.0,2271.0,2541.0,4095.0,3024.0,3175.0,3330.0,-2.36,1.58,10.87,-0.37,-1.04,-0.63,1.0,z
2934.0,862.0,2245.0,2544.0,4095.0,3024.0,3186.0,3329.0,-1.18,3.34,9.58,-0.08,-0.21,0.02,1.0,z
2932.0,871.0,2230.0,2549.0,4095.0,3023.0,3194.0,3325.0,1.27,5.34,8.99,0.04,-0.27,0.02,1.0,z
2950.0,867.0,2224.0,2559.0,4095.0,3024.0,3205.0,3334.0,1.34,5.36,9.26,-0.08,0.16,0.03,1.0,z
2928.0,875.0,2224.0,2559.0,4095.0,3020.0,3194.0,3328.0,1.17,4.9,8.76,-0.08,0.08,-0.04,1.0,z
2928.0,879.0,2215.0,2522.0,4095.0,2999.0,3209.0,3357.0,8.83,10.21,2.66,0.21,-0.2,-0.28,1.0,z
2933.0,870.0,2126.0,2532.0,4095.0,2996.0,3233.0,3289.0,9.4,10.02,0.4,-0.57,-0.61,-1.83,1.0,z
2926.0,870.0,2187.0,2552.0,4095.0,2991.0,3199.0,3342.0,-0.17,5.24,4.41,-1.75,-0.78,-2.05,1.0,z
2928.0,897.0,2718.0,2544.0,4095.0,3017.0,3183.0,3007.0,-14.82,1.87,6.55,-1.72,0.99,1.25,1.0,z
2928.0,939.0,3181.0,2596.0,4095.0,3046.0,3207.0,2933.0,-10.28,4.06,5.98,-0.74,-1.76,0.55,1.0,z
2943.0,915.0,2922.0,2603.0,4095.0,3039.0,3202.0,3116.0,-2.58,3.41,7.95,-1.14,1.5,3.31,1.0,z
2928.0,922.0,2896.0,2590.0,4095.0,3040.0,3205.0,3067.0,7.44,3.66,13.41,-1.26,0.68,2.09,1.0,z
2913.0,887.0,2603.0,2498.0,4095.0,2965.0,3197.0,3293.0,17.79,11.15,8.97,0.23,-0.78,-3.14,1.0,z
2933.0,871.0,2511.0,2490.0,4095.0,3020.0,3235.0,3264.0,9.78,8.19,4.46,-1.96,1.08,-1.92,1.0,z
2918.0,879.0,2603.0,2518.0,4095.0,3015.0,3212.0,3345.0,0.06,1.92,8.83,-0.66,-2.47,-4.01,1.0,z
2929.0,874.0,2434.0,2503.0,4095.0,3031.0,3204.0,3342.0,-3.32,-1.43,13.24,-1.08,-1.42,-1.55,1.0,z
2934.0,879.0,2442.0,2502.0,4095.0,3031.0,3199.0,3343.0,-1.27,0.47,11.92,-0.13,-0.72,-0.06,1.0,z
2939.0,882.0,2414.0,2514.0,4095.0,3041.0,3226.0,3354.0,0.47,3.29,9.54,0.04,-0.31,0.06,1.0,z
2933.0,869.0,2391.0,2528.0,4095.0,3035.0,3219.0,3346.0,1.39,3.57,10.02,-0.2,0.25,0.2,1.0,z
2941.0,874.0,2388.0,2535.0,4095.0,3036.0,3223.0,3343.0,1.35,3.78,9.87,-0.06,0.16,0.02,1.0,z
2938.0,867.0,2384.0,2535.0,4095.0,3034.0,3216.0,3351.0,1.57,3.8,9.38,0.04,0.07,0.07,1.0,z
2947.0,870.0,2385.0,2546.0,4095.0,3039.0,3232.0,3360.0,1.28,3.63,9.29,-0.07,0.11,0.13,1.0,z
2930.0,875.0,2386.0,2544.0,4095.0,3025.0,3217.0,3355.0,1.19,3.39,10.03,-0.04,0.18,0.16,1.0,z
2934.0,877.0,2398.0,2546.0,4095.0,3031.0,3223.0,3370.0,1.1,3.97,9.9,0.15,0.26,0.22,1.0,z
2938.0,887.0,2390.0,2544.0,4095.0,3031.0,3223.0,3355.0,0.34,3.52,10.51,0.11,0.52,0.44,1.0,z
2934.0,882.0,2338.0,2597.0,4095.0,3021.0,3219.0,3376.0,0.27,9.48,3.65,-0.02,-0.05,-0.06,1.0,z
2927.0,887.0,2341.0,2595.0,4095.0,3018.0,3231.0,3373.0,0.26,9.47,3.65,-0.08,0.04,-0.05,1.0,z
2928.0,879.0,2342.0,2602.0,4095.0,3024.0,3225.0,3379.0,0.19,9.33,3.83,-0.12,0.02,-0.04,1.0,z
2930.0,889.0,2338.0,2600.0,4095.0,3021.0,3217.0,3376.0,0.23,9.44,3.82,-0.05,-0.04,-0.05,1.0,z
2929.0,881.0,2339.0,2593.0,4095.0,3012.0,3216.0,3377.0,0.18,9.45,3.82,0.0,-0.01,-0.11,1.0,z
2928.0,891.0,2347.0,2559.0,4095.0,3024.0,3226.0,3382.0,-0.66,9.1,3.6,-0.15,0.25,0.07,1.0,z
2933.0,880.0,2320.0,2548.0,4095.0,3013.0,3223.0,3369.0,7.53,9.66,2.76,-0.04,-0.67,-0.96,1.0,z
2941.0,879.0,2288.0,2559.0,4095.0,3021.0,3234.0,3347.0,5.49,8.78,1.85,-0.29,-1.04,-2.0,1.0,z
2928.0,889.0,2403.0,2415.0,4095.0,2999.0,3168.0,3349.0,-12.24,2.08,6.14,-1.79,1.26,-0.46,1.0,z
2934.0,1012.0,3287.0,2551.0,4095.0,3088.0,3278.0,2379.0,-15.5,3.39,3.99,-1.59,1.03,2.17,1.0,z
2935.0,910.0,3082.0,2538.0,4095.0,3026.0,3171.0,3295.0,0.46,2.27,5.65,-0.41,-2.01,3.08,1.0,z
2937.0,878.0,2710.0,2384.0,4095.0,3034.0,3271.0,3107.0,24.65,15.12,5.85,-0.5,-0.97,-1.77,1.0,z
2927.0,882.0,2672.0,2447.0,4095.0,3057.0,3262.0,3261.0,6.62,8.36,6.81,-3.75,1.09,-2.61,1.0,z
2930.0,894.0,2847.0,2426.0,4095.0,3035.0,3196.0,3345.0,-7.75,-0.78,12.17,-1.04,-0.01,-2.21,1.0,z
2918.0,898.0,2877.0,2448.0,4095.0,3008.0,3158.0,3330.0,-5.66,1.19,10.57,-0.24,-0.3,-0.25,1.0,z
2912.0,893.0,2837.0,2527.0,4095.0,3024.0,3191.0,3370.0,-1.29,3.89,8.97,0.03,-0.74,-0.02,1.0,z
2931.0,901.0,2825.0,2541.0,4095.0,3025.0,3199.0,3371.0,0.56,4.99,9.35,0.01,0.01,0.08,1.0,z
2914.0,896.0,2818.0,2533.0,4095.0,3020.0,3196.0,3358.0,-0.02,5.14,9.02,-0.1,0.09,0.06,1.0,z
2945.0,898.0,2810.0,2539.0,4095.0,3027.0,3214.0,3379.0,-0.05,4.72,8.91,-0.19,0.19,0.1,1.0,z
2927.0,897.0,2806.0,2534.0,4095.0,3020.0,3198.0,3372.0,0.03,4.52,9.17,-0.11,-0.0,0.07,1.0,z
2941.0,911.0,2800.0,2559.0,4095.0,3014.0,3223.0,3391.0,1.44,9.51,3.19,-0.03,0.03,-0.05,1.0,z
2948.0,910.0,2814.0,2590.0,4095.0,3025.0,3232.0,3405.0,1.38,9.68,3.11,-0.14,-0.03,-0.06,1.0,z
2938.0,912.0,2810.0,2583.0,4095.0,3021.0,3234.0,3392.0,1.59,9.2,3.58,-0.13,0.05,-0.05,1.0,z
2937.0,911.0,2818.0,2559.0,4095.0,3025.0,3234.0,3403.0,4.35,9.45,3.52,-0.13,-0.26,-0.22,1.0,z
2927.0,896.0,2716.0,2506.0,4095.0,3006.0,3248.0,3315.0,11.02,10.03,2.22,-0.04,-1.59,-3.21,1.0,z
2928.0,899.0,2749.0,2544.0,4095.0,3008.0,3226.0,3346.0,-3.64,2.13,5.9,-2.11,0.92,-2.3,1.0,z
2928.0,978.0,3333.0,2535.0,4095.0,3055.0,3245.0,989.0,-13.01,4.33,4.72,-1.92,1.94,0.82,1.0,z
2933.0,959.0,3261.0,2559.0,4095.0,3050.0,3202.0,2635.0,-7.12,4.89,5.23,-0.95,-1.86,0.91,1.0,z
2935.0,949.0,3219.0,2613.0,4095.0,3056.0,3218.0,2661.0,-0.44,3.11,9.51,-1.74,1.69,4.07,1.0,z
2926.0,919.0,3015.0,2559.0,4095.0,3038.0,3200.0,2641.0,12.71,4.19,12.35,-0.75,0.09,1.78,1.0,z
2895.0,895.0,2751.0,2443.0,4095.0,2969.0,3182.0,3278.0,16.74,9.77,7.44,-0.35,-0.73,-2.96,1.0,z
2928.0,885.0,2746.0,2527.0,4095.0,3024.0,3241.0,3332.0,8.69,5.98,6.91,-2.31,1.43,-2.71,1.0,z
2929.0,899.0,2797.0,2507.0,4095.0,3026.0,3216.0,3376.0,1.11,2.19,7.05,-0.34,-1.38,-4.31,1.0,z
2931.0,886.0,2818.0,2507.0,4095.0,3043.0,3212.0,3351.0,-3.88,-2.5,13.19,-1.0,-0.94,-1.89,1.0,z
2933.0,886.0,2880.0,2467.0,4095.0,3042.0,3205.0,3359.0,-2.26,-0.84,12.0,-0.2,0.17,-0.09,1.0,z
2929.0,887.0,2847.0,2480.0,4095.0,3045.0,3210.0,3363.0,-1.3,2.4,9.39,0.12,-0.55,-0.15,1.0,z
2935.0,891.0,2850.0,2490.0,4095.0,3043.0,3216.0,3381.0,-0.18,2.8,10.28,-0.08,0.2,0.11,1.0,z
2927.0,895.0,2837.0,2495.0,4095.0,3038.0,3219.0,3376.0,0.66,2.96,10.2,0.07,-0.0,0.09,1.0,z
2927.0,896.0,2837.0,2503.0,4095.0,3056.0,3230.0,3392.0,0.64,2.87,9.74,-0.05,0.05,0.08,1.0,z
2928.0,893.0,2837.0,2500.0,4095.0,3046.0,3216.0,3381.0,0.49,2.74,9.87,-0.02,-0.08,0.1,1.0,z
2927.0,897.0,2779.0,2595.0,4095.0,3031.0,3239.0,3391.0,2.69,9.5,1.65,-0.42,0.51,0.06,1.0,z
2925.0,890.0,2737.0,2552.0,4095.0,3024.0,3234.0,3357.0,8.25,11.87,1.83,-0.09,-1.26,-1.13,1.0,z
2925.0,896.0,2724.0,2559.0,4095.0,3030.0,3251.0,3365.0,5.26,8.51,0.45,-0.93,-0.81,-1.97,1.0,z
2928.0,891.0,2747.0,2586.0,4095.0,3025.0,3227.0,3387.0,-0.08,4.41,4.07,-1.89,-0.5,-2.1,1.0,z
2932.0,903.0,2851.0,2594.0,4095.0,3033.0,3194.0,3207.0,-9.31,1.75,7.56,-1.4,-0.12,0.05,1.0,z
2919.0,927.0,3035.0,2619.0,4095.0,3056.0,3216.0,2621.0,-9.61,5.02,7.34,-1.17,0.05,0.23,1.0,z
2925.0,932.0,3047.0,2651.0,4095.0,3066.0,3233.0,2624.0,-6.67,5.2,9.13,-0.7,0.43,1.64,1.0,z
2928.0,915.0,2983.0,2627.0,4095.0,3060.0,3216.0,2647.0,2.19,4.08,9.28,-1.02,-0.02,2.39,1.0,z
2905.0,910.0,2843.0,2587.0,4095.0,3010.0,3181.0,3363.0,8.1,4.85,9.34,-0.78,0.4,1.56,1.0,z
2915.0,899.0,2764.0,2499.0,4095.0,3011.0,3214.0,3349.0,10.8,9.33,6.88,-0.69,-0.22,0.07,1.0,z
2928.0,883.0,2759.0,2517.0,4095.0,3035.0,3248.0,3387.0,7.52,7.71,7.26,-1.02,-0.22,-1.2,1.0,z
2944.0,896.0,2789.0,2546.0,4095.0,3045.0,3246.0,3415.0,5.58,5.87,8.9,-0.84,-1.69,-2.53,1.0,z
2918.0,905.0,2772.0,2512.0,4095.0,3039.0,3235.0,3397.0,3.1,4.23,7.92,-1.07,-1.02,-3.05,1.0,z
2946.0,905.0,2869.0,2511.0,4095.0,3059.0,3210.0,3394.0,-2.24,-2.55,13.94,-0.94,0.64,-1.19,1.0,z
2935.0,909.0,2853.0,2527.0,4095.0,3061.0,3216.0,3408.0,-1.37,1.37,9.8,0.23,-0.55,-0.36,1.0,z
2930.0,901.0,2826.0,2559.0,4095.0,3069.0,3222.0,3410.0,0.81,3.44,9.38,-0.11,0.12,0.37,1.0,z
2944.0,895.0,2809.0,2559.0,4095.0,3062.0,3217.0,3408.0,1.6,3.84,9.68,-0.11,-0.06,0.06,1.0,z
2928.0,907.0,2816.0,2583.0,4095.0,3070.0,3221.0,3421.0,1.6,3.4,9.81,-0.12,0.06,0.1,1.0,z
2944.0,902.0,2811.0,2587.0,4095.0,3058.0,3223.0,3411.0,2.1,3.75,9.41,-0.04,-0.03,-0.06,1.0,z
2928.0,902.0,2818.0,2585.0,4095.0,3071.0,3232.0,3427.0,1.19,3.25,9.84,-0.08,0.09,0.03,1.0,z
2947.0,902.0,2755.0,2597.0,4095.0,3052.0,3243.0,3403.0,4.9,7.36,2.82,-0.01,0.76,-0.11,1.0,z
2935.0,896.0,2730.0,2544.0,4095.0,3055.0,3251.0,3396.0,9.28,9.54,2.61,-0.01,-0.41,-1.02,1.0,z
2943.0,894.0,2691.0,2559.0,4095.0,3049.0,3255.0,3399.0,5.32,10.06,2.12,-0.69,-1.06,-2.46,1.0,z
2927.0,901.0,2732.0,2587.0,4095.0,3035.0,3225.0,3408.0,-0.65,5.2,5.95,-1.13,-1.31,-2.35,1.0,z
2928.0,897.0,2794.0,2544.0,4095.0,3045.0,3200.0,3405.0,-6.23,2.79,7.46,-1.15,-0.89,-1.15,1.0,z
2922.0,918.0,2960.0,2593.0,4095.0,3062.0,3206.0,2591.0,-10.7,2.2,9.92,-0.89,0.19,0.55,1.0,z
2933.0,940.0,2994.0,2611.0,4095.0,3069.0,3216.0,2596.0,-8.3,2.28,9.23,-0.01,-0.84,2.04,1.0,z
2930.0,919.0,2933.0,2608.0,4095.0,3065.0,3221.0,3236.0,-1.14,0.54,8.53,-0.02,-0.1,3.84,1.0,z
2899.0,912.0,2803.0,2353.0,4095.0,3022.0,3185.0,3347.0,15.78,4.96,7.93,0.35,-0.27,2.07,1.0,z
2903.0,909.0,2609.0,2497.0,4095.0,3010.0,3236.0,3283.0,12.39,10.41,3.98,0.07,-0.21,-0.84,1.0,z
2911.0,910.0,2667.0,2523.0,4095.0,3031.0,3239.0,3258.0,8.87,7.58,5.33,-1.76,0.51,-1.62,1.0,z
2928.0,903.0,2710.0,2551.0,4095.0,3057.0,3248.0,3383.0,7.11,4.4,7.14,-1.22,-1.68,-3.45,1.0,z
2928.0,892.0,2731.0,2551.0,4095.0,3042.0,3216.0,3381.0,2.47,-0.42,10.72,-1.64,-1.49,-3.59,1.0,z
2940.0,903.0,2755.0,2559.0,4095.0,3071.0,3233.0,3395.0,-0.83,-1.93,12.5,-1.63,-0.12,-1.79,1.0,z
2935.0,902.0,2790.0,2517.0,4095.0,3056.0,3209.0,3383.0,-1.68,-0.23,11.88,-0.56,-0.01,-0.3,1.0,z
2940.0,907.0,2768.0,2553.0,4095.0,3063.0,3234.0,3408.0,0.42,2.08,10.55,-0.02,-0.29,0.04,1.0,z
2933.0,912.0,2762.0,2549.0,4095.0,3055.0,3222.0,3402.0,1.42,2.56,10.26,-0.04,-0.08,0.12,1.0,z
2928.0,911.0,2767.0,2559.0,4095.0,3067.0,3236.0,3419.0,1.73,2.53,10.04,-0.02,0.06,0.05,1.0,z
2941.0,911.0,2768.0,2559.0,4095.0,3068.0,3233.0,3408.0,1.93,2.6,9.79,0.02,-0.03,0.03,1.0,z
2928.0,896.0,2768.0,2559.0,4095.0,3067.0,3231.0,3405.0,1.46,2.2,9.71,-0.06,-0.0,0.12,1.0,z
2928.0,888.0,2732.0,2618.0,4095.0,3035.0,3235.0,3423.0,4.67,11.22,3.3,0.02,-0.12,0.23,1.0,z
2945.0,892.0,2700.0,2559.0,4095.0,3039.0,3254.0,3408.0,7.34,11.37,2.2,-0.31,-0.33,-1.89,1.0,z
2931.0,887.0,2715.0,2611.0,4095.0,3031.0,3235.0,3423.0,2.43,6.28,3.41,-0.66,-0.8,-3.09,1.0,z
2948.0,898.0,2878.0,2514.0,4095.0,3024.0,3184.0,3394.0,-12.07,0.12,6.46,-0.64,0.6,-0.63,1.0,z
2930.0,949.0,3139.0,2591.0,4095.0,3117.0,3267.0,3040.0,-15.27,4.11,1.25,-0.82,1.55,0.97,1.0,z
2929.0,924.0,2871.0,2591.0,4095.0,3088.0,3225.0,3343.0,-7.14,3.35,3.63,-0.98,-1.18,2.4,1.0,z
2929.0,944.0,2911.0,2603.0,4095.0,3088.0,3231.0,3382.0,1.79,1.79,8.63,-1.95,-0.57,3.94,1.0,z
2918.0,939.0,2775.0,2528.0,4095.0,3046.0,3181.0,3400.0,17.95,8.62,10.94,-0.22,-1.39,0.73,1.0,z
2917.0,923.0,2380.0,2487.0,4095.0,3021.0,3248.0,3285.0,10.47,10.62,4.36,1.12,-3.82,-3.78,1.0,z
2921.0,905.0,2459.0,2515.0,4095.0,3023.0,3202.0,3381.0,4.17,3.88,6.73,-1.16,-0.02,-3.28,1.0,z
2925.0,910.0,2389.0,2545.0,4095.0,3044.0,3223.0,3379.0,0.16,2.71,8.05,-0.57,-2.06,-4.21,1.0,z
2923.0,910.0,2273.0,2513.0,4095.0,3067.0,3222.0,3349.0,-5.95,-0.99,12.26,-1.32,1.15,-1.79,1.0,z
2937.0,925.0,2328.0,2500.0,4095.0,3071.0,3214.0,3314.0,-6.68,0.33,11.05,-0.57,0.68,0.1,1.0,z
2941.0,924.0,2282.0,2511.0,4095.0,3062.0,3213.0,3395.0,-4.1,3.19,8.85,0.17,-0.65,0.29,1.0,z
2933.0,927.0,2287.0,2532.0,4095.0,3060.0,3215.0,3378.0,-1.37,4.31,9.05,-0.19,-0.13,0.5,1.0,z
2934.0,918.0,2271.0,2541.0,4095.0,3057.0,3214.0,3407.0,-0.48,4.59,9.56,-0.07,-0.09,0.19,1.0,z
2943.0,919.0,2275.0,2545.0,4095.0,3071.0,3216.0,3411.0,-0.82,4.12,9.51,-0.06,0.05,0.07,1.0,z
2922.0,928.0,2275.0,2546.0,4095.0,3067.0,3217.0,3407.0,-0.96,4.04,9.12,-0.03,-0.02,0.1,1.0,z
2931.0,921.0,2272.0,2547.0,4095.0,3071.0,3225.0,3424.0,-0.6,4.39,9.15,-0.04,-0.05,-0.01,1.0,z
2928.0,915.0,2274.0,2546.0,4095.0,3061.0,3219.0,3415.0,-1.23,3.99,9.43,-0.11,0.1,0.01,1.0,z
2928.0,935.0,2153.0,2597.0,4095.0,3053.0,3235.0,3433.0,0.79,7.86,6.39,-0.03,-0.01,-0.04,1.0,z
2931.0,933.0,2154.0,2608.0,4095.0,3059.0,3243.0,3441.0,1.66,7.94,6.01,0.1,-0.24,-0.07,1.0,z
2931.0,934.0,2141.0,2605.0,4095.0,3061.0,3242.0,3461.0,2.05,8.86,5.06,-0.01,-0.59,-0.16,1.0,z
2934.0,945.0,2131.0,2559.0,4095.0,3057.0,3230.0,3431.0,5.37,8.58,5.75,-0.09,-1.17,-0.46,1.0,z
2940.0,942.0,2141.0,2582.0,4095.0,3059.0,3235.0,3437.0,4.94,6.98,6.1,-0.35,-0.33,-1.53,1.0,z
2933.0,943.0,2131.0,2599.0,4095.0,3053.0,3233.0,3440.0,0.05,5.62,7.79,-0.56,-0.44,-1.74,1.0,z
2929.0,949.0,2256.0,2599.0,4095.0,3058.0,3216.0,3414.0,-7.62,5.38,8.45,-0.53,0.28,-0.66,1.0,z
2937.0,989.0,2609.0,2614.0,4095.0,3055.0,3213.0,3238.0,-8.98,6.42,6.16,-0.33,0.81,1.13,1.0,z
2931.0,985.0,2649.0,2639.0,4095.0,3085.0,3223.0,3297.0,-5.06,4.78,5.75,-0.35,-0.56,1.54,1.0,z
2928.0,973.0,2655.0,2635.0,4095.0,3082.0,3221.0,3265.0,0.41,3.42,8.45,-0.59,0.92,2.82,1.0,z
2920.0,958.0,2629.0,2621.0,4095.0,3055.0,3202.0,3261.0,5.16,3.02,10.54,-0.71,1.91,2.07,1.0,z
2893.0,960.0,2559.0,2590.0,4095.0,3042.0,3184.0,3339.0,8.98,5.95,10.87,-0.24,0.98,0.59,1.0,z
2913.0,943.0,2500.0,2463.0,4095.0,3029.0,3207.0,3372.0,9.39,6.34,8.71,-0.34,-0.1,-1.43,1.0,z
2929.0,927.0,2483.0,2557.0,4095.0,3057.0,3234.0,3434.0,4.65,4.72,8.48,-0.43,-0.79,-2.35,1.0,z
2927.0,925.0,2477.0,2550.0,4095.0,3059.0,3217.0,3436.0,0.35,3.48,10.26,-0.52,-0.6,-2.41,1.0,z
2929.0,941.0,2513.0,2544.0,4095.0,3083.0,3210.0,3427.0,-5.3,2.91,9.19,-0.22,-0.53,-1.71,1.0,z
2931.0,935.0,2535.0,2605.0,4095.0,3087.0,3201.0,3429.0,-4.63,2.59,9.79,-0.28,-0.44,-0.71,1.0,z
2933.0,935.0,2511.0,2615.0,4095.0,3099.0,3227.0,3455.0,-1.59,3.54,9.3,-0.12,-0.16,-0.18,1.0,z
2931.0,933.0,2511.0,2618.0,4095.0,3088.0,3222.0,3454.0,-0.69,3.95,9.47,-0.2,0.04,-0.0,1.0,z
2937.0,941.0,2513.0,2621.0,4095.0,3093.0,3233.0,3459.0,-0.12,3.83,9.97,-0.14,0.01,-0.03,1.0,z
2932.0,946.0,2447.0,2608.0,4095.0,3071.0,3258.0,3459.0,5.27,8.59,4.27,-0.25,-0.29,-0.31,1.0,z
2928.0,931.0,2390.0,2542.0,4095.0,3046.0,3251.0,3407.0,8.92,9.07,3.29,-0.04,-1.31,-1.88,1.0,z
2931.0,916.0,2394.0,2596.0,4095.0,3053.0,3254.0,3361.0,3.85,7.37,3.57,-1.47,-0.45,-2.1,1.0,z
2918.0,947.0,2531.0,2595.0,4095.0,3059.0,3201.0,3157.0,-7.64,2.14,9.43,-1.55,-0.51,-1.07,1.0,z
2938.0,1211.0,3057.0,2615.0,4095.0,3120.0,3258.0,2747.0,-14.67,4.1,5.83,-0.4,0.63,-0.11,1.0,z
2919.0,1152.0,2894.0,2645.0,4095.0,3108.0,3231.0,3257.0,-6.71,3.34,6.04,-0.52,-0.1,1.92,1.0,z
2929.0,1072.0,2832.0,2607.0,4095.0,3106.0,3230.0,3301.0,4.42,4.28,9.11,-1.23,1.41,2.75,1.0,z
2931.0,1079.0,2771.0,2626.0,4095.0,3094.0,3230.0,3351.0,9.34,8.03,10.47,0.14,0.03,1.24,1.0,z
2913.0,993.0,2698.0,2512.0,4095.0,3061.0,3220.0,3411.0,11.29,8.84,8.09,-0.11,-0.14,-0.69,1.0,z
2895.0,947.0,2640.0,2537.0,4095.0,3038.0,3205.0,3378.0,6.66,6.56,7.24,-0.33,-1.37,-2.27,1.0,z
2911.0,952.0,2688.0,2540.0,4095.0,3057.0,3200.0,3427.0,3.81,4.83,9.67,-0.58,-1.92,-2.64,1.0,z
2928.0,957.0,2702.0,2559.0,4095.0,3070.0,3216.0,3457.0,-1.15,2.84,9.75,-0.71,-1.18,-3.05,1.0,z
2925.0,968.0,2741.0,2544.0,4095.0,3069.0,3197.0,3279.0,-4.71,2.23,9.8,-0.42,0.0,-1.19,1.0,z
2933.0,977.0,2732.0,2583.0,4095.0,3082.0,3216.0,3423.0,-2.88,3.51,9.24,-0.19,-0.36,-0.52,1.0,z
2928.0,976.0,2718.0,2639.0,4095.0,3099.0,3226.0,3449.0,-1.56,4.3,9.12,-0.2,0.07,0.21,1.0,z
2940.0,979.0,2720.0,2649.0,4095.0,3109.0,3233.0,3472.0,-0.09,4.6,9.36,-0.2,0.04,0.16,1.0,z
2928.0,975.0,2704.0,2652.0,4095.0,3097.0,3229.0,3471.0,0.17,4.56,9.58,-0.06,-0.01,0.18,1.0,z
2931.0,976.0,2704.0,2660.0,4095.0,3102.0,3235.0,3471.0,-0.11,4.17,9.45,-0.02,-0.09,0.19,1.0,z
2926.0,978.0,2702.0,2653.0,4095.0,3099.0,3227.0,3472.0,0.03,4.17,9.35,-0.06,0.02,0.12,1.0,z
2928.0,988.0,2707.0,2647.0,4095.0,3095.0,3227.0,3363.0,-0.11,4.35,9.72,-0.01,0.16,-0.02,1.0,z
2935.0,3538.0,3890.0,2858.0,4095.0,3040.0,3167.0,3117.0,0.19,9.08,4.84,0.03,0.02,0.1,1.0,z
2923.0,3520.0,3878.0,2858.0,4095.0,3050.0,3168.0,3089.0,3.27,9.41,4.75,0.17,-0.29,0.15,1.0,z
2928.0,3527.0,3923.0,2770.0,4095.0,3056.0,3186.0,3071.0,6.77,8.89,3.22,-0.11,-0.24,-1.2,1.0,z
2934.0,3504.0,3894.0,2769.0,4095.0,3056.0,3183.0,3067.0,1.62,7.3,3.56,-0.54,-0.71,-1.7,1.0,z
2919.0,3509.0,3890.0,2819.0,4095.0,3057.0,3155.0,3109.0,-7.95,4.1,7.12,-1.33,-0.47,-0.74,1.0,z
2934.0,3477.0,3886.0,2846.0,4095.0,3056.0,3147.0,3125.0,-10.01,4.61,6.32,-0.84,0.51,1.36,1.0,z
2941.0,3495.0,3919.0,2864.0,4095.0,3063.0,3163.0,3138.0,-2.88,3.57,7.05,-1.12,0.62,2.64,1.0,z
2907.0,3456.0,3856.0,2784.0,4095.0,3039.0,3136.0,3071.0,8.84,5.5,10.32,-0.87,0.51,1.8,1.0,z
2896.0,3445.0,3845.0,2638.0,4095.0,3056.0,3158.0,2929.0,17.54,11.5,7.7,-0.1,-0.24,-1.45,1.0,z
2928.0,3504.0,3920.0,2626.0,4095.0,3125.0,3211.0,3050.0,6.87,7.53,6.33,-1.28,0.49,-2.57,1.0,z
2935.0,3519.0,3949.0,2674.0,4095.0,3147.0,3209.0,3095.0,0.98,5.01,6.5,-0.72,-1.89,-3.5,1.0,z
2931.0,3491.0,3931.0,2655.0,4095.0,3171.0,3182.0,3071.0,-4.53,-0.2,12.6,-1.25,0.05,-1.61,1.0,z
2928.0,3499.0,3917.0,2691.0,4095.0,3157.0,3129.0,3093.0,-3.96,1.13,11.66,-0.3,0.18,-0.31,1.0,z
2930.0,3483.0,3932.0,2710.0,4095.0,3167.0,3184.0,3120.0,-1.49,4.19,8.71,0.11,-0.1,-0.05,1.0,z
2929.0,3471.0,3927.0,2711.0,4095.0,3151.0,3184.0,3119.0,-0.04,4.36,9.21,-0.14,0.0,0.04,1.0,z
2928.0,3505.0,3951.0,2714.0,4095.0,3155.0,3194.0,3125.0,-0.29,4.06,9.75,-0.22,0.21,0.05,1.0,z
2933.0,3489.0,3921.0,2719.0,4095.0,3151.0,3185.0,3124.0,-0.17,4.1,9.47,-0.11,0.04,0.07,1.0,z
2928.0,3489.0,3935.0,2725.0,4095.0,3166.0,3203.0,3134.0,-0.26,4.01,9.55,-0.04,-0.04,0.04,1.0,z
2929.0,3472.0,3921.0,2727.0,4095.0,3152.0,3190.0,3126.0,-0.48,4.07,9.22,-0.04,-0.09,0.09,1.0,z
2933.0,3499.0,3933.0,2735.0,4095.0,3155.0,3203.0,3129.0,0.34,4.14,9.59,0.03,-0.27,-0.12,1.0,z
2929.0,3404.0,3926.0,2721.0,4095.0,3181.0,3216.0,3019.0,4.04,9.79,2.69,-0.36,-0.2,-0.33,1.0,z
2937.0,3402.0,3959.0,2683.0,4095.0,3190.0,3216.0,3065.0,7.91,9.47,2.52,-0.36,-0.92,-1.74,1.0,z
2933.0,3390.0,3931.0,2720.0,4095.0,3183.0,3210.0,3093.0,2.54,7.03,3.36,-1.07,-1.25,-2.56,1.0,z
2927.0,3382.0,3933.0,2736.0,4095.0,3147.0,3166.0,3030.0,-9.94,1.41,8.89,-1.06,-0.28,-0.67,1.0,z
2933.0,3327.0,3915.0,2733.0,4095.0,3138.0,3186.0,3024.0,-12.45,5.96,5.35,-0.66,0.66,0.88,1.0,z
2931.0,3340.0,3949.0,2729.0,4095.0,3127.0,3198.0,3107.0,-5.32,3.94,6.06,-0.7,0.59,2.5,1.0,z
2927.0,3341.0,3927.0,2773.0,4095.0,3118.0,3178.0,3107.0,3.08,3.11,7.68,-1.47,1.04,3.4,1.0,z
2926.0,3337.0,3919.0,2673.0,4095.0,3122.0,3185.0,3071.0,13.98,9.54,9.25,-0.87,0.42,0.05,1.0,z
2883.0,3315.0,3867.0,2559.0,4095.0,3092.0,3163.0,2992.0,9.3,8.42,7.35,-0.86,-0.21,-2.0,1.0,z
2928.0,3366.0,3959.0,2542.0,4095.0,3138.0,3186.0,3104.0,4.99,5.04,8.49,-0.39,-1.71,-3.19,1.0,z
2926.0,3351.0,3949.0,2548.0,4095.0,3139.0,3191.0,3130.0,-0.81,5.58,6.59,-0.45,-2.73,-3.33,1.0,z
2937.0,3379.0,3963.0,2539.0,4095.0,3157.0,3161.0,3127.0,-2.48,-1.58,13.88,-1.41,-0.54,-1.46,1.0,z
2931.0,3380.0,3949.0,2610.0,4095.0,3153.0,3165.0,3139.0,-2.93,0.45,11.34,-0.07,-0.08,-0.46,1.0,z
2929.0,3349.0,3948.0,2653.0,4095.0,3155.0,3179.0,3139.0,-1.08,3.56,9.06,-0.14,0.11,0.23,1.0,z
2944.0,3371.0,3965.0,2662.0,4095.0,3158.0,3194.0,3157.0,0.89,3.97,9.66,-0.06,-0.17,0.09,1.0,z
2914.0,3360.0,3935.0,2670.0,4095.0,3165.0,3186.0,3138.0,0.63,3.86,9.82,-0.13,0.14,0.17,1.0,z
2918.0,3366.0,3937.0,2672.0,4095.0,3161.0,3202.0,3152.0,0.61,3.73,9.57,-0.07,0.01,0.08,1.0,z
2925.0,3355.0,3933.0,2674.0,4095.0,3163.0,3191.0,3142.0,0.05,3.46,9.51,-0.06,-0.02,0.16,1.0,z
2933.0,3367.0,3963.0,2687.0,4095.0,3167.0,3200.0,3152.0,0.45,3.6,9.78,-0.05,-0.09,0.37,1.0,z
2928.0,3371.0,3959.0,2693.0,4095.0,3153.0,3190.0,3152.0,0.91,4.02,10.25,0.04,0.25,0.16,1.0,z
2919.0,3360.0,3933.0,2731.0,4095.0,3138.0,3213.0,3133.0,2.06,9.58,3.79,-0.29,-0.0,0.14,1.0,z
2932.0,3376.0,3949.0,2702.0,4095.0,3152.0,3221.0,3173.0,8.07,9.62,3.4,-0.05,-0.31,-0.51,1.0,z
2929.0,3408.0,3952.0,2559.0,4095.0,3167.0,3253.0,3095.0,12.06,9.63,0.57,-0.34,-0.7,-3.57,1.0,z
2931.0,3380.0,3939.0,2702.0,4095.0,3146.0,3173.0,3111.0,-7.72,-1.87,8.09,-1.99,-0.05,-1.99,1.0,z
2922.0,3310.0,3858.0,2638.0,4095.0,3164.0,3243.0,2933.0,-18.58,5.33,1.34,-0.64,1.82,0.06,1.0,z
2935.0,3325.0,3887.0,2672.0,4095.0,3136.0,3194.0,3184.0,-10.23,2.29,5.47,-1.21,0.05,2.36,1.0,z
2933.0,3330.0,3877.0,2747.0,4095.0,3107.0,3200.0,3221.0,-1.33,0.19,10.17,-1.77,0.77,4.03,1.0,z
2928.0,3344.0,3889.0,2736.0,4095.0,3118.0,3185.0,3182.0,19.07,4.89,16.82,-0.5,1.02,1.46,1.0,z
2928.0,3319.0,3889.0,2330.0,4095.0,3109.0,3205.0,3104.0,12.73,10.04,7.07,-0.73,-0.47,-3.93,1.0,z
2923.0,3327.0,3890.0,2475.0,4095.0,3119.0,3201.0,3157.0,7.54,6.94,6.7,-1.05,-1.72,-3.08,1.0,z
2897.0,3312.0,3862.0,2523.0,4095.0,3097.0,3151.0,3149.0,-1.56,-0.27,11.81,-1.69,-1.84,-3.03,1.0,z
2931.0,3334.0,3929.0,2624.0,4095.0,3152.0,3169.0,3130.0,-7.06,-2.83,14.38,-0.93,1.09,-0.11,1.0,z
2898.0,3284.0,3826.0,2645.0,4095.0,3105.0,3133.0,3168.0,-4.04,1.76,9.38,0.0,-0.19,-0.15,1.0,z
2901.0,3291.0,3841.0,2655.0,4095.0,3104.0,3140.0,3166.0,-0.85,2.92,9.48,-0.08,0.12,0.24,1.0,z
2907.0,3312.0,3869.0,2675.0,4095.0,3117.0,3157.0,3175.0,1.24,3.99,10.1,-0.14,0.0,0.1,1.0,z
2908.0,3301.0,3851.0,2679.0,4095.0,3119.0,3152.0,3178.0,-0.05,3.32,9.92,-0.04,0.08,0.08,1.0,z
2898.0,3301.0,3843.0,2689.0,4095.0,3124.0,3165.0,3185.0,0.36,3.72,8.79,-0.06,0.02,0.04,1.0,z
2906.0,3298.0,3865.0,2678.0,4095.0,3104.0,3153.0,3176.0,0.46,3.35,9.7,-0.22,-0.2,-0.06,1.0,z
2907.0,3310.0,3851.0,2677.0,4095.0,3118.0,3163.0,3179.0,0.12,3.22,10.01,-0.09,-0.02,-0.02,1.0,z
2911.0,3301.0,3856.0,2686.0,4095.0,3120.0,3168.0,3167.0,0.03,3.3,10.08,-0.1,0.08,0.02,1.0,z
2925.0,3333.0,3920.0,2694.0,4095.0,3124.0,3199.0,3206.0,4.92,6.16,2.57,1.12,0.46,0.2,1.0,z
2931.0,3342.0,3934.0,2699.0,4095.0,3127.0,3198.0,3213.0,2.47,6.5,3.4,0.06,0.39,0.02,1.0,z
2929.0,3331.0,3918.0,2716.0,4095.0,3130.0,3202.0,3211.0,1.44,8.24,4.02,-0.23,0.19,0.07,1.0,z
2930.0,3345.0,3922.0,2675.0,4095.0,3134.0,3211.0,3193.0,7.95,9.73,4.15,0.01,-0.47,-0.44,1.0,z
2928.0,3349.0,3937.0,2559.0,4095.0,3138.0,3233.0,3137.0,7.85,9.59,3.43,0.17,-1.52,-2.67,1.0,z
2930.0,3354.0,3928.0,2559.0,4095.0,3136.0,3211.0,3200.0,-4.01,3.89,4.87,-1.25,0.54,-1.91,1.0,z
2931.0,3317.0,3887.0,2679.0,4095.0,3149.0,3184.0,3199.0,-12.18,1.21,6.86,-1.19,0.75,0.11,1.0,z
2931.0,3309.0,3903.0,2738.0,4095.0,3151.0,3191.0,3214.0,-9.5,2.26,5.31,-0.59,-1.5,1.4,1.0,z
2941.0,3312.0,3921.0,2721.0,4095.0,3155.0,3210.0,3245.0,-0.26,4.57,7.42,-1.77,1.54,3.85,1.0,z
2927.0,3309.0,3878.0,2619.0,4095.0,3147.0,3186.0,3195.0,12.35,7.06,15.03,-0.95,1.44,2.15,1.0,z
2914.0,3310.0,3904.0,2512.0,4095.0,3154.0,3211.0,3111.0,15.63,8.67,7.74,-0.48,0.38,-2.01,1.0,z
2924.0,3329.0,3930.0,2559.0,4095.0,3158.0,3200.0,3150.0,7.18,7.28,6.44,-1.31,0.78,-2.17,1.0,z
2926.0,3333.0,3923.0,2587.0,4095.0,3174.0,3207.0,3182.0,2.42,3.68,9.02,-0.94,-1.67,-3.64,1.0,z
2884.0,3259.0,3869.0,2406.0,4095.0,3164.0,3121.0,3123.0,-4.94,-3.79,14.76,-1.35,1.0,-1.9,1.0,z
2886.0,3227.0,3856.0,2589.0,4095.0,3143.0,3100.0,3136.0,-5.4,0.15,10.06,-0.17,0.49,0.15,1.0,z
2883.0,3233.0,3862.0,2639.0,4095.0,3136.0,3121.0,3137.0,-2.44,2.85,8.34,0.07,-1.04,-0.46,1.0,z
2903.0,3250.0,3901.0,2682.0,4095.0,3149.0,3152.0,3177.0,-0.31,3.63,9.8,-0.19,0.12,0.37,1.0,z
2895.0,3253.0,3906.0,2693.0,4095.0,3152.0,3155.0,3178.0,-0.01,3.57,10.04,-0.09,-0.03,0.08,1.0,z
2907.0,3269.0,3936.0,2710.0,4095.0,3162.0,3167.0,3194.0,-0.23,3.4,9.84,-0.05,-0.18,0.07,1.0,z
2909.0,3281.0,3933.0,2694.0,4095.0,3168.0,3184.0,3207.0,-0.09,3.4,9.64,0.05,-0.03,-0.05,1.0,z
2928.0,3307.0,3952.0,2741.0,4095.0,3137.0,3221.0,3255.0,2.96,8.83,4.4,-0.12,0.0,-0.11,1.0,z
2927.0,3300.0,3953.0,2687.0,4095.0,3118.0,3205.0,3235.0,7.94,9.58,5.57,-0.01,-0.65,-1.38,1.0,z
2942.0,3309.0,3973.0,2534.0,4095.0,3145.0,3230.0,3215.0,5.39,8.41,3.37,0.4,-1.4,-2.27,1.0,z
2928.0,3307.0,3946.0,2704.0,4095.0,3124.0,3215.0,3237.0,-2.55,5.5,3.75,-1.41,0.37,-1.61,1.0,z
2930.0,3307.0,3929.0,2743.0,4095.0,3117.0,3185.0,3153.0,-7.5,4.9,5.32,-0.96,-0.13,-0.04,1.0,z
2928.0,3291.0,3908.0,2719.0,4095.0,3121.0,3196.0,3229.0,-7.81,6.05,4.77,-0.55,-1.22,-0.57,1.0,z
2929.0,3299.0,3923.0,2787.0,4095.0,3118.0,3197.0,3254.0,-4.8,4.96,8.18,-1.37,0.59,1.96,1.0,z
2919.0,3279.0,3891.0,2783.0,4095.0,3108.0,3197.0,3223.0,0.05,2.85,9.33,-1.48,0.54,2.8,1.0,z
2905.0,3267.0,3855.0,2709.0,4095.0,3089.0,3177.0,3231.0,5.83,4.07,11.05,-0.9,0.6,2.31,1.0,z
2919.0,3279.0,3879.0,2685.0,4095.0,3087.0,3178.0,3227.0,9.44,5.82,11.48,-0.44,0.68,0.62,1.0,z
2903.0,3265.0,3844.0,2693.0,4095.0,3071.0,3168.0,3235.0,6.45,5.1,9.87,-0.07,-0.03,-1.68,1.0,z
2869.0,3216.0,3806.0,2695.0,4095.0,3056.0,3138.0,3216.0,2.7,3.96,8.93,-0.02,-0.77,-2.6,1.0,z
2917.0,3301.0,3921.0,2751.0,4095.0,3120.0,3203.0,3279.0,1.76,4.92,9.27,-0.07,-1.6,-2.63,1.0,z
2909.0,3274.0,3879.0,2727.0,4095.0,3059.0,3174.0,3255.0,-2.01,1.79,8.92,-0.82,0.47,-2.24,1.0,z
2896.0,3234.0,3852.0,2719.0,4095.0,3071.0,3147.0,3235.0,-4.47,-0.7,10.43,-0.53,-0.02,-0.75,1.0,z
2912.0,3285.0,3876.0,2739.0,4095.0,3104.0,3167.0,3248.0,-1.7,1.89,9.47,-0.12,-0.31,-0.3,1.0,z
2896.0,3248.0,3834.0,2739.0,4095.0,3101.0,3171.0,3248.0,-0.09,3.19,9.97,-0.28,0.18,0.02,1.0,z
2895.0,3271.0,3861.0,2751.0,4095.0,3120.0,3171.0,3259.0,-0.4,2.31,10.52,-0.14,-0.0,0.06,1.0,z
2894.0,3249.0,3856.0,2750.0,4095.0,3101.0,3173.0,3253.0,0.03,2.37,10.21,-0.03,-0.12,0.04,1.0,z
2907.0,3263.0,3861.0,2761.0,4095.0,3109.0,3181.0,3257.0,0.28,2.53,9.7,0.03,-0.13,-0.03,1.0,z
2923.0,3282.0,3872.0,2677.0,4095.0,3090.0,3195.0,3250.0,4.25,6.08,3.4,0.29,0.37,0.11,1.0,z
2925.0,3303.0,3909.0,2718.0,4095.0,3102.0,3210.0,3257.0,2.83,7.84,4.36,0.2,-0.06,-0.0,1.0,z
2943.0,3312.0,3935.0,2743.0,4095.0,3120.0,3216.0,3279.0,2.47,8.63,4.44,-0.19,0.08,-0.08,1.0,z
2925.0,3298.0,3928.0,2751.0,4095.0,3110.0,3211.0,3267.0,2.51,8.8,4.77,-0.12,0.05,0.08,1.0,z
2928.0,3309.0,3925.0,2737.0,4095.0,3122.0,3225.0,3279.0,3.37,8.35,5.23,-0.26,0.49,0.07,1.0,z
2915.0,3306.0,3905.0,2487.0,4095.0,3106.0,3220.0,3247.0,9.44,8.36,5.99,0.04,-0.46,-1.92,1.0,z
2933.0,3323.0,3947.0,2674.0,4095.0,3120.0,3242.0,3214.0,5.36,8.13,4.27,-0.05,-0.45,-3.04,1.0,z
2928.0,3312.0,3921.0,2768.0,4095.0,3117.0,3184.0,3248.0,-9.83,3.36,3.83,0.24,-0.53,-0.87,1.0,z
2934.0,3280.0,3909.0,2773.0,4095.0,3157.0,3215.0,3198.0,-14.76,4.62,0.41,-0.16,-1.02,-0.36,1.0,z
2928.0,3301.0,3888.0,2834.0,4095.0,3134.0,3194.0,3275.0,-9.54,1.3,4.03,-1.55,0.71,2.29,1.0,z
2935.0,3307.0,3885.0,2846.0,4095.0,3142.0,3216.0,3257.0,-1.71,4.04,5.86,-2.07,1.5,3.23,1.0,z
2934.0,3307.0,3889.0,2835.0,4095.0,3134.0,3220.0,3251.0,12.94,4.21,17.4,-2.43,0.61,1.28,1.0,z
2893.0,3251.0,3827.0,2817.0,4095.0,3102.0,3195.0,3255.0,7.99,5.0,14.8,-0.26,-0.03,-2.46,1.0,z
2891.0,3255.0,3823.0,2800.0,4095.0,3104.0,3184.0,3234.0,4.95,4.45,10.68,0.4,-2.39,-4.25,1.0,z
2895.0,3250.0,3852.0,2758.0,4095.0,3091.0,3157.0,3227.0,-4.92,-2.23,11.37,-1.64,0.52,-2.98,1.0,z
2846.0,3178.0,3715.0,2675.0,4095.0,3084.0,3130.0,3095.0,-7.77,-3.39,12.36,-0.16,0.32,-0.74,1.0,z
2864.0,3198.0,3763.0,2706.0,4095.0,3071.0,3121.0,3190.0,-3.25,1.9,8.77,0.23,-0.67,-0.49,1.0,z
2886.0,3232.0,3799.0,2768.0,4095.0,3101.0,3152.0,3237.0,-0.66,2.91,9.34,-0.04,-0.06,0.07,1.0,z
2887.0,3232.0,3807.0,2769.0,4095.0,3107.0,3167.0,3247.0,0.19,2.87,10.25,-0.15,0.16,0.03,1.0,z
2911.0,3251.0,3834.0,2783.0,4095.0,3118.0,3178.0,3259.0,-0.4,2.54,9.92,-0.07,-0.0,-0.02,1.0,z
2924.0,3317.0,3903.0,2768.0,4095.0,3111.0,3203.0,3293.0,2.19,7.55,2.66,-0.04,0.42,0.01,1.0,z
2926.0,3327.0,3919.0,2782.0,4095.0,3120.0,3218.0,3297.0,2.27,8.44,2.75,-0.13,0.13,0.06,1.0,z
2927.0,3319.0,3891.0,2790.0,4095.0,3123.0,3209.0,3282.0,2.77,9.42,3.13,-0.11,0.05,-0.01,1.0,z
2941.0,3319.0,3923.0,2799.0,4095.0,3131.0,3226.0,3296.0,2.42,9.55,3.46,-0.19,-0.04,-0.02,1.0,z
2930.0,3303.0,3900.0,2796.0,4095.0,3120.0,3217.0,3292.0,2.4,9.03,3.75,-0.21,-0.0,-0.01,1.0,z
2930.0,3310.0,3915.0,2801.0,4095.0,3125.0,3216.0,3293.0,1.56,8.86,3.64,-0.1,-0.18,0.09,1.0,z
2942.0,3314.0,3922.0,2817.0,4095.0,3131.0,3229.0,3305.0,3.22,9.17,3.56,-0.08,0.09,0.23,1.0,z
2926.0,3322.0,3921.0,2807.0,4095.0,3135.0,3217.0,3291.0,4.02,9.44,3.56,-0.19,0.09,-0.06,1.0,z
2933.0,3312.0,3923.0,2539.0,4095.0,3143.0,3237.0,3229.0,11.2,10.63,2.22,0.27,-0.9,-2.23,1.0,z
2935.0,3346.0,3921.0,2642.0,4095.0,3174.0,3261.0,3157.0,5.74,9.28,0.91,-0.89,-1.09,-3.08,1.0,z
2928.0,3326.0,3929.0,2713.0,4095.0,3167.0,3207.0,3239.0,-7.04,2.2,7.91,-0.83,-0.93,-1.84,1.0,z
2928.0,3278.0,3877.0,2730.0,4095.0,3166.0,3207.0,3259.0,-13.93,2.38,4.38,-1.31,1.51,1.11,1.0,z
2938.0,3293.0,3880.0,2827.0,4095.0,3152.0,3185.0,3246.0,-7.04,-0.07,4.98,-0.67,-0.49,2.54,1.0,z
2930.0,3309.0,3888.0,2818.0,4095.0,3134.0,3179.0,3250.0,2.16,0.86,8.27,-2.09,1.48,4.78,1.0,z
2914.0,3293.0,3907.0,2537.0,4095.0,3155.0,3228.0,3063.0,26.83,14.96,10.68,0.76,-2.16,-1.87,1.0,z
2925.0,3319.0,3921.0,2542.0,4095.0,3207.0,3259.0,3118.0,9.06,7.32,6.11,-3.9,1.13,-2.39,1.0,z
2934.0,3328.0,3931.0,2509.0,4095.0,3172.0,3202.0,3248.0,-2.81,-0.56,9.15,-1.11,-1.47,-3.46,1.0,z
2927.0,3329.0,3920.0,2559.0,4095.0,3195.0,3213.0,3248.0,-4.2,-3.21,12.67,-1.27,-0.04,-1.16,1.0,z
2940.0,3326.0,3923.0,2557.0,4095.0,3166.0,3187.0,3247.0,-2.43,0.89,10.1,-0.13,-0.12,-0.01,1.0,z
2931.0,3328.0,3952.0,2666.0,4095.0,3179.0,3216.0,3246.0,0.52,2.93,9.72,-0.1,-0.07,0.08,1.0,z
2927.0,3321.0,3937.0,2742.0,4095.0,3141.0,3222.0,3290.0,2.59,8.65,2.66,0.08,0.23,0.19,1.0,z
2935.0,3338.0,3942.0,2518.0,4095.0,3136.0,3229.0,3281.0,7.59,11.71,3.31,0.19,-0.83,-0.74,1.0,z
2922.0,3328.0,3937.0,2626.0,4095.0,3133.0,3237.0,3242.0,6.5,9.09,3.55,-0.45,-0.94,-1.7,1.0,z
2938.0,3334.0,3943.0,2656.0,4095.0,3131.0,3218.0,3295.0,-0.76,5.95,4.24,-1.45,0.2,-2.25,1.0,z
2933.0,3310.0,3910.0,2725.0,4095.0,3120.0,3197.0,3282.0,-6.12,3.41,5.39,-1.19,-0.3,-1.18,1.0,z
2940.0,3329.0,3937.0,2704.0,4095.0,3109.0,3177.0,3223.0,-9.27,2.19,8.39,-0.43,0.21,0.15,1.0,z
2921.0,3284.0,3910.0,2737.0,4095.0,3127.0,3197.0,3107.0,-11.33,2.78,7.23,-0.42,-0.48,1.15,1.0,z
2934.0,3307.0,3919.0,2783.0,4095.0,3121.0,3211.0,3212.0,-3.82,2.78,7.66,-0.55,-0.12,3.62,1.0,z
2929.0,3280.0,3909.0,2779.0,4095.0,3107.0,3199.0,3213.0,3.26,2.56,9.58,-1.17,2.44,4.03,1.0,z
2943.0,3298.0,3939.0,2778.0,4095.0,3117.0,3203.0,3274.0,8.67,4.34,11.9,-0.25,1.54,1.5,1.0,z
2909.0,3266.0,3887.0,2768.0,4095.0,3099.0,3191.0,3261.0,8.52,5.49,10.1,0.03,0.62,-0.4,1.0,z
2903.0,3253.0,3843.0,2503.0,4095.0,3088.0,3188.0,3239.0,8.03,4.77,7.81,-0.35,-1.35,-2.52,1.0,z
2925.0,3311.0,3913.0,2624.0,4095.0,3097.0,3209.0,3284.0,5.52,2.4,10.31,-1.47,-1.29,-3.19,1.0,z
2929.0,3317.0,3932.0,2706.0,4095.0,3103.0,3206.0,3291.0,0.51,0.85,10.49,-1.31,-1.18,-3.25,1.0,z
2911.0,3266.0,3863.0,2689.0,4095.0,3099.0,3158.0,3267.0,-6.65,-2.66,10.93,-1.5,1.19,-1.5,1.0,z
2928.0,3291.0,3935.0,2703.0,4095.0,3119.0,3184.0,3181.0,-5.93,-1.31,10.21,-0.35,0.18,-0.79,1.0,z
2917.0,3265.0,3903.0,2691.0,4095.0,3109.0,3179.0,3242.0,-2.58,1.1,9.29,0.04,-0.2,-0.21,1.0,z
2918.0,3268.0,3891.0,2749.0,4095.0,3102.0,3173.0,3233.0,-0.64,1.54,10.32,-0.16,-0.12,0.11,1.0,z
2899.0,3280.0,3888.0,2754.0,4095.0,3111.0,3173.0,3237.0,-0.09,0.58,11.05,-0.26,-0.21,0.1,1.0,z
2901.0,3251.0,3868.0,2752.0,4095.0,3108.0,3172.0,3235.0,-0.9,0.59,10.19,-0.01,-0.16,0.09,1.0,z
2931.0,3305.0,3927.0,2821.0,4095.0,3117.0,3221.0,3300.0,1.37,8.71,5.34,-0.1,-0.1,-0.05,1.0,z
2933.0,3291.0,3938.0,2815.0,4095.0,3107.0,3215.0,3303.0,2.55,8.86,5.54,0.04,0.01,0.16,1.0,z
2941.0,3317.0,3923.0,2624.0,4095.0,3101.0,3238.0,3265.0,9.6,9.77,4.4,-0.13,-0.27,-1.48,1.0,z
2928.0,3316.0,3936.0,2714.0,4095.0,3104.0,3241.0,3263.0,6.63,8.6,4.42,-0.69,0.05,-2.26,1.0,z
2928.0,3312.0,3937.0,2594.0,4095.0,3116.0,3233.0,3270.0,-1.31,5.41,3.67,-0.97,-0.14,-2.71,1.0,z
2928.0,3291.0,3929.0,2757.0,4095.0,3115.0,3166.0,3262.0,-10.75,-0.26,7.87,-1.74,0.63,0.22,1.0,z
2938.0,3283.0,3898.0,2774.0,4095.0,3162.0,3233.0,2557.0,-15.45,2.67,5.09,0.08,-1.59,0.08,1.0,z
2924.0,3270.0,3901.0,2787.0,4095.0,3148.0,3205.0,2858.0,-8.41,1.91,6.73,0.19,-0.45,2.37,1.0,z
2937.0,3295.0,3905.0,2816.0,4095.0,3149.0,3223.0,2701.0,-2.18,2.29,6.19,-0.23,-0.42,2.58,1.0,z
2935.0,3293.0,3922.0,2786.0,4095.0,3139.0,3216.0,2688.0,5.68,5.33,9.75,-0.61,1.15,2.27,1.0,z
2918.0,3267.0,3889.0,2742.0,4095.0,3107.0,3180.0,3194.0,10.52,8.3,9.29,-0.5,0.0,0.0,1.0,z
2922.0,3312.0,3959.0,2532.0,4095.0,3126.0,3235.0,3178.0,9.72,7.41,9.03,-0.07,-2.51,-2.56,1.0,z
2922.0,3309.0,3920.0,2653.0,4095.0,3133.0,3226.0,3250.0,7.08,4.79,9.24,-0.7,-1.19,-3.12,1.0,z
2934.0,3323.0,3951.0,2625.0,4095.0,3147.0,3246.0,3218.0,3.27,2.99,8.86,-0.47,-3.17,-3.81,1.0,z
2922.0,3313.0,3931.0,2528.0,4095.0,3205.0,3201.0,3193.0,-0.33,-5.06,14.38,-1.93,-0.48,-2.13,1.0,z
2873.0,3222.0,3819.0,2595.0,4095.0,3122.0,3120.0,3184.0,-4.41,-2.98,12.31,-0.39,0.35,-0.54,1.0,z
2896.0,3255.0,3869.0,2640.0,4095.0,3146.0,3167.0,3207.0,-1.54,2.26,9.25,0.11,-0.75,-0.03,1.0,z
2928.0,3321.0,3953.0,2690.0,4095.0,3179.0,3213.0,3252.0,1.5,2.93,10.04,-0.17,-0.3,0.19,1.0,z
2926.0,3309.0,3939.0,2687.0,4095.0,3166.0,3203.0,3247.0,1.15,2.7,10.26,-0.18,-0.08,0.22,1.0,z
2919.0,3313.0,3977.0,2698.0,4095.0,3182.0,3207.0,3247.0,1.35,2.85,9.91,-0.1,0.1,0.06,1.0,z
2929.0,3329.0,3997.0,2795.0,4095.0,3117.0,3223.0,3263.0,0.08,9.34,3.87,-0.1,-0.05,0.07,1.0,z
2931.0,3331.0,3967.0,2669.0,4095.0,3112.0,3235.0,3213.0,6.52,12.17,2.69,0.11,-0.84,-1.02,1.0,z
2928.0,3322.0,3997.0,2692.0,4095.0,3119.0,3243.0,3223.0,4.14,9.35,2.59,0.02,-1.13,-1.97,1.0,z
2928.0,3327.0,3985.0,2733.0,4095.0,3103.0,3204.0,3259.0,-3.41,4.55,5.71,-0.54,-1.57,-1.54,1.0,z
2935.0,3332.0,3999.0,2755.0,4095.0,3095.0,3183.0,3277.0,-8.56,3.09,8.75,-0.56,-0.26,-0.26,1.0,z
2931.0,3316.0,3952.0,2775.0,4095.0,3101.0,3175.0,3235.0,-11.57,2.22,6.44,-0.61,0.76,1.29,1.0,z
2934.0,3323.0,3967.0,2796.0,4095.0,3116.0,3199.0,3281.0,-3.91,3.54,7.53,-0.81,0.7,2.36,1.0,z
2931.0,3321.0,3984.0,2780.0,4095.0,3092.0,3195.0,3281.0,5.25,7.02,9.46,-1.47,1.58,2.55,1.0,z
2925.0,3303.0,3954.0,2611.0,4095.0,3087.0,3216.0,3175.0,11.09,11.8,7.97,-0.59,0.85,0.8,1.0,z
2916.0,3279.0,3904.0,2635.0,4095.0,3091.0,3204.0,3170.0,8.94,9.76,5.44,-0.38,-0.88,-1.23,1.0,z
2925.0,3315.0,3975.0,2678.0,4095.0,3115.0,3232.0,3231.0,3.58,5.71,8.37,-0.07,-2.75,-2.62,1.0,z
2939.0,3325.0,3982.0,2683.0,4095.0,3125.0,3220.0,3264.0,-0.09,3.97,10.23,-0.96,-1.97,-1.61,1.0,z
2927.0,3313.0,3984.0,2688.0,4095.0,3130.0,3216.0,3256.0,-2.01,2.97,11.98,-0.52,-1.02,-1.12,1.0,z
2935.0,3330.0,3987.0,2687.0,4095.0,3135.0,3226.0,3270.0,-1.97,4.09,9.98,-0.06,-0.07,-0.41,1.0,z
2933.0,3313.0,3979.0,2686.0,4095.0,3136.0,3222.0,3271.0,-0.19,5.51,8.45,-0.07,0.29,0.13,1.0,z
2928.0,3319.0,3987.0,2698.0,4095.0,3146.0,3239.0,3275.0,0.91,6.03,8.41,-0.1,0.09,0.21,1.0,z
2925.0,3316.0,3972.0,2688.0,4095.0,3136.0,3233.0,3277.0,1.72,6.01,8.46,0.02,-0.06,0.16,1.0,z
2945.0,3327.0,4001.0,2701.0,4095.0,3145.0,3235.0,3282.0,1.31,5.82,8.4,0.01,0.04,0.17,1.0,z
2945.0,3326.0,3988.0,2695.0,4095.0,3143.0,3233.0,3280.0,1.68,5.96,8.22,-0.02,-0.02,0.16,1.0,z
2928.0,3316.0,3984.0,2704.0,4095.0,3138.0,3239.0,3287.0,1.27,5.74,8.41,-0.05,0.06,0.11,1.0,z
2947.0,2775.0,3120.0,2624.0,4095.0,3151.0,3193.0,3235.0,0.12,9.16,3.5,0.11,0.37,0.59,1.0,z
2941.0,2753.0,3106.0,2559.0,4095.0,3166.0,3201.0,3215.0,9.02,11.84,1.63,0.43,-0.45,-0.96,1.0,z
2932.0,2711.0,3087.0,2518.0,4095.0,3174.0,3205.0,3200.0,7.39,11.11,0.41,-0.19,-1.0,-2.6,1.0,z
2931.0,2700.0,3061.0,2599.0,4095.0,3170.0,3190.0,3216.0,-5.3,3.01,3.38,-1.43,-0.85,-2.17,1.0,z
2938.0,2595.0,3070.0,2652.0,4095.0,3127.0,3168.0,3018.0,-14.28,-0.86,8.25,-1.12,-0.82,-0.05,1.0,z
2931.0,2618.0,3179.0,2674.0,4095.0,3138.0,3191.0,3139.0,-9.67,2.21,6.23,-0.89,-0.63,1.76,1.0,z
2928.0,2621.0,3234.0,2661.0,4095.0,3125.0,3184.0,3039.0,-1.41,3.44,8.68,-1.14,0.84,3.49,1.0,z
2916.0,2633.0,3167.0,2594.0,4095.0,3141.0,3195.0,3206.0,10.35,7.44,11.37,-0.88,1.02,2.45,1.0,z
2864.0,2608.0,2958.0,2511.0,4095.0,3122.0,3153.0,3154.0,15.58,13.15,8.81,0.34,0.58,-0.97,1.0,z
2892.0,2625.0,2989.0,2559.0,4095.0,3148.0,3181.0,3181.0,6.56,7.79,6.53,0.38,-1.55,-3.06,1.0,z
2896.0,2624.0,2949.0,2558.0,4095.0,3184.0,3181.0,3108.0,-2.86,3.2,7.12,-1.05,-0.69,-2.56,1.0,z
2891.0,2665.0,3124.0,2559.0,4095.0,3182.0,3139.0,3101.0,-7.87,-1.86,11.68,-0.94,0.01,-1.28,1.0,z
2851.0,2713.0,3142.0,2550.0,4095.0,3152.0,3139.0,3097.0,-5.91,2.04,9.21,0.12,-0.63,-0.67,1.0,z
2880.0,2786.0,3136.0,2588.0,4095.0,3161.0,3152.0,3126.0,-1.81,4.59,8.93,-0.13,-0.4,0.03,1.0,z
2911.0,2825.0,3149.0,2608.0,4095.0,3183.0,3182.0,3152.0,-0.74,4.99,9.43,-0.19,0.04,-0.15,1.0,z
2906.0,2832.0,3127.0,2607.0,4095.0,3174.0,3169.0,3155.0,-1.83,4.32,9.41,-0.15,0.13,-0.11,1.0,z
2896.0,2841.0,3136.0,2617.0,4095.0,3181.0,3167.0,3158.0,-1.74,4.13,9.23,-0.05,-0.01,0.1,1.0,z
2894.0,2854.0,3130.0,2612.0,4095.0,3170.0,3167.0,3157.0,-1.41,4.47,9.02,-0.08,-0.07,0.13,1.0,z
2903.0,2863.0,3137.0,2623.0,4095.0,3177.0,3184.0,3168.0,-1.86,3.97,9.28,-0.03,0.04,0.17,1.0,z
2896.0,2859.0,3127.0,2613.0,4095.0,3166.0,3166.0,3159.0,-2.19,4.02,9.75,-0.01,0.32,0.29,1.0,z
2929.0,3128.0,3254.0,2687.0,4095.0,3159.0,3210.0,3207.0,6.1,11.24,1.68,0.19,0.38,-0.04,1.0,z
2939.0,3151.0,3236.0,2634.0,4095.0,3178.0,3207.0,3221.0,5.94,10.83,1.45,-0.51,0.51,-1.14,1.0,z
2931.0,3147.0,3251.0,2673.0,4095.0,3178.0,3205.0,3183.0,-1.05,9.57,3.07,-0.98,-1.09,-1.51,1.0,z
2921.0,3148.0,3243.0,2672.0,4095.0,3178.0,3201.0,3163.0,-3.05,5.86,5.94,-1.03,-1.4,-1.6,1.0,z
2931.0,3091.0,3234.0,2673.0,4095.0,3168.0,3185.0,3109.0,-10.48,0.62,9.34,-0.78,0.63,-0.82,1.0,z
2926.0,3111.0,3297.0,2715.0,4095.0,3165.0,3184.0,3187.0,-8.14,3.13,6.96,0.2,-0.51,0.84,1.0,z
2931.0,3146.0,3283.0,2710.0,4095.0,3168.0,3211.0,3207.0,-3.73,6.24,6.09,-0.21,0.63,1.99,1.0,z
2934.0,3174.0,3303.0,2713.0,4095.0,3157.0,3191.0,3199.0,1.71,7.03,7.91,-0.91,1.26,2.2,1.0,z
2945.0,3189.0,3292.0,2719.0,4095.0,3175.0,3215.0,3193.0,5.09,8.19,8.66,-1.12,1.68,1.47,1.0,z
2929.0,3195.0,3246.0,2698.0,4095.0,3181.0,3215.0,3213.0,7.24,11.55,7.49,-0.56,0.34,-0.16,1.0,z
2893.0,3172.0,3239.0,2687.0,4095.0,3153.0,3184.0,3175.0,5.41,8.51,7.35,-0.19,-1.21,-1.43,1.0,z
2885.0,3151.0,3235.0,2640.0,4095.0,3131.0,3161.0,3162.0,2.57,6.33,6.42,-0.29,-2.39,-2.36,1.0,z
2912.0,3131.0,3216.0,2608.0,4095.0,3186.0,3197.0,3152.0,-0.15,2.39,9.84,-1.64,-0.95,-2.24,1.0,z
2909.0,3105.0,3253.0,2640.0,4095.0,3191.0,3181.0,3138.0,-5.3,-1.85,13.41,-1.29,-0.31,-1.29,1.0,z
2908.0,3148.0,3283.0,2663.0,4095.0,3202.0,3200.0,3181.0,-4.49,0.37,11.14,-0.02,-0.25,-0.49,1.0,z
2923.0,3191.0,3287.0,2673.0,4095.0,3216.0,3215.0,3170.0,-1.58,3.64,9.04,-0.07,-0.07,-0.02,1.0,z
2924.0,3185.0,3274.0,2663.0,4095.0,3205.0,3209.0,3181.0,-0.16,3.72,9.96,-0.07,-0.05,-0.0,1.0,z
2917.0,3209.0,3288.0,2679.0,4095.0,3211.0,3215.0,3179.0,-0.56,3.52,9.74,-0.04,0.0,0.02,1.0,z
2929.0,3205.0,3267.0,2674.0,4095.0,3206.0,3216.0,3184.0,-0.2,3.42,9.88,0.05,-0.02,0.02,1.0,z
2928.0,3199.0,3280.0,2686.0,4095.0,3216.0,3220.0,3184.0,-0.55,3.43,9.44,0.01,0.05,0.14,1.0,z
2941.0,3123.0,2977.0,2641.0,4095.0,3200.0,3215.0,3247.0,6.7,11.15,2.39,0.29,-0.73,-0.37,1.0,z
2939.0,3141.0,2971.0,2665.0,4095.0,3201.0,3229.0,3267.0,3.53,10.61,2.53,-0.45,-0.64,-1.61,1.0,z
2930.0,3125.0,3025.0,2676.0,4095.0,3177.0,3200.0,3236.0,-2.3,7.01,4.1,-0.83,-1.11,-1.9,1.0,z
2933.0,3049.0,3120.0,2695.0,4095.0,3177.0,3184.0,3082.0,-7.22,3.94,5.37,-0.83,-0.63,-1.16,1.0,z
2928.0,3021.0,3139.0,2706.0,4095.0,3161.0,3184.0,2998.0,-9.95,2.27,6.13,-0.34,-0.13,-0.48,1.0,z
2935.0,3038.0,3183.0,2707.0,4095.0,3164.0,3184.0,3057.0,-8.14,2.5,5.53,-0.01,0.32,1.58,1.0,z
2919.0,3095.0,3184.0,2715.0,4095.0,3165.0,3198.0,3119.0,-0.62,5.97,5.69,-0.07,0.47,2.42,1.0,z
2934.0,3133.0,3159.0,2719.0,4095.0,3162.0,3201.0,3109.0,4.44,10.74,6.51,-0.26,1.35,1.9,1.0,z
2928.0,3120.0,3120.0,2687.0,4095.0,3191.0,3213.0,3258.0,7.93,11.92,5.31,-0.83,1.5,0.12,1.0,z
2902.0,3086.0,3099.0,2664.0,4095.0,3165.0,3184.0,3233.0,6.64,10.96,5.93,-0.69,-0.72,-1.16,1.0,z
2896.0,3099.0,3102.0,2646.0,4095.0,3123.0,3136.0,3192.0,4.23,7.03,7.91,-0.7,-1.91,-3.11,1.0,z
2880.0,3062.0,3174.0,2643.0,4095.0,3116.0,3118.0,2970.0,-4.73,1.63,12.46,-0.55,-1.23,-2.25,1.0,z
2935.0,3106.0,3276.0,2704.0,4095.0,3181.0,3185.0,3024.0,-6.15,2.45,8.52,0.35,-1.72,-1.32,1.0,z
2919.0,3126.0,3239.0,2707.0,4095.0,3186.0,3198.0,3153.0,-4.0,4.43,8.12,-0.2,-0.33,-0.14,1.0,z
2930.0,3147.0,3219.0,2718.0,4095.0,3189.0,3197.0,3181.0,-2.62,5.49,8.19,-0.08,-0.26,-0.18,1.0,z
2913.0,3150.0,3201.0,2731.0,4095.0,3188.0,3187.0,3184.0,-2.15,5.31,9.0,-0.19,0.06,-0.05,1.0,z
2915.0,3158.0,3205.0,2734.0,4095.0,3199.0,3201.0,3193.0,-1.95,5.29,9.0,-0.21,0.05,-0.0,1.0,z
2919.0,3152.0,3207.0,2725.0,4095.0,3203.0,3207.0,3197.0,-1.55,5.24,9.13,0.02,0.06,0.0,1.0,z
2935.0,3154.0,3213.0,2735.0,4095.0,3198.0,3210.0,3203.0,-2.2,4.84,8.49,-0.01,-0.01,0.13,1.0,z
2926.0,3189.0,3209.0,2729.0,4095.0,3187.0,3207.0,3219.0,-1.44,4.93,8.76,-0.11,-0.02,0.04,1.0,z
2929.0,3477.0,3301.0,2750.0,4095.0,3196.0,3219.0,3207.0,1.92,9.73,1.74,0.12,-0.33,0.11,1.0,z
2928.0,3462.0,3275.0,2690.0,4095.0,3184.0,3213.0,3257.0,6.71,11.27,0.0,0.01,-1.3,-0.52,1.0,z
2942.0,3471.0,3260.0,2691.0,4095.0,3182.0,3215.0,3278.0,5.24,10.4,2.28,-0.68,-1.78,-1.34,1.0,z
2939.0,3487.0,3279.0,2721.0,4095.0,3188.0,3214.0,3261.0,0.64,7.29,4.1,-0.87,-1.57,-1.89,1.0,z
2925.0,3408.0,3294.0,2709.0,4095.0,3189.0,3198.0,3248.0,-2.15,4.73,6.82,-1.4,-1.4,-1.71,1.0,z
2931.0,3345.0,3293.0,2721.0,4095.0,3179.0,3184.0,3047.0,-10.84,2.17,10.6,-0.72,0.64,-0.96,1.0,z
2923.0,3344.0,3315.0,2735.0,4095.0,3163.0,3184.0,3101.0,-9.79,1.82,7.66,0.46,0.35,1.29,1.0,z
2928.0,3421.0,3310.0,2719.0,4095.0,3182.0,3206.0,3105.0,-4.69,3.73,3.77,-0.12,0.84,2.57,1.0,z
2930.0,3452.0,3274.0,2714.0,4095.0,3186.0,3203.0,3241.0,3.87,9.07,7.54,-1.46,1.99,2.71,1.0,z
2906.0,3398.0,3174.0,2681.0,4095.0,3191.0,3203.0,3225.0,5.94,9.44,8.7,-1.82,2.04,1.21,1.0,z
2906.0,3359.0,3120.0,2646.0,4095.0,3180.0,3191.0,3218.0,9.71,10.67,7.27,-0.59,-0.36,-0.59,1.0,z
2883.0,3349.0,3136.0,2664.0,4095.0,3159.0,3169.0,3197.0,5.94,7.96,8.43,-0.59,-1.11,-2.0,1.0,z
2928.0,3399.0,3191.0,2703.0,4095.0,3206.0,3216.0,3257.0,2.15,4.4,8.97,-0.23,-2.54,-2.94,1.0,z
2933.0,3377.0,3184.0,2674.0,4095.0,3237.0,3223.0,3263.0,-0.1,2.22,10.81,-1.31,-1.25,-1.71,1.0,z
2917.0,3253.0,3244.0,2685.0,4095.0,3242.0,3209.0,3239.0,-2.09,1.66,12.37,-0.45,-0.71,-1.23,1.0,z
2944.0,3279.0,3246.0,2687.0,4095.0,3237.0,3210.0,3264.0,-2.33,2.86,10.52,-0.13,0.08,-0.53,1.0,z
2928.0,3286.0,3225.0,2693.0,4095.0,3248.0,3227.0,3266.0,-0.62,4.58,8.81,-0.02,-0.03,0.0,1.0,z
2933.0,3290.0,3234.0,2697.0,4095.0,3239.0,3217.0,3263.0,-0.18,4.74,9.44,-0.09,0.02,0.12,1.0,z
2933.0,3306.0,3233.0,2695.0,4095.0,3251.0,3234.0,3287.0,0.83,4.85,9.56,-0.05,0.09,0.04,1.0,z
2927.0,3297.0,3225.0,2701.0,4095.0,3241.0,3220.0,3268.0,-0.07,4.33,9.16,-0.03,-0.03,0.19,1.0,z
2934.0,3357.0,3295.0,2698.0,4095.0,3200.0,3217.0,3244.0,2.9,7.42,3.01,-0.39,-0.14,-0.06,1.0,z
2928.0,3342.0,3256.0,2682.0,4095.0,3215.0,3222.0,3270.0,6.37,10.08,3.69,-0.55,-0.63,-0.68,1.0,z
2927.0,3325.0,3258.0,2675.0,4095.0,3199.0,3216.0,3269.0,5.41,8.06,7.54,-0.67,-0.69,-1.68,1.0,z
2935.0,3335.0,3305.0,2713.0,4095.0,3204.0,3217.0,3149.0,0.04,7.57,6.04,0.03,-1.12,-2.25,1.0,z
2938.0,3315.0,3293.0,2711.0,4095.0,3186.0,3201.0,3091.0,-6.59,5.49,5.69,-0.69,0.27,-1.75,1.0,z
2941.0,3255.0,3273.0,2761.0,4095.0,3146.0,3175.0,3110.0,-13.49,1.64,6.28,-0.19,0.01,0.27,1.0,z
2933.0,3280.0,3365.0,2770.0,4095.0,3138.0,3184.0,3161.0,-8.87,4.04,4.89,0.12,-0.74,1.48,1.0,z
2931.0,3317.0,3399.0,2775.0,4095.0,3154.0,3198.0,3118.0,-2.45,5.39,5.93,-0.72,0.75,2.61,1.0,z
2919.0,3338.0,3441.0,2768.0,4095.0,3152.0,3206.0,3139.0,2.03,5.53,8.94,-1.09,1.64,2.41,1.0,z
2912.0,3280.0,3422.0,2717.0,4095.0,3145.0,3191.0,3094.0,7.68,7.99,9.44,-0.44,0.7,0.81,1.0,z
2894.0,3258.0,3370.0,2693.0,4095.0,3141.0,3182.0,3190.0,9.31,8.22,8.03,-0.56,-0.25,-0.79,1.0,z
2883.0,3245.0,3342.0,2693.0,4095.0,3117.0,3136.0,3134.0,5.07,5.99,9.95,-0.31,-1.35,-1.97,1.0,z
2913.0,3299.0,3383.0,2727.0,4095.0,3147.0,3187.0,3183.0,2.6,5.22,9.54,0.03,-1.68,-2.41,1.0,z
2921.0,3314.0,3376.0,2730.0,4095.0,3159.0,3202.0,3095.0,-1.12,3.86,8.29,-0.2,-1.26,-2.06,1.0,z
2928.0,3288.0,3344.0,2733.0,4095.0,3168.0,3201.0,3162.0,-3.73,2.13,10.07,-0.82,-0.33,-1.28,1.0,z
2919.0,3254.0,3321.0,2730.0,4095.0,3150.0,3183.0,3187.0,-3.13,2.5,10.68,-0.18,-0.36,-0.7,1.0,z
2913.0,3250.0,3335.0,2732.0,4095.0,3166.0,3193.0,3226.0,-1.7,3.6,9.68,-0.24,0.14,-0.11,1.0,z
2906.0,3275.0,3326.0,2730.0,4095.0,3155.0,3193.0,3216.0,-0.97,3.81,9.79,-0.35,0.2,0.04,1.0,z
2911.0,3277.0,3346.0,2738.0,4095.0,3174.0,3197.0,3207.0,-0.11,3.9,10.07,-0.09,0.0,0.02,1.0,z
2913.0,3264.0,3341.0,2740.0,4095.0,3165.0,3191.0,3207.0,-0.89,3.39,9.8,-0.13,-0.04,0.18,1.0,z
2933.0,3373.0,3294.0,2736.0,4095.0,3165.0,3221.0,3252.0,4.64,10.89,1.72,0.1,-0.48,-0.06,1.0,z
2933.0,3345.0,3261.0,2705.0,4095.0,3166.0,3216.0,3273.0,6.97,10.7,1.56,-0.22,-0.87,-1.32,1.0,z
2929.0,3359.0,3281.0,2730.0,4095.0,3171.0,3218.0,3279.0,2.42,8.75,2.11,-0.59,-1.64,-2.32,1.0,z
2927.0,3337.0,3307.0,2741.0,4095.0,3165.0,3202.0,3246.0,-2.71,5.88,6.55,-0.91,-1.37,-2.05,1.0,z
2936.0,3194.0,3185.0,2736.0,4095.0,3154.0,3184.0,3125.0,-12.61,0.18,8.78,-0.71,0.37,-1.47,1.0,z
2929.0,3239.0,3245.0,2754.0,4095.0,3153.0,3195.0,2931.0,-11.56,1.71,5.01,-0.01,-0.36,1.2,1.0,z
2935.0,3311.0,3344.0,2757.0,4095.0,3152.0,3206.0,3134.0,-3.02,4.5,4.27,-0.2,0.72,2.85,1.0,z
2942.0,3358.0,3362.0,2768.0,4095.0,3161.0,3210.0,3178.0,1.4,7.64,6.03,-0.95,1.17,2.39,1.0,z
2940.0,3397.0,3344.0,2766.0,4095.0,3152.0,3203.0,3213.0,5.58,8.53,8.32,-0.86,1.34,1.56,1.0,z
2917.0,3346.0,3271.0,2699.0,4095.0,3167.0,3206.0,3250.0,11.19,12.19,7.6,-0.95,0.31,-0.22,1.0,z
2837.0,3265.0,3216.0,2673.0,4095.0,3095.0,3136.0,3178.0,6.24,7.77,8.96,-0.33,-1.36,-1.99,1.0,z
2935.0,3434.0,3322.0,2749.0,4095.0,3187.0,3218.0,3264.0,2.76,7.22,7.59,0.42,-2.92,-3.16,1.0,z
2926.0,3410.0,3359.0,2730.0,4095.0,3183.0,3200.0,3216.0,-0.95,3.36,9.33,-1.06,-1.42,-2.21,1.0,z
2925.0,3373.0,3395.0,2730.0,4095.0,3200.0,3198.0,3195.0,-3.96,0.32,11.58,-0.76,-0.78,-1.19,1.0,z
2923.0,3376.0,3393.0,2736.0,4095.0,3190.0,3196.0,3213.0,-2.77,2.94,9.44,-0.16,-0.36,-0.31,1.0,z
2929.0,3414.0,3377.0,2747.0,4095.0,3201.0,3215.0,3262.0,-1.61,4.67,8.83,-0.34,-0.06,0.09,1.0,z
2925.0,3407.0,3373.0,2741.0,4095.0,3185.0,3211.0,3252.0,0.16,5.14,9.89,-0.15,0.05,-0.14,1.0,z
2929.0,3409.0,3383.0,2753.0,4095.0,3197.0,3220.0,3264.0,-0.84,4.63,9.61,-0.01,-0.01,-0.1,1.0,z
2938.0,3423.0,3370.0,2751.0,4095.0,3195.0,3207.0,3255.0,-0.98,4.16,9.38,0.01,0.01,0.23,1.0,z
2928.0,3425.0,3376.0,2750.0,4095.0,3194.0,3211.0,3254.0,-1.93,3.9,9.47,-0.07,0.25,0.43,1.0,z
2939.0,3499.0,3437.0,2781.0,4095.0,3183.0,3226.0,3242.0,1.83,8.91,3.17,-0.06,0.08,0.11,1.0,z
2930.0,3494.0,3402.0,2758.0,4095.0,3167.0,3211.0,3227.0,3.57,9.57,3.06,-0.11,0.12,-0.05,1.0,z
2935.0,3466.0,3362.0,2720.0,4095.0,3184.0,3222.0,3286.0,7.74,10.13,2.31,-0.14,-0.66,-1.03,1.0,z
2931.0,3440.0,3317.0,2716.0,4095.0,3191.0,3221.0,3299.0,3.52,9.25,4.14,-0.68,-1.1,-1.77,1.0,z
2930.0,3453.0,3345.0,2736.0,4095.0,3183.0,3201.0,3252.0,-1.39,7.95,6.18,-0.4,-1.08,-1.82,1.0,z
2934.0,3390.0,3286.0,2723.0,4095.0,3184.0,3197.0,3249.0,-6.51,3.58,6.56,-0.74,-0.32,-1.85,1.0,z
2930.0,3408.0,3282.0,2743.0,4095.0,3168.0,3183.0,3215.0,-10.88,2.08,5.53,-0.2,0.06,-0.01,1.0,z
2947.0,3455.0,3343.0,2757.0,4095.0,3167.0,3205.0,3247.0,-7.57,2.67,5.23,-0.32,0.15,1.8,1.0,z
2927.0,3458.0,3399.0,2764.0,4095.0,3171.0,3203.0,3264.0,-2.83,5.83,5.9,-0.54,0.24,2.97,1.0,z
2934.0,3462.0,3415.0,2736.0,4095.0,3190.0,3221.0,3296.0,9.28,6.74,7.95,-0.22,0.95,2.75,1.0,z
2901.0,3425.0,3322.0,2672.0,4095.0,3171.0,3204.0,3270.0,10.19,9.23,7.29,-0.53,1.61,-0.23,1.0,z
2918.0,3392.0,3302.0,2675.0,4095.0,3177.0,3202.0,3265.0,9.1,9.22,6.23,-1.03,-0.17,-1.95,1.0,z
2887.0,3365.0,3286.0,2685.0,4095.0,3142.0,3167.0,3247.0,4.08,6.51,8.13,-0.4,-2.07,-2.9,1.0,z
2870.0,3310.0,3275.0,2675.0,4095.0,3149.0,3157.0,3201.0,-0.01,3.39,10.07,-0.4,-1.91,-3.15,1.0,z
2917.0,3281.0,3270.0,2688.0,4095.0,3200.0,3204.0,3203.0,-5.96,2.43,8.94,-0.69,-0.72,-1.69,1.0,z
2927.0,3265.0,3280.0,2703.0,4095.0,3231.0,3216.0,3221.0,-4.75,1.23,10.53,-0.38,-0.59,-0.58,1.0,z
2919.0,3299.0,3277.0,2702.0,4095.0,3215.0,3209.0,3223.0,-2.87,4.52,8.51,-0.2,0.01,0.01,1.0,z
2923.0,3312.0,3281.0,2709.0,4095.0,3220.0,3222.0,3261.0,-1.24,4.55,9.19,-0.2,-0.12,0.13,1.0,z
2926.0,3325.0,3293.0,2721.0,4095.0,3222.0,3221.0,3280.0,-0.86,4.47,9.82,-0.21,0.02,0.26,1.0,z
2915.0,3323.0,3280.0,2715.0,4095.0,3227.0,3227.0,3280.0,-0.49,4.69,9.51,-0.04,-0.06,0.04,1.0,z
2955.0,3424.0,3385.0,2743.0,4095.0,3184.0,3222.0,3329.0,5.12,11.0,3.87,-0.2,-0.41,-0.27,1.0,z
2930.0,3407.0,3343.0,2719.0,4095.0,3192.0,3226.0,3305.0,7.52,10.67,3.37,-0.02,-1.63,-1.8,1.0,z
2941.0,3440.0,3376.0,2753.0,4095.0,3189.0,3210.0,3302.0,1.76,7.69,3.02,-1.03,-1.62,-2.78,1.0,z
2928.0,3495.0,3435.0,2761.0,4095.0,3188.0,3195.0,3230.0,-7.05,-1.03,9.58,-2.17,-0.08,-1.71,1.0,z
2933.0,3581.0,3472.0,2769.0,4095.0,3166.0,3195.0,3284.0,-11.77,0.59,8.02,0.37,-0.35,0.23,1.0,z
2928.0,3631.0,3530.0,2763.0,4095.0,3173.0,3204.0,3293.0,-6.09,1.45,7.23,0.4,0.58,2.22,1.0,z
2948.0,3715.0,3553.0,2780.0,4095.0,3171.0,3207.0,3298.0,0.39,6.27,4.58,0.82,1.09,2.33,1.0,z
2928.0,3664.0,3527.0,2775.0,4095.0,3163.0,3200.0,3306.0,7.18,10.64,6.19,-0.95,2.06,2.16,1.0,z
2930.0,3602.0,3487.0,2743.0,4095.0,3190.0,3214.0,3303.0,11.48,12.59,8.47,-0.89,0.96,0.04,1.0,z
2901.0,3542.0,3422.0,2721.0,4095.0,3168.0,3189.0,3281.0,7.58,9.34,9.03,-0.67,-0.73,-1.75,1.0,z
2877.0,3507.0,3407.0,2711.0,4095.0,3147.0,3152.0,3235.0,3.29,5.87,8.97,0.08,-2.25,-2.85,1.0,z
2899.0,3527.0,3387.0,2701.0,4095.0,3177.0,3183.0,3255.0,-1.53,4.22,7.11,-1.19,-1.4,-2.52,1.0,z
2854.0,3391.0,3307.0,2667.0,4095.0,3121.0,3107.0,3150.0,-5.44,-0.62,11.98,-1.02,-0.42,-1.27,1.0,z
2871.0,3415.0,3339.0,2691.0,4095.0,3136.0,3127.0,3156.0,-4.63,1.05,10.14,-0.08,-0.3,-0.49,1.0,z
2906.0,3502.0,3385.0,2731.0,4095.0,3182.0,3179.0,3218.0,-2.15,3.5,8.94,-0.15,-0.11,-0.01,1.0,z
2928.0,3542.0,3408.0,2752.0,4095.0,3202.0,3199.0,3282.0,-0.99,4.41,9.62,-0.3,-0.08,0.05,1.0,z
2921.0,3531.0,3421.0,2751.0,4095.0,3206.0,3204.0,3280.0,-0.67,3.4,10.44,-0.16,0.08,0.05,1.0,z
2923.0,3534.0,3418.0,2763.0,4095.0,3206.0,3214.0,3287.0,-0.53,3.69,9.74,-0.03,0.03,0.04,1.0,z
2923.0,3531.0,3398.0,2753.0,4095.0,3202.0,3210.0,3293.0,-0.35,3.22,9.67,0.04,-0.21,0.19,1.0,z
2930.0,3536.0,3404.0,2762.0,4095.0,3215.0,3216.0,3296.0,-1.22,2.94,9.77,-0.05,-0.03,0.35,1.0,z
2928.0,3553.0,3476.0,2786.0,4095.0,3189.0,3218.0,3328.0,1.61,7.84,2.48,0.43,-0.06,0.48,1.0,z
2925.0,3529.0,3439.0,2761.0,4095.0,3183.0,3212.0,3318.0,5.49,10.67,1.57,-0.04,0.01,0.55,1.0,z
2928.0,3501.0,3408.0,2718.0,4095.0,3187.0,3216.0,3311.0,10.71,12.31,2.28,-0.26,-1.09,-1.54,1.0,z
2930.0,3490.0,3391.0,2726.0,4095.0,3184.0,3209.0,3312.0,5.45,8.99,3.06,-0.87,-1.3,-3.07,1.0,z
2933.0,3503.0,3460.0,2768.0,4095.0,3184.0,3195.0,3269.0,-3.25,4.06,5.06,-0.82,-2.58,-2.79,1.0,z
2929.0,3475.0,3359.0,2782.0,4095.0,3159.0,3190.0,3190.0,-8.75,-0.42,9.92,-1.0,-0.41,-1.4,1.0,z
2929.0,3457.0,3328.0,2793.0,4095.0,3139.0,3179.0,3182.0,-10.62,1.67,6.38,0.05,-0.02,0.78,1.0,z
2926.0,3507.0,3406.0,2796.0,4095.0,3163.0,3205.0,3229.0,-6.17,2.09,5.71,-0.36,0.89,2.81,1.0,z
2928.0,3537.0,3475.0,2774.0,4095.0,3159.0,3210.0,3236.0,1.56,5.46,7.75,-0.53,1.29,3.39,1.0,z
2928.0,3487.0,3453.0,2730.0,4095.0,3185.0,3217.0,3303.0,12.45,9.4,11.14,-1.07,1.92,1.79,1.0,z
2916.0,3440.0,3360.0,2697.0,4095.0,3184.0,3215.0,3296.0,12.45,10.82,9.5,-0.65,0.57,-0.72,1.0,z
2893.0,3418.0,3361.0,2695.0,4095.0,3163.0,3178.0,3275.0,6.79,6.95,8.8,-0.35,-1.14,-2.81,1.0,z
2903.0,3440.0,3375.0,2709.0,4095.0,3161.0,3182.0,3265.0,0.35,3.28,10.02,-0.26,-1.82,-3.48,1.0,z
2880.0,3369.0,3287.0,2699.0,4095.0,3139.0,3145.0,3190.0,-5.43,1.13,7.93,-0.79,0.02,-1.61,1.0,z
2910.0,3391.0,3295.0,2717.0,4095.0,3157.0,3158.0,3230.0,-4.84,0.3,10.86,0.04,-0.45,-0.72,1.0,z
2907.0,3423.0,3312.0,2735.0,4095.0,3186.0,3189.0,3248.0,-2.43,3.59,9.28,0.0,-0.27,-0.24,1.0,z
2905.0,3437.0,3313.0,2734.0,4095.0,3184.0,3193.0,3265.0,-1.16,4.12,9.52,-0.14,-0.06,-0.09,1.0,z
2925.0,3446.0,3333.0,2738.0,4095.0,3175.0,3197.0,3282.0,-1.19,3.97,9.64,-0.14,0.06,-0.14,1.0,z
2910.0,3440.0,3314.0,2738.0,4095.0,3184.0,3207.0,3284.0,-1.07,3.89,9.56,-0.05,-0.07,0.05,1.0,z
2918.0,3440.0,3329.0,2748.0,4095.0,3201.0,3203.0,3280.0,-0.57,3.99,9.51,-0.09,-0.08,0.08,1.0,z
2928.0,3527.0,3403.0,2783.0,4095.0,3178.0,3213.0,3334.0,5.13,9.76,3.97,-0.13,0.12,0.13,1.0,z
2930.0,3454.0,3360.0,2735.0,4095.0,3189.0,3226.0,3327.0,9.61,10.38,4.53,0.13,-0.71,-1.6,1.0,z
2925.0,3476.0,3376.0,2749.0,4095.0,3183.0,3216.0,3319.0,4.19,8.87,3.85,-0.17,-1.23,-3.08,1.0,z
2933.0,3511.0,3426.0,2766.0,4095.0,3191.0,3205.0,3279.0,-4.84,4.38,2.77,-1.65,-0.43,-2.75,1.0,z
2929.0,3487.0,3397.0,2775.0,4095.0,3169.0,3180.0,3286.0,-7.94,-2.15,9.09,-1.71,-1.32,-1.84,1.0,z
2935.0,3525.0,3397.0,2771.0,4095.0,3158.0,3195.0,3252.0,-11.91,-1.4,8.59,0.28,-0.4,0.5,1.0,z
2942.0,3571.0,3490.0,2789.0,4095.0,3163.0,3199.0,3306.0,-6.73,0.28,6.78,0.69,-0.16,2.85,1.0,z
2939.0,3657.0,3511.0,2787.0,4095.0,3187.0,3216.0,3264.0,-0.45,4.15,6.38,0.28,0.3,3.21,1.0,z
2923.0,3583.0,3439.0,2737.0,4095.0,3187.0,3211.0,3309.0,10.66,8.32,8.74,-0.4,1.34,3.02,1.0,z
2928.0,3505.0,3335.0,2663.0,4095.0,3202.0,3218.0,3291.0,14.55,12.78,7.02,-0.77,1.14,-0.45,1.0,z
2846.0,3406.0,3217.0,2631.0,4095.0,3125.0,3133.0,3199.0,6.21,7.5,7.79,-0.72,-0.78,-2.5,1.0,z
2896.0,3520.0,3315.0,2699.0,4095.0,3207.0,3207.0,3283.0,3.88,4.84,8.44,-0.78,-2.05,-3.46,1.0,z
2928.0,3495.0,3377.0,2707.0,4095.0,3227.0,3213.0,3130.0,-2.56,0.23,10.71,-1.02,-1.28,-2.98,1.0,z
2923.0,3428.0,3426.0,2705.0,4095.0,3222.0,3195.0,3223.0,-4.28,-0.07,10.98,-0.64,-0.65,-1.39,1.0,z
2934.0,3449.0,3429.0,2721.0,4095.0,3228.0,3209.0,3270.0,-3.34,1.12,11.06,-0.31,-0.28,-0.3,1.0,z
2927.0,3470.0,3387.0,2717.0,4095.0,3214.0,3203.0,3279.0,-1.23,3.42,9.47,-0.09,-0.24,0.18,1.0,z
2935.0,3483.0,3399.0,2734.0,4095.0,3229.0,3217.0,3263.0,-0.58,3.34,9.89,-0.28,-0.11,0.16,1.0,z
2934.0,3476.0,3414.0,2734.0,4095.0,3217.0,3206.0,3262.0,-1.31,2.89,10.32,-0.16,0.01,0.29,1.0,z
2928.0,3467.0,3436.0,2736.0,4095.0,3242.0,3218.0,3250.0,-1.39,2.69,10.14,-0.02,0.23,0.49,1.0,z
2924.0,3463.0,3469.0,2736.0,4095.0,3226.0,3209.0,3257.0,-1.11,2.42,10.03,0.07,0.31,0.86,1.0,z
2941.0,3510.0,3282.0,2750.0,4095.0,3195.0,3231.0,3319.0,1.4,9.41,2.51,0.18,0.01,-0.07,1.0,z
2934.0,3529.0,3274.0,2746.0,4095.0,3203.0,3219.0,3301.0,3.51,10.68,2.46,0.04,-0.47,-0.45,1.0,z
2928.0,3507.0,3277.0,2742.0,4095.0,3190.0,3219.0,3317.0,-0.32,9.79,3.97,-0.28,-0.54,-0.93,1.0,z
2928.0,3506.0,3329.0,2768.0,4095.0,3191.0,3214.0,3127.0,-5.61,6.42,4.38,-0.25,-0.12,-0.01,1.0,z
2927.0,3504.0,3297.0,2751.0,4095.0,3197.0,3216.0,3301.0,-0.54,9.51,3.15,-0.06,-0.14,0.44,1.0,z
2937.0,3501.0,3302.0,2742.0,4095.0,3203.0,3233.0,3317.0,0.56,10.48,3.47,-0.25,0.1,-0.03,1.0,z
2934.0,3504.0,3285.0,2751.0,4095.0,3206.0,3224.0,3313.0,0.31,9.71,4.57,-0.17,-0.07,-0.16,1.0,z
2939.0,3519.0,3294.0,2757.0,4095.0,3206.0,3221.0,3322.0,2.11,11.28,3.59,0.07,-0.39,-0.42,1.0,z
2931.0,3517.0,3279.0,2752.0,4095.0,3202.0,3216.0,3313.0,-0.89,8.8,4.62,-0.1,-0.24,-0.7,1.0,z
2940.0,3504.0,3286.0,2731.0,4095.0,3199.0,3218.0,3303.0,5.36,10.65,3.86,0.28,-0.35,-1.25,1.0,z
2944.0,3463.0,3193.0,2704.0,4095.0,3216.0,3232.0,3294.0,5.18,9.8,0.17,-0.59,-1.23,-3.11,1.0,z
2928.0,3541.0,3279.0,2759.0,4095.0,3183.0,3213.0,2843.0,-25.04,-10.55,9.03,-0.4,-0.05,1.43,1.0,z
2928.0,3733.0,3730.0,2761.0,4095.0,3136.0,3190.0,3223.0,-7.84,-3.13,2.71,-0.58,-0.79,2.82,1.0,z
2929.0,3766.0,3769.0,2672.0,4095.0,3183.0,3210.0,3227.0,30.75,10.67,13.0,-1.54,-1.15,2.69,1.0,z
2915.0,3707.0,3530.0,2528.0,4095.0,3227.0,3247.0,3178.0,13.05,13.56,4.96,-4.67,0.3,-2.46,1.0,z
2926.0,3647.0,3845.0,2673.0,4095.0,3211.0,3203.0,3299.0,-4.24,-1.26,14.77,0.5,-1.72,-4.25,1.0,z
2930.0,3675.0,3833.0,2687.0,4095.0,3222.0,3207.0,3299.0,-6.68,-0.23,10.57,-0.28,-0.15,-1.2,1.0,z
2927.0,3707.0,3762.0,2685.0,4095.0,3213.0,3203.0,3303.0,-3.88,2.8,8.09,-0.02,-0.44,-0.01,1.0,z
2945.0,3728.0,3755.0,2689.0,4095.0,3226.0,3222.0,3330.0,-0.87,3.71,9.76,-0.38,0.21,0.52,1.0,z
2925.0,3717.0,3760.0,2690.0,4095.0,3226.0,3207.0,3314.0,0.32,4.48,9.77,-0.02,-0.04,0.09,1.0,z
2937.0,3090.0,3858.0,2691.0,4095.0,2947.0,3165.0,3214.0,2.02,9.88,4.12,0.26,0.29,0.23,1.0,z
2941.0,3100.0,3920.0,2649.0,4095.0,2966.0,3179.0,3204.0,7.35,11.05,1.49,0.05,-0.26,-1.05,1.0,z
2925.0,3071.0,3899.0,2654.0,4095.0,2966.0,3184.0,3226.0,2.9,10.24,1.61,-0.47,-1.9,-2.31,1.0,z
2940.0,3071.0,3860.0,2706.0,4095.0,2949.0,3140.0,3227.0,-5.39,4.58,4.99,-1.93,-1.19,-2.08,1.0,z
2928.0,3083.0,3806.0,2742.0,4095.0,2928.0,3145.0,3071.0,-12.05,-2.88,12.36,-1.17,0.27,-0.0,1.0,z
2944.0,3081.0,3838.0,2768.0,4095.0,2939.0,3170.0,3216.0,-7.35,-0.29,7.67,0.6,-0.01,1.52,1.0,z
2931.0,3068.0,3877.0,2767.0,4095.0,2955.0,3173.0,3254.0,-3.21,4.56,7.48,-0.46,1.64,3.42,1.0,z
2941.0,3087.0,3988.0,2699.0,4095.0,2966.0,3183.0,3201.0,11.73,10.26,10.64,-0.23,1.69,2.16,1.0,z
2907.0,3050.0,3996.0,2559.0,4095.0,2947.0,3169.0,3184.0,14.35,16.36,3.2,-0.18,0.3,-1.01,1.0,z
2917.0,3071.0,4077.0,2663.0,4095.0,2960.0,3169.0,3266.0,4.95,7.27,5.31,-0.55,-2.03,-2.99,1.0,z
2939.0,3081.0,4090.0,2688.0,4095.0,2971.0,3177.0,3286.0,-1.19,3.04,10.98,-1.13,-2.2,-2.72,1.0,z
2923.0,3069.0,4095.0,2683.0,4095.0,2978.0,3180.0,3264.0,-5.1,1.49,11.88,-0.93,-1.18,-1.4,1.0,z
2940.0,3098.0,4082.0,2691.0,4095.0,2992.0,3181.0,3271.0,-4.18,2.87,10.27,-0.32,-0.13,-0.31,1.0,z
2930.0,3062.0,4050.0,2695.0,4095.0,2998.0,3187.0,3279.0,-1.36,5.56,8.12,-0.24,0.17,0.18,1.0,z
2927.0,3068.0,4081.0,2704.0,4095.0,3013.0,3203.0,3294.0,-0.53,5.24,9.17,-0.21,-0.17,0.26,1.0,z
2939.0,3059.0,4095.0,2704.0,4095.0,2999.0,3187.0,3282.0,-0.28,5.61,9.16,-0.23,0.11,0.11,1.0,z
2930.0,3079.0,4065.0,2705.0,4095.0,3018.0,3210.0,3305.0,-1.06,4.69,9.55,-0.08,-0.23,-0.16,1.0,z
2926.0,3066.0,4084.0,2707.0,4095.0,3010.0,3197.0,3299.0,-2.17,4.05,9.63,-0.02,0.01,0.37,1.0,z
2928.0,3082.0,4090.0,2719.0,4095.0,3012.0,3200.0,3274.0,-3.62,4.1,9.7,-0.01,0.45,0.96,1.0,z
2927.0,3071.0,4054.0,2719.0,4095.0,3015.0,3195.0,3293.0,-2.72,4.32,9.15,0.05,0.42,2.13,1.0,z
2929.0,3088.0,4078.0,2739.0,4095.0,3005.0,3227.0,3324.0,1.69,9.82,1.95,0.06,-0.08,0.0,1.0,z
2928.0,3085.0,4045.0,2741.0,4095.0,3008.0,3220.0,3326.0,1.41,9.71,2.13,-0.19,-0.06,-0.1,1.0,z
2928.0,3090.0,4091.0,2735.0,4095.0,3011.0,3225.0,3323.0,6.41,10.64,1.59,-0.16,-0.49,-0.4,1.0,z
2930.0,3071.0,4095.0,2689.0,4095.0,3008.0,3235.0,3281.0,8.49,10.34,2.44,-0.99,-0.24,-2.21,1.0,z
2929.0,3079.0,4074.0,2733.0,4095.0,3008.0,3216.0,3334.0,-1.52,5.35,5.36,-1.04,-1.16,-2.4,1.0,z
2941.0,3084.0,4011.0,2743.0,4095.0,2986.0,3186.0,3280.0,-8.07,3.16,6.53,-1.14,-0.58,-1.63,1.0,z
2933.0,3081.0,3957.0,2757.0,4095.0,2978.0,3178.0,3250.0,-11.73,1.63,7.17,-0.19,-0.36,-0.55,1.0,z
2928.0,3098.0,3995.0,2773.0,4095.0,2991.0,3187.0,3265.0,-9.22,1.67,5.63,-0.12,0.27,1.52,1.0,z
2929.0,3062.0,4039.0,2779.0,4095.0,2992.0,3212.0,3280.0,-3.59,3.86,6.49,-0.87,0.65,2.98,1.0,z
2928.0,3086.0,4095.0,2766.0,4095.0,3001.0,3217.0,3315.0,3.61,6.48,11.17,-1.2,1.66,2.59,1.0,z
2901.0,3052.0,4095.0,2649.0,4095.0,2973.0,3200.0,3281.0,11.96,12.82,9.29,-0.58,0.88,0.32,1.0,z
2925.0,3053.0,4095.0,2694.0,4095.0,2991.0,3214.0,3303.0,3.18,9.08,5.8,-0.94,0.03,-0.42,1.0,z
2918.0,3047.0,4095.0,2718.0,4095.0,3002.0,3221.0,3317.0,4.02,8.36,7.04,-0.09,-2.37,-1.77,1.0,z
2916.0,3053.0,4095.0,2714.0,4095.0,2990.0,3212.0,3312.0,4.0,7.78,5.73,-0.27,-3.09,-3.01,1.0,z
2911.0,3047.0,4095.0,2715.0,4095.0,3039.0,3216.0,3287.0,-1.09,-0.12,11.37,-1.95,-0.27,-2.17,1.0,z
2939.0,3071.0,4095.0,2753.0,4095.0,3062.0,3222.0,3295.0,-4.18,-1.87,13.93,-0.4,-0.46,-1.05,1.0,z
2917.0,3055.0,4095.0,2752.0,4095.0,3058.0,3229.0,3309.0,-3.04,2.44,9.58,-0.01,0.02,-0.08,1.0,z
2931.0,3065.0,4095.0,2761.0,4095.0,3056.0,3234.0,3323.0,-0.9,3.75,9.34,-0.07,-0.16,0.26,1.0,z
2932.0,3069.0,4095.0,2762.0,4095.0,3056.0,3241.0,3332.0,0.58,4.16,9.71,-0.19,0.0,0.13,1.0,z
2925.0,3068.0,4095.0,2767.0,4095.0,3055.0,3231.0,3325.0,-0.03,3.65,9.69,-0.07,-0.08,0.07,1.0,z
2925.0,3086.0,4094.0,2770.0,4095.0,3003.0,3237.0,3344.0,2.88,9.79,3.29,-0.29,-0.07,-0.05,1.0,z
2928.0,3083.0,4080.0,2767.0,4095.0,2997.0,3230.0,3334.0,5.36,9.82,3.81,-0.17,-0.49,-0.53,1.0,z
2932.0,3061.0,4083.0,2771.0,4095.0,3007.0,3248.0,3339.0,3.16,8.97,3.16,-0.37,-1.02,-0.98,1.0,z
2941.0,3058.0,4080.0,2770.0,4095.0,2997.0,3238.0,3328.0,2.15,8.51,4.18,-0.84,-1.43,-1.07,1.0,z
2931.0,3065.0,4079.0,2789.0,4095.0,3008.0,3241.0,3341.0,2.31,8.44,5.76,-0.84,-1.18,-1.39,1.0,z
2942.0,3080.0,4048.0,2790.0,4095.0,2993.0,3221.0,3333.0,-0.48,6.89,6.81,-0.75,-0.61,-1.53,1.0,z
2933.0,3066.0,4053.0,2791.0,4095.0,2998.0,3225.0,3345.0,-2.95,4.95,7.01,-0.62,-0.29,-1.25,1.0,z
2933.0,3063.0,4002.0,2797.0,4095.0,2987.0,3214.0,3341.0,-7.91,3.23,8.04,-0.57,0.21,0.26,1.0,z
2945.0,3059.0,4016.0,2802.0,4095.0,2998.0,3231.0,3365.0,-4.9,4.39,7.86,0.02,0.31,1.17,1.0,z
2937.0,3069.0,4019.0,2800.0,4095.0,3002.0,3226.0,3360.0,-1.58,6.03,6.67,-0.29,1.06,1.79,1.0,z
2939.0,3071.0,4061.0,2811.0,4095.0,2999.0,3235.0,3367.0,2.47,7.11,8.48,-0.31,0.75,1.96,1.0,z
2909.0,3035.0,3997.0,2767.0,4095.0,2967.0,3202.0,3312.0,5.53,8.22,8.62,-0.22,1.03,1.19,1.0,z
2922.0,3063.0,4095.0,2786.0,4095.0,3008.0,3237.0,3333.0,7.99,10.24,5.95,-0.22,0.62,0.57,1.0,z
2925.0,3086.0,4095.0,2787.0,4095.0,3010.0,3251.0,3326.0,7.62,9.92,5.51,-0.63,-1.1,-1.31,1.0,z
2925.0,3056.0,4095.0,2795.0,4095.0,3012.0,3247.0,3341.0,4.68,7.47,7.72,-1.19,-2.07,-2.78,1.0,z
2928.0,3059.0,4095.0,2813.0,4095.0,3017.0,3237.0,3346.0,0.92,3.46,9.82,-0.78,-1.32,-2.55,1.0,z
2931.0,3057.0,4095.0,2781.0,4095.0,3003.0,3233.0,3344.0,-0.31,3.86,8.54,-0.89,-0.74,-1.54,1.0,z
2937.0,3066.0,4095.0,2755.0,4095.0,3015.0,3238.0,3336.0,-0.13,3.07,9.87,-1.29,-0.4,-1.11,1.0,z
2919.0,3061.0,4095.0,2766.0,4095.0,3017.0,3239.0,3344.0,-1.51,0.41,11.86,-0.43,-0.07,-0.46,1.0,z
2934.0,3082.0,4095.0,2778.0,4095.0,3025.0,3239.0,3354.0,-1.4,2.44,9.81,0.06,-0.1,0.27,1.0,z
2938.0,3070.0,4085.0,2747.0,4095.0,2994.0,3247.0,3345.0,4.99,10.57,3.0,-0.2,-0.75,-0.33,1.0,z
2937.0,3066.0,4095.0,2733.0,4095.0,2992.0,3245.0,3331.0,7.18,9.92,3.62,-0.11,-1.7,-1.26,1.0,z
2931.0,3067.0,4095.0,2753.0,4095.0,3004.0,3247.0,3345.0,1.84,7.86,5.11,-0.69,-1.92,-2.37,1.0,z
2931.0,3065.0,4019.0,2767.0,4095.0,2991.0,3221.0,3338.0,-7.31,3.99,7.51,-0.7,-0.88,-1.82,1.0,z
2931.0,3062.0,4036.0,2771.0,4095.0,2999.0,3215.0,3250.0,-11.98,-0.33,8.24,-0.22,0.08,0.09,1.0,z
2933.0,3055.0,4019.0,2751.0,4095.0,2992.0,3227.0,3335.0,-5.7,2.86,5.56,0.2,1.2,1.74,1.0,z
2941.0,3056.0,4095.0,2733.0,4095.0,3002.0,3227.0,3333.0,0.92,8.12,8.17,-1.15,2.12,2.99,1.0,z
2928.0,3052.0,4095.0,2688.0,4095.0,2983.0,3245.0,3313.0,8.66,13.88,6.51,-0.59,1.37,0.21,1.0,z
2896.0,3023.0,4095.0,2679.0,4095.0,2947.0,3213.0,3276.0,6.79,10.37,5.88,-0.51,-0.99,-1.51,1.0,z
2931.0,3057.0,4095.0,2726.0,4095.0,2994.0,3248.0,3344.0,1.4,8.52,6.78,-0.39,-2.26,-2.2,1.0,z
2897.0,3033.0,4095.0,2709.0,4095.0,2983.0,3221.0,3312.0,-2.93,4.49,10.33,-0.37,-2.2,-1.71,1.0,z
2919.0,3046.0,4095.0,2720.0,4095.0,2992.0,3219.0,3301.0,-4.1,3.49,10.28,-0.43,-0.61,-0.53,1.0,z
2918.0,3051.0,4095.0,2732.0,4095.0,3003.0,3227.0,3314.0,-2.15,5.38,8.07,-0.12,-0.17,-0.09,1.0,z
2929.0,3051.0,4095.0,2734.0,4095.0,3012.0,3251.0,3340.0,-0.73,5.95,8.37,-0.18,-0.13,0.11,1.0,z
2919.0,3045.0,4095.0,2741.0,4095.0,3012.0,3243.0,3334.0,-0.4,6.15,8.55,-0.29,0.19,0.11,1.0,z
2937.0,3067.0,4095.0,2754.0,4095.0,3023.0,3253.0,3346.0,-0.64,5.61,8.79,-0.26,-0.06,0.13,1.0,z
2917.0,3051.0,4095.0,2747.0,4095.0,3015.0,3241.0,3331.0,-0.97,5.24,9.09,-0.12,0.05,0.28,1.0,z
2931.0,3060.0,4095.0,2755.0,4095.0,3011.0,3252.0,3354.0,-2.26,5.39,10.68,0.16,0.47,0.49,1.0,z
2925.0,3041.0,4095.0,2757.0,4095.0,3019.0,3250.0,3360.0,-2.11,5.58,9.86,0.75,0.84,1.05,1.0,z
2864.0,2972.0,3965.0,2684.0,4095.0,2945.0,3152.0,3258.0,0.59,7.36,8.13,1.11,1.03,0.89,1.0,z
2935.0,3065.0,4095.0,2768.0,4095.0,3030.0,3261.0,3369.0,1.36,9.85,2.91,-0.14,-0.11,0.12,1.0,z
2928.0,3071.0,4095.0,2769.0,4095.0,3030.0,3266.0,3370.0,2.74,9.86,2.99,-0.12,-0.1,-0.13,1.0,z
2922.0,3060.0,4095.0,2752.0,4095.0,3030.0,3263.0,3351.0,4.25,9.85,2.44,-0.15,-0.57,-0.73,1.0,z
2928.0,3053.0,4095.0,2768.0,4095.0,3041.0,3276.0,3375.0,2.57,9.41,3.25,-0.65,-0.93,-1.23,1.0,z
2929.0,3062.0,4095.0,2774.0,4095.0,3029.0,3259.0,3361.0,0.03,8.75,4.35,-0.74,-0.85,-1.46,1.0,z
2938.0,3083.0,4095.0,2781.0,4095.0,3041.0,3257.0,3382.0,-2.09,8.1,5.46,-0.76,-1.04,-1.37,1.0,z
2929.0,3056.0,4095.0,2775.0,4095.0,3025.0,3251.0,3376.0,-4.59,6.62,6.45,-0.42,-0.89,-1.24,1.0,z
2937.0,3063.0,4093.0,2791.0,4095.0,3026.0,3251.0,3367.0,-7.49,4.28,7.49,-0.54,-0.07,0.11,1.0,z
2939.0,3056.0,4095.0,2786.0,4095.0,3016.0,3249.0,3366.0,-4.6,4.77,6.68,-0.12,0.16,1.4,1.0,z
2943.0,3056.0,4095.0,2800.0,4095.0,3038.0,3264.0,3377.0,-0.73,6.38,6.4,-0.25,0.56,1.93,1.0,z
2927.0,3061.0,4095.0,2788.0,4095.0,3025.0,3265.0,3376.0,1.78,7.24,7.02,-0.6,0.96,1.7,1.0,z
2907.0,3042.0,4095.0,2765.0,4095.0,3014.0,3242.0,3344.0,2.74,7.85,7.58,-0.65,1.03,1.27,1.0,z
2926.0,3044.0,4095.0,2781.0,4095.0,3038.0,3258.0,3363.0,4.1,8.41,8.02,-0.42,0.79,1.02,1.0,z
2920.0,3058.0,4095.0,2759.0,4095.0,3024.0,3239.0,3351.0,6.65,10.18,5.95,-0.27,-0.08,-0.39,1.0,z
2842.0,2977.0,3983.0,2703.0,4095.0,2963.0,3167.0,3249.0,3.72,7.73,6.53,-0.48,-0.77,-1.49,1.0,z
2922.0,3041.0,4095.0,2771.0,4095.0,3023.0,3233.0,3346.0,1.05,4.97,9.23,-0.26,-1.02,-1.82,1.0,z
2922.0,3049.0,4095.0,2766.0,4095.0,3022.0,3237.0,3344.0,0.31,6.54,7.32,-0.29,-1.16,-1.68,1.0,z
2915.0,3051.0,4095.0,2768.0,4095.0,3031.0,3252.0,3354.0,-0.3,6.13,7.76,-0.54,-1.02,-1.37,1.0,z
2939.0,3063.0,4095.0,2778.0,4095.0,3038.0,3253.0,3376.0,-1.49,4.51,9.4,-0.6,-0.31,-0.91,1.0,z
2927.0,3067.0,4095.0,2784.0,4095.0,3041.0,3253.0,3363.0,-1.41,4.67,9.5,-0.3,-0.19,-0.39,1.0,z
2934.0,3071.0,4095.0,2785.0,4095.0,3062.0,3271.0,3362.0,2.28,9.8,2.9,0.03,-0.24,0.06,1.0,z
2939.0,3068.0,4095.0,2768.0,4095.0,3049.0,3265.0,3370.0,4.3,11.35,2.67,-0.01,-0.39,-0.68,1.0,z
2946.0,3071.0,4095.0,2775.0,4095.0,3056.0,3285.0,3383.0,3.53,9.7,2.4,-0.29,-0.62,-1.66,1.0,z
2941.0,3057.0,4095.0,2787.0,4095.0,3040.0,3263.0,3370.0,0.63,6.78,2.32,-0.79,-0.59,-2.27,1.0,z
2935.0,3071.0,4095.0,2803.0,4095.0,3031.0,3246.0,3367.0,-6.29,3.43,4.53,-1.12,-0.25,-1.4,1.0,z
2939.0,3057.0,4077.0,2800.0,4095.0,3034.0,3247.0,3373.0,-7.7,3.68,5.15,-0.9,-0.43,-0.22,1.0,z
2940.0,3071.0,4080.0,2795.0,4095.0,3034.0,3247.0,3376.0,-7.63,4.42,6.96,-1.1,0.1,1.36,1.0,z
2934.0,3070.0,4080.0,2811.0,4095.0,3038.0,3262.0,3387.0,-3.38,4.72,7.86,-0.95,0.04,2.56,1.0,z
2910.0,3027.0,4048.0,2760.0,4095.0,2997.0,3216.0,3329.0,4.96,5.32,8.99,-0.54,-0.67,2.82,1.0,z
2925.0,3063.0,4095.0,2759.0,4095.0,3053.0,3285.0,3383.0,6.76,7.98,7.59,-0.66,0.14,1.25,1.0,z
2928.0,3050.0,4095.0,2770.0,4095.0,3038.0,3264.0,3371.0,6.31,7.72,7.56,-0.82,-0.31,-0.08,1.0,z
2935.0,3061.0,4095.0,2783.0,4095.0,3056.0,3270.0,3389.0,4.61,6.24,8.4,-0.92,-0.31,-1.03,1.0,z
2947.0,3071.0,4095.0,2776.0,4095.0,3047.0,3267.0,3383.0,5.35,6.15,8.48,-0.59,-0.54,-2.1,1.0,z
2929.0,3060.0,4095.0,2784.0,4095.0,3057.0,3269.0,3391.0,1.87,3.89,9.83,-0.69,-0.85,-2.54,1.0,z
2915.0,3056.0,4095.0,2795.0,4095.0,3047.0,3254.0,3376.0,-1.37,2.44,10.7,-0.43,-0.44,-1.24,1.0,z
2941.0,3063.0,4095.0,2805.0,4095.0,3056.0,3264.0,3394.0,-0.4,2.99,9.85,-0.12,-0.24,-0.62,1.0,z
2925.0,3055.0,4095.0,2800.0,4095.0,3046.0,3264.0,3391.0,-0.01,3.8,9.46,-0.1,-0.03,-0.13,1.0,z
2939.0,3065.0,4095.0,2800.0,4095.0,3063.0,3275.0,3403.0,1.36,4.08,9.82,-0.06,-0.05,0.25,1.0,z
2928.0,3055.0,4095.0,2795.0,4095.0,3066.0,3290.0,3408.0,1.57,4.21,9.39,-0.16,0.09,0.03,1.0,z
2931.0,3071.0,4095.0,2801.0,4095.0,3051.0,3264.0,3395.0,0.74,3.65,9.52,-0.13,-0.06,0.15,1.0,z
2928.0,3055.0,4095.0,2723.0,4095.0,3025.0,3266.0,3373.0,7.75,7.92,2.04,0.17,0.04,-0.65,1.0,z
2931.0,3045.0,4095.0,2645.0,4095.0,3021.0,3283.0,3331.0,11.82,12.63,-1.31,-0.29,-1.86,-3.19,1.0,z
2927.0,3063.0,4095.0,2710.0,4095.0,3018.0,3251.0,3366.0,-1.72,1.16,8.65,-2.01,-1.52,-3.65,1.0,z
2943.0,3067.0,3942.0,2722.0,4095.0,3029.0,3255.0,3126.0,-20.25,-4.33,9.63,0.12,0.04,0.86,1.0,z
2938.0,3058.0,4023.0,2789.0,4095.0,3007.0,3227.0,3289.0,-8.85,1.01,4.97,0.17,-1.32,2.0,1.0,z
2928.0,3050.0,4077.0,2768.0,4095.0,2997.0,3233.0,3311.0,-0.54,1.48,5.79,-1.99,1.9,5.04,1.0,z
2923.0,3041.0,4095.0,2619.0,4095.0,3011.0,3252.0,3345.0,20.63,9.27,11.36,-0.43,-0.07,1.42,1.0,z
2873.0,2995.0,4095.0,2523.0,4095.0,2986.0,3225.0,3262.0,13.46,10.98,4.52,-1.57,-0.1,-2.55,1.0,z
2931.0,3045.0,4095.0,2629.0,4095.0,3023.0,3253.0,3365.0,7.3,3.91,6.1,-0.86,-2.41,-4.69,1.0,z
2928.0,3056.0,4095.0,2663.0,4095.0,3069.0,3264.0,3322.0,-6.69,-8.69,16.93,-2.25,2.19,-2.3,1.0,z
2933.0,3058.0,4095.0,2730.0,4095.0,3053.0,3269.0,3324.0,-6.92,-2.08,11.63,0.29,-0.24,-0.89,1.0,z
2932.0,3055.0,4095.0,2707.0,4095.0,3037.0,3252.0,3371.0,-1.55,2.95,8.89,0.05,-0.09,-0.05,1.0,z
2928.0,3059.0,4095.0,2725.0,4095.0,3050.0,3271.0,3391.0,-0.18,2.34,10.38,-0.13,-0.03,0.19,1.0,z
2942.0,3056.0,4095.0,2719.0,4095.0,3041.0,3258.0,3387.0,0.3,3.13,10.2,-0.1,-0.06,0.19,1.0,z
2941.0,3062.0,4095.0,2723.0,4095.0,3053.0,3276.0,3407.0,-0.45,2.71,9.9,-0.06,-0.03,0.05,1.0,z
2938.0,3057.0,4095.0,2722.0,4095.0,3047.0,3267.0,3398.0,-0.46,2.58,9.79,-0.09,-0.06,0.17,1.0,z
2934.0,3047.0,4095.0,2726.0,4095.0,3046.0,3261.0,3391.0,0.18,2.56,9.64,-0.21,-0.11,0.15,1.0,z
2946.0,3053.0,4095.0,2733.0,4095.0,3056.0,3269.0,3408.0,0.0,2.19,10.16,-0.06,0.01,0.09,1.0,z
2927.0,3055.0,4095.0,2725.0,4095.0,3045.0,3265.0,3394.0,0.1,2.78,9.5,-0.11,-0.05,0.11,1.0,z
2939.0,3065.0,4095.0,2739.0,4095.0,3054.0,3267.0,3398.0,0.06,2.12,10.18,-0.2,-0.02,0.09,1.0,z
2929.0,3051.0,4095.0,2559.0,4095.0,3028.0,3317.0,3350.0,12.72,13.04,2.47,0.07,-0.58,-1.97,1.0,z
2939.0,3053.0,4095.0,2625.0,4095.0,3033.0,3303.0,3377.0,3.67,8.22,2.54,-0.22,-1.03,-4.11,1.0,z
2935.0,3057.0,4027.0,2722.0,4095.0,3021.0,3235.0,2928.0,-12.94,-1.88,5.12,-0.94,-0.23,-1.21,1.0,z
2938.0,3053.0,3955.0,2768.0,4095.0,3025.0,3248.0,3230.0,-14.76,-0.9,3.3,-0.36,-1.12,1.08,1.0,z
2931.0,3044.0,4013.0,2765.0,4095.0,3033.0,3251.0,3399.0,-5.04,0.71,7.02,-1.08,0.44,4.05,1.0,z
2933.0,3051.0,4045.0,2702.0,4095.0,3008.0,3250.0,3395.0,9.5,6.07,12.24,-0.58,1.25,3.2,1.0,z
2914.0,3042.0,4095.0,2584.0,4095.0,3010.0,3293.0,3312.0,14.87,12.69,6.07,-0.2,0.28,-1.21,1.0,z
2909.0,3024.0,4095.0,2635.0,4095.0,2997.0,3258.0,3334.0,6.69,7.79,5.93,-1.17,-0.99,-2.56,1.0,z
2881.0,3007.0,4080.0,2650.0,4095.0,2972.0,3221.0,3345.0,1.51,1.4,8.95,-2.09,-1.7,-3.44,1.0,z
2851.0,2956.0,3919.0,2640.0,4095.0,2935.0,3155.0,3258.0,-5.95,-2.09,12.17,-1.73,-0.57,-1.88,1.0,z
2869.0,2984.0,3951.0,2668.0,4095.0,2959.0,3180.0,3296.0,-4.91,0.42,12.26,-0.51,-0.6,-0.63,1.0,z
2923.0,3043.0,4082.0,2721.0,4095.0,3030.0,3263.0,3403.0,-1.87,3.69,9.66,-0.16,-0.1,-0.06,1.0,z
2925.0,3049.0,4073.0,2723.0,4095.0,3029.0,3259.0,3394.0,-1.31,3.2,10.13,-0.25,0.26,0.16,1.0,z
2923.0,3043.0,4080.0,2726.0,4095.0,3037.0,3275.0,3409.0,-0.27,3.24,10.22,-0.01,-0.02,0.08,1.0,z
2925.0,3045.0,4085.0,2724.0,4095.0,3033.0,3267.0,3406.0,-0.32,2.7,10.03,-0.1,0.04,0.19,1.0,z
2930.0,3040.0,4079.0,2731.0,4095.0,3044.0,3281.0,3425.0,-0.81,2.23,9.91,-0.07,0.1,0.24,1.0,z
2926.0,3046.0,4048.0,2727.0,4095.0,3039.0,3273.0,3421.0,-0.21,3.22,9.62,0.01,0.01,0.16,1.0,z
2933.0,3043.0,4080.0,2735.0,4095.0,3037.0,3271.0,3397.0,-0.39,3.25,9.79,-0.06,-0.01,0.11,1.0,z
2922.0,3030.0,4055.0,2726.0,4095.0,3030.0,3267.0,3414.0,-0.61,3.2,9.65,-0.09,0.13,0.15,1.0,z
2926.0,3039.0,4065.0,2728.0,4095.0,3043.0,3270.0,3424.0,-0.94,2.99,9.97,-0.06,0.1,0.25,1.0,z
2926.0,3045.0,4083.0,2785.0,4095.0,3024.0,3299.0,3443.0,0.47,8.35,4.53,-0.21,0.3,0.4,1.0,z
2935.0,3051.0,4095.0,2746.0,4095.0,3026.0,3311.0,3422.0,9.77,10.84,3.71,0.45,-0.43,-0.42,1.0,z
2935.0,3053.0,4095.0,2717.0,4095.0,3025.0,3312.0,3383.0,7.85,10.55,4.32,-0.25,-0.16,-2.22,1.0,z
2943.0,3055.0,4095.0,2717.0,4095.0,3034.0,3328.0,3423.0,0.77,6.27,4.94,0.05,-0.61,-2.59,1.0,z
2931.0,3056.0,4009.0,2741.0,4095.0,3014.0,3264.0,3403.0,-7.09,4.94,2.8,-0.25,-1.59,-2.88,1.0,z
2937.0,3055.0,3925.0,2772.0,4095.0,3019.0,3255.0,3385.0,-16.1,0.27,5.91,-0.92,-0.11,0.82,1.0,z
2939.0,3047.0,3946.0,2791.0,4095.0,3024.0,3249.0,3391.0,-7.61,1.38,5.56,-0.72,0.27,2.35,1.0,z
2943.0,3060.0,4033.0,2788.0,4095.0,3036.0,3278.0,3409.0,-1.05,4.39,8.16,-1.71,1.7,3.37,1.0,z
2935.0,3047.0,4095.0,2767.0,4095.0,3045.0,3280.0,3394.0,15.0,7.04,13.31,-0.16,0.05,2.17,1.0,z
2907.0,3042.0,4095.0,2688.0,4095.0,3040.0,3289.0,3351.0,12.13,12.06,6.8,-0.37,0.66,-0.12,1.0,z
2873.0,2992.0,4095.0,2690.0,4095.0,2986.0,3212.0,3302.0,6.67,7.45,7.59,-0.44,-1.59,-2.38,1.0,z
2925.0,3044.0,4095.0,2753.0,4095.0,3039.0,3290.0,3405.0,1.84,4.63,8.91,-0.68,-2.72,-3.22,1.0,z
2939.0,3044.0,4095.0,2768.0,4095.0,3045.0,3282.0,3398.0,-3.11,1.76,9.51,-1.05,-1.1,-2.1,1.0,z
2928.0,3043.0,4095.0,2775.0,4095.0,3031.0,3262.0,3378.0,-4.39,1.53,10.96,-0.86,-0.58,-1.04,1.0,z
2923.0,3042.0,4095.0,2791.0,4095.0,3053.0,3274.0,3382.0,-3.16,3.62,9.68,-0.22,-0.06,-0.43,1.0,z
2930.0,3034.0,4095.0,2779.0,4095.0,3047.0,3280.0,3406.0,-0.87,4.45,9.7,-0.15,0.0,0.12,1.0,z
2922.0,3050.0,4095.0,2787.0,4095.0,3050.0,3284.0,3408.0,0.57,4.61,9.71,-0.18,0.06,0.01,1.0,z
2927.0,3042.0,4095.0,2784.0,4095.0,3049.0,3280.0,3404.0,-0.56,3.66,9.73,-0.22,0.08,0.1,1.0,z
2928.0,3046.0,4095.0,2789.0,4095.0,3056.0,3280.0,3419.0,-0.26,3.9,9.44,-0.17,-0.15,0.24,1.0,z
2924.0,3037.0,4095.0,2783.0,4095.0,3055.0,3287.0,3417.0,-0.1,3.97,9.67,-0.1,0.06,0.08,1.0,z
2942.0,3044.0,4093.0,2704.0,4095.0,3005.0,3298.0,3411.0,6.82,10.09,2.48,0.07,-0.44,-0.42,1.0,z
2928.0,3056.0,4095.0,2725.0,4095.0,2993.0,3298.0,3408.0,5.47,10.64,3.67,-0.25,-1.13,-1.73,1.0,z
2938.0,3056.0,4095.0,2742.0,4095.0,3003.0,3312.0,3431.0,3.89,8.61,3.95,0.14,-1.61,-2.26,1.0,z
2935.0,3047.0,4095.0,2742.0,4095.0,2994.0,3283.0,3425.0,-1.37,6.78,3.42,-0.57,-0.89,-2.36,1.0,z
2934.0,3056.0,4086.0,2746.0,4095.0,2997.0,3274.0,3420.0,-7.35,3.57,5.14,-1.17,-0.17,-1.85,1.0,z
2928.0,3056.0,3987.0,2768.0,4095.0,2982.0,3248.0,3344.0,-12.02,2.76,6.04,-0.35,0.14,0.12,1.0,z
2937.0,3059.0,4036.0,2784.0,4095.0,2999.0,3273.0,3408.0,-8.13,2.78,5.36,-0.21,-0.36,2.06,1.0,z
2931.0,3039.0,4093.0,2779.0,4095.0,3003.0,3268.0,3409.0,-0.24,3.26,5.77,-0.47,0.3,3.35,1.0,z
2930.0,3037.0,4095.0,2767.0,4095.0,3019.0,3294.0,3435.0,6.3,6.41,8.19,-0.7,1.19,3.12,1.0,z
2917.0,3034.0,4095.0,2705.0,4095.0,2992.0,3267.0,3392.0,9.33,7.19,8.13,0.47,0.61,2.0,1.0,z
2930.0,3041.0,4095.0,2676.0,4095.0,3015.0,3317.0,3391.0,10.97,11.14,5.29,-0.63,0.57,-0.32,1.0,z
2867.0,2989.0,4094.0,2647.0,4095.0,2962.0,3254.0,3333.0,8.61,8.1,6.37,-0.78,-0.93,-2.33,1.0,z
2881.0,2997.0,4095.0,2671.0,4095.0,2971.0,3248.0,3354.0,6.01,4.6,7.72,-0.74,-1.74,-3.67,1.0,z
2908.0,3022.0,4095.0,2675.0,4095.0,2995.0,3264.0,3379.0,0.88,3.04,7.35,-1.2,-1.39,-3.73,1.0,z
2931.0,3047.0,4095.0,2703.0,4095.0,3028.0,3285.0,3383.0,-4.92,0.32,10.82,-1.45,-0.25,-2.05,1.0,z
2869.0,2993.0,4005.0,2669.0,4095.0,2977.0,3212.0,3287.0,-5.82,0.12,12.06,-0.46,-0.48,-0.75,1.0,z
2870.0,2993.0,4017.0,2683.0,4095.0,2991.0,3221.0,3319.0,-3.66,2.76,9.45,-0.07,-0.01,0.13,1.0,z
2935.0,3031.0,4095.0,2716.0,4095.0,3030.0,3271.0,3399.0,-0.43,3.81,9.81,-0.07,-0.22,0.15,1.0,z
2919.0,3029.0,4095.0,2717.0,4095.0,3037.0,3284.0,3403.0,-0.83,3.71,9.54,-0.11,-0.03,0.07,1.0,z
2930.0,3031.0,4095.0,2731.0,4095.0,3042.0,3281.0,3398.0,-1.33,3.38,9.33,-0.11,-0.06,0.13,1.0,z
2923.0,3041.0,4095.0,2759.0,4095.0,3021.0,3303.0,3433.0,3.73,8.83,4.6,-0.28,-0.14,-0.32,1.0,z
2928.0,3053.0,4095.0,2762.0,4095.0,3024.0,3312.0,3441.0,5.11,8.17,3.93,-0.01,-0.42,-0.74,1.0,z
2921.0,3042.0,4095.0,2759.0,4095.0,3023.0,3307.0,3433.0,3.7,9.25,2.9,-0.38,-0.92,-1.03,1.0,z
2927.0,3053.0,4095.0,2768.0,4095.0,3033.0,3312.0,3441.0,3.02,8.62,4.53,-0.74,-1.18,-1.28,1.0,z
2927.0,3038.0,4095.0,2763.0,4095.0,3014.0,3311.0,3443.0,1.05,8.01,5.87,-0.79,-1.13,-1.17,1.0,z
2923.0,3035.0,4095.0,2768.0,4095.0,3024.0,3298.0,3430.0,-0.11,7.44,5.83,-0.86,-0.92,-1.46,1.0,z
2943.0,3063.0,4095.0,2771.0,4095.0,3030.0,3296.0,3445.0,-4.38,5.54,6.54,-0.69,-0.3,-0.82,1.0,z
2930.0,3039.0,4080.0,2780.0,4095.0,3021.0,3281.0,3431.0,-5.56,4.92,7.82,-0.17,-0.22,0.35,1.0,z
2932.0,3053.0,4095.0,2785.0,4095.0,3027.0,3295.0,3455.0,-1.97,5.98,7.06,-0.15,0.33,1.24,1.0,z
2928.0,3043.0,4079.0,2781.0,4095.0,3021.0,3302.0,3444.0,1.16,6.39,6.76,-0.21,0.54,1.38,1.0,z
2923.0,3046.0,4095.0,2788.0,4095.0,3024.0,3303.0,3440.0,2.46,7.33,7.2,-0.34,0.48,1.07,1.0,z
2881.0,2997.0,4016.0,2738.0,4095.0,2981.0,3250.0,3375.0,3.85,7.13,8.11,-0.73,0.57,1.31,1.0,z
2944.0,3055.0,4095.0,2779.0,4095.0,3024.0,3311.0,3453.0,7.38,7.41,7.4,-0.31,0.57,0.93,1.0,z
2928.0,3047.0,4095.0,2786.0,4095.0,3030.0,3307.0,3428.0,6.24,9.11,8.17,-0.43,0.61,0.19,1.0,z
2938.0,3042.0,4095.0,2787.0,4095.0,3042.0,3315.0,3447.0,6.29,7.67,8.17,-0.23,-0.05,-0.88,1.0,z
2925.0,3056.0,4095.0,2781.0,4095.0,3024.0,3303.0,3440.0,3.13,6.0,6.49,0.01,-0.56,-1.21,1.0,z
2941.0,3063.0,4095.0,2768.0,4095.0,3031.0,3322.0,3417.0,2.71,5.96,7.63,-0.05,-1.6,-1.32,1.0,z
2936.0,3057.0,4095.0,2759.0,4095.0,3044.0,3330.0,3422.0,2.84,6.43,8.26,-0.38,-1.16,-1.28,1.0,z
2935.0,3035.0,4095.0,2747.0,4095.0,3034.0,3317.0,3408.0,3.11,5.69,7.93,-0.55,-0.98,-1.52,1.0,z
2940.0,3056.0,4095.0,2754.0,4095.0,3051.0,3327.0,3408.0,2.28,5.11,9.17,-0.8,-0.9,-1.4,1.0,z
2942.0,3053.0,4095.0,2727.0,4095.0,3022.0,3298.0,3418.0,1.34,7.31,4.24,-1.67,-0.98,-2.59,1.0,z
2938.0,3038.0,4095.0,2736.0,4095.0,3009.0,3269.0,3396.0,-6.64,2.55,6.01,-0.26,-0.89,-1.95,1.0,z
2935.0,3056.0,4095.0,2751.0,4095.0,3020.0,3280.0,3424.0,-9.34,2.7,5.75,-0.21,-0.38,-1.33,1.0,z
2930.0,3050.0,4057.0,2756.0,4095.0,3009.0,3269.0,3408.0,-11.19,2.69,5.55,-0.39,0.13,1.22,1.0,z
2935.0,3047.0,4095.0,2766.0,4095.0,3037.0,3299.0,3440.0,-4.27,4.29,5.78,-0.52,0.64,3.32,1.0,z
2928.0,3043.0,4095.0,2729.0,4095.0,3039.0,3295.0,3421.0,7.82,5.93,9.13,-0.51,0.98,3.56,1.0,z
2913.0,3042.0,4095.0,2667.0,4095.0,3042.0,3322.0,3380.0,13.37,9.86,7.16,0.17,1.63,1.21,1.0,z
2919.0,3035.0,4095.0,2687.0,4095.0,3047.0,3317.0,3391.0,5.36,10.19,6.01,-0.75,0.82,0.18,1.0,z
2907.0,3030.0,4095.0,2704.0,4095.0,3045.0,3319.0,3394.0,5.72,9.01,6.68,-0.31,-0.64,-0.74,1.0,z
2903.0,3013.0,4095.0,2705.0,4095.0,3015.0,3284.0,3370.0,5.29,6.65,5.81,-0.45,-1.11,-1.95,1.0,z
2880.0,2992.0,4095.0,2669.0,4095.0,3017.0,3281.0,3357.0,5.2,5.99,4.45,-0.9,-2.18,-3.61,1.0,z
2927.0,3057.0,4095.0,2717.0,4095.0,3051.0,3318.0,3399.0,0.35,1.26,9.92,-2.35,-1.37,-3.31,1.0,z
2924.0,3050.0,4095.0,2738.0,4095.0,3068.0,3309.0,3360.0,-4.67,-1.3,13.89,-1.73,0.49,-1.76,1.0,z
2929.0,3065.0,4095.0,2743.0,4095.0,3069.0,3311.0,3393.0,-4.66,1.37,10.96,-0.09,-0.61,-0.64,1.0,z
2927.0,3041.0,4095.0,2744.0,4095.0,3069.0,3312.0,3397.0,-2.01,3.32,9.34,-0.07,-0.39,0.2,1.0,z
2924.0,3049.0,4095.0,2753.0,4095.0,3084.0,3319.0,3411.0,-0.33,3.89,9.69,-0.12,-0.16,0.24,1.0,z
2929.0,3056.0,4095.0,2757.0,4095.0,3066.0,3307.0,3409.0,-0.07,3.83,9.72,-0.16,-0.12,0.23,1.0,z
2934.0,3056.0,4095.0,2748.0,4095.0,3081.0,3322.0,3411.0,-0.16,3.45,9.95,-0.12,0.09,0.15,1.0,z
2926.0,3040.0,4095.0,2747.0,4095.0,3071.0,3318.0,3418.0,-0.39,3.32,9.65,-0.08,0.07,0.06,1.0,z
2933.0,3060.0,4095.0,2757.0,4095.0,3087.0,3313.0,3410.0,-0.2,3.34,9.67,-0.11,0.05,0.11,1.0,z
2925.0,3050.0,4095.0,2753.0,4095.0,3024.0,3302.0,3430.0,3.69,8.68,3.62,-0.0,0.25,0.31,1.0,z
2932.0,3038.0,4095.0,2752.0,4095.0,3038.0,3321.0,3443.0,4.7,8.91,3.52,-0.05,-0.15,0.18,1.0,z
2931.0,3057.0,4095.0,2727.0,4095.0,3031.0,3306.0,3421.0,7.89,10.13,3.91,-0.07,-0.59,-0.73,1.0,z
2927.0,3038.0,4095.0,2726.0,4095.0,3038.0,3315.0,3422.0,8.25,10.1,3.78,-0.09,-0.98,-2.09,1.0,z
2935.0,3062.0,4095.0,2735.0,4095.0,3045.0,3328.0,3433.0,3.74,7.14,3.48,-0.75,-0.19,-3.53,1.0,z
2925.0,3057.0,4095.0,2758.0,4095.0,3031.0,3274.0,3421.0,-5.74,2.52,5.12,-0.61,0.15,-2.63,1.0,z
2939.0,3067.0,4095.0,2771.0,4095.0,3031.0,3283.0,3431.0,-9.11,2.77,5.39,-0.2,-0.46,-1.61,1.0,z
2928.0,3056.0,4095.0,2790.0,4095.0,3025.0,3267.0,3314.0,-12.57,2.48,4.12,0.11,0.52,0.08,1.0,z
2929.0,3054.0,4095.0,2809.0,4095.0,3034.0,3286.0,3372.0,-9.26,3.21,2.41,0.05,-0.46,1.9,1.0,z
2929.0,3066.0,4095.0,2799.0,4095.0,3027.0,3285.0,3435.0,-3.58,3.91,3.12,-1.3,0.08,3.37,1.0,z
2938.0,3049.0,4095.0,2789.0,4095.0,3042.0,3309.0,3461.0,3.01,4.55,7.9,-1.39,0.29,3.25,1.0,z
2924.0,3049.0,4095.0,2769.0,4095.0,3023.0,3293.0,3439.0,7.92,7.06,10.33,-1.1,0.62,2.32,1.0,z
2926.0,3046.0,4095.0,2724.0,4095.0,3035.0,3327.0,3431.0,9.39,9.75,8.52,-0.78,0.26,-0.54,1.0,z
2907.0,3021.0,4095.0,2736.0,4095.0,3007.0,3271.0,3394.0,6.57,5.92,8.41,-0.36,-0.49,-1.69,1.0,z
2928.0,3046.0,4095.0,2746.0,4095.0,3037.0,3320.0,3452.0,5.0,4.83,6.93,-0.54,-1.01,-2.99,1.0,z
2930.0,3038.0,4095.0,2742.0,4095.0,3045.0,3317.0,3451.0,2.25,3.13,9.0,-1.06,-2.18,-3.26,1.0,z
2930.0,3049.0,4095.0,2723.0,4095.0,3029.0,3302.0,3396.0,-3.15,0.0,11.55,-1.29,-0.2,-2.04,1.0,z
2945.0,3049.0,4095.0,2736.0,4095.0,3043.0,3311.0,3419.0,-4.2,0.09,12.24,-0.45,-0.42,-0.79,1.0,z
2941.0,3038.0,4095.0,2736.0,4095.0,3035.0,3303.0,3412.0,-1.81,2.93,9.46,-0.08,-0.24,-0.11,1.0,z
2938.0,3056.0,4095.0,2750.0,4095.0,3053.0,3312.0,3428.0,-0.64,3.29,9.58,-0.3,0.02,0.06,1.0,z
2933.0,3056.0,4095.0,2747.0,4095.0,3053.0,3313.0,3433.0,-0.93,2.02,10.58,-0.06,0.52,0.86,1.0,z
2940.0,3056.0,4095.0,2745.0,4095.0,3061.0,3311.0,3422.0,2.22,3.51,9.69,0.3,-0.1,0.66,1.0,z
2938.0,3051.0,4095.0,2753.0,4095.0,3070.0,3334.0,3439.0,1.92,3.32,9.92,0.15,0.33,0.43,1.0,z
2929.0,3059.0,4095.0,2757.0,4095.0,3067.0,3322.0,3427.0,0.62,3.95,9.7,0.11,0.17,0.36,1.0,z
2928.0,3047.0,4095.0,2752.0,4095.0,3052.0,3305.0,3421.0,-4.39,8.73,19.2,1.46,1.03,0.96,1.0,z
2897.0,3017.0,4015.0,2729.0,4095.0,2992.0,3247.0,3378.0,-5.2,1.94,8.69,3.55,0.41,1.9,1.0,z
2925.0,3041.0,4095.0,2737.0,4095.0,3013.0,3294.0,3419.0,4.2,3.09,3.38,2.77,0.47,2.31,1.0,z
2929.0,3058.0,4095.0,2654.0,4095.0,3034.0,3334.0,3393.0,11.55,6.46,0.64,2.07,-0.27,-0.0,1.0,z
2930.0,3057.0,4095.0,2619.0,4095.0,3056.0,3360.0,3306.0,14.72,9.08,-3.0,0.22,-1.47,-2.43,1.0,z
2945.0,3063.0,4095.0,2672.0,4095.0,3057.0,3350.0,3378.0,6.51,3.2,4.1,-1.62,-1.81,-3.38,1.0,z
2929.0,3051.0,4095.0,2719.0,4095.0,3027.0,3267.0,3374.0,-10.34,-0.38,5.07,-1.29,-1.14,-2.07,1.0,z
2940.0,3056.0,4016.0,2783.0,4095.0,3056.0,3298.0,3314.0,-16.9,0.41,4.48,-1.67,-0.39,1.28,1.0,z
2933.0,3049.0,4095.0,2751.0,4095.0,3023.0,3286.0,3404.0,-3.75,0.31,6.12,-2.2,0.2,4.44,1.0,z
2928.0,3059.0,4095.0,2642.0,4095.0,3059.0,3341.0,3354.0,19.05,9.52,10.42,-0.76,-0.08,1.97,1.0,z
2935.0,3056.0,4095.0,2678.0,4095.0,3067.0,3359.0,3389.0,12.46,8.27,8.26,-3.03,0.91,-2.73,1.0,z
2932.0,3056.0,4095.0,2734.0,4095.0,3043.0,3294.0,3419.0,-2.04,-0.33,10.97,-0.84,-0.64,-3.9,1.0,z
2930.0,3056.0,4095.0,2759.0,4095.0,3057.0,3309.0,3415.0,-6.53,-1.51,11.58,-0.55,0.14,-1.3,1.0,z
2926.0,3050.0,4095.0,2762.0,4095.0,3055.0,3306.0,3440.0,-3.04,1.66,9.62,0.16,-0.3,-0.19,1.0,z
2933.0,3053.0,4095.0,2770.0,4095.0,3057.0,3322.0,3458.0,-0.75,2.73,9.58,-0.23,0.35,0.23,1.0,z
2929.0,3050.0,4095.0,2753.0,4095.0,3051.0,3314.0,3445.0,0.05,3.09,9.89,-0.35,0.08,0.2,1.0,z
2923.0,3039.0,4095.0,2690.0,4095.0,3019.0,3308.0,3399.0,10.22,11.04,3.86,-0.12,-0.84,-1.67,1.0,z
2934.0,3062.0,4095.0,2735.0,4095.0,3019.0,3307.0,3424.0,4.49,7.26,5.66,-0.25,-0.53,-3.06,1.0,z
2934.0,3053.0,4095.0,2755.0,4095.0,3008.0,3298.0,3454.0,-2.67,5.51,3.33,-0.28,0.06,-3.0,1.0,z
2928.0,3056.0,4095.0,2765.0,4095.0,2982.0,3254.0,3427.0,-8.83,3.77,3.15,-0.89,-0.7,-1.83,1.0,z
2937.0,3058.0,4044.0,2798.0,4095.0,3003.0,3259.0,3419.0,-12.45,1.45,5.84,-0.11,-0.22,-0.17,1.0,z
2934.0,3049.0,4071.0,2798.0,4095.0,2986.0,3261.0,3424.0,-8.5,3.06,3.92,-0.53,0.04,2.18,1.0,z
2939.0,3054.0,4095.0,2791.0,4095.0,3007.0,3280.0,3442.0,-3.28,2.96,6.3,-1.29,0.41,3.61,1.0,z
2928.0,3043.0,4095.0,2743.0,4095.0,3007.0,3291.0,3431.0,5.25,4.66,9.74,-0.86,0.73,3.19,1.0,z
2931.0,3056.0,4095.0,2686.0,4095.0,3003.0,3310.0,3405.0,10.07,10.09,8.87,-0.29,0.31,1.11,1.0,z
2923.0,3043.0,4095.0,2679.0,4095.0,2999.0,3313.0,3403.0,8.67,8.47,7.95,-0.72,0.51,-0.58,1.0,z
2871.0,3019.0,4095.0,2679.0,4095.0,2983.0,3269.0,3349.0,6.75,6.56,6.45,-0.41,-0.89,-2.36,1.0,z
2930.0,3045.0,4095.0,2698.0,4095.0,3049.0,3342.0,3422.0,4.12,3.84,8.41,0.09,-3.04,-3.83,1.0,z
2929.0,3046.0,4095.0,2704.0,4095.0,3091.0,3339.0,3319.0,-1.76,2.72,11.99,-1.18,-1.15,-1.86,1.0,z
2934.0,3055.0,4095.0,2735.0,4095.0,3107.0,3341.0,3414.0,-2.46,3.12,11.58,-0.06,-0.41,-0.88,1.0,z
2928.0,3044.0,4095.0,2730.0,4095.0,3095.0,3342.0,3409.0,-0.5,5.31,8.71,-0.19,-0.18,-0.07,1.0,z
2932.0,3054.0,4095.0,2745.0,4095.0,3109.0,3351.0,3425.0,-0.68,4.88,8.49,-0.36,0.26,0.19,1.0,z
2939.0,3056.0,4095.0,2727.0,4095.0,3102.0,3345.0,3418.0,0.74,5.66,8.83,-0.24,0.07,0.08,1.0,z
2939.0,3063.0,4095.0,2736.0,4095.0,3098.0,3351.0,3438.0,0.99,5.32,9.24,-0.08,-0.2,0.03,1.0,z
2942.0,3046.0,4095.0,2734.0,4095.0,3092.0,3341.0,3424.0,0.73,4.72,9.6,-0.18,-0.02,0.01,1.0,z
2940.0,3061.0,4095.0,2736.0,4095.0,3089.0,3340.0,3424.0,1.01,4.9,9.15,-0.11,-0.04,0.1,1.0,z
2930.0,3463.0,2802.0,2768.0,4095.0,2791.0,3199.0,3322.0,1.69,8.23,5.24,0.08,-0.02,0.28,1.0,z
2940.0,3471.0,2755.0,2753.0,4095.0,2797.0,3205.0,3339.0,8.0,10.07,4.55,0.28,-0.48,-0.63,1.0,z
2944.0,3470.0,2743.0,2768.0,4095.0,2809.0,3211.0,3355.0,6.9,9.57,5.04,0.1,-0.9,-2.05,1.0,z
2930.0,3467.0,2768.0,2799.0,4095.0,2814.0,3189.0,3337.0,0.27,6.54,5.83,-0.19,-1.39,-2.64,1.0,z
2928.0,3455.0,2829.0,2835.0,4095.0,2815.0,3195.0,3120.0,-6.29,4.28,7.03,-0.07,-1.13,-1.96,1.0,z
2931.0,3463.0,2819.0,2850.0,4095.0,2810.0,3195.0,3249.0,-9.1,4.91,4.59,-0.27,-0.46,-0.69,1.0,z
2937.0,3473.0,2842.0,2866.0,4095.0,2811.0,3209.0,3264.0,-8.8,3.84,4.54,-0.58,0.14,0.85,1.0,z
2929.0,3447.0,2813.0,2831.0,4095.0,2806.0,3217.0,3264.0,-4.78,2.7,5.01,-1.34,0.05,2.39,1.0,z
2934.0,3454.0,2778.0,2832.0,4095.0,2811.0,3223.0,3308.0,4.14,2.93,12.61,-1.43,0.74,3.92,1.0,z
2927.0,3451.0,2672.0,2790.0,4095.0,2820.0,3223.0,3335.0,9.95,8.05,10.85,-0.3,1.16,2.16,1.0,z
2953.0,3472.0,2699.0,2795.0,4095.0,2822.0,3230.0,3344.0,8.49,9.71,7.47,-0.27,0.43,0.53,1.0,z
2926.0,3456.0,2622.0,2787.0,4095.0,2825.0,3235.0,3361.0,7.14,7.35,7.49,-0.48,-0.77,-1.25,1.0,z
2933.0,3451.0,2633.0,2819.0,4095.0,2843.0,3245.0,3397.0,5.46,4.72,8.36,-0.54,-1.18,-2.82,1.0,z
2934.0,3449.0,2608.0,2817.0,4095.0,2832.0,3215.0,3379.0,1.73,3.7,6.85,-0.7,-1.39,-3.29,1.0,z
2947.0,3462.0,2591.0,2819.0,4095.0,2797.0,3214.0,3321.0,-2.71,-1.93,13.77,-1.7,-0.39,-1.96,1.0,z
2942.0,3471.0,2618.0,2832.0,4095.0,2810.0,3232.0,3329.0,-2.34,1.12,12.12,-0.37,-0.2,-0.64,1.0,z
2934.0,3453.0,2596.0,2832.0,4095.0,2813.0,3241.0,3367.0,-0.56,2.75,10.19,-0.16,0.18,-0.06,1.0,z
2933.0,3456.0,2559.0,2839.0,4095.0,2817.0,3234.0,3414.0,0.21,3.54,9.38,-0.3,0.13,0.26,1.0,z
2926.0,3439.0,2544.0,2837.0,4095.0,2817.0,3234.0,3411.0,0.0,3.05,10.14,-0.24,0.12,0.01,1.0,z
2931.0,3459.0,2559.0,2864.0,4095.0,2817.0,3242.0,3435.0,0.53,2.93,9.79,-0.02,-0.13,0.08,1.0,z
2927.0,3434.0,2559.0,2864.0,4095.0,2854.0,3238.0,3465.0,3.3,9.07,4.1,-0.02,-0.07,-0.08,1.0,z
2927.0,3470.0,2544.0,2834.0,4095.0,2855.0,3242.0,3466.0,5.53,9.79,3.45,-0.15,-0.4,-0.47,1.0,z
2913.0,3407.0,2506.0,2809.0,4095.0,2832.0,3216.0,3435.0,5.93,9.7,4.4,-0.24,-1.08,-1.54,1.0,z
2930.0,3441.0,2513.0,2849.0,4095.0,2868.0,3248.0,3488.0,2.63,7.76,4.34,-0.24,-1.19,-2.43,1.0,z
2928.0,3449.0,2529.0,2833.0,4095.0,2864.0,3230.0,3467.0,-1.36,6.51,5.24,-0.73,-0.68,-1.74,1.0,z
2931.0,3436.0,2542.0,2848.0,4095.0,2870.0,3235.0,3470.0,-4.91,4.47,7.05,-0.8,-0.42,-1.63,1.0,z
2935.0,3449.0,2597.0,2850.0,4095.0,2864.0,3242.0,3434.0,-9.24,3.61,6.17,-0.52,0.4,-0.32,1.0,z
2925.0,3441.0,2623.0,2859.0,4095.0,2860.0,3231.0,3371.0,-7.75,3.61,6.01,-0.4,-0.3,1.5,1.0,z
2927.0,3450.0,2634.0,2876.0,4095.0,2864.0,3237.0,3449.0,-1.86,4.22,7.33,-0.2,0.07,2.83,1.0,z
2928.0,3439.0,2511.0,2853.0,4095.0,2864.0,3233.0,3506.0,2.91,5.42,7.09,-0.19,0.47,2.94,1.0,z
2884.0,3390.0,2410.0,2809.0,4095.0,2833.0,3194.0,3443.0,7.13,6.37,8.89,-0.5,0.9,2.0,1.0,z
2926.0,3442.0,2384.0,2800.0,4095.0,2871.0,3251.0,3474.0,11.47,10.5,8.33,-0.14,0.44,0.03,1.0,z
2923.0,3424.0,2388.0,2800.0,4095.0,2879.0,3235.0,3495.0,5.53,7.97,7.3,-0.47,0.08,-0.98,1.0,z
2902.0,3408.0,2411.0,2779.0,4095.0,2851.0,3207.0,3467.0,4.59,5.62,7.28,-0.5,-0.54,-1.9,1.0,z
2915.0,3414.0,2416.0,2797.0,4095.0,2879.0,3225.0,3485.0,2.97,4.3,8.52,-0.77,-0.93,-2.88,1.0,z
2928.0,3435.0,2430.0,2823.0,4095.0,2879.0,3237.0,3511.0,-0.86,2.99,9.41,-0.8,-0.67,-2.72,1.0,z
2928.0,3409.0,2485.0,2837.0,4095.0,2882.0,3238.0,3450.0,-3.59,1.4,10.81,-0.77,-0.26,-1.49,1.0,z
2922.0,3414.0,2469.0,2846.0,4095.0,2881.0,3239.0,3472.0,-3.16,2.2,10.43,-0.17,-0.26,-0.41,1.0,z
2931.0,3414.0,2457.0,2842.0,4095.0,2880.0,3245.0,3495.0,-1.73,3.4,9.53,-0.16,0.08,0.06,1.0,z
2931.0,3427.0,2467.0,2854.0,4095.0,2881.0,3243.0,3498.0,-1.02,3.6,9.5,-0.26,0.14,0.22,1.0,z
2928.0,3430.0,2491.0,2834.0,4095.0,2887.0,3252.0,3536.0,6.28,9.85,1.82,-0.28,-0.09,-0.59,1.0,z
2923.0,3424.0,2459.0,2832.0,4095.0,2895.0,3243.0,3529.0,7.16,10.11,3.47,-0.55,-0.63,-1.65,1.0,z
2948.0,3431.0,2446.0,2842.0,4095.0,2898.0,3259.0,3555.0,3.7,8.02,5.08,-0.22,-0.57,-2.47,1.0,z
2931.0,3410.0,2454.0,2847.0,4095.0,2893.0,3238.0,3546.0,-1.6,6.63,4.1,-0.85,0.12,-2.35,1.0,z
2930.0,3406.0,2469.0,2864.0,4095.0,2896.0,3248.0,3484.0,-6.07,4.24,5.5,-0.94,-0.38,-2.03,1.0,z
2938.0,3401.0,2466.0,2883.0,4095.0,2887.0,3248.0,3358.0,-10.81,2.2,7.1,-0.22,-0.02,-0.96,1.0,z
2930.0,3390.0,2490.0,2885.0,4095.0,2894.0,3249.0,3422.0,-9.88,3.26,5.35,-0.09,-0.07,1.21,1.0,z
2930.0,3409.0,2446.0,2880.0,4095.0,2880.0,3251.0,3451.0,-4.83,3.46,5.13,-0.67,0.04,2.78,1.0,z
2929.0,3391.0,2405.0,2861.0,4095.0,2896.0,3250.0,3529.0,2.8,3.54,8.17,-0.7,-0.13,3.46,1.0,z
2919.0,3361.0,2259.0,2771.0,4095.0,2875.0,3232.0,3475.0,9.91,10.11,8.34,-0.05,1.02,1.02,1.0,z
2925.0,3398.0,2284.0,2806.0,4095.0,2897.0,3250.0,3518.0,5.24,9.02,8.49,-0.98,0.98,0.61,1.0,z
2847.0,3269.0,2202.0,2741.0,4095.0,2832.0,3167.0,3408.0,6.87,8.89,7.33,-0.39,-0.41,-0.74,1.0,z
2915.0,3373.0,2247.0,2806.0,4095.0,2896.0,3247.0,3520.0,6.55,6.8,7.71,-0.61,-1.03,-2.52,1.0,z
2903.0,3352.0,2213.0,2799.0,4095.0,2875.0,3211.0,3504.0,1.62,2.94,8.52,-0.99,-0.69,-3.59,1.0,z
2876.0,3301.0,2142.0,2783.0,4095.0,2829.0,3172.0,3425.0,-4.98,0.3,9.89,-1.06,0.32,-2.16,1.0,z
2886.0,3302.0,2098.0,2819.0,4095.0,2849.0,3193.0,3408.0,-6.06,0.17,10.59,-0.38,0.04,-0.88,1.0,z
2891.0,3309.0,2102.0,2830.0,4095.0,2864.0,3207.0,3440.0,-3.78,2.62,9.29,0.03,-0.1,-0.26,1.0,z
2922.0,3323.0,2106.0,2837.0,4095.0,2880.0,3227.0,3461.0,-2.49,3.42,9.28,-0.21,0.02,0.05,1.0,z
2928.0,3360.0,2112.0,2856.0,4095.0,2897.0,3249.0,3491.0,-2.3,2.95,9.56,-0.21,-0.01,0.11,1.0,z
2929.0,3383.0,2121.0,2866.0,4095.0,2905.0,3265.0,3502.0,-1.72,2.95,9.82,-0.19,0.04,0.08,1.0,z
2928.0,3376.0,2190.0,2846.0,4095.0,2895.0,3255.0,3547.0,3.22,9.17,1.55,0.23,0.05,0.66,1.0,z
2940.0,3379.0,2186.0,2837.0,4095.0,2899.0,3267.0,3537.0,5.2,10.3,1.18,0.07,-0.11,0.31,1.0,z
2925.0,3381.0,2172.0,2800.0,4095.0,2894.0,3253.0,3497.0,6.8,10.88,0.88,-0.35,-0.19,-1.04,1.0,z
2944.0,3403.0,2178.0,2819.0,4095.0,2911.0,3271.0,3541.0,5.94,9.97,1.66,-0.38,-0.74,-2.37,1.0,z
2926.0,3383.0,2187.0,2825.0,4095.0,2905.0,3263.0,3548.0,1.97,7.31,1.88,-0.94,-0.6,-3.11,1.0,z
2933.0,3393.0,2253.0,2854.0,4095.0,2910.0,3265.0,3506.0,-5.26,2.68,5.45,-1.42,-0.78,-2.52,1.0,z
2937.0,3378.0,2487.0,2879.0,4095.0,2909.0,3252.0,3405.0,-11.31,1.0,8.2,-0.68,0.03,-1.19,1.0,z
2942.0,3375.0,2507.0,2887.0,4095.0,2911.0,3265.0,3473.0,-11.15,2.84,5.44,-0.03,-0.52,0.73,1.0,z
2939.0,3383.0,2499.0,2894.0,4095.0,2910.0,3265.0,3498.0,-6.73,2.48,5.59,-0.3,-0.87,2.32,1.0,z
2927.0,3369.0,2415.0,2886.0,4095.0,2907.0,3255.0,3513.0,-1.28,1.84,5.91,-0.21,-0.62,3.91,1.0,z
2907.0,3342.0,2212.0,2798.0,4095.0,2875.0,3222.0,3449.0,9.57,5.68,8.17,-0.26,0.32,3.7,1.0,z
2935.0,3374.0,2096.0,2765.0,4095.0,2915.0,3281.0,3514.0,13.37,11.49,6.36,-0.57,0.94,1.47,1.0,z
2937.0,3367.0,2106.0,2778.0,4095.0,2927.0,3293.0,3556.0,9.52,9.11,6.06,-0.44,-0.17,-1.19,1.0,z
2931.0,3368.0,2062.0,2779.0,4095.0,2910.0,3259.0,3526.0,7.51,5.72,5.78,-0.89,-0.25,-3.11,1.0,z
2953.0,3371.0,2090.0,2807.0,4095.0,2917.0,3263.0,3549.0,4.01,2.42,6.84,-1.49,-1.1,-4.13,1.0,z
2935.0,3354.0,2096.0,2826.0,4095.0,2911.0,3248.0,3542.0,-2.81,0.67,10.17,-1.5,-0.58,-2.85,1.0,z
2934.0,3338.0,2143.0,2851.0,4095.0,2909.0,3258.0,3541.0,-4.78,-0.03,11.32,-0.82,0.07,-1.19,1.0,z
2934.0,3330.0,2151.0,2855.0,4095.0,2906.0,3267.0,3568.0,-3.46,1.92,10.35,-0.27,-0.12,-0.22,1.0,z
2933.0,3351.0,1840.0,2864.0,4095.0,2917.0,3221.0,3378.0,-1.8,3.12,10.71,0.1,-0.32,0.14,1.0,z
2928.0,3355.0,1785.0,2857.0,4095.0,2908.0,3200.0,3376.0,-0.58,3.11,9.38,-0.02,-0.17,0.17,1.0,z
