hall_1,hall_2,hall_3,flex_t,flex_i,flex_m,flex_r,flex_p,accel_x,accel_y,accel_z,gyro_x,gyro_y,gyro_z,sign
2953.0,907.0,944.0,4095.0,4095.0,2367.0,2617.0,2559.0,-0.23,9.35,7.05,-0.1,-0.02,-0.16,z
2951.0,902.0,941.0,4095.0,4095.0,2364.0,2621.0,2582.0,0.55,9.34,7.47,-0.09,-0.05,-0.1,z
2946.0,907.0,950.0,4095.0,4095.0,2364.0,2624.0,2559.0,0.8,9.13,8.03,-0.03,0.01,-0.2,z
2946.0,905.0,944.0,4095.0,4095.0,2367.0,2615.0,2559.0,0.53,9.15,8.17,0.01,-0.01,-0.28,z
2938.0,912.0,945.0,4095.0,4095.0,2363.0,2623.0,2586.0,-0.93,9.12,8.75,0.12,0.09,-0.32,z
2943.0,898.0,946.0,4095.0,4095.0,2365.0,2623.0,2583.0,-2.28,8.91,9.48,0.19,0.42,-0.21,z
2949.0,901.0,946.0,4095.0,4095.0,2366.0,2620.0,2559.0,-5.43,8.78,9.94,0.29,0.81,0.02,z
2960.0,910.0,947.0,4095.0,4095.0,2370.0,2622.0,2559.0,-4.47,8.13,9.6,0.26,1.0,0.63,z
2955.0,903.0,944.0,4095.0,4095.0,2367.0,2621.0,2559.0,-1.47,7.45,8.57,0.22,1.04,0.85,z
2947.0,903.0,944.0,4095.0,4095.0,2368.0,2614.0,2556.0,3.9,7.38,5.55,0.08,1.34,0.87,z
2942.0,902.0,947.0,4095.0,4095.0,2368.0,2619.0,2531.0,6.85,8.43,4.13,-0.1,0.85,0.81,z
2951.0,900.0,944.0,4095.0,4095.0,2361.0,2612.0,2519.0,9.97,8.19,2.94,-0.14,0.49,0.3,z
2955.0,896.0,949.0,4095.0,4095.0,2365.0,2614.0,2525.0,8.52,8.81,1.49,-0.67,-0.33,-0.56,z
2949.0,902.0,946.0,4095.0,4095.0,2367.0,2612.0,2544.0,5.16,7.7,5.15,-1.2,-0.32,-0.98,z
2948.0,911.0,943.0,4095.0,4095.0,2369.0,2618.0,2546.0,2.55,8.32,9.06,-1.03,-0.97,-0.56,z
2955.0,906.0,941.0,4095.0,4095.0,2365.0,2613.0,2544.0,1.79,7.76,10.72,-0.9,-1.31,-0.56,z
2945.0,908.0,949.0,4095.0,4095.0,2368.0,2617.0,2532.0,-1.64,8.13,13.57,-0.56,-0.74,-0.59,z
2945.0,903.0,935.0,4095.0,4095.0,2363.0,2609.0,2527.0,-4.06,9.68,15.65,-0.34,-0.32,-0.5,z
2951.0,908.0,939.0,4095.0,4095.0,2366.0,2611.0,2531.0,-5.15,9.06,14.22,0.37,0.02,-0.11,z
2955.0,906.0,937.0,4095.0,4095.0,2368.0,2615.0,2540.0,-3.7,7.5,11.45,0.24,-0.31,0.33,z
2946.0,903.0,941.0,4095.0,4095.0,2375.0,2625.0,2559.0,1.43,9.24,6.94,-0.05,0.09,-0.06,z
2946.0,908.0,939.0,4095.0,4095.0,2372.0,2623.0,2559.0,1.54,9.28,7.21,-0.02,-0.03,-0.1,z
2946.0,908.0,934.0,4095.0,4095.0,2374.0,2630.0,2559.0,1.8,9.1,7.14,0.01,0.1,-0.15,z
2944.0,912.0,943.0,4095.0,4095.0,2379.0,2626.0,2559.0,1.41,9.19,7.27,-0.01,-0.15,-0.18,z
2954.0,915.0,939.0,4095.0,4095.0,2378.0,2624.0,2559.0,1.54,8.26,7.93,-0.04,-0.01,-0.34,z
2939.0,902.0,939.0,4095.0,4095.0,2375.0,2624.0,2559.0,-2.65,8.62,10.29,-0.11,0.7,-0.68,z
2942.0,909.0,944.0,4095.0,4095.0,2381.0,2629.0,2582.0,-6.94,9.8,11.57,0.44,1.11,0.19,z
2946.0,903.0,930.0,4095.0,4095.0,2384.0,2624.0,2585.0,-3.56,9.35,7.86,0.36,1.06,1.2,z
2949.0,896.0,944.0,4095.0,4095.0,2384.0,2633.0,2584.0,2.11,7.64,6.39,0.12,0.62,0.9,z
2943.0,898.0,935.0,4095.0,4095.0,2384.0,2624.0,2558.0,4.33,7.64,5.25,0.33,0.63,0.87,z
2946.0,896.0,945.0,4095.0,4095.0,2384.0,2624.0,2541.0,10.88,6.84,3.54,0.3,0.58,0.55,z
2942.0,898.0,944.0,4095.0,4095.0,2378.0,2624.0,2539.0,10.44,7.27,2.88,0.21,-0.38,-0.45,z
2949.0,903.0,953.0,4095.0,4095.0,2379.0,2620.0,2544.0,9.05,8.61,1.31,-0.31,-0.53,-0.93,z
2943.0,896.0,941.0,4095.0,4095.0,2382.0,2629.0,2550.0,7.24,7.59,2.61,-0.7,-1.03,-1.06,z
2951.0,899.0,944.0,4095.0,4095.0,2380.0,2625.0,2549.0,3.67,6.75,7.04,-1.09,-1.66,-1.45,z
2944.0,907.0,949.0,4095.0,4095.0,2388.0,2630.0,2555.0,-0.69,7.65,11.86,-0.61,-1.23,-1.09,z
2950.0,898.0,931.0,4095.0,4095.0,2383.0,2624.0,2544.0,-5.27,8.75,15.88,-0.27,-0.13,-1.13,z
2947.0,903.0,944.0,4095.0,4095.0,2384.0,2625.0,2546.0,-6.97,10.09,13.59,-0.19,-1.37,-0.16,z
2953.0,898.0,931.0,4095.0,4095.0,2387.0,2626.0,2549.0,-4.08,7.83,12.9,0.01,0.38,0.17,z
2947.0,895.0,923.0,4095.0,4095.0,2392.0,2630.0,2551.0,-3.11,7.74,10.36,-0.2,0.5,0.9,z
2946.0,894.0,931.0,4095.0,4095.0,2390.0,2634.0,2587.0,-0.78,9.07,8.32,-0.1,0.0,-0.2,z
2958.0,894.0,933.0,4095.0,4095.0,2389.0,2634.0,2582.0,-0.13,9.0,7.9,-0.09,0.06,-0.13,z
2945.0,906.0,944.0,4095.0,4095.0,2389.0,2638.0,2590.0,-0.35,8.83,8.01,0.03,0.06,-0.2,z
2954.0,895.0,930.0,4095.0,4095.0,2393.0,2640.0,2587.0,-2.62,8.15,9.54,0.14,0.43,-0.09,z
2944.0,886.0,931.0,4095.0,4095.0,2395.0,2639.0,2588.0,-4.33,7.07,10.88,0.35,0.56,0.28,z
2949.0,895.0,931.0,4095.0,4095.0,2398.0,2640.0,2591.0,-4.57,7.12,11.65,0.52,1.32,0.78,z
2944.0,897.0,931.0,4095.0,4095.0,2400.0,2640.0,2592.0,-0.82,7.33,9.03,0.56,1.01,1.43,z
2945.0,896.0,927.0,4095.0,4095.0,2396.0,2627.0,2559.0,4.1,8.6,3.52,0.79,0.65,1.17,z
2949.0,897.0,945.0,4079.0,4095.0,2389.0,2625.0,2523.0,9.22,9.02,0.61,0.21,0.44,0.97,z
2954.0,883.0,944.0,4048.0,4095.0,2386.0,2621.0,2512.0,11.46,9.87,-1.18,-0.06,-0.53,0.14,z
2948.0,895.0,943.0,4038.0,4095.0,2389.0,2625.0,2535.0,8.57,9.9,0.91,-0.98,-0.8,-0.84,z
2944.0,894.0,930.0,4087.0,4095.0,2398.0,2631.0,2557.0,4.98,8.62,6.2,-1.0,-0.59,-0.96,z
2943.0,891.0,937.0,4095.0,4095.0,2395.0,2636.0,2559.0,1.92,7.31,10.51,-1.03,-1.04,-1.21,z
2955.0,895.0,939.0,4095.0,4095.0,2397.0,2631.0,2559.0,0.85,6.49,10.64,-1.11,-1.42,-1.11,z
2943.0,893.0,934.0,4095.0,4095.0,2393.0,2637.0,2553.0,-3.51,6.63,14.23,-0.86,-0.74,-0.89,z
2951.0,885.0,934.0,4095.0,4095.0,2394.0,2638.0,2551.0,-6.21,8.47,16.19,-0.31,0.02,-0.52,z
2943.0,896.0,930.0,4095.0,4095.0,2397.0,2638.0,2550.0,-5.43,8.69,13.05,0.11,-0.34,0.47,z
2944.0,895.0,932.0,4091.0,4095.0,2399.0,2635.0,2554.0,-1.39,7.11,10.74,0.06,0.09,0.97,z
2947.0,908.0,930.0,4041.0,4095.0,2397.0,2638.0,2559.0,0.17,7.11,10.01,0.31,0.86,1.1,z
2949.0,895.0,919.0,4027.0,4095.0,2405.0,2636.0,2557.0,1.33,8.51,9.22,0.24,1.34,1.26,z
2951.0,914.0,929.0,4095.0,4095.0,2388.0,2634.0,2590.0,-0.63,9.08,7.82,0.08,-0.13,-0.15,z
2944.0,909.0,932.0,4095.0,4095.0,2387.0,2637.0,2595.0,-0.2,9.21,7.36,0.07,-0.05,-0.13,z
2953.0,912.0,939.0,4095.0,4095.0,2385.0,2629.0,2592.0,-1.17,8.83,8.37,0.02,0.09,-0.08,z
2943.0,914.0,937.0,4095.0,4095.0,2385.0,2640.0,2597.0,-3.73,8.5,10.58,0.26,0.49,0.05,z
2957.0,945.0,944.0,4095.0,4095.0,2390.0,2639.0,2599.0,-5.69,8.94,11.64,0.71,0.95,0.74,z
2951.0,959.0,944.0,4095.0,4095.0,2389.0,2633.0,2606.0,-3.0,8.86,8.75,0.64,0.99,1.31,z
2943.0,959.0,938.0,4095.0,4095.0,2390.0,2637.0,2597.0,0.05,8.04,7.34,0.36,0.99,1.24,z
2947.0,963.0,939.0,4095.0,4095.0,2381.0,2623.0,2559.0,3.75,8.1,4.87,0.5,0.81,1.2,z
2943.0,974.0,942.0,4078.0,4095.0,2382.0,2627.0,2550.0,9.66,6.73,3.01,0.12,0.94,0.9,z
2945.0,967.0,949.0,4080.0,4095.0,2383.0,2627.0,2546.0,10.38,6.99,3.36,0.06,0.4,0.1,z
2950.0,970.0,941.0,4074.0,4095.0,2384.0,2625.0,2559.0,9.21,8.05,1.8,-0.25,-0.21,-0.71,z
2943.0,960.0,943.0,4054.0,4095.0,2384.0,2624.0,2559.0,6.66,8.15,2.7,-0.61,-0.76,-1.15,z
2950.0,971.0,938.0,4084.0,4095.0,2382.0,2624.0,2559.0,4.46,7.81,5.01,-1.14,-1.46,-1.45,z
2941.0,971.0,940.0,4086.0,4095.0,2384.0,2631.0,2559.0,-0.13,8.76,10.71,-1.08,-1.17,-1.38,z
2958.0,976.0,930.0,4095.0,4095.0,2386.0,2633.0,2581.0,-4.75,10.43,15.4,-0.15,-0.41,-0.85,z
2953.0,970.0,933.0,4095.0,4095.0,2386.0,2629.0,2588.0,-6.57,9.72,13.6,0.24,-0.46,-0.41,z
2945.0,974.0,940.0,4095.0,4095.0,2391.0,2635.0,2593.0,-2.9,7.46,9.5,0.11,-0.75,0.11,z
2945.0,977.0,937.0,4078.0,4095.0,2393.0,2639.0,2590.0,-4.06,6.61,9.87,0.04,0.81,0.53,z
2947.0,972.0,934.0,4081.0,4095.0,2395.0,2634.0,2589.0,-4.6,8.3,11.44,-0.11,1.14,1.63,z
2950.0,960.0,937.0,4093.0,4095.0,2402.0,2640.0,2594.0,-0.3,8.56,10.76,0.32,1.12,2.02,z
2945.0,957.0,932.0,4095.0,4095.0,2396.0,2641.0,2605.0,-0.28,9.3,7.32,-0.01,0.09,-0.08,z
2954.0,966.0,939.0,4095.0,4095.0,2395.0,2642.0,2602.0,-0.11,8.95,7.64,0.01,0.02,-0.14,z
2943.0,962.0,922.0,4095.0,4095.0,2394.0,2642.0,2603.0,-1.6,8.89,8.01,0.11,0.3,-0.14,z
2956.0,960.0,934.0,4095.0,4095.0,2398.0,2641.0,2599.0,-3.45,8.15,9.87,-0.04,0.54,-0.14,z
2942.0,956.0,938.0,4095.0,4095.0,2403.0,2644.0,2607.0,-5.41,8.46,12.26,0.25,1.5,0.49,z
2941.0,974.0,928.0,4095.0,4095.0,2403.0,2640.0,2605.0,-3.98,8.25,10.22,0.34,0.92,1.13,z
2947.0,960.0,928.0,4095.0,4095.0,2409.0,2640.0,2603.0,-0.01,8.18,6.98,0.23,0.66,1.43,z
2945.0,949.0,934.0,4095.0,4095.0,2401.0,2639.0,2585.0,4.78,7.64,4.55,0.32,0.42,1.33,z
2950.0,947.0,929.0,4091.0,4095.0,2401.0,2627.0,2559.0,11.31,7.47,4.04,0.17,1.24,0.97,z
2954.0,947.0,943.0,4093.0,4095.0,2394.0,2625.0,2557.0,12.35,8.81,0.49,0.54,-0.34,-0.25,z
2935.0,949.0,937.0,4067.0,4095.0,2393.0,2625.0,2559.0,7.12,9.34,0.18,-0.2,-0.25,-1.06,z
2944.0,957.0,934.0,4083.0,4095.0,2399.0,2630.0,2559.0,6.19,7.81,1.43,-0.67,-0.5,-1.06,z
2951.0,947.0,935.0,4095.0,4095.0,2402.0,2640.0,2559.0,2.32,6.4,6.63,-1.22,-1.07,-1.14,z
2948.0,960.0,929.0,4095.0,4095.0,2411.0,2640.0,2590.0,1.13,7.62,9.39,-1.28,-1.52,-0.87,z
2951.0,955.0,925.0,4095.0,4095.0,2407.0,2639.0,2587.0,-4.03,8.08,15.04,-0.66,-0.34,-0.71,z
2942.0,946.0,917.0,4095.0,4095.0,2416.0,2640.0,2587.0,-8.57,10.21,17.98,-0.38,-0.52,-0.33,z
2944.0,937.0,915.0,4095.0,4095.0,2416.0,2645.0,2590.0,-7.89,9.44,16.71,-0.66,0.17,0.28,z
2949.0,945.0,918.0,4095.0,4095.0,2416.0,2645.0,2591.0,-3.17,6.19,9.55,0.54,-0.67,1.66,z
2954.0,950.0,938.0,4095.0,4095.0,2416.0,2640.0,2581.0,1.13,4.81,8.6,0.04,1.19,1.79,z
2945.0,943.0,929.0,4093.0,4095.0,2416.0,2641.0,2559.0,2.02,6.44,8.79,0.34,1.27,1.95,z
2945.0,942.0,928.0,4095.0,4095.0,2415.0,2650.0,2607.0,0.36,8.76,8.42,-0.14,-0.09,-0.29,z
2957.0,944.0,923.0,4095.0,4095.0,2410.0,2644.0,2598.0,-0.04,8.81,8.8,-0.13,0.12,-0.22,z
2941.0,952.0,928.0,4095.0,4095.0,2415.0,2651.0,2606.0,-0.44,8.91,9.34,-0.18,0.03,-0.22,z
2944.0,949.0,927.0,4095.0,4095.0,2415.0,2653.0,2606.0,-3.17,8.52,13.15,0.22,0.83,-0.11,z
2944.0,948.0,921.0,4095.0,4095.0,2413.0,2647.0,2607.0,-2.99,8.57,12.66,0.72,1.18,0.58,z
2950.0,942.0,916.0,4095.0,4095.0,2416.0,2655.0,2609.0,-2.37,8.07,11.14,0.83,1.3,1.07,z
2947.0,944.0,929.0,4095.0,4095.0,2413.0,2651.0,2596.0,-0.05,8.08,8.79,1.04,1.35,1.6,z
2939.0,943.0,931.0,4095.0,4095.0,2414.0,2649.0,2559.0,5.94,7.24,4.29,1.15,0.24,1.59,z
2955.0,929.0,930.0,4086.0,4095.0,2406.0,2638.0,2543.0,10.8,6.85,0.3,0.98,0.19,1.0,z
2943.0,931.0,938.0,4048.0,4095.0,2401.0,2638.0,2539.0,12.57,8.15,-3.84,0.21,-0.63,-0.25,z
2960.0,927.0,939.0,4073.0,4095.0,2406.0,2637.0,2545.0,8.56,7.87,-1.7,-1.08,-0.38,-1.32,z
2943.0,928.0,936.0,4095.0,4095.0,2414.0,2640.0,2559.0,6.26,5.87,4.2,-1.71,-0.67,-1.49,z
2957.0,927.0,934.0,4087.0,4095.0,2411.0,2647.0,2559.0,2.11,6.12,9.16,-1.58,-0.58,-1.88,z
2941.0,926.0,929.0,4095.0,4095.0,2416.0,2653.0,2589.0,-1.13,7.15,13.71,-1.45,-0.9,-1.66,z
2951.0,934.0,922.0,4095.0,4095.0,2416.0,2650.0,2592.0,-6.52,9.13,17.59,-0.2,-0.33,-1.0,z
2944.0,933.0,919.0,4095.0,4095.0,2418.0,2649.0,2595.0,-7.0,9.1,15.46,0.43,-0.41,0.03,z
2943.0,923.0,922.0,4095.0,4095.0,2418.0,2653.0,2596.0,-4.55,7.91,12.1,0.67,0.27,0.67,z
2955.0,930.0,925.0,4095.0,4095.0,2416.0,2655.0,2592.0,-1.73,6.83,9.5,0.59,0.76,1.3,z
2939.0,927.0,926.0,4095.0,4095.0,2418.0,2653.0,2582.0,0.14,6.89,8.4,0.65,1.3,1.63,z
2943.0,922.0,926.0,4095.0,4095.0,2416.0,2652.0,2559.0,5.06,8.52,5.67,0.4,1.42,1.88,z
2954.0,927.0,919.0,4095.0,4095.0,2407.0,2645.0,2591.0,0.03,9.21,7.73,-0.06,-0.12,-0.22,z
2954.0,927.0,919.0,4095.0,4095.0,2407.0,2645.0,2591.0,0.03,9.21,7.73,-0.06,-0.12,-0.22,z
2951.0,930.0,923.0,4095.0,4095.0,2413.0,2651.0,2593.0,-0.12,9.03,8.21,-0.09,-0.11,-0.32,z
2953.0,941.0,923.0,4095.0,4095.0,2411.0,2646.0,2593.0,-2.9,9.22,10.81,0.28,0.11,-0.42,z
2945.0,938.0,935.0,4095.0,4095.0,2417.0,2655.0,2599.0,-7.0,8.38,13.77,0.45,1.1,-0.05,z
2951.0,934.0,937.0,4095.0,4095.0,2423.0,2651.0,2587.0,-8.18,7.55,14.04,0.94,0.64,0.73,z
2947.0,922.0,926.0,4095.0,4095.0,2421.0,2640.0,2583.0,-4.89,7.58,10.19,0.74,0.53,1.0,z
2943.0,910.0,933.0,4017.0,4095.0,2426.0,2649.0,2592.0,3.17,7.86,5.31,0.72,-0.78,0.93,z
2937.0,901.0,926.0,3998.0,4095.0,2426.0,2646.0,2559.0,0.48,6.72,4.13,0.76,0.74,1.42,z
2950.0,885.0,934.0,4011.0,4095.0,2425.0,2643.0,2555.0,10.99,5.18,-0.23,0.84,1.76,1.54,z
2948.0,893.0,937.0,3991.0,4095.0,2418.0,2640.0,2543.0,14.33,7.42,-3.03,0.33,0.51,0.63,z
2942.0,889.0,955.0,3980.0,4095.0,2417.0,2641.0,2544.0,12.77,7.96,-4.7,-0.17,-0.19,-0.49,z
2943.0,895.0,947.0,4005.0,4095.0,2425.0,2650.0,2550.0,9.53,6.98,-1.51,-0.97,0.13,-1.23,z
2944.0,889.0,935.0,4027.0,4095.0,2425.0,2656.0,2559.0,5.68,6.08,2.53,-1.21,-0.82,-1.22,z
2946.0,885.0,931.0,4027.0,4095.0,2427.0,2655.0,2585.0,2.38,7.46,4.77,-1.11,-1.56,-1.15,z
2951.0,890.0,921.0,4073.0,4095.0,2426.0,2655.0,2583.0,-3.32,6.01,13.85,-1.98,-0.51,-1.1,z
2959.0,890.0,913.0,4085.0,4095.0,2425.0,2654.0,2553.0,-10.15,7.84,20.22,-1.07,-0.97,-0.91,z
2957.0,886.0,917.0,4055.0,4095.0,2420.0,2662.0,2555.0,-10.21,6.74,19.16,-0.71,-0.86,0.43,z
2957.0,891.0,921.0,4015.0,4095.0,2420.0,2652.0,2555.0,-6.52,5.35,15.21,-0.22,-0.13,1.67,z
2941.0,896.0,924.0,3941.0,4095.0,2427.0,2654.0,2559.0,0.83,4.4,11.55,-0.07,0.22,2.49,z
2951.0,896.0,926.0,4095.0,4095.0,2421.0,2669.0,2608.0,0.51,9.03,7.49,-0.07,0.16,-0.28,z
2944.0,886.0,919.0,4095.0,4095.0,2420.0,2661.0,2608.0,-0.55,9.34,7.46,-0.01,-0.17,-0.33,z
2958.0,911.0,921.0,4095.0,4095.0,2420.0,2667.0,2608.0,-1.54,9.03,9.83,-0.0,0.22,-0.13,z
2955.0,897.0,919.0,4095.0,4095.0,2428.0,2671.0,2608.0,-4.48,8.6,14.06,0.98,0.97,0.5,z
2938.0,899.0,916.0,4095.0,4095.0,2426.0,2669.0,2608.0,-3.59,7.71,11.77,2.02,0.64,1.38,z
2950.0,902.0,922.0,4095.0,4095.0,2423.0,2671.0,2607.0,-0.52,7.95,6.0,2.36,0.86,1.85,z
2950.0,899.0,931.0,4083.0,4095.0,2418.0,2657.0,2551.0,6.74,7.95,-1.11,1.52,-0.43,1.76,z
2947.0,896.0,927.0,4012.0,4095.0,2409.0,2640.0,2515.0,10.49,7.88,-4.49,0.56,0.04,0.23,z
2951.0,893.0,931.0,4019.0,4095.0,2407.0,2645.0,2523.0,9.7,7.73,-4.62,-0.79,-0.07,-0.78,z
2943.0,897.0,922.0,4042.0,4095.0,2416.0,2655.0,2550.0,5.97,7.0,-0.66,-1.83,0.18,-1.59,z
2943.0,894.0,928.0,4055.0,4095.0,2419.0,2662.0,2583.0,3.12,5.55,5.17,-2.43,0.15,-1.91,z
2943.0,907.0,922.0,4086.0,4095.0,2421.0,2666.0,2586.0,-2.85,6.8,13.66,-2.09,0.17,-2.08,z
2954.0,912.0,912.0,4095.0,4095.0,2419.0,2663.0,2587.0,-9.36,9.5,19.2,0.02,0.62,-0.77,z
2948.0,897.0,915.0,4095.0,4095.0,2419.0,2657.0,2587.0,-7.12,9.42,14.02,0.9,-0.58,0.5,z
2953.0,893.0,919.0,4095.0,4095.0,2425.0,2669.0,2594.0,-3.36,7.73,9.45,1.29,-0.2,1.1,z
2947.0,887.0,928.0,4082.0,4095.0,2419.0,2663.0,2559.0,-2.49,7.09,7.35,1.4,0.61,1.75,z
2949.0,905.0,912.0,4081.0,4095.0,2422.0,2660.0,2559.0,0.45,7.5,4.04,1.35,0.45,2.35,z
2944.0,891.0,912.0,4079.0,4095.0,2423.0,2659.0,2559.0,7.19,8.32,0.84,0.97,0.65,1.98,z
2946.0,891.0,919.0,4063.0,4095.0,2416.0,2656.0,2544.0,10.94,9.06,1.0,0.12,-0.06,1.04,z
2951.0,896.0,925.0,4055.0,4095.0,2416.0,2655.0,2528.0,8.88,9.44,2.96,0.06,0.21,0.05,z
2943.0,1434.0,921.0,4095.0,4095.0,2405.0,2667.0,2598.0,0.63,8.96,8.05,0.06,-0.02,-0.18,z
2945.0,1471.0,914.0,4095.0,4095.0,2406.0,2670.0,2597.0,0.77,9.35,7.63,0.01,0.06,-0.19,z
2941.0,1481.0,917.0,4095.0,4095.0,2409.0,2665.0,2599.0,0.08,9.33,8.2,0.03,-0.12,-0.26,z
2950.0,1575.0,917.0,4095.0,4095.0,2405.0,2659.0,2599.0,-1.57,9.5,9.09,0.21,0.31,-0.21,z
2945.0,1613.0,914.0,4095.0,4095.0,2411.0,2661.0,2606.0,-3.16,9.4,8.76,0.37,0.56,0.16,z
2944.0,1600.0,933.0,4095.0,4095.0,2413.0,2661.0,2601.0,-3.01,8.85,8.75,0.13,0.87,0.69,z
2960.0,1605.0,912.0,4095.0,4095.0,2411.0,2660.0,2601.0,-1.49,8.91,9.69,0.12,1.01,0.84,z
2944.0,1584.0,923.0,4095.0,4095.0,2414.0,2666.0,2604.0,-1.23,8.56,10.59,0.39,1.38,0.98,z
2949.0,1579.0,926.0,4095.0,4095.0,2416.0,2658.0,2594.0,1.42,8.23,8.88,0.55,1.28,1.03,z
2958.0,1531.0,928.0,4080.0,4095.0,2416.0,2658.0,2589.0,2.99,7.58,7.6,0.43,1.14,0.94,z
2951.0,1431.0,930.0,4070.0,4095.0,2415.0,2650.0,2559.0,5.4,7.96,5.83,0.32,1.1,0.78,z
2949.0,1350.0,928.0,4041.0,4095.0,2411.0,2650.0,2547.0,9.31,7.12,4.15,0.17,0.51,0.71,z
2941.0,1329.0,926.0,4005.0,4095.0,2407.0,2643.0,2541.0,11.66,6.37,1.5,-0.22,-0.08,-0.09,z
2954.0,1316.0,931.0,4035.0,4095.0,2407.0,2649.0,2541.0,9.71,5.85,1.67,-0.7,-0.67,-0.89,z
2944.0,1345.0,923.0,4031.0,4095.0,2415.0,2655.0,2539.0,5.93,5.39,5.21,-1.34,-0.85,-1.27,z
2951.0,1472.0,926.0,4052.0,4095.0,2421.0,2661.0,2559.0,-0.24,6.12,10.92,-1.08,-0.54,-1.37,z
2953.0,1456.0,910.0,4069.0,4095.0,2422.0,2657.0,2558.0,-5.41,7.89,14.09,-1.18,-1.19,-0.79,z
2949.0,1407.0,921.0,4046.0,4095.0,2417.0,2662.0,2559.0,-6.92,8.62,15.49,-0.58,-0.14,0.21,z
2938.0,1344.0,918.0,4047.0,4095.0,2418.0,2659.0,2559.0,-5.33,8.61,14.47,-0.31,0.03,1.52,z
2946.0,1286.0,923.0,4032.0,4095.0,2421.0,2660.0,2559.0,2.36,7.59,11.19,0.01,-0.03,1.86,z
2945.0,1067.0,916.0,4095.0,4095.0,2426.0,2672.0,2605.0,-0.24,8.89,8.22,-0.02,0.04,-0.16,z
2953.0,1079.0,915.0,4093.0,4095.0,2425.0,2668.0,2607.0,-0.39,8.92,8.45,0.06,0.12,-0.01,z
2945.0,1059.0,914.0,4080.0,4095.0,2429.0,2671.0,2606.0,-0.12,9.3,7.97,0.03,0.17,0.04,z
2939.0,1075.0,912.0,4095.0,4095.0,2432.0,2672.0,2603.0,-0.98,9.37,9.5,-0.01,0.24,-0.06,z
2950.0,1062.0,917.0,4089.0,4095.0,2431.0,2669.0,2607.0,-5.13,9.32,12.99,0.51,0.64,-0.23,z
2954.0,1074.0,923.0,4081.0,4095.0,2436.0,2667.0,2609.0,-5.18,8.98,10.25,1.26,0.61,0.98,z
2945.0,1065.0,929.0,4054.0,4095.0,2436.0,2671.0,2606.0,0.38,7.77,6.59,0.72,1.23,1.46,z
2944.0,994.0,922.0,4039.0,4095.0,2435.0,2671.0,2585.0,4.5,8.25,5.16,0.66,1.45,1.04,z
2953.0,967.0,930.0,4019.0,4095.0,2436.0,2672.0,2559.0,8.33,7.81,3.46,0.24,0.83,0.8,z
2954.0,982.0,927.0,4015.0,4095.0,2435.0,2672.0,2559.0,10.23,7.02,1.05,0.08,0.4,-0.19,z
2944.0,960.0,924.0,4016.0,4095.0,2433.0,2664.0,2559.0,7.93,5.57,-0.98,-0.47,-0.42,-0.68,z
2939.0,962.0,923.0,4018.0,4095.0,2433.0,2668.0,2559.0,5.77,3.25,0.66,-1.29,-1.18,-0.93,z
2951.0,967.0,927.0,4019.0,4095.0,2443.0,2675.0,2559.0,2.31,4.23,7.37,-1.73,-1.33,-0.6,z
2963.0,958.0,913.0,4083.0,4095.0,2445.0,2671.0,2549.0,-3.7,8.07,16.41,-0.82,1.13,-0.79,z
2951.0,944.0,921.0,4062.0,4095.0,2447.0,2673.0,2559.0,-13.42,11.06,20.94,-0.47,0.13,0.5,z
2950.0,930.0,927.0,4012.0,4095.0,2447.0,2672.0,2559.0,-7.14,8.73,14.27,0.05,-0.63,2.53,z
2944.0,921.0,923.0,3984.0,4095.0,2447.0,2674.0,2585.0,3.62,7.32,8.31,0.31,0.3,2.87,z
2942.0,913.0,925.0,3969.0,4095.0,2443.0,2672.0,2559.0,13.55,7.01,6.36,-0.27,1.1,2.0,z
2953.0,912.0,924.0,3965.0,4095.0,2435.0,2672.0,2523.0,13.73,8.2,7.47,0.15,-0.04,0.63,z
2949.0,915.0,919.0,3967.0,4095.0,2440.0,2672.0,2529.0,9.03,8.49,8.46,0.38,0.16,0.21,z
2932.0,912.0,924.0,4073.0,4095.0,2446.0,2678.0,2608.0,0.49,9.35,7.64,0.05,-0.05,-0.22,z
2951.0,913.0,923.0,4081.0,4095.0,2445.0,2683.0,2608.0,0.56,9.2,7.69,-0.0,-0.09,-0.24,z
2955.0,925.0,916.0,4091.0,4095.0,2445.0,2683.0,2608.0,-0.13,9.32,8.27,0.05,0.03,-0.26,z
2944.0,918.0,919.0,4080.0,4095.0,2444.0,2677.0,2607.0,-0.86,9.24,9.05,0.14,0.19,-0.17,z
2942.0,919.0,923.0,4069.0,4095.0,2448.0,2683.0,2608.0,-1.74,9.29,9.94,0.33,0.55,-0.1,z
2951.0,915.0,915.0,4087.0,4095.0,2448.0,2686.0,2612.0,-2.56,9.71,10.29,0.38,0.81,0.02,z
2944.0,917.0,918.0,4070.0,4095.0,2448.0,2673.0,2608.0,-3.62,9.63,11.33,0.42,0.93,-0.1,z
2945.0,912.0,919.0,4050.0,4095.0,2453.0,2678.0,2608.0,-3.36,9.55,9.38,0.68,1.18,0.58,z
2950.0,914.0,922.0,4019.0,4095.0,2452.0,2677.0,2601.0,1.6,7.76,6.11,0.33,0.8,0.53,z
2939.0,901.0,922.0,3979.0,4095.0,2451.0,2674.0,2589.0,2.67,6.63,3.76,0.14,2.01,0.74,z
2948.0,900.0,926.0,3975.0,4095.0,2454.0,2675.0,2559.0,7.69,4.34,2.56,0.02,0.63,0.74,z
2946.0,895.0,927.0,3983.0,4095.0,2457.0,2684.0,2559.0,10.14,4.18,1.33,-0.36,-0.35,0.04,z
2947.0,896.0,926.0,3971.0,4095.0,2458.0,2679.0,2559.0,7.72,6.02,0.4,-0.5,-1.77,-0.31,z
2941.0,899.0,939.0,3965.0,4095.0,2455.0,2677.0,2582.0,6.06,7.18,4.1,-0.93,-1.8,-0.34,z
2939.0,903.0,931.0,4001.0,4095.0,2460.0,2685.0,2593.0,1.44,8.63,9.63,-0.9,-0.81,-0.41,z
2954.0,903.0,919.0,4003.0,4095.0,2465.0,2683.0,2586.0,-4.3,9.75,17.36,-1.0,-0.78,-0.02,z
2951.0,892.0,917.0,3958.0,4095.0,2461.0,2686.0,2592.0,-9.78,10.94,19.13,0.26,0.23,1.14,z
2943.0,895.0,926.0,3926.0,4095.0,2461.0,2685.0,2591.0,-1.97,9.52,11.96,0.45,-0.39,2.35,z
2943.0,883.0,925.0,3920.0,4095.0,2466.0,2687.0,2602.0,6.24,7.84,8.13,0.28,0.89,2.49,z
2947.0,887.0,923.0,3935.0,4095.0,2463.0,2681.0,2583.0,9.7,8.05,7.82,0.21,1.48,1.43,z
2944.0,882.0,913.0,4074.0,4095.0,2453.0,2678.0,2608.0,0.23,9.13,7.13,0.0,0.06,-0.17,z
2941.0,893.0,911.0,4051.0,4095.0,2454.0,2684.0,2610.0,0.37,9.0,7.5,-0.15,-0.03,-0.2,z
2942.0,897.0,917.0,4049.0,4095.0,2451.0,2681.0,2611.0,0.28,9.04,8.68,-0.11,0.12,-0.34,z
2950.0,898.0,918.0,4055.0,4095.0,2453.0,2685.0,2615.0,-2.47,8.96,11.76,0.42,0.72,0.11,z
2953.0,896.0,912.0,4070.0,4095.0,2452.0,2682.0,2614.0,-5.0,8.94,11.97,1.31,0.91,0.81,z
2955.0,899.0,912.0,4069.0,4095.0,2452.0,2679.0,2614.0,-3.87,8.51,8.91,1.85,0.5,1.81,z
2949.0,907.0,913.0,4054.0,4095.0,2457.0,2685.0,2605.0,1.24,7.69,3.94,1.85,0.24,2.21,z
2949.0,889.0,928.0,4023.0,4095.0,2446.0,2672.0,2557.0,10.93,6.66,-1.75,0.69,0.43,1.2,z
2946.0,891.0,926.0,3979.0,4095.0,2439.0,2672.0,2522.0,14.45,5.78,-2.77,-0.17,-0.13,-0.12,z
2931.0,889.0,915.0,3973.0,4095.0,2443.0,2672.0,2538.0,8.94,7.67,-1.53,-1.21,-0.18,-1.47,z
2945.0,893.0,922.0,4001.0,4095.0,2443.0,2673.0,2559.0,4.25,6.37,4.36,-1.52,0.26,-1.55,z
2945.0,880.0,912.0,4037.0,4095.0,2454.0,2675.0,2608.0,-1.33,8.26,10.56,-1.4,0.93,-1.9,z
2938.0,893.0,909.0,4080.0,4095.0,2455.0,2673.0,2608.0,-7.37,10.25,15.27,-0.71,0.29,-1.2,z
2942.0,895.0,912.0,4074.0,4095.0,2458.0,2683.0,2608.0,-8.57,9.79,15.34,0.73,-0.21,0.36,z
2945.0,896.0,912.0,4055.0,4095.0,2453.0,2681.0,2607.0,-3.9,8.31,9.19,1.27,-0.24,1.69,z
2941.0,893.0,914.0,4023.0,4095.0,2458.0,2684.0,2593.0,0.74,7.96,5.0,1.34,0.02,2.36,z
2947.0,898.0,915.0,4018.0,4095.0,2452.0,2674.0,2559.0,7.15,8.37,1.02,0.6,0.3,1.87,z
2945.0,887.0,921.0,4018.0,4095.0,2449.0,2674.0,2544.0,9.93,8.35,2.2,0.19,0.49,0.95,z
2944.0,894.0,914.0,4004.0,4095.0,2447.0,2676.0,2549.0,9.26,8.71,3.79,-0.14,0.12,0.13,z
2946.0,891.0,913.0,4018.0,4095.0,2448.0,2677.0,2559.0,5.9,9.28,5.17,-0.03,0.07,-0.24,z
2944.0,940.0,918.0,4062.0,4095.0,2443.0,2679.0,2615.0,0.64,9.27,7.34,-0.27,0.23,-0.44,z
2950.0,944.0,921.0,4064.0,4095.0,2439.0,2677.0,2613.0,-0.54,9.46,7.71,-0.32,0.07,-0.43,z
2946.0,949.0,926.0,4075.0,4095.0,2443.0,2675.0,2614.0,-1.21,9.09,8.6,-0.31,0.06,-0.47,z
2949.0,949.0,924.0,4050.0,4095.0,2445.0,2683.0,2619.0,-5.57,9.33,11.61,0.41,1.35,-0.12,z
2939.0,951.0,922.0,4051.0,4095.0,2448.0,2679.0,2619.0,-6.47,9.13,10.34,1.07,0.99,1.03,z
2946.0,947.0,928.0,4049.0,4095.0,2449.0,2684.0,2624.0,-3.46,7.97,8.21,1.12,0.46,1.8,z
2950.0,946.0,930.0,4042.0,4095.0,2450.0,2685.0,2618.0,0.24,7.65,5.55,0.92,0.29,1.99,z
2949.0,933.0,926.0,4054.0,4095.0,2447.0,2679.0,2599.0,4.68,7.1,4.48,0.78,1.03,1.75,z
2944.0,927.0,926.0,4017.0,4095.0,2447.0,2682.0,2591.0,8.86,7.49,3.8,0.3,0.94,1.01,z
2947.0,926.0,917.0,4032.0,4095.0,2448.0,2682.0,2586.0,9.83,7.47,2.39,0.32,0.22,0.35,z
2943.0,924.0,927.0,4010.0,4095.0,2448.0,2677.0,2587.0,10.85,5.37,-0.57,-0.47,0.1,-0.68,z
2949.0,913.0,919.0,3976.0,4095.0,2446.0,2672.0,2559.0,10.07,1.92,-2.68,-1.42,-0.81,-1.69,z
2942.0,926.0,923.0,3979.0,4095.0,2453.0,2683.0,2559.0,-4.71,4.65,11.71,-1.99,-0.06,-1.43,z
2950.0,903.0,911.0,4085.0,4095.0,2462.0,2654.0,2526.0,-20.38,9.65,21.12,1.12,2.96,0.43,z
2953.0,909.0,919.0,3981.0,4095.0,2467.0,2670.0,2590.0,-7.38,9.51,8.49,-0.14,-1.91,3.48,z
2945.0,891.0,930.0,3967.0,4095.0,2447.0,2677.0,2590.0,12.93,5.95,5.34,-0.56,0.6,2.65,z
2941.0,894.0,917.0,3978.0,4095.0,2441.0,2673.0,2518.0,15.81,7.89,8.27,-0.44,0.34,1.09,z
2947.0,893.0,931.0,3980.0,4095.0,2432.0,2670.0,2517.0,12.08,9.25,6.86,0.36,0.04,0.41,z
2939.0,891.0,911.0,3978.0,4095.0,2446.0,2681.0,2559.0,8.37,10.34,6.62,0.22,0.81,0.17,z
2953.0,887.0,919.0,4018.0,4095.0,2451.0,2685.0,2599.0,8.27,9.0,6.5,0.28,0.6,-0.21,z
2944.0,923.0,934.0,4041.0,4095.0,2458.0,2693.0,2626.0,4.82,8.78,3.82,0.73,0.21,0.97,z
2954.0,939.0,921.0,4047.0,4095.0,2462.0,2688.0,2619.0,6.11,9.2,3.25,0.57,-0.3,0.89,z
2933.0,922.0,930.0,4031.0,4095.0,2461.0,2693.0,2622.0,3.48,9.54,3.98,0.53,-0.17,0.78,z
2954.0,918.0,928.0,4023.0,4095.0,2461.0,2691.0,2623.0,7.12,8.64,1.54,0.51,0.37,0.87,z
2951.0,925.0,917.0,4023.0,4095.0,2461.0,2691.0,2608.0,10.58,8.3,-1.2,-0.29,-0.28,-0.19,z
2947.0,917.0,924.0,4019.0,4095.0,2455.0,2688.0,2605.0,8.68,7.83,1.94,-1.07,-0.63,-1.01,z
2958.0,915.0,926.0,4017.0,4095.0,2458.0,2690.0,2607.0,6.5,8.18,3.15,-1.23,-0.57,-1.49,z
2937.0,918.0,923.0,4050.0,4095.0,2465.0,2695.0,2622.0,4.04,7.33,5.77,-1.43,-0.33,-1.73,z
2945.0,914.0,930.0,4071.0,4095.0,2462.0,2691.0,2629.0,2.45,7.72,7.28,-1.69,-0.32,-1.83,z
2950.0,916.0,926.0,4063.0,4095.0,2461.0,2695.0,2633.0,-0.3,6.76,9.76,-1.31,-0.37,-1.86,z
2939.0,925.0,933.0,4067.0,4095.0,2465.0,2703.0,2638.0,-2.37,6.84,12.21,-1.12,-0.07,-1.74,z
2944.0,930.0,910.0,4080.0,4095.0,2466.0,2698.0,2634.0,-4.8,7.93,12.4,-0.36,0.41,-1.07,z
2947.0,915.0,913.0,4058.0,4095.0,2467.0,2697.0,2633.0,-6.97,7.81,13.33,0.13,0.5,-0.08,z
2946.0,919.0,917.0,4067.0,4095.0,2474.0,2701.0,2637.0,-5.79,8.01,10.45,0.37,-0.3,0.88,z
2949.0,912.0,915.0,4065.0,4095.0,2469.0,2701.0,2638.0,-3.85,7.47,9.23,0.36,0.35,1.57,z
2945.0,918.0,921.0,4064.0,4095.0,2467.0,2697.0,2638.0,-2.25,7.74,8.47,0.32,-0.0,2.05,z
2951.0,914.0,918.0,4047.0,4095.0,2470.0,2703.0,2633.0,1.38,7.19,8.6,0.2,0.57,2.32,z
2951.0,913.0,930.0,4045.0,4095.0,2467.0,2700.0,2618.0,6.07,7.67,8.24,0.61,0.17,2.07,z
2943.0,911.0,923.0,4016.0,4095.0,2466.0,2703.0,2608.0,5.91,7.82,7.62,0.7,0.29,1.71,z
2951.0,910.0,919.0,4009.0,4095.0,2465.0,2697.0,2608.0,8.44,7.98,5.95,1.02,0.34,1.43,z
2953.0,999.0,925.0,4095.0,4095.0,2457.0,2681.0,2630.0,0.05,9.14,8.06,-0.2,0.02,-0.22,z
2955.0,990.0,917.0,4095.0,4095.0,2455.0,2684.0,2636.0,-0.29,9.0,8.9,-0.06,0.16,-0.24,z
2953.0,991.0,923.0,4093.0,4095.0,2454.0,2687.0,2633.0,-1.49,8.86,9.17,0.18,0.38,-0.16,z
2944.0,993.0,917.0,4083.0,4095.0,2459.0,2686.0,2639.0,-1.75,8.6,9.68,0.14,0.09,-0.01,z
2941.0,989.0,914.0,4080.0,4095.0,2458.0,2686.0,2639.0,-2.97,8.27,10.57,0.5,0.61,0.23,z
2949.0,982.0,921.0,4092.0,4095.0,2461.0,2688.0,2640.0,-3.34,8.09,10.58,0.81,0.43,0.85,z
2950.0,991.0,917.0,4080.0,4095.0,2460.0,2689.0,2639.0,-2.22,7.87,9.17,1.13,0.86,1.36,z
2943.0,976.0,925.0,4089.0,4095.0,2454.0,2684.0,2635.0,0.43,8.01,7.1,1.28,0.49,1.84,z
2945.0,966.0,928.0,4077.0,4095.0,2458.0,2683.0,2615.0,2.41,7.76,6.33,1.35,0.68,2.03,z
2944.0,967.0,923.0,4048.0,4095.0,2451.0,2687.0,2610.0,7.41,7.6,2.38,1.35,0.38,1.67,z
2944.0,961.0,922.0,4043.0,4095.0,2451.0,2683.0,2603.0,8.81,8.35,0.02,0.75,0.07,0.84,z
2950.0,960.0,926.0,4041.0,4095.0,2447.0,2677.0,2589.0,10.72,7.67,-1.62,-0.12,0.23,-0.11,z
2960.0,943.0,925.0,4020.0,4095.0,2449.0,2679.0,2593.0,8.64,7.59,-0.71,-1.06,-0.25,-1.02,z
2955.0,940.0,922.0,4051.0,4095.0,2455.0,2683.0,2597.0,6.91,6.62,2.81,-1.56,0.03,-1.51,z
2943.0,944.0,928.0,4046.0,4095.0,2461.0,2691.0,2618.0,4.18,6.63,6.28,-1.67,-0.3,-2.11,z
2951.0,959.0,918.0,4059.0,4095.0,2466.0,2689.0,2619.0,1.42,6.52,8.05,-1.57,-0.38,-2.5,z
2938.0,939.0,922.0,4046.0,4095.0,2471.0,2693.0,2631.0,-0.5,6.39,10.64,-1.73,-0.67,-2.29,z
2943.0,931.0,922.0,4058.0,4095.0,2473.0,2699.0,2633.0,-5.38,7.77,15.51,-0.87,0.17,-1.64,z
2953.0,929.0,923.0,4047.0,4095.0,2472.0,2689.0,2627.0,-9.24,8.76,15.6,0.08,0.57,-0.15,z
2944.0,927.0,913.0,4041.0,4095.0,2477.0,2689.0,2625.0,-8.56,8.82,13.52,0.47,-0.28,1.05,z
2960.0,913.0,919.0,4087.0,4095.0,2473.0,2697.0,2635.0,-0.56,8.87,8.24,-0.03,0.11,-0.23,z
2946.0,911.0,912.0,4075.0,4095.0,2472.0,2699.0,2637.0,-0.56,8.86,8.29,-0.07,0.07,-0.12,z
2945.0,925.0,925.0,4078.0,4095.0,2478.0,2703.0,2637.0,-1.07,8.56,9.44,0.01,0.45,-0.16,z
2944.0,912.0,917.0,4077.0,4095.0,2480.0,2702.0,2640.0,-3.41,7.28,11.99,0.31,1.1,-0.2,z
2953.0,911.0,919.0,4073.0,4095.0,2480.0,2701.0,2639.0,-6.35,7.62,12.53,1.48,1.66,1.19,z
2944.0,916.0,926.0,4085.0,4095.0,2482.0,2702.0,2638.0,-3.05,7.32,8.07,1.88,0.3,2.29,z
2945.0,915.0,921.0,4030.0,4095.0,2477.0,2699.0,2615.0,7.93,7.61,-2.09,1.54,0.38,2.03,z
2951.0,906.0,927.0,3984.0,4095.0,2464.0,2689.0,2559.0,11.91,7.77,-5.23,0.0,0.21,0.29,z
2941.0,899.0,927.0,3968.0,4095.0,2462.0,2682.0,2559.0,11.15,7.77,-5.43,-1.56,-0.82,-1.01,z
2943.0,912.0,923.0,3989.0,4095.0,2469.0,2695.0,2599.0,5.04,5.96,2.79,-2.85,-0.59,-1.6,z
2941.0,903.0,915.0,4048.0,4095.0,2474.0,2695.0,2624.0,0.61,5.17,13.18,-2.5,0.24,-1.41,z
2949.0,898.0,910.0,4095.0,4095.0,2482.0,2698.0,2610.0,-6.38,6.94,19.61,-1.54,0.42,-1.42,z
2944.0,896.0,912.0,4095.0,4095.0,2485.0,2698.0,2618.0,-12.04,8.64,20.57,0.42,0.22,0.31,z
2949.0,897.0,917.0,4083.0,4095.0,2482.0,2699.0,2622.0,-7.18,7.48,13.49,1.09,-0.6,2.04,z
2944.0,895.0,914.0,4048.0,4095.0,2485.0,2703.0,2622.0,1.07,7.6,7.73,0.99,-0.49,2.52,z
2945.0,903.0,919.0,4006.0,4095.0,2479.0,2698.0,2605.0,3.13,5.92,5.01,0.96,1.01,2.24,z
2945.0,897.0,932.0,4001.0,4095.0,2471.0,2698.0,2559.0,9.97,6.78,4.21,-0.23,0.58,2.01,z
2950.0,898.0,918.0,4001.0,4095.0,2474.0,2691.0,2559.0,11.24,7.51,6.33,0.17,0.48,0.88,z
2960.0,907.0,919.0,4004.0,4095.0,2475.0,2701.0,2585.0,9.58,8.69,6.45,-0.16,0.13,0.15,z
2950.0,899.0,912.0,4027.0,4095.0,2480.0,2703.0,2597.0,5.85,9.24,8.28,-0.0,0.37,-0.26,z
2954.0,897.0,925.0,4081.0,4095.0,2458.0,2697.0,2630.0,-0.49,9.09,8.07,0.09,0.17,-0.22,z
2941.0,903.0,919.0,4070.0,4095.0,2453.0,2697.0,2631.0,-0.41,9.02,7.7,0.0,-0.15,-0.16,z
2940.0,903.0,912.0,4083.0,4095.0,2453.0,2690.0,2626.0,-0.62,8.81,8.07,-0.06,0.22,-0.2,z
2947.0,897.0,913.0,4074.0,4095.0,2459.0,2698.0,2630.0,-2.41,8.38,10.66,-0.02,0.26,-0.07,z
2946.0,902.0,919.0,4086.0,4095.0,2463.0,2701.0,2634.0,-4.98,6.97,13.26,0.6,0.79,0.59,z
2960.0,909.0,912.0,4087.0,4095.0,2462.0,2694.0,2625.0,-5.62,6.51,12.55,1.36,1.24,1.49,z
2941.0,895.0,915.0,4082.0,4095.0,2467.0,2702.0,2636.0,-1.71,7.2,7.89,1.65,0.45,2.23,z
2943.0,880.0,917.0,4023.0,4095.0,2455.0,2686.0,2594.0,7.95,8.04,-1.3,1.07,0.77,1.81,z
2945.0,886.0,925.0,3971.0,4095.0,2447.0,2683.0,2559.0,10.21,8.51,-3.02,0.02,-0.16,0.64,z
2942.0,877.0,928.0,3979.0,4095.0,2450.0,2678.0,2559.0,11.71,8.15,-1.06,-1.08,-0.16,-0.47,z
2946.0,890.0,914.0,3985.0,4095.0,2461.0,2691.0,2595.0,8.4,7.46,2.23,-1.7,-0.36,-1.38,z
2941.0,880.0,919.0,4021.0,4095.0,2463.0,2703.0,2611.0,2.37,5.6,9.73,-1.99,0.24,-1.89,z
2942.0,889.0,925.0,4064.0,4095.0,2465.0,2701.0,2614.0,-3.02,6.67,14.32,-1.22,-0.25,-1.41,z
2942.0,896.0,912.0,4055.0,4095.0,2475.0,2702.0,2624.0,-7.52,7.57,17.37,-0.57,-0.26,-0.61,z
2944.0,882.0,905.0,4062.0,4095.0,2475.0,2700.0,2613.0,-7.72,8.21,15.26,0.43,0.05,0.9,z
2946.0,880.0,924.0,4044.0,4095.0,2475.0,2699.0,2615.0,-5.25,6.98,11.55,0.63,-0.24,2.01,z
2943.0,880.0,915.0,4016.0,4095.0,2473.0,2704.0,2617.0,0.06,6.45,7.32,0.72,0.48,2.67,z
2958.0,883.0,912.0,4007.0,4095.0,2476.0,2703.0,2607.0,6.39,6.51,6.8,0.38,0.42,2.86,z
2950.0,882.0,915.0,3986.0,4095.0,2464.0,2691.0,2559.0,13.92,6.04,5.98,0.4,0.54,1.61,z
2946.0,867.0,914.0,3994.0,4095.0,2465.0,2695.0,2559.0,12.08,8.19,5.33,0.26,-0.21,0.62,z
2942.0,886.0,924.0,4095.0,4095.0,2475.0,2704.0,2640.0,-0.53,8.87,8.87,-0.01,-0.09,-0.16,z
2945.0,886.0,930.0,4095.0,4095.0,2477.0,2712.0,2641.0,-0.16,8.92,8.45,0.02,-0.12,-0.14,z
2949.0,896.0,935.0,4095.0,4095.0,2473.0,2708.0,2641.0,-0.38,9.03,8.78,-0.02,0.15,-0.15,z
2941.0,904.0,931.0,4083.0,4095.0,2469.0,2704.0,2641.0,-2.67,8.79,11.49,0.15,0.73,-0.05,z
2948.0,899.0,930.0,4095.0,4095.0,2475.0,2705.0,2643.0,-5.13,8.01,12.33,0.78,1.39,0.63,z
2954.0,898.0,930.0,4095.0,4095.0,2479.0,2707.0,2643.0,-5.21,7.52,11.32,1.07,1.33,1.59,z
2937.0,905.0,922.0,4086.0,4095.0,2477.0,2707.0,2642.0,-1.41,6.84,9.15,1.2,0.6,2.32,z
2949.0,894.0,936.0,4045.0,4095.0,2470.0,2703.0,2619.0,5.37,6.95,4.78,1.15,1.32,2.21,z
2942.0,896.0,938.0,4031.0,4095.0,2462.0,2697.0,2590.0,12.84,6.05,1.05,0.58,0.89,1.4,z
2940.0,894.0,939.0,4039.0,4095.0,2453.0,2699.0,2582.0,13.98,7.17,-1.57,-0.2,-0.07,-0.12,z
2945.0,880.0,934.0,4051.0,4095.0,2462.0,2698.0,2603.0,9.54,7.84,0.01,-1.32,-0.07,-1.32,z
2944.0,883.0,938.0,4089.0,4095.0,2470.0,2704.0,2623.0,4.99,6.09,5.72,-1.91,-0.19,-1.81,z
2949.0,887.0,919.0,4095.0,4095.0,2471.0,2705.0,2640.0,0.18,5.8,10.17,-1.92,-0.71,-1.78,z
2951.0,885.0,919.0,4095.0,4095.0,2476.0,2707.0,2638.0,-5.53,7.32,15.9,-1.37,-0.16,-1.06,z
2951.0,890.0,923.0,4095.0,4095.0,2472.0,2704.0,2637.0,-9.59,8.79,17.9,-0.24,0.3,0.31,z
2957.0,888.0,929.0,4095.0,4095.0,2479.0,2708.0,2639.0,-7.07,7.92,14.07,0.47,-0.37,1.84,z
2946.0,886.0,930.0,4095.0,4095.0,2474.0,2710.0,2639.0,-1.34,6.0,10.56,0.67,0.17,2.73,z
2945.0,883.0,927.0,4080.0,4095.0,2470.0,2711.0,2626.0,5.08,5.45,7.83,0.78,0.01,2.89,z
2942.0,885.0,932.0,4066.0,4095.0,2459.0,2706.0,2597.0,13.49,5.35,5.87,0.61,0.78,1.87,z
2952.0,895.0,930.0,4055.0,4095.0,2459.0,2703.0,2559.0,13.52,7.01,5.94,0.39,-0.22,0.82,z
2943.0,912.0,929.0,4095.0,4095.0,2465.0,2699.0,2647.0,0.86,9.6,6.77,-0.12,-0.08,-0.23,z
2943.0,925.0,933.0,4095.0,4095.0,2463.0,2704.0,2649.0,1.51,9.43,6.65,-0.22,-0.02,-0.29,z
2945.0,926.0,933.0,4095.0,4095.0,2468.0,2699.0,2643.0,1.67,9.47,6.34,-0.33,0.02,-0.47,z
2954.0,913.0,940.0,4095.0,4095.0,2465.0,2702.0,2646.0,2.1,9.05,6.85,-0.52,-0.04,-0.77,z
2943.0,913.0,929.0,4095.0,4095.0,2463.0,2701.0,2646.0,-1.51,9.29,10.33,-0.41,0.25,-0.91,z
2956.0,931.0,927.0,4095.0,4095.0,2469.0,2705.0,2655.0,-5.29,8.68,14.93,0.4,0.89,-0.29,z
2955.0,938.0,927.0,4095.0,4095.0,2473.0,2703.0,2648.0,-6.76,8.57,12.57,1.51,1.08,0.63,z
2947.0,925.0,924.0,4095.0,4095.0,2479.0,2704.0,2655.0,-4.8,7.8,9.74,1.36,0.58,1.4,z
2948.0,929.0,927.0,4095.0,4095.0,2473.0,2704.0,2642.0,-1.42,7.58,6.84,1.11,0.2,1.76,z
2946.0,923.0,928.0,4073.0,4095.0,2471.0,2701.0,2627.0,6.56,6.31,0.53,0.94,-0.1,1.8,z
2946.0,923.0,942.0,4054.0,4095.0,2455.0,2694.0,2595.0,11.91,5.69,-1.77,0.21,0.07,0.92,z
2944.0,939.0,945.0,4054.0,4095.0,2455.0,2691.0,2593.0,11.67,7.18,-2.32,-0.73,-0.18,-0.6,z
2951.0,923.0,943.0,4078.0,4095.0,2466.0,2697.0,2614.0,6.01,6.63,1.64,-1.5,0.44,-1.23,z
2949.0,931.0,931.0,4095.0,4095.0,2469.0,2697.0,2633.0,1.77,5.9,6.36,-1.9,0.12,-1.25,z
2944.0,922.0,938.0,4095.0,4095.0,2475.0,2704.0,2644.0,-1.92,6.85,11.7,-1.74,-0.67,-1.05,z
2948.0,928.0,937.0,4095.0,4095.0,2471.0,2699.0,2640.0,-6.63,9.03,16.99,-1.14,-0.43,-0.22,z
2955.0,916.0,930.0,4095.0,4095.0,2471.0,2699.0,2639.0,-7.91,9.9,17.22,0.39,-0.13,1.23,z
2960.0,928.0,925.0,4095.0,4095.0,2475.0,2693.0,2635.0,-3.3,10.63,14.75,-0.33,0.18,1.54,z
2959.0,929.0,925.0,4095.0,4095.0,2477.0,2699.0,2640.0,0.08,6.6,9.54,1.72,-1.9,2.73,z
2949.0,920.0,942.0,4017.0,4095.0,2463.0,2704.0,2611.0,10.43,4.99,3.2,1.06,1.16,1.47,z
2944.0,928.0,931.0,3999.0,4095.0,2475.0,2695.0,2645.0,-0.24,10.02,0.57,-0.5,8.73,0.25,z
2944.0,928.0,931.0,3999.0,4095.0,2475.0,2695.0,2645.0,-0.24,10.02,0.57,-0.5,8.73,0.25,z
2942.0,928.0,933.0,3995.0,4095.0,2479.0,2704.0,2655.0,-6.01,9.44,6.65,-1.19,8.09,0.24,z
2955.0,922.0,931.0,4009.0,4095.0,2494.0,2699.0,2640.0,-3.78,9.21,8.54,-1.05,3.93,0.63,z
2941.0,932.0,925.0,4057.0,4095.0,2501.0,2695.0,2651.0,-2.92,8.71,8.08,-0.21,1.51,0.23,z
2943.0,933.0,913.0,4083.0,4095.0,2494.0,2699.0,2655.0,-4.41,8.78,8.85,-0.37,-1.01,-0.45,z
2943.0,925.0,930.0,4062.0,4095.0,2491.0,2704.0,2651.0,-6.66,8.69,10.57,0.03,-0.01,-0.1,z
2942.0,915.0,914.0,4049.0,4095.0,2497.0,2704.0,2658.0,-10.25,8.53,9.82,0.74,1.84,1.15,z
2929.0,912.0,930.0,4080.0,4095.0,2499.0,2705.0,2669.0,-4.81,7.75,6.45,0.68,1.46,2.15,z
2949.0,911.0,918.0,4095.0,4095.0,2496.0,2704.0,2672.0,-2.64,7.85,5.6,0.28,0.68,1.86,z
2942.0,911.0,942.0,4042.0,4095.0,2496.0,2709.0,2645.0,7.4,6.57,3.25,-0.18,-0.03,1.77,z
2938.0,912.0,944.0,4005.0,4095.0,2473.0,2702.0,2591.0,15.15,5.68,3.88,-0.19,-0.01,0.11,z
2947.0,907.0,936.0,3979.0,4095.0,2463.0,2697.0,2559.0,10.16,7.75,0.25,-0.35,-0.26,-1.15,z
2947.0,907.0,949.0,4011.0,4095.0,2480.0,2704.0,2608.0,3.18,6.38,2.25,-1.02,0.36,-1.4,z
2945.0,906.0,925.0,4048.0,4095.0,2491.0,2709.0,2641.0,-1.27,6.13,7.45,-0.84,0.7,-1.02,z
2935.0,912.0,919.0,4069.0,4095.0,2499.0,2705.0,2618.0,-7.34,8.33,13.2,-1.4,-0.15,-0.97,z
2944.0,912.0,932.0,4021.0,4095.0,2494.0,2715.0,2624.0,-13.58,10.14,15.59,-0.12,0.07,0.61,z
2943.0,910.0,921.0,4027.0,4095.0,2495.0,2711.0,2626.0,-6.36,8.83,9.95,0.39,-0.99,2.24,z
2944.0,909.0,928.0,4010.0,4095.0,2495.0,2708.0,2638.0,-1.92,8.71,7.43,0.02,-0.45,2.53,z
2947.0,915.0,929.0,3966.0,4095.0,2494.0,2711.0,2617.0,7.23,7.76,5.86,0.02,-0.62,2.68,z
2945.0,1137.0,929.0,4095.0,4095.0,2458.0,2706.0,2650.0,0.01,9.4,6.71,0.02,-0.06,-0.28,z
2945.0,1134.0,930.0,4095.0,4095.0,2455.0,2705.0,2651.0,-0.29,9.51,6.76,-0.03,-0.09,-0.28,z
2945.0,1133.0,925.0,4095.0,4095.0,2453.0,2704.0,2646.0,-0.16,9.42,6.74,-0.05,-0.14,-0.23,z
2935.0,1135.0,934.0,4095.0,4095.0,2460.0,2703.0,2647.0,-0.53,9.47,7.06,-0.05,-0.05,-0.22,z
2943.0,1152.0,927.0,4095.0,4095.0,2461.0,2702.0,2645.0,-0.41,9.38,7.3,-0.06,0.06,-0.13,z
2937.0,1145.0,926.0,4095.0,4095.0,2463.0,2705.0,2650.0,-0.28,9.5,7.21,0.02,-0.13,-0.14,z
2949.0,1171.0,930.0,4095.0,4095.0,2461.0,2704.0,2643.0,1.03,9.54,6.4,-0.12,-0.23,-0.2,z
2948.0,1184.0,936.0,4095.0,4095.0,2465.0,2704.0,2645.0,0.73,9.49,6.28,-0.19,-0.07,-0.43,z
2944.0,1177.0,941.0,4095.0,4095.0,2463.0,2705.0,2647.0,-1.88,9.3,9.16,-0.24,0.39,-0.59,z
2943.0,1187.0,931.0,4095.0,4095.0,2467.0,2705.0,2656.0,-8.43,9.36,12.71,0.6,1.64,0.17,z
2937.0,1205.0,930.0,4095.0,4095.0,2475.0,2704.0,2656.0,-6.91,8.99,8.96,0.88,1.01,1.41,z
2945.0,1191.0,933.0,4095.0,4095.0,2473.0,2706.0,2657.0,-2.43,8.16,5.96,0.52,0.14,1.87,z
2942.0,1183.0,932.0,4095.0,4095.0,2467.0,2709.0,2634.0,6.44,7.05,3.63,0.1,0.08,1.61,z
2955.0,1101.0,950.0,4095.0,4095.0,2454.0,2702.0,2583.0,12.3,6.26,3.58,0.08,-0.05,0.57,z
2959.0,1091.0,939.0,4069.0,4095.0,2459.0,2706.0,2594.0,11.19,7.36,0.02,0.01,-0.14,-0.7,z
2947.0,1105.0,935.0,4095.0,4095.0,2465.0,2704.0,2617.0,6.32,7.34,1.36,-0.97,0.19,-1.41,z
2942.0,1121.0,921.0,4095.0,4095.0,2478.0,2714.0,2634.0,1.67,5.83,7.26,-1.34,-0.23,-1.65,z
2948.0,1124.0,929.0,4095.0,4095.0,2479.0,2709.0,2641.0,-4.72,7.42,12.23,-1.21,-0.25,-1.53,z
2946.0,1105.0,927.0,4095.0,4095.0,2480.0,2709.0,2642.0,-12.44,9.41,16.52,-0.02,1.0,-0.29,z
2947.0,1115.0,923.0,4095.0,4095.0,2484.0,2707.0,2646.0,-9.83,9.27,11.01,0.57,-0.47,1.62,z
2943.0,1015.0,927.0,4095.0,4095.0,2486.0,2719.0,2655.0,0.4,8.4,8.46,0.13,-0.35,-0.27,z
2947.0,1019.0,933.0,4095.0,4095.0,2495.0,2720.0,2646.0,1.09,8.62,8.06,0.05,0.03,-0.23,z
2943.0,1014.0,935.0,4095.0,4095.0,2494.0,2720.0,2650.0,1.09,8.83,8.05,0.06,0.06,-0.21,z
2947.0,1017.0,928.0,4095.0,4095.0,2487.0,2723.0,2653.0,0.73,8.96,9.14,-0.03,0.36,-0.39,z
2949.0,1017.0,919.0,4095.0,4095.0,2494.0,2725.0,2660.0,-3.83,9.08,13.03,0.44,1.21,-0.3,z
2944.0,1023.0,925.0,4095.0,4095.0,2493.0,2719.0,2656.0,-6.83,9.44,11.52,1.25,0.92,0.71,z
2954.0,1023.0,933.0,4095.0,4095.0,2490.0,2717.0,2656.0,-3.14,8.94,7.01,1.2,0.48,1.54,z
2958.0,985.0,931.0,4091.0,4095.0,2486.0,2718.0,2646.0,4.22,7.89,2.84,0.79,-0.05,1.69,z
2950.0,955.0,938.0,4079.0,4095.0,2480.0,2710.0,2605.0,12.53,5.54,2.16,0.32,0.3,0.76,z
2944.0,942.0,940.0,4037.0,4095.0,2471.0,2706.0,2559.0,13.52,6.36,-0.84,-0.01,-0.52,-0.63,z
2948.0,941.0,947.0,4053.0,4095.0,2471.0,2704.0,2602.0,7.17,7.34,0.58,-1.2,-0.4,-1.52,z
2938.0,953.0,930.0,4073.0,4095.0,2492.0,2718.0,2637.0,1.1,5.91,7.13,-1.35,-0.09,-1.45,z
2946.0,951.0,920.0,4095.0,4095.0,2496.0,2717.0,2635.0,-3.96,6.21,12.02,-1.18,0.06,-1.22,z
2943.0,953.0,925.0,4095.0,4095.0,2490.0,2720.0,2639.0,-8.94,8.29,17.63,-0.84,-0.64,-0.21,z
2957.0,945.0,917.0,4095.0,4095.0,2489.0,2715.0,2641.0,-8.76,9.93,14.25,0.6,0.15,1.48,z
2939.0,951.0,917.0,4078.0,4095.0,2493.0,2717.0,2642.0,-0.19,8.5,8.09,0.77,-1.12,2.53,z
2959.0,953.0,929.0,4053.0,4095.0,2480.0,2715.0,2612.0,9.82,8.04,3.46,0.38,0.93,1.91,z
2945.0,935.0,935.0,4031.0,4095.0,2475.0,2709.0,2581.0,11.5,8.63,4.09,0.01,0.09,0.82,z
2949.0,945.0,933.0,4021.0,4095.0,2480.0,2718.0,2597.0,10.55,8.11,5.87,-0.33,0.21,-0.06,z
2943.0,944.0,934.0,4045.0,4095.0,2490.0,2721.0,2626.0,6.98,9.37,8.14,-0.2,0.49,-0.54,z
2941.0,944.0,925.0,4095.0,4095.0,2489.0,2719.0,2649.0,0.09,9.19,7.55,-0.02,-0.03,-0.12,z
2947.0,949.0,925.0,4095.0,4095.0,2489.0,2716.0,2650.0,0.08,9.22,7.72,-0.05,0.07,-0.14,z
2951.0,954.0,923.0,4095.0,4095.0,2498.0,2721.0,2655.0,-0.6,9.25,8.72,-0.1,0.15,-0.13,z
2951.0,945.0,922.0,4095.0,4095.0,2496.0,2725.0,2653.0,-1.87,9.16,10.52,0.06,0.57,-0.15,z
2950.0,957.0,918.0,4095.0,4095.0,2496.0,2722.0,2656.0,-4.87,9.23,11.54,0.53,1.16,0.34,z
2951.0,947.0,915.0,4095.0,4095.0,2495.0,2714.0,2658.0,-2.77,8.81,9.22,0.65,0.87,1.17,z
2953.0,946.0,922.0,4095.0,4095.0,2495.0,2722.0,2647.0,-0.23,8.56,6.77,0.78,0.83,1.48,z
2944.0,946.0,919.0,4095.0,4095.0,2496.0,2722.0,2631.0,2.53,7.8,6.57,0.68,1.15,1.77,z
2950.0,938.0,925.0,4091.0,4095.0,2492.0,2721.0,2633.0,7.8,7.48,3.61,0.79,0.67,1.17,z
2956.0,942.0,924.0,4095.0,4095.0,2497.0,2719.0,2625.0,11.04,6.65,1.24,0.12,-0.38,0.39,z
2946.0,931.0,929.0,4086.0,4095.0,2487.0,2711.0,2612.0,9.8,7.48,0.55,-0.48,-0.46,-0.82,z
2948.0,920.0,924.0,4095.0,4095.0,2493.0,2719.0,2615.0,6.46,7.07,3.41,-1.15,-0.81,-1.38,z
2953.0,928.0,925.0,4095.0,4095.0,2493.0,2720.0,2631.0,2.34,7.05,7.19,-1.06,-0.63,-1.55,z
2943.0,933.0,931.0,4095.0,4095.0,2501.0,2727.0,2642.0,-2.95,8.31,10.68,-0.97,-0.19,-1.32,z
2954.0,935.0,918.0,4095.0,4095.0,2502.0,2719.0,2643.0,-7.63,8.92,13.52,-0.49,-0.27,-0.48,z
2935.0,922.0,923.0,4095.0,4095.0,2503.0,2727.0,2655.0,-6.12,8.73,12.33,-0.02,-0.37,0.84,z
2947.0,926.0,918.0,4095.0,4095.0,2500.0,2722.0,2644.0,-4.07,8.34,10.22,0.19,0.62,1.74,z
2943.0,935.0,931.0,4095.0,4095.0,2498.0,2727.0,2649.0,1.98,8.92,6.46,0.0,0.59,2.32,z
2947.0,918.0,919.0,4080.0,4095.0,2495.0,2726.0,2623.0,6.8,7.4,8.22,-0.09,0.4,1.85,z
2944.0,912.0,919.0,4075.0,4095.0,2492.0,2722.0,2607.0,10.99,7.75,7.98,-0.06,0.2,0.94,z
2954.0,928.0,927.0,4095.0,4095.0,2501.0,2725.0,2647.0,0.08,8.99,8.09,-0.01,0.08,-0.27,z
2949.0,920.0,927.0,4095.0,4095.0,2509.0,2732.0,2653.0,-0.33,8.74,8.74,-0.16,0.07,-0.27,z
2946.0,930.0,922.0,4095.0,4095.0,2500.0,2729.0,2654.0,-1.59,7.88,11.81,-0.09,1.02,-0.5,z
2945.0,914.0,915.0,4095.0,4095.0,2511.0,2731.0,2654.0,-5.92,8.47,13.63,1.3,2.05,0.62,z
2943.0,919.0,923.0,4095.0,4095.0,2509.0,2729.0,2657.0,-2.91,8.88,9.0,1.78,-0.39,1.76,z
2944.0,909.0,930.0,4091.0,4095.0,2498.0,2725.0,2639.0,7.06,7.23,0.3,1.84,0.73,1.43,z
2949.0,905.0,925.0,4048.0,4095.0,2489.0,2715.0,2602.0,10.92,8.13,-5.02,0.51,-0.51,-0.17,z
2943.0,912.0,931.0,4045.0,4095.0,2489.0,2715.0,2609.0,7.6,8.33,-3.29,-1.28,0.03,-1.7,z
2944.0,897.0,919.0,4067.0,4095.0,2495.0,2722.0,2636.0,2.43,6.3,3.96,-2.22,0.12,-1.83,z
2943.0,912.0,916.0,4095.0,4095.0,2506.0,2723.0,2650.0,-0.96,5.73,10.78,-2.23,0.06,-1.87,z
2953.0,899.0,915.0,4095.0,4095.0,2509.0,2725.0,2647.0,-12.66,7.36,22.21,-0.99,2.26,-1.3,z
2944.0,901.0,912.0,4095.0,4095.0,2511.0,2717.0,2642.0,-14.29,9.79,16.37,1.52,-0.32,1.28,z
2947.0,901.0,912.0,4095.0,4095.0,2512.0,2727.0,2651.0,-4.48,7.02,8.58,1.59,-0.59,2.5,z
2956.0,912.0,931.0,4062.0,4095.0,2503.0,2717.0,2625.0,0.37,6.74,5.08,1.72,0.2,2.79,z
2947.0,916.0,932.0,4037.0,4095.0,2496.0,2716.0,2592.0,6.31,6.08,2.32,1.13,0.25,2.54,z
2951.0,912.0,922.0,4048.0,4095.0,2493.0,2711.0,2587.0,10.35,7.94,0.97,0.59,0.85,1.28,z
2943.0,912.0,915.0,4051.0,4095.0,2493.0,2715.0,2605.0,8.59,9.11,3.68,0.1,0.02,0.39,z
2948.0,917.0,920.0,4053.0,4095.0,2497.0,2718.0,2611.0,6.22,10.26,4.39,0.1,0.42,-0.29,z
2946.0,907.0,931.0,4074.0,4095.0,2498.0,2721.0,2615.0,3.55,9.95,5.49,-0.11,-0.1,-0.35,z
2951.0,917.0,912.0,4080.0,4095.0,2508.0,2725.0,2620.0,4.13,9.27,5.26,-0.11,-0.21,-0.38,z
2957.0,915.0,917.0,4095.0,4095.0,2509.0,2724.0,2640.0,-0.26,9.42,7.83,-0.02,0.04,-0.1,z
2944.0,912.0,915.0,4095.0,4095.0,2507.0,2726.0,2640.0,-0.92,9.32,8.32,0.04,0.25,-0.1,z
2940.0,923.0,914.0,4095.0,4095.0,2509.0,2730.0,2646.0,-2.7,9.03,9.99,0.27,0.59,0.09,z
2945.0,912.0,918.0,4095.0,4095.0,2503.0,2726.0,2645.0,-3.73,8.76,10.74,0.68,1.03,0.38,z
2956.0,914.0,922.0,4095.0,4095.0,2505.0,2722.0,2646.0,-4.13,8.83,9.3,1.12,1.0,1.13,z
2945.0,912.0,917.0,4095.0,4095.0,2503.0,2726.0,2648.0,0.6,8.15,6.0,0.86,0.3,1.58,z
2949.0,912.0,919.0,4089.0,4095.0,2495.0,2721.0,2624.0,7.15,7.89,1.45,0.53,0.45,1.36,z
2944.0,902.0,930.0,4089.0,4095.0,2494.0,2715.0,2593.0,9.52,7.06,-0.22,0.2,-0.24,0.47,z
2943.0,907.0,929.0,4055.0,4095.0,2495.0,2717.0,2602.0,8.04,8.24,-0.88,-0.39,-0.01,-0.54,z
2960.0,909.0,919.0,4078.0,4095.0,2498.0,2720.0,2619.0,4.76,7.61,1.97,-0.99,-0.15,-0.88,z
2954.0,911.0,918.0,4095.0,4095.0,2499.0,2721.0,2630.0,2.67,6.82,6.4,-1.27,-0.27,-1.07,z
2942.0,915.0,923.0,4093.0,4095.0,2502.0,2726.0,2637.0,-1.23,7.73,11.03,-1.25,-0.51,-1.02,z
2946.0,909.0,912.0,4095.0,4095.0,2507.0,2729.0,2636.0,-3.7,9.39,13.82,-0.77,-0.46,-0.4,z
2949.0,909.0,922.0,4095.0,4095.0,2503.0,2726.0,2634.0,-5.17,10.35,14.61,0.08,0.63,0.31,z
2948.0,912.0,915.0,4095.0,4095.0,2509.0,2726.0,2639.0,-5.24,9.96,12.16,0.45,0.31,1.24,z
2947.0,914.0,927.0,4080.0,4095.0,2507.0,2730.0,2640.0,0.57,8.31,8.68,0.38,0.2,1.73,z
2945.0,905.0,927.0,4086.0,4095.0,2499.0,2727.0,2625.0,6.68,7.78,5.63,0.28,0.53,1.6,z
2942.0,909.0,923.0,4075.0,4095.0,2502.0,2731.0,2610.0,9.13,8.2,4.81,0.24,0.56,0.85,z
2944.0,910.0,914.0,4059.0,4095.0,2495.0,2723.0,2605.0,8.73,9.17,4.91,0.09,0.21,0.37,z
2944.0,903.0,925.0,4095.0,4095.0,2497.0,2723.0,2623.0,5.67,9.5,6.65,0.17,0.51,-0.12,z
2950.0,1003.0,927.0,4095.0,4095.0,2505.0,2725.0,2662.0,0.2,9.58,7.22,0.02,-0.09,-0.18,z
2950.0,1003.0,927.0,4095.0,4095.0,2505.0,2725.0,2662.0,0.2,9.58,7.22,0.02,-0.09,-0.18,z
2946.0,1008.0,930.0,4095.0,4095.0,2506.0,2731.0,2665.0,0.53,9.29,7.27,0.01,0.07,-0.17,z
2957.0,1008.0,927.0,4095.0,4095.0,2498.0,2725.0,2661.0,-0.9,9.29,8.58,0.08,0.32,-0.18,z
2952.0,1008.0,927.0,4095.0,4095.0,2506.0,2729.0,2665.0,-2.8,9.12,10.81,0.31,0.92,0.02,z
2947.0,1007.0,933.0,4095.0,4095.0,2508.0,2726.0,2663.0,-4.22,9.16,10.46,0.81,1.29,0.7,z
2945.0,989.0,921.0,4095.0,4095.0,2507.0,2726.0,2667.0,-1.16,9.36,7.36,0.64,0.51,1.21,z
2943.0,975.0,931.0,4095.0,4095.0,2503.0,2726.0,2655.0,3.47,8.93,4.1,0.62,0.56,1.26,z
2957.0,964.0,937.0,4081.0,4095.0,2503.0,2722.0,2638.0,8.29,8.24,0.36,0.42,0.46,0.62,z
2951.0,963.0,932.0,4069.0,4095.0,2498.0,2717.0,2629.0,9.96,7.58,-1.84,-0.08,-0.14,-0.07,z
2943.0,960.0,934.0,4091.0,4095.0,2497.0,2721.0,2639.0,7.47,7.5,0.32,-1.01,-0.45,-1.01,z
2950.0,957.0,931.0,4095.0,4095.0,2511.0,2729.0,2654.0,3.32,6.7,5.66,-1.31,-0.54,-1.21,z
2949.0,956.0,929.0,4095.0,4095.0,2513.0,2732.0,2666.0,0.2,6.46,9.68,-1.17,-1.01,-1.11,z
2947.0,944.0,920.0,4095.0,4095.0,2512.0,2727.0,2662.0,-2.24,7.56,12.78,-0.8,-1.08,-0.77,z
2957.0,944.0,927.0,4095.0,4095.0,2513.0,2726.0,2663.0,-4.87,9.13,15.21,-0.26,0.24,0.08,z
2940.0,950.0,931.0,4095.0,4095.0,2512.0,2726.0,2660.0,-5.4,9.29,14.18,0.39,0.46,1.09,z
2953.0,951.0,935.0,4095.0,4095.0,2514.0,2734.0,2666.0,-2.4,8.65,10.48,0.72,0.56,1.81,z
2948.0,949.0,929.0,4074.0,4095.0,2511.0,2729.0,2658.0,2.82,7.82,6.3,0.79,0.72,2.2,z
2944.0,944.0,934.0,4061.0,4095.0,2510.0,2731.0,2640.0,7.54,7.63,5.24,0.55,0.96,1.84,z
2946.0,937.0,934.0,4062.0,4095.0,2509.0,2735.0,2634.0,11.95,8.26,4.88,0.32,0.61,1.13,z
2939.0,942.0,926.0,4095.0,4095.0,2513.0,2736.0,2663.0,1.75,9.53,6.82,0.05,-0.04,-0.22,z
2943.0,943.0,938.0,4095.0,4095.0,2512.0,2735.0,2659.0,1.1,9.65,7.98,-0.02,0.21,-0.34,z
2944.0,937.0,931.0,4095.0,4095.0,2512.0,2736.0,2662.0,-1.1,9.75,9.11,0.23,0.68,-0.37,z
2946.0,934.0,923.0,4095.0,4095.0,2517.0,2736.0,2669.0,-4.12,9.65,10.91,0.58,1.36,-0.13,z
2957.0,928.0,931.0,4095.0,4095.0,2517.0,2736.0,2667.0,-4.74,9.88,8.95,1.19,1.3,0.92,z
2948.0,913.0,925.0,4095.0,4095.0,2515.0,2734.0,2669.0,1.93,8.84,4.38,0.71,-0.05,1.47,z
2946.0,896.0,938.0,4078.0,4095.0,2511.0,2733.0,2633.0,7.27,7.58,1.59,0.49,1.52,0.96,z
2946.0,887.0,934.0,4075.0,4095.0,2496.0,2725.0,2594.0,12.28,5.51,0.2,-0.17,0.07,0.27,z
2955.0,891.0,938.0,4059.0,4095.0,2505.0,2725.0,2606.0,8.26,6.95,1.15,-0.57,0.08,-0.93,z
2948.0,912.0,925.0,4074.0,4095.0,2511.0,2732.0,2634.0,4.5,7.32,4.72,-0.88,-0.01,-1.2,z
2956.0,907.0,915.0,4095.0,4095.0,2513.0,2731.0,2649.0,1.56,7.44,7.52,-0.94,-0.66,-1.45,z
2957.0,906.0,924.0,4095.0,4095.0,2513.0,2734.0,2650.0,-2.05,8.41,11.46,-1.2,-0.49,-1.46,z
2958.0,908.0,915.0,4095.0,4095.0,2511.0,2726.0,2647.0,-7.5,9.8,15.46,-0.4,0.0,-0.53,z
2951.0,911.0,919.0,4095.0,4095.0,2514.0,2731.0,2651.0,-6.61,9.71,12.71,0.43,0.13,0.65,z
2949.0,912.0,925.0,4083.0,4095.0,2515.0,2734.0,2655.0,-4.44,9.01,9.19,0.52,0.22,1.48,z
2951.0,913.0,927.0,4081.0,4095.0,2512.0,2726.0,2647.0,-1.12,7.85,7.3,0.47,0.55,2.02,z
2949.0,909.0,922.0,4079.0,4095.0,2512.0,2730.0,2640.0,4.15,8.03,6.43,0.1,0.67,2.01,z
2942.0,917.0,935.0,4048.0,4095.0,2505.0,2731.0,2617.0,12.25,6.58,6.37,0.15,0.75,1.56,z
2953.0,923.0,927.0,4034.0,4095.0,2500.0,2727.0,2591.0,12.92,7.91,4.46,0.32,-0.74,0.34,z
2947.0,914.0,931.0,4047.0,4095.0,2499.0,2723.0,2604.0,8.17,9.47,4.59,0.12,-0.02,-0.55,z
2945.0,913.0,917.0,4095.0,4095.0,2512.0,2736.0,2661.0,-0.23,9.33,7.6,-0.02,-0.02,-0.17,z
2949.0,917.0,919.0,4095.0,4095.0,2519.0,2739.0,2661.0,0.21,9.3,7.26,0.03,0.01,-0.11,z
2947.0,917.0,927.0,4095.0,4095.0,2515.0,2735.0,2662.0,0.19,9.29,7.3,0.04,0.17,-0.16,z
2945.0,921.0,915.0,4095.0,4095.0,2519.0,2736.0,2658.0,-0.85,9.44,8.59,0.06,0.23,-0.24,z
2951.0,927.0,928.0,4095.0,4095.0,2519.0,2736.0,2667.0,-2.91,8.72,10.42,0.36,0.63,-0.08,z
2942.0,912.0,925.0,4095.0,4095.0,2515.0,2736.0,2659.0,-3.95,8.83,10.3,0.85,1.05,0.61,z
2950.0,912.0,931.0,4095.0,4095.0,2514.0,2738.0,2662.0,-3.19,8.57,9.2,1.25,0.96,1.35,z
2943.0,912.0,916.0,4095.0,4095.0,2511.0,2735.0,2655.0,1.04,8.56,4.32,1.51,0.13,1.7,z
2945.0,923.0,929.0,4057.0,4095.0,2512.0,2733.0,2640.0,7.72,8.09,-1.89,0.85,0.57,1.09,z
2945.0,912.0,919.0,4035.0,4095.0,2506.0,2726.0,2621.0,10.67,7.78,-3.57,-0.33,-0.31,0.17,z
2942.0,909.0,933.0,4041.0,4095.0,2503.0,2731.0,2621.0,8.85,7.61,-0.85,-1.38,-0.38,-0.83,z
2945.0,911.0,923.0,4079.0,4095.0,2506.0,2734.0,2638.0,4.44,7.42,4.41,-1.71,-0.28,-1.27,z
2946.0,906.0,922.0,4095.0,4095.0,2515.0,2736.0,2654.0,1.56,6.57,8.91,-1.83,-0.42,-1.38,z
2944.0,910.0,931.0,4095.0,4095.0,2519.0,2737.0,2656.0,-3.36,7.05,14.94,-1.29,0.16,-1.15,z
2944.0,903.0,921.0,4095.0,4095.0,2519.0,2736.0,2659.0,-8.56,8.91,16.81,-0.12,0.48,-0.18,z
2946.0,913.0,927.0,4095.0,4095.0,2518.0,2737.0,2661.0,-6.53,8.96,12.78,0.63,0.27,1.29,z
2945.0,912.0,923.0,4091.0,4095.0,2513.0,2736.0,2654.0,-2.81,8.89,9.22,0.99,0.4,2.05,z
2944.0,924.0,928.0,4052.0,4095.0,2509.0,2735.0,2640.0,5.92,8.46,5.04,0.92,0.84,2.39,z
2955.0,912.0,921.0,4053.0,4095.0,2510.0,2734.0,2624.0,10.05,8.43,4.42,0.61,0.32,1.2,z
2941.0,910.0,937.0,4046.0,4095.0,2511.0,2736.0,2624.0,9.59,9.4,4.66,0.27,0.4,0.5,z
2957.0,917.0,926.0,4095.0,4095.0,2514.0,2735.0,2653.0,-0.53,9.74,6.06,0.18,0.32,-0.08,z
2942.0,903.0,915.0,4095.0,4095.0,2518.0,2736.0,2663.0,0.43,9.43,5.86,-0.12,-0.05,0.04,z
2953.0,914.0,922.0,4095.0,4095.0,2522.0,2737.0,2657.0,0.41,9.48,6.53,-0.19,0.19,-0.11,z
2945.0,929.0,927.0,4095.0,4095.0,2517.0,2737.0,2660.0,-1.27,9.39,8.17,0.02,0.65,-0.14,z
2950.0,910.0,921.0,4095.0,4095.0,2521.0,2737.0,2659.0,-5.44,8.78,10.66,0.52,2.19,0.15,z
2944.0,912.0,925.0,4095.0,4095.0,2525.0,2736.0,2661.0,-7.47,9.02,10.07,1.07,1.91,1.39,z
2949.0,917.0,923.0,4095.0,4095.0,2529.0,2738.0,2663.0,-1.24,7.78,6.07,0.66,-0.26,2.4,z
2937.0,912.0,930.0,4021.0,4095.0,2512.0,2733.0,2637.0,9.62,6.02,1.07,0.5,0.57,1.95,z
2945.0,887.0,944.0,3949.0,4095.0,2496.0,2721.0,2583.0,15.25,6.48,-1.35,0.0,-0.35,0.57,z
2943.0,891.0,945.0,3930.0,4095.0,2500.0,2725.0,2588.0,12.48,8.22,-3.33,-0.57,-0.3,-0.83,z
2951.0,890.0,935.0,3931.0,4095.0,2503.0,2724.0,2619.0,7.99,7.94,0.8,-1.6,-0.06,-1.52,z
2960.0,890.0,924.0,3986.0,4095.0,2515.0,2734.0,2643.0,3.29,6.73,7.28,-1.86,-0.12,-1.97,z
2942.0,891.0,914.0,4035.0,4095.0,2518.0,2730.0,2653.0,-4.01,7.11,14.62,-1.79,-0.38,-2.14,z
2947.0,900.0,914.0,3999.0,4095.0,2522.0,2730.0,2652.0,-9.55,8.37,16.0,-0.4,-0.03,-0.85,z
2943.0,885.0,919.0,3993.0,4095.0,2517.0,2734.0,2658.0,-8.74,8.22,12.88,0.27,0.24,0.85,z
2954.0,902.0,921.0,3998.0,4095.0,2514.0,2732.0,2658.0,-3.96,7.42,10.01,0.34,0.09,1.95,z
2944.0,899.0,925.0,3962.0,4095.0,2518.0,2735.0,2653.0,2.7,7.76,7.55,0.43,0.67,2.39,z
2945.0,887.0,930.0,3952.0,4095.0,2513.0,2736.0,2634.0,8.37,7.32,6.63,0.48,0.49,1.88,z
2959.0,899.0,929.0,3931.0,4095.0,2513.0,2735.0,2621.0,9.56,8.76,5.73,0.35,0.48,1.01,z
2949.0,896.0,927.0,3928.0,4095.0,2512.0,2736.0,2634.0,8.3,9.18,5.54,0.32,0.42,0.38,z
2944.0,910.0,925.0,4046.0,4095.0,2517.0,2736.0,2675.0,-0.33,9.13,7.66,-0.05,-0.14,-0.17,z
2937.0,912.0,932.0,4041.0,4095.0,2521.0,2743.0,2682.0,-0.5,9.11,7.68,-0.09,0.17,-0.26,z
2946.0,902.0,931.0,4053.0,4095.0,2526.0,2739.0,2682.0,-3.33,8.96,10.6,0.09,0.68,-0.16,z
2953.0,902.0,925.0,4057.0,4095.0,2525.0,2739.0,2687.0,-6.57,7.94,12.86,0.84,1.19,0.75,z
2943.0,896.0,932.0,4059.0,4095.0,2526.0,2745.0,2688.0,-4.71,7.67,10.06,1.32,0.93,1.73,z
2955.0,907.0,927.0,4046.0,4095.0,2522.0,2736.0,2679.0,-0.65,8.31,5.77,1.43,0.44,2.25,z
2941.0,889.0,939.0,4005.0,4095.0,2513.0,2735.0,2655.0,7.3,8.03,0.07,1.09,0.07,1.9,z
2943.0,891.0,929.0,3978.0,4095.0,2503.0,2735.0,2628.0,9.96,7.61,-0.61,0.43,0.27,0.9,z
2938.0,896.0,944.0,3998.0,4095.0,2503.0,2726.0,2625.0,12.8,7.43,-2.7,-0.61,-0.04,-0.51,z
2945.0,893.0,937.0,3991.0,4095.0,2510.0,2735.0,2643.0,8.09,7.43,-0.33,-1.81,-0.59,-1.6,z
2939.0,890.0,930.0,4017.0,4095.0,2515.0,2739.0,2658.0,4.79,4.59,5.05,-2.73,-0.77,-2.11,z
2954.0,887.0,934.0,4036.0,4095.0,2518.0,2739.0,2658.0,-2.52,4.39,14.41,-2.46,-1.27,-1.98,z
2938.0,880.0,912.0,4076.0,4095.0,2512.0,2739.0,2665.0,-6.71,7.13,20.76,-0.44,0.08,-0.54,z
2951.0,890.0,927.0,4094.0,4095.0,2526.0,2736.0,2658.0,-10.94,8.93,18.4,1.07,0.86,0.85,z
2943.0,881.0,921.0,4049.0,4095.0,2527.0,2747.0,2672.0,-5.25,8.29,11.19,1.22,-0.38,2.27,z
2937.0,884.0,937.0,4003.0,4095.0,2517.0,2739.0,2662.0,-0.27,6.58,8.8,1.56,1.11,2.92,z
2955.0,891.0,927.0,3991.0,4095.0,2512.0,2736.0,2624.0,9.78,5.74,2.75,1.39,0.26,2.94,z
2947.0,897.0,931.0,3979.0,4095.0,2502.0,2734.0,2597.0,13.68,6.39,0.55,1.04,0.42,1.36,z
2941.0,889.0,938.0,4025.0,4095.0,2496.0,2731.0,2599.0,15.31,7.77,0.51,-0.03,-0.6,-0.02,z
2934.0,887.0,939.0,4037.0,4095.0,2500.0,2736.0,2625.0,10.59,9.33,2.66,-0.54,-0.21,-1.16,z
2939.0,881.0,925.0,4094.0,4095.0,2509.0,2745.0,2670.0,-0.17,8.92,7.76,0.01,-0.07,-0.17,z
2940.0,909.0,927.0,4095.0,4095.0,2510.0,2741.0,2668.0,-1.21,9.09,8.06,0.03,0.09,-0.19,z
2955.0,900.0,929.0,4095.0,4095.0,2512.0,2747.0,2667.0,-1.02,8.68,8.49,0.01,0.13,-0.14,z
2944.0,897.0,929.0,4095.0,4095.0,2512.0,2746.0,2672.0,-3.39,8.73,9.79,0.25,0.71,0.01,z
2944.0,899.0,930.0,4095.0,4095.0,2513.0,2742.0,2667.0,-4.48,8.3,9.98,0.52,0.82,0.69,z
2952.0,896.0,923.0,4095.0,4095.0,2511.0,2739.0,2672.0,-4.08,8.55,9.63,0.74,1.32,1.26,z
2949.0,900.0,928.0,4091.0,4095.0,2512.0,2739.0,2672.0,-1.62,8.88,8.44,0.84,0.64,1.75,z
2945.0,900.0,927.0,4093.0,4095.0,2513.0,2743.0,2669.0,2.23,8.51,5.94,0.97,0.57,1.77,z
2933.0,891.0,923.0,4073.0,4095.0,2509.0,2742.0,2655.0,4.05,8.59,3.7,0.91,0.61,1.36,z
2945.0,891.0,915.0,4075.0,4095.0,2510.0,2738.0,2653.0,5.82,8.51,3.49,0.38,0.43,1.17,z
2945.0,893.0,922.0,4069.0,4095.0,2509.0,2739.0,2652.0,7.79,7.89,3.06,0.25,0.48,0.59,z
2950.0,888.0,932.0,4079.0,4095.0,2505.0,2735.0,2643.0,10.16,7.28,1.22,-0.44,-0.29,-0.16,z
2946.0,889.0,931.0,4071.0,4095.0,2504.0,2735.0,2639.0,7.56,7.28,2.02,-1.12,-0.5,-1.02,z
2939.0,885.0,928.0,4073.0,4095.0,2511.0,2738.0,2643.0,3.95,7.21,4.65,-1.86,-1.0,-1.45,z
2950.0,885.0,926.0,4065.0,4095.0,2512.0,2741.0,2661.0,1.23,6.79,8.15,-1.83,-0.28,-1.39,z
2947.0,890.0,930.0,4095.0,4095.0,2512.0,2740.0,2667.0,-2.29,7.38,11.86,-1.67,-0.47,-0.91,z
2940.0,886.0,918.0,4095.0,4095.0,2518.0,2740.0,2670.0,-5.26,8.31,15.99,-1.01,-0.26,0.19,z
2944.0,891.0,930.0,4086.0,4095.0,2519.0,2749.0,2672.0,-3.72,8.37,15.11,0.27,0.03,1.22,z
2949.0,888.0,922.0,4095.0,4095.0,2517.0,2751.0,2671.0,0.62,7.95,11.82,0.81,0.31,1.79,z
2946.0,893.0,919.0,4055.0,4095.0,2511.0,2746.0,2655.0,4.73,8.06,8.22,0.95,0.52,1.77,z
2945.0,896.0,916.0,4089.0,4095.0,2518.0,2743.0,2671.0,-0.58,8.99,8.69,0.09,0.22,-0.2,z
2946.0,883.0,912.0,4095.0,4095.0,2521.0,2747.0,2672.0,0.21,9.2,8.14,0.1,-0.18,-0.05,z
2944.0,886.0,918.0,4095.0,4095.0,2522.0,2747.0,2672.0,-0.68,8.94,8.8,0.22,0.06,-0.07,z
2953.0,899.0,916.0,4095.0,4095.0,2519.0,2737.0,2669.0,-1.25,9.06,9.87,0.4,0.48,0.11,z
2949.0,895.0,919.0,4090.0,4095.0,2522.0,2739.0,2668.0,-5.05,8.8,11.51,1.27,1.11,0.57,z
2941.0,896.0,923.0,4095.0,4095.0,2525.0,2741.0,2671.0,-3.46,9.13,6.99,1.48,0.96,1.43,z
2941.0,893.0,930.0,4083.0,4095.0,2515.0,2737.0,2667.0,0.08,8.16,5.44,1.24,0.11,1.9,z
2949.0,891.0,915.0,4069.0,4095.0,2512.0,2735.0,2643.0,7.01,7.65,3.49,0.84,0.41,1.51,z
2939.0,894.0,937.0,4058.0,4095.0,2517.0,2737.0,2625.0,11.36,7.61,2.25,0.49,0.36,0.56,z
2943.0,884.0,925.0,4059.0,4095.0,2512.0,2736.0,2625.0,10.96,7.97,0.26,-0.15,0.03,-0.65,z
2943.0,883.0,925.0,4046.0,4095.0,2513.0,2736.0,2643.0,6.83,8.01,2.89,-0.91,0.13,-1.37,z
2948.0,891.0,928.0,4070.0,4095.0,2516.0,2738.0,2654.0,3.62,7.29,3.9,-1.19,-0.49,-1.78,z
2950.0,887.0,917.0,4087.0,4095.0,2521.0,2741.0,2663.0,0.41,7.06,8.62,-1.84,-0.98,-2.07,z
2947.0,877.0,922.0,4082.0,4095.0,2519.0,2743.0,2667.0,-5.18,8.95,13.32,-0.83,-0.26,-1.64,z
2949.0,889.0,929.0,4087.0,4095.0,2525.0,2742.0,2671.0,-8.81,9.73,12.97,0.12,0.27,-0.3,z
2957.0,894.0,911.0,4091.0,4095.0,2529.0,2739.0,2663.0,-7.69,9.66,9.35,0.57,0.13,1.04,z
2958.0,893.0,922.0,4065.0,4095.0,2522.0,2740.0,2671.0,-3.58,8.24,7.96,0.45,0.39,2.04,z
2949.0,885.0,933.0,4061.0,4095.0,2523.0,2749.0,2658.0,3.2,7.66,6.48,0.43,0.16,2.33,z
2949.0,897.0,929.0,4048.0,4095.0,2514.0,2743.0,2639.0,8.63,7.61,5.68,0.45,0.55,1.58,z
2944.0,887.0,924.0,4043.0,4095.0,2513.0,2741.0,2633.0,9.39,8.52,5.56,0.34,0.21,0.68,z
2944.0,891.0,924.0,4075.0,4095.0,2522.0,2749.0,2670.0,3.13,9.22,4.73,-0.01,0.24,-0.29,z
2944.0,891.0,924.0,4075.0,4095.0,2522.0,2749.0,2670.0,3.13,9.22,4.73,-0.01,0.24,-0.29,z
2954.0,887.0,927.0,4083.0,4095.0,2519.0,2747.0,2662.0,6.57,8.89,3.36,-0.47,0.45,-0.83,z
2943.0,887.0,921.0,4080.0,4095.0,2518.0,2749.0,2665.0,-0.55,9.26,8.71,-0.66,0.76,-1.86,z
2949.0,887.0,921.0,4085.0,4095.0,2523.0,2736.0,2662.0,-13.07,10.64,11.92,0.98,1.09,0.33,z
2942.0,883.0,923.0,4095.0,4095.0,2536.0,2741.0,2667.0,-5.19,9.36,6.5,0.8,0.18,2.25,z
2945.0,895.0,927.0,4066.0,4095.0,2531.0,2746.0,2673.0,1.68,8.01,4.39,0.63,0.06,1.97,z
2944.0,894.0,925.0,4049.0,4095.0,2521.0,2742.0,2623.0,9.28,6.61,2.85,0.05,-0.22,0.98,z
2947.0,873.0,926.0,3999.0,4095.0,2502.0,2736.0,2587.0,12.96,6.18,1.28,-0.12,-0.31,0.12,z
2944.0,880.0,930.0,3984.0,4095.0,2498.0,2735.0,2599.0,11.43,6.65,-0.37,-0.79,0.05,-0.91,z
2942.0,880.0,926.0,4011.0,4095.0,2513.0,2742.0,2639.0,5.64,6.84,3.5,-1.51,0.28,-1.59,z
2942.0,880.0,921.0,4047.0,4095.0,2528.0,2745.0,2663.0,1.01,6.34,7.58,-1.45,0.3,-1.74,z
2945.0,885.0,922.0,4063.0,4095.0,2524.0,2741.0,2663.0,-4.39,8.16,11.6,-1.2,-0.45,-1.43,z
2951.0,871.0,915.0,4080.0,4095.0,2526.0,2749.0,2667.0,-9.2,10.14,16.04,-0.38,0.49,-0.35,z
2938.0,884.0,912.0,4063.0,4095.0,2525.0,2746.0,2666.0,-8.96,9.92,12.99,0.81,0.14,1.57,z
2940.0,880.0,926.0,4032.0,4095.0,2522.0,2747.0,2663.0,-2.35,7.84,7.64,0.96,0.12,2.41,z
2945.0,871.0,921.0,4026.0,4095.0,2521.0,2751.0,2641.0,6.13,6.81,4.66,0.5,-0.13,2.96,z
2953.0,887.0,929.0,4027.0,4095.0,2512.0,2746.0,2619.0,12.3,5.64,6.7,0.31,0.74,1.57,z
2946.0,875.0,922.0,4026.0,4095.0,2513.0,2744.0,2608.0,12.28,7.79,5.64,0.29,0.25,0.59,z
2944.0,881.0,923.0,4027.0,4095.0,2512.0,2741.0,2626.0,7.3,9.1,5.71,0.26,0.35,-0.01,z
2953.0,885.0,918.0,4095.0,4095.0,2523.0,2752.0,2673.0,0.37,9.14,7.37,-0.04,-0.04,-0.24,z
2953.0,881.0,915.0,4095.0,4095.0,2517.0,2743.0,2671.0,0.23,8.95,7.46,-0.03,-0.04,-0.22,z
2951.0,881.0,929.0,4095.0,4095.0,2517.0,2746.0,2672.0,-0.17,8.84,8.25,-0.08,0.13,-0.25,z
2943.0,880.0,923.0,4095.0,4095.0,2522.0,2746.0,2672.0,-2.87,8.59,10.79,0.31,0.77,-0.08,z
2944.0,892.0,931.0,4095.0,4095.0,2527.0,2751.0,2672.0,-4.56,8.45,10.99,1.01,0.68,0.72,z
2949.0,880.0,920.0,4095.0,4095.0,2527.0,2752.0,2678.0,-2.18,8.58,8.16,1.34,0.32,1.44,z
2942.0,879.0,929.0,4068.0,4095.0,2517.0,2750.0,2667.0,3.4,8.37,3.87,1.19,0.07,1.68,z
2957.0,880.0,923.0,4071.0,4095.0,2509.0,2739.0,2640.0,8.47,8.27,0.25,0.64,0.6,0.98,z
2944.0,879.0,933.0,4055.0,4095.0,2512.0,2741.0,2629.0,11.24,8.3,-1.75,-0.37,0.04,-0.19,z
2951.0,880.0,928.0,4071.0,4095.0,2513.0,2743.0,2640.0,7.6,7.77,1.54,-1.34,-0.02,-1.28,z
2945.0,880.0,928.0,4080.0,4095.0,2521.0,2753.0,2657.0,4.17,7.02,5.33,-1.85,-0.24,-1.79,z
2935.0,883.0,930.0,4083.0,4095.0,2527.0,2752.0,2672.0,-1.02,7.09,10.33,-1.89,-0.09,-2.08,z
2945.0,880.0,926.0,4095.0,4095.0,2526.0,2751.0,2672.0,-8.17,8.15,16.13,-0.74,0.86,-1.24,z
2948.0,878.0,911.0,4095.0,4095.0,2526.0,2745.0,2666.0,-10.22,8.87,13.88,0.45,0.13,0.32,z
2945.0,884.0,917.0,4073.0,4095.0,2526.0,2748.0,2671.0,-6.53,8.02,9.26,0.65,-0.09,1.69,z
2942.0,890.0,922.0,4035.0,4095.0,2523.0,2749.0,2667.0,-1.58,7.74,6.64,0.48,-0.18,2.59,z
2942.0,881.0,917.0,4067.0,4095.0,2512.0,2751.0,2641.0,6.26,6.46,6.47,0.09,0.34,2.37,z
2941.0,883.0,925.0,4069.0,4095.0,2511.0,2748.0,2630.0,11.21,7.61,7.12,0.07,0.32,1.31,z
2938.0,890.0,929.0,4070.0,4095.0,2510.0,2743.0,2627.0,10.57,8.68,6.75,0.28,-0.21,0.24,z
2945.0,895.0,917.0,4075.0,4095.0,2511.0,2749.0,2641.0,5.81,9.97,6.64,0.22,0.3,-0.23,z
2947.0,892.0,919.0,4095.0,4095.0,2522.0,2752.0,2678.0,0.09,9.09,7.68,0.05,0.03,-0.24,z
2947.0,892.0,919.0,4095.0,4095.0,2522.0,2752.0,2678.0,0.09,9.09,7.68,0.05,0.03,-0.24,z
2948.0,894.0,927.0,4080.0,4095.0,2523.0,2751.0,2683.0,-0.41,9.39,8.41,-0.01,-0.03,-0.15,z
2943.0,880.0,921.0,4071.0,4095.0,2519.0,2751.0,2677.0,-2.21,9.3,11.42,0.36,0.92,-0.02,z
2957.0,898.0,922.0,4082.0,4095.0,2523.0,2749.0,2679.0,-4.13,8.88,10.98,1.18,1.22,0.59,z
2947.0,887.0,921.0,4090.0,4095.0,2525.0,2746.0,2684.0,-3.6,8.75,8.28,1.19,1.39,1.23,z
2945.0,882.0,928.0,4074.0,4095.0,2521.0,2746.0,2673.0,-1.31,7.95,5.93,1.21,0.3,2.0,z
2943.0,887.0,929.0,4053.0,4095.0,2514.0,2746.0,2657.0,7.61,6.36,1.22,0.83,0.15,1.79,z
2947.0,880.0,927.0,4025.0,4095.0,2508.0,2736.0,2624.0,15.23,5.62,-1.57,0.2,-0.22,0.49,z
2944.0,882.0,928.0,4019.0,4095.0,2509.0,2738.0,2625.0,10.24,8.32,-2.15,-0.83,-0.32,-1.29,z
2946.0,883.0,927.0,4017.0,4095.0,2512.0,2743.0,2645.0,4.54,7.27,4.08,-1.66,0.56,-1.54,z
2955.0,885.0,926.0,4071.0,4095.0,2527.0,2751.0,2670.0,-0.56,7.68,9.33,-1.53,0.27,-1.7,z
2951.0,889.0,927.0,4091.0,4095.0,2525.0,2743.0,2672.0,-6.62,9.42,15.09,-0.92,0.6,-1.02,z
2949.0,880.0,928.0,4085.0,4095.0,2532.0,2753.0,2679.0,-9.95,9.93,15.44,0.47,-0.28,0.33,z
2953.0,881.0,929.0,4071.0,4095.0,2524.0,2747.0,2677.0,-3.81,8.61,8.19,1.0,-0.8,1.73,z
2950.0,883.0,924.0,4049.0,4095.0,2527.0,2743.0,2666.0,0.99,7.63,4.89,0.91,0.14,2.29,z
2944.0,879.0,926.0,4028.0,4095.0,2522.0,2747.0,2645.0,8.13,6.96,3.97,0.24,0.82,1.84,z
2951.0,885.0,927.0,4032.0,4095.0,2512.0,2742.0,2635.0,11.04,7.55,4.72,0.22,0.13,1.09,z
2944.0,882.0,922.0,4031.0,4095.0,2512.0,2746.0,2639.0,8.3,8.83,5.78,0.28,0.19,0.35,z
2943.0,880.0,925.0,4045.0,4095.0,2525.0,2751.0,2656.0,7.76,9.33,4.92,0.16,0.14,-0.04,z
2944.0,871.0,923.0,4095.0,4095.0,2530.0,2758.0,2688.0,0.52,8.82,7.83,-0.05,-0.06,-0.22,z
2949.0,874.0,929.0,4095.0,4095.0,2531.0,2758.0,2683.0,-1.52,8.93,9.16,0.03,0.49,-0.26,z
2957.0,883.0,914.0,4088.0,4095.0,2533.0,2751.0,2685.0,-3.46,8.72,10.5,0.34,0.67,0.17,z
2946.0,880.0,913.0,4095.0,4095.0,2533.0,2755.0,2687.0,-5.3,7.63,11.34,0.9,1.43,0.75,z
2947.0,880.0,923.0,4095.0,4095.0,2532.0,2759.0,2689.0,-5.14,8.11,8.81,0.97,1.2,1.74,z
2945.0,867.0,921.0,4095.0,4095.0,2528.0,2754.0,2682.0,2.83,7.6,4.39,0.65,0.03,2.37,z
2944.0,874.0,919.0,4069.0,4095.0,2515.0,2750.0,2624.0,14.22,6.15,3.13,0.1,0.53,1.38,z
2950.0,887.0,942.0,4002.0,4095.0,2509.0,2745.0,2610.0,13.51,8.24,-1.2,0.04,-0.9,-0.49,z
2947.0,876.0,931.0,4018.0,4095.0,2512.0,2747.0,2627.0,6.53,8.9,0.45,-1.01,-0.32,-1.47,z
2959.0,880.0,919.0,4049.0,4095.0,2521.0,2750.0,2661.0,2.63,7.81,5.88,-1.28,-0.12,-1.57,z
2953.0,867.0,928.0,4095.0,4095.0,2519.0,2750.0,2672.0,-2.54,6.97,11.6,-1.32,-0.32,-1.47,z
2945.0,875.0,915.0,4095.0,4095.0,2523.0,2751.0,2672.0,-6.79,8.28,15.23,-0.65,-0.78,-0.63,z
2949.0,880.0,914.0,4095.0,4095.0,2530.0,2751.0,2672.0,-7.13,8.83,14.14,0.12,0.21,0.61,z
2939.0,886.0,922.0,4085.0,4095.0,2528.0,2753.0,2677.0,-4.0,8.6,9.85,0.44,0.57,1.67,z
2950.0,866.0,914.0,4065.0,4095.0,2527.0,2755.0,2669.0,2.77,7.78,7.64,0.13,0.4,2.26,z
2943.0,875.0,926.0,4049.0,4095.0,2517.0,2753.0,2642.0,6.8,7.34,8.03,0.3,0.58,1.63,z
2950.0,874.0,929.0,4053.0,4095.0,2510.0,2750.0,2622.0,10.34,7.74,7.27,0.42,0.3,0.96,z
2954.0,881.0,919.0,4050.0,4095.0,2516.0,2748.0,2639.0,7.57,9.28,6.37,0.52,0.04,0.26,z
2938.0,881.0,915.0,4046.0,4095.0,2519.0,2752.0,2657.0,5.75,9.02,6.31,0.26,0.37,-0.16,z
2941.0,884.0,927.0,4053.0,4095.0,2526.0,2754.0,2659.0,4.19,8.9,6.95,0.02,-0.3,-0.28,z
2944.0,883.0,919.0,4083.0,4095.0,2523.0,2751.0,2678.0,0.22,9.46,7.53,0.01,-0.15,-0.32,z
2955.0,897.0,928.0,4090.0,4095.0,2523.0,2753.0,2678.0,0.99,9.3,7.18,-0.04,-0.03,-0.26,z
2956.0,912.0,919.0,4090.0,4095.0,2523.0,2746.0,2679.0,-0.22,9.59,7.98,0.09,-0.09,-0.25,z
2943.0,919.0,932.0,4095.0,4095.0,2521.0,2749.0,2688.0,-0.86,9.5,10.28,0.13,0.32,-0.07,z
2947.0,912.0,925.0,4095.0,4095.0,2523.0,2746.0,2683.0,-3.05,8.75,11.97,0.89,0.95,0.18,z
2947.0,916.0,928.0,4094.0,4095.0,2523.0,2747.0,2687.0,-2.6,8.59,9.51,1.22,1.4,0.82,z
2950.0,909.0,923.0,4095.0,4095.0,2530.0,2754.0,2685.0,-0.79,8.03,7.27,1.39,1.24,1.28,z
2944.0,901.0,918.0,4065.0,4095.0,2523.0,2751.0,2672.0,2.83,7.94,3.77,1.45,1.41,1.43,z
2954.0,905.0,927.0,4058.0,4095.0,2523.0,2747.0,2655.0,7.71,7.23,-0.13,1.07,0.53,1.11,z
2943.0,907.0,929.0,4029.0,4095.0,2516.0,2751.0,2641.0,11.76,6.77,-2.85,0.15,-0.04,0.32,z
2944.0,914.0,927.0,4007.0,4095.0,2512.0,2741.0,2631.0,11.28,6.6,-2.61,-1.2,-0.42,-0.9,z
2943.0,910.0,929.0,4021.0,4095.0,2517.0,2745.0,2642.0,5.81,5.6,2.49,-1.84,-0.28,-1.58,z
2943.0,895.0,925.0,4032.0,4095.0,2526.0,2752.0,2663.0,0.79,5.87,7.29,-1.78,-0.71,-1.7,z
2953.0,899.0,926.0,4053.0,4095.0,2533.0,2750.0,2672.0,-4.99,7.88,12.83,-1.27,-0.07,-0.99,z
2953.0,898.0,914.0,4061.0,4095.0,2538.0,2747.0,2671.0,-8.57,9.81,15.67,-0.76,-0.31,0.15,z
2938.0,913.0,919.0,4019.0,4095.0,2542.0,2763.0,2678.0,-6.08,9.51,13.33,0.13,0.21,1.75,z
2951.0,911.0,927.0,4023.0,4095.0,2534.0,2750.0,2672.0,2.05,12.11,7.87,0.33,0.62,2.26,z
2954.0,912.0,927.0,3999.0,4095.0,2522.0,2751.0,2650.0,7.79,7.6,6.85,0.19,1.28,1.62,z
2939.0,909.0,926.0,3984.0,4095.0,2521.0,2751.0,2624.0,9.63,9.06,5.13,-0.0,0.08,0.65,z
2953.0,901.0,934.0,3994.0,4095.0,2527.0,2749.0,2625.0,6.89,8.85,7.13,0.09,0.16,0.45,z
2941.0,911.0,926.0,4053.0,4095.0,2522.0,2752.0,2676.0,0.05,9.47,6.82,-0.07,-0.03,-0.15,z
2954.0,913.0,922.0,4062.0,4095.0,2528.0,2752.0,2679.0,-0.68,9.32,7.4,0.06,0.21,-0.2,z
2949.0,907.0,927.0,4058.0,4095.0,2526.0,2749.0,2676.0,-2.18,9.25,9.52,0.2,0.33,-0.03,z
2944.0,917.0,931.0,4046.0,4095.0,2528.0,2751.0,2687.0,-3.92,8.68,11.42,1.09,0.98,0.44,z
2939.0,920.0,925.0,4063.0,4095.0,2529.0,2753.0,2679.0,-2.35,8.77,7.58,1.6,0.74,1.18,z
2939.0,912.0,914.0,4046.0,4095.0,2525.0,2750.0,2672.0,1.09,8.41,3.2,1.57,0.62,1.39,z
2938.0,897.0,929.0,4039.0,4095.0,2518.0,2741.0,2649.0,7.32,8.62,-2.47,0.7,0.35,1.06,z
2957.0,906.0,927.0,3982.0,4095.0,2512.0,2738.0,2637.0,10.31,8.13,-4.56,-0.44,-0.02,0.05,z
2950.0,905.0,929.0,3984.0,4095.0,2522.0,2745.0,2643.0,7.81,7.81,-1.28,-1.94,-0.35,-1.04,z
2951.0,897.0,919.0,4026.0,4095.0,2529.0,2752.0,2666.0,3.78,6.43,5.4,-2.31,-0.39,-1.5,z
2946.0,900.0,915.0,4062.0,4095.0,2528.0,2755.0,2672.0,-0.97,6.05,11.32,-1.74,-0.3,-1.65,z
2950.0,904.0,915.0,4058.0,4095.0,2535.0,2758.0,2677.0,-5.28,8.33,13.82,-0.97,0.08,-1.23,z
2941.0,902.0,923.0,4065.0,4095.0,2541.0,2762.0,2679.0,-9.22,8.94,17.12,-0.35,0.09,-0.05,z
2938.0,900.0,921.0,4049.0,4095.0,2539.0,2762.0,2686.0,-6.87,8.52,12.08,0.8,0.42,1.38,z
2945.0,903.0,928.0,4031.0,4095.0,2536.0,2761.0,2684.0,-1.21,7.64,8.04,0.58,0.42,2.26,z
2953.0,907.0,919.0,4005.0,4095.0,2531.0,2759.0,2662.0,6.04,8.59,6.04,0.62,1.17,2.28,z
2949.0,891.0,934.0,3997.0,4095.0,2519.0,2752.0,2625.0,9.52,8.16,6.01,0.52,0.79,1.45,z
2943.0,890.0,928.0,4006.0,4095.0,2518.0,2751.0,2635.0,9.39,9.49,5.2,0.38,0.41,0.42,z
2949.0,891.0,935.0,4017.0,4095.0,2526.0,2757.0,2658.0,5.51,9.7,5.84,0.32,0.3,-0.14,z
2946.0,886.0,921.0,4010.0,4095.0,2527.0,2751.0,2659.0,4.11,9.96,6.05,0.04,0.06,-0.3,z
2933.0,911.0,934.0,4042.0,4095.0,2526.0,2755.0,2673.0,1.22,8.56,7.31,0.05,-0.04,-0.47,z
2950.0,912.0,931.0,4047.0,4095.0,2525.0,2757.0,2675.0,0.85,8.71,7.57,-0.03,0.01,-0.43,z
2944.0,911.0,925.0,4051.0,4095.0,2522.0,2755.0,2672.0,0.59,9.47,8.01,0.04,0.08,-0.43,z
2960.0,912.0,926.0,4047.0,4095.0,2527.0,2758.0,2677.0,-0.87,9.52,9.25,0.21,0.42,-0.42,z
2947.0,914.0,926.0,4067.0,4095.0,2530.0,2752.0,2677.0,-4.47,9.44,10.89,0.73,1.3,-0.05,z
2946.0,912.0,937.0,4063.0,4095.0,2530.0,2752.0,2688.0,-5.32,9.44,8.7,1.17,0.99,1.1,z
2943.0,913.0,928.0,4063.0,4095.0,2533.0,2759.0,2682.0,-0.51,8.13,5.97,1.09,0.87,1.8,z
2945.0,917.0,933.0,4045.0,4095.0,2523.0,2749.0,2655.0,7.31,7.53,2.11,0.76,0.59,1.56,z
2943.0,910.0,934.0,4015.0,4095.0,2517.0,2743.0,2624.0,11.26,6.58,-0.01,0.36,0.21,0.6,z
2946.0,907.0,942.0,3975.0,4095.0,2514.0,2741.0,2611.0,12.88,6.9,-2.89,-0.79,-0.07,-0.61,z
2943.0,907.0,931.0,3985.0,4095.0,2521.0,2746.0,2635.0,7.42,6.85,1.66,-1.77,-0.45,-1.5,z
2950.0,912.0,931.0,4026.0,4095.0,2523.0,2749.0,2657.0,2.43,6.06,6.93,-1.72,-0.77,-1.6,z
2944.0,917.0,926.0,4043.0,4095.0,2533.0,2751.0,2672.0,-2.89,7.53,11.83,-1.45,-0.63,-1.61,z
2941.0,921.0,923.0,4032.0,4095.0,2531.0,2749.0,2674.0,-8.07,9.45,17.07,-0.57,-0.43,-0.94,z
2935.0,923.0,917.0,4042.0,4095.0,2535.0,2743.0,2672.0,-7.79,10.34,13.89,0.49,0.13,0.97,z
2953.0,947.0,930.0,4032.0,4095.0,2533.0,2736.0,2670.0,-2.1,9.0,10.27,0.63,-0.16,1.67,z
2939.0,947.0,927.0,3989.0,4095.0,2525.0,2741.0,2669.0,3.69,8.5,7.4,0.73,0.61,1.92,z
2947.0,949.0,928.0,4000.0,4095.0,2523.0,2741.0,2638.0,8.74,7.94,5.03,0.58,0.62,1.17,z
2950.0,955.0,938.0,3993.0,4095.0,2517.0,2737.0,2633.0,9.65,8.58,5.8,0.31,0.34,0.65,z
2938.0,957.0,940.0,3999.0,4095.0,2526.0,2743.0,2653.0,7.22,9.12,5.8,0.44,0.48,-0.12,z
2951.0,949.0,918.0,4061.0,4095.0,2534.0,2751.0,2684.0,-0.81,8.97,8.6,0.09,0.55,-0.1,z
2951.0,949.0,918.0,4061.0,4095.0,2534.0,2751.0,2684.0,-0.81,8.97,8.6,0.09,0.55,-0.1,z
2947.0,935.0,923.0,4061.0,4095.0,2537.0,2751.0,2681.0,-3.09,8.86,9.7,0.37,0.89,0.26,z
2943.0,943.0,914.0,4071.0,4095.0,2533.0,2750.0,2685.0,-3.31,8.78,9.98,0.56,1.19,0.79,z
2943.0,941.0,921.0,4064.0,4095.0,2539.0,2754.0,2685.0,-2.59,9.17,8.1,0.83,1.05,1.51,z
2939.0,944.0,921.0,4022.0,4095.0,2527.0,2748.0,2671.0,7.47,8.43,1.98,0.55,0.44,1.8,z
2949.0,937.0,938.0,4010.0,4095.0,2518.0,2739.0,2633.0,12.0,7.61,0.61,0.1,-0.28,0.36,z
2955.0,937.0,934.0,3985.0,4095.0,2517.0,2738.0,2631.0,10.13,8.51,-1.08,-0.59,-0.61,-0.93,z
2950.0,923.0,927.0,4001.0,4095.0,2522.0,2747.0,2651.0,4.88,8.21,1.48,-1.42,-0.56,-1.46,z
2947.0,934.0,925.0,4048.0,4095.0,2539.0,2745.0,2672.0,0.61,7.1,10.15,-1.5,-0.49,-1.47,z
2944.0,931.0,913.0,4076.0,4095.0,2535.0,2747.0,2673.0,-3.69,8.13,14.25,-0.5,-0.14,-1.13,z
2947.0,935.0,912.0,4059.0,4095.0,2537.0,2751.0,2672.0,-5.48,8.87,14.13,-0.18,-0.9,-0.39,z
2942.0,944.0,925.0,4060.0,4095.0,2538.0,2749.0,2679.0,-5.68,8.55,12.13,0.44,0.45,0.66,z
2947.0,933.0,919.0,4049.0,4095.0,2539.0,2749.0,2683.0,-3.45,7.96,9.87,0.35,0.46,1.55,z
2950.0,944.0,930.0,4038.0,4095.0,2541.0,2751.0,2672.0,1.41,7.95,7.44,0.3,0.65,2.02,z
2944.0,928.0,930.0,4017.0,4095.0,2533.0,2745.0,2651.0,6.01,8.19,5.43,0.14,0.32,1.84,z
2950.0,935.0,924.0,4016.0,4095.0,2530.0,2749.0,2639.0,9.86,7.99,6.35,0.06,0.32,1.04,z
2935.0,945.0,919.0,4000.0,4095.0,2528.0,2752.0,2647.0,8.48,8.81,6.98,0.28,0.18,0.34,z
2949.0,943.0,927.0,4017.0,4095.0,2529.0,2749.0,2657.0,6.01,9.28,6.52,0.22,0.54,-0.09,z
2945.0,935.0,922.0,4014.0,4095.0,2535.0,2752.0,2669.0,4.52,8.91,7.08,0.01,-0.1,-0.22,z
2955.0,944.0,923.0,4064.0,4095.0,2530.0,2751.0,2679.0,0.76,9.25,7.52,-0.07,0.05,-0.25,z
2943.0,943.0,927.0,4069.0,4095.0,2533.0,2753.0,2685.0,0.32,9.15,7.83,-0.09,-0.05,-0.23,z
2946.0,944.0,925.0,4075.0,4095.0,2532.0,2751.0,2681.0,-0.15,8.95,9.05,-0.06,0.23,-0.24,z
2950.0,943.0,929.0,4095.0,4095.0,2535.0,2752.0,2679.0,-3.68,8.24,12.89,0.42,1.11,0.15,z
2949.0,932.0,922.0,4095.0,4095.0,2538.0,2752.0,2688.0,-3.75,8.44,11.21,1.21,1.27,1.05,z
2946.0,939.0,922.0,4082.0,4095.0,2537.0,2749.0,2687.0,-0.53,8.11,7.6,1.15,0.65,1.58,z
2943.0,939.0,923.0,4048.0,4095.0,2530.0,2748.0,2672.0,5.25,8.1,3.36,1.05,0.63,1.34,z
2950.0,939.0,931.0,4039.0,4095.0,2528.0,2749.0,2642.0,9.08,7.85,-0.15,0.63,0.07,0.77,z
2953.0,926.0,929.0,3999.0,4095.0,2522.0,2742.0,2640.0,10.81,8.02,-2.46,-0.2,0.01,-0.2,z
2957.0,930.0,934.0,4016.0,4095.0,2526.0,2751.0,2658.0,7.49,7.91,0.69,-1.29,-0.32,-1.06,z
2944.0,928.0,928.0,4048.0,4095.0,2537.0,2750.0,2671.0,3.77,6.86,5.72,-1.65,-0.42,-1.49,z
2944.0,928.0,924.0,4049.0,4095.0,2535.0,2758.0,2682.0,-0.2,7.06,11.2,-1.58,-0.89,-1.38,z
2949.0,927.0,925.0,4063.0,4095.0,2544.0,2754.0,2685.0,-4.35,8.37,14.48,-0.8,0.02,-0.87,z
2943.0,945.0,920.0,4079.0,4095.0,2540.0,2749.0,2677.0,-7.24,9.26,15.21,0.04,0.72,0.3,z
2945.0,949.0,925.0,4048.0,4095.0,2544.0,2750.0,2685.0,-4.78,9.19,11.48,0.57,0.04,1.45,z
2945.0,944.0,919.0,4031.0,4095.0,2539.0,2753.0,2683.0,1.96,8.53,7.64,0.66,0.25,2.02,z
2957.0,944.0,925.0,4030.0,4095.0,2538.0,2751.0,2657.0,8.28,7.63,6.02,0.62,0.2,1.68,z
2953.0,944.0,927.0,4003.0,4095.0,2527.0,2749.0,2645.0,9.31,7.95,5.68,0.65,0.34,0.74,z
2951.0,938.0,933.0,4030.0,4095.0,2526.0,2747.0,2659.0,7.72,9.1,5.1,0.51,0.33,0.19,z
2949.0,935.0,923.0,4038.0,4095.0,2535.0,2749.0,2667.0,5.57,9.27,5.63,0.27,0.31,-0.14,z
2944.0,938.0,917.0,4087.0,4095.0,2534.0,2746.0,2691.0,0.23,9.44,7.34,0.05,0.05,-0.23,z
2946.0,933.0,914.0,4093.0,4095.0,2532.0,2746.0,2693.0,0.02,9.55,7.22,0.07,-0.24,-0.26,z
2942.0,938.0,933.0,4089.0,4095.0,2534.0,2751.0,2696.0,-0.28,9.47,7.35,-0.02,0.0,-0.26,z
2944.0,938.0,932.0,4090.0,4095.0,2541.0,2752.0,2695.0,-1.27,9.4,8.46,0.0,0.06,-0.19,z
2951.0,943.0,918.0,4095.0,4095.0,2540.0,2751.0,2694.0,-3.34,8.82,10.74,0.29,0.82,0.15,z
2951.0,940.0,919.0,4095.0,4095.0,2544.0,2747.0,2688.0,-4.08,9.08,9.87,0.89,1.12,0.8,z
2947.0,941.0,927.0,4086.0,4095.0,2539.0,2750.0,2691.0,-1.89,8.96,7.58,0.9,1.05,1.29,z
2946.0,935.0,928.0,4083.0,4095.0,2537.0,2749.0,2689.0,1.85,8.82,5.55,0.8,0.57,1.24,z
2959.0,930.0,932.0,4070.0,4095.0,2535.0,2749.0,2681.0,5.84,8.54,3.53,0.57,0.42,0.88,z
2941.0,928.0,927.0,4039.0,4095.0,2530.0,2747.0,2675.0,9.67,7.96,1.28,0.29,0.13,0.26,z
2944.0,915.0,931.0,4062.0,4095.0,2533.0,2751.0,2670.0,9.93,8.07,-1.1,-0.41,0.08,-0.91,z
2952.0,917.0,929.0,4048.0,4095.0,2532.0,2752.0,2673.0,4.54,6.93,2.91,-1.31,-0.48,-1.69,z
2947.0,919.0,919.0,4080.0,4095.0,2544.0,2759.0,2685.0,-1.19,6.46,9.39,-1.07,-0.35,-1.55,z
2943.0,915.0,926.0,4093.0,4095.0,2541.0,2755.0,2687.0,-5.61,8.24,12.09,-0.55,-0.06,-0.83,z
2945.0,929.0,916.0,4094.0,4095.0,2545.0,2756.0,2688.0,-7.87,10.05,12.25,-0.07,0.23,0.26,z
2956.0,929.0,928.0,4077.0,4095.0,2553.0,2759.0,2695.0,-6.06,10.47,10.01,0.11,-0.18,1.37,z
2944.0,919.0,922.0,4042.0,4095.0,2544.0,2755.0,2683.0,-1.64,10.34,7.24,0.32,0.37,2.06,z
2944.0,932.0,922.0,4037.0,4095.0,2543.0,2756.0,2673.0,5.4,8.05,6.3,0.19,0.39,2.01,z
2949.0,925.0,937.0,4039.0,4095.0,2544.0,2754.0,2663.0,9.71,8.04,5.36,0.29,0.37,1.13,z
2955.0,916.0,930.0,4048.0,4095.0,2541.0,2754.0,2663.0,9.05,8.29,5.62,0.14,0.05,0.29,z
2946.0,915.0,927.0,4071.0,4095.0,2553.0,2762.0,2691.0,3.55,9.78,4.42,0.38,0.19,-0.04,z
2946.0,915.0,927.0,4071.0,4095.0,2553.0,2762.0,2691.0,3.55,9.78,4.42,0.38,0.19,-0.04,z
2949.0,922.0,917.0,4075.0,4095.0,2546.0,2759.0,2697.0,2.85,10.23,4.01,0.14,0.1,-0.19,z
2957.0,926.0,917.0,4083.0,4095.0,2554.0,2763.0,2697.0,0.65,9.87,5.94,0.07,0.21,-0.22,z
2946.0,914.0,914.0,4071.0,4095.0,2551.0,2763.0,2701.0,-0.61,9.38,6.66,0.36,0.02,0.18,z
2946.0,927.0,919.0,4089.0,4095.0,2551.0,2757.0,2694.0,-1.36,9.28,6.19,0.83,0.68,1.0,z
2943.0,924.0,925.0,4071.0,4095.0,2549.0,2761.0,2701.0,0.4,8.69,4.58,1.01,0.92,1.55,z
2947.0,925.0,927.0,4082.0,4095.0,2554.0,2763.0,2693.0,7.01,7.6,2.17,0.23,-0.09,1.33,z
2945.0,911.0,927.0,4044.0,4095.0,2535.0,2755.0,2648.0,16.39,4.45,-0.33,-0.39,-0.3,0.28,z
2945.0,918.0,940.0,3997.0,4095.0,2529.0,2751.0,2635.0,11.0,8.97,-3.98,-1.07,-1.23,-1.47,z
2938.0,903.0,941.0,3990.0,4095.0,2535.0,2754.0,2640.0,6.97,7.21,-0.64,-2.14,-0.21,-1.79,z
2946.0,912.0,928.0,4025.0,4095.0,2544.0,2759.0,2673.0,4.4,5.32,3.97,-2.67,-0.38,-2.21,z
2944.0,919.0,926.0,4095.0,4095.0,2551.0,2757.0,2684.0,-3.14,5.78,14.08,-2.3,0.07,-1.86,z
2945.0,918.0,908.0,4095.0,4095.0,2554.0,2761.0,2687.0,-6.69,8.69,18.36,-0.69,-0.28,-0.93,z
2945.0,913.0,912.0,4075.0,4095.0,2554.0,2763.0,2687.0,-7.72,9.63,15.91,0.51,-0.26,0.14,z
2953.0,912.0,922.0,4095.0,4095.0,2555.0,2759.0,2686.0,-4.99,8.68,11.87,0.96,0.5,1.15,z
2940.0,914.0,924.0,4045.0,4095.0,2559.0,2766.0,2688.0,1.54,7.7,9.34,1.04,0.29,1.8,z
2951.0,915.0,923.0,4036.0,4095.0,2545.0,2761.0,2663.0,5.94,7.15,6.66,1.15,0.55,1.53,z
2939.0,917.0,925.0,4016.0,4095.0,2541.0,2758.0,2645.0,10.64,7.42,3.57,1.03,0.04,1.17,z
2944.0,914.0,930.0,4013.0,4095.0,2544.0,2755.0,2651.0,9.42,8.9,2.36,0.81,0.05,0.23,z
2944.0,1150.0,921.0,4095.0,4095.0,2545.0,2763.0,2703.0,0.46,9.57,6.58,0.01,-0.02,-0.2,z
2943.0,1143.0,927.0,4080.0,4095.0,2545.0,2767.0,2705.0,0.46,9.62,6.62,0.0,-0.03,-0.18,z
2950.0,1138.0,927.0,4095.0,4095.0,2549.0,2768.0,2706.0,0.29,9.64,6.7,0.0,0.02,-0.2,z
2944.0,1146.0,925.0,4095.0,4095.0,2544.0,2759.0,2704.0,0.07,9.73,6.77,0.01,0.01,-0.22,z
2946.0,1148.0,928.0,4087.0,4095.0,2544.0,2763.0,2706.0,-1.75,9.94,7.97,-0.01,0.34,-0.12,z
2951.0,1143.0,928.0,4095.0,4095.0,2546.0,2761.0,2703.0,-4.1,9.84,9.31,0.42,0.81,0.21,z
2945.0,1138.0,919.0,4095.0,4095.0,2546.0,2756.0,2704.0,-3.36,9.47,7.94,0.74,0.75,1.13,z
2944.0,1151.0,926.0,4095.0,4095.0,2548.0,2763.0,2704.0,1.07,8.86,6.42,0.66,0.42,1.39,z
2942.0,1139.0,925.0,4070.0,4095.0,2544.0,2766.0,2695.0,4.08,8.49,3.92,0.65,0.81,1.14,z
2955.0,1085.0,929.0,4069.0,4095.0,2538.0,2761.0,2682.0,8.9,7.79,0.51,0.04,0.34,0.69,z
2954.0,1055.0,933.0,4062.0,4095.0,2541.0,2762.0,2679.0,10.54,7.02,-0.25,-0.59,0.23,-0.51,z
2941.0,1044.0,928.0,4059.0,4095.0,2545.0,2768.0,2689.0,6.56,7.55,1.46,-1.42,-1.15,-1.45,z
2940.0,1067.0,930.0,4070.0,4095.0,2544.0,2767.0,2698.0,1.63,6.68,6.85,-1.71,-0.68,-1.8,z
2951.0,1095.0,915.0,4083.0,4095.0,2553.0,2765.0,2701.0,-4.24,7.6,13.45,-1.14,-0.43,-1.05,z
2949.0,1103.0,917.0,4095.0,4095.0,2558.0,2761.0,2698.0,-7.2,8.93,16.06,-0.0,0.23,0.15,z
2944.0,1104.0,912.0,4095.0,4095.0,2558.0,2767.0,2702.0,-5.51,9.2,13.13,0.61,-0.06,1.21,z
2943.0,1088.0,928.0,4064.0,4095.0,2557.0,2769.0,2704.0,-0.64,8.64,11.42,0.64,0.68,1.83,z
2955.0,1060.0,925.0,4048.0,4095.0,2558.0,2772.0,2689.0,6.3,8.16,8.22,1.04,0.83,1.98,z
2947.0,995.0,926.0,4045.0,4095.0,2546.0,2761.0,2671.0,10.77,8.15,3.97,1.12,0.13,1.3,z
2947.0,995.0,922.0,4034.0,4095.0,2545.0,2761.0,2671.0,9.63,8.83,2.78,0.81,0.07,0.18,z
2946.0,982.0,922.0,4095.0,4095.0,2555.0,2770.0,2704.0,0.34,9.55,7.13,0.09,0.01,-0.28,z
2946.0,982.0,922.0,4095.0,4095.0,2555.0,2770.0,2704.0,0.34,9.55,7.13,0.09,0.01,-0.28,z
2957.0,978.0,915.0,4095.0,4095.0,2554.0,2768.0,2704.0,0.03,9.54,7.13,0.02,-0.09,-0.23,z
2946.0,976.0,926.0,4095.0,4095.0,2558.0,2774.0,2707.0,-0.8,9.31,8.36,0.06,0.29,-0.22,z
2944.0,983.0,921.0,4095.0,4095.0,2555.0,2770.0,2711.0,-2.61,8.99,9.79,0.22,0.68,-0.02,z
2943.0,986.0,921.0,4095.0,4095.0,2551.0,2767.0,2707.0,-2.93,8.62,9.74,0.59,0.68,0.67,z
2954.0,973.0,921.0,4095.0,4095.0,2556.0,2774.0,2711.0,-2.31,8.61,10.08,0.87,0.81,1.12,z
2955.0,983.0,919.0,4095.0,4095.0,2559.0,2771.0,2702.0,-0.22,8.88,5.96,1.42,0.55,1.68,z
2949.0,970.0,934.0,4082.0,4095.0,2548.0,2771.0,2689.0,7.91,7.47,0.72,0.73,0.45,1.47,z
2943.0,964.0,934.0,4048.0,4095.0,2544.0,2765.0,2667.0,10.55,6.8,-0.98,0.28,0.57,0.16,z
2955.0,969.0,933.0,4043.0,4095.0,2544.0,2765.0,2671.0,9.16,7.57,-0.46,-0.87,-0.49,-0.67,z
2944.0,960.0,930.0,4062.0,4095.0,2544.0,2771.0,2685.0,5.77,6.85,3.66,-1.45,-0.48,-1.13,z
2950.0,975.0,922.0,4067.0,4095.0,2553.0,2769.0,2695.0,1.71,6.79,8.7,-1.56,-0.65,-1.2,z
2947.0,977.0,925.0,4095.0,4095.0,2554.0,2773.0,2699.0,-1.45,8.45,13.48,-1.06,-0.57,-0.6,z
2949.0,978.0,918.0,4095.0,4095.0,2549.0,2774.0,2698.0,-3.51,10.31,15.21,-0.02,-0.3,-0.11,z
2942.0,994.0,922.0,4095.0,4095.0,2547.0,2771.0,2700.0,-2.92,11.13,12.12,0.75,0.59,0.39,z
2951.0,989.0,917.0,4095.0,4095.0,2547.0,2768.0,2703.0,-3.07,10.95,8.64,1.08,0.76,1.03,z
2937.0,997.0,919.0,4084.0,4095.0,2551.0,2774.0,2697.0,3.86,8.9,3.05,1.01,0.05,1.35,z
2949.0,996.0,931.0,4078.0,4095.0,2544.0,2768.0,2675.0,5.85,8.55,3.7,0.43,1.09,0.81,z
2945.0,999.0,919.0,4053.0,4095.0,2543.0,2768.0,2675.0,8.13,8.38,4.21,0.21,0.37,0.56,z
2948.0,1012.0,928.0,4095.0,4095.0,2546.0,2771.0,2704.0,1.0,9.5,6.92,0.02,-0.08,-0.19,z
2954.0,1008.0,929.0,4095.0,4095.0,2549.0,2774.0,2704.0,0.98,9.34,7.11,0.01,0.03,-0.2,z
2933.0,1006.0,919.0,4091.0,4095.0,2551.0,2775.0,2706.0,1.02,9.52,7.01,-0.02,0.03,-0.25,z
2945.0,1008.0,927.0,4095.0,4095.0,2551.0,2774.0,2704.0,-0.47,9.64,8.75,-0.09,0.21,-0.31,z
2947.0,1001.0,921.0,4095.0,4095.0,2555.0,2768.0,2703.0,-3.06,9.36,10.54,0.28,0.83,-0.04,z
2949.0,1005.0,913.0,4095.0,4095.0,2555.0,2768.0,2704.0,-4.23,9.27,10.4,0.7,1.07,0.69,z
2939.0,981.0,921.0,4095.0,4095.0,2559.0,2774.0,2706.0,-1.59,9.1,7.86,1.06,1.04,1.29,z
2941.0,976.0,926.0,4063.0,4095.0,2554.0,2768.0,2704.0,3.36,8.41,3.73,0.7,0.6,1.19,z
2957.0,973.0,931.0,4048.0,4095.0,2549.0,2774.0,2688.0,8.06,7.91,2.72,0.24,1.05,0.88,z
2947.0,960.0,923.0,4047.0,4095.0,2546.0,2766.0,2667.0,13.1,6.03,1.81,-0.21,-0.11,0.04,z
2955.0,965.0,930.0,4037.0,4095.0,2547.0,2771.0,2679.0,7.66,7.47,2.92,-0.51,-0.15,-1.06,z
2944.0,978.0,919.0,4051.0,4095.0,2547.0,2769.0,2691.0,4.81,7.08,4.14,-0.74,-0.27,-1.24,z
2949.0,976.0,918.0,4080.0,4095.0,2556.0,2771.0,2697.0,2.52,7.68,7.35,-0.99,-0.59,-1.35,z
2947.0,984.0,927.0,4086.0,4095.0,2554.0,2765.0,2703.0,-2.97,9.5,11.08,-0.87,-0.4,-1.49,z
2944.0,996.0,917.0,4082.0,4095.0,2559.0,2767.0,2703.0,-8.26,10.82,13.24,-0.06,0.09,-0.5,z
2945.0,1002.0,925.0,4095.0,4095.0,2557.0,2767.0,2695.0,-6.99,10.14,10.74,0.56,0.07,0.79,z
2944.0,1003.0,928.0,4067.0,4095.0,2558.0,2768.0,2704.0,-2.58,9.0,7.61,0.66,0.76,1.42,z
2957.0,994.0,931.0,4020.0,4095.0,2555.0,2767.0,2701.0,0.08,9.38,6.74,0.42,0.67,1.75,z
2949.0,989.0,928.0,4029.0,4095.0,2553.0,2770.0,2688.0,8.74,7.7,5.37,0.06,0.34,1.68,z
2946.0,991.0,931.0,4035.0,4095.0,2552.0,2769.0,2682.0,9.3,8.29,6.23,0.24,-0.05,0.66,z
2953.0,1061.0,921.0,4071.0,4095.0,2550.0,2768.0,2693.0,0.09,9.36,6.81,0.03,-0.19,-0.19,z
2958.0,1053.0,917.0,4080.0,4095.0,2548.0,2767.0,2695.0,0.12,9.61,6.56,0.04,-0.05,-0.17,z
2944.0,1056.0,916.0,4090.0,4095.0,2550.0,2770.0,2699.0,0.15,9.39,6.45,0.02,-0.06,-0.24,z
2954.0,1058.0,923.0,4080.0,4095.0,2550.0,2768.0,2695.0,-0.63,9.68,6.57,-0.03,-0.02,-0.3,z
2933.0,1055.0,919.0,4058.0,4095.0,2555.0,2769.0,2703.0,-3.42,9.77,8.22,0.04,0.09,-0.28,z
2939.0,1058.0,919.0,4080.0,4095.0,2557.0,2768.0,2704.0,-7.64,9.91,9.16,0.7,1.1,0.43,z
2956.0,1042.0,916.0,4076.0,4095.0,2558.0,2768.0,2704.0,-6.13,9.52,6.96,0.67,0.95,1.66,z
2942.0,1020.0,923.0,4071.0,4095.0,2555.0,2769.0,2702.0,1.52,7.8,4.59,0.31,0.34,1.98,z
2955.0,996.0,921.0,4032.0,4095.0,2544.0,2765.0,2658.0,9.82,5.72,3.85,0.0,-0.23,1.25,z
2943.0,992.0,922.0,3965.0,4095.0,2535.0,2757.0,2617.0,12.55,6.1,1.32,-0.23,-0.12,-0.14,z
2949.0,992.0,923.0,3962.0,4095.0,2538.0,2759.0,2608.0,11.78,5.96,1.32,-1.0,-0.28,-0.93,z
2957.0,1021.0,927.0,3954.0,4095.0,2541.0,2757.0,2635.0,6.65,6.41,4.9,-1.62,-0.13,-1.77,z
2951.0,1056.0,917.0,3971.0,4095.0,2544.0,2752.0,2666.0,-1.05,7.6,11.06,-1.24,-0.04,-1.72,z
2955.0,1065.0,918.0,4004.0,4095.0,2554.0,2753.0,2667.0,-8.06,9.51,14.73,-0.7,-0.34,-0.99,z
2944.0,1066.0,911.0,3987.0,4095.0,2550.0,2755.0,2670.0,-8.11,10.36,13.41,0.19,-0.15,0.3,z
2947.0,1041.0,917.0,3971.0,4095.0,2554.0,2762.0,2677.0,-5.83,9.59,10.44,0.42,0.44,1.42,z
2945.0,1021.0,913.0,3963.0,4095.0,2555.0,2766.0,2673.0,-0.51,9.29,7.44,0.31,0.58,1.96,z
2939.0,1008.0,919.0,3954.0,4095.0,2550.0,2762.0,2659.0,6.08,7.58,6.85,0.33,0.51,1.94,z
2941.0,1021.0,922.0,3949.0,4095.0,2544.0,2763.0,2640.0,9.17,8.29,6.18,0.32,0.61,0.76,z
2951.0,1022.0,919.0,3935.0,4095.0,2544.0,2761.0,2638.0,7.01,9.02,6.19,0.21,0.29,0.53,z
2951.0,1046.0,922.0,4043.0,4095.0,2557.0,2759.0,2688.0,-0.17,9.58,6.35,0.11,-0.11,-0.22,z
2949.0,1057.0,916.0,4051.0,4095.0,2558.0,2768.0,2694.0,0.24,9.46,6.36,0.04,-0.19,-0.24,z
2943.0,1055.0,919.0,4039.0,4095.0,2555.0,2765.0,2691.0,-1.3,9.41,6.85,0.15,-0.05,-0.33,z
2952.0,1046.0,921.0,4029.0,4095.0,2559.0,2765.0,2686.0,-5.08,9.55,7.73,0.5,0.59,-0.14,z
2944.0,1043.0,918.0,4018.0,4095.0,2559.0,2765.0,2693.0,-7.74,9.98,5.94,0.72,0.83,1.0,z
2946.0,1016.0,921.0,4025.0,4095.0,2559.0,2763.0,2692.0,-3.62,8.85,4.63,0.4,0.03,1.98,z
2940.0,998.0,923.0,3987.0,4095.0,2559.0,2768.0,2691.0,1.63,7.54,3.96,0.27,0.42,2.1,z
2947.0,1004.0,918.0,3970.0,4095.0,2550.0,2762.0,2667.0,9.06,6.81,0.44,-0.17,0.58,1.09,z
2955.0,973.0,928.0,3971.0,4095.0,2550.0,2759.0,2627.0,15.33,5.46,5.11,-1.07,-0.4,0.39,z
2946.0,1006.0,927.0,3969.0,4095.0,2544.0,2765.0,2632.0,11.43,6.04,5.6,-0.96,-0.04,-1.45,z
2946.0,1037.0,921.0,3984.0,4095.0,2551.0,2764.0,2657.0,4.31,7.24,6.96,-1.61,-0.18,-1.75,z
2947.0,1040.0,921.0,4011.0,4095.0,2559.0,2769.0,2685.0,-1.66,8.48,10.94,-1.16,0.55,-1.67,z
2958.0,997.0,919.0,4005.0,4095.0,2559.0,2767.0,2682.0,-12.39,10.01,16.92,-0.59,0.51,-0.86,z
2947.0,982.0,917.0,4018.0,4095.0,2559.0,2766.0,2683.0,-10.26,9.21,12.56,0.76,0.11,1.49,z
2960.0,989.0,920.0,3998.0,4095.0,2559.0,2768.0,2684.0,-2.11,6.65,7.52,0.93,0.25,2.6,z
2947.0,977.0,917.0,3983.0,4095.0,2559.0,2769.0,2672.0,6.57,6.78,5.02,0.45,1.22,2.49,z
2950.0,975.0,923.0,3975.0,4095.0,2554.0,2768.0,2640.0,13.11,7.13,5.68,0.1,0.62,1.55,z
2948.0,976.0,923.0,3962.0,4095.0,2557.0,2768.0,2639.0,10.1,9.04,6.23,0.26,0.25,0.44,z
2943.0,977.0,918.0,3979.0,4095.0,2559.0,2769.0,2659.0,6.92,9.61,6.15,0.28,0.27,0.1,z
2946.0,977.0,926.0,4000.0,4095.0,2559.0,2774.0,2678.0,4.49,9.41,7.13,0.35,0.33,-0.16,z
2955.0,1040.0,915.0,4029.0,4095.0,2559.0,2768.0,2702.0,0.13,9.2,7.55,0.03,-0.09,-0.22,z
2950.0,1047.0,924.0,4043.0,4095.0,2559.0,2768.0,2704.0,-0.23,9.18,7.9,-0.01,-0.04,-0.15,z
2949.0,1036.0,918.0,4048.0,4095.0,2559.0,2769.0,2704.0,-0.26,9.2,8.09,0.07,0.03,-0.12,z
2957.0,1051.0,926.0,4058.0,4095.0,2559.0,2768.0,2702.0,-1.56,8.84,10.84,0.26,0.39,-0.0,z
2947.0,1037.0,912.0,4047.0,4095.0,2559.0,2770.0,2703.0,-3.61,7.76,13.17,1.2,0.68,0.55,z
2937.0,1052.0,917.0,4059.0,4095.0,2559.0,2768.0,2705.0,-2.58,7.49,11.83,2.06,0.83,1.13,z
2945.0,1017.0,919.0,4039.0,4095.0,2559.0,2772.0,2703.0,0.28,7.26,8.09,2.66,0.67,1.51,z
2946.0,993.0,924.0,4010.0,4095.0,2559.0,2768.0,2683.0,7.19,6.75,0.34,2.58,0.12,1.33,z
2942.0,975.0,928.0,3971.0,4095.0,2544.0,2762.0,2661.0,9.95,7.81,-5.49,1.5,-0.09,0.31,z
2945.0,966.0,934.0,3967.0,4095.0,2557.0,2759.0,2661.0,8.68,8.49,-6.0,0.02,0.13,-0.58,z
2943.0,971.0,917.0,3978.0,4095.0,2559.0,2765.0,2675.0,7.15,8.1,-3.71,-1.24,-0.39,-1.1,z
2949.0,977.0,926.0,4012.0,4095.0,2555.0,2763.0,2686.0,4.55,7.29,0.99,-2.17,-0.72,-1.83,z
2959.0,975.0,921.0,4003.0,4095.0,2559.0,2768.0,2691.0,-0.65,6.27,6.01,-2.52,-1.09,-1.86,z
2950.0,971.0,923.0,4017.0,4095.0,2559.0,2775.0,2693.0,-8.36,6.76,14.82,-1.99,0.66,-1.04,z
2953.0,957.0,915.0,4047.0,4095.0,2559.0,2766.0,2685.0,-13.31,8.6,15.36,0.12,1.12,0.9,z
2955.0,961.0,912.0,4011.0,4095.0,2559.0,2769.0,2691.0,-5.31,8.6,8.45,0.12,-0.57,2.66,z
2950.0,955.0,924.0,3988.0,4095.0,2559.0,2769.0,2689.0,0.58,8.21,6.1,0.43,0.76,3.2,z
2953.0,961.0,917.0,3994.0,4095.0,2559.0,2769.0,2651.0,11.56,6.53,5.81,0.24,0.94,2.5,z
2946.0,950.0,915.0,3985.0,4095.0,2552.0,2768.0,2642.0,13.06,8.19,5.17,0.6,0.27,1.15,z
2947.0,950.0,919.0,3974.0,4095.0,2555.0,2768.0,2647.0,8.88,8.74,4.69,0.64,0.49,0.4,z
2943.0,946.0,918.0,4030.0,4095.0,2559.0,2769.0,2704.0,-0.16,9.61,6.77,0.1,0.14,-0.32,z
2954.0,955.0,915.0,4032.0,4095.0,2559.0,2775.0,2706.0,-0.11,9.48,6.52,0.07,-0.17,-0.31,z
2947.0,950.0,928.0,4031.0,4095.0,2559.0,2777.0,2704.0,-0.5,9.6,6.91,-0.03,-0.05,-0.39,z
2941.0,949.0,912.0,4019.0,4095.0,2559.0,2768.0,2700.0,-6.07,9.68,8.1,0.33,0.83,-0.19,z
2949.0,962.0,912.0,4025.0,4095.0,2559.0,2767.0,2694.0,-7.87,10.01,6.89,0.26,0.58,1.27,z
2946.0,945.0,918.0,4033.0,4095.0,2559.0,2768.0,2704.0,-4.71,7.87,7.33,0.03,0.71,2.42,z
2951.0,947.0,916.0,4018.0,4095.0,2559.0,2770.0,2698.0,0.81,7.5,6.94,0.06,0.09,2.62,z
2958.0,944.0,919.0,4007.0,4095.0,2559.0,2771.0,2665.0,9.24,5.51,5.43,0.52,0.37,1.83,z
2945.0,944.0,923.0,3978.0,4095.0,2549.0,2763.0,2637.0,14.69,5.84,4.66,-0.13,0.17,0.83,z
2946.0,944.0,918.0,3990.0,4095.0,2544.0,2758.0,2624.0,13.52,6.44,0.42,-0.39,-0.28,-0.88,z
2943.0,953.0,919.0,3973.0,4095.0,2551.0,2766.0,2649.0,5.41,6.0,3.92,-1.57,-0.14,-1.23,z
2944.0,951.0,919.0,3997.0,4095.0,2557.0,2766.0,2670.0,2.34,5.62,6.84,-1.88,-0.6,-1.18,z
2944.0,946.0,906.0,4033.0,4095.0,2559.0,2768.0,2673.0,-2.36,6.34,12.84,-1.84,0.61,-0.73,z
2955.0,944.0,913.0,4027.0,4095.0,2559.0,2770.0,2685.0,-7.83,9.23,17.29,-1.14,-0.36,0.23,z
2943.0,939.0,919.0,4023.0,4095.0,2559.0,2767.0,2684.0,-6.22,9.89,14.5,0.41,0.31,2.03,z
2939.0,941.0,914.0,4005.0,4095.0,2559.0,2768.0,2677.0,4.69,6.93,8.91,0.75,0.14,2.74,z
2944.0,944.0,922.0,3985.0,4095.0,2559.0,2768.0,2650.0,8.12,5.73,8.57,0.65,1.24,2.11,z
2946.0,936.0,917.0,3984.0,4095.0,2556.0,2768.0,2621.0,13.54,4.37,9.27,0.18,0.6,1.31,z
2944.0,939.0,918.0,3990.0,4095.0,2557.0,2768.0,2628.0,11.99,6.0,8.04,0.28,0.28,0.3,z
2951.0,944.0,924.0,3988.0,4095.0,2558.0,2769.0,2645.0,7.02,6.63,8.83,0.17,0.26,-0.06,z
