hall_1,hall_2,hall_3,flex_t,flex_i,flex_m,flex_r,flex_p,accel_x,accel_y,accel_z,gyro_x,gyro_y,gyro_z,sign
3142.0,3085.0,3063.0,2759.0,4095.0,3391.0,2559.0,2924.0,-1.64,9.38,0.08,-0.04,-0.03,-0.05,z
3139.0,3071.0,3064.0,2762.0,4095.0,3387.0,2559.0,2919.0,-1.85,9.4,-0.23,-0.0,-0.04,-0.05,z
3137.0,3090.0,3067.0,2755.0,4095.0,3387.0,2559.0,2923.0,-2.23,9.38,-0.31,-0.09,0.02,-0.09,z
3145.0,3079.0,3068.0,2758.0,4095.0,3388.0,2559.0,2918.0,-2.39,9.27,-0.46,-0.09,-0.04,0.0,z
3147.0,3084.0,3071.0,2751.0,4095.0,3383.0,2559.0,2917.0,-3.78,9.14,-1.63,-0.12,0.21,-0.02,z
3151.0,3085.0,3058.0,2755.0,4095.0,3379.0,2559.0,2896.0,-6.16,7.74,-5.72,0.16,-0.09,0.11,z
3169.0,3118.0,3103.0,2781.0,4095.0,3407.0,2601.0,2927.0,-4.98,6.68,-5.69,-0.94,0.81,1.04,z
3175.0,3120.0,3104.0,2785.0,4095.0,3408.0,2589.0,2925.0,-2.81,8.44,0.24,-1.83,1.1,1.16,z
3174.0,3113.0,3093.0,2782.0,4095.0,3408.0,2607.0,2933.0,0.85,9.2,3.9,-0.81,0.8,0.94,z
3165.0,3120.0,3110.0,2771.0,4095.0,3423.0,2592.0,2941.0,2.83,8.95,6.52,-1.04,0.84,0.57,z
3168.0,3122.0,3113.0,2782.0,4095.0,3427.0,2611.0,2941.0,3.7,7.59,8.68,-0.58,0.24,0.02,z
3173.0,3123.0,3107.0,2766.0,4095.0,3421.0,2615.0,2944.0,6.82,6.51,8.76,-0.46,-0.51,-0.38,z
3179.0,3120.0,3114.0,2771.0,4095.0,3429.0,2608.0,2937.0,8.24,5.63,8.07,0.24,-1.06,-1.99,z
3169.0,3123.0,3093.0,2763.0,4095.0,3414.0,2608.0,2937.0,1.6,5.97,4.52,0.52,-0.94,-3.13,z
3180.0,3115.0,3095.0,2767.0,4095.0,3442.0,2598.0,2937.0,-5.29,7.1,-0.52,0.49,-1.3,-2.72,z
3184.0,3111.0,3091.0,2755.0,4095.0,3419.0,2592.0,2922.0,-9.94,7.71,-2.85,-0.21,-0.97,-2.45,z
3178.0,3102.0,3095.0,2759.0,4095.0,3376.0,2581.0,2911.0,-15.32,7.39,-4.44,-0.57,0.05,-1.42,z
3194.0,3109.0,3094.0,2768.0,4095.0,3377.0,2592.0,2927.0,-14.3,6.51,-4.58,-1.46,0.54,-0.28,z
3163.0,3071.0,3054.0,2749.0,4095.0,3347.0,2544.0,2870.0,-11.18,5.23,-1.09,-2.1,0.84,0.8,z
3228.0,3130.0,3117.0,2943.0,4095.0,3401.0,2612.0,2961.0,-7.58,5.21,3.25,-2.7,1.03,1.16,z
3442.0,3138.0,3124.0,3006.0,4095.0,3415.0,2652.0,2986.0,-1.24,9.32,1.45,-0.05,0.0,-0.03,z
3442.0,3138.0,3124.0,3006.0,4095.0,3415.0,2652.0,2986.0,-1.24,9.32,1.45,-0.05,0.0,-0.03,z
3451.0,3136.0,3123.0,3015.0,4095.0,3431.0,2652.0,2983.0,-0.74,9.53,2.08,-0.02,-0.04,0.01,z
3451.0,3137.0,3136.0,3024.0,4095.0,3415.0,2642.0,2986.0,0.44,9.84,3.45,0.11,-0.18,-0.06,z
3447.0,3143.0,3131.0,3015.0,4095.0,3434.0,2646.0,2987.0,1.07,9.34,3.12,0.2,-0.73,-0.23,z
3455.0,3142.0,3131.0,3071.0,4095.0,3437.0,2640.0,2992.0,2.1,9.42,3.15,0.05,-0.64,-0.27,z
3461.0,3161.0,3139.0,2855.0,4095.0,3442.0,2645.0,2989.0,3.08,8.67,3.02,0.19,-0.81,-0.48,z
3504.0,3178.0,3161.0,2953.0,4095.0,3467.0,2690.0,3015.0,0.19,9.38,0.35,0.09,-0.97,-1.26,z
3506.0,3213.0,3189.0,3040.0,4095.0,3490.0,2705.0,3034.0,-8.31,7.25,-0.43,-0.04,-0.15,-1.61,z
3429.0,3120.0,3121.0,2960.0,4095.0,3425.0,2619.0,2958.0,-11.8,7.58,-3.24,0.05,-0.25,-0.26,z
3417.0,3133.0,3120.0,2942.0,4095.0,3409.0,2629.0,2959.0,-7.41,5.19,-5.55,-0.0,-0.17,0.22,z
3419.0,3133.0,3119.0,2970.0,4095.0,3405.0,2619.0,2959.0,-4.38,2.55,-6.15,-0.95,0.3,0.23,z
3408.0,3122.0,3107.0,2880.0,4095.0,3395.0,2607.0,2960.0,-3.89,4.63,-2.03,-3.32,1.25,0.06,z
3274.0,3121.0,3101.0,3024.0,4095.0,3395.0,2613.0,2961.0,-1.42,6.29,7.93,-2.45,1.22,-0.16,z
3223.0,3100.0,3098.0,2734.0,4095.0,3391.0,2603.0,2935.0,-2.8,10.99,11.58,-1.42,1.69,-0.41,z
3307.0,3071.0,3071.0,2791.0,4095.0,3356.0,2558.0,2904.0,-2.56,9.38,17.72,-3.18,-0.22,1.09,z
3248.0,3055.0,3051.0,2736.0,4095.0,3347.0,2581.0,2928.0,1.3,6.94,16.77,0.79,-0.68,-0.92,z
3218.0,3045.0,3021.0,2741.0,4095.0,3324.0,2542.0,2906.0,1.51,4.49,8.27,0.65,-1.24,-1.34,z
3334.0,3151.0,3125.0,2787.0,4095.0,3425.0,2663.0,3001.0,3.43,4.94,6.32,0.88,-0.2,-1.69,z
3317.0,3131.0,3129.0,2851.0,4095.0,3412.0,2643.0,2980.0,-6.09,4.23,2.67,1.61,-0.4,-2.35,z
3391.0,3187.0,3155.0,2897.0,4095.0,3472.0,2694.0,3014.0,-0.69,9.35,1.83,-0.07,-0.01,-0.02,z
3397.0,3190.0,3156.0,2896.0,4095.0,3470.0,2687.0,3009.0,-0.26,9.33,1.77,-0.0,0.02,-0.01,z
3391.0,3197.0,3166.0,2897.0,4095.0,3460.0,2689.0,3011.0,0.54,9.4,1.8,-0.02,0.03,-0.05,z
3389.0,3197.0,3164.0,2896.0,4095.0,3472.0,2673.0,3026.0,2.17,9.66,3.69,-0.17,-0.19,-0.05,z
3381.0,3184.0,3167.0,2889.0,4095.0,3476.0,2686.0,2997.0,4.88,9.62,5.62,0.01,-0.2,-0.27,z
3378.0,3178.0,3163.0,2887.0,4095.0,3483.0,2678.0,2996.0,4.58,9.36,4.75,0.39,-0.5,-0.87,z
3329.0,3127.0,3105.0,2833.0,4095.0,3423.0,2634.0,2937.0,2.41,8.25,3.21,0.11,-0.76,-1.57,z
3312.0,3121.0,3107.0,2971.0,4095.0,3428.0,2633.0,2945.0,-4.49,7.1,0.2,0.19,-0.98,-2.23,z
3318.0,3121.0,3099.0,2832.0,4095.0,3407.0,2626.0,2921.0,-14.07,6.09,-3.52,-0.01,-0.08,-1.44,z
3293.0,3105.0,3063.0,2814.0,4095.0,3394.0,2608.0,2917.0,-10.63,5.4,-4.58,-0.64,-0.67,0.01,z
3278.0,3067.0,3068.0,2799.0,4095.0,3365.0,2586.0,2909.0,-4.16,4.11,-5.2,-0.79,-0.16,0.45,z
3326.0,3135.0,3114.0,2857.0,4095.0,3415.0,2643.0,2970.0,-2.86,2.95,-4.14,-1.44,0.83,-0.18,z
3364.0,3173.0,3145.0,2925.0,4095.0,3478.0,2677.0,2996.0,-6.44,4.73,0.6,-2.26,0.82,-0.34,z
3309.0,3088.0,3056.0,2839.0,4095.0,3373.0,2613.0,2915.0,-5.94,7.16,8.77,-2.45,1.15,0.25,z
3263.0,3000.0,2973.0,2758.0,4095.0,3298.0,2509.0,2851.0,-3.92,9.03,13.06,-1.73,0.74,0.31,z
3225.0,2991.0,2971.0,2898.0,4095.0,3306.0,2489.0,2832.0,1.75,10.41,16.84,-1.45,0.3,0.46,z
3249.0,2998.0,2987.0,2896.0,4095.0,3330.0,2523.0,2855.0,0.79,7.59,19.07,0.15,0.29,-0.64,z
3239.0,3005.0,2992.0,2806.0,4095.0,3319.0,2509.0,2846.0,0.59,6.66,10.89,1.36,-0.98,-0.97,z
3245.0,3006.0,2988.0,2851.0,4095.0,3311.0,2548.0,2858.0,-0.28,3.97,5.18,1.54,-0.71,-1.71,z
3231.0,3007.0,2993.0,2875.0,4095.0,3302.0,2512.0,2862.0,-5.26,4.24,-0.27,1.6,0.21,-2.24,z
3327.0,3117.0,3062.0,2832.0,4095.0,3639.0,2634.0,2945.0,-0.97,9.5,1.58,-0.04,-0.02,-0.01,z
3327.0,3106.0,3071.0,2832.0,4095.0,3632.0,2637.0,2950.0,-1.08,9.48,1.46,-0.02,0.02,-0.0,z
3325.0,3114.0,3071.0,2834.0,4095.0,3632.0,2630.0,2951.0,-1.09,9.41,1.4,-0.07,-0.02,0.0,z
3333.0,3121.0,3083.0,2839.0,4095.0,3635.0,2640.0,2958.0,-0.38,9.48,1.93,-0.05,-0.07,0.1,z
3343.0,3123.0,3071.0,2843.0,4095.0,3658.0,2617.0,2948.0,3.26,10.3,3.79,-0.11,-0.09,0.35,z
3421.0,3139.0,3099.0,2915.0,4095.0,3678.0,2654.0,2972.0,7.66,9.84,5.03,0.04,-0.66,0.01,z
3118.0,3139.0,3099.0,2695.0,4095.0,3642.0,2655.0,2961.0,7.25,9.11,4.3,0.27,-1.03,-1.23,z
3167.0,3163.0,3130.0,2719.0,4095.0,3765.0,2672.0,2979.0,0.89,8.13,1.04,0.25,-0.53,-2.38,z
3395.0,3174.0,3152.0,3024.0,4095.0,3792.0,2709.0,2992.0,-15.84,6.14,-3.78,-0.03,0.31,-2.14,z
3315.0,3135.0,3110.0,2849.0,4095.0,3803.0,2674.0,2934.0,-14.0,4.75,-1.48,-0.74,-0.58,0.15,z
3312.0,3131.0,3087.0,2832.0,4095.0,3774.0,2652.0,2944.0,-6.13,4.06,-2.56,-0.11,-0.15,0.52,z
3312.0,3138.0,3105.0,2839.0,4095.0,3798.0,2663.0,2960.0,-4.57,1.93,-4.22,-0.52,0.78,0.0,z
3319.0,3150.0,3114.0,2842.0,4095.0,3779.0,2677.0,2956.0,-6.24,4.35,-1.12,-1.34,1.03,0.04,z
3299.0,3132.0,3098.0,2813.0,4095.0,3775.0,2654.0,2935.0,-3.47,8.43,4.18,-1.82,0.76,0.52,z
3301.0,3152.0,3104.0,2811.0,4095.0,3781.0,2672.0,2973.0,2.01,11.92,8.96,-2.02,1.03,0.11,z
3265.0,3191.0,3145.0,3023.0,4095.0,3747.0,2730.0,3003.0,1.5,12.46,14.7,-2.29,1.08,-0.09,z
3305.0,3151.0,3120.0,2853.0,4095.0,3625.0,2688.0,2977.0,1.76,8.27,18.78,0.24,-0.49,-0.6,z
3346.0,3185.0,3141.0,2879.0,4095.0,3623.0,2717.0,3011.0,2.21,6.41,6.86,1.51,-1.1,-1.37,z
3309.0,3125.0,3086.0,2838.0,4095.0,3567.0,2672.0,2969.0,2.96,4.13,3.53,0.79,-0.65,-2.31,z
3311.0,3125.0,3088.0,2854.0,4095.0,3562.0,2668.0,2953.0,-10.27,2.26,-1.47,0.53,0.23,-3.33,z
3285.0,3098.0,3056.0,2816.0,4095.0,3551.0,2635.0,2928.0,-1.45,8.98,2.52,-0.04,-0.0,-0.03,z
3282.0,3095.0,3046.0,2818.0,4095.0,3543.0,2628.0,2945.0,-1.39,8.99,2.67,-0.04,0.02,-0.03,z
3281.0,3114.0,3056.0,2807.0,4095.0,3543.0,2629.0,2945.0,-1.43,8.96,2.49,-0.03,0.01,-0.03,z
3277.0,3095.0,3068.0,2809.0,4095.0,3555.0,2640.0,2932.0,-0.93,9.06,2.84,-0.05,-0.01,0.01,z
3279.0,3107.0,3059.0,2814.0,4095.0,3549.0,2636.0,2945.0,2.39,10.16,5.48,-0.16,-0.14,0.09,z
3297.0,3095.0,3047.0,2820.0,4095.0,3539.0,2620.0,2938.0,4.84,9.95,8.27,0.11,-0.65,-0.17,z
3274.0,3086.0,3040.0,2802.0,4095.0,3547.0,2634.0,2934.0,3.69,8.8,6.7,0.81,-1.16,-0.9,z
3273.0,3103.0,3047.0,2793.0,4095.0,3479.0,2640.0,2943.0,-1.73,7.97,0.01,0.6,-0.7,-1.89,z
3275.0,3106.0,3056.0,2855.0,4095.0,3469.0,2635.0,2923.0,-12.64,5.24,-4.29,0.48,-0.42,-1.57,z
3277.0,3095.0,3056.0,2798.0,4095.0,3473.0,2640.0,2939.0,-11.67,4.33,-4.78,-0.13,0.18,-0.14,z
3218.0,3099.0,3055.0,2768.0,4095.0,3467.0,2624.0,2919.0,-7.22,2.23,-6.36,-0.56,0.39,0.42,z
3162.0,3039.0,2991.0,2704.0,4095.0,3415.0,2559.0,2886.0,-3.55,0.91,-4.2,-1.38,1.35,-0.13,z
3173.0,3039.0,2987.0,2721.0,4095.0,3741.0,2559.0,2882.0,-4.32,4.93,1.92,-2.35,1.39,-0.16,z
3216.0,3069.0,3029.0,2756.0,4095.0,3485.0,2609.0,2884.0,-1.86,9.59,12.13,-2.26,1.15,-0.2,z
3193.0,3066.0,3026.0,2724.0,4095.0,3523.0,2599.0,2877.0,-5.15,12.96,13.31,-1.56,1.36,-0.41,z
3209.0,3052.0,3008.0,2761.0,4095.0,3450.0,2590.0,2869.0,0.0,10.1,20.24,-0.9,-0.13,-0.14,z
3216.0,3043.0,3005.0,2747.0,4095.0,3616.0,2602.0,2867.0,-0.83,7.37,11.77,1.63,-0.74,-0.66,z
3207.0,3051.0,2998.0,2738.0,4095.0,3610.0,2602.0,2893.0,0.59,5.66,7.07,1.59,-1.42,-0.66,z
3185.0,3042.0,3019.0,2750.0,4095.0,3635.0,2608.0,2879.0,-1.84,5.6,2.73,1.89,-0.9,-1.34,z
3171.0,3040.0,3003.0,2720.0,4095.0,3696.0,2593.0,2882.0,-9.99,5.14,-1.63,0.59,-0.49,-2.14,z
3216.0,3101.0,3058.0,2766.0,4095.0,3457.0,2633.0,2928.0,0.44,9.43,1.95,-0.16,-0.26,-0.13,z
3214.0,3094.0,3051.0,2767.0,4095.0,3482.0,2627.0,2941.0,-0.94,9.47,1.61,0.03,0.11,-0.31,z
3215.0,3097.0,3051.0,2767.0,4095.0,3664.0,2624.0,2935.0,-1.31,9.6,1.06,0.1,0.06,-0.16,z
3222.0,3101.0,3065.0,2779.0,4095.0,3657.0,2649.0,2947.0,-1.38,9.58,1.25,0.04,0.06,-0.07,z
3201.0,3088.0,3029.0,2756.0,4095.0,3635.0,2615.0,2924.0,-0.95,9.62,0.7,0.08,0.19,0.06,z
3198.0,3086.0,3047.0,2754.0,4095.0,3633.0,2622.0,2928.0,-0.96,9.24,1.15,-0.14,0.17,0.14,z
3186.0,3071.0,3026.0,2759.0,4095.0,3626.0,2609.0,2927.0,8.0,11.27,7.17,-0.43,-0.28,0.66,z
3230.0,3057.0,3024.0,2791.0,4095.0,3621.0,2615.0,2928.0,12.82,8.33,11.03,1.3,-0.45,-1.71,z
3184.0,3056.0,3007.0,2736.0,4095.0,3625.0,2593.0,2915.0,0.51,5.23,-2.03,1.44,-0.89,-3.47,z
3157.0,3056.0,3027.0,2707.0,4095.0,3737.0,2603.0,2866.0,-14.98,3.13,-7.85,0.84,1.13,-2.75,z
3136.0,3056.0,3024.0,2698.0,4095.0,3696.0,2603.0,2879.0,-19.05,4.13,-8.77,-0.18,-0.25,-0.54,z
3154.0,3062.0,3027.0,2726.0,4095.0,3682.0,2608.0,2906.0,-11.23,3.6,-7.44,-1.14,0.07,1.38,z
3155.0,3053.0,3030.0,2722.0,4095.0,3696.0,2559.0,2893.0,-8.67,2.7,-5.11,-2.94,0.5,1.93,z
3152.0,3059.0,3019.0,2714.0,4095.0,3728.0,2580.0,2909.0,-1.23,3.5,2.81,-2.41,0.38,2.74,z
3181.0,3103.0,3061.0,2767.0,4095.0,3600.0,2624.0,2962.0,4.41,6.66,11.5,-2.75,0.58,1.78,z
3230.0,3182.0,3149.0,2801.0,4095.0,3676.0,2704.0,3041.0,9.11,8.62,15.45,-1.07,0.72,0.48,z
3216.0,3129.0,3101.0,2799.0,4095.0,3664.0,2670.0,2992.0,9.5,8.24,18.32,-0.38,-0.03,-0.92,z
3274.0,3191.0,3149.0,2831.0,4095.0,3620.0,2759.0,3056.0,3.8,5.49,13.13,2.55,-1.0,-2.49,z
3195.0,3121.0,3088.0,2763.0,4095.0,3830.0,2667.0,2986.0,-3.17,6.03,4.76,3.06,-0.93,-2.86,z
3159.0,3103.0,3066.0,2735.0,4095.0,3856.0,2640.0,2927.0,-10.19,7.45,-5.56,1.15,0.17,-2.78,z
3207.0,3145.0,3116.0,2794.0,4095.0,3665.0,2679.0,3013.0,0.55,9.38,0.98,-0.03,0.38,-0.04,z
3217.0,3155.0,3126.0,2800.0,4095.0,3663.0,2677.0,3023.0,0.25,9.58,0.89,-0.12,0.09,-0.07,z
3213.0,3158.0,3113.0,2798.0,4095.0,3648.0,2686.0,3043.0,-0.47,9.58,0.45,-0.11,0.16,-0.06,z
3214.0,3157.0,3120.0,2793.0,4095.0,3651.0,2688.0,3014.0,-1.09,9.48,-1.01,-0.24,0.25,0.09,z
3214.0,3153.0,3115.0,2800.0,4095.0,3639.0,2697.0,3023.0,1.3,9.61,0.9,-0.79,0.2,0.4,z
3274.0,3171.0,3123.0,2847.0,4095.0,3661.0,2720.0,3036.0,12.65,10.61,12.35,-0.58,-0.92,0.23,z
3246.0,3171.0,3120.0,2820.0,4095.0,3620.0,2698.0,3023.0,8.66,6.54,11.05,1.08,-0.87,-2.57,z
3249.0,3165.0,3135.0,2831.0,4095.0,3623.0,2704.0,3023.0,-4.34,6.25,-2.41,1.44,-1.16,-2.98,z
3223.0,3189.0,3145.0,2806.0,4095.0,3662.0,2730.0,3026.0,-15.52,5.44,-8.77,0.54,-1.06,-1.94,z
3271.0,3232.0,3186.0,2860.0,4095.0,3728.0,2748.0,3070.0,-14.64,5.52,-8.35,-0.53,0.08,0.18,z
3183.0,3147.0,3120.0,2768.0,4095.0,3631.0,2673.0,3009.0,-7.5,4.01,-6.54,-1.54,0.82,1.17,z
3174.0,3138.0,3098.0,2766.0,4095.0,3621.0,2673.0,2978.0,-5.98,1.87,-1.05,-1.7,1.18,1.38,z
3202.0,3136.0,3105.0,2783.0,4095.0,3607.0,2674.0,2992.0,-0.62,5.08,5.89,-1.63,0.9,1.51,z
3182.0,3133.0,3091.0,2773.0,4095.0,3641.0,2663.0,3003.0,5.78,11.18,14.85,-1.57,0.75,0.77,z
3376.0,3216.0,3157.0,2925.0,4095.0,3687.0,2743.0,3055.0,12.71,13.68,20.53,0.07,-0.07,-0.1,z
3216.0,3088.0,3054.0,2797.0,4095.0,3583.0,2634.0,2933.0,3.5,7.19,9.36,1.76,-0.55,-2.42,z
3247.0,3152.0,3118.0,2832.0,4095.0,3647.0,2688.0,3009.0,-1.58,5.95,1.15,-0.43,-1.99,-2.71,z
3175.0,3097.0,3062.0,2759.0,4095.0,3583.0,2647.0,2942.0,-9.66,7.25,-2.96,1.33,0.09,-2.33,z
3218.0,3099.0,3067.0,2783.0,4095.0,3583.0,2654.0,2939.0,-13.83,7.33,-2.99,0.33,0.01,-1.26,z
3234.0,3097.0,3059.0,2794.0,4095.0,3601.0,2655.0,2944.0,-8.12,7.82,0.93,0.13,0.05,0.01,z
3238.0,3098.0,3056.0,2802.0,4095.0,3579.0,2624.0,2960.0,-0.76,9.33,1.66,-0.07,-0.03,0.1,z
3233.0,3088.0,3065.0,2797.0,4095.0,3563.0,2637.0,2960.0,-0.55,9.4,1.52,-0.06,0.09,0.03,z
3234.0,3101.0,3049.0,2799.0,4095.0,3562.0,2634.0,2960.0,-0.74,9.0,1.88,-0.13,0.03,0.01,z
3230.0,3086.0,3056.0,2798.0,4095.0,3572.0,2624.0,2960.0,1.27,9.37,4.98,-0.22,-0.19,0.14,z
3261.0,3105.0,3069.0,2818.0,4095.0,3601.0,2640.0,2977.0,6.56,9.96,11.59,0.13,-0.93,-0.29,z
3246.0,3095.0,3056.0,2812.0,4095.0,3570.0,2637.0,2971.0,5.7,7.67,8.07,1.13,-1.8,-1.55,z
3255.0,3102.0,3065.0,2817.0,4095.0,3583.0,2646.0,2961.0,-3.49,5.37,-1.11,1.37,-0.52,-2.68,z
3248.0,3099.0,3057.0,2818.0,4095.0,3557.0,2631.0,2954.0,-15.91,5.7,-11.54,-0.07,-0.42,-1.35,z
3286.0,3168.0,3153.0,2881.0,4095.0,3670.0,2733.0,3039.0,-15.76,5.7,-11.75,-0.62,-0.45,0.23,z
3312.0,3198.0,3164.0,2885.0,4095.0,3681.0,2735.0,3063.0,-5.52,1.86,-5.72,-1.56,0.39,1.36,z
3292.0,3170.0,3136.0,2853.0,4095.0,3664.0,2714.0,3031.0,-3.13,1.79,0.32,-1.17,0.96,1.31,z
3277.0,3171.0,3132.0,2834.0,4095.0,3651.0,2701.0,3029.0,-0.43,8.76,8.92,-2.42,0.91,1.34,z
3440.0,3139.0,3101.0,2985.0,4095.0,3696.0,2739.0,3037.0,9.68,13.14,20.76,-1.02,0.53,0.64,z
3402.0,3209.0,3170.0,2907.0,4095.0,3696.0,2739.0,3016.0,5.87,11.25,14.44,-0.58,-0.09,-1.19,z
3235.0,3081.0,3053.0,2800.0,4095.0,3573.0,2643.0,2956.0,4.53,3.99,5.84,0.81,-1.51,-1.38,z
3277.0,3152.0,3098.0,2827.0,4095.0,3583.0,2688.0,2993.0,6.11,3.19,1.7,-0.68,-1.14,-2.85,z
3331.0,3193.0,3152.0,2895.0,4095.0,3643.0,2723.0,3039.0,-6.16,4.22,0.21,1.06,-0.18,-3.93,z
3257.0,3127.0,3095.0,2847.0,4095.0,3595.0,2689.0,2988.0,-24.01,6.88,-1.83,0.7,0.5,-2.53,z
3273.0,3141.0,3103.0,2869.0,4095.0,3619.0,2693.0,3008.0,-12.94,8.17,1.26,-0.53,-0.36,-0.39,z
3280.0,3136.0,3095.0,2869.0,4095.0,3598.0,2686.0,2992.0,-7.96,7.21,1.52,0.16,0.35,0.22,z
3273.0,3108.0,3087.0,2847.0,4095.0,3583.0,2659.0,2991.0,-0.29,9.23,1.74,-0.11,0.0,0.05,z
3277.0,3106.0,3063.0,2847.0,4095.0,3573.0,2661.0,2992.0,0.05,9.25,1.95,-0.08,0.01,0.01,z
3275.0,3118.0,3068.0,2849.0,4095.0,3578.0,2671.0,2985.0,0.56,9.42,2.75,-0.05,-0.11,-0.08,z
3277.0,3110.0,3086.0,2849.0,4095.0,3599.0,2655.0,2994.0,4.45,9.52,6.7,0.21,-0.42,-0.22,z
3297.0,3119.0,3086.0,2864.0,4095.0,3596.0,2671.0,2995.0,7.53,6.94,7.01,1.1,-0.8,-1.43,z
3271.0,3113.0,3067.0,2857.0,4095.0,3566.0,2655.0,2979.0,0.5,5.49,1.8,1.24,-0.27,-3.26,z
3280.0,3105.0,3067.0,2861.0,4095.0,3559.0,2674.0,2961.0,-11.2,6.62,-5.49,1.37,-0.38,-2.31,z
3281.0,3120.0,3071.0,2857.0,4095.0,3547.0,2681.0,2957.0,-14.47,7.96,-8.01,0.22,0.1,-1.12,z
3233.0,3054.0,3041.0,2804.0,4095.0,3499.0,2619.0,2917.0,-12.3,5.84,-9.76,-1.33,0.0,0.53,z
3311.0,3152.0,3113.0,2885.0,4095.0,3574.0,2675.0,2992.0,-8.84,1.63,-5.84,-2.3,0.48,1.9,z
3295.0,3136.0,3106.0,2865.0,4095.0,3583.0,2671.0,2994.0,-4.63,2.6,0.62,-2.99,0.07,2.52,z
3338.0,3178.0,3152.0,2934.0,4095.0,3645.0,2735.0,3047.0,4.11,6.85,12.52,-3.02,-0.16,2.7,z
3294.0,3145.0,3104.0,2835.0,4095.0,3583.0,2675.0,2987.0,13.63,9.94,18.63,-0.85,0.1,0.92,z
3219.0,3079.0,3046.0,2778.0,4095.0,3539.0,2641.0,2955.0,9.96,7.36,11.71,1.11,-0.32,-1.91,z
3199.0,3046.0,3028.0,2757.0,4095.0,3506.0,2619.0,2931.0,3.78,3.7,5.1,1.27,-0.85,-3.06,z
3203.0,3057.0,3025.0,2768.0,4095.0,3536.0,2623.0,2939.0,-2.38,5.23,2.23,1.06,-0.28,-3.94,z
3193.0,3063.0,3030.0,2767.0,4095.0,3495.0,2614.0,2927.0,-14.29,7.3,-2.92,0.87,-0.42,-2.39,z
3205.0,3070.0,3027.0,2767.0,4095.0,3504.0,2637.0,2922.0,-14.08,8.53,1.56,-0.04,-0.15,-0.93,z
3193.0,3071.0,3037.0,2767.0,4095.0,3522.0,2634.0,2946.0,-8.46,8.12,1.79,0.2,-0.27,0.02,z
3175.0,3057.0,3025.0,2759.0,4095.0,3519.0,2617.0,2929.0,-5.88,7.48,2.02,-0.07,0.0,0.08,z
3199.0,3071.0,3041.0,2791.0,4095.0,3434.0,2593.0,2954.0,-0.72,9.12,2.55,-0.19,0.07,-0.02,z
3195.0,3079.0,3044.0,2785.0,4095.0,3419.0,2559.0,2938.0,-0.35,9.32,3.36,-0.18,0.02,0.08,z
3190.0,3085.0,3041.0,2778.0,4095.0,3435.0,2559.0,2935.0,4.45,9.19,7.84,0.05,-0.64,0.08,z
3184.0,3084.0,3042.0,2770.0,4095.0,3447.0,2559.0,2928.0,6.07,8.22,6.95,0.59,-0.52,-0.67,z
3184.0,3070.0,3025.0,2768.0,4095.0,3446.0,2591.0,2896.0,0.23,8.08,1.41,0.31,-1.11,-1.01,z
3175.0,3081.0,3025.0,2768.0,4095.0,3471.0,2587.0,2896.0,-10.45,7.04,-2.37,0.4,-0.64,-1.46,z
3171.0,3070.0,3028.0,2771.0,4095.0,3577.0,2593.0,2895.0,-14.37,6.4,-5.37,-0.34,-0.13,-0.05,z
3168.0,3071.0,3028.0,2811.0,4095.0,3577.0,2608.0,2893.0,-8.58,2.86,-5.43,-1.15,0.52,0.79,z
3155.0,3063.0,3025.0,2736.0,4095.0,3575.0,2608.0,2890.0,-3.99,3.7,0.48,-1.33,0.99,1.15,z
3153.0,3070.0,3035.0,2697.0,4095.0,3568.0,2617.0,2873.0,2.04,9.08,4.96,-1.69,1.19,0.71,z
3071.0,3050.0,3009.0,2608.0,4095.0,3559.0,2622.0,2864.0,3.8,12.01,10.83,-1.35,1.25,0.23,z
3198.0,3141.0,3097.0,2749.0,4095.0,3665.0,2714.0,2959.0,5.48,11.35,17.27,-1.16,0.09,-0.17,z
3168.0,3090.0,3041.0,2738.0,4095.0,3600.0,2663.0,2906.0,4.98,6.37,12.26,0.17,-1.09,-1.59,z
3173.0,3088.0,3041.0,2728.0,4095.0,3581.0,2660.0,2895.0,2.52,5.08,4.93,0.5,-1.24,-1.77,z
3158.0,3067.0,3023.0,2716.0,4095.0,3575.0,2652.0,2882.0,-4.55,6.45,2.71,0.44,-0.37,-1.88,z
3169.0,3091.0,3045.0,2736.0,4095.0,3617.0,2675.0,2912.0,-11.92,8.46,1.46,0.48,-0.18,-1.25,z
3169.0,3093.0,3043.0,2736.0,4095.0,3610.0,2666.0,2916.0,-11.3,8.99,1.55,0.35,-0.2,-0.68,z
3158.0,3089.0,3038.0,2736.0,4095.0,3600.0,2672.0,2928.0,-7.14,7.62,2.82,-0.05,0.26,-0.13,z
3175.0,3105.0,3037.0,2751.0,4095.0,3535.0,2663.0,2948.0,-7.28,7.62,2.49,-0.07,0.53,0.08,z
3184.0,3104.0,3043.0,2714.0,4095.0,3473.0,2645.0,2948.0,-5.39,8.5,5.43,0.19,0.38,0.13,z
3162.0,3070.0,3010.0,2705.0,4095.0,3511.0,2666.0,2928.0,-1.55,9.06,1.94,-0.03,-0.17,-0.34,z
3155.0,3088.0,3022.0,2700.0,4095.0,3513.0,2671.0,2923.0,0.93,9.14,4.75,0.06,-0.25,-0.1,z
3152.0,3069.0,3014.0,2706.0,4095.0,3510.0,2659.0,2926.0,8.81,8.19,7.13,0.88,-0.04,-1.13,z
3161.0,3069.0,3017.0,2707.0,4095.0,3553.0,2651.0,2930.0,5.19,4.95,3.9,1.75,-0.25,-2.75,z
3166.0,3088.0,3009.0,2721.0,4095.0,3530.0,2672.0,2932.0,-2.16,2.83,-0.77,1.41,-0.56,-4.22,z
3197.0,3087.0,3025.0,2720.0,4095.0,3515.0,2672.0,2894.0,-15.43,2.95,-5.17,0.6,-0.21,-2.75,z
3118.0,3115.0,3050.0,2678.0,4095.0,3583.0,2682.0,2918.0,-29.4,5.12,-9.43,-0.1,-0.05,-0.45,z
3109.0,3121.0,3067.0,2689.0,4095.0,3651.0,2693.0,2945.0,-14.58,3.98,-9.45,-1.36,-1.04,3.2,z
3089.0,3088.0,3031.0,2641.0,4095.0,3604.0,2649.0,2923.0,-3.03,-0.67,-4.04,-4.53,-0.5,3.11,z
3099.0,3093.0,3033.0,2662.0,4095.0,3627.0,2658.0,2947.0,3.11,0.24,2.83,-3.04,-0.07,1.79,z
3232.0,3071.0,3017.0,2775.0,4095.0,3963.0,2662.0,2945.0,4.93,5.65,13.95,-2.2,0.17,2.12,z
3216.0,3189.0,3136.0,2771.0,4095.0,4053.0,2769.0,3014.0,11.23,8.58,23.19,-0.86,0.27,-0.28,z
3193.0,3182.0,3118.0,2768.0,4095.0,4047.0,2771.0,3036.0,4.32,3.9,14.86,1.27,-0.12,-2.82,z
3201.0,3197.0,3137.0,2771.0,4095.0,4031.0,2787.0,3058.0,0.94,1.4,6.52,2.33,-0.72,-3.81,z
3168.0,3164.0,3090.0,2721.0,4095.0,3957.0,2741.0,3005.0,-9.22,4.54,-2.16,2.15,1.0,-4.25,z
3180.0,3169.0,3120.0,2736.0,4095.0,3838.0,2782.0,3030.0,-17.99,5.08,-2.35,0.56,-0.37,-2.34,z
3147.0,3163.0,3095.0,2725.0,4095.0,3823.0,2756.0,3011.0,-16.02,5.74,1.71,0.16,0.14,-0.13,z
3165.0,3156.0,3099.0,2743.0,4095.0,3819.0,2768.0,3026.0,-9.02,5.85,1.85,0.07,-0.1,0.58,z
3177.0,3173.0,3111.0,2753.0,4095.0,3807.0,2768.0,3035.0,-7.2,5.79,3.24,-0.27,0.13,0.49,z
3162.0,3174.0,3115.0,2750.0,4095.0,3793.0,2762.0,3033.0,-8.98,5.12,4.61,-0.05,0.21,0.74,z
3157.0,3157.0,3101.0,2736.0,4095.0,3989.0,2720.0,3026.0,-1.09,9.34,1.14,-0.03,0.05,0.0,z
3153.0,3157.0,3094.0,2736.0,4095.0,3979.0,2727.0,3026.0,-1.83,9.69,0.79,-0.03,0.14,0.02,z
3152.0,3155.0,3101.0,2736.0,4095.0,3969.0,2729.0,3025.0,-3.64,9.77,-0.58,-0.04,0.23,0.25,z
3155.0,3149.0,3087.0,2736.0,4095.0,3951.0,2725.0,3018.0,-1.15,9.72,0.11,-0.29,0.57,0.85,z
3216.0,3152.0,3099.0,2773.0,4095.0,3856.0,2726.0,3003.0,13.04,11.36,13.18,-0.48,-0.92,1.07,z
3199.0,3149.0,3093.0,2781.0,4095.0,3686.0,2736.0,3020.0,11.65,7.03,10.07,1.35,-0.94,-2.49,z
3191.0,3150.0,3089.0,2768.0,4095.0,3678.0,2734.0,3005.0,-5.54,4.71,-4.47,0.88,-1.12,-2.78,z
3187.0,3143.0,3095.0,2752.0,4095.0,3681.0,2742.0,2997.0,-18.03,4.63,-10.57,0.2,-0.09,-1.41,z
3194.0,3155.0,3118.0,2774.0,4095.0,3723.0,2767.0,3013.0,-14.82,2.41,-11.71,-0.45,0.71,0.63,z
3125.0,3089.0,3023.0,2705.0,4095.0,3629.0,2658.0,2945.0,-9.08,-1.08,-5.21,-1.89,1.65,1.24,z
3120.0,3084.0,3030.0,2694.0,4095.0,3568.0,2663.0,2955.0,-1.9,4.72,6.76,-2.37,1.61,1.56,z
3215.0,3169.0,3130.0,2765.0,4095.0,3693.0,2749.0,3024.0,6.74,12.66,16.47,-2.03,1.23,0.77,z
3209.0,3089.0,3024.0,2751.0,4095.0,3654.0,2713.0,2969.0,14.28,14.42,21.48,0.16,-0.22,-0.14,z
3237.0,3137.0,3065.0,2780.0,4095.0,3692.0,2730.0,2987.0,2.82,5.96,9.87,0.24,-1.53,-1.96,z
3233.0,3123.0,3080.0,2789.0,4095.0,3685.0,2743.0,2984.0,3.46,6.03,1.95,0.88,-1.49,-1.52,z
3226.0,3146.0,3102.0,2800.0,4095.0,3696.0,2769.0,2991.0,-11.13,6.92,-1.08,1.69,-0.6,-2.7,z
3175.0,3121.0,3062.0,2754.0,4095.0,3657.0,2736.0,2973.0,-17.31,9.34,-4.9,0.22,-0.43,-1.18,z
3179.0,3120.0,3063.0,2754.0,4095.0,3702.0,2743.0,2988.0,-7.77,8.64,0.79,-0.35,-0.13,-0.18,z
3138.0,3071.0,3017.0,2715.0,4095.0,3636.0,2693.0,2941.0,-3.62,8.55,1.61,-0.11,-0.05,-0.05,z
3141.0,3084.0,3015.0,2723.0,4095.0,3646.0,2687.0,2956.0,-3.06,8.04,3.57,0.02,0.17,-0.02,z
3117.0,3057.0,2994.0,2759.0,4095.0,3547.0,2615.0,2929.0,0.14,9.59,1.89,-0.09,-0.1,0.03,z
3120.0,3053.0,2992.0,2757.0,4095.0,3551.0,2615.0,2928.0,2.93,9.04,3.92,-0.13,-0.35,0.2,z
3152.0,3083.0,3014.0,2752.0,4095.0,3567.0,2637.0,2953.0,9.12,6.89,9.9,0.07,-0.74,-0.38,z
3181.0,3120.0,3056.0,2758.0,4095.0,3634.0,2685.0,3004.0,9.72,5.88,8.43,0.92,-1.99,-2.38,z
3166.0,3095.0,3045.0,2736.0,4095.0,3627.0,2671.0,2977.0,-7.37,4.41,-0.57,1.53,-0.09,-3.75,z
3115.0,3085.0,3018.0,2666.0,4095.0,3600.0,2665.0,2898.0,-26.54,6.49,-13.05,0.76,0.71,-1.54,z
3129.0,3174.0,3113.0,2709.0,4095.0,3674.0,2722.0,3004.0,-13.2,4.53,-13.49,-1.28,-0.68,1.76,z
3082.0,3123.0,3071.0,2672.0,4095.0,3659.0,2700.0,2985.0,-2.72,1.07,-2.61,-1.96,0.32,1.66,z
3088.0,3135.0,3071.0,2671.0,4095.0,3664.0,2704.0,2993.0,2.34,6.24,6.03,-1.37,0.75,1.19,z
3121.0,3165.0,3101.0,2704.0,4095.0,3721.0,2754.0,3035.0,9.57,13.01,17.3,-1.44,0.39,0.94,z
3317.0,3202.0,3137.0,2843.0,4095.0,3770.0,2818.0,3087.0,13.67,14.23,16.61,-0.23,-0.11,-0.64,z
3220.0,3123.0,3079.0,2769.0,4095.0,3685.0,2734.0,2989.0,4.89,6.13,6.01,0.96,-0.91,-2.22,z
3127.0,3127.0,3063.0,2707.0,4095.0,3658.0,2720.0,2973.0,1.05,8.72,-0.24,0.51,-1.57,-2.45,z
3154.0,3121.0,3056.0,2736.0,4095.0,3632.0,2711.0,2971.0,-11.16,6.32,1.53,2.03,0.38,-3.06,z
3095.0,3102.0,3049.0,2688.0,4095.0,3602.0,2704.0,2946.0,-17.9,7.81,-3.14,0.77,-0.17,-1.03,z
3131.0,3120.0,3043.0,2723.0,4095.0,3630.0,2705.0,2961.0,-8.75,8.65,-0.44,-0.19,-0.19,0.17,z
3134.0,3113.0,3039.0,2731.0,4095.0,3617.0,2704.0,2960.0,-3.45,9.05,0.35,0.05,0.07,0.15,z
3138.0,3110.0,3041.0,2735.0,4095.0,3622.0,2703.0,2970.0,-3.95,8.37,1.25,-0.07,0.06,0.17,z
3138.0,3115.0,3039.0,2735.0,4095.0,3631.0,2705.0,2967.0,-4.3,8.01,1.68,-0.03,0.12,0.07,z
3130.0,3108.0,3039.0,2731.0,4095.0,3611.0,2704.0,2972.0,-4.27,8.0,1.18,0.01,0.1,0.11,z
3162.0,3121.0,3079.0,2765.0,4095.0,3667.0,2706.0,2998.0,-1.79,9.43,0.65,0.05,0.15,-0.08,z
3157.0,3133.0,3061.0,2768.0,4095.0,3662.0,2711.0,3014.0,-2.52,9.05,0.26,0.03,0.11,-0.09,z
3167.0,3120.0,3063.0,2768.0,4095.0,3659.0,2714.0,2997.0,-6.53,8.75,-1.48,0.1,0.3,0.09,z
3158.0,3121.0,3070.0,2765.0,4095.0,3667.0,2720.0,2999.0,-7.19,9.98,-2.66,-0.11,0.07,0.84,z
3183.0,3152.0,3094.0,2791.0,4095.0,3695.0,2746.0,3025.0,-5.32,7.75,-3.57,-0.45,0.64,0.86,z
3139.0,3101.0,3056.0,2735.0,4095.0,3642.0,2671.0,2975.0,-6.89,5.52,-5.14,-0.96,1.18,1.72,z
3142.0,3108.0,3043.0,2745.0,4095.0,3641.0,2691.0,2994.0,3.48,5.85,5.61,-2.02,0.22,2.98,z
3135.0,3111.0,3049.0,2738.0,4095.0,3648.0,2694.0,2994.0,11.94,8.95,13.59,-0.57,0.56,1.38,z
3153.0,3111.0,3065.0,2741.0,4095.0,3666.0,2706.0,3005.0,11.77,8.67,10.96,0.35,0.07,0.02,z
3149.0,3103.0,3050.0,2739.0,4095.0,3652.0,2699.0,2997.0,9.43,5.56,7.87,0.4,-1.71,-1.71,z
3136.0,3103.0,3051.0,2728.0,4095.0,3632.0,2686.0,3002.0,1.98,2.46,0.7,1.42,-1.04,-2.5,z
3117.0,3070.0,3021.0,2708.0,4095.0,3570.0,2646.0,2955.0,-7.86,1.79,-13.35,1.3,-0.8,-2.82,z
3171.0,3141.0,3060.0,2761.0,4095.0,3606.0,2693.0,3000.0,-14.43,3.91,-14.0,-1.5,0.02,-1.41,z
3237.0,3189.0,3143.0,2833.0,4095.0,3703.0,2762.0,3084.0,-4.48,5.52,-3.76,-2.95,1.35,-0.28,z
3231.0,3195.0,3143.0,2826.0,4095.0,3727.0,2767.0,3071.0,-3.17,7.89,8.34,-3.46,1.8,-0.43,z
3175.0,3105.0,3057.0,2746.0,4095.0,3657.0,2675.0,2961.0,-5.64,10.59,14.39,-2.22,1.94,-1.04,z
3169.0,3109.0,3051.0,2768.0,4095.0,3645.0,2704.0,2946.0,-6.78,12.17,15.5,-1.61,0.44,0.34,z
3174.0,3120.0,3061.0,2758.0,4095.0,3651.0,2703.0,2962.0,-3.27,9.79,8.72,0.25,-0.2,0.1,z
3148.0,3088.0,3041.0,2736.0,4095.0,3623.0,2687.0,2954.0,-4.71,6.45,3.98,0.43,-0.29,-0.06,z
3149.0,3094.0,3043.0,2749.0,4095.0,3626.0,2704.0,2969.0,-2.8,6.3,3.42,0.18,-0.13,0.16,z
3156.0,3090.0,3046.0,2720.0,4095.0,3603.0,2671.0,2971.0,1.42,9.64,3.44,-0.04,-0.1,-0.07,z
3157.0,3095.0,3038.0,2724.0,4095.0,3597.0,2672.0,2971.0,1.04,9.18,3.4,-0.12,-0.28,-0.08,z
3166.0,3086.0,3023.0,2730.0,4095.0,3605.0,2672.0,2974.0,6.02,8.81,7.65,0.08,-0.6,-0.1,z
3181.0,3110.0,3056.0,2764.0,4095.0,3632.0,2681.0,2994.0,8.61,8.34,7.71,0.71,-1.2,-1.32,z
3167.0,3095.0,3046.0,2783.0,4095.0,3549.0,2683.0,2982.0,0.99,5.55,4.0,1.05,-0.43,-2.67,z
3167.0,3102.0,3039.0,2737.0,4095.0,3536.0,2688.0,2969.0,-10.07,6.5,-5.57,0.94,-0.87,-1.79,z
3171.0,3091.0,3037.0,2733.0,4095.0,3533.0,2678.0,2961.0,-12.3,6.44,-7.86,-0.12,-0.37,-1.06,z
3212.0,3155.0,3102.0,2887.0,4095.0,3609.0,2730.0,3038.0,-9.37,4.92,-7.82,-0.6,0.15,0.16,z
3122.0,3063.0,3003.0,2746.0,4095.0,3514.0,2642.0,2939.0,-5.89,2.87,-4.87,-1.3,1.18,0.42,z
3123.0,3058.0,3019.0,2721.0,4095.0,3521.0,2642.0,2950.0,-5.14,4.63,0.44,-2.18,1.1,0.69,z
3152.0,3071.0,3026.0,2737.0,4095.0,3537.0,2660.0,2969.0,-1.28,8.16,8.57,-3.01,0.91,0.68,z
3126.0,3046.0,2995.0,2815.0,4095.0,3505.0,2634.0,2928.0,3.04,10.45,17.33,-1.97,0.67,0.26,z
3132.0,3039.0,2982.0,2709.0,4095.0,3535.0,2637.0,2919.0,7.2,9.98,23.28,0.02,-0.42,-0.99,z
3127.0,3040.0,2981.0,2703.0,4095.0,3860.0,2637.0,2886.0,-0.43,6.48,10.94,2.66,-0.5,-2.31,z
3129.0,3039.0,2977.0,2693.0,4095.0,3890.0,2631.0,2885.0,-3.65,5.71,0.56,2.1,-1.35,-2.18,z
3131.0,3050.0,2972.0,2705.0,4095.0,3879.0,2638.0,2910.0,-8.58,5.22,-1.98,1.71,-0.16,-2.22,z
3125.0,3041.0,2988.0,2705.0,4095.0,3881.0,2628.0,2878.0,-12.55,7.13,-4.57,1.0,-0.06,-1.2,z
3130.0,3047.0,2987.0,2701.0,4095.0,3857.0,2635.0,2880.0,-10.31,7.06,-1.18,0.36,0.06,-0.17,z
3129.0,3040.0,2998.0,2688.0,4095.0,3861.0,2633.0,2894.0,-8.3,7.42,-0.84,-0.05,0.05,0.35,z
3136.0,3050.0,2996.0,2701.0,4095.0,3888.0,2633.0,2911.0,-6.26,7.01,2.32,-0.13,0.25,0.44,z
3111.0,3040.0,2997.0,2793.0,4095.0,3749.0,2627.0,2934.0,4.55,8.36,3.08,-0.13,-1.47,-1.57,z
3111.0,3049.0,2987.0,2704.0,4095.0,3770.0,2628.0,2944.0,3.18,6.53,5.68,-0.39,-1.04,-2.19,z
3115.0,3027.0,2975.0,2704.0,4095.0,3749.0,2616.0,2928.0,-2.99,4.83,3.41,1.25,0.22,-3.59,z
3010.0,3035.0,2979.0,2610.0,4095.0,3720.0,2611.0,2870.0,-22.15,3.66,-8.61,1.9,0.74,-2.4,z
3146.0,3042.0,2980.0,2720.0,4095.0,3725.0,2619.0,2896.0,-13.2,6.01,-10.39,-0.12,-0.25,0.7,z
3120.0,3039.0,2993.0,2735.0,4095.0,3735.0,2624.0,2911.0,-7.06,4.36,-5.06,-0.55,0.04,0.96,z
3200.0,3052.0,2993.0,2783.0,4095.0,3762.0,2641.0,2939.0,-5.75,4.33,-4.85,-1.12,1.1,1.03,z
3285.0,3056.0,3013.0,2848.0,4095.0,3789.0,2640.0,2943.0,-3.17,5.81,1.69,-2.37,1.44,0.89,z
3245.0,3059.0,3006.0,2804.0,4095.0,3793.0,2638.0,2957.0,0.11,9.76,7.76,-2.23,1.24,0.92,z
3106.0,3050.0,2991.0,2709.0,4095.0,3792.0,2626.0,2934.0,3.07,10.92,14.72,-2.19,0.89,0.54,z
3088.0,3056.0,2992.0,2658.0,4095.0,3792.0,2640.0,2928.0,7.22,10.67,19.35,-0.92,-0.09,-0.01,z
3071.0,3061.0,2995.0,2665.0,4095.0,3791.0,2646.0,2939.0,4.52,7.83,11.95,1.16,-1.4,-1.6,z
3071.0,3052.0,2991.0,2657.0,4095.0,3798.0,2637.0,2927.0,2.09,6.65,3.33,1.16,-1.92,-2.43,z
3060.0,3056.0,3001.0,2654.0,4095.0,3792.0,2641.0,2923.0,-7.2,4.14,1.31,1.54,-0.57,-3.01,z
2925.0,3053.0,2983.0,2591.0,4095.0,3779.0,2627.0,2901.0,-12.54,5.03,-4.0,0.07,-0.29,-2.49,z
2983.0,3066.0,3008.0,2626.0,4095.0,3789.0,2650.0,2925.0,-14.21,7.28,0.32,0.13,-0.2,-0.51,z
2951.0,3063.0,3024.0,2640.0,4095.0,3792.0,2655.0,2928.0,-8.7,8.33,0.46,0.23,-0.13,0.14,z
2992.0,3093.0,3022.0,2655.0,4095.0,3841.0,2663.0,2959.0,-5.36,7.53,2.14,-0.05,0.01,0.29,z
2960.0,3063.0,3019.0,2624.0,4095.0,3821.0,2650.0,2928.0,-4.75,7.12,2.49,-0.08,0.09,0.26,z
2943.0,3063.0,3022.0,2624.0,4095.0,3793.0,2647.0,2933.0,-4.95,7.09,2.61,-0.12,0.01,0.19,z
3022.0,3105.0,3043.0,2684.0,4095.0,3824.0,2655.0,2950.0,4.7,3.72,7.96,-0.35,0.71,0.93,z
3007.0,3093.0,3041.0,2672.0,4095.0,3819.0,2641.0,2939.0,2.01,4.58,7.01,-1.04,0.14,0.16,z
3051.0,3106.0,3041.0,2659.0,4095.0,3825.0,2653.0,2960.0,5.73,5.38,11.21,-0.56,-0.55,0.07,z
3019.0,3098.0,3039.0,2667.0,4095.0,3847.0,2658.0,2973.0,8.17,7.07,13.56,0.01,-1.31,-1.09,z
3039.0,3125.0,3070.0,2688.0,4095.0,3879.0,2693.0,2991.0,9.81,4.46,13.29,1.44,-2.13,-2.3,z
3069.0,3145.0,3083.0,2737.0,4095.0,3905.0,2711.0,3024.0,0.49,0.99,2.7,2.58,-0.5,-4.15,z
3205.0,3186.0,3133.0,2826.0,4095.0,3869.0,2710.0,2975.0,-20.68,2.2,-17.18,2.71,-0.61,-3.38,z
2981.0,3120.0,3055.0,2663.0,4095.0,3803.0,2670.0,2941.0,-21.8,4.9,-19.9,-0.89,-0.49,0.29,z
3189.0,3124.0,3071.0,2829.0,4095.0,3826.0,2693.0,3019.0,-5.5,3.71,-10.84,-2.01,-0.08,1.49,z
3245.0,3155.0,3114.0,2854.0,4095.0,3815.0,2714.0,3045.0,-3.33,3.28,0.01,-3.17,1.19,1.36,z
3175.0,3152.0,3105.0,2774.0,4095.0,3845.0,2725.0,3011.0,5.71,5.26,19.86,-4.7,1.37,1.77,z
3228.0,3199.0,3139.0,2835.0,4095.0,3707.0,2802.0,3051.0,13.7,6.2,32.29,-0.52,0.78,-0.88,z
3202.0,3149.0,3094.0,2807.0,4095.0,3599.0,2761.0,2965.0,1.42,5.67,11.9,2.36,-0.66,-2.7,z
3152.0,3118.0,3055.0,2734.0,4095.0,3540.0,2688.0,2937.0,-0.18,5.09,1.74,1.47,-1.11,-3.58,z
3104.0,3088.0,3031.0,2796.0,4095.0,3568.0,2663.0,2898.0,-12.36,4.37,-1.73,1.95,0.83,-3.25,z
3165.0,3091.0,3033.0,2706.0,4095.0,3568.0,2658.0,2901.0,-16.57,6.93,-5.43,0.6,-0.47,-1.44,z
3152.0,3088.0,3028.0,2726.0,4095.0,3583.0,2665.0,2907.0,-9.81,7.01,0.07,0.28,0.18,-0.13,z
3177.0,3089.0,3041.0,2761.0,4095.0,3575.0,2667.0,2913.0,-7.11,7.13,1.03,-0.11,0.08,0.08,z
3182.0,3099.0,3023.0,2753.0,4095.0,3583.0,2668.0,2923.0,-5.2,7.03,3.65,-0.25,0.14,0.21,z
3184.0,3113.0,3026.0,2791.0,4095.0,3583.0,2671.0,2941.0,-5.81,6.82,3.55,-0.05,0.17,0.11,z
3199.0,3149.0,3104.0,2900.0,4095.0,3760.0,2685.0,3034.0,3.36,7.91,8.69,0.23,-0.34,-0.18,z
3200.0,3138.0,3098.0,2829.0,4095.0,3737.0,2675.0,3024.0,3.27,6.9,9.61,0.83,-0.87,-0.93,z
3257.0,3199.0,3141.0,2871.0,4095.0,3702.0,2736.0,3085.0,7.01,5.76,14.31,1.45,-1.94,-1.55,z
3199.0,3151.0,3102.0,2782.0,4095.0,3600.0,2670.0,3022.0,-7.13,2.62,-4.34,2.63,-1.38,-3.62,z
3092.0,3101.0,3088.0,2672.0,4095.0,3464.0,2624.0,2938.0,-25.54,5.96,-24.1,1.02,0.71,-1.01,z
3197.0,3115.0,3088.0,2783.0,4095.0,3530.0,2651.0,2987.0,-8.33,7.19,-13.72,-1.95,-0.81,1.73,z
3214.0,3136.0,3079.0,2768.0,4095.0,3491.0,2615.0,2974.0,-4.58,5.44,-6.19,-0.83,1.45,1.5,z
3216.0,3122.0,3082.0,2747.0,4095.0,3920.0,2612.0,2982.0,-5.48,3.1,1.35,-2.38,1.95,1.61,z
3406.0,3111.0,3059.0,2893.0,4095.0,3646.0,2559.0,2951.0,-1.83,3.47,17.21,-4.04,0.95,1.44,z
3415.0,3216.0,3170.0,2859.0,4095.0,3715.0,2754.0,3173.0,16.63,7.64,24.36,-2.62,0.52,1.16,z
3355.0,3214.0,3203.0,2897.0,4095.0,4030.0,2759.0,3114.0,14.14,6.76,18.85,1.01,0.47,-3.05,z
3382.0,3200.0,3166.0,2824.0,4095.0,3920.0,2704.0,2995.0,1.19,4.35,4.76,1.32,-0.18,-3.7,z
3284.0,3152.0,3117.0,2815.0,4095.0,3632.0,2672.0,2949.0,-5.52,3.9,1.02,1.43,-0.85,-4.39,z
3221.0,3130.0,3071.0,2700.0,4095.0,3676.0,2651.0,2905.0,-19.58,3.34,-2.28,1.55,0.71,-3.4,z
3287.0,3205.0,3175.0,2839.0,4095.0,3583.0,2726.0,2978.0,-17.2,6.91,-3.81,0.59,-0.23,-0.7,z
3321.0,3216.0,3184.0,2843.0,4095.0,3634.0,2768.0,3021.0,-10.03,6.6,0.13,0.12,-0.32,-0.17,z
3315.0,3216.0,3193.0,2874.0,4095.0,3635.0,2736.0,3037.0,-6.86,6.49,1.61,-0.3,0.12,0.37,z
3312.0,3154.0,3116.0,2830.0,4095.0,3537.0,2701.0,2974.0,-5.28,6.48,3.39,-0.18,0.03,0.26,z
3333.0,3188.0,3152.0,2846.0,4095.0,3583.0,2725.0,3021.0,-6.22,6.09,3.12,-0.04,0.05,0.24,z
3325.0,3178.0,3142.0,2822.0,4095.0,3568.0,2708.0,3003.0,-6.01,6.27,2.76,-0.05,-0.03,0.14,z
3247.0,3103.0,3055.0,2794.0,4095.0,3506.0,2643.0,2970.0,-0.21,9.29,2.28,-0.03,-0.06,0.01,z
3238.0,3091.0,3046.0,2778.0,4095.0,3518.0,2629.0,2960.0,-0.12,9.27,2.1,-0.03,-0.06,-0.02,z
3238.0,3104.0,3049.0,2775.0,4095.0,3504.0,2629.0,2962.0,0.54,9.09,2.53,0.01,0.03,0.0,z
3264.0,3119.0,3082.0,2845.0,4095.0,3532.0,2654.0,2978.0,4.25,9.52,8.2,-0.15,-0.51,-0.08,z
3262.0,3125.0,3069.0,2805.0,4095.0,3534.0,2657.0,2987.0,7.82,6.47,12.82,1.15,-1.09,-1.24,z
3261.0,3125.0,3088.0,2801.0,4095.0,3535.0,2650.0,2992.0,3.67,6.41,3.83,1.4,-1.14,-2.16,z
3249.0,3121.0,3065.0,2779.0,4095.0,3670.0,2639.0,2970.0,-4.91,6.36,-6.92,1.31,-0.54,-2.7,z
3259.0,3149.0,3118.0,2862.0,4095.0,3674.0,2675.0,2960.0,-17.14,6.71,-12.14,0.49,1.02,-2.15,z
3285.0,3173.0,3120.0,2871.0,4095.0,3914.0,2698.0,2992.0,-14.05,3.59,-10.62,-0.73,-0.14,0.97,z
3262.0,3152.0,3117.0,2800.0,4095.0,3817.0,2688.0,2993.0,-5.44,0.76,-4.5,-1.85,0.46,1.24,z
3310.0,3203.0,3154.0,2847.0,4095.0,3671.0,2731.0,3057.0,-3.2,3.28,-1.35,-2.12,0.83,1.19,z
3359.0,3248.0,3209.0,3020.0,4095.0,3664.0,2778.0,3137.0,0.02,7.43,7.77,-3.34,0.47,0.86,z
3407.0,3164.0,3133.0,2928.0,4095.0,3583.0,2689.0,3053.0,6.7,10.64,19.17,-1.88,0.88,0.59,z
3311.0,3167.0,3121.0,2847.0,4095.0,3575.0,2695.0,3061.0,9.25,10.95,20.78,-0.13,0.22,-0.86,z
3293.0,3145.0,3098.0,2815.0,4095.0,3568.0,2674.0,3007.0,4.31,5.43,9.62,1.71,-0.93,-2.49,z
3275.0,3141.0,3093.0,2805.0,4095.0,3546.0,2675.0,2989.0,1.3,3.96,2.3,0.85,-1.56,-3.07,z
3248.0,3126.0,3079.0,2770.0,4095.0,3553.0,2672.0,2942.0,-12.94,4.49,0.21,1.26,0.84,-3.31,z
3175.0,3121.0,3071.0,2736.0,4095.0,3523.0,2662.0,2928.0,-18.29,7.09,-2.8,0.41,-0.17,-1.67,z
3239.0,3135.0,3088.0,2782.0,4095.0,3538.0,2675.0,2941.0,-10.53,7.06,1.11,0.45,0.24,-0.11,z
3243.0,3122.0,3088.0,2783.0,4095.0,3543.0,2672.0,2941.0,-6.92,7.34,0.46,-0.16,0.13,0.09,z
3312.0,3178.0,3130.0,2848.0,4095.0,3583.0,2700.0,3033.0,1.13,8.58,2.34,-0.11,0.03,0.21,z
3280.0,3163.0,3131.0,2817.0,4095.0,3600.0,2689.0,3027.0,3.33,10.98,6.2,-0.23,0.2,-0.06,z
3276.0,3152.0,3106.0,2830.0,4095.0,3552.0,2675.0,2997.0,5.95,12.35,14.42,0.52,-0.53,-0.24,z
3278.0,3133.0,3100.0,2811.0,4095.0,3633.0,2674.0,3008.0,4.84,10.4,8.75,1.24,-1.64,-0.7,z
3257.0,3135.0,3087.0,2794.0,4095.0,3578.0,2641.0,2993.0,-0.77,5.47,0.86,0.81,-1.45,-1.66,z
3269.0,3141.0,3120.0,2813.0,4095.0,3550.0,2642.0,2997.0,-6.33,3.17,-8.61,0.27,-0.78,-1.47,z
3275.0,3120.0,3099.0,2838.0,4095.0,3652.0,2637.0,2973.0,-12.11,-1.25,-10.97,0.09,-0.27,-0.79,z
3371.0,3199.0,3147.0,2896.0,4095.0,3705.0,2725.0,3071.0,-8.69,-4.57,-13.64,-0.98,0.63,0.06,z
3238.0,3057.0,3018.0,2768.0,4095.0,3619.0,2557.0,2928.0,-4.26,-0.78,-7.15,-2.02,1.76,0.02,z
3294.0,3098.0,3070.0,2823.0,4095.0,3555.0,2613.0,2980.0,-2.21,5.14,3.61,-2.92,1.88,-0.86,z
3248.0,3070.0,3035.0,2782.0,4095.0,3456.0,2579.0,2947.0,-1.39,10.43,19.35,-2.62,2.22,-1.32,z
3247.0,3062.0,3024.0,2862.0,4095.0,3583.0,2592.0,2911.0,-6.11,13.92,24.62,-1.39,1.07,-1.13,z
3344.0,3149.0,3136.0,3051.0,4095.0,3577.0,2672.0,3005.0,-1.06,12.52,30.18,-0.11,-0.06,-1.22,z
3280.0,3071.0,3037.0,2805.0,4095.0,3493.0,2608.0,2941.0,-3.75,6.15,9.91,2.76,-1.77,-1.45,z
3271.0,3059.0,3017.0,2829.0,4095.0,3471.0,2597.0,2929.0,4.1,3.23,3.5,1.44,-2.31,-2.34,z
3285.0,3098.0,3055.0,2826.0,4095.0,3750.0,2640.0,2961.0,-14.18,0.69,-3.4,2.26,-0.94,-3.05,z
3267.0,3088.0,3041.0,2809.0,4095.0,3527.0,2620.0,2967.0,-14.04,3.1,-3.08,-0.02,0.04,-1.67,z
3254.0,3071.0,3037.0,2825.0,4095.0,3506.0,2599.0,2967.0,-14.64,5.45,-1.15,-0.17,0.97,0.13,z
3249.0,3071.0,3043.0,2798.0,4095.0,3479.0,2599.0,2957.0,-11.18,6.2,1.78,-0.95,0.29,-0.01,z
3257.0,3085.0,3041.0,2864.0,4095.0,3491.0,2615.0,2981.0,-7.66,6.69,3.96,0.88,0.08,-0.1,z
3335.0,3166.0,3105.0,3071.0,4095.0,3792.0,2719.0,3053.0,-0.96,9.27,2.15,-0.15,-0.04,0.14,z
3322.0,3151.0,3109.0,3056.0,4095.0,3843.0,2714.0,3045.0,-0.51,9.25,2.51,-0.21,-0.1,0.14,z
3331.0,3149.0,3105.0,2928.0,4095.0,3767.0,2723.0,3056.0,1.03,9.11,4.05,-0.08,-0.25,0.21,z
3483.0,3142.0,3087.0,3060.0,4095.0,3975.0,2699.0,3042.0,8.95,8.61,9.81,0.09,-0.39,-0.22,z
3450.0,3130.0,3084.0,3035.0,4095.0,3953.0,2693.0,3049.0,10.32,4.63,9.72,1.0,-0.86,-1.73,z
3456.0,3159.0,3111.0,3043.0,4095.0,3983.0,2719.0,3088.0,2.58,2.85,4.21,1.26,-0.08,-3.55,z
3335.0,3152.0,3102.0,2895.0,4095.0,3952.0,2694.0,3005.0,-20.3,5.68,-10.31,1.02,0.01,-3.12,z
3231.0,3209.0,3174.0,2863.0,4095.0,3999.0,2753.0,3105.0,-25.66,7.43,-12.49,-0.39,-0.61,1.04,z
3149.0,3089.0,3056.0,2726.0,4095.0,3775.0,2602.0,2955.0,-8.14,3.51,-12.33,-1.71,0.47,2.23,z
3182.0,3120.0,3086.0,2757.0,4095.0,3754.0,2653.0,3005.0,-0.39,-0.35,-1.03,-2.05,0.09,2.88,z
3209.0,3154.0,3121.0,2815.0,4095.0,3954.0,2721.0,3088.0,8.57,6.69,21.04,-3.15,1.21,1.95,z
3185.0,3179.0,3133.0,2863.0,4095.0,3985.0,2742.0,3085.0,8.88,9.8,23.5,0.59,0.35,-0.03,z
3123.0,3094.0,3051.0,2752.0,4095.0,3903.0,2674.0,3007.0,4.22,6.61,13.49,1.32,-1.24,-1.75,z
3203.0,3161.0,3111.0,2786.0,4095.0,3986.0,2716.0,3029.0,2.57,2.63,4.06,2.34,-2.01,-2.04,z
3214.0,3170.0,3120.0,2789.0,4095.0,3963.0,2722.0,3054.0,-9.42,6.07,-3.01,1.85,0.2,-3.26,z
3155.0,3150.0,3115.0,2769.0,4095.0,3943.0,2690.0,3024.0,-16.79,10.36,-10.72,0.89,-0.0,-0.67,z
3119.0,3149.0,3099.0,2739.0,4095.0,3923.0,2686.0,3024.0,-3.02,9.8,-0.32,-0.27,-0.3,0.1,z
3120.0,3151.0,3113.0,2864.0,4095.0,3939.0,2685.0,3011.0,-3.74,9.57,2.34,-0.32,0.3,-0.08,z
3122.0,3131.0,3095.0,2739.0,4095.0,3937.0,2690.0,3021.0,-4.65,8.85,3.88,-0.1,0.16,0.04,z
3123.0,3147.0,3099.0,2754.0,4095.0,3930.0,2689.0,3033.0,-4.46,8.34,2.69,0.03,0.01,0.22,z
3116.0,3126.0,3079.0,2717.0,4095.0,3898.0,2675.0,3035.0,0.94,9.28,2.24,-0.17,-0.14,-0.02,z
3108.0,3123.0,3087.0,2711.0,4095.0,3888.0,2675.0,3026.0,-0.18,9.0,2.33,-0.02,-0.06,-0.03,z
3109.0,3123.0,3071.0,2710.0,4095.0,3887.0,2679.0,3015.0,1.71,9.49,3.3,-0.08,-0.17,-0.02,z
3103.0,3125.0,3084.0,2712.0,4095.0,3907.0,2672.0,3024.0,7.42,9.41,7.75,0.03,-0.34,-0.54,z
3130.0,3122.0,3083.0,2744.0,4095.0,3888.0,2685.0,3035.0,7.19,7.27,9.98,1.02,-0.7,-2.17,z
3142.0,3155.0,3113.0,2719.0,4095.0,3925.0,2704.0,3007.0,-10.77,4.32,-4.1,1.79,-0.12,-2.54,z
3061.0,3110.0,3063.0,2687.0,4095.0,3806.0,2617.0,2901.0,-15.64,6.29,-15.53,0.26,0.28,-0.54,z
3183.0,3212.0,3191.0,2790.0,4095.0,3990.0,2737.0,3012.0,-6.81,2.96,-10.95,-1.28,0.33,0.88,z
3105.0,3141.0,3099.0,2685.0,4095.0,3868.0,2671.0,2983.0,-5.13,4.95,0.24,-2.45,1.71,0.2,z
3088.0,3120.0,3087.0,2704.0,4095.0,3824.0,2650.0,2944.0,0.34,11.09,15.44,-2.19,0.99,0.9,z
3177.0,3164.0,3123.0,2687.0,4095.0,3974.0,2701.0,3002.0,4.41,13.4,19.91,-0.74,-0.06,-0.01,z
3126.0,3153.0,3119.0,2826.0,4095.0,3951.0,2698.0,2975.0,3.67,9.73,10.5,1.13,-0.99,-0.6,z
3087.0,3071.0,3051.0,2655.0,4095.0,3888.0,2644.0,2894.0,1.41,6.94,2.87,1.05,-1.23,-1.62,z
3070.0,3104.0,3055.0,2646.0,4095.0,3911.0,2650.0,2922.0,-7.28,7.52,-4.47,1.08,-0.63,-1.66,z
3069.0,3103.0,3059.0,2663.0,4095.0,3909.0,2646.0,2911.0,-10.84,7.09,-2.04,0.44,0.03,-0.71,z
3106.0,3111.0,3059.0,2672.0,4095.0,3930.0,2653.0,2931.0,-5.22,8.83,-0.25,-0.18,0.37,0.01,z
3105.0,3095.0,3069.0,2672.0,4095.0,3953.0,2655.0,2929.0,-4.85,8.5,1.74,-0.01,0.27,0.03,z
3101.0,3101.0,3057.0,2765.0,4095.0,3946.0,2655.0,2931.0,-3.43,8.77,2.34,-0.06,0.03,0.19,z
3105.0,3093.0,3059.0,2735.0,4095.0,3922.0,2652.0,2934.0,-3.74,8.41,1.98,0.15,0.02,0.08,z
3109.0,3098.0,3057.0,2693.0,4095.0,3927.0,2657.0,2928.0,-3.25,8.65,1.82,-0.03,-0.15,0.1,z
3069.0,3099.0,3058.0,2670.0,4095.0,3628.0,2658.0,2983.0,-0.11,9.15,2.47,0.03,-0.0,-0.02,z
3083.0,3091.0,3057.0,2658.0,4095.0,3623.0,2666.0,2960.0,-0.62,9.2,2.08,-0.01,-0.0,-0.04,z
3071.0,3099.0,3059.0,2659.0,4095.0,3618.0,2663.0,2981.0,-0.17,9.43,2.32,-0.0,0.02,0.02,z
3067.0,3100.0,3046.0,2660.0,4095.0,3618.0,2660.0,2979.0,-0.67,9.11,1.96,-0.05,0.0,-0.05,z
3071.0,3099.0,3053.0,2659.0,4095.0,3625.0,2657.0,2977.0,-0.49,9.36,1.99,-0.04,0.03,0.01,z
3071.0,3091.0,3048.0,2672.0,4095.0,3624.0,2665.0,2981.0,0.38,9.37,3.0,-0.16,-0.14,0.05,z
3061.0,3088.0,3056.0,2669.0,4095.0,3629.0,2672.0,2977.0,5.03,8.85,7.72,-0.08,-0.67,-0.18,z
3062.0,3094.0,3047.0,2655.0,4095.0,3614.0,2656.0,2983.0,9.41,7.73,9.07,0.48,-0.95,-1.17,z
3065.0,3100.0,3055.0,2713.0,4095.0,3583.0,2657.0,2989.0,3.93,5.64,4.53,0.89,-0.91,-2.77,z
3046.0,3088.0,3055.0,2659.0,4095.0,3540.0,2640.0,2945.0,-13.64,5.69,-6.56,1.54,-0.07,-2.37,z
3053.0,3090.0,3050.0,2677.0,4095.0,3526.0,2623.0,2958.0,-19.7,6.73,-10.86,-0.25,-0.12,-0.85,z
3071.0,3120.0,3071.0,2731.0,4095.0,3597.0,2665.0,3010.0,-10.56,4.37,-8.54,-1.37,-0.25,1.4,z
3067.0,3099.0,3058.0,2673.0,4095.0,3598.0,2671.0,2982.0,-2.99,2.42,1.36,-2.01,1.12,1.34,z
3053.0,3091.0,3045.0,2699.0,4095.0,3904.0,2633.0,2997.0,-0.3,7.2,8.05,-2.52,1.23,1.25,z
3056.0,3097.0,3055.0,2672.0,4095.0,3882.0,2643.0,2945.0,6.01,11.04,18.04,-1.54,0.8,0.6,z
3035.0,3115.0,3056.0,2672.0,4095.0,3687.0,2662.0,2933.0,5.81,10.86,16.83,0.37,-0.25,-0.53,z
3046.0,3108.0,3061.0,2649.0,4095.0,3664.0,2659.0,2913.0,3.07,6.99,8.33,1.39,-0.94,-1.48,z
3047.0,3104.0,3056.0,2654.0,4095.0,3795.0,2643.0,2901.0,-1.07,4.91,2.52,1.82,-1.01,-1.87,z
3041.0,3113.0,3064.0,2643.0,4095.0,3770.0,2645.0,2886.0,-8.82,5.96,-2.6,1.35,-0.22,-2.08,z
3056.0,3092.0,3056.0,2645.0,4095.0,3842.0,2646.0,2885.0,-11.84,8.18,-3.91,0.5,-0.09,-1.0,z
3047.0,3086.0,3038.0,2672.0,4095.0,3715.0,2641.0,2979.0,0.31,9.44,1.87,-0.11,0.07,0.07,z
3053.0,3091.0,3044.0,2649.0,4095.0,3707.0,2643.0,2962.0,0.76,9.7,2.25,-0.1,0.15,0.13,z
3056.0,3089.0,3043.0,2663.0,4095.0,3714.0,2647.0,2977.0,3.93,10.58,7.25,-0.3,-0.43,0.25,z
3059.0,3098.0,3062.0,2688.0,4095.0,3746.0,2655.0,2994.0,11.5,10.57,13.27,0.18,-1.73,-0.36,z
3184.0,3098.0,3046.0,2785.0,4095.0,3723.0,2651.0,2979.0,9.45,8.64,9.23,1.07,-0.7,-1.87,z
3184.0,3091.0,3055.0,2797.0,4095.0,3726.0,2654.0,2989.0,0.37,5.1,-1.36,1.0,-1.0,-2.37,z
3161.0,3088.0,3047.0,2935.0,4095.0,3792.0,2650.0,2961.0,-4.57,2.09,-5.83,0.52,-0.39,-3.12,z
3067.0,3109.0,3056.0,2659.0,4095.0,3845.0,2666.0,2964.0,-19.55,-0.27,-9.92,-0.13,0.01,-2.01,z
3041.0,3105.0,3065.0,2659.0,4095.0,3887.0,2667.0,2979.0,-15.7,-4.02,-9.7,-0.81,-0.35,0.62,z
3191.0,3219.0,3191.0,2806.0,4095.0,4095.0,2805.0,3120.0,-6.98,-5.38,-10.01,-1.34,1.48,1.03,z
3104.0,3182.0,3136.0,2736.0,4095.0,4095.0,2737.0,3068.0,-1.88,1.81,-4.82,-3.07,1.13,0.64,z
3110.0,3167.0,3125.0,2737.0,4095.0,4080.0,2739.0,3069.0,1.85,8.97,16.06,-4.23,2.63,-1.21,z
3136.0,3135.0,3092.0,2852.0,4095.0,4095.0,2736.0,2984.0,-1.79,13.86,32.36,-2.46,2.0,-1.08,z
3147.0,3118.0,3057.0,2817.0,4095.0,4015.0,2734.0,2979.0,0.36,11.47,37.18,-0.08,-0.68,-2.2,z
3223.0,3186.0,3141.0,2811.0,4095.0,4095.0,2800.0,3013.0,-3.7,4.37,13.62,3.79,-0.91,-2.46,z
3168.0,3183.0,3124.0,2823.0,4095.0,3697.0,2754.0,3014.0,-3.4,0.43,-1.46,2.49,-1.75,-3.2,z
3219.0,3152.0,3107.0,2993.0,4095.0,3561.0,2725.0,2990.0,-17.88,-1.24,-6.98,1.72,-0.21,-3.07,z
3209.0,3172.0,3120.0,2922.0,4095.0,3577.0,2757.0,3021.0,-20.28,0.26,-3.62,0.24,-0.68,-0.63,z
3217.0,3168.0,3120.0,2960.0,4095.0,3609.0,2752.0,3049.0,-7.56,3.99,-0.85,0.14,0.37,-0.25,z
3222.0,3166.0,3125.0,3014.0,4095.0,3728.0,2755.0,3026.0,-8.07,5.23,3.39,-0.25,0.24,-0.03,z
3117.0,3056.0,2997.0,2817.0,4095.0,3515.0,2619.0,2950.0,0.2,9.19,1.98,0.04,0.06,0.19,z
3117.0,3056.0,2997.0,2817.0,4095.0,3515.0,2619.0,2950.0,0.2,9.19,1.98,0.04,0.06,0.19,z
3120.0,3056.0,3005.0,2797.0,4095.0,3526.0,2624.0,2960.0,-0.64,9.22,1.56,-0.08,-0.27,0.15,z
3126.0,3063.0,3024.0,2806.0,4095.0,3532.0,2640.0,2965.0,0.59,9.0,4.22,0.05,-0.68,0.41,z
3166.0,3115.0,3047.0,2737.0,4095.0,3626.0,2673.0,3008.0,6.47,8.69,11.14,1.17,-1.74,-0.3,z
3139.0,3088.0,3034.0,2732.0,4095.0,3869.0,2641.0,2965.0,7.42,5.72,8.67,3.41,-1.04,-2.4,z
3155.0,3107.0,3039.0,2708.0,4095.0,3645.0,2639.0,2968.0,-6.7,3.56,-6.33,4.09,-0.48,-3.19,z
3210.0,3186.0,3125.0,2755.0,4095.0,3623.0,2673.0,3013.0,-13.69,6.29,-16.88,1.53,-1.29,-0.93,z
3251.0,3199.0,3125.0,2790.0,4095.0,3621.0,2697.0,3024.0,-13.97,5.81,-15.43,-1.05,0.67,0.65,z
3197.0,3139.0,3080.0,2708.0,4095.0,3564.0,2645.0,2982.0,-8.73,3.18,-11.81,-2.33,0.81,2.68,z
3231.0,3180.0,3129.0,2784.0,4095.0,3616.0,2704.0,3039.0,0.01,2.64,0.57,-4.81,1.45,2.71,z
3205.0,3158.0,3099.0,2761.0,4095.0,3598.0,2683.0,3040.0,3.13,3.28,11.12,-3.69,0.94,2.4,z
3165.0,3106.0,3038.0,2703.0,4095.0,3553.0,2655.0,2983.0,11.11,8.66,17.27,-1.37,0.89,1.0,z
3163.0,3117.0,3059.0,2775.0,4095.0,3600.0,2661.0,2986.0,10.91,8.77,16.32,0.26,-0.26,-0.8,z
3313.0,3248.0,3197.0,3017.0,4095.0,3795.0,2830.0,3118.0,5.92,5.01,9.28,2.19,-1.18,-2.25,z
3195.0,3150.0,3091.0,2749.0,4095.0,3623.0,2704.0,3015.0,-0.75,4.7,0.53,2.64,-1.38,-3.75,z
3199.0,3138.0,3087.0,2726.0,4095.0,3563.0,2698.0,2954.0,-13.67,7.02,-9.31,2.7,0.06,-2.87,z
3195.0,3138.0,3088.0,2705.0,4095.0,3551.0,2683.0,2965.0,-8.45,10.58,-8.45,0.37,-0.98,-0.26,z
3195.0,3142.0,3083.0,2726.0,4095.0,3574.0,2685.0,2961.0,-3.93,9.55,-1.65,-0.12,0.3,0.0,z
3203.0,3137.0,3088.0,2734.0,4095.0,3583.0,2687.0,2981.0,-3.07,9.53,-0.32,-0.34,-0.07,0.14,z
3197.0,3142.0,3085.0,2701.0,4095.0,3546.0,2650.0,3003.0,1.04,9.68,0.03,0.02,-0.01,0.04,z
3184.0,3137.0,3085.0,2695.0,4095.0,3546.0,2627.0,3005.0,1.28,9.66,-0.05,-0.08,0.0,0.02,z
3190.0,3140.0,3088.0,2691.0,4095.0,3531.0,2628.0,3005.0,1.12,9.67,0.15,-0.16,0.07,0.01,z
3222.0,3165.0,3122.0,2726.0,4095.0,3559.0,2671.0,3039.0,1.7,9.73,1.62,-0.19,-0.14,0.0,z
3250.0,3197.0,3155.0,2757.0,4095.0,3632.0,2698.0,3071.0,6.0,9.92,6.76,0.2,-0.53,-0.13,z
3222.0,3171.0,3120.0,2736.0,4095.0,3645.0,2671.0,3015.0,7.1,7.41,6.92,1.19,-1.06,-1.13,z
3206.0,3144.0,3109.0,2729.0,4095.0,3623.0,2655.0,2983.0,2.39,6.63,-0.69,1.42,-1.56,-2.05,z
3194.0,3145.0,3107.0,2705.0,4095.0,3530.0,2634.0,2971.0,-11.78,6.78,-10.06,0.68,0.02,-2.04,z
3184.0,3111.0,3067.0,2704.0,4095.0,3478.0,2612.0,2938.0,-13.82,7.13,-11.16,-0.17,-0.27,-0.03,z
3184.0,3108.0,3056.0,2687.0,4095.0,3462.0,2559.0,2927.0,-5.09,3.96,-10.77,-1.06,1.25,0.76,z
3135.0,3056.0,3014.0,2650.0,4095.0,3440.0,2529.0,2891.0,-4.87,1.01,-4.05,-2.71,2.17,0.53,z
3136.0,3056.0,3023.0,2642.0,4095.0,3413.0,2544.0,2894.0,-0.04,6.33,7.5,-3.31,1.83,0.96,z
3175.0,3107.0,3056.0,2811.0,4095.0,3460.0,2607.0,2946.0,5.55,11.82,17.5,-1.83,1.3,0.45,z
3211.0,3213.0,3158.0,2768.0,4095.0,3551.0,2704.0,3051.0,7.24,14.36,17.26,-0.5,0.07,-0.35,z
3111.0,3095.0,3055.0,2687.0,4095.0,3456.0,2599.0,2955.0,4.59,8.27,12.23,1.45,-1.79,-1.69,z
3117.0,3091.0,3038.0,2670.0,4095.0,3442.0,2598.0,2926.0,-2.0,6.18,2.45,1.75,-2.42,-1.7,z
3088.0,3087.0,3037.0,2647.0,4095.0,3446.0,2586.0,2930.0,-6.8,7.49,-2.43,2.0,-1.77,-1.87,z
3101.0,3084.0,3037.0,2842.0,4095.0,3442.0,2583.0,2925.0,-11.19,8.85,-5.06,0.84,-1.13,-1.19,z
3107.0,3086.0,3039.0,2667.0,4095.0,3472.0,2559.0,2919.0,-6.94,9.02,-2.82,-0.02,0.04,-0.12,z
3104.0,3088.0,3043.0,2671.0,4095.0,3456.0,2592.0,2927.0,-3.9,9.3,-1.01,-0.29,0.34,0.07,z
3135.0,3092.0,3045.0,2666.0,4095.0,3783.0,2608.0,2947.0,0.09,9.52,1.49,0.08,-0.03,0.02,z
3134.0,3093.0,3057.0,2661.0,4095.0,3774.0,2606.0,2943.0,0.2,9.69,0.85,0.11,-0.02,0.07,z
3141.0,3100.0,3051.0,2670.0,4095.0,3770.0,2608.0,2945.0,0.8,9.61,0.63,-0.07,0.0,0.09,z
3133.0,3089.0,3056.0,2674.0,4095.0,3777.0,2613.0,2946.0,2.05,9.2,2.53,-0.23,-0.24,0.05,z
3200.0,3101.0,3054.0,2960.0,4095.0,3541.0,2608.0,2913.0,8.26,7.12,14.2,0.7,-0.57,-0.14,z
3216.0,3142.0,3089.0,2740.0,4095.0,3557.0,2653.0,2946.0,5.77,9.96,8.28,1.97,-2.32,-1.47,z
3178.0,3103.0,3063.0,2686.0,4095.0,3450.0,2559.0,2877.0,-6.56,6.61,-9.3,1.83,-2.22,-1.6,z
3111.0,3066.0,3025.0,2658.0,4095.0,3431.0,2557.0,2853.0,-15.08,5.75,-14.09,0.09,-0.5,-0.73,z
3247.0,3248.0,3179.0,2784.0,4095.0,3551.0,2679.0,2995.0,-5.83,3.04,-13.45,-0.64,0.42,0.64,z
3203.0,3189.0,3149.0,2749.0,4095.0,3548.0,2674.0,3008.0,-1.63,2.11,-5.11,-4.15,1.84,0.02,z
3199.0,3193.0,3157.0,2748.0,4095.0,3583.0,2691.0,3010.0,-3.81,4.45,6.32,-1.66,1.63,0.13,z
3254.0,3216.0,3168.0,2787.0,4095.0,3668.0,2713.0,3045.0,2.11,13.12,13.38,-1.82,1.19,0.4,z
3214.0,3179.0,3151.0,2759.0,4095.0,3713.0,2770.0,3082.0,7.86,14.86,17.89,-0.57,0.4,-0.43,z
3249.0,3216.0,3179.0,2800.0,4095.0,3728.0,2738.0,3056.0,3.16,9.11,10.64,0.57,-1.64,-0.95,z
3166.0,3109.0,3066.0,2697.0,4095.0,3605.0,2629.0,2950.0,-0.35,6.44,3.02,1.27,-2.1,-1.44,z
3178.0,3107.0,3062.0,2701.0,4095.0,3637.0,2627.0,2935.0,-8.86,8.91,-4.5,1.28,-0.9,-1.63,z
3184.0,3126.0,3088.0,2722.0,4095.0,3661.0,2652.0,2950.0,-9.78,9.53,-4.83,0.46,-0.36,-0.58,z
3189.0,3133.0,3088.0,2733.0,4095.0,3662.0,2645.0,2943.0,-3.39,9.43,-0.66,-0.6,0.41,0.16,z
3182.0,3109.0,3071.0,2718.0,4095.0,3655.0,2640.0,2927.0,-2.24,9.85,2.45,-0.24,0.39,-0.18,z
3175.0,3118.0,3056.0,2706.0,4095.0,3650.0,2640.0,2930.0,-2.94,9.14,2.53,-0.27,0.24,-0.07,z
3181.0,3127.0,3084.0,2757.0,4095.0,3510.0,2672.0,2989.0,0.79,9.62,1.61,-0.01,-0.02,0.03,z
3186.0,3120.0,3059.0,2751.0,4095.0,3523.0,2677.0,2997.0,0.68,9.48,1.32,-0.02,0.05,-0.03,z
3184.0,3115.0,3067.0,2743.0,4095.0,3523.0,2671.0,2997.0,0.62,9.47,1.22,-0.1,-0.01,0.02,z
3197.0,3117.0,3065.0,2757.0,4095.0,3497.0,2674.0,2993.0,2.99,10.18,5.82,-0.39,-0.31,0.2,z
3226.0,3162.0,3093.0,2767.0,4095.0,3872.0,2734.0,3040.0,11.82,9.05,15.0,0.69,-1.12,-0.73,z
3203.0,3171.0,3119.0,2794.0,4095.0,3987.0,2737.0,3069.0,2.59,6.51,0.42,1.68,-2.06,-2.17,z
3198.0,3179.0,3113.0,2817.0,4095.0,3963.0,2723.0,3067.0,-8.74,5.67,-7.07,0.93,0.22,-2.46,z
3155.0,3136.0,3053.0,2737.0,4095.0,3809.0,2669.0,2993.0,-14.64,5.2,-12.77,0.15,0.23,-0.51,z
3127.0,3116.0,3035.0,2736.0,4095.0,3850.0,2607.0,2963.0,-10.31,5.49,-11.53,-0.87,1.02,0.98,z
3171.0,3146.0,3088.0,2832.0,4095.0,3696.0,2635.0,3034.0,-3.67,0.99,-0.78,-1.72,1.83,0.75,z
3173.0,3154.0,3095.0,2870.0,4095.0,3568.0,2651.0,3037.0,-1.83,7.85,7.54,-1.86,1.79,1.07,z
3194.0,3165.0,3100.0,2768.0,4095.0,3833.0,2720.0,3025.0,8.52,14.86,16.98,-1.41,1.42,0.67,z
3260.0,3126.0,3063.0,2802.0,4095.0,3871.0,2734.0,2992.0,10.32,15.31,18.13,0.39,-0.33,-0.34,z
3267.0,3128.0,3045.0,2783.0,4095.0,3874.0,2730.0,2975.0,6.66,9.58,6.46,0.71,-1.85,-0.95,z
3229.0,3155.0,3099.0,2807.0,4095.0,3861.0,2766.0,3008.0,2.53,5.97,3.28,-0.75,-2.27,-1.92,z
3259.0,3137.0,3054.0,2817.0,4095.0,3664.0,2735.0,2939.0,-10.37,6.44,-2.42,1.76,0.05,-2.45,z
3228.0,3141.0,3051.0,2846.0,4095.0,3600.0,2731.0,2942.0,-13.97,9.0,-4.05,-0.18,-0.54,-0.98,z
3200.0,3125.0,3034.0,2803.0,4095.0,3583.0,2719.0,2939.0,-5.71,10.06,-1.65,-0.18,-0.24,-0.14,z
3226.0,3131.0,3047.0,2830.0,4095.0,3583.0,2720.0,2935.0,-3.39,9.79,0.61,-0.28,0.29,0.21,z
3222.0,3129.0,3047.0,2831.0,4095.0,3578.0,2719.0,2939.0,-3.11,8.83,2.65,0.14,0.22,0.04,z
3258.0,3151.0,3090.0,2766.0,4095.0,3557.0,2672.0,2975.0,-0.04,9.39,1.21,-0.04,0.02,-0.07,z
3255.0,3158.0,3088.0,2768.0,4095.0,3564.0,2666.0,2972.0,-0.04,9.48,1.18,-0.08,0.01,-0.02,z
3253.0,3156.0,3101.0,2768.0,4095.0,3567.0,2660.0,2982.0,0.39,9.48,1.78,-0.07,0.02,-0.0,z
3269.0,3171.0,3104.0,2779.0,4095.0,3566.0,2683.0,2997.0,4.57,9.02,6.41,0.09,-0.55,0.02,z
3262.0,3152.0,3083.0,2772.0,4095.0,3541.0,2671.0,2976.0,11.12,6.68,10.12,1.42,-0.3,-1.61,z
3298.0,3197.0,3123.0,2816.0,4095.0,3579.0,2714.0,3003.0,4.36,4.42,1.85,2.69,-1.01,-3.45,z
3302.0,3189.0,3134.0,2820.0,4095.0,3582.0,2715.0,2997.0,-8.58,5.47,-9.34,2.28,0.92,-4.67,z
3235.0,3159.0,3102.0,2771.0,4095.0,3550.0,2672.0,2943.0,-24.89,3.13,-17.32,0.12,0.13,-1.47,z
3283.0,3191.0,3127.0,2837.0,4095.0,4095.0,2701.0,2978.0,-16.85,4.38,-15.06,-2.49,0.44,2.76,z
3295.0,3203.0,3152.0,2832.0,4095.0,4079.0,2705.0,3024.0,-10.7,0.63,-7.76,-6.43,0.08,3.75,z
3229.0,3153.0,3091.0,2797.0,4095.0,3779.0,2656.0,3001.0,3.3,-2.55,11.03,-5.3,-1.45,4.64,z
3239.0,3208.0,3136.0,2891.0,4095.0,3627.0,2720.0,3061.0,16.98,0.74,24.11,-2.55,0.25,2.98,z
3195.0,3152.0,3083.0,2827.0,4095.0,3568.0,2672.0,3012.0,13.2,5.9,14.6,1.03,0.13,0.01,z
3205.0,3163.0,3106.0,2759.0,4095.0,3569.0,2700.0,2998.0,11.01,3.51,13.53,2.96,-0.91,-2.82,z
3199.0,3152.0,3097.0,2805.0,4095.0,3566.0,2693.0,2946.0,2.7,0.98,4.72,4.02,-0.96,-4.74,z
3219.0,3169.0,3107.0,2733.0,4095.0,3525.0,2653.0,2947.0,-15.95,4.13,-11.96,4.55,2.24,-3.93,z
3203.0,3143.0,3100.0,2713.0,4095.0,3519.0,2611.0,2915.0,-11.58,10.14,-13.57,0.21,-1.81,0.28,z
3223.0,3184.0,3134.0,2766.0,4095.0,3574.0,2661.0,2969.0,-3.27,10.11,0.47,-0.73,-0.23,0.54,z
3246.0,3211.0,3153.0,2785.0,4095.0,3613.0,2690.0,3005.0,-1.46,9.5,1.47,-0.07,0.08,0.32,z
3247.0,3200.0,3151.0,2783.0,4095.0,3615.0,2684.0,3008.0,-2.82,9.18,-0.07,-0.02,0.22,-0.03,z
3219.0,3171.0,3111.0,2741.0,4095.0,3583.0,2695.0,3023.0,0.43,9.77,1.03,-0.17,0.03,-0.05,z
3232.0,3184.0,3126.0,2746.0,4095.0,3599.0,2697.0,3024.0,0.14,9.51,0.98,-0.14,0.12,-0.03,z
3226.0,3184.0,3121.0,2768.0,4095.0,3583.0,2699.0,3037.0,1.06,9.77,1.88,-0.26,-0.13,0.2,z
3264.0,3211.0,3152.0,2789.0,4095.0,3630.0,2741.0,3088.0,7.21,10.35,6.59,0.16,-0.8,0.15,z
3223.0,3165.0,3122.0,2803.0,4095.0,3598.0,2699.0,3024.0,7.74,8.25,4.66,1.26,-0.58,-1.63,z
3218.0,3172.0,3120.0,2779.0,4095.0,3578.0,2688.0,2997.0,-5.66,5.57,-5.32,0.97,-0.91,-2.46,z
3219.0,3168.0,3109.0,2746.0,4095.0,3575.0,2681.0,2992.0,-11.5,5.27,-9.18,-1.68,-0.53,-0.91,z
3259.0,3203.0,3147.0,2805.0,4095.0,3621.0,2715.0,3039.0,-9.15,3.32,-5.8,-0.96,0.64,0.53,z
3216.0,3181.0,3120.0,2748.0,4095.0,3597.0,2690.0,3024.0,-1.95,7.26,2.24,-2.58,0.95,0.92,z
3056.0,3056.0,3005.0,2593.0,4095.0,3492.0,2559.0,2907.0,6.97,10.94,16.19,-1.29,0.26,0.44,z
3242.0,3209.0,3166.0,2830.0,4095.0,3651.0,2728.0,3042.0,6.21,11.78,14.34,0.06,-0.26,-0.86,z
3185.0,3152.0,3100.0,2698.0,4095.0,3598.0,2682.0,2958.0,-2.76,8.02,-0.31,1.16,-0.79,-1.31,z
3143.0,3105.0,3054.0,2658.0,4095.0,3541.0,2634.0,2903.0,-5.94,8.3,-2.53,0.33,-0.39,-1.26,z
3120.0,3067.0,3031.0,2652.0,4095.0,3515.0,2619.0,2893.0,-8.4,9.51,-2.61,0.23,0.29,-0.49,z
3117.0,3068.0,3023.0,2660.0,4095.0,3503.0,2624.0,2880.0,-3.14,9.72,1.87,-0.92,-0.04,0.54,z
3115.0,3063.0,3019.0,2658.0,4095.0,3521.0,2615.0,2887.0,-0.6,9.71,4.65,-0.24,0.2,0.01,z
3111.0,3071.0,3002.0,2649.0,4095.0,3509.0,2615.0,2885.0,-2.91,9.14,2.83,-0.05,0.09,0.03,z
3118.0,3082.0,3025.0,2655.0,4095.0,3508.0,2624.0,2898.0,-2.12,8.75,2.64,-0.07,-0.1,-0.05,z
3104.0,3071.0,3012.0,2647.0,4095.0,3506.0,2618.0,2898.0,-2.27,8.64,2.33,-0.07,-0.07,-0.09,z
3115.0,3084.0,3020.0,2656.0,4095.0,3514.0,2622.0,2903.0,-2.82,8.77,2.49,-0.11,-0.0,-0.07,z
3090.0,3069.0,3026.0,2709.0,4095.0,3516.0,2549.0,2931.0,-0.2,9.25,1.73,-0.15,-0.01,-0.03,z
3091.0,3071.0,3015.0,2690.0,4095.0,3504.0,2559.0,2930.0,-0.0,9.34,2.16,0.02,0.01,0.03,z
3102.0,3081.0,3020.0,2693.0,4095.0,3504.0,2554.0,2929.0,-0.08,9.39,2.02,-0.06,-0.02,-0.05,z
3094.0,3082.0,3020.0,2697.0,4095.0,3504.0,2558.0,2928.0,0.31,9.39,2.49,0.06,-0.1,0.03,z
3099.0,3071.0,3008.0,2720.0,4095.0,3498.0,2559.0,2928.0,2.44,9.5,5.21,0.1,-0.3,-0.07,z
3094.0,3069.0,3019.0,2685.0,4095.0,3504.0,2559.0,2928.0,3.2,8.49,4.77,0.48,-0.88,-0.5,z
3100.0,3071.0,3015.0,2703.0,4095.0,3505.0,2559.0,2927.0,-0.28,8.34,0.33,0.49,-0.41,-1.05,z
3103.0,3087.0,3006.0,2768.0,4095.0,3523.0,2579.0,2911.0,-4.85,8.44,-3.91,0.12,-0.7,-0.63,z
3097.0,3071.0,3018.0,2875.0,4095.0,3518.0,2559.0,2925.0,-6.99,7.36,-4.24,-0.29,0.25,-0.29,z
3102.0,3084.0,3019.0,2709.0,4095.0,3505.0,2559.0,2928.0,-5.73,6.38,-2.53,-1.0,0.86,0.55,z
3102.0,3085.0,3024.0,2826.0,4095.0,3517.0,2559.0,2927.0,-0.08,7.88,5.24,-1.27,0.52,0.64,z
3097.0,3087.0,3009.0,2736.0,4095.0,3518.0,2559.0,2923.0,2.94,10.93,8.03,-0.53,0.55,0.09,z
3103.0,3071.0,3023.0,2686.0,4095.0,3504.0,2559.0,2928.0,3.7,11.95,8.69,-0.02,-0.04,-0.13,z
3105.0,3056.0,3011.0,2768.0,4095.0,3505.0,2559.0,2919.0,4.07,10.54,7.08,0.74,-0.59,-0.73,z
3103.0,3086.0,3017.0,2720.0,4095.0,3508.0,2559.0,2902.0,-0.47,8.43,0.92,0.86,-1.05,-1.08,z
3098.0,3071.0,3018.0,2669.0,4095.0,3509.0,2559.0,2882.0,-4.89,8.27,-0.63,0.53,-0.74,-1.1,z
3102.0,3071.0,3013.0,2755.0,4095.0,3513.0,2559.0,2886.0,-5.52,9.16,-0.84,0.21,-0.36,-0.54,z
3098.0,3056.0,3010.0,2682.0,4095.0,3514.0,2559.0,2874.0,-3.77,9.5,0.37,0.02,0.11,-0.13,z
3095.0,3087.0,3014.0,2674.0,4095.0,3507.0,2559.0,2871.0,-2.98,9.51,1.03,-0.16,0.16,0.03,z
3103.0,3086.0,3014.0,2659.0,4095.0,3504.0,2559.0,2887.0,-2.5,9.25,2.06,-0.03,0.09,0.09,z
3122.0,3065.0,3009.0,2690.0,4095.0,3517.0,2587.0,2919.0,-0.2,9.43,1.61,0.0,0.04,-0.0,z
3120.0,3069.0,3015.0,2686.0,4095.0,3504.0,2592.0,2919.0,-0.29,9.48,1.4,-0.04,-0.01,-0.02,z
3121.0,3071.0,3023.0,2691.0,4095.0,3503.0,2589.0,2922.0,-0.37,9.47,1.69,-0.07,0.03,-0.02,z
3124.0,3071.0,3008.0,2685.0,4095.0,3497.0,2590.0,2923.0,-0.4,9.48,1.71,-0.04,-0.03,0.02,z
3107.0,3071.0,3016.0,2691.0,4095.0,3493.0,2598.0,2927.0,0.16,9.38,2.1,-0.07,-0.07,0.02,z
3117.0,3070.0,3017.0,2693.0,4095.0,3503.0,2581.0,2927.0,1.47,9.46,5.37,-0.12,-0.45,0.02,z
3127.0,3071.0,3011.0,2705.0,4095.0,3499.0,2594.0,2927.0,3.01,9.31,6.02,0.41,-0.9,-0.31,z
3125.0,3071.0,3017.0,2690.0,4095.0,3504.0,2597.0,2930.0,0.89,8.1,1.23,0.61,-0.79,-0.83,z
3126.0,3069.0,3019.0,2687.0,4095.0,3500.0,2592.0,2893.0,-5.08,7.57,-3.25,0.4,-0.22,-0.89,z
3130.0,3071.0,3022.0,2751.0,4095.0,3497.0,2593.0,2887.0,-6.22,6.14,-5.32,0.1,-0.02,-0.25,z
3129.0,3081.0,3025.0,2757.0,4095.0,3510.0,2598.0,2903.0,-4.01,5.96,-3.7,-0.89,0.57,0.1,z
3111.0,3084.0,3024.0,2774.0,4095.0,3507.0,2597.0,2918.0,-2.85,8.84,1.61,-1.37,0.72,0.21,z
3110.0,3085.0,3024.0,2683.0,4095.0,3516.0,2595.0,2927.0,2.24,11.73,8.38,-0.91,0.43,0.33,z
3126.0,3093.0,3036.0,2688.0,4095.0,3524.0,2608.0,2934.0,3.85,12.19,8.74,-0.13,0.09,-0.15,z
3114.0,3091.0,3029.0,2700.0,4095.0,3520.0,2612.0,2919.0,2.74,9.96,6.7,0.25,-0.6,-0.68,z
3114.0,3103.0,3037.0,2688.0,4095.0,3525.0,2605.0,2915.0,1.79,8.3,3.44,0.61,-0.8,-1.04,z
3136.0,3086.0,3031.0,2675.0,4095.0,3523.0,2608.0,2899.0,-4.92,8.7,-0.38,0.82,-0.4,-1.67,z
3136.0,3088.0,3027.0,2698.0,4095.0,3527.0,2608.0,2899.0,-6.41,9.08,-1.69,0.42,-0.45,-0.6,z
3136.0,3100.0,3024.0,2688.0,4095.0,3526.0,2608.0,2909.0,-3.78,9.39,0.21,0.07,-0.08,-0.29,z
3131.0,3088.0,3035.0,2684.0,4095.0,3515.0,2605.0,2913.0,-4.57,9.43,0.18,-0.05,0.18,-0.1,z
3120.0,3088.0,3026.0,2701.0,4095.0,3521.0,2624.0,2943.0,-0.39,9.44,1.78,-0.05,-0.01,0.02,z
3114.0,3091.0,3035.0,2688.0,4095.0,3520.0,2626.0,2944.0,-0.22,9.48,1.71,-0.0,0.02,-0.0,z
3113.0,3088.0,3025.0,2690.0,4095.0,3524.0,2627.0,2945.0,-0.17,9.41,1.59,-0.03,0.01,0.01,z
3117.0,3099.0,3024.0,2690.0,4095.0,3522.0,2624.0,2950.0,0.12,9.52,2.01,-0.04,-0.05,-0.01,z
3120.0,3099.0,3026.0,2681.0,4095.0,3530.0,2624.0,2953.0,1.41,9.89,3.68,-0.03,-0.21,0.03,z
3136.0,3093.0,3033.0,2688.0,4095.0,3529.0,2620.0,2948.0,5.11,10.09,6.59,0.06,-0.74,-0.02,z
3134.0,3097.0,3031.0,2721.0,4095.0,3535.0,2621.0,2956.0,5.16,8.84,5.25,0.65,-0.8,-0.96,z
3123.0,3099.0,3027.0,2725.0,4095.0,3530.0,2617.0,2930.0,-4.03,7.37,-2.91,0.55,-0.69,-1.45,z
3117.0,3088.0,3033.0,2691.0,4095.0,3509.0,2622.0,2926.0,-9.16,6.22,-4.07,0.07,-0.01,-0.78,z
3122.0,3101.0,3029.0,2707.0,4095.0,3522.0,2626.0,2940.0,-10.68,3.75,-7.97,-0.2,0.11,0.11,z
3152.0,3136.0,3071.0,2734.0,4095.0,3571.0,2672.0,2987.0,-4.64,3.64,-4.34,-1.53,0.93,0.56,z
3155.0,3137.0,3071.0,2736.0,4095.0,3574.0,2670.0,2992.0,-2.35,6.94,2.04,-2.01,1.28,0.73,z
3181.0,3167.0,3114.0,2768.0,4095.0,3611.0,2688.0,3009.0,3.76,10.62,11.63,-2.03,1.34,0.33,z
3187.0,3120.0,3079.0,2863.0,4095.0,3568.0,2651.0,2969.0,5.3,13.71,17.68,-0.7,0.79,-0.07,z
3149.0,3111.0,3053.0,2867.0,4095.0,3565.0,2647.0,2893.0,3.17,10.03,10.69,1.31,-0.68,-1.02,z
3142.0,3106.0,3046.0,2706.0,4095.0,3555.0,2638.0,2916.0,2.99,6.23,5.26,1.25,-1.86,-1.12,z
3138.0,3095.0,3031.0,2743.0,4095.0,3549.0,2641.0,2907.0,-2.28,6.77,1.09,1.22,-1.13,-1.96,z
3133.0,3095.0,3047.0,2766.0,4095.0,3538.0,2640.0,2910.0,-10.56,8.54,-2.88,0.68,-1.15,-1.39,z
3126.0,3103.0,3038.0,2705.0,4095.0,3541.0,2627.0,2901.0,-8.67,8.99,0.85,0.34,-0.5,-0.42,z
3124.0,3099.0,3029.0,2775.0,4095.0,3536.0,2635.0,2898.0,-4.96,9.35,0.02,0.04,-0.08,0.04,z
3117.0,3083.0,3003.0,2690.0,4095.0,3511.0,2623.0,2919.0,0.57,9.22,1.65,0.04,0.03,0.02,z
3114.0,3090.0,3012.0,2693.0,4095.0,3527.0,2621.0,2917.0,0.27,9.38,1.24,0.04,-0.04,-0.0,z
3122.0,3088.0,3019.0,2688.0,4095.0,3526.0,2621.0,2928.0,0.54,9.26,1.62,-0.07,-0.05,-0.08,z
3118.0,3079.0,3007.0,2688.0,4095.0,3529.0,2624.0,2926.0,0.28,9.29,1.83,-0.05,-0.05,0.02,z
3111.0,3057.0,3013.0,2683.0,4095.0,3525.0,2624.0,2928.0,3.31,9.86,3.68,-0.14,-0.3,0.27,z
3107.0,3065.0,3006.0,2691.0,4095.0,3531.0,2622.0,2938.0,9.61,9.93,6.92,0.29,-0.79,-0.08,z
3110.0,3066.0,3011.0,2685.0,4095.0,3524.0,2625.0,2937.0,5.28,9.3,2.35,0.59,-0.62,-1.7,z
3111.0,3083.0,3006.0,2765.0,4095.0,3518.0,2619.0,2923.0,-7.61,7.18,-2.15,0.33,-0.37,-1.58,z
3111.0,3069.0,2999.0,2679.0,4095.0,3520.0,2619.0,2915.0,-10.45,6.59,-3.31,0.0,-0.4,-0.36,z
3115.0,3069.0,3009.0,2695.0,4095.0,3523.0,2617.0,2923.0,-9.82,5.22,-4.97,0.38,0.46,0.43,z
3148.0,3104.0,3050.0,2723.0,4095.0,3553.0,2658.0,2966.0,-6.89,3.53,-5.96,-0.24,1.74,0.47,z
3156.0,3121.0,3056.0,2766.0,4095.0,3573.0,2647.0,2945.0,-4.7,4.77,-0.64,-1.3,1.71,0.95,z
3154.0,3125.0,3071.0,2752.0,4095.0,3565.0,2642.0,2961.0,5.14,10.23,9.9,-2.41,0.71,1.38,z
3153.0,3125.0,3079.0,2807.0,4095.0,3577.0,2634.0,2945.0,10.42,14.15,9.66,-0.87,1.12,0.25,z
3156.0,3118.0,3047.0,2992.0,4095.0,3551.0,2628.0,2925.0,8.02,12.05,13.48,-0.93,0.21,-0.67,z
3167.0,3119.0,3071.0,2749.0,4095.0,3568.0,2620.0,2903.0,3.05,8.01,8.09,1.61,-1.46,-1.23,z
3164.0,3115.0,3054.0,2782.0,4095.0,3546.0,2623.0,2881.0,1.87,7.02,2.89,-0.09,-1.77,-1.37,z
3141.0,3094.0,3023.0,2768.0,4095.0,3535.0,2616.0,2866.0,-6.89,7.98,-0.14,0.95,-1.0,-1.88,z
3137.0,3089.0,3023.0,2779.0,4095.0,3534.0,2611.0,2864.0,-8.73,10.44,-2.37,0.29,-0.72,-0.95,z
3141.0,3105.0,3026.0,2761.0,4095.0,3537.0,2623.0,2869.0,-5.62,10.06,0.35,0.4,-0.17,-0.35,z
3136.0,3088.0,3020.0,2686.0,4095.0,3539.0,2583.0,2890.0,0.17,9.8,1.14,-0.04,-0.05,-0.0,z
3125.0,3086.0,3022.0,2697.0,4095.0,3536.0,2587.0,2886.0,0.24,9.43,1.05,-0.06,-0.06,0.13,z
3136.0,3085.0,3021.0,2686.0,4095.0,3536.0,2583.0,2896.0,0.84,9.3,1.52,-0.05,-0.24,0.09,z
3119.0,3088.0,3010.0,2688.0,4095.0,3536.0,2605.0,2896.0,2.33,9.27,2.98,-0.18,-0.52,0.17,z
3121.0,3082.0,3024.0,2683.0,4095.0,3564.0,2583.0,2902.0,7.12,9.13,5.33,0.31,-0.81,-0.28,z
3147.0,3091.0,3023.0,2751.0,4095.0,3565.0,2600.0,2910.0,5.98,8.25,2.74,0.72,-0.42,-1.45,z
3140.0,3108.0,3043.0,2709.0,4095.0,3553.0,2608.0,2881.0,-3.53,6.97,-3.44,1.12,0.14,-2.77,z
3130.0,3105.0,3043.0,2733.0,4095.0,3568.0,2609.0,2890.0,-13.52,5.9,-8.99,0.06,-0.35,-1.05,z
3143.0,3135.0,3059.0,2866.0,4095.0,3583.0,2633.0,2915.0,-9.94,4.17,-7.67,-1.22,0.13,0.52,z
3165.0,3147.0,3088.0,2754.0,4095.0,3617.0,2656.0,2943.0,-4.61,2.43,-2.41,-2.19,1.15,0.9,z
3196.0,3128.0,3071.0,2752.0,4095.0,3580.0,2643.0,2941.0,0.72,8.37,7.02,-2.49,1.23,1.12,z
3173.0,3134.0,3094.0,2763.0,4095.0,3632.0,2641.0,2950.0,7.29,14.43,15.59,-1.08,0.58,0.48,z
3219.0,3184.0,3128.0,2832.0,4095.0,3678.0,2705.0,3006.0,3.43,12.95,12.23,0.28,-0.31,-0.34,z
3245.0,3196.0,3139.0,2875.0,4095.0,3676.0,2711.0,2975.0,3.29,8.34,8.6,1.18,-1.13,-1.11,z
3213.0,3181.0,3120.0,2913.0,4095.0,3674.0,2704.0,2973.0,-3.31,7.01,0.02,1.54,-1.45,-1.67,z
3200.0,3163.0,3114.0,2788.0,4095.0,3664.0,2690.0,2973.0,-7.18,8.92,-4.47,0.54,-0.84,-1.21,z
3184.0,3161.0,3088.0,3007.0,4095.0,3647.0,2683.0,2966.0,-7.42,8.96,-2.07,0.21,-0.58,-0.26,z
3195.0,3159.0,3105.0,2882.0,4095.0,3653.0,2685.0,2989.0,-4.27,9.18,1.21,-0.07,0.38,0.01,z
3209.0,3175.0,3120.0,2828.0,4095.0,3687.0,2698.0,2985.0,-3.43,9.4,1.43,0.01,0.38,0.17,z
3206.0,3161.0,3106.0,2800.0,4095.0,3663.0,2698.0,2966.0,-3.39,9.15,2.34,0.05,0.39,0.24,z
3184.0,3120.0,3067.0,2755.0,4095.0,3630.0,2655.0,2937.0,0.33,9.64,1.07,-0.02,0.02,-0.01,z
3184.0,3120.0,3067.0,2755.0,4095.0,3630.0,2655.0,2937.0,0.33,9.64,1.07,-0.02,0.02,-0.01,z
3180.0,3121.0,3061.0,2759.0,4095.0,3623.0,2651.0,2955.0,0.24,9.54,0.94,-0.09,0.01,0.01,z
3170.0,3133.0,3070.0,2751.0,4095.0,3635.0,2656.0,2950.0,1.14,9.43,1.62,-0.14,-0.12,0.1,z
3187.0,3127.0,3056.0,2907.0,4095.0,3627.0,2661.0,2935.0,5.2,9.46,7.26,-0.36,-0.75,0.28,z
3195.0,3126.0,3061.0,2826.0,4095.0,3627.0,2658.0,2938.0,9.6,8.69,7.63,0.63,-1.09,-0.94,z
3170.0,3135.0,3083.0,2751.0,4095.0,3637.0,2661.0,2944.0,2.23,6.08,0.23,0.92,-1.14,-2.29,z
3174.0,3145.0,3085.0,2746.0,4095.0,3632.0,2672.0,2918.0,-11.16,6.53,-6.84,0.66,0.28,-2.6,z
3199.0,3149.0,3105.0,2785.0,4095.0,3650.0,2704.0,2918.0,-15.85,6.88,-10.13,0.03,0.07,-0.4,z
3167.0,3126.0,3057.0,2771.0,4095.0,3639.0,2653.0,2914.0,-8.82,4.15,-8.18,-1.44,0.58,1.15,z
3167.0,3127.0,3071.0,2763.0,4095.0,3631.0,2650.0,2947.0,-4.11,3.69,-1.07,-2.86,0.96,1.51,z
3164.0,3135.0,3067.0,2736.0,4095.0,3645.0,2684.0,2950.0,3.7,6.63,10.14,-3.62,0.21,2.08,z
3146.0,3138.0,3059.0,2768.0,4095.0,3583.0,2675.0,2935.0,15.46,9.39,21.62,-1.28,1.21,0.69,z
3280.0,3157.0,3116.0,2994.0,4095.0,3631.0,2705.0,2927.0,6.63,9.51,11.33,1.11,-0.3,-1.48,z
3267.0,3184.0,3127.0,2832.0,4095.0,3662.0,2739.0,2942.0,1.71,6.23,6.3,1.65,-0.62,-1.95,z
3248.0,3200.0,3142.0,2857.0,4095.0,3667.0,2747.0,2961.0,-7.43,9.14,-3.24,1.69,-0.57,-2.47,z
3245.0,3202.0,3133.0,2838.0,4095.0,3657.0,2750.0,2972.0,-9.89,9.57,-3.29,0.49,-0.74,-0.96,z
3247.0,3200.0,3148.0,2817.0,4095.0,3684.0,2750.0,2986.0,-5.84,8.94,1.22,0.21,0.21,-0.41,z
3242.0,3205.0,3136.0,2845.0,4095.0,3663.0,2755.0,2958.0,-5.11,8.99,0.32,0.02,0.01,0.0,z
3237.0,3185.0,3138.0,2850.0,4095.0,3669.0,2745.0,2993.0,-2.77,9.0,2.77,-0.23,-0.06,0.18,z
3167.0,3104.0,3035.0,2765.0,4095.0,3549.0,2649.0,2944.0,0.29,9.29,1.87,0.0,0.04,-0.03,z
3166.0,3120.0,3043.0,2768.0,4095.0,3569.0,2659.0,2941.0,-0.05,9.29,1.65,-0.07,-0.01,0.03,z
3167.0,3114.0,3046.0,2771.0,4095.0,3577.0,2651.0,2946.0,0.4,8.96,2.05,-0.13,0.02,0.07,z
3159.0,3104.0,3046.0,2759.0,4095.0,3566.0,2652.0,2930.0,2.14,8.49,4.31,-0.26,-0.24,0.1,z
3165.0,3118.0,3046.0,2777.0,4095.0,3598.0,2662.0,2938.0,7.35,8.8,9.91,-0.07,-0.96,-0.22,z
3166.0,3105.0,3055.0,2782.0,4095.0,3570.0,2659.0,2966.0,6.13,7.48,7.16,1.01,-1.06,-1.52,z
3171.0,3107.0,3056.0,2774.0,4095.0,3572.0,2651.0,2931.0,-0.66,6.45,-1.94,1.1,-0.29,-2.11,z
3165.0,3109.0,3042.0,2743.0,4095.0,3538.0,2649.0,2919.0,-12.53,6.43,-9.22,0.65,0.23,-1.97,z
3152.0,3134.0,3087.0,2735.0,4095.0,3569.0,2669.0,2954.0,-13.63,5.98,-10.93,-0.58,0.2,-0.04,z
3129.0,3130.0,3054.0,2706.0,4095.0,3555.0,2665.0,2958.0,-8.0,2.88,-6.62,-2.03,0.75,0.96,z
3129.0,3129.0,3081.0,2743.0,4095.0,3558.0,2675.0,2990.0,-4.18,4.2,4.22,-3.55,0.79,1.45,z
3117.0,3117.0,3056.0,2689.0,4095.0,3568.0,2643.0,2980.0,8.38,8.61,18.14,-2.26,0.17,1.69,z
3171.0,3142.0,3063.0,2747.0,4095.0,3583.0,2667.0,2987.0,10.39,11.15,18.68,-0.15,0.56,-0.05,z
3194.0,3157.0,3102.0,2816.0,4095.0,3632.0,2710.0,2995.0,5.92,8.11,11.27,1.23,-0.87,-1.47,z
3172.0,3123.0,3081.0,2810.0,4095.0,3612.0,2667.0,2938.0,1.5,6.04,4.85,1.56,-1.33,-2.11,z
3174.0,3121.0,3060.0,2779.0,4095.0,3583.0,2669.0,2927.0,-7.52,7.57,-1.13,1.63,-0.87,-2.38,z
3155.0,3108.0,3049.0,2749.0,4095.0,3568.0,2647.0,2909.0,-8.46,8.45,-1.86,1.11,-0.54,-1.27,z
3163.0,3121.0,3047.0,2736.0,4095.0,3567.0,2659.0,2911.0,-7.41,9.11,-1.41,0.58,0.34,-0.26,z
3153.0,3107.0,3035.0,2737.0,4095.0,3553.0,2655.0,2897.0,-5.0,9.33,0.63,0.01,0.31,-0.04,z
3145.0,3110.0,3036.0,2759.0,4095.0,3565.0,2650.0,2929.0,-3.52,9.22,2.22,-0.06,0.06,0.21,z
3142.0,3095.0,3025.0,2704.0,4095.0,3605.0,2638.0,2938.0,0.0,9.36,1.44,-0.07,0.02,-0.04,z
3136.0,3093.0,3028.0,2715.0,4095.0,3616.0,2640.0,2929.0,0.21,9.52,1.8,-0.03,0.05,-0.03,z
3133.0,3102.0,3038.0,2706.0,4095.0,3619.0,2640.0,2946.0,0.0,9.52,1.35,-0.06,0.04,-0.02,z
3132.0,3093.0,3031.0,2714.0,4095.0,3607.0,2630.0,2942.0,0.37,9.4,1.9,-0.11,-0.1,0.06,z
3144.0,3103.0,3042.0,2727.0,4095.0,3630.0,2647.0,2955.0,3.32,9.23,6.12,-0.51,-0.7,0.33,z
3147.0,3092.0,3028.0,2737.0,4095.0,3632.0,2649.0,2950.0,11.84,8.24,11.65,0.4,-1.23,-0.64,z
3146.0,3106.0,3036.0,2791.0,4095.0,3632.0,2641.0,2950.0,1.27,6.62,0.08,0.87,-1.22,-2.63,z
3115.0,3088.0,3051.0,2786.0,4095.0,3583.0,2639.0,2911.0,-14.27,6.62,-8.81,0.37,0.1,-1.68,z
3169.0,3181.0,3120.0,2752.0,4095.0,3718.0,2717.0,3006.0,-13.04,5.33,-7.55,-0.28,-0.2,0.06,z
3082.0,3094.0,3027.0,2672.0,4095.0,3618.0,2634.0,2939.0,-5.84,3.28,-6.14,-1.04,1.11,0.85,z
3086.0,3088.0,3028.0,2704.0,4095.0,3627.0,2623.0,2949.0,-2.27,6.06,1.89,-2.26,1.1,0.66,z
3070.0,3088.0,3021.0,2679.0,4095.0,3615.0,2624.0,2945.0,7.41,11.63,18.4,-1.89,-0.12,1.05,z
3154.0,3149.0,3093.0,2796.0,4095.0,3683.0,2687.0,2992.0,9.72,12.66,15.87,0.4,0.69,-0.94,z
3223.0,3221.0,3153.0,3008.0,4095.0,3770.0,2751.0,3044.0,0.26,8.13,4.79,0.83,-0.82,-1.25,z
3189.0,3162.0,3118.0,2775.0,4095.0,3712.0,2704.0,3006.0,-0.16,8.5,-0.02,0.7,-1.32,-1.72,z
3151.0,3142.0,3090.0,2747.0,4095.0,3680.0,2677.0,2981.0,-8.15,8.33,-0.02,0.79,-0.26,-1.81,z
3159.0,3139.0,3071.0,2801.0,4095.0,3661.0,2706.0,2964.0,-9.01,9.14,-2.29,0.34,-0.22,-0.5,z
3154.0,3136.0,3071.0,2750.0,4095.0,3690.0,2676.0,2964.0,-4.43,9.15,0.76,-0.12,0.21,-0.12,z
3146.0,3133.0,3071.0,2752.0,4095.0,3669.0,2686.0,2960.0,-4.01,8.75,2.17,-0.19,0.27,0.12,z
3148.0,3138.0,3068.0,2743.0,4095.0,3660.0,2686.0,2960.0,-3.39,8.8,3.29,-0.1,0.2,0.14,z
3117.0,3095.0,3035.0,2719.0,4095.0,3616.0,2640.0,2946.0,0.5,9.14,2.44,-0.01,0.02,0.02,z
3116.0,3097.0,3029.0,2723.0,4095.0,3620.0,2649.0,2947.0,0.39,9.22,2.13,-0.07,0.04,-0.0,z
3107.0,3090.0,3041.0,2717.0,4095.0,3632.0,2653.0,2955.0,0.59,9.26,2.33,-0.08,-0.01,0.01,z
3117.0,3095.0,3041.0,2718.0,4095.0,3647.0,2653.0,2947.0,2.68,9.22,5.15,-0.08,-0.32,0.0,z
3125.0,3121.0,3042.0,2727.0,4095.0,3635.0,2666.0,2960.0,6.82,8.12,9.38,0.33,-1.01,-0.51,z
3123.0,3110.0,3056.0,2725.0,4095.0,3646.0,2673.0,2960.0,6.57,7.08,6.37,1.0,-1.75,-1.59,z
3122.0,3106.0,3053.0,2809.0,4095.0,3625.0,2657.0,2953.0,-2.09,6.99,0.44,0.87,-0.56,-2.36,z
3102.0,3111.0,3050.0,2688.0,4095.0,3607.0,2647.0,2928.0,-14.75,7.28,-7.3,0.74,-0.76,-1.39,z
3119.0,3126.0,3071.0,2721.0,4095.0,3639.0,2667.0,2961.0,-10.3,6.5,-8.24,-0.24,-0.24,0.15,z
3111.0,3115.0,3066.0,2704.0,4095.0,3619.0,2663.0,2964.0,-4.28,3.36,-7.83,-1.42,0.79,0.75,z
3089.0,3091.0,3030.0,2719.0,4095.0,3568.0,2637.0,2942.0,-3.69,2.44,-1.37,-2.83,1.58,0.66,z
3071.0,3088.0,3027.0,2657.0,4095.0,3577.0,2624.0,2910.0,-2.03,6.96,7.01,-3.24,1.82,1.11,z
3071.0,3082.0,3009.0,2640.0,4095.0,3583.0,2631.0,2912.0,5.35,9.23,19.02,-2.21,1.2,0.44,z
3100.0,3104.0,3050.0,2663.0,4095.0,3627.0,2666.0,2929.0,5.54,11.0,18.72,0.04,0.67,-0.84,z
3122.0,3124.0,3071.0,2693.0,4095.0,3648.0,2694.0,2958.0,0.55,4.76,13.55,1.18,-1.19,-1.64,z
3104.0,3115.0,3055.0,2762.0,4095.0,3643.0,2672.0,2963.0,-1.65,5.61,3.36,1.73,-2.26,-2.16,z
3120.0,3120.0,3066.0,2673.0,4095.0,3642.0,2673.0,2960.0,-7.42,6.92,0.16,1.65,-1.88,-2.95,z
3103.0,3120.0,3046.0,2721.0,4095.0,3662.0,2670.0,2923.0,-12.25,9.16,-1.72,0.85,-0.75,-1.29,z
3071.0,3098.0,3025.0,2705.0,4095.0,3625.0,2643.0,2901.0,-7.58,8.66,1.21,-0.0,0.11,-0.04,z
3065.0,3095.0,3031.0,2613.0,4095.0,3632.0,2640.0,2898.0,-4.18,8.88,2.79,-0.01,0.49,0.04,z
3067.0,3082.0,3019.0,2598.0,4095.0,3632.0,2608.0,2928.0,0.98,9.56,0.93,-0.04,0.07,-0.01,z
3062.0,3066.0,3014.0,2592.0,4095.0,3625.0,2620.0,2923.0,0.86,9.32,1.21,-0.01,-0.01,0.04,z
3062.0,3086.0,3012.0,2611.0,4095.0,3633.0,2610.0,2929.0,0.95,9.47,0.87,-0.07,0.02,0.01,z
3059.0,3069.0,3007.0,2608.0,4095.0,3633.0,2615.0,2916.0,1.57,9.28,1.59,-0.05,-0.13,0.02,z
3056.0,3086.0,3009.0,2608.0,4095.0,3641.0,2607.0,2916.0,5.14,9.79,5.52,-0.14,-0.67,0.15,z
3056.0,3068.0,3003.0,2610.0,4095.0,3638.0,2610.0,2925.0,9.75,9.09,7.17,0.39,-1.34,-0.68,z
3051.0,3062.0,2999.0,2608.0,4095.0,3625.0,2613.0,2923.0,2.94,7.67,0.67,0.47,-1.4,-1.86,z
3056.0,3055.0,2998.0,2817.0,4095.0,3610.0,2598.0,2882.0,-9.21,7.13,-6.48,0.36,0.28,-1.77,z
3104.0,3109.0,3056.0,2737.0,4095.0,3657.0,2654.0,2928.0,-14.44,4.65,-7.54,-0.19,-0.2,-0.63,z
3120.0,3137.0,3081.0,2944.0,4095.0,3682.0,2661.0,2960.0,-7.49,2.83,-6.31,-0.85,1.16,0.62,z
3120.0,3128.0,3083.0,2739.0,4095.0,3685.0,2670.0,2970.0,-1.59,4.87,-0.96,-1.65,1.57,0.34,z
3110.0,3136.0,3087.0,2662.0,4095.0,3638.0,2663.0,2951.0,1.71,11.11,7.69,-1.99,1.21,0.23,z
3124.0,3150.0,3090.0,2685.0,4095.0,3693.0,2687.0,2983.0,6.81,14.84,14.95,-1.27,0.83,0.25,z
3155.0,3149.0,3085.0,2688.0,4095.0,3684.0,2681.0,2953.0,5.09,12.83,14.14,0.17,-0.15,-0.75,z
3157.0,3151.0,3095.0,2707.0,4095.0,3686.0,2718.0,2966.0,0.37,7.02,7.34,1.23,-1.34,-1.35,z
3131.0,3135.0,3063.0,2757.0,4095.0,3661.0,2686.0,2951.0,-1.07,7.31,0.75,1.04,-1.87,-1.48,z
3120.0,3121.0,3056.0,2672.0,4095.0,3646.0,2674.0,2931.0,-8.79,7.58,-1.71,1.26,-0.61,-2.01,z
3118.0,3126.0,3053.0,2704.0,4095.0,3634.0,2661.0,2917.0,-9.99,8.94,-4.28,0.23,-0.29,-0.29,z
3118.0,3120.0,3053.0,2704.0,4095.0,3633.0,2662.0,2920.0,-4.76,8.99,-0.04,-0.07,0.02,0.09,z
3116.0,3113.0,3055.0,2704.0,4095.0,3645.0,2653.0,2928.0,-3.41,9.11,0.6,-0.31,0.36,0.27,z
3116.0,3031.0,3058.0,2773.0,4095.0,3458.0,2442.0,2922.0,-0.15,9.43,1.82,-0.03,-0.0,0.02,z
3114.0,3024.0,3069.0,2768.0,4095.0,3458.0,2460.0,2929.0,-0.43,9.44,1.53,-0.04,0.05,-0.03,z
3111.0,3024.0,3061.0,2768.0,4095.0,3467.0,2434.0,2927.0,-0.57,9.47,1.56,-0.04,0.04,0.0,z
3120.0,3029.0,3058.0,2763.0,4095.0,3469.0,2446.0,2928.0,-0.6,9.35,1.73,-0.05,-0.02,0.05,z
3118.0,3024.0,3068.0,2756.0,4095.0,3466.0,2441.0,2927.0,1.33,9.75,3.35,-0.06,-0.19,0.15,z
3118.0,3027.0,3057.0,2710.0,4095.0,3470.0,2441.0,2919.0,7.72,10.84,9.14,0.47,-0.72,-0.28,z
3120.0,3025.0,3059.0,2701.0,4095.0,3479.0,2437.0,2922.0,5.04,8.74,4.9,0.83,-1.54,-1.11,z
3120.0,3030.0,3056.0,2703.0,4095.0,3462.0,2439.0,2918.0,-1.33,7.35,-1.51,0.23,-1.34,-1.48,z
3118.0,3040.0,3056.0,2735.0,4095.0,3475.0,2464.0,2922.0,-11.44,6.2,-4.87,0.17,-0.56,-1.49,z
3120.0,3045.0,3043.0,2810.0,4095.0,3493.0,2466.0,2944.0,-12.34,4.48,-8.2,-0.14,0.12,-0.09,z
3083.0,3024.0,3057.0,2785.0,4095.0,3475.0,2435.0,2899.0,-5.74,3.34,-4.53,-1.25,1.04,0.64,z
3107.0,3027.0,2993.0,2731.0,4095.0,3463.0,2435.0,2915.0,-3.39,5.04,1.87,-1.91,1.53,0.04,z
3102.0,3042.0,3066.0,2723.0,4095.0,3440.0,2448.0,2911.0,-1.91,9.45,7.42,-1.67,1.38,0.1,z
3094.0,3035.0,3043.0,2682.0,4095.0,3440.0,2480.0,2899.0,2.7,13.69,11.23,-1.36,0.78,0.59,z
3134.0,3090.0,3102.0,2656.0,4095.0,3486.0,2525.0,2943.0,5.17,12.75,15.5,-0.02,-0.2,-0.26,z
3123.0,3071.0,3057.0,2639.0,4095.0,3491.0,2525.0,2941.0,1.42,7.69,10.04,1.03,-1.27,-1.27,z
3121.0,3071.0,3098.0,2647.0,4095.0,3478.0,2508.0,2946.0,1.1,5.29,4.56,0.82,-1.86,-1.24,z
3130.0,3056.0,3090.0,2653.0,4095.0,3477.0,2517.0,2927.0,-9.05,9.15,-1.37,1.53,-0.59,-1.84,z
3172.0,3051.0,3006.0,2705.0,4095.0,3450.0,2495.0,2923.0,-10.88,8.42,-0.73,0.37,-1.05,-0.5,z
3166.0,3050.0,3062.0,2704.0,4095.0,3440.0,2495.0,2928.0,-6.56,8.56,-0.74,0.16,-0.29,0.0,z
3142.0,3041.0,3071.0,2722.0,4095.0,3765.0,2499.0,2958.0,-0.17,9.33,1.77,-0.09,0.02,-0.04,z
3136.0,3055.0,3071.0,2722.0,4095.0,3760.0,2501.0,2958.0,-0.59,9.55,1.7,-0.05,-0.02,-0.04,z
3145.0,3047.0,3071.0,2725.0,4095.0,3760.0,2496.0,2960.0,-1.16,9.52,2.01,-0.03,0.11,-0.01,z
3141.0,3049.0,3062.0,2718.0,4095.0,3755.0,2501.0,2965.0,-0.68,9.91,2.62,0.04,-0.11,0.21,z
3161.0,3056.0,3057.0,2791.0,4095.0,3797.0,2501.0,2961.0,6.01,11.16,7.48,0.15,-0.8,0.58,z
3172.0,3055.0,3057.0,2766.0,4095.0,3741.0,2499.0,2958.0,10.01,9.59,7.55,1.18,-0.61,-0.93,z
3182.0,3047.0,3071.0,2765.0,4095.0,3713.0,2487.0,2954.0,0.31,6.82,-1.35,1.02,-0.8,-1.66,z
3143.0,3054.0,3062.0,2742.0,4095.0,3769.0,2495.0,2935.0,-8.59,5.69,-6.35,0.04,-0.49,-1.76,z
3179.0,3046.0,3067.0,2779.0,4095.0,3725.0,2490.0,2923.0,-13.19,3.7,-3.75,-0.01,-0.26,-0.83,z
3167.0,3042.0,3071.0,2788.0,4095.0,3739.0,2492.0,2935.0,-11.35,2.34,-5.7,-0.2,-0.04,0.44,z
3194.0,3043.0,3069.0,2801.0,4095.0,3856.0,2481.0,2940.0,-5.91,3.09,-1.96,-1.0,0.28,1.17,z
3197.0,3052.0,3068.0,2778.0,4095.0,3511.0,2483.0,2947.0,1.03,9.45,4.26,-1.68,1.01,1.83,z
3169.0,3047.0,3083.0,2725.0,4095.0,3564.0,2483.0,2919.0,10.12,14.98,8.28,-1.44,1.0,0.94,z
3167.0,3050.0,3067.0,2704.0,4095.0,3408.0,2481.0,2922.0,7.89,14.15,11.82,-0.9,0.65,-0.36,z
3183.0,3051.0,3062.0,2721.0,4095.0,3421.0,2486.0,2934.0,5.65,8.9,10.11,0.73,-0.77,-1.6,z
3165.0,3057.0,3088.0,2692.0,4095.0,3429.0,2507.0,2924.0,3.95,6.28,3.91,0.83,-0.91,-1.94,z
3162.0,3056.0,3082.0,2679.0,4095.0,3424.0,2503.0,2918.0,-4.99,7.16,-1.53,1.62,-0.15,-2.21,z
3161.0,3060.0,3069.0,2854.0,4095.0,3424.0,2503.0,2919.0,-13.75,8.37,-2.92,0.53,-0.22,-1.27,z
3163.0,3070.0,3079.0,2861.0,4095.0,3434.0,2512.0,2923.0,-8.19,8.7,-0.53,-0.01,-0.38,-0.4,z
3157.0,3063.0,3067.0,2702.0,4095.0,3431.0,2508.0,2927.0,-3.79,8.9,0.99,-0.24,0.21,0.35,z
3184.0,3034.0,3024.0,2820.0,4095.0,3439.0,2436.0,2905.0,-0.03,9.05,0.8,-0.05,-0.14,0.27,z
3181.0,3027.0,3029.0,2835.0,4095.0,3446.0,2435.0,2909.0,0.26,9.45,0.75,-0.11,-0.0,0.15,z
3216.0,3031.0,3047.0,2814.0,4095.0,3443.0,2445.0,2909.0,0.59,9.51,1.23,-0.19,-0.23,0.09,z
3257.0,3027.0,3042.0,2863.0,4095.0,3446.0,2443.0,2914.0,3.01,9.72,3.4,-0.11,-0.46,0.12,z
3120.0,3088.0,3101.0,2750.0,4095.0,3494.0,2510.0,2977.0,7.12,9.18,6.3,0.28,-1.07,-0.28,z
3054.0,3039.0,3046.0,2702.0,4095.0,3470.0,2480.0,2928.0,6.66,8.88,3.77,0.93,-0.62,-0.85,z
3100.0,3041.0,3045.0,2723.0,4095.0,3422.0,2448.0,2918.0,-2.4,8.7,-2.0,0.64,-0.78,-1.63,z
3143.0,3049.0,3056.0,2783.0,4095.0,3447.0,2465.0,2907.0,-11.29,5.94,-3.78,0.56,-0.23,-2.03,z
3277.0,3181.0,3190.0,2881.0,4095.0,3568.0,2559.0,3011.0,-13.41,4.77,-6.62,0.56,0.34,-0.56,z
3216.0,3134.0,3145.0,2828.0,4095.0,3489.0,2557.0,2998.0,-5.84,2.58,-5.47,-0.54,1.11,0.34,z
3203.0,3135.0,3148.0,2785.0,4095.0,3792.0,2544.0,2960.0,-3.43,3.06,0.68,-1.14,1.01,-0.17,z
3175.0,3122.0,3049.0,2757.0,4095.0,3457.0,2538.0,2971.0,2.6,11.74,4.74,-3.2,0.13,0.62,z
3152.0,3120.0,2981.0,2840.0,4095.0,3523.0,2551.0,2992.0,5.9,16.78,8.42,-1.74,0.5,0.44,z
3194.0,3154.0,3163.0,2803.0,4095.0,3515.0,2602.0,3019.0,5.71,15.09,12.1,-1.03,-0.94,-0.21,z
3157.0,3120.0,3135.0,2765.0,4095.0,3498.0,2554.0,2992.0,0.65,9.73,9.93,0.76,-1.28,-0.57,z
3197.0,3153.0,3168.0,3174.0,4095.0,3518.0,2559.0,3017.0,-0.53,6.16,3.71,1.1,-1.93,-0.63,z
3237.0,3193.0,3194.0,2839.0,4095.0,3541.0,2614.0,3030.0,-5.56,6.29,-0.45,1.18,-1.4,-0.72,z
3238.0,3175.0,3200.0,2839.0,4095.0,3542.0,2630.0,3035.0,-7.92,9.92,-2.65,0.45,-0.94,-0.83,z
3238.0,3182.0,3194.0,2832.0,4095.0,3531.0,2624.0,3024.0,-6.04,9.6,-1.12,-0.02,-0.18,-0.15,z
3250.0,3185.0,3203.0,2850.0,4095.0,3557.0,2640.0,3040.0,-5.04,8.57,0.28,-0.18,0.06,0.08,z
3051.0,2951.0,2948.0,2637.0,4095.0,3407.0,2353.0,2814.0,0.62,10.18,0.99,-0.6,-0.66,-0.16,z
3141.0,3034.0,3034.0,2754.0,4095.0,3293.0,2410.0,2914.0,0.87,9.2,1.84,-0.49,-0.58,0.31,z
3061.0,2998.0,2993.0,2717.0,4095.0,3261.0,2331.0,2861.0,1.38,9.68,1.31,-0.05,-0.59,0.38,z
3119.0,3046.0,3040.0,2789.0,4095.0,3316.0,2404.0,2917.0,2.56,9.16,2.29,-0.18,-0.42,0.31,z
3223.0,3158.0,3147.0,2890.0,4095.0,3471.0,2513.0,3021.0,5.76,9.96,4.62,0.49,-0.28,0.34,z
3142.0,3015.0,3015.0,2801.0,4095.0,3346.0,2361.0,2870.0,7.22,9.27,4.68,0.57,-0.34,-0.27,z
3147.0,3008.0,3021.0,2799.0,4095.0,3332.0,2369.0,2891.0,3.11,7.98,1.79,0.95,-0.47,-0.71,z
3237.0,3152.0,3148.0,2896.0,4095.0,3450.0,2520.0,2995.0,-3.97,8.23,-4.49,0.53,-0.39,-1.09,z
3195.0,3120.0,3120.0,2865.0,4095.0,3425.0,2487.0,2961.0,-8.74,6.89,-5.02,0.19,-0.17,-1.28,z
3227.0,3143.0,3138.0,2884.0,4095.0,3450.0,2512.0,2986.0,-9.37,6.14,-6.1,0.11,1.01,-0.47,z
3219.0,3127.0,3137.0,2874.0,4095.0,3440.0,2508.0,2957.0,-7.28,2.9,-3.95,-0.95,1.78,-0.12,z
3196.0,3119.0,3120.0,2855.0,4095.0,3440.0,2495.0,2957.0,-0.52,5.09,2.77,-1.38,1.71,0.29,z
3233.0,3172.0,3167.0,2875.0,4095.0,3483.0,2547.0,3009.0,3.73,11.76,5.58,-1.23,1.34,-0.16,z
3200.0,3129.0,3136.0,2789.0,4095.0,3414.0,2512.0,2963.0,5.29,15.88,7.79,-1.23,0.26,0.14,z
3151.0,3133.0,3147.0,2726.0,4095.0,3435.0,2527.0,2983.0,9.62,16.1,14.22,-0.74,-0.82,-0.11,z
3150.0,3104.0,3123.0,2711.0,4095.0,3414.0,2499.0,2960.0,1.7,9.24,8.32,1.35,-1.53,-1.31,z
3207.0,3164.0,3162.0,2785.0,4095.0,3472.0,2589.0,3027.0,-3.72,7.83,0.88,0.94,-1.85,-1.04,z
3178.0,3125.0,3138.0,2768.0,4095.0,3415.0,2533.0,2975.0,-7.69,7.2,-1.19,1.17,-1.23,-1.64,z
3187.0,3121.0,3121.0,2766.0,4095.0,3411.0,2523.0,2975.0,-7.78,8.18,-3.21,0.28,-0.91,-0.5,z
3158.0,3090.0,3087.0,2730.0,4095.0,3380.0,2499.0,2947.0,-4.41,9.08,-2.19,-0.04,-0.27,-0.61,z
3174.0,3085.0,3094.0,2770.0,4095.0,3405.0,2509.0,2973.0,0.33,9.56,0.23,-0.06,0.05,0.03,z
3175.0,3088.0,3085.0,2774.0,4095.0,3397.0,2505.0,2975.0,0.17,9.59,0.12,-0.06,0.03,-0.01,z
3184.0,3082.0,3090.0,2784.0,4095.0,3398.0,2511.0,2967.0,0.22,9.65,0.07,-0.09,-0.04,0.06,z
3184.0,3088.0,3095.0,2773.0,4095.0,3411.0,2514.0,2971.0,2.43,10.37,1.72,-0.15,-0.21,0.19,z
3305.0,3084.0,3094.0,2871.0,4095.0,3414.0,2511.0,2973.0,6.94,10.23,5.1,0.31,-0.78,-0.13,z
3291.0,3087.0,3089.0,2891.0,4095.0,3408.0,2507.0,2971.0,4.77,9.33,1.53,0.43,-1.36,-1.06,z
3302.0,3090.0,3088.0,2889.0,4095.0,3413.0,2512.0,2971.0,-3.69,7.28,-2.49,-0.01,-0.92,-1.68,z
3255.0,3114.0,3108.0,2871.0,4095.0,3399.0,2519.0,2941.0,-11.63,5.09,-4.91,-0.16,-0.19,-0.92,z
3301.0,3153.0,3154.0,2923.0,4095.0,3434.0,2533.0,2973.0,-9.26,3.92,-5.52,-0.42,0.34,0.09,z
3143.0,2963.0,2975.0,2772.0,4095.0,3283.0,2375.0,2819.0,-4.53,4.12,-2.81,-1.12,1.67,0.58,z
3149.0,2956.0,2957.0,2742.0,4095.0,3280.0,2370.0,2816.0,-1.99,8.4,4.28,-1.85,1.36,0.66,z
3117.0,2959.0,2949.0,2710.0,4095.0,3283.0,2352.0,2839.0,5.29,13.85,10.31,-1.32,0.57,0.82,z
3070.0,2959.0,2962.0,2704.0,4095.0,3301.0,2352.0,2814.0,10.96,14.91,10.84,0.03,-0.09,0.33,z
3125.0,2958.0,2970.0,2657.0,4095.0,3303.0,2381.0,2819.0,3.94,8.97,7.58,0.72,-1.11,-1.58,z
3120.0,2960.0,2946.0,2657.0,4095.0,3297.0,2358.0,2805.0,-1.55,7.79,0.23,1.59,-1.52,-1.42,z
3125.0,2954.0,2962.0,2673.0,4095.0,3299.0,2351.0,2811.0,-4.88,9.14,-3.67,0.46,-1.16,-1.6,z
3121.0,2955.0,2960.0,2676.0,4095.0,3297.0,2372.0,2801.0,-8.93,8.8,-1.5,0.17,-0.26,-1.01,z
3129.0,2959.0,2958.0,2672.0,4095.0,3294.0,2373.0,2795.0,-8.13,9.29,-1.43,0.01,0.1,-0.27,z
3133.0,2958.0,2957.0,2655.0,4095.0,3297.0,2380.0,2801.0,-3.77,9.38,0.15,-0.53,0.1,0.34,z
3124.0,2943.0,2958.0,2655.0,4095.0,3303.0,2371.0,2801.0,-2.61,9.03,2.51,-0.27,0.54,0.18,z
3111.0,2954.0,2959.0,2745.0,4095.0,3283.0,2365.0,2861.0,0.41,9.39,1.41,-0.12,0.02,0.02,z
3099.0,2961.0,2962.0,2737.0,4095.0,3276.0,2357.0,2869.0,0.51,9.34,1.21,-0.0,-0.04,0.1,z
3110.0,2958.0,2963.0,2747.0,4095.0,3277.0,2363.0,2863.0,1.13,9.42,1.45,-0.1,-0.08,0.01,z
3119.0,2966.0,2971.0,2749.0,4095.0,3273.0,2352.0,2854.0,3.42,9.7,3.41,0.09,-0.23,0.14,z
3122.0,2965.0,2966.0,2782.0,4095.0,3280.0,2368.0,2852.0,6.31,9.05,4.27,0.53,-0.81,-0.34,z
3087.0,2971.0,2967.0,2778.0,4095.0,3282.0,2386.0,2847.0,5.06,8.63,1.31,0.39,-1.52,-1.45,z
3089.0,2961.0,2963.0,2768.0,4095.0,3278.0,2371.0,2845.0,-2.59,7.41,-1.09,0.07,-0.9,-2.25,z
3103.0,2960.0,2967.0,2766.0,4095.0,3281.0,2373.0,2834.0,-8.64,7.48,-3.42,-0.2,-0.7,-1.4,z
3045.0,2967.0,2962.0,2698.0,4095.0,3286.0,2376.0,2832.0,-9.82,6.31,-2.59,-0.3,0.02,-0.57,z
3056.0,2973.0,2976.0,2704.0,4095.0,3302.0,2380.0,2845.0,-8.83,5.49,-4.07,-0.79,0.62,0.47,z
3054.0,2971.0,2971.0,2704.0,4095.0,3286.0,2367.0,2841.0,-4.57,6.45,-0.68,-2.21,0.67,1.12,z
3054.0,2962.0,2971.0,2733.0,4095.0,3302.0,2373.0,2859.0,3.28,8.31,9.39,-1.65,1.03,1.36,z
3061.0,2960.0,2970.0,2761.0,4095.0,3312.0,2370.0,2851.0,4.58,12.53,10.29,-0.46,1.02,0.2,z
3051.0,2962.0,2975.0,2813.0,4095.0,3313.0,2379.0,2850.0,4.36,11.16,11.9,0.3,0.22,-0.17,z
3053.0,2969.0,2966.0,2734.0,4095.0,3314.0,2370.0,2845.0,2.4,8.51,6.84,1.31,-0.94,-0.95,z
3052.0,2965.0,2961.0,2695.0,4095.0,3312.0,2374.0,2848.0,-1.22,6.51,2.56,1.85,-1.38,-1.85,z
3056.0,2971.0,2981.0,2698.0,4095.0,3314.0,2387.0,2832.0,-8.66,8.71,-4.31,1.46,-0.43,-1.3,z
3057.0,2960.0,2973.0,2714.0,4095.0,3318.0,2381.0,2831.0,-7.29,10.06,-3.94,0.26,-0.88,-0.1,z
3051.0,2958.0,2961.0,2688.0,4095.0,3317.0,2374.0,2830.0,-3.68,9.34,-0.43,0.01,0.16,-0.07,z
3050.0,2959.0,2974.0,2675.0,4095.0,3311.0,2385.0,2830.0,-3.5,8.66,0.06,-0.04,0.46,0.0,z
3114.0,2958.0,2978.0,2764.0,4095.0,3312.0,2393.0,2851.0,-0.11,9.46,1.09,-0.02,0.06,0.01,z
3105.0,2961.0,2971.0,2751.0,4095.0,3307.0,2391.0,2847.0,0.3,9.48,1.08,-0.02,0.12,0.06,z
3106.0,2955.0,2967.0,2721.0,4095.0,3301.0,2398.0,2830.0,0.8,9.11,2.19,-0.18,0.13,0.12,z
3114.0,2960.0,2965.0,2711.0,4095.0,3302.0,2410.0,2835.0,3.95,9.44,5.49,-0.07,-0.36,0.36,z
3131.0,2970.0,2964.0,2729.0,4095.0,3312.0,2407.0,2854.0,6.02,9.77,5.47,0.59,-0.92,-0.4,z
3110.0,2961.0,2971.0,2709.0,4095.0,3310.0,2413.0,2825.0,1.89,9.49,0.94,0.55,-0.93,-1.33,z
3103.0,2973.0,2982.0,2688.0,4095.0,3344.0,2387.0,2809.0,-5.25,7.52,-2.55,0.53,-0.12,-1.3,z
3120.0,2979.0,2976.0,2719.0,4095.0,3309.0,2406.0,2815.0,-12.08,4.9,-3.01,0.09,0.06,-1.3,z
3135.0,2981.0,2992.0,2737.0,4095.0,3317.0,2422.0,2823.0,-10.3,3.73,-5.31,0.36,-0.17,0.12,z
3167.0,3003.0,3013.0,2770.0,4095.0,3348.0,2441.0,2865.0,-5.22,5.17,-4.77,-0.85,1.37,0.63,z
3123.0,2975.0,2976.0,2751.0,4095.0,3311.0,2393.0,2847.0,-1.65,8.28,1.5,-1.89,0.98,1.18,z
3113.0,2960.0,2971.0,2718.0,4095.0,3318.0,2390.0,2804.0,4.79,12.53,9.07,-1.49,1.08,0.86,z
3071.0,2970.0,2971.0,2627.0,4095.0,3325.0,2388.0,2794.0,6.32,13.35,9.93,-1.02,0.7,0.97,z
3103.0,2968.0,2969.0,2657.0,4095.0,3344.0,2398.0,2809.0,7.33,10.47,12.12,0.39,-0.97,-0.76,z
3101.0,2964.0,2971.0,2651.0,4095.0,3330.0,2399.0,2789.0,3.01,7.75,4.97,1.3,-1.48,-1.45,z
3085.0,2962.0,2965.0,2654.0,4095.0,3329.0,2391.0,2779.0,-3.61,8.38,-0.49,1.15,-1.2,-1.87,z
3024.0,2959.0,2955.0,2608.0,4095.0,3319.0,2390.0,2790.0,-8.04,7.97,-2.18,0.59,-1.02,-1.37,z
3012.0,2960.0,2951.0,2590.0,4095.0,3323.0,2402.0,2773.0,-7.3,8.95,-1.63,0.3,-0.39,-0.31,z
3021.0,2971.0,2960.0,2601.0,4095.0,3312.0,2388.0,2778.0,-3.86,9.67,-0.7,0.1,0.16,-0.12,z
3011.0,2950.0,2955.0,2582.0,4095.0,3319.0,2390.0,2769.0,-3.35,9.68,-0.07,-0.18,0.27,0.1,z
3225.0,2958.0,2957.0,2853.0,4095.0,3295.0,2370.0,2812.0,0.1,9.36,1.49,-0.08,-0.06,0.01,z
3223.0,2960.0,2951.0,2855.0,4095.0,3291.0,2384.0,2819.0,0.36,9.5,1.52,-0.06,-0.02,0.04,z
3235.0,2958.0,2957.0,2848.0,4095.0,3287.0,2379.0,2821.0,0.32,9.43,1.47,-0.16,-0.12,-0.01,z
3237.0,2960.0,2953.0,2878.0,4095.0,3295.0,2379.0,2832.0,1.03,9.22,2.5,-0.16,-0.37,0.05,z
3126.0,2960.0,2946.0,2748.0,4095.0,3291.0,2378.0,2832.0,6.03,8.7,7.91,-0.18,-0.89,0.12,z
3120.0,2960.0,2959.0,2753.0,4095.0,3303.0,2381.0,2830.0,8.51,8.24,7.88,0.51,-0.88,-0.74,z
3122.0,2962.0,2957.0,2755.0,4095.0,3300.0,2381.0,2817.0,1.0,7.29,0.82,0.73,-1.01,-1.89,z
3056.0,2963.0,2950.0,2708.0,4095.0,3293.0,2391.0,2821.0,-9.46,6.59,-4.74,0.67,-0.15,-1.95,z
3063.0,2960.0,2947.0,2718.0,4095.0,3280.0,2384.0,2803.0,-14.45,5.47,-8.9,0.22,0.24,-0.64,z
3088.0,2986.0,2975.0,2738.0,4095.0,3307.0,2406.0,2832.0,-9.96,4.11,-7.6,-1.3,0.6,1.11,z
3071.0,2974.0,2967.0,2742.0,4095.0,3312.0,2397.0,2835.0,-3.25,4.6,0.88,-2.17,1.36,1.28,z
3057.0,2961.0,2949.0,2698.0,4095.0,3324.0,2385.0,2823.0,2.1,9.07,9.32,-2.0,1.19,0.98,z
3136.0,2960.0,2948.0,2736.0,4095.0,3333.0,2366.0,2801.0,11.72,13.1,16.21,-0.51,0.2,1.04,z
3056.0,2959.0,2950.0,2617.0,4095.0,3333.0,2368.0,2783.0,11.27,12.01,12.72,0.89,0.27,-1.34,z
3058.0,2950.0,2951.0,2593.0,4095.0,3360.0,2379.0,2765.0,-0.16,7.28,5.2,1.79,-1.08,-2.02,z
3067.0,2958.0,2939.0,2559.0,4095.0,3339.0,2370.0,2763.0,-5.55,7.3,-0.9,1.51,-1.8,-1.58,z
3037.0,2952.0,2957.0,2547.0,4095.0,3334.0,2368.0,2754.0,-8.62,8.22,-2.42,1.12,-0.52,-1.08,z
3054.0,2948.0,2958.0,2591.0,4095.0,3334.0,2381.0,2766.0,-7.96,10.12,-3.92,0.39,-0.57,-0.22,z
3059.0,2950.0,2949.0,2610.0,4095.0,3329.0,2365.0,2768.0,-3.3,9.26,0.12,-0.08,0.14,0.2,z
3063.0,2958.0,2954.0,2626.0,4095.0,3341.0,2378.0,2768.0,-2.39,8.88,1.3,-0.09,0.18,0.1,z
3053.0,2950.0,2955.0,2624.0,4095.0,3311.0,2375.0,2818.0,0.44,9.61,2.3,-0.04,0.08,-0.03,z
3051.0,2965.0,2951.0,2626.0,4095.0,3312.0,2367.0,2822.0,0.85,9.24,2.53,-0.04,-0.02,0.08,z
3045.0,2950.0,2960.0,2629.0,4095.0,3315.0,2367.0,2822.0,2.51,9.07,4.28,-0.22,-0.31,0.16,z
3057.0,2960.0,2950.0,2631.0,4095.0,3314.0,2367.0,2823.0,8.86,7.97,9.0,0.08,-1.45,0.08,z
3057.0,2944.0,2951.0,2613.0,4095.0,3330.0,2368.0,2807.0,8.3,7.04,8.24,0.47,-0.62,-1.71,z
2954.0,2960.0,2947.0,2510.0,4095.0,3317.0,2375.0,2791.0,-9.75,5.72,-3.0,1.56,0.37,-2.49,z
3058.0,2957.0,2960.0,2615.0,4095.0,3312.0,2373.0,2788.0,-12.8,6.28,-8.46,0.7,-0.96,-0.89,z
3120.0,3017.0,3007.0,2698.0,4095.0,3357.0,2432.0,2835.0,-10.84,3.99,-8.22,0.25,0.84,0.1,z
3141.0,3017.0,3024.0,2731.0,4095.0,3399.0,2444.0,2839.0,-5.53,4.86,-5.55,-1.21,1.44,0.36,z
3103.0,2998.0,2998.0,2666.0,4095.0,3390.0,2409.0,2835.0,-1.24,8.6,5.37,-2.56,1.03,0.78,z
3056.0,2979.0,2985.0,2607.0,4095.0,3376.0,2391.0,2823.0,7.3,12.32,14.44,-1.62,0.69,0.78,z
3190.0,2987.0,2985.0,2731.0,4095.0,3378.0,2390.0,2804.0,10.36,12.21,14.35,-0.37,0.78,-0.45,z
3101.0,2975.0,2987.0,2638.0,4095.0,3371.0,2396.0,2800.0,-1.27,8.19,6.34,0.89,-0.67,-1.69,z
3102.0,3005.0,3008.0,2666.0,4095.0,3387.0,2431.0,2832.0,-2.14,7.92,3.29,0.77,-1.37,-1.23,z
3093.0,2992.0,2988.0,2654.0,4095.0,3335.0,2384.0,2800.0,-5.34,9.81,-0.66,1.17,-0.53,-1.54,z
3083.0,2981.0,2989.0,2617.0,4095.0,3315.0,2361.0,2775.0,-7.74,9.52,-1.31,0.32,-0.33,-0.56,z
3097.0,2985.0,2989.0,2602.0,4095.0,3312.0,2357.0,2771.0,-6.3,8.67,-0.33,0.22,0.05,-0.22,z
3095.0,2975.0,2981.0,2617.0,4095.0,3328.0,2357.0,2785.0,-2.89,8.62,1.2,-0.09,-0.05,0.22,z
3099.0,2987.0,2987.0,2634.0,4095.0,3351.0,2373.0,2791.0,-2.47,8.66,1.93,0.13,0.07,-0.0,z
3099.0,2977.0,2983.0,2630.0,4095.0,3376.0,2385.0,2799.0,-3.33,8.83,1.85,-0.07,0.02,-0.04,z
3315.0,3095.0,3095.0,2884.0,4095.0,3480.0,2517.0,2953.0,1.49,9.35,1.12,-0.03,0.0,0.0,z
3303.0,3102.0,3091.0,2875.0,4095.0,3473.0,2521.0,2954.0,1.56,9.3,1.03,0.0,0.04,-0.0,z
3289.0,3087.0,3091.0,2866.0,4095.0,3472.0,2513.0,2949.0,1.65,9.43,0.93,-0.06,-0.01,-0.01,z
3301.0,3086.0,3094.0,2873.0,4095.0,3475.0,2513.0,2947.0,2.61,9.49,1.78,-0.06,-0.09,-0.03,z
3313.0,3094.0,3106.0,2892.0,4095.0,3475.0,2526.0,2965.0,4.51,9.08,3.44,0.08,-0.38,-0.15,z
3126.0,3095.0,3099.0,2688.0,4095.0,3499.0,2519.0,2960.0,5.49,8.34,4.17,0.58,-0.77,-0.41,z
3088.0,3083.0,3083.0,2654.0,4095.0,3471.0,2499.0,2919.0,2.45,8.89,1.42,0.8,-0.74,-0.76,z
3060.0,3067.0,3067.0,2638.0,4095.0,3475.0,2501.0,2923.0,-0.95,8.6,-0.82,0.62,-1.01,-0.82,z
3217.0,3143.0,3158.0,2811.0,4095.0,3523.0,2559.0,2983.0,-4.49,6.72,-4.05,0.61,-0.33,-0.73,z
3194.0,3151.0,3184.0,2819.0,4095.0,3561.0,2605.0,2977.0,-8.01,3.63,-7.7,-0.19,0.43,-0.75,z
3071.0,3077.0,3088.0,2686.0,4095.0,3458.0,2510.0,2927.0,-7.6,3.31,-6.78,-1.7,1.16,-0.56,z
3058.0,3059.0,2992.0,2625.0,4095.0,3431.0,2473.0,2896.0,-0.95,6.3,1.72,-2.49,1.82,-0.25,z
3090.0,3066.0,3071.0,2627.0,4095.0,3438.0,2497.0,2906.0,4.19,11.17,8.6,-2.68,1.74,-0.51,z
3028.0,3071.0,3083.0,2555.0,4095.0,3437.0,2512.0,2923.0,8.3,15.68,17.24,-3.1,-0.1,0.83,z
3057.0,3127.0,3143.0,2607.0,4095.0,3479.0,2579.0,2960.0,6.47,11.71,14.78,0.3,-0.81,-1.25,z
3149.0,3155.0,3162.0,2721.0,4095.0,3505.0,2606.0,2978.0,-1.14,6.5,6.45,1.25,-1.28,-2.06,z
3147.0,3126.0,3130.0,2672.0,4095.0,3472.0,2559.0,2945.0,-6.67,6.17,0.54,1.66,-1.45,-1.53,z
3161.0,3134.0,3143.0,2705.0,4095.0,3490.0,2592.0,2944.0,-10.37,8.56,-3.19,0.92,-0.85,-1.05,z
3163.0,3143.0,3149.0,2695.0,4095.0,3501.0,2579.0,2955.0,-4.76,9.55,-0.51,-0.03,-0.5,0.03,z
3147.0,3151.0,3157.0,2690.0,4095.0,3503.0,2593.0,2950.0,-5.02,10.57,0.49,0.17,0.09,-0.15,z
