hall_1,hall_2,hall_3,flex_t,flex_i,flex_m,flex_r,flex_p,accel_x,accel_y,accel_z,gyro_x,gyro_y,gyro_z,hand,sign
2923.0,3058.0,3029.0,3331.0,4095.0,2892.0,3157.0,3296.0,0.79,9.4,3.53,0.04,-0.17,-0.19,1.0,z
2926.0,3082.0,3021.0,3344.0,4095.0,2899.0,3167.0,3310.0,-0.18,9.17,3.27,-0.02,-0.27,-0.39,1.0,z
2923.0,3056.0,3025.0,3344.0,4095.0,2896.0,3152.0,3297.0,-3.48,9.2,2.57,-0.23,0.18,-0.18,1.0,z
2924.0,2959.0,3021.0,3347.0,4095.0,2895.0,3169.0,3301.0,-6.88,7.63,4.17,-0.69,1.13,0.57,1.0,z
2908.0,3062.0,3026.0,3345.0,4095.0,2887.0,3158.0,3311.0,5.33,7.43,7.02,-0.69,1.92,1.93,1.0,z
2921.0,3056.0,3024.0,3351.0,4095.0,2886.0,3150.0,3283.0,14.12,10.06,7.61,0.04,-0.2,-0.28,1.0,z
2925.0,3056.0,3014.0,3361.0,4095.0,2897.0,3161.0,3313.0,3.56,7.28,5.39,0.21,-2.03,-1.9,1.0,z
2914.0,3059.0,3027.0,3359.0,4095.0,2895.0,3167.0,3307.0,-6.62,5.98,4.96,-0.32,-1.69,-1.84,1.0,z
2919.0,3066.0,3023.0,3358.0,4095.0,2890.0,3163.0,3302.0,-12.15,5.98,3.71,-0.58,0.64,0.14,1.0,z
2928.0,3063.0,3035.0,3365.0,4095.0,2826.0,3154.0,3312.0,-4.38,6.35,7.55,-1.58,1.91,1.85,1.0,z
2923.0,3071.0,3023.0,3343.0,4095.0,2896.0,3169.0,3310.0,8.69,9.23,10.95,-0.98,1.62,0.99,1.0,z
2923.0,3057.0,3030.0,3354.0,4095.0,2899.0,3169.0,3320.0,0.92,7.92,7.78,-0.14,0.56,-0.37,1.0,z
2930.0,3058.0,3023.0,3358.0,4095.0,2896.0,3172.0,3312.0,-0.81,7.21,7.19,-0.16,-0.0,0.03,1.0,z
2928.0,3067.0,3034.0,3375.0,4095.0,2896.0,3173.0,3312.0,-1.43,6.97,7.2,0.02,0.09,-0.12,1.0,z
2918.0,3071.0,3026.0,3361.0,4095.0,2901.0,3171.0,3313.0,-1.1,6.92,7.12,-0.11,0.08,-0.07,1.0,z
2923.0,3147.0,3031.0,3374.0,4095.0,2910.0,3164.0,3313.0,-1.44,7.07,7.31,-0.12,0.1,-0.03,1.0,z
2934.0,3093.0,3027.0,3363.0,4095.0,2894.0,3167.0,3327.0,-1.37,7.09,7.04,-0.09,0.08,-0.06,1.0,z
2909.0,3056.0,3029.0,3374.0,4095.0,2899.0,3184.0,3321.0,-1.26,7.08,7.29,-0.09,0.02,-0.06,1.0,z
2927.0,3059.0,3039.0,3381.0,4095.0,2906.0,3163.0,3327.0,-1.5,6.76,7.41,-0.1,0.04,-0.01,1.0,z
2928.0,3063.0,3024.0,3371.0,4095.0,2907.0,3169.0,3312.0,-1.37,6.98,7.28,-0.11,0.1,-0.06,1.0,z
2915.0,2952.0,3035.0,3403.0,4095.0,2883.0,3173.0,3333.0,0.12,9.82,3.6,-0.09,-0.1,-0.07,1.0,z
2929.0,3059.0,3034.0,3421.0,4095.0,2887.0,3173.0,3323.0,-0.88,9.24,3.25,-0.13,-0.07,-0.28,1.0,z
2919.0,3051.0,3027.0,3407.0,4095.0,2880.0,3168.0,3331.0,-8.16,6.87,4.07,-0.35,0.44,-0.13,1.0,z
2913.0,3055.0,3029.0,3410.0,4095.0,2889.0,3167.0,3340.0,-2.84,8.17,4.23,-0.61,1.6,1.59,1.0,z
2923.0,3063.0,3029.0,3420.0,4095.0,2873.0,3166.0,3322.0,8.44,9.29,6.73,-0.39,1.26,1.35,1.0,z
2924.0,3063.0,3018.0,3415.0,4095.0,2885.0,3163.0,3322.0,10.04,8.77,5.33,0.19,-0.31,-1.13,1.0,z
2928.0,3071.0,3033.0,3426.0,4095.0,2887.0,3173.0,3325.0,0.47,7.27,4.65,0.19,-1.67,-2.13,1.0,z
2931.0,3071.0,3030.0,3423.0,4095.0,2895.0,3165.0,3331.0,-13.03,4.7,4.41,-0.47,-0.54,-1.36,1.0,z
2913.0,3082.0,3028.0,3442.0,4095.0,2896.0,3178.0,3331.0,-10.58,6.71,2.64,-1.2,1.15,1.47,1.0,z
2928.0,3062.0,3024.0,3439.0,4095.0,2899.0,3177.0,3333.0,3.6,7.31,10.14,-1.44,1.64,2.39,1.0,z
2928.0,3057.0,3031.0,3434.0,4095.0,2886.0,3172.0,3325.0,6.02,9.47,8.41,-0.29,1.02,-0.07,1.0,z
2925.0,3081.0,3024.0,3447.0,4095.0,2890.0,3169.0,3330.0,-1.05,7.75,6.1,-0.17,0.01,-0.04,1.0,z
2927.0,3062.0,3035.0,3443.0,4095.0,2897.0,3178.0,3326.0,-1.67,7.92,6.32,-0.13,-0.01,-0.13,1.0,z
2916.0,3059.0,3035.0,3445.0,4095.0,2902.0,3178.0,3344.0,-1.1,7.8,6.51,-0.09,-0.03,0.02,1.0,z
2928.0,3063.0,3031.0,3427.0,4095.0,2903.0,3183.0,3327.0,-0.83,7.99,6.15,-0.02,0.09,-0.09,1.0,z
2926.0,2980.0,3027.0,3445.0,4095.0,2893.0,3186.0,3334.0,-1.21,7.83,6.26,-0.07,0.1,-0.06,1.0,z
2921.0,3063.0,3035.0,3447.0,4095.0,2895.0,3184.0,3329.0,-1.3,8.02,6.58,-0.13,0.06,-0.03,1.0,z
2926.0,3036.0,3031.0,3438.0,4095.0,2896.0,3183.0,3340.0,-1.26,7.78,6.44,-0.05,0.0,-0.02,1.0,z
2927.0,3079.0,3031.0,3454.0,4095.0,2906.0,3182.0,3329.0,-1.31,7.72,6.41,0.01,0.04,-0.02,1.0,z
2923.0,3082.0,3030.0,3441.0,4095.0,2907.0,3183.0,3338.0,-1.24,7.61,6.48,-0.08,0.05,-0.02,1.0,z
2924.0,3058.0,3025.0,3433.0,4095.0,2907.0,3179.0,3332.0,-2.0,9.29,3.57,-0.11,-0.11,-0.22,1.0,z
2928.0,3088.0,3024.0,3445.0,4095.0,2902.0,3171.0,3326.0,-6.0,7.69,3.99,-0.14,0.02,-0.04,1.0,z
2928.0,3054.0,3024.0,3437.0,4095.0,2910.0,3174.0,3344.0,-7.48,6.66,3.73,-0.12,0.89,1.72,1.0,z
2922.0,3066.0,3030.0,3449.0,4095.0,2901.0,3184.0,3331.0,4.38,8.54,5.8,-0.43,1.45,1.97,1.0,z
2928.0,3071.0,3023.0,3431.0,4095.0,2896.0,3172.0,3322.0,12.44,10.66,5.85,0.06,0.44,-0.04,1.0,z
2913.0,3029.0,3029.0,3428.0,4095.0,2907.0,3189.0,3335.0,4.12,8.38,4.06,0.07,-0.93,-1.4,1.0,z
2918.0,3030.0,3023.0,3437.0,4095.0,2915.0,3170.0,3338.0,-1.53,8.07,3.46,-0.3,-1.3,-2.16,1.0,z
2928.0,3071.0,3024.0,3436.0,4095.0,2909.0,3169.0,3339.0,-11.73,4.85,4.58,-0.35,-0.42,-1.08,1.0,z
2927.0,3089.0,3031.0,3437.0,4095.0,2913.0,3184.0,3344.0,-8.65,5.81,4.47,-1.03,0.74,1.45,1.0,z
2927.0,3070.0,3026.0,3447.0,4095.0,2909.0,3193.0,3333.0,0.96,7.88,7.63,-1.18,1.3,2.09,1.0,z
2915.0,3066.0,3018.0,3442.0,4095.0,2917.0,3184.0,3338.0,4.32,8.82,8.54,-0.77,1.15,0.64,1.0,z
2927.0,3054.0,3024.0,3440.0,4095.0,2915.0,3182.0,3344.0,0.55,8.1,7.51,-0.3,0.22,0.06,1.0,z
2926.0,3065.0,3035.0,3453.0,4095.0,2914.0,3184.0,3344.0,-0.9,7.58,6.99,-0.06,-0.04,-0.11,1.0,z
2919.0,3071.0,3034.0,3440.0,4095.0,2913.0,3186.0,3344.0,-0.98,7.46,6.72,-0.06,-0.03,-0.11,1.0,z
2918.0,3088.0,3033.0,3454.0,4095.0,2910.0,3183.0,3344.0,-0.81,7.29,7.08,-0.09,0.0,-0.07,1.0,z
2924.0,3056.0,3024.0,3441.0,4095.0,2914.0,3181.0,3342.0,-0.75,7.6,6.7,-0.1,0.05,-0.05,1.0,z
2928.0,3063.0,3024.0,3441.0,4095.0,2911.0,3189.0,3346.0,-0.99,7.57,6.62,-0.1,0.07,-0.04,1.0,z
2922.0,3088.0,3040.0,3449.0,4095.0,2912.0,3187.0,3341.0,-0.95,7.3,7.23,-0.09,0.01,-0.04,1.0,z
2928.0,3053.0,3035.0,3455.0,4095.0,2913.0,3183.0,3338.0,-0.92,7.45,6.98,-0.06,-0.02,-0.02,1.0,z
2935.0,2973.0,3037.0,3452.0,4095.0,2916.0,3187.0,3342.0,-1.01,7.44,6.68,-0.07,0.01,-0.01,1.0,z
2927.0,3066.0,3024.0,3450.0,4095.0,2917.0,3184.0,3351.0,-1.69,9.38,3.24,0.02,-0.02,-0.13,1.0,z
2927.0,3066.0,3008.0,3452.0,4095.0,2922.0,3188.0,3359.0,-3.17,8.65,3.29,-0.08,0.03,-0.09,1.0,z
2929.0,3051.0,3024.0,3451.0,4095.0,2923.0,3183.0,3359.0,-9.54,6.33,2.66,-0.23,0.31,0.48,1.0,z
2928.0,2946.0,3029.0,3440.0,4095.0,2912.0,3179.0,3343.0,-2.23,8.17,4.06,-0.82,1.39,1.8,1.0,z
2917.0,3056.0,3027.0,3430.0,4095.0,2922.0,3191.0,3344.0,9.35,9.49,7.8,-0.57,1.08,1.19,1.0,z
2925.0,3058.0,3046.0,3424.0,4095.0,2909.0,3187.0,3335.0,7.59,7.36,6.01,-0.03,-0.11,-1.03,1.0,z
2928.0,3069.0,3023.0,3431.0,4095.0,2919.0,3191.0,3352.0,1.96,7.39,4.8,-0.07,-1.52,-1.73,1.0,z
2928.0,3065.0,3029.0,3423.0,4095.0,2915.0,3184.0,3345.0,-8.56,7.22,4.53,-0.56,-0.97,-1.78,1.0,z
2928.0,3059.0,3023.0,3429.0,4095.0,2916.0,3179.0,3355.0,-11.73,6.48,5.02,-0.87,0.54,0.51,1.0,z
2917.0,3067.0,3029.0,3450.0,4095.0,2907.0,3190.0,3367.0,-3.71,5.03,7.47,-1.46,1.39,1.88,1.0,z
2918.0,3088.0,3043.0,3440.0,4095.0,2916.0,3196.0,3358.0,5.81,8.63,11.19,-0.94,1.18,1.21,1.0,z
2928.0,3083.0,3036.0,3441.0,4095.0,2913.0,3190.0,3351.0,1.59,7.66,8.9,-0.26,0.19,0.25,1.0,z
2930.0,3063.0,3024.0,3437.0,4095.0,2915.0,3184.0,3359.0,-1.46,6.49,7.65,-0.07,0.06,-0.19,1.0,z
2928.0,3125.0,3026.0,3434.0,4095.0,2919.0,3189.0,3357.0,-1.51,6.81,7.06,-0.07,-0.01,-0.16,1.0,z
2926.0,3050.0,3024.0,3438.0,4095.0,2917.0,3191.0,3360.0,-1.51,6.68,7.52,-0.05,-0.01,-0.11,1.0,z
2935.0,2955.0,3027.0,3440.0,4095.0,2914.0,3184.0,3365.0,-1.95,6.79,7.24,-0.08,0.05,-0.1,1.0,z
2935.0,3070.0,3024.0,3440.0,4095.0,2927.0,3187.0,3353.0,-1.75,6.84,7.41,-0.1,0.08,-0.0,1.0,z
2933.0,3079.0,3035.0,3429.0,4095.0,2921.0,3195.0,3363.0,-1.63,6.79,7.6,-0.08,0.09,0.02,1.0,z
2910.0,3067.0,3024.0,3440.0,4095.0,2922.0,3197.0,3356.0,-1.7,6.85,7.27,-0.09,0.09,0.01,1.0,z
2926.0,3082.0,3036.0,3427.0,4095.0,2926.0,3191.0,3366.0,-1.76,6.67,7.38,-0.0,0.01,-0.01,1.0,z
2925.0,3071.0,3026.0,3407.0,4095.0,2896.0,3185.0,3349.0,-1.6,9.61,2.87,-0.07,-0.09,-0.08,1.0,z
2918.0,3062.0,3034.0,3410.0,4095.0,2903.0,3179.0,3351.0,-3.39,8.71,2.33,-0.01,-0.09,-0.11,1.0,z
2921.0,3083.0,3035.0,3395.0,4095.0,2895.0,3181.0,3359.0,-8.29,7.63,1.29,-0.51,0.68,0.64,1.0,z
2919.0,2986.0,3024.0,3404.0,4095.0,2890.0,3183.0,3346.0,0.02,8.43,5.02,-0.91,1.3,1.44,1.0,z
2911.0,3071.0,3030.0,3405.0,4095.0,2895.0,3189.0,3345.0,8.66,9.46,7.29,-0.45,0.99,0.5,1.0,z
2907.0,3085.0,3023.0,3392.0,4095.0,2903.0,3191.0,3347.0,7.34,9.26,5.74,0.12,-0.73,-1.33,1.0,z
2921.0,3237.0,3023.0,3396.0,4095.0,2901.0,3193.0,3346.0,-2.16,7.75,3.41,0.08,-1.72,-1.9,1.0,z
2929.0,3071.0,3026.0,3398.0,4095.0,2906.0,3194.0,3367.0,-11.47,5.32,4.07,-0.3,-0.54,-0.97,1.0,z
2918.0,3070.0,3024.0,3408.0,4095.0,2912.0,3198.0,3362.0,-8.13,5.76,3.19,-1.13,0.91,1.04,1.0,z
2901.0,3130.0,3031.0,3406.0,4095.0,2909.0,3194.0,3361.0,-0.19,7.72,7.86,-1.83,1.68,1.88,1.0,z
2928.0,3065.0,3035.0,3411.0,4095.0,2914.0,3199.0,3351.0,3.8,8.68,10.28,-0.86,1.3,0.87,1.0,z
2919.0,3071.0,3031.0,3410.0,4095.0,2907.0,3187.0,3373.0,1.38,7.92,8.44,-0.26,0.11,0.18,1.0,z
2926.0,3106.0,3027.0,3414.0,4095.0,2906.0,3196.0,3379.0,-1.18,7.27,7.0,-0.05,0.08,-0.22,1.0,z
2933.0,3081.0,3022.0,3408.0,4095.0,2908.0,3198.0,3362.0,-1.55,7.53,6.72,-0.12,0.1,-0.09,1.0,z
2927.0,3059.0,3024.0,3409.0,4095.0,2906.0,3193.0,3365.0,-1.84,7.31,6.8,-0.07,0.09,-0.08,1.0,z
2933.0,3067.0,3028.0,3414.0,4095.0,2905.0,3195.0,3359.0,-1.36,7.25,6.91,-0.09,0.04,-0.08,1.0,z
2927.0,3071.0,3028.0,3402.0,4095.0,2923.0,3195.0,3376.0,-1.98,7.14,7.12,-0.1,0.05,-0.04,1.0,z
2921.0,3067.0,3025.0,3407.0,4095.0,2906.0,3207.0,3377.0,-1.74,7.03,7.15,-0.08,0.02,-0.01,1.0,z
2927.0,3069.0,3024.0,3406.0,4095.0,2907.0,3193.0,3366.0,-1.8,7.29,6.8,-0.09,0.01,0.01,1.0,z
2931.0,3042.0,3037.0,3408.0,4095.0,2911.0,3197.0,3375.0,-1.74,7.02,7.03,-0.03,0.06,0.0,1.0,z
2926.0,3083.0,3024.0,3428.0,4095.0,2919.0,3207.0,3365.0,-2.01,8.07,4.11,-0.05,-0.23,-0.12,1.0,z
2915.0,3071.0,3037.0,3409.0,4095.0,2915.0,3195.0,3362.0,-2.38,9.05,4.07,-0.07,-0.13,-0.25,1.0,z
2928.0,3082.0,3039.0,3403.0,4095.0,2913.0,3194.0,3362.0,-8.85,6.58,3.81,-0.06,0.15,0.16,1.0,z
2923.0,3071.0,3024.0,3405.0,4095.0,2918.0,3200.0,3378.0,-4.88,7.59,4.6,-0.56,1.22,1.49,1.0,z
2926.0,3071.0,3024.0,3426.0,4095.0,2925.0,3197.0,3373.0,2.69,7.86,6.37,-0.81,1.35,1.52,1.0,z
2929.0,3049.0,3025.0,3404.0,4095.0,2917.0,3200.0,3356.0,13.56,9.03,8.25,-0.31,0.05,-0.19,1.0,z
2921.0,3095.0,3033.0,3417.0,4095.0,2925.0,3200.0,3371.0,5.02,4.8,6.28,-0.05,-1.48,-1.85,1.0,z
2928.0,3086.0,3024.0,3411.0,4095.0,2929.0,3198.0,3361.0,-7.04,6.34,4.41,-0.63,-1.72,-2.16,1.0,z
2933.0,3089.0,3024.0,3408.0,4095.0,2928.0,3205.0,3367.0,-13.62,6.14,5.36,-0.74,-0.2,-0.55,1.0,z
2920.0,3091.0,3026.0,3412.0,4095.0,2917.0,3202.0,3373.0,-9.05,4.82,6.63,-1.6,1.41,1.68,1.0,z
2906.0,3059.0,3033.0,3403.0,4095.0,2922.0,3197.0,3383.0,2.85,5.85,12.42,-1.32,1.46,1.84,1.0,z
2922.0,3069.0,3033.0,3408.0,4095.0,2918.0,3199.0,3367.0,4.58,6.81,10.77,-0.52,0.54,1.08,1.0,z
2914.0,3065.0,3023.0,3408.0,4095.0,2923.0,3206.0,3383.0,0.13,6.33,8.52,-0.19,0.05,0.09,1.0,z
2928.0,3069.0,3034.0,3405.0,4095.0,2923.0,3205.0,3376.0,-2.18,6.08,7.97,-0.05,-0.01,-0.14,1.0,z
2909.0,3071.0,3027.0,3415.0,4095.0,2926.0,3212.0,3377.0,-1.75,6.13,7.91,-0.05,0.02,-0.11,1.0,z
2918.0,3123.0,3029.0,3420.0,4095.0,2911.0,3203.0,3373.0,-1.98,5.95,7.92,0.02,0.03,-0.04,1.0,z
2928.0,3061.0,3031.0,3414.0,4095.0,2918.0,3213.0,3379.0,-1.88,5.95,8.11,-0.07,0.13,-0.06,1.0,z
2922.0,3088.0,3037.0,3399.0,4095.0,2906.0,3201.0,3385.0,-2.27,6.25,7.85,-0.08,0.06,0.01,1.0,z
2928.0,3066.0,3023.0,3402.0,4095.0,2928.0,3214.0,3376.0,-2.17,6.1,7.87,-0.04,0.08,0.05,1.0,z
2930.0,3067.0,3038.0,3408.0,4095.0,2919.0,3197.0,3388.0,-1.94,6.1,7.76,-0.07,0.05,0.01,1.0,z
2918.0,3059.0,3014.0,3411.0,4095.0,2923.0,3207.0,3370.0,-2.27,8.67,4.32,-0.01,0.03,-0.24,1.0,z
2918.0,3063.0,3021.0,3435.0,4095.0,2919.0,3211.0,3376.0,-3.29,8.35,4.81,-0.06,-0.11,-0.17,1.0,z
2931.0,3071.0,3039.0,3421.0,4095.0,2919.0,3199.0,3376.0,-10.49,6.32,3.96,0.11,-0.06,0.09,1.0,z
2914.0,3071.0,3030.0,3430.0,4095.0,2926.0,3213.0,3376.0,-5.68,5.57,3.93,-0.5,1.11,2.13,1.0,z
2933.0,3004.0,3034.0,3420.0,4095.0,2912.0,3203.0,3389.0,4.83,8.32,6.22,-0.73,1.32,1.89,1.0,z
2913.0,2993.0,3034.0,3425.0,4095.0,2923.0,3198.0,3371.0,11.71,9.73,8.16,-0.19,0.45,-0.2,1.0,z
2924.0,3089.0,3030.0,3445.0,4095.0,2923.0,3195.0,3372.0,5.86,7.52,7.15,0.22,-1.27,-1.59,1.0,z
2923.0,3071.0,3036.0,3435.0,4095.0,2928.0,3202.0,3365.0,-2.88,6.56,4.32,0.16,-1.88,-1.65,1.0,z
2928.0,3065.0,3045.0,3431.0,4095.0,2928.0,3209.0,3364.0,-11.44,5.1,6.17,-0.47,-1.0,-1.28,1.0,z
2921.0,3149.0,3033.0,3417.0,4095.0,2937.0,3209.0,3387.0,-11.47,5.68,4.06,-0.91,0.65,0.67,1.0,z
2925.0,3069.0,3025.0,3425.0,4095.0,2927.0,3212.0,3392.0,-3.31,4.32,8.48,-1.68,1.51,2.35,1.0,z
2928.0,3123.0,3035.0,3407.0,4095.0,2931.0,3201.0,3385.0,6.05,7.38,12.13,-1.12,1.36,1.21,1.0,z
2915.0,3067.0,3024.0,3411.0,4095.0,2918.0,3219.0,3380.0,2.0,7.34,9.04,-0.54,0.53,0.25,1.0,z
2925.0,3079.0,3025.0,3423.0,4095.0,2933.0,3216.0,3392.0,-0.11,6.41,8.52,-0.21,0.01,-0.04,1.0,z
2926.0,3136.0,3024.0,3425.0,4095.0,2939.0,3202.0,3393.0,-1.93,6.33,8.04,-0.06,0.11,-0.23,1.0,z
2922.0,3071.0,3033.0,3429.0,4095.0,2926.0,3217.0,3383.0,-1.53,6.28,7.56,-0.07,0.07,-0.15,1.0,z
2927.0,3067.0,3038.0,3416.0,4095.0,2926.0,3216.0,3387.0,-2.21,6.27,8.07,-0.03,0.08,-0.09,1.0,z
2927.0,3071.0,3027.0,3427.0,4095.0,2929.0,3207.0,3376.0,-1.9,6.17,7.88,0.0,0.05,-0.04,1.0,z
2927.0,3062.0,3023.0,3426.0,4095.0,2938.0,3203.0,3392.0,-2.08,5.96,7.92,-0.02,0.02,-0.02,1.0,z
2933.0,3116.0,3026.0,3430.0,4095.0,2930.0,3203.0,3376.0,-1.74,6.3,7.57,-0.01,0.02,-0.0,1.0,z
2934.0,3071.0,3029.0,3441.0,4095.0,2923.0,3202.0,3372.0,-2.4,9.39,3.35,-0.14,-0.05,-0.1,1.0,z
2928.0,3071.0,3031.0,3441.0,4095.0,2922.0,3196.0,3389.0,-3.08,8.68,2.95,-0.14,0.08,-0.12,1.0,z
2928.0,3104.0,3031.0,3434.0,4095.0,2919.0,3210.0,3387.0,-8.28,7.29,2.16,-0.17,0.36,0.36,1.0,z
2928.0,3066.0,3023.0,3434.0,4095.0,2914.0,3199.0,3393.0,-4.07,8.18,4.84,-0.47,0.98,1.42,1.0,z
2922.0,3071.0,3039.0,3423.0,4095.0,2896.0,3210.0,3378.0,2.27,8.02,5.71,-0.4,1.4,1.59,1.0,z
2925.0,3066.0,3024.0,3423.0,4095.0,2914.0,3202.0,3377.0,11.99,10.25,5.63,-0.17,0.59,0.38,1.0,z
2927.0,3067.0,3026.0,3440.0,4095.0,2911.0,3210.0,3387.0,7.26,8.2,5.15,-0.13,-1.12,-1.38,1.0,z
2938.0,3066.0,3018.0,3438.0,4095.0,2917.0,3201.0,3393.0,0.55,7.78,3.3,-0.5,-2.09,-2.2,1.0,z
2929.0,3071.0,3034.0,3456.0,4095.0,2919.0,3203.0,3387.0,-10.02,4.22,7.62,-0.8,-1.25,-1.77,1.0,z
2939.0,3066.0,3031.0,3441.0,4095.0,2926.0,3207.0,3383.0,-12.29,5.98,5.51,-0.57,0.35,-0.34,1.0,z
2922.0,3131.0,3041.0,3436.0,4095.0,2927.0,3213.0,3403.0,-8.23,4.1,6.19,-1.18,1.33,1.83,1.0,z
2926.0,3088.0,3030.0,3429.0,4095.0,2932.0,3211.0,3388.0,1.77,6.28,9.82,-1.43,1.62,2.1,1.0,z
2912.0,3059.0,3040.0,3441.0,4095.0,2928.0,3210.0,3378.0,4.93,8.5,10.59,-0.77,0.9,0.9,1.0,z
2919.0,3010.0,3024.0,3426.0,4095.0,2927.0,3216.0,3398.0,0.25,6.82,8.54,-0.22,0.15,0.25,1.0,z
2914.0,3070.0,3019.0,3431.0,4095.0,2928.0,3218.0,3379.0,-1.27,6.53,7.25,-0.06,0.01,-0.11,1.0,z
2917.0,3071.0,3029.0,3443.0,4095.0,2930.0,3213.0,3389.0,-0.91,6.66,7.54,-0.1,-0.01,-0.15,1.0,z
2929.0,3088.0,3024.0,3459.0,4095.0,2928.0,3216.0,3401.0,-1.15,6.79,7.4,-0.07,-0.06,-0.15,1.0,z
2925.0,3071.0,3039.0,3436.0,4095.0,2932.0,3201.0,3397.0,-1.52,6.79,7.62,-0.07,-0.01,-0.12,1.0,z
2928.0,3027.0,3041.0,3447.0,4095.0,2929.0,3216.0,3393.0,-1.45,6.76,7.63,-0.09,0.03,-0.06,1.0,z
2918.0,3056.0,3038.0,3440.0,4095.0,2935.0,3210.0,3397.0,-1.53,6.62,7.52,-0.09,-0.01,-0.03,1.0,z
2933.0,3086.0,3018.0,3445.0,4095.0,2937.0,3216.0,3395.0,-2.06,9.11,3.86,-0.0,-0.05,-0.15,1.0,z
2929.0,3093.0,3024.0,3449.0,4095.0,2931.0,3210.0,3404.0,-7.49,6.81,3.42,0.04,-0.09,0.08,1.0,z
2929.0,3025.0,3023.0,3458.0,4095.0,2931.0,3206.0,3379.0,-7.93,6.67,3.19,-0.47,0.9,1.64,1.0,z
2927.0,3071.0,3037.0,3446.0,4095.0,2927.0,3206.0,3394.0,1.17,8.19,5.88,-0.63,1.38,2.03,1.0,z
2923.0,3061.0,3034.0,3457.0,4095.0,2921.0,3211.0,3377.0,11.51,9.52,7.34,-0.37,0.89,0.84,1.0,z
2923.0,3071.0,3023.0,3439.0,4095.0,2927.0,3201.0,3378.0,6.48,5.04,4.37,-0.21,-0.69,-0.6,1.0,z
2919.0,3087.0,3025.0,3438.0,4095.0,2943.0,3200.0,3393.0,5.01,7.06,4.09,-0.57,-1.73,-1.89,1.0,z
2921.0,3067.0,3041.0,3444.0,4095.0,2938.0,3215.0,3379.0,-6.5,7.54,7.25,-1.17,-1.89,-2.4,1.0,z
2928.0,3042.0,3025.0,3439.0,4095.0,2944.0,3217.0,3386.0,-13.85,7.08,8.27,-0.8,0.04,-0.69,1.0,z
2928.0,3082.0,3024.0,3433.0,4095.0,2938.0,3215.0,3405.0,-8.47,4.6,6.69,-0.9,1.2,1.54,1.0,z
2927.0,3068.0,3026.0,3441.0,4095.0,2943.0,3220.0,3404.0,2.06,4.72,10.02,-1.28,1.4,2.41,1.0,z
2925.0,3062.0,3024.0,3440.0,4095.0,2933.0,3223.0,3392.0,4.99,6.05,10.9,-0.81,0.82,1.12,1.0,z
2930.0,3066.0,3030.0,3440.0,4095.0,2939.0,3220.0,3393.0,0.52,5.94,9.37,-0.33,0.04,0.32,1.0,z
2928.0,3121.0,3036.0,3440.0,4095.0,2934.0,3219.0,3406.0,-0.89,5.7,8.36,-0.07,0.01,-0.12,1.0,z
2922.0,3071.0,3034.0,3423.0,4095.0,2931.0,3214.0,3390.0,-0.85,5.65,8.49,-0.07,0.09,-0.13,1.0,z
2927.0,3139.0,3031.0,3432.0,4095.0,2942.0,3215.0,3391.0,-1.45,5.78,8.33,-0.07,-0.02,-0.14,1.0,z
2914.0,3070.0,3034.0,3454.0,4095.0,2934.0,3225.0,3404.0,-1.6,5.7,8.31,-0.11,0.02,-0.07,1.0,z
2915.0,3089.0,3035.0,3442.0,4095.0,2934.0,3227.0,3385.0,-1.39,5.71,8.39,-0.11,0.01,-0.02,1.0,z
2926.0,3081.0,3025.0,3440.0,4095.0,2946.0,3231.0,3402.0,-1.21,5.88,8.52,-0.0,0.06,-0.02,1.0,z
2930.0,3081.0,3035.0,3440.0,4095.0,2939.0,3222.0,3386.0,-1.38,5.73,8.41,0.02,0.08,0.03,1.0,z
2930.0,3065.0,3027.0,3461.0,4095.0,2928.0,3206.0,3397.0,-2.58,8.55,4.54,0.0,-0.11,-0.05,1.0,z
2919.0,3082.0,3025.0,3445.0,4095.0,2922.0,3206.0,3392.0,-2.89,8.66,4.06,-0.04,-0.04,-0.11,1.0,z
2929.0,3068.0,3024.0,3462.0,4095.0,2933.0,3216.0,3376.0,-7.87,6.77,3.82,-0.0,0.18,0.19,1.0,z
2928.0,3071.0,3025.0,3451.0,4095.0,2919.0,3205.0,3391.0,-6.29,6.61,3.73,-0.48,0.6,1.53,1.0,z
2935.0,3071.0,3027.0,3458.0,4095.0,2911.0,3216.0,3407.0,1.23,7.07,7.41,-0.73,1.52,1.57,1.0,z
2928.0,3069.0,3037.0,3466.0,4095.0,2928.0,3213.0,3395.0,9.73,9.39,6.94,-0.49,0.77,0.87,1.0,z
2913.0,3071.0,3024.0,3457.0,4095.0,2928.0,3216.0,3399.0,6.97,5.31,5.76,-0.14,-0.77,-0.82,1.0,z
2925.0,3059.0,3024.0,3443.0,4095.0,2930.0,3209.0,3395.0,1.73,7.68,4.08,-0.49,-1.49,-1.63,1.0,z
2915.0,3110.0,3028.0,3446.0,4095.0,2929.0,3212.0,3395.0,-6.56,9.83,5.84,-1.16,-1.14,-1.78,1.0,z
2923.0,3083.0,3037.0,3453.0,4095.0,2941.0,3227.0,3407.0,-11.41,7.6,8.16,-0.68,0.25,-0.24,1.0,z
2913.0,3082.0,3024.0,3443.0,4095.0,2937.0,3223.0,3419.0,-6.65,5.38,6.76,-0.84,1.47,1.55,1.0,z
2933.0,3071.0,3025.0,3435.0,4095.0,2939.0,3226.0,3399.0,3.33,6.44,8.91,-0.9,1.38,1.54,1.0,z
2931.0,3056.0,3038.0,3440.0,4095.0,2943.0,3222.0,3407.0,2.53,6.81,10.17,-0.46,0.71,0.58,1.0,z
2925.0,3070.0,3037.0,3427.0,4095.0,2934.0,3216.0,3395.0,0.53,6.98,8.1,-0.08,0.03,0.16,1.0,z
2918.0,3057.0,3031.0,3442.0,4095.0,2941.0,3222.0,3399.0,-1.62,6.26,7.52,-0.08,0.05,-0.13,1.0,z
2918.0,3042.0,3042.0,3447.0,4095.0,2946.0,3225.0,3399.0,-1.44,6.5,7.67,-0.1,-0.01,-0.05,1.0,z
2918.0,3083.0,3035.0,3456.0,4095.0,2944.0,3230.0,3406.0,-1.57,6.29,7.86,-0.07,-0.02,-0.08,1.0,z
2928.0,3083.0,3025.0,3440.0,4095.0,2943.0,3221.0,3410.0,-1.58,6.32,7.95,0.01,0.01,-0.08,1.0,z
2927.0,3088.0,3035.0,3456.0,4095.0,2951.0,3223.0,3414.0,-1.37,6.33,7.77,-0.05,0.03,-0.05,1.0,z
2922.0,3109.0,3039.0,3442.0,4095.0,2939.0,3231.0,3418.0,-1.45,6.4,7.6,-0.05,0.02,-0.06,1.0,z
2917.0,3069.0,3039.0,3471.0,4095.0,2950.0,3216.0,3402.0,-3.18,8.44,4.57,-0.02,0.01,-0.06,1.0,z
2928.0,3084.0,3045.0,3471.0,4095.0,2928.0,3216.0,3402.0,-3.23,8.28,4.29,-0.05,0.11,-0.02,1.0,z
2918.0,3087.0,3042.0,3467.0,4095.0,2941.0,3227.0,3408.0,-7.74,6.52,4.44,0.1,0.17,0.32,1.0,z
2926.0,3071.0,3026.0,3451.0,4095.0,2934.0,3223.0,3395.0,-6.68,6.58,3.34,-0.17,1.2,1.62,1.0,z
2918.0,3103.0,3024.0,3455.0,4095.0,2935.0,3223.0,3402.0,3.1,8.18,5.46,-0.66,1.39,1.91,1.0,z
2922.0,3081.0,3031.0,3451.0,4095.0,2941.0,3205.0,3402.0,11.68,10.02,8.68,-0.4,0.49,0.3,1.0,z
2909.0,3066.0,3025.0,3446.0,4095.0,2946.0,3207.0,3390.0,6.99,8.73,6.41,0.33,-1.01,-1.68,1.0,z
2934.0,3066.0,3023.0,3443.0,4095.0,2928.0,3227.0,3398.0,-3.3,6.61,3.21,0.18,-1.64,-2.2,1.0,z
2940.0,3068.0,3024.0,3459.0,4095.0,2910.0,3200.0,3403.0,-11.64,4.15,5.07,-0.57,-0.71,-1.37,1.0,z
2928.0,3071.0,3022.0,3471.0,4095.0,2919.0,3217.0,3408.0,-10.74,5.1,4.48,-0.88,0.61,0.84,1.0,z
2922.0,3071.0,3035.0,3455.0,4095.0,2927.0,3217.0,3408.0,-3.24,5.28,6.05,-1.74,1.35,1.73,1.0,z
2925.0,3071.0,3024.0,3443.0,4095.0,2925.0,3216.0,3415.0,1.84,6.95,11.78,-1.92,1.27,1.68,1.0,z
2926.0,3067.0,3037.0,3448.0,4095.0,2928.0,3219.0,3406.0,1.86,8.41,10.42,-0.65,0.44,0.65,1.0,z
2927.0,3071.0,3029.0,3446.0,4095.0,2930.0,3226.0,3392.0,-0.29,6.47,8.58,-0.11,0.1,0.1,1.0,z
2937.0,3088.0,3028.0,3459.0,4095.0,2934.0,3223.0,3414.0,-1.43,6.15,7.95,-0.06,0.02,-0.11,1.0,z
2925.0,3071.0,3037.0,3457.0,4095.0,2942.0,3223.0,3399.0,-1.49,6.13,7.97,-0.01,0.01,-0.17,1.0,z
2921.0,3066.0,3030.0,3443.0,4095.0,2931.0,3231.0,3410.0,-1.89,5.99,7.77,-0.01,0.02,-0.12,1.0,z
2922.0,3083.0,3039.0,3449.0,4095.0,2935.0,3237.0,3411.0,-1.91,6.21,7.8,-0.08,0.03,-0.06,1.0,z
2914.0,3069.0,3015.0,3466.0,4095.0,2931.0,3219.0,3406.0,-1.98,6.09,8.05,-0.07,0.04,-0.03,1.0,z
2930.0,3111.0,3033.0,3442.0,4095.0,2938.0,3230.0,3419.0,-1.85,6.06,7.95,-0.05,0.02,0.01,1.0,z
2923.0,3088.0,3041.0,3472.0,4095.0,2927.0,3228.0,3415.0,-3.72,6.15,2.92,0.12,-0.69,-0.45,1.0,z
2913.0,3218.0,3035.0,3463.0,4095.0,2917.0,3231.0,3408.0,-2.9,7.9,3.16,0.0,-0.2,-0.29,1.0,z
2914.0,3069.0,3023.0,3472.0,4095.0,2909.0,3219.0,3416.0,-6.76,7.84,3.67,-0.1,0.07,-0.03,1.0,z
2923.0,3082.0,3039.0,3471.0,4095.0,2926.0,3219.0,3408.0,-8.36,7.82,3.22,-0.43,1.03,1.37,1.0,z
2930.0,3079.0,3024.0,3442.0,4095.0,2914.0,3216.0,3394.0,-0.95,6.4,5.26,-0.86,1.73,1.86,1.0,z
2911.0,3069.0,3036.0,3451.0,4095.0,2916.0,3226.0,3407.0,12.57,8.82,7.47,-0.58,0.72,0.64,1.0,z
2919.0,3082.0,3023.0,3445.0,4095.0,2919.0,3239.0,3408.0,7.2,4.55,5.02,-0.16,-0.69,-1.02,1.0,z
2923.0,3088.0,3022.0,3454.0,4095.0,2929.0,3237.0,3411.0,4.32,6.92,4.55,-0.84,-1.83,-2.33,1.0,z
2938.0,2963.0,3026.0,3412.0,4095.0,2929.0,3234.0,3422.0,-10.88,7.44,9.46,-1.3,-1.67,-2.51,1.0,z
2918.0,3071.0,3024.0,3433.0,4095.0,2931.0,3233.0,3418.0,-13.54,7.89,8.74,-0.41,0.17,-0.06,1.0,z
2917.0,3083.0,3028.0,3440.0,4095.0,2927.0,3216.0,3426.0,-8.4,4.74,6.5,-0.62,1.42,1.64,1.0,z
2927.0,3083.0,3042.0,3430.0,4095.0,2938.0,3236.0,3419.0,1.81,5.74,7.75,-0.77,1.49,1.94,1.0,z
2928.0,3067.0,3035.0,3439.0,4095.0,2930.0,3233.0,3423.0,2.12,6.69,10.16,-0.52,0.76,0.88,1.0,z
2924.0,3059.0,3024.0,3441.0,4095.0,2929.0,3225.0,3423.0,2.33,7.15,7.9,-0.15,0.06,0.34,1.0,z
2933.0,3066.0,3033.0,3440.0,4095.0,2931.0,3233.0,3418.0,-1.72,6.43,7.53,-0.09,-0.04,-0.11,1.0,z
2931.0,3151.0,3026.0,3439.0,4095.0,2928.0,3242.0,3412.0,-1.68,6.6,7.2,-0.09,-0.08,-0.09,1.0,z
2925.0,3061.0,3019.0,3445.0,4095.0,2942.0,3231.0,3414.0,-1.7,6.73,7.64,-0.08,0.03,-0.08,1.0,z
2917.0,3071.0,3034.0,3440.0,4095.0,2938.0,3246.0,3416.0,-1.96,6.67,7.32,-0.12,0.01,-0.01,1.0,z
2923.0,3085.0,3024.0,3451.0,4095.0,2928.0,3226.0,3427.0,-1.91,6.58,7.55,-0.14,0.06,-0.08,1.0,z
2926.0,3052.0,3031.0,3457.0,4095.0,2931.0,3239.0,3423.0,-1.44,6.89,7.44,-0.08,0.01,-0.01,1.0,z
2923.0,3071.0,3038.0,3472.0,4095.0,2913.0,3218.0,3408.0,-2.8,8.92,4.23,-0.14,-0.03,-0.04,1.0,z
2928.0,3083.0,3029.0,3474.0,4095.0,2928.0,3216.0,3423.0,-3.98,8.43,3.53,-0.05,0.03,-0.07,1.0,z
2930.0,3068.0,3024.0,3449.0,4095.0,2919.0,3234.0,3438.0,-9.82,6.4,3.14,-0.25,0.59,0.7,1.0,z
2947.0,3087.0,3042.0,3470.0,4095.0,2928.0,3223.0,3426.0,-3.12,7.6,5.2,-0.67,1.51,1.62,1.0,z
2913.0,3088.0,3025.0,3462.0,4095.0,2929.0,3229.0,3422.0,4.59,8.11,6.26,-0.7,1.14,1.65,1.0,z
2928.0,3018.0,3025.0,3460.0,4095.0,2927.0,3223.0,3408.0,9.04,9.08,7.31,-0.3,0.17,0.25,1.0,z
2932.0,3071.0,3031.0,3473.0,4095.0,2935.0,3216.0,3410.0,6.76,9.19,6.1,0.11,-1.04,-1.17,1.0,z
2929.0,3071.0,3027.0,3478.0,4095.0,2934.0,3234.0,3424.0,-1.06,6.34,5.82,0.13,-1.62,-1.93,1.0,z
2928.0,3062.0,3039.0,3463.0,4095.0,2935.0,3233.0,3408.0,-8.85,5.3,4.51,-0.24,-1.07,-1.43,1.0,z
2928.0,3069.0,3026.0,3475.0,4095.0,2929.0,3217.0,3418.0,-9.15,5.74,4.24,-0.65,0.34,0.29,1.0,z
2922.0,3068.0,3026.0,3473.0,4095.0,2928.0,3223.0,3427.0,-4.81,5.72,5.8,-1.26,1.29,1.35,1.0,z
2930.0,3065.0,3024.0,3473.0,4095.0,2922.0,3223.0,3419.0,2.28,8.26,9.58,-1.56,1.51,1.25,1.0,z
2928.0,3071.0,3037.0,3481.0,4095.0,2929.0,3229.0,3427.0,2.89,8.95,10.59,-0.76,0.51,0.96,1.0,z
2927.0,3081.0,3028.0,3489.0,4095.0,2929.0,3232.0,3434.0,0.58,7.16,7.99,-0.14,0.01,0.16,1.0,z
2919.0,3071.0,3021.0,3472.0,4095.0,2927.0,3220.0,3421.0,-1.17,6.45,7.74,-0.11,0.06,-0.06,1.0,z
2927.0,3024.0,3036.0,3487.0,4095.0,2937.0,3221.0,3410.0,-1.01,6.46,7.73,-0.1,0.05,-0.1,1.0,z
2922.0,3071.0,3022.0,3478.0,4095.0,2934.0,3225.0,3423.0,-1.07,6.58,7.81,-0.12,0.05,-0.08,1.0,z
2924.0,3085.0,3027.0,3479.0,4095.0,2929.0,3232.0,3435.0,-1.36,6.4,7.79,-0.1,0.02,-0.06,1.0,z
2921.0,3066.0,3022.0,3469.0,4095.0,2931.0,3227.0,3437.0,-1.51,6.39,7.86,-0.12,0.02,-0.07,1.0,z
2919.0,3086.0,3035.0,3471.0,4095.0,2937.0,3233.0,3424.0,-1.41,6.51,7.86,-0.06,0.04,-0.01,1.0,z
2928.0,3089.0,3035.0,3472.0,4095.0,2940.0,3248.0,3415.0,-4.22,5.83,3.62,0.19,-0.57,-0.83,1.0,z
2928.0,3088.0,3038.0,3486.0,4095.0,2929.0,3235.0,3432.0,-6.54,6.25,4.2,0.04,-0.26,-0.43,1.0,z
2930.0,3068.0,3015.0,3482.0,4095.0,2928.0,3234.0,3436.0,-10.72,4.88,3.65,-0.18,0.56,1.14,1.0,z
2921.0,3088.0,3028.0,3467.0,4095.0,2910.0,3230.0,3428.0,-0.31,7.71,5.38,-0.72,1.41,1.96,1.0,z
2916.0,3071.0,3026.0,3473.0,4095.0,2901.0,3222.0,3440.0,8.63,8.61,7.87,-0.57,1.06,1.29,1.0,z
2925.0,2973.0,3019.0,3475.0,4095.0,2910.0,3223.0,3425.0,11.1,8.47,6.25,0.01,-0.39,-0.51,1.0,z
2928.0,3107.0,3027.0,3469.0,4095.0,2919.0,3218.0,3425.0,4.77,5.78,6.68,-0.11,-1.56,-2.14,1.0,z
2922.0,3095.0,3024.0,3460.0,4095.0,2923.0,3222.0,3419.0,-5.13,6.07,5.92,-0.41,-1.84,-2.32,1.0,z
2916.0,3069.0,3035.0,3485.0,4095.0,2928.0,3218.0,3434.0,-15.18,3.14,7.0,-0.67,-0.23,-0.92,1.0,z
2923.0,3071.0,3037.0,3487.0,4095.0,2925.0,3222.0,3440.0,-9.21,4.16,6.58,-1.32,1.12,1.4,1.0,z
2932.0,3088.0,3024.0,3487.0,4095.0,2925.0,3234.0,3427.0,0.82,4.99,12.72,-1.42,1.54,2.33,1.0,z
2920.0,3088.0,3036.0,3475.0,4095.0,2929.0,3223.0,3421.0,5.08,6.38,12.09,-0.58,0.89,1.34,1.0,z
2928.0,3120.0,3032.0,3472.0,4095.0,2937.0,3226.0,3418.0,1.62,6.36,9.07,-0.07,0.15,0.41,1.0,z
2922.0,3089.0,3030.0,3472.0,4095.0,2931.0,3229.0,3440.0,-0.6,6.08,7.92,0.0,0.06,-0.11,1.0,z
2926.0,3081.0,3024.0,3474.0,4095.0,2929.0,3238.0,3429.0,-1.29,5.93,7.76,-0.09,0.0,-0.14,1.0,z
2924.0,3136.0,3025.0,3483.0,4095.0,2933.0,3235.0,3423.0,-1.42,6.12,7.85,-0.15,0.03,-0.12,1.0,z
2923.0,3035.0,3024.0,3490.0,4095.0,2931.0,3237.0,3440.0,-1.57,5.94,8.41,-0.09,0.05,-0.02,1.0,z
2927.0,3085.0,3024.0,3495.0,4095.0,2933.0,3232.0,3425.0,-1.45,6.04,7.94,-0.08,0.03,0.0,1.0,z
2917.0,3083.0,3025.0,3491.0,4095.0,2930.0,3226.0,3435.0,-1.59,5.75,8.35,-0.06,0.05,-0.03,1.0,z
2925.0,3071.0,3024.0,3488.0,4095.0,2933.0,3238.0,3426.0,-1.36,5.77,8.13,-0.06,0.01,-0.0,1.0,z
2928.0,3136.0,3022.0,3483.0,4095.0,2928.0,3218.0,3437.0,-2.51,9.19,3.9,-0.11,0.0,-0.13,1.0,z
2930.0,3071.0,3028.0,3483.0,4095.0,2924.0,3235.0,3417.0,-6.19,7.81,2.86,-0.1,0.16,-0.03,1.0,z
2929.0,3058.0,3037.0,3481.0,4095.0,2913.0,3229.0,3429.0,-8.82,6.91,1.69,-0.5,0.81,1.14,1.0,z
2927.0,3083.0,3038.0,3481.0,4095.0,2919.0,3231.0,3422.0,-1.1,7.41,6.48,-0.83,1.42,1.56,1.0,z
2928.0,3069.0,3033.0,3477.0,4095.0,2927.0,3217.0,3440.0,9.58,9.18,7.29,-0.7,0.82,0.9,1.0,z
2928.0,3094.0,3029.0,3488.0,4095.0,2928.0,3239.0,3422.0,8.32,5.87,6.87,-0.16,-0.58,-0.57,1.0,z
2915.0,3088.0,3038.0,3488.0,4095.0,2928.0,3243.0,3423.0,3.95,5.07,4.42,-0.32,-1.77,-1.71,1.0,z
2927.0,3082.0,3027.0,3475.0,4095.0,2932.0,3240.0,3424.0,-6.17,8.9,6.53,-1.22,-1.92,-2.06,1.0,z
2923.0,3079.0,3026.0,3469.0,4095.0,2933.0,3243.0,3427.0,-12.98,7.51,9.95,-0.6,-0.43,-0.73,1.0,z
2918.0,3071.0,3033.0,3479.0,4095.0,2929.0,3228.0,3427.0,-9.15,5.55,6.31,-0.41,1.27,1.12,1.0,z
2928.0,3071.0,3029.0,3456.0,4095.0,2939.0,3243.0,3421.0,-0.45,4.43,9.67,-0.91,1.77,2.24,1.0,z
2931.0,3118.0,3024.0,3472.0,4095.0,2935.0,3234.0,3413.0,4.45,6.3,10.66,-0.88,1.23,1.14,1.0,z
2919.0,3089.0,3025.0,3481.0,4095.0,2943.0,3235.0,3430.0,2.32,6.95,9.07,-0.23,0.38,0.57,1.0,z
2911.0,3088.0,3030.0,3470.0,4095.0,2939.0,3248.0,3435.0,-0.4,6.57,7.4,-0.09,-0.1,-0.03,1.0,z
2921.0,3079.0,3029.0,3485.0,4095.0,2933.0,3232.0,3427.0,-1.27,6.58,7.35,-0.04,-0.04,-0.12,1.0,z
2933.0,3089.0,3038.0,3477.0,4095.0,2950.0,3239.0,3438.0,-1.11,6.57,7.84,-0.09,-0.03,-0.15,1.0,z
2928.0,3089.0,3023.0,3479.0,4095.0,2943.0,3239.0,3440.0,-1.35,6.72,7.43,-0.06,-0.01,-0.09,1.0,z
2931.0,2960.0,3023.0,3485.0,4095.0,2940.0,3237.0,3430.0,-1.49,6.63,7.48,-0.09,0.03,-0.09,1.0,z
2938.0,3238.0,3039.0,3499.0,4095.0,2944.0,3243.0,3447.0,-1.58,6.57,7.74,-0.1,0.0,-0.06,1.0,z
2927.0,3111.0,3020.0,3498.0,4095.0,2939.0,3239.0,3442.0,-1.5,6.47,7.59,-0.1,0.01,-0.03,1.0,z
2930.0,3071.0,3024.0,3504.0,4095.0,2914.0,3227.0,3429.0,-2.85,8.68,3.03,0.01,-0.21,-0.23,1.0,z
2929.0,3085.0,3034.0,3484.0,4095.0,2918.0,3222.0,3431.0,-3.47,8.94,3.19,-0.03,-0.08,-0.16,1.0,z
2925.0,3023.0,3024.0,3504.0,4095.0,2910.0,3219.0,3423.0,-9.08,7.03,3.4,0.13,0.14,0.34,1.0,z
2919.0,3094.0,3034.0,3503.0,4095.0,2900.0,3216.0,3441.0,-4.31,8.49,2.38,-0.47,0.99,1.27,1.0,z
2919.0,3071.0,3023.0,3485.0,4095.0,2894.0,3191.0,3446.0,0.99,7.42,5.61,-0.83,1.47,1.39,1.0,z
2933.0,3087.0,3039.0,3461.0,4095.0,2898.0,3221.0,3446.0,8.59,9.72,7.84,-0.46,0.53,0.44,1.0,z
2930.0,3085.0,3042.0,3469.0,4095.0,2909.0,3217.0,3440.0,5.1,6.16,6.58,0.09,-0.53,-0.49,1.0,z
2929.0,3024.0,3030.0,3459.0,4095.0,2928.0,3233.0,3442.0,2.5,5.05,4.68,0.11,-1.42,-1.4,1.0,z
2928.0,3071.0,3034.0,3469.0,4095.0,2919.0,3233.0,3430.0,-2.36,9.78,4.34,-0.15,-1.94,-1.43,1.0,z
2939.0,3085.0,3037.0,3487.0,4095.0,2923.0,3234.0,3437.0,-8.36,11.76,5.84,-0.49,-1.09,-1.23,1.0,z
2931.0,3083.0,3031.0,3476.0,4095.0,2928.0,3229.0,3435.0,-9.61,9.0,5.07,-0.08,0.82,0.39,1.0,z
2913.0,3088.0,3024.0,3504.0,4095.0,2937.0,3235.0,3440.0,-5.79,5.62,4.39,-0.84,1.85,1.45,1.0,z
2911.0,3086.0,3029.0,3497.0,4095.0,2928.0,3239.0,3449.0,2.89,6.1,9.06,-1.38,1.37,1.62,1.0,z
2925.0,3090.0,3033.0,3495.0,4095.0,2930.0,3235.0,3445.0,3.81,7.99,9.27,-0.64,0.57,0.86,1.0,z
2918.0,3079.0,3044.0,3499.0,4095.0,2923.0,3245.0,3445.0,1.09,7.41,7.73,-0.11,0.07,0.14,1.0,z
2918.0,3088.0,3038.0,3504.0,4095.0,2933.0,3236.0,3449.0,-0.68,6.94,7.13,-0.09,0.02,-0.09,1.0,z
2931.0,3133.0,3027.0,3515.0,4095.0,2939.0,3236.0,3440.0,-0.8,7.19,7.43,-0.11,0.04,-0.11,1.0,z
2916.0,3087.0,3024.0,3493.0,4095.0,2935.0,3247.0,3439.0,-1.0,7.4,6.95,-0.04,0.03,-0.07,1.0,z
2927.0,3088.0,3033.0,3507.0,4095.0,2935.0,3239.0,3440.0,-0.84,7.28,7.0,-0.06,0.04,-0.05,1.0,z
2921.0,3071.0,3024.0,3519.0,4095.0,2931.0,3237.0,3446.0,-0.75,7.4,7.19,-0.0,-0.0,-0.04,1.0,z
2937.0,3129.0,3031.0,3504.0,4095.0,2903.0,3187.0,3413.0,-2.34,9.34,3.2,-0.1,-0.09,-0.18,1.0,z
2928.0,3071.0,3026.0,3504.0,4095.0,2896.0,3199.0,3408.0,-5.98,8.75,2.8,-0.17,0.15,-0.18,1.0,z
2920.0,3069.0,3026.0,3521.0,4095.0,2899.0,3196.0,3424.0,-8.41,8.0,1.78,-0.54,0.75,1.17,1.0,z
2928.0,3065.0,3015.0,3535.0,4095.0,2896.0,3201.0,3427.0,0.17,5.85,6.45,-0.68,1.02,2.13,1.0,z
2911.0,3070.0,3025.0,3553.0,4095.0,2899.0,3193.0,3428.0,11.55,7.96,7.15,-0.49,0.64,1.28,1.0,z
2916.0,3070.0,3031.0,3538.0,4095.0,2907.0,3202.0,3428.0,11.13,7.07,5.61,-0.15,-0.37,-1.53,1.0,z
2926.0,3067.0,3055.0,3550.0,4095.0,2896.0,3206.0,3415.0,0.8,5.41,5.22,-0.04,-1.76,-2.37,1.0,z
2915.0,3067.0,3030.0,3537.0,4095.0,2912.0,3191.0,3434.0,-6.2,8.5,5.29,-0.95,-1.78,-2.0,1.0,z
2925.0,2990.0,3035.0,3523.0,4095.0,2903.0,3194.0,3439.0,-14.69,6.94,8.56,-0.7,-0.0,-0.51,1.0,z
2922.0,3088.0,3025.0,3523.0,4095.0,2909.0,3212.0,3427.0,-8.53,5.85,7.03,-0.72,1.34,1.94,1.0,z
2915.0,2990.0,3024.0,3555.0,4095.0,2912.0,3214.0,3423.0,0.36,4.29,8.39,-0.89,1.64,2.44,1.0,z
2910.0,3068.0,3035.0,3567.0,4095.0,2909.0,3203.0,3440.0,7.74,7.37,9.45,-0.69,1.02,1.14,1.0,z
2926.0,3159.0,3024.0,3564.0,4095.0,2911.0,3216.0,3440.0,1.95,6.89,8.15,-0.2,0.21,0.25,1.0,z
2933.0,3088.0,3027.0,3537.0,4095.0,2902.0,3209.0,3445.0,-0.28,6.86,7.74,-0.19,-0.02,-0.08,1.0,z
2926.0,3152.0,3028.0,3562.0,4095.0,2919.0,3226.0,3443.0,-0.19,6.8,7.5,-0.1,-0.01,-0.05,1.0,z
2926.0,3088.0,3028.0,3549.0,4095.0,2912.0,3216.0,3439.0,-0.4,6.72,7.77,-0.12,0.02,-0.06,1.0,z
2923.0,2975.0,3030.0,3549.0,4095.0,2921.0,3215.0,3440.0,-0.52,6.79,7.72,-0.08,0.08,-0.08,1.0,z
2922.0,3009.0,3030.0,3563.0,4095.0,2914.0,3213.0,3429.0,-0.32,6.79,7.68,-0.08,0.02,-0.09,1.0,z
2928.0,3071.0,3024.0,3543.0,4095.0,2922.0,3215.0,3440.0,-0.41,6.74,7.65,-0.06,0.01,-0.04,1.0,z
2921.0,3091.0,3025.0,3551.0,4095.0,2922.0,3219.0,3443.0,-0.49,6.55,7.87,-0.02,0.07,-0.07,1.0,z
2918.0,3087.0,3035.0,3536.0,4095.0,2928.0,3203.0,3440.0,-1.99,8.97,4.51,-0.15,-0.02,-0.09,1.0,z
2919.0,3082.0,3024.0,3527.0,4095.0,2939.0,3207.0,3455.0,-3.61,8.32,4.29,-0.16,0.0,-0.07,1.0,z
2925.0,2991.0,3029.0,3531.0,4095.0,2928.0,3211.0,3443.0,-11.03,6.22,4.02,-0.26,0.74,1.0,1.0,z
2926.0,3071.0,3029.0,3532.0,4095.0,2923.0,3216.0,3451.0,-1.23,6.88,5.74,-0.63,1.69,2.05,1.0,z
2928.0,3069.0,3039.0,3535.0,4095.0,2939.0,3201.0,3440.0,10.24,7.5,8.45,-0.82,0.99,1.76,1.0,z
2926.0,2998.0,3024.0,3541.0,4095.0,2928.0,3209.0,3438.0,11.28,8.37,7.23,-0.02,-0.41,-0.84,1.0,z
2918.0,3067.0,3027.0,3543.0,4095.0,2931.0,3211.0,3441.0,3.18,6.05,5.02,-0.14,-1.78,-1.98,1.0,z
2929.0,3086.0,3026.0,3520.0,4095.0,2931.0,3215.0,3440.0,-3.74,7.52,5.75,-0.78,-1.75,-2.31,1.0,z
2929.0,3086.0,3038.0,3527.0,4095.0,2928.0,3216.0,3457.0,-12.28,5.93,7.83,-0.66,-0.19,-1.02,1.0,z
2928.0,3082.0,3013.0,3547.0,4095.0,2928.0,3219.0,3462.0,-8.85,5.48,7.2,-0.74,1.13,1.29,1.0,z
2922.0,3089.0,3025.0,3533.0,4095.0,2934.0,3217.0,3456.0,-0.75,4.69,9.58,-0.89,1.48,2.38,1.0,z
2933.0,3068.0,3025.0,3526.0,4095.0,2928.0,3211.0,3440.0,4.94,6.85,10.1,-0.44,0.92,1.31,1.0,z
2917.0,3063.0,3031.0,3542.0,4095.0,2928.0,3218.0,3446.0,2.36,7.04,8.22,-0.18,0.15,0.47,1.0,z
2918.0,3136.0,3031.0,3549.0,4095.0,2928.0,3211.0,3451.0,-0.1,6.48,7.98,-0.08,0.01,0.01,1.0,z
2928.0,3071.0,3043.0,3536.0,4095.0,2934.0,3216.0,3440.0,-0.19,6.51,7.87,-0.05,0.01,-0.11,1.0,z
2929.0,3092.0,3026.0,3537.0,4095.0,2931.0,3218.0,3453.0,-0.17,6.44,7.86,-0.04,0.0,-0.11,1.0,z
2922.0,3084.0,3022.0,3534.0,4095.0,2932.0,3221.0,3451.0,-0.44,6.58,7.91,-0.08,0.02,-0.09,1.0,z
2919.0,3067.0,3026.0,3536.0,4095.0,2936.0,3223.0,3440.0,-0.81,6.53,7.75,-0.06,0.03,-0.1,1.0,z
2921.0,3089.0,3025.0,3552.0,4095.0,2937.0,3225.0,3446.0,-0.44,6.57,7.95,-0.06,-0.02,-0.07,1.0,z
2929.0,3056.0,3024.0,3542.0,4095.0,2934.0,3216.0,3439.0,-0.45,6.66,7.91,0.07,-0.04,-0.09,1.0,z
2923.0,3103.0,3024.0,3529.0,4095.0,2926.0,3216.0,3451.0,-2.01,9.58,3.69,-0.15,-0.04,-0.2,1.0,z
2923.0,3071.0,3025.0,3536.0,4095.0,2928.0,3217.0,3440.0,-2.61,8.9,3.76,-0.16,-0.03,-0.05,1.0,z
2929.0,3071.0,3037.0,3525.0,4095.0,2928.0,3210.0,3456.0,-6.84,8.2,3.36,-0.19,0.45,0.23,1.0,z
2918.0,3084.0,3024.0,3549.0,4095.0,2927.0,3220.0,3440.0,-4.94,7.33,3.64,-0.66,1.26,1.67,1.0,z
2928.0,3070.0,3027.0,3546.0,4095.0,2922.0,3216.0,3446.0,2.5,5.87,6.71,-0.9,1.13,1.79,1.0,z
2919.0,3063.0,3033.0,3549.0,4095.0,2913.0,3210.0,3440.0,13.32,9.19,8.77,-0.29,0.17,0.18,1.0,z
2931.0,3085.0,3035.0,3537.0,4095.0,2929.0,3218.0,3456.0,5.15,4.49,6.18,-0.14,-1.0,-1.4,1.0,z
2938.0,3069.0,3024.0,3559.0,4095.0,2937.0,3215.0,3458.0,1.38,7.46,4.07,-0.4,-1.77,-2.37,1.0,z
2926.0,3085.0,3024.0,3537.0,4095.0,2934.0,3215.0,3462.0,-9.09,6.18,6.78,-1.14,-1.33,-2.23,1.0,z
2928.0,3058.0,3027.0,3553.0,4095.0,2928.0,3216.0,3453.0,-14.24,6.45,8.54,-0.82,0.58,0.23,1.0,z
2926.0,3120.0,3039.0,3546.0,4095.0,2935.0,3209.0,3463.0,-5.59,3.74,9.75,-0.9,1.51,2.49,1.0,z
2928.0,3042.0,3022.0,3539.0,4095.0,2926.0,3214.0,3451.0,3.21,4.67,9.9,-0.78,1.41,2.31,1.0,z
2931.0,3070.0,3029.0,3553.0,4095.0,2935.0,3237.0,3463.0,5.13,7.13,9.2,-0.31,0.61,0.86,1.0,z
2928.0,3088.0,3034.0,3538.0,4095.0,2943.0,3206.0,3471.0,0.93,6.96,8.04,-0.13,0.08,0.14,1.0,z
2925.0,3081.0,3037.0,3550.0,4095.0,2941.0,3216.0,3447.0,-0.96,6.55,7.76,-0.14,0.01,-0.09,1.0,z
2919.0,3069.0,3024.0,3551.0,4095.0,2943.0,3214.0,3461.0,-0.83,6.45,7.67,-0.09,0.03,-0.06,1.0,z
2918.0,3133.0,3024.0,3557.0,4095.0,2937.0,3227.0,3445.0,-0.79,6.48,8.08,-0.09,0.0,-0.1,1.0,z
2927.0,3083.0,3038.0,3554.0,4095.0,2943.0,3221.0,3451.0,-1.13,6.51,7.92,0.0,0.0,-0.08,1.0,z
2926.0,3088.0,3024.0,3554.0,4095.0,2939.0,3215.0,3454.0,-0.96,6.67,7.75,0.0,0.01,-0.08,1.0,z
2928.0,3082.0,3033.0,3536.0,4095.0,2945.0,3221.0,3456.0,-0.95,6.59,7.64,-0.01,0.01,-0.07,1.0,z
2917.0,3061.0,3025.0,3508.0,4095.0,2934.0,3217.0,3443.0,-4.49,8.54,3.57,-0.15,0.31,0.08,1.0,z
2925.0,3086.0,3026.0,3491.0,4095.0,2922.0,3215.0,3451.0,-7.99,7.61,3.55,-0.19,1.19,1.05,1.0,z
2921.0,3097.0,3012.0,3477.0,4095.0,2924.0,3219.0,3456.0,-0.42,8.04,4.63,-0.55,1.78,1.57,1.0,z
2928.0,3087.0,3027.0,3485.0,4095.0,2930.0,3209.0,3451.0,8.73,8.88,6.84,-0.52,0.78,0.94,1.0,z
2917.0,3082.0,3039.0,3504.0,4095.0,2926.0,3211.0,3455.0,8.52,8.67,5.28,0.08,-0.71,-0.67,1.0,z
2919.0,3092.0,3038.0,3504.0,4095.0,2935.0,3216.0,3457.0,3.13,7.86,3.38,-0.21,-2.02,-1.77,1.0,z
2921.0,3061.0,3035.0,3487.0,4095.0,2928.0,3211.0,3434.0,-3.2,8.55,3.65,-0.64,-1.83,-1.77,1.0,z
2922.0,3069.0,3026.0,3518.0,4095.0,2933.0,3216.0,3470.0,-11.46,5.69,7.48,-0.85,-0.28,-1.12,1.0,z
2928.0,3091.0,3025.0,3495.0,4095.0,2931.0,3216.0,3447.0,-9.96,5.52,6.39,-0.75,1.27,1.43,1.0,z
2928.0,3082.0,3024.0,3504.0,4095.0,2937.0,3226.0,3447.0,0.91,6.62,8.91,-0.92,1.54,2.21,1.0,z
2928.0,3071.0,3025.0,3498.0,4095.0,2931.0,3226.0,3454.0,5.5,8.42,8.78,-0.54,1.02,1.22,1.0,z
2925.0,3131.0,3030.0,3519.0,4095.0,2935.0,3227.0,3462.0,1.47,7.89,7.64,-0.17,0.37,0.33,1.0,z
2928.0,3011.0,3037.0,3526.0,4095.0,2947.0,3229.0,3463.0,0.36,7.3,7.21,-0.07,0.08,0.07,1.0,z
2928.0,3062.0,3039.0,3534.0,4095.0,2946.0,3216.0,3447.0,-0.14,7.48,7.14,-0.11,-0.03,-0.1,1.0,z
2919.0,3071.0,3032.0,3517.0,4095.0,2939.0,3216.0,3470.0,-0.51,7.5,6.83,-0.11,-0.0,-0.09,1.0,z
2930.0,3071.0,3029.0,3504.0,4095.0,2947.0,3216.0,3463.0,-0.73,7.25,7.28,-0.07,0.03,-0.11,1.0,z
2923.0,3248.0,3025.0,3523.0,4095.0,2935.0,3229.0,3451.0,-0.73,7.35,6.9,-0.09,0.04,-0.05,1.0,z
2923.0,3098.0,3057.0,3528.0,4095.0,2944.0,3229.0,3462.0,-0.68,7.24,7.31,-0.11,0.01,-0.07,1.0,z
2919.0,3123.0,3029.0,3520.0,4095.0,2956.0,3226.0,3459.0,-0.87,7.13,7.1,-0.07,0.02,-0.05,1.0,z
2917.0,3065.0,3029.0,3523.0,4095.0,2941.0,3217.0,3465.0,-0.71,7.25,7.16,-0.08,0.03,-0.04,1.0,z
2916.0,3069.0,3023.0,3534.0,4095.0,2948.0,3215.0,3459.0,-2.12,7.7,4.87,-0.0,0.06,-0.12,1.0,z
2928.0,3068.0,3037.0,3520.0,4095.0,2950.0,3233.0,3469.0,-2.35,8.24,4.74,-0.14,0.16,-0.02,1.0,z
2926.0,3071.0,3027.0,3520.0,4095.0,2947.0,3221.0,3456.0,-9.88,5.46,5.51,-0.16,0.82,0.48,1.0,z
2932.0,3071.0,3025.0,3529.0,4095.0,2939.0,3225.0,3463.0,-2.03,7.38,5.44,-0.47,1.61,1.81,1.0,z
2927.0,3066.0,3024.0,3519.0,4095.0,2938.0,3214.0,3472.0,7.14,8.38,6.99,-0.44,1.21,1.75,1.0,z
2927.0,3088.0,3029.0,3519.0,4095.0,2947.0,3216.0,3450.0,10.69,9.29,7.45,-0.05,-0.31,-0.38,1.0,z
2915.0,3137.0,3024.0,3534.0,4095.0,2942.0,3219.0,3455.0,3.94,7.16,4.78,0.08,-1.71,-1.88,1.0,z
2928.0,3008.0,3034.0,3514.0,4095.0,2947.0,3218.0,3462.0,-3.67,6.58,5.2,-0.59,-1.85,-2.1,1.0,z
2925.0,3083.0,3029.0,3534.0,4095.0,2944.0,3221.0,3459.0,-11.52,5.1,7.75,-0.74,-0.24,-1.05,1.0,z
2939.0,3087.0,3043.0,3536.0,4095.0,2945.0,3218.0,3467.0,-8.17,5.47,6.34,-0.84,0.95,1.32,1.0,z
2927.0,3071.0,3026.0,3526.0,4095.0,2941.0,3231.0,3463.0,-0.25,5.28,9.28,-0.9,1.53,1.82,1.0,z
2927.0,3066.0,3025.0,3516.0,4095.0,2949.0,3223.0,3472.0,3.12,6.78,10.08,-0.67,1.08,1.32,1.0,z
2922.0,3065.0,3028.0,3531.0,4095.0,2943.0,3219.0,3474.0,1.78,7.62,8.6,-0.21,0.45,0.49,1.0,z
2930.0,3083.0,3024.0,3503.0,4095.0,2941.0,3221.0,3455.0,-0.11,6.85,7.76,-0.01,0.03,0.05,1.0,z
2927.0,3087.0,3031.0,3519.0,4095.0,2950.0,3223.0,3466.0,-1.01,6.44,7.55,-0.02,0.02,-0.03,1.0,z
2928.0,3071.0,3031.0,3537.0,4095.0,2948.0,3217.0,3472.0,-0.76,6.63,7.52,-0.09,0.05,-0.06,1.0,z
2929.0,3087.0,3024.0,3536.0,4095.0,2954.0,3237.0,3462.0,-0.88,6.39,7.93,-0.06,0.03,-0.07,1.0,z
2927.0,3071.0,3024.0,3517.0,4095.0,2946.0,3229.0,3453.0,-0.74,6.57,7.69,-0.08,0.01,-0.11,1.0,z
2923.0,3088.0,3027.0,3520.0,4095.0,2946.0,3228.0,3458.0,-1.06,6.44,8.03,-0.07,0.02,-0.09,1.0,z
2923.0,3094.0,3026.0,3520.0,4095.0,2941.0,3232.0,3468.0,-1.16,6.37,7.8,-0.07,0.02,-0.07,1.0,z
2928.0,3071.0,3024.0,3541.0,4095.0,2938.0,3229.0,3466.0,-2.27,9.0,3.85,-0.06,0.02,-0.1,1.0,z
2918.0,3071.0,3034.0,3526.0,4095.0,2943.0,3230.0,3456.0,-2.23,9.12,3.88,-0.07,0.09,-0.06,1.0,z
2923.0,3059.0,3037.0,3524.0,4095.0,2941.0,3203.0,3455.0,-8.79,7.42,3.8,-0.13,0.62,0.26,1.0,z
2926.0,3090.0,3023.0,3547.0,4095.0,2945.0,3216.0,3463.0,-3.6,8.0,3.86,-0.54,1.56,1.78,1.0,z
2929.0,3071.0,3029.0,3534.0,4095.0,2953.0,3232.0,3453.0,4.79,6.71,7.61,-0.87,1.13,1.86,1.0,z
2921.0,3055.0,3026.0,3523.0,4095.0,2938.0,3215.0,3439.0,10.94,7.0,7.78,-0.12,0.13,0.05,1.0,z
2922.0,3013.0,3025.0,3521.0,4095.0,2945.0,3222.0,3457.0,5.59,5.29,5.57,-0.09,-1.15,-1.47,1.0,z
2915.0,3137.0,3037.0,3535.0,4095.0,2949.0,3225.0,3470.0,-1.13,7.75,4.17,-0.48,-2.03,-2.08,1.0,z
2919.0,3063.0,3042.0,3530.0,4095.0,2940.0,3222.0,3465.0,-8.83,7.37,7.95,-1.28,-1.0,-2.09,1.0,z
2918.0,3079.0,3024.0,3526.0,4095.0,2951.0,3223.0,3455.0,-11.78,6.4,7.59,-0.56,0.82,0.34,1.0,z
2921.0,3114.0,3023.0,3536.0,4095.0,2957.0,3221.0,3471.0,-6.04,3.93,8.61,-0.86,1.55,2.12,1.0,z
2928.0,3071.0,3024.0,3527.0,4095.0,2943.0,3232.0,3472.0,3.76,6.36,9.44,-0.62,1.54,1.75,1.0,z
2925.0,3209.0,3024.0,3538.0,4095.0,2947.0,3227.0,3457.0,3.16,7.64,8.07,-0.27,0.72,0.74,1.0,z
2926.0,3071.0,3032.0,3535.0,4095.0,2945.0,3226.0,3470.0,0.66,7.23,7.46,-0.11,0.13,0.11,1.0,z
2919.0,3071.0,3038.0,3527.0,4095.0,2950.0,3226.0,3457.0,-1.08,6.88,7.2,-0.18,0.03,-0.11,1.0,z
2928.0,3069.0,3031.0,3526.0,4095.0,2954.0,3241.0,3470.0,-1.02,6.93,7.36,-0.16,-0.0,-0.08,1.0,z
2914.0,3070.0,3030.0,3534.0,4095.0,2947.0,3227.0,3478.0,-1.28,6.71,7.66,-0.1,0.04,-0.1,1.0,z
2928.0,3086.0,3024.0,3536.0,4095.0,2943.0,3230.0,3472.0,-1.37,6.87,7.5,-0.11,0.01,-0.09,1.0,z
2915.0,3066.0,3027.0,3533.0,4095.0,2947.0,3235.0,3466.0,-1.43,6.72,7.63,-0.11,0.01,0.0,1.0,z
2938.0,3071.0,3015.0,3533.0,4095.0,2956.0,3231.0,3471.0,-1.26,6.64,7.55,-0.04,-0.02,-0.0,1.0,z
2934.0,2982.0,3027.0,3523.0,4095.0,2959.0,3242.0,3469.0,-1.91,8.83,4.81,-0.03,0.07,-0.09,1.0,z
2928.0,3089.0,3024.0,3541.0,4095.0,2960.0,3229.0,3466.0,-6.06,6.95,4.72,-0.05,0.23,0.03,1.0,z
2914.0,3071.0,3026.0,3536.0,4095.0,2915.0,3235.0,3469.0,-8.32,5.67,3.64,-0.36,1.23,1.7,1.0,z
2915.0,3085.0,3026.0,3539.0,4095.0,2934.0,3233.0,3469.0,2.75,6.81,7.86,-0.57,1.2,2.34,1.0,z
2928.0,3071.0,3035.0,3556.0,4095.0,2935.0,3216.0,3450.0,12.72,8.37,7.48,-0.24,0.81,0.77,1.0,z
2925.0,3083.0,3039.0,3541.0,4095.0,2930.0,3226.0,3454.0,8.62,7.03,6.03,-0.01,-0.86,-1.39,1.0,z
2927.0,3066.0,3031.0,3542.0,4095.0,2940.0,3222.0,3456.0,1.71,7.59,4.77,-0.35,-2.05,-2.32,1.0,z
2929.0,3046.0,3031.0,3536.0,4095.0,2951.0,3227.0,3459.0,-8.49,5.49,8.09,-1.19,-1.32,-2.05,1.0,z
2918.0,3081.0,3026.0,3539.0,4095.0,2938.0,3227.0,3471.0,-13.44,5.25,6.65,-0.57,0.72,-0.0,1.0,z
2928.0,3101.0,3038.0,3558.0,4095.0,2951.0,3220.0,3462.0,-5.6,4.18,7.88,-1.32,1.49,2.19,1.0,z
2937.0,3091.0,3025.0,3561.0,4095.0,2937.0,3221.0,3467.0,4.83,6.51,11.71,-0.68,1.24,1.85,1.0,z
2928.0,3083.0,3024.0,3554.0,4095.0,2951.0,3226.0,3457.0,3.14,7.29,8.34,-0.21,0.52,0.7,1.0,z
2933.0,3082.0,3034.0,3533.0,4095.0,2950.0,3219.0,3472.0,0.39,7.29,7.61,-0.11,0.01,0.14,1.0,z
2915.0,3071.0,3038.0,3546.0,4095.0,2959.0,3238.0,3471.0,-1.07,6.86,7.37,-0.06,0.02,-0.09,1.0,z
2917.0,3216.0,3028.0,3552.0,4095.0,2942.0,3237.0,3465.0,-0.77,6.75,7.38,-0.05,-0.02,-0.01,1.0,z
2924.0,3054.0,3025.0,3549.0,4095.0,2950.0,3234.0,3471.0,-0.98,6.8,7.46,-0.1,0.03,-0.09,1.0,z
2921.0,3085.0,3033.0,3549.0,4095.0,2947.0,3233.0,3467.0,-0.98,6.94,7.3,-0.11,0.05,-0.08,1.0,z
2918.0,3084.0,3024.0,3543.0,4095.0,2942.0,3231.0,3461.0,-0.88,6.77,7.85,-0.06,0.02,-0.05,1.0,z
2933.0,3088.0,3025.0,3540.0,4095.0,2950.0,3233.0,3473.0,-0.96,6.79,7.53,-0.0,-0.01,-0.03,1.0,z
2934.0,3071.0,3029.0,3563.0,4095.0,2957.0,3230.0,3473.0,-1.08,6.82,7.44,0.0,-0.01,-0.1,1.0,z
2935.0,3087.0,3028.0,3508.0,4095.0,2923.0,3225.0,3455.0,-1.85,8.49,3.05,-0.12,-0.11,-0.2,1.0,z
2911.0,3088.0,3024.0,3507.0,4095.0,2928.0,3221.0,3467.0,-3.11,8.95,2.94,-0.15,0.08,-0.13,1.0,z
2928.0,3063.0,3022.0,3519.0,4095.0,2922.0,3222.0,3466.0,-7.31,7.04,3.21,-0.12,0.78,0.38,1.0,z
2928.0,3071.0,3023.0,3504.0,4095.0,2928.0,3223.0,3478.0,-3.64,8.32,3.42,-0.57,1.47,1.4,1.0,z
2913.0,3071.0,3041.0,3535.0,4095.0,2926.0,3216.0,3457.0,3.96,8.55,6.68,-0.59,1.2,1.64,1.0,z
2935.0,3083.0,3027.0,3527.0,4095.0,2928.0,3215.0,3468.0,10.39,9.26,6.43,-0.35,0.15,0.41,1.0,z
2928.0,3065.0,3031.0,3523.0,4095.0,2927.0,3213.0,3453.0,6.6,7.88,4.9,-0.05,-1.06,-1.42,1.0,z
2935.0,3070.0,3024.0,3519.0,4095.0,2923.0,3233.0,3461.0,-0.41,6.95,3.62,-0.2,-1.84,-2.0,1.0,z
2933.0,3071.0,3027.0,3532.0,4095.0,2944.0,3218.0,3481.0,-8.4,6.18,6.41,-1.0,-1.35,-1.94,1.0,z
2922.0,3070.0,3024.0,3534.0,4095.0,2931.0,3233.0,3471.0,-12.92,6.44,5.09,-0.52,0.41,0.26,1.0,z
2918.0,3088.0,3025.0,3533.0,4095.0,2941.0,3221.0,3472.0,-4.65,5.74,5.77,-1.08,1.78,1.84,1.0,z
2926.0,3081.0,3034.0,3515.0,4095.0,2938.0,3230.0,3472.0,4.41,7.3,10.72,-1.1,1.47,1.54,1.0,z
2931.0,3136.0,3037.0,3525.0,4095.0,2946.0,3221.0,3471.0,2.91,8.6,8.72,-0.39,0.57,0.59,1.0,z
2918.0,3079.0,3024.0,3520.0,4095.0,2950.0,3231.0,3465.0,0.0,7.21,7.67,-0.05,0.12,0.07,1.0,z
2927.0,3055.0,3027.0,3536.0,4095.0,2941.0,3218.0,3483.0,-0.89,7.12,7.02,-0.04,0.07,-0.09,1.0,z
2919.0,3087.0,3024.0,3519.0,4095.0,2946.0,3219.0,3472.0,-0.86,7.46,7.26,-0.01,0.03,-0.15,1.0,z
2919.0,3253.0,3024.0,3530.0,4095.0,2944.0,3221.0,3475.0,-1.2,7.27,6.98,0.02,-0.01,-0.11,1.0,z
2928.0,3079.0,3031.0,3520.0,4095.0,2943.0,3220.0,3472.0,-1.38,7.3,6.9,-0.04,-0.02,-0.14,1.0,z
2928.0,3069.0,3027.0,3529.0,4095.0,2953.0,3223.0,3466.0,-1.21,7.25,7.0,-0.04,-0.04,-0.08,1.0,z
2919.0,3062.0,3027.0,3527.0,4095.0,2944.0,3222.0,3469.0,-1.36,7.29,6.6,-0.07,-0.02,-0.08,1.0,z
2918.0,3087.0,3026.0,3525.0,4095.0,2945.0,3217.0,3469.0,-2.02,9.38,3.44,-0.15,0.03,-0.11,1.0,z
2918.0,3064.0,3024.0,3536.0,4095.0,2960.0,3223.0,3482.0,-5.17,7.97,3.89,-0.19,0.25,-0.11,1.0,z
2915.0,3071.0,3027.0,3526.0,4095.0,2947.0,3232.0,3472.0,-9.89,6.19,4.05,-0.11,1.02,1.27,1.0,z
2928.0,3066.0,3024.0,3546.0,4095.0,2949.0,3223.0,3461.0,-0.4,7.12,5.81,-0.53,1.9,1.86,1.0,z
2922.0,3066.0,3027.0,3536.0,4095.0,2939.0,3221.0,3451.0,11.58,9.51,6.39,-0.66,0.99,1.24,1.0,z
2920.0,3082.0,3024.0,3526.0,4095.0,2944.0,3230.0,3472.0,10.23,7.76,5.94,-0.18,-0.92,-0.9,1.0,z
2917.0,3067.0,3030.0,3534.0,4095.0,2955.0,3222.0,3472.0,1.8,7.33,3.55,-0.5,-2.12,-1.88,1.0,z
2923.0,3088.0,3040.0,3535.0,4095.0,2943.0,3230.0,3465.0,-7.2,5.01,7.91,-1.47,-1.55,-2.0,1.0,z
2928.0,3067.0,3023.0,3542.0,4095.0,2947.0,3233.0,3467.0,-12.17,5.39,7.6,-0.91,0.19,-0.21,1.0,z
2928.0,3057.0,3021.0,3520.0,4095.0,2939.0,3219.0,3472.0,-5.56,4.72,8.82,-1.33,1.33,1.69,1.0,z
2919.0,3009.0,3031.0,3531.0,4095.0,2935.0,3230.0,3471.0,3.13,6.2,11.42,-0.88,1.32,1.92,1.0,z
2905.0,3031.0,3015.0,3504.0,4095.0,2944.0,3219.0,3455.0,4.18,7.08,9.77,-0.32,0.41,0.94,1.0,z
2914.0,3071.0,3025.0,3508.0,4095.0,2929.0,3238.0,3478.0,1.05,6.73,8.38,-0.02,-0.04,0.23,1.0,z
2908.0,3051.0,3035.0,3522.0,4095.0,2947.0,3237.0,3479.0,-0.28,6.26,7.95,0.03,0.01,0.01,1.0,z
2917.0,3071.0,3024.0,3529.0,4095.0,2947.0,3219.0,3470.0,-0.08,6.41,7.58,-0.05,0.06,-0.02,1.0,z
2925.0,3082.0,3027.0,3520.0,4095.0,2944.0,3236.0,3474.0,-0.55,6.31,8.02,-0.09,0.05,-0.07,1.0,z
2925.0,3067.0,3028.0,3537.0,4095.0,2937.0,3227.0,3477.0,-0.46,6.39,7.93,-0.07,0.02,-0.06,1.0,z
2928.0,3105.0,3034.0,3536.0,4095.0,2953.0,3231.0,3470.0,-0.55,6.23,8.31,-0.04,0.03,-0.07,1.0,z
2928.0,3056.0,3027.0,3527.0,4095.0,2943.0,3226.0,3483.0,-0.63,6.38,8.11,-0.02,0.03,-0.06,1.0,z
2923.0,3045.0,3035.0,3536.0,4095.0,2951.0,3221.0,3475.0,-0.37,6.54,8.87,0.15,-0.02,0.02,1.0,z
2926.0,3132.0,3024.0,3535.0,4095.0,2947.0,3231.0,3485.0,-2.42,8.83,3.92,-0.05,-0.06,-0.03,1.0,z
2918.0,3119.0,3024.0,3545.0,4095.0,2941.0,3235.0,3478.0,-5.86,7.53,3.92,-0.07,0.21,0.05,1.0,z
2924.0,3118.0,3024.0,3531.0,4095.0,2941.0,3241.0,3486.0,-7.78,6.17,2.55,-0.41,1.02,1.65,1.0,z
2928.0,3043.0,3033.0,3539.0,4095.0,2945.0,3225.0,3472.0,2.64,7.95,5.77,-0.88,1.59,2.01,1.0,z
2930.0,3068.0,3030.0,3536.0,4095.0,2939.0,3227.0,3463.0,11.63,9.3,8.06,-0.69,0.95,0.66,1.0,z
2923.0,3071.0,3038.0,3526.0,4095.0,2943.0,3241.0,3462.0,7.35,7.62,5.6,-0.11,-0.91,-1.0,1.0,z
2933.0,3174.0,3036.0,3535.0,4095.0,2947.0,3234.0,3475.0,1.46,7.51,5.0,-0.27,-2.06,-1.88,1.0,z
2925.0,3059.0,3037.0,3537.0,4095.0,2943.0,3245.0,3476.0,-6.39,7.47,7.16,-0.77,-1.73,-1.38,1.0,z
2929.0,3071.0,3024.0,3533.0,4095.0,2948.0,3227.0,3486.0,-9.99,6.15,8.42,-0.45,0.41,-0.12,1.0,z
2928.0,3070.0,3039.0,3546.0,4095.0,2955.0,3229.0,3489.0,-5.27,4.6,7.28,-0.67,1.54,1.45,1.0,z
2924.0,3088.0,3023.0,3539.0,4095.0,2947.0,3231.0,3484.0,3.15,6.49,9.44,-0.93,1.74,1.72,1.0,z
2931.0,3115.0,3024.0,3538.0,4095.0,2960.0,3237.0,3467.0,3.22,6.97,10.49,-0.54,0.68,1.23,1.0,z
2931.0,3081.0,3019.0,3536.0,4095.0,2951.0,3231.0,3478.0,2.51,7.4,8.08,-0.1,0.11,0.42,1.0,z
2928.0,3088.0,3030.0,3539.0,4095.0,2959.0,3238.0,3489.0,0.08,6.51,7.57,-0.1,-0.0,-0.05,1.0,z
2931.0,3070.0,3040.0,3531.0,4095.0,2959.0,3245.0,3477.0,-0.67,6.43,7.69,-0.16,0.06,-0.06,1.0,z
2921.0,3081.0,3038.0,3518.0,4095.0,2960.0,3227.0,3472.0,-0.33,6.52,7.8,-0.14,0.06,-0.01,1.0,z
2927.0,3089.0,3030.0,3542.0,4095.0,2958.0,3241.0,3489.0,-0.38,6.44,7.86,-0.16,0.07,-0.05,1.0,z
2911.0,3093.0,3026.0,3526.0,4095.0,2950.0,3237.0,3487.0,-0.38,6.38,8.02,-0.16,0.04,-0.04,1.0,z
2928.0,3086.0,3024.0,3536.0,4095.0,2957.0,3242.0,3487.0,-0.58,6.43,8.04,-0.08,0.03,-0.08,1.0,z
2914.0,3086.0,3030.0,3543.0,4095.0,2956.0,3237.0,3487.0,-0.72,6.48,7.95,-0.03,0.03,-0.04,1.0,z
2928.0,3066.0,3033.0,3529.0,4095.0,2953.0,3230.0,3463.0,-1.94,8.57,4.73,-0.13,0.08,-0.04,1.0,z
2927.0,3084.0,3024.0,3543.0,4095.0,2960.0,3243.0,3478.0,-5.22,7.13,5.55,-0.18,0.48,0.08,1.0,z
2928.0,3136.0,3018.0,3541.0,4095.0,2958.0,3233.0,3487.0,-7.86,7.4,3.38,-0.12,1.34,1.22,1.0,z
2918.0,3069.0,3021.0,3538.0,4095.0,2959.0,3234.0,3490.0,4.19,7.22,6.46,-0.74,1.58,2.34,1.0,z
2928.0,3233.0,3019.0,3549.0,4095.0,2954.0,3236.0,3474.0,12.01,8.68,8.57,-0.42,0.64,0.78,1.0,z
2915.0,3089.0,3034.0,3551.0,4095.0,2960.0,3230.0,3483.0,7.68,6.75,5.72,0.02,-0.88,-1.19,1.0,z
2921.0,3071.0,3029.0,3542.0,4095.0,2960.0,3241.0,3472.0,0.96,6.81,4.71,-0.45,-1.85,-1.88,1.0,z
2921.0,3084.0,3023.0,3550.0,4095.0,2960.0,3233.0,3471.0,-7.44,5.87,8.74,-1.1,-1.11,-1.86,1.0,z
2926.0,3051.0,3034.0,3549.0,4095.0,2957.0,3241.0,3489.0,-10.39,5.45,7.18,-0.42,0.6,0.3,1.0,z
2906.0,3067.0,3026.0,3543.0,4095.0,2947.0,3245.0,3470.0,-4.57,4.05,7.64,-1.07,1.48,2.06,1.0,z
2923.0,3086.0,3035.0,3536.0,4095.0,2951.0,3230.0,3482.0,6.13,6.52,11.43,-0.91,1.23,1.72,1.0,z
2927.0,3067.0,3045.0,3549.0,4095.0,2950.0,3244.0,3495.0,4.24,6.95,9.62,-0.25,0.28,0.72,1.0,z
2927.0,3119.0,3025.0,3559.0,4095.0,2945.0,3248.0,3472.0,1.02,6.39,8.7,0.02,-0.02,-0.01,1.0,z
2930.0,3071.0,3025.0,3553.0,4095.0,2956.0,3235.0,3470.0,-0.46,6.09,7.63,-0.03,0.05,-0.06,1.0,z
2929.0,3085.0,3040.0,3557.0,4095.0,2951.0,3235.0,3479.0,0.06,6.17,8.32,-0.11,0.02,-0.07,1.0,z
2922.0,3056.0,3024.0,3536.0,4095.0,2955.0,3241.0,3472.0,0.07,5.99,8.46,-0.08,0.04,-0.05,1.0,z
2929.0,3088.0,3027.0,3539.0,4095.0,2954.0,3235.0,3483.0,0.04,6.05,8.24,-0.09,0.02,-0.1,1.0,z
2921.0,3071.0,3031.0,3549.0,4095.0,2945.0,3236.0,3483.0,-0.12,6.18,8.04,-0.07,0.03,-0.11,1.0,z
2928.0,3069.0,3023.0,3547.0,4095.0,2958.0,3235.0,3475.0,-0.33,5.91,8.54,-0.04,-0.0,-0.08,1.0,z
2935.0,3071.0,3024.0,3563.0,4095.0,2957.0,3233.0,3433.0,0.0,6.04,8.17,-0.1,0.02,-0.09,1.0,z
2922.0,3071.0,3040.0,3552.0,4095.0,2960.0,3243.0,3483.0,-1.47,9.01,3.7,-0.11,0.06,0.04,1.0,z
2927.0,3071.0,3024.0,3538.0,4095.0,2954.0,3248.0,3483.0,-5.82,6.85,5.18,-0.08,0.13,0.13,1.0,z
2928.0,3008.0,3027.0,3549.0,4095.0,2949.0,3230.0,3486.0,-5.25,7.3,3.37,-0.24,1.14,1.45,1.0,z
2933.0,3088.0,3027.0,3555.0,4095.0,2959.0,3242.0,3482.0,1.86,8.73,5.3,-0.85,1.32,1.68,1.0,z
2919.0,3065.0,3027.0,3563.0,4095.0,2955.0,3243.0,3467.0,8.62,9.15,7.65,-0.53,0.6,0.97,1.0,z
2926.0,3215.0,3033.0,3566.0,4095.0,2947.0,3238.0,3473.0,8.08,8.05,6.7,-0.04,-0.72,-0.8,1.0,z
2928.0,3071.0,3027.0,3566.0,4095.0,2957.0,3234.0,3468.0,1.87,6.68,5.07,-0.07,-1.53,-1.62,1.0,z
2915.0,3119.0,3027.0,3549.0,4095.0,2962.0,3246.0,3464.0,-3.7,7.93,5.49,-0.8,-1.41,-1.86,1.0,z
2929.0,3071.0,3031.0,3553.0,4095.0,2961.0,3233.0,3471.0,-9.73,6.12,7.41,-0.86,-0.22,-0.91,1.0,z
2919.0,3071.0,3024.0,3550.0,4095.0,2960.0,3247.0,3475.0,-8.34,4.86,6.6,-0.97,1.14,1.17,1.0,z
2932.0,3071.0,3024.0,3561.0,4095.0,2963.0,3234.0,3482.0,0.31,4.92,10.01,-1.25,1.41,2.2,1.0,z
2927.0,3086.0,3023.0,3550.0,4095.0,2961.0,3249.0,3479.0,5.07,6.5,10.66,-0.65,0.7,1.42,1.0,z
2922.0,3105.0,3025.0,3556.0,4095.0,2954.0,3255.0,3472.0,2.46,6.77,9.06,-0.24,0.15,0.48,1.0,z
2927.0,3088.0,3027.0,3562.0,4095.0,2960.0,3239.0,3472.0,0.52,6.05,8.2,-0.07,0.0,0.01,1.0,z
2926.0,3084.0,3036.0,3555.0,4095.0,2953.0,3234.0,3491.0,-0.04,6.0,8.32,-0.08,-0.01,-0.1,1.0,z
2918.0,2992.0,3026.0,3567.0,4095.0,2963.0,3247.0,3491.0,-0.29,5.98,8.34,-0.02,0.05,-0.08,1.0,z
2922.0,3088.0,3037.0,3542.0,4095.0,2960.0,3244.0,3491.0,-0.14,6.0,8.28,-0.08,0.01,-0.11,1.0,z
2928.0,3083.0,3024.0,3554.0,4095.0,2965.0,3239.0,3479.0,-0.6,5.81,8.34,-0.02,-0.01,-0.07,1.0,z
2929.0,3083.0,3025.0,3552.0,4095.0,2970.0,3248.0,3504.0,-0.07,6.04,8.29,-0.02,0.01,-0.06,1.0,z
2922.0,3057.0,3024.0,3550.0,4095.0,2962.0,3239.0,3486.0,-0.46,5.94,8.63,-0.01,0.01,-0.04,1.0,z
2939.0,3071.0,3038.0,3562.0,4095.0,2960.0,3215.0,3472.0,-1.77,8.83,4.64,-0.09,-0.02,-0.24,1.0,z
2922.0,3082.0,3019.0,3558.0,4095.0,2960.0,3227.0,3484.0,-5.5,8.1,4.05,-0.07,0.12,0.06,1.0,z
2914.0,3085.0,3024.0,3563.0,4095.0,2960.0,3216.0,3479.0,-7.03,7.28,3.21,-0.3,1.19,1.45,1.0,z
2926.0,3087.0,3029.0,3549.0,4095.0,2947.0,3234.0,3473.0,2.9,8.62,5.89,-0.77,1.63,1.84,1.0,z
2928.0,3097.0,3041.0,3565.0,4095.0,2945.0,3218.0,3465.0,8.24,8.17,7.77,-0.61,0.85,0.6,1.0,z
2928.0,3085.0,3027.0,3568.0,4095.0,2954.0,3232.0,3472.0,7.78,7.71,6.45,0.02,-0.85,-0.78,1.0,z
2916.0,3071.0,3039.0,3546.0,4095.0,2957.0,3225.0,3472.0,1.65,8.23,4.36,-0.14,-1.89,-1.86,1.0,z
2923.0,3061.0,3028.0,3553.0,4095.0,2965.0,3231.0,3488.0,-7.01,6.06,6.83,-0.86,-1.38,-1.78,1.0,z
2938.0,3008.0,3026.0,3569.0,4095.0,2955.0,3239.0,3493.0,-11.88,5.16,5.87,-0.59,0.5,-0.18,1.0,z
2929.0,3152.0,3027.0,3558.0,4095.0,2954.0,3230.0,3493.0,-6.03,4.1,6.28,-1.5,1.28,2.13,1.0,z
2919.0,3057.0,3024.0,3565.0,4095.0,2956.0,3229.0,3478.0,6.84,7.2,11.93,-1.26,0.99,1.45,1.0,z
2918.0,3071.0,3034.0,3565.0,4095.0,2967.0,3238.0,3504.0,2.65,7.25,10.03,-0.4,0.38,0.4,1.0,z
2918.0,3070.0,3026.0,3565.0,4095.0,2959.0,3229.0,3495.0,0.3,6.53,8.67,-0.11,0.04,0.05,1.0,z
2918.0,3070.0,3044.0,3569.0,4095.0,2960.0,3242.0,3475.0,-0.85,6.15,7.8,-0.04,0.13,-0.08,1.0,z
2921.0,3082.0,3024.0,3555.0,4095.0,2957.0,3237.0,3482.0,-0.94,6.27,7.96,-0.07,0.11,-0.08,1.0,z
2929.0,3082.0,3031.0,3569.0,4095.0,2969.0,3239.0,3504.0,-1.02,6.23,8.11,-0.05,0.06,-0.06,1.0,z
2919.0,2987.0,3027.0,3562.0,4095.0,2960.0,3230.0,3481.0,-0.97,6.12,7.92,-0.07,0.07,-0.02,1.0,z
2923.0,3071.0,3037.0,3566.0,4095.0,2957.0,3242.0,3473.0,-0.47,6.26,7.99,-0.06,0.06,-0.02,1.0,z
2933.0,3071.0,3027.0,3556.0,4095.0,2969.0,3233.0,3492.0,-0.83,6.24,7.96,-0.02,0.06,-0.04,1.0,z
2931.0,3071.0,3027.0,3563.0,4095.0,2963.0,3241.0,3487.0,-0.97,6.17,8.06,-0.06,0.07,-0.02,1.0,z
2914.0,3058.0,3031.0,3566.0,4095.0,2958.0,3242.0,3479.0,-2.24,8.84,4.03,-0.13,0.14,-0.22,1.0,z
2928.0,3071.0,3031.0,3570.0,4095.0,2953.0,3232.0,3504.0,-8.69,6.83,3.52,-0.26,0.59,0.24,1.0,z
2930.0,3181.0,3035.0,3583.0,4095.0,2967.0,3246.0,3500.0,-4.02,7.43,3.54,-0.59,1.49,1.56,1.0,z
2928.0,3068.0,3022.0,3565.0,4095.0,2974.0,3237.0,3497.0,3.79,7.86,7.98,-0.99,1.03,1.74,1.0,z
2917.0,3084.0,3021.0,3551.0,4095.0,2963.0,3237.0,3478.0,10.13,8.61,8.54,0.04,-0.01,-0.16,1.0,z
2919.0,3071.0,3041.0,3537.0,4095.0,2964.0,3243.0,3490.0,3.01,4.56,4.26,0.21,-1.13,-1.19,1.0,z
2925.0,3071.0,3024.0,3530.0,4095.0,2960.0,3239.0,3467.0,1.37,9.93,4.79,-0.8,-2.01,-1.58,1.0,z
2926.0,3088.0,3024.0,3527.0,4095.0,2959.0,3239.0,3467.0,-7.03,6.95,8.62,-1.09,-1.16,-1.97,1.0,z
2928.0,3069.0,3021.0,3536.0,4095.0,2961.0,3237.0,3487.0,-11.88,5.1,5.31,-0.67,0.94,0.33,1.0,z
2919.0,3088.0,3036.0,3555.0,4095.0,2964.0,3235.0,3487.0,-3.08,4.41,8.64,-1.39,1.63,2.36,1.0,z
2919.0,3085.0,3035.0,3541.0,4095.0,2967.0,3245.0,3474.0,5.23,7.12,11.28,-0.85,1.44,1.45,1.0,z
2925.0,3050.0,3025.0,3541.0,4095.0,2963.0,3235.0,3486.0,1.41,7.36,8.89,-0.13,0.44,0.4,1.0,z
2931.0,3099.0,3033.0,3535.0,4095.0,2962.0,3237.0,3499.0,-0.93,6.48,7.55,0.03,0.1,-0.02,1.0,z
2931.0,3009.0,3029.0,3536.0,4095.0,2960.0,3248.0,3486.0,-1.12,6.5,7.39,-0.03,0.13,-0.11,1.0,z
2913.0,3091.0,3026.0,3536.0,4095.0,2957.0,3248.0,3479.0,-1.26,6.65,7.72,-0.09,0.03,-0.17,1.0,z
2922.0,3070.0,3036.0,3555.0,4095.0,2973.0,3233.0,3493.0,-1.75,6.7,7.65,-0.07,0.04,-0.13,1.0,z
2926.0,3027.0,3030.0,3536.0,4095.0,2970.0,3247.0,3483.0,-1.69,6.49,7.62,-0.08,0.04,-0.09,1.0,z
2929.0,3059.0,3026.0,3535.0,4095.0,2974.0,3248.0,3488.0,-1.76,6.31,7.73,-0.05,0.01,-0.07,1.0,z
2925.0,3083.0,3034.0,3543.0,4095.0,2966.0,3246.0,3503.0,-1.48,6.49,7.61,-0.05,0.02,-0.06,1.0,z
2925.0,3071.0,3024.0,3535.0,4095.0,2967.0,3244.0,3495.0,-1.65,6.46,7.67,-0.07,-0.02,-0.05,1.0,z
2927.0,3095.0,3027.0,3547.0,4095.0,2907.0,3211.0,3473.0,-3.85,8.86,3.64,-0.1,0.16,-0.03,1.0,z
2922.0,3025.0,3024.0,3515.0,4095.0,2927.0,3223.0,3484.0,-8.67,6.84,3.04,-0.19,1.0,0.97,1.0,z
2919.0,3105.0,3021.0,3529.0,4095.0,2933.0,3213.0,3477.0,-0.84,7.95,5.12,-0.54,1.73,1.92,1.0,z
2927.0,3063.0,3033.0,3531.0,4095.0,2928.0,3216.0,3474.0,7.95,9.4,6.69,-0.44,1.15,1.13,1.0,z
2931.0,3062.0,3029.0,3536.0,4095.0,2930.0,3205.0,3472.0,8.75,8.29,6.9,0.11,-0.36,-0.38,1.0,z
2924.0,3036.0,3024.0,3502.0,4095.0,2938.0,3219.0,3481.0,4.54,8.48,4.75,0.23,-1.67,-1.74,1.0,z
2928.0,3057.0,3039.0,3499.0,4095.0,2943.0,3221.0,3478.0,-3.04,8.5,4.62,-0.42,-2.03,-1.93,1.0,z
2928.0,3067.0,3041.0,3504.0,4095.0,2949.0,3221.0,3481.0,-9.3,5.62,5.92,-0.52,-0.39,-1.22,1.0,z
2929.0,3050.0,3022.0,3521.0,4095.0,2955.0,3223.0,3502.0,-8.73,5.89,3.4,-0.75,0.93,0.77,1.0,z
2918.0,3071.0,3024.0,3514.0,4095.0,2950.0,3219.0,3491.0,-3.94,5.39,7.08,-1.33,1.61,2.09,1.0,z
2923.0,3056.0,3024.0,3506.0,4095.0,2951.0,3231.0,3473.0,4.8,7.51,11.27,-1.24,1.47,1.55,1.0,z
2935.0,3068.0,3035.0,3513.0,4095.0,2955.0,3231.0,3489.0,2.01,8.01,9.01,-0.43,0.51,0.72,1.0,z
2928.0,3109.0,3023.0,3522.0,4095.0,2958.0,3232.0,3485.0,0.77,7.1,8.21,-0.11,0.03,0.02,1.0,z
2925.0,3013.0,3027.0,3526.0,4095.0,2944.0,3227.0,3494.0,-0.53,6.93,7.14,-0.18,0.01,-0.08,1.0,z
2923.0,3071.0,3035.0,3521.0,4095.0,2949.0,3219.0,3480.0,-0.74,6.73,7.41,-0.14,0.04,-0.05,1.0,z
2921.0,3086.0,3030.0,3524.0,4095.0,2943.0,3229.0,3489.0,-0.79,6.8,7.57,-0.23,0.05,-0.08,1.0,z
2943.0,3068.0,3034.0,3517.0,4095.0,2957.0,3239.0,3491.0,-1.11,6.71,7.98,-0.09,0.02,-0.04,1.0,z
2924.0,3090.0,3031.0,3534.0,4095.0,2960.0,3225.0,3495.0,-0.81,6.71,7.56,-0.09,-0.02,-0.05,1.0,z
2941.0,3086.0,3027.0,3527.0,4095.0,2950.0,3231.0,3492.0,-1.08,6.71,7.61,-0.01,0.03,-0.06,1.0,z
2928.0,3071.0,3031.0,3536.0,4095.0,2955.0,3231.0,3491.0,-1.18,6.72,7.54,-0.04,-0.0,-0.02,1.0,z
2921.0,3306.0,3061.0,3365.0,4095.0,2894.0,3120.0,3378.0,0.06,8.94,4.81,0.02,-0.05,-0.28,1.0,z
2928.0,3371.0,3071.0,3367.0,4095.0,2896.0,3127.0,3369.0,-2.5,9.04,3.84,-0.02,-0.03,-0.45,1.0,z
2931.0,3312.0,3057.0,3330.0,4095.0,2878.0,3115.0,3393.0,-9.7,7.43,3.56,-0.14,0.42,0.03,1.0,z
2915.0,3308.0,3063.0,3373.0,4095.0,2882.0,3121.0,3394.0,-5.85,4.42,6.2,-1.11,1.97,2.51,1.0,z
2914.0,3344.0,3069.0,3407.0,4095.0,2867.0,3121.0,3393.0,9.33,5.2,11.41,-1.37,1.29,1.92,1.0,z
2913.0,3296.0,3057.0,3426.0,4095.0,2881.0,3127.0,3372.0,12.36,7.85,9.43,0.32,-0.18,-0.84,1.0,z
2919.0,3307.0,3062.0,3440.0,4095.0,2891.0,3131.0,3377.0,4.03,6.19,7.3,0.64,-2.17,-2.15,1.0,z
2935.0,3343.0,3052.0,3375.0,4095.0,2887.0,3127.0,3385.0,-4.95,7.35,6.63,0.22,-2.1,-1.92,1.0,z
2923.0,3302.0,3082.0,3411.0,4095.0,2899.0,3131.0,3397.0,-12.18,4.98,5.84,-0.04,0.01,-1.16,1.0,z
2929.0,3291.0,3071.0,3409.0,4095.0,2888.0,3130.0,3406.0,-8.42,5.38,2.86,-1.3,1.8,1.31,1.0,z
2919.0,3291.0,3071.0,3408.0,4095.0,2895.0,3143.0,3383.0,2.94,5.49,12.91,-2.01,1.37,2.09,1.0,z
2922.0,3305.0,3061.0,3407.0,4095.0,2887.0,3138.0,3391.0,4.1,7.89,10.86,-0.51,1.06,0.54,1.0,z
2921.0,3289.0,3057.0,3410.0,4095.0,2893.0,3136.0,3401.0,-0.22,6.51,8.62,-0.28,-0.09,0.23,1.0,z
2928.0,3363.0,3071.0,3425.0,4095.0,2901.0,3138.0,3409.0,-1.91,5.99,7.64,-0.01,0.07,-0.09,1.0,z
2913.0,3299.0,3060.0,3408.0,4095.0,2898.0,3133.0,3399.0,-1.25,6.44,7.79,-0.07,0.04,0.02,1.0,z
2925.0,3341.0,3057.0,3410.0,4095.0,2896.0,3132.0,3399.0,-1.11,6.38,7.73,-0.09,0.02,-0.03,1.0,z
2911.0,3296.0,3055.0,3415.0,4095.0,2906.0,3147.0,3395.0,-1.36,6.27,8.16,-0.1,0.01,-0.05,1.0,z
2938.0,3313.0,3057.0,3409.0,4095.0,2911.0,3136.0,3405.0,-1.25,6.3,7.76,-0.08,-0.01,0.0,1.0,z
2924.0,3283.0,3071.0,3430.0,4095.0,2909.0,3134.0,3403.0,-1.37,6.2,7.97,-0.05,0.02,-0.03,1.0,z
2921.0,3317.0,3051.0,3414.0,4095.0,2899.0,3137.0,3414.0,-1.5,6.22,7.86,-0.03,0.02,-0.04,1.0,z
2912.0,3327.0,3057.0,3427.0,4095.0,2929.0,3151.0,3419.0,-3.32,8.46,3.99,-0.2,-0.01,-0.19,1.0,z
2928.0,3307.0,3060.0,3421.0,4095.0,2923.0,3154.0,3425.0,-11.65,5.88,4.05,-0.35,0.72,0.73,1.0,z
2921.0,3302.0,3069.0,3458.0,4095.0,2928.0,3141.0,3415.0,2.11,7.21,6.76,-0.79,1.68,2.28,1.0,z
2908.0,3280.0,3069.0,3424.0,4095.0,2917.0,3152.0,3414.0,10.06,7.9,9.42,-0.69,0.96,1.11,1.0,z
2928.0,3253.0,3063.0,3434.0,4095.0,2913.0,3145.0,3409.0,9.38,8.63,7.03,0.14,-0.89,-1.2,1.0,z
2925.0,3314.0,3071.0,3445.0,4095.0,2923.0,3140.0,3401.0,1.75,7.11,5.13,0.03,-2.3,-1.87,1.0,z
2928.0,3304.0,3059.0,3419.0,4095.0,2926.0,3155.0,3425.0,-7.12,5.94,5.89,-0.83,-1.34,-1.67,1.0,z
2914.0,3291.0,3042.0,3438.0,4095.0,2925.0,3149.0,3422.0,-13.18,4.87,6.39,-0.77,0.56,-0.4,1.0,z
2921.0,3291.0,3056.0,3421.0,4095.0,2903.0,3147.0,3418.0,-4.8,4.69,7.91,-1.35,1.57,2.03,1.0,z
2919.0,3267.0,3067.0,3422.0,4095.0,2906.0,3137.0,3413.0,6.19,6.17,12.15,-1.04,1.24,1.93,1.0,z
2917.0,3302.0,3062.0,3431.0,4095.0,2918.0,3152.0,3417.0,3.59,7.33,9.65,-0.25,0.59,0.67,1.0,z
2925.0,3301.0,3069.0,3444.0,4095.0,2924.0,3147.0,3420.0,0.68,6.55,8.02,-0.1,0.0,0.03,1.0,z
2922.0,3311.0,3056.0,3425.0,4095.0,2922.0,3146.0,3437.0,-0.62,6.37,7.95,-0.03,-0.02,-0.17,1.0,z
2928.0,3301.0,3071.0,3440.0,4095.0,2914.0,3158.0,3435.0,-0.9,6.34,7.78,-0.04,0.01,-0.14,1.0,z
2907.0,3299.0,3062.0,3435.0,4095.0,2930.0,3149.0,3431.0,-0.74,6.29,8.07,-0.11,-0.02,-0.08,1.0,z
2921.0,3295.0,3065.0,3440.0,4095.0,2931.0,3155.0,3422.0,-0.87,6.34,8.11,-0.04,-0.03,-0.08,1.0,z
2922.0,3490.0,3070.0,3449.0,4095.0,2933.0,3149.0,3419.0,-0.75,6.48,7.92,0.01,0.01,-0.08,1.0,z
2927.0,3290.0,3071.0,3438.0,4095.0,2923.0,3150.0,3426.0,-0.85,6.38,7.73,-0.02,0.01,-0.04,1.0,z
2928.0,3303.0,3067.0,3429.0,4095.0,2928.0,3158.0,3427.0,-0.77,6.51,7.75,-0.06,-0.0,-0.04,1.0,z
2919.0,3313.0,3056.0,3426.0,4095.0,2928.0,3152.0,3433.0,-0.89,6.41,8.15,0.02,-0.05,-0.02,1.0,z
2911.0,3280.0,3057.0,3423.0,4095.0,2963.0,3147.0,3420.0,-8.83,6.68,4.46,-0.15,0.59,0.85,1.0,z
2918.0,3275.0,3061.0,3435.0,4095.0,2960.0,3145.0,3427.0,-2.83,6.98,4.64,-0.48,1.82,2.62,1.0,z
2935.0,3282.0,3063.0,3440.0,4095.0,2960.0,3153.0,3405.0,9.06,8.49,7.52,-0.47,1.4,1.41,1.0,z
2927.0,3267.0,3056.0,3451.0,4095.0,2957.0,3152.0,3409.0,8.67,7.96,7.19,0.08,-0.28,-0.59,1.0,z
2914.0,3264.0,3059.0,3441.0,4095.0,2964.0,3139.0,3413.0,4.72,7.61,5.19,0.31,-2.05,-1.81,1.0,z
2922.0,3279.0,3084.0,3418.0,4095.0,2951.0,3155.0,3407.0,-3.75,7.81,4.58,-0.54,-2.23,-2.22,1.0,z
2928.0,3159.0,3071.0,3427.0,4095.0,2952.0,3156.0,3421.0,-11.51,5.85,5.66,-0.65,-0.29,-1.17,1.0,z
2930.0,3283.0,3070.0,3434.0,4095.0,2955.0,3152.0,3431.0,-9.15,6.08,4.54,-1.32,1.2,1.27,1.0,z
2921.0,3280.0,3067.0,3436.0,4095.0,2953.0,3143.0,3422.0,0.56,5.52,10.8,-1.54,1.53,2.36,1.0,z
2933.0,3473.0,3071.0,3440.0,4095.0,2959.0,3143.0,3427.0,3.74,7.57,10.25,-0.69,1.21,0.7,1.0,z
2906.0,3281.0,3063.0,3437.0,4095.0,2960.0,3153.0,3413.0,0.19,6.81,8.82,-0.23,0.06,0.25,1.0,z
2921.0,3269.0,3069.0,3458.0,4095.0,2945.0,3152.0,3431.0,-0.33,6.83,7.7,-0.01,-0.24,0.0,1.0,z
2928.0,3312.0,3056.0,3444.0,4095.0,2960.0,3150.0,3417.0,-0.78,6.45,7.33,-0.04,-0.12,-0.14,1.0,z
2924.0,3276.0,3062.0,3443.0,4095.0,2958.0,3153.0,3426.0,-1.16,6.91,7.57,-0.08,-0.15,-0.2,1.0,z
2927.0,3265.0,3059.0,3450.0,4095.0,2963.0,3148.0,3433.0,-1.47,6.71,7.75,-0.13,-0.09,-0.11,1.0,z
2926.0,3276.0,3059.0,3455.0,4095.0,2959.0,3149.0,3414.0,-0.71,6.62,7.36,-0.05,-0.06,-0.12,1.0,z
2927.0,3211.0,3056.0,3441.0,4095.0,2957.0,3163.0,3421.0,-1.14,6.55,7.98,-0.09,-0.05,-0.14,1.0,z
2923.0,3262.0,3071.0,3445.0,4095.0,2951.0,3166.0,3412.0,-0.97,6.64,7.74,0.01,-0.11,-0.01,1.0,z
2925.0,3271.0,3066.0,3440.0,4095.0,2964.0,3162.0,3435.0,-1.65,6.52,8.42,-0.01,-0.16,-0.02,1.0,z
2919.0,3252.0,3067.0,3442.0,4095.0,2963.0,3159.0,3430.0,-0.87,6.72,7.6,0.22,-0.11,0.01,1.0,z
2932.0,3287.0,3067.0,3453.0,4095.0,2971.0,3168.0,3434.0,-4.32,7.97,4.38,-0.04,0.04,0.03,1.0,z
2941.0,3271.0,3059.0,3451.0,4095.0,2974.0,3168.0,3431.0,-7.42,6.67,3.41,-0.2,1.01,1.15,1.0,z
2919.0,3275.0,3084.0,3456.0,4095.0,2960.0,3152.0,3421.0,0.89,7.87,5.03,-0.93,1.82,1.65,1.0,z
2917.0,3294.0,3071.0,3443.0,4095.0,2969.0,3156.0,3411.0,10.16,8.82,8.83,-0.95,0.76,0.76,1.0,z
2925.0,3325.0,3068.0,3472.0,4095.0,2960.0,3152.0,3425.0,8.02,7.51,6.76,0.02,-0.62,-1.1,1.0,z
2921.0,3264.0,3065.0,3456.0,4095.0,2960.0,3165.0,3408.0,3.29,7.19,5.93,0.21,-1.88,-1.91,1.0,z
2922.0,3284.0,3061.0,3423.0,4095.0,2961.0,3152.0,3421.0,-7.74,7.37,4.28,-0.73,-1.2,-2.4,1.0,z
2922.0,3268.0,3083.0,3455.0,4095.0,2958.0,3155.0,3438.0,-13.18,5.56,6.29,-0.36,0.57,-0.41,1.0,z
2915.0,3265.0,3061.0,3449.0,4095.0,2951.0,3168.0,3441.0,-8.32,4.09,7.41,-1.31,1.95,2.34,1.0,z
2927.0,3275.0,3060.0,3439.0,4095.0,2955.0,3154.0,3440.0,7.4,7.52,11.11,-0.65,1.65,2.03,1.0,z
2925.0,3282.0,3061.0,3440.0,4095.0,2951.0,3152.0,3437.0,2.86,8.04,7.79,-0.12,0.87,0.3,1.0,z
2922.0,3280.0,3071.0,3446.0,4095.0,2956.0,3156.0,3433.0,-0.3,7.91,6.79,-0.05,-0.01,0.08,1.0,z
2928.0,3281.0,3066.0,3440.0,4095.0,2960.0,3170.0,3424.0,-1.53,7.0,6.92,0.01,-0.03,-0.25,1.0,z
2932.0,3290.0,3063.0,3433.0,4095.0,2966.0,3168.0,3440.0,-1.39,7.25,6.87,-0.13,-0.05,-0.11,1.0,z
2923.0,3300.0,3070.0,3453.0,4095.0,2960.0,3158.0,3444.0,-1.55,7.28,7.11,-0.09,0.02,-0.1,1.0,z
2925.0,3280.0,3071.0,3439.0,4095.0,2969.0,3155.0,3439.0,-1.56,7.28,6.95,-0.14,0.04,-0.09,1.0,z
2919.0,3280.0,3069.0,3439.0,4095.0,2957.0,3159.0,3443.0,-1.74,7.05,7.07,-0.07,0.02,-0.06,1.0,z
2927.0,3357.0,3059.0,3455.0,4095.0,2962.0,3167.0,3429.0,-1.7,7.16,7.01,-0.1,0.04,-0.02,1.0,z
2928.0,3267.0,3062.0,3447.0,4095.0,2960.0,3169.0,3439.0,-1.6,7.14,7.15,-0.11,0.03,-0.01,1.0,z
2934.0,3269.0,3071.0,3451.0,4095.0,2974.0,3158.0,3439.0,-1.55,7.31,7.04,-0.08,-0.02,-0.01,1.0,z
2917.0,3290.0,3085.0,3454.0,4095.0,2973.0,3158.0,3435.0,-3.1,8.57,4.04,-0.16,0.03,-0.01,1.0,z
2914.0,3311.0,3056.0,3473.0,4095.0,2964.0,3168.0,3442.0,-8.93,6.74,3.86,-0.06,0.65,0.47,1.0,z
2927.0,3264.0,3056.0,3473.0,4095.0,2949.0,3178.0,3457.0,-3.78,7.92,4.87,-0.47,1.39,1.63,1.0,z
2926.0,3271.0,3056.0,3467.0,4095.0,2955.0,3175.0,3440.0,6.06,8.58,6.21,-0.17,1.17,1.38,1.0,z
2928.0,3265.0,3067.0,3458.0,4095.0,2955.0,3171.0,3427.0,10.81,10.26,5.17,-0.1,-0.24,-0.31,1.0,z
2928.0,3270.0,3061.0,3463.0,4095.0,2962.0,3167.0,3447.0,2.96,6.88,5.09,0.17,-1.54,-1.7,1.0,z
2926.0,3280.0,3059.0,3460.0,4095.0,2966.0,3178.0,3457.0,-5.3,6.79,3.14,-0.61,-1.39,-1.76,1.0,z
2921.0,3262.0,3066.0,3489.0,4095.0,2970.0,3171.0,3456.0,-12.79,5.24,5.77,-1.27,0.01,-0.77,1.0,z
2914.0,3281.0,3071.0,3485.0,4095.0,2960.0,3173.0,3456.0,-7.02,5.84,6.31,-1.43,1.46,1.86,1.0,z
2921.0,3275.0,3059.0,3495.0,4095.0,2963.0,3174.0,3441.0,2.79,7.54,9.55,-1.3,1.5,1.82,1.0,z
2928.0,3269.0,3070.0,3477.0,4095.0,2994.0,3168.0,3455.0,3.07,8.44,9.16,-0.67,0.68,0.59,1.0,z
2926.0,3274.0,3066.0,3495.0,4095.0,2973.0,3170.0,3444.0,0.4,7.2,8.83,-0.26,0.11,0.01,1.0,z
2917.0,3263.0,3061.0,3499.0,4095.0,2969.0,3178.0,3449.0,-1.27,6.56,7.83,-0.02,0.0,-0.19,1.0,z
2917.0,3271.0,3068.0,3498.0,4095.0,2969.0,3182.0,3465.0,-1.56,6.53,7.55,-0.0,-0.04,-0.13,1.0,z
2928.0,3261.0,3057.0,3478.0,4095.0,2977.0,3174.0,3445.0,-1.71,6.47,7.66,-0.08,-0.02,-0.07,1.0,z
2919.0,3266.0,3071.0,3497.0,4095.0,2967.0,3170.0,3467.0,-1.61,6.51,7.47,-0.06,-0.04,-0.06,1.0,z
2910.0,3248.0,3063.0,3495.0,4095.0,2973.0,3173.0,3456.0,-1.52,6.67,7.51,-0.04,0.02,-0.01,1.0,z
2928.0,3265.0,3063.0,3501.0,4095.0,2971.0,3178.0,3447.0,-1.53,6.86,7.11,-0.11,-0.0,-0.01,1.0,z
2911.0,3283.0,3053.0,3504.0,4095.0,2972.0,3173.0,3453.0,-1.74,6.74,7.34,-0.09,0.06,-0.02,1.0,z
2928.0,3280.0,3070.0,3479.0,4095.0,2977.0,3177.0,3447.0,-1.46,6.68,7.73,-0.08,0.06,-0.01,1.0,z
2923.0,3255.0,3059.0,3502.0,4095.0,2981.0,3171.0,3457.0,-1.92,8.97,3.61,-0.19,0.0,-0.16,1.0,z
2915.0,3344.0,3059.0,3501.0,4095.0,2973.0,3174.0,3450.0,-4.34,8.06,4.54,-0.17,0.23,-0.06,1.0,z
2926.0,3263.0,3058.0,3521.0,4095.0,2964.0,3180.0,3461.0,-9.04,7.0,3.67,-0.31,1.1,1.11,1.0,z
2926.0,3265.0,3060.0,3519.0,4095.0,2964.0,3175.0,3465.0,-2.26,7.18,5.66,-0.8,1.59,2.35,1.0,z
2928.0,3265.0,3070.0,3507.0,4095.0,2975.0,3184.0,3445.0,9.69,7.33,7.82,-0.78,0.72,1.33,1.0,z
2906.0,3294.0,3066.0,3511.0,4095.0,2973.0,3169.0,3438.0,10.86,7.19,8.01,-0.01,-0.75,-0.83,1.0,z
2919.0,3306.0,3066.0,3507.0,4095.0,2982.0,3183.0,3442.0,1.79,7.08,4.14,0.11,-2.01,-1.92,1.0,z
2927.0,3268.0,3055.0,3502.0,4095.0,2978.0,3177.0,3459.0,-6.21,8.97,4.22,-1.03,-1.44,-2.33,1.0,z
2933.0,3259.0,3063.0,3533.0,4095.0,2981.0,3184.0,3454.0,-13.99,5.59,7.76,-0.42,0.41,-0.43,1.0,z
2915.0,3269.0,3056.0,3519.0,4095.0,2951.0,3171.0,3470.0,-8.56,4.13,5.94,-1.32,1.79,2.13,1.0,z
2918.0,3277.0,3071.0,3506.0,4095.0,2957.0,3173.0,3455.0,6.88,6.59,12.5,-0.8,1.5,1.78,1.0,z
2926.0,3286.0,3061.0,3506.0,4095.0,2960.0,3168.0,3459.0,2.84,7.57,8.74,-0.22,0.53,0.68,1.0,z
2926.0,3263.0,3071.0,3504.0,4095.0,2954.0,3184.0,3461.0,-0.08,7.16,7.14,-0.11,-0.05,0.03,1.0,z
2917.0,3254.0,3053.0,3504.0,4095.0,2961.0,3181.0,3456.0,-1.67,6.63,7.38,-0.16,0.03,-0.07,1.0,z
2928.0,3252.0,3053.0,3522.0,4095.0,2960.0,3173.0,3450.0,-0.95,6.93,7.28,-0.22,0.07,-0.02,1.0,z
2914.0,3428.0,3069.0,3504.0,4095.0,2974.0,3175.0,3462.0,-1.17,6.75,7.95,-0.16,-0.01,-0.05,1.0,z
2919.0,3264.0,3067.0,3511.0,4095.0,2960.0,3170.0,3457.0,-1.01,6.52,7.73,-0.06,0.01,-0.01,1.0,z
2921.0,3265.0,3057.0,3491.0,4095.0,2970.0,3180.0,3458.0,-1.33,6.52,7.92,-0.12,-0.04,0.02,1.0,z
2926.0,3280.0,3050.0,3514.0,4095.0,2960.0,3182.0,3468.0,-1.05,6.74,7.53,-0.04,0.05,0.1,1.0,z
2913.0,3408.0,3061.0,3504.0,4095.0,2963.0,3178.0,3456.0,-0.85,6.82,7.39,-0.1,0.07,0.0,1.0,z
2922.0,3394.0,3071.0,3522.0,4095.0,2979.0,3185.0,3471.0,-3.06,7.98,5.09,-0.04,0.07,-0.01,1.0,z
2928.0,3258.0,3056.0,3515.0,4095.0,2965.0,3177.0,3458.0,-10.38,5.94,4.01,-0.12,0.88,0.65,1.0,z
2918.0,3250.0,3066.0,3513.0,4095.0,2974.0,3184.0,3472.0,1.01,7.31,6.01,-0.67,1.29,2.26,1.0,z
2912.0,3243.0,3061.0,3472.0,4095.0,2962.0,3184.0,3455.0,8.48,8.6,7.7,-0.55,0.98,0.76,1.0,z
2917.0,3253.0,3088.0,3511.0,4095.0,2943.0,3182.0,3449.0,8.95,7.75,7.06,0.11,-0.61,-0.75,1.0,z
2914.0,3282.0,3056.0,3504.0,4095.0,2976.0,3174.0,3471.0,3.07,8.39,4.38,-0.11,-1.71,-2.13,1.0,z
2914.0,3254.0,3056.0,3520.0,4095.0,2961.0,3184.0,3481.0,-9.59,4.83,8.44,-0.51,-1.37,-1.79,1.0,z
2914.0,3262.0,3056.0,3517.0,4095.0,2950.0,3184.0,3475.0,-12.09,4.71,4.72,-0.45,0.39,-0.05,1.0,z
2923.0,3279.0,3058.0,3489.0,4095.0,2939.0,3179.0,3482.0,-6.78,3.64,6.22,-1.43,1.62,2.13,1.0,z
2913.0,3302.0,3062.0,3401.0,4095.0,2947.0,3163.0,3461.0,5.37,7.73,12.58,-1.1,1.4,1.38,1.0,z
2915.0,3252.0,3060.0,3417.0,4095.0,2958.0,3179.0,3463.0,2.55,8.37,9.2,-0.39,0.17,0.75,1.0,z
2924.0,3281.0,3070.0,3431.0,4095.0,2957.0,3177.0,3472.0,0.04,6.87,7.83,-0.1,0.08,0.16,1.0,z
2925.0,3274.0,3067.0,3441.0,4095.0,2961.0,3170.0,3467.0,-0.92,6.3,7.77,-0.08,0.07,-0.06,1.0,z
2919.0,3277.0,3056.0,3451.0,4095.0,2963.0,3177.0,3472.0,-0.9,6.47,7.69,-0.13,0.03,-0.06,1.0,z
2922.0,3323.0,3062.0,3446.0,4095.0,2963.0,3177.0,3467.0,-0.97,6.41,8.03,-0.1,0.05,-0.04,1.0,z
2922.0,3329.0,3071.0,3452.0,4095.0,2962.0,3172.0,3478.0,-1.18,6.29,8.03,-0.1,0.01,-0.06,1.0,z
2917.0,3287.0,3056.0,3447.0,4095.0,2972.0,3181.0,3477.0,-1.08,6.35,7.82,-0.1,0.02,-0.06,1.0,z
2914.0,3274.0,3071.0,3459.0,4095.0,2975.0,3176.0,3477.0,-1.19,6.39,7.81,-0.1,0.01,-0.06,1.0,z
2931.0,3344.0,3068.0,3447.0,4095.0,2971.0,3173.0,3478.0,-1.25,6.37,7.93,-0.06,0.04,-0.05,1.0,z
2922.0,3296.0,3067.0,3450.0,4095.0,2971.0,3177.0,3470.0,-1.19,6.15,8.04,-0.09,0.02,-0.03,1.0,z
2924.0,3294.0,3061.0,3457.0,4095.0,2976.0,3185.0,3482.0,-4.05,8.41,4.03,-0.14,0.04,-0.04,1.0,z
2925.0,3285.0,3054.0,3456.0,4095.0,2967.0,3183.0,3472.0,-9.87,7.21,3.95,-0.2,0.89,0.77,1.0,z
2927.0,3304.0,3062.0,3465.0,4095.0,2961.0,3191.0,3483.0,-2.04,7.18,6.7,-0.45,1.64,1.63,1.0,z
2923.0,3312.0,3069.0,3477.0,4095.0,2982.0,3184.0,3471.0,7.99,7.78,6.89,-0.59,1.06,1.32,1.0,z
2917.0,3287.0,3049.0,3466.0,4095.0,2975.0,3179.0,3473.0,9.66,6.74,7.17,-0.02,-0.4,-0.22,1.0,z
2928.0,3285.0,3068.0,3447.0,4095.0,2981.0,3179.0,3483.0,3.92,6.27,5.55,0.07,-1.9,-1.46,1.0,z
2929.0,3296.0,3057.0,3469.0,4095.0,2976.0,3184.0,3475.0,-3.63,9.08,5.58,-0.45,-2.13,-1.28,1.0,z
2931.0,3280.0,3071.0,3475.0,4095.0,2991.0,3187.0,3484.0,-9.35,9.62,6.76,-0.7,-0.29,-1.07,1.0,z
2925.0,3337.0,3063.0,3483.0,4095.0,2981.0,3186.0,3490.0,-9.67,6.65,5.18,-0.69,1.65,0.67,1.0,z
2922.0,3274.0,3059.0,3485.0,4095.0,2987.0,3191.0,3477.0,-2.04,5.54,8.66,-1.48,2.1,1.94,1.0,z
2922.0,3270.0,3057.0,3498.0,4095.0,2983.0,3182.0,3471.0,4.64,6.51,11.19,-1.01,0.89,1.41,1.0,z
2916.0,3279.0,3066.0,3472.0,4095.0,2979.0,3179.0,3470.0,1.29,6.73,8.82,-0.32,0.12,0.4,1.0,z
2927.0,3267.0,3067.0,3492.0,4095.0,2991.0,3196.0,3477.0,-0.77,6.49,8.15,-0.1,0.05,-0.05,1.0,z
2919.0,3367.0,3067.0,3493.0,4095.0,2983.0,3200.0,3473.0,-0.74,6.41,7.92,-0.03,0.05,-0.04,1.0,z
2932.0,3279.0,3082.0,3491.0,4095.0,2989.0,3190.0,3485.0,-1.29,6.42,7.88,-0.02,-0.0,-0.09,1.0,z
2928.0,3185.0,3060.0,3487.0,4095.0,2989.0,3185.0,3479.0,-1.05,6.41,7.67,-0.05,-0.04,0.01,1.0,z
2918.0,3267.0,3056.0,3502.0,4095.0,2991.0,3199.0,3482.0,-1.15,6.39,7.65,-0.08,0.01,-0.07,1.0,z
2923.0,3264.0,3063.0,3495.0,4095.0,2990.0,3191.0,3498.0,-1.21,6.42,7.75,-0.02,0.03,-0.02,1.0,z
2919.0,3271.0,3069.0,3497.0,4095.0,2992.0,3201.0,3478.0,-0.93,6.47,7.91,-0.06,0.05,-0.02,1.0,z
2926.0,3419.0,3055.0,3502.0,4095.0,2991.0,3195.0,3483.0,-1.26,6.44,7.79,-0.02,0.03,-0.03,1.0,z
2939.0,3265.0,3059.0,3495.0,4095.0,2993.0,3199.0,3477.0,-4.11,8.53,4.7,-0.14,0.09,-0.1,1.0,z
2934.0,3270.0,3062.0,3513.0,4095.0,2990.0,3194.0,3473.0,-9.92,6.19,3.46,-0.12,0.75,1.07,1.0,z
2937.0,3259.0,3071.0,3504.0,4095.0,2967.0,3199.0,3482.0,-0.97,7.63,5.2,-0.91,1.5,1.91,1.0,z
2931.0,3261.0,3056.0,3505.0,4095.0,2978.0,3197.0,3466.0,9.15,8.41,8.46,-0.71,1.05,1.06,1.0,z
2923.0,3262.0,3065.0,3471.0,4095.0,2991.0,3190.0,3465.0,9.75,7.56,7.06,-0.02,-0.6,-0.56,1.0,z
2925.0,3285.0,3066.0,3517.0,4095.0,2983.0,3205.0,3472.0,2.77,5.91,6.26,0.04,-1.7,-1.81,1.0,z
2916.0,3236.0,3065.0,3504.0,4095.0,2992.0,3201.0,3477.0,-5.79,7.78,5.48,-0.56,-1.84,-1.99,1.0,z
2925.0,3376.0,3081.0,3516.0,4095.0,2978.0,3207.0,3502.0,-13.74,5.89,6.74,-0.67,0.34,-0.71,1.0,z
2915.0,3281.0,3063.0,3504.0,4095.0,2990.0,3191.0,3491.0,-8.32,5.27,5.46,-1.22,1.69,1.99,1.0,z
2921.0,3261.0,3066.0,3509.0,4095.0,2976.0,3202.0,3490.0,2.35,4.9,11.37,-1.21,1.63,2.02,1.0,z
2923.0,3270.0,3083.0,3503.0,4095.0,2991.0,3200.0,3479.0,4.81,6.79,10.82,-0.73,0.75,0.85,1.0,z
2922.0,3376.0,3084.0,3507.0,4095.0,2987.0,3204.0,3477.0,0.45,7.06,8.48,-0.16,0.08,-0.01,1.0,z
2928.0,3340.0,3067.0,3515.0,4095.0,2987.0,3194.0,3491.0,-1.11,6.52,7.83,-0.02,0.06,-0.23,1.0,z
2928.0,3275.0,3065.0,3510.0,4095.0,2991.0,3199.0,3481.0,-1.34,6.37,7.91,-0.01,0.03,-0.08,1.0,z
2926.0,3238.0,3071.0,3502.0,4095.0,2989.0,3211.0,3487.0,-1.37,6.31,7.62,-0.08,0.06,-0.09,1.0,z
2925.0,3307.0,3051.0,3523.0,4095.0,2989.0,3193.0,3481.0,-1.41,6.5,7.61,-0.12,0.04,-0.07,1.0,z
2942.0,3270.0,3071.0,3515.0,4095.0,2992.0,3197.0,3478.0,-1.34,6.38,7.79,-0.08,0.04,-0.03,1.0,z
2925.0,3274.0,3056.0,3487.0,4095.0,2981.0,3203.0,3482.0,-1.23,6.33,8.03,-0.09,0.01,-0.02,1.0,z
2923.0,3299.0,3056.0,3502.0,4095.0,2989.0,3203.0,3499.0,-1.35,6.23,7.93,-0.02,0.03,-0.01,1.0,z
2928.0,3279.0,3059.0,3493.0,4095.0,2986.0,3189.0,3494.0,-1.21,6.16,8.03,-0.05,0.03,-0.02,1.0,z
2926.0,3262.0,3063.0,3503.0,4095.0,2992.0,3206.0,3483.0,-3.11,8.31,4.41,-0.1,-0.04,-0.31,1.0,z
2913.0,3250.0,3055.0,3500.0,4095.0,2992.0,3199.0,3481.0,-6.92,7.36,4.96,-0.2,0.69,0.51,1.0,z
2917.0,3333.0,3057.0,3526.0,4095.0,2979.0,3195.0,3490.0,-6.98,4.98,4.75,-0.58,1.8,1.83,1.0,z
2937.0,3290.0,3081.0,3519.0,4095.0,2989.0,3190.0,3475.0,8.72,9.47,6.42,-0.72,1.78,1.44,1.0,z
2911.0,3267.0,3056.0,3482.0,4095.0,2979.0,3209.0,3475.0,10.51,8.09,8.79,-0.26,0.03,-0.02,1.0,z
2925.0,3325.0,3070.0,3511.0,4095.0,2992.0,3199.0,3487.0,5.28,8.08,6.47,0.23,-1.68,-1.85,1.0,z
2915.0,3260.0,3066.0,3519.0,4095.0,2982.0,3207.0,3479.0,-4.81,7.03,4.54,-0.36,-1.94,-2.12,1.0,z
2919.0,3263.0,3071.0,3526.0,4095.0,2990.0,3205.0,3494.0,-11.83,5.38,6.04,-0.61,-0.0,-1.14,1.0,z
2933.0,3263.0,3059.0,3509.0,4095.0,2991.0,3214.0,3491.0,-8.84,5.58,4.63,-0.99,1.38,1.35,1.0,z
2919.0,3273.0,3058.0,3495.0,4095.0,2963.0,3200.0,3498.0,0.55,4.37,10.81,-1.89,1.43,2.59,1.0,z
2926.0,3274.0,3063.0,3494.0,4095.0,2982.0,3207.0,3482.0,4.13,7.35,11.09,-0.79,1.07,0.83,1.0,z
2931.0,3323.0,3053.0,3506.0,4095.0,2985.0,3203.0,3502.0,0.24,6.8,8.75,-0.23,0.27,0.06,1.0,z
2921.0,3223.0,3058.0,3507.0,4095.0,2989.0,3211.0,3486.0,-1.05,6.38,8.18,-0.03,-0.02,-0.15,1.0,z
2927.0,3280.0,3056.0,3501.0,4095.0,2991.0,3203.0,3488.0,-1.6,6.11,7.76,-0.05,0.01,-0.12,1.0,z
2921.0,3267.0,3071.0,3498.0,4095.0,2989.0,3188.0,3504.0,-1.66,6.09,8.0,-0.05,-0.02,-0.06,1.0,z
2914.0,3255.0,3086.0,3498.0,4095.0,2985.0,3199.0,3485.0,-1.49,6.25,7.97,-0.03,0.04,-0.05,1.0,z
2922.0,3281.0,3081.0,3493.0,4095.0,2993.0,3199.0,3506.0,-1.7,6.11,7.92,-0.06,0.05,-0.02,1.0,z
2930.0,3249.0,3062.0,3493.0,4095.0,2999.0,3207.0,3503.0,-1.54,6.14,7.87,-0.05,0.06,-0.05,1.0,z
2939.0,3157.0,3059.0,3519.0,4095.0,2995.0,3203.0,3499.0,-1.66,6.06,7.93,-0.09,0.06,-0.04,1.0,z
2928.0,3258.0,3071.0,3520.0,4095.0,2998.0,3215.0,3491.0,-1.64,6.09,7.8,-0.08,0.05,-0.07,1.0,z
2896.0,3010.0,3015.0,3203.0,4095.0,2858.0,3056.0,3301.0,-0.59,8.68,4.92,0.01,-0.09,-0.14,1.0,z
2923.0,3082.0,3008.0,3204.0,4095.0,2857.0,3067.0,3303.0,-0.33,8.9,5.17,-0.02,-0.15,-0.23,1.0,z
2911.0,3085.0,3010.0,3187.0,4095.0,2861.0,3062.0,3302.0,-4.56,9.05,3.71,-0.0,0.0,-0.35,1.0,z
2911.0,3071.0,3018.0,3203.0,4095.0,2864.0,3088.0,3319.0,-9.94,6.39,1.93,-0.24,0.55,0.82,1.0,z
2917.0,3093.0,3021.0,3221.0,4095.0,2861.0,3066.0,3321.0,2.84,5.71,8.45,-1.23,1.71,2.56,1.0,z
2925.0,3088.0,3010.0,3219.0,4095.0,2855.0,3083.0,3313.0,15.03,7.29,11.13,-0.35,0.41,0.77,1.0,z
2914.0,3086.0,3009.0,3247.0,4095.0,2866.0,3070.0,3303.0,7.19,6.35,6.78,0.2,-1.24,-2.1,1.0,z
2907.0,3082.0,3011.0,3253.0,4095.0,2868.0,3067.0,3310.0,-2.46,6.59,6.57,0.29,-2.01,-2.37,1.0,z
2906.0,3056.0,3005.0,3258.0,4095.0,2883.0,3083.0,3318.0,-13.61,5.65,5.95,-0.28,-0.37,-0.99,1.0,z
2913.0,3091.0,3014.0,3249.0,4095.0,2880.0,3098.0,3322.0,-9.35,6.85,2.58,-0.96,1.86,1.53,1.0,z
2907.0,3083.0,3014.0,3251.0,4095.0,2862.0,3083.0,3328.0,3.2,5.2,11.67,-1.7,1.75,1.92,1.0,z
2910.0,3098.0,3031.0,3258.0,4095.0,2869.0,3095.0,3319.0,5.07,7.39,11.57,-0.79,0.83,0.3,1.0,z
2904.0,3088.0,3015.0,3239.0,4095.0,2883.0,3091.0,3333.0,-0.23,6.73,9.11,-0.12,0.01,0.13,1.0,z
2910.0,3136.0,3007.0,3258.0,4095.0,2881.0,3103.0,3343.0,-1.04,6.18,7.16,0.03,-0.02,-0.01,1.0,z
2915.0,3071.0,3029.0,3239.0,4095.0,2886.0,3088.0,3363.0,-0.99,6.52,7.93,-0.07,-0.02,-0.05,1.0,z
2915.0,3084.0,3027.0,3253.0,4095.0,2883.0,3099.0,3346.0,-1.23,6.36,7.81,-0.08,-0.03,-0.04,1.0,z
2907.0,3094.0,3018.0,3258.0,4095.0,2895.0,3107.0,3349.0,-0.76,6.3,7.83,-0.09,0.01,-0.02,1.0,z
2925.0,3082.0,3021.0,3258.0,4095.0,2890.0,3105.0,3343.0,-0.69,6.25,8.39,-0.06,0.02,-0.09,1.0,z
2911.0,3088.0,3012.0,3253.0,4095.0,2898.0,3106.0,3347.0,-1.11,6.21,7.86,-0.0,0.03,-0.06,1.0,z
2914.0,3104.0,3021.0,3258.0,4095.0,2901.0,3104.0,3346.0,-1.05,6.29,7.61,-0.17,0.02,-0.07,1.0,z
2914.0,3137.0,3029.0,3227.0,4095.0,2929.0,3104.0,3333.0,-2.54,8.89,3.94,-0.15,0.02,-0.15,1.0,z
2922.0,3088.0,3024.0,3216.0,4095.0,2934.0,3105.0,3329.0,-6.46,7.53,4.08,-0.28,0.85,0.23,1.0,z
2921.0,3087.0,3009.0,3245.0,4095.0,2943.0,3109.0,3348.0,-1.99,9.0,2.42,-0.41,1.64,0.78,1.0,z
2918.0,3088.0,3023.0,3252.0,4095.0,2931.0,3105.0,3351.0,4.43,7.71,9.16,-0.91,1.59,1.58,1.0,z
2925.0,3087.0,3031.0,3249.0,4095.0,2935.0,3120.0,3335.0,9.8,8.48,7.14,0.02,0.12,-0.23,1.0,z
2917.0,3070.0,3023.0,3264.0,4095.0,2942.0,3120.0,3339.0,4.07,7.79,5.18,-0.12,-1.5,-1.18,1.0,z
2917.0,3071.0,3015.0,3262.0,4095.0,2943.0,3111.0,3358.0,-4.04,7.81,3.97,-0.25,-1.77,-1.7,1.0,z
2913.0,3065.0,3018.0,3277.0,4095.0,2944.0,3123.0,3355.0,-11.63,6.23,6.1,-0.61,-0.06,-0.82,1.0,z
2915.0,3088.0,3024.0,3275.0,4095.0,2939.0,3115.0,3355.0,-10.24,6.34,4.72,-0.99,1.69,1.22,1.0,z
2917.0,3085.0,3023.0,3269.0,4095.0,2930.0,3117.0,3351.0,3.18,5.13,11.35,-1.64,1.47,2.49,1.0,z
2912.0,3087.0,3030.0,3279.0,4095.0,2928.0,3124.0,3375.0,4.11,7.26,10.49,-0.72,0.98,0.79,1.0,z
2910.0,3085.0,3019.0,3276.0,4095.0,2933.0,3119.0,3362.0,-0.09,7.18,8.08,-0.28,0.24,0.14,1.0,z
2910.0,3095.0,3031.0,3269.0,4095.0,2939.0,3129.0,3362.0,-0.78,6.77,7.71,-0.04,0.08,-0.02,1.0,z
2912.0,3083.0,3015.0,3278.0,4095.0,2934.0,3134.0,3375.0,-1.25,6.51,7.56,-0.09,-0.01,-0.06,1.0,z
2911.0,3104.0,3016.0,3274.0,4095.0,2944.0,3133.0,3371.0,-1.19,6.77,7.28,-0.07,-0.01,-0.03,1.0,z
2915.0,3094.0,3024.0,3273.0,4095.0,2937.0,3129.0,3372.0,-1.18,6.78,7.56,-0.04,0.05,-0.04,1.0,z
2919.0,3071.0,3023.0,3287.0,4095.0,2939.0,3127.0,3381.0,-0.98,6.83,7.49,-0.07,0.03,-0.04,1.0,z
2923.0,3085.0,3023.0,3280.0,4095.0,2940.0,3130.0,3369.0,-1.19,6.6,7.85,-0.01,0.0,-0.08,1.0,z
2916.0,3083.0,3022.0,3275.0,4095.0,2939.0,3121.0,3365.0,-1.02,6.69,7.46,0.03,0.01,-0.06,1.0,z
2922.0,3071.0,3026.0,3287.0,4095.0,2935.0,3126.0,3365.0,-1.22,6.71,7.41,-0.03,0.01,-0.05,1.0,z
2923.0,3091.0,3024.0,3292.0,4095.0,2951.0,3130.0,3377.0,-1.65,9.06,4.29,-0.04,-0.07,-0.23,1.0,z
2921.0,3118.0,3021.0,3303.0,4095.0,2959.0,3135.0,3376.0,-5.75,8.11,4.01,-0.04,0.04,-0.21,1.0,z
2926.0,3085.0,3033.0,3294.0,4095.0,2959.0,3139.0,3392.0,-8.14,6.9,4.41,0.02,0.91,1.3,1.0,z
2916.0,3087.0,3024.0,3280.0,4095.0,2944.0,3142.0,3379.0,0.74,7.72,5.15,-0.52,1.64,1.94,1.0,z
2915.0,3090.0,3017.0,3268.0,4095.0,2953.0,3131.0,3387.0,12.74,8.87,6.42,-0.16,0.74,0.71,1.0,z
2930.0,3088.0,3024.0,3277.0,4095.0,2954.0,3134.0,3381.0,8.43,8.16,5.29,-0.06,-0.87,-1.04,1.0,z
2920.0,3091.0,3018.0,3293.0,4095.0,2964.0,3149.0,3399.0,1.83,6.89,5.14,0.1,-2.13,-1.88,1.0,z
2907.0,3088.0,3011.0,3292.0,4095.0,2965.0,3131.0,3390.0,-8.32,6.19,5.61,-0.54,-1.41,-1.65,1.0,z
2917.0,3069.0,3019.0,3298.0,4095.0,2952.0,3148.0,3387.0,-12.83,7.42,4.6,-0.72,0.58,-0.11,1.0,z
2918.0,3088.0,3029.0,3308.0,4095.0,2960.0,3142.0,3392.0,-6.38,5.91,7.67,-1.42,2.19,1.8,1.0,z
2919.0,3088.0,3027.0,3309.0,4095.0,2951.0,3137.0,3385.0,5.12,6.94,10.35,-1.31,1.67,1.47,1.0,z
2899.0,3088.0,3015.0,3307.0,4095.0,2957.0,3152.0,3397.0,2.9,7.85,8.86,-0.53,0.81,0.26,1.0,z
2915.0,3088.0,3024.0,3304.0,4095.0,2959.0,3145.0,3401.0,-0.62,6.96,7.92,-0.24,0.12,0.1,1.0,z
2922.0,3071.0,3024.0,3303.0,4095.0,2965.0,3140.0,3392.0,-1.51,6.93,7.6,-0.12,-0.03,-0.19,1.0,z
2925.0,3099.0,3012.0,3296.0,4095.0,2963.0,3151.0,3399.0,-1.61,6.85,7.32,-0.04,-0.06,-0.16,1.0,z
2910.0,3091.0,3029.0,3298.0,4095.0,2959.0,3142.0,3399.0,-1.16,6.79,7.45,0.03,-0.06,-0.11,1.0,z
2909.0,3089.0,3017.0,3311.0,4095.0,2970.0,3152.0,3391.0,-1.49,6.79,7.2,-0.1,-0.09,-0.14,1.0,z
2911.0,3107.0,3029.0,3305.0,4095.0,2957.0,3143.0,3408.0,-1.59,6.67,7.48,-0.03,-0.0,-0.09,1.0,z
2925.0,3082.0,3024.0,3303.0,4095.0,2972.0,3150.0,3408.0,-1.47,6.81,7.31,-0.05,0.05,-0.06,1.0,z
2907.0,3091.0,3030.0,3307.0,4095.0,2960.0,3141.0,3408.0,-1.59,6.96,7.26,-0.07,0.0,-0.06,1.0,z
2924.0,3095.0,3025.0,3309.0,4095.0,2979.0,3153.0,3413.0,-4.8,8.67,3.06,-0.21,-0.05,0.07,1.0,z
2928.0,3099.0,3020.0,3299.0,4095.0,2975.0,3152.0,3408.0,-9.59,7.25,3.45,-0.23,1.06,1.01,1.0,z
2933.0,3082.0,3021.0,3299.0,4095.0,2970.0,3151.0,3408.0,-0.74,7.22,5.91,-0.67,1.25,1.85,1.0,z
2901.0,3095.0,3013.0,3301.0,4095.0,2975.0,3157.0,3395.0,10.21,7.65,7.34,-0.55,0.82,1.0,1.0,z
2913.0,3213.0,3014.0,3316.0,4095.0,2971.0,3156.0,3402.0,7.89,4.38,5.05,-0.28,-0.63,-0.92,1.0,z
2907.0,3088.0,3031.0,3297.0,4095.0,2974.0,3143.0,3402.0,1.93,5.77,5.44,-1.01,-1.78,-1.22,1.0,z
2917.0,3088.0,3021.0,3305.0,4095.0,2977.0,3152.0,3411.0,-8.34,10.38,7.93,-1.51,-1.14,-1.63,1.0,z
2915.0,2994.0,3017.0,3312.0,4095.0,2980.0,3152.0,3424.0,-10.98,8.29,10.67,-0.01,0.93,0.32,1.0,z
2916.0,3097.0,3036.0,3318.0,4095.0,2970.0,3152.0,3411.0,-3.83,4.59,7.85,-0.5,1.83,1.67,1.0,z
2921.0,3097.0,3024.0,3319.0,4095.0,2970.0,3157.0,3408.0,3.51,4.75,10.42,-0.67,1.5,1.32,1.0,z
2912.0,3088.0,3025.0,3312.0,4095.0,2971.0,3160.0,3414.0,2.66,6.91,8.5,-0.32,0.36,0.64,1.0,z
2919.0,3086.0,3014.0,3318.0,4095.0,2972.0,3153.0,3425.0,0.51,6.68,8.23,-0.1,0.15,0.01,1.0,z
2910.0,3091.0,3014.0,3314.0,4095.0,2971.0,3154.0,3394.0,-1.11,6.38,7.82,0.01,0.04,-0.02,1.0,z
2925.0,3088.0,3021.0,3322.0,4095.0,2969.0,3169.0,3408.0,-1.12,6.57,7.44,-0.01,0.06,-0.05,1.0,z
2919.0,3056.0,3023.0,3316.0,4095.0,2978.0,3158.0,3433.0,-1.08,6.57,7.86,-0.05,-0.01,-0.03,1.0,z
2918.0,3085.0,3023.0,3323.0,4095.0,2983.0,3158.0,3424.0,-1.1,6.76,7.58,-0.02,0.04,0.02,1.0,z
2917.0,3088.0,3023.0,3322.0,4095.0,2974.0,3158.0,3423.0,-1.1,6.67,7.62,-0.08,0.01,-0.0,1.0,z
2905.0,3101.0,3011.0,3317.0,4095.0,2975.0,3174.0,3426.0,-1.09,6.63,7.69,-0.07,0.02,-0.0,1.0,z
2917.0,3090.0,3024.0,3315.0,4095.0,2976.0,3162.0,3434.0,-0.86,6.56,7.79,-0.09,-0.03,-0.01,1.0,z
2921.0,3090.0,3027.0,3317.0,4095.0,2979.0,3158.0,3423.0,-1.1,6.76,7.41,-0.06,0.03,-0.05,1.0,z
2922.0,3083.0,3024.0,3334.0,4095.0,2993.0,3166.0,3414.0,-2.95,8.49,4.63,-0.13,-0.02,0.02,1.0,z
2911.0,3088.0,3022.0,3323.0,4095.0,2991.0,3165.0,3440.0,-8.93,5.89,3.6,0.14,0.46,0.41,1.0,z
2910.0,3071.0,3009.0,3332.0,4095.0,2993.0,3169.0,3438.0,-1.99,7.47,4.52,-0.59,1.35,1.8,1.0,z
2928.0,3102.0,3024.0,3338.0,4095.0,2985.0,3171.0,3429.0,5.96,8.49,7.76,-0.68,1.33,1.25,1.0,z
2914.0,3088.0,3024.0,3337.0,4095.0,3001.0,3170.0,3429.0,9.51,8.3,8.27,-0.08,0.16,-0.51,1.0,z
2928.0,3087.0,3021.0,3331.0,4095.0,2992.0,3170.0,3433.0,2.15,5.29,4.91,0.04,-1.6,-1.62,1.0,z
2925.0,3085.0,3028.0,3334.0,4095.0,2992.0,3166.0,3441.0,-2.98,6.03,4.79,-0.61,-1.65,-1.6,1.0,z
2909.0,3088.0,3014.0,3312.0,4095.0,3002.0,3183.0,3440.0,-8.74,7.57,10.3,-1.07,-0.97,-1.47,1.0,z
2917.0,3088.0,3026.0,3313.0,4095.0,3000.0,3185.0,3455.0,-10.35,7.65,6.87,-0.13,0.71,0.41,1.0,z
2923.0,3095.0,3029.0,3309.0,4095.0,2989.0,3182.0,3434.0,-3.49,5.61,7.11,-0.76,1.79,1.96,1.0,z
2917.0,3183.0,3025.0,3329.0,4095.0,2983.0,3184.0,3449.0,2.43,5.26,9.59,-0.9,1.54,1.47,1.0,z
2913.0,3091.0,3028.0,3338.0,4095.0,2998.0,3175.0,3427.0,2.31,7.14,9.38,-0.71,0.79,0.49,1.0,z
2918.0,2963.0,3041.0,3333.0,4095.0,2987.0,3184.0,3440.0,-0.66,6.58,8.61,-0.11,0.17,0.18,1.0,z
2909.0,3087.0,3008.0,3322.0,4095.0,2989.0,3184.0,3435.0,-1.44,6.34,7.54,-0.08,0.01,-0.16,1.0,z
2919.0,3093.0,3021.0,3329.0,4095.0,2993.0,3179.0,3437.0,-2.02,6.26,7.91,-0.03,-0.0,-0.21,1.0,z
2927.0,3088.0,3021.0,3305.0,4095.0,2986.0,3186.0,3440.0,-2.46,6.34,7.56,-0.08,-0.01,-0.14,1.0,z
2918.0,3091.0,3024.0,3314.0,4095.0,2989.0,3189.0,3452.0,-2.17,6.48,7.58,-0.07,0.01,-0.02,1.0,z
2918.0,3087.0,3021.0,3341.0,4095.0,2992.0,3184.0,3441.0,-1.98,6.21,7.89,-0.03,0.06,0.04,1.0,z
2921.0,3093.0,3015.0,3339.0,4095.0,2995.0,3195.0,3455.0,-2.01,6.22,7.66,-0.08,0.07,0.06,1.0,z
2917.0,3071.0,3020.0,3331.0,4095.0,2996.0,3194.0,3440.0,-1.84,6.06,7.76,-0.17,0.03,0.04,1.0,z
2906.0,2990.0,3029.0,3347.0,4095.0,2990.0,3182.0,3461.0,-4.2,8.08,4.15,-0.17,0.09,-0.01,1.0,z
2915.0,3111.0,3011.0,3344.0,4095.0,2992.0,3181.0,3449.0,-8.84,5.89,3.64,-0.33,0.71,0.93,1.0,z
2915.0,2989.0,3026.0,3339.0,4095.0,2990.0,3184.0,3456.0,-3.15,7.82,4.55,-0.65,1.78,1.86,1.0,z
2914.0,3085.0,3033.0,3342.0,4095.0,2992.0,3189.0,3458.0,7.41,7.92,7.85,-1.03,1.34,1.36,1.0,z
2911.0,3071.0,3025.0,3328.0,4095.0,3005.0,3183.0,3440.0,10.5,9.32,8.14,0.06,-0.26,-0.87,1.0,z
2913.0,3088.0,3024.0,3331.0,4095.0,3008.0,3187.0,3447.0,1.62,5.37,5.63,0.09,-1.92,-1.64,1.0,z
2927.0,3095.0,3015.0,3325.0,4095.0,3007.0,3185.0,3440.0,-3.69,7.59,3.84,-0.8,-2.2,-1.62,1.0,z
2916.0,3081.0,3027.0,3328.0,4095.0,3007.0,3183.0,3465.0,-11.16,7.04,10.15,-0.65,-0.49,-1.26,1.0,z
2912.0,3149.0,3021.0,3329.0,4095.0,3007.0,3199.0,3456.0,-10.11,5.71,4.61,-0.82,1.66,0.98,1.0,z
2915.0,3083.0,3024.0,3344.0,4095.0,3008.0,3193.0,3445.0,-1.72,4.09,10.4,-1.2,1.53,2.27,1.0,z
2910.0,3110.0,3025.0,3344.0,4095.0,3005.0,3191.0,3452.0,5.02,6.63,10.58,-0.59,0.8,1.09,1.0,z
2923.0,3022.0,3021.0,3344.0,4095.0,3002.0,3200.0,3455.0,0.19,6.19,8.75,-0.23,0.03,0.35,1.0,z
2913.0,3098.0,3019.0,3342.0,4095.0,3003.0,3200.0,3446.0,-1.45,6.2,8.09,-0.05,-0.01,0.0,1.0,z
2907.0,3095.0,3021.0,3344.0,4095.0,3012.0,3189.0,3451.0,-1.86,6.15,7.63,-0.08,0.02,-0.06,1.0,z
2910.0,3095.0,3024.0,3328.0,4095.0,2998.0,3201.0,3456.0,-1.94,6.2,7.96,-0.1,0.02,-0.08,1.0,z
2921.0,3098.0,3035.0,3347.0,4095.0,2999.0,3195.0,3458.0,-1.84,6.12,7.79,-0.04,0.04,-0.06,1.0,z
2924.0,3100.0,3023.0,3347.0,4095.0,3010.0,3200.0,3456.0,-1.9,6.02,7.87,-0.1,-0.01,-0.07,1.0,z
2909.0,3090.0,3029.0,3355.0,4095.0,3008.0,3195.0,3462.0,-1.94,5.95,8.04,-0.06,0.01,-0.06,1.0,z
2913.0,3090.0,3015.0,3358.0,4095.0,3006.0,3185.0,3455.0,-2.14,6.09,8.24,-0.06,0.17,0.03,1.0,z
2927.0,3087.0,3024.0,3345.0,4095.0,3008.0,3200.0,3450.0,-1.76,6.25,7.65,0.04,-0.01,0.07,1.0,z
2917.0,3118.0,3033.0,3350.0,4095.0,3011.0,3194.0,3462.0,-1.54,8.66,4.57,-0.09,-0.04,-0.07,1.0,z
2919.0,3081.0,3025.0,3367.0,4095.0,3009.0,3203.0,3471.0,-6.3,7.28,4.42,-0.09,0.09,0.08,1.0,z
2927.0,3078.0,3014.0,3361.0,4095.0,2999.0,3191.0,3477.0,-8.28,6.0,3.75,-0.49,0.67,1.94,1.0,z
2909.0,3093.0,3024.0,3361.0,4095.0,2995.0,3203.0,3466.0,4.57,6.59,7.23,-0.77,1.15,2.18,1.0,z
2912.0,3082.0,3010.0,3331.0,4095.0,3009.0,3191.0,3456.0,12.22,8.1,7.75,-0.31,0.6,0.12,1.0,z
2922.0,3091.0,3028.0,3333.0,4095.0,3007.0,3191.0,3455.0,6.5,5.28,6.21,-0.31,-0.83,-1.49,1.0,z
2916.0,3092.0,3037.0,3346.0,4095.0,3015.0,3199.0,3459.0,-0.65,7.23,5.37,-0.75,-1.99,-1.75,1.0,z
2924.0,3091.0,3026.0,3359.0,4095.0,3003.0,3199.0,3473.0,-10.91,6.63,12.41,-1.16,-0.98,-1.6,1.0,z
2928.0,3087.0,3026.0,3345.0,4095.0,3013.0,3201.0,3483.0,-10.49,6.15,6.21,-0.23,0.97,0.82,1.0,z
2911.0,3101.0,3034.0,3358.0,4095.0,3011.0,3190.0,3485.0,-1.72,4.1,8.69,-0.92,1.89,2.37,1.0,z
2926.0,3088.0,3030.0,3343.0,4095.0,3008.0,3201.0,3471.0,5.17,5.94,11.08,-0.89,1.53,1.43,1.0,z
2907.0,3084.0,3024.0,3347.0,4095.0,3013.0,3205.0,3456.0,2.79,6.77,9.11,-0.42,0.39,0.53,1.0,z
2915.0,3088.0,3023.0,3358.0,4095.0,3003.0,3199.0,3457.0,-0.49,6.07,8.68,-0.14,0.01,-0.07,1.0,z
2919.0,3097.0,3023.0,3366.0,4095.0,3014.0,3200.0,3477.0,-1.15,5.72,8.47,0.01,-0.01,-0.13,1.0,z
2924.0,3079.0,3029.0,3358.0,4095.0,3006.0,3196.0,3461.0,-1.04,5.76,8.16,-0.05,-0.02,-0.05,1.0,z
2910.0,3095.0,3024.0,3370.0,4095.0,3013.0,3211.0,3462.0,-1.07,5.69,8.01,-0.1,0.02,-0.07,1.0,z
2925.0,3081.0,3023.0,3370.0,4095.0,3009.0,3209.0,3471.0,-1.09,5.64,8.42,-0.13,-0.01,-0.08,1.0,z
2927.0,3089.0,3024.0,3355.0,4095.0,3019.0,3191.0,3466.0,-1.23,5.71,8.45,-0.11,0.02,-0.06,1.0,z
2918.0,2985.0,3031.0,3370.0,4095.0,3008.0,3199.0,3482.0,-1.18,5.65,8.52,-0.09,0.01,-0.04,1.0,z
2923.0,3092.0,3035.0,3371.0,4095.0,3020.0,3200.0,3470.0,-1.07,5.47,8.52,-0.11,0.02,-0.0,1.0,z
2906.0,3084.0,3024.0,3375.0,4095.0,3008.0,3205.0,3477.0,-2.09,7.9,5.5,-0.14,-0.16,-0.13,1.0,z
2917.0,3095.0,3024.0,3370.0,4095.0,3011.0,3205.0,3472.0,-7.47,6.28,5.98,-0.12,-0.01,0.28,1.0,z
2910.0,3071.0,3019.0,3357.0,4095.0,2994.0,3200.0,3491.0,-3.71,7.82,5.26,-0.5,1.19,1.86,1.0,z
2930.0,3086.0,3014.0,3364.0,4095.0,3008.0,3196.0,3485.0,3.34,6.5,7.19,-0.9,1.63,1.67,1.0,z
2912.0,3093.0,3039.0,3369.0,4095.0,3005.0,3191.0,3471.0,11.43,7.66,8.53,-0.35,0.46,0.36,1.0,z
2913.0,3071.0,3033.0,3365.0,4095.0,3020.0,3202.0,3475.0,6.43,6.51,6.86,-0.08,-1.25,-1.35,1.0,z
2915.0,3090.0,3024.0,3365.0,4095.0,3007.0,3205.0,3482.0,-2.1,6.34,6.13,-0.15,-1.89,-1.73,1.0,z
2919.0,3092.0,3024.0,3398.0,4095.0,3023.0,3200.0,3479.0,-10.03,5.33,8.3,-0.74,-0.5,-1.01,1.0,z
2921.0,3063.0,3025.0,3391.0,4095.0,3017.0,3205.0,3490.0,-8.82,4.89,6.18,-0.95,1.49,1.13,1.0,z
2925.0,3060.0,3027.0,3362.0,4095.0,3013.0,3201.0,3486.0,3.65,5.84,11.14,-1.28,1.54,1.69,1.0,z
2916.0,3095.0,3026.0,3376.0,4095.0,3019.0,3202.0,3479.0,4.8,6.85,11.46,-0.5,0.48,0.94,1.0,z
2920.0,3117.0,3036.0,3375.0,4095.0,3008.0,3211.0,3485.0,0.96,5.86,9.0,-0.16,0.11,0.07,1.0,z
2924.0,3018.0,3014.0,3371.0,4095.0,3008.0,3208.0,3472.0,-0.52,5.42,8.44,-0.11,0.03,-0.04,1.0,z
2927.0,3019.0,3030.0,3381.0,4095.0,3019.0,3205.0,3472.0,-0.99,5.48,8.56,-0.12,0.06,-0.09,1.0,z
2927.0,3098.0,3010.0,3385.0,4095.0,3006.0,3209.0,3471.0,-0.85,5.34,8.89,-0.08,0.04,-0.07,1.0,z
2916.0,3153.0,3035.0,3374.0,4095.0,3015.0,3205.0,3474.0,-1.11,5.2,8.69,-0.09,0.05,-0.07,1.0,z
2918.0,3088.0,3024.0,3375.0,4095.0,3007.0,3206.0,3491.0,-1.07,5.26,8.79,-0.06,0.05,-0.04,1.0,z
2926.0,3047.0,3023.0,3378.0,4095.0,3020.0,3213.0,3475.0,-0.88,5.26,8.57,-0.05,0.06,-0.03,1.0,z
2925.0,3088.0,3024.0,3381.0,4095.0,3015.0,3219.0,3473.0,-1.09,5.14,8.66,-0.05,0.03,-0.04,1.0,z
2921.0,3103.0,3024.0,3377.0,4095.0,3021.0,3210.0,3485.0,-1.12,5.18,8.68,-0.08,0.02,-0.02,1.0,z
2914.0,3091.0,3038.0,3365.0,4095.0,3021.0,3197.0,3489.0,-5.51,6.74,5.52,-0.17,0.11,0.1,1.0,z
2929.0,3090.0,3008.0,3373.0,4095.0,3024.0,3210.0,3504.0,-8.77,5.81,5.29,-0.02,0.94,1.34,1.0,z
2925.0,3106.0,3027.0,3359.0,4095.0,3031.0,3194.0,3490.0,3.0,7.29,6.71,-0.64,1.39,2.23,1.0,z
2915.0,3104.0,3029.0,3365.0,4095.0,3019.0,3207.0,3455.0,13.24,9.09,7.27,-0.29,0.49,0.33,1.0,z
2917.0,3018.0,3027.0,3362.0,4095.0,3031.0,3204.0,3475.0,6.24,5.92,5.3,-0.12,-0.94,-1.32,1.0,z
2925.0,3087.0,3024.0,3343.0,4095.0,3032.0,3201.0,3454.0,1.14,6.91,4.85,-0.77,-1.98,-1.6,1.0,z
2919.0,3093.0,3024.0,3350.0,4095.0,3026.0,3204.0,3485.0,-9.11,5.64,9.97,-1.2,-1.06,-1.77,1.0,z
2912.0,3093.0,3027.0,3358.0,4095.0,3025.0,3203.0,3494.0,-9.63,5.89,7.5,-0.7,0.85,0.61,1.0,z
2925.0,3013.0,3026.0,3368.0,4095.0,3027.0,3204.0,3477.0,-4.97,3.49,8.69,-1.19,1.6,2.13,1.0,z
2919.0,3092.0,3027.0,3344.0,4095.0,3024.0,3207.0,3469.0,8.6,5.67,12.26,-0.88,0.93,2.02,1.0,z
2923.0,3088.0,3019.0,3343.0,4095.0,3030.0,3201.0,3475.0,2.13,5.39,10.09,-0.5,0.3,0.64,1.0,z
2923.0,3088.0,3025.0,3359.0,4095.0,3024.0,3216.0,3479.0,0.83,5.49,9.49,-0.15,-0.01,0.12,1.0,z
2914.0,3099.0,3026.0,3369.0,4095.0,3034.0,3216.0,3483.0,-0.68,4.76,8.93,-0.03,-0.03,-0.07,1.0,z
2924.0,3097.0,3024.0,3373.0,4095.0,3031.0,3213.0,3473.0,-0.65,5.02,8.76,-0.04,0.04,-0.06,1.0,z
2914.0,3085.0,3037.0,3365.0,4095.0,3034.0,3221.0,3486.0,-0.41,5.2,8.68,-0.08,0.01,-0.11,1.0,z
2926.0,3098.0,3031.0,3359.0,4095.0,3033.0,3200.0,3490.0,-0.83,5.0,9.12,-0.05,-0.01,-0.09,1.0,z
2919.0,3089.0,3026.0,3363.0,4095.0,3038.0,3211.0,3486.0,-0.84,5.06,8.69,-0.07,-0.04,-0.06,1.0,z
2928.0,3107.0,3026.0,3371.0,4095.0,3033.0,3212.0,3486.0,-0.53,4.94,8.77,-0.1,-0.0,-0.01,1.0,z
2917.0,3087.0,3023.0,3371.0,4095.0,3031.0,3215.0,3472.0,-0.6,4.93,9.13,-0.05,-0.01,-0.02,1.0,z
2915.0,3093.0,3039.0,3375.0,4095.0,3033.0,3217.0,3499.0,-0.42,5.04,8.77,-0.04,0.01,-0.02,1.0,z
