hall_1,hall_2,hall_3,flex_t,flex_i,flex_m,flex_r,flex_p,accel_x,accel_y,accel_z,gyro_x,gyro_y,gyro_z,sign
3130.0,3126.0,4095.0,3314.0,3085.0,3008.0,2377.0,4095.0,4.13,8.51,-1.26,-0.03,-0.03,-0.04,i
3136.0,3095.0,4095.0,3217.0,3066.0,3055.0,2406.0,4095.0,4.17,9.52,-1.64,-0.01,0.04,-0.05,i
3263.0,3131.0,4095.0,3305.0,3067.0,3101.0,2443.0,4095.0,4.04,7.59,-0.67,-0.07,-0.11,-0.18,i
4095.0,3174.0,4095.0,3344.0,3055.0,3120.0,2448.0,4095.0,4.44,10.03,-1.73,0.35,0.01,0.12,i
4095.0,3163.0,4095.0,3411.0,3055.0,3129.0,2480.0,4095.0,3.89,8.4,-1.39,-0.1,0.0,-0.15,i
3508.0,3143.0,4095.0,3519.0,3050.0,3129.0,2494.0,4095.0,4.42,9.09,-1.75,0.09,-0.2,0.07,i
3639.0,3139.0,4095.0,3539.0,3055.0,3122.0,2492.0,4095.0,4.15,8.34,-1.53,-0.14,0.09,-0.17,i
4095.0,3184.0,4095.0,3191.0,3059.0,3117.0,2389.0,4095.0,4.48,8.73,-1.59,-0.03,-0.0,-0.13,i
4095.0,3198.0,4095.0,2954.0,3068.0,3063.0,2334.0,4095.0,3.38,8.68,-1.47,-0.06,0.06,-0.23,i
4095.0,3179.0,4095.0,2873.0,3071.0,3044.0,2310.0,4095.0,3.98,9.27,-1.54,-0.02,-0.05,0.1,i
4095.0,3207.0,4095.0,2837.0,3066.0,3030.0,2311.0,4095.0,3.77,9.04,-1.43,-0.0,-0.07,-0.12,i
4095.0,3191.0,4095.0,2843.0,3071.0,3030.0,2318.0,4095.0,3.9,8.83,-1.55,0.02,-0.01,0.05,i
4095.0,3191.0,4095.0,2834.0,3066.0,3029.0,2305.0,4095.0,4.07,8.92,-1.81,-0.02,0.07,-0.06,i
3417.0,3153.0,4095.0,2809.0,3067.0,3024.0,2302.0,4095.0,3.81,8.8,-1.54,-0.1,0.02,0.1,i
3109.0,3071.0,4095.0,2801.0,3069.0,3021.0,2295.0,4095.0,4.46,9.14,-1.58,-0.09,0.17,-0.08,i
2819.0,2793.0,4095.0,2821.0,3082.0,3019.0,2289.0,4095.0,3.85,8.76,-1.41,0.01,0.15,-0.01,i
2787.0,2795.0,3997.0,2849.0,3069.0,3024.0,2282.0,4095.0,3.85,9.34,-1.53,-0.01,0.1,-0.11,i
2783.0,2800.0,3961.0,2878.0,3071.0,3029.0,2301.0,4095.0,3.61,8.66,-1.41,-0.03,0.03,-0.04,i
2773.0,2803.0,3775.0,2885.0,3083.0,3029.0,2304.0,4095.0,3.77,8.48,-1.34,-0.15,0.11,0.03,i
2765.0,2800.0,3440.0,2890.0,3071.0,3029.0,2288.0,4095.0,3.77,8.82,-1.29,-0.14,0.0,0.1,i
2785.0,2785.0,3222.0,2950.0,3068.0,3059.0,2279.0,4095.0,3.97,9.28,-1.33,0.1,-0.2,0.08,i
2766.0,2791.0,3213.0,3179.0,3053.0,3097.0,2374.0,3869.0,4.18,9.04,-1.4,0.2,-0.24,-0.02,i
2482.0,2797.0,3263.0,3583.0,3024.0,3057.0,2493.0,3729.0,4.7,8.83,-1.51,0.29,-0.25,-0.2,i
2492.0,2807.0,3322.0,3967.0,3008.0,3049.0,2551.0,3712.0,3.79,8.91,-1.88,0.37,-0.02,-0.03,i
2479.0,2817.0,3259.0,3515.0,3014.0,3046.0,2487.0,3725.0,4.13,9.27,-2.21,0.34,-0.21,-0.07,i
2444.0,2832.0,3098.0,2911.0,3026.0,2992.0,2338.0,3757.0,3.89,8.43,-2.46,0.06,-0.12,-0.23,i
2437.0,2841.0,3041.0,2783.0,3045.0,2978.0,2304.0,3852.0,3.2,8.79,-2.42,-0.15,0.08,0.1,i
2442.0,2832.0,3824.0,2730.0,3056.0,2985.0,2221.0,4048.0,4.22,9.22,-2.22,-0.26,-0.01,-0.04,i
2460.0,2832.0,4095.0,2705.0,3059.0,2992.0,2219.0,4095.0,3.63,8.68,-1.76,-0.09,0.0,-0.0,i
2473.0,2837.0,4095.0,2656.0,3061.0,2998.0,2201.0,4095.0,3.66,8.75,-1.62,-0.22,0.12,-0.06,i
2743.0,3120.0,4095.0,2626.0,3071.0,2994.0,2197.0,4095.0,4.31,9.29,-2.03,-0.12,0.05,0.0,i
3487.0,3216.0,4095.0,2599.0,3081.0,3003.0,2205.0,4095.0,3.76,8.36,-1.48,-0.14,0.05,0.06,i
2897.0,3216.0,4095.0,2593.0,3082.0,3002.0,2195.0,4095.0,3.74,9.09,-1.81,-0.22,0.21,0.11,i
2862.0,3191.0,4095.0,2603.0,3078.0,3001.0,2197.0,4095.0,4.14,9.04,-1.32,0.02,0.01,0.07,i
4095.0,3271.0,4095.0,2595.0,3071.0,2992.0,2202.0,4095.0,3.87,8.52,-1.47,-0.2,0.19,-0.03,i
4095.0,3273.0,4095.0,2588.0,3081.0,2982.0,2211.0,4095.0,3.97,8.92,-1.49,-0.01,0.08,0.19,i
2802.0,3153.0,4095.0,2547.0,3070.0,2945.0,2211.0,4095.0,3.92,8.14,-0.99,0.22,-0.2,0.16,i
2843.0,3153.0,4095.0,2558.0,3053.0,2955.0,2215.0,4095.0,4.64,9.77,-1.92,0.12,0.04,-0.15,i
2963.0,3183.0,4095.0,2748.0,3040.0,2992.0,2287.0,4095.0,3.39,8.31,-1.14,0.17,-0.09,-0.17,i
3735.0,3187.0,4095.0,2832.0,3043.0,3015.0,2337.0,4095.0,3.86,9.24,-1.92,-0.01,0.02,-0.02,i
4095.0,3202.0,4095.0,2921.0,3051.0,3027.0,2355.0,4095.0,4.42,8.93,-1.85,0.17,-0.11,-0.15,i
4095.0,3215.0,4095.0,3069.0,3055.0,3054.0,2381.0,4095.0,3.9,9.02,-2.11,-0.11,0.05,0.05,i
4095.0,3218.0,4095.0,3127.0,3055.0,3058.0,2384.0,4095.0,3.9,8.9,-1.81,0.08,-0.04,-0.13,i
4095.0,3216.0,4095.0,3022.0,3057.0,3055.0,2351.0,4095.0,3.71,9.08,-1.86,-0.06,0.02,-0.05,i
4095.0,3216.0,4095.0,2811.0,3059.0,3035.0,2315.0,4095.0,3.9,8.96,-1.79,0.07,-0.1,-0.02,i
4095.0,3211.0,4095.0,2736.0,3059.0,3024.0,2289.0,4095.0,3.85,8.75,-1.9,-0.06,0.01,0.2,i
4095.0,3225.0,4095.0,2709.0,3066.0,3023.0,2290.0,4095.0,4.35,8.66,-2.02,0.0,-0.11,0.04,i
4095.0,3298.0,4095.0,2709.0,3065.0,3023.0,2298.0,4095.0,3.95,8.8,-2.02,-0.01,-0.03,0.12,i
4095.0,3574.0,4095.0,2704.0,3071.0,3019.0,2305.0,4095.0,4.24,8.65,-1.88,-0.17,0.1,-0.07,i
2901.0,3166.0,4095.0,2692.0,3083.0,3022.0,2310.0,4095.0,4.24,9.37,-2.31,-0.11,0.03,0.08,i
2559.0,2831.0,4095.0,2684.0,3083.0,3018.0,2314.0,4095.0,4.0,8.7,-1.72,-0.05,0.04,-0.03,i
2559.0,2838.0,4095.0,2704.0,3086.0,3017.0,2317.0,4095.0,3.93,8.73,-1.82,-0.07,0.1,0.11,i
2727.0,3006.0,4095.0,2711.0,3089.0,3014.0,2320.0,4095.0,4.42,8.9,-1.89,-0.03,-0.02,-0.01,i
2864.0,3142.0,4095.0,2722.0,3090.0,3017.0,2318.0,4095.0,3.82,8.55,-1.53,-0.01,0.03,0.04,i
4095.0,3346.0,4095.0,2723.0,3091.0,3009.0,2319.0,4095.0,3.92,8.97,-1.98,-0.04,0.17,-0.0,i
4095.0,3214.0,4095.0,2724.0,3093.0,3003.0,2316.0,4095.0,4.48,8.75,-1.92,0.05,-0.05,-0.0,i
2854.0,3138.0,4095.0,2726.0,3092.0,3003.0,2322.0,4095.0,4.04,8.48,-1.87,-0.13,0.08,-0.01,i
2754.0,3066.0,4095.0,2731.0,3093.0,3011.0,2322.0,4095.0,4.39,8.59,-1.72,-0.05,-0.02,0.0,i
2633.0,2919.0,4095.0,2757.0,3095.0,3010.0,2326.0,4095.0,3.77,8.87,-1.87,0.01,-0.01,-0.02,i
2881.0,3152.0,4095.0,2897.0,3094.0,3047.0,2370.0,4095.0,3.84,8.68,-1.59,-0.06,-0.05,-0.02,i
2923.0,3152.0,4095.0,3069.0,3085.0,3083.0,2415.0,4095.0,4.38,9.04,-1.94,0.06,-0.05,-0.06,i
2949.0,3162.0,4095.0,3152.0,3087.0,3089.0,2445.0,4095.0,4.19,8.27,-1.51,-0.02,0.02,-0.12,i
4037.0,3191.0,4095.0,2973.0,3092.0,3088.0,2415.0,4095.0,3.7,8.79,-1.86,-0.11,0.07,0.06,i
4095.0,3207.0,4095.0,2833.0,3092.0,3056.0,2380.0,4095.0,4.29,8.94,-1.81,0.05,-0.02,-0.01,i
4095.0,3215.0,4095.0,2800.0,3094.0,3046.0,2355.0,4095.0,4.16,8.65,-1.82,-0.07,-0.01,0.01,i
4095.0,3222.0,4095.0,2765.0,3094.0,3039.0,2350.0,4095.0,3.99,8.86,-2.01,-0.03,0.06,0.02,i
4095.0,3229.0,4095.0,2746.0,3099.0,3044.0,2337.0,4095.0,4.23,8.7,-1.79,-0.04,0.03,-0.02,i
4095.0,3233.0,4095.0,2751.0,3099.0,3043.0,2335.0,4095.0,4.1,8.88,-1.93,-0.04,0.04,-0.03,i
4095.0,3244.0,4095.0,2739.0,3101.0,3038.0,2332.0,4095.0,4.23,8.68,-1.54,0.01,-0.02,-0.04,i
4095.0,3203.0,4095.0,2750.0,3102.0,3036.0,2339.0,4095.0,4.23,8.95,-1.7,0.03,0.04,-0.02,i
3527.0,3190.0,4095.0,2757.0,3099.0,3031.0,2343.0,4095.0,3.82,8.65,-1.85,0.06,-0.0,0.04,i
3309.0,3184.0,4095.0,2739.0,3099.0,3024.0,2325.0,4095.0,4.7,8.72,-2.12,-0.13,0.09,-0.07,i
4045.0,3203.0,4095.0,2734.0,3099.0,3030.0,2333.0,4095.0,4.24,8.93,-1.95,-0.08,-0.01,0.04,i
4095.0,3193.0,4095.0,2758.0,3104.0,3033.0,2341.0,4095.0,4.2,8.77,-1.65,-0.09,0.0,-0.03,i
4095.0,3199.0,4095.0,2795.0,3107.0,3045.0,2352.0,4095.0,4.05,9.01,-1.92,-0.04,0.08,-0.0,i
4095.0,3209.0,4095.0,2892.0,3108.0,3060.0,2374.0,4095.0,4.13,8.73,-1.72,0.02,-0.0,0.0,i
4095.0,3201.0,4095.0,3090.0,3101.0,3096.0,2415.0,4095.0,4.56,8.76,-2.01,-0.11,0.09,-0.09,i
4095.0,3202.0,4095.0,3259.0,3095.0,3109.0,2425.0,4095.0,4.09,8.63,-1.75,0.0,0.08,-0.15,i
4095.0,3205.0,4095.0,3091.0,3098.0,3098.0,2384.0,4095.0,3.87,8.99,-1.5,-0.08,-0.02,-0.0,i
4095.0,3207.0,4095.0,2861.0,3107.0,3061.0,2349.0,4095.0,4.06,8.98,-1.61,0.02,-0.09,-0.07,i
4095.0,3219.0,4095.0,2790.0,3109.0,3044.0,2331.0,4095.0,3.87,8.78,-1.78,0.0,-0.03,0.09,i
4095.0,3213.0,4095.0,2742.0,3106.0,3024.0,2310.0,4095.0,4.28,8.58,-2.01,-0.1,-0.07,0.06,i
4095.0,3226.0,4095.0,2704.0,3106.0,3024.0,2300.0,4095.0,4.29,8.76,-1.89,-0.05,0.01,0.09,i
4095.0,3217.0,4095.0,2704.0,3106.0,3022.0,2301.0,4095.0,3.98,8.56,-1.67,-0.16,0.09,-0.04,i
4095.0,3230.0,4095.0,2725.0,3108.0,3023.0,2305.0,4095.0,4.18,8.94,-1.6,-0.07,0.01,0.08,i
4095.0,3234.0,4095.0,2759.0,3111.0,3024.0,2321.0,4095.0,4.26,8.66,-1.56,-0.05,0.04,0.01,i
4095.0,3223.0,4095.0,2868.0,3118.0,3041.0,2341.0,4095.0,4.33,8.73,-1.54,-0.13,0.11,-0.01,i
4095.0,3219.0,4095.0,3017.0,3119.0,3067.0,2384.0,4095.0,4.32,8.92,-1.5,-0.03,0.04,-0.01,i
4095.0,3216.0,4095.0,3135.0,3114.0,3088.0,2402.0,4095.0,4.34,8.72,-1.42,-0.05,-0.03,-0.02,i
4095.0,3225.0,4095.0,3168.0,3111.0,3090.0,2403.0,4095.0,4.31,8.68,-1.36,-0.07,-0.04,-0.06,i
4095.0,3229.0,4095.0,3184.0,3119.0,3097.0,2415.0,4095.0,4.18,8.84,-1.36,-0.04,-0.05,0.03,i
4095.0,3229.0,4095.0,3191.0,3120.0,3100.0,2415.0,4095.0,4.12,8.92,-1.53,0.01,-0.01,-0.04,i
4095.0,3232.0,4095.0,3130.0,3121.0,3097.0,2409.0,4095.0,4.3,8.8,-1.49,-0.01,-0.11,-0.04,i
4095.0,3241.0,4095.0,3046.0,3124.0,3090.0,2398.0,4095.0,4.1,8.79,-1.72,0.05,0.02,-0.12,i
4095.0,3248.0,4095.0,2999.0,3120.0,3088.0,2395.0,4095.0,4.2,8.61,-1.71,-0.01,-0.16,0.03,i
4095.0,3269.0,4095.0,2983.0,3122.0,3091.0,2410.0,4095.0,4.21,8.93,-1.76,0.03,0.03,-0.05,i
4095.0,3260.0,4095.0,2950.0,3125.0,3085.0,2409.0,4095.0,4.14,8.81,-1.76,-0.04,0.02,0.05,i
4095.0,3251.0,4095.0,2910.0,3125.0,3085.0,2400.0,4095.0,4.18,8.55,-1.65,-0.02,0.07,-0.03,i
4095.0,3263.0,4095.0,2877.0,3125.0,3069.0,2382.0,4095.0,4.26,8.8,-1.73,-0.01,0.01,0.06,i
4095.0,3268.0,4095.0,2852.0,3125.0,3060.0,2366.0,4095.0,4.32,8.46,-1.53,-0.02,0.03,-0.03,i
4095.0,3253.0,4095.0,2823.0,3125.0,3056.0,2361.0,4095.0,4.27,8.88,-1.62,-0.06,0.02,0.0,i
4095.0,3260.0,4095.0,2833.0,3126.0,3056.0,2365.0,4095.0,4.13,8.84,-1.58,0.04,0.03,-0.01,i
4095.0,3253.0,4095.0,2866.0,3125.0,3060.0,2371.0,4095.0,4.33,8.54,-1.74,-0.04,0.04,-0.03,i
4095.0,3237.0,4095.0,2935.0,3123.0,3071.0,2395.0,4095.0,4.49,8.81,-1.67,0.03,0.13,-0.06,i
4095.0,3235.0,4095.0,3056.0,3120.0,3095.0,2422.0,4095.0,4.14,8.54,-1.52,-0.08,0.02,-0.07,i
4095.0,3245.0,4095.0,3068.0,3122.0,3098.0,2426.0,4095.0,4.15,8.9,-1.71,-0.05,-0.06,-0.02,i
4095.0,3261.0,4095.0,3062.0,3126.0,3102.0,2425.0,4095.0,4.07,8.88,-1.69,0.02,-0.03,-0.01,i
4095.0,3245.0,4095.0,2949.0,3129.0,3088.0,2402.0,4095.0,4.09,8.62,-1.79,-0.01,-0.02,-0.06,i
4095.0,3250.0,4095.0,2862.0,3124.0,3071.0,2375.0,4095.0,3.95,8.82,-1.88,0.04,0.04,0.07,i
4095.0,3251.0,4095.0,2796.0,3125.0,3055.0,2351.0,4095.0,4.37,8.51,-1.73,-0.06,0.03,0.01,i
4095.0,3261.0,4095.0,2758.0,3120.0,3047.0,2347.0,4095.0,4.17,8.85,-1.9,-0.02,0.11,0.0,i
4095.0,3271.0,4095.0,2767.0,3120.0,3044.0,2350.0,4095.0,4.3,8.48,-1.5,-0.08,0.05,-0.04,i
4095.0,3248.0,4095.0,2822.0,3122.0,3056.0,2367.0,4095.0,4.41,8.9,-1.54,-0.09,0.05,0.01,i
4095.0,3249.0,4095.0,2895.0,3125.0,3067.0,2388.0,4095.0,4.36,8.77,-1.44,-0.05,0.02,-0.07,i
4095.0,3237.0,4095.0,3008.0,3129.0,3094.0,2416.0,4095.0,4.13,8.87,-1.56,-0.07,0.06,-0.06,i
4095.0,3223.0,4095.0,3083.0,3131.0,3102.0,2426.0,4095.0,4.22,8.6,-1.34,-0.03,-0.06,0.03,i
4095.0,3248.0,4095.0,3106.0,3131.0,3105.0,2432.0,4095.0,4.19,8.73,-1.65,-0.07,-0.02,-0.02,i
4095.0,3243.0,4095.0,2935.0,3133.0,3089.0,2413.0,4095.0,4.17,8.71,-1.62,-0.03,0.05,0.0,i
4095.0,3248.0,4095.0,2787.0,3130.0,3067.0,2370.0,4095.0,4.29,8.62,-1.43,-0.09,-0.05,0.07,i
4095.0,3242.0,4095.0,2684.0,3120.0,3056.0,2352.0,4095.0,4.26,9.0,-1.48,-0.0,0.04,0.07,i
4095.0,3230.0,4095.0,2654.0,3116.0,3046.0,2352.0,4095.0,4.35,8.55,-1.26,-0.04,-0.0,-0.02,i
4095.0,3243.0,4095.0,2671.0,3111.0,3039.0,2355.0,4095.0,4.53,8.93,-1.59,-0.0,-0.01,-0.04,i
4095.0,3237.0,4095.0,2676.0,3099.0,3024.0,2351.0,4095.0,4.29,8.58,-1.51,0.07,-0.12,-0.03,i
4095.0,3238.0,4095.0,2687.0,3090.0,3008.0,2347.0,4095.0,3.98,8.62,-1.87,-0.06,0.04,-0.05,i
4095.0,3254.0,4095.0,2722.0,3071.0,2992.0,2346.0,4095.0,4.19,8.7,-1.69,-0.0,-0.05,-0.01,i
4095.0,3263.0,4095.0,2767.0,3058.0,2991.0,2354.0,4095.0,4.12,8.63,-1.72,-0.09,0.08,-0.01,i
4095.0,3251.0,4095.0,2832.0,3063.0,3005.0,2366.0,4095.0,4.23,8.81,-1.6,-0.04,0.09,-0.03,i
4095.0,3247.0,4095.0,2873.0,3088.0,3024.0,2394.0,4095.0,4.25,9.0,-1.54,-0.08,0.1,0.04,i
4095.0,3248.0,4095.0,2799.0,3092.0,3039.0,2387.0,4095.0,4.57,8.73,-1.6,-0.09,0.05,-0.06,i
4095.0,3249.0,4095.0,2634.0,3097.0,3024.0,2357.0,4095.0,3.97,8.06,-1.08,-0.14,0.06,-0.02,i
4095.0,3248.0,4095.0,2559.0,3094.0,3015.0,2343.0,4095.0,4.32,8.83,-1.36,-0.08,0.02,-0.01,i
4095.0,3246.0,4095.0,2559.0,3101.0,3014.0,2335.0,4095.0,4.03,8.53,-1.11,-0.02,-0.02,-0.01,i
4095.0,3266.0,4095.0,2638.0,3105.0,3021.0,2365.0,4095.0,4.28,9.0,-1.51,-0.05,0.0,0.04,i
4095.0,3251.0,4095.0,2682.0,3107.0,3026.0,2379.0,4095.0,4.28,8.39,-1.3,-0.0,-0.05,0.0,i
4095.0,3248.0,4095.0,2812.0,3115.0,3050.0,2415.0,4095.0,4.22,8.88,-1.56,-0.1,0.04,0.02,i
4095.0,3238.0,4095.0,2939.0,3119.0,3071.0,2442.0,4095.0,4.23,8.34,-1.17,-0.02,-0.04,-0.03,i
4095.0,3264.0,4095.0,2981.0,3123.0,3091.0,2454.0,4095.0,4.21,9.01,-1.62,-0.1,0.04,0.01,i
4095.0,3235.0,4095.0,2892.0,3124.0,3083.0,2435.0,4095.0,4.3,8.66,-1.32,0.01,-0.07,-0.03,i
4095.0,3223.0,4095.0,2779.0,3120.0,3057.0,2400.0,4095.0,4.41,8.6,-1.27,-0.1,-0.04,-0.02,i
4095.0,3239.0,4095.0,2721.0,3122.0,3043.0,2377.0,4095.0,4.11,8.84,-1.33,-0.02,0.05,-0.01,i
4095.0,3249.0,4095.0,2694.0,3120.0,3035.0,2370.0,4095.0,4.39,8.69,-1.29,-0.03,-0.03,-0.02,i
4095.0,3265.0,4095.0,2682.0,3119.0,3025.0,2356.0,4095.0,4.4,8.86,-1.37,-0.02,0.05,0.0,i
4095.0,3263.0,4095.0,2698.0,3118.0,3024.0,2362.0,4095.0,4.19,8.63,-1.34,-0.05,-0.02,-0.01,i
4095.0,3282.0,4095.0,2746.0,3121.0,3033.0,2379.0,4095.0,4.37,8.5,-1.19,-0.05,-0.0,0.02,i
4095.0,3248.0,4095.0,2821.0,3120.0,3043.0,2405.0,4095.0,4.3,8.94,-1.49,-0.1,0.08,-0.05,i
4095.0,3249.0,4095.0,3014.0,3109.0,3050.0,2407.0,4095.0,4.49,8.45,-0.92,0.02,-0.18,-0.14,i
4095.0,3235.0,4095.0,3214.0,3094.0,3037.0,2412.0,4095.0,4.19,8.99,-1.39,-0.01,0.05,-0.08,i
4095.0,3245.0,4095.0,3217.0,3090.0,3027.0,2398.0,4095.0,4.27,8.74,-1.35,0.06,-0.15,0.02,i
4095.0,3234.0,4095.0,3175.0,3088.0,3021.0,2378.0,4095.0,4.34,8.77,-1.37,0.01,-0.06,-0.08,i
4095.0,3243.0,4095.0,3117.0,3088.0,3011.0,2357.0,4095.0,4.02,8.8,-1.49,0.04,-0.08,0.01,i
4095.0,3251.0,4095.0,3055.0,3088.0,3011.0,2352.0,4095.0,4.27,8.57,-1.48,-0.01,-0.07,-0.06,i
4095.0,3232.0,4095.0,3014.0,3088.0,3013.0,2349.0,4095.0,3.93,8.93,-1.7,0.02,0.07,-0.06,i
4005.0,3216.0,4095.0,2959.0,3098.0,3018.0,2349.0,4095.0,3.9,8.64,-1.57,-0.05,-0.08,0.05,i
3312.0,3188.0,4095.0,2895.0,3104.0,3013.0,2351.0,4095.0,4.4,8.88,-1.65,-0.02,0.06,-0.04,i
3579.0,3227.0,4095.0,2705.0,3119.0,3015.0,2346.0,4095.0,4.04,8.6,-1.47,-0.06,-0.0,0.08,i
4095.0,3216.0,4095.0,2587.0,3118.0,3007.0,2319.0,4095.0,4.56,9.15,-1.68,-0.02,-0.01,-0.14,i
4095.0,3235.0,4095.0,2585.0,3121.0,3009.0,2315.0,4095.0,4.24,8.71,-1.33,0.08,-0.12,0.05,i
4095.0,3232.0,4095.0,2559.0,3120.0,3003.0,2307.0,4095.0,4.14,8.68,-1.6,-0.04,0.05,-0.06,i
4095.0,3220.0,4095.0,2593.0,3121.0,3007.0,2311.0,4095.0,4.2,9.03,-1.66,0.02,-0.01,0.06,i
4095.0,3232.0,4095.0,2609.0,3120.0,3005.0,2323.0,4095.0,4.23,8.6,-1.66,-0.02,0.01,-0.03,i
4095.0,3223.0,4095.0,2621.0,3120.0,3004.0,2329.0,4095.0,4.2,8.78,-1.79,0.02,0.06,0.0,i
4095.0,3223.0,4095.0,2621.0,3122.0,3005.0,2336.0,4095.0,4.26,8.47,-1.53,-0.02,-0.03,0.03,i
4095.0,3230.0,4095.0,2624.0,3124.0,2999.0,2336.0,4095.0,4.86,9.71,-2.6,-0.25,0.28,-0.14,i
3206.0,3177.0,4095.0,2665.0,3109.0,3001.0,2338.0,4095.0,3.18,7.1,-0.34,-0.3,0.12,-0.3,i
3397.0,3179.0,4095.0,2800.0,3117.0,3043.0,2362.0,4095.0,4.27,9.62,-1.62,-0.35,0.22,0.1,i
3151.0,3267.0,4095.0,2991.0,3120.0,3181.0,2479.0,4095.0,4.41,8.72,-0.96,-0.18,-0.31,-0.03,i
2874.0,3263.0,4095.0,3273.0,3103.0,3175.0,2501.0,4095.0,3.45,7.83,-0.57,-0.46,0.38,-0.32,i
2877.0,3295.0,4095.0,3216.0,3088.0,3202.0,2527.0,4095.0,4.24,10.25,-1.07,0.01,0.22,0.16,i
3741.0,3313.0,4095.0,3258.0,3083.0,3227.0,2550.0,4095.0,3.28,8.11,-0.18,-0.04,0.01,-0.06,i
4095.0,3336.0,4095.0,3043.0,3083.0,3229.0,2512.0,4095.0,4.59,9.14,-1.12,0.16,-0.09,-0.02,i
4095.0,3317.0,4095.0,2895.0,3083.0,3230.0,2498.0,4095.0,3.98,8.63,-0.91,0.15,-0.35,0.2,i
4095.0,3355.0,4095.0,2778.0,3086.0,3238.0,2526.0,4095.0,4.31,8.77,-1.34,0.05,-0.13,0.08,i
4095.0,3358.0,4095.0,2727.0,3086.0,3215.0,2517.0,4095.0,4.13,8.56,-1.13,0.06,-0.05,-0.01,i
4095.0,3287.0,4095.0,2725.0,3069.0,3120.0,2431.0,4095.0,3.98,9.0,-1.31,0.17,-0.1,0.08,i
3925.0,3203.0,4095.0,2747.0,3010.0,3065.0,2388.0,4095.0,4.2,8.41,-1.24,0.15,-0.17,-0.03,i
3517.0,3185.0,4095.0,2772.0,2976.0,3056.0,2395.0,4095.0,4.18,9.0,-1.65,0.08,0.02,0.03,i
3371.0,3170.0,4095.0,2816.0,2969.0,3041.0,2384.0,4095.0,4.0,8.72,-1.36,-0.08,-0.17,0.1,i
3267.0,3159.0,4095.0,2831.0,2991.0,3045.0,2385.0,4095.0,4.15,8.62,-1.33,-0.15,-0.09,0.15,i
3503.0,3183.0,4095.0,2800.0,3029.0,3040.0,2395.0,4095.0,4.31,8.76,-1.42,-0.14,0.12,0.03,i
3600.0,3179.0,4095.0,2795.0,3043.0,3038.0,2406.0,4095.0,4.05,8.74,-1.1,-0.11,0.0,0.07,i
3600.0,3181.0,4095.0,2821.0,3067.0,3056.0,2415.0,4095.0,4.36,9.18,-1.48,-0.07,0.09,0.02,i
3452.0,3166.0,4095.0,2918.0,3071.0,3085.0,2433.0,4095.0,4.15,8.28,-1.04,-0.14,0.11,-0.02,i
3680.0,3179.0,4095.0,2985.0,3071.0,3092.0,2450.0,4095.0,4.53,9.15,-1.58,0.03,0.1,-0.05,i
3775.0,3172.0,4095.0,3024.0,3071.0,3095.0,2447.0,4095.0,4.36,8.43,-1.05,-0.12,-0.01,-0.14,i
3739.0,3173.0,4095.0,3030.0,3104.0,3105.0,2437.0,4095.0,4.33,8.95,-0.87,-0.02,-0.01,-0.03,i
3646.0,3183.0,4095.0,3010.0,3120.0,3102.0,2425.0,4095.0,4.24,8.64,-1.01,-0.02,-0.02,-0.03,i
3557.0,3181.0,4095.0,2973.0,3120.0,3092.0,2415.0,4095.0,4.37,8.99,-1.25,0.05,-0.01,-0.07,i
3364.0,3165.0,4095.0,2935.0,3125.0,3085.0,2403.0,4095.0,4.22,8.69,-1.32,0.06,-0.01,-0.07,i
3317.0,3185.0,4095.0,2938.0,3127.0,3082.0,2393.0,4095.0,4.21,8.58,-1.4,-0.04,-0.05,-0.1,i
3342.0,3175.0,4095.0,2960.0,3132.0,3071.0,2407.0,4095.0,4.02,8.95,-1.43,-0.06,-0.01,0.01,i
3574.0,3183.0,4095.0,2987.0,3137.0,3088.0,2412.0,4095.0,4.27,8.95,-1.23,0.0,-0.02,0.06,i
3579.0,3193.0,4095.0,2992.0,3146.0,3091.0,2411.0,4095.0,4.35,8.76,-1.41,0.03,0.08,-0.06,i
3726.0,3195.0,4095.0,2973.0,3131.0,3071.0,2405.0,4095.0,4.28,8.77,-1.44,-0.06,-0.03,-0.05,i
3575.0,3191.0,4095.0,2975.0,3137.0,3058.0,2395.0,4095.0,4.08,8.45,-1.19,-0.06,-0.0,-0.07,i
3637.0,3181.0,4095.0,2989.0,3131.0,3051.0,2390.0,4095.0,4.17,9.05,-1.49,-0.19,0.15,-0.02,i
3971.0,3184.0,4095.0,2992.0,3134.0,3063.0,2416.0,4095.0,3.97,8.58,-1.05,-0.15,0.06,0.1,i
3573.0,3161.0,4095.0,3014.0,3138.0,3107.0,2458.0,4095.0,4.28,9.02,-1.18,-0.05,-0.02,0.08,i
2023.0,3138.0,4095.0,3156.0,3146.0,3193.0,2547.0,4095.0,4.19,8.76,-0.81,-0.04,-0.02,-0.19,i
4095.0,3186.0,4095.0,3278.0,3136.0,3155.0,2453.0,4069.0,3.92,8.78,-1.03,0.21,0.12,-0.21,i
4095.0,3195.0,4095.0,3395.0,3111.0,3141.0,2458.0,4069.0,4.21,8.68,-1.34,-0.08,-0.21,0.09,i
4095.0,3211.0,4095.0,3200.0,3120.0,3169.0,2483.0,4095.0,4.12,8.87,-1.45,-0.12,0.01,-0.08,i
4095.0,3205.0,4095.0,2890.0,3139.0,3119.0,2391.0,4095.0,4.17,8.78,-1.12,-0.1,-0.1,-0.09,i
4095.0,3185.0,4095.0,2765.0,3134.0,3067.0,2406.0,4095.0,4.16,8.83,-1.14,0.05,-0.23,-0.08,i
4095.0,3199.0,4095.0,2717.0,3127.0,3044.0,2397.0,4095.0,3.88,8.91,-1.29,-0.17,0.14,-0.08,i
4095.0,3203.0,4095.0,2704.0,3134.0,3039.0,2357.0,4095.0,3.78,9.18,-1.19,0.02,-0.0,0.1,i
4095.0,3216.0,4095.0,2714.0,3138.0,3045.0,2355.0,4095.0,4.12,8.74,-1.25,-0.15,0.06,-0.0,i
4095.0,3222.0,4095.0,2731.0,3138.0,3046.0,2357.0,4095.0,4.12,9.12,-1.4,-0.01,0.09,0.05,i
4095.0,3230.0,4095.0,2725.0,3124.0,3030.0,2359.0,4095.0,4.47,8.66,-0.83,-0.09,-0.05,-0.03,i
4095.0,3248.0,4095.0,2726.0,3106.0,3008.0,2352.0,4095.0,3.99,9.25,-1.3,-0.02,0.16,-0.02,i
4095.0,3265.0,4095.0,2736.0,3102.0,3007.0,2355.0,4095.0,4.13,8.67,-1.02,-0.03,-0.08,0.02,i
4095.0,3270.0,4095.0,2725.0,3097.0,2997.0,2355.0,4095.0,3.91,8.96,-1.27,-0.08,0.18,-0.06,i
4095.0,3280.0,4095.0,2745.0,3100.0,2998.0,2355.0,4095.0,4.34,8.98,-0.95,0.06,-0.07,0.07,i
4095.0,3294.0,4095.0,2754.0,3107.0,2998.0,2358.0,4095.0,3.91,8.64,-0.98,-0.04,0.11,-0.08,i
4095.0,3270.0,4095.0,2753.0,3105.0,2999.0,2362.0,4095.0,4.26,9.2,-1.16,0.05,-0.0,0.01,i
4095.0,3275.0,4095.0,2759.0,3109.0,3002.0,2363.0,4095.0,3.68,8.5,-1.09,-0.07,0.02,-0.03,i
4095.0,3275.0,4095.0,2762.0,3104.0,3002.0,2366.0,4095.0,4.54,9.1,-1.42,-0.04,0.02,-0.09,i
4095.0,3306.0,4095.0,2736.0,3088.0,2982.0,2369.0,4095.0,3.49,8.46,-0.72,0.04,0.01,0.03,i
4095.0,3225.0,4095.0,2727.0,3068.0,2965.0,2361.0,4095.0,4.62,9.45,-1.29,-0.02,0.05,-0.09,i
3952.0,3208.0,4095.0,2736.0,3065.0,2962.0,2358.0,4095.0,3.65,8.34,-0.83,0.03,-0.0,0.02,i
2974.0,3174.0,4095.0,2769.0,3070.0,2971.0,2371.0,4095.0,4.23,8.94,-1.44,-0.05,0.14,0.06,i
1633.0,3113.0,4095.0,2844.0,3098.0,2997.0,2401.0,4095.0,3.85,8.32,-0.86,-0.0,-0.08,0.2,i
1281.0,2801.0,4095.0,2826.0,3113.0,3043.0,2430.0,4095.0,4.41,9.28,-1.57,0.05,-0.11,-0.03,i
1247.0,2809.0,4094.0,2829.0,3120.0,3082.0,2448.0,4095.0,4.18,8.3,-0.88,0.04,-0.22,-0.18,i
1243.0,2800.0,3306.0,3008.0,3046.0,3152.0,2534.0,4095.0,4.15,9.57,-1.43,0.05,-0.04,-0.0,i
1323.0,2786.0,3311.0,3119.0,3057.0,3193.0,2591.0,4095.0,3.65,8.46,-0.83,-0.15,-0.02,0.03,i
1393.0,2800.0,3354.0,3013.0,3071.0,3188.0,2559.0,4095.0,4.15,9.19,-1.41,-0.04,0.09,0.05,i
1639.0,2807.0,3377.0,2960.0,3089.0,3181.0,2593.0,4095.0,4.26,8.4,-1.14,-0.14,-0.04,0.12,i
1748.0,2807.0,3519.0,2992.0,3136.0,3189.0,2630.0,4095.0,4.94,9.44,-1.62,-0.01,0.12,-0.17,i
2274.0,2795.0,3583.0,3027.0,3197.0,3187.0,2625.0,4038.0,3.23,8.07,-0.49,0.09,-0.06,-0.18,i
3027.0,2823.0,3519.0,3102.0,3235.0,3161.0,2608.0,3933.0,4.05,9.64,-1.62,-0.22,0.04,0.04,i
3034.0,2831.0,3311.0,3166.0,3263.0,3163.0,2618.0,3888.0,3.71,8.14,-0.88,-0.07,-0.09,-0.13,i
3024.0,2861.0,3280.0,3222.0,3283.0,3184.0,2633.0,3907.0,4.0,9.17,-1.26,-0.2,0.15,-0.01,i
2959.0,2857.0,3234.0,3235.0,3305.0,3194.0,2638.0,3935.0,4.07,8.62,-0.82,-0.16,-0.02,-0.08,i
2800.0,2848.0,3203.0,3271.0,3345.0,3242.0,2667.0,3965.0,3.92,8.77,-0.81,-0.11,-0.01,0.05,i
2752.0,2835.0,3198.0,3274.0,3339.0,3253.0,2672.0,3964.0,3.93,8.58,-0.91,-0.05,-0.1,0.13,i
2705.0,2873.0,3239.0,3274.0,3299.0,3277.0,2666.0,3966.0,3.94,8.88,-1.15,-0.01,-0.03,0.1,i
2864.0,2914.0,3238.0,3280.0,3226.0,3303.0,2702.0,3979.0,3.99,8.87,-0.89,-0.2,0.06,0.12,i
1981.0,2927.0,3179.0,3219.0,3214.0,3302.0,2734.0,3982.0,4.04,8.88,-0.8,-0.15,-0.04,0.09,i
4095.0,2901.0,3171.0,3131.0,3307.0,3248.0,2736.0,3995.0,4.3,8.59,-0.57,-0.08,0.05,-0.01,i
4095.0,2897.0,3191.0,3055.0,3313.0,3204.0,2729.0,3986.0,4.3,9.17,-0.6,0.01,0.12,0.01,i
4095.0,2902.0,3267.0,3023.0,3245.0,3199.0,2769.0,3981.0,4.2,8.5,-0.45,0.11,-0.18,0.07,i
4095.0,2903.0,3343.0,3050.0,3253.0,3210.0,2864.0,4075.0,4.27,9.27,-1.04,-0.06,0.07,0.09,i
4095.0,2885.0,2880.0,3030.0,3254.0,3216.0,2897.0,4095.0,4.31,8.9,-1.12,0.18,-0.19,0.16,i
4095.0,2874.0,2508.0,3049.0,3234.0,3216.0,2815.0,4095.0,4.46,8.37,-1.19,-0.15,0.11,-0.03,i
4095.0,3380.0,4095.0,3046.0,3191.0,3190.0,2653.0,4095.0,4.64,8.86,-1.27,-0.05,0.11,-0.08,i
1835.0,2885.0,4095.0,3129.0,3159.0,3138.0,2622.0,4095.0,3.67,8.78,-0.49,-0.03,-0.1,-0.1,i
1822.0,2890.0,4095.0,3219.0,3124.0,3135.0,2638.0,4095.0,4.58,8.98,-1.08,0.11,-0.17,0.01,i
1840.0,2884.0,4095.0,3211.0,3124.0,3126.0,2618.0,4095.0,4.12,8.35,-0.66,0.09,-0.17,-0.08,i
3280.0,3240.0,4095.0,2969.0,3120.0,3120.0,2501.0,4095.0,4.35,8.82,-1.36,0.0,0.02,0.04,i
4095.0,3283.0,4095.0,2879.0,3138.0,3141.0,2467.0,4095.0,4.48,8.65,-0.99,-0.0,-0.09,-0.03,i
3501.0,3247.0,4095.0,2781.0,3151.0,3152.0,2479.0,4095.0,3.95,8.39,-1.06,-0.11,0.11,-0.11,i
1835.0,2893.0,4095.0,2775.0,3179.0,3149.0,2471.0,4095.0,4.59,9.06,-1.04,0.01,-0.06,-0.14,i
2172.0,2849.0,3569.0,2743.0,3265.0,3150.0,2443.0,4095.0,3.95,8.89,-1.03,-0.1,0.01,0.01,i
3107.0,2883.0,3729.0,2757.0,3347.0,3182.0,2445.0,4095.0,4.02,8.77,-0.92,-0.2,-0.0,-0.18,i
3119.0,2891.0,3658.0,2752.0,3325.0,3211.0,2463.0,4095.0,4.2,8.5,-1.37,-0.06,0.03,-0.01,i
3138.0,2886.0,3635.0,2750.0,3246.0,3235.0,2448.0,4013.0,4.5,9.27,-1.01,-0.2,0.19,-0.13,i
3174.0,2874.0,3458.0,2704.0,3202.0,3262.0,2437.0,3875.0,3.93,8.74,-1.19,-0.04,0.04,-0.06,i
3203.0,2807.0,3294.0,2710.0,3216.0,3209.0,2458.0,3816.0,4.65,8.75,-0.86,-0.05,-0.2,0.04,i
3248.0,2305.0,3215.0,2753.0,3233.0,3137.0,2480.0,3874.0,3.91,8.85,-0.85,-0.1,0.04,-0.01,i
3263.0,1982.0,3111.0,2790.0,3232.0,3200.0,2506.0,3979.0,3.82,9.11,-0.87,0.06,0.0,0.17,i
3245.0,2075.0,3174.0,2854.0,3265.0,3226.0,2519.0,4041.0,4.41,9.13,-1.09,-0.11,-0.01,0.03,i
3225.0,2135.0,3153.0,2925.0,3286.0,3241.0,2544.0,4028.0,3.96,8.73,-0.9,-0.01,0.08,-0.12,i
3235.0,2096.0,3134.0,3057.0,3296.0,3261.0,2645.0,4046.0,4.37,9.16,-0.99,-0.14,0.13,-0.09,i
3230.0,2555.0,3184.0,3298.0,3310.0,3291.0,2746.0,4095.0,4.13,9.0,-0.83,0.03,-0.07,0.01,i
3223.0,2587.0,3179.0,3344.0,3312.0,3287.0,2754.0,4095.0,4.55,8.1,-0.72,-0.03,-0.2,-0.11,i
3210.0,2547.0,3259.0,3399.0,3315.0,3271.0,2755.0,4095.0,4.43,8.99,-1.76,-0.16,0.12,0.17,i
3088.0,2471.0,3259.0,3354.0,3344.0,3182.0,2761.0,4095.0,4.32,8.5,-0.42,-0.25,-0.17,-0.06,i
2800.0,2241.0,3227.0,3373.0,3404.0,3120.0,2746.0,4091.0,3.92,9.18,-0.87,-0.06,0.05,0.15,i
2858.0,2143.0,3223.0,3427.0,3370.0,3109.0,2701.0,4020.0,4.16,8.79,-0.72,-0.06,0.04,-0.02,i
2983.0,2012.0,3246.0,3457.0,3248.0,3129.0,2677.0,3893.0,3.81,8.77,-0.63,0.23,0.08,0.2,i
3183.0,2074.0,3234.0,3472.0,3185.0,3142.0,2694.0,3886.0,4.39,8.6,-0.3,-0.01,0.01,-0.01,i
3344.0,2057.0,3226.0,3369.0,3179.0,3168.0,2709.0,3901.0,4.64,9.23,-1.38,-0.01,0.11,0.17,i
3458.0,2127.0,3219.0,3237.0,3165.0,3183.0,2727.0,3927.0,4.53,7.93,-0.54,-0.02,-0.08,-0.09,i
3531.0,2153.0,3196.0,3164.0,3154.0,3185.0,2718.0,3915.0,4.27,9.16,-1.23,0.02,0.16,-0.0,i
3622.0,2327.0,3142.0,3154.0,3166.0,3190.0,2722.0,3924.0,4.47,8.81,-0.77,0.03,-0.11,-0.03,i
3701.0,2429.0,3119.0,3193.0,3181.0,3202.0,2735.0,3920.0,4.15,8.37,-0.79,-0.14,0.04,0.02,i
3719.0,2441.0,3115.0,3202.0,3189.0,3207.0,2736.0,3920.0,4.36,9.08,-1.13,0.01,0.01,-0.02,i
3711.0,2432.0,3090.0,3206.0,3190.0,3210.0,2723.0,3906.0,4.51,8.37,-0.51,0.03,-0.13,0.01,i
3683.0,2425.0,3088.0,3131.0,3189.0,3212.0,2720.0,3915.0,4.17,8.98,-0.91,-0.05,0.04,0.02,i
3664.0,2437.0,3039.0,3031.0,3188.0,3227.0,2690.0,3927.0,4.62,8.51,-0.77,0.06,-0.17,0.0,i
3598.0,2437.0,2945.0,2928.0,3175.0,3214.0,2630.0,3933.0,4.45,8.79,-1.02,0.03,-0.04,-0.05,i
3582.0,2446.0,2999.0,2873.0,3184.0,3216.0,2608.0,4023.0,4.5,9.06,-1.2,0.09,-0.13,0.01,i
3601.0,2451.0,3082.0,2829.0,3185.0,3217.0,2589.0,4080.0,4.37,8.37,-0.93,0.01,-0.06,-0.05,i
3600.0,2474.0,3195.0,2791.0,3192.0,3215.0,2559.0,4095.0,4.61,8.89,-1.16,-0.02,-0.02,-0.09,i
3607.0,2481.0,3302.0,2765.0,3196.0,3205.0,2559.0,4095.0,3.86,8.66,-1.18,-0.0,0.01,-0.02,i
3632.0,2514.0,3322.0,2760.0,3184.0,3195.0,2543.0,4095.0,4.47,8.8,-1.2,-0.11,0.03,-0.04,i
3651.0,2541.0,3383.0,2733.0,3183.0,3188.0,2538.0,4095.0,4.53,9.06,-1.16,0.01,0.08,-0.02,i
3659.0,2554.0,3623.0,2721.0,3177.0,3181.0,2527.0,4095.0,4.32,8.47,-0.92,-0.05,-0.02,0.0,i
3673.0,2581.0,3835.0,2706.0,3167.0,3184.0,2539.0,4095.0,4.65,8.85,-1.15,-0.18,0.17,-0.13,i
3695.0,2614.0,3945.0,2691.0,3162.0,3181.0,2538.0,4095.0,4.26,9.05,-0.91,-0.0,0.06,0.03,i
