hall_1,hall_2,hall_3,flex_t,flex_i,flex_m,flex_r,flex_p,accel_x,accel_y,accel_z,gyro_x,gyro_y,gyro_z,sign
2904.0,2896.0,3022.0,3690.0,4095.0,4095.0,2726.0,3102.0,0.25,9.77,-0.65,0.03,-0.02,-0.01,k
2895.0,2901.0,3018.0,3695.0,4095.0,4095.0,2727.0,3110.0,0.34,9.43,-0.38,0.01,0.0,-0.0,k
2893.0,2901.0,3014.0,3696.0,4095.0,4095.0,2731.0,3111.0,0.34,9.79,-0.56,-0.07,0.07,-0.04,k
2896.0,2903.0,3024.0,3694.0,4095.0,4095.0,2724.0,3110.0,0.35,9.99,-0.19,0.08,0.04,0.02,k
2893.0,2896.0,3017.0,3685.0,4095.0,4095.0,2714.0,3114.0,0.53,9.7,-0.16,0.1,0.01,-0.02,k
2895.0,2898.0,3024.0,3696.0,4095.0,4095.0,2720.0,3105.0,0.57,9.56,-0.69,0.05,-0.03,0.02,k
2894.0,2899.0,3012.0,3693.0,4095.0,4095.0,2718.0,3103.0,0.32,9.44,-1.11,0.1,0.05,-0.0,k
2887.0,2909.0,3017.0,3686.0,4095.0,4095.0,2710.0,3113.0,0.74,9.33,-0.72,-0.08,-0.02,-0.01,k
2890.0,2896.0,3011.0,3684.0,4095.0,4095.0,2709.0,3109.0,0.38,9.67,-0.55,-0.08,-0.02,0.05,k
2895.0,2899.0,3024.0,3679.0,4095.0,4095.0,2711.0,3111.0,0.33,9.86,-0.6,-0.06,0.1,-0.11,k
2887.0,2903.0,3008.0,3665.0,4095.0,4095.0,2707.0,3102.0,0.54,9.75,-0.38,0.0,-0.02,0.02,k
2882.0,2896.0,3024.0,3670.0,4095.0,4095.0,2710.0,3113.0,0.57,9.84,-0.39,0.01,0.01,-0.01,k
2883.0,2898.0,3005.0,3674.0,4095.0,4095.0,2711.0,3109.0,0.41,10.09,-0.86,0.09,0.01,-0.05,k
2887.0,2899.0,3021.0,3677.0,4095.0,4095.0,2709.0,3107.0,0.53,9.32,-0.59,0.03,0.0,-0.03,k
2889.0,2896.0,3014.0,3666.0,4095.0,4095.0,2711.0,3109.0,0.56,9.61,-1.05,-0.07,0.02,-0.01,k
2885.0,2896.0,3011.0,3677.0,4095.0,4095.0,2713.0,3107.0,0.32,9.53,-0.57,-0.01,-0.0,0.01,k
2881.0,2896.0,3015.0,3663.0,4095.0,4095.0,2710.0,3109.0,0.7,9.68,-0.41,-0.09,-0.02,-0.05,k
2875.0,2898.0,3013.0,3667.0,4095.0,4095.0,2709.0,3107.0,0.2,9.94,-0.63,0.02,-0.02,0.06,k
2874.0,2898.0,3019.0,3665.0,4095.0,4095.0,2710.0,3117.0,0.45,9.46,-0.63,-0.0,0.07,-0.06,k
2877.0,2897.0,3020.0,3661.0,4095.0,4095.0,2711.0,3117.0,0.79,9.61,-0.7,0.06,-0.07,0.06,k
2878.0,2901.0,3018.0,3655.0,4095.0,4095.0,2708.0,3106.0,0.74,9.67,-0.93,-0.01,0.02,-0.05,k
2878.0,2906.0,3026.0,3665.0,4095.0,4095.0,2711.0,3109.0,0.34,10.01,-1.07,0.09,-0.04,-0.05,k
2873.0,2891.0,3014.0,3683.0,4095.0,4095.0,2708.0,3119.0,0.29,9.38,-0.72,-0.07,0.01,0.0,k
2871.0,2901.0,3022.0,3697.0,4095.0,4095.0,2709.0,3119.0,0.49,9.85,-0.92,-0.05,-0.01,0.03,k
2875.0,2898.0,3017.0,3678.0,4095.0,4095.0,2704.0,3120.0,0.52,9.56,-0.51,-0.06,0.08,-0.1,k
2880.0,2895.0,3007.0,3659.0,4095.0,4095.0,2705.0,3123.0,0.47,9.65,-0.85,-0.06,-0.01,-0.03,k
2882.0,2897.0,3024.0,3636.0,4095.0,4095.0,2707.0,3117.0,0.28,9.77,-0.85,0.04,0.03,-0.06,k
2885.0,2911.0,3013.0,3639.0,4095.0,4095.0,2718.0,3127.0,0.41,9.28,-0.6,-0.09,0.05,-0.04,k
2886.0,2896.0,3018.0,3642.0,4095.0,4095.0,2711.0,3117.0,0.35,9.83,-0.88,-0.07,0.01,0.05,k
2895.0,2903.0,3013.0,3639.0,4095.0,4095.0,2722.0,3113.0,0.53,9.61,-0.57,-0.01,0.02,-0.06,k
2881.0,2901.0,3019.0,3632.0,4095.0,4095.0,2719.0,3122.0,0.64,9.62,-0.7,-0.05,-0.01,-0.02,k
2889.0,2894.0,3026.0,3609.0,4095.0,4095.0,2718.0,3120.0,0.5,9.7,-0.65,0.08,-0.07,-0.17,k
2882.0,2897.0,3021.0,3608.0,4095.0,4095.0,2718.0,3121.0,0.13,9.86,-1.01,-0.06,0.0,-0.12,k
2886.0,2898.0,3015.0,3624.0,4095.0,4095.0,2718.0,3121.0,0.35,9.63,-0.86,0.02,0.01,-0.0,k
2880.0,2899.0,3010.0,3606.0,4095.0,4095.0,2722.0,3120.0,0.14,9.55,-0.7,-0.09,0.02,-0.02,k
2886.0,2896.0,3019.0,3613.0,4095.0,4095.0,2715.0,3117.0,0.09,9.84,-0.85,-0.05,0.02,0.04,k
2882.0,2896.0,3012.0,3614.0,4095.0,4095.0,2721.0,3122.0,0.4,9.63,-0.54,0.03,0.02,0.01,k
2880.0,2899.0,3015.0,3610.0,4095.0,4095.0,2721.0,3120.0,0.38,9.75,-0.91,-0.03,0.02,0.04,k
2890.0,2898.0,3023.0,3603.0,4095.0,4095.0,2723.0,3118.0,0.38,9.68,-0.84,0.01,0.05,-0.08,k
2881.0,2902.0,3015.0,3603.0,4095.0,4095.0,2721.0,3115.0,0.42,9.6,-0.87,-0.1,0.0,-0.01,k
2878.0,2896.0,3017.0,3603.0,4095.0,4095.0,2725.0,3114.0,0.07,9.85,-0.9,-0.02,0.0,0.03,k
2877.0,2907.0,3020.0,3582.0,4095.0,4095.0,2713.0,3105.0,0.33,9.43,-0.7,-0.07,0.07,-0.02,k
2879.0,2901.0,3021.0,3568.0,4095.0,4095.0,2714.0,3107.0,0.6,9.91,-0.89,-0.0,0.02,0.07,k
2890.0,2898.0,3015.0,3558.0,4095.0,4095.0,2718.0,3109.0,0.38,9.43,-0.57,0.02,0.0,-0.01,k
2884.0,2900.0,3017.0,3566.0,4095.0,4095.0,2723.0,3116.0,0.43,9.79,-0.86,-0.08,0.06,-0.07,k
2880.0,2899.0,3024.0,3569.0,4095.0,4095.0,2727.0,3119.0,0.19,9.63,-0.7,0.03,-0.01,0.01,k
2883.0,2903.0,3013.0,3572.0,4095.0,4095.0,2727.0,3119.0,0.52,9.56,-0.79,-0.04,0.02,-0.02,k
2874.0,2902.0,3015.0,3567.0,4095.0,4095.0,2725.0,3117.0,0.34,9.82,-1.04,-0.03,-0.01,0.01,k
2882.0,2906.0,3020.0,3570.0,4095.0,4095.0,2729.0,3117.0,0.48,9.6,-0.74,-0.03,0.03,-0.05,k
2880.0,2894.0,3011.0,3565.0,4095.0,4095.0,2725.0,3110.0,0.41,9.76,-0.74,-0.05,-0.05,0.04,k
2881.0,2896.0,3026.0,3568.0,4095.0,4095.0,2729.0,3114.0,0.34,9.44,-0.57,-0.03,0.05,-0.08,k
2880.0,2901.0,3019.0,3571.0,4095.0,4095.0,2732.0,3110.0,0.37,9.73,-0.78,0.01,-0.02,0.04,k
2874.0,2899.0,3013.0,3563.0,4095.0,4095.0,2730.0,3110.0,0.42,9.35,-0.65,-0.02,0.01,-0.02,k
2880.0,2902.0,3016.0,3568.0,4095.0,4095.0,2728.0,3117.0,0.47,9.91,-0.96,-0.06,-0.0,-0.0,k
2881.0,2896.0,3018.0,3572.0,4095.0,4095.0,2733.0,3109.0,0.34,9.6,-0.58,0.03,-0.01,-0.0,k
2882.0,2897.0,3025.0,3579.0,4095.0,4095.0,2736.0,3117.0,0.52,9.64,-0.73,-0.06,0.01,-0.04,k
2883.0,2890.0,3015.0,3567.0,4095.0,4095.0,2736.0,3112.0,0.26,9.8,-0.89,0.05,-0.02,0.07,k
2879.0,2896.0,3020.0,3574.0,4095.0,4095.0,2732.0,3118.0,0.49,9.48,-0.95,-0.1,0.09,-0.1,k
2869.0,2897.0,3024.0,3574.0,4095.0,4095.0,2735.0,3109.0,0.63,9.9,-0.92,-0.05,-0.02,0.02,k
2882.0,2898.0,3024.0,3579.0,4095.0,4095.0,2736.0,3111.0,0.19,9.36,-0.44,-0.05,0.04,-0.06,k
2878.0,2893.0,3010.0,3570.0,4095.0,4095.0,2731.0,3111.0,0.31,9.84,-0.81,-0.01,0.01,-0.05,k
2883.0,2896.0,3030.0,3578.0,4095.0,4095.0,2736.0,3114.0,0.49,9.62,-0.62,0.06,-0.04,0.02,k
2884.0,2899.0,3024.0,3573.0,4095.0,4095.0,2736.0,3118.0,0.23,9.43,-0.67,-0.02,-0.01,0.03,k
2895.0,2903.0,3008.0,3581.0,4095.0,4095.0,2737.0,3120.0,0.42,10.15,-1.24,-0.01,0.03,-0.01,k
2889.0,2905.0,3017.0,3578.0,4095.0,4095.0,2736.0,3115.0,0.62,9.39,-0.53,0.03,-0.02,-0.04,k
2880.0,2896.0,3021.0,3583.0,4095.0,4095.0,2738.0,3109.0,0.49,9.94,-0.9,-0.01,-0.01,0.01,k
2881.0,2896.0,3012.0,3578.0,4095.0,4095.0,2739.0,3111.0,0.29,9.57,-0.8,0.06,0.01,-0.03,k
2891.0,2902.0,3016.0,3575.0,4095.0,4095.0,2737.0,3105.0,0.61,9.8,-0.75,-0.06,0.02,-0.08,k
2883.0,2905.0,3017.0,3583.0,4095.0,4095.0,2736.0,3105.0,0.14,10.05,-0.86,0.12,0.01,-0.02,k
2887.0,2894.0,3015.0,3583.0,4095.0,4095.0,2737.0,3107.0,0.68,9.7,-0.99,0.04,0.02,-0.11,k
2891.0,2896.0,3024.0,3581.0,4095.0,4095.0,2741.0,3107.0,0.11,9.65,-1.39,0.11,0.0,0.01,k
2879.0,2898.0,3029.0,3583.0,4095.0,4095.0,2736.0,3108.0,0.28,9.55,-1.21,0.08,-0.01,0.0,k
2876.0,2895.0,3018.0,3577.0,4095.0,4095.0,2742.0,3114.0,0.28,9.61,-1.44,0.01,0.04,-0.03,k
2880.0,2897.0,3011.0,3573.0,4095.0,4095.0,2741.0,3111.0,0.56,9.5,-1.33,0.05,0.03,-0.04,k
2891.0,2905.0,3025.0,3581.0,4095.0,4095.0,2745.0,3117.0,0.45,9.49,-1.2,-0.07,-0.02,-0.05,k
2889.0,2896.0,3020.0,3579.0,4095.0,4095.0,2752.0,3114.0,0.19,9.87,-1.31,0.0,0.02,-0.02,k
2885.0,2905.0,3014.0,3599.0,4095.0,4095.0,2743.0,3107.0,0.34,9.58,-1.16,-0.02,0.01,-0.06,k
2893.0,2898.0,3010.0,3583.0,4095.0,4095.0,2749.0,3103.0,0.0,9.51,-1.36,-0.07,0.01,0.03,k
2875.0,2899.0,3018.0,3597.0,4095.0,4095.0,2751.0,3111.0,0.38,9.63,-1.23,-0.04,0.01,-0.01,k
2895.0,2897.0,3023.0,3600.0,4095.0,4095.0,2749.0,3115.0,0.59,9.74,-1.09,-0.03,-0.02,0.02,k
2889.0,2901.0,3013.0,3581.0,4095.0,4095.0,2749.0,3111.0,0.17,9.39,-1.13,-0.05,0.0,0.01,k
2879.0,2898.0,3023.0,3600.0,4095.0,4095.0,2750.0,3114.0,0.49,9.84,-1.31,-0.02,0.0,-0.08,k
2882.0,2896.0,3023.0,3598.0,4095.0,4095.0,2749.0,3116.0,0.52,9.52,-0.98,0.02,-0.07,0.01,k
2880.0,2910.0,3010.0,3597.0,4095.0,4095.0,2751.0,3111.0,0.17,9.67,-1.28,-0.11,-0.0,-0.08,k
2883.0,2908.0,3015.0,3583.0,4095.0,4095.0,2745.0,3101.0,0.22,9.75,-1.27,0.03,-0.02,-0.02,k
2881.0,2897.0,3019.0,3583.0,4095.0,4095.0,2745.0,3117.0,0.32,9.45,-1.21,-0.09,0.02,-0.04,k
2869.0,2889.0,3007.0,3581.0,4095.0,4095.0,2745.0,3109.0,-0.01,9.92,-1.4,-0.02,-0.01,0.02,k
2874.0,2896.0,3015.0,3583.0,4095.0,4095.0,2743.0,3120.0,0.29,9.5,-1.02,-0.04,0.04,-0.07,k
2877.0,2900.0,3021.0,3583.0,4095.0,4095.0,2746.0,3107.0,0.4,9.72,-1.18,-0.09,-0.01,0.03,k
2885.0,2891.0,3019.0,3599.0,4095.0,4095.0,2746.0,3111.0,0.17,9.81,-1.14,0.01,0.04,-0.03,k
2879.0,2905.0,3025.0,3583.0,4095.0,4095.0,2747.0,3115.0,0.39,9.47,-1.1,-0.02,0.0,-0.03,k
2878.0,2897.0,3024.0,3583.0,4095.0,4095.0,2749.0,3111.0,0.23,9.68,-1.29,-0.05,-0.0,0.03,k
2879.0,2893.0,3019.0,3575.0,4095.0,4095.0,2751.0,3118.0,0.27,9.42,-1.07,-0.04,0.05,-0.02,k
2880.0,2896.0,3010.0,3575.0,4095.0,4095.0,2741.0,3114.0,0.43,9.75,-1.02,-0.06,-0.03,0.02,k
2879.0,2896.0,3019.0,3579.0,4095.0,4095.0,2751.0,3113.0,0.03,9.73,-1.16,-0.01,0.04,-0.04,k
2879.0,2899.0,3022.0,3583.0,4095.0,4095.0,2747.0,3113.0,0.47,9.51,-1.09,-0.04,0.01,-0.03,k
2887.0,2906.0,3029.0,3583.0,4095.0,4095.0,2747.0,3115.0,0.27,9.88,-1.22,-0.05,-0.01,0.01,k
2880.0,2899.0,3015.0,3583.0,4095.0,4095.0,2749.0,3115.0,0.24,9.4,-1.02,-0.03,0.06,-0.08,k
2874.0,2899.0,3014.0,3583.0,4095.0,4095.0,2747.0,3113.0,0.27,9.75,-1.1,-0.04,-0.02,-0.01,k
2879.0,2891.0,3011.0,3583.0,4095.0,4095.0,2747.0,3119.0,0.04,9.66,-1.18,-0.02,0.02,-0.01,k
2880.0,2902.0,3024.0,3580.0,4095.0,4095.0,2749.0,3117.0,0.57,9.41,-1.18,-0.03,0.01,-0.02,k
2879.0,2896.0,3018.0,3583.0,4095.0,4095.0,2747.0,3114.0,0.18,9.68,-1.12,-0.07,-0.02,0.01,k
2881.0,2896.0,3023.0,3600.0,4095.0,4095.0,2750.0,3110.0,0.32,9.86,-1.01,-0.02,0.01,-0.06,k
2877.0,2896.0,3010.0,3599.0,4095.0,4095.0,2750.0,3115.0,-0.05,9.62,-1.11,0.02,0.0,-0.03,k
2883.0,2893.0,3024.0,3583.0,4095.0,4095.0,2745.0,3119.0,0.08,9.58,-1.27,-0.03,0.01,-0.03,k
2874.0,2894.0,3027.0,3597.0,4095.0,4095.0,2748.0,3119.0,0.3,9.63,-1.27,-0.02,0.01,0.02,k
2877.0,2907.0,3029.0,3599.0,4095.0,4095.0,2752.0,3121.0,0.34,9.49,-1.13,-0.07,0.03,-0.02,k
2878.0,2893.0,3013.0,3606.0,4095.0,4095.0,2751.0,3121.0,0.26,9.77,-1.11,-0.03,-0.0,-0.01,k
2870.0,2896.0,3024.0,3583.0,4095.0,4095.0,2751.0,3115.0,0.25,9.58,-0.93,-0.01,-0.01,-0.0,k
2869.0,2907.0,3010.0,3600.0,4095.0,4095.0,2755.0,3120.0,0.11,9.7,-1.19,-0.05,0.03,-0.02,k
2874.0,2891.0,3013.0,3601.0,4095.0,4095.0,2752.0,3120.0,0.25,9.58,-1.15,0.02,0.02,-0.0,k
2869.0,2896.0,3017.0,3600.0,4095.0,4095.0,2754.0,3120.0,0.38,9.57,-1.08,-0.06,-0.02,-0.0,k
2871.0,2902.0,3022.0,3602.0,4095.0,4095.0,2759.0,3119.0,0.15,9.64,-1.14,-0.03,0.03,-0.03,k
2871.0,2902.0,3024.0,3603.0,4095.0,4095.0,2758.0,3117.0,0.36,9.64,-1.13,-0.05,0.0,-0.04,k
2873.0,2895.0,3022.0,3603.0,4095.0,4095.0,2752.0,3120.0,0.09,9.56,-1.12,-0.04,0.02,0.01,k
2875.0,2895.0,3023.0,3600.0,4095.0,4095.0,2754.0,3117.0,0.23,9.68,-1.1,-0.08,0.04,-0.01,k
2870.0,2897.0,3023.0,3598.0,4095.0,4095.0,2747.0,3119.0,0.25,9.72,-1.03,-0.02,0.01,0.04,k
2872.0,2896.0,3011.0,3602.0,4095.0,4095.0,2751.0,3120.0,0.55,9.8,-1.1,-0.04,0.05,-0.03,k
2876.0,2902.0,3023.0,3600.0,4095.0,4095.0,2752.0,3120.0,0.4,9.73,-1.18,0.01,-0.02,0.01,k
2878.0,2905.0,3006.0,3602.0,4095.0,4095.0,2752.0,3122.0,0.41,9.55,-0.99,-0.0,0.02,-0.11,k
2868.0,2905.0,3019.0,3583.0,4095.0,4095.0,2757.0,3119.0,0.19,9.58,-1.02,-0.01,-0.05,-0.0,k
2874.0,2892.0,3019.0,3606.0,4095.0,4095.0,2756.0,3123.0,0.04,9.57,-1.22,-0.02,0.04,-0.04,k
2876.0,2901.0,3011.0,3598.0,4095.0,4095.0,2755.0,3117.0,0.27,9.54,-1.19,-0.02,-0.0,-0.02,k
2866.0,2895.0,3013.0,3609.0,4095.0,4095.0,2755.0,3122.0,0.18,9.66,-1.13,-0.06,0.01,0.0,k
2869.0,2895.0,3019.0,3603.0,4095.0,4095.0,2752.0,3126.0,0.26,9.68,-1.17,-0.01,0.03,-0.04,k
2875.0,2897.0,3011.0,3605.0,4095.0,4095.0,2751.0,3125.0,0.29,9.57,-1.12,-0.02,0.0,-0.01,k
2874.0,2914.0,3019.0,3607.0,4095.0,4095.0,2757.0,3121.0,0.26,9.74,-1.19,-0.02,-0.01,-0.01,k
2870.0,2896.0,3013.0,3607.0,4095.0,4095.0,2751.0,3122.0,0.18,9.63,-1.2,0.01,-0.0,-0.03,k
2864.0,2895.0,3025.0,3606.0,4095.0,4095.0,2753.0,3128.0,0.23,9.56,-1.19,-0.07,-0.0,-0.02,k
2863.0,2896.0,3009.0,3600.0,4095.0,4095.0,2758.0,3119.0,0.1,9.91,-1.23,-0.0,-0.02,0.03,k
2869.0,2897.0,3017.0,3607.0,4095.0,4095.0,2761.0,3122.0,0.32,9.5,-1.09,-0.01,0.04,-0.05,k
2871.0,2895.0,3027.0,3605.0,4095.0,4095.0,2758.0,3123.0,0.41,9.58,-1.25,-0.07,-0.01,0.0,k
2874.0,2897.0,3015.0,3613.0,4095.0,4095.0,2759.0,3120.0,0.03,9.63,-1.1,-0.06,0.01,-0.01,k
2863.0,2897.0,3024.0,3613.0,4095.0,4095.0,2754.0,3120.0,0.36,9.76,-1.08,-0.03,0.04,-0.06,k
2874.0,2896.0,3022.0,3600.0,4095.0,4095.0,2757.0,3129.0,0.35,9.54,-1.07,-0.03,-0.01,-0.01,k
2866.0,2895.0,3019.0,3606.0,4095.0,4095.0,2752.0,3130.0,0.08,9.64,-1.21,-0.05,0.03,-0.05,k
2867.0,2895.0,3013.0,3605.0,4095.0,4095.0,2759.0,3120.0,0.39,9.75,-1.07,0.01,-0.02,-0.01,k
2875.0,2901.0,3018.0,3604.0,4095.0,4095.0,2757.0,3120.0,0.2,9.69,-1.16,-0.05,0.0,-0.04,k
2870.0,2902.0,3021.0,3602.0,4095.0,4095.0,2762.0,3126.0,0.22,9.73,-1.18,0.02,-0.0,-0.05,k
2866.0,2893.0,3013.0,3610.0,4095.0,4095.0,2766.0,3126.0,0.04,9.65,-1.3,-0.03,-0.0,-0.01,k
2864.0,2897.0,3027.0,3605.0,4095.0,4095.0,2765.0,3127.0,0.41,9.65,-1.14,-0.01,0.0,-0.03,k
2867.0,2898.0,3015.0,3610.0,4095.0,4095.0,2759.0,3135.0,0.07,9.66,-1.13,-0.01,-0.01,-0.03,k
2872.0,2902.0,3013.0,3618.0,4095.0,4095.0,2759.0,3130.0,-0.05,9.75,-1.27,0.01,0.03,-0.04,k
2867.0,2903.0,3015.0,3600.0,4095.0,4095.0,2752.0,3126.0,0.05,9.51,-1.32,-0.03,0.02,0.01,k
2867.0,2896.0,3013.0,3608.0,4095.0,4095.0,2763.0,3127.0,0.2,9.59,-1.31,-0.05,0.05,0.04,k
2870.0,2899.0,3024.0,3611.0,4095.0,4095.0,2766.0,3123.0,0.7,9.65,-1.14,-0.08,0.02,-0.01,k
2874.0,2893.0,3024.0,3607.0,4095.0,4095.0,2765.0,3124.0,0.23,9.9,-1.07,-0.05,-0.03,-0.0,k
2870.0,2901.0,3024.0,3617.0,4095.0,4095.0,2765.0,3121.0,0.5,9.82,-0.88,-0.01,-0.02,-0.08,k
2864.0,2894.0,3009.0,3614.0,4095.0,4095.0,2767.0,3134.0,-0.02,9.72,-1.09,0.07,-0.03,-0.03,k
2871.0,2896.0,3024.0,3629.0,4095.0,4095.0,2763.0,3130.0,-0.35,9.32,-1.47,-0.0,-0.0,0.04,k
2863.0,2896.0,3021.0,3615.0,4095.0,4095.0,2758.0,3133.0,0.42,9.57,-1.54,-0.04,0.02,0.02,k
2864.0,2896.0,3014.0,3608.0,4095.0,4095.0,2765.0,3120.0,0.71,9.82,-0.99,-0.05,0.03,-0.04,k
2864.0,2896.0,3005.0,3615.0,4095.0,4095.0,2765.0,3126.0,-0.1,9.94,-0.89,0.0,0.0,-0.1,k
2869.0,2897.0,3021.0,3632.0,4095.0,4095.0,2767.0,3127.0,0.04,9.73,-1.29,0.05,0.0,0.03,k
2864.0,2896.0,3024.0,3619.0,4095.0,4095.0,2759.0,3135.0,0.19,9.36,-1.6,0.0,0.11,-0.09,k
2865.0,2901.0,3029.0,3617.0,4095.0,4095.0,2762.0,3125.0,0.36,9.49,-1.43,-0.03,-0.03,-0.02,k
2864.0,2894.0,3021.0,3614.0,4095.0,4095.0,2757.0,3127.0,0.29,9.61,-1.14,-0.09,0.01,-0.05,k
2857.0,2896.0,3011.0,3615.0,4095.0,4095.0,2761.0,3126.0,0.14,9.66,-1.28,-0.05,-0.03,-0.03,k
2863.0,2902.0,3024.0,3619.0,4095.0,4095.0,2766.0,3127.0,-0.31,9.48,-1.42,-0.07,-0.0,-0.05,k
2862.0,2891.0,3008.0,3620.0,4095.0,4095.0,2758.0,3127.0,-0.06,9.57,-1.17,-0.14,-0.02,0.06,k
2864.0,2901.0,3023.0,3612.0,4095.0,4095.0,2765.0,3122.0,-0.06,9.86,-1.02,-0.1,0.02,0.09,k
2862.0,2902.0,3022.0,3617.0,4095.0,4095.0,2759.0,3124.0,0.73,9.76,-1.06,-0.03,0.03,0.03,k
2853.0,2893.0,3009.0,3615.0,4095.0,4095.0,2753.0,3124.0,0.61,9.63,-0.92,-0.05,-0.03,0.03,k
2861.0,2905.0,3019.0,3602.0,4095.0,4095.0,2761.0,3129.0,0.48,9.86,-0.91,-0.02,-0.01,-0.12,k
2862.0,2896.0,3025.0,3603.0,4095.0,4095.0,2757.0,3132.0,0.15,9.75,-1.04,0.05,-0.01,-0.11,k
2858.0,2899.0,3023.0,3579.0,4095.0,4095.0,2753.0,3126.0,0.04,9.64,-1.18,0.04,-0.02,-0.07,k
2863.0,2894.0,3017.0,3583.0,4095.0,4095.0,2758.0,3133.0,-0.3,9.46,-1.47,0.02,0.06,-0.02,k
2854.0,2893.0,3024.0,3583.0,4095.0,4095.0,2755.0,3131.0,0.08,9.58,-1.46,-0.03,0.05,-0.04,k
2858.0,2890.0,3019.0,3583.0,4095.0,4095.0,2759.0,3128.0,0.02,9.51,-1.23,-0.06,0.02,0.02,k
2855.0,2898.0,3021.0,3583.0,4095.0,4095.0,2753.0,3126.0,0.22,9.85,-1.05,-0.07,0.02,-0.02,k
2853.0,2895.0,3015.0,3583.0,4095.0,4095.0,2757.0,3125.0,0.24,9.9,-0.93,0.02,-0.05,0.0,k
2847.0,2896.0,3019.0,3598.0,4095.0,4095.0,2761.0,3128.0,0.13,9.53,-1.11,0.02,0.03,-0.08,k
2852.0,2893.0,3023.0,3583.0,4095.0,4095.0,2764.0,3121.0,0.09,9.58,-1.53,-0.01,0.0,0.02,k
2858.0,2892.0,3022.0,3583.0,4095.0,4095.0,2764.0,3131.0,0.04,9.45,-1.33,-0.03,0.01,0.01,k
2847.0,2896.0,3018.0,3583.0,4095.0,4095.0,2763.0,3130.0,0.29,9.73,-1.07,-0.05,0.01,-0.07,k
2854.0,2896.0,3022.0,3583.0,4095.0,4095.0,2762.0,3125.0,0.09,9.63,-1.21,0.0,0.04,-0.01,k
2843.0,2898.0,3008.0,3583.0,4095.0,4095.0,2766.0,3125.0,0.23,9.48,-1.28,-0.06,0.0,-0.05,k
2851.0,2894.0,3024.0,3578.0,4095.0,4095.0,2767.0,3127.0,-0.34,9.77,-1.21,-0.08,-0.02,0.03,k
2842.0,2903.0,3014.0,3573.0,4095.0,4095.0,2766.0,3131.0,0.23,9.72,-1.05,-0.03,0.03,-0.02,k
2845.0,2893.0,3019.0,3570.0,4095.0,4095.0,2763.0,3126.0,0.26,9.82,-1.25,-0.06,-0.04,0.03,k
2849.0,2891.0,3011.0,3583.0,4095.0,4095.0,2759.0,3120.0,-0.05,9.58,-1.16,-0.01,0.02,-0.03,k
2843.0,2896.0,3024.0,3583.0,4095.0,4095.0,2768.0,3127.0,0.06,9.62,-1.23,-0.07,-0.02,0.06,k
2836.0,2891.0,3017.0,3583.0,4095.0,4095.0,2761.0,3130.0,0.1,9.65,-1.39,-0.07,0.03,0.01,k
2834.0,2891.0,3024.0,3579.0,4095.0,4095.0,2766.0,3131.0,0.13,9.54,-1.02,-0.1,0.01,0.05,k
2841.0,2902.0,3010.0,3598.0,4095.0,4095.0,2765.0,3121.0,0.29,9.82,-1.01,-0.08,0.04,-0.0,k
2840.0,2903.0,3018.0,3575.0,4095.0,4095.0,2759.0,3131.0,0.46,9.64,-0.84,-0.06,-0.02,0.03,k
2841.0,2890.0,3019.0,3583.0,4095.0,4095.0,2766.0,3132.0,0.17,9.73,-0.95,-0.11,0.02,-0.0,k
2837.0,2896.0,3021.0,3583.0,4095.0,4095.0,2768.0,3126.0,0.18,9.83,-1.08,-0.02,0.05,-0.03,k
2842.0,2896.0,3009.0,3578.0,4095.0,4095.0,2757.0,3121.0,0.36,9.5,-0.95,-0.02,0.02,-0.03,k
2837.0,2891.0,3021.0,3583.0,4095.0,4095.0,2767.0,3133.0,0.14,9.57,-1.07,-0.08,-0.01,0.02,k
2832.0,2887.0,3011.0,3583.0,4095.0,4095.0,2759.0,3127.0,0.37,9.75,-0.96,-0.04,0.02,-0.02,k
2836.0,2895.0,3018.0,3583.0,4095.0,4095.0,2759.0,3131.0,0.42,9.81,-0.57,-0.01,-0.05,-0.06,k
2837.0,2901.0,3018.0,3581.0,4095.0,4095.0,2765.0,3135.0,0.09,9.83,-1.02,0.0,-0.02,-0.12,k
2832.0,2897.0,3023.0,3583.0,4095.0,4095.0,2762.0,3127.0,-0.13,9.39,-1.35,0.03,-0.0,-0.06,k
2834.0,2895.0,3023.0,3577.0,4095.0,4095.0,2758.0,3123.0,0.16,9.49,-1.02,-0.07,-0.06,0.0,k
2836.0,2893.0,3008.0,3565.0,4095.0,4095.0,2752.0,3152.0,0.04,9.73,-1.07,-0.1,-0.01,-0.01,k
2835.0,2899.0,3019.0,3583.0,4095.0,4095.0,2764.0,3120.0,0.22,9.72,-0.73,-0.07,-0.02,0.03,k
2832.0,2890.0,3021.0,3562.0,4095.0,4095.0,2769.0,3120.0,0.04,9.71,-0.89,-0.04,0.03,-0.04,k
2829.0,2893.0,3024.0,3566.0,4095.0,4095.0,2754.0,3151.0,0.15,9.58,-1.06,-0.02,0.02,0.06,k
2832.0,2896.0,3025.0,3583.0,4095.0,4095.0,2765.0,3134.0,0.37,9.51,-0.98,-0.09,0.03,-0.04,k
2834.0,2889.0,3012.0,3600.0,4095.0,4095.0,2763.0,3130.0,0.04,9.87,-0.74,-0.07,-0.03,0.0,k
2832.0,2901.0,3021.0,3583.0,4095.0,4095.0,2762.0,3133.0,0.09,9.86,-0.7,0.01,0.02,-0.01,k
2832.0,2904.0,3023.0,3598.0,4095.0,4095.0,2767.0,3135.0,0.2,9.51,-1.3,0.02,0.16,-0.07,k
2832.0,2899.0,3024.0,3578.0,4095.0,4095.0,2764.0,3130.0,0.68,9.33,-1.1,-0.08,0.05,-0.08,k
2831.0,2896.0,3018.0,3575.0,4095.0,4095.0,2759.0,3123.0,0.08,9.86,-1.0,-0.07,-0.06,-0.09,k
2832.0,2905.0,3024.0,3574.0,4095.0,4095.0,2755.0,3123.0,0.02,9.67,-0.79,-0.1,0.02,-0.08,k
2832.0,2903.0,3017.0,3578.0,4095.0,4095.0,2755.0,3123.0,0.25,9.79,-0.47,-0.03,-0.07,-0.08,k
2832.0,2893.0,3010.0,3580.0,4095.0,4095.0,2761.0,3127.0,-0.54,9.7,-0.81,-0.07,-0.02,-0.11,k
2832.0,2893.0,3018.0,3583.0,4095.0,4095.0,2766.0,3133.0,-0.82,10.21,-0.79,-0.1,0.1,-0.08,k
2832.0,2907.0,3017.0,3568.0,4095.0,4095.0,2767.0,3132.0,-0.12,9.51,-0.72,-0.01,0.2,0.02,k
2829.0,2897.0,3021.0,3580.0,4095.0,4095.0,2823.0,3130.0,0.56,9.39,-1.02,-0.0,0.1,-0.04,k
2829.0,2896.0,3007.0,3575.0,4095.0,4095.0,2848.0,3135.0,0.71,9.34,-0.93,-0.02,-0.04,-0.05,k
2831.0,2886.0,3008.0,3583.0,4095.0,4095.0,2838.0,3127.0,0.18,9.58,-0.88,-0.09,-0.12,-0.06,k
2830.0,2902.0,3025.0,3583.0,4095.0,4095.0,2845.0,3120.0,-0.45,9.73,-0.93,-0.11,-0.09,-0.07,k
2823.0,2893.0,3025.0,3579.0,4095.0,4095.0,2832.0,3136.0,-0.67,9.72,-0.59,-0.08,-0.03,-0.03,k
2826.0,2892.0,3008.0,3601.0,4095.0,4095.0,2837.0,3121.0,-0.54,9.8,-0.62,-0.11,0.05,0.04,k
2830.0,2896.0,3019.0,3563.0,4095.0,4095.0,2842.0,3152.0,0.12,9.79,-0.63,-0.0,0.05,0.03,k
2821.0,2895.0,3021.0,3569.0,4095.0,4095.0,2842.0,3143.0,0.29,9.52,-0.51,-0.05,0.0,0.06,k
2831.0,2897.0,3024.0,3598.0,4095.0,4095.0,2848.0,3127.0,0.19,9.84,-0.57,-0.03,-0.0,-0.01,k
2833.0,2896.0,3015.0,3580.0,4095.0,4095.0,2860.0,3129.0,-0.07,9.86,-0.54,0.01,-0.03,0.03,k
2831.0,2910.0,3022.0,3583.0,4095.0,4095.0,2859.0,3136.0,-0.02,9.58,-0.69,0.02,0.03,-0.09,k
2838.0,2896.0,3018.0,3583.0,4095.0,4095.0,2860.0,3126.0,-0.32,9.63,-0.74,0.02,-0.02,0.0,k
2829.0,2896.0,3011.0,3583.0,4095.0,4095.0,2842.0,3129.0,-0.01,9.74,-0.84,0.01,0.06,-0.04,k
2827.0,2906.0,3019.0,3577.0,4095.0,4095.0,2838.0,3135.0,0.08,9.51,-0.93,0.02,0.06,-0.06,k
2825.0,2899.0,3011.0,3579.0,4095.0,4095.0,2843.0,3124.0,-0.04,9.43,-0.77,-0.02,-0.03,0.02,k
2829.0,2897.0,3024.0,3583.0,4095.0,4095.0,2853.0,3134.0,-0.33,9.65,-0.89,-0.09,0.05,-0.03,k
2823.0,2896.0,3017.0,3579.0,4095.0,4095.0,2859.0,3124.0,-0.15,9.71,-0.83,-0.03,0.03,0.07,k
2826.0,2903.0,3014.0,3575.0,4095.0,4095.0,2837.0,3133.0,0.01,9.61,-0.7,-0.09,0.05,0.05,k
2820.0,2906.0,3019.0,3583.0,4095.0,4095.0,2842.0,3127.0,0.02,9.88,-0.68,-0.06,0.07,0.0,k
2831.0,2896.0,3023.0,3570.0,4095.0,4095.0,2835.0,3136.0,0.14,9.88,-0.51,-0.01,0.03,0.06,k
2825.0,2906.0,3015.0,3579.0,4095.0,4095.0,2837.0,3125.0,0.42,9.62,-0.64,0.02,0.02,-0.01,k
2829.0,2903.0,3021.0,3581.0,4095.0,4095.0,2846.0,3127.0,0.11,9.73,-0.94,-0.03,0.01,-0.02,k
