hall_1,hall_2,hall_3,flex_t,flex_i,flex_m,flex_r,flex_p,accel_x,accel_y,accel_z,gyro_x,gyro_y,gyro_z,sign
3088.0,2915.0,2992.0,4095.0,4095.0,4095.0,2800.0,3155.0,-5.19,6.16,4.7,-0.08,0.16,0.32,p
3088.0,2922.0,2988.0,4095.0,4095.0,4095.0,2800.0,3152.0,-4.67,5.46,6.1,-0.51,0.22,0.43,p
3084.0,2915.0,2987.0,4095.0,4095.0,4095.0,2809.0,3157.0,-4.64,4.66,6.62,-0.43,0.38,0.25,p
3083.0,2912.0,2979.0,4095.0,4095.0,4095.0,2799.0,3151.0,-5.15,4.56,6.17,-0.24,0.24,-0.06,p
3088.0,2907.0,2983.0,4095.0,4095.0,4095.0,2811.0,3156.0,-5.66,4.01,6.36,-0.24,0.26,-0.08,p
3086.0,2908.0,2979.0,4095.0,4095.0,4095.0,2812.0,3165.0,-6.17,4.29,5.95,0.3,0.46,0.07,p
3084.0,2902.0,2981.0,4095.0,4095.0,4095.0,2803.0,3153.0,-5.89,4.16,6.2,0.42,-0.11,-0.29,p
3071.0,2911.0,2989.0,4095.0,4095.0,4095.0,2800.0,3163.0,-5.81,4.81,5.52,0.54,-0.13,-0.3,p
3085.0,2913.0,2982.0,4095.0,4095.0,4095.0,2798.0,3157.0,-6.68,5.56,4.15,0.25,-0.06,0.15,p
3071.0,2910.0,2977.0,4095.0,4095.0,4095.0,2811.0,3163.0,-6.64,5.4,4.02,-0.04,-0.16,0.02,p
3089.0,2912.0,2985.0,4095.0,4095.0,4095.0,2800.0,3163.0,-5.87,4.8,5.67,-0.4,0.13,0.25,p
3088.0,2911.0,2972.0,4095.0,4095.0,4095.0,2830.0,3162.0,-5.94,4.62,6.17,-0.25,-0.12,0.17,p
3088.0,2913.0,2987.0,4095.0,4095.0,4095.0,2812.0,3158.0,-5.69,4.49,5.99,-0.07,-0.11,0.44,p
3081.0,2901.0,2975.0,4095.0,4095.0,4095.0,2815.0,3166.0,-4.27,4.97,6.27,0.28,-0.24,0.31,p
3083.0,2919.0,2985.0,4095.0,4095.0,4095.0,2820.0,3168.0,-3.36,6.44,5.49,0.4,-0.22,-0.07,p
3079.0,2914.0,2979.0,4095.0,4095.0,4095.0,2818.0,3171.0,-3.84,6.93,4.32,0.32,-0.12,-0.42,p
3085.0,2917.0,2979.0,4095.0,4095.0,4095.0,2821.0,3183.0,-5.97,6.7,4.11,0.05,-0.2,-0.66,p
3082.0,2909.0,2983.0,4095.0,4095.0,4095.0,2797.0,3157.0,-6.86,6.06,6.6,-0.22,-0.28,-0.28,p
3086.0,2922.0,2979.0,4095.0,4095.0,4095.0,2814.0,3184.0,-5.43,5.24,6.55,-0.14,-0.34,-0.01,p
3082.0,2911.0,2974.0,4095.0,4095.0,4095.0,2829.0,3173.0,-4.65,3.99,6.03,0.04,-0.39,-0.03,p
3079.0,2911.0,2971.0,4095.0,4095.0,4095.0,2827.0,3163.0,-4.89,4.06,4.95,0.04,-0.26,-0.05,p
3085.0,2910.0,2973.0,4095.0,4095.0,4095.0,2815.0,3168.0,-4.55,4.9,5.29,-0.59,0.2,0.03,p
3086.0,2915.0,2975.0,4095.0,4095.0,4095.0,2827.0,3171.0,-5.68,5.02,4.11,0.47,-0.12,-0.17,p
3071.0,2918.0,2979.0,4095.0,4095.0,4095.0,2826.0,3176.0,-5.25,7.28,4.95,0.02,0.05,0.24,p
3088.0,2912.0,2976.0,4095.0,4095.0,4095.0,2825.0,3184.0,-5.2,5.1,6.24,0.13,-0.19,0.21,p
3082.0,2915.0,2979.0,4095.0,4095.0,4095.0,2826.0,3170.0,-4.25,5.88,6.63,-0.01,-0.26,0.2,p
3085.0,2911.0,2975.0,4095.0,4095.0,4095.0,2827.0,3183.0,-4.31,6.0,6.34,0.35,-0.25,0.23,p
3070.0,2919.0,2986.0,4095.0,4095.0,4095.0,2828.0,3179.0,-3.3,6.18,6.55,0.01,-0.18,0.33,p
3071.0,2913.0,2975.0,4095.0,4095.0,4095.0,2830.0,3179.0,-2.43,6.56,6.07,-0.33,-0.19,0.14,p
3081.0,2913.0,2977.0,4095.0,4095.0,4095.0,2823.0,3184.0,-2.72,6.09,5.73,-0.01,-0.31,-0.16,p
3081.0,2907.0,2977.0,4095.0,4095.0,4095.0,2829.0,3185.0,-3.08,6.07,5.4,0.21,0.09,0.26,p
3071.0,2906.0,2979.0,4095.0,4095.0,4095.0,2819.0,3174.0,-1.91,4.51,5.93,-0.03,0.04,-0.07,p
3083.0,2911.0,2983.0,4095.0,4095.0,4095.0,2817.0,3193.0,-1.44,6.05,6.59,0.07,0.07,-0.74,p
3071.0,2910.0,2972.0,4095.0,4095.0,4095.0,2812.0,3195.0,-5.3,5.3,7.26,0.3,0.16,-1.1,p
3071.0,2913.0,2971.0,4095.0,4095.0,4095.0,2831.0,3186.0,-6.33,6.92,4.62,0.26,0.23,-0.31,p
3083.0,2905.0,2970.0,4095.0,4095.0,4095.0,2814.0,3185.0,-4.79,5.58,3.79,0.43,0.04,-0.07,p
3070.0,2915.0,2971.0,4095.0,4095.0,4095.0,2813.0,3195.0,-5.22,7.21,5.11,0.21,0.37,0.06,p
3082.0,2909.0,2971.0,4095.0,4095.0,4095.0,2837.0,3182.0,-5.77,6.82,4.16,0.08,0.04,0.13,p
3071.0,2908.0,2978.0,4095.0,4095.0,4095.0,2847.0,3184.0,-5.43,6.93,5.35,-0.46,0.13,0.44,p
3082.0,2909.0,2967.0,4095.0,4095.0,4095.0,2847.0,3167.0,-4.09,6.94,6.38,-0.48,-0.03,0.41,p
3087.0,2911.0,2985.0,4095.0,4095.0,4095.0,2838.0,3184.0,-3.59,5.54,6.39,-0.15,-0.39,-0.02,p
3071.0,2912.0,2974.0,4095.0,4095.0,4095.0,2843.0,3182.0,-3.33,5.72,5.41,0.12,-0.11,-0.11,p
3071.0,2911.0,2977.0,4095.0,4095.0,4095.0,2839.0,3181.0,-4.25,5.47,4.83,0.17,-0.26,-0.36,p
3069.0,2906.0,2974.0,4095.0,4095.0,4095.0,2835.0,3184.0,-4.4,6.22,4.61,0.15,0.01,-0.23,p
3086.0,2914.0,2974.0,4095.0,4095.0,4095.0,2844.0,3189.0,-4.61,6.11,5.03,-0.12,0.05,-0.29,p
3082.0,2906.0,2971.0,4095.0,4095.0,4095.0,2846.0,3194.0,-5.1,6.36,4.88,-0.07,0.21,-0.16,p
3071.0,2906.0,2977.0,4095.0,4095.0,4095.0,2851.0,3179.0,-5.22,6.34,5.4,-0.25,0.24,-0.03,p
3082.0,2913.0,2981.0,4095.0,4095.0,4095.0,2847.0,3185.0,-5.66,6.16,5.98,-0.25,0.18,0.08,p
3071.0,2914.0,2976.0,4095.0,4095.0,4095.0,2845.0,3184.0,-4.99,6.01,5.93,-0.11,-0.11,0.06,p
3071.0,2919.0,2978.0,4095.0,4095.0,4095.0,2852.0,3195.0,-3.46,5.11,6.79,-0.37,0.16,-0.03,p
3087.0,2915.0,2980.0,4095.0,4095.0,4095.0,2841.0,3182.0,-5.22,4.52,7.24,0.08,-0.09,-0.37,p
3071.0,2922.0,2983.0,4095.0,4095.0,4095.0,2838.0,3186.0,-6.02,5.55,6.16,0.15,-0.21,-0.29,p
3081.0,2915.0,2981.0,4095.0,4095.0,4095.0,2850.0,3202.0,-5.02,4.97,5.87,0.34,-0.1,-0.15,p
3084.0,2919.0,2975.0,4095.0,4095.0,4095.0,2847.0,3196.0,-4.47,5.46,4.11,0.34,-0.12,-0.22,p
3085.0,2914.0,2974.0,4095.0,4095.0,4095.0,2859.0,3198.0,-4.89,5.92,4.03,0.19,-0.07,-0.31,p
3071.0,2918.0,2986.0,4095.0,4095.0,4095.0,2864.0,3200.0,-5.35,5.87,4.19,-0.08,0.16,-0.23,p
3069.0,2919.0,2981.0,4095.0,4095.0,4095.0,2851.0,3201.0,-5.25,5.91,3.38,-0.51,0.24,-0.31,p
3089.0,2911.0,2974.0,4095.0,4095.0,4095.0,2864.0,3199.0,-7.06,6.2,5.35,-0.69,0.4,0.1,p
3069.0,2916.0,2967.0,4095.0,4095.0,4095.0,2869.0,3187.0,-7.72,4.9,6.6,-0.51,0.27,0.52,p
3085.0,2914.0,2977.0,4095.0,4095.0,4095.0,2863.0,3193.0,-6.43,3.74,8.5,-0.22,-0.24,0.67,p
3081.0,2910.0,2975.0,4095.0,4095.0,4095.0,2864.0,3195.0,-4.18,3.76,6.31,0.41,-0.47,0.39,p
3071.0,2919.0,2975.0,4095.0,4095.0,4095.0,2863.0,3201.0,-3.45,4.52,4.34,0.45,-0.42,-0.19,p
3079.0,2913.0,2973.0,4095.0,4095.0,4095.0,2867.0,3195.0,-4.07,5.63,3.95,0.01,-0.03,-0.3,p
3084.0,2911.0,2983.0,4095.0,4095.0,4095.0,2858.0,3190.0,-4.86,5.86,5.12,-0.09,0.15,-0.35,p
3086.0,2911.0,2977.0,4095.0,4095.0,4095.0,2861.0,3199.0,-6.08,6.18,5.37,-0.18,0.35,-0.07,p
3079.0,2910.0,2975.0,4095.0,4095.0,4095.0,2864.0,3189.0,-6.06,5.4,5.63,-0.26,0.17,0.11,p
3071.0,2917.0,2966.0,4095.0,4095.0,4095.0,2867.0,3195.0,-6.08,5.04,5.54,-0.29,0.11,0.21,p
3081.0,2907.0,2986.0,4095.0,4095.0,4095.0,2879.0,3193.0,-5.84,4.18,6.51,-0.22,-0.04,0.31,p
3079.0,2914.0,2979.0,4095.0,4095.0,4095.0,2864.0,3199.0,-5.72,3.81,8.52,0.14,-0.24,0.28,p
3066.0,2911.0,2978.0,4095.0,4095.0,4095.0,2861.0,3195.0,-3.97,5.11,5.71,0.39,-0.29,0.23,p
3082.0,2914.0,2971.0,4095.0,4095.0,4095.0,2866.0,3210.0,-2.74,4.6,4.86,0.11,-0.26,-0.17,p
3086.0,2910.0,2978.0,4095.0,4095.0,4095.0,2878.0,3202.0,-3.83,4.59,8.78,-0.04,-0.38,-0.56,p
3084.0,2905.0,2974.0,4095.0,4095.0,4095.0,2874.0,3194.0,-5.76,6.52,6.84,0.55,-0.04,-0.26,p
3071.0,2905.0,2975.0,4095.0,4095.0,4095.0,2871.0,3199.0,-5.81,6.56,5.02,0.35,-0.19,0.24,p
3069.0,2912.0,2978.0,4095.0,4095.0,4095.0,2867.0,3197.0,-4.03,5.97,4.11,-0.14,-0.15,0.58,p
3066.0,2901.0,2978.0,4095.0,4095.0,4095.0,2863.0,3185.0,-2.41,5.35,4.66,-0.33,0.18,0.37,p
3081.0,2910.0,2982.0,4095.0,4095.0,4095.0,2873.0,3197.0,-2.84,4.55,6.7,-0.3,0.25,-0.02,p
3071.0,2915.0,2976.0,4095.0,4095.0,4095.0,2865.0,3199.0,-3.47,5.14,8.57,-0.07,0.13,-0.37,p
3086.0,2908.0,2969.0,4095.0,4095.0,4095.0,2880.0,3194.0,-4.6,6.6,6.57,0.46,0.19,-0.41,p
3071.0,2903.0,2981.0,4095.0,4095.0,4095.0,2865.0,3197.0,-5.92,6.89,3.8,0.2,0.1,-0.15,p
3067.0,2910.0,2972.0,4095.0,4095.0,4095.0,2865.0,3196.0,-5.03,5.77,4.02,-0.4,0.06,0.28,p
3083.0,2914.0,2979.0,4095.0,4095.0,4095.0,2874.0,3206.0,-4.56,5.72,5.7,-0.39,0.1,0.26,p
3085.0,2918.0,2979.0,4095.0,4095.0,4095.0,2883.0,3205.0,-4.85,5.85,6.37,-0.37,0.17,0.28,p
3071.0,2910.0,2977.0,4095.0,4095.0,4095.0,2864.0,3200.0,-4.56,4.85,7.68,-0.17,-0.21,0.35,p
3078.0,2911.0,2970.0,4095.0,4095.0,4095.0,2864.0,3206.0,-2.91,5.3,7.69,0.21,-0.19,0.26,p
3085.0,2905.0,2976.0,4095.0,4095.0,4095.0,2871.0,3200.0,-2.21,5.28,5.99,0.56,-0.14,-0.21,p
3079.0,2919.0,2983.0,4095.0,4095.0,4095.0,2868.0,3198.0,-2.93,6.32,3.31,0.04,0.29,-0.55,p
3071.0,2914.0,2985.0,4095.0,4095.0,4095.0,2875.0,3205.0,-4.84,6.42,4.01,-0.39,0.31,-0.57,p
3071.0,2913.0,2976.0,4095.0,4095.0,4095.0,2876.0,3207.0,-6.82,5.56,5.8,-0.54,0.31,-0.26,p
3085.0,2906.0,2980.0,4095.0,4095.0,4095.0,2879.0,3202.0,-5.96,4.59,6.93,-0.49,0.15,0.1,p
3085.0,2910.0,2972.0,4095.0,4095.0,4095.0,2874.0,3199.0,-5.29,4.29,7.33,-0.29,0.15,0.2,p
3071.0,2913.0,2978.0,4095.0,4095.0,4095.0,2879.0,3202.0,-5.51,3.86,7.68,0.08,-0.09,0.08,p
3082.0,2899.0,2976.0,4095.0,4095.0,4095.0,2874.0,3198.0,-5.47,4.17,7.61,0.46,-0.27,0.12,p
3087.0,2911.0,2970.0,4095.0,4095.0,4095.0,2879.0,3201.0,-4.55,5.55,5.86,0.59,-0.35,0.21,p
3071.0,2907.0,2982.0,4095.0,4095.0,4095.0,2865.0,3203.0,-1.95,6.34,5.58,0.44,-0.39,-0.21,p
3071.0,2913.0,2974.0,4095.0,4095.0,4095.0,2863.0,3201.0,-4.67,5.97,4.37,0.36,0.2,-0.2,p
3070.0,2901.0,2971.0,4095.0,4095.0,4095.0,2867.0,3197.0,-4.51,7.17,3.96,-0.25,0.3,-0.0,p
3082.0,2906.0,2975.0,4095.0,4095.0,4095.0,2871.0,3234.0,-4.48,6.7,4.88,-0.03,0.37,0.13,p
3081.0,2914.0,2976.0,4095.0,4095.0,4095.0,2863.0,3207.0,-5.67,6.2,4.85,0.08,0.29,0.14,p
3080.0,2899.0,2973.0,4095.0,4095.0,4095.0,2864.0,3198.0,-6.17,5.73,5.92,-0.28,0.03,0.39,p
3067.0,2913.0,2981.0,4095.0,4095.0,4095.0,2879.0,3216.0,-4.3,5.42,5.89,-0.05,-0.17,0.54,p
3071.0,2912.0,2973.0,4095.0,4095.0,4095.0,2865.0,3199.0,-2.21,6.42,6.08,0.04,-0.18,0.23,p
3069.0,2910.0,2978.0,4095.0,4095.0,4095.0,2871.0,3197.0,-2.85,6.43,5.75,0.29,-0.33,-0.49,p
3070.0,2902.0,2986.0,4095.0,4095.0,4095.0,2879.0,3210.0,-4.43,6.39,3.51,0.22,-0.09,-0.51,p
3079.0,2910.0,2974.0,4095.0,4095.0,4095.0,2882.0,3200.0,-4.29,6.51,4.21,-0.14,-0.01,-0.39,p
3083.0,2912.0,2985.0,4095.0,4095.0,4095.0,2873.0,3210.0,-4.63,6.8,4.77,-0.08,0.28,-0.32,p
3081.0,2900.0,2972.0,4095.0,4095.0,4095.0,2882.0,3215.0,-5.95,6.59,4.88,-0.27,0.16,-0.23,p
3082.0,2915.0,2974.0,4095.0,4095.0,4095.0,2872.0,3212.0,-5.5,6.01,6.1,-0.27,0.02,0.07,p
3071.0,2911.0,2978.0,4095.0,4095.0,4095.0,2885.0,3211.0,-5.35,5.72,6.67,-0.04,-0.16,0.18,p
3071.0,2923.0,2973.0,4095.0,4095.0,4095.0,2877.0,3210.0,-4.64,5.18,6.17,0.25,-0.3,0.15,p
3065.0,2906.0,2974.0,4095.0,4095.0,4095.0,2876.0,3211.0,-3.61,5.75,5.66,0.27,-0.29,-0.07,p
3071.0,2903.0,2981.0,4095.0,4095.0,4095.0,2879.0,3201.0,-3.77,6.09,4.42,0.32,-0.19,-0.4,p
3071.0,2911.0,2971.0,4095.0,4095.0,4095.0,2883.0,3205.0,-4.61,6.86,3.85,0.12,0.05,-0.4,p
3082.0,2912.0,2980.0,4095.0,4095.0,4095.0,2877.0,3214.0,-5.37,6.91,4.69,-0.12,0.14,-0.13,p
3082.0,2896.0,2985.0,4095.0,4095.0,4095.0,2864.0,3211.0,-5.67,6.31,5.26,-0.16,0.14,0.08,p
3067.0,2915.0,2977.0,4095.0,4095.0,4095.0,2877.0,3199.0,-5.69,6.17,4.65,-0.18,0.23,0.26,p
3067.0,2907.0,2971.0,4095.0,4095.0,4095.0,2878.0,3210.0,-4.83,6.19,4.73,-0.23,0.19,0.35,p
3085.0,2915.0,2985.0,4095.0,4095.0,4095.0,2875.0,3210.0,-4.96,5.3,5.42,-0.14,0.11,0.05,p
3087.0,2909.0,2985.0,4095.0,4095.0,4095.0,2865.0,3216.0,-5.5,5.36,6.16,0.11,-0.14,-0.12,p
3083.0,2912.0,2969.0,4095.0,4095.0,4095.0,2876.0,3212.0,-4.35,6.4,5.52,0.12,-0.39,-0.16,p
3070.0,2914.0,2975.0,4095.0,4095.0,4095.0,2877.0,3204.0,-3.9,6.24,5.26,0.2,-0.46,-0.42,p
3081.0,2907.0,2974.0,4095.0,4095.0,4095.0,2871.0,3205.0,-4.06,6.42,4.62,0.07,-0.13,-0.48,p
3071.0,2912.0,2978.0,4095.0,4095.0,4095.0,2881.0,3202.0,-4.71,6.02,4.8,-0.06,-0.14,-0.43,p
3084.0,2912.0,2978.0,4095.0,4095.0,4095.0,2872.0,3226.0,-5.19,6.1,4.97,-0.14,0.12,-0.2,p
3069.0,2907.0,2976.0,4095.0,4095.0,4095.0,2874.0,3199.0,-5.54,5.73,5.01,-0.26,0.46,0.18,p
3082.0,2907.0,2980.0,4095.0,4095.0,4095.0,2874.0,3210.0,-6.39,5.48,5.7,-0.44,0.28,0.35,p
3071.0,2909.0,2986.0,4095.0,4095.0,4095.0,2881.0,3213.0,-5.68,5.0,7.03,-0.47,0.25,0.6,p
3071.0,2924.0,2983.0,4095.0,4095.0,4095.0,2864.0,3207.0,-4.08,4.8,6.47,-0.18,-0.13,0.7,p
3067.0,2907.0,2972.0,4095.0,4095.0,4095.0,2880.0,3215.0,-3.68,5.4,6.3,-0.01,0.31,0.31,p
3088.0,2909.0,2981.0,4095.0,4095.0,4095.0,2879.0,3214.0,-3.81,6.16,5.63,0.05,0.11,0.07,p
3088.0,2910.0,2975.0,4095.0,4095.0,4095.0,2866.0,3200.0,-4.37,5.74,4.86,0.31,-0.04,-0.33,p
3071.0,2915.0,2985.0,4095.0,4095.0,4095.0,2867.0,3215.0,-5.0,7.01,4.07,0.04,0.3,-0.1,p
3071.0,2905.0,2977.0,4095.0,4095.0,4095.0,2867.0,3214.0,-5.48,7.01,3.72,-0.08,0.02,-0.14,p
3071.0,2903.0,2973.0,4095.0,4095.0,4095.0,2870.0,3191.0,-5.4,5.99,4.65,-0.15,-0.01,0.03,p
3083.0,2907.0,2977.0,4095.0,4095.0,4095.0,2870.0,3207.0,-6.14,6.32,4.71,-0.06,0.06,0.05,p
3084.0,2912.0,2978.0,4095.0,4095.0,4095.0,2883.0,3210.0,-5.61,6.66,4.89,-0.16,0.02,0.25,p
3071.0,2914.0,2982.0,4095.0,4095.0,4095.0,2880.0,3205.0,-4.46,5.66,5.03,-0.01,0.1,0.12,p
3063.0,2901.0,2979.0,4095.0,4095.0,4095.0,2885.0,3202.0,-3.46,6.59,5.01,-0.02,0.17,-0.03,p
3067.0,2915.0,2970.0,4095.0,4095.0,4095.0,2887.0,3207.0,-4.75,6.37,5.59,-0.09,0.07,-0.36,p
3067.0,2897.0,2973.0,4095.0,4095.0,4095.0,2873.0,3210.0,-5.75,5.75,5.36,0.05,-0.26,-0.31,p
3071.0,2911.0,2967.0,4095.0,4095.0,4095.0,2880.0,3209.0,-5.95,5.8,5.24,0.15,-0.29,-0.2,p
3084.0,2911.0,2976.0,4095.0,4095.0,4095.0,2869.0,3210.0,-5.71,6.42,4.18,0.12,-0.14,0.03,p
3069.0,2907.0,2969.0,4095.0,4095.0,4095.0,2869.0,3209.0,-5.18,6.53,4.28,-0.09,-0.11,0.12,p
3071.0,2912.0,2979.0,4095.0,4095.0,4095.0,2874.0,3216.0,-4.51,6.17,5.22,-0.13,-0.06,0.09,p
3083.0,2918.0,2974.0,4095.0,4095.0,4095.0,2871.0,3205.0,-4.14,6.12,4.99,-0.15,0.02,0.15,p
3067.0,2907.0,2977.0,4095.0,4095.0,4095.0,2875.0,3216.0,-3.68,6.16,5.8,-0.29,-0.0,-0.05,p
3070.0,2910.0,2971.0,4095.0,4095.0,4095.0,2879.0,3210.0,-4.67,5.53,5.95,0.04,0.01,-0.19,p
3071.0,2903.0,2977.0,4095.0,4095.0,4095.0,2881.0,3222.0,-4.64,5.64,5.32,0.15,0.16,-0.21,p
3071.0,2911.0,2979.0,4095.0,4095.0,4095.0,2889.0,3205.0,-5.11,5.94,4.9,0.01,-0.03,-0.33,p
3082.0,2907.0,2977.0,4095.0,4095.0,4095.0,2882.0,3206.0,-5.69,6.32,4.31,-0.1,0.06,-0.27,p
3063.0,2916.0,2976.0,4095.0,4095.0,4095.0,2875.0,3203.0,-6.18,6.24,4.9,-0.39,0.14,0.09,p
3071.0,2906.0,2981.0,4095.0,4095.0,4095.0,2879.0,3200.0,-5.75,5.13,6.34,-0.34,-0.09,0.13,p
3069.0,2909.0,2979.0,4095.0,4095.0,4095.0,2864.0,3213.0,-5.64,5.2,6.09,-0.07,-0.16,0.24,p
3071.0,2905.0,2969.0,4095.0,4095.0,4095.0,2870.0,3219.0,-4.85,5.33,6.28,0.05,-0.22,0.26,p
3063.0,2903.0,2971.0,4095.0,4095.0,4095.0,2864.0,3225.0,-3.8,5.32,5.84,0.29,-0.12,0.16,p
3080.0,2922.0,2975.0,4095.0,4095.0,4095.0,2879.0,3202.0,-3.81,5.88,5.03,0.34,-0.06,-0.13,p
3071.0,2911.0,2970.0,4095.0,4095.0,4095.0,2865.0,3219.0,-4.5,5.95,4.77,0.17,0.0,-0.36,p
3066.0,2899.0,2978.0,4095.0,4095.0,4095.0,2869.0,3216.0,-5.15,6.3,4.47,-0.04,0.05,-0.36,p
3083.0,2902.0,2986.0,4095.0,4095.0,4095.0,2899.0,3215.0,-5.27,6.25,4.89,-0.07,0.16,-0.2,p
3069.0,2909.0,2978.0,4095.0,4095.0,4095.0,2869.0,3210.0,-5.66,6.53,4.91,-0.19,0.18,-0.04,p
3065.0,2907.0,2976.0,4095.0,4095.0,4095.0,2880.0,3216.0,-5.83,6.06,5.52,-0.18,0.07,0.06,p
3082.0,2907.0,2975.0,4095.0,4095.0,4095.0,2880.0,3214.0,-5.7,5.99,5.25,-0.05,-0.05,0.18,p
3071.0,2903.0,2970.0,4095.0,4095.0,4095.0,2874.0,3216.0,-5.11,5.84,5.57,-0.01,-0.26,0.22,p
3061.0,2910.0,2983.0,4095.0,4095.0,4095.0,2875.0,3211.0,-4.16,6.14,5.15,0.06,-0.28,0.08,p
3066.0,2901.0,2981.0,4095.0,4095.0,4095.0,2873.0,3215.0,-4.0,6.28,5.12,0.12,-0.16,-0.08,p
3071.0,2912.0,2987.0,4095.0,4095.0,4095.0,2878.0,3196.0,-4.54,6.74,4.54,0.08,-0.09,-0.05,p
3070.0,2911.0,2977.0,4095.0,4095.0,4095.0,2878.0,3219.0,-5.3,6.85,3.88,-0.09,0.06,0.06,p
3082.0,2908.0,2979.0,4095.0,4095.0,4095.0,2882.0,3214.0,-4.59,5.67,5.08,-0.36,0.03,0.22,p
3071.0,2909.0,2982.0,4095.0,4095.0,4095.0,2877.0,3215.0,-4.14,5.22,5.95,-0.24,0.0,0.08,p
3070.0,2905.0,2980.0,4095.0,4095.0,4095.0,2878.0,3209.0,-3.85,5.79,5.62,-0.08,0.09,-0.07,p
3071.0,2903.0,2976.0,4095.0,4095.0,4095.0,2879.0,3212.0,-4.26,6.68,6.25,0.08,0.04,-0.31,p
3065.0,2907.0,2970.0,4095.0,4095.0,4095.0,2880.0,3216.0,-5.09,6.32,5.41,0.16,-0.06,-0.32,p
3082.0,2907.0,2981.0,4095.0,4095.0,4095.0,2871.0,3216.0,-5.82,6.55,4.92,0.15,-0.09,-0.15,p
3067.0,2907.0,2981.0,4095.0,4095.0,4095.0,2872.0,3222.0,-5.57,6.33,4.55,-0.05,-0.11,0.15,p
3060.0,2902.0,2977.0,4095.0,4095.0,4095.0,2882.0,3221.0,-4.55,5.98,5.3,-0.16,0.04,0.31,p
3071.0,2911.0,2976.0,4095.0,4095.0,4095.0,2884.0,3221.0,-4.29,5.71,5.22,0.03,-0.2,0.25,p
3068.0,2910.0,2979.0,4095.0,4095.0,4095.0,2866.0,3227.0,-3.44,5.93,5.31,0.02,-0.1,0.19,p
3071.0,2907.0,2975.0,4095.0,4095.0,4095.0,2874.0,3217.0,-2.89,7.05,5.09,0.01,0.22,0.03,p
3071.0,2907.0,2981.0,4095.0,4095.0,4095.0,2870.0,3221.0,-3.65,6.91,5.01,-0.1,0.17,-0.27,p
3069.0,2913.0,2972.0,4095.0,4095.0,4095.0,2887.0,3213.0,-4.78,6.43,4.6,-0.28,0.29,-0.24,p
3070.0,2913.0,2971.0,4095.0,4095.0,4095.0,2883.0,3211.0,-5.16,6.24,6.12,-0.19,0.05,-0.2,p
3059.0,2906.0,2977.0,4095.0,4095.0,4095.0,2883.0,3216.0,-5.2,6.02,6.02,-0.18,0.19,0.03,p
3067.0,2914.0,2981.0,4095.0,4095.0,4095.0,2881.0,3210.0,-5.66,4.86,7.03,-0.22,-0.2,-0.06,p
3063.0,2916.0,2977.0,4095.0,4095.0,4095.0,2881.0,3214.0,-5.13,4.93,6.05,0.33,-0.2,0.08,p
3071.0,2902.0,2975.0,4095.0,4095.0,4095.0,2883.0,3206.0,-4.28,5.49,4.88,0.26,-0.28,0.05,p
3085.0,2910.0,2976.0,4095.0,4095.0,4095.0,2879.0,3219.0,-4.13,6.17,4.34,0.14,-0.07,-0.03,p
3071.0,2907.0,2982.0,4095.0,4095.0,4095.0,2889.0,3218.0,-4.01,6.18,4.84,0.0,-0.04,-0.1,p
3065.0,2913.0,2974.0,4095.0,4095.0,4095.0,2885.0,3216.0,-4.23,6.8,4.86,-0.2,0.2,-0.09,p
3068.0,2910.0,2990.0,4095.0,4095.0,4095.0,2882.0,3222.0,-4.91,7.16,5.32,-0.39,0.27,0.04,p
3070.0,2906.0,2974.0,4095.0,4095.0,4095.0,2889.0,3221.0,-5.07,5.47,6.84,-0.2,0.05,0.12,p
3071.0,2910.0,2981.0,4095.0,4095.0,4095.0,2882.0,3227.0,-4.86,5.31,6.5,0.0,-0.04,0.2,p
3071.0,2919.0,2973.0,4095.0,4095.0,4095.0,2887.0,3216.0,-4.63,5.83,5.74,0.12,-0.13,0.24,p
3071.0,2911.0,2985.0,4095.0,4095.0,4095.0,2882.0,3216.0,-3.91,5.88,5.87,0.1,-0.21,0.29,p
3067.0,2899.0,2974.0,4095.0,4095.0,4095.0,2893.0,3216.0,-2.64,6.41,6.14,0.11,0.01,0.19,p
3071.0,2927.0,2986.0,4095.0,4095.0,4095.0,2886.0,3226.0,-3.26,6.62,5.39,0.14,0.01,-0.16,p
3070.0,2903.0,2976.0,4095.0,4095.0,4095.0,2887.0,3226.0,-4.23,6.59,4.75,0.15,0.03,-0.28,p
3067.0,2913.0,2976.0,4095.0,4095.0,4095.0,2895.0,3225.0,-4.36,7.09,5.15,-0.01,0.11,-0.1,p
3067.0,2906.0,2970.0,4095.0,4095.0,4095.0,2882.0,3216.0,-4.57,6.71,5.68,0.03,0.0,0.08,p
3071.0,2902.0,2974.0,4095.0,4095.0,4095.0,2880.0,3238.0,-4.47,6.08,4.96,0.45,-0.11,0.16,p
3066.0,2907.0,2974.0,4095.0,4095.0,4095.0,2880.0,3218.0,-3.21,6.84,3.88,0.42,0.15,0.31,p
3069.0,2910.0,2979.0,4095.0,4095.0,4095.0,2868.0,3211.0,-3.42,7.11,4.61,0.05,-0.18,-0.06,p
3062.0,2906.0,2983.0,4095.0,4095.0,4095.0,2886.0,3212.0,-4.03,7.27,4.58,0.5,-0.52,-0.29,p
3061.0,2896.0,2974.0,4095.0,4095.0,4095.0,2863.0,3198.0,-3.79,7.17,5.18,0.11,-0.34,-0.28,p
3068.0,2903.0,2974.0,4095.0,4095.0,4095.0,2876.0,3201.0,-3.59,7.31,4.81,-0.22,-0.41,-0.37,p
3063.0,2906.0,2971.0,4095.0,4095.0,4095.0,2870.0,3202.0,-3.61,6.7,6.29,-1.1,-0.16,-0.44,p
3082.0,2896.0,2976.0,4095.0,4095.0,4095.0,2874.0,3213.0,-4.46,5.64,6.68,-0.84,0.12,0.11,p
3083.0,2901.0,2979.0,4095.0,4095.0,4095.0,2877.0,3216.0,-3.95,5.66,6.54,-0.71,-0.0,0.1,p
3071.0,2910.0,2974.0,4095.0,4095.0,4095.0,2884.0,3213.0,-3.35,5.6,6.63,-0.7,-0.12,0.07,p
3071.0,2905.0,2974.0,4095.0,4095.0,4095.0,2889.0,3222.0,-3.03,5.33,6.79,-0.68,0.3,0.24,p
3071.0,2903.0,2967.0,4095.0,4095.0,4095.0,2880.0,3230.0,-3.69,3.64,7.84,-0.63,0.16,-0.0,p
3066.0,2901.0,2977.0,4095.0,4095.0,4095.0,2883.0,3235.0,-4.15,3.51,6.65,0.82,0.06,0.1,p
3071.0,2914.0,2981.0,4095.0,4095.0,4095.0,2885.0,3230.0,-3.98,5.33,6.64,0.92,0.12,0.26,p
3071.0,2922.0,2973.0,4095.0,4095.0,4095.0,2885.0,3222.0,-3.46,6.16,6.58,0.61,0.1,0.18,p
3070.0,2895.0,2973.0,4095.0,4095.0,4095.0,2881.0,3221.0,-3.54,6.19,6.07,0.6,0.23,0.13,p
3071.0,2913.0,2971.0,4095.0,4095.0,4095.0,2886.0,3207.0,-2.91,6.45,5.47,0.96,0.37,0.09,p
3065.0,2908.0,2985.0,4095.0,4095.0,4095.0,2872.0,3219.0,-4.02,8.1,3.62,0.52,0.22,-0.16,p
3071.0,2911.0,2975.0,4095.0,4095.0,4095.0,2876.0,3216.0,-4.46,8.45,5.14,-0.47,-0.13,-0.12,p
3083.0,2910.0,2981.0,4095.0,4095.0,4095.0,2879.0,3222.0,-3.99,6.74,4.92,-0.96,-0.09,-0.16,p
3066.0,2909.0,2975.0,4095.0,4095.0,4095.0,2879.0,3215.0,-3.98,5.61,4.79,-0.75,-0.24,-0.29,p
3082.0,2914.0,2971.0,4095.0,4095.0,4095.0,2882.0,3236.0,-4.02,5.7,5.92,-0.19,0.21,0.0,p
