hall_1,hall_2,hall_3,flex_t,flex_i,flex_m,flex_r,flex_p,accel_x,accel_y,accel_z,gyro_x,gyro_y,gyro_z,sign
3001.0,1851.0,2823.0,2865.0,4095.0,4095.0,4095.0,4095.0,-0.17,9.61,-0.24,-0.04,-0.0,-0.0,b
3055.0,1837.0,2817.0,2865.0,4095.0,4095.0,4095.0,4095.0,-0.13,9.65,-0.33,-0.05,0.03,-0.02,b
3167.0,1839.0,2817.0,2865.0,4095.0,4095.0,4095.0,4095.0,-0.23,9.64,-0.0,-0.02,-0.03,-0.01,b
3161.0,1849.0,2821.0,2865.0,4095.0,4095.0,4095.0,4095.0,-0.07,9.62,-0.17,-0.06,0.03,-0.07,b
3301.0,1858.0,2815.0,2862.0,4095.0,4095.0,4095.0,4095.0,-0.33,9.45,0.02,-0.06,-0.01,-0.19,b
3313.0,1856.0,2813.0,2866.0,4095.0,4095.0,4095.0,4095.0,-0.66,9.63,-0.05,0.02,0.02,-0.02,b
3238.0,1854.0,2817.0,2863.0,4095.0,4095.0,4095.0,4095.0,-0.39,9.74,-0.26,0.03,-0.02,0.04,b
3111.0,1849.0,2821.0,2870.0,4095.0,4095.0,4095.0,4095.0,-0.38,9.63,-0.18,0.0,0.05,0.05,b
3050.0,1846.0,2813.0,2870.0,4095.0,4095.0,4095.0,4095.0,-0.16,9.76,-0.13,-0.05,0.02,-0.01,b
2981.0,1841.0,2807.0,2868.0,4095.0,4095.0,4095.0,4095.0,-0.17,9.59,0.07,-0.06,0.15,-0.07,b
3018.0,1825.0,2804.0,2862.0,4095.0,4095.0,4095.0,4095.0,-0.06,9.46,-0.65,-0.15,0.07,-0.12,b
3026.0,1825.0,2803.0,2869.0,4095.0,4095.0,4095.0,4095.0,0.03,9.61,-0.36,-0.28,-0.28,-0.09,b
3016.0,1829.0,2812.0,2874.0,4095.0,4095.0,4095.0,4095.0,-0.26,9.45,0.57,-0.54,-0.6,-0.07,b
2999.0,1830.0,2815.0,2880.0,4095.0,4095.0,4095.0,4095.0,-0.55,9.13,1.62,-0.32,0.17,-0.19,b
2979.0,1833.0,2815.0,2891.0,4095.0,4095.0,4095.0,4095.0,-1.04,10.27,0.68,-0.11,-0.09,-0.07,b
2834.0,1840.0,2810.0,2889.0,4095.0,4095.0,4095.0,4095.0,-0.74,9.5,1.47,-0.13,-0.15,0.18,b
2719.0,1842.0,2816.0,2897.0,4095.0,4095.0,4095.0,4095.0,0.44,9.34,1.77,-0.01,0.27,0.05,b
2719.0,1831.0,2803.0,2895.0,4095.0,4095.0,4095.0,4095.0,-0.91,9.7,1.08,-0.08,0.24,-0.09,b
2716.0,1839.0,2814.0,2891.0,4095.0,4095.0,4095.0,4095.0,-2.09,9.7,1.14,-0.0,0.27,-0.0,b
2719.0,1843.0,2815.0,2899.0,4095.0,4095.0,4095.0,4095.0,-0.78,9.5,1.04,-0.05,0.07,0.25,b
2717.0,1840.0,2811.0,2903.0,4095.0,4095.0,4095.0,4095.0,-0.51,9.53,1.13,-0.01,0.02,0.1,b
2689.0,1840.0,2819.0,2895.0,4095.0,4095.0,4095.0,4095.0,-0.52,9.53,0.88,-0.13,0.09,-0.01,b
2632.0,1842.0,2816.0,2905.0,4095.0,4095.0,4095.0,4095.0,-0.61,9.5,1.44,-0.12,-0.06,-0.03,b
2559.0,1846.0,2818.0,2916.0,4095.0,4095.0,4095.0,4095.0,-0.22,9.33,1.7,-0.03,-0.12,-0.1,b
2544.0,1854.0,2810.0,2916.0,4095.0,4095.0,4095.0,4095.0,-0.68,9.39,1.03,0.02,-0.26,-0.26,b
2546.0,1858.0,2820.0,2918.0,4095.0,4095.0,4095.0,4095.0,-1.21,9.51,1.18,0.07,-0.14,-0.14,b
2510.0,1883.0,2822.0,2927.0,4095.0,4095.0,4095.0,4095.0,-1.38,9.58,0.72,0.29,-0.04,-0.03,b
2531.0,1897.0,2831.0,2926.0,4095.0,4095.0,4095.0,4095.0,-0.13,9.41,0.33,-0.56,-0.29,0.31,b
2544.0,1913.0,2833.0,2928.0,4095.0,4095.0,4095.0,4095.0,0.17,9.63,0.97,-0.63,-0.32,-0.0,b
2534.0,1913.0,2829.0,2924.0,4095.0,4095.0,4095.0,4095.0,-0.78,9.77,2.86,-0.25,0.01,-0.11,b
2503.0,1906.0,2828.0,2923.0,4095.0,4095.0,4095.0,4095.0,-0.09,9.79,3.26,0.1,0.26,0.01,b
2496.0,1909.0,2817.0,2927.0,4095.0,4095.0,4095.0,4095.0,0.15,9.47,3.18,0.21,0.05,0.17,b
2495.0,1920.0,2819.0,2922.0,4095.0,4095.0,4095.0,4095.0,0.51,9.28,1.33,0.3,-0.11,0.28,b
2635.0,1936.0,2818.0,2919.0,4095.0,4095.0,4095.0,4095.0,0.24,9.15,1.68,0.21,0.03,0.18,b
2848.0,1936.0,2816.0,2874.0,4095.0,4095.0,4095.0,4095.0,-0.08,9.42,0.64,0.49,0.56,-0.03,b
3006.0,1936.0,2815.0,2800.0,4095.0,4095.0,4095.0,4095.0,0.37,9.41,0.24,0.21,0.39,0.22,b
3037.0,1904.0,2814.0,2727.0,4095.0,4095.0,4095.0,4095.0,1.6,9.55,-0.14,-0.0,0.18,-0.06,b
3038.0,1915.0,2816.0,2713.0,4095.0,4095.0,4095.0,4095.0,0.3,9.57,0.18,-0.19,0.2,-0.1,b
3047.0,1910.0,2810.0,2702.0,4095.0,4095.0,4095.0,4095.0,0.34,9.54,0.45,-0.16,0.24,-0.05,b
3037.0,1907.0,2814.0,2582.0,4095.0,4095.0,4095.0,4095.0,-0.11,9.67,0.02,-0.05,0.36,-0.04,b
3056.0,1902.0,2783.0,2448.0,4095.0,4095.0,4095.0,4095.0,-0.46,9.53,0.6,-0.2,0.23,0.07,b
3080.0,1903.0,2795.0,2534.0,4095.0,4095.0,4095.0,4095.0,0.19,9.79,0.72,-0.06,0.15,0.04,b
3058.0,1904.0,2793.0,2537.0,4095.0,4095.0,4095.0,4095.0,-0.57,9.86,0.31,0.11,0.17,-0.08,b
3034.0,1902.0,2800.0,2535.0,4095.0,4095.0,4095.0,4095.0,-0.29,9.5,0.74,-0.03,0.27,0.1,b
3013.0,1904.0,2800.0,2636.0,4095.0,4095.0,4095.0,4095.0,0.24,9.92,1.28,-0.07,0.23,0.06,b
2950.0,1904.0,2807.0,2704.0,4095.0,4095.0,4095.0,4095.0,0.22,9.17,0.93,0.21,0.09,0.05,b
2878.0,1902.0,2810.0,2757.0,4095.0,4095.0,4095.0,4095.0,0.31,9.41,0.56,0.04,-0.03,0.08,b
2723.0,1893.0,2804.0,2743.0,4095.0,4095.0,4095.0,4095.0,0.68,9.81,0.06,0.02,-0.09,0.08,b
2714.0,1903.0,2806.0,2693.0,4095.0,4095.0,4095.0,4095.0,1.37,9.01,1.23,-0.14,-0.18,0.05,b
2780.0,1904.0,2806.0,2478.0,4095.0,4095.0,4095.0,4095.0,0.99,9.47,-0.25,0.06,-0.16,0.05,b
2798.0,1898.0,2809.0,2406.0,4095.0,4095.0,4095.0,4095.0,1.23,9.8,0.03,0.06,-0.22,-0.12,b
2788.0,1898.0,2810.0,2450.0,4095.0,4095.0,4095.0,4095.0,0.74,9.61,-0.07,0.06,-0.05,-0.16,b
2783.0,1899.0,2812.0,2524.0,4095.0,4095.0,4095.0,4095.0,0.92,10.08,-0.17,-0.09,0.08,-0.05,b
2765.0,1898.0,2805.0,2611.0,4095.0,4095.0,4095.0,4095.0,0.42,9.68,0.21,-0.2,0.1,0.07,b
2736.0,1903.0,2812.0,2673.0,4095.0,4095.0,4095.0,4095.0,0.91,9.33,0.68,-0.17,0.2,0.14,b
2703.0,1902.0,2811.0,2768.0,4095.0,4095.0,4095.0,4095.0,1.0,9.67,0.49,-0.11,0.2,0.07,b
2682.0,1901.0,2815.0,2805.0,4095.0,4095.0,4095.0,4095.0,0.85,9.75,0.02,-0.04,0.18,0.01,b
2752.0,1895.0,2814.0,2825.0,4095.0,4095.0,4095.0,4095.0,0.28,9.67,0.0,-0.0,0.21,-0.01,b
2801.0,1892.0,2811.0,2735.0,4095.0,4095.0,4095.0,4095.0,0.51,9.58,0.0,-0.04,0.18,-0.03,b
2789.0,1895.0,2816.0,2681.0,4095.0,4095.0,4095.0,4095.0,0.58,9.48,0.22,-0.01,0.09,-0.06,b
2896.0,1890.0,2806.0,2689.0,4095.0,4095.0,4095.0,4095.0,0.5,9.9,0.08,0.1,0.02,-0.07,b
2992.0,1888.0,2811.0,3122.0,4095.0,4095.0,4095.0,4095.0,0.63,9.47,-0.11,0.11,0.09,-0.07,b
2994.0,1897.0,2815.0,3280.0,4095.0,4095.0,4095.0,4095.0,0.23,9.55,-0.39,-0.06,0.06,-0.03,b
2977.0,1886.0,2818.0,2960.0,4095.0,4095.0,4095.0,4095.0,0.44,9.72,-0.18,-0.09,0.15,0.04,b
2978.0,1889.0,2812.0,2640.0,4095.0,4095.0,4095.0,4095.0,0.66,9.63,-0.1,-0.22,0.02,-0.13,b
2978.0,1892.0,2816.0,2608.0,4095.0,4095.0,4095.0,4095.0,-0.14,9.63,-0.19,-0.02,-0.14,-0.04,b
2964.0,1891.0,2819.0,2544.0,4095.0,4095.0,4095.0,4095.0,0.18,9.54,0.03,-0.11,-0.07,-0.01,b
2946.0,1888.0,2816.0,2534.0,4095.0,4095.0,4095.0,4095.0,0.32,9.58,0.59,-0.01,-0.21,-0.0,b
2923.0,1891.0,2812.0,2523.0,4095.0,4095.0,4095.0,4095.0,0.77,9.62,0.31,0.07,-0.32,0.02,b
2855.0,1893.0,2815.0,2545.0,4095.0,4095.0,4095.0,4095.0,0.71,9.42,0.23,0.12,-0.41,-0.01,b
2851.0,1891.0,2824.0,2608.0,4095.0,4095.0,4095.0,4095.0,1.74,9.54,-0.31,0.04,-0.62,-0.19,b
2864.0,1879.0,2813.0,2684.0,4095.0,4095.0,4095.0,4095.0,0.39,9.58,-1.08,-0.42,-0.4,-0.36,b
2858.0,1883.0,2817.0,2744.0,4095.0,4095.0,4095.0,4095.0,-0.33,9.81,0.92,-0.57,-0.08,-0.16,b
2891.0,1887.0,2817.0,2733.0,4095.0,4095.0,4095.0,4095.0,0.9,9.49,2.22,-0.18,-0.15,0.05,b
2965.0,1881.0,2817.0,2627.0,4095.0,4095.0,4095.0,4095.0,0.73,9.43,1.17,0.08,-0.25,-0.08,b
2985.0,1883.0,2818.0,2496.0,4095.0,4095.0,4095.0,4095.0,0.92,9.44,-0.19,-0.18,-0.08,-0.29,b
3155.0,1895.0,2814.0,2559.0,4095.0,4095.0,4095.0,4095.0,-0.55,9.46,1.64,-0.45,0.11,-0.22,b
3385.0,1952.0,2815.0,2547.0,4095.0,4095.0,4055.0,4095.0,-0.47,9.73,2.22,-0.37,0.32,0.07,b
3374.0,2038.0,2818.0,2559.0,4095.0,4095.0,3869.0,4095.0,-0.44,9.67,2.75,-0.34,0.26,0.02,b
3360.0,2078.0,2808.0,2586.0,4095.0,4095.0,3819.0,4095.0,-0.34,9.15,2.57,-0.11,0.22,0.14,b
3449.0,2053.0,2814.0,2592.0,4095.0,4095.0,4022.0,4095.0,-0.25,9.0,2.72,0.23,-0.04,0.03,b
3527.0,1893.0,2802.0,2617.0,4095.0,4095.0,4095.0,4095.0,-0.34,9.3,1.14,0.03,0.04,-0.01,b
3559.0,1869.0,2805.0,2624.0,4095.0,4095.0,4095.0,4095.0,-0.43,9.07,1.3,0.04,0.01,0.03,b
3328.0,1858.0,2794.0,2625.0,4095.0,4095.0,4095.0,4095.0,-0.47,9.51,0.6,0.21,-0.0,0.22,b
3061.0,1843.0,2789.0,2652.0,4095.0,4095.0,4095.0,4095.0,0.06,9.92,0.19,-0.17,0.18,0.12,b
3056.0,1846.0,2793.0,2672.0,4095.0,4095.0,4095.0,4095.0,-0.29,9.26,0.4,-0.6,0.13,-0.04,b
3168.0,1864.0,2819.0,2695.0,4095.0,4095.0,4095.0,4095.0,-0.03,9.44,1.94,-0.44,0.09,-0.04,b
2995.0,1872.0,2880.0,2736.0,4095.0,4095.0,4095.0,4095.0,-0.14,9.42,2.65,-0.35,0.07,-0.25,b
2926.0,1895.0,2843.0,2765.0,4095.0,4095.0,4095.0,4095.0,-0.67,9.06,2.77,-0.08,-0.15,-0.21,b
2927.0,1904.0,2843.0,2770.0,4095.0,4095.0,4095.0,4095.0,-1.61,9.36,1.71,-0.12,0.09,-0.04,b
2743.0,1904.0,2834.0,2783.0,4095.0,4095.0,4095.0,4095.0,-0.23,8.98,3.79,-0.48,-0.05,0.09,b
2719.0,1890.0,2817.0,2790.0,4095.0,4095.0,4095.0,4095.0,0.29,9.39,2.4,-0.41,-0.55,0.15,b
2673.0,1878.0,2816.0,2802.0,4095.0,4095.0,4095.0,4095.0,-0.14,9.01,3.43,-0.85,-0.55,0.15,b
2646.0,1873.0,2822.0,2815.0,4095.0,4095.0,4095.0,4095.0,-0.38,8.7,5.35,-0.37,0.17,-0.07,b
2912.0,1875.0,2806.0,2809.0,4095.0,4095.0,4095.0,4095.0,0.44,7.74,5.12,-0.27,0.29,-0.02,b
3221.0,1872.0,2811.0,2817.0,4095.0,4095.0,4095.0,4095.0,0.92,7.63,4.83,-0.19,0.03,0.23,b
3297.0,1857.0,2787.0,2816.0,4095.0,4095.0,4095.0,4095.0,1.25,7.85,4.38,0.25,-0.18,-0.02,b
3254.0,1856.0,2790.0,2872.0,4095.0,4095.0,4095.0,4095.0,2.1,8.42,4.84,0.19,-0.27,-0.06,b
3719.0,1859.0,2767.0,2885.0,4095.0,4095.0,4095.0,4095.0,1.11,8.54,6.0,1.07,-0.4,-0.16,b
3693.0,1862.0,2766.0,2877.0,4095.0,4095.0,4095.0,4095.0,1.66,8.87,2.09,1.47,0.09,-0.06,b
3695.0,1862.0,2768.0,2855.0,4095.0,4095.0,4095.0,4095.0,3.29,9.39,0.63,1.12,1.06,-0.41,b
3677.0,1866.0,2767.0,2849.0,4095.0,4095.0,4095.0,4095.0,-0.82,9.68,-1.11,0.56,0.62,-0.5,b
3664.0,1846.0,2760.0,2854.0,4095.0,4095.0,4095.0,4095.0,-1.04,9.72,-1.15,-0.01,-0.03,-0.1,b
3583.0,1856.0,2766.0,2850.0,4095.0,4095.0,4095.0,4095.0,-1.89,10.82,-1.94,-0.05,0.6,0.09,b
3601.0,1850.0,2765.0,2847.0,4095.0,4095.0,4095.0,4095.0,-1.33,9.34,-0.59,-0.61,0.68,0.85,b
3583.0,1862.0,2767.0,2868.0,4095.0,4095.0,4095.0,4095.0,0.94,8.0,1.18,-1.24,0.63,0.44,b
3579.0,1851.0,2765.0,2885.0,4095.0,4095.0,4095.0,4095.0,1.66,8.0,2.54,-1.02,0.36,-0.03,b
3597.0,1858.0,2761.0,2900.0,4095.0,4095.0,4095.0,4095.0,1.08,9.1,3.92,-0.29,-0.11,-0.39,b
3580.0,1870.0,2756.0,2897.0,4095.0,4095.0,4095.0,4095.0,1.03,8.49,5.73,0.75,-0.37,-0.65,b
3583.0,1864.0,2761.0,2896.0,4095.0,4095.0,4095.0,4095.0,-1.4,9.07,1.89,1.2,-0.34,-0.71,b
3583.0,1865.0,2755.0,2893.0,4095.0,4095.0,4095.0,4095.0,-1.8,9.66,0.41,0.85,-0.33,-0.22,b
3579.0,1857.0,2767.0,2896.0,4095.0,4095.0,4095.0,4095.0,-1.08,9.68,-0.18,0.64,-0.19,0.03,b
3598.0,1857.0,2754.0,2891.0,4095.0,4095.0,4095.0,4095.0,-0.96,9.82,-0.32,0.39,-0.14,0.35,b
3598.0,1856.0,2758.0,2895.0,4095.0,4095.0,4095.0,4095.0,0.59,9.75,-1.21,0.5,-0.23,0.48,b
3597.0,1861.0,2757.0,2885.0,4095.0,4095.0,4095.0,4095.0,1.53,9.35,-1.22,0.4,-0.33,0.16,b
3600.0,1859.0,2764.0,2890.0,4095.0,4095.0,4095.0,4095.0,1.82,9.43,-2.49,0.07,-0.37,-0.25,b
3583.0,1863.0,2765.0,2889.0,4095.0,4095.0,4095.0,4095.0,-0.21,9.65,-1.22,-0.21,-0.24,-0.3,b
3583.0,1860.0,2768.0,2897.0,4095.0,4095.0,4095.0,4095.0,0.29,9.95,-1.07,-0.22,-0.09,-0.14,b
3599.0,1860.0,2767.0,2894.0,4095.0,4095.0,4095.0,4095.0,1.1,9.53,-0.54,-0.42,0.06,-0.27,b
3609.0,1862.0,2772.0,2898.0,4095.0,4095.0,4095.0,4095.0,-1.57,9.58,-0.88,-0.52,0.32,-0.26,b
3602.0,1859.0,2758.0,2881.0,4095.0,4095.0,4095.0,4095.0,-1.49,9.6,0.48,-0.47,0.47,0.2,b
3597.0,1863.0,2762.0,2864.0,4095.0,4095.0,4095.0,4095.0,-0.81,9.47,0.78,-0.52,0.71,0.31,b
3601.0,1857.0,2757.0,2843.0,4095.0,4095.0,4095.0,4095.0,0.58,9.4,2.83,-0.26,0.57,0.46,b
3575.0,1863.0,2758.0,2725.0,4095.0,4095.0,4095.0,4095.0,1.18,9.39,1.04,0.03,0.29,0.21,b
3574.0,1858.0,2767.0,2719.0,4095.0,4095.0,4095.0,4095.0,1.54,9.49,-0.11,0.12,-0.02,-0.21,b
3554.0,1867.0,2771.0,2727.0,4095.0,4095.0,4095.0,4095.0,-0.5,10.14,-0.4,0.07,-0.01,-0.37,b
3606.0,1867.0,2773.0,2761.0,4095.0,4095.0,4095.0,4095.0,-0.9,9.91,-0.5,-0.09,-0.06,-0.32,b
3664.0,1859.0,2756.0,2582.0,4095.0,4095.0,4095.0,4095.0,-1.78,9.19,0.13,0.08,-0.49,-0.2,b
3702.0,1856.0,2759.0,2537.0,4095.0,4095.0,4095.0,4095.0,-1.42,9.55,-0.32,0.09,-0.31,-0.17,b
3701.0,1861.0,2767.0,2539.0,4095.0,4095.0,4095.0,4095.0,-2.67,9.19,-0.71,-0.07,-0.08,0.13,b
3717.0,1863.0,2767.0,2514.0,4095.0,4095.0,4095.0,4095.0,0.03,9.72,0.79,-0.16,-0.01,0.21,b
3729.0,1869.0,2765.0,2508.0,4095.0,4095.0,4095.0,4095.0,-0.32,9.59,1.43,0.1,-0.03,-0.16,b
3713.0,1872.0,2768.0,2555.0,4095.0,4095.0,4095.0,4095.0,0.66,9.44,1.7,0.43,0.47,-0.3,b
3727.0,1867.0,2762.0,2603.0,4095.0,4095.0,4095.0,4095.0,-2.21,10.21,0.04,0.67,1.66,-0.33,b
3710.0,1872.0,2759.0,2643.0,4095.0,4095.0,4095.0,4095.0,-3.14,9.67,-2.09,0.75,2.14,0.28,b
3728.0,1870.0,2754.0,2679.0,4095.0,4095.0,4095.0,4095.0,-0.74,9.42,-2.93,0.22,1.15,0.32,b
3707.0,1872.0,2767.0,2730.0,4095.0,4095.0,4095.0,4095.0,1.29,9.79,-1.93,-0.25,-0.09,0.35,b
3712.0,1865.0,2762.0,2771.0,4095.0,4095.0,4095.0,4095.0,0.11,9.51,-2.81,-0.37,-0.21,0.44,b
3706.0,1859.0,2767.0,2781.0,4095.0,4095.0,4095.0,4095.0,1.36,9.38,-1.63,-0.83,-1.36,0.74,b
3706.0,1855.0,2767.0,2799.0,4095.0,4095.0,4095.0,4095.0,4.87,9.33,-0.08,-0.71,-1.03,0.16,b
3703.0,1861.0,2767.0,2800.0,4095.0,4095.0,4095.0,4095.0,1.16,9.01,1.26,-0.27,0.27,-0.69,b
3711.0,1856.0,2761.0,2766.0,4095.0,4095.0,4095.0,4095.0,1.08,9.16,0.63,-0.44,-0.54,-0.88,b
3719.0,1867.0,2767.0,2757.0,4095.0,4095.0,4095.0,4095.0,-0.41,9.51,0.63,-0.11,-0.55,-0.68,b
3725.0,1864.0,2763.0,2790.0,4095.0,4095.0,4095.0,4095.0,-1.06,9.63,0.91,-0.11,-0.61,-0.48,b
3734.0,1866.0,2758.0,2736.0,4095.0,4095.0,4095.0,4095.0,-2.43,9.7,0.34,0.18,-0.09,-0.12,b
3729.0,1869.0,2766.0,2733.0,4095.0,4095.0,4095.0,4095.0,-2.06,9.79,-0.16,0.22,-0.07,-0.09,b
3733.0,1865.0,2768.0,2774.0,4095.0,4095.0,4095.0,4095.0,-2.87,9.54,-0.58,0.33,-0.0,0.11,b
3727.0,1871.0,2757.0,2763.0,4095.0,4095.0,4095.0,4095.0,-2.13,9.22,-1.12,0.39,0.52,0.35,b
3718.0,1861.0,2766.0,2758.0,4095.0,4095.0,4095.0,4095.0,-1.28,9.41,-2.22,0.71,2.04,0.38,b
3727.0,1862.0,2763.0,2765.0,4095.0,4095.0,4095.0,4095.0,1.42,9.56,-3.25,0.07,-0.02,0.14,b
3711.0,1872.0,2768.0,2778.0,4095.0,4095.0,4095.0,4095.0,-0.93,9.13,-2.64,-0.12,-0.62,-0.29,b
3716.0,1872.0,2769.0,2798.0,4095.0,4095.0,4095.0,4095.0,-0.46,9.44,-2.83,-0.25,-0.93,-0.17,b
3717.0,1868.0,2770.0,2800.0,4095.0,4095.0,4095.0,4095.0,-0.88,9.55,-2.27,-0.42,-0.53,-0.03,b
3727.0,1867.0,2765.0,2790.0,4095.0,4095.0,4095.0,4095.0,-1.75,9.03,-0.34,-1.01,-0.83,0.12,b
3707.0,1867.0,2768.0,2806.0,4095.0,4095.0,4095.0,4095.0,-1.96,9.65,2.1,-0.51,-0.43,0.37,b
3725.0,1859.0,2773.0,2807.0,4095.0,4095.0,4095.0,4095.0,0.67,9.85,1.43,0.15,0.16,0.52,b
3696.0,1865.0,2768.0,2822.0,4095.0,4095.0,4095.0,4095.0,2.21,9.32,-0.17,0.49,-0.01,0.2,b
3666.0,1861.0,2768.0,2824.0,4095.0,4095.0,4095.0,4095.0,0.01,9.24,-0.26,0.31,-0.14,-0.27,b
3659.0,1865.0,2768.0,2835.0,4095.0,4095.0,4095.0,4095.0,-0.41,9.56,-1.07,0.46,-0.55,-0.48,b
3664.0,1851.0,2773.0,2844.0,4095.0,4095.0,4095.0,4095.0,-0.04,9.68,-1.55,0.28,-0.29,-0.58,b
3504.0,1856.0,2773.0,2845.0,4095.0,4095.0,4095.0,4095.0,-0.2,9.51,-2.42,0.15,-0.26,-0.79,b
3457.0,1851.0,2768.0,2859.0,4095.0,4095.0,4095.0,4095.0,-4.69,8.57,-0.97,-0.27,-0.53,-0.7,b
3460.0,1851.0,2783.0,2860.0,4095.0,4095.0,4095.0,4095.0,-4.28,9.77,-1.99,-0.25,-0.08,-0.01,b
3462.0,1859.0,2782.0,2863.0,4095.0,4095.0,4095.0,4095.0,-2.97,9.53,-0.59,-0.56,0.41,0.41,b
3469.0,1853.0,2785.0,2864.0,4095.0,4095.0,4095.0,4095.0,-1.64,9.22,1.4,-0.53,0.35,0.47,b
3474.0,1856.0,2781.0,2864.0,4095.0,4095.0,4095.0,4095.0,-1.52,9.56,1.64,-0.15,0.3,0.52,b
3473.0,1854.0,2782.0,2878.0,4095.0,4095.0,4095.0,4095.0,-0.62,9.24,0.86,-0.02,0.18,0.61,b
3482.0,1868.0,2793.0,2878.0,4095.0,4095.0,4095.0,4095.0,0.62,9.12,0.68,0.14,0.12,0.41,b
3456.0,1858.0,2787.0,2877.0,4095.0,4095.0,4095.0,4095.0,1.76,9.04,-0.13,0.3,0.03,-0.21,b
3457.0,1859.0,2779.0,2876.0,4095.0,4095.0,4095.0,4095.0,-1.38,9.44,-1.89,-0.04,-0.17,-0.64,b
3450.0,1853.0,2786.0,2875.0,4095.0,4095.0,4095.0,4095.0,-3.01,9.64,-1.45,-0.36,0.19,-0.44,b
3463.0,1860.0,2791.0,2878.0,4095.0,4095.0,4095.0,4095.0,-3.14,9.68,-0.22,-0.54,0.35,-0.09,b
3466.0,1863.0,2797.0,2882.0,4095.0,4095.0,4095.0,4095.0,-2.69,9.53,1.0,-0.48,0.25,0.2,b
3456.0,1869.0,2787.0,2877.0,4095.0,4095.0,4095.0,4095.0,-1.61,9.32,1.42,-0.22,0.18,0.39,b
3453.0,1857.0,2800.0,2879.0,4095.0,4095.0,4095.0,4095.0,-0.87,9.19,0.91,-0.02,0.05,0.25,b
3456.0,1856.0,2795.0,2863.0,4095.0,4095.0,4095.0,4095.0,0.88,9.61,-0.18,-0.06,-0.23,-0.13,b
3447.0,1857.0,2800.0,2848.0,4095.0,4095.0,4095.0,4095.0,-1.35,9.2,1.54,0.02,-0.36,-0.51,b
3445.0,1856.0,2786.0,2850.0,4095.0,4095.0,4095.0,4095.0,-2.75,9.27,0.68,0.25,-0.36,-0.41,b
3414.0,1851.0,2798.0,2864.0,4095.0,4095.0,4095.0,4095.0,-2.91,9.53,1.4,0.44,-0.61,-0.03,b
3325.0,1866.0,2794.0,2863.0,4095.0,4095.0,4095.0,4095.0,-2.47,9.51,0.05,0.56,-0.43,0.25,b
3110.0,1884.0,2789.0,2861.0,4095.0,4095.0,4095.0,4095.0,-1.96,9.48,-2.23,0.34,-0.07,0.5,b
3103.0,1885.0,2795.0,2865.0,4095.0,4095.0,4095.0,4095.0,-0.99,9.4,-1.27,-0.1,0.23,0.43,b
3117.0,1875.0,2800.0,2875.0,4095.0,4095.0,4095.0,4095.0,0.5,9.42,0.03,-0.18,0.24,0.25,b
3194.0,1867.0,2788.0,2866.0,4095.0,4095.0,4095.0,4095.0,1.47,9.15,1.18,-0.09,-0.14,-0.2,b
3398.0,1860.0,2780.0,2871.0,4095.0,4095.0,4095.0,4095.0,-0.06,9.35,0.42,0.33,-0.12,-0.43,b
3440.0,1863.0,2751.0,2878.0,4095.0,4095.0,4095.0,4095.0,-1.71,9.85,-0.76,0.12,0.02,-0.7,b
3433.0,1863.0,2740.0,2874.0,4095.0,4095.0,4095.0,4095.0,-2.92,10.01,-0.25,-0.25,-0.2,-1.06,b
3422.0,1858.0,2753.0,2907.0,4095.0,4095.0,4095.0,4095.0,-4.19,9.44,-0.26,-0.46,-0.3,-0.35,b
3412.0,1840.0,2767.0,2926.0,4095.0,4095.0,4095.0,4095.0,-2.43,9.34,0.68,-0.77,-1.03,0.26,b
3403.0,1827.0,2768.0,2934.0,4095.0,4095.0,4095.0,4095.0,-1.92,9.23,1.61,-0.23,0.19,0.85,b
3373.0,1835.0,2781.0,2930.0,4095.0,4095.0,4095.0,4095.0,-0.99,9.52,1.72,-0.01,0.09,0.79,b
3366.0,1838.0,2773.0,2934.0,4095.0,4095.0,4095.0,4095.0,-0.47,9.28,1.43,0.09,0.38,0.73,b
3365.0,1837.0,2775.0,2925.0,4095.0,4095.0,4095.0,4095.0,0.07,9.02,1.2,-0.05,0.25,0.81,b
3344.0,1827.0,2763.0,2910.0,4095.0,4095.0,4095.0,4095.0,1.17,9.6,0.79,-0.27,-0.21,0.18,b
3328.0,1832.0,2757.0,2939.0,4095.0,4095.0,4095.0,4095.0,0.83,9.23,1.81,-0.09,-0.08,-0.29,b
3337.0,1826.0,2766.0,2966.0,4095.0,4095.0,4095.0,4095.0,0.78,9.54,1.46,-0.05,0.04,-1.05,b
3327.0,1827.0,2766.0,2992.0,4095.0,4095.0,4095.0,4095.0,0.28,9.59,1.25,-0.39,0.05,-0.71,b
3314.0,1827.0,2759.0,3032.0,4095.0,4095.0,4095.0,4095.0,-1.28,9.64,1.54,-0.86,0.32,-0.28,b
3311.0,1833.0,2768.0,3017.0,4095.0,4095.0,4095.0,4095.0,-0.88,9.17,2.0,-0.84,0.07,0.49,b
3249.0,1830.0,2766.0,2992.0,4095.0,4095.0,4095.0,4095.0,-0.7,8.99,2.6,0.12,0.28,0.64,b
3229.0,1837.0,2781.0,2992.0,4095.0,4095.0,4095.0,4095.0,0.02,9.58,2.21,0.41,-0.04,0.46,b
3235.0,1837.0,2769.0,2999.0,4095.0,4095.0,4095.0,4095.0,0.83,9.28,2.06,0.59,-0.11,0.12,b
3239.0,1838.0,2769.0,2980.0,4095.0,4095.0,4095.0,4095.0,0.85,9.09,1.17,0.89,0.02,-0.06,b
3240.0,1838.0,2769.0,2967.0,4095.0,4095.0,4095.0,4095.0,1.44,9.76,0.45,0.71,-0.14,-0.19,b
3262.0,1839.0,2757.0,3002.0,4095.0,4095.0,4095.0,4095.0,0.49,9.9,-0.25,0.8,0.18,-1.09,b
3248.0,1840.0,2758.0,3024.0,4095.0,4095.0,4095.0,4095.0,-1.23,9.38,-1.1,0.1,-0.69,-0.61,b
3242.0,1837.0,2765.0,3056.0,4095.0,4095.0,4095.0,4095.0,-0.95,9.63,-0.72,-0.73,-0.31,0.6,b
3189.0,1827.0,2777.0,3094.0,4095.0,4095.0,4095.0,4095.0,0.13,9.28,1.34,-0.16,0.12,0.46,b
3195.0,1840.0,2790.0,3088.0,4095.0,4095.0,4095.0,4095.0,1.25,9.15,0.9,0.44,0.1,0.42,b
3203.0,1838.0,2793.0,3088.0,4095.0,4095.0,4095.0,4095.0,1.83,9.66,0.23,1.46,1.27,-0.41,b
3213.0,1835.0,2790.0,3088.0,4095.0,4095.0,4095.0,4095.0,1.61,9.74,-1.61,0.71,-0.05,-0.9,b
3216.0,1833.0,2783.0,3088.0,4095.0,4095.0,4095.0,4095.0,1.04,9.69,-1.45,0.16,-0.42,-0.88,b
3216.0,1839.0,2794.0,3071.0,4095.0,4095.0,4095.0,4095.0,-0.38,9.69,-0.97,0.02,-0.45,-0.95,b
3216.0,1829.0,2800.0,3115.0,4095.0,4095.0,4095.0,4095.0,-1.19,9.7,-1.04,-0.92,-0.44,0.51,b
3211.0,1827.0,2805.0,3101.0,4095.0,4095.0,4095.0,4095.0,-0.04,9.92,0.74,-0.81,0.37,0.6,b
3206.0,1825.0,2800.0,3084.0,4095.0,4095.0,4095.0,4095.0,0.55,9.03,1.52,-0.65,-0.17,0.49,b
3207.0,1827.0,2801.0,3063.0,4095.0,4095.0,4095.0,4095.0,1.43,9.42,1.15,-0.49,-0.37,-0.18,b
3222.0,1827.0,2803.0,3054.0,4095.0,4095.0,4095.0,4095.0,0.54,9.27,1.4,-0.06,-0.1,-1.22,b
3228.0,1833.0,2799.0,3029.0,4095.0,4095.0,4095.0,4095.0,-1.0,9.28,0.97,-0.1,-0.07,-0.4,b
3225.0,1823.0,2800.0,3019.0,4095.0,4095.0,4095.0,4095.0,-0.77,9.09,0.51,0.15,0.16,-0.39,b
3237.0,1827.0,2800.0,2991.0,4095.0,4095.0,4095.0,4095.0,-1.53,9.19,0.36,0.31,0.31,-0.46,b
3251.0,1829.0,2802.0,2988.0,4095.0,4095.0,4095.0,4095.0,-2.69,9.28,-0.48,-0.18,0.39,0.1,b
3265.0,1819.0,2807.0,2977.0,4095.0,4095.0,4095.0,4095.0,-1.84,9.35,0.84,-0.13,0.7,0.91,b
3271.0,1825.0,2805.0,2983.0,4095.0,4095.0,4095.0,4095.0,-0.06,9.49,0.72,-0.13,0.59,0.71,b
3280.0,1829.0,2804.0,2969.0,4095.0,4095.0,4095.0,4095.0,0.59,9.15,0.86,-0.03,0.41,0.6,b
3280.0,1819.0,2812.0,2963.0,4095.0,4095.0,4095.0,4095.0,0.71,9.31,0.93,0.41,1.45,0.34,b
3280.0,1819.0,2804.0,2918.0,4095.0,4095.0,4095.0,4095.0,1.9,9.87,-0.81,0.48,0.44,0.19,b
