hall_1,hall_2,hall_3,flex_t,flex_i,flex_m,flex_r,flex_p,accel_x,accel_y,accel_z,gyro_x,gyro_y,gyro_z,sign
3402.0,4095.0,2320.0,4095.0,3376.0,2719.0,3284.0,3248.0,0.12,7.95,10.35,0.04,0.03,-0.11,c
3415.0,4095.0,2326.0,4095.0,3382.0,2723.0,3283.0,3244.0,-0.0,7.98,10.32,0.06,0.0,-0.13,c
3412.0,4095.0,2321.0,4095.0,3382.0,2725.0,3293.0,3245.0,-0.11,7.97,10.31,0.06,0.03,-0.13,c
3409.0,4095.0,2318.0,4095.0,3385.0,2725.0,3294.0,3245.0,-0.28,8.0,10.11,0.08,0.01,-0.08,c
3398.0,4095.0,2320.0,4095.0,3378.0,2727.0,3293.0,3248.0,-0.1,7.94,10.12,0.06,-0.01,-0.06,c
3408.0,4095.0,2316.0,4095.0,3376.0,2725.0,3284.0,3247.0,0.09,8.0,9.99,0.06,0.01,-0.04,c
3408.0,4095.0,2320.0,4095.0,3376.0,2721.0,3282.0,3243.0,0.28,8.02,9.97,0.05,-0.02,-0.05,c
3419.0,4095.0,2321.0,4095.0,3380.0,2727.0,3289.0,3248.0,0.53,8.03,9.94,0.06,-0.12,-0.11,c
3401.0,4095.0,2315.0,4095.0,3377.0,2724.0,3286.0,3241.0,0.59,8.19,10.07,0.05,-0.09,-0.19,c
3425.0,4095.0,2318.0,4095.0,3382.0,2730.0,3289.0,3248.0,0.26,8.21,9.91,0.06,-0.06,-0.25,c
3407.0,4095.0,2327.0,4095.0,3381.0,2726.0,3280.0,3242.0,-0.67,8.11,9.76,0.02,0.05,-0.18,c
3408.0,4095.0,2320.0,4095.0,3379.0,2731.0,3289.0,3247.0,-1.14,8.0,9.57,-0.07,0.13,0.01,c
3407.0,4095.0,2308.0,4095.0,3376.0,2727.0,3289.0,3249.0,-0.55,7.73,9.6,-0.16,-0.14,0.22,c
3408.0,4095.0,2315.0,4095.0,3380.0,2729.0,3289.0,3253.0,-0.13,7.64,9.95,-0.26,-0.25,0.34,c
3404.0,4095.0,2314.0,4095.0,3377.0,2730.0,3291.0,3250.0,0.69,7.56,10.61,-0.1,-0.32,0.34,c
3417.0,4095.0,2297.0,4095.0,3381.0,2733.0,3289.0,3248.0,1.32,7.92,10.27,-0.02,-0.5,0.33,c
3413.0,4095.0,2288.0,4095.0,3382.0,2731.0,3293.0,3237.0,2.35,8.02,10.31,-0.06,-0.38,0.28,c
3409.0,4095.0,2291.0,4095.0,3376.0,2727.0,3286.0,3236.0,3.25,7.93,10.78,-0.15,-0.35,0.17,c
3415.0,4095.0,2314.0,4095.0,3376.0,2729.0,3294.0,3222.0,3.68,7.81,10.97,-0.08,-0.07,-0.12,c
3408.0,4091.0,2340.0,4095.0,3374.0,2719.0,3286.0,3213.0,3.13,7.81,10.76,0.02,0.05,-0.37,c
3435.0,4070.0,2349.0,4095.0,3375.0,2721.0,3289.0,3215.0,2.31,7.79,10.43,0.09,0.28,-0.51,c
3419.0,4071.0,2354.0,4095.0,3378.0,2722.0,3287.0,3216.0,1.56,7.75,10.29,0.06,0.37,-0.57,c
3417.0,4075.0,2348.0,4095.0,3376.0,2722.0,3282.0,3216.0,1.06,7.61,10.22,0.07,0.27,-0.6,c
3413.0,4060.0,2343.0,4095.0,3373.0,2724.0,3289.0,3222.0,0.93,7.57,10.37,0.06,0.08,-0.61,c
3417.0,4063.0,2345.0,4095.0,3377.0,2721.0,3285.0,3227.0,1.18,7.67,10.19,0.08,0.05,-0.63,c
3435.0,4083.0,2347.0,4095.0,3380.0,2730.0,3293.0,3227.0,0.72,7.75,10.06,0.04,0.19,-0.67,c
3424.0,4083.0,2334.0,4095.0,3376.0,2726.0,3283.0,3222.0,-0.07,7.79,10.27,0.02,0.18,-0.67,c
3417.0,4070.0,2348.0,4095.0,3375.0,2729.0,3283.0,3231.0,-0.8,7.82,10.36,0.02,0.1,-0.59,c
3410.0,4083.0,2351.0,4095.0,3376.0,2729.0,3281.0,3223.0,-1.46,7.82,10.55,0.11,-0.17,-0.5,c
3411.0,4069.0,2339.0,4095.0,3371.0,2726.0,3281.0,3228.0,-1.12,7.76,10.75,0.21,-1.11,-0.47,c
3429.0,4069.0,2352.0,4095.0,3375.0,2729.0,3286.0,3237.0,-0.91,7.97,10.4,0.29,-1.7,-0.46,c
3411.0,4047.0,2365.0,4095.0,3377.0,2725.0,3280.0,3222.0,-0.16,8.02,10.37,0.29,-2.71,-0.49,c
3411.0,4054.0,2369.0,4095.0,3376.0,2722.0,3283.0,3227.0,0.83,8.33,9.35,0.2,-2.94,-0.65,c
3413.0,4043.0,2375.0,4095.0,3385.0,2729.0,3271.0,3248.0,2.73,8.21,9.37,0.28,-2.44,-0.55,c
3418.0,4016.0,2386.0,4095.0,3383.0,2725.0,3279.0,3250.0,2.67,8.22,9.65,0.3,-1.29,-0.39,c
3410.0,4016.0,2397.0,4095.0,3382.0,2720.0,3279.0,3280.0,2.78,8.52,8.63,0.16,-0.81,-0.39,c
3425.0,4025.0,2393.0,4095.0,3386.0,2721.0,3279.0,3281.0,2.77,8.5,8.68,0.08,-0.01,-0.24,c
3422.0,3994.0,2385.0,4095.0,3381.0,2730.0,3279.0,3287.0,2.03,8.52,8.81,0.02,0.87,-0.05,c
3430.0,3994.0,2389.0,4095.0,3387.0,2733.0,3280.0,3291.0,1.85,8.52,9.06,0.02,0.63,-0.03,c
3436.0,3991.0,2395.0,4095.0,3388.0,2723.0,3274.0,3280.0,1.43,8.44,9.12,-0.0,0.19,-0.03,c
3424.0,3984.0,2381.0,4095.0,3383.0,2730.0,3279.0,3285.0,1.85,8.38,8.93,0.02,-0.27,-0.05,c
3434.0,3999.0,2370.0,4095.0,3386.0,2727.0,3279.0,3281.0,2.42,8.32,9.11,0.01,0.22,0.08,c
3421.0,3999.0,2373.0,4095.0,3388.0,2729.0,3280.0,3287.0,2.55,8.41,9.1,0.05,0.7,0.13,c
3423.0,3985.0,2363.0,4095.0,3382.0,2722.0,3281.0,3283.0,2.36,8.53,8.89,0.03,1.16,0.19,c
3423.0,3984.0,2359.0,4095.0,3388.0,2725.0,3279.0,3277.0,2.14,8.64,8.96,-0.03,1.46,0.21,c
3431.0,4001.0,2351.0,4095.0,3386.0,2731.0,3280.0,3273.0,1.88,8.41,9.09,-0.13,1.63,0.22,c
3427.0,3998.0,2330.0,4095.0,3386.0,2727.0,3283.0,3280.0,1.45,8.26,9.55,-0.2,1.47,0.16,c
3429.0,3995.0,2307.0,4095.0,3390.0,2726.0,3282.0,3267.0,1.35,8.16,9.91,-0.18,1.14,0.03,c
3427.0,4012.0,2279.0,4095.0,3383.0,2729.0,3281.0,3253.0,0.2,8.23,9.7,-0.16,1.63,0.1,c
3425.0,4010.0,2271.0,4095.0,3387.0,2731.0,3289.0,3253.0,0.55,8.02,10.11,-0.14,1.33,0.06,c
3419.0,4016.0,2247.0,4095.0,3386.0,2731.0,3285.0,3230.0,0.17,8.06,10.07,-0.15,1.29,0.03,c
3422.0,4019.0,2231.0,4095.0,3388.0,2731.0,3286.0,3216.0,-0.45,7.93,10.32,-0.2,1.25,0.03,c
3429.0,4016.0,2226.0,4095.0,3392.0,2730.0,3282.0,3210.0,-0.52,7.9,10.34,-0.16,1.07,-0.01,c
3418.0,4035.0,2216.0,4095.0,3387.0,2725.0,3280.0,3207.0,-0.64,7.86,10.13,-0.15,1.23,0.05,c
3421.0,4020.0,2194.0,4095.0,3388.0,2730.0,3281.0,3213.0,-1.23,7.83,10.07,-0.19,1.5,0.11,c
3429.0,4007.0,2190.0,4095.0,3390.0,2729.0,3280.0,3226.0,-1.54,7.66,10.18,-0.23,1.38,0.11,c
3440.0,4021.0,2185.0,4095.0,3391.0,2730.0,3290.0,3232.0,-2.24,7.76,10.12,-0.23,1.09,0.08,c
3424.0,4016.0,2173.0,4095.0,3394.0,2730.0,3290.0,3233.0,-2.02,7.65,10.1,-0.17,0.93,0.05,c
3434.0,4016.0,2159.0,4095.0,3387.0,2730.0,3290.0,3239.0,-2.61,7.72,10.0,-0.24,1.11,0.13,c
3428.0,4017.0,2147.0,4095.0,3386.0,2730.0,3281.0,3243.0,-2.23,7.52,10.31,-0.17,0.58,0.05,c
3418.0,4031.0,2144.0,4095.0,3388.0,2734.0,3291.0,3248.0,-2.65,7.51,10.34,-0.16,0.43,-0.01,c
3425.0,4017.0,2118.0,4095.0,3392.0,2736.0,3293.0,3248.0,-2.6,7.44,10.55,-0.07,0.06,-0.1,c
3425.0,4020.0,2110.0,4095.0,3388.0,2730.0,3281.0,3246.0,-2.65,7.39,10.78,0.04,-0.64,-0.19,c
3419.0,4016.0,2096.0,4095.0,3381.0,2732.0,3283.0,3249.0,-2.24,7.53,10.64,0.17,-1.18,-0.3,c
3428.0,4032.0,2094.0,4095.0,3391.0,2732.0,3282.0,3248.0,-1.62,7.53,10.42,0.17,-1.23,-0.31,c
3410.0,4043.0,2096.0,4095.0,3387.0,2735.0,3294.0,3248.0,-1.52,7.73,10.28,0.15,-0.96,-0.32,c
3437.0,4039.0,2111.0,4095.0,3391.0,2736.0,3289.0,3253.0,-1.07,7.6,10.32,0.14,-1.13,-0.4,c
3415.0,4021.0,2098.0,4095.0,3385.0,2734.0,3281.0,3251.0,-1.14,7.62,10.4,0.11,-1.15,-0.43,c
3425.0,4021.0,2107.0,4095.0,3381.0,2731.0,3290.0,3242.0,-0.77,7.59,10.54,0.19,-1.29,-0.45,c
3425.0,4023.0,2109.0,4095.0,3387.0,2735.0,3294.0,3247.0,-0.54,7.68,10.32,0.19,-1.14,-0.43,c
3410.0,4021.0,2113.0,4095.0,3382.0,2734.0,3293.0,3248.0,-0.25,7.75,10.28,0.13,-0.9,-0.34,c
3423.0,4033.0,2117.0,4095.0,3387.0,2736.0,3293.0,3250.0,-0.18,7.83,10.31,0.05,-0.93,-0.31,c
3413.0,4017.0,2126.0,4095.0,3390.0,2731.0,3296.0,3260.0,0.25,7.79,10.5,0.1,-0.99,-0.33,c
3427.0,4017.0,2128.0,4095.0,3391.0,2735.0,3295.0,3255.0,0.53,7.82,10.39,0.11,-0.92,-0.35,c
3434.0,4006.0,2133.0,4095.0,3391.0,2734.0,3295.0,3263.0,0.27,7.95,10.11,0.13,-0.93,-0.37,c
3425.0,4023.0,2139.0,4095.0,3388.0,2729.0,3297.0,3263.0,0.73,7.91,10.15,0.05,-0.93,-0.31,c
3430.0,4001.0,2147.0,4095.0,3393.0,2736.0,3298.0,3265.0,1.14,7.9,10.04,-0.01,-0.43,-0.17,c
3428.0,4007.0,2147.0,4095.0,3391.0,2733.0,3287.0,3261.0,1.39,7.98,9.67,-0.15,0.02,-0.12,c
3434.0,4003.0,2157.0,4095.0,3396.0,2739.0,3280.0,3270.0,1.16,7.85,9.84,-0.31,0.15,-0.11,c
3431.0,4016.0,2151.0,4095.0,3394.0,2736.0,3281.0,3273.0,1.26,7.55,10.07,-0.45,0.01,-0.16,c
3429.0,3999.0,2160.0,4095.0,3395.0,2737.0,3292.0,3275.0,1.17,7.08,10.55,-0.49,0.09,-0.13,c
3417.0,3985.0,2151.0,4095.0,3393.0,2738.0,3286.0,3273.0,0.94,6.96,10.82,-0.54,-0.03,-0.09,c
3424.0,3987.0,2144.0,4095.0,3397.0,2737.0,3294.0,3277.0,0.97,6.95,10.99,-0.39,-0.15,-0.1,c
3429.0,4003.0,2148.0,4095.0,3399.0,2740.0,3290.0,3265.0,1.3,7.06,11.34,-0.37,-0.23,-0.09,c
3433.0,4011.0,2141.0,4095.0,3402.0,2736.0,3301.0,3271.0,1.32,7.45,12.3,-0.22,0.09,-0.15,c
3425.0,3995.0,2143.0,4095.0,3402.0,2739.0,3307.0,3277.0,0.86,7.26,13.68,-0.06,0.4,-0.13,c
3423.0,3994.0,2125.0,4095.0,3402.0,2743.0,3309.0,3276.0,0.7,6.97,13.5,0.3,0.29,-0.2,c
3429.0,3988.0,2128.0,4095.0,3404.0,2736.0,3307.0,3276.0,0.65,6.92,12.35,0.53,0.31,-0.21,c
3408.0,4004.0,2130.0,4095.0,3398.0,2740.0,3311.0,3279.0,0.53,7.02,11.36,0.64,0.43,-0.15,c
3423.0,4001.0,2128.0,4095.0,3408.0,2742.0,3310.0,3280.0,0.45,7.16,10.63,0.68,0.54,-0.11,c
3433.0,4006.0,2131.0,4095.0,3399.0,2736.0,3309.0,3274.0,0.64,7.3,10.1,0.72,0.52,-0.04,c
3409.0,4003.0,2134.0,4095.0,3397.0,2736.0,3301.0,3277.0,0.79,7.3,9.3,0.73,0.22,-0.12,c
3424.0,3996.0,2138.0,4095.0,3398.0,2741.0,3311.0,3279.0,0.55,7.49,8.41,0.56,0.12,-0.17,c
3423.0,4007.0,2129.0,4095.0,3408.0,2747.0,3307.0,3277.0,0.3,7.83,8.1,0.14,-0.02,-0.12,c
3410.0,4001.0,2129.0,4095.0,3401.0,2737.0,3301.0,3278.0,0.03,7.93,8.34,-0.26,-0.17,-0.07,c
3415.0,3998.0,2138.0,4095.0,3404.0,2739.0,3302.0,3279.0,-0.04,7.75,9.56,-0.45,-0.05,0.06,c
3423.0,4005.0,2145.0,4095.0,3405.0,2745.0,3291.0,3280.0,0.03,7.8,10.38,-0.38,-0.09,0.15,c
3413.0,4016.0,2135.0,4095.0,3408.0,2746.0,3296.0,3280.0,0.55,7.75,10.3,-0.25,-0.58,0.11,c
3417.0,4005.0,2129.0,4095.0,3393.0,2741.0,3303.0,3280.0,1.28,7.49,10.88,-0.15,-0.51,0.19,c
3421.0,4009.0,2142.0,4095.0,3403.0,2741.0,3307.0,3280.0,2.06,8.14,11.15,0.04,-0.08,0.22,c
3439.0,4004.0,2129.0,4095.0,3403.0,2742.0,3307.0,3281.0,2.22,8.46,11.11,0.04,0.02,0.04,c
3434.0,3984.0,2115.0,4095.0,3396.0,2736.0,3303.0,3283.0,1.71,8.81,11.57,-0.02,0.15,-0.19,c
3425.0,3991.0,2109.0,4095.0,3402.0,2737.0,3298.0,3280.0,1.3,8.89,11.85,-0.01,0.31,-0.37,c
3423.0,4006.0,2110.0,4095.0,3403.0,2741.0,3299.0,3280.0,0.91,8.36,11.76,0.17,0.45,-0.48,c
3412.0,3993.0,2098.0,4095.0,3398.0,2741.0,3310.0,3283.0,0.64,8.06,10.76,0.29,0.35,-0.58,c
3427.0,4006.0,2102.0,4095.0,3405.0,2743.0,3307.0,3279.0,0.31,7.97,9.93,0.22,0.72,-0.48,c
3440.0,3998.0,2079.0,4095.0,3402.0,2741.0,3303.0,3281.0,-0.03,7.57,9.9,0.11,0.74,-0.41,c
3421.0,4017.0,2086.0,4095.0,3403.0,2743.0,3310.0,3283.0,-0.31,7.41,9.82,0.08,0.27,-0.41,c
3434.0,4011.0,2071.0,4095.0,3402.0,2746.0,3307.0,3286.0,-0.46,7.27,9.6,0.02,0.18,-0.34,c
3413.0,3984.0,2074.0,4095.0,3398.0,2746.0,3306.0,3287.0,-0.68,6.78,9.43,0.03,0.09,-0.19,c
3427.0,4002.0,2080.0,4095.0,3395.0,2743.0,3302.0,3286.0,-0.54,6.63,9.11,-0.08,-0.09,-0.05,c
3422.0,4000.0,2086.0,4095.0,3404.0,2746.0,3307.0,3290.0,-0.45,6.93,8.87,-0.19,-0.23,0.09,c
3433.0,4016.0,2088.0,4095.0,3403.0,2747.0,3305.0,3287.0,-0.39,7.7,9.63,-0.38,-0.41,0.14,c
3415.0,3997.0,2079.0,4095.0,3401.0,2743.0,3306.0,3289.0,-0.14,8.0,10.87,-0.37,-0.12,0.25,c
3438.0,4002.0,2094.0,4095.0,3403.0,2741.0,3286.0,3289.0,0.28,8.53,11.89,-0.25,-0.08,0.21,c
3426.0,4016.0,2074.0,4095.0,3408.0,2738.0,3291.0,3286.0,1.08,8.51,12.27,0.01,-0.17,0.01,c
3437.0,3991.0,2070.0,4095.0,3409.0,2747.0,3307.0,3291.0,1.75,8.19,12.25,0.22,0.0,-0.25,c
3429.0,4013.0,2067.0,4095.0,3397.0,2741.0,3303.0,3293.0,1.4,7.85,11.26,0.4,0.09,-0.52,c
3417.0,4002.0,2063.0,4095.0,3398.0,2742.0,3307.0,3292.0,0.28,7.75,10.09,0.41,0.14,-0.65,c
3431.0,3991.0,2073.0,4095.0,3408.0,2743.0,3295.0,3293.0,-0.86,7.65,9.42,0.23,0.4,-0.55,c
3431.0,4001.0,2088.0,4095.0,3405.0,2746.0,3297.0,3299.0,-1.3,7.7,8.9,0.02,1.2,-0.17,c
3426.0,3988.0,2080.0,4095.0,3408.0,2746.0,3297.0,3293.0,-1.7,7.74,9.16,-0.2,2.21,0.36,c
3439.0,4003.0,2093.0,4095.0,3405.0,2739.0,3285.0,3291.0,-1.7,7.75,9.75,-0.33,2.43,0.46,c
3435.0,3968.0,2096.0,4095.0,3403.0,2743.0,3283.0,3292.0,-2.02,7.81,9.93,-0.27,1.82,0.31,c
3424.0,3973.0,2093.0,4095.0,3398.0,2736.0,3280.0,3291.0,-2.03,7.82,9.68,-0.26,1.76,0.2,c
3418.0,3990.0,2090.0,4095.0,3396.0,2739.0,3274.0,3290.0,-2.54,7.87,9.57,-0.24,1.78,0.19,c
3439.0,3974.0,2101.0,4095.0,3399.0,2746.0,3276.0,3293.0,-3.03,7.51,10.25,-0.24,0.72,0.05,c
3426.0,3970.0,2107.0,4095.0,3405.0,2750.0,3280.0,3309.0,-3.46,7.55,10.33,0.03,-0.37,-0.21,c
3443.0,3986.0,2095.0,4095.0,3407.0,2751.0,3271.0,3303.0,-3.33,7.54,10.26,0.11,-1.4,-0.34,c
3423.0,3983.0,2096.0,4095.0,3408.0,2749.0,3287.0,3312.0,-2.03,7.66,9.86,0.24,-1.77,-0.4,c
3415.0,3979.0,2096.0,4095.0,3403.0,2749.0,3287.0,3318.0,-1.43,7.78,9.76,0.14,-1.57,-0.38,c
3419.0,3985.0,2085.0,4095.0,3406.0,2749.0,3289.0,3315.0,-1.25,7.93,9.6,0.09,-1.42,-0.49,c
3434.0,3971.0,2095.0,4095.0,3405.0,2749.0,3297.0,3323.0,-0.92,7.76,9.98,-0.0,-1.6,-0.59,c
3429.0,3981.0,2095.0,4095.0,3405.0,2746.0,3296.0,3323.0,-1.4,7.41,10.56,-0.08,-1.69,-0.61,c
3430.0,4005.0,2078.0,4095.0,3406.0,2745.0,3293.0,3319.0,-0.57,7.47,11.02,0.04,-2.04,-0.65,c
3421.0,3975.0,2081.0,4095.0,3409.0,2747.0,3310.0,3328.0,0.0,7.7,10.77,0.13,-1.63,-0.49,c
3424.0,3967.0,2070.0,4095.0,3408.0,2750.0,3317.0,3323.0,0.48,7.69,10.56,0.14,-0.86,-0.31,c
3414.0,3975.0,2075.0,4095.0,3413.0,2743.0,3327.0,3329.0,0.54,7.76,10.51,0.13,-0.42,-0.22,c
3418.0,3990.0,2064.0,4095.0,3407.0,2751.0,3323.0,3314.0,0.48,8.09,10.3,0.14,-0.08,-0.21,c
3422.0,4010.0,2099.0,4095.0,3344.0,2737.0,3282.0,3301.0,0.75,7.89,10.19,0.09,-0.06,-0.19,c
3424.0,3981.0,2127.0,4095.0,3262.0,2690.0,3197.0,3251.0,0.65,7.82,10.37,0.03,0.0,-0.24,c
3440.0,3949.0,2187.0,3696.0,3183.0,2628.0,3119.0,3184.0,0.58,7.73,10.41,-0.1,0.07,-0.17,c
3439.0,3917.0,2224.0,3571.0,3147.0,2595.0,3062.0,3158.0,0.29,7.85,10.57,-0.05,0.12,-0.21,c
3455.0,3908.0,2263.0,3519.0,3115.0,2559.0,3019.0,3132.0,-0.06,7.94,10.44,-0.0,0.03,-0.18,c
3440.0,3882.0,2267.0,3477.0,3071.0,2539.0,2992.0,3125.0,0.29,7.79,10.61,-0.02,-0.02,-0.13,c
3440.0,3888.0,2271.0,3411.0,3071.0,2531.0,2990.0,3130.0,0.35,7.66,10.55,-0.01,0.1,-0.11,c
3440.0,3875.0,2277.0,3497.0,3088.0,2543.0,3001.0,3134.0,0.39,7.7,10.47,-0.02,0.01,-0.11,c
3451.0,3888.0,2287.0,3551.0,3107.0,2546.0,3003.0,3131.0,0.43,7.67,10.61,0.01,0.05,-0.09,c
3447.0,3872.0,2282.0,3568.0,3126.0,2559.0,3027.0,3145.0,0.39,7.69,10.72,0.05,0.03,-0.11,c
3440.0,3862.0,2270.0,3613.0,3169.0,2593.0,3102.0,3183.0,0.51,7.73,10.46,0.02,0.02,-0.11,c
3423.0,3893.0,2236.0,3715.0,3241.0,2626.0,3167.0,3209.0,0.41,7.83,10.58,0.04,0.15,-0.09,c
3411.0,3910.0,2180.0,3760.0,3312.0,2672.0,3239.0,3262.0,0.45,7.85,10.57,0.02,0.04,-0.09,c
3414.0,3916.0,2159.0,3794.0,3325.0,2688.0,3264.0,3280.0,0.41,7.65,10.65,0.04,0.02,-0.16,c
3409.0,3911.0,2130.0,3856.0,3343.0,2703.0,3278.0,3291.0,0.35,7.73,10.51,0.06,0.01,-0.15,c
3409.0,3936.0,2145.0,3874.0,3338.0,2701.0,3280.0,3287.0,0.42,7.75,10.39,0.07,0.02,-0.15,c
3409.0,3927.0,2141.0,3936.0,3344.0,2701.0,3286.0,3280.0,0.36,7.77,10.37,0.08,0.03,-0.14,c
3408.0,3930.0,2132.0,4013.0,3347.0,2705.0,3290.0,3283.0,0.33,7.76,10.21,0.07,-0.01,-0.19,c
3419.0,3970.0,2128.0,4095.0,3361.0,2719.0,3302.0,3306.0,0.4,7.86,10.62,-0.07,0.03,-0.12,c
3409.0,3951.0,2141.0,4095.0,3376.0,2717.0,3309.0,3314.0,0.34,7.78,10.49,0.01,-0.02,-0.15,c
3398.0,3949.0,2145.0,4095.0,3382.0,2722.0,3318.0,3318.0,0.34,7.79,10.44,-0.01,0.01,-0.13,c
3408.0,3967.0,2151.0,4095.0,3389.0,2722.0,3318.0,3318.0,0.37,7.79,10.45,-0.02,0.0,-0.11,c
3402.0,3959.0,2160.0,4095.0,3391.0,2730.0,3318.0,3327.0,0.36,7.73,10.53,-0.02,0.0,-0.11,c
3411.0,3958.0,2149.0,4095.0,3394.0,2727.0,3314.0,3323.0,0.46,7.71,10.59,-0.01,0.01,-0.12,c
3402.0,3981.0,2160.0,4095.0,3394.0,2723.0,3321.0,3321.0,0.51,7.71,10.58,0.03,0.03,-0.12,c
3397.0,3952.0,2145.0,4095.0,3389.0,2731.0,3323.0,3333.0,0.49,7.76,10.55,0.02,0.03,-0.15,c
3399.0,3991.0,2131.0,4095.0,3405.0,2735.0,3334.0,3328.0,0.45,7.73,10.44,0.03,0.0,-0.15,c
3399.0,4013.0,2104.0,4095.0,3421.0,2742.0,3355.0,3351.0,0.47,7.65,10.52,-0.03,0.01,-0.18,c
3392.0,4047.0,2081.0,4095.0,3466.0,2755.0,3374.0,3374.0,0.25,7.58,10.52,0.0,0.09,-0.17,c
3371.0,4047.0,2070.0,4095.0,3486.0,2766.0,3377.0,3379.0,0.34,7.73,10.52,-0.03,0.01,-0.13,c
3378.0,4019.0,2085.0,4095.0,3502.0,2768.0,3376.0,3381.0,0.24,7.71,10.46,-0.03,-0.01,-0.12,c
3376.0,4032.0,2091.0,4095.0,3505.0,2771.0,3375.0,3378.0,0.28,7.69,10.5,-0.04,-0.04,-0.12,c
3369.0,4037.0,2092.0,4095.0,3507.0,2777.0,3376.0,3387.0,0.07,7.63,10.54,0.0,-0.01,-0.09,c
3381.0,4023.0,2096.0,4095.0,3514.0,2777.0,3376.0,3388.0,0.2,7.5,10.47,0.01,-0.04,-0.05,c
3376.0,4015.0,2091.0,4095.0,3519.0,2779.0,3392.0,3396.0,0.48,7.76,10.51,-0.01,-0.04,-0.05,c
3360.0,4029.0,2075.0,4095.0,3549.0,2799.0,3418.0,3414.0,0.57,7.71,10.32,-0.11,-0.07,0.02,c
3357.0,4037.0,2064.0,4095.0,3600.0,2829.0,3443.0,3437.0,0.66,7.72,10.77,-0.1,-0.03,-0.04,c
3360.0,4057.0,2046.0,4095.0,3635.0,2853.0,3463.0,3453.0,0.85,7.67,10.88,-0.08,-0.12,-0.07,c
3363.0,4077.0,2039.0,4095.0,3685.0,2880.0,3479.0,3477.0,0.77,7.66,10.99,0.01,0.01,-0.08,c
3350.0,4052.0,2019.0,4095.0,3724.0,2896.0,3503.0,3504.0,0.85,7.69,10.75,0.01,-0.05,-0.12,c
3347.0,4063.0,2011.0,4095.0,3730.0,2902.0,3506.0,3513.0,0.87,7.6,10.59,0.01,0.01,-0.14,c
3354.0,4055.0,2035.0,4095.0,3663.0,2870.0,3477.0,3498.0,0.87,7.57,10.6,0.07,0.09,-0.18,c
3343.0,4037.0,2063.0,4095.0,3517.0,2778.0,3365.0,3435.0,0.75,7.5,10.75,0.15,0.1,-0.2,c
3356.0,4022.0,2115.0,4095.0,3408.0,2698.0,3247.0,3359.0,0.61,7.59,10.5,0.09,0.0,-0.22,c
3348.0,4006.0,2159.0,4095.0,3358.0,2663.0,3190.0,3323.0,0.61,7.65,10.52,-0.01,0.0,-0.17,c
3347.0,4020.0,2190.0,4095.0,3370.0,2668.0,3191.0,3324.0,0.5,7.67,10.53,-0.02,0.01,-0.15,c
3355.0,4017.0,2195.0,4095.0,3390.0,2681.0,3211.0,3328.0,0.5,7.7,10.66,-0.06,-0.01,-0.15,c
3347.0,3990.0,2208.0,4095.0,3418.0,2705.0,3250.0,3351.0,0.5,7.51,10.85,-0.07,-0.03,-0.1,c
3345.0,4000.0,2203.0,4095.0,3442.0,2734.0,3311.0,3389.0,0.66,7.59,10.82,-0.02,-0.13,-0.12,c
3358.0,4016.0,2190.0,4095.0,3527.0,2777.0,3381.0,3426.0,0.73,7.58,10.76,-0.01,-0.15,-0.08,c
3361.0,4003.0,2180.0,4095.0,3546.0,2805.0,3402.0,3455.0,0.98,7.49,10.62,0.04,-0.07,-0.18,c
3351.0,4016.0,2178.0,4095.0,3574.0,2830.0,3425.0,3467.0,0.8,7.5,10.67,0.02,0.05,-0.16,c
3344.0,4007.0,2180.0,4095.0,3583.0,2837.0,3440.0,3475.0,0.71,7.57,10.45,0.03,-0.03,-0.15,c
3344.0,4008.0,2176.0,4095.0,3583.0,2841.0,3440.0,3482.0,0.69,7.6,10.48,-0.01,-0.01,-0.13,c
3347.0,4004.0,2190.0,4095.0,3533.0,2800.0,3388.0,3463.0,0.74,7.49,10.63,0.0,0.05,-0.13,c
3334.0,4015.0,2209.0,4095.0,3472.0,2757.0,3314.0,3425.0,0.78,7.57,10.75,0.01,0.04,-0.1,c
3344.0,3984.0,2256.0,4095.0,3399.0,2688.0,3208.0,3374.0,0.92,7.5,10.8,0.05,0.03,-0.15,c
3350.0,3974.0,2294.0,4095.0,3379.0,2659.0,3163.0,3344.0,0.75,7.56,10.7,0.03,0.02,-0.16,c
3364.0,3965.0,2317.0,4095.0,3381.0,2666.0,3153.0,3346.0,0.65,7.6,10.68,0.01,0.01,-0.14,c
3357.0,3965.0,2320.0,4095.0,3411.0,2688.0,3189.0,3367.0,0.63,7.54,10.71,0.02,-0.02,-0.14,c
3348.0,3957.0,2321.0,4095.0,3457.0,2717.0,3258.0,3402.0,0.75,7.56,10.68,-0.02,-0.09,-0.11,c
3346.0,3957.0,2320.0,4095.0,3520.0,2763.0,3319.0,3427.0,0.82,7.62,10.6,-0.02,-0.07,-0.07,c
3347.0,3950.0,2312.0,4095.0,3568.0,2798.0,3372.0,3445.0,1.01,7.58,10.59,-0.02,-0.04,-0.12,c
3344.0,3967.0,2303.0,4095.0,3573.0,2818.0,3402.0,3471.0,0.97,7.62,10.83,0.01,0.0,-0.12,c
3344.0,3950.0,2305.0,4095.0,3566.0,2817.0,3388.0,3467.0,0.88,7.52,10.77,-0.0,0.05,-0.13,c
3341.0,3931.0,2315.0,4095.0,3511.0,2775.0,3321.0,3445.0,0.84,7.65,10.69,0.03,0.02,-0.18,c
3365.0,3939.0,2386.0,4095.0,3429.0,2706.0,3216.0,3355.0,0.92,7.56,10.89,0.02,0.03,-0.19,c
3359.0,3887.0,2457.0,4095.0,3381.0,2672.0,3164.0,3301.0,0.77,7.59,10.75,-0.01,0.01,-0.17,c
3367.0,3891.0,2511.0,4095.0,3367.0,2662.0,3151.0,3280.0,0.78,7.53,10.8,0.02,-0.0,-0.17,c
3349.0,3875.0,2503.0,4095.0,3390.0,2682.0,3182.0,3297.0,0.78,7.57,10.7,0.05,-0.02,-0.14,c
3373.0,3883.0,2496.0,4095.0,3433.0,2714.0,3230.0,3329.0,0.92,7.68,10.59,0.01,-0.11,-0.15,c
3351.0,3893.0,2485.0,4095.0,3454.0,2736.0,3278.0,3363.0,0.96,7.57,10.62,0.01,0.03,-0.13,c
3371.0,3904.0,2480.0,4095.0,3483.0,2756.0,3310.0,3385.0,0.92,7.6,10.52,-0.08,0.07,-0.12,c
3348.0,3904.0,2470.0,4095.0,3482.0,2765.0,3319.0,3398.0,0.89,7.44,10.75,-0.05,0.01,-0.18,c
3367.0,3899.0,2470.0,4095.0,3495.0,2767.0,3330.0,3405.0,0.7,7.46,10.81,-0.01,-0.02,-0.18,c
3367.0,3895.0,2476.0,4095.0,3495.0,2768.0,3323.0,3403.0,0.65,7.55,10.77,-0.02,0.0,-0.14,c
3361.0,3890.0,2480.0,4095.0,3451.0,2732.0,3279.0,3387.0,0.81,7.47,10.78,-0.0,0.05,-0.12,c
3366.0,3889.0,2471.0,4070.0,3409.0,2704.0,3217.0,3369.0,0.8,7.58,10.51,0.05,-0.02,-0.16,c
3365.0,3898.0,2480.0,4031.0,3387.0,2685.0,3195.0,3364.0,0.88,7.53,10.64,-0.01,-0.04,-0.17,c
3361.0,3902.0,2480.0,4093.0,3390.0,2693.0,3200.0,3365.0,0.79,7.48,10.76,-0.01,-0.0,-0.17,c
3357.0,3883.0,2469.0,4095.0,3416.0,2709.0,3232.0,3379.0,0.66,7.48,10.89,-0.0,-0.04,-0.16,c
3360.0,3886.0,2465.0,4095.0,3449.0,2731.0,3267.0,3387.0,0.75,7.47,10.92,0.01,-0.04,-0.13,c
3358.0,3925.0,2461.0,4095.0,3477.0,2752.0,3319.0,3408.0,0.83,7.45,10.94,0.04,-0.01,-0.13,c
3345.0,3910.0,2443.0,4095.0,3504.0,2784.0,3360.0,3435.0,1.01,7.51,10.64,-0.03,0.01,-0.11,c
3344.0,3919.0,2443.0,4095.0,3514.0,2794.0,3380.0,3453.0,0.9,7.41,10.63,-0.05,0.05,-0.1,c
3342.0,3902.0,2427.0,4095.0,3524.0,2801.0,3395.0,3457.0,0.84,7.38,10.85,-0.01,-0.02,-0.14,c
3338.0,3934.0,2419.0,4095.0,3525.0,2803.0,3398.0,3465.0,0.74,7.48,10.91,0.01,-0.0,-0.12,c
3334.0,3933.0,2425.0,4095.0,3524.0,2801.0,3389.0,3459.0,0.92,7.47,10.84,-0.01,-0.0,-0.12,c
