hall_1,hall_2,hall_3,flex_t,flex_i,flex_m,flex_r,flex_p,accel_x,accel_y,accel_z,gyro_x,gyro_y,gyro_z,sign
3101.0,3121.0,3194.0,3446.0,3479.0,3830.0,3184.0,4095.0,1.53,8.32,4.68,-0.39,0.75,0.17,c
3079.0,3122.0,3196.0,3456.0,3486.0,3835.0,3227.0,4095.0,0.66,8.44,4.55,0.01,0.39,0.1,c
2922.0,3120.0,3200.0,3458.0,3504.0,3841.0,3153.0,4095.0,0.74,8.55,4.06,0.16,-0.31,-0.07,c
2912.0,3121.0,3205.0,3466.0,3506.0,3846.0,3153.0,4095.0,1.28,8.71,3.86,0.21,-0.32,-0.13,c
2913.0,3120.0,3194.0,3467.0,3511.0,3843.0,3152.0,4095.0,0.54,8.67,3.49,0.17,-0.07,-0.17,c
2910.0,3124.0,3197.0,3461.0,3509.0,3831.0,3136.0,4095.0,1.24,8.87,3.45,0.38,-0.26,-0.22,c
2845.0,3115.0,3199.0,3454.0,3507.0,3795.0,3093.0,4095.0,0.62,8.83,3.16,0.3,-0.36,-0.41,c
2723.0,3120.0,3195.0,3455.0,3515.0,3758.0,3071.0,4095.0,1.39,8.98,2.89,0.23,-0.35,-0.33,c
2645.0,3115.0,3201.0,3440.0,3528.0,3712.0,3061.0,4095.0,-0.13,9.18,2.58,0.16,-0.43,-0.47,c
2479.0,3149.0,3237.0,3434.0,3533.0,3711.0,3066.0,4095.0,0.95,9.21,2.81,0.18,-0.22,-0.45,c
2235.0,3166.0,3249.0,3408.0,3522.0,3671.0,3017.0,4095.0,-0.17,9.21,2.66,-0.16,-0.26,-0.41,c
2159.0,3152.0,3250.0,3409.0,3519.0,3638.0,2972.0,4091.0,0.09,9.03,2.94,-0.03,-0.08,-0.37,c
2087.0,3156.0,3259.0,3402.0,3493.0,3639.0,2977.0,4086.0,-0.78,9.1,2.93,-0.07,-0.17,-0.31,c
2054.0,3159.0,3251.0,3408.0,3483.0,3635.0,3009.0,4019.0,-0.9,9.13,2.63,-0.12,0.1,-0.22,c
1936.0,3151.0,3263.0,3409.0,3491.0,3618.0,2962.0,3918.0,-0.89,9.09,2.75,-0.18,-0.02,-0.2,c
1614.0,3152.0,3267.0,3416.0,3504.0,3607.0,2948.0,3779.0,-0.91,9.15,3.01,-0.1,-0.06,-0.1,c
1557.0,3139.0,3265.0,3413.0,3523.0,3622.0,2959.0,3792.0,-1.71,9.18,2.35,-0.21,0.23,0.06,c
1556.0,3140.0,3255.0,3417.0,3536.0,3632.0,2965.0,3815.0,-1.41,8.94,2.05,-0.48,0.32,0.21,c
1555.0,3152.0,3259.0,3421.0,3543.0,3641.0,2967.0,3856.0,-1.38,8.94,2.62,-0.58,0.31,0.36,c
1566.0,3141.0,3259.0,3430.0,3544.0,3637.0,2952.0,3820.0,-0.58,8.53,3.76,-0.6,0.38,0.42,c
1555.0,3133.0,3257.0,3435.0,3555.0,3619.0,3010.0,3716.0,-0.04,8.45,4.62,-0.55,0.3,0.46,c
1535.0,3130.0,3254.0,3430.0,3554.0,3619.0,2960.0,3600.0,0.06,8.27,4.36,-0.47,0.34,0.38,c
1535.0,3120.0,3248.0,3438.0,3561.0,3612.0,2957.0,3613.0,0.03,8.18,4.96,-0.49,0.36,0.39,c
1533.0,3130.0,3250.0,3439.0,3565.0,3617.0,3026.0,3634.0,0.55,8.06,5.54,-0.32,0.32,0.33,c
1530.0,3125.0,3250.0,3441.0,3569.0,3615.0,2933.0,3596.0,0.62,8.01,6.02,-0.21,0.17,0.24,c
1501.0,3120.0,3247.0,3445.0,3605.0,3633.0,2947.0,3607.0,0.89,7.96,5.61,-0.03,0.17,0.11,c
1510.0,3120.0,3248.0,3447.0,3615.0,3639.0,2957.0,3659.0,0.23,7.91,5.27,0.17,0.15,0.05,c
1579.0,3117.0,3247.0,3447.0,3619.0,3542.0,2969.0,3710.0,0.84,8.41,5.04,0.21,-0.21,-0.08,c
1695.0,3115.0,3250.0,3452.0,3611.0,3515.0,2972.0,3715.0,0.12,8.3,4.26,-0.03,-0.14,-0.18,c
1725.0,3120.0,3258.0,3457.0,3613.0,3534.0,2974.0,3705.0,0.5,8.01,4.88,0.17,-0.5,-0.12,c
1775.0,3107.0,3247.0,3451.0,3603.0,3570.0,2986.0,3695.0,0.34,8.48,5.01,0.32,-0.29,-0.12,c
2006.0,3099.0,3249.0,3455.0,3573.0,3648.0,3007.0,3611.0,0.14,8.3,4.47,0.45,-0.42,-0.02,c
1867.0,3114.0,3253.0,3461.0,3552.0,3737.0,2935.0,3543.0,0.9,9.02,4.41,0.24,-0.14,-0.29,c
1515.0,3133.0,3248.0,3459.0,3488.0,3778.0,2941.0,3506.0,-0.48,8.33,3.63,0.35,-0.29,-0.13,c
1530.0,3139.0,3246.0,3471.0,3470.0,3727.0,2864.0,3501.0,0.37,8.73,3.55,0.43,-0.21,-0.07,c
1630.0,3127.0,3247.0,3474.0,3471.0,3651.0,2875.0,3505.0,0.42,8.69,3.58,0.54,-0.57,-0.06,c
1834.0,3084.0,3248.0,3484.0,3467.0,3630.0,2870.0,3440.0,0.43,9.07,3.51,0.48,-0.29,-0.16,c
1937.0,2965.0,3248.0,3499.0,3465.0,3621.0,2882.0,3445.0,0.46,8.88,3.28,0.59,-0.4,-0.15,c
1828.0,3008.0,3248.0,3503.0,3498.0,3620.0,2897.0,3504.0,-0.21,9.2,2.15,0.33,-0.1,-0.19,c
1808.0,3029.0,3255.0,3500.0,3501.0,3651.0,2919.0,3530.0,0.21,9.3,1.67,0.47,-0.39,-0.03,c
1964.0,3047.0,3257.0,3501.0,3463.0,3664.0,2946.0,3605.0,-0.35,9.35,1.37,0.24,-0.24,0.01,c
2183.0,3066.0,3253.0,3498.0,3408.0,3685.0,2962.0,3712.0,1.13,9.27,1.9,0.22,-0.15,0.05,c
2261.0,3061.0,3255.0,3495.0,3392.0,3700.0,2981.0,3749.0,0.96,8.82,1.92,0.37,-0.37,0.02,c
2302.0,3013.0,3255.0,3500.0,3376.0,3723.0,2924.0,3667.0,0.32,9.75,1.33,0.14,-0.27,-0.01,c
2299.0,2903.0,3236.0,3491.0,3344.0,3751.0,2826.0,3535.0,0.89,9.3,1.94,0.37,-0.21,-0.06,c
2289.0,2954.0,3248.0,3491.0,3344.0,3737.0,2809.0,3611.0,0.14,9.59,1.39,0.55,-0.11,-0.02,c
2214.0,3007.0,3247.0,3463.0,3332.0,3638.0,2771.0,3615.0,0.02,9.43,0.68,0.34,-0.17,0.02,c
2077.0,3045.0,3250.0,3362.0,3323.0,3499.0,2719.0,3531.0,0.38,9.79,0.46,0.24,-0.22,-0.01,c
2122.0,3063.0,3242.0,3152.0,3331.0,3485.0,2736.0,3575.0,-0.15,9.7,0.46,-0.14,-0.01,-0.0,c
1738.0,3117.0,3247.0,3099.0,3382.0,3567.0,2837.0,3762.0,0.9,9.29,0.71,-0.12,0.26,-0.12,c
1571.0,3126.0,3245.0,3241.0,3418.0,3623.0,2915.0,3823.0,0.9,9.87,0.12,-0.55,0.08,-0.09,c
1505.0,3124.0,3250.0,3344.0,3408.0,3664.0,2967.0,3823.0,0.41,9.22,1.07,-0.67,0.09,-0.09,c
1535.0,3120.0,3248.0,3414.0,3435.0,3686.0,2981.0,3824.0,0.1,9.24,1.57,-0.62,0.19,-0.07,c
1519.0,3118.0,3243.0,3472.0,3443.0,3734.0,3019.0,3856.0,0.92,9.42,1.79,-0.5,0.19,-0.05,c
1502.0,3120.0,3251.0,3611.0,3468.0,3789.0,3079.0,3904.0,0.62,9.21,2.68,-0.36,-0.03,0.02,c
1534.0,3113.0,3248.0,3707.0,3440.0,3803.0,3093.0,3865.0,0.26,9.56,2.66,-0.43,0.38,-0.1,c
1648.0,3111.0,3248.0,3789.0,3456.0,3831.0,3127.0,3865.0,0.33,8.66,3.2,-0.24,-0.2,-0.0,c
1668.0,3112.0,3246.0,3844.0,3472.0,3807.0,3114.0,3885.0,-0.81,9.24,2.86,-0.32,0.08,-0.08,c
1821.0,3120.0,3249.0,3886.0,3439.0,3760.0,3102.0,3888.0,0.26,8.99,3.22,-0.01,0.04,0.13,c
1814.0,3126.0,3257.0,3885.0,3449.0,3741.0,3109.0,3899.0,0.12,9.27,2.99,-0.02,0.03,0.07,c
1808.0,3121.0,3248.0,3728.0,3392.0,3796.0,3163.0,3801.0,0.87,9.27,3.04,0.44,0.21,0.1,c
1811.0,3124.0,3261.0,3689.0,3406.0,3823.0,3175.0,3749.0,-0.06,9.07,2.68,0.09,-0.03,0.11,c
1627.0,3120.0,3249.0,3600.0,3436.0,3819.0,3141.0,3664.0,0.74,9.45,2.47,0.08,0.12,-0.05,c
1535.0,3121.0,3273.0,3489.0,3459.0,3815.0,3150.0,3678.0,0.61,8.97,2.71,-0.2,-0.14,-0.08,c
1519.0,3122.0,3258.0,3378.0,3485.0,3824.0,3163.0,3728.0,0.67,8.98,2.71,0.19,-0.19,-0.07,c
1505.0,3122.0,3257.0,3315.0,3520.0,3719.0,3136.0,3799.0,0.62,9.08,3.06,0.22,-0.15,0.05,c
1486.0,3136.0,3262.0,2983.0,3498.0,3669.0,3095.0,3850.0,-1.28,9.18,2.96,0.42,0.65,0.05,c
1477.0,3124.0,3252.0,2890.0,3471.0,3632.0,3039.0,3850.0,-1.67,10.06,2.6,-0.09,-0.4,0.47,c
1472.0,3123.0,3258.0,2837.0,3477.0,3623.0,3026.0,3824.0,-0.11,9.22,2.07,-0.02,-0.36,0.32,c
1470.0,3127.0,3255.0,2774.0,3477.0,3633.0,2977.0,3819.0,1.51,9.08,2.26,0.46,-0.47,0.27,c
1467.0,3125.0,3259.0,2805.0,3468.0,3632.0,3024.0,3718.0,0.99,9.35,1.9,0.77,-0.04,0.44,c
1494.0,3110.0,3249.0,2869.0,3455.0,3609.0,2969.0,3565.0,1.23,9.22,0.71,0.49,-0.07,0.41,c
1738.0,3110.0,3245.0,2978.0,3443.0,3612.0,2977.0,3520.0,1.4,9.66,0.67,0.33,-0.11,0.26,c
1756.0,3104.0,3245.0,3149.0,3441.0,3606.0,2976.0,3504.0,2.82,9.45,0.36,0.35,-0.51,0.28,c
1521.0,3099.0,3239.0,3306.0,3473.0,3581.0,2995.0,3485.0,2.54,9.68,-1.3,-0.42,-0.06,-0.12,c
1488.0,3116.0,3245.0,3389.0,3538.0,3600.0,2991.0,3552.0,2.54,9.76,0.0,-0.22,-0.16,-0.18,c
1453.0,3139.0,3248.0,3420.0,3583.0,3664.0,3118.0,3686.0,1.91,9.17,0.35,-0.32,-0.09,0.04,c
1559.0,3145.0,3247.0,3451.0,3623.0,3687.0,3162.0,3811.0,4.4,9.05,1.0,-0.39,0.15,-0.1,c
1506.0,3147.0,3248.0,3514.0,3583.0,3711.0,3195.0,3909.0,2.13,9.04,1.73,-0.64,0.18,-0.28,c
1504.0,3151.0,3249.0,3562.0,3537.0,3706.0,3195.0,3920.0,1.03,8.94,1.39,-0.74,0.34,-0.32,c
1694.0,3148.0,3250.0,3596.0,3550.0,3701.0,3184.0,3925.0,1.81,9.57,2.19,-0.54,0.6,-0.34,c
1729.0,3151.0,3254.0,3622.0,3507.0,3722.0,3152.0,3835.0,0.57,8.5,3.1,-0.74,0.57,-0.33,c
1522.0,3143.0,3248.0,3670.0,3520.0,3734.0,3241.0,3841.0,0.42,9.32,3.24,-0.34,0.23,-0.37,c
1526.0,3137.0,3251.0,3696.0,3509.0,3766.0,3152.0,3906.0,-0.17,9.0,3.47,-0.33,0.21,-0.3,c
1554.0,3140.0,3262.0,3634.0,3508.0,3786.0,3183.0,3915.0,-0.06,8.87,2.96,-0.21,0.38,-0.26,c
1731.0,3135.0,3248.0,3347.0,3467.0,3780.0,3175.0,3795.0,0.38,10.85,3.1,-0.1,0.68,-0.29,c
1977.0,3132.0,3261.0,3277.0,3471.0,3790.0,3175.0,3775.0,-0.75,9.99,3.67,-0.05,0.2,0.01,c
2194.0,3125.0,3254.0,3281.0,3475.0,3742.0,3146.0,3731.0,-0.24,8.23,4.69,-0.19,-0.03,0.11,c
2027.0,3130.0,3257.0,3295.0,3471.0,3687.0,3111.0,3707.0,0.01,8.72,4.48,0.17,-0.11,-0.1,c
2047.0,3133.0,3255.0,3212.0,3433.0,3630.0,3094.0,3668.0,0.05,8.77,4.36,0.35,-0.26,0.07,c
2033.0,3132.0,3258.0,3163.0,3423.0,3616.0,3104.0,3671.0,-0.52,8.92,3.44,0.19,-0.13,0.06,c
2032.0,3132.0,3255.0,3088.0,3444.0,3628.0,3113.0,3678.0,-0.58,9.03,3.7,0.5,-0.07,0.14,c
1978.0,3120.0,3255.0,3104.0,3475.0,3639.0,3114.0,3682.0,0.11,8.94,3.15,0.5,-0.46,0.35,c
2127.0,3120.0,3250.0,3316.0,3575.0,3662.0,3169.0,3702.0,1.28,8.9,2.21,0.88,-0.76,0.42,c
2826.0,3115.0,3248.0,3388.0,3628.0,3691.0,3217.0,3811.0,1.29,9.24,1.27,0.49,-0.77,0.2,c
2960.0,3120.0,3243.0,3429.0,3663.0,3706.0,3259.0,3920.0,2.08,9.61,1.26,0.55,-0.32,0.06,c
2773.0,3134.0,3258.0,3511.0,3679.0,3696.0,3227.0,3859.0,1.36,9.35,0.23,0.61,-0.48,-0.04,c
2141.0,3133.0,3238.0,3583.0,3693.0,3705.0,3253.0,3837.0,1.93,9.25,-0.14,0.53,-0.01,-0.27,c
1466.0,3134.0,3240.0,3570.0,3675.0,3674.0,3202.0,3855.0,-0.13,9.73,-1.47,0.32,1.15,-0.56,c
1438.0,3169.0,3239.0,3566.0,3673.0,3561.0,3063.0,3828.0,1.8,9.6,0.06,0.11,-0.23,-0.12,c
1425.0,3179.0,3252.0,3551.0,3728.0,3493.0,3015.0,3850.0,-0.82,10.3,-0.87,-0.04,0.01,-0.19,c
1409.0,3175.0,3258.0,3561.0,3850.0,3578.0,3159.0,4095.0,0.32,9.92,-0.26,-0.22,0.02,-0.07,c
1405.0,3175.0,3260.0,3579.0,3934.0,3616.0,3226.0,4095.0,0.3,9.7,0.03,-0.35,0.11,-0.06,c
1408.0,3170.0,3263.0,3649.0,3918.0,3612.0,3232.0,4095.0,-0.11,9.47,-0.07,-0.56,0.29,0.03,c
1399.0,3168.0,3262.0,3686.0,3871.0,3608.0,3222.0,4095.0,0.61,9.63,0.98,-0.54,0.05,0.07,c
1407.0,3167.0,3269.0,3699.0,3865.0,3645.0,3255.0,4095.0,0.03,9.38,1.03,-0.63,0.14,0.13,c
1401.0,3174.0,3269.0,3717.0,3851.0,3654.0,3256.0,4095.0,0.76,9.43,1.95,-0.45,0.4,0.17,c
1398.0,3167.0,3265.0,3728.0,3667.0,3621.0,3201.0,4095.0,0.68,9.25,2.27,-0.48,0.1,0.21,c
1394.0,3171.0,3267.0,3737.0,3582.0,3617.0,3172.0,4095.0,0.79,9.14,2.73,-0.38,0.09,0.15,c
1393.0,3167.0,3277.0,3728.0,3553.0,3649.0,3174.0,4095.0,1.09,9.01,2.49,-0.35,-0.08,0.28,c
1406.0,3166.0,3267.0,3666.0,3551.0,3664.0,3186.0,4095.0,1.2,9.32,2.46,-0.33,0.2,0.31,c
1405.0,3155.0,3255.0,3670.0,3509.0,3685.0,3181.0,4050.0,1.35,9.03,2.56,-0.48,0.1,0.23,c
1399.0,3163.0,3267.0,3669.0,3487.0,3696.0,3169.0,4013.0,1.24,8.9,2.77,-0.32,0.05,-0.01,c
1404.0,3157.0,3270.0,3629.0,3525.0,3691.0,3182.0,4048.0,1.47,8.98,3.24,-0.29,-0.13,0.02,c
1408.0,3159.0,3269.0,3628.0,3496.0,3666.0,3155.0,4027.0,0.85,8.83,3.22,-0.28,-0.01,0.13,c
1411.0,3169.0,3270.0,3523.0,3417.0,3613.0,3088.0,3914.0,1.52,9.17,3.23,-0.13,-0.02,0.22,c
1401.0,3170.0,3262.0,3506.0,3424.0,3607.0,3056.0,3872.0,1.7,8.89,2.52,-0.57,0.06,0.29,c
1404.0,3170.0,3265.0,3541.0,3485.0,3645.0,3111.0,3878.0,3.86,8.61,3.81,-0.83,0.05,0.02,c
1401.0,3200.0,3200.0,3567.0,3530.0,3751.0,3184.0,3927.0,0.99,8.62,4.33,-0.19,0.1,0.0,c
1444.0,3194.0,3184.0,3569.0,3524.0,3823.0,3211.0,4095.0,1.3,8.42,4.22,-0.24,0.4,-0.04,c
1472.0,3203.0,3196.0,3531.0,3502.0,3917.0,3263.0,4095.0,2.09,8.0,4.6,0.13,0.15,-0.01,c
1471.0,3200.0,3216.0,3534.0,3450.0,3881.0,3238.0,3994.0,2.0,8.66,3.74,-0.17,-0.06,-0.08,c
1483.0,3198.0,3230.0,3537.0,3441.0,3863.0,3226.0,4095.0,1.78,8.34,4.06,-0.01,0.21,-0.07,c
1478.0,3191.0,3237.0,3477.0,3393.0,3824.0,3230.0,4095.0,1.21,8.6,3.79,-0.08,0.17,0.0,c
1487.0,3193.0,3220.0,3455.0,3335.0,3739.0,3082.0,4095.0,0.74,8.67,3.94,-0.08,0.17,0.11,c
1488.0,3198.0,3229.0,3446.0,3370.0,3765.0,3082.0,4095.0,1.45,8.35,4.29,-0.11,-0.16,0.05,c
1497.0,3194.0,3232.0,3370.0,3377.0,3855.0,3191.0,4095.0,1.68,8.32,4.24,-0.0,-0.23,0.07,c
1501.0,3190.0,3235.0,3376.0,3377.0,3922.0,3279.0,4095.0,1.54,8.31,4.36,-0.02,-0.17,0.09,c
1499.0,3187.0,3232.0,3391.0,3414.0,3948.0,3302.0,4095.0,0.97,8.78,3.48,-0.09,0.12,0.03,c
1491.0,3185.0,3237.0,3378.0,3414.0,3948.0,3248.0,4095.0,1.63,8.48,4.04,-0.08,-0.4,0.22,c
1508.0,3187.0,3232.0,3375.0,3380.0,3943.0,3218.0,4095.0,2.49,8.15,3.77,-0.13,-0.03,0.06,c
1503.0,3200.0,3230.0,3359.0,3357.0,3863.0,3093.0,3858.0,1.98,8.24,4.24,-0.23,0.03,0.07,c
1493.0,3172.0,3227.0,3344.0,3355.0,3852.0,3063.0,3803.0,1.84,7.98,4.42,-0.34,0.12,-0.1,c
1497.0,3168.0,3243.0,3323.0,3371.0,3851.0,3109.0,3930.0,1.82,8.59,4.49,-0.32,0.21,-0.15,c
1488.0,3155.0,3250.0,3315.0,3394.0,3859.0,3171.0,4042.0,1.94,8.23,4.93,-0.2,-0.21,0.06,c
1479.0,3141.0,3255.0,3325.0,3397.0,3772.0,3099.0,3933.0,1.69,8.4,4.02,-0.06,0.37,0.02,c
1471.0,3143.0,3249.0,3342.0,3385.0,3713.0,3058.0,3873.0,2.48,7.78,4.75,-0.1,-0.02,0.12,c
1459.0,3121.0,3231.0,3346.0,3407.0,3659.0,3029.0,3860.0,1.85,7.98,5.31,-0.22,0.12,0.01,c
1465.0,3136.0,3232.0,3403.0,3450.0,3696.0,3071.0,3909.0,2.15,7.78,5.72,0.07,0.02,0.01,c
1456.0,3133.0,3239.0,3487.0,3541.0,3716.0,3151.0,3942.0,1.66,7.72,5.95,0.09,0.03,-0.02,c
1461.0,3127.0,3233.0,3502.0,3597.0,3747.0,3232.0,3974.0,1.57,7.98,5.34,0.08,0.08,-0.08,c
1456.0,3131.0,3244.0,3629.0,3694.0,3770.0,3290.0,4095.0,1.83,7.61,5.33,0.39,-0.26,-0.01,c
1456.0,3138.0,3235.0,3647.0,3728.0,3824.0,3408.0,4095.0,1.98,8.33,4.58,0.31,0.16,-0.14,c
1456.0,3127.0,3235.0,3651.0,3737.0,3870.0,3506.0,4095.0,2.19,8.28,3.59,0.46,-0.19,-0.03,c
1494.0,3135.0,3228.0,3660.0,3634.0,3792.0,3385.0,4095.0,1.99,8.14,3.21,0.26,0.08,-0.14,c
1487.0,3140.0,3202.0,3662.0,3649.0,3600.0,3086.0,3952.0,2.2,8.56,3.83,0.27,-0.01,-0.11,c
1462.0,3141.0,3195.0,3651.0,3694.0,3623.0,3105.0,3850.0,1.16,8.98,3.46,0.16,0.33,-0.07,c
1488.0,3136.0,3195.0,3645.0,3637.0,3627.0,3135.0,3709.0,2.08,8.44,4.0,0.36,0.09,-0.23,c
1502.0,3142.0,3199.0,3634.0,3533.0,3534.0,3031.0,3599.0,1.27,9.93,2.79,0.02,0.37,-0.34,c
1503.0,3152.0,3195.0,3628.0,3503.0,3453.0,2902.0,3583.0,1.45,10.15,3.42,0.16,-0.11,-0.15,c
1493.0,3152.0,3207.0,3557.0,3478.0,3441.0,2899.0,3664.0,1.16,7.7,2.82,0.07,-0.04,-0.15,c
1487.0,3153.0,3207.0,3433.0,3418.0,3473.0,2951.0,3760.0,1.9,8.75,2.83,0.05,-0.05,-0.06,c
1488.0,3152.0,3216.0,3390.0,3381.0,3504.0,3002.0,3872.0,0.73,9.14,2.48,0.01,0.02,-0.1,c
1478.0,3147.0,3216.0,3430.0,3386.0,3532.0,3041.0,3972.0,1.14,9.37,2.37,-0.02,0.14,-0.1,c
1488.0,3149.0,3187.0,3466.0,3404.0,3536.0,3039.0,3938.0,0.99,8.95,3.11,-0.26,-0.09,0.12,c
1483.0,3140.0,3189.0,3498.0,3468.0,3568.0,3095.0,4054.0,1.86,9.0,3.15,-0.26,0.13,-0.01,c
1473.0,3133.0,3193.0,3507.0,3486.0,3636.0,3182.0,4057.0,1.22,8.83,3.25,-0.26,-0.04,0.01,c
1469.0,3142.0,3198.0,3527.0,3536.0,3705.0,3278.0,4061.0,1.38,8.84,3.77,-0.32,0.18,-0.03,c
1466.0,3132.0,3211.0,3555.0,3559.0,3746.0,3311.0,4070.0,1.02,8.86,3.64,-0.19,-0.26,0.07,c
1454.0,3131.0,3216.0,3583.0,3554.0,3806.0,3361.0,4095.0,2.27,8.5,4.22,-0.26,0.05,-0.01,c
1462.0,3126.0,3215.0,3600.0,3546.0,3824.0,3379.0,4095.0,1.31,8.33,4.04,-0.17,0.2,-0.03,c
1483.0,3127.0,3194.0,3603.0,3494.0,3819.0,3329.0,4095.0,0.63,8.6,3.69,-0.22,-0.0,0.03,c
1535.0,3136.0,3152.0,3648.0,3522.0,3806.0,3248.0,4045.0,1.47,8.53,3.8,-0.3,-0.12,-0.09,c
1603.0,3120.0,3149.0,3663.0,3530.0,3824.0,3165.0,3903.0,0.97,8.35,3.96,-0.26,0.01,0.02,c
1712.0,3136.0,3137.0,3658.0,3471.0,3858.0,3163.0,3839.0,1.0,8.55,4.38,-0.15,0.08,0.05,c
1988.0,3178.0,3258.0,3685.0,3422.0,3979.0,3262.0,4085.0,1.05,8.17,5.2,-0.1,0.02,0.12,c
1779.0,3153.0,3303.0,3689.0,3455.0,3894.0,3244.0,4063.0,1.19,8.22,5.17,-0.28,0.2,-0.05,c
1732.0,3137.0,3014.0,3680.0,3471.0,3888.0,3248.0,4095.0,0.97,8.42,4.61,0.01,0.36,-0.07,c
1734.0,3150.0,2832.0,3686.0,3509.0,3765.0,3175.0,4022.0,0.78,7.91,4.47,-0.07,0.06,-0.04,c
1739.0,3149.0,2941.0,3686.0,3536.0,3825.0,3207.0,4095.0,0.91,8.46,4.5,-0.27,0.07,-0.02,c
1755.0,3139.0,2961.0,3693.0,3536.0,3856.0,3227.0,4095.0,1.22,8.04,4.95,-0.05,0.04,0.05,c
1754.0,3137.0,2974.0,3681.0,3536.0,3836.0,3203.0,4095.0,1.04,8.47,4.52,-0.16,-0.18,0.04,c
1762.0,3138.0,2976.0,3667.0,3519.0,3823.0,3179.0,4095.0,1.38,8.38,4.03,-0.21,0.15,-0.02,c
1775.0,3140.0,3058.0,3670.0,3495.0,3820.0,3137.0,4095.0,1.08,7.75,3.69,-0.45,-0.26,-0.02,c
1772.0,3129.0,3188.0,3671.0,3497.0,3830.0,3139.0,4095.0,1.61,8.01,5.42,-0.37,0.21,-0.11,c
1750.0,3123.0,3207.0,3680.0,3520.0,3838.0,3168.0,4095.0,0.29,7.48,6.13,-0.41,0.33,-0.04,c
1617.0,3127.0,3225.0,3694.0,3507.0,3809.0,3164.0,4095.0,0.86,7.98,6.62,-0.09,0.01,0.0,c
1535.0,3119.0,3229.0,3728.0,3505.0,3725.0,3107.0,4048.0,0.46,7.35,6.12,0.09,-0.14,-0.04,c
1494.0,3125.0,3241.0,3784.0,3536.0,3642.0,3082.0,4093.0,0.47,7.91,5.96,0.04,0.17,-0.11,c
1494.0,3123.0,3243.0,3767.0,3542.0,3640.0,3089.0,4095.0,0.67,7.66,5.55,0.27,-0.16,0.03,c
1488.0,3124.0,3242.0,3634.0,3493.0,3606.0,3099.0,3844.0,0.5,8.12,5.39,0.17,0.22,0.16,c
1488.0,3116.0,3245.0,3574.0,3504.0,3622.0,3128.0,3629.0,1.21,7.98,5.41,0.48,-0.15,0.29,c
1478.0,3122.0,3249.0,3571.0,3521.0,3638.0,3143.0,3684.0,1.44,7.9,5.09,0.27,-0.25,0.09,c
1473.0,3125.0,3263.0,3533.0,3552.0,3671.0,3163.0,3841.0,0.87,8.21,5.07,0.39,-0.02,0.02,c
1471.0,3134.0,3259.0,3536.0,3566.0,3664.0,3168.0,3845.0,1.19,8.32,4.39,0.45,0.0,0.09,c
1468.0,3131.0,3259.0,3663.0,3583.0,3651.0,3171.0,3795.0,1.5,8.43,3.36,0.33,-0.48,-0.03,c
1451.0,3130.0,3259.0,3773.0,3613.0,3583.0,3111.0,3663.0,1.48,8.77,3.16,-0.07,-0.42,-0.17,c
1449.0,3126.0,3248.0,3894.0,3619.0,3568.0,3059.0,3610.0,1.72,8.61,3.74,0.16,-0.24,-0.15,c
1456.0,3118.0,3248.0,3920.0,3599.0,3582.0,3050.0,3610.0,1.72,8.65,3.67,0.18,-0.17,-0.02,c
1455.0,3101.0,3248.0,3922.0,3598.0,3623.0,3105.0,3630.0,1.3,8.65,3.44,0.04,-0.2,-0.06,c
1445.0,3107.0,3245.0,3943.0,3632.0,3659.0,3154.0,3651.0,2.36,9.02,3.39,0.04,-0.01,-0.12,c
1441.0,3135.0,3248.0,3980.0,3695.0,3664.0,3101.0,3637.0,1.71,8.66,3.18,-0.15,-0.3,-0.0,c
1445.0,3154.0,3243.0,4018.0,3747.0,3683.0,3146.0,3653.0,1.39,8.69,4.02,-0.05,-0.08,-0.13,c
1439.0,3158.0,3255.0,4027.0,3714.0,3701.0,3153.0,3675.0,0.78,8.78,3.21,0.05,0.01,-0.08,c
1442.0,3159.0,3249.0,3855.0,3728.0,3709.0,3178.0,3740.0,0.81,9.13,2.29,-0.18,0.08,0.07,c
1440.0,3152.0,3248.0,3665.0,3727.0,3712.0,3178.0,3766.0,1.83,8.87,2.73,-0.34,-0.06,0.04,c
1456.0,3157.0,3258.0,3575.0,3747.0,3754.0,3191.0,3874.0,1.39,8.45,3.6,-0.52,0.17,-0.03,c
1454.0,3152.0,3261.0,3507.0,3773.0,3760.0,3214.0,3932.0,1.2,8.19,4.75,-0.4,0.01,0.05,c
1457.0,3153.0,3263.0,3623.0,3813.0,3751.0,3095.0,3927.0,0.91,8.07,4.74,-0.48,0.1,-0.02,c
1449.0,3151.0,3259.0,3849.0,3833.0,3722.0,3149.0,3911.0,1.64,8.03,4.81,-0.31,0.08,-0.02,c
1434.0,3154.0,3253.0,4095.0,3856.0,3693.0,3082.0,3889.0,0.97,7.99,4.76,-0.63,-0.22,0.04,c
1415.0,3159.0,3259.0,4095.0,3861.0,3671.0,3152.0,3894.0,1.13,7.75,5.4,-0.54,-0.04,0.08,c
1410.0,3156.0,3264.0,4095.0,3871.0,3661.0,3062.0,3901.0,1.6,7.63,5.88,-0.28,-0.06,0.08,c
1403.0,3165.0,3262.0,4095.0,3855.0,3675.0,3071.0,3929.0,1.48,7.58,5.33,-0.29,0.29,0.16,c
1405.0,3158.0,3267.0,3664.0,3819.0,3659.0,3071.0,3932.0,1.42,7.46,5.7,-0.19,0.12,0.24,c
1403.0,3169.0,3261.0,3409.0,3797.0,3638.0,3035.0,3952.0,1.25,7.55,5.28,-0.38,0.08,0.03,c
1398.0,3163.0,3266.0,3355.0,3789.0,3623.0,3117.0,3947.0,1.0,7.61,5.1,-0.37,0.15,0.07,c
1405.0,3168.0,3257.0,3443.0,3775.0,3625.0,3055.0,3945.0,1.21,7.4,5.35,-0.39,0.25,0.2,c
1407.0,3163.0,3264.0,3503.0,3781.0,3618.0,3042.0,3951.0,1.35,7.0,6.22,-0.45,-0.04,0.25,c
1398.0,3177.0,3277.0,3460.0,3735.0,3609.0,2993.0,3930.0,2.34,6.8,7.63,-0.24,0.16,0.19,c
1397.0,3173.0,3278.0,3456.0,3721.0,3613.0,3103.0,3906.0,1.6,6.51,7.25,-0.13,-0.03,0.25,c
1403.0,3181.0,3286.0,3447.0,3670.0,3637.0,3071.0,3845.0,1.64,6.78,6.68,-0.19,0.34,0.14,c
1403.0,3183.0,3280.0,3491.0,3607.0,3659.0,3069.0,3760.0,1.88,6.56,6.87,-0.05,0.19,0.16,c
1395.0,3195.0,3310.0,3527.0,3578.0,3686.0,3083.0,3675.0,1.97,6.45,6.08,-0.21,-0.02,-0.08,c
1393.0,3239.0,3347.0,3540.0,3574.0,3737.0,3097.0,3673.0,2.11,6.43,7.39,0.17,-0.14,-0.04,c
1397.0,3248.0,3348.0,3582.0,3623.0,3783.0,3156.0,3742.0,0.81,6.56,6.26,-0.07,0.13,-0.15,c
1395.0,3234.0,3346.0,3583.0,3683.0,3807.0,3201.0,3853.0,1.89,7.09,6.98,0.23,-0.21,-0.07,c
1405.0,3245.0,3347.0,3551.0,3707.0,3795.0,3211.0,3907.0,1.32,6.96,6.25,0.21,0.02,-0.11,c
1403.0,3240.0,3349.0,3509.0,3739.0,3801.0,3223.0,4009.0,1.36,7.24,6.18,0.33,0.03,-0.05,c
1401.0,3241.0,3344.0,3431.0,3695.0,3811.0,3257.0,4048.0,2.2,6.96,6.19,0.23,-0.02,-0.12,c
1397.0,3235.0,3344.0,3294.0,3498.0,3723.0,3180.0,3921.0,1.34,7.13,5.6,0.44,-0.06,-0.21,c
1398.0,3227.0,3344.0,2927.0,3322.0,3609.0,3056.0,3658.0,0.49,7.43,6.16,0.57,0.17,-0.17,c
1421.0,3226.0,3329.0,2849.0,3200.0,3573.0,3025.0,3568.0,1.02,7.61,6.36,0.67,-0.31,-0.07,c
1425.0,3221.0,3330.0,2722.0,3186.0,3562.0,2989.0,3583.0,2.27,8.55,4.67,0.69,-0.21,-0.28,c
1421.0,3229.0,3324.0,2668.0,3216.0,3534.0,2960.0,3602.0,1.63,8.27,3.65,0.55,-0.84,-0.32,c
1421.0,3236.0,3297.0,2543.0,3216.0,3493.0,2923.0,3551.0,1.8,8.93,4.32,0.67,-0.91,-0.46,c
