hall_1,hall_2,hall_3,flex_t,flex_i,flex_m,flex_r,flex_p,accel_x,accel_y,accel_z,gyro_x,gyro_y,gyro_z,sign
8.0,2281.0,2928.0,2736.0,2823.0,3151.0,2243.0,2833.0,2.93,8.5,3.59,-0.01,-0.16,-0.06,e
209.0,2273.0,2905.0,2727.0,2813.0,3141.0,2234.0,2826.0,2.57,8.2,3.95,0.04,0.04,-0.11,e
603.0,2271.0,2919.0,2739.0,2819.0,3149.0,2237.0,2826.0,2.55,8.53,3.65,0.05,0.01,-0.11,e
1442.0,2263.0,2913.0,2735.0,2818.0,3149.0,2240.0,2832.0,2.18,8.48,3.83,-0.0,0.07,-0.15,e
385.0,2267.0,2910.0,2750.0,2815.0,3143.0,2240.0,2829.0,2.07,8.31,4.12,0.03,0.13,-0.03,e
0.0,2273.0,2926.0,2767.0,2815.0,3150.0,2239.0,2834.0,2.05,8.67,3.53,0.09,0.23,-0.01,e
0.0,2273.0,2922.0,2775.0,2810.0,3138.0,2229.0,2832.0,2.28,8.5,3.61,0.0,0.07,0.02,e
1106.0,2271.0,2913.0,2799.0,2832.0,3152.0,2240.0,2836.0,2.32,8.44,3.76,-0.12,-0.13,-0.02,e
686.0,2273.0,2913.0,2800.0,2838.0,3151.0,2251.0,2842.0,2.32,8.29,3.99,-0.14,-0.14,-0.06,e
433.0,2270.0,2927.0,2816.0,2859.0,3167.0,2256.0,2851.0,2.34,8.55,3.75,-0.13,-0.29,-0.04,e
105.0,2263.0,2914.0,2831.0,2862.0,3159.0,2263.0,2854.0,2.41,8.33,4.12,-0.07,-0.35,-0.08,e
7.0,2262.0,2912.0,2831.0,2874.0,3173.0,2279.0,2865.0,2.49,8.43,3.94,-0.07,-0.16,-0.02,e
131.0,2265.0,2914.0,2791.0,2885.0,3173.0,2279.0,2870.0,2.42,8.21,4.12,-0.12,0.02,0.09,e
390.0,2263.0,2908.0,2761.0,2895.0,3187.0,2300.0,2881.0,2.44,8.23,3.89,-0.07,0.0,0.04,e
455.0,2250.0,2903.0,2761.0,2896.0,3193.0,2307.0,2885.0,3.04,8.29,3.87,-0.15,-0.08,0.07,e
321.0,2255.0,2926.0,2751.0,2907.0,3205.0,2311.0,2903.0,3.89,7.98,4.4,0.24,1.6,0.15,e
923.0,2256.0,2911.0,2754.0,2896.0,3203.0,2306.0,2921.0,0.65,8.71,2.91,0.89,4.72,0.29,e
539.0,2263.0,2927.0,2763.0,2896.0,3194.0,2299.0,2913.0,-1.35,9.04,3.56,0.33,1.96,0.28,e
348.0,2254.0,2926.0,2778.0,2900.0,3212.0,2305.0,2922.0,-0.85,9.05,2.95,0.22,1.26,0.22,e
428.0,2250.0,2923.0,2781.0,2895.0,3199.0,2299.0,2915.0,-0.3,8.73,3.41,-0.07,0.31,0.05,e
496.0,2258.0,2918.0,2783.0,2895.0,3203.0,2306.0,2919.0,-1.22,8.9,3.31,-0.11,-0.16,0.0,e
117.0,2260.0,2925.0,2781.0,2895.0,3205.0,2308.0,2925.0,-0.28,8.67,3.65,-0.32,-1.22,-0.03,e
0.0,2254.0,2927.0,2785.0,2892.0,3214.0,2318.0,2928.0,0.06,8.69,3.93,-0.36,-1.34,0.05,e
118.0,2245.0,2906.0,2773.0,2886.0,3217.0,2317.0,2919.0,0.71,8.4,3.87,-0.65,-2.29,0.08,e
447.0,2258.0,2928.0,2726.0,2884.0,3220.0,2323.0,2928.0,4.22,7.93,4.04,-0.74,-3.2,-0.08,e
769.0,2251.0,2912.0,2707.0,2880.0,3216.0,2322.0,2901.0,3.78,8.03,4.19,-0.23,-0.4,-0.46,e
497.0,2275.0,2916.0,2705.0,2880.0,3217.0,2323.0,2875.0,3.31,7.91,4.15,-0.19,-0.41,-0.69,e
82.0,2289.0,2915.0,2699.0,2874.0,3216.0,2332.0,2875.0,2.52,7.96,5.06,-0.19,-0.06,-0.42,e
68.0,2297.0,2916.0,2714.0,2880.0,3216.0,2331.0,2903.0,2.38,7.94,5.15,0.33,1.17,-0.05,e
595.0,2299.0,2933.0,2710.0,2881.0,3217.0,2320.0,2911.0,0.36,8.74,3.76,0.74,2.57,0.22,e
786.0,2290.0,2921.0,2719.0,2882.0,3216.0,2321.0,2917.0,0.21,8.7,3.31,0.38,1.67,0.12,e
768.0,2298.0,2928.0,2737.0,2882.0,3227.0,2326.0,2931.0,-0.28,8.88,3.55,0.26,1.17,0.15,e
419.0,2292.0,2925.0,2732.0,2884.0,3220.0,2325.0,2927.0,-0.29,9.11,3.0,0.22,0.99,0.26,e
0.0,2290.0,2918.0,2725.0,2886.0,3233.0,2331.0,2931.0,0.33,8.57,2.84,0.04,1.04,-0.02,e
78.0,2288.0,2920.0,2718.0,2891.0,3226.0,2334.0,2931.0,-1.26,8.41,2.46,0.31,1.46,-0.14,e
472.0,2298.0,2922.0,2726.0,2895.0,3237.0,2341.0,2939.0,-1.82,9.37,1.3,0.36,0.76,-0.12,e
805.0,2284.0,2915.0,2730.0,2886.0,3227.0,2338.0,2934.0,-2.19,9.65,1.62,-0.18,-0.48,0.05,e
585.0,2289.0,2923.0,2736.0,2897.0,3245.0,2351.0,2945.0,-1.76,9.03,2.07,-0.76,-2.6,0.12,e
77.0,2283.0,2915.0,2721.0,2887.0,3232.0,2335.0,2942.0,1.61,8.66,3.25,-0.61,-2.03,0.05,e
0.0,2289.0,2931.0,2732.0,2885.0,3232.0,2351.0,2940.0,1.23,8.63,4.03,-0.63,-1.97,-0.27,e
162.0,2298.0,2918.0,2739.0,2877.0,3223.0,2343.0,2938.0,1.37,8.68,3.96,-0.36,-1.6,0.02,e
807.0,2290.0,2922.0,2737.0,2874.0,3225.0,2341.0,2937.0,1.71,8.39,3.93,-0.24,-0.89,-0.09,e
717.0,2293.0,2924.0,2753.0,2890.0,3243.0,2351.0,2950.0,2.25,8.4,4.12,-0.21,-0.82,-0.1,e
398.0,2287.0,2911.0,2743.0,2890.0,3247.0,2359.0,2962.0,2.77,7.84,4.45,-0.24,-0.85,-0.14,e
7.0,2281.0,2915.0,2719.0,2894.0,3248.0,2353.0,2978.0,2.7,8.41,3.76,0.18,-0.24,-0.44,e
69.0,2284.0,2924.0,2719.0,2893.0,3245.0,2337.0,2971.0,2.79,8.65,3.86,0.47,1.49,0.2,e
747.0,2289.0,2928.0,2712.0,2897.0,3245.0,2334.0,2958.0,0.23,9.06,2.72,0.84,3.38,0.46,e
959.0,2297.0,2925.0,2735.0,2897.0,3239.0,2323.0,2957.0,0.93,8.85,2.82,0.25,1.52,0.21,e
1214.0,2290.0,2921.0,2741.0,2906.0,3242.0,2336.0,2962.0,0.25,9.13,2.62,0.21,1.39,0.26,e
577.0,2287.0,2928.0,2749.0,2903.0,3251.0,2344.0,2960.0,0.43,8.99,2.68,0.09,1.25,0.24,e
3573.0,2288.0,2929.0,2746.0,2912.0,3260.0,2351.0,2967.0,-0.07,9.03,2.38,0.24,2.03,0.22,e
2.0,2288.0,2926.0,2732.0,2894.0,3245.0,2335.0,2953.0,-0.9,9.21,1.91,0.39,2.8,0.12,e
185.0,2283.0,2930.0,2756.0,2899.0,3253.0,2336.0,2950.0,-1.44,9.35,2.09,0.1,0.47,-0.14,e
382.0,2274.0,2928.0,2768.0,2906.0,3250.0,2340.0,2957.0,-2.06,9.46,1.91,-0.15,-1.93,-0.2,e
430.0,2278.0,2921.0,2751.0,2896.0,3247.0,2337.0,2946.0,-2.0,9.59,2.22,-0.64,-3.22,-0.3,e
0.0,2253.0,2925.0,2739.0,2911.0,3247.0,2320.0,2943.0,1.06,9.08,2.9,-0.78,-3.07,0.13,e
0.0,2241.0,2914.0,2725.0,2909.0,3241.0,2304.0,2943.0,1.52,8.57,3.73,-0.5,-1.8,0.02,e
112.0,2245.0,2929.0,2707.0,2929.0,3259.0,2347.0,2974.0,2.38,8.64,3.44,-0.21,-0.95,0.07,e
1146.0,2255.0,2926.0,2687.0,2940.0,3265.0,2357.0,2981.0,3.01,8.57,3.39,-0.18,-0.65,0.05,e
1076.0,2243.0,2925.0,2709.0,2955.0,3280.0,2371.0,2995.0,3.23,8.43,3.34,0.0,-0.25,0.04,e
511.0,2237.0,2921.0,2743.0,2961.0,3271.0,2381.0,3002.0,3.35,8.26,3.26,-0.07,-0.16,0.04,e
33.0,2247.0,2935.0,2768.0,2969.0,3294.0,2381.0,3008.0,3.27,8.32,3.36,0.03,-0.11,-0.07,e
145.0,2240.0,2922.0,2784.0,2960.0,3307.0,2374.0,3002.0,3.28,8.5,3.11,0.01,-0.14,-0.0,e
251.0,2241.0,2918.0,2807.0,2960.0,3327.0,2384.0,2999.0,3.45,8.36,3.1,0.04,-0.12,-0.12,e
877.0,2218.0,2922.0,2851.0,2963.0,3328.0,2397.0,2992.0,3.39,8.48,2.97,0.13,-0.17,-0.15,e
848.0,2223.0,2915.0,2877.0,2951.0,3338.0,2389.0,2991.0,3.31,8.61,2.57,-0.04,-0.15,-0.06,e
284.0,2231.0,2928.0,2877.0,2960.0,3345.0,2404.0,3015.0,3.11,8.6,2.83,-0.08,0.05,-0.05,e
0.0,2210.0,2926.0,2832.0,2958.0,3341.0,2401.0,3015.0,3.06,8.67,2.83,-0.04,0.15,-0.06,e
161.0,2198.0,2925.0,2829.0,2964.0,3346.0,2407.0,3026.0,3.03,8.74,2.9,-0.07,0.07,-0.04,e
627.0,2199.0,2919.0,2803.0,2967.0,3341.0,2407.0,3022.0,2.92,8.62,2.95,-0.07,0.0,-0.05,e
897.0,2202.0,2926.0,2813.0,2978.0,3344.0,2413.0,3025.0,2.9,8.71,2.87,-0.05,0.04,-0.0,e
580.0,2192.0,2919.0,2784.0,2981.0,3335.0,2411.0,3022.0,2.98,8.63,3.1,-0.08,0.08,-0.05,e
60.0,2197.0,2931.0,2762.0,2986.0,3335.0,2405.0,3023.0,3.0,8.62,2.91,-0.11,0.0,0.04,e
0.0,2182.0,2917.0,2717.0,2987.0,3325.0,2406.0,3022.0,3.04,8.51,3.27,-0.07,0.05,-0.01,e
367.0,2194.0,2922.0,2711.0,3008.0,3341.0,2407.0,3025.0,2.97,8.57,3.03,-0.05,0.0,-0.02,e
757.0,2190.0,2915.0,2695.0,3005.0,3335.0,2395.0,3019.0,2.93,8.54,3.22,-0.06,0.01,0.04,e
784.0,2174.0,2931.0,2687.0,3014.0,3343.0,2409.0,3026.0,2.97,8.54,3.18,-0.01,0.09,-0.04,e
336.0,2169.0,2928.0,2752.0,3036.0,3359.0,2421.0,3040.0,2.92,8.53,3.3,-0.06,0.06,-0.02,e
0.0,2165.0,2914.0,2785.0,3028.0,3361.0,2427.0,3049.0,2.9,8.5,3.39,-0.02,0.05,-0.02,e
69.0,2174.0,2926.0,2783.0,3037.0,3372.0,2430.0,3056.0,2.8,8.64,3.31,0.01,0.07,0.01,e
505.0,2158.0,2919.0,2727.0,3031.0,3364.0,2423.0,3054.0,2.61,8.55,3.15,0.1,0.24,0.02,e
880.0,2165.0,2928.0,2717.0,3031.0,3375.0,2431.0,3070.0,2.97,8.59,3.11,0.06,0.21,-0.0,e
687.0,2159.0,2912.0,2686.0,2992.0,3355.0,2423.0,3056.0,2.96,8.49,3.2,0.11,0.11,-0.07,e
201.0,2162.0,2917.0,2736.0,2979.0,3367.0,2417.0,3037.0,2.87,8.67,2.92,0.01,-0.03,-0.03,e
0.0,2155.0,2925.0,2763.0,2957.0,3361.0,2417.0,3007.0,2.86,8.56,3.13,-0.02,-0.2,-0.15,e
257.0,2173.0,2918.0,2768.0,2942.0,3361.0,2422.0,3014.0,2.75,8.71,2.82,-0.09,0.06,0.0,e
713.0,2161.0,2924.0,2743.0,2943.0,3359.0,2418.0,3035.0,2.65,8.6,3.24,-0.05,0.12,0.05,e
910.0,2172.0,2928.0,2768.0,2962.0,3360.0,2426.0,3047.0,2.61,8.55,3.1,0.01,0.12,0.0,e
500.0,2165.0,2913.0,2794.0,2972.0,3367.0,2422.0,3043.0,2.95,8.66,3.03,-0.05,0.0,-0.0,e
14.0,2176.0,2933.0,2793.0,2986.0,3365.0,2423.0,3043.0,2.83,8.7,3.06,-0.07,-0.1,-0.04,e
33.0,2173.0,2928.0,2794.0,2994.0,3375.0,2431.0,3050.0,2.71,8.58,3.0,-0.03,0.03,-0.02,e
409.0,2180.0,2919.0,2783.0,2987.0,3357.0,2417.0,3046.0,2.75,8.58,3.16,-0.06,0.08,-0.02,e
840.0,2165.0,2922.0,2777.0,2994.0,3362.0,2418.0,3050.0,2.68,8.6,3.34,-0.02,0.03,-0.01,e
768.0,2164.0,2922.0,2755.0,2995.0,3364.0,2417.0,3046.0,2.79,8.67,3.24,0.03,0.03,0.01,e
247.0,2179.0,2925.0,2743.0,2996.0,3364.0,2420.0,3052.0,2.75,8.56,3.08,-0.01,0.09,0.04,e
11.0,2177.0,2921.0,2727.0,3005.0,3367.0,2416.0,3045.0,3.17,8.59,2.94,0.05,0.29,0.12,e
778.0,2160.0,2930.0,2724.0,3015.0,3372.0,2410.0,3037.0,2.66,8.79,2.84,0.71,3.58,0.29,e
1234.0,2161.0,2927.0,2715.0,3005.0,3362.0,2402.0,3037.0,1.03,9.02,2.88,0.17,1.96,0.23,e
624.0,2160.0,2921.0,2727.0,3017.0,3375.0,2409.0,3041.0,0.9,8.86,3.06,0.06,1.74,0.28,e
385.0,2153.0,2923.0,2729.0,3019.0,3371.0,2397.0,3035.0,0.16,8.94,3.11,0.14,1.64,0.28,e
113.0,2157.0,2933.0,2719.0,3025.0,3381.0,2407.0,3043.0,-0.04,8.95,3.35,0.02,0.52,0.04,e
2.0,2142.0,2914.0,2706.0,3027.0,3390.0,2426.0,3057.0,0.48,8.84,3.37,-0.27,-1.75,-0.27,e
144.0,2133.0,2921.0,2699.0,3023.0,3381.0,2428.0,3057.0,0.74,8.77,3.71,-0.17,-1.27,-0.26,e
307.0,2145.0,2911.0,2700.0,3037.0,3399.0,2435.0,3056.0,1.25,8.89,3.34,-0.3,-1.94,0.01,e
288.0,2155.0,2917.0,2677.0,3039.0,3395.0,2442.0,3066.0,2.13,8.66,3.39,-0.28,-1.41,-0.07,e
56.0,2153.0,2922.0,2684.0,3055.0,3419.0,2448.0,3066.0,2.67,8.44,3.36,-0.21,-1.04,-0.1,e
0.0,2143.0,2921.0,2688.0,3049.0,3409.0,2446.0,3061.0,3.08,8.48,3.15,-0.25,-1.23,-0.13,e
46.0,2145.0,2919.0,2715.0,3059.0,3415.0,2450.0,3083.0,3.51,8.32,2.9,-0.23,-1.07,-0.11,e
208.0,2134.0,2922.0,2704.0,3043.0,3409.0,2445.0,3065.0,3.68,8.42,2.73,-0.37,-1.13,-0.1,e
421.0,2160.0,2918.0,2714.0,3052.0,3424.0,2448.0,3071.0,3.91,8.34,2.95,-0.21,-0.35,-0.12,e
355.0,2166.0,2916.0,2706.0,3048.0,3435.0,2448.0,3071.0,3.81,8.21,3.09,0.03,0.29,-0.12,e
475.0,2161.0,2927.0,2702.0,3056.0,3440.0,2449.0,3098.0,3.67,8.36,3.1,0.54,2.29,0.02,e
343.0,2148.0,2918.0,2692.0,3047.0,3441.0,2460.0,3088.0,3.39,8.68,2.95,0.36,1.4,-0.1,e
620.0,2161.0,2928.0,2688.0,3055.0,3455.0,2462.0,3089.0,1.91,8.89,2.62,0.42,2.03,0.01,e
1407.0,2172.0,2925.0,2688.0,3047.0,3450.0,2469.0,3099.0,1.08,8.99,2.87,0.24,1.32,0.08,e
1517.0,2160.0,2919.0,2691.0,3036.0,3439.0,2452.0,3090.0,0.75,9.14,2.63,0.14,0.7,0.07,e
500.0,2167.0,2931.0,2714.0,3047.0,3453.0,2465.0,3088.0,0.75,9.14,2.55,-0.19,-0.25,0.05,e
0.0,2165.0,2924.0,2717.0,3041.0,3450.0,2463.0,3088.0,1.11,8.87,2.84,-0.64,-1.66,0.02,e
0.0,2160.0,2927.0,2736.0,3038.0,3466.0,2465.0,3105.0,2.3,8.65,3.17,-0.8,-2.27,0.13,e
221.0,2176.0,2940.0,2737.0,3027.0,3456.0,2465.0,3087.0,3.11,8.47,3.47,-0.67,-1.9,0.09,e
288.0,2166.0,2928.0,2748.0,3027.0,3457.0,2469.0,3082.0,5.14,7.65,3.6,-0.73,-2.4,-0.04,e
510.0,2158.0,2923.0,2735.0,3025.0,3459.0,2466.0,3070.0,3.81,8.05,3.95,0.13,0.56,0.09,e
250.0,2162.0,2934.0,2704.0,3022.0,3472.0,2473.0,3071.0,4.39,7.99,3.82,0.28,1.52,0.3,e
730.0,2162.0,2928.0,2689.0,3014.0,3471.0,2461.0,3069.0,3.05,8.28,3.62,0.06,1.31,0.42,e
109.0,2155.0,2932.0,2704.0,3021.0,3483.0,2467.0,3087.0,3.93,7.51,4.05,-0.3,-0.06,0.2,e
307.0,2160.0,2928.0,2714.0,3023.0,3489.0,2466.0,3088.0,3.87,7.5,4.39,-0.14,0.08,-0.02,e
429.0,2147.0,2928.0,2724.0,3024.0,3493.0,2475.0,3090.0,3.75,7.62,4.73,-0.22,-0.04,-0.03,e
0.0,2160.0,2933.0,2737.0,3031.0,3505.0,2478.0,3107.0,3.4,7.05,4.46,0.0,0.18,-0.28,e
0.0,2156.0,2929.0,2726.0,3028.0,3505.0,2480.0,3095.0,3.25,7.69,4.26,0.05,0.32,-0.34,e
0.0,2160.0,2934.0,2742.0,3047.0,3515.0,2483.0,3099.0,2.78,7.99,4.79,-0.09,0.12,-0.26,e
8.0,2153.0,2923.0,2738.0,3045.0,3515.0,2485.0,3096.0,2.55,7.68,4.85,-0.09,0.45,-0.24,e
33.0,2167.0,2939.0,2752.0,3051.0,3521.0,2486.0,3110.0,2.4,7.52,5.66,-0.37,0.17,-0.04,e
3155.0,2161.0,2927.0,2739.0,3047.0,3517.0,2487.0,3105.0,2.51,7.46,6.14,-0.14,0.12,0.13,e
2735.0,2160.0,2934.0,2750.0,3056.0,3534.0,2500.0,3119.0,2.44,7.5,5.7,0.14,0.3,0.11,e
2096.0,2157.0,2935.0,2747.0,3057.0,3531.0,2491.0,3104.0,1.72,7.52,5.27,0.13,0.19,0.04,e
1535.0,2161.0,2931.0,2751.0,3061.0,3535.0,2501.0,3113.0,1.76,7.64,5.07,0.01,0.14,0.18,e
1003.0,2159.0,2923.0,2743.0,3056.0,3530.0,2492.0,3103.0,2.68,7.4,4.87,0.27,0.75,0.25,e
1280.0,2145.0,2937.0,2738.0,3053.0,3526.0,2493.0,3099.0,1.42,8.14,4.6,0.74,2.78,0.32,e
1046.0,2144.0,2935.0,2711.0,3069.0,3525.0,2480.0,3091.0,0.52,8.73,4.45,0.35,1.57,0.34,e
182.0,2131.0,2929.0,2699.0,3062.0,3520.0,2482.0,3090.0,0.52,8.38,4.13,0.36,1.3,0.4,e
502.0,2144.0,2928.0,2704.0,3071.0,3523.0,2481.0,3094.0,0.46,8.69,3.74,0.25,1.19,0.21,e
323.0,2146.0,2933.0,2704.0,3071.0,3521.0,2486.0,3091.0,-0.23,8.76,3.9,0.25,1.21,0.2,e
192.0,2129.0,2927.0,2714.0,3089.0,3527.0,2493.0,3099.0,-0.83,8.76,3.37,0.2,0.35,0.08,e
511.0,2129.0,2919.0,2722.0,3082.0,3526.0,2495.0,3091.0,-0.63,9.01,3.26,-0.33,-2.15,-0.28,e
1632.0,2139.0,2934.0,2731.0,3071.0,3520.0,2499.0,3101.0,0.54,9.0,3.77,-0.68,-2.85,-0.37,e
118.0,2128.0,2927.0,2730.0,3071.0,3519.0,2497.0,3097.0,1.81,8.84,4.38,-0.55,-2.61,-0.28,e
30.0,2147.0,2934.0,2738.0,3083.0,3520.0,2498.0,3100.0,2.34,7.83,4.14,-0.13,-1.58,-0.39,e
639.0,2139.0,2917.0,2722.0,3071.0,3522.0,2501.0,3093.0,2.63,7.82,3.7,0.09,-1.0,-0.49,e
2206.0,2154.0,2928.0,2736.0,3084.0,3526.0,2500.0,3091.0,2.7,8.41,3.84,-0.1,-0.66,-0.47,e
1741.0,2147.0,2923.0,2730.0,3071.0,3518.0,2497.0,3091.0,2.38,8.51,4.07,-0.12,-0.81,-0.5,e
986.0,2151.0,2930.0,2739.0,3071.0,3515.0,2490.0,3088.0,2.82,8.32,3.23,-0.2,-1.56,-0.66,e
430.0,2162.0,2924.0,2743.0,3087.0,3536.0,2498.0,3091.0,1.85,8.95,3.5,-0.15,-0.32,-0.4,e
214.0,2151.0,2927.0,2746.0,3082.0,3519.0,2499.0,3095.0,2.76,8.6,3.79,0.18,1.52,-0.21,e
752.0,2160.0,2931.0,2755.0,3097.0,3538.0,2512.0,3102.0,-0.22,9.31,2.72,0.47,2.52,0.07,e
876.0,2159.0,2921.0,2752.0,3097.0,3530.0,2509.0,3099.0,0.2,9.17,2.8,-0.03,1.43,0.03,e
445.0,2156.0,2932.0,2747.0,3095.0,3535.0,2511.0,3105.0,-0.68,9.32,2.13,-0.14,1.06,0.15,e
0.0,2160.0,2927.0,2752.0,3097.0,3531.0,2513.0,3105.0,-0.52,9.05,2.41,-0.4,-0.22,0.14,e
0.0,2150.0,2925.0,2761.0,3112.0,3562.0,2525.0,3117.0,0.4,8.34,3.87,-0.68,-1.34,0.1,e
126.0,2150.0,2939.0,2761.0,3105.0,3552.0,2519.0,3119.0,2.15,7.75,4.94,-0.26,-0.59,-0.26,e
0.0,2165.0,2928.0,2769.0,3116.0,3569.0,2531.0,3127.0,-0.14,8.93,4.31,-0.16,-0.09,-0.39,e
0.0,2146.0,2928.0,2763.0,3109.0,3557.0,2523.0,3125.0,-0.88,8.91,4.11,-0.2,-0.63,-0.1,e
0.0,2149.0,2928.0,2768.0,3103.0,3562.0,2531.0,3131.0,1.86,8.33,3.38,-0.94,-4.39,-0.03,e
0.0,2154.0,2919.0,2768.0,3100.0,3568.0,2534.0,3126.0,3.43,7.66,4.87,-0.17,-0.15,0.03,e
15.0,2158.0,2927.0,2768.0,3098.0,3568.0,2534.0,3131.0,3.04,7.78,4.57,0.01,0.33,-0.1,e
0.0,2144.0,2928.0,2767.0,3111.0,3571.0,2537.0,3135.0,2.35,7.98,3.85,0.02,0.72,-0.09,e
16.0,2150.0,2916.0,2766.0,3104.0,3567.0,2533.0,3136.0,2.37,8.12,4.56,-0.25,0.49,-0.05,e
32.0,2157.0,2928.0,2775.0,3115.0,3583.0,2543.0,3148.0,2.34,7.79,5.48,-0.09,0.01,-0.08,e
560.0,2150.0,2928.0,2768.0,3105.0,3568.0,2541.0,3133.0,1.48,7.77,5.49,0.97,2.73,-0.56,e
4095.0,2140.0,2927.0,2755.0,3114.0,3572.0,2546.0,3115.0,-1.0,8.64,3.55,0.86,3.1,-0.25,e
4095.0,2119.0,2922.0,2738.0,3113.0,3568.0,2538.0,3091.0,-1.96,8.23,3.08,0.56,1.51,0.0,e
4095.0,2123.0,2946.0,2726.0,3101.0,3536.0,2526.0,3083.0,-1.8,9.4,2.21,0.17,1.18,0.27,e
3461.0,2117.0,2928.0,2720.0,3089.0,3519.0,2518.0,3071.0,-1.76,8.79,2.34,0.21,1.08,0.12,e
2649.0,2119.0,2931.0,2723.0,3091.0,3525.0,2522.0,3090.0,-1.77,9.3,1.27,0.24,1.63,0.3,e
1963.0,2115.0,2925.0,2727.0,3095.0,3529.0,2519.0,3089.0,-2.95,9.31,0.7,0.13,0.08,0.2,e
1478.0,2117.0,2928.0,2749.0,3105.0,3531.0,2526.0,3089.0,-1.66,9.34,0.67,-0.34,-2.71,0.24,e
1425.0,2123.0,2928.0,2755.0,3103.0,3535.0,2530.0,3120.0,-0.09,9.16,1.82,-0.55,-2.87,0.35,e
2349.0,2128.0,2923.0,2752.0,3101.0,3540.0,2537.0,3118.0,1.4,9.2,2.81,-0.31,-1.21,0.46,e
1350.0,2127.0,2922.0,2759.0,3106.0,3559.0,2544.0,3126.0,0.83,8.66,3.08,-0.33,-0.74,0.14,e
506.0,2119.0,2928.0,2755.0,3107.0,3554.0,2542.0,3136.0,1.66,8.89,2.74,-0.07,0.12,0.07,e
336.0,2128.0,2927.0,2765.0,3114.0,3573.0,2555.0,3151.0,0.91,8.84,3.38,-0.25,0.08,0.03,e
282.0,2121.0,2921.0,2767.0,3114.0,3573.0,2551.0,3151.0,1.57,8.83,3.28,-0.04,0.24,0.05,e
448.0,2121.0,2930.0,2777.0,3125.0,3583.0,2554.0,3156.0,1.47,8.72,3.06,-0.04,0.1,-0.14,e
730.0,2118.0,2916.0,2765.0,3115.0,3583.0,2551.0,3152.0,1.13,8.96,3.17,-0.12,0.05,-0.16,e
511.0,2123.0,2928.0,2771.0,3125.0,3597.0,2559.0,3160.0,1.08,9.32,3.63,-0.1,-0.04,-0.04,e
0.0,2128.0,2924.0,2769.0,3123.0,3583.0,2551.0,3152.0,1.29,8.85,3.31,0.0,-0.04,0.06,e
63.0,2125.0,2924.0,2772.0,3130.0,3595.0,2559.0,3158.0,1.38,8.86,2.82,0.05,0.09,0.03,e
382.0,2122.0,2922.0,2774.0,3126.0,3600.0,2559.0,3158.0,1.38,9.1,3.15,-0.1,0.05,0.04,e
1275.0,2114.0,2929.0,2775.0,3123.0,3602.0,2559.0,3168.0,1.34,9.09,3.1,0.04,0.05,0.15,e
1525.0,2128.0,2931.0,2782.0,3139.0,3609.0,2559.0,3170.0,1.96,9.25,3.05,0.15,0.15,0.16,e
118.0,2112.0,2921.0,2775.0,3130.0,3601.0,2559.0,3163.0,1.37,8.44,2.91,0.01,-0.01,-0.06,e
0.0,2121.0,2923.0,2781.0,3136.0,3605.0,2559.0,3164.0,1.22,9.05,3.12,-0.21,-0.01,-0.08,e
147.0,2127.0,2912.0,2783.0,3136.0,3611.0,2559.0,3170.0,1.39,8.95,3.62,-0.09,-0.07,-0.04,e
875.0,2128.0,2921.0,2787.0,3141.0,3618.0,2582.0,3184.0,1.36,9.02,3.31,0.03,-0.28,0.05,e
1840.0,2124.0,2917.0,2785.0,3139.0,3607.0,2559.0,3173.0,1.79,8.87,2.8,0.04,-0.07,0.12,e
375.0,2117.0,2923.0,2790.0,3150.0,3617.0,2581.0,3175.0,1.33,8.43,2.91,-0.06,-0.06,-0.11,e
31.0,2119.0,2919.0,2786.0,3139.0,3610.0,2559.0,3171.0,1.49,9.08,3.22,-0.16,0.01,0.01,e
88.0,2119.0,2933.0,2798.0,3152.0,3629.0,2582.0,3184.0,1.84,8.44,3.62,0.01,-0.07,-0.02,e
858.0,2117.0,2915.0,2793.0,3144.0,3607.0,2582.0,3183.0,1.78,9.25,2.99,0.07,-0.04,-0.04,e
626.0,2127.0,2924.0,2800.0,3149.0,3631.0,2589.0,3195.0,1.15,8.44,3.07,0.03,-0.04,-0.17,e
791.0,2123.0,2928.0,2800.0,3149.0,3625.0,2585.0,3185.0,1.28,9.34,2.92,-0.12,-0.03,-0.05,e
407.0,2141.0,2928.0,2797.0,3143.0,3616.0,2584.0,3184.0,1.48,9.03,3.39,-0.04,0.01,0.02,e
0.0,2115.0,2919.0,2795.0,3147.0,3633.0,2590.0,3197.0,1.28,8.69,2.98,-0.03,-0.1,-0.08,e
222.0,2117.0,2923.0,2796.0,3141.0,3627.0,2585.0,3185.0,1.45,9.05,2.99,-0.16,-0.06,0.01,e
1387.0,2121.0,2923.0,2803.0,3155.0,3629.0,2589.0,3184.0,1.59,8.86,3.29,-0.06,0.07,0.04,e
1157.0,2114.0,2917.0,2799.0,3150.0,3619.0,2586.0,3184.0,1.33,8.72,3.27,-0.07,0.06,-0.04,e
749.0,2118.0,2927.0,2801.0,3157.0,3633.0,2590.0,3187.0,1.38,8.83,3.21,-0.08,0.12,0.04,e
184.0,2123.0,2926.0,2796.0,3147.0,3629.0,2585.0,3189.0,1.59,8.7,3.73,-0.15,0.07,0.0,e
0.0,2128.0,2924.0,2801.0,3149.0,3625.0,2587.0,3194.0,1.42,8.63,3.3,0.06,0.09,-0.03,e
643.0,2122.0,2919.0,2785.0,3146.0,3607.0,2559.0,3170.0,1.7,8.57,3.55,0.38,1.41,0.28,e
1585.0,2112.0,2941.0,2743.0,3120.0,3569.0,2543.0,3149.0,-0.03,9.48,3.11,0.63,2.69,0.25,e
1515.0,2113.0,2928.0,2711.0,3082.0,3519.0,2508.0,3121.0,-0.23,9.22,1.8,0.46,1.75,0.11,e
171.0,2128.0,2922.0,2707.0,3061.0,3507.0,2507.0,3130.0,-0.4,9.53,1.66,0.17,0.49,0.05,e
0.0,2133.0,2928.0,2713.0,3059.0,3515.0,2518.0,3148.0,-0.56,9.55,1.75,-0.13,-0.77,-0.07,e
21.0,2143.0,2924.0,2711.0,3056.0,3525.0,2525.0,3146.0,0.18,9.47,1.89,-0.46,-1.92,-0.05,e
183.0,2150.0,2927.0,2721.0,3057.0,3542.0,2525.0,3146.0,0.43,9.22,2.61,-0.3,-1.33,-0.08,e
322.0,2153.0,2919.0,2717.0,3045.0,3537.0,2523.0,3120.0,1.27,9.2,2.55,-0.3,-1.72,0.05,e
268.0,2160.0,2931.0,2743.0,3040.0,3549.0,2523.0,3120.0,1.98,8.9,2.74,-0.39,-1.57,-0.01,e
37.0,2161.0,2914.0,2741.0,3021.0,3536.0,2518.0,3121.0,2.32,9.0,2.86,-0.38,-1.38,-0.02,e
0.0,2164.0,2923.0,2754.0,3021.0,3563.0,2534.0,3137.0,2.89,8.71,2.83,-0.39,-1.47,0.07,e
10.0,2163.0,2907.0,2722.0,2988.0,3567.0,2525.0,3134.0,5.39,8.27,2.82,-0.36,-1.86,0.37,e
347.0,2155.0,2928.0,2736.0,3008.0,3578.0,2530.0,3141.0,3.46,9.05,2.26,0.1,-0.06,-0.13,e
797.0,2157.0,2921.0,2736.0,2999.0,3573.0,2534.0,3143.0,4.77,8.39,2.45,0.21,1.12,-0.21,e
1254.0,2147.0,2923.0,2743.0,3025.0,3601.0,2551.0,3155.0,2.15,9.09,2.16,0.69,2.55,-0.33,e
779.0,2170.0,2922.0,2745.0,3037.0,3600.0,2559.0,3171.0,1.86,9.15,1.97,0.2,1.15,-0.16,e
661.0,2145.0,2922.0,2737.0,3047.0,3609.0,2553.0,3159.0,1.43,9.24,2.51,0.21,1.68,-0.09,e
1671.0,2154.0,2929.0,2740.0,3042.0,3615.0,2559.0,3167.0,1.05,9.25,2.32,0.2,1.19,0.05,e
3280.0,2144.0,2925.0,2734.0,3038.0,3602.0,2559.0,3168.0,0.52,9.3,2.02,0.19,1.04,-0.05,e
2503.0,2156.0,2923.0,2739.0,3043.0,3607.0,2559.0,3164.0,-0.08,9.16,2.08,0.04,0.34,-0.08,e
1859.0,2146.0,2921.0,2730.0,3040.0,3605.0,2559.0,3170.0,-0.23,9.38,1.87,-0.06,0.03,0.08,e
1181.0,2163.0,2925.0,2739.0,3046.0,3621.0,2559.0,3172.0,0.05,9.38,1.74,-0.36,-1.89,0.2,e
705.0,2154.0,2919.0,2738.0,3040.0,3602.0,2559.0,3165.0,2.77,8.9,0.78,-1.44,-5.75,0.7,e
782.0,2144.0,2915.0,2739.0,3038.0,3615.0,2559.0,3171.0,6.54,7.65,2.94,-1.12,-2.09,0.21,e
1241.0,2150.0,2910.0,2739.0,3041.0,3607.0,2559.0,3173.0,4.07,8.49,3.54,-0.12,0.1,-0.06,e
1220.0,2150.0,2918.0,2730.0,3042.0,3619.0,2559.0,3176.0,3.69,8.32,2.62,0.25,1.08,-0.15,e
609.0,2133.0,2910.0,2714.0,3037.0,3618.0,2559.0,3171.0,2.76,8.78,2.42,0.02,0.4,0.02,e
