hall_1,hall_2,hall_3,flex_t,flex_i,flex_m,flex_r,flex_p,accel_x,accel_y,accel_z,gyro_x,gyro_y,gyro_z,sign
2921.0,2983.0,2946.0,3239.0,4095.0,4095.0,2955.0,2504.0,9.87,2.27,5.33,0.09,-0.08,-0.11,h
2928.0,2974.0,2939.0,3237.0,4095.0,4095.0,2951.0,2503.0,9.84,2.41,5.25,-0.02,0.0,-0.08,h
2918.0,2983.0,2946.0,3245.0,4095.0,4095.0,2953.0,2506.0,9.76,2.45,5.27,0.03,-0.05,-0.13,h
2899.0,2977.0,2948.0,3254.0,4095.0,4095.0,2955.0,2502.0,9.81,2.38,5.31,-0.03,-0.02,-0.12,h
2919.0,2984.0,2948.0,3249.0,4095.0,4095.0,2946.0,2503.0,9.89,2.44,5.27,0.05,-0.05,-0.16,h
2960.0,2977.0,2955.0,3248.0,4095.0,4095.0,2950.0,2506.0,9.79,2.43,5.26,0.02,-0.03,-0.16,h
3036.0,2977.0,2939.0,3254.0,4095.0,4095.0,2950.0,2508.0,9.75,2.29,5.23,0.04,-0.1,-0.2,h
3069.0,2982.0,2943.0,3257.0,4095.0,4095.0,2955.0,2511.0,9.57,2.35,5.13,-0.03,-0.03,-0.17,h
3089.0,2980.0,2947.0,3257.0,4095.0,4095.0,2958.0,2502.0,9.8,2.29,5.21,-0.01,-0.04,-0.17,h
3085.0,2992.0,2949.0,3254.0,4095.0,4095.0,2958.0,2503.0,9.78,2.41,5.09,0.03,-0.02,-0.18,h
3100.0,2990.0,2957.0,3259.0,4095.0,4095.0,2960.0,2511.0,9.72,2.28,5.21,-0.0,-0.02,-0.17,h
3152.0,2988.0,2938.0,3248.0,4095.0,4095.0,2962.0,2511.0,9.79,2.33,5.15,0.03,-0.06,-0.19,h
3166.0,2979.0,2955.0,3219.0,4095.0,4095.0,2961.0,2512.0,9.87,2.3,5.23,0.03,-0.06,-0.14,h
3253.0,2983.0,2947.0,3207.0,4095.0,4095.0,2967.0,2512.0,9.74,2.35,5.26,0.08,0.18,-0.12,h
3306.0,2977.0,2938.0,3185.0,4095.0,4095.0,2979.0,2515.0,9.75,2.32,5.35,0.08,-0.05,-0.18,h
3299.0,2976.0,2941.0,3194.0,4095.0,4095.0,2979.0,2513.0,9.79,2.41,5.2,0.1,-0.06,-0.22,h
3303.0,2986.0,2937.0,3194.0,4095.0,4095.0,2985.0,2517.0,9.5,2.33,5.04,0.04,-0.05,-0.18,h
3271.0,2983.0,2951.0,3194.0,4095.0,4095.0,2986.0,2517.0,9.63,2.39,4.99,0.06,-0.08,-0.19,h
3198.0,2973.0,2953.0,3199.0,4095.0,4095.0,2985.0,2519.0,9.7,2.4,4.9,0.02,-0.09,-0.16,h
3163.0,2992.0,2939.0,3211.0,4095.0,4095.0,2983.0,2519.0,9.66,2.43,4.97,0.01,-0.03,-0.13,h
3121.0,2992.0,2951.0,3226.0,4095.0,4095.0,2981.0,2518.0,9.84,2.42,4.95,-0.07,-0.01,-0.1,h
3131.0,2981.0,2944.0,3194.0,4095.0,4095.0,2955.0,2516.0,9.6,2.61,5.21,-0.14,0.27,-0.02,h
3191.0,2992.0,2955.0,3145.0,4095.0,4095.0,2940.0,2529.0,10.01,2.15,5.52,-0.02,0.16,-0.1,h
3213.0,2981.0,2943.0,3113.0,4095.0,4095.0,2949.0,2544.0,9.57,2.24,5.16,-0.06,-0.05,-0.14,h
3219.0,2991.0,2935.0,3097.0,4095.0,4095.0,2946.0,2557.0,9.75,2.41,5.16,0.06,0.04,-0.2,h
3216.0,2982.0,2943.0,3101.0,4095.0,4095.0,2959.0,2559.0,9.74,2.28,5.26,-0.08,-0.06,-0.19,h
3211.0,2973.0,2947.0,3123.0,4095.0,4095.0,2961.0,2579.0,9.64,2.3,5.26,0.01,-0.16,-0.17,h
3143.0,2992.0,2948.0,3154.0,4095.0,4095.0,2981.0,2557.0,9.67,2.34,5.24,-0.04,-0.09,-0.17,h
3021.0,2991.0,2944.0,3170.0,4095.0,4095.0,2970.0,2558.0,9.95,2.36,5.22,-0.01,-0.09,-0.17,h
3021.0,2994.0,2942.0,3177.0,4095.0,4095.0,2978.0,2558.0,9.9,2.32,5.16,0.01,0.03,-0.16,h
3015.0,2979.0,2955.0,3175.0,4095.0,4095.0,2986.0,2559.0,9.66,2.14,5.23,-0.13,0.04,-0.12,h
3002.0,2987.0,2945.0,3156.0,4095.0,4095.0,2976.0,2559.0,9.74,2.28,5.31,-0.07,-0.1,-0.14,h
3027.0,2980.0,2946.0,3152.0,4095.0,4095.0,2973.0,2559.0,9.84,2.15,5.37,-0.1,-0.36,-0.14,h
3035.0,2980.0,2941.0,3143.0,4095.0,4095.0,2971.0,2559.0,9.86,2.27,5.04,0.01,-0.11,-0.22,h
3081.0,2987.0,2944.0,3145.0,4095.0,4095.0,2967.0,2551.0,9.7,2.44,4.9,0.02,0.1,-0.2,h
3094.0,2993.0,2954.0,3149.0,4095.0,4095.0,2960.0,2546.0,9.68,2.34,4.95,-0.01,0.05,-0.23,h
3120.0,2991.0,2954.0,3146.0,4095.0,4095.0,2944.0,2534.0,9.9,2.38,4.82,0.04,-0.01,-0.22,h
3141.0,2977.0,2954.0,3155.0,4095.0,4095.0,2954.0,2530.0,9.74,2.46,4.91,0.04,-0.16,-0.26,h
3136.0,2978.0,2945.0,3175.0,4095.0,4095.0,2943.0,2519.0,9.94,2.47,5.25,0.08,-0.31,-0.29,h
3118.0,2987.0,2950.0,3209.0,4095.0,4095.0,2946.0,2503.0,9.61,2.56,4.81,0.1,-0.29,-0.27,h
3071.0,2983.0,2946.0,3237.0,4095.0,4095.0,2937.0,2487.0,9.67,2.79,4.36,0.05,-0.28,-0.24,h
3026.0,2979.0,2947.0,3253.0,4095.0,4095.0,2915.0,2478.0,9.8,2.69,4.25,0.0,-0.15,-0.19,h
2992.0,2981.0,2944.0,3280.0,4095.0,4095.0,2898.0,2462.0,9.5,2.67,4.43,-0.05,-0.02,-0.21,h
2967.0,2983.0,2946.0,3270.0,4095.0,4095.0,2894.0,2464.0,9.61,2.66,4.3,-0.05,-0.04,-0.16,h
2944.0,2989.0,2940.0,3280.0,4095.0,4095.0,2879.0,2459.0,9.77,2.74,4.36,-0.09,0.13,-0.15,h
2935.0,2983.0,2947.0,3281.0,4095.0,4095.0,2870.0,2465.0,9.59,2.7,4.63,-0.13,0.18,-0.13,h
2929.0,2980.0,2945.0,3281.0,4095.0,4095.0,2860.0,2461.0,9.68,2.82,4.57,-0.03,0.09,-0.17,h
2937.0,2987.0,2951.0,3289.0,4095.0,4095.0,2839.0,2440.0,9.69,2.66,4.7,-0.09,0.11,-0.18,h
2939.0,2987.0,2939.0,3294.0,4095.0,4095.0,2826.0,2414.0,9.67,2.91,4.64,-0.08,0.15,-0.18,h
2928.0,2989.0,2945.0,3284.0,4095.0,4095.0,2781.0,2384.0,9.55,2.71,4.79,-0.29,0.15,-0.07,h
2934.0,2983.0,2939.0,3280.0,4095.0,4095.0,2751.0,2361.0,9.49,2.7,4.97,-0.25,0.17,-0.0,h
2922.0,2981.0,2939.0,3307.0,4095.0,4095.0,2733.0,2361.0,9.8,2.6,4.74,-0.14,-0.03,-0.07,h
2911.0,2992.0,2945.0,3325.0,4095.0,4095.0,2726.0,2367.0,9.58,2.62,5.15,-0.13,-0.04,-0.17,h
2912.0,2985.0,2941.0,3337.0,4095.0,4095.0,2725.0,2366.0,9.65,2.58,5.04,-0.14,-0.0,-0.19,h
2887.0,2982.0,2943.0,3338.0,4095.0,4095.0,2723.0,2370.0,9.8,2.57,5.21,-0.08,0.02,-0.21,h
2864.0,2987.0,2955.0,3327.0,4095.0,4095.0,2721.0,2382.0,9.78,2.68,5.16,-0.01,-0.03,-0.27,h
2809.0,2976.0,2948.0,3282.0,4095.0,4095.0,2727.0,2400.0,9.53,2.62,5.35,0.09,-0.13,-0.3,h
2689.0,2987.0,2943.0,3252.0,4095.0,4095.0,2746.0,2398.0,9.68,2.78,4.94,-0.05,-0.07,-0.19,h
2559.0,2991.0,2949.0,3248.0,4095.0,4095.0,2766.0,2405.0,9.82,2.77,5.02,-0.05,0.15,-0.09,h
2416.0,2989.0,2948.0,3280.0,4095.0,4095.0,2774.0,2413.0,9.63,2.6,5.29,-0.03,0.06,-0.07,h
2426.0,2987.0,2953.0,3345.0,4095.0,4095.0,2748.0,2401.0,9.54,2.85,5.14,-0.11,-0.01,-0.09,h
2521.0,2985.0,2944.0,3379.0,4095.0,4095.0,2718.0,2368.0,9.62,2.68,4.89,-0.17,-0.02,-0.05,h
2725.0,2982.0,2933.0,3397.0,4095.0,4095.0,2640.0,2354.0,9.78,2.59,5.18,-0.15,-0.06,-0.14,h
2850.0,2985.0,2957.0,3458.0,4095.0,4095.0,2559.0,2350.0,10.14,3.01,5.09,-0.11,-0.19,-0.24,h
2896.0,2992.0,2953.0,3483.0,4095.0,4095.0,2559.0,2353.0,9.97,2.67,4.27,-0.06,-0.04,-0.24,h
2891.0,2997.0,2940.0,3494.0,4095.0,4095.0,2581.0,2362.0,9.7,2.67,5.21,-0.02,-0.05,-0.21,h
2902.0,2992.0,2956.0,3491.0,4095.0,4095.0,2581.0,2366.0,9.71,2.77,5.26,0.03,0.03,-0.15,h
2928.0,2978.0,2937.0,3501.0,4095.0,4095.0,2581.0,2372.0,9.53,2.72,5.1,-0.05,0.08,-0.09,h
2923.0,2977.0,2934.0,3502.0,4095.0,4095.0,2580.0,2375.0,9.5,2.87,5.03,-0.06,0.32,-0.07,h
2915.0,2983.0,2951.0,3504.0,4095.0,4095.0,2577.0,2386.0,9.58,2.62,5.54,0.02,0.13,-0.13,h
2914.0,2986.0,2960.0,3504.0,4095.0,4095.0,2559.0,2381.0,9.46,2.56,5.42,-0.02,0.06,-0.08,h
2857.0,2990.0,2947.0,3470.0,4095.0,4095.0,2559.0,2382.0,9.65,2.48,5.7,-0.04,0.09,-0.13,h
2870.0,2989.0,2949.0,3456.0,4095.0,4095.0,2583.0,2362.0,9.48,2.61,5.47,0.06,-0.07,-0.18,h
2875.0,2987.0,2942.0,3454.0,4095.0,4095.0,2590.0,2358.0,9.58,2.48,5.61,0.05,-0.16,-0.19,h
2859.0,2989.0,2945.0,3456.0,4095.0,4095.0,2602.0,2373.0,9.83,2.67,5.49,0.09,-0.04,-0.18,h
2713.0,2981.0,2945.0,3470.0,4095.0,4095.0,2626.0,2381.0,9.45,2.64,5.37,0.01,-0.06,-0.16,h
2666.0,2981.0,2942.0,3463.0,4095.0,4095.0,2638.0,2398.0,9.6,2.65,5.3,-0.01,-0.01,-0.15,h
2657.0,2979.0,2943.0,3466.0,4095.0,4095.0,2640.0,2410.0,9.68,2.52,5.35,0.05,-0.12,-0.17,h
2672.0,2990.0,2945.0,3477.0,4095.0,4095.0,2646.0,2409.0,9.59,2.74,5.04,0.01,-0.02,-0.14,h
2759.0,2987.0,2944.0,3473.0,4095.0,4095.0,2645.0,2420.0,9.56,2.56,5.29,0.01,-0.04,-0.13,h
2866.0,2978.0,2944.0,3472.0,4095.0,4095.0,2645.0,2427.0,9.63,2.63,5.25,-0.09,0.01,-0.03,h
2847.0,2979.0,2955.0,3470.0,4095.0,4095.0,2649.0,2422.0,9.62,2.55,5.2,-0.03,0.02,0.05,h
2791.0,2992.0,2943.0,3471.0,4095.0,4035.0,2650.0,2426.0,9.76,2.28,5.32,-0.11,-0.06,-0.04,h
2809.0,2994.0,2945.0,3470.0,4095.0,3874.0,2655.0,2432.0,9.89,2.56,5.12,-0.05,0.04,-0.06,h
2951.0,2991.0,2955.0,3451.0,4095.0,3760.0,2658.0,2427.0,10.06,2.55,4.29,-0.2,-0.0,-0.1,h
3047.0,2978.0,2938.0,3459.0,4095.0,3759.0,2656.0,2435.0,9.87,2.32,4.8,-0.37,0.09,-0.2,h
3087.0,2984.0,2950.0,3467.0,4095.0,3844.0,2667.0,2443.0,9.67,2.13,7.0,-0.03,-0.14,-0.34,h
2990.0,2981.0,2943.0,3472.0,4095.0,3940.0,2670.0,2447.0,9.12,2.11,7.23,0.38,-0.22,-0.32,h
2863.0,2992.0,2930.0,3467.0,4095.0,3969.0,2671.0,2450.0,8.72,2.37,6.5,0.43,0.07,-0.11,h
2783.0,2988.0,2947.0,3479.0,4095.0,3957.0,2672.0,2455.0,9.42,2.62,4.78,0.51,0.06,0.1,h
2736.0,2995.0,2951.0,3490.0,4095.0,3967.0,2674.0,2458.0,9.55,3.42,2.29,0.18,0.18,0.04,h
2732.0,2978.0,2944.0,3488.0,4095.0,3968.0,2674.0,2467.0,10.33,3.48,2.07,-0.4,-0.15,0.01,h
2718.0,2988.0,2946.0,3488.0,4095.0,3984.0,2673.0,2464.0,11.98,3.5,4.1,-0.78,-0.47,-0.3,h
2736.0,2987.0,2955.0,3492.0,4095.0,3982.0,2675.0,2448.0,12.68,2.77,6.2,-0.79,-0.4,-0.87,h
2735.0,2979.0,2945.0,3489.0,4095.0,3998.0,2674.0,2448.0,11.65,2.2,7.46,-0.33,-0.04,-1.17,h
2726.0,2992.0,2954.0,3494.0,4095.0,3999.0,2677.0,2451.0,9.44,2.01,7.23,0.04,0.3,-1.24,h
2706.0,2983.0,2949.0,3491.0,4095.0,3987.0,2676.0,2464.0,7.9,2.32,6.84,0.3,0.45,-1.02,h
2687.0,2981.0,2944.0,3491.0,4095.0,3990.0,2675.0,2467.0,7.42,2.37,6.36,0.61,0.42,-0.68,h
2640.0,2977.0,2944.0,3495.0,4095.0,3991.0,2682.0,2471.0,7.15,2.85,5.71,0.8,0.54,-0.31,h
2579.0,2978.0,2929.0,3494.0,4095.0,3970.0,2674.0,2470.0,7.01,3.41,5.03,0.84,0.47,0.13,h
2511.0,2981.0,2955.0,3499.0,4095.0,3967.0,2683.0,2480.0,7.48,4.12,4.19,0.72,0.04,0.44,h
2496.0,2987.0,2946.0,3503.0,4095.0,3946.0,2683.0,2481.0,9.0,4.11,3.24,0.48,-0.37,0.53,h
2489.0,2979.0,2946.0,3501.0,4095.0,3933.0,2686.0,2483.0,9.61,4.13,2.85,0.14,-0.19,0.48,h
2501.0,2984.0,2955.0,3503.0,4095.0,3939.0,2687.0,2487.0,9.95,3.85,3.38,-0.15,-0.41,0.38,h
2505.0,2982.0,2939.0,3499.0,4095.0,3926.0,2686.0,2485.0,10.66,3.56,3.92,-0.4,-0.84,0.21,h
2497.0,2992.0,2952.0,3504.0,4095.0,3953.0,2686.0,2490.0,10.29,3.32,4.32,-0.44,-0.29,0.03,h
2459.0,2992.0,2943.0,3504.0,4095.0,3946.0,2685.0,2490.0,10.23,2.86,4.36,-0.57,0.08,0.04,h
2192.0,2986.0,2954.0,3505.0,4095.0,3952.0,2672.0,2463.0,9.66,2.78,4.54,-0.89,0.44,0.16,h
2031.0,2974.0,2932.0,3440.0,4095.0,3994.0,2694.0,2433.0,9.71,2.44,5.76,-0.71,0.68,0.11,h
1887.0,2979.0,2938.0,3418.0,4095.0,4031.0,2726.0,2438.0,9.92,2.27,6.73,-0.72,0.22,0.05,h
1771.0,2981.0,2938.0,3410.0,4095.0,4063.0,2742.0,2449.0,9.61,2.3,7.07,-0.31,0.12,-0.06,h
1734.0,2980.0,2949.0,3412.0,4095.0,4046.0,2753.0,2467.0,9.92,2.3,6.67,0.22,0.08,-0.14,h
1825.0,2992.0,2953.0,3437.0,4095.0,4048.0,2750.0,2469.0,9.78,2.32,5.79,0.5,-0.0,-0.25,h
1984.0,2991.0,2941.0,3458.0,4095.0,4039.0,2752.0,2478.0,9.23,2.4,5.43,0.7,-0.13,-0.36,h
1919.0,2979.0,2942.0,3427.0,4095.0,3878.0,2774.0,2476.0,9.41,2.87,4.95,0.78,-0.14,-0.48,h
1535.0,2995.0,2943.0,3375.0,4095.0,3898.0,2805.0,2477.0,9.12,3.34,4.73,0.48,0.15,-0.46,h
1523.0,2993.0,2951.0,3370.0,4095.0,3952.0,2829.0,2521.0,9.7,3.13,5.1,0.26,-0.05,-0.34,h
1531.0,2982.0,2954.0,3355.0,4095.0,4013.0,2832.0,2540.0,9.65,3.1,5.21,0.14,-0.06,-0.3,h
1531.0,2977.0,2949.0,3346.0,4095.0,4017.0,2833.0,2542.0,9.44,3.4,4.98,0.13,-0.03,-0.22,h
1533.0,2993.0,2944.0,3375.0,4095.0,3942.0,2845.0,2544.0,9.31,3.04,5.02,0.12,-0.01,-0.19,h
1557.0,2987.0,2945.0,3418.0,4095.0,3760.0,2818.0,2527.0,9.24,3.28,4.98,0.08,-0.12,-0.13,h
1632.0,2982.0,2942.0,3455.0,4095.0,3536.0,2769.0,2480.0,9.67,3.17,4.87,0.1,0.05,-0.1,h
1775.0,2977.0,2935.0,3478.0,4095.0,3519.0,2749.0,2482.0,9.46,3.35,4.77,-0.24,0.08,0.08,h
2131.0,2981.0,2942.0,3543.0,4095.0,3679.0,2601.0,2388.0,10.42,2.33,5.29,-0.35,0.59,0.16,h
2487.0,2992.0,2949.0,3616.0,4095.0,3819.0,2539.0,2365.0,9.58,3.03,5.29,-0.28,-0.12,-0.06,h
2550.0,2992.0,2944.0,3653.0,4095.0,3984.0,2537.0,2350.0,9.68,2.79,5.44,-0.16,-0.01,-0.11,h
2613.0,2992.0,2945.0,3659.0,4095.0,4095.0,2535.0,2346.0,9.49,2.98,5.29,-0.09,-0.04,-0.17,h
2689.0,2990.0,2950.0,3664.0,4095.0,4095.0,2541.0,2362.0,9.51,2.83,5.35,0.01,0.04,-0.18,h
2784.0,2992.0,2959.0,3663.0,4095.0,4095.0,2522.0,2354.0,9.9,2.7,5.63,-0.0,0.03,-0.17,h
2777.0,2979.0,2956.0,3655.0,4095.0,4095.0,2529.0,2352.0,9.61,2.89,5.41,0.0,0.06,-0.16,h
2800.0,2982.0,2947.0,3617.0,4095.0,4095.0,2522.0,2319.0,9.27,3.09,5.11,0.08,0.06,-0.19,h
2822.0,2983.0,2945.0,3550.0,4095.0,4095.0,2511.0,2319.0,9.53,2.94,5.6,0.07,-0.05,-0.18,h
2818.0,2993.0,2951.0,3487.0,4095.0,4095.0,2529.0,2323.0,9.54,3.09,5.6,0.13,-0.16,-0.25,h
2725.0,2983.0,2950.0,3440.0,4095.0,4015.0,2585.0,2326.0,9.27,3.08,4.84,0.1,-0.17,-0.25,h
2526.0,2990.0,2946.0,3390.0,4095.0,3679.0,2643.0,2367.0,9.4,3.27,4.93,0.19,-0.2,-0.31,h
2194.0,2986.0,2950.0,3344.0,4095.0,3653.0,2693.0,2399.0,9.63,3.18,4.67,0.12,-0.16,-0.27,h
1936.0,2983.0,2949.0,3287.0,4095.0,3657.0,2713.0,2394.0,9.52,3.27,4.78,-0.01,-0.02,-0.19,h
1872.0,2979.0,2944.0,3290.0,4095.0,3636.0,2718.0,2400.0,9.46,3.2,5.2,0.09,-0.09,-0.23,h
1854.0,2996.0,2944.0,3314.0,4095.0,3632.0,2721.0,2414.0,9.32,3.07,5.37,0.15,-0.15,-0.27,h
1791.0,2989.0,2949.0,3329.0,4095.0,3559.0,2732.0,2407.0,9.42,3.72,4.6,0.22,-0.21,-0.22,h
1741.0,2978.0,2943.0,3333.0,4095.0,3531.0,2715.0,2384.0,9.35,3.5,4.44,-0.07,-0.13,-0.1,h
1750.0,2973.0,2937.0,3376.0,4095.0,3602.0,2676.0,2352.0,9.36,3.38,4.73,-0.09,0.16,0.01,h
1854.0,2992.0,2951.0,3501.0,4095.0,3655.0,2630.0,2322.0,9.64,3.29,4.62,-0.08,0.03,-0.1,h
1987.0,2975.0,2938.0,3610.0,4095.0,3780.0,2582.0,2302.0,9.51,3.36,4.53,-0.04,-0.02,-0.14,h
2115.0,2974.0,2938.0,3708.0,4095.0,4087.0,2523.0,2306.0,9.5,3.4,4.7,-0.1,0.15,-0.11,h
2176.0,2999.0,2948.0,3766.0,4095.0,4095.0,2503.0,2306.0,9.47,3.21,4.91,-0.01,0.14,-0.13,h
2221.0,2983.0,2945.0,3858.0,4095.0,4095.0,2479.0,2306.0,9.64,3.32,4.88,0.0,0.12,-0.12,h
2227.0,2985.0,2948.0,3895.0,4095.0,4095.0,2484.0,2310.0,9.51,3.23,4.94,0.01,0.19,-0.14,h
2227.0,2994.0,2943.0,3920.0,4095.0,4095.0,2498.0,2314.0,9.44,3.34,4.89,-0.01,0.11,-0.12,h
2210.0,2992.0,2955.0,3830.0,4095.0,4095.0,2527.0,2326.0,9.52,3.18,4.99,-0.01,-0.02,-0.13,h
2176.0,2981.0,2940.0,3666.0,4095.0,4095.0,2559.0,2314.0,9.42,3.19,4.95,0.01,-0.08,-0.13,h
2145.0,2983.0,2941.0,3539.0,4095.0,4095.0,2608.0,2312.0,9.46,3.18,5.01,0.07,-0.06,-0.13,h
2115.0,2998.0,2953.0,3460.0,4095.0,4095.0,2644.0,2301.0,9.52,3.2,4.93,0.01,-0.04,-0.14,h
2074.0,2987.0,2941.0,3410.0,4095.0,4095.0,2661.0,2315.0,9.47,3.29,4.86,0.02,-0.0,-0.15,h
2059.0,2995.0,2954.0,3379.0,4095.0,4095.0,2659.0,2320.0,9.53,3.15,4.91,-0.09,0.03,-0.17,h
2019.0,2991.0,2939.0,3380.0,4095.0,4095.0,2670.0,2314.0,9.41,3.26,4.96,-0.01,0.02,-0.18,h
1967.0,2989.0,2940.0,3373.0,4095.0,4095.0,2673.0,2330.0,9.35,2.86,5.0,-0.09,-0.06,-0.14,h
1936.0,2989.0,2946.0,3381.0,4095.0,4081.0,2683.0,2343.0,9.55,3.28,4.82,-0.06,-0.03,-0.13,h
1904.0,2992.0,2934.0,3397.0,4095.0,4017.0,2695.0,2354.0,9.55,3.11,5.08,-0.02,-0.1,-0.13,h
1898.0,2985.0,2951.0,3403.0,4095.0,4035.0,2695.0,2362.0,9.51,3.19,4.98,0.01,-0.01,-0.13,h
1859.0,2981.0,2945.0,3393.0,4095.0,4022.0,2698.0,2368.0,9.53,3.28,4.84,0.01,-0.04,-0.14,h
1861.0,2986.0,2937.0,3393.0,4095.0,3979.0,2705.0,2378.0,9.69,3.19,4.83,-0.03,-0.08,-0.15,h
1831.0,2981.0,2944.0,3386.0,4095.0,3925.0,2704.0,2379.0,9.62,3.21,4.87,0.04,-0.05,-0.16,h
1796.0,2992.0,2947.0,3391.0,4095.0,3906.0,2710.0,2381.0,9.54,3.16,4.82,0.02,-0.01,-0.16,h
1799.0,2987.0,2937.0,3385.0,4095.0,3942.0,2714.0,2381.0,9.52,3.26,4.92,0.04,0.08,-0.16,h
1829.0,2985.0,2935.0,3376.0,4095.0,4005.0,2723.0,2381.0,9.58,3.17,4.87,0.04,0.08,-0.15,h
1792.0,2988.0,2938.0,3374.0,4095.0,4080.0,2730.0,2384.0,9.67,3.14,4.87,0.01,0.14,-0.11,h
1792.0,2992.0,2937.0,3375.0,4095.0,4095.0,2741.0,2399.0,9.63,3.06,5.11,0.03,0.25,-0.08,h
2527.0,2992.0,2934.0,3379.0,4095.0,4095.0,2751.0,2403.0,9.3,3.05,5.28,-0.13,0.42,-0.11,h
2672.0,2988.0,2933.0,3394.0,4095.0,4095.0,2747.0,2398.0,9.02,3.13,5.52,-0.07,0.27,-0.14,h
2629.0,2976.0,2943.0,3405.0,4095.0,4095.0,2748.0,2397.0,9.39,3.0,5.45,-0.02,0.1,-0.09,h
2624.0,2987.0,2935.0,3410.0,4095.0,4095.0,2746.0,2391.0,9.45,2.89,5.51,-0.07,0.16,-0.04,h
2589.0,2991.0,2943.0,3430.0,4095.0,4095.0,2722.0,2384.0,9.58,2.56,6.1,0.1,0.14,-0.07,h
2539.0,2978.0,2935.0,3431.0,4095.0,4095.0,2719.0,2402.0,9.06,2.1,7.36,0.17,0.11,-0.02,h
2498.0,2981.0,2941.0,3449.0,4095.0,4095.0,2713.0,2405.0,8.64,2.49,6.77,0.54,0.08,0.12,h
2478.0,2998.0,2951.0,3459.0,4095.0,4095.0,2709.0,2414.0,9.01,2.96,4.29,0.5,-0.0,0.33,h
2496.0,2992.0,2939.0,3462.0,4095.0,4095.0,2715.0,2416.0,10.09,3.14,3.12,-0.06,-0.07,0.28,h
2469.0,2978.0,2944.0,3458.0,4095.0,4095.0,2711.0,2413.0,10.56,3.03,4.03,-0.42,-0.12,0.12,h
2451.0,2990.0,2947.0,3472.0,4095.0,4095.0,2709.0,2416.0,11.33,2.94,5.57,-0.43,-0.29,-0.18,h
2465.0,2992.0,2945.0,3475.0,4095.0,4095.0,2711.0,2420.0,11.45,2.66,6.3,-0.24,-0.21,-0.49,h
2529.0,2982.0,2948.0,3479.0,4095.0,4095.0,2711.0,2423.0,10.47,2.66,6.35,0.01,-0.42,-0.81,h
2582.0,2986.0,2943.0,3482.0,4095.0,4095.0,2705.0,2427.0,9.6,2.5,6.13,0.03,-0.41,-0.84,h
2606.0,2977.0,2940.0,3482.0,4095.0,4095.0,2706.0,2426.0,8.55,2.64,5.75,0.14,0.0,-0.67,h
2630.0,2986.0,2951.0,3483.0,4095.0,4095.0,2704.0,2429.0,7.69,2.67,5.37,0.17,-0.08,-0.4,h
2697.0,2986.0,2951.0,3489.0,4095.0,4095.0,2703.0,2432.0,7.35,2.72,4.83,0.17,0.03,0.02,h
2806.0,2981.0,2947.0,3486.0,4095.0,4095.0,2704.0,2432.0,8.1,2.58,4.48,0.24,0.06,0.36,h
3056.0,2982.0,2932.0,3493.0,4095.0,4095.0,2707.0,2432.0,9.05,2.52,4.38,0.16,-0.27,0.54,h
3402.0,2985.0,2937.0,3493.0,4095.0,4095.0,2704.0,2421.0,10.15,2.54,3.96,0.27,-0.41,0.48,h
3541.0,2981.0,2944.0,3495.0,4095.0,4095.0,2706.0,2426.0,10.18,2.55,4.06,0.14,-0.21,0.46,h
3565.0,2986.0,2935.0,3501.0,4095.0,4095.0,2709.0,2413.0,11.2,2.58,4.32,-0.03,-0.11,0.36,h
3561.0,2973.0,2936.0,3504.0,4095.0,4095.0,2710.0,2405.0,12.46,2.59,4.57,0.01,-0.02,-0.01,h
3564.0,2994.0,2955.0,3506.0,4095.0,4095.0,2707.0,2400.0,12.25,2.41,4.72,0.05,0.14,-0.51,h
3567.0,2987.0,2931.0,3507.0,4095.0,4095.0,2701.0,2403.0,10.88,2.48,4.52,0.07,0.19,-0.83,h
3571.0,2987.0,2947.0,3505.0,4095.0,4095.0,2709.0,2413.0,9.84,2.37,4.48,0.01,0.21,-0.93,h
3600.0,2994.0,2944.0,3510.0,4095.0,4095.0,2710.0,2414.0,9.09,2.48,4.57,0.03,0.21,-0.86,h
3645.0,2981.0,2946.0,3513.0,4095.0,4095.0,2707.0,2418.0,8.83,2.63,4.53,-0.01,0.1,-0.71,h
3654.0,2976.0,2935.0,3504.0,4095.0,4095.0,2704.0,2418.0,8.5,2.99,4.55,0.05,0.06,-0.56,h
3659.0,2972.0,2947.0,3505.0,4095.0,4095.0,2713.0,2423.0,7.85,3.29,4.5,0.06,-0.02,-0.34,h
3664.0,2987.0,2939.0,3498.0,4095.0,4095.0,2714.0,2422.0,6.91,3.58,4.35,-0.04,-0.08,-0.02,h
3639.0,2982.0,2951.0,3502.0,4095.0,4095.0,2717.0,2423.0,7.76,3.22,4.54,-0.14,-0.04,0.41,h
3613.0,2983.0,2941.0,3502.0,4095.0,4095.0,2719.0,2423.0,9.5,2.91,4.63,-0.15,-0.16,0.52,h
3583.0,2983.0,2949.0,3506.0,4095.0,4095.0,2706.0,2416.0,10.02,3.19,3.85,-0.2,-0.15,0.48,h
3573.0,2983.0,2953.0,3504.0,4095.0,4095.0,2718.0,2416.0,10.68,2.91,3.69,-0.37,-0.14,0.37,h
3555.0,2981.0,2946.0,3504.0,4095.0,4095.0,2710.0,2416.0,11.31,2.52,4.2,-0.57,-0.2,0.12,h
3509.0,2991.0,2946.0,3504.0,4095.0,4095.0,2711.0,2414.0,11.3,2.34,5.44,-0.52,-0.21,-0.18,h
3483.0,2994.0,2930.0,3514.0,4095.0,4095.0,2701.0,2418.0,10.98,1.99,8.9,0.03,-0.14,-0.51,h
3475.0,2993.0,2942.0,3513.0,4095.0,4095.0,2704.0,2421.0,10.2,2.17,7.3,0.79,0.08,-0.64,h
3475.0,2986.0,2942.0,3520.0,4095.0,4095.0,2704.0,2426.0,9.22,2.39,5.14,0.92,0.44,-0.55,h
3491.0,2992.0,2934.0,3513.0,4095.0,4095.0,2704.0,2420.0,8.67,2.45,3.66,0.79,0.51,-0.35,h
3491.0,2991.0,2948.0,3514.0,4095.0,4095.0,2704.0,2432.0,8.43,2.43,2.97,0.5,0.37,-0.1,h
3492.0,2976.0,2934.0,3511.0,4095.0,4095.0,2705.0,2434.0,8.69,2.45,2.73,0.25,0.07,0.09,h
3519.0,2995.0,2940.0,3519.0,4095.0,4095.0,2710.0,2438.0,9.45,2.57,2.9,-0.02,-0.24,0.21,h
3539.0,2991.0,2943.0,3521.0,4095.0,4095.0,2710.0,2437.0,9.92,2.8,3.66,-0.1,-0.42,0.11,h
3536.0,2989.0,2945.0,3523.0,4095.0,4095.0,2714.0,2442.0,10.32,2.89,4.41,-0.1,-0.53,0.03,h
3486.0,2983.0,2944.0,3515.0,4095.0,4095.0,2707.0,2443.0,10.63,2.81,4.65,-0.11,-0.25,-0.09,h
3327.0,2981.0,2928.0,3520.0,4095.0,4095.0,2705.0,2444.0,10.51,2.79,4.86,-0.1,-0.04,-0.19,h
3301.0,2987.0,2944.0,3517.0,4095.0,4095.0,2707.0,2447.0,10.46,2.56,4.74,-0.05,0.16,-0.25,h
3329.0,2978.0,2933.0,3477.0,4095.0,4095.0,2717.0,2441.0,10.25,2.46,4.56,-0.01,0.42,-0.35,h
3402.0,2992.0,2937.0,3418.0,4095.0,4095.0,2730.0,2432.0,9.99,2.57,4.44,0.16,0.14,-0.5,h
3459.0,2983.0,2945.0,3373.0,4095.0,4095.0,2742.0,2420.0,9.69,2.82,4.23,0.09,0.09,-0.53,h
3505.0,3001.0,2944.0,3374.0,4095.0,4095.0,2755.0,2430.0,9.0,3.03,4.25,0.06,0.09,-0.45,h
3622.0,2978.0,2929.0,3377.0,4095.0,4095.0,2763.0,2431.0,8.67,3.15,4.62,0.05,0.07,-0.33,h
3877.0,2986.0,2949.0,3383.0,4095.0,4095.0,2768.0,2435.0,8.26,3.07,4.84,0.03,0.03,-0.15,h
3926.0,2987.0,2934.0,3382.0,4095.0,4095.0,2773.0,2428.0,8.59,3.05,4.73,0.11,0.22,0.07,h
4079.0,2985.0,2942.0,3382.0,4095.0,4095.0,2768.0,2429.0,9.6,2.8,4.9,0.06,0.28,0.25,h
4095.0,2983.0,2947.0,3390.0,4095.0,4095.0,2768.0,2432.0,10.16,2.9,4.75,0.08,0.03,0.06,h
