hall_1,hall_2,hall_3,flex_t,flex_i,flex_m,flex_r,flex_p,accel_x,accel_y,accel_z,gyro_x,gyro_y,gyro_z,sign
944.0,4095.0,2856.0,3633.0,3021.0,2601.0,2941.0,4095.0,-2.87,8.83,7.0,0.02,-0.01,-0.15,i
945.0,4095.0,2864.0,3635.0,3018.0,2592.0,2930.0,4095.0,-2.95,8.99,6.89,-0.02,-0.02,-0.15,i
949.0,4095.0,2855.0,3635.0,3022.0,2601.0,2940.0,4095.0,-2.85,8.86,7.23,-0.01,-0.02,-0.16,i
959.0,4095.0,2854.0,3631.0,3018.0,2597.0,2938.0,4095.0,-2.87,8.9,7.17,-0.01,-0.02,-0.19,i
959.0,4095.0,2853.0,3632.0,3017.0,2595.0,2934.0,4095.0,-3.04,8.82,7.07,0.05,0.04,-0.17,i
944.0,4095.0,2850.0,3632.0,3015.0,2592.0,2933.0,4095.0,-3.08,8.88,7.08,0.0,-0.01,-0.17,i
945.0,4095.0,2855.0,3635.0,3015.0,2598.0,2933.0,4095.0,-2.96,8.89,6.96,0.05,0.02,-0.11,i
943.0,4095.0,2853.0,3632.0,3018.0,2598.0,2939.0,4095.0,-3.0,8.88,6.87,-0.12,-0.08,-0.15,i
943.0,4095.0,2855.0,3643.0,3021.0,2594.0,2930.0,4095.0,-3.68,9.33,6.94,-0.2,-0.23,0.04,i
946.0,4095.0,2859.0,3657.0,3019.0,2592.0,2937.0,4095.0,-2.6,8.72,7.1,-0.39,-0.13,0.05,i
949.0,4095.0,2859.0,3657.0,3015.0,2593.0,2931.0,4095.0,-3.08,8.93,7.58,-0.33,-0.21,0.02,i
945.0,4095.0,2859.0,3649.0,3013.0,2586.0,2932.0,4095.0,-2.43,8.69,7.67,-0.33,0.07,0.05,i
946.0,4095.0,2853.0,3662.0,3010.0,2587.0,2930.0,4095.0,-2.6,8.72,7.8,-0.51,0.04,-0.0,i
955.0,4095.0,2862.0,3662.0,3007.0,2559.0,2927.0,4095.0,-2.55,8.6,8.08,-0.4,-0.07,0.03,i
941.0,4095.0,2861.0,3671.0,3019.0,2587.0,2927.0,4095.0,-1.92,8.25,8.42,-0.54,-0.03,-0.19,i
951.0,4095.0,2861.0,3666.0,3011.0,2586.0,2925.0,4095.0,-2.41,8.66,8.46,-0.27,-0.03,-0.12,i
939.0,4095.0,2855.0,3679.0,3010.0,2583.0,2931.0,4095.0,-2.26,8.03,8.81,-0.38,0.22,-0.24,i
944.0,4095.0,2864.0,3695.0,3022.0,2587.0,2935.0,4095.0,-2.44,8.42,8.92,-0.23,-0.17,-0.32,i
956.0,4095.0,2854.0,3695.0,3018.0,2587.0,2933.0,4095.0,-2.62,8.04,9.37,-0.07,-0.3,-0.41,i
944.0,4095.0,2858.0,3713.0,3022.0,2587.0,2929.0,4095.0,-2.66,8.13,9.45,0.01,-0.17,-0.4,i
956.0,4095.0,2863.0,3706.0,3022.0,2587.0,2937.0,4095.0,-2.62,7.98,9.3,0.16,-0.27,-0.19,i
944.0,4095.0,2853.0,3716.0,3024.0,2589.0,2933.0,4095.0,-2.72,8.03,9.06,0.17,0.11,-0.19,i
943.0,4095.0,2864.0,3709.0,3021.0,2593.0,2938.0,4095.0,-2.47,8.28,8.78,0.17,0.03,-0.14,i
949.0,4095.0,2861.0,3696.0,3023.0,2588.0,2935.0,4095.0,-2.53,8.01,9.07,0.31,0.05,-0.21,i
959.0,4095.0,2855.0,3706.0,3026.0,2597.0,2938.0,4095.0,-2.42,8.26,8.64,0.35,0.0,-0.29,i
937.0,4095.0,2854.0,3662.0,3025.0,2594.0,2941.0,4095.0,-2.58,7.84,8.57,0.84,0.13,-0.45,i
954.0,4095.0,2864.0,3582.0,3024.0,2598.0,2945.0,4095.0,-3.09,8.67,7.76,0.88,0.48,-0.55,i
949.0,4095.0,2858.0,3613.0,3031.0,2607.0,2958.0,4095.0,-2.98,8.83,7.16,0.83,0.26,-0.52,i
947.0,4095.0,2861.0,3635.0,3036.0,2605.0,2960.0,4095.0,-3.5,8.96,6.8,0.41,0.05,-0.39,i
949.0,4095.0,2855.0,3639.0,3037.0,2607.0,2948.0,4095.0,-3.45,8.69,6.88,0.39,0.01,-0.4,i
946.0,4095.0,2861.0,3636.0,3035.0,2599.0,2933.0,4095.0,-3.68,8.46,6.99,0.27,-0.0,-0.41,i
951.0,4095.0,2854.0,3642.0,3031.0,2595.0,2908.0,4095.0,-3.81,8.65,6.64,0.53,0.3,-0.24,i
942.0,4095.0,2864.0,3657.0,3013.0,2559.0,2863.0,4095.0,-4.16,8.88,6.53,0.35,-0.18,-0.34,i
944.0,4095.0,2853.0,3643.0,3008.0,2559.0,2817.0,3598.0,-4.02,9.23,5.58,0.57,-0.04,-0.11,i
949.0,4095.0,2864.0,3613.0,3009.0,2559.0,2815.0,3572.0,-4.07,8.99,5.78,-0.33,-0.23,0.03,i
943.0,4095.0,2858.0,3570.0,3005.0,2549.0,2806.0,3650.0,-3.36,8.63,6.33,0.06,0.0,-0.01,i
943.0,4095.0,2853.0,3539.0,3007.0,2559.0,2819.0,3886.0,-3.77,9.16,6.19,-0.49,0.1,0.07,i
946.0,4095.0,2862.0,3563.0,3024.0,2585.0,2857.0,4095.0,-3.43,8.67,6.69,-0.06,0.04,0.1,i
950.0,4095.0,2854.0,3583.0,3022.0,2589.0,2866.0,4095.0,-3.29,9.0,6.48,-0.24,-0.03,-0.02,i
945.0,4095.0,2861.0,3600.0,3035.0,2605.0,2896.0,4095.0,-3.22,8.57,6.91,0.0,-0.02,-0.13,i
950.0,4095.0,2864.0,3623.0,3042.0,2607.0,2902.0,4095.0,-3.27,8.96,6.75,-0.01,-0.16,-0.17,i
944.0,4095.0,2858.0,3614.0,3042.0,2606.0,2899.0,4095.0,-3.53,8.89,6.78,0.08,-0.01,-0.16,i
946.0,4095.0,2858.0,3622.0,3047.0,2611.0,2911.0,4095.0,-3.27,8.92,6.58,-0.1,0.01,-0.13,i
956.0,4095.0,2859.0,3619.0,3045.0,2613.0,2911.0,4095.0,-3.31,9.07,6.69,0.09,-0.05,-0.1,i
946.0,4095.0,2853.0,3619.0,3041.0,2614.0,2910.0,4095.0,-3.28,8.76,6.85,-0.02,-0.0,-0.13,i
950.0,4095.0,2864.0,3648.0,3046.0,2618.0,2911.0,4095.0,-3.14,8.92,6.68,-0.0,-0.09,-0.17,i
944.0,4095.0,2850.0,3655.0,3046.0,2624.0,2919.0,4095.0,-3.19,8.82,6.76,0.05,-0.14,-0.09,i
953.0,4095.0,2864.0,3682.0,3055.0,2628.0,2928.0,4095.0,-3.14,8.91,6.64,-0.11,-0.0,-0.13,i
949.0,1105.0,2861.0,3703.0,3055.0,2630.0,2928.0,4095.0,-3.13,8.91,6.93,-0.04,-0.1,-0.03,i
955.0,861.0,2858.0,3727.0,3056.0,2629.0,2907.0,4095.0,-2.87,9.07,6.67,-0.1,-0.15,-0.05,i
946.0,858.0,2861.0,3737.0,3054.0,2625.0,2911.0,4095.0,-3.17,8.95,6.94,-0.11,-0.06,-0.08,i
949.0,879.0,2863.0,3757.0,3056.0,2626.0,2913.0,4095.0,-3.08,8.81,7.04,-0.06,-0.03,-0.14,i
951.0,923.0,2859.0,3770.0,3057.0,2623.0,2911.0,4095.0,-3.08,8.81,7.12,0.04,-0.06,-0.1,i
950.0,919.0,2851.0,3792.0,3057.0,2624.0,2909.0,4095.0,-2.53,8.85,7.02,0.0,-0.09,-0.2,i
947.0,1088.0,2854.0,3818.0,3059.0,2625.0,2899.0,4095.0,-2.87,9.1,7.01,0.08,-0.04,-0.12,i
944.0,1296.0,2859.0,3824.0,3071.0,2634.0,2896.0,4095.0,-2.71,8.7,7.09,-0.04,0.05,-0.11,i
944.0,1680.0,2851.0,3827.0,3089.0,2639.0,2896.0,4095.0,-2.96,9.18,7.16,0.12,-0.12,-0.17,i
951.0,2001.0,2866.0,3856.0,3098.0,2642.0,2896.0,4095.0,-2.98,8.97,6.91,0.02,-0.01,-0.11,i
944.0,2511.0,2864.0,3846.0,3088.0,2639.0,2897.0,4095.0,-2.86,8.96,7.01,0.04,-0.1,-0.16,i
954.0,3137.0,2864.0,3863.0,3097.0,2641.0,2901.0,4095.0,-2.71,8.98,7.07,0.14,0.06,-0.16,i
950.0,3567.0,2861.0,3824.0,3089.0,2631.0,2899.0,4095.0,-2.77,8.87,6.94,0.08,0.07,-0.19,i
950.0,3722.0,2861.0,3780.0,3088.0,2627.0,2898.0,4095.0,-2.77,9.12,6.85,0.19,0.05,-0.21,i
946.0,3769.0,2864.0,3758.0,3093.0,2623.0,2901.0,4095.0,-2.94,9.11,6.6,0.02,-0.02,-0.19,i
959.0,3841.0,2855.0,3758.0,3087.0,2623.0,2896.0,4095.0,-2.99,8.94,6.78,0.02,0.01,-0.16,i
951.0,3821.0,2848.0,3730.0,3071.0,2613.0,2896.0,4095.0,-2.92,8.87,6.78,-0.06,0.07,-0.15,i
955.0,3807.0,2866.0,3745.0,3087.0,2621.0,2903.0,4095.0,-2.87,9.0,6.9,0.02,0.05,-0.17,i
946.0,3878.0,2859.0,3728.0,3083.0,2618.0,2906.0,4095.0,-2.77,8.84,6.83,0.03,0.04,-0.23,i
945.0,3898.0,2861.0,3727.0,3084.0,2621.0,2910.0,4095.0,-3.02,9.01,6.69,0.04,0.05,-0.23,i
945.0,3927.0,2857.0,3705.0,3071.0,2618.0,2915.0,4095.0,-2.97,8.66,6.88,0.07,0.05,-0.23,i
951.0,3903.0,2860.0,3660.0,3071.0,2620.0,2929.0,4095.0,-3.2,9.17,6.61,0.04,-0.01,-0.24,i
943.0,3907.0,2851.0,3659.0,3082.0,2625.0,2934.0,4095.0,-3.14,8.78,6.73,0.02,-0.0,-0.2,i
944.0,3956.0,2851.0,3662.0,3071.0,2622.0,2930.0,4095.0,-3.17,9.08,6.68,0.01,-0.01,-0.24,i
950.0,4003.0,2854.0,3664.0,3087.0,2624.0,2931.0,4095.0,-3.17,8.9,6.61,0.06,-0.01,-0.16,i
944.0,4066.0,2860.0,3677.0,3088.0,2624.0,2928.0,4095.0,-3.16,8.88,6.66,-0.01,-0.01,-0.16,i
944.0,4081.0,2853.0,3664.0,3086.0,2628.0,2933.0,4095.0,-3.09,8.89,6.67,0.07,0.01,-0.15,i
944.0,4095.0,2864.0,3660.0,3085.0,2631.0,2930.0,4095.0,-3.05,8.99,6.57,0.07,-0.0,-0.17,i
954.0,4095.0,2861.0,3655.0,3085.0,2627.0,2918.0,4095.0,-3.31,8.82,6.78,0.1,-0.07,-0.19,i
942.0,4095.0,2855.0,3659.0,3084.0,2633.0,2899.0,4095.0,-3.1,9.02,6.62,0.05,-0.09,-0.13,i
947.0,4095.0,2859.0,3676.0,3085.0,2630.0,2885.0,4095.0,-2.83,9.1,6.41,0.13,-0.05,-0.15,i
949.0,4095.0,2860.0,3673.0,3070.0,2624.0,2864.0,4095.0,-3.22,9.08,6.51,-0.11,-0.12,-0.11,i
944.0,4095.0,2851.0,3679.0,3069.0,2621.0,2864.0,4095.0,-3.05,8.87,6.67,0.02,0.01,-0.08,i
945.0,4095.0,2858.0,3677.0,3070.0,2625.0,2867.0,4095.0,-3.02,9.08,6.65,-0.05,-0.02,-0.12,i
943.0,4095.0,2860.0,3691.0,3070.0,2640.0,2875.0,4095.0,-3.19,8.93,6.64,-0.06,0.02,-0.05,i
935.0,3920.0,2862.0,3686.0,3071.0,2645.0,2895.0,4095.0,-2.56,8.85,6.7,-0.02,0.03,-0.06,i
951.0,3734.0,2855.0,3696.0,3071.0,2650.0,2897.0,4095.0,-3.23,9.06,6.63,-0.01,-0.03,-0.12,i
946.0,3662.0,2854.0,3722.0,3071.0,2651.0,2909.0,4095.0,-2.78,8.84,6.77,-0.07,-0.06,-0.08,i
954.0,3648.0,2864.0,3732.0,3070.0,2650.0,2912.0,4095.0,-2.93,8.97,6.93,0.03,-0.08,-0.07,i
947.0,3677.0,2855.0,3760.0,3081.0,2653.0,2909.0,4095.0,-2.82,9.1,6.73,0.04,-0.07,-0.01,i
950.0,3728.0,2858.0,3744.0,3071.0,2643.0,2897.0,4095.0,-2.38,9.03,6.61,0.11,-0.2,-0.06,i
939.0,3892.0,2861.0,3749.0,3070.0,2631.0,2864.0,4095.0,-2.76,9.11,6.75,0.05,-0.08,-0.01,i
944.0,3970.0,2858.0,3756.0,3067.0,2632.0,2855.0,4095.0,-2.51,9.19,6.57,0.05,-0.0,-0.02,i
947.0,3955.0,2853.0,3758.0,3070.0,2633.0,2862.0,4095.0,-2.53,8.92,7.13,-0.03,-0.07,-0.08,i
947.0,3973.0,2863.0,3763.0,3070.0,2631.0,2864.0,4095.0,-2.22,9.25,6.82,0.03,0.06,-0.04,i
951.0,3970.0,2864.0,3771.0,3083.0,2631.0,2864.0,4095.0,-2.23,9.07,6.69,0.02,-0.05,-0.1,i
946.0,3850.0,2857.0,3759.0,3071.0,2634.0,2879.0,4095.0,-2.38,9.21,6.53,-0.06,0.08,-0.07,i
944.0,3600.0,2862.0,3759.0,3087.0,2643.0,2898.0,4095.0,-2.3,9.08,6.76,-0.03,0.01,-0.09,i
960.0,3413.0,2858.0,3763.0,3091.0,2650.0,2910.0,4095.0,-2.17,9.06,6.9,-0.02,0.08,-0.13,i
951.0,3285.0,2859.0,3753.0,3087.0,2650.0,2925.0,4095.0,-2.13,9.21,6.81,0.08,-0.09,-0.24,i
949.0,3206.0,2857.0,3759.0,3090.0,2651.0,2930.0,4095.0,-2.43,9.01,6.92,0.06,-0.01,-0.22,i
947.0,3120.0,2849.0,3751.0,3091.0,2653.0,2931.0,4095.0,-2.5,9.14,6.93,0.07,-0.0,-0.22,i
944.0,3115.0,2864.0,3748.0,3097.0,2655.0,2933.0,4095.0,-2.49,9.07,6.87,0.02,0.04,-0.16,i
954.0,3088.0,2860.0,3751.0,3102.0,2655.0,2935.0,4095.0,-2.44,9.23,6.69,0.1,0.03,-0.18,i
951.0,3045.0,2847.0,3733.0,3093.0,2651.0,2932.0,4095.0,-2.62,9.14,6.52,0.05,-0.02,-0.14,i
944.0,2559.0,2858.0,3734.0,3098.0,2655.0,2927.0,4095.0,-2.67,9.31,6.43,0.0,0.01,-0.11,i
954.0,2066.0,2847.0,3721.0,3095.0,2661.0,2926.0,4095.0,-2.03,8.99,6.68,0.03,-0.05,-0.12,i
944.0,1920.0,2855.0,3728.0,3104.0,2659.0,2928.0,4095.0,-2.04,9.41,6.75,0.05,0.03,-0.22,i
949.0,1932.0,2853.0,3742.0,3105.0,2657.0,2927.0,4095.0,-2.43,9.05,6.9,0.06,-0.0,-0.2,i
942.0,1938.0,2857.0,3733.0,3098.0,2650.0,2917.0,4095.0,-2.56,9.24,6.71,0.16,0.02,-0.25,i
951.0,1956.0,2853.0,3727.0,3102.0,2647.0,2909.0,4095.0,-2.29,9.11,6.71,0.12,-0.02,-0.2,i
954.0,1949.0,2861.0,3728.0,3107.0,2651.0,2915.0,4095.0,-2.36,8.89,6.89,0.14,0.06,-0.19,i
945.0,1946.0,2863.0,3726.0,3105.0,2650.0,2913.0,4095.0,-3.09,9.03,6.64,0.13,0.05,-0.15,i
944.0,1957.0,2853.0,3707.0,3101.0,2654.0,2917.0,4095.0,-2.87,8.94,6.1,0.14,0.07,-0.07,i
953.0,1939.0,2858.0,3696.0,3105.0,2651.0,2909.0,4095.0,-3.02,9.53,5.69,0.13,0.05,-0.07,i
950.0,1949.0,2861.0,3685.0,3107.0,2655.0,2912.0,4095.0,-3.24,9.22,6.03,-0.03,0.09,-0.02,i
946.0,1954.0,2859.0,3696.0,3117.0,2651.0,2907.0,4095.0,-2.18,9.35,6.02,0.04,0.03,0.03,i
945.0,1968.0,2854.0,3682.0,3115.0,2651.0,2912.0,4095.0,-1.8,9.46,6.39,-0.0,0.01,-0.1,i
956.0,1967.0,2855.0,3693.0,3111.0,2641.0,2909.0,4095.0,-1.6,9.57,6.39,0.09,0.0,-0.15,i
944.0,1977.0,2861.0,3697.0,3109.0,2640.0,2910.0,4095.0,-1.72,9.56,6.25,0.03,0.01,-0.15,i
941.0,1966.0,2859.0,3694.0,3108.0,2640.0,2911.0,4095.0,-1.98,9.5,6.15,0.04,0.09,-0.16,i
949.0,1965.0,2854.0,3711.0,3106.0,2640.0,2912.0,4095.0,-1.93,9.17,6.1,-0.04,0.07,-0.19,i
944.0,1952.0,2853.0,3693.0,3104.0,2642.0,2907.0,4095.0,-2.44,9.31,6.21,0.03,0.02,-0.24,i
940.0,1959.0,2855.0,3680.0,3108.0,2643.0,2908.0,4095.0,-2.63,9.3,5.97,-0.0,0.01,-0.23,i
944.0,1955.0,2854.0,3693.0,3109.0,2645.0,2914.0,4095.0,-2.62,9.28,6.18,0.12,0.01,-0.18,i
950.0,1922.0,2860.0,3685.0,3113.0,2647.0,2918.0,4095.0,-2.33,9.3,6.19,0.01,0.1,-0.19,i
944.0,1770.0,2854.0,3669.0,3105.0,2650.0,2921.0,4095.0,-2.41,9.22,5.98,-0.0,-0.0,-0.21,i
941.0,1744.0,2863.0,3668.0,3110.0,2660.0,2929.0,4095.0,-2.68,9.22,6.15,0.01,0.01,-0.22,i
944.0,1744.0,2859.0,3674.0,3118.0,2653.0,2927.0,4095.0,-2.83,9.35,5.94,-0.01,-0.01,-0.22,i
946.0,1753.0,2851.0,3679.0,3111.0,2659.0,2927.0,4095.0,-2.82,9.07,5.97,0.05,0.03,-0.19,i
947.0,1761.0,2855.0,3686.0,3115.0,2657.0,2923.0,4095.0,-2.6,9.15,6.13,0.03,0.05,-0.24,i
957.0,1772.0,2851.0,3678.0,3117.0,2661.0,2927.0,4095.0,-2.51,9.02,6.18,0.22,0.15,-0.37,i
950.0,1773.0,2864.0,3664.0,3119.0,2663.0,2927.0,4095.0,-3.0,9.48,6.01,0.16,-0.07,-0.39,i
946.0,1760.0,2864.0,3659.0,3120.0,2657.0,2923.0,4095.0,-2.76,9.03,5.95,0.1,-0.04,-0.43,i
945.0,1758.0,2859.0,3664.0,3118.0,2659.0,2925.0,4095.0,-2.82,9.39,5.71,0.09,-0.1,-0.33,i
947.0,1739.0,2864.0,3671.0,3121.0,2669.0,2931.0,4095.0,-3.08,9.24,5.85,-0.01,0.0,-0.21,i
944.0,1680.0,2859.0,3671.0,3119.0,2671.0,2935.0,4095.0,-2.93,9.39,5.72,0.0,-0.0,-0.17,i
947.0,1605.0,2857.0,3679.0,3116.0,2666.0,2934.0,4095.0,-2.98,9.23,5.83,-0.12,0.04,-0.14,i
943.0,1524.0,2864.0,3675.0,3122.0,2667.0,2937.0,4095.0,-2.81,9.18,6.09,-0.12,-0.03,-0.16,i
944.0,1235.0,2864.0,3668.0,3119.0,2669.0,2941.0,4095.0,-3.22,9.23,6.24,-0.04,0.08,-0.05,i
944.0,902.0,2851.0,3659.0,3122.0,2666.0,2941.0,4095.0,-2.93,8.76,6.32,-0.07,0.19,-0.09,i
944.0,875.0,2863.0,3625.0,3116.0,2669.0,2941.0,4095.0,-3.18,9.12,6.28,0.14,0.02,-0.14,i
950.0,876.0,2853.0,3621.0,3106.0,2662.0,2939.0,4095.0,-2.94,9.21,6.05,0.03,0.01,-0.17,i
959.0,865.0,2854.0,3609.0,3107.0,2666.0,2943.0,4095.0,-2.84,9.17,5.8,0.05,-0.04,-0.17,i
944.0,877.0,2863.0,3612.0,3114.0,2672.0,2947.0,4095.0,-2.73,9.25,5.55,0.05,-0.01,-0.18,i
958.0,880.0,2858.0,3617.0,3104.0,2669.0,2933.0,4095.0,-2.8,9.27,5.75,0.0,-0.05,-0.17,i
945.0,879.0,2865.0,3625.0,3115.0,2671.0,2934.0,4095.0,-2.79,9.17,5.93,0.01,-0.03,-0.23,i
950.0,881.0,2851.0,3618.0,3117.0,2662.0,2929.0,4095.0,-3.21,9.25,5.91,-0.1,-0.0,-0.25,i
945.0,882.0,2859.0,3629.0,3115.0,2666.0,2934.0,4095.0,-2.96,9.1,5.99,-0.05,-0.04,-0.18,i
951.0,882.0,2862.0,3632.0,3119.0,2661.0,2929.0,4095.0,-3.0,9.12,6.25,-0.06,0.03,-0.18,i
952.0,903.0,2860.0,3632.0,3119.0,2658.0,2938.0,4095.0,-3.29,8.79,6.61,0.08,0.01,-0.14,i
939.0,915.0,2855.0,3638.0,3120.0,2656.0,2940.0,4095.0,-3.45,9.19,5.93,0.05,-0.02,-0.12,i
948.0,913.0,2857.0,3631.0,3119.0,2661.0,2946.0,4095.0,-3.7,8.84,6.06,0.03,-0.03,-0.14,i
947.0,937.0,2853.0,3632.0,3117.0,2658.0,2947.0,4095.0,-2.99,9.12,5.56,0.01,-0.08,-0.17,i
955.0,972.0,2851.0,3632.0,3120.0,2657.0,2949.0,4095.0,-2.71,9.06,6.04,0.01,0.01,-0.16,i
947.0,1008.0,2851.0,3643.0,3120.0,2646.0,2939.0,4095.0,-2.85,9.33,6.68,-0.04,-0.01,-0.21,i
958.0,1077.0,2858.0,3638.0,3115.0,2646.0,2938.0,4095.0,-2.67,9.28,6.62,0.1,0.07,-0.17,i
945.0,1088.0,2851.0,3576.0,3117.0,2653.0,2950.0,4095.0,-2.92,9.19,5.89,0.09,0.28,-0.15,i
944.0,1072.0,2855.0,3511.0,3111.0,2666.0,2945.0,4095.0,-3.8,9.0,5.77,0.05,0.5,-0.0,i
943.0,1065.0,2863.0,3517.0,3116.0,2671.0,2947.0,4095.0,-3.01,9.0,5.45,-0.14,0.09,-0.01,i
940.0,1073.0,2859.0,3535.0,3118.0,2672.0,2954.0,4095.0,-2.96,8.84,4.7,-0.2,0.04,-0.06,i
949.0,1075.0,2864.0,3562.0,3125.0,2678.0,2953.0,4095.0,-3.06,9.44,4.99,-0.38,-0.18,-0.14,i
944.0,1074.0,2861.0,3578.0,3133.0,2682.0,2955.0,4095.0,-3.15,9.18,6.74,-0.24,-0.12,-0.22,i
944.0,1066.0,2858.0,3600.0,3134.0,2674.0,2954.0,4095.0,-2.88,8.63,7.88,-0.12,-0.11,-0.17,i
944.0,1072.0,2851.0,3602.0,3135.0,2673.0,2953.0,4095.0,-2.91,8.95,7.51,0.04,-0.16,-0.1,i
938.0,1067.0,2849.0,3622.0,3138.0,2672.0,2959.0,4095.0,-3.01,9.2,6.9,0.01,0.05,-0.04,i
959.0,1042.0,2862.0,3615.0,3135.0,2678.0,2955.0,4095.0,-2.63,9.07,6.39,0.02,0.24,-0.04,i
953.0,1023.0,2855.0,3601.0,3133.0,2686.0,2958.0,4095.0,-2.62,9.23,6.04,0.12,0.16,-0.15,i
953.0,999.0,2855.0,3602.0,3135.0,2691.0,2960.0,4095.0,-3.06,9.12,6.06,0.1,0.06,-0.2,i
944.0,981.0,2851.0,3613.0,3138.0,2695.0,2966.0,4095.0,-3.15,9.09,5.99,0.1,-0.19,-0.17,i
950.0,977.0,2846.0,3619.0,3135.0,2695.0,2967.0,4095.0,-2.78,9.2,5.91,0.06,-0.23,-0.25,i
950.0,981.0,2865.0,3647.0,3136.0,2693.0,2961.0,4095.0,-3.23,9.15,6.38,0.06,-0.1,-0.18,i
946.0,1004.0,2854.0,3670.0,3131.0,2693.0,2965.0,4095.0,-3.04,9.14,6.27,0.19,0.05,-0.1,i
947.0,1013.0,2850.0,3696.0,3134.0,2690.0,2961.0,4095.0,-3.42,9.04,6.18,0.18,0.11,-0.1,i
942.0,1069.0,2863.0,3707.0,3139.0,2698.0,2962.0,4095.0,-3.12,9.06,5.62,0.25,0.06,-0.1,i
944.0,1158.0,2849.0,3699.0,3139.0,2695.0,2954.0,4095.0,-3.39,9.22,5.68,0.26,0.01,-0.11,i
940.0,1289.0,2860.0,3703.0,3138.0,2690.0,2944.0,4095.0,-2.82,9.33,5.4,0.36,-0.14,0.05,i
947.0,1342.0,2864.0,3724.0,3137.0,2687.0,2940.0,4095.0,-2.5,9.49,5.27,0.18,-0.01,0.01,i
954.0,1421.0,2861.0,3735.0,3133.0,2675.0,2930.0,4095.0,-2.24,9.82,5.33,-0.02,-0.2,0.06,i
947.0,1571.0,2861.0,3710.0,3131.0,2672.0,2923.0,4095.0,-2.32,9.1,5.72,-0.08,-0.06,0.03,i
946.0,1648.0,2854.0,3693.0,3122.0,2671.0,2921.0,4095.0,-2.16,9.38,5.75,0.03,0.03,-0.02,i
951.0,1677.0,2865.0,3664.0,3118.0,2672.0,2911.0,4095.0,-2.18,9.41,5.68,0.14,0.03,-0.16,i
941.0,1728.0,2845.0,3632.0,3115.0,2667.0,2912.0,4095.0,-2.1,9.31,5.52,0.11,0.01,-0.2,i
944.0,1799.0,2859.0,3613.0,3114.0,2670.0,2917.0,4095.0,-2.5,9.4,5.55,0.09,-0.02,-0.2,i
947.0,1885.0,2858.0,3661.0,3111.0,2666.0,2918.0,4095.0,-2.37,9.35,5.58,0.06,-0.03,-0.15,i
954.0,2499.0,2858.0,3716.0,3088.0,2657.0,2898.0,4095.0,-2.04,9.26,5.82,0.16,-0.08,-0.19,i
949.0,3346.0,2864.0,3760.0,3095.0,2647.0,2882.0,4095.0,-2.0,9.56,5.32,0.2,-0.05,-0.2,i
959.0,3697.0,2859.0,3779.0,3089.0,2643.0,2883.0,4095.0,-2.32,9.53,5.47,0.07,-0.03,-0.25,i
965.0,3871.0,2859.0,3809.0,3093.0,2650.0,2890.0,4095.0,-2.43,9.57,5.63,0.02,-0.01,-0.23,i
963.0,3947.0,2857.0,3824.0,3101.0,2655.0,2896.0,4095.0,-2.46,9.39,5.38,-0.01,0.11,-0.16,i
961.0,3909.0,2865.0,3826.0,3101.0,2661.0,2896.0,4095.0,-2.38,9.42,5.37,-0.08,0.09,-0.14,i
967.0,3883.0,2852.0,3822.0,3107.0,2660.0,2906.0,4095.0,-2.14,9.24,5.29,-0.01,0.11,-0.15,i
960.0,3809.0,2858.0,3826.0,3108.0,2669.0,2905.0,4095.0,-2.54,9.6,5.12,-0.03,-0.0,-0.18,i
966.0,3823.0,2871.0,3837.0,3106.0,2663.0,2903.0,4095.0,-2.47,9.2,5.46,-0.02,0.02,-0.23,i
960.0,3825.0,2855.0,3831.0,3107.0,2662.0,2909.0,4095.0,-2.76,9.69,5.35,-0.05,-0.12,-0.13,i
951.0,3843.0,2857.0,3845.0,3118.0,2666.0,2908.0,4095.0,-2.65,9.28,5.37,-0.05,0.05,-0.06,i
960.0,3834.0,2864.0,3839.0,3110.0,2669.0,2911.0,4095.0,-2.58,9.42,5.2,-0.09,0.03,-0.15,i
949.0,3831.0,2854.0,3835.0,3109.0,2666.0,2907.0,4095.0,-2.59,9.31,5.41,0.05,0.03,-0.17,i
960.0,3806.0,2864.0,3840.0,3115.0,2671.0,2915.0,4095.0,-2.6,9.47,5.55,0.06,0.02,-0.2,i
960.0,3792.0,2864.0,3837.0,3119.0,2670.0,2912.0,4095.0,-3.1,9.33,5.31,0.09,0.06,-0.15,i
959.0,3763.0,2864.0,3831.0,3115.0,2672.0,2918.0,4095.0,-2.89,9.26,4.84,-0.05,0.11,-0.07,i
959.0,3734.0,2864.0,3813.0,3113.0,2672.0,2919.0,4095.0,-2.53,9.35,4.9,-0.18,0.05,-0.05,i
958.0,3710.0,2857.0,3818.0,3120.0,2672.0,2925.0,4095.0,-2.27,9.29,5.67,-0.14,0.04,-0.08,i
953.0,3678.0,2855.0,3815.0,3114.0,2672.0,2925.0,4095.0,-2.32,9.34,5.65,-0.08,0.04,-0.09,i
966.0,3687.0,2863.0,3825.0,3122.0,2672.0,2925.0,4095.0,-2.07,9.38,5.62,-0.03,-0.03,-0.19,i
957.0,3686.0,2858.0,3824.0,3123.0,2675.0,2932.0,4095.0,-2.23,9.44,5.94,-0.02,-0.09,-0.19,i
947.0,3705.0,2858.0,3823.0,3123.0,2673.0,2933.0,4095.0,-2.1,9.4,5.99,0.0,-0.01,-0.16,i
953.0,3714.0,2851.0,3813.0,3123.0,2672.0,2930.0,4095.0,-2.22,9.29,6.16,0.06,0.01,-0.19,i
954.0,3676.0,2849.0,3810.0,3129.0,2676.0,2928.0,4095.0,-2.5,9.5,5.64,0.02,0.1,-0.19,i
954.0,3621.0,2864.0,3823.0,3120.0,2677.0,2933.0,4095.0,-2.64,9.39,5.62,0.11,0.01,-0.22,i
961.0,3509.0,2864.0,3815.0,3125.0,2687.0,2934.0,4095.0,-2.32,9.35,5.27,-0.0,-0.04,-0.22,i
958.0,3401.0,2863.0,3828.0,3123.0,2686.0,2943.0,4095.0,-2.28,9.57,5.59,0.08,-0.04,-0.2,i
963.0,3353.0,2862.0,3827.0,3134.0,2691.0,2950.0,4095.0,-1.88,9.39,5.68,-0.01,0.01,-0.24,i
957.0,3243.0,2851.0,3823.0,3123.0,2688.0,2954.0,4095.0,-2.47,9.37,5.84,0.04,0.04,-0.26,i
958.0,3229.0,2863.0,3824.0,3126.0,2688.0,2953.0,4095.0,-2.98,9.33,5.49,0.09,0.09,-0.24,i
954.0,3181.0,2853.0,3824.0,3131.0,2694.0,2957.0,4095.0,-3.05,9.38,4.84,0.03,0.07,-0.21,i
955.0,3182.0,2852.0,3809.0,3125.0,2691.0,2953.0,4095.0,-3.12,9.31,5.03,0.03,0.0,-0.22,i
957.0,3181.0,2864.0,3825.0,3132.0,2691.0,2957.0,4095.0,-3.01,9.19,5.31,0.06,-0.01,-0.17,i
955.0,3180.0,2864.0,3823.0,3138.0,2692.0,2960.0,4095.0,-3.02,9.43,5.3,0.08,-0.06,-0.21,i
965.0,3191.0,2848.0,3820.0,3122.0,2683.0,2955.0,4095.0,-2.74,9.38,5.29,0.06,-0.07,-0.16,i
959.0,3200.0,2860.0,3819.0,3120.0,2682.0,2960.0,4095.0,-2.91,9.25,5.62,-0.06,-0.06,-0.17,i
961.0,3195.0,2859.0,3822.0,3126.0,2688.0,2960.0,4095.0,-2.74,9.38,5.52,-0.02,-0.03,-0.14,i
944.0,3200.0,2854.0,3821.0,3130.0,2686.0,2958.0,4095.0,-2.72,9.18,5.43,-0.04,-0.03,-0.19,i
961.0,3190.0,2864.0,3814.0,3126.0,2687.0,2960.0,4095.0,-2.94,9.35,5.46,-0.02,-0.06,-0.18,i
959.0,3200.0,2858.0,3826.0,3133.0,2687.0,2960.0,4095.0,-2.88,9.24,5.52,0.01,-0.1,-0.19,i
945.0,3215.0,2857.0,3823.0,3131.0,2689.0,2964.0,4095.0,-3.11,9.3,5.8,0.0,-0.05,-0.13,i
948.0,3229.0,2864.0,3824.0,3124.0,2687.0,2959.0,4095.0,-2.84,9.36,5.64,-0.05,-0.04,-0.12,i
949.0,3242.0,2861.0,3818.0,3127.0,2685.0,2959.0,4095.0,-2.8,9.22,5.6,-0.04,0.03,-0.14,i
944.0,3232.0,2862.0,3815.0,3133.0,2688.0,2960.0,4095.0,-2.71,9.34,5.43,-0.07,0.03,-0.12,i
