hall_1,hall_2,hall_3,flex_t,flex_i,flex_m,flex_r,flex_p,accel_x,accel_y,accel_z,gyro_x,gyro_y,gyro_z,sign
2878.0,2868.0,2864.0,3906.0,4095.0,4095.0,2851.0,2831.0,-1.69,9.54,-0.44,-0.15,0.03,-0.0,k
2877.0,2880.0,2863.0,3920.0,4095.0,4095.0,2850.0,2829.0,-1.92,9.62,-0.6,-0.13,-0.84,0.5,k
2870.0,2870.0,2853.0,3923.0,4095.0,4095.0,2848.0,2829.0,-1.13,9.47,-0.1,-0.25,-0.97,0.58,k
2880.0,2875.0,2864.0,3920.0,4095.0,4095.0,2849.0,2832.0,0.73,9.29,0.5,-0.5,-1.41,0.77,k
2875.0,2866.0,2853.0,3905.0,4095.0,4095.0,2846.0,2832.0,0.98,9.52,0.75,-0.28,-0.87,0.44,k
869.0,2870.0,2847.0,3905.0,4095.0,4095.0,2848.0,2831.0,1.62,9.56,1.06,-0.1,-0.47,0.22,k
2876.0,2863.0,2857.0,3904.0,4095.0,4095.0,2846.0,2832.0,2.04,9.54,0.95,0.12,0.23,-0.29,k
2870.0,2868.0,2854.0,3907.0,4095.0,4095.0,2848.0,2828.0,0.29,9.49,0.38,0.82,2.74,-1.38,k
2871.0,2867.0,2848.0,3895.0,4095.0,4095.0,2854.0,2832.0,-1.28,9.6,-1.02,0.3,1.02,-0.72,k
2875.0,2867.0,2858.0,3907.0,4095.0,4095.0,2847.0,2832.0,-1.59,9.49,-0.9,0.08,-0.36,0.01,k
2874.0,2874.0,2847.0,3905.0,4095.0,4095.0,2851.0,2833.0,0.04,9.67,-0.99,-0.6,-2.19,1.06,k
2871.0,2870.0,2853.0,3918.0,4095.0,4095.0,2850.0,2832.0,1.6,9.71,0.35,-0.66,-1.89,1.0,k
2875.0,2878.0,2853.0,3909.0,4095.0,4095.0,2850.0,2832.0,2.06,9.83,1.01,-0.19,-0.62,0.48,k
2871.0,2871.0,2862.0,3911.0,4095.0,4095.0,2850.0,2836.0,1.85,9.55,0.55,-0.12,-0.14,-0.06,k
2881.0,2881.0,2853.0,3936.0,4095.0,4095.0,2847.0,2839.0,1.92,8.95,0.47,-0.57,0.09,-0.2,k
2871.0,2867.0,2859.0,3930.0,4095.0,4095.0,2838.0,2839.0,1.43,9.17,0.92,-0.62,0.01,-0.1,k
2878.0,2874.0,2855.0,3919.0,4095.0,4095.0,2845.0,2850.0,0.92,9.75,2.7,-0.05,-0.15,-0.02,k
2886.0,2880.0,2863.0,3926.0,4095.0,4095.0,2833.0,2835.0,1.69,9.88,1.8,0.34,-0.11,-0.08,k
2896.0,2886.0,2849.0,4015.0,4095.0,4095.0,2839.0,2843.0,0.92,9.27,0.52,0.21,0.06,-0.17,k
2897.0,2882.0,2855.0,4095.0,4095.0,4095.0,2832.0,2846.0,0.98,9.49,0.83,0.07,0.12,-0.24,k
2895.0,2878.0,2851.0,4018.0,4095.0,4095.0,2836.0,2854.0,0.84,9.32,0.92,0.02,0.06,-0.08,k
2890.0,2875.0,2862.0,3843.0,4095.0,4095.0,2839.0,2863.0,0.83,9.8,0.97,0.25,-0.13,-0.07,k
2891.0,2880.0,2863.0,3805.0,4095.0,4095.0,2845.0,2868.0,1.1,10.12,0.38,0.1,0.05,-0.04,k
2882.0,2871.0,2854.0,3728.0,4095.0,4095.0,2853.0,2859.0,0.94,9.95,0.19,-0.01,0.24,-0.07,k
2889.0,2867.0,2855.0,3690.0,4095.0,4095.0,2861.0,2850.0,0.79,9.37,0.47,0.0,0.06,0.04,k
2882.0,2862.0,2852.0,3634.0,3952.0,4095.0,2863.0,2848.0,1.03,9.61,0.27,0.0,0.07,-0.02,k
2887.0,2868.0,2857.0,3607.0,3923.0,4095.0,2869.0,2849.0,1.06,9.7,0.31,-0.03,0.03,-0.01,k
2885.0,2865.0,2849.0,3621.0,4095.0,4095.0,2867.0,2849.0,1.12,9.81,0.19,-0.06,0.06,-0.06,k
2889.0,2867.0,2861.0,3727.0,4095.0,4095.0,2864.0,2863.0,0.98,9.49,0.62,-0.16,0.05,-0.17,k
2893.0,2871.0,2858.0,3991.0,4095.0,4095.0,2865.0,2857.0,0.38,9.52,0.31,-0.03,0.07,-0.08,k
2894.0,2875.0,2850.0,4095.0,4095.0,4095.0,2857.0,2851.0,0.88,9.67,0.42,-0.03,0.06,-0.04,k
2896.0,2879.0,2845.0,4095.0,4095.0,4095.0,2860.0,2862.0,0.48,9.72,0.53,0.08,-0.08,-0.02,k
2894.0,2865.0,2855.0,4095.0,4095.0,4095.0,2862.0,2865.0,0.74,10.14,0.18,0.12,0.01,-0.09,k
2896.0,2877.0,2853.0,4095.0,4095.0,4095.0,2853.0,2871.0,0.41,9.3,-0.04,-0.11,0.16,-0.07,k
2892.0,2865.0,2858.0,4095.0,4095.0,4095.0,2847.0,2878.0,0.27,9.18,0.38,-0.04,0.05,-0.17,k
2894.0,2873.0,2858.0,4095.0,4095.0,4095.0,2855.0,2881.0,0.34,9.46,0.4,0.03,-0.07,-0.06,k
2884.0,2874.0,2855.0,3893.0,4095.0,4095.0,2843.0,2883.0,0.33,9.69,0.18,0.13,-0.19,-0.0,k
2882.0,2869.0,2848.0,3799.0,4095.0,4095.0,2845.0,2878.0,0.68,9.5,0.23,0.07,-0.23,0.13,k
2879.0,2864.0,2855.0,3799.0,4095.0,4095.0,2859.0,2880.0,0.85,9.96,-0.09,-0.01,0.0,0.06,k
2877.0,2868.0,2858.0,3760.0,4095.0,4095.0,2871.0,2865.0,0.52,9.56,-0.05,-0.06,0.18,0.01,k
2878.0,2871.0,2862.0,3726.0,4095.0,4095.0,2869.0,2823.0,0.64,9.75,-0.22,-0.03,0.1,-0.01,k
2875.0,2862.0,2847.0,3729.0,4095.0,4095.0,2853.0,2790.0,0.69,9.43,-0.16,-0.0,0.06,-0.1,k
2866.0,2864.0,2853.0,3770.0,4095.0,4095.0,2832.0,2789.0,0.36,9.34,-0.05,-0.02,-0.03,0.1,k
2865.0,2861.0,2853.0,3835.0,4095.0,4095.0,2762.0,2802.0,0.8,9.77,-0.01,-0.09,-0.09,0.04,k
2865.0,2863.0,2859.0,3864.0,4095.0,4095.0,2736.0,2832.0,0.96,9.73,-0.04,-0.09,-0.09,0.02,k
2869.0,2854.0,2861.0,3856.0,4095.0,4095.0,2736.0,2832.0,0.71,9.75,0.26,-0.05,0.04,0.01,k
2862.0,2858.0,2860.0,3853.0,4095.0,4095.0,2717.0,2809.0,0.93,9.85,0.18,-0.05,0.08,-0.04,k
2864.0,2855.0,2864.0,3843.0,4095.0,4095.0,2703.0,2806.0,0.91,9.67,0.26,-0.02,0.02,-0.03,k
2869.0,2863.0,2859.0,3792.0,4095.0,4095.0,2723.0,2787.0,0.51,9.36,0.17,0.04,0.02,0.02,k
2865.0,2862.0,2851.0,3669.0,4095.0,4095.0,2827.0,2800.0,0.46,9.47,-0.01,-0.0,0.1,-0.02,k
2871.0,2867.0,2855.0,3623.0,4095.0,4095.0,2896.0,2823.0,0.69,9.18,-0.27,-0.16,0.01,0.04,k
2870.0,2865.0,2859.0,3623.0,4095.0,4095.0,2944.0,2847.0,0.98,9.59,0.1,-0.17,-0.14,0.02,k
2873.0,2864.0,2854.0,3619.0,4095.0,4095.0,3002.0,2889.0,1.09,9.78,0.31,-0.09,-0.07,0.03,k
2878.0,2864.0,2865.0,3635.0,4095.0,4095.0,3035.0,2919.0,0.91,9.88,0.14,0.01,-0.05,0.27,k
2876.0,2864.0,2863.0,3681.0,4095.0,4095.0,2992.0,2867.0,1.79,9.62,0.53,0.15,-0.29,0.22,k
2868.0,2860.0,2863.0,3697.0,4095.0,4095.0,2975.0,2847.0,1.13,9.26,0.05,-0.09,0.24,0.02,k
2871.0,2864.0,2854.0,3697.0,4095.0,4095.0,2976.0,2854.0,0.88,9.73,0.46,0.4,1.86,-0.73,k
2864.0,2864.0,2859.0,3696.0,4095.0,4095.0,2970.0,2854.0,0.34,9.64,-0.46,0.21,1.18,-0.58,k
2865.0,2857.0,2849.0,3696.0,4095.0,4095.0,2967.0,2861.0,-0.95,9.72,-0.7,0.13,0.92,-0.45,k
2869.0,2868.0,2851.0,3689.0,4095.0,4095.0,2971.0,2864.0,-1.33,9.53,-0.75,-0.03,0.27,-0.1,k
2868.0,2875.0,2857.0,3689.0,4095.0,4095.0,2963.0,2870.0,-1.08,9.69,-0.57,-0.15,-0.74,0.44,k
2870.0,2864.0,2858.0,3703.0,4095.0,4095.0,2959.0,2865.0,0.25,9.72,-0.23,-0.4,-1.71,0.78,k
2875.0,2859.0,2851.0,3695.0,4095.0,4095.0,2955.0,2865.0,1.08,9.64,0.4,-0.28,-1.2,0.66,k
2874.0,2869.0,2851.0,3692.0,4095.0,4095.0,2955.0,2871.0,1.97,9.53,0.36,-0.16,-0.94,0.4,k
2873.0,2868.0,2854.0,3687.0,4095.0,4095.0,2947.0,2867.0,2.86,9.29,0.62,-0.12,-1.0,0.43,k
2881.0,2859.0,2853.0,3644.0,4095.0,4095.0,2951.0,2865.0,3.11,9.75,0.19,-0.05,-0.37,0.12,k
2876.0,2870.0,2853.0,3679.0,4095.0,4095.0,2960.0,2873.0,2.17,9.58,-0.24,-0.2,0.11,-0.24,k
2871.0,2866.0,2858.0,3698.0,4095.0,4095.0,2951.0,2876.0,2.4,9.64,0.25,-0.5,0.52,-0.08,k
2880.0,2871.0,2853.0,3677.0,4095.0,4095.0,2943.0,2887.0,2.51,10.02,0.87,-0.69,0.77,-0.26,k
2881.0,2864.0,2855.0,3664.0,4095.0,4095.0,2927.0,2897.0,1.46,9.62,1.95,-0.59,0.76,-0.42,k
2875.0,2869.0,2853.0,3669.0,4095.0,4095.0,2926.0,2903.0,0.67,9.35,2.67,-0.51,0.66,-0.24,k
2877.0,2869.0,2851.0,3662.0,4095.0,4095.0,2927.0,2911.0,0.71,8.93,3.2,-0.5,0.43,-0.12,k
2875.0,2868.0,2861.0,3669.0,4095.0,4095.0,2926.0,2911.0,0.14,8.49,3.67,-0.28,0.34,-0.05,k
2880.0,2864.0,2861.0,3665.0,4095.0,4095.0,2927.0,2911.0,0.76,8.61,3.95,0.47,-0.23,0.01,k
2873.0,2875.0,2862.0,3687.0,4095.0,4095.0,2928.0,2899.0,1.16,9.31,2.65,1.16,-0.32,-0.12,k
2870.0,2859.0,2858.0,3664.0,4095.0,4095.0,2929.0,2880.0,1.15,9.14,0.76,1.27,-0.18,-0.23,k
2871.0,2864.0,2859.0,3666.0,4095.0,4095.0,2940.0,2866.0,0.48,9.42,-0.59,0.76,0.17,-0.3,k
2874.0,2859.0,2852.0,3669.0,4095.0,4095.0,2935.0,2870.0,0.62,9.93,-1.07,0.05,0.12,-0.1,k
2874.0,2871.0,2851.0,3675.0,4095.0,4095.0,2939.0,2880.0,0.36,9.98,-0.45,-0.81,0.3,0.12,k
2869.0,2864.0,2853.0,3686.0,4095.0,4095.0,2939.0,2891.0,0.99,9.91,0.98,-0.96,0.25,0.16,k
2866.0,2862.0,2855.0,3674.0,4095.0,4095.0,2928.0,2899.0,1.64,10.35,1.73,-0.75,0.59,-0.37,k
2875.0,2869.0,2855.0,3669.0,4095.0,4095.0,2917.0,2918.0,0.28,9.8,2.32,-1.01,0.7,-0.43,k
2869.0,2864.0,2857.0,3675.0,4095.0,4095.0,2909.0,2924.0,-0.23,9.22,3.0,-0.76,0.45,-0.28,k
2865.0,2866.0,2853.0,3678.0,4095.0,4095.0,2902.0,2928.0,-0.51,9.06,3.6,-0.6,0.48,-0.25,k
2870.0,2864.0,2853.0,3683.0,4095.0,4095.0,2906.0,2934.0,-1.04,8.45,4.25,-0.54,0.32,-0.17,k
2866.0,2864.0,2855.0,3690.0,4095.0,4095.0,2913.0,2943.0,-0.96,8.12,4.87,0.14,0.12,-0.01,k
2873.0,2864.0,2864.0,3702.0,4095.0,4095.0,2919.0,2938.0,-0.69,8.06,4.6,0.58,-0.3,0.12,k
2871.0,2866.0,2855.0,3715.0,4095.0,4095.0,2922.0,2928.0,-0.74,8.46,3.87,1.0,-0.55,0.18,k
2871.0,2864.0,2863.0,3728.0,4095.0,4095.0,2919.0,2909.0,-0.7,8.69,2.68,0.57,-0.48,0.18,k
2873.0,2867.0,2862.0,3750.0,4095.0,4095.0,2913.0,2901.0,-0.07,8.99,2.33,0.44,-0.35,0.06,k
2879.0,2863.0,2850.0,3760.0,4095.0,4095.0,2921.0,2891.0,-0.55,9.05,2.06,0.62,0.03,0.04,k
2873.0,2864.0,2854.0,3761.0,4095.0,4095.0,2918.0,2878.0,-0.64,9.05,1.67,0.61,0.04,0.06,k
2869.0,2864.0,2859.0,3751.0,4095.0,4095.0,2911.0,2865.0,-0.11,9.21,0.64,0.74,-0.18,0.09,k
2875.0,2874.0,2859.0,3742.0,4095.0,4095.0,2921.0,2864.0,-0.76,8.92,0.12,0.69,-0.5,0.12,k
2871.0,2866.0,2859.0,3744.0,4095.0,4095.0,2921.0,2859.0,-0.6,9.74,-1.74,0.04,-1.77,1.1,k
2876.0,2864.0,2851.0,3727.0,4095.0,4095.0,2927.0,2861.0,3.29,9.72,0.42,-0.07,-0.21,0.3,k
2877.0,2865.0,2859.0,3733.0,4095.0,4095.0,2922.0,2865.0,2.17,9.62,-0.03,0.25,1.93,-0.95,k
2874.0,2864.0,2861.0,3739.0,4095.0,4095.0,2926.0,2871.0,0.12,9.84,-0.46,0.2,1.45,-0.71,k
2875.0,2866.0,2849.0,3743.0,4095.0,4095.0,2931.0,2873.0,-0.52,9.45,-0.91,0.08,1.16,-0.64,k
2875.0,2868.0,2864.0,3742.0,4095.0,4095.0,2932.0,2878.0,-2.26,9.43,-1.61,0.18,1.78,-0.72,k
2874.0,2867.0,2864.0,3749.0,4095.0,4095.0,2931.0,2879.0,-1.85,9.38,-1.31,-0.03,1.0,-0.54,k
2874.0,2862.0,2856.0,3733.0,4095.0,4095.0,2938.0,2885.0,-3.08,9.38,-1.51,-0.08,0.36,-0.2,k
2874.0,2869.0,2857.0,3732.0,4095.0,4095.0,2931.0,2883.0,-2.52,9.43,-1.44,-0.29,-1.87,0.89,k
2878.0,2864.0,2858.0,3739.0,4095.0,4095.0,2929.0,2890.0,-0.94,9.37,-0.25,-0.37,-1.57,0.8,k
2868.0,2863.0,2855.0,3745.0,4095.0,4095.0,2927.0,2887.0,-0.4,9.66,0.03,-0.2,-1.2,0.57,k
2876.0,2864.0,2857.0,3744.0,4095.0,4095.0,2928.0,2896.0,0.27,9.39,0.55,-0.28,-1.29,0.57,k
2874.0,2870.0,2861.0,3760.0,4095.0,4095.0,2928.0,2891.0,2.52,9.39,0.71,-0.2,-1.25,0.54,k
2867.0,2871.0,2858.0,3769.0,4095.0,4095.0,2929.0,2896.0,2.23,9.81,0.24,-0.13,-0.03,-0.19,k
2876.0,2869.0,2858.0,3761.0,4095.0,4095.0,2928.0,2896.0,1.14,8.57,0.52,-0.76,0.46,-0.45,k
2879.0,2864.0,2859.0,3758.0,4095.0,4095.0,2919.0,2910.0,-0.03,7.89,1.64,-0.84,0.54,-0.52,k
2873.0,2869.0,2858.0,3734.0,4095.0,4095.0,2918.0,2923.0,-0.04,8.67,2.32,-0.56,0.27,-0.33,k
2874.0,2874.0,2857.0,3727.0,4095.0,4095.0,2918.0,2923.0,0.04,9.17,3.09,0.11,0.06,-0.03,k
2878.0,2866.0,2855.0,3723.0,4095.0,4095.0,2928.0,2918.0,0.14,9.38,2.29,0.85,0.61,-0.1,k
2879.0,2868.0,2860.0,3717.0,4095.0,4095.0,2923.0,2896.0,1.47,9.66,0.89,1.06,0.09,-0.2,k
2876.0,2864.0,2861.0,3699.0,4095.0,4095.0,2917.0,2880.0,0.57,9.37,-0.45,0.84,0.05,-0.13,k
2873.0,2862.0,2857.0,3682.0,4095.0,4095.0,2928.0,2873.0,0.99,9.51,-1.58,0.62,-0.33,0.06,k
2865.0,2865.0,2859.0,3687.0,4095.0,4095.0,2923.0,2864.0,0.66,9.55,-2.32,0.04,-0.41,0.24,k
2877.0,2865.0,2861.0,3708.0,4095.0,4095.0,2915.0,2880.0,0.92,9.08,-0.68,-0.84,-0.54,0.19,k
2873.0,2865.0,2855.0,3702.0,4095.0,4095.0,2918.0,2895.0,0.85,9.75,0.49,-0.63,-0.17,-0.11,k
2871.0,2869.0,2858.0,3698.0,4095.0,4095.0,2913.0,2894.0,0.99,8.82,1.51,-0.22,0.16,-0.18,k
2870.0,2865.0,2858.0,3701.0,4095.0,4095.0,2918.0,2898.0,-0.52,9.78,-0.07,0.17,-0.11,0.24,k
2880.0,2866.0,2860.0,3673.0,4095.0,4095.0,2928.0,2893.0,0.37,9.36,0.31,-0.02,-0.3,0.15,k
2878.0,2862.0,2853.0,3679.0,3799.0,4095.0,2927.0,2881.0,0.26,9.64,-0.02,0.15,-0.04,0.01,k
2880.0,2864.0,2862.0,3674.0,3650.0,4095.0,2929.0,2887.0,0.52,9.87,0.07,0.02,-0.01,0.08,k
2885.0,2864.0,2855.0,3683.0,3902.0,4095.0,2928.0,2890.0,0.69,9.85,0.19,-0.08,0.0,-0.03,k
2885.0,2875.0,2854.0,3714.0,4095.0,4095.0,2927.0,2893.0,0.37,9.67,0.1,-0.06,0.04,-0.0,k
2875.0,2864.0,2850.0,3761.0,4095.0,4095.0,2922.0,2891.0,0.78,9.79,-0.01,-0.04,-0.05,0.04,k
2869.0,2871.0,2854.0,3810.0,4095.0,4095.0,2897.0,2900.0,0.59,9.55,0.3,-0.09,-0.06,-0.07,k
2877.0,2866.0,2857.0,3874.0,4095.0,4095.0,2864.0,2905.0,0.34,9.6,0.5,-0.04,0.03,-0.2,k
2882.0,2864.0,2852.0,3973.0,4095.0,4095.0,2848.0,2911.0,-0.03,9.55,0.34,-0.05,-0.08,-0.02,k
2878.0,2877.0,2863.0,4070.0,4095.0,4095.0,2839.0,2912.0,0.41,9.82,0.49,-0.03,-0.09,0.08,k
2889.0,2874.0,2861.0,4094.0,4095.0,4095.0,2851.0,2913.0,0.56,9.62,0.4,-0.02,-0.04,-0.03,k
2883.0,2871.0,2858.0,4054.0,4095.0,4095.0,2852.0,2909.0,0.31,10.08,0.34,0.02,0.14,-0.11,k
2889.0,2877.0,2857.0,3997.0,4095.0,4095.0,2863.0,2907.0,0.07,9.32,0.19,-0.01,0.05,-0.01,k
2887.0,2873.0,2850.0,4066.0,4095.0,4095.0,2864.0,2899.0,-0.13,9.39,0.57,0.08,0.1,-0.06,k
2895.0,2873.0,2864.0,4095.0,4095.0,4095.0,2864.0,2897.0,0.25,9.62,0.15,0.07,-0.05,0.07,k
2902.0,2878.0,2850.0,4095.0,4095.0,4095.0,2870.0,2899.0,0.1,9.71,-0.28,0.11,0.18,-0.06,k
2891.0,2883.0,2858.0,4084.0,4095.0,4095.0,2871.0,2911.0,0.29,9.39,-0.03,-0.1,0.01,-0.12,k
2879.0,2874.0,2850.0,3920.0,4095.0,4095.0,2871.0,2917.0,0.23,9.55,0.27,-0.09,-0.0,-0.1,k
2880.0,2874.0,2848.0,3984.0,4095.0,4095.0,2876.0,2918.0,-0.05,9.11,0.06,-0.12,-0.03,0.02,k
2887.0,2876.0,2849.0,4095.0,4095.0,4095.0,2864.0,2913.0,0.1,9.56,0.08,0.01,-0.06,0.02,k
2883.0,2881.0,2857.0,4095.0,4095.0,4095.0,2867.0,2912.0,0.42,9.28,0.34,-0.09,-0.0,-0.15,k
2881.0,2878.0,2855.0,4095.0,4095.0,4095.0,2875.0,2915.0,-0.06,9.54,0.17,-0.0,0.08,-0.03,k
2883.0,2882.0,2860.0,4095.0,4095.0,4095.0,2880.0,2925.0,-0.14,9.73,-0.21,0.04,0.14,-0.09,k
2880.0,2869.0,2853.0,4095.0,4095.0,4095.0,2879.0,2929.0,-0.47,9.36,0.04,-0.07,0.11,-0.01,k
2878.0,2864.0,2858.0,4095.0,4095.0,4095.0,2875.0,2919.0,-0.11,9.33,0.23,-0.09,0.15,-0.01,k
2880.0,2878.0,2858.0,4042.0,4095.0,4095.0,2864.0,2896.0,0.77,9.79,0.11,-0.27,0.74,-0.16,k
2877.0,2875.0,2859.0,3969.0,4095.0,4095.0,2880.0,2896.0,-0.95,9.57,-0.09,0.05,1.8,-0.55,k
2877.0,2867.0,2858.0,3925.0,4095.0,4095.0,2892.0,2888.0,-0.99,9.42,0.14,-0.2,0.02,0.06,k
2867.0,2868.0,2855.0,3902.0,4095.0,4095.0,2887.0,2878.0,-0.75,9.58,0.48,0.06,-0.29,0.19,k
2874.0,2863.0,2851.0,3869.0,4095.0,4095.0,2880.0,2885.0,0.64,10.19,0.06,-0.07,-1.19,0.38,k
2873.0,2864.0,2850.0,3867.0,4095.0,4095.0,2850.0,2869.0,0.04,9.88,0.26,-0.02,-0.9,0.49,k
2859.0,2864.0,2863.0,3866.0,4095.0,4095.0,2803.0,2870.0,0.67,9.56,-0.09,-0.02,-0.31,0.26,k
2854.0,2863.0,2848.0,3885.0,4095.0,4095.0,2819.0,2931.0,1.58,9.61,0.32,0.05,-0.03,-0.05,k
2860.0,2859.0,2861.0,3876.0,4095.0,4095.0,2811.0,2931.0,1.25,9.6,-0.1,0.01,-0.22,-0.05,k
2851.0,2858.0,2858.0,3888.0,4095.0,4095.0,2774.0,2912.0,0.67,9.49,0.05,0.08,-0.09,-0.06,k
2845.0,2863.0,2859.0,3867.0,4095.0,4095.0,2734.0,2864.0,0.43,9.83,-0.19,0.15,0.02,-0.05,k
2854.0,2864.0,2853.0,3795.0,4095.0,4095.0,2709.0,2811.0,0.84,10.02,-0.57,0.14,0.1,0.01,k
2855.0,2865.0,2859.0,3667.0,4095.0,4095.0,2826.0,2818.0,0.84,9.84,-0.47,0.03,-0.01,0.05,k
2858.0,2867.0,2858.0,3613.0,4095.0,4095.0,2895.0,2850.0,0.94,9.78,-0.38,-0.04,-0.1,-0.05,k
2857.0,2866.0,2853.0,3630.0,4095.0,4095.0,2963.0,2874.0,0.17,9.54,-0.21,0.05,0.01,-0.12,k
2864.0,2868.0,2857.0,3645.0,4095.0,4095.0,3024.0,2931.0,0.1,9.53,-0.63,0.01,0.2,0.09,k
2864.0,2869.0,2852.0,3674.0,4095.0,4095.0,3103.0,3007.0,1.44,9.7,-0.2,-0.04,0.24,0.11,k
2866.0,2864.0,2853.0,3689.0,4095.0,4095.0,3184.0,3086.0,1.42,9.94,-0.53,0.1,-0.28,0.35,k
2865.0,2875.0,2857.0,3769.0,4095.0,4095.0,3195.0,3091.0,2.01,9.6,-0.53,-0.1,-1.3,0.51,k
2875.0,2871.0,2858.0,4011.0,4095.0,4095.0,3098.0,2955.0,1.84,9.46,-0.46,-0.08,-0.28,0.14,k
2871.0,2871.0,2857.0,4021.0,4095.0,4095.0,3025.0,2857.0,2.13,9.82,-0.71,-0.21,0.33,0.01,k
2869.0,2880.0,2848.0,3805.0,4095.0,4095.0,3004.0,2851.0,2.44,8.93,-0.25,-0.47,0.59,-0.36,k
2866.0,2874.0,2861.0,3714.0,4095.0,4095.0,2930.0,2810.0,0.54,9.32,0.14,0.16,0.71,-0.25,k
2860.0,2864.0,2854.0,3696.0,4095.0,4095.0,2847.0,2773.0,1.18,9.35,-0.41,-0.01,0.03,0.04,k
2859.0,2864.0,2855.0,3679.0,4095.0,4095.0,2787.0,2779.0,1.24,9.43,-0.14,-0.03,-0.17,0.05,k
2855.0,2863.0,2859.0,3651.0,4095.0,4095.0,2723.0,2783.0,0.28,9.51,-0.17,0.01,0.08,-0.02,k
2851.0,2860.0,2858.0,3653.0,4095.0,4095.0,2711.0,2799.0,0.64,9.48,-0.08,-0.05,0.14,-0.08,k
2850.0,2859.0,2857.0,3667.0,4095.0,4095.0,2706.0,2804.0,1.22,9.5,-0.04,-0.09,-0.02,0.04,k
2853.0,2854.0,2855.0,3723.0,4095.0,4095.0,2709.0,2817.0,1.4,9.65,-0.24,-0.21,0.06,0.07,k
2849.0,2857.0,2854.0,3759.0,4095.0,4095.0,2891.0,2977.0,1.28,9.35,0.48,-0.15,-0.01,0.02,k
2851.0,2863.0,2846.0,3755.0,4095.0,4095.0,2984.0,3201.0,1.17,9.4,0.05,-0.11,0.07,-0.05,k
2853.0,2853.0,2842.0,3737.0,4095.0,4095.0,3020.0,3218.0,1.29,9.49,0.25,-0.06,0.05,-0.03,k
2849.0,2861.0,2848.0,3723.0,4095.0,4095.0,3037.0,3213.0,1.09,9.58,0.22,-0.06,-0.03,0.01,k
2852.0,2859.0,2847.0,3696.0,4095.0,4095.0,3071.0,3203.0,1.22,9.62,0.26,0.02,-0.01,0.03,k
2846.0,2858.0,2847.0,3627.0,4095.0,4095.0,3038.0,3031.0,1.06,9.64,0.2,0.17,-0.01,0.08,k
2846.0,2854.0,2846.0,3543.0,4095.0,4095.0,2898.0,2833.0,1.36,9.6,-0.22,0.01,-0.03,0.08,k
2857.0,2864.0,2851.0,3527.0,4095.0,4095.0,2898.0,2770.0,1.33,9.66,0.12,-0.07,0.22,-0.04,k
2854.0,2861.0,2859.0,3463.0,4095.0,4095.0,2901.0,2778.0,1.47,9.79,0.14,-0.12,0.32,0.05,k
2857.0,2864.0,2853.0,3408.0,4095.0,4095.0,2898.0,2795.0,0.92,9.06,0.78,-0.07,2.53,-0.68,k
2864.0,2859.0,2843.0,3520.0,4095.0,4095.0,2906.0,2801.0,-0.55,9.28,-0.03,0.17,1.6,-0.48,k
2874.0,2864.0,2847.0,3549.0,4095.0,4095.0,2907.0,2812.0,-0.43,9.84,0.14,-0.04,-0.04,-0.06,k
2873.0,2852.0,2848.0,3395.0,4095.0,4095.0,2902.0,2821.0,-0.12,9.66,0.72,0.01,-0.03,0.04,k
2882.0,2863.0,2846.0,3234.0,4095.0,4095.0,2896.0,2823.0,0.52,9.78,0.47,-0.02,-0.31,0.12,k
2880.0,2861.0,2853.0,3166.0,4095.0,4095.0,2882.0,2822.0,0.55,9.71,0.46,-0.04,-0.32,0.08,k
2885.0,2851.0,2855.0,3249.0,4095.0,4095.0,2887.0,2827.0,0.12,9.61,0.41,0.05,-0.39,0.14,k
2871.0,2862.0,2849.0,3578.0,4095.0,4095.0,2885.0,2827.0,1.06,9.82,0.07,0.13,-0.59,0.17,k
2877.0,2867.0,2852.0,3888.0,4095.0,4095.0,2865.0,2826.0,1.05,9.56,-0.08,0.03,-0.3,0.19,k
2887.0,2871.0,2848.0,4047.0,4095.0,4095.0,2864.0,2821.0,1.52,9.67,-0.16,-0.04,-0.19,0.15,k
2880.0,2875.0,2848.0,4095.0,4095.0,4095.0,2855.0,2826.0,1.47,9.69,0.02,-0.08,-0.18,0.16,k
2886.0,2869.0,2855.0,4095.0,4095.0,4095.0,2857.0,2826.0,1.34,9.55,-0.27,-0.03,0.02,-0.01,k
2882.0,2870.0,2855.0,3920.0,4095.0,4095.0,2863.0,2838.0,1.83,9.35,-0.19,-0.35,-0.53,0.18,k
2887.0,2864.0,2849.0,3410.0,4095.0,4095.0,2848.0,2839.0,2.04,9.5,0.61,-0.42,-0.75,0.21,k
2889.0,2862.0,2850.0,3151.0,4046.0,4095.0,2848.0,2841.0,2.03,9.51,0.58,-0.38,-0.43,0.14,k
2882.0,2864.0,2850.0,3024.0,3675.0,4095.0,2826.0,2842.0,2.45,9.35,0.89,-0.57,-0.79,0.19,k
2882.0,2861.0,2846.0,3005.0,3574.0,4095.0,2829.0,2849.0,3.46,9.65,1.13,-0.97,-0.38,-0.26,k
2886.0,2864.0,2849.0,3103.0,3783.0,4095.0,2832.0,2880.0,2.11,9.02,2.19,-1.12,0.42,-0.58,k
2871.0,2863.0,2850.0,3210.0,3921.0,4095.0,2823.0,2896.0,0.59,8.53,3.84,-0.42,0.31,-0.27,k
2879.0,2865.0,2855.0,3376.0,4079.0,4095.0,2818.0,2900.0,1.33,8.87,3.49,0.4,-0.02,0.14,k
2873.0,2862.0,2853.0,3466.0,4095.0,4095.0,2815.0,2877.0,2.47,8.91,2.52,1.08,0.53,0.07,k
2869.0,2861.0,2849.0,3476.0,4095.0,4095.0,2821.0,2846.0,2.45,9.44,1.44,0.52,-0.33,-0.09,k
2865.0,2864.0,2859.0,3473.0,4095.0,4095.0,2828.0,2832.0,1.99,9.28,0.61,0.31,-0.23,0.05,k
2875.0,2860.0,2851.0,3475.0,4095.0,4095.0,2838.0,2831.0,2.65,10.36,-0.08,0.09,0.19,-0.17,k
2869.0,2861.0,2857.0,3494.0,4095.0,4095.0,2843.0,2832.0,2.21,9.92,-0.29,-0.26,0.33,-0.34,k
2875.0,2865.0,2859.0,3509.0,4095.0,4095.0,2852.0,2854.0,1.17,8.92,0.72,-0.58,0.25,-0.64,k
2875.0,2863.0,2859.0,3521.0,4095.0,4095.0,2843.0,2871.0,0.17,8.9,1.39,-0.53,0.23,-0.51,k
2878.0,2861.0,2854.0,3535.0,4095.0,4095.0,2843.0,2879.0,0.17,9.0,1.92,-0.32,0.09,-0.25,k
2874.0,2867.0,2855.0,3530.0,4095.0,4095.0,2846.0,2895.0,0.16,9.31,1.63,-0.37,0.12,-0.42,k
2866.0,2862.0,2855.0,3542.0,4095.0,4095.0,2843.0,2901.0,-0.28,8.85,2.4,-0.35,-0.26,-0.22,k
2879.0,2864.0,2851.0,3550.0,4095.0,4095.0,2839.0,2911.0,-0.38,9.05,2.71,-0.16,-0.5,-0.16,k
2869.0,2863.0,2855.0,3557.0,4095.0,4095.0,2833.0,2918.0,0.53,8.96,2.97,-0.04,-0.35,-0.14,k
2867.0,2865.0,2863.0,3550.0,4095.0,4095.0,2838.0,2928.0,0.27,9.15,2.79,0.23,1.57,-0.2,k
2870.0,2859.0,2855.0,3550.0,4095.0,4095.0,2842.0,2917.0,-1.98,9.39,1.8,0.37,2.02,-0.13,k
2870.0,2858.0,2851.0,3546.0,4095.0,4095.0,2848.0,2910.0,-2.01,9.2,1.27,0.22,0.81,0.02,k
2870.0,2861.0,2847.0,3541.0,4095.0,4095.0,2847.0,2900.0,-2.07,9.03,1.05,0.19,0.42,0.24,k
2870.0,2859.0,2847.0,3549.0,4095.0,4095.0,2846.0,2893.0,-1.08,9.65,0.34,0.01,-1.95,0.91,k
2869.0,2863.0,2845.0,3553.0,4095.0,4095.0,2848.0,2885.0,-0.06,9.53,1.25,-0.21,-1.05,0.45,k
2872.0,2863.0,2854.0,3542.0,4095.0,4095.0,2858.0,2889.0,1.07,9.33,1.68,-0.33,-1.09,0.38,k
2875.0,2863.0,2850.0,3543.0,4095.0,4095.0,2850.0,2889.0,1.75,9.09,2.15,-0.14,-0.9,0.29,k
2877.0,2864.0,2842.0,3551.0,4095.0,4095.0,2855.0,2883.0,2.01,9.45,1.85,0.17,-0.61,0.23,k
2877.0,2864.0,2854.0,3578.0,4095.0,4095.0,2854.0,2880.0,2.19,9.18,1.47,0.06,-0.64,0.12,k
2884.0,2858.0,2850.0,3632.0,4095.0,4095.0,2853.0,2879.0,3.61,8.92,1.85,-0.02,-0.77,-0.21,k
2880.0,2862.0,2854.0,3661.0,4095.0,4095.0,2855.0,2879.0,1.55,9.46,0.11,-0.05,-0.34,-0.33,k
2883.0,2863.0,2859.0,3669.0,4095.0,4095.0,2857.0,2882.0,1.63,9.86,0.93,-0.36,0.04,-0.23,k
2879.0,2859.0,2853.0,3658.0,4095.0,4095.0,2857.0,2896.0,1.27,9.05,1.02,-0.65,0.23,-0.25,k
2882.0,2865.0,2858.0,3648.0,4095.0,4095.0,2864.0,2903.0,1.19,8.71,1.81,-0.52,0.23,-0.09,k
2881.0,2871.0,2855.0,3646.0,4095.0,4095.0,2858.0,2910.0,1.13,9.07,2.56,-0.44,0.41,-0.01,k
2880.0,2867.0,2853.0,3639.0,4095.0,4095.0,2857.0,2910.0,1.22,9.39,3.63,-0.33,0.21,-0.01,k
2883.0,2870.0,2858.0,3639.0,4095.0,4095.0,2852.0,2919.0,1.37,9.25,3.28,-0.48,0.16,-0.13,k
2884.0,2867.0,2855.0,3632.0,4095.0,4095.0,2857.0,2933.0,0.2,8.8,3.98,0.0,0.19,-0.1,k
2880.0,2866.0,2861.0,3635.0,4095.0,4095.0,2850.0,2931.0,-0.33,9.26,3.01,0.03,0.67,-0.17,k
2882.0,2864.0,2862.0,3622.0,4095.0,4095.0,2843.0,2941.0,-0.55,8.46,2.84,-1.39,0.65,-0.49,k
2880.0,2869.0,2859.0,3644.0,4095.0,4095.0,2829.0,2955.0,-1.03,7.84,4.45,-0.86,0.38,-0.4,k
2879.0,2870.0,2859.0,3661.0,4095.0,4095.0,2832.0,2965.0,-1.34,7.94,4.63,-0.55,0.51,-0.31,k
2876.0,2867.0,2862.0,3674.0,4095.0,4095.0,2833.0,2981.0,-1.03,7.83,5.41,-0.67,0.47,-0.11,k
2871.0,2871.0,2861.0,3683.0,4095.0,4095.0,2830.0,2995.0,-1.0,6.99,6.19,-0.47,0.24,-0.28,k
2881.0,2866.0,2865.0,3683.0,4095.0,4095.0,2816.0,3008.0,-1.35,6.67,6.22,-0.74,-0.01,-0.61,k
2878.0,2875.0,2864.0,3699.0,4095.0,4095.0,2822.0,3011.0,-1.89,6.36,6.68,-0.12,0.07,-0.13,k
2878.0,2869.0,2860.0,3702.0,4095.0,4095.0,2823.0,3014.0,-1.7,6.45,7.03,0.49,-0.09,0.3,k
2870.0,2874.0,2865.0,3711.0,4095.0,4095.0,2816.0,2978.0,-0.62,7.81,5.54,1.73,0.44,0.64,k
2880.0,2864.0,2855.0,3726.0,4095.0,4095.0,2822.0,2927.0,0.09,8.41,4.25,1.32,-0.54,0.49,k
2879.0,2874.0,2862.0,3719.0,4095.0,4095.0,2843.0,2882.0,0.73,8.79,3.3,1.26,-0.65,0.37,k
2878.0,2876.0,2854.0,3697.0,4095.0,4095.0,2821.0,2847.0,0.83,9.3,2.16,1.51,-0.67,0.33,k
2881.0,2875.0,2861.0,3671.0,4095.0,4095.0,2835.0,2817.0,1.83,11.39,-0.26,1.43,-0.9,0.2,k
2877.0,2869.0,2860.0,3662.0,4095.0,4095.0,2845.0,2813.0,1.66,10.22,-1.29,0.47,-0.14,0.02,k
2874.0,2864.0,2861.0,3669.0,4095.0,4095.0,2845.0,2815.0,0.73,9.88,-0.68,0.48,-0.05,0.07,k
2877.0,2873.0,2859.0,3679.0,4095.0,4095.0,2848.0,2813.0,1.18,9.74,-1.24,0.54,0.07,-0.06,k
2874.0,2865.0,2864.0,3677.0,4095.0,4095.0,2847.0,2802.0,1.25,9.83,-2.04,0.64,0.04,-0.05,k
2870.0,2873.0,2861.0,3673.0,4095.0,4095.0,2857.0,2805.0,0.49,9.71,-2.63,0.68,0.2,-0.17,k
2874.0,2866.0,2862.0,3659.0,4095.0,4095.0,2851.0,2805.0,0.43,9.55,-3.38,0.75,0.34,-0.33,k
2869.0,2864.0,2853.0,3686.0,4095.0,4095.0,2854.0,2800.0,0.4,8.8,-4.08,0.71,0.33,-0.26,k
2871.0,2869.0,2854.0,3728.0,4095.0,4095.0,2854.0,2797.0,0.42,8.62,-4.7,0.6,0.25,-0.24,k
2870.0,2869.0,2857.0,3765.0,4095.0,4095.0,2850.0,2794.0,0.25,8.53,-5.46,0.61,0.15,-0.25,k
2877.0,2866.0,2847.0,3776.0,4095.0,4095.0,2862.0,2800.0,-0.15,8.02,-5.84,0.51,0.1,-0.31,k
2881.0,2862.0,2850.0,3779.0,4095.0,4095.0,2863.0,2800.0,0.24,7.73,-6.0,0.32,-0.05,-0.14,k
2871.0,2864.0,2859.0,3784.0,4095.0,4095.0,2862.0,2802.0,-0.34,7.33,-6.58,0.4,-0.0,-0.33,k
2879.0,2868.0,2857.0,3810.0,4095.0,4095.0,2864.0,2803.0,-0.52,7.26,-7.1,0.22,-0.11,-0.11,k
2877.0,2869.0,2851.0,3856.0,4095.0,4095.0,2864.0,2807.0,-0.6,7.89,-7.06,-0.19,-0.06,0.16,k
2877.0,2864.0,2849.0,3873.0,4095.0,4095.0,2862.0,2814.0,-0.45,7.99,-6.73,-0.42,0.06,0.03,k
2885.0,2864.0,2855.0,3867.0,4095.0,4095.0,2861.0,2825.0,-0.11,7.13,-6.61,-1.08,0.49,0.14,k
2879.0,2870.0,2850.0,3835.0,4095.0,4095.0,2860.0,2832.0,-0.13,8.97,-4.4,-1.33,-0.05,0.49,k
2884.0,2867.0,2853.0,3808.0,4095.0,4095.0,2862.0,2842.0,0.26,9.8,-4.56,-1.01,0.18,0.22,k
2883.0,2861.0,2851.0,3765.0,4095.0,4095.0,2864.0,2844.0,1.36,10.56,-3.49,-0.96,0.17,-0.14,k
2881.0,2876.0,2850.0,3697.0,4095.0,4095.0,2864.0,2852.0,1.25,9.13,-2.59,-1.22,-0.29,-0.2,k
2883.0,2866.0,2859.0,3617.0,4095.0,4095.0,2866.0,2864.0,0.4,8.06,-0.63,-0.83,-0.46,-0.21,k
2880.0,2878.0,2859.0,3583.0,4095.0,4095.0,2864.0,2870.0,0.8,8.59,0.25,-0.67,-0.68,0.13,k
2882.0,2864.0,2858.0,3574.0,4095.0,4095.0,2868.0,2877.0,0.4,9.77,0.32,-0.19,-0.12,-0.07,k
2885.0,2875.0,2855.0,3581.0,4095.0,4095.0,2869.0,2881.0,0.53,9.78,0.42,0.38,-0.33,0.23,k
2882.0,2870.0,2855.0,3619.0,4095.0,4095.0,2866.0,2878.0,0.55,9.3,-1.31,0.98,-0.51,0.23,k
2879.0,2867.0,2863.0,3630.0,4095.0,4095.0,2869.0,2864.0,0.57,9.29,-2.75,1.12,-0.1,0.07,k
2876.0,2864.0,2857.0,3631.0,4095.0,4095.0,2870.0,2861.0,1.29,9.05,-4.34,0.4,0.17,-0.01,k
2877.0,2865.0,2854.0,3629.0,4095.0,4095.0,2863.0,2871.0,1.12,7.92,-2.81,-0.34,0.17,-0.19,k
2883.0,2869.0,2862.0,3599.0,4095.0,4095.0,2864.0,2877.0,0.73,8.66,-2.02,-0.25,-0.05,-0.2,k
2873.0,2875.0,2864.0,3583.0,4095.0,4095.0,2857.0,2867.0,0.56,9.45,-2.5,-0.11,-0.04,-0.17,k
2881.0,2873.0,2854.0,3583.0,4095.0,4095.0,2837.0,2857.0,0.6,9.91,-2.38,-0.31,0.0,-0.13,k
2887.0,2885.0,2850.0,3646.0,4095.0,4095.0,2812.0,2867.0,0.63,9.28,-2.7,-0.22,-0.29,0.07,k
2893.0,2872.0,2849.0,3699.0,4095.0,4095.0,2803.0,2877.0,0.25,9.64,-1.85,-0.01,-0.04,-0.14,k
2895.0,2873.0,2855.0,3765.0,4095.0,4095.0,2805.0,2879.0,0.12,9.17,-2.43,-0.05,-0.02,0.07,k
2887.0,2878.0,2859.0,3932.0,4095.0,4095.0,2799.0,2896.0,0.11,9.39,-1.86,-0.11,0.1,-0.25,k
2886.0,2895.0,2861.0,4095.0,4095.0,4095.0,2799.0,2905.0,0.17,9.26,-1.9,-0.08,-0.03,-0.04,k
2890.0,2881.0,2855.0,4095.0,4095.0,4095.0,2798.0,2914.0,0.42,9.82,-2.01,-0.08,0.0,-0.12,k
2896.0,2886.0,2864.0,4095.0,4095.0,4095.0,2801.0,2913.0,0.09,9.85,-2.13,0.03,-0.0,-0.02,k
2895.0,2881.0,2857.0,4095.0,4095.0,4095.0,2805.0,2911.0,-0.05,10.28,-2.25,0.09,0.17,-0.19,k
2887.0,2877.0,2857.0,4095.0,4095.0,4095.0,2807.0,2908.0,-0.31,9.37,-1.96,0.07,0.08,-0.06,k
2882.0,2882.0,2858.0,4076.0,4095.0,4095.0,2810.0,2911.0,0.21,9.34,-2.19,0.05,-0.01,-0.0,k
2880.0,2884.0,2863.0,4061.0,4095.0,4095.0,2814.0,2911.0,0.08,9.24,-1.9,0.1,-0.09,0.02,k
2883.0,2875.0,2857.0,4035.0,4095.0,4095.0,2811.0,2905.0,0.21,9.4,-2.42,0.17,-0.09,0.02,k
2881.0,2880.0,2859.0,4016.0,4095.0,4095.0,2810.0,2904.0,0.18,9.18,-2.81,0.11,-0.05,-0.05,k
2878.0,2876.0,2860.0,3984.0,4095.0,4095.0,2811.0,2905.0,0.46,9.41,-2.54,0.04,-0.11,-0.01,k
2883.0,2878.0,2855.0,3952.0,4095.0,4095.0,2813.0,2912.0,-0.56,9.79,-2.6,0.19,-0.09,0.07,k
2882.0,2879.0,2851.0,3919.0,4095.0,4095.0,2815.0,2901.0,0.24,9.44,-3.15,0.27,0.0,0.24,k
2879.0,2880.0,2861.0,3906.0,4095.0,4095.0,2815.0,2915.0,1.48,8.97,-3.28,0.15,-0.3,0.11,k
2881.0,2873.0,2854.0,3902.0,4095.0,4095.0,2818.0,2910.0,0.21,8.89,-4.11,0.06,-0.16,-0.08,k
2874.0,2871.0,2854.0,3902.0,4095.0,4095.0,2814.0,2910.0,0.4,9.05,-3.74,-0.18,0.11,0.05,k
2883.0,2875.0,2852.0,3906.0,4095.0,4095.0,2819.0,2909.0,1.5,9.3,-3.09,-0.16,-0.15,-0.26,k
2877.0,2874.0,2858.0,3913.0,4095.0,4095.0,2813.0,2907.0,-1.32,9.67,-2.93,-0.12,-0.13,-0.16,k
2874.0,2867.0,2858.0,3910.0,4095.0,4095.0,2817.0,2912.0,-0.08,10.16,-2.95,0.05,-0.03,0.6,k
2884.0,2881.0,2859.0,3874.0,4095.0,4095.0,2819.0,2911.0,1.46,9.2,-3.85,-0.34,0.54,0.18,k
2883.0,2886.0,2857.0,3888.0,4095.0,4095.0,2822.0,2923.0,1.02,8.47,-3.06,-1.15,0.48,-0.27,k
2883.0,2874.0,2861.0,3910.0,4095.0,4095.0,2821.0,2928.0,0.93,9.69,0.08,-0.9,-0.08,0.07,k
2880.0,2882.0,2863.0,3911.0,4095.0,4095.0,2826.0,2934.0,1.09,11.59,1.08,0.28,-0.28,-0.07,k
2880.0,2880.0,2859.0,3921.0,4095.0,4095.0,2827.0,2929.0,0.43,9.84,-1.13,0.95,-0.27,-0.05,k
2883.0,2881.0,2855.0,3919.0,4095.0,4095.0,2821.0,2931.0,0.33,8.89,-2.07,1.08,-0.28,0.21,k
2875.0,2877.0,2855.0,3927.0,4095.0,4095.0,2823.0,2929.0,0.85,8.7,-4.24,0.71,0.04,0.26,k
2879.0,2881.0,2854.0,3923.0,4095.0,4095.0,2825.0,2927.0,1.68,8.75,-4.61,0.01,0.04,-0.01,k
2879.0,2879.0,2855.0,3922.0,4095.0,4095.0,2826.0,2928.0,1.6,8.36,-5.05,-0.54,0.0,-0.2,k
2883.0,2880.0,2857.0,3919.0,4095.0,4095.0,2832.0,2931.0,0.96,8.75,-3.59,-0.8,-0.19,-0.36,k
2885.0,2879.0,2859.0,3923.0,4095.0,4095.0,2832.0,2933.0,-0.06,9.6,-2.43,-0.96,-0.08,-0.45,k
2880.0,2871.0,2859.0,3913.0,4095.0,4095.0,2832.0,2931.0,-0.33,9.86,-0.39,-0.78,-0.21,-0.15,k
2878.0,2879.0,2859.0,3924.0,4095.0,4095.0,2832.0,2928.0,-0.8,10.24,0.48,-0.29,0.0,-0.09,k
2884.0,2879.0,2857.0,3924.0,4095.0,4095.0,2833.0,2931.0,-0.47,10.1,0.09,-0.03,0.05,0.17,k
2883.0,2885.0,2859.0,3915.0,4095.0,4095.0,2832.0,2935.0,-0.08,10.18,0.04,0.27,0.08,0.19,k
2878.0,2877.0,2864.0,3911.0,4095.0,4095.0,2832.0,2932.0,0.26,9.84,-0.79,0.53,0.11,0.2,k
2880.0,2881.0,2850.0,3924.0,4095.0,4095.0,2832.0,2930.0,0.32,9.23,-2.03,0.61,0.24,0.02,k
2879.0,2880.0,2853.0,3918.0,4095.0,4095.0,2831.0,2931.0,0.44,9.02,-2.84,0.41,0.38,0.09,k
2880.0,2879.0,2855.0,3846.0,4095.0,4095.0,2832.0,2937.0,0.53,8.92,-3.06,0.29,0.37,0.19,k
2888.0,2885.0,2860.0,3853.0,4095.0,4095.0,2833.0,2938.0,2.36,8.84,-3.39,0.08,0.17,-0.0,k
2880.0,2875.0,2855.0,3850.0,4095.0,4095.0,2832.0,2930.0,1.44,8.82,-4.12,-0.33,-0.03,-0.28,k
2880.0,2871.0,2864.0,3856.0,4095.0,4095.0,2831.0,2934.0,0.3,8.86,-2.58,-0.5,0.07,-0.42,k
2882.0,2880.0,2855.0,3856.0,4095.0,4095.0,2833.0,2935.0,-0.13,9.34,-1.96,-0.66,0.16,-0.54,k
2887.0,2880.0,2861.0,3854.0,4095.0,4095.0,2832.0,2932.0,-0.85,9.8,-1.07,-0.54,0.1,-0.4,k
2885.0,2867.0,2853.0,3854.0,4095.0,4095.0,2832.0,2932.0,-0.97,9.85,-0.7,-0.47,0.19,-0.17,k
2882.0,2879.0,2852.0,3856.0,4095.0,4095.0,2833.0,2934.0,-0.66,9.88,0.28,-0.31,0.18,-0.03,k
2880.0,2871.0,2849.0,3859.0,4095.0,4095.0,2835.0,2933.0,-1.01,10.1,0.53,-0.02,0.09,0.11,k
2883.0,2871.0,2856.0,3852.0,4095.0,4095.0,2832.0,2931.0,-0.99,10.07,0.35,0.29,0.05,0.29,k
2879.0,2880.0,2857.0,3850.0,4095.0,4095.0,2835.0,2933.0,-0.01,9.53,-0.85,0.56,0.03,0.39,k
2881.0,2865.0,2855.0,3867.0,4095.0,4095.0,2832.0,2931.0,2.01,9.42,-1.71,0.71,0.53,-0.58,k
2879.0,2873.0,2850.0,3878.0,4095.0,4095.0,2832.0,2931.0,-0.05,9.4,-3.67,0.32,-0.11,-0.0,k
2875.0,2878.0,2846.0,3883.0,4095.0,4095.0,2832.0,2935.0,0.32,9.56,-3.29,-0.37,-0.88,1.07,k
2871.0,2873.0,2860.0,3886.0,4095.0,4095.0,2833.0,2938.0,2.43,9.21,-1.86,-1.66,0.18,0.46,k
2877.0,2875.0,2859.0,3855.0,4095.0,4095.0,2832.0,2948.0,1.13,9.03,-0.28,-0.7,0.27,-0.53,k
2879.0,2871.0,2859.0,3845.0,4095.0,4095.0,2832.0,2954.0,-0.2,10.02,-0.0,-0.41,0.27,-0.6,k
2881.0,2877.0,2853.0,3846.0,4095.0,4095.0,2831.0,2960.0,-0.73,10.04,1.42,-0.11,0.64,-0.5,k
2879.0,2875.0,2850.0,3839.0,4095.0,4095.0,2832.0,2965.0,-0.74,9.89,0.88,0.38,0.13,0.09,k
2879.0,2876.0,2855.0,3824.0,4095.0,4095.0,2828.0,2966.0,-0.09,9.41,-0.23,0.67,-0.0,0.21,k
2878.0,2877.0,2848.0,3766.0,4095.0,4095.0,2831.0,2955.0,0.55,9.13,-2.05,1.14,-0.24,0.67,k
2870.0,2870.0,2860.0,3766.0,4095.0,4095.0,2831.0,2930.0,1.49,9.01,-3.29,0.35,0.21,0.16,k
2878.0,2878.0,2863.0,3780.0,4095.0,4095.0,2832.0,2939.0,1.11,9.04,-2.89,-0.36,0.1,0.01,k
2869.0,2871.0,2857.0,3798.0,4095.0,4095.0,2833.0,2951.0,0.69,9.53,-2.06,-0.43,-0.03,-0.05,k
2867.0,2871.0,2861.0,3797.0,4095.0,4095.0,2831.0,2961.0,0.99,10.15,-1.86,-0.4,0.08,-0.15,k
2869.0,2877.0,2850.0,3793.0,4095.0,4095.0,2831.0,2962.0,0.64,10.33,-0.74,-0.27,0.21,-0.26,k
2871.0,2875.0,2853.0,3793.0,4095.0,4095.0,2827.0,2972.0,0.5,10.39,-1.05,-0.22,0.18,-0.21,k
2869.0,2873.0,2860.0,3803.0,4095.0,4095.0,2818.0,2974.0,0.24,10.17,-0.1,-0.27,0.2,-0.02,k
2871.0,2869.0,2848.0,3798.0,4095.0,4095.0,2823.0,2977.0,-0.14,9.51,0.28,0.39,-0.0,0.5,k
2871.0,2873.0,2861.0,3757.0,4095.0,4095.0,2832.0,2959.0,0.98,9.17,-1.6,0.69,-0.04,0.34,k
2865.0,2869.0,2847.0,3759.0,4095.0,4095.0,2837.0,2942.0,1.57,9.12,-2.33,0.53,-0.14,0.2,k
2867.0,2874.0,2858.0,3745.0,4095.0,4095.0,2844.0,2925.0,1.68,9.43,-2.49,0.18,-0.19,0.15,k
2867.0,2868.0,2851.0,3723.0,4095.0,4095.0,2845.0,2925.0,2.0,9.7,-2.89,-0.25,0.06,-0.12,k
