hall_1,hall_2,hall_3,flex_t,flex_i,flex_m,flex_r,flex_p,accel_x,accel_y,accel_z,gyro_x,gyro_y,gyro_z,sign
3061.0,3087.0,3185.0,3761.0,4095.0,4095.0,2825.0,3070.0,1.1,10.28,-1.1,0.04,0.06,0.02,k
3069.0,3095.0,3184.0,3776.0,4095.0,4095.0,2827.0,3082.0,0.88,9.2,-0.83,-0.03,-0.1,-0.03,k
3071.0,3109.0,3214.0,3777.0,4095.0,4095.0,2851.0,3100.0,1.1,9.89,-1.06,-0.04,0.04,-0.04,k
3062.0,3105.0,3201.0,3796.0,4095.0,4095.0,2838.0,3094.0,0.85,9.41,-0.87,0.03,-0.04,-0.01,k
3065.0,3101.0,3197.0,3807.0,4095.0,4095.0,2833.0,3088.0,0.79,9.77,-1.0,-0.05,0.06,-0.02,k
3068.0,3091.0,3197.0,3811.0,4095.0,4095.0,2830.0,3083.0,1.03,9.48,-0.81,-0.02,-0.05,-0.01,k
3061.0,3095.0,3198.0,3811.0,4095.0,4095.0,2834.0,3088.0,1.04,9.74,-1.01,-0.02,0.06,-0.01,k
3062.0,3091.0,3210.0,3819.0,4095.0,4095.0,2843.0,3095.0,1.1,9.6,-1.01,-0.02,-0.03,-0.03,k
3068.0,3110.0,3203.0,3815.0,4095.0,4095.0,2842.0,3098.0,0.92,9.54,-0.83,-0.04,-0.02,-0.05,k
3063.0,3119.0,3218.0,3809.0,4095.0,4095.0,2851.0,3106.0,0.91,9.57,-0.97,-0.07,0.03,-0.06,k
3069.0,3110.0,3216.0,3825.0,4095.0,4095.0,2852.0,3102.0,0.68,9.62,-0.94,0.02,0.04,0.04,k
3067.0,3103.0,3214.0,3842.0,4095.0,4095.0,2848.0,3099.0,1.05,9.73,-0.9,-0.01,-0.03,-0.02,k
3062.0,3095.0,3202.0,3847.0,4095.0,4095.0,2837.0,3090.0,0.87,9.73,-1.03,0.01,0.02,-0.01,k
3063.0,3102.0,3199.0,3847.0,4095.0,4095.0,2838.0,3095.0,0.89,9.45,-1.01,-0.04,0.01,-0.06,k
3071.0,3091.0,3199.0,3861.0,4095.0,4095.0,2837.0,3090.0,0.94,9.83,-1.02,-0.01,0.01,0.0,k
3066.0,3087.0,3195.0,3887.0,4095.0,4095.0,2832.0,3083.0,0.79,9.62,-0.88,-0.02,-0.03,0.0,k
3071.0,3088.0,3197.0,3901.0,4095.0,4095.0,2832.0,3086.0,0.84,9.55,-0.98,-0.0,0.02,-0.01,k
3061.0,3090.0,3200.0,3904.0,4095.0,4095.0,2834.0,3085.0,0.89,9.77,-1.1,0.13,0.05,0.08,k
3071.0,3088.0,3197.0,4007.0,4095.0,4095.0,2837.0,3086.0,1.01,9.34,-1.19,-0.24,0.1,-0.24,k
3070.0,3095.0,3209.0,4095.0,4095.0,4095.0,2845.0,3085.0,0.6,9.91,-0.68,0.18,-0.06,0.24,k
3087.0,3088.0,3194.0,4095.0,4095.0,4095.0,2826.0,3055.0,1.09,9.47,-1.38,-0.05,0.2,0.15,k
3097.0,3087.0,3190.0,4095.0,4095.0,4095.0,2822.0,3056.0,1.22,9.76,-1.01,0.15,0.03,-0.1,k
3101.0,3066.0,3189.0,4095.0,4095.0,4095.0,2815.0,3047.0,0.84,9.05,-1.09,-0.12,-0.02,0.05,k
3101.0,3071.0,3191.0,4095.0,4095.0,4095.0,2816.0,3056.0,1.18,9.62,-0.94,0.09,-0.15,0.23,k
3105.0,3083.0,3200.0,4095.0,4095.0,4095.0,2822.0,3056.0,1.35,10.02,-1.12,0.05,0.05,-0.06,k
3102.0,3069.0,3195.0,4095.0,4095.0,4095.0,2825.0,3055.0,0.91,9.27,-1.22,0.02,-0.08,-0.01,k
3110.0,3083.0,3200.0,4095.0,4095.0,4095.0,2834.0,3065.0,1.26,9.63,-1.26,0.06,-0.12,0.13,k
3094.0,3083.0,3200.0,4095.0,4095.0,4095.0,2832.0,3060.0,1.34,9.56,-1.25,-0.19,0.16,-0.23,k
3107.0,3083.0,3197.0,4095.0,4095.0,4095.0,2831.0,3061.0,1.35,9.78,-1.08,-0.01,0.02,0.04,k
3105.0,3088.0,3194.0,4095.0,4095.0,4095.0,2830.0,3059.0,1.13,9.53,-0.93,0.01,0.02,-0.03,k
3106.0,3086.0,3187.0,4095.0,4095.0,4095.0,2831.0,3059.0,1.13,10.0,-1.37,0.04,0.02,0.03,k
3107.0,3070.0,3185.0,4095.0,4095.0,4095.0,2832.0,3057.0,1.08,9.17,-1.2,-0.04,-0.15,0.04,k
3106.0,3083.0,3189.0,4095.0,4095.0,4095.0,2832.0,3056.0,1.2,9.79,-1.23,-0.06,0.1,-0.03,k
3114.0,3071.0,3191.0,4095.0,4095.0,4095.0,2832.0,3055.0,1.28,9.43,-1.12,-0.13,-0.03,-0.06,k
3107.0,3087.0,3198.0,4095.0,4095.0,4095.0,2832.0,3056.0,1.21,9.61,-1.02,-0.02,0.05,-0.0,k
3104.0,3088.0,3191.0,4095.0,4095.0,4095.0,2834.0,3054.0,0.85,9.57,-1.07,-0.08,0.12,0.07,k
3108.0,3065.0,3191.0,4095.0,4095.0,4095.0,2834.0,3041.0,1.02,9.62,-1.04,-0.03,-0.05,0.18,k
3109.0,3071.0,3197.0,4095.0,4095.0,4095.0,2847.0,3029.0,1.18,9.71,-1.25,-0.07,0.25,0.02,k
3110.0,3091.0,3203.0,4095.0,4095.0,4095.0,2864.0,3037.0,1.46,9.57,-1.16,0.05,0.05,0.03,k
3106.0,3084.0,3197.0,4095.0,4095.0,4095.0,2869.0,3032.0,1.68,9.44,-1.28,-0.03,-0.03,0.01,k
3106.0,3088.0,3200.0,4095.0,4095.0,4095.0,2871.0,3026.0,1.4,9.45,-0.92,0.04,-0.13,0.04,k
3105.0,3109.0,3213.0,4095.0,4095.0,4095.0,2891.0,3046.0,1.24,9.63,-0.99,-0.1,0.04,-0.09,k
3099.0,3115.0,3227.0,4048.0,4095.0,4095.0,2898.0,3056.0,1.2,9.59,-1.14,0.03,-0.07,0.15,k
3101.0,3126.0,3241.0,3727.0,4095.0,4095.0,2908.0,3081.0,1.45,9.36,-1.24,-0.01,-0.0,0.07,k
3097.0,3130.0,3239.0,3583.0,4095.0,4095.0,2907.0,3084.0,1.51,9.52,-1.15,0.02,-0.02,0.07,k
3099.0,3125.0,3236.0,3520.0,4095.0,4095.0,2912.0,3071.0,1.64,9.52,-1.28,-0.09,0.05,-0.06,k
3107.0,3121.0,3244.0,3507.0,4095.0,4095.0,2913.0,3079.0,1.41,9.54,-1.18,-0.01,-0.07,0.05,k
3100.0,3123.0,3241.0,3533.0,4095.0,4095.0,2918.0,3071.0,1.6,9.71,-1.04,0.05,-0.03,0.05,k
3102.0,3113.0,3228.0,3583.0,4095.0,4095.0,2903.0,3067.0,1.71,9.71,-1.34,-0.03,0.06,-0.11,k
3110.0,3103.0,3216.0,3518.0,4095.0,4095.0,2894.0,3061.0,1.69,9.31,-1.19,0.04,-0.13,0.05,k
3109.0,3120.0,3236.0,3453.0,4095.0,4095.0,2903.0,3085.0,1.59,9.83,-1.57,0.03,0.13,-0.05,k
3105.0,3105.0,3234.0,3489.0,4095.0,4095.0,2896.0,3066.0,1.05,9.18,-1.37,-0.06,0.05,0.04,k
3105.0,3109.0,3225.0,3809.0,4095.0,4095.0,2909.0,3068.0,1.54,9.87,-1.47,0.08,0.14,-0.04,k
3101.0,3219.0,3331.0,4095.0,4095.0,4095.0,3021.0,3183.0,1.59,9.47,-1.29,-0.12,-0.04,-0.0,k
3105.0,3191.0,3309.0,4095.0,4095.0,4095.0,2989.0,3139.0,1.85,9.41,-1.22,-0.01,0.01,0.07,k
3108.0,3098.0,3216.0,4095.0,4095.0,4095.0,2899.0,3049.0,1.97,9.84,-1.37,0.05,0.01,0.02,k
3097.0,3105.0,3223.0,4095.0,4095.0,4095.0,2911.0,3059.0,1.72,9.78,-1.39,-0.1,0.02,-0.09,k
3100.0,3094.0,3202.0,4095.0,4095.0,4095.0,2896.0,3046.0,1.53,9.48,-1.31,-0.05,-0.03,-0.04,k
3103.0,3091.0,3213.0,4095.0,4095.0,4095.0,2899.0,3053.0,1.37,9.62,-1.45,0.08,0.0,-0.01,k
3105.0,3100.0,3217.0,4095.0,4095.0,4095.0,2898.0,3051.0,1.39,9.4,-1.33,-0.07,-0.04,-0.06,k
3107.0,3099.0,3216.0,4095.0,4095.0,4095.0,2898.0,3051.0,1.53,9.51,-1.41,0.03,-0.06,-0.0,k
3107.0,3098.0,3207.0,4095.0,4095.0,4095.0,2900.0,3051.0,1.58,9.68,-1.35,0.06,0.0,-0.02,k
3103.0,3101.0,3209.0,4095.0,4095.0,4095.0,2897.0,3054.0,1.5,9.66,-1.46,0.0,-0.05,0.03,k
3105.0,3092.0,3206.0,4016.0,4095.0,4095.0,2893.0,3047.0,1.54,9.31,-1.48,-0.13,-0.1,-0.13,k
3111.0,3119.0,3232.0,3888.0,4095.0,4095.0,2910.0,3081.0,1.41,9.52,-1.3,-0.07,-0.14,0.1,k
3112.0,3136.0,3250.0,3806.0,4095.0,4095.0,2933.0,3099.0,1.25,9.5,-1.52,-0.04,-0.07,-0.02,k
3104.0,3114.0,3231.0,3948.0,4095.0,4095.0,2914.0,3068.0,1.72,9.53,-1.54,0.16,-0.07,0.04,k
3095.0,3083.0,3188.0,4095.0,4095.0,4095.0,2875.0,3035.0,1.51,9.52,-1.52,0.03,0.02,-0.02,k
3088.0,2989.0,3106.0,4095.0,4095.0,4095.0,2799.0,2953.0,1.7,9.5,-1.62,0.08,-0.13,0.07,k
3090.0,2980.0,3107.0,4095.0,4095.0,4095.0,2787.0,2928.0,1.31,9.41,-1.69,0.07,-0.07,0.1,k
3088.0,2957.0,3069.0,4095.0,4095.0,4095.0,2768.0,2894.0,1.85,9.53,-1.66,0.01,-0.24,-0.07,k
3088.0,2960.0,3066.0,4095.0,4095.0,4095.0,2768.0,2877.0,1.28,9.48,-1.77,0.01,0.06,-0.02,k
3088.0,2958.0,3065.0,4095.0,4095.0,4095.0,2763.0,2864.0,1.74,9.23,-1.82,-0.23,-0.06,-0.14,k
3094.0,2953.0,3057.0,4095.0,4095.0,4095.0,2765.0,2863.0,1.4,9.61,-1.77,0.01,0.07,-0.03,k
3088.0,2955.0,3056.0,4095.0,4095.0,4095.0,2771.0,2861.0,1.64,9.59,-1.71,-0.26,-0.0,-0.07,k
3088.0,2954.0,3061.0,4095.0,4095.0,4095.0,2770.0,2864.0,1.26,9.43,-1.4,-0.06,-0.03,0.0,k
3088.0,2957.0,3066.0,4095.0,4095.0,4095.0,2774.0,2864.0,1.68,9.67,-1.35,-0.01,0.05,-0.0,k
3088.0,2960.0,3061.0,4095.0,4095.0,4095.0,2775.0,2865.0,1.49,9.31,-1.52,-0.07,0.01,-0.03,k
3090.0,2960.0,3068.0,4095.0,4095.0,4095.0,2771.0,2870.0,1.47,9.54,-1.58,0.09,0.07,-0.03,k
3094.0,2950.0,3069.0,4095.0,4095.0,4095.0,2781.0,2870.0,1.58,9.9,-1.59,0.03,0.05,-0.0,k
3090.0,2965.0,3069.0,4095.0,4095.0,4095.0,2786.0,2877.0,1.89,9.28,-1.69,-0.22,-0.08,-0.13,k
3093.0,2966.0,3071.0,4095.0,4095.0,4095.0,2787.0,2881.0,1.68,9.76,-1.56,0.02,0.06,-0.06,k
3089.0,2972.0,3079.0,4095.0,4095.0,4095.0,2790.0,2884.0,1.24,9.61,-1.44,-0.05,0.07,-0.12,k
3092.0,2971.0,3079.0,4095.0,4095.0,4095.0,2791.0,2883.0,1.23,9.79,-1.6,-0.0,0.05,0.03,k
3097.0,2964.0,3085.0,4095.0,4095.0,4095.0,2790.0,2887.0,1.58,9.03,-1.56,-0.16,0.03,-0.1,k
3090.0,2962.0,3083.0,4095.0,4095.0,4095.0,2777.0,2890.0,1.01,9.5,-1.51,0.06,0.16,0.04,k
3094.0,2965.0,3063.0,4095.0,4095.0,4095.0,2780.0,2896.0,0.86,9.91,-1.6,-0.05,0.12,-0.07,k
3096.0,2972.0,3085.0,4095.0,4095.0,4095.0,2775.0,2896.0,1.66,9.58,-1.46,-0.02,-0.04,0.04,k
3085.0,2973.0,3071.0,4095.0,4095.0,4095.0,2768.0,2896.0,1.15,9.29,-1.55,-0.01,0.08,0.0,k
3086.0,2975.0,3086.0,4095.0,4095.0,4095.0,2768.0,2905.0,1.65,9.73,-1.7,-0.1,0.05,-0.08,k
3088.0,2963.0,3082.0,4095.0,4095.0,4095.0,2766.0,2907.0,1.02,8.29,-1.29,-0.25,0.08,0.01,k
3092.0,2964.0,3082.0,4095.0,4095.0,4095.0,2765.0,2910.0,1.46,10.16,-1.39,0.06,0.49,-0.1,k
3088.0,2963.0,3087.0,4095.0,4095.0,4095.0,2768.0,2912.0,1.1,9.2,-1.24,-0.18,0.09,-0.06,k
3086.0,2960.0,3088.0,4095.0,4095.0,4095.0,2768.0,2911.0,1.47,9.58,-1.35,-0.01,0.01,0.14,k
3088.0,2960.0,3084.0,4095.0,4095.0,4095.0,2767.0,2915.0,1.67,9.17,-0.97,0.05,-0.15,0.02,k
3091.0,2960.0,3071.0,4095.0,4095.0,4095.0,2771.0,2914.0,1.55,9.7,-1.39,0.16,-0.01,-0.03,k
3089.0,2967.0,3079.0,4095.0,4095.0,4095.0,2766.0,2913.0,1.67,9.41,-1.31,0.07,-0.14,-0.04,k
3094.0,2963.0,3069.0,4095.0,4095.0,4095.0,2767.0,2914.0,1.69,9.65,-1.6,0.04,-0.01,-0.04,k
3093.0,2959.0,3079.0,4095.0,4095.0,4095.0,2765.0,2917.0,1.27,9.48,-1.58,0.1,0.17,-0.08,k
3102.0,2960.0,3071.0,4095.0,4095.0,4095.0,2767.0,2918.0,1.54,9.77,-1.87,0.06,-0.16,0.13,k
3093.0,2961.0,3071.0,4095.0,4095.0,4095.0,2765.0,2919.0,1.98,9.6,-2.04,-0.05,-0.26,-0.09,k
3107.0,2971.0,3088.0,4095.0,4095.0,4095.0,2772.0,2922.0,1.31,9.53,-1.83,-0.07,0.01,0.02,k
3107.0,2960.0,3085.0,4095.0,4095.0,4095.0,2757.0,2920.0,1.51,9.39,-1.47,0.16,-0.34,0.18,k
3110.0,2961.0,3085.0,4095.0,4095.0,4095.0,2734.0,2890.0,1.16,9.63,-1.89,-0.03,0.04,-0.11,k
3110.0,2960.0,3079.0,4095.0,4095.0,4095.0,2730.0,2896.0,1.65,9.46,-1.95,0.01,-0.28,0.19,k
3117.0,2961.0,3082.0,4095.0,4095.0,4095.0,2753.0,2928.0,1.23,9.22,-1.52,-0.14,-0.02,-0.05,k
3120.0,2965.0,3070.0,4095.0,4095.0,4095.0,2870.0,3019.0,1.91,9.81,-1.75,0.1,0.1,0.0,k
3120.0,2967.0,3068.0,4095.0,4095.0,4095.0,2928.0,3055.0,1.05,8.91,-2.04,-0.17,0.05,-0.06,k
3118.0,2965.0,3081.0,4095.0,4095.0,4095.0,2933.0,3062.0,1.72,9.79,-1.62,0.06,-0.18,0.26,k
3121.0,2967.0,3071.0,4095.0,4095.0,4095.0,2952.0,3088.0,1.46,9.06,-1.68,-0.1,0.19,-0.19,k
3123.0,2962.0,3070.0,4095.0,4095.0,4095.0,2987.0,3134.0,1.81,9.48,-1.85,-0.1,0.08,-0.02,k
3122.0,2962.0,3070.0,4095.0,4095.0,4095.0,3083.0,3263.0,1.81,9.05,-1.66,-0.3,0.16,-0.09,k
3129.0,2960.0,3068.0,4095.0,4095.0,4095.0,3091.0,3298.0,1.41,9.4,-1.77,-0.04,0.08,-0.04,k
3126.0,2959.0,3066.0,4095.0,4095.0,4095.0,3106.0,3324.0,1.61,9.57,-1.41,-0.07,-0.03,0.18,k
3120.0,2957.0,3055.0,4095.0,4095.0,4095.0,3086.0,3279.0,1.18,9.39,-1.53,-0.04,0.23,-0.06,k
3115.0,2960.0,3065.0,4095.0,4095.0,4095.0,2931.0,3133.0,1.62,9.65,-1.68,0.04,-0.07,0.42,k
3122.0,2958.0,3067.0,4095.0,4095.0,4095.0,2931.0,3110.0,1.82,9.07,-1.62,-0.07,0.06,-0.03,k
3131.0,2967.0,3060.0,4095.0,4095.0,4095.0,2928.0,3117.0,2.06,9.93,-1.6,-0.05,0.1,0.05,k
3135.0,2967.0,3059.0,4095.0,4095.0,4095.0,2855.0,3071.0,2.33,9.46,-1.53,0.02,-0.17,0.05,k
3137.0,2962.0,3063.0,4095.0,4095.0,4095.0,2855.0,3085.0,2.17,9.28,-1.49,-0.13,0.09,-0.14,k
3135.0,2969.0,3056.0,4095.0,4095.0,4095.0,2901.0,3110.0,2.14,9.65,-1.66,-0.07,0.05,-0.05,k
3150.0,2973.0,3066.0,4095.0,4095.0,4095.0,3006.0,3205.0,1.7,9.07,-1.49,-0.27,0.01,-0.16,k
3148.0,2971.0,3059.0,4095.0,4095.0,4095.0,2909.0,3105.0,1.64,9.5,-1.25,0.1,-0.05,0.04,k
3138.0,2972.0,3069.0,4095.0,4095.0,4095.0,2849.0,3062.0,1.65,9.18,-1.15,-0.1,0.04,-0.01,k
3147.0,2975.0,3071.0,4095.0,4095.0,4095.0,2870.0,3047.0,1.86,9.33,-1.04,0.05,-0.12,0.08,k
3134.0,2973.0,3071.0,4095.0,4095.0,4095.0,2809.0,2971.0,2.09,9.65,-1.79,-0.18,0.18,-0.17,k
3134.0,2979.0,3088.0,4095.0,4095.0,4095.0,2788.0,2948.0,2.02,9.35,-1.11,0.04,-0.13,0.04,k
3136.0,2979.0,3088.0,4095.0,4095.0,4095.0,2768.0,2936.0,1.64,9.27,-1.08,-0.01,0.06,-0.15,k
3138.0,2976.0,3088.0,4095.0,4095.0,4095.0,2741.0,2925.0,1.44,9.85,-1.24,0.03,0.04,-0.05,k
3139.0,2978.0,3088.0,4095.0,4095.0,4095.0,2766.0,2940.0,1.9,9.58,-1.23,0.1,-0.1,-0.02,k
3136.0,2975.0,3092.0,4095.0,4095.0,4095.0,2768.0,2938.0,1.93,9.87,-1.65,0.13,0.1,-0.13,k
3137.0,2970.0,3090.0,4095.0,4095.0,4095.0,2777.0,2946.0,1.73,9.24,-1.53,0.08,-0.14,0.06,k
3149.0,2978.0,3088.0,4095.0,4095.0,4095.0,2779.0,2960.0,1.81,9.77,-1.77,-0.16,0.11,-0.09,k
3152.0,3071.0,3183.0,4095.0,4095.0,4095.0,2868.0,3057.0,1.82,9.58,-1.58,0.1,-0.04,-0.0,k
3161.0,3091.0,3198.0,4095.0,4095.0,4095.0,2873.0,3071.0,1.56,9.02,-1.31,-0.17,-0.0,0.02,k
3169.0,3171.0,3280.0,4095.0,4095.0,4095.0,2979.0,3187.0,2.16,9.58,-1.63,-0.07,0.18,-0.03,k
3179.0,3086.0,3186.0,4095.0,4095.0,4095.0,2885.0,3099.0,1.24,9.38,-1.42,-0.02,0.17,-0.13,k
3178.0,3043.0,3157.0,4095.0,4095.0,4095.0,2849.0,3035.0,2.05,9.69,-1.7,-0.13,-0.18,-0.02,k
3157.0,3042.0,3143.0,4095.0,4095.0,4095.0,3085.0,3267.0,2.11,8.75,-1.33,-0.52,-0.24,-0.13,k
3162.0,3091.0,3203.0,4095.0,4095.0,4095.0,3766.0,3711.0,2.49,11.05,-1.36,-0.05,0.32,-0.16,k
3146.0,3174.0,3280.0,4095.0,4095.0,4095.0,4019.0,3639.0,0.08,8.78,-0.35,-0.07,0.17,-0.13,k
3146.0,3022.0,3142.0,4095.0,4095.0,4095.0,3983.0,3458.0,2.05,11.03,-1.62,-0.04,0.14,0.17,k
3145.0,3011.0,3130.0,4095.0,4095.0,4095.0,4095.0,3522.0,1.59,8.69,-0.62,0.12,-0.24,0.12,k
3153.0,3025.0,3136.0,4095.0,4095.0,4095.0,4095.0,3552.0,1.4,9.95,-2.04,0.19,0.12,0.32,k
3152.0,3083.0,3198.0,4095.0,4095.0,4095.0,3907.0,3787.0,2.59,9.84,-1.51,0.03,-0.45,0.35,k
3153.0,3082.0,3194.0,4095.0,4095.0,4095.0,3664.0,3760.0,2.01,8.83,-1.34,-0.01,-0.17,0.04,k
3150.0,3126.0,3237.0,4095.0,4095.0,4095.0,3583.0,3760.0,1.98,9.98,-1.46,0.18,0.07,0.08,k
3154.0,3115.0,3221.0,4095.0,4095.0,4095.0,3434.0,3649.0,2.37,9.62,-1.49,-0.0,-0.16,0.0,k
3154.0,3109.0,3231.0,4095.0,4095.0,4095.0,3462.0,3695.0,2.01,9.81,-1.61,0.07,-0.01,-0.0,k
3159.0,3118.0,3226.0,4095.0,4095.0,4095.0,3408.0,3628.0,1.9,9.13,-1.29,0.06,-0.12,-0.03,k
3149.0,3131.0,3247.0,4095.0,4095.0,4095.0,3417.0,3632.0,2.26,9.89,-1.82,0.04,0.06,-0.05,k
3150.0,3198.0,3311.0,4095.0,4095.0,4095.0,3287.0,3499.0,2.24,9.46,-1.62,0.27,0.03,-0.14,k
3146.0,3187.0,3297.0,4095.0,4095.0,4095.0,3050.0,3301.0,1.58,9.23,-1.97,-0.09,0.07,0.06,k
3141.0,3239.0,3354.0,4095.0,4095.0,4095.0,2955.0,3343.0,2.52,10.19,-1.95,0.17,-0.08,0.15,k
3138.0,3187.0,3311.0,4095.0,4095.0,4095.0,2895.0,3274.0,1.61,8.9,-1.64,0.04,-0.03,0.07,k
3150.0,3198.0,3312.0,4095.0,4095.0,4095.0,2943.0,3312.0,2.66,9.67,-2.03,-0.1,0.05,-0.0,k
3136.0,3203.0,3313.0,4095.0,4095.0,4095.0,2959.0,3303.0,2.04,9.06,-1.46,0.01,-0.03,-0.0,k
3147.0,3107.0,3221.0,4095.0,4095.0,4095.0,2871.0,3221.0,2.2,9.25,-1.8,-0.17,-0.03,-0.04,k
3149.0,3162.0,3281.0,4095.0,4095.0,4095.0,2990.0,3305.0,2.48,10.06,-1.93,-0.05,-0.01,0.03,k
3143.0,3184.0,3301.0,4095.0,4095.0,4095.0,3035.0,3319.0,1.96,9.01,-1.72,0.04,-0.01,-0.07,k
3141.0,3157.0,3270.0,4095.0,4095.0,4095.0,3024.0,3282.0,2.14,9.95,-2.03,-0.22,0.09,-0.07,k
3137.0,3153.0,3264.0,4095.0,4095.0,4095.0,3079.0,3258.0,1.72,9.29,-1.58,-0.01,-0.12,0.11,k
3142.0,3021.0,3141.0,4095.0,4095.0,4095.0,3188.0,3278.0,2.1,9.56,-1.88,-0.23,0.2,-0.11,k
3136.0,3047.0,3167.0,4095.0,4095.0,4095.0,3647.0,3287.0,2.11,9.28,-0.78,0.21,0.1,0.04,k
3140.0,3120.0,3246.0,4095.0,4095.0,4095.0,3458.0,3301.0,1.25,9.12,-1.5,0.05,0.23,0.05,k
3141.0,3120.0,3233.0,4095.0,4095.0,4095.0,3120.0,3287.0,2.73,9.91,-1.89,0.14,0.11,0.14,k
3151.0,3135.0,3249.0,4095.0,4095.0,4095.0,2999.0,3280.0,2.37,8.67,-2.01,-0.02,0.1,-0.11,k
3147.0,3136.0,3242.0,4095.0,4095.0,4095.0,3017.0,3280.0,2.33,9.52,-2.07,0.03,0.06,0.08,k
3152.0,3147.0,3248.0,4095.0,4095.0,4095.0,3024.0,3281.0,2.58,9.22,-1.76,0.02,-0.04,-0.16,k
3143.0,3127.0,3239.0,4095.0,4095.0,4095.0,3021.0,3278.0,1.99,9.64,-2.1,0.02,0.13,-0.01,k
3147.0,3136.0,3252.0,4095.0,4095.0,4095.0,3030.0,3301.0,2.1,9.0,-1.52,-0.01,-0.12,0.0,k
3149.0,3198.0,3301.0,4095.0,4095.0,4095.0,3085.0,3343.0,2.0,9.03,-2.2,-0.13,0.17,-0.22,k
3151.0,3095.0,3215.0,4095.0,4095.0,4095.0,2980.0,3248.0,2.76,9.67,-2.12,-0.02,0.16,-0.02,k
3149.0,3121.0,3233.0,4095.0,4095.0,4095.0,2999.0,3279.0,2.13,9.62,-1.93,-0.17,0.21,-0.24,k
3139.0,3149.0,3267.0,4095.0,4095.0,4095.0,3025.0,3296.0,2.1,9.18,-1.86,-0.08,0.21,-0.07,k
3123.0,3089.0,3202.0,4095.0,4095.0,4095.0,2979.0,3217.0,2.14,9.67,-1.98,0.12,0.0,0.11,k
3130.0,3100.0,3209.0,4095.0,4095.0,4095.0,2981.0,3228.0,1.63,9.13,-1.3,-0.09,0.0,-0.1,k
3123.0,3090.0,3199.0,4095.0,4095.0,4095.0,2977.0,3211.0,1.83,9.37,-1.72,0.03,-0.01,0.03,k
3122.0,3071.0,3198.0,4095.0,4095.0,4095.0,2965.0,3206.0,2.1,8.94,-1.52,0.03,-0.11,0.11,k
3123.0,3071.0,3184.0,4095.0,4095.0,4095.0,2960.0,3202.0,2.54,9.37,-1.84,0.2,-0.04,0.06,k
3126.0,3090.0,3216.0,4095.0,4095.0,4095.0,2967.0,3237.0,1.95,9.24,-1.97,-0.01,-0.05,0.08,k
3123.0,3099.0,3213.0,4046.0,4095.0,4095.0,2955.0,3247.0,2.61,9.37,-2.03,-0.06,0.29,-0.2,k
3127.0,3114.0,3231.0,4095.0,4095.0,4095.0,2960.0,3259.0,1.63,9.47,-2.16,0.01,0.23,-0.04,k
3120.0,3110.0,3216.0,4095.0,4095.0,4095.0,2974.0,3257.0,2.51,9.38,-2.1,-0.05,0.09,-0.21,k
3123.0,3125.0,3247.0,4095.0,4095.0,4095.0,2992.0,3284.0,1.65,8.99,-1.94,0.03,-0.05,-0.05,k
3126.0,3114.0,3223.0,4095.0,4095.0,4095.0,2983.0,3280.0,2.2,9.76,-2.16,-0.01,0.06,-0.06,k
3120.0,3120.0,3234.0,4095.0,4095.0,4095.0,2983.0,3287.0,1.67,9.07,-2.0,-0.0,-0.1,0.17,k
3118.0,3118.0,3232.0,4095.0,4095.0,4095.0,2970.0,3287.0,2.56,9.6,-1.99,-0.13,-0.08,-0.13,k
3117.0,3125.0,3231.0,4095.0,4095.0,4095.0,2979.0,3294.0,1.81,9.88,-2.1,0.26,-0.02,0.0,k
3127.0,3169.0,3280.0,4095.0,4095.0,4095.0,3043.0,3315.0,2.06,8.68,-2.17,-0.03,-0.35,0.2,k
3126.0,3149.0,3264.0,4095.0,4095.0,4095.0,3024.0,3275.0,1.83,9.62,-2.44,-0.19,-0.12,0.02,k
3136.0,3131.0,3235.0,4095.0,4095.0,4095.0,3003.0,3238.0,2.17,9.22,-1.92,0.11,-0.31,0.08,k
3141.0,3132.0,3247.0,4095.0,4095.0,4095.0,2998.0,3234.0,2.23,9.7,-2.42,-0.32,-0.29,-0.09,k
3152.0,3116.0,3223.0,4095.0,4095.0,4095.0,2983.0,3230.0,2.36,9.61,-2.26,-0.08,-0.31,0.03,k
3157.0,3095.0,3215.0,4095.0,4095.0,4095.0,2951.0,3232.0,1.73,8.46,-1.47,-0.38,0.05,-0.2,k
3179.0,3067.0,3189.0,4095.0,4095.0,4095.0,2931.0,3249.0,1.94,9.93,-2.3,-0.19,0.15,-0.12,k
3192.0,3184.0,3307.0,4095.0,4095.0,4095.0,3027.0,3363.0,2.17,9.24,-1.85,-0.0,-0.16,-0.06,k
3191.0,3185.0,3312.0,4095.0,4095.0,4095.0,3021.0,3396.0,1.72,8.55,-1.41,-0.34,0.14,-0.22,k
3173.0,3143.0,3258.0,4095.0,4095.0,4095.0,2980.0,3375.0,2.18,10.22,-1.97,-0.15,0.18,-0.02,k
3151.0,3227.0,3355.0,4095.0,4095.0,4095.0,3042.0,3467.0,1.11,8.82,-1.45,-0.21,0.17,-0.16,k
3119.0,2896.0,3007.0,4095.0,4095.0,4095.0,2710.0,3156.0,2.17,9.17,-1.41,-0.5,0.13,-0.12,k
3107.0,2898.0,3015.0,4095.0,4095.0,4095.0,2722.0,3167.0,1.96,9.79,-1.37,-0.04,0.21,0.01,k
3115.0,2910.0,3019.0,4095.0,4095.0,4095.0,2721.0,3177.0,1.46,9.31,-1.0,-0.05,0.15,-0.04,k
3087.0,2883.0,3009.0,4095.0,4095.0,4095.0,2713.0,3170.0,1.88,9.98,-1.6,-0.21,0.2,-0.23,k
3088.0,2896.0,3010.0,4095.0,4095.0,4095.0,2720.0,3183.0,1.44,9.36,-1.3,0.02,-0.03,0.08,k
3081.0,2896.0,3008.0,4095.0,4095.0,4095.0,2722.0,3184.0,1.93,9.35,-1.33,-0.37,0.05,-0.2,k
3069.0,2891.0,2995.0,4095.0,4095.0,4095.0,2727.0,3184.0,1.71,9.96,-1.33,0.0,0.09,-0.0,k
3067.0,2897.0,3011.0,4095.0,4095.0,4095.0,2725.0,3193.0,1.53,8.67,-0.64,-0.1,-0.15,0.06,k
3071.0,2899.0,3007.0,4095.0,4095.0,4095.0,2733.0,3196.0,1.87,9.99,-1.21,0.04,0.25,-0.18,k
3067.0,2896.0,3011.0,4095.0,4095.0,4095.0,2730.0,3189.0,1.41,8.97,-0.71,0.12,-0.21,0.01,k
3071.0,2902.0,3011.0,4095.0,4095.0,4095.0,2736.0,3199.0,1.47,9.7,-1.36,-0.17,-0.02,-0.07,k
3088.0,2898.0,3010.0,4095.0,4095.0,4095.0,2733.0,3199.0,1.94,9.6,-1.16,-0.01,-0.05,-0.03,k
3086.0,2898.0,3008.0,4095.0,4095.0,4095.0,2727.0,3184.0,0.86,9.03,-0.77,-0.13,-0.03,-0.0,k
3071.0,2897.0,3014.0,4095.0,4095.0,4095.0,2723.0,3145.0,1.97,9.55,-1.24,-0.09,0.03,-0.12,k
3086.0,2896.0,3008.0,4095.0,4095.0,4095.0,2725.0,3152.0,1.55,9.85,-1.13,0.17,0.12,-0.05,k
3069.0,2897.0,3013.0,4095.0,4095.0,4095.0,2736.0,3173.0,1.5,9.21,-1.16,-0.15,-0.1,-0.01,k
3057.0,2896.0,3006.0,4095.0,4095.0,4095.0,2737.0,3184.0,1.25,9.86,-1.62,-0.07,0.09,-0.01,k
3063.0,2897.0,3005.0,4095.0,4095.0,4095.0,2739.0,3190.0,1.74,9.47,-0.96,-0.03,-0.01,-0.03,k
3057.0,2902.0,3003.0,4095.0,4095.0,4095.0,2742.0,3195.0,1.28,9.84,-1.19,-0.18,0.07,-0.04,k
3069.0,2896.0,3010.0,4095.0,4095.0,4095.0,2737.0,3195.0,1.67,9.6,-0.85,0.03,-0.01,0.02,k
3061.0,2907.0,3008.0,4095.0,4095.0,4095.0,2736.0,3189.0,1.25,9.43,-0.96,-0.07,0.02,-0.01,k
3056.0,2883.0,2998.0,4095.0,4095.0,4095.0,2742.0,3184.0,1.68,9.97,-1.14,0.03,0.13,-0.06,k
3069.0,2905.0,3018.0,4095.0,4095.0,4095.0,2760.0,3203.0,1.37,9.53,-0.75,0.04,-0.03,0.05,k
3085.0,2909.0,3033.0,4095.0,4095.0,4095.0,2770.0,3219.0,1.33,9.85,-1.31,-0.01,0.15,-0.16,k
3088.0,2909.0,3034.0,4095.0,4095.0,4095.0,2775.0,3223.0,1.71,9.63,-1.21,0.04,-0.05,0.09,k
3094.0,2913.0,3026.0,4095.0,4095.0,4095.0,2785.0,3223.0,1.56,9.13,-1.33,-0.08,-0.02,-0.12,k
3094.0,2914.0,3026.0,4095.0,4095.0,4095.0,2781.0,3220.0,1.75,9.98,-1.38,-0.02,0.01,0.0,k
3093.0,2905.0,3013.0,4095.0,4095.0,4095.0,2774.0,3211.0,1.09,9.06,-0.74,-0.07,-0.06,-0.02,k
3094.0,2921.0,3024.0,4095.0,4095.0,4095.0,2778.0,3207.0,1.41,9.69,-1.18,-0.04,0.09,-0.05,k
3100.0,2906.0,3024.0,4095.0,4095.0,4095.0,2773.0,3203.0,1.57,9.69,-1.12,0.05,0.01,0.11,k
3088.0,2896.0,3008.0,4095.0,4095.0,4095.0,2767.0,3191.0,1.51,9.17,-1.03,-0.15,0.0,-0.07,k
3083.0,2894.0,3010.0,4095.0,4095.0,4095.0,2762.0,3183.0,1.32,9.98,-1.23,-0.01,0.09,0.03,k
3083.0,2890.0,3007.0,4095.0,4095.0,4095.0,2759.0,3164.0,1.56,9.41,-0.96,-0.04,-0.07,0.04,k
3087.0,2885.0,3007.0,4095.0,4095.0,4095.0,2752.0,3154.0,1.73,9.54,-1.09,-0.07,0.03,0.03,k
3086.0,2895.0,3002.0,4095.0,4095.0,4095.0,2752.0,3152.0,1.48,9.6,-1.04,0.02,0.1,-0.05,k
3068.0,2889.0,2995.0,4095.0,4095.0,4095.0,2750.0,3148.0,1.45,9.37,-0.93,-0.08,0.05,-0.04,k
3062.0,2885.0,3001.0,4095.0,4095.0,4095.0,2745.0,3141.0,1.52,9.7,-1.18,-0.01,0.03,0.01,k
3067.0,2883.0,3002.0,4095.0,4095.0,4095.0,2753.0,3134.0,1.32,9.17,-0.9,0.01,-0.03,-0.01,k
3071.0,2887.0,2998.0,4095.0,4095.0,4095.0,2746.0,3122.0,1.26,9.72,-1.27,-0.11,0.1,0.02,k
3071.0,2892.0,3005.0,4095.0,4095.0,4095.0,2753.0,3119.0,1.81,9.78,-1.08,0.16,-0.04,0.07,k
3086.0,2883.0,3003.0,4095.0,4095.0,4095.0,2762.0,3082.0,1.22,8.32,-1.03,0.03,0.08,-0.01,k
3097.0,2890.0,3003.0,4095.0,4095.0,4095.0,2756.0,3071.0,1.59,10.13,-1.49,0.01,0.25,0.0,k
3097.0,2883.0,3002.0,4095.0,4095.0,4095.0,2749.0,3083.0,1.1,8.55,-0.85,0.18,-0.04,0.03,k
3106.0,2883.0,3001.0,4095.0,4095.0,4095.0,2742.0,3087.0,1.6,9.83,-1.44,-0.18,0.15,-0.09,k
3101.0,2885.0,2995.0,4095.0,4095.0,4095.0,2739.0,3081.0,1.5,9.21,-1.13,0.26,-0.12,0.16,k
3107.0,2895.0,3009.0,4095.0,4095.0,4095.0,2747.0,3098.0,1.65,9.53,-1.44,-0.12,-0.06,-0.06,k
3119.0,2896.0,3011.0,4095.0,4095.0,4095.0,2749.0,3105.0,1.75,9.68,-1.66,0.04,-0.08,0.09,k
3125.0,2898.0,3008.0,4095.0,4095.0,4095.0,2736.0,3105.0,1.92,9.27,-1.31,-0.08,-0.13,0.02,k
3129.0,2895.0,3012.0,4095.0,4095.0,4095.0,2723.0,3098.0,1.75,9.77,-1.54,-0.09,0.01,-0.06,k
3129.0,2890.0,2998.0,4095.0,4095.0,4095.0,2723.0,3095.0,1.81,9.45,-1.51,0.07,-0.09,0.05,k
3131.0,2892.0,3011.0,4095.0,4095.0,4095.0,2726.0,3111.0,1.58,9.45,-1.26,-0.14,0.06,-0.04,k
3126.0,2891.0,2998.0,4095.0,4095.0,4095.0,2732.0,3115.0,2.13,9.97,-1.47,0.09,0.1,-0.07,k
3136.0,2891.0,2997.0,4095.0,4095.0,4095.0,2735.0,3094.0,1.04,9.26,-1.24,0.1,0.12,-0.14,k
3140.0,2893.0,3011.0,4095.0,4095.0,4095.0,2738.0,3071.0,1.5,9.75,-2.02,-0.06,0.29,-0.23,k
3143.0,2879.0,3007.0,4095.0,4095.0,4095.0,2743.0,3088.0,1.91,9.28,-1.63,0.07,-0.03,-0.1,k
3120.0,2878.0,2998.0,4095.0,4095.0,4095.0,2733.0,3088.0,0.58,9.02,-1.53,-0.0,0.15,-0.18,k
3121.0,2881.0,3001.0,4095.0,4095.0,4095.0,2736.0,3097.0,1.83,9.9,-1.88,-0.11,-0.01,-0.05,k
3137.0,2876.0,2993.0,4095.0,4095.0,4095.0,2736.0,3102.0,1.29,9.4,-1.58,0.1,-0.05,0.06,k
3158.0,2878.0,2992.0,4095.0,4095.0,4095.0,2737.0,3107.0,1.55,9.69,-1.68,-0.15,0.07,-0.17,k
3184.0,2879.0,2995.0,4095.0,4095.0,4095.0,2735.0,3111.0,1.38,10.05,-1.55,0.03,-0.09,0.06,k
3216.0,2889.0,2992.0,4082.0,4095.0,4095.0,2715.0,3103.0,1.89,9.2,-1.37,0.04,-0.1,-0.16,k
3238.0,2886.0,2993.0,4095.0,4095.0,4095.0,2720.0,3102.0,1.32,9.68,-1.87,-0.08,0.11,-0.01,k
3244.0,2886.0,2997.0,4095.0,4095.0,4095.0,2704.0,3088.0,1.81,9.32,-1.46,0.07,-0.09,-0.14,k
3226.0,2886.0,3005.0,4095.0,4095.0,4095.0,2688.0,3019.0,0.66,9.03,-1.63,0.02,0.25,-0.28,k
3255.0,2880.0,2993.0,4095.0,4095.0,4095.0,2639.0,2941.0,1.42,10.26,-1.99,-0.07,0.06,-0.08,k
3283.0,2885.0,2992.0,4095.0,4095.0,4095.0,2609.0,2911.0,0.85,9.77,-1.61,0.18,-0.14,-0.07,k
3281.0,2886.0,2993.0,4095.0,4095.0,4095.0,2622.0,2927.0,0.72,9.23,-1.8,-0.16,0.17,-0.07,k
3279.0,2889.0,2995.0,4095.0,4095.0,4095.0,2640.0,2960.0,1.45,10.28,-2.06,-0.03,-0.03,0.06,k
3275.0,2886.0,2994.0,4095.0,4095.0,4095.0,2651.0,2979.0,0.96,9.08,-1.41,-0.0,-0.01,-0.05,k
3276.0,2882.0,2992.0,4095.0,4095.0,4095.0,2649.0,2992.0,1.11,9.68,-1.34,-0.05,0.01,-0.01,k
3261.0,2891.0,2991.0,4095.0,4095.0,4095.0,2625.0,2970.0,0.73,9.62,-1.67,0.0,-0.04,0.04,k
