hall_1,hall_2,hall_3,flex_t,flex_i,flex_m,flex_r,flex_p,accel_x,accel_y,accel_z,gyro_x,gyro_y,gyro_z,sign
2938.0,2905.0,2949.0,3904.0,4095.0,4095.0,2546.0,3043.0,-2.52,9.27,-2.54,-0.31,0.4,0.05,k
2934.0,2896.0,2949.0,3904.0,4095.0,4095.0,2544.0,3041.0,-2.15,10.07,-0.31,-0.41,0.51,0.17,k
2941.0,2896.0,2954.0,3919.0,4095.0,4095.0,2547.0,3039.0,-1.31,10.5,0.4,-0.09,0.36,0.18,k
2944.0,2897.0,2954.0,3922.0,4095.0,4095.0,2556.0,3048.0,-1.13,9.47,-0.17,0.15,-0.08,0.1,k
2943.0,2893.0,2950.0,3931.0,4095.0,4095.0,2550.0,3047.0,-1.68,8.65,-0.59,0.05,-0.23,0.07,k
2939.0,2897.0,2951.0,3947.0,4095.0,4095.0,2549.0,3045.0,-1.2,9.37,-0.88,0.15,-0.15,-0.11,k
2943.0,2893.0,2950.0,3934.0,4095.0,4095.0,2549.0,3051.0,-0.52,8.99,-0.14,0.18,-0.41,-0.17,k
2939.0,2898.0,2953.0,3933.0,4095.0,4095.0,2551.0,3056.0,-2.07,8.47,-2.09,0.17,-0.61,-0.44,k
2942.0,2896.0,2951.0,3925.0,4095.0,4095.0,2545.0,3046.0,-3.65,8.71,-2.55,-0.34,-0.44,-0.29,k
2934.0,2898.0,2942.0,3860.0,4095.0,4095.0,2556.0,3055.0,-3.78,9.55,-1.69,-0.5,0.09,-0.26,k
2938.0,2896.0,2958.0,3952.0,4095.0,4095.0,2555.0,3052.0,-3.5,10.13,-0.08,-0.34,0.45,-0.06,k
2939.0,2901.0,2955.0,3949.0,4095.0,4095.0,2558.0,3051.0,-2.01,9.93,0.05,-0.13,0.46,0.06,k
2938.0,2895.0,2960.0,3952.0,4095.0,4095.0,2558.0,3056.0,-2.17,9.5,0.41,-0.06,0.45,0.1,k
2933.0,2900.0,2953.0,3959.0,4095.0,4095.0,2554.0,3056.0,-0.53,9.57,0.03,-0.12,1.54,-0.19,k
2940.0,2898.0,2949.0,3990.0,4095.0,4095.0,2559.0,3055.0,-0.39,9.73,-0.23,-0.3,1.38,0.01,k
2927.0,2896.0,2955.0,3984.0,4095.0,4095.0,2559.0,3060.0,0.02,9.64,-1.2,-0.66,4.13,-0.59,k
2934.0,2902.0,2950.0,3981.0,4095.0,4095.0,2559.0,3066.0,-2.34,9.25,-2.26,-0.44,3.29,-0.33,k
2933.0,2897.0,2951.0,3984.0,4095.0,4095.0,2559.0,3071.0,-3.68,9.09,-1.7,-0.22,1.6,0.17,k
2935.0,2902.0,2949.0,3984.0,4095.0,4095.0,2559.0,3085.0,-1.77,9.37,-2.03,-0.03,-1.3,0.44,k
2933.0,2896.0,2960.0,3940.0,4095.0,4095.0,2559.0,3070.0,-0.91,9.45,-1.52,0.2,-3.17,0.51,k
2934.0,2897.0,2954.0,3885.0,4095.0,4095.0,2559.0,3055.0,0.72,9.9,-1.44,0.12,-3.72,0.55,k
2928.0,2895.0,2955.0,3911.0,4095.0,4095.0,2559.0,3061.0,-0.16,9.74,-1.12,0.02,-2.26,0.3,k
2929.0,2896.0,2946.0,3884.0,4095.0,4095.0,2559.0,3070.0,-0.37,9.58,-0.36,-0.06,-1.53,0.19,k
2931.0,2892.0,2957.0,3781.0,4095.0,4095.0,2559.0,3069.0,-1.54,9.36,-0.56,-0.08,-1.14,-0.06,k
2929.0,2895.0,2943.0,3811.0,4095.0,4095.0,2559.0,3070.0,-1.23,8.94,-0.99,-0.3,-0.65,-0.17,k
2933.0,2891.0,2945.0,3859.0,4095.0,4095.0,2559.0,3083.0,-2.82,9.98,0.94,-0.55,0.51,0.02,k
2935.0,2891.0,2944.0,3871.0,4095.0,4095.0,2559.0,3088.0,-0.88,10.62,1.52,0.05,0.14,0.17,k
2935.0,2892.0,2941.0,3893.0,4095.0,4095.0,2559.0,3088.0,-0.27,9.81,1.19,0.21,-0.14,0.03,k
2937.0,2896.0,2948.0,3921.0,4095.0,4095.0,2559.0,3088.0,-0.26,8.99,0.72,0.16,-0.22,-0.01,k
2935.0,2893.0,2951.0,3919.0,4095.0,4095.0,2559.0,3085.0,-0.52,8.58,0.43,0.14,-0.34,-0.22,k
2930.0,2894.0,2947.0,3920.0,4095.0,4095.0,2559.0,3086.0,-1.99,8.63,-0.26,0.09,-0.41,-0.36,k
2935.0,2893.0,2959.0,3915.0,4095.0,4095.0,2559.0,3089.0,-3.04,9.07,-1.03,-0.14,-0.13,-0.36,k
2929.0,2895.0,2946.0,3918.0,4095.0,4095.0,2559.0,3088.0,-2.7,9.75,-0.27,-0.34,0.23,-0.09,k
2928.0,2891.0,2951.0,3936.0,4095.0,4095.0,2559.0,3088.0,-1.86,10.14,1.12,-0.39,0.42,-0.09,k
2929.0,2897.0,2954.0,3938.0,4095.0,4095.0,2559.0,3088.0,-2.85,10.13,1.88,-0.12,0.51,0.18,k
2935.0,2892.0,2946.0,3920.0,4095.0,4095.0,2585.0,3098.0,-2.51,9.96,1.46,0.29,0.43,0.45,k
2939.0,2890.0,2945.0,3938.0,4095.0,4095.0,2579.0,3092.0,-0.78,10.39,0.69,0.44,0.3,0.45,k
2930.0,2886.0,2943.0,3929.0,4095.0,4095.0,2559.0,3095.0,0.09,9.11,-0.92,0.24,0.3,0.46,k
2943.0,2896.0,2944.0,3942.0,4095.0,4095.0,2559.0,3099.0,-0.12,6.75,-1.13,-0.09,0.15,0.02,k
2930.0,2895.0,2944.0,4006.0,4095.0,4095.0,2559.0,3102.0,-0.51,9.19,-1.04,-0.55,0.23,-0.29,k
2939.0,2893.0,2943.0,4069.0,4095.0,4095.0,2587.0,3101.0,-0.51,10.81,2.22,-0.29,-0.03,-0.43,k
2935.0,2890.0,2945.0,4064.0,4095.0,4095.0,2583.0,3109.0,-1.95,11.06,-0.29,0.33,-0.31,-0.2,k
2933.0,2896.0,2953.0,4086.0,4095.0,4095.0,2559.0,3107.0,-2.57,9.4,-1.71,0.02,0.04,0.2,k
2937.0,2896.0,2952.0,4077.0,4095.0,4095.0,2559.0,3111.0,-1.68,8.23,-0.32,-0.29,0.22,0.29,k
2930.0,2891.0,2960.0,4067.0,4095.0,4095.0,2559.0,3119.0,-0.86,8.36,0.26,-0.45,0.34,0.13,k
2937.0,2897.0,2940.0,4066.0,4095.0,4095.0,2591.0,3120.0,0.2,9.68,2.11,-0.3,-0.06,-0.06,k
2943.0,2902.0,2938.0,4042.0,4095.0,4095.0,2585.0,3122.0,-1.24,10.06,0.69,-0.16,-0.27,-0.18,k
2951.0,2896.0,2958.0,4023.0,4095.0,4095.0,2583.0,3123.0,-0.66,9.53,0.82,-0.31,-0.61,-0.11,k
2953.0,2902.0,2944.0,3978.0,4095.0,4095.0,2559.0,3129.0,-1.0,9.15,1.46,-0.23,-0.45,-0.21,k
2954.0,2896.0,2950.0,4045.0,4095.0,4095.0,2559.0,3129.0,0.41,9.1,2.05,-0.06,-0.47,-0.49,k
2951.0,2901.0,2947.0,4033.0,4095.0,4095.0,2580.0,3136.0,-2.28,9.3,2.23,0.21,-0.22,-0.77,k
2955.0,2891.0,2955.0,4075.0,4095.0,4095.0,2559.0,3140.0,-5.97,8.71,-0.46,-0.19,0.02,-0.04,k
2959.0,2901.0,2956.0,4091.0,4095.0,4095.0,2589.0,3147.0,-2.08,9.6,3.81,-0.39,0.21,0.51,k
2959.0,2899.0,2950.0,4074.0,4095.0,4095.0,2597.0,3152.0,-0.73,9.33,3.54,0.24,0.12,0.24,k
2953.0,2897.0,2951.0,4085.0,4095.0,4095.0,2591.0,3152.0,-0.44,8.59,2.33,0.39,-0.16,0.01,k
2957.0,2898.0,2943.0,4095.0,4095.0,4095.0,2588.0,3153.0,-1.03,8.5,0.85,0.24,-0.3,-0.29,k
2960.0,2899.0,2955.0,4094.0,4095.0,4095.0,2597.0,3152.0,-2.14,8.5,0.43,0.14,-0.37,-0.4,k
2950.0,2905.0,2953.0,4095.0,4095.0,4095.0,2591.0,3151.0,-3.47,8.97,-0.3,-0.35,-0.05,-0.32,k
2948.0,2903.0,2942.0,4083.0,4095.0,4095.0,2593.0,3152.0,-3.79,9.48,1.8,-0.31,0.38,0.0,k
2959.0,2896.0,2946.0,4094.0,4095.0,4095.0,2597.0,3145.0,-2.96,9.78,2.3,-0.21,0.57,0.27,k
2947.0,2898.0,2942.0,4081.0,4095.0,4095.0,2599.0,3147.0,-2.16,9.72,3.1,0.08,0.46,0.42,k
2951.0,2893.0,2947.0,4075.0,4095.0,4095.0,2615.0,3138.0,-1.4,9.51,1.53,0.27,0.28,0.46,k
2946.0,2901.0,2947.0,4061.0,4095.0,4095.0,2636.0,3151.0,-0.92,9.49,0.75,0.19,0.07,0.33,k
2947.0,2893.0,2943.0,4039.0,4095.0,4095.0,2627.0,3152.0,-0.32,7.61,0.05,-0.03,0.06,0.19,k
2954.0,2899.0,2949.0,4034.0,4095.0,4095.0,2634.0,3155.0,-0.31,8.77,1.1,-0.25,0.12,-0.21,k
2950.0,2899.0,2947.0,4037.0,4095.0,4095.0,2631.0,3169.0,-1.27,9.98,2.19,-0.02,-0.15,-0.35,k
2945.0,2897.0,2946.0,4049.0,4095.0,4095.0,2625.0,3167.0,-1.64,10.48,1.24,0.06,-0.31,-0.24,k
2946.0,2896.0,2957.0,4043.0,4095.0,4095.0,2634.0,3167.0,-2.58,10.41,0.5,0.24,-0.14,0.02,k
2947.0,2905.0,2945.0,4048.0,4095.0,4095.0,2630.0,3171.0,-2.12,9.72,-0.17,0.17,0.22,0.33,k
2951.0,2896.0,2953.0,4048.0,4095.0,4095.0,2628.0,3167.0,-1.65,8.2,-0.27,-0.02,0.5,0.38,k
2952.0,2897.0,2949.0,4048.0,4095.0,4095.0,2628.0,3169.0,-0.32,7.99,1.21,-0.04,0.63,0.12,k
2939.0,2895.0,2946.0,4049.0,4095.0,4095.0,2624.0,3166.0,-1.06,8.6,0.61,0.08,0.75,-0.23,k
2946.0,2896.0,2950.0,4045.0,4095.0,4095.0,2629.0,3176.0,-1.69,9.62,1.22,0.11,0.59,-0.36,k
2943.0,2896.0,2950.0,4013.0,4095.0,4095.0,2630.0,3175.0,-4.19,10.5,-0.31,0.02,0.65,0.02,k
2943.0,2897.0,2960.0,4043.0,4095.0,4095.0,2623.0,3170.0,-0.75,9.98,-0.59,0.01,0.76,0.5,k
2943.0,2900.0,2944.0,4042.0,4095.0,4095.0,2624.0,3173.0,0.37,10.03,-0.68,-0.05,3.64,-0.11,k
2943.0,2896.0,2946.0,4067.0,4095.0,4095.0,2621.0,3174.0,0.66,9.55,-0.6,0.05,1.62,-0.08,k
2941.0,2910.0,2950.0,4048.0,4095.0,4095.0,2620.0,3184.0,-0.51,9.45,-0.62,0.4,0.09,-0.46,k
2940.0,2896.0,2949.0,4035.0,4095.0,4095.0,2611.0,3170.0,-1.85,8.9,-2.37,0.4,-0.65,-0.68,k
2944.0,2894.0,2945.0,4047.0,4095.0,4095.0,2610.0,3162.0,-3.72,8.5,-4.82,0.18,-0.64,-0.47,k
2947.0,2897.0,2953.0,4049.0,4095.0,4095.0,2613.0,3167.0,-4.09,9.07,-2.91,-0.42,-0.42,-0.06,k
2939.0,2896.0,2957.0,4057.0,4095.0,4095.0,2612.0,3173.0,-3.44,9.14,-1.08,-0.31,-0.29,0.07,k
2939.0,2896.0,2960.0,4051.0,4095.0,4095.0,2608.0,3173.0,-3.58,9.08,-0.4,-0.41,-0.24,0.22,k
2943.0,2896.0,2946.0,4070.0,4095.0,4095.0,2608.0,3179.0,-3.2,9.28,1.05,-0.22,-0.04,0.45,k
2947.0,2897.0,2953.0,4048.0,4095.0,4095.0,2612.0,3188.0,-2.09,9.13,0.28,0.27,-0.91,0.51,k
2945.0,2903.0,2945.0,4035.0,4095.0,4095.0,2607.0,3184.0,-1.09,9.57,-1.38,0.37,-2.01,0.48,k
2941.0,2896.0,2953.0,4046.0,4095.0,4095.0,2605.0,3183.0,-0.48,9.72,-1.39,0.09,-1.89,0.27,k
2943.0,2892.0,2951.0,4035.0,4095.0,4095.0,2605.0,3184.0,-1.7,9.62,-0.54,0.04,-1.54,0.08,k
2941.0,2897.0,2946.0,4023.0,4095.0,4095.0,2599.0,3191.0,-0.77,10.25,-0.34,-0.11,-1.43,0.16,k
2937.0,2896.0,2954.0,4029.0,4095.0,4095.0,2593.0,3191.0,-1.16,9.61,0.24,-0.02,-0.87,0.42,k
2938.0,2901.0,2951.0,4083.0,4095.0,4095.0,2582.0,3205.0,-0.72,9.86,0.4,-0.25,-0.22,0.25,k
2939.0,2896.0,2957.0,4095.0,4095.0,4095.0,2605.0,3216.0,0.37,9.48,0.48,-0.09,-0.95,-0.01,k
2951.0,2897.0,2960.0,4088.0,4095.0,4095.0,2608.0,3227.0,0.17,8.86,0.85,0.01,-0.42,-0.36,k
2949.0,2903.0,2945.0,4095.0,4095.0,4095.0,2609.0,3241.0,-1.36,9.09,0.01,0.14,-0.2,-0.56,k
2950.0,2891.0,2958.0,4089.0,4095.0,4095.0,2619.0,3230.0,-2.08,9.62,-0.09,0.0,0.04,-0.24,k
2945.0,2899.0,2951.0,4095.0,4095.0,4095.0,2619.0,3233.0,-0.95,9.97,0.08,-0.17,-0.09,-0.2,k
2947.0,2898.0,2954.0,4091.0,4095.0,4095.0,2613.0,3235.0,-1.67,9.82,0.34,0.03,-0.28,-0.28,k
2949.0,2894.0,2949.0,4092.0,4095.0,4095.0,2615.0,3241.0,-1.95,8.96,0.12,0.02,-0.18,-0.14,k
2938.0,2896.0,2955.0,4095.0,4095.0,4095.0,2610.0,3234.0,-1.7,9.35,-0.01,-0.01,-0.02,-0.05,k
2939.0,2903.0,2958.0,4088.0,4095.0,4095.0,2615.0,3234.0,-2.07,9.38,0.2,0.03,0.03,-0.06,k
2943.0,2900.0,2955.0,4095.0,4095.0,4095.0,2608.0,3233.0,-2.5,9.45,0.14,0.07,0.12,-0.06,k
2939.0,2901.0,2957.0,4090.0,4095.0,4095.0,2615.0,3232.0,-2.31,9.32,-0.28,0.06,0.1,0.0,k
2945.0,2911.0,2957.0,4073.0,4095.0,4095.0,2615.0,3234.0,-2.12,9.54,0.02,0.08,0.09,0.02,k
2939.0,2896.0,2954.0,4083.0,4095.0,4095.0,2611.0,3237.0,-2.41,9.55,1.36,0.26,0.21,0.06,k
2937.0,2901.0,2949.0,4074.0,4095.0,4095.0,2617.0,3230.0,-1.61,9.24,-0.88,0.24,-0.04,0.2,k
2935.0,2905.0,2958.0,4063.0,4095.0,4095.0,2621.0,3229.0,-1.38,9.49,-1.08,0.23,-0.01,0.17,k
2942.0,2891.0,2945.0,4068.0,4095.0,4095.0,2617.0,3237.0,-0.99,9.67,-1.18,0.11,0.04,0.08,k
2939.0,2901.0,2949.0,4075.0,4095.0,4095.0,2622.0,3234.0,-1.34,9.27,-2.26,0.42,-0.07,0.01,k
2935.0,2899.0,2963.0,4075.0,4095.0,4095.0,2617.0,3242.0,-1.33,9.51,-2.16,0.13,-0.0,-0.01,k
2943.0,2897.0,2957.0,4069.0,4095.0,4095.0,2621.0,3237.0,-1.55,9.38,-1.68,0.04,0.09,-0.07,k
2941.0,2896.0,2959.0,4033.0,4095.0,4095.0,2621.0,3237.0,-1.51,9.49,-1.55,-0.05,0.12,-0.05,k
2940.0,2896.0,2958.0,4037.0,4095.0,4095.0,2617.0,3229.0,-1.53,9.73,-1.76,-0.03,0.08,-0.08,k
2941.0,2905.0,2952.0,4034.0,4095.0,4095.0,2615.0,3237.0,-1.81,9.42,-1.81,-0.05,0.03,-0.04,k
2934.0,2896.0,2950.0,4045.0,4095.0,4095.0,2622.0,3232.0,-1.49,9.55,-1.76,-0.05,0.02,-0.01,k
2939.0,2902.0,2954.0,4059.0,4095.0,4095.0,2617.0,3237.0,-1.66,9.43,-1.71,-0.09,0.11,-0.02,k
2939.0,2902.0,2958.0,4046.0,4095.0,4095.0,2623.0,3232.0,-1.53,9.39,-1.67,-0.09,0.08,-0.03,k
2941.0,2901.0,2959.0,4048.0,4095.0,4095.0,2622.0,3241.0,-1.36,9.42,-1.54,-0.09,0.05,-0.01,k
2938.0,2899.0,2958.0,4054.0,4095.0,4095.0,2620.0,3238.0,-1.48,9.39,-1.73,-0.09,0.05,-0.06,k
2941.0,2903.0,2960.0,4051.0,4095.0,4095.0,2624.0,3245.0,-1.4,9.43,-1.51,-0.11,0.05,-0.06,k
2939.0,2905.0,2956.0,4052.0,4095.0,4095.0,2618.0,3244.0,-1.47,9.5,-1.36,-0.04,0.02,-0.05,k
2942.0,2900.0,2960.0,4062.0,4095.0,4095.0,2623.0,3245.0,-1.48,9.47,-1.55,-0.05,0.05,-0.04,k
2940.0,2896.0,2950.0,4038.0,4095.0,4095.0,2625.0,3249.0,-1.59,9.46,-1.48,-0.01,-0.02,-0.09,k
2934.0,2895.0,2951.0,4045.0,4095.0,4095.0,2629.0,3241.0,-1.98,9.22,-1.6,-0.04,-0.0,-0.01,k
2939.0,2897.0,2955.0,4046.0,4095.0,4095.0,2627.0,3239.0,-1.57,9.25,-1.71,-0.09,0.02,0.05,k
2935.0,2903.0,2959.0,4050.0,4095.0,4095.0,2625.0,3235.0,-1.39,9.42,-1.56,-0.09,0.04,-0.03,k
2928.0,2899.0,2949.0,4018.0,4095.0,4095.0,2625.0,3235.0,-1.5,9.41,-1.67,0.12,0.34,-0.02,k
2933.0,2896.0,2951.0,3999.0,4095.0,4095.0,2621.0,3231.0,-1.57,9.62,-1.64,-0.29,4.3,-0.51,k
2930.0,2899.0,2950.0,3987.0,4095.0,4095.0,2622.0,3239.0,-1.46,9.7,-1.67,-0.31,2.16,-0.24,k
2933.0,2897.0,2951.0,4002.0,4095.0,4095.0,2622.0,3248.0,-1.51,9.15,-1.73,-0.14,1.04,-0.05,k
2935.0,2896.0,2960.0,4005.0,4095.0,4095.0,2619.0,3248.0,-0.93,9.22,-1.97,-0.12,0.27,-0.08,k
2929.0,2893.0,2954.0,3990.0,4095.0,4095.0,2624.0,3248.0,-1.87,9.3,-2.22,0.15,-2.9,0.27,k
2928.0,2897.0,2953.0,3995.0,4095.0,4095.0,2622.0,3245.0,-2.09,9.31,-1.88,0.24,-1.94,0.16,k
2927.0,2896.0,2947.0,3969.0,4095.0,4095.0,2614.0,3235.0,-2.41,9.39,-1.69,-0.09,-2.06,0.3,k
2930.0,2895.0,2950.0,3977.0,4095.0,4095.0,2612.0,3238.0,-0.83,9.36,-0.82,0.12,-1.26,0.18,k
2928.0,2895.0,2947.0,3972.0,4095.0,4095.0,2610.0,3226.0,-0.14,9.26,-1.63,0.29,-0.52,0.2,k
2931.0,2902.0,2957.0,4002.0,4095.0,4095.0,2620.0,3227.0,-1.7,8.42,-1.71,-0.5,-0.05,-0.22,k
2929.0,2901.0,2950.0,4014.0,4095.0,4095.0,2620.0,3229.0,-2.44,9.0,-1.14,-0.2,0.17,-0.28,k
2928.0,2893.0,2950.0,4011.0,4095.0,4095.0,2618.0,3227.0,-2.47,9.87,-0.74,-0.59,0.36,0.15,k
2932.0,2896.0,2956.0,4012.0,4095.0,4095.0,2614.0,3232.0,-1.44,10.5,0.92,-0.35,0.56,0.16,k
2940.0,2898.0,2959.0,4010.0,4095.0,4095.0,2617.0,3238.0,0.1,10.67,1.63,0.14,0.34,0.19,k
2928.0,2893.0,2953.0,4000.0,4095.0,4095.0,2619.0,3230.0,-0.37,9.19,-0.12,0.46,-0.15,0.03,k
2931.0,2896.0,2949.0,4010.0,4095.0,4095.0,2615.0,3231.0,-0.58,8.62,-0.97,0.34,-0.27,-0.13,k
2926.0,2910.0,2947.0,3996.0,4095.0,4095.0,2619.0,3238.0,-1.78,8.57,-1.3,0.19,-0.27,-0.28,k
2929.0,2898.0,2944.0,3997.0,4095.0,4095.0,2614.0,3226.0,-2.35,8.77,-2.03,-0.13,-0.22,-0.24,k
2929.0,2891.0,2947.0,4015.0,4095.0,4095.0,2623.0,3238.0,-2.38,9.35,-0.85,-0.29,0.02,-0.17,k
2928.0,2896.0,2956.0,4013.0,4095.0,4095.0,2615.0,3236.0,-2.3,10.03,-1.18,-0.04,0.18,-0.19,k
2928.0,2896.0,2949.0,4006.0,4095.0,4095.0,2627.0,3233.0,-3.2,9.96,-1.47,-0.04,0.41,-0.15,k
2928.0,2896.0,2946.0,4027.0,4095.0,4095.0,2631.0,3237.0,-2.7,9.92,-0.76,-0.18,0.7,0.08,k
2928.0,2892.0,2950.0,4009.0,4095.0,4095.0,2637.0,3232.0,-0.72,9.4,-0.34,0.0,0.13,0.06,k
2926.0,2890.0,2945.0,4001.0,4095.0,4095.0,2631.0,3235.0,-1.11,9.25,-0.65,-0.09,-0.19,-0.28,k
2931.0,2897.0,2959.0,4032.0,4095.0,4095.0,2628.0,3248.0,-2.82,9.78,-0.57,-0.1,-0.37,-0.24,k
2927.0,2908.0,2949.0,4030.0,4095.0,4095.0,2633.0,3243.0,-2.94,10.05,-0.19,0.04,-0.41,-0.1,k
2928.0,2895.0,2951.0,4037.0,4095.0,4095.0,2631.0,3245.0,-3.66,9.75,-1.75,0.28,-0.0,0.1,k
2929.0,2899.0,2958.0,4047.0,4095.0,4095.0,2632.0,3246.0,-2.63,8.64,-2.11,-0.05,0.2,0.3,k
2928.0,2896.0,2949.0,4035.0,4095.0,4095.0,2634.0,3243.0,-2.69,8.35,-1.3,-0.15,0.35,0.26,k
2929.0,2910.0,2961.0,4048.0,4095.0,4095.0,2635.0,3249.0,-1.07,8.73,-0.46,-0.18,0.41,0.25,k
2927.0,2895.0,2953.0,4043.0,4095.0,4095.0,2640.0,3247.0,-0.99,9.72,0.11,-0.04,0.31,0.13,k
2926.0,2899.0,2955.0,4047.0,4095.0,4095.0,2635.0,3249.0,1.14,9.86,-0.73,-0.23,2.75,-0.64,k
2928.0,2896.0,2957.0,4021.0,4095.0,4095.0,2626.0,3253.0,-2.35,9.21,-1.52,-0.56,3.54,-0.56,k
2926.0,2897.0,2949.0,4025.0,4095.0,4095.0,2624.0,3254.0,-1.54,9.73,-1.17,-0.2,1.94,-0.17,k
2928.0,2898.0,2943.0,4010.0,4095.0,4095.0,2633.0,3261.0,-1.66,8.26,-1.84,0.03,0.61,-0.03,k
2925.0,2895.0,2944.0,4015.0,4095.0,4095.0,2629.0,3254.0,-2.37,8.25,-2.84,0.23,-0.42,-0.13,k
2923.0,2905.0,2955.0,4015.0,4095.0,4095.0,2629.0,3251.0,-2.44,10.39,-2.41,-0.03,-0.35,-0.17,k
2921.0,2896.0,2955.0,4012.0,4095.0,4095.0,2626.0,3248.0,-2.15,9.85,-0.75,-0.47,0.22,-0.01,k
2921.0,2896.0,2947.0,3979.0,4095.0,4095.0,2639.0,3253.0,-3.72,9.5,0.37,-0.11,-0.44,0.16,k
2927.0,2896.0,2954.0,3959.0,4095.0,4095.0,2631.0,3252.0,-2.92,9.21,-0.33,-0.1,-1.89,0.34,k
2926.0,2891.0,2947.0,3821.0,4095.0,4095.0,2625.0,3248.0,-2.45,8.92,0.48,-0.15,-1.88,0.24,k
2928.0,2891.0,2944.0,3866.0,4095.0,4095.0,2624.0,3247.0,-0.02,9.16,1.26,0.56,-2.96,0.18,k
2915.0,2895.0,2944.0,3841.0,4095.0,4095.0,2559.0,3226.0,-0.71,9.45,-0.1,1.02,-1.01,-0.15,k
2923.0,2885.0,2945.0,3860.0,4095.0,4095.0,2554.0,3216.0,-1.47,9.53,-1.28,1.03,-0.69,-0.47,k
2923.0,2897.0,2950.0,3946.0,4095.0,4095.0,2581.0,3226.0,-1.29,9.13,-1.88,-0.04,-0.21,-0.28,k
2922.0,2897.0,2955.0,3952.0,4095.0,4095.0,2593.0,3230.0,-3.32,8.46,-1.94,-0.24,-0.1,-0.06,k
2926.0,2893.0,2945.0,3947.0,4095.0,4095.0,2601.0,3233.0,-2.27,9.27,-1.04,-0.29,0.27,-0.17,k
2923.0,2896.0,2959.0,3954.0,4095.0,4095.0,2603.0,3246.0,-2.76,10.16,-0.73,-0.37,0.42,-0.16,k
2913.0,2890.0,2941.0,3958.0,4095.0,4095.0,2606.0,3247.0,-3.16,10.24,-0.06,-0.28,0.76,-0.09,k
2915.0,2894.0,2947.0,3947.0,4095.0,4095.0,2609.0,3248.0,-1.86,10.33,0.43,-0.04,0.71,-0.0,k
2921.0,2890.0,2946.0,3950.0,4095.0,4095.0,2613.0,3245.0,-0.85,10.07,-0.12,-0.01,1.25,-0.19,k
2916.0,2882.0,2941.0,3956.0,4095.0,4095.0,2616.0,3247.0,-2.37,9.56,-1.06,-0.2,1.07,0.12,k
2910.0,2896.0,2946.0,3997.0,4095.0,4095.0,2614.0,3247.0,-2.47,8.45,-0.96,0.0,0.31,0.32,k
2919.0,2892.0,2943.0,3989.0,4095.0,4095.0,2613.0,3252.0,-2.91,7.76,-1.28,0.07,0.09,-0.1,k
2917.0,2894.0,2943.0,3986.0,4095.0,4095.0,2613.0,3251.0,-2.29,8.51,-2.25,-0.04,0.2,-0.28,k
2924.0,2895.0,2942.0,3969.0,4095.0,4095.0,2624.0,3245.0,-3.31,8.95,-2.78,-0.09,0.28,-0.33,k
2925.0,2896.0,2943.0,3943.0,4095.0,4095.0,2615.0,3248.0,-3.47,9.43,-2.29,-0.28,0.41,-0.08,k
2915.0,2898.0,2946.0,3952.0,4095.0,4095.0,2618.0,3243.0,-3.19,9.74,-1.31,-0.32,0.54,0.06,k
2915.0,2896.0,2949.0,3950.0,4095.0,4095.0,2619.0,3246.0,-2.98,9.89,-0.1,-0.28,0.53,0.36,k
2914.0,2894.0,2955.0,3947.0,4095.0,4095.0,2611.0,3242.0,-2.13,10.12,-0.33,-0.07,0.42,0.47,k
2908.0,2891.0,2947.0,3951.0,4095.0,4095.0,2605.0,3214.0,-1.5,9.32,-0.97,-0.06,0.26,0.42,k
2899.0,2894.0,2949.0,3919.0,4095.0,4095.0,2589.0,3110.0,-0.65,8.9,-1.19,-0.15,-0.05,0.26,k
2903.0,2889.0,2957.0,3917.0,4095.0,4095.0,2546.0,2991.0,-0.68,8.53,-0.56,-0.11,-0.12,-0.08,k
2919.0,2894.0,2958.0,3846.0,4095.0,4095.0,2529.0,2883.0,-1.3,9.31,-0.86,-0.13,0.35,-0.08,k
2938.0,2896.0,2955.0,3713.0,4095.0,4095.0,2658.0,2862.0,-0.24,9.57,-0.92,0.05,-0.35,-0.01,k
2959.0,2902.0,2961.0,3612.0,4095.0,4095.0,2705.0,2864.0,-1.41,9.94,-1.38,-0.01,-0.41,-0.0,k
2958.0,2896.0,2950.0,3635.0,4095.0,4095.0,2725.0,2864.0,-1.63,9.99,-0.94,0.11,-0.09,-0.09,k
2951.0,2898.0,2959.0,3649.0,4095.0,4095.0,2736.0,2896.0,-1.14,9.55,-1.07,0.2,-0.08,-0.03,k
2951.0,2899.0,2960.0,3697.0,4095.0,4095.0,2750.0,2930.0,-0.23,9.88,-0.85,0.19,-0.84,-0.13,k
2938.0,2896.0,2960.0,3747.0,4095.0,4095.0,2765.0,2981.0,-1.94,9.56,-1.44,0.01,-0.26,-0.37,k
2919.0,2893.0,2960.0,3737.0,4095.0,4095.0,2800.0,3027.0,-1.57,9.34,-1.31,-0.09,-0.53,-0.26,k
2928.0,2893.0,2960.0,3655.0,4095.0,4095.0,2832.0,3059.0,-2.6,9.21,-1.1,-0.06,-0.2,-0.19,k
2927.0,2891.0,2958.0,3581.0,4095.0,4095.0,2831.0,3094.0,-2.43,9.33,-1.94,-0.11,-0.01,-0.1,k
2933.0,2896.0,2955.0,3635.0,4095.0,4095.0,2800.0,3105.0,-2.72,10.37,-1.9,-0.31,0.04,0.2,k
2929.0,2891.0,2947.0,3664.0,4095.0,4095.0,2797.0,3110.0,-2.43,9.3,-1.51,-0.26,0.13,0.29,k
2939.0,2896.0,2953.0,3689.0,4095.0,4095.0,2799.0,3119.0,-2.12,8.59,-0.74,-0.17,0.11,0.35,k
2933.0,2894.0,2959.0,3662.0,4095.0,4095.0,2783.0,3127.0,-1.38,9.16,-0.95,-0.08,-0.0,0.22,k
2934.0,2894.0,2954.0,3574.0,4095.0,4095.0,2754.0,3152.0,-0.91,9.59,-0.76,-0.02,-0.1,0.07,k
2942.0,2895.0,2960.0,3546.0,4095.0,4095.0,2701.0,3166.0,-2.04,8.33,-1.17,0.17,-0.2,-0.2,k
2938.0,2886.0,2960.0,3565.0,4095.0,4095.0,2559.0,3138.0,-1.89,9.18,-0.75,-0.13,-0.17,-0.2,k
2943.0,2898.0,2962.0,3515.0,4095.0,4095.0,2512.0,3163.0,-2.11,9.15,-0.97,-0.28,-0.13,-0.3,k
2943.0,2891.0,2960.0,3600.0,4095.0,4095.0,2522.0,3184.0,-1.83,9.23,0.09,-0.2,-0.39,-0.29,k
2943.0,2896.0,2964.0,3634.0,4095.0,4095.0,2625.0,3300.0,-1.54,9.58,-0.06,-0.08,-0.42,-0.33,k
2943.0,2897.0,2960.0,3639.0,4095.0,4095.0,2448.0,3265.0,-2.67,9.26,0.52,-0.28,-0.02,-0.42,k
2928.0,2894.0,2951.0,3696.0,4095.0,4095.0,2349.0,3104.0,-2.91,9.19,0.79,-0.26,-0.16,-0.18,k
2934.0,2890.0,2960.0,3731.0,4095.0,4095.0,2333.0,3004.0,-3.08,9.3,0.81,-0.07,-0.06,-0.09,k
2934.0,2895.0,2958.0,3728.0,4095.0,4095.0,2325.0,2960.0,-2.67,9.06,0.37,-0.06,0.05,-0.04,k
2928.0,2886.0,2960.0,3730.0,4095.0,4095.0,2326.0,2921.0,-2.4,9.15,0.56,-0.23,0.17,-0.04,k
2933.0,2891.0,2960.0,3722.0,4095.0,4095.0,2448.0,2960.0,-1.86,10.14,0.67,0.37,0.0,0.06,k
2944.0,2889.0,2955.0,3687.0,4095.0,4095.0,2559.0,2992.0,-2.24,9.46,0.43,-0.0,-0.06,0.02,k
