hall_1,hall_2,hall_3,flex_t,flex_i,flex_m,flex_r,flex_p,accel_x,accel_y,accel_z,gyro_x,gyro_y,gyro_z,sign
2081.0,2825.0,4095.0,2847.0,3024.0,3551.0,3031.0,3134.0,2.05,8.22,4.08,0.32,0.74,-0.23,n
2078.0,2832.0,4095.0,2846.0,3021.0,3547.0,3024.0,3136.0,1.33,8.2,3.9,0.0,-0.09,0.05,n
2081.0,2822.0,4095.0,2843.0,3024.0,3556.0,3019.0,3138.0,1.9,8.25,3.79,-0.17,-0.39,0.17,n
2080.0,2822.0,4095.0,2849.0,3023.0,3551.0,3023.0,3140.0,2.45,8.2,4.23,-0.27,-0.43,0.12,n
2076.0,2815.0,4095.0,2848.0,3025.0,3550.0,3023.0,3136.0,2.74,8.11,4.57,-0.16,-0.27,0.08,n
2071.0,2830.0,4095.0,2849.0,3027.0,3557.0,3023.0,3139.0,2.82,8.06,4.45,-0.02,-0.1,-0.01,n
2074.0,2822.0,4095.0,2850.0,3028.0,3554.0,3021.0,3137.0,2.71,8.11,4.14,-0.05,-0.11,0.04,n
2071.0,2826.0,4095.0,2846.0,3023.0,3543.0,3022.0,3139.0,3.92,7.84,4.39,-0.25,-0.5,0.06,n
2077.0,2834.0,4095.0,2851.0,3024.0,3554.0,3023.0,3143.0,3.65,8.13,4.94,0.5,1.77,-0.77,n
2080.0,2831.0,4095.0,2845.0,3030.0,3563.0,3024.0,3151.0,1.4,8.35,4.1,0.38,1.69,-0.59,n
2081.0,2835.0,4095.0,2839.0,3024.0,3558.0,3006.0,3120.0,-0.58,8.71,3.47,0.47,1.38,-0.39,n
2081.0,2832.0,4095.0,2851.0,3027.0,3568.0,3008.0,3126.0,-1.14,8.86,3.34,0.18,0.49,-0.19,n
2080.0,2850.0,4095.0,2851.0,3034.0,3561.0,3011.0,3127.0,-1.99,8.9,2.89,-0.09,-0.96,0.42,n
2096.0,2839.0,4095.0,2858.0,3035.0,3566.0,3023.0,3130.0,0.11,8.6,2.76,-0.94,-3.05,1.09,n
2084.0,2837.0,4095.0,2853.0,3026.0,3551.0,3017.0,3129.0,4.39,7.56,3.93,-1.3,-3.26,0.98,n
2083.0,2822.0,4095.0,2843.0,3024.0,3546.0,3020.0,3133.0,5.26,7.24,4.87,-0.15,-0.46,-0.03,n
2079.0,2834.0,4095.0,2854.0,3029.0,3547.0,3023.0,3137.0,3.94,7.6,4.3,0.08,-0.09,-0.27,n
2073.0,2821.0,4095.0,2850.0,3030.0,3557.0,3023.0,3134.0,3.36,7.85,4.16,0.15,1.01,-0.38,n
2083.0,2844.0,4095.0,2837.0,3025.0,3552.0,3008.0,3139.0,3.56,7.4,3.58,-0.58,0.78,-0.44,n
2071.0,2832.0,4095.0,2813.0,3014.0,3547.0,2995.0,3138.0,2.83,7.03,4.19,-1.29,1.25,-0.43,n
2077.0,2832.0,4095.0,2799.0,3019.0,3546.0,3004.0,3151.0,2.28,6.51,6.67,-1.16,0.4,-0.43,n
2112.0,2832.0,4095.0,2806.0,3053.0,3553.0,3003.0,3152.0,2.09,6.17,7.66,-0.68,0.61,-0.37,n
2103.0,2832.0,4095.0,2799.0,3054.0,3543.0,2999.0,3162.0,0.96,5.9,8.11,0.27,0.27,-0.15,n
2111.0,2827.0,4095.0,2832.0,3058.0,3551.0,3009.0,3149.0,1.25,6.84,5.9,1.94,-0.17,0.15,n
2099.0,2819.0,4095.0,2836.0,3059.0,3549.0,2998.0,3103.0,2.39,8.72,4.07,1.99,-0.99,0.46,n
2089.0,2814.0,4095.0,2827.0,3043.0,3538.0,2996.0,3092.0,3.5,9.68,2.18,1.48,-0.65,0.08,n
2095.0,2817.0,4095.0,2848.0,3043.0,3533.0,3009.0,3071.0,3.22,11.27,0.49,1.23,-0.56,-0.4,n
2111.0,2818.0,4095.0,2853.0,3058.0,3543.0,3029.0,3088.0,1.95,10.18,-0.17,0.45,-0.3,-0.12,n
2109.0,2816.0,4095.0,2862.0,3062.0,3553.0,3014.0,3113.0,2.24,10.52,-0.03,-0.64,0.27,0.15,n
2101.0,2825.0,4095.0,2833.0,3067.0,3547.0,3007.0,3122.0,1.29,7.52,2.88,-1.86,0.13,0.2,n
2096.0,2813.0,4095.0,2805.0,3055.0,3556.0,2992.0,3137.0,0.36,7.33,4.54,-1.4,0.45,-0.74,n
2096.0,2823.0,4095.0,2790.0,3056.0,3553.0,3006.0,3145.0,0.39,7.94,5.25,-0.55,-0.03,-0.31,n
2102.0,2824.0,4095.0,2810.0,3058.0,3555.0,3023.0,3150.0,1.78,7.94,5.46,1.33,-0.73,0.07,n
2101.0,2815.0,4095.0,2824.0,3094.0,3583.0,3035.0,3151.0,0.96,8.64,2.65,1.02,-0.24,0.06,n
2109.0,2829.0,4095.0,2837.0,3097.0,3579.0,3055.0,3143.0,2.39,8.55,2.04,0.74,-0.44,0.09,n
2109.0,2831.0,4095.0,2840.0,3098.0,3582.0,3053.0,3135.0,1.66,8.99,1.13,0.65,-0.03,-0.15,n
2109.0,2826.0,4095.0,2850.0,3106.0,3583.0,3053.0,3143.0,2.2,9.25,0.62,0.35,0.03,-0.16,n
2110.0,2829.0,4095.0,2849.0,3119.0,3600.0,3056.0,3157.0,1.6,9.83,-0.06,-0.03,0.42,-0.9,n
2113.0,2819.0,4095.0,2837.0,3104.0,3583.0,3043.0,3175.0,-1.03,8.42,0.87,-1.29,0.78,-0.48,n
2108.0,2824.0,4095.0,2805.0,3086.0,3567.0,3035.0,3178.0,-0.4,8.32,3.06,-2.11,0.46,-0.13,n
2109.0,2827.0,4095.0,2790.0,3083.0,3553.0,3024.0,3185.0,-0.54,7.41,4.87,-1.18,0.52,-0.13,n
2097.0,2832.0,4095.0,2787.0,3071.0,3559.0,3017.0,3188.0,-0.22,7.65,5.5,-0.45,0.23,-0.07,n
2100.0,2819.0,4095.0,2800.0,3086.0,3558.0,3017.0,3184.0,0.21,8.37,5.07,0.77,-0.23,-0.01,n
2090.0,2802.0,4095.0,2816.0,3090.0,3568.0,3025.0,3163.0,0.07,9.47,4.16,1.13,-0.52,0.16,n
2102.0,2819.0,4095.0,2825.0,3106.0,3574.0,3031.0,3152.0,0.68,8.94,3.51,0.87,-0.43,0.33,n
2096.0,2815.0,4095.0,2823.0,3099.0,3583.0,3045.0,3142.0,1.02,8.88,2.74,0.78,-0.63,0.47,n
2125.0,2832.0,4095.0,2851.0,3133.0,3579.0,3031.0,3131.0,1.95,9.58,1.4,0.63,-0.36,0.25,n
2128.0,2821.0,4095.0,2854.0,3131.0,3600.0,3039.0,3134.0,1.64,10.07,0.99,0.38,-0.19,0.08,n
2130.0,2823.0,4095.0,2862.0,3137.0,3600.0,3047.0,3147.0,1.58,9.68,1.01,0.09,-0.26,0.17,n
2123.0,2829.0,4095.0,2864.0,3152.0,3611.0,3041.0,3152.0,1.94,9.48,0.78,0.38,-0.61,0.24,n
2110.0,2813.0,4095.0,2864.0,3161.0,3622.0,3040.0,3159.0,2.76,9.54,-0.01,0.5,-0.6,0.3,n
2115.0,2822.0,4095.0,2866.0,3165.0,3629.0,3039.0,3158.0,2.6,9.25,-1.24,0.43,-0.06,-0.04,n
2112.0,2809.0,4095.0,2866.0,3165.0,3626.0,3045.0,3163.0,2.53,9.14,-1.76,0.19,-0.36,0.13,n
2111.0,2822.0,4095.0,2864.0,3155.0,3621.0,3039.0,3159.0,2.74,9.09,-1.45,0.11,-0.33,0.09,n
2093.0,2815.0,4095.0,2834.0,3118.0,3583.0,3031.0,3143.0,2.81,9.35,-2.34,0.01,0.11,-0.16,n
2092.0,2829.0,4095.0,2805.0,3058.0,3533.0,3015.0,3122.0,2.72,9.07,-1.71,-0.66,0.18,-0.07,n
2091.0,2831.0,4095.0,2794.0,3047.0,3531.0,3009.0,3120.0,3.06,9.44,-0.4,-0.97,0.39,-0.28,n
2086.0,2832.0,4095.0,2803.0,3050.0,3530.0,3006.0,3136.0,1.62,9.47,1.03,-1.28,0.22,-0.34,n
2087.0,2819.0,4095.0,2798.0,3056.0,3542.0,3006.0,3144.0,1.28,9.15,1.95,-0.31,0.06,-0.2,n
2083.0,2837.0,4095.0,2813.0,3071.0,3550.0,3018.0,3152.0,1.79,9.16,1.07,0.94,-0.07,0.27,n
2090.0,2823.0,4095.0,2832.0,3104.0,3568.0,3027.0,3139.0,2.54,9.63,-0.42,1.04,-0.23,0.41,n
2096.0,2828.0,4095.0,2835.0,3127.0,3583.0,3034.0,3141.0,3.19,9.3,-0.87,0.48,-0.37,0.16,n
2108.0,2829.0,4095.0,2843.0,3130.0,3600.0,3038.0,3149.0,2.78,9.47,-1.76,-0.26,0.35,-0.22,n
2094.0,2818.0,4095.0,2839.0,3129.0,3606.0,3029.0,3158.0,1.9,8.71,-0.5,-1.04,0.42,-0.33,n
2094.0,2819.0,4095.0,2832.0,3135.0,3583.0,3026.0,3169.0,1.81,9.15,1.14,-0.96,0.39,-0.27,n
2094.0,2830.0,4095.0,2817.0,3120.0,3575.0,3023.0,3172.0,1.56,9.11,1.98,-0.77,0.23,-0.25,n
2093.0,2821.0,4095.0,2809.0,3120.0,3569.0,3018.0,3181.0,1.41,9.13,2.42,-0.68,0.14,-0.34,n
2089.0,2830.0,4095.0,2815.0,3124.0,3583.0,3031.0,3195.0,1.29,8.95,3.01,0.37,-0.17,0.05,n
2090.0,2830.0,4095.0,2825.0,3135.0,3583.0,3035.0,3184.0,1.74,9.49,1.71,0.97,-0.2,0.19,n
2081.0,2844.0,4095.0,2832.0,3132.0,3597.0,3048.0,3172.0,1.82,9.46,0.69,0.66,-0.27,0.2,n
2092.0,2824.0,4095.0,2848.0,3145.0,3605.0,3047.0,3179.0,1.99,9.39,0.23,0.45,-0.31,0.18,n
2103.0,2835.0,4095.0,2851.0,3150.0,3605.0,3057.0,3183.0,2.2,9.35,-0.23,0.2,-0.15,0.01,n
2113.0,2845.0,4095.0,2855.0,3152.0,3623.0,3056.0,3189.0,1.82,9.56,-0.38,0.06,1.98,-0.47,n
2111.0,2851.0,4095.0,2858.0,3152.0,3632.0,3059.0,3203.0,0.26,9.49,0.14,0.11,1.96,-0.37,n
2110.0,2852.0,4095.0,2859.0,3153.0,3631.0,3062.0,3205.0,1.01,9.58,0.48,-0.07,0.81,-0.16,n
2114.0,2835.0,4095.0,2853.0,3152.0,3622.0,3052.0,3200.0,0.27,9.57,0.18,0.04,0.13,0.01,n
2103.0,2835.0,4095.0,2861.0,3151.0,3622.0,3055.0,3202.0,1.01,9.65,-0.21,-0.16,-1.56,0.16,n
2112.0,2847.0,4095.0,2860.0,3152.0,3615.0,3056.0,3207.0,1.33,9.62,0.39,-0.35,-1.5,0.22,n
2100.0,2831.0,4095.0,2861.0,3152.0,3618.0,3055.0,3207.0,1.52,9.51,0.73,-0.25,-1.1,0.14,n
2110.0,2832.0,4095.0,2859.0,3152.0,3613.0,3056.0,3208.0,1.39,9.6,0.07,-0.24,-1.68,0.42,n
2114.0,2837.0,4095.0,2860.0,3145.0,3610.0,3057.0,3209.0,2.83,9.43,-0.08,-0.54,-2.64,0.64,n
2114.0,2846.0,4095.0,2864.0,3152.0,3617.0,3057.0,3207.0,4.27,9.07,0.94,-0.29,-0.85,0.2,n
2103.0,2838.0,4095.0,2864.0,3150.0,3614.0,3061.0,3206.0,3.08,9.26,0.89,0.39,1.25,-0.16,n
2113.0,2853.0,4095.0,2864.0,3152.0,3628.0,3066.0,3205.0,2.4,9.44,0.48,0.45,1.24,-0.23,n
2116.0,2835.0,4095.0,2867.0,3151.0,3626.0,3063.0,3202.0,1.72,9.5,-0.18,0.35,0.93,-0.13,n
2114.0,2839.0,4095.0,2864.0,3162.0,3632.0,3057.0,3201.0,2.0,9.55,-0.23,0.11,0.47,-0.08,n
2109.0,2829.0,4095.0,2866.0,3156.0,3619.0,3060.0,3207.0,2.04,9.78,-0.26,-0.25,-0.07,-0.14,n
2112.0,2834.0,4095.0,2852.0,3138.0,3611.0,3057.0,3216.0,2.08,9.78,0.34,-0.93,0.15,-0.42,n
2111.0,2846.0,4095.0,2838.0,3145.0,3598.0,3056.0,3227.0,1.13,9.11,2.16,-1.49,-0.17,-0.52,n
2118.0,2841.0,4095.0,2829.0,3137.0,3583.0,3043.0,3238.0,0.66,8.79,3.6,-0.78,-0.03,-0.28,n
2114.0,2844.0,4095.0,2827.0,3145.0,3601.0,3047.0,3239.0,0.33,8.54,4.03,-0.22,0.09,-0.1,n
2118.0,2846.0,4095.0,2832.0,3146.0,3603.0,3047.0,3238.0,0.43,8.57,3.92,0.59,-0.23,0.28,n
2128.0,2843.0,4095.0,2841.0,3150.0,3605.0,3053.0,3233.0,0.89,9.15,2.54,0.89,-0.16,0.33,n
2112.0,2843.0,4095.0,2859.0,3163.0,3607.0,3055.0,3216.0,1.51,9.34,1.84,0.67,-0.09,0.21,n
2119.0,2834.0,4095.0,2871.0,3181.0,3617.0,3056.0,3202.0,1.55,9.51,1.06,0.59,-0.28,0.17,n
2124.0,2843.0,4095.0,2877.0,3197.0,3648.0,3056.0,3195.0,1.73,9.68,0.44,0.5,-0.22,0.33,n
2120.0,2837.0,4095.0,2885.0,3205.0,3651.0,3056.0,3187.0,2.46,9.68,-0.24,0.2,-0.01,0.05,n
2124.0,2832.0,4095.0,2881.0,3203.0,3648.0,3057.0,3200.0,2.19,9.62,-0.16,-0.22,0.09,-0.08,n
2119.0,2842.0,4095.0,2877.0,3191.0,3646.0,3057.0,3215.0,1.87,9.64,0.34,-0.35,0.07,-0.23,n
2126.0,2821.0,4095.0,2874.0,3198.0,3650.0,3055.0,3217.0,1.42,9.37,0.86,-0.67,0.2,-0.21,n
2117.0,2838.0,4095.0,2864.0,3183.0,3622.0,3046.0,3229.0,1.34,9.37,1.56,-0.92,0.26,-0.34,n
2128.0,2831.0,4095.0,2847.0,3173.0,3618.0,3050.0,3229.0,0.93,9.05,2.59,-0.9,0.16,-0.33,n
2125.0,2839.0,4095.0,2850.0,3173.0,3623.0,3054.0,3247.0,0.46,8.71,3.63,-0.24,-0.04,-0.11,n
2125.0,2838.0,4095.0,2861.0,3184.0,3625.0,3056.0,3241.0,0.59,8.94,3.2,0.46,-0.09,0.15,n
2122.0,2831.0,4095.0,2880.0,3204.0,3639.0,3068.0,3247.0,1.19,9.23,2.22,0.81,-0.01,0.16,n
2128.0,2832.0,4095.0,2892.0,3218.0,3664.0,3058.0,3235.0,1.19,9.31,1.55,0.54,-0.19,0.22,n
2129.0,2833.0,4095.0,2910.0,3245.0,3699.0,3055.0,3221.0,1.58,9.62,1.05,0.6,-0.23,0.34,n
2129.0,2830.0,4095.0,2896.0,3248.0,3696.0,3057.0,3205.0,1.96,9.62,-0.14,0.36,-0.05,0.17,n
2128.0,2831.0,4095.0,2886.0,3233.0,3712.0,3056.0,3199.0,2.14,9.42,-0.17,-0.11,0.01,-0.05,n
2112.0,2843.0,4095.0,2833.0,3166.0,3662.0,3062.0,3187.0,1.49,9.45,0.32,-0.36,0.12,-0.04,n
2103.0,2839.0,4095.0,2795.0,3120.0,3634.0,3051.0,3167.0,1.69,9.42,0.82,-0.52,0.25,0.06,n
2099.0,2827.0,4095.0,2789.0,3103.0,3631.0,3057.0,3164.0,1.88,9.03,0.34,-1.19,-2.77,0.94,n
2095.0,2834.0,4095.0,2803.0,3142.0,3651.0,3064.0,3151.0,5.43,8.01,1.29,-0.77,-1.62,0.84,n
2077.0,2832.0,4095.0,2811.0,3159.0,3671.0,3068.0,3156.0,5.4,8.2,2.32,0.07,0.04,0.51,n
2071.0,2832.0,4095.0,2821.0,3169.0,3673.0,3066.0,3152.0,6.77,7.98,2.0,0.48,0.41,-0.06,n
2071.0,2849.0,4095.0,2834.0,3175.0,3683.0,3070.0,3167.0,5.08,8.27,1.13,1.09,2.82,-0.83,n
2079.0,2839.0,4095.0,2845.0,3174.0,3685.0,3071.0,3178.0,3.46,8.91,1.24,0.8,2.17,-0.91,n
2059.0,2810.0,4095.0,2829.0,3161.0,3673.0,3065.0,3167.0,1.78,9.45,0.43,0.74,2.2,-0.46,n
2069.0,2816.0,4095.0,2833.0,3174.0,3679.0,3071.0,3169.0,1.36,9.66,0.52,0.33,1.45,-0.12,n
2064.0,2819.0,4095.0,2839.0,3167.0,3679.0,3065.0,3168.0,0.94,9.54,0.31,-0.06,-0.8,0.26,n
2064.0,2835.0,4095.0,2843.0,3171.0,3682.0,3081.0,3179.0,2.86,9.06,0.43,-0.76,-2.5,0.5,n
2065.0,2816.0,4095.0,2845.0,3167.0,3664.0,3066.0,3171.0,3.86,8.91,0.88,-0.83,-2.38,0.38,n
2063.0,2811.0,4095.0,2834.0,3158.0,3668.0,3061.0,3172.0,4.34,8.78,0.43,-0.81,-2.23,0.36,n
2047.0,2812.0,4095.0,2826.0,3163.0,3667.0,3062.0,3158.0,6.96,7.92,1.06,-1.08,-2.35,0.22,n
2042.0,2814.0,4095.0,2832.0,3171.0,3671.0,3067.0,3171.0,4.42,8.72,0.5,-0.02,-0.25,-0.2,n
2032.0,2811.0,4095.0,2837.0,3168.0,3664.0,3057.0,3167.0,4.41,8.78,0.02,-0.01,0.35,-0.13,n
2036.0,2803.0,4095.0,2801.0,3148.0,3663.0,3024.0,3120.0,4.61,8.92,0.3,-0.01,0.1,-0.05,n
2033.0,2811.0,4095.0,2769.0,3107.0,3629.0,2973.0,3054.0,4.3,8.63,0.47,-0.1,0.07,-0.02,n
2032.0,2810.0,4095.0,2758.0,3089.0,3621.0,2975.0,3041.0,4.49,8.53,0.51,-0.16,0.09,0.05,n
2038.0,2814.0,4095.0,2768.0,3088.0,3622.0,2979.0,3055.0,4.55,8.87,0.47,-0.0,0.04,0.02,n
2031.0,2817.0,4095.0,2809.0,3120.0,3632.0,3011.0,3097.0,4.42,8.47,0.63,0.15,-0.19,0.09,n
2032.0,2816.0,4095.0,2834.0,3148.0,3638.0,3044.0,3136.0,4.73,8.53,0.02,0.09,-0.05,0.05,n
2037.0,2813.0,4095.0,2846.0,3155.0,3643.0,3087.0,3163.0,4.61,8.21,0.08,-0.02,0.01,-0.0,n
2033.0,2815.0,4095.0,2850.0,3153.0,3647.0,3115.0,3178.0,4.43,8.32,-0.16,-0.02,0.01,-0.14,n
2044.0,2823.0,4095.0,2825.0,3134.0,3633.0,3092.0,3151.0,4.52,8.54,0.14,-0.27,0.12,-0.08,n
2025.0,2818.0,4095.0,2807.0,3054.0,3568.0,3061.0,3126.0,4.75,8.91,0.66,-0.22,-0.05,-0.15,n
2010.0,2811.0,4095.0,2803.0,3009.0,3529.0,3059.0,3123.0,4.08,9.05,0.54,-0.06,-0.02,-0.02,n
2003.0,2816.0,4095.0,2823.0,3031.0,3543.0,3067.0,3131.0,4.35,8.88,0.45,-0.02,0.0,0.1,n
2034.0,2813.0,4095.0,2880.0,3118.0,3599.0,3091.0,3177.0,4.21,8.67,0.45,0.15,-0.17,0.08,n
2016.0,2807.0,4095.0,2912.0,3155.0,3614.0,3116.0,3248.0,4.9,8.43,0.35,0.03,0.06,0.43,n
2003.0,2810.0,4095.0,2903.0,3161.0,3622.0,3127.0,3259.0,4.83,8.07,0.44,-0.07,0.09,0.62,n
1997.0,2816.0,4095.0,2902.0,3166.0,3617.0,3127.0,3264.0,5.47,7.78,0.7,0.08,0.03,0.57,n
2000.0,2810.0,4095.0,2896.0,3169.0,3615.0,3136.0,3370.0,6.66,7.54,0.43,0.17,0.18,0.27,n
1997.0,2814.0,4095.0,2902.0,3165.0,3625.0,3136.0,3382.0,6.51,7.41,0.02,-0.04,0.24,0.04,n
1997.0,2813.0,4095.0,2900.0,3170.0,3623.0,3133.0,3359.0,6.17,7.75,0.31,0.02,0.05,-0.04,n
2003.0,2817.0,4095.0,2894.0,3161.0,3626.0,3130.0,3315.0,6.3,7.69,0.14,0.04,0.04,-0.02,n
1998.0,2811.0,4095.0,2893.0,3166.0,3624.0,3127.0,3267.0,6.81,7.17,-0.02,-0.05,0.06,-0.23,n
1990.0,2823.0,4095.0,2871.0,3154.0,3619.0,3120.0,3218.0,6.13,7.86,0.21,-0.25,0.22,-0.47,n
1984.0,2811.0,4095.0,2847.0,3134.0,3620.0,3103.0,3181.0,5.24,8.44,1.23,-0.18,0.03,-0.25,n
1953.0,2809.0,4095.0,2811.0,3047.0,3542.0,3084.0,3152.0,5.04,8.37,0.92,-0.08,-0.03,-0.07,n
1952.0,2814.0,4095.0,2806.0,2981.0,3502.0,3042.0,3136.0,5.21,8.09,0.56,0.05,0.09,-0.06,n
1937.0,2811.0,4095.0,2799.0,2941.0,3471.0,2973.0,3099.0,5.58,8.04,0.74,-0.06,0.13,-0.05,n
1911.0,2816.0,4095.0,2779.0,2871.0,3436.0,2867.0,3037.0,5.52,8.23,0.83,-0.13,0.07,-0.09,n
1899.0,2811.0,4095.0,2784.0,2833.0,3401.0,2815.0,3004.0,5.27,8.22,1.1,-0.06,0.0,-0.11,n
1903.0,2820.0,4095.0,2797.0,2835.0,3405.0,2810.0,3005.0,5.25,8.21,1.01,-0.04,-0.01,-0.01,n
1911.0,2810.0,4095.0,2826.0,2928.0,3469.0,2896.0,3081.0,5.54,8.41,1.09,0.03,-0.12,-0.01,n
1907.0,2816.0,4095.0,2843.0,3082.0,3571.0,3081.0,3183.0,5.14,8.38,0.84,0.09,-0.15,-0.03,n
1921.0,2816.0,4095.0,2858.0,3130.0,3616.0,3134.0,3210.0,5.14,8.06,0.61,-0.01,-0.1,0.04,n
1911.0,2807.0,4095.0,2862.0,3129.0,3623.0,3130.0,3207.0,4.98,7.92,0.49,-0.01,0.07,-0.0,n
1901.0,2801.0,4095.0,2818.0,3024.0,3530.0,3047.0,3137.0,5.01,7.61,0.7,-0.09,0.13,-0.06,n
1863.0,2815.0,4095.0,2789.0,2928.0,3446.0,2818.0,2946.0,5.51,8.49,0.7,-0.27,0.24,-0.11,n
1847.0,2819.0,4095.0,2781.0,2896.0,3430.0,2801.0,2916.0,5.62,8.77,1.53,-0.14,0.06,-0.11,n
1856.0,2825.0,4095.0,2807.0,2922.0,3450.0,2853.0,2963.0,5.17,8.42,1.13,0.06,-0.19,0.06,n
1862.0,2823.0,4095.0,2842.0,3057.0,3535.0,3125.0,3165.0,5.6,8.15,0.97,-0.03,-0.25,0.04,n
1841.0,2803.0,4095.0,2880.0,3152.0,3619.0,3232.0,3241.0,5.06,7.69,0.62,-0.08,-0.07,0.04,n
1849.0,2822.0,4095.0,2851.0,3091.0,3568.0,3212.0,3214.0,4.82,7.48,0.64,-0.15,0.08,-0.16,n
1778.0,2803.0,4095.0,2797.0,2912.0,3447.0,3037.0,3093.0,5.14,8.37,0.72,-0.17,0.27,-0.16,n
1742.0,2800.0,4095.0,2790.0,2836.0,3424.0,2947.0,3034.0,5.2,8.73,1.52,-0.16,0.11,-0.12,n
1750.0,2817.0,4095.0,2827.0,2886.0,3442.0,2993.0,3066.0,5.14,8.66,1.47,0.01,-0.11,0.06,n
1776.0,2800.0,4095.0,2837.0,3006.0,3510.0,3099.0,3155.0,5.4,8.24,1.03,0.05,-0.14,0.03,n
1782.0,2806.0,4095.0,2851.0,3139.0,3635.0,3134.0,3186.0,4.95,7.87,0.91,-0.04,0.02,-0.01,n
1801.0,2800.0,4095.0,2864.0,3183.0,3674.0,3135.0,3190.0,4.71,7.27,1.23,-0.08,0.1,-0.2,n
1778.0,2816.0,4095.0,2810.0,3056.0,3568.0,3115.0,3168.0,4.99,7.98,1.37,-0.19,0.16,-0.12,n
1692.0,2813.0,4095.0,2755.0,2883.0,3421.0,3056.0,3079.0,5.12,8.99,1.67,-0.2,0.05,-0.4,n
1679.0,2813.0,4095.0,2786.0,2894.0,3444.0,3056.0,3068.0,4.19,9.2,2.1,0.09,-0.08,0.03,n
1734.0,2822.0,4095.0,2814.0,3045.0,3554.0,3069.0,3141.0,4.37,8.66,1.12,0.25,-0.06,0.04,n
1767.0,2806.0,4095.0,2842.0,3140.0,3638.0,3099.0,3172.0,4.43,7.87,0.93,0.13,0.15,-0.1,n
1767.0,2813.0,4095.0,2837.0,3127.0,3626.0,3099.0,3170.0,4.58,7.83,0.87,-0.21,0.14,-0.13,n
1712.0,2806.0,4095.0,2791.0,2928.0,3450.0,3028.0,3099.0,4.31,9.31,1.53,-0.26,0.14,-0.08,n
1668.0,2813.0,4095.0,2769.0,2846.0,3363.0,2921.0,2979.0,5.26,9.02,1.8,-0.01,0.22,0.11,n
1666.0,2809.0,4095.0,2802.0,2879.0,3394.0,2929.0,3018.0,4.15,8.57,1.04,-0.14,0.15,0.16,n
1695.0,2805.0,4095.0,2842.0,2965.0,3462.0,3041.0,3222.0,4.41,8.51,1.65,-0.0,0.09,-0.1,n
1698.0,2802.0,4095.0,2859.0,3001.0,3489.0,3083.0,3285.0,3.81,7.83,1.53,-0.11,0.05,0.13,n
1666.0,2768.0,2797.0,2869.0,3011.0,3509.0,3024.0,3216.0,4.08,8.52,1.66,-0.27,0.16,0.19,n
1664.0,2786.0,1926.0,2883.0,3017.0,3510.0,3023.0,3268.0,4.72,8.96,2.29,-0.17,0.1,0.12,n
1659.0,2787.0,1840.0,2882.0,3011.0,3526.0,3037.0,3303.0,4.83,8.59,2.2,-0.09,0.14,0.04,n
1664.0,2787.0,1849.0,2880.0,3035.0,3537.0,3055.0,3326.0,3.81,7.73,2.72,-0.02,0.08,0.12,n
1663.0,2777.0,1931.0,2891.0,3031.0,3547.0,3056.0,3333.0,4.25,7.93,2.38,0.08,0.0,0.03,n
1648.0,2772.0,2111.0,2911.0,3027.0,3550.0,3068.0,3318.0,5.3,8.88,2.98,0.11,-0.16,-0.12,n
1650.0,2784.0,2355.0,2928.0,3036.0,3563.0,3062.0,3355.0,4.15,8.28,2.01,0.21,-0.13,-0.16,n
1635.0,2781.0,2365.0,2934.0,3033.0,3570.0,3098.0,3399.0,3.28,7.69,1.76,0.12,-0.08,0.02,n
1646.0,2778.0,2315.0,2899.0,3024.0,3566.0,3089.0,3302.0,4.39,7.92,1.05,-0.02,0.22,-0.14,n
1653.0,2786.0,2308.0,2868.0,3024.0,3562.0,3060.0,3287.0,4.78,8.55,2.16,-0.16,-0.07,0.0,n
1655.0,2773.0,2288.0,2845.0,3025.0,3568.0,3061.0,3216.0,3.48,8.04,2.27,-0.11,-0.13,0.12,n
1659.0,2777.0,2287.0,2846.0,3027.0,3567.0,3053.0,3167.0,4.68,8.38,1.97,0.11,0.14,0.38,n
1653.0,2774.0,2287.0,2848.0,3024.0,3559.0,3042.0,3162.0,5.44,7.92,1.92,0.22,-0.2,0.26,n
1655.0,2775.0,2286.0,2841.0,3029.0,3563.0,3052.0,3165.0,5.2,7.47,1.28,-0.05,-0.25,0.38,n
1659.0,2785.0,2279.0,2843.0,3029.0,3563.0,3058.0,3159.0,6.8,7.54,1.5,-0.11,-0.19,0.52,n
1663.0,2782.0,2267.0,2861.0,3035.0,3568.0,3082.0,3168.0,6.71,7.21,1.47,0.1,-0.06,0.1,n
1664.0,2785.0,2272.0,2864.0,3040.0,3562.0,3085.0,3173.0,6.21,7.23,0.93,0.09,0.05,0.05,n
1670.0,2785.0,2267.0,2865.0,3040.0,3568.0,3088.0,3182.0,6.51,7.2,1.39,-0.0,0.01,0.08,n
1667.0,2779.0,2257.0,2864.0,3041.0,3567.0,3099.0,3206.0,6.32,7.3,0.95,0.04,-0.02,0.07,n
1670.0,2781.0,2256.0,2875.0,3045.0,3568.0,3098.0,3201.0,6.9,6.76,0.56,-0.06,0.03,-0.0,n
1668.0,2787.0,2262.0,2869.0,3050.0,3574.0,3099.0,3204.0,7.12,6.13,1.29,-0.41,0.31,-0.48,n
1670.0,2783.0,2256.0,2864.0,3047.0,3572.0,3090.0,3199.0,6.69,9.26,2.71,-0.34,-0.13,-0.55,n
1670.0,2782.0,2262.0,2873.0,3054.0,3583.0,3093.0,3205.0,4.36,8.58,2.34,0.3,-0.15,-0.01,n
1667.0,2784.0,2256.0,2875.0,3053.0,3581.0,3099.0,3207.0,5.13,5.74,0.28,0.05,0.46,0.3,n
1673.0,2790.0,2262.0,2869.0,3050.0,3579.0,3090.0,3207.0,7.17,6.34,1.88,-0.66,0.19,-0.38,n
1673.0,2783.0,2270.0,2862.0,3042.0,3570.0,3086.0,3205.0,5.94,9.68,3.73,-0.45,-0.61,-0.45,n
1667.0,2781.0,2260.0,2865.0,3043.0,3574.0,3089.0,3200.0,4.74,8.59,3.0,0.19,-1.09,-0.08,n
1674.0,2779.0,2262.0,2866.0,3047.0,3573.0,3090.0,3205.0,4.77,7.39,0.79,0.66,-0.33,-0.04,n
1666.0,2790.0,2268.0,2874.0,3051.0,3570.0,3088.0,3202.0,5.46,6.68,0.15,0.02,0.45,0.07,n
1672.0,2784.0,2267.0,2875.0,3046.0,3572.0,3093.0,3206.0,7.8,7.46,1.96,-0.22,0.06,-0.56,n
1667.0,2785.0,2263.0,2864.0,3054.0,3575.0,3098.0,3203.0,5.2,10.0,0.95,0.12,-0.58,-0.7,n
1667.0,2782.0,2267.0,2870.0,3046.0,3573.0,3090.0,3209.0,3.27,9.36,0.19,0.36,-0.09,-0.3,n
1674.0,2788.0,2270.0,2873.0,3045.0,3568.0,3095.0,3204.0,2.58,7.32,-0.35,-0.04,0.52,0.3,n
1671.0,2788.0,2275.0,2880.0,3055.0,3571.0,3099.0,3205.0,6.57,6.27,1.88,-0.93,0.09,0.29,n
1669.0,2779.0,2274.0,2865.0,3052.0,3572.0,3088.0,3202.0,6.55,10.79,2.64,-0.45,-0.34,-0.59,n
1673.0,2783.0,2270.0,2870.0,3042.0,3573.0,3093.0,3206.0,2.69,10.34,2.47,0.45,-0.57,-0.23,n
1673.0,2778.0,2271.0,2868.0,3053.0,3568.0,3095.0,3201.0,1.61,8.28,-1.28,0.61,0.08,0.41,n
1665.0,2777.0,2265.0,2878.0,3055.0,3574.0,3101.0,3200.0,5.44,5.8,0.96,-0.8,0.1,1.15,n
1674.0,2779.0,2277.0,2879.0,3046.0,3575.0,3095.0,3206.0,8.07,7.3,3.88,0.21,0.68,-0.74,n
1667.0,2787.0,2283.0,2842.0,3043.0,3583.0,3088.0,3187.0,4.53,9.88,1.46,1.06,1.45,-0.95,n
1664.0,2783.0,2291.0,2839.0,3035.0,3579.0,3069.0,3167.0,3.28,8.53,0.3,0.21,0.08,-0.35,n
1655.0,2774.0,2284.0,2818.0,3021.0,3582.0,3082.0,3169.0,2.92,9.4,0.28,0.0,-1.15,-0.25,n
1661.0,2779.0,2267.0,2842.0,3026.0,3583.0,3120.0,3200.0,2.86,9.5,-0.9,0.22,0.36,-0.1,n
1662.0,2779.0,2283.0,2874.0,3038.0,3583.0,3110.0,3210.0,1.95,7.6,0.74,-0.2,2.33,-0.04,n
1659.0,2785.0,2282.0,2880.0,3041.0,3600.0,3109.0,3207.0,3.41,7.92,2.11,-0.37,0.28,-0.12,n
1665.0,2781.0,2284.0,2864.0,3038.0,3583.0,3122.0,3194.0,2.76,9.46,2.03,-0.57,-1.63,0.06,n
1665.0,2788.0,2285.0,2837.0,3008.0,3570.0,3126.0,3167.0,3.73,10.41,2.04,-0.43,-1.66,0.37,n
1661.0,2785.0,2288.0,2802.0,2957.0,3526.0,3045.0,3090.0,3.74,9.73,1.46,0.44,-0.43,0.16,n
1658.0,2794.0,2293.0,2815.0,2910.0,3489.0,2982.0,3051.0,2.69,8.63,-0.63,0.4,-0.1,0.38,n
1653.0,2787.0,2292.0,2848.0,2939.0,3504.0,2998.0,3088.0,4.16,6.92,0.14,-0.32,0.18,0.56,n
1658.0,2783.0,2290.0,2863.0,3006.0,3568.0,3091.0,3177.0,5.72,7.38,0.92,-0.55,0.73,0.0,n
1662.0,2781.0,2297.0,2863.0,3039.0,3604.0,3116.0,3195.0,5.44,8.78,2.34,-0.3,0.18,-0.35,n
1648.0,2778.0,2302.0,2843.0,3006.0,3568.0,3022.0,3111.0,3.43,9.6,1.92,-0.13,0.05,-0.03,n
1641.0,2777.0,2333.0,2768.0,2951.0,3534.0,2766.0,2837.0,5.13,8.48,2.28,0.39,-0.22,0.02,n
1653.0,2784.0,2400.0,2736.0,2944.0,3535.0,2517.0,2651.0,4.25,8.51,2.01,0.6,-0.2,-0.16,n
1657.0,2785.0,2403.0,2749.0,2960.0,3549.0,2509.0,2630.0,3.63,8.91,0.96,0.22,-0.07,0.18,n
1653.0,2785.0,2397.0,2757.0,2975.0,3543.0,2480.0,2649.0,3.56,8.66,0.68,0.47,-0.26,0.16,n
1651.0,2794.0,2403.0,2768.0,2969.0,3537.0,2467.0,2673.0,4.29,8.57,-0.72,0.36,0.08,-0.01,n
1643.0,2778.0,2531.0,2736.0,2938.0,3527.0,2418.0,2736.0,4.34,8.17,-1.27,0.02,0.19,-0.02,n
1637.0,2783.0,2559.0,2745.0,2929.0,3518.0,2428.0,2736.0,4.18,8.8,-0.38,-0.04,-0.08,-0.01,n
1632.0,2774.0,2586.0,2722.0,2927.0,3516.0,2448.0,2698.0,4.62,8.82,-0.33,-0.02,0.29,-0.16,n
1628.0,2782.0,2605.0,2727.0,2906.0,3487.0,2459.0,2643.0,4.02,8.82,-0.2,-0.1,0.16,-0.09,n
1603.0,2781.0,2610.0,2740.0,2861.0,3423.0,2487.0,2615.0,4.19,8.82,0.03,0.07,-0.1,-0.09,n
1586.0,2782.0,2610.0,2763.0,2837.0,3392.0,2529.0,2559.0,4.04,8.73,-0.09,0.12,-0.15,-0.05,n
1609.0,2775.0,2615.0,2791.0,2891.0,3443.0,2513.0,2590.0,3.65,8.77,-0.77,0.18,0.03,0.03,n
1643.0,2782.0,2608.0,2784.0,2949.0,3509.0,2493.0,2612.0,3.97,8.93,-0.57,-0.01,-0.11,0.07,n
1664.0,2778.0,2610.0,2782.0,3013.0,3574.0,2479.0,2642.0,4.18,8.79,-1.01,-0.13,0.15,0.01,n
1665.0,2778.0,2608.0,2789.0,2994.0,3550.0,2486.0,2649.0,4.37,8.52,-0.09,-0.27,0.36,0.08,n
1631.0,2782.0,2608.0,2782.0,2929.0,3499.0,2487.0,2639.0,4.55,8.94,0.47,-0.16,0.22,0.04,n
1598.0,2775.0,2608.0,2759.0,2864.0,3448.0,2499.0,2656.0,4.93,9.22,0.34,0.06,0.15,-0.13,n
1589.0,2785.0,2608.0,2778.0,2869.0,3453.0,2497.0,2652.0,4.32,9.05,-0.14,0.15,-0.05,-0.01,n
1604.0,2786.0,2607.0,2803.0,2906.0,3475.0,2503.0,2661.0,3.62,7.83,-0.2,0.02,0.02,0.2,n
1601.0,2784.0,2604.0,2823.0,2917.0,3472.0,2495.0,2608.0,5.28,8.0,0.56,-0.13,0.32,0.04,n
1584.0,2782.0,2608.0,2803.0,2909.0,3461.0,2462.0,2635.0,4.99,8.61,0.6,-0.32,0.02,-0.15,n
1580.0,2768.0,2603.0,2765.0,2878.0,3443.0,2480.0,2609.0,5.4,9.85,0.24,0.06,0.39,-0.39,n
1554.0,2785.0,2609.0,2763.0,2855.0,3417.0,2494.0,2637.0,3.41,9.55,0.25,0.28,0.42,-0.19,n
1555.0,2773.0,2608.0,2799.0,2870.0,3438.0,2517.0,2623.0,2.98,8.6,-0.16,0.25,0.22,0.07,n
1559.0,2779.0,2608.0,2799.0,2871.0,3434.0,2519.0,2634.0,3.9,7.44,0.27,-0.21,0.14,0.16,n
1553.0,2782.0,2608.0,2801.0,2870.0,3421.0,2520.0,2559.0,4.3,7.89,1.98,-0.22,0.26,-0.19,n
1535.0,2779.0,2605.0,2798.0,2877.0,3441.0,2530.0,2594.0,4.89,9.84,0.96,0.09,0.1,-0.31,n
1535.0,2781.0,2607.0,2796.0,2902.0,3461.0,2526.0,2599.0,4.11,10.41,0.24,0.11,-0.44,-0.05,n
1535.0,2778.0,2608.0,2795.0,2917.0,3485.0,2507.0,2607.0,3.91,9.01,-0.59,0.35,-0.19,-0.12,n
1530.0,2779.0,2604.0,2794.0,2933.0,3498.0,2495.0,2603.0,2.88,7.77,-0.57,0.04,0.61,-0.07,n
1528.0,2782.0,2606.0,2791.0,2941.0,3499.0,2512.0,2608.0,2.88,8.08,0.88,-0.31,0.26,-0.02,n
1529.0,2779.0,2607.0,2795.0,2951.0,3501.0,2506.0,2613.0,3.83,9.19,1.49,-0.37,-0.41,0.02,n
1523.0,2778.0,2605.0,2800.0,2951.0,3504.0,2487.0,2620.0,4.72,9.95,0.83,-0.06,-0.59,-0.05,n
1525.0,2783.0,2603.0,2798.0,2954.0,3501.0,2466.0,2621.0,3.83,9.79,-0.28,0.09,-0.66,0.1,n
1523.0,2778.0,2606.0,2800.0,2956.0,3504.0,2470.0,2624.0,3.95,8.31,-0.91,-0.2,-0.61,0.25,n
1521.0,2782.0,2607.0,2798.0,2959.0,3503.0,2439.0,2590.0,4.68,7.3,1.67,-0.14,0.62,-0.06,n
1525.0,2783.0,2614.0,2797.0,2969.0,3515.0,2464.0,2596.0,3.17,8.61,1.09,0.43,1.67,-0.49,n
1520.0,2771.0,2615.0,2784.0,2971.0,3518.0,2474.0,2587.0,3.19,10.76,0.36,0.04,0.0,-0.14,n
1526.0,2769.0,2618.0,2786.0,2973.0,3521.0,2445.0,2589.0,3.55,9.56,0.21,0.05,-0.83,0.26,n
1525.0,2777.0,2623.0,2789.0,2979.0,3526.0,2450.0,2590.0,2.66,8.82,-1.36,0.12,-0.09,0.21,n
1526.0,2775.0,2624.0,2790.0,2975.0,3522.0,2454.0,2590.0,4.12,7.57,0.51,-0.52,-0.4,0.46,n
1531.0,2771.0,2617.0,2789.0,2975.0,3531.0,2459.0,2598.0,5.2,7.9,1.69,0.01,1.46,-0.5,n
1533.0,2778.0,2623.0,2784.0,2982.0,3535.0,2489.0,2601.0,3.2,10.38,1.07,0.51,1.88,-0.72,n
1525.0,2781.0,2627.0,2794.0,2981.0,3536.0,2506.0,2603.0,1.9,10.34,0.1,0.25,-0.25,-0.01,n
1529.0,2771.0,2624.0,2799.0,2989.0,3529.0,2479.0,2605.0,3.12,8.05,-0.37,-0.09,-0.88,0.37,n
1530.0,2782.0,2626.0,2798.0,2991.0,3535.0,2471.0,2608.0,3.28,7.99,1.04,-0.24,-0.26,0.03,n
1535.0,2781.0,2624.0,2783.0,2992.0,3537.0,2477.0,2611.0,3.87,9.19,0.79,-0.36,0.05,-0.25,n
1535.0,2778.0,2625.0,2778.0,2992.0,3546.0,2455.0,2614.0,4.47,10.75,0.05,-0.31,-0.65,-0.2,n
1535.0,2784.0,2626.0,2782.0,3008.0,3536.0,2534.0,2624.0,2.1,8.64,0.92,-0.26,0.09,0.35,n
1535.0,2770.0,2631.0,2789.0,3014.0,3550.0,2544.0,2624.0,3.53,7.66,2.11,0.0,0.0,0.28,n
1535.0,2786.0,2624.0,2784.0,3022.0,3542.0,2538.0,2626.0,3.73,8.64,0.69,-0.93,-2.39,0.42,n
1559.0,2779.0,2622.0,2783.0,3017.0,3549.0,2547.0,2624.0,7.81,9.26,2.44,-0.83,-1.82,-0.03,n
1527.0,2783.0,2627.0,2768.0,2998.0,3547.0,2545.0,2629.0,5.01,9.05,1.66,0.9,1.52,-0.55,n
1527.0,2787.0,2630.0,2768.0,3008.0,3553.0,2551.0,2628.0,3.47,7.47,0.43,0.76,2.21,-0.58,n
1527.0,2779.0,2633.0,2768.0,3010.0,3564.0,2555.0,2636.0,3.94,9.99,0.32,0.0,-0.33,-0.36,n
1531.0,2789.0,2628.0,2766.0,3008.0,3563.0,2553.0,2640.0,2.27,10.72,-0.61,-0.0,-0.47,0.22,n
1535.0,2786.0,2627.0,2767.0,3015.0,3567.0,2558.0,2638.0,2.43,7.58,0.17,-0.35,0.33,0.48,n
1531.0,2783.0,2640.0,2768.0,3017.0,3563.0,2551.0,2639.0,4.81,6.77,2.44,-0.59,-0.44,0.08,n
1529.0,2783.0,2641.0,2763.0,3010.0,3559.0,2554.0,2639.0,4.58,9.55,1.95,-0.43,-0.98,-0.44,n
1535.0,2789.0,2637.0,2767.0,3012.0,3564.0,2558.0,2640.0,3.28,11.28,1.13,0.04,-0.41,0.03,n
1535.0,2794.0,2640.0,2767.0,3037.0,3577.0,2551.0,2644.0,3.09,8.61,0.54,0.46,0.46,0.52,n
1534.0,2787.0,2639.0,2771.0,3039.0,3571.0,2557.0,2644.0,4.81,6.57,0.54,-0.11,0.12,0.34,n
1535.0,2784.0,2638.0,2769.0,3042.0,3583.0,2557.0,2643.0,5.49,7.11,1.87,-0.25,0.28,-0.51,n
1535.0,2787.0,2634.0,2766.0,3044.0,3583.0,2559.0,2646.0,4.21,10.47,1.72,-0.35,-0.14,-0.75,n
1535.0,2786.0,2638.0,2768.0,3038.0,3577.0,2557.0,2645.0,2.12,10.73,1.83,-0.08,-0.52,0.21,n
1535.0,2783.0,2637.0,2772.0,3047.0,3577.0,2559.0,2649.0,4.13,8.31,0.91,0.38,-0.61,0.59,n
1535.0,2789.0,2636.0,2772.0,3045.0,3581.0,2559.0,2648.0,3.62,7.35,-0.71,-0.01,0.69,0.19,n
1535.0,2786.0,2631.0,2771.0,3051.0,3583.0,2559.0,2654.0,4.8,7.39,2.43,-0.74,0.27,0.01,n
1535.0,2785.0,2638.0,2777.0,3043.0,3583.0,2559.0,2647.0,5.49,9.19,3.68,-0.15,-0.26,-0.74,n
1535.0,2774.0,2640.0,2769.0,3047.0,3579.0,2559.0,2653.0,2.71,10.76,1.89,0.43,-0.51,-0.19,n
1535.0,2794.0,2638.0,2774.0,3047.0,3583.0,2579.0,2657.0,2.69,8.52,-0.19,0.68,0.31,0.39,n
1535.0,2791.0,2637.0,2768.0,3053.0,3582.0,2559.0,2657.0,4.05,7.31,-0.19,0.1,0.47,0.16,n
1535.0,2791.0,2636.0,2773.0,3048.0,3583.0,2559.0,2655.0,5.0,7.98,1.69,-0.18,-0.05,-0.4,n
1535.0,2775.0,2639.0,2767.0,3051.0,3583.0,2580.0,2660.0,3.44,11.57,1.12,0.1,-0.19,-0.25,n
1535.0,2790.0,2640.0,2773.0,3050.0,3579.0,2583.0,2662.0,2.14,9.44,-0.48,0.35,0.31,0.52,n
1535.0,2781.0,2641.0,2769.0,3047.0,3581.0,2590.0,2665.0,4.07,6.93,0.04,0.07,1.28,0.42,n
1552.0,2783.0,2634.0,2763.0,3052.0,3599.0,2597.0,2661.0,5.29,7.65,2.57,-0.04,0.9,-0.55,n
1553.0,2783.0,2637.0,2762.0,3051.0,3583.0,2590.0,2663.0,4.12,9.05,1.7,0.31,0.23,-0.91,n
1552.0,2787.0,2636.0,2749.0,3037.0,3579.0,2589.0,2666.0,1.7,10.64,0.03,-0.23,-1.09,-0.34,n
1535.0,2791.0,2638.0,2717.0,2960.0,3527.0,2596.0,2663.0,2.43,10.6,0.78,-0.06,-0.22,0.3,n
1526.0,2790.0,2639.0,2736.0,2957.0,3519.0,2599.0,2662.0,2.93,7.43,1.23,-0.03,0.34,0.37,n
1530.0,2775.0,2633.0,2742.0,2981.0,3543.0,2607.0,2663.0,4.09,7.45,1.44,0.41,1.04,-0.27,n
1533.0,2788.0,2639.0,2739.0,2990.0,3545.0,2613.0,2659.0,2.59,10.19,-0.15,0.23,0.46,-0.48,n
1533.0,2782.0,2637.0,2738.0,2990.0,3543.0,2608.0,2662.0,3.18,9.36,-0.45,-1.68,-3.05,0.56,n
1530.0,2785.0,2635.0,2747.0,2992.0,3555.0,2620.0,2661.0,4.49,8.25,2.26,-0.99,-2.11,0.43,n
1531.0,2787.0,2631.0,2751.0,2997.0,3554.0,2623.0,2661.0,5.44,8.25,2.64,0.64,1.46,-0.42,n
1531.0,2798.0,2640.0,2756.0,2999.0,3557.0,2631.0,2670.0,3.95,8.83,0.91,1.38,3.57,-0.67,n
1533.0,2774.0,2633.0,2751.0,3001.0,3565.0,2625.0,2666.0,2.11,9.27,-0.19,0.28,0.98,-0.12,n
1529.0,2782.0,2633.0,2752.0,3007.0,3559.0,2627.0,2669.0,1.66,8.91,0.1,-0.49,-1.87,0.42,n
1526.0,2786.0,2636.0,2761.0,3012.0,3567.0,2627.0,2667.0,4.6,8.4,0.74,-1.2,-3.01,0.64,n
1535.0,2784.0,2631.0,2725.0,3002.0,3553.0,2631.0,2672.0,4.87,10.24,1.5,-0.48,1.38,-0.59,n
