hall_1,hall_2,hall_3,flex_t,flex_i,flex_m,flex_r,flex_p,accel_x,accel_y,accel_z,gyro_x,gyro_y,gyro_z,sign
3494.0,4095.0,3216.0,3392.0,3421.0,2894.0,3407.0,3344.0,3.14,8.48,8.47,0.05,0.03,-0.12,o
3510.0,4095.0,3230.0,3403.0,3424.0,2896.0,3398.0,3343.0,3.08,8.45,8.43,0.04,-0.02,-0.15,o
3504.0,4095.0,3201.0,3403.0,3422.0,2893.0,3408.0,3344.0,3.2,8.44,8.52,0.03,-0.02,-0.11,o
3497.0,4095.0,3212.0,3408.0,3427.0,2890.0,3405.0,3339.0,3.27,8.42,8.55,0.0,0.0,-0.14,o
3504.0,4095.0,3202.0,3409.0,3432.0,2896.0,3403.0,3344.0,3.16,8.51,8.66,0.02,0.01,-0.15,o
3502.0,4095.0,3211.0,3415.0,3433.0,2898.0,3411.0,3349.0,3.11,8.53,8.56,0.04,0.0,-0.13,o
3505.0,4095.0,3203.0,3415.0,3426.0,2895.0,3408.0,3347.0,3.09,8.57,8.51,0.03,0.01,-0.16,o
3491.0,4095.0,3212.0,3417.0,3429.0,2896.0,3411.0,3350.0,3.03,8.47,8.53,0.04,0.05,-0.14,o
3509.0,4095.0,3213.0,3425.0,3431.0,2896.0,3414.0,3345.0,3.09,8.41,8.5,0.05,0.03,-0.11,o
3505.0,4095.0,3203.0,3425.0,3437.0,2899.0,3411.0,3346.0,3.27,8.41,8.46,0.05,0.02,-0.11,o
3506.0,4095.0,3206.0,3472.0,3446.0,2909.0,3427.0,3350.0,3.17,8.42,8.46,0.05,0.01,-0.13,o
3478.0,4095.0,3189.0,3534.0,3460.0,2919.0,3460.0,3376.0,3.2,8.43,8.34,0.08,-0.06,-0.15,o
3491.0,4095.0,3208.0,3583.0,3493.0,2939.0,3493.0,3381.0,3.08,8.54,8.32,0.01,-0.04,-0.15,o
3477.0,4095.0,3203.0,3664.0,3527.0,2967.0,3504.0,3393.0,3.01,8.5,8.47,-0.0,-0.01,-0.12,o
3462.0,4095.0,3218.0,3723.0,3559.0,2991.0,3524.0,3395.0,3.25,8.48,8.54,-0.04,-0.01,-0.1,o
3471.0,4095.0,3225.0,3782.0,3598.0,3007.0,3539.0,3405.0,3.14,8.47,8.62,0.01,0.0,-0.13,o
3462.0,4095.0,3216.0,3857.0,3632.0,3026.0,3558.0,3409.0,3.3,8.47,8.49,0.02,-0.01,-0.12,o
3450.0,4095.0,3225.0,3917.0,3665.0,3056.0,3583.0,3423.0,3.18,8.43,8.54,0.02,0.03,-0.12,o
3443.0,4095.0,3213.0,3953.0,3681.0,3085.0,3600.0,3435.0,3.17,8.45,8.5,0.04,0.0,-0.12,o
3440.0,4095.0,3217.0,3997.0,3711.0,3097.0,3614.0,3440.0,3.27,8.54,8.38,0.06,-0.05,-0.13,o
3426.0,4095.0,3209.0,4066.0,3741.0,3121.0,3633.0,3451.0,3.26,8.48,8.35,0.08,-0.04,-0.13,o
3435.0,4095.0,3225.0,4090.0,3772.0,3138.0,3643.0,3463.0,3.34,8.45,8.35,0.05,-0.06,-0.13,o
3418.0,4095.0,3216.0,4095.0,3855.0,3174.0,3652.0,3466.0,3.35,8.52,8.3,0.07,-0.11,-0.14,o
3408.0,4095.0,3213.0,4095.0,3943.0,3221.0,3696.0,3478.0,3.41,8.47,8.32,0.02,-0.09,-0.1,o
3418.0,4095.0,3229.0,4095.0,3985.0,3261.0,3715.0,3477.0,3.43,8.51,8.34,0.06,-0.07,-0.15,o
3408.0,4095.0,3217.0,4095.0,3985.0,3271.0,3723.0,3483.0,3.4,8.54,8.26,0.05,-0.09,-0.15,o
3415.0,4095.0,3233.0,4095.0,3984.0,3269.0,3714.0,3483.0,3.34,8.52,8.24,0.03,-0.01,-0.15,o
3408.0,4095.0,3227.0,4095.0,3987.0,3274.0,3722.0,3486.0,3.39,8.48,8.25,0.01,-0.01,-0.12,o
3405.0,4095.0,3216.0,4095.0,3995.0,3277.0,3725.0,3487.0,3.53,8.53,8.22,0.01,0.0,-0.12,o
3417.0,4095.0,3223.0,4095.0,3994.0,3271.0,3714.0,3485.0,3.48,8.53,8.13,-0.0,-0.01,-0.13,o
3408.0,4095.0,3217.0,4095.0,3986.0,3272.0,3726.0,3494.0,3.55,8.5,8.14,-0.01,-0.0,-0.14,o
3423.0,4095.0,3223.0,4095.0,3989.0,3267.0,3714.0,3490.0,3.46,8.46,8.19,-0.03,0.0,-0.15,o
3422.0,4095.0,3234.0,4095.0,3970.0,3261.0,3716.0,3489.0,3.4,8.48,8.39,-0.02,0.02,-0.13,o
3425.0,4095.0,3226.0,4095.0,3941.0,3250.0,3699.0,3484.0,3.45,8.46,8.46,-0.01,-0.01,-0.14,o
3408.0,4095.0,3216.0,4095.0,3901.0,3230.0,3686.0,3477.0,3.45,8.43,8.43,0.01,0.01,-0.14,o
3427.0,4095.0,3229.0,4015.0,3869.0,3211.0,3685.0,3478.0,3.49,8.46,8.32,0.01,-0.0,-0.15,o
3418.0,4095.0,3222.0,3902.0,3826.0,3195.0,3676.0,3480.0,3.44,8.43,8.32,0.0,0.0,-0.16,o
3435.0,4095.0,3223.0,3881.0,3797.0,3183.0,3666.0,3472.0,3.39,8.42,8.3,0.01,-0.0,-0.15,o
3424.0,4095.0,3224.0,3822.0,3771.0,3171.0,3665.0,3478.0,3.45,8.44,8.24,0.01,-0.0,-0.13,o
3428.0,4095.0,3231.0,3750.0,3749.0,3155.0,3654.0,3472.0,3.44,8.43,8.32,-0.01,-0.0,-0.13,o
3434.0,4095.0,3223.0,3725.0,3728.0,3150.0,3662.0,3478.0,3.49,8.43,8.33,0.0,-0.01,-0.13,o
3431.0,4095.0,3218.0,3680.0,3699.0,3135.0,3643.0,3473.0,3.42,8.43,8.43,-0.02,-0.03,-0.13,o
3436.0,4095.0,3216.0,3648.0,3678.0,3121.0,3632.0,3472.0,3.45,8.4,8.39,0.0,-0.01,-0.12,o
3419.0,4095.0,3216.0,3607.0,3651.0,3097.0,3615.0,3472.0,3.55,8.38,8.36,-0.01,-0.02,-0.13,o
3430.0,4095.0,3223.0,3549.0,3616.0,3082.0,3616.0,3472.0,3.47,8.39,8.41,-0.03,-0.01,-0.12,o
3421.0,4095.0,3233.0,3535.0,3601.0,3056.0,3609.0,3472.0,3.54,8.39,8.41,-0.03,-0.02,-0.13,o
3421.0,4095.0,3233.0,3478.0,3568.0,3041.0,3603.0,3469.0,3.57,8.34,8.45,-0.06,0.0,-0.13,o
3439.0,4095.0,3229.0,3408.0,3547.0,3027.0,3583.0,3453.0,3.53,8.41,8.51,-0.03,0.0,-0.14,o
3431.0,4095.0,3232.0,3406.0,3508.0,3005.0,3575.0,3442.0,3.53,8.37,8.59,-0.05,-0.01,-0.17,o
3440.0,4095.0,3217.0,3367.0,3469.0,2970.0,3543.0,3431.0,3.51,8.35,8.55,-0.02,-0.02,-0.16,o
3427.0,4095.0,3242.0,3340.0,3449.0,2943.0,3536.0,3424.0,3.52,8.28,8.53,0.0,-0.03,-0.16,o
3439.0,4095.0,3234.0,3271.0,3424.0,2925.0,3518.0,3417.0,3.53,8.33,8.55,0.05,-0.05,-0.15,o
3434.0,4095.0,3230.0,3294.0,3426.0,2923.0,3515.0,3418.0,3.6,8.38,8.37,0.03,-0.05,-0.15,o
3440.0,4095.0,3231.0,3285.0,3418.0,2917.0,3513.0,3413.0,3.6,8.33,8.52,0.03,-0.06,-0.19,o
3434.0,4095.0,3221.0,3287.0,3423.0,2918.0,3520.0,3423.0,3.57,8.37,8.43,0.02,-0.07,-0.16,o
3431.0,4095.0,3216.0,3283.0,3415.0,2919.0,3520.0,3424.0,3.51,8.35,8.51,0.02,0.01,-0.15,o
3440.0,4095.0,3222.0,3296.0,3433.0,2921.0,3526.0,3427.0,3.66,8.33,8.48,0.08,-0.07,-0.17,o
3427.0,4095.0,3221.0,3310.0,3436.0,2923.0,3519.0,3421.0,3.74,8.36,8.25,-0.01,0.0,-0.16,o
3439.0,4095.0,3217.0,3312.0,3439.0,2928.0,3527.0,3427.0,3.54,8.48,8.33,-0.01,-0.01,-0.17,o
3428.0,4095.0,3227.0,3323.0,3442.0,2928.0,3531.0,3426.0,3.74,8.47,8.17,-0.1,-0.01,-0.21,o
3425.0,4095.0,3219.0,3316.0,3429.0,2916.0,3526.0,3429.0,3.44,8.36,8.48,-0.12,0.01,-0.22,o
3427.0,4095.0,3216.0,3294.0,3391.0,2873.0,3478.0,3394.0,3.55,8.18,8.6,-0.11,-0.09,-0.27,o
3441.0,4095.0,3223.0,3254.0,3389.0,2859.0,3459.0,3386.0,3.3,8.17,8.84,-0.1,-0.07,-0.24,o
3438.0,4095.0,3207.0,3274.0,3344.0,2798.0,3409.0,3347.0,3.23,8.2,9.08,-0.09,-0.09,-0.15,o
3445.0,4095.0,3226.0,3260.0,3335.0,2785.0,3386.0,3333.0,3.43,8.31,8.66,-0.05,-0.09,-0.13,o
3447.0,4095.0,3219.0,3203.0,3316.0,2783.0,3375.0,3329.0,3.49,8.2,8.87,-0.04,0.0,-0.15,o
3440.0,4095.0,3223.0,3205.0,3264.0,2759.0,3347.0,3315.0,3.77,8.12,9.02,0.02,-0.03,-0.19,o
3446.0,4095.0,3215.0,3189.0,3237.0,2741.0,3328.0,3297.0,3.4,8.26,8.84,0.05,-0.04,-0.26,o
3454.0,4095.0,3215.0,3087.0,3206.0,2734.0,3312.0,3290.0,3.16,8.37,8.77,0.07,0.03,-0.22,o
3451.0,4095.0,3214.0,2992.0,3178.0,2730.0,3303.0,3291.0,3.16,8.28,8.7,0.06,-0.02,-0.19,o
3446.0,4095.0,3212.0,2979.0,3152.0,2727.0,3297.0,3296.0,3.28,8.43,8.53,0.03,-0.11,-0.23,o
3453.0,4095.0,3206.0,3018.0,3147.0,2722.0,3291.0,3283.0,3.36,8.41,8.6,0.07,-0.02,-0.19,o
3455.0,4095.0,3203.0,3011.0,3122.0,2700.0,3274.0,3275.0,3.45,8.31,8.53,-0.01,-0.03,-0.14,o
3459.0,4095.0,3214.0,3008.0,3113.0,2701.0,3264.0,3265.0,3.27,8.35,8.51,0.02,-0.02,-0.19,o
3440.0,4095.0,3207.0,2992.0,3097.0,2688.0,3253.0,3268.0,3.21,8.35,8.54,0.02,-0.02,-0.12,o
3445.0,4095.0,3203.0,3001.0,3083.0,2685.0,3243.0,3265.0,3.29,8.42,8.63,-0.06,0.01,-0.16,o
3437.0,4095.0,3197.0,3022.0,3067.0,2677.0,3227.0,3262.0,3.36,8.36,8.63,-0.03,-0.09,-0.15,o
3455.0,4095.0,3203.0,2990.0,3058.0,2669.0,3210.0,3238.0,3.43,8.38,8.74,-0.02,-0.05,-0.17,o
3453.0,4095.0,3203.0,2995.0,3062.0,2663.0,3202.0,3234.0,3.37,8.26,8.81,0.01,-0.07,-0.17,o
3447.0,4095.0,3195.0,3017.0,3053.0,2639.0,3184.0,3222.0,3.43,8.29,8.64,0.0,-0.05,-0.17,o
3442.0,4095.0,3204.0,3017.0,3045.0,2622.0,3172.0,3211.0,3.34,8.29,8.71,0.01,-0.01,-0.14,o
3447.0,4095.0,3199.0,3015.0,3037.0,2619.0,3163.0,3211.0,3.44,8.24,8.75,-0.03,-0.05,-0.15,o
3440.0,4095.0,3193.0,3023.0,3031.0,2612.0,3158.0,3206.0,3.42,8.26,8.78,-0.01,-0.02,-0.14,o
3447.0,4095.0,3199.0,3019.0,3042.0,2611.0,3152.0,3211.0,3.38,8.27,8.75,0.03,-0.04,-0.16,o
3461.0,4095.0,3197.0,3024.0,3040.0,2614.0,3152.0,3207.0,3.42,8.32,8.68,0.05,-0.02,-0.16,o
3454.0,4095.0,3198.0,3024.0,3053.0,2624.0,3163.0,3216.0,3.42,8.31,8.6,0.03,-0.02,-0.15,o
3441.0,4095.0,3202.0,3039.0,3055.0,2623.0,3166.0,3221.0,3.34,8.35,8.59,0.05,-0.04,-0.16,o
3443.0,4095.0,3189.0,3053.0,3065.0,2637.0,3184.0,3232.0,3.37,8.26,8.68,0.07,-0.01,-0.14,o
3440.0,4095.0,3198.0,3060.0,3088.0,2647.0,3209.0,3254.0,3.51,8.12,8.75,0.13,0.05,-0.18,o
3440.0,4095.0,3184.0,3030.0,3127.0,2684.0,3254.0,3305.0,3.36,8.7,8.44,0.18,-0.31,-0.2,o
3440.0,4095.0,3187.0,3083.0,3163.0,2709.0,3301.0,3333.0,3.34,8.54,8.26,0.11,-0.08,-0.18,o
3444.0,4095.0,3184.0,3205.0,3217.0,2751.0,3338.0,3367.0,3.38,8.57,8.2,0.03,-0.13,-0.22,o
3435.0,4095.0,3198.0,3197.0,3248.0,2777.0,3366.0,3396.0,3.49,8.39,8.34,0.03,-0.24,-0.19,o
3421.0,4095.0,3197.0,3294.0,3305.0,2817.0,3406.0,3421.0,3.48,8.5,8.22,0.06,-0.27,-0.25,o
3434.0,4095.0,3198.0,3365.0,3360.0,2867.0,3441.0,3449.0,3.52,8.5,8.06,0.06,-0.14,-0.19,o
3426.0,4095.0,3206.0,3450.0,3407.0,2910.0,3461.0,3470.0,3.42,8.57,8.05,-0.0,-0.06,-0.19,o
3431.0,4095.0,3213.0,3509.0,3437.0,2926.0,3472.0,3473.0,3.38,8.51,8.19,-0.0,0.01,-0.17,o
3409.0,4095.0,3211.0,3599.0,3475.0,2951.0,3487.0,3485.0,3.47,8.57,8.19,-0.04,0.01,-0.12,o
3411.0,4095.0,3215.0,3598.0,3515.0,2976.0,3499.0,3482.0,3.45,8.48,8.33,-0.0,-0.0,-0.17,o
3408.0,4095.0,3203.0,3656.0,3549.0,3001.0,3513.0,3485.0,3.52,8.48,8.26,-0.03,-0.03,-0.15,o
3406.0,4095.0,3215.0,3815.0,3597.0,3030.0,3539.0,3500.0,3.42,8.48,8.31,-0.02,0.03,-0.16,o
3422.0,4095.0,3217.0,3900.0,3631.0,3056.0,3547.0,3498.0,3.38,8.35,8.28,-0.06,-0.02,-0.16,o
3407.0,4095.0,3214.0,3971.0,3682.0,3084.0,3559.0,3504.0,3.44,8.4,8.34,-0.01,0.03,-0.14,o
3413.0,4095.0,3218.0,3980.0,3711.0,3101.0,3582.0,3510.0,3.5,8.33,8.35,-0.0,0.01,-0.17,o
3408.0,4095.0,3215.0,4016.0,3745.0,3118.0,3579.0,3509.0,3.41,8.49,8.16,0.01,-0.02,-0.16,o
3401.0,4095.0,3207.0,4046.0,3782.0,3127.0,3583.0,3513.0,3.38,8.64,8.29,-0.02,0.01,-0.14,o
3407.0,4095.0,3216.0,4065.0,3818.0,3151.0,3583.0,3510.0,3.39,8.45,8.35,-0.01,-0.02,-0.14,o
3413.0,4095.0,3217.0,4091.0,3840.0,3162.0,3602.0,3508.0,3.53,8.49,8.27,-0.01,-0.04,-0.16,o
3407.0,4095.0,3222.0,4095.0,3873.0,3181.0,3602.0,3504.0,3.52,8.45,8.3,-0.03,-0.02,-0.15,o
3386.0,4095.0,3216.0,4095.0,3946.0,3215.0,3603.0,3510.0,3.7,8.3,8.16,-0.1,-0.04,-0.1,o
3388.0,4095.0,3223.0,4095.0,3984.0,3248.0,3629.0,3519.0,3.51,8.32,8.41,-0.07,0.01,-0.15,o
3391.0,4095.0,3222.0,4095.0,4012.0,3264.0,3644.0,3525.0,3.36,8.4,8.48,-0.06,0.04,-0.12,o
3392.0,4095.0,3213.0,4095.0,3999.0,3264.0,3650.0,3535.0,3.51,8.39,8.63,-0.04,0.13,-0.12,o
3385.0,4095.0,3219.0,4095.0,4003.0,3265.0,3651.0,3531.0,3.43,8.43,8.77,0.03,0.07,-0.12,o
3392.0,4095.0,3225.0,4052.0,3998.0,3258.0,3638.0,3526.0,3.59,8.32,8.61,0.06,0.05,-0.14,o
3385.0,4095.0,3233.0,3993.0,3979.0,3247.0,3638.0,3519.0,3.47,8.39,8.44,0.02,0.06,-0.11,o
3385.0,4095.0,3232.0,3901.0,3984.0,3245.0,3629.0,3513.0,3.5,8.22,8.73,0.04,0.05,-0.13,o
3382.0,4095.0,3214.0,3802.0,3965.0,3237.0,3629.0,3511.0,3.52,8.24,8.56,0.02,-0.04,-0.16,o
3399.0,4095.0,3216.0,3711.0,3935.0,3236.0,3629.0,3506.0,3.32,8.4,8.46,0.05,0.02,-0.14,o
3378.0,4095.0,3216.0,3623.0,3887.0,3215.0,3628.0,3515.0,3.23,8.41,8.43,0.02,0.01,-0.12,o
3386.0,4095.0,3223.0,3600.0,3835.0,3183.0,3607.0,3502.0,3.38,8.4,8.53,-0.0,0.07,-0.1,o
3401.0,4095.0,3221.0,3583.0,3826.0,3173.0,3603.0,3501.0,3.46,8.45,8.54,0.05,0.01,-0.12,o
3381.0,4095.0,3219.0,3560.0,3771.0,3120.0,3565.0,3471.0,3.6,8.35,8.48,0.01,0.04,-0.1,o
3391.0,4095.0,3231.0,3541.0,3745.0,3084.0,3551.0,3456.0,3.52,8.35,8.39,-0.01,-0.01,-0.12,o
3376.0,4095.0,3231.0,3515.0,3702.0,3047.0,3537.0,3454.0,3.58,8.25,8.51,-0.03,0.03,-0.13,o
3393.0,4095.0,3232.0,3488.0,3646.0,3018.0,3531.0,3445.0,3.51,8.32,8.54,-0.04,0.03,-0.09,o
3402.0,4095.0,3235.0,3493.0,3622.0,2995.0,3525.0,3435.0,3.57,8.26,8.67,-0.05,0.01,-0.11,o
3389.0,4095.0,3241.0,3487.0,3626.0,2992.0,3518.0,3435.0,3.68,8.25,8.74,-0.07,-0.05,-0.14,o
3399.0,4095.0,3248.0,3484.0,3628.0,2993.0,3524.0,3433.0,3.68,8.16,8.77,-0.01,0.01,-0.17,o
3379.0,4095.0,3243.0,3467.0,3617.0,2991.0,3520.0,3435.0,3.76,7.94,8.4,-0.08,-0.02,-0.15,o
3387.0,4095.0,3250.0,3455.0,3611.0,2986.0,3525.0,3440.0,3.47,8.07,8.73,-0.06,0.01,-0.16,o
3395.0,4095.0,3245.0,3422.0,3567.0,2950.0,3491.0,3426.0,3.69,7.98,8.94,-0.15,0.01,-0.3,o
3390.0,4095.0,3259.0,3401.0,3509.0,2911.0,3460.0,3421.0,3.48,8.32,9.11,-0.14,-0.1,-0.29,o
3391.0,4095.0,3267.0,3411.0,3502.0,2911.0,3461.0,3422.0,3.49,8.07,8.94,-0.13,-0.02,-0.22,o
3391.0,4095.0,3264.0,3409.0,3504.0,2907.0,3457.0,3415.0,3.38,8.11,8.94,-0.06,0.1,-0.08,o
3393.0,4095.0,3277.0,3419.0,3484.0,2907.0,3451.0,3410.0,3.35,8.07,8.85,-0.01,0.09,-0.1,o
3404.0,4095.0,3264.0,3391.0,3447.0,2887.0,3446.0,3409.0,3.34,8.07,8.84,-0.05,0.12,-0.03,o
3398.0,4095.0,3279.0,3398.0,3440.0,2880.0,3439.0,3407.0,3.4,8.09,9.09,-0.01,-0.04,-0.07,o
3407.0,4095.0,3270.0,3387.0,3428.0,2862.0,3418.0,3397.0,3.75,8.1,9.2,-0.04,-0.06,-0.1,o
3396.0,4095.0,3277.0,3383.0,3415.0,2842.0,3404.0,3379.0,3.58,7.99,9.35,-0.02,0.08,-0.13,o
3408.0,4095.0,3297.0,3375.0,3396.0,2854.0,3404.0,3381.0,3.53,7.86,9.43,-0.02,-0.12,-0.17,o
3403.0,4095.0,3316.0,3364.0,3376.0,2847.0,3405.0,3374.0,3.51,7.92,9.31,0.11,-0.07,-0.18,o
3422.0,4095.0,3334.0,3338.0,3376.0,2853.0,3395.0,3361.0,3.56,7.92,9.11,-0.01,-0.14,-0.16,o
3408.0,4095.0,3357.0,3329.0,3383.0,2851.0,3391.0,3358.0,3.54,8.07,8.88,0.03,0.14,-0.08,o
3414.0,4095.0,3369.0,3335.0,3391.0,2853.0,3383.0,3355.0,3.41,7.92,9.18,-0.02,0.2,-0.04,o
3411.0,4095.0,3377.0,3332.0,3393.0,2859.0,3386.0,3350.0,3.6,7.88,9.06,-0.02,0.22,0.03,o
3408.0,4095.0,3391.0,3333.0,3401.0,2866.0,3399.0,3353.0,3.56,7.94,9.11,-0.02,0.27,-0.01,o
3410.0,4095.0,3388.0,3319.0,3408.0,2875.0,3408.0,3351.0,3.18,7.79,9.29,-0.02,0.01,-0.06,o
3417.0,4095.0,3391.0,3290.0,3393.0,2855.0,3378.0,3344.0,3.55,7.87,9.19,-0.03,0.03,-0.08,o
3393.0,4095.0,3383.0,3279.0,3378.0,2834.0,3373.0,3343.0,3.66,7.81,9.35,-0.05,0.06,-0.14,o
3406.0,4095.0,3390.0,3309.0,3377.0,2828.0,3351.0,3331.0,3.45,7.91,9.53,0.02,-0.03,-0.22,o
3393.0,4095.0,3399.0,3312.0,3394.0,2836.0,3363.0,3341.0,3.66,7.95,9.16,-0.04,-0.06,-0.16,o
3393.0,4095.0,3390.0,3303.0,3397.0,2839.0,3358.0,3345.0,3.63,7.96,8.87,0.01,0.07,-0.23,o
3399.0,4095.0,3392.0,3257.0,3379.0,2832.0,3353.0,3347.0,3.49,8.1,8.71,-0.08,-0.11,-0.27,o
3414.0,4095.0,3391.0,3249.0,3353.0,2827.0,3344.0,3344.0,3.34,8.04,9.09,-0.04,-0.1,-0.25,o
3402.0,4095.0,3398.0,3248.0,3345.0,2821.0,3344.0,3355.0,3.22,7.96,9.29,-0.0,-0.15,-0.23,o
3414.0,4095.0,3393.0,3257.0,3345.0,2827.0,3351.0,3357.0,3.17,8.05,9.24,0.02,-0.23,-0.23,o
3398.0,4095.0,3394.0,3263.0,3350.0,2848.0,3387.0,3387.0,3.31,8.26,9.08,0.13,-0.25,-0.28,o
3398.0,4095.0,3391.0,3299.0,3389.0,2865.0,3408.0,3417.0,3.34,8.1,9.09,0.19,-0.27,-0.31,o
3413.0,4095.0,3403.0,3319.0,3423.0,2892.0,3439.0,3426.0,3.42,8.31,8.93,0.16,-0.23,-0.31,o
3413.0,4095.0,3389.0,3374.0,3460.0,2929.0,3466.0,3465.0,3.51,8.44,8.98,0.18,-0.13,-0.18,o
3403.0,4095.0,3398.0,3374.0,3485.0,2951.0,3477.0,3483.0,3.5,8.21,9.01,-0.08,-0.07,-0.11,o
3408.0,4095.0,3405.0,3503.0,3536.0,2986.0,3506.0,3520.0,3.51,7.98,8.94,0.12,-0.07,-0.16,o
3403.0,4095.0,3401.0,3642.0,3618.0,3022.0,3541.0,3537.0,3.51,8.23,8.5,0.12,-0.34,-0.18,o
3399.0,4095.0,3403.0,3792.0,3695.0,3053.0,3569.0,3568.0,3.84,8.43,8.14,0.18,-0.14,-0.18,o
3403.0,4095.0,3408.0,3856.0,3729.0,3091.0,3614.0,3600.0,3.69,8.15,8.42,0.1,-0.09,-0.17,o
3404.0,4095.0,3408.0,3966.0,3775.0,3120.0,3629.0,3626.0,3.54,8.49,8.29,0.16,-0.24,-0.2,o
3407.0,4095.0,3423.0,4073.0,3811.0,3151.0,3643.0,3629.0,3.82,8.45,8.49,0.11,-0.25,-0.18,o
3398.0,4095.0,3405.0,4095.0,3826.0,3167.0,3659.0,3631.0,3.75,8.74,8.28,0.08,-0.09,-0.19,o
3389.0,4095.0,3408.0,4095.0,3827.0,3169.0,3661.0,3632.0,3.7,8.34,8.54,0.0,-0.09,-0.14,o
3404.0,4095.0,3407.0,4095.0,3856.0,3183.0,3666.0,3621.0,3.48,8.15,8.42,-0.0,-0.11,-0.11,o
3408.0,4095.0,3409.0,4095.0,3876.0,3197.0,3678.0,3631.0,3.9,8.2,8.42,0.0,-0.13,-0.06,o
3398.0,4095.0,3389.0,4095.0,3904.0,3210.0,3696.0,3627.0,4.21,8.28,8.31,-0.0,0.06,-0.01,o
3389.0,4095.0,3392.0,4095.0,3898.0,3207.0,3688.0,3631.0,4.22,8.28,8.25,-0.06,0.04,-0.05,o
3402.0,4095.0,3383.0,4095.0,3901.0,3213.0,3695.0,3635.0,4.11,8.31,8.36,-0.02,0.06,-0.09,o
3402.0,4095.0,3387.0,4095.0,3881.0,3203.0,3693.0,3632.0,3.98,8.28,8.47,-0.01,0.09,-0.07,o
3398.0,4095.0,3394.0,4035.0,3866.0,3201.0,3694.0,3635.0,4.01,8.25,8.54,0.01,0.05,-0.07,o
3403.0,4095.0,3391.0,3894.0,3825.0,3184.0,3679.0,3631.0,4.17,8.15,8.51,0.0,0.09,-0.07,o
3408.0,4095.0,3393.0,3825.0,3786.0,3163.0,3669.0,3629.0,4.12,7.99,8.57,0.01,0.19,-0.07,o
3408.0,4095.0,3402.0,3749.0,3751.0,3143.0,3662.0,3623.0,4.16,8.09,8.34,-0.02,0.05,-0.17,o
3411.0,4095.0,3395.0,3662.0,3682.0,3100.0,3622.0,3583.0,3.82,8.07,8.61,-0.04,0.16,-0.18,o
3411.0,4095.0,3403.0,3623.0,3643.0,3041.0,3583.0,3555.0,3.81,8.01,8.7,-0.02,0.09,-0.15,o
3402.0,4095.0,3395.0,3571.0,3615.0,3008.0,3557.0,3538.0,3.93,8.08,8.72,0.03,-0.03,-0.15,o
3402.0,4095.0,3399.0,3517.0,3579.0,2977.0,3536.0,3525.0,3.94,8.16,8.59,0.03,0.02,-0.11,o
3411.0,4095.0,3402.0,3483.0,3550.0,2949.0,3505.0,3501.0,3.94,8.03,8.62,0.02,0.01,-0.14,o
3418.0,4095.0,3394.0,3454.0,3519.0,2930.0,3495.0,3489.0,4.03,8.01,8.67,0.02,-0.04,-0.18,o
3395.0,4095.0,3395.0,3440.0,3494.0,2896.0,3487.0,3493.0,4.04,8.03,8.7,-0.01,0.07,-0.18,o
3410.0,4095.0,3387.0,3463.0,3499.0,2886.0,3473.0,3485.0,3.78,8.15,8.81,-0.05,0.05,-0.1,o
3412.0,4095.0,3392.0,3451.0,3473.0,2866.0,3468.0,3488.0,4.1,7.97,8.79,-0.1,-0.03,-0.1,o
3409.0,4095.0,3389.0,3442.0,3450.0,2850.0,3453.0,3475.0,4.02,7.78,8.81,-0.11,0.05,-0.1,o
3398.0,4095.0,3392.0,3442.0,3439.0,2834.0,3454.0,3487.0,3.89,7.58,8.94,-0.04,0.06,-0.13,o
3408.0,4095.0,3391.0,3423.0,3429.0,2832.0,3461.0,3495.0,3.72,8.05,8.92,0.0,-0.06,-0.25,o
3408.0,4095.0,3399.0,3383.0,3408.0,2825.0,3459.0,3506.0,4.16,8.17,8.81,0.03,0.0,-0.18,o
3411.0,4095.0,3402.0,3387.0,3390.0,2819.0,3454.0,3507.0,4.01,8.25,8.97,-0.04,0.1,-0.14,o
3408.0,4095.0,3405.0,3385.0,3376.0,2817.0,3453.0,3515.0,3.93,8.11,8.91,-0.01,0.02,-0.15,o
3408.0,4095.0,3396.0,3392.0,3367.0,2815.0,3451.0,3517.0,3.91,8.14,8.62,0.04,-0.05,-0.12,o
3403.0,4095.0,3391.0,3387.0,3369.0,2816.0,3455.0,3521.0,4.03,7.92,8.57,-0.07,0.04,-0.15,o
3395.0,4095.0,3382.0,3375.0,3361.0,2809.0,3454.0,3520.0,3.88,7.82,8.75,-0.06,-0.03,-0.21,o
3403.0,4095.0,3391.0,3349.0,3349.0,2805.0,3438.0,3518.0,3.8,7.78,8.97,-0.02,0.02,-0.2,o
3409.0,4095.0,3396.0,3335.0,3347.0,2805.0,3442.0,3520.0,3.73,7.96,9.13,-0.04,0.02,-0.23,o
3409.0,4095.0,3402.0,3333.0,3365.0,2812.0,3441.0,3459.0,3.91,8.17,9.28,-0.05,-0.18,-0.31,o
3405.0,4095.0,3392.0,3327.0,3375.0,2816.0,3447.0,3490.0,4.18,8.07,9.06,0.07,-0.16,-0.24,o
3405.0,4095.0,3399.0,3321.0,3376.0,2816.0,3431.0,3483.0,3.74,8.01,9.01,-0.04,0.14,-0.24,o
3410.0,4095.0,3391.0,3309.0,3375.0,2800.0,3422.0,3471.0,3.38,7.77,8.88,0.03,0.13,-0.22,o
3403.0,4095.0,3392.0,3311.0,3370.0,2786.0,3408.0,3455.0,3.42,7.71,8.75,0.01,0.06,-0.18,o
3393.0,4095.0,3392.0,3290.0,3356.0,2763.0,3379.0,3435.0,3.58,7.84,8.96,0.04,0.02,-0.15,o
3391.0,4095.0,3415.0,3257.0,3358.0,2768.0,3386.0,3428.0,3.84,8.03,9.04,0.12,-0.08,-0.26,o
3398.0,4095.0,3415.0,3265.0,3369.0,2791.0,3403.0,3439.0,3.65,8.49,8.68,0.06,-0.19,-0.28,o
3393.0,4095.0,3413.0,3278.0,3381.0,2807.0,3415.0,3443.0,3.76,8.37,8.6,0.07,-0.08,-0.24,o
3388.0,4095.0,3419.0,3260.0,3391.0,2813.0,3425.0,3452.0,3.46,8.18,8.9,-0.02,-0.02,-0.24,o
3387.0,4095.0,3408.0,3286.0,3394.0,2811.0,3430.0,3460.0,3.46,8.21,9.22,0.03,0.09,-0.22,o
3407.0,4095.0,3408.0,3327.0,3411.0,2829.0,3442.0,3474.0,3.32,8.31,9.26,0.03,-0.02,-0.2,o
3403.0,4095.0,3409.0,3341.0,3420.0,2831.0,3460.0,3489.0,3.26,8.29,9.13,0.03,-0.02,-0.21,o
3395.0,4095.0,3417.0,3395.0,3447.0,2839.0,3473.0,3513.0,3.57,8.07,8.93,0.05,0.05,-0.2,o
3402.0,4095.0,3412.0,3477.0,3495.0,2862.0,3493.0,3531.0,3.44,8.14,8.8,0.04,0.06,-0.27,o
3399.0,4095.0,3392.0,3553.0,3532.0,2901.0,3516.0,3553.0,3.17,8.0,8.87,0.06,0.1,-0.29,o
3387.0,4095.0,3410.0,3654.0,3583.0,2945.0,3550.0,3581.0,2.67,8.22,8.87,0.1,0.01,-0.28,o
3371.0,4095.0,3398.0,3809.0,3652.0,2991.0,3582.0,3614.0,2.95,8.36,8.7,0.1,-0.06,-0.19,o
3376.0,4095.0,3408.0,3881.0,3714.0,3025.0,3603.0,3615.0,3.3,8.27,8.88,-0.02,0.01,-0.07,o
3367.0,4095.0,3405.0,3967.0,3745.0,3056.0,3623.0,3619.0,3.51,8.07,8.97,0.02,0.11,-0.08,o
3367.0,4095.0,3392.0,4095.0,3776.0,3086.0,3638.0,3627.0,3.09,8.31,8.73,0.03,0.03,-0.19,o
3371.0,4095.0,3398.0,4095.0,3795.0,3099.0,3653.0,3643.0,2.91,8.57,8.79,0.02,0.03,-0.21,o
3379.0,4095.0,3391.0,4095.0,3824.0,3120.0,3671.0,3647.0,3.0,8.59,8.9,-0.08,0.02,-0.19,o
3370.0,4095.0,3392.0,4095.0,3843.0,3127.0,3691.0,3663.0,3.32,8.37,9.03,0.01,0.02,-0.12,o
3370.0,4095.0,3398.0,4095.0,3878.0,3150.0,3693.0,3666.0,3.58,8.14,8.84,0.06,0.01,-0.13,o
3370.0,4095.0,3381.0,4095.0,3901.0,3162.0,3710.0,3666.0,3.34,8.08,8.8,0.08,0.02,-0.21,o
