hall_1,hall_2,hall_3,flex_t,flex_i,flex_m,flex_r,flex_p,accel_x,accel_y,accel_z,gyro_x,gyro_y,gyro_z,sign
4095.0,2582.0,2768.0,3999.0,3357.0,3493.0,2787.0,3501.0,-1.13,9.39,1.49,0.05,0.44,0.09,o
4095.0,2559.0,2768.0,4048.0,3334.0,3489.0,2792.0,3493.0,-1.85,9.63,1.5,-0.06,-0.05,0.15,o
4095.0,2585.0,2768.0,4095.0,3347.0,3483.0,2779.0,3491.0,0.07,8.65,1.14,0.26,-0.3,0.07,o
4095.0,2581.0,2768.0,4070.0,3355.0,3493.0,2786.0,3499.0,-1.64,8.77,-1.64,0.17,-0.27,-0.62,o
4095.0,2559.0,2768.0,4095.0,3360.0,3493.0,2781.0,3501.0,-3.82,8.7,-2.0,-0.23,-0.17,-0.44,o
4095.0,2559.0,2765.0,4095.0,3353.0,3503.0,2785.0,3499.0,-3.82,8.94,-1.47,-0.42,0.38,-0.12,o
4095.0,2583.0,2766.0,4095.0,3361.0,3499.0,2787.0,3516.0,-2.55,9.82,0.45,-0.51,0.68,-0.03,o
4095.0,2579.0,2768.0,4095.0,3370.0,3487.0,2799.0,3511.0,-2.48,9.18,2.26,-0.64,0.56,-0.0,o
4095.0,2579.0,2768.0,4095.0,3355.0,3507.0,2778.0,3521.0,-2.51,9.64,2.09,-0.3,0.31,0.05,o
4095.0,2559.0,2759.0,4095.0,3368.0,3499.0,2773.0,3520.0,-2.74,8.44,-1.41,-0.13,0.04,0.01,o
4095.0,2559.0,2773.0,4095.0,3370.0,3483.0,2778.0,3513.0,-3.35,9.28,-0.35,-0.05,0.5,-0.06,o
4095.0,2579.0,2762.0,4095.0,3359.0,3484.0,2771.0,3521.0,-3.93,9.02,2.34,-0.21,0.43,0.04,o
4095.0,2579.0,2766.0,4095.0,3362.0,3491.0,2786.0,3525.0,-2.37,8.66,1.24,-0.01,-0.11,0.2,o
4095.0,2586.0,2774.0,4095.0,3364.0,3489.0,2771.0,3518.0,-3.39,9.06,0.62,0.15,0.05,-0.24,o
4095.0,2581.0,2768.0,4095.0,3367.0,3490.0,2763.0,3520.0,-3.98,9.2,0.12,0.35,-0.48,-0.05,o
4095.0,2585.0,2768.0,4065.0,3354.0,3474.0,2769.0,3522.0,-3.31,8.57,0.76,0.21,-0.27,-0.12,o
4095.0,2559.0,2777.0,3838.0,3342.0,3477.0,2767.0,3521.0,-3.57,8.94,0.34,0.24,-0.03,-0.22,o
4095.0,2582.0,2765.0,4095.0,3335.0,3475.0,2767.0,3513.0,-3.58,9.16,0.08,0.31,-0.28,-0.1,o
4095.0,2586.0,2767.0,4095.0,3369.0,3461.0,2751.0,3519.0,-3.34,8.58,-0.23,0.38,-0.72,-0.05,o
4095.0,2583.0,2768.0,4091.0,3335.0,3463.0,2755.0,3517.0,-2.71,8.82,-0.74,0.54,-0.77,0.14,o
4095.0,2580.0,2774.0,3948.0,3328.0,3441.0,2745.0,3502.0,-4.52,10.08,-1.86,0.04,-0.3,0.04,o
4095.0,2559.0,2763.0,4095.0,3331.0,3477.0,2756.0,3505.0,-3.26,9.69,0.36,-0.53,-0.5,0.55,o
4095.0,2579.0,2753.0,4095.0,3355.0,3472.0,2754.0,3510.0,-2.58,9.87,1.77,-0.07,0.3,0.4,o
4095.0,2579.0,2768.0,3937.0,3337.0,3459.0,2759.0,3513.0,-1.84,9.3,0.92,-0.02,0.14,0.59,o
4095.0,2579.0,2762.0,3855.0,3343.0,3470.0,2769.0,3512.0,-0.25,9.1,0.35,-0.14,0.02,0.43,o
4095.0,2581.0,2766.0,4020.0,3355.0,3471.0,2768.0,3524.0,-0.0,9.02,0.81,-0.45,-0.41,0.15,o
4095.0,2582.0,2769.0,4031.0,3353.0,3470.0,2774.0,3523.0,-2.39,9.33,-0.4,0.1,-0.18,-0.14,o
4095.0,2559.0,2768.0,4041.0,3355.0,3475.0,2781.0,3525.0,-2.68,9.04,-2.45,0.09,0.35,-0.11,o
4095.0,2559.0,2768.0,4046.0,3345.0,3475.0,2787.0,3527.0,-1.7,8.93,0.53,-0.26,0.78,0.06,o
4095.0,2559.0,2766.0,3999.0,3347.0,3475.0,2798.0,3519.0,-1.5,9.48,0.66,0.1,1.29,0.01,o
4095.0,2589.0,2767.0,3893.0,3350.0,3478.0,2775.0,3511.0,-1.43,9.61,0.86,-0.15,3.9,-0.54,o
4095.0,2590.0,2769.0,3993.0,3350.0,3491.0,2787.0,3517.0,-1.58,10.65,-0.94,-0.16,1.94,-0.04,o
4095.0,2559.0,2768.0,4041.0,3351.0,3478.0,2793.0,3506.0,-1.13,8.83,-1.45,0.16,-0.12,0.18,o
4095.0,2559.0,2766.0,3989.0,3349.0,3511.0,2784.0,3510.0,-1.61,9.17,-2.83,0.51,-0.44,0.1,o
4095.0,2559.0,2765.0,3969.0,3340.0,3515.0,2781.0,3514.0,-1.5,8.73,-3.22,0.35,-0.76,-0.06,o
4095.0,2580.0,2768.0,3953.0,3317.0,3477.0,2791.0,3507.0,-1.27,9.49,-3.18,0.1,-1.24,0.1,o
4095.0,2559.0,2768.0,3943.0,3338.0,3476.0,2791.0,3515.0,-1.41,9.46,-3.34,-0.15,-1.05,0.23,o
4095.0,2559.0,2758.0,3932.0,3331.0,3477.0,2785.0,3520.0,-0.72,9.82,-0.7,-0.38,-0.39,0.22,o
4095.0,2559.0,2767.0,3908.0,3344.0,3493.0,2783.0,3519.0,-0.65,10.0,-0.93,-0.22,-0.6,0.35,o
4095.0,2559.0,2763.0,3887.0,3363.0,3478.0,2777.0,3520.0,-0.61,10.0,0.5,0.06,-0.7,0.56,o
4095.0,2559.0,2764.0,3856.0,3348.0,3501.0,2794.0,3516.0,0.23,9.24,0.81,0.29,-0.09,0.52,o
4095.0,2559.0,2753.0,3817.0,3341.0,3496.0,2782.0,3506.0,2.89,9.75,-1.92,0.31,-0.37,0.29,o
4095.0,2559.0,2757.0,3790.0,3344.0,3474.0,2775.0,3494.0,-2.25,9.16,-3.5,0.08,0.32,0.21,o
4095.0,2559.0,2768.0,3696.0,3333.0,3486.0,2799.0,3484.0,0.45,9.38,-3.29,-0.78,-1.58,1.24,o
4095.0,2558.0,2751.0,3696.0,3338.0,3479.0,2784.0,3491.0,2.11,9.53,-0.11,-0.5,-0.06,0.53,o
4095.0,2557.0,2765.0,3727.0,3350.0,3495.0,2784.0,3482.0,2.39,9.38,-0.54,-0.14,0.74,0.17,o
4095.0,2549.0,2759.0,3759.0,3342.0,3491.0,2802.0,3489.0,2.39,9.84,2.32,-0.02,1.49,-0.07,o
4095.0,2559.0,2759.0,3794.0,3333.0,3495.0,2790.0,3487.0,2.18,9.63,1.15,0.51,2.77,-0.43,o
4095.0,2554.0,2761.0,3806.0,3333.0,3491.0,2794.0,3495.0,1.84,9.61,-1.15,0.32,2.02,-0.3,o
4095.0,2559.0,2758.0,3850.0,3344.0,3493.0,2790.0,3494.0,0.62,9.36,-0.64,0.32,2.16,-0.17,o
4095.0,2549.0,2758.0,3871.0,3344.0,3493.0,2791.0,3498.0,1.23,9.37,-0.73,0.25,1.13,0.01,o
4095.0,2559.0,2759.0,3856.0,3346.0,3502.0,2795.0,3494.0,1.28,9.48,-0.85,0.14,0.75,-0.16,o
4095.0,2558.0,2768.0,3879.0,3348.0,3492.0,2794.0,3504.0,0.76,9.59,-0.88,0.11,1.06,-0.21,o
4095.0,2557.0,2757.0,3879.0,3338.0,3495.0,2791.0,3515.0,1.61,9.49,-0.94,0.14,0.5,-0.22,o
4095.0,2559.0,2752.0,3886.0,3357.0,3513.0,2791.0,3504.0,1.44,9.73,-1.95,-0.05,-0.48,-0.14,o
4095.0,2545.0,2719.0,3872.0,3341.0,3491.0,2769.0,3502.0,1.76,9.79,-1.44,-0.28,-1.46,0.22,o
4095.0,2522.0,2659.0,3847.0,3333.0,3492.0,2767.0,3581.0,0.7,9.57,-1.3,-0.17,-0.57,0.05,o
4095.0,2522.0,2704.0,3837.0,3344.0,3504.0,2762.0,3663.0,0.7,9.65,-1.05,-0.15,-0.14,0.02,o
4095.0,2514.0,2780.0,3831.0,3344.0,3513.0,2759.0,3742.0,0.44,9.4,-0.63,-0.05,0.1,-0.05,o
4095.0,2491.0,2838.0,3845.0,3344.0,3502.0,2762.0,3781.0,0.86,9.53,-0.74,0.1,-0.06,-0.03,o
4095.0,2439.0,2949.0,3856.0,3334.0,3524.0,2775.0,4023.0,0.53,9.54,-0.6,0.05,-0.07,-0.0,o
4095.0,2431.0,3007.0,3881.0,3344.0,3522.0,2801.0,4095.0,0.52,9.82,-0.64,0.09,-0.13,-0.03,o
4095.0,2421.0,3041.0,3881.0,3350.0,3534.0,2793.0,4095.0,0.32,9.76,-0.54,0.12,-0.15,0.06,o
4095.0,2422.0,3039.0,3879.0,3344.0,3536.0,2799.0,4095.0,0.55,9.73,-0.71,0.04,0.24,-0.03,o
4095.0,2442.0,2748.0,3776.0,3344.0,3546.0,2817.0,3931.0,0.62,10.05,-0.36,-0.03,-0.01,-0.01,o
4095.0,2467.0,2543.0,3761.0,3351.0,3524.0,2797.0,3760.0,0.22,9.76,-0.55,-0.15,-0.03,-0.04,o
4095.0,2483.0,2559.0,3760.0,3344.0,3526.0,2777.0,3682.0,0.32,9.74,-0.38,-0.07,0.08,-0.1,o
4095.0,2481.0,2591.0,3720.0,3329.0,3531.0,2770.0,3618.0,0.73,9.71,-0.72,-0.14,-0.22,-0.33,o
4095.0,2481.0,2610.0,3690.0,3344.0,3520.0,2775.0,3641.0,0.04,9.35,-1.24,-0.42,-1.84,-0.68,o
4095.0,2477.0,2609.0,3692.0,3350.0,3523.0,2779.0,3660.0,-0.36,9.38,1.17,-0.45,-0.97,-0.43,o
4095.0,2476.0,2611.0,3696.0,3363.0,3533.0,2785.0,3673.0,-2.65,9.51,1.75,0.0,-1.4,0.36,o
4095.0,2469.0,2608.0,3575.0,3358.0,3536.0,2795.0,3679.0,1.55,9.45,-0.4,0.22,-3.21,0.43,o
4095.0,2474.0,2606.0,3568.0,3354.0,3525.0,2795.0,3692.0,-0.3,9.75,-2.35,-0.38,-1.64,-0.23,o
4095.0,2477.0,2603.0,3579.0,3374.0,3542.0,2783.0,3680.0,-0.57,9.56,0.66,-0.81,-0.62,0.36,o
4095.0,2458.0,2608.0,3576.0,3353.0,3536.0,2795.0,3702.0,1.69,9.29,1.53,-0.48,-0.24,0.35,o
4095.0,2461.0,2615.0,3600.0,3372.0,3538.0,2791.0,3701.0,1.28,9.52,1.8,-0.27,0.15,0.22,o
4095.0,2465.0,2611.0,3630.0,3371.0,3530.0,2800.0,3730.0,3.9,9.17,4.85,0.21,-0.4,0.06,o
4095.0,2469.0,2591.0,3583.0,3359.0,3510.0,2797.0,3715.0,2.21,9.32,1.12,0.84,-0.9,-0.43,o
4095.0,2462.0,2608.0,3633.0,3358.0,3520.0,2797.0,3682.0,0.61,8.64,0.26,0.35,-1.04,-0.31,o
4095.0,2451.0,2634.0,3639.0,3359.0,3533.0,2799.0,3641.0,-0.08,8.77,-0.97,0.16,-0.87,-0.5,o
4095.0,2455.0,2647.0,3678.0,3365.0,3533.0,2800.0,3583.0,-0.71,9.22,-0.62,0.01,-0.53,-0.56,o
4095.0,2459.0,2646.0,3675.0,3365.0,3553.0,2805.0,3612.0,-2.05,9.73,-2.06,-0.21,0.02,-0.38,o
4095.0,2465.0,2643.0,3625.0,3361.0,3531.0,2805.0,3600.0,-1.9,9.87,0.85,-0.74,0.48,0.12,o
4095.0,2464.0,2653.0,3614.0,3370.0,3538.0,2800.0,3556.0,0.92,10.13,2.78,-0.05,0.21,0.18,o
4095.0,2455.0,2661.0,3646.0,3376.0,3541.0,2810.0,3568.0,-0.1,9.67,0.7,0.13,-0.12,-0.22,o
4095.0,2462.0,2651.0,3711.0,3367.0,3526.0,2789.0,3609.0,0.06,9.9,0.83,0.21,-1.0,-0.69,o
4095.0,2466.0,2673.0,3626.0,3337.0,3511.0,2774.0,3566.0,0.88,9.59,2.28,0.1,-0.99,-0.68,o
4095.0,2469.0,2703.0,3696.0,3327.0,3487.0,2765.0,3469.0,-2.52,9.47,0.59,-0.01,-0.51,-0.63,o
4095.0,2509.0,2735.0,3781.0,3347.0,3494.0,2727.0,3407.0,-4.06,9.5,1.02,0.05,0.13,-0.08,o
4095.0,2510.0,2736.0,3771.0,3345.0,3515.0,2740.0,3410.0,-2.73,9.9,2.02,0.21,0.51,0.49,o
4095.0,2513.0,2728.0,3774.0,3347.0,3519.0,2752.0,3439.0,0.4,9.56,0.93,0.63,0.96,0.47,o
4095.0,2519.0,2736.0,3775.0,3356.0,3513.0,2762.0,3456.0,0.01,9.51,-0.82,0.36,0.47,0.2,o
4095.0,2514.0,2734.0,3792.0,3366.0,3513.0,2751.0,3462.0,-0.02,9.38,-0.68,0.22,0.12,0.02,o
4095.0,2510.0,2720.0,3783.0,3364.0,3526.0,2745.0,3459.0,-0.66,8.95,-1.62,0.15,-0.54,-0.02,o
4095.0,2512.0,2727.0,3703.0,3339.0,3499.0,2732.0,3435.0,-2.12,8.91,-1.88,-0.21,0.11,-0.01,o
4095.0,2506.0,2727.0,3713.0,3344.0,3493.0,2737.0,3443.0,-2.33,10.15,-1.04,-0.28,0.37,0.05,o
4095.0,2512.0,2731.0,3642.0,3341.0,3501.0,2726.0,3453.0,-1.01,10.15,-0.51,-0.11,0.57,0.35,o
4095.0,2511.0,2723.0,3634.0,3344.0,3487.0,2739.0,3441.0,-1.03,9.71,-0.71,-0.39,0.79,0.22,o
4095.0,2517.0,2731.0,3670.0,3358.0,3495.0,2736.0,3459.0,0.1,10.21,0.71,-0.32,0.53,0.3,o
4095.0,2505.0,2729.0,3654.0,3343.0,3503.0,2763.0,3474.0,0.61,9.67,0.78,0.15,0.17,0.22,o
4095.0,2512.0,2734.0,3648.0,3361.0,3508.0,2753.0,3471.0,1.09,8.87,-0.21,0.38,-0.17,-0.04,o
4095.0,2509.0,2730.0,3637.0,3344.0,3514.0,2753.0,3471.0,0.31,9.34,-1.76,0.28,-0.45,-0.38,o
4095.0,2515.0,2723.0,3643.0,3345.0,3505.0,2752.0,3481.0,-2.2,9.42,-2.36,0.17,-0.17,-0.44,o
4095.0,2515.0,2722.0,3651.0,3357.0,3519.0,2749.0,3479.0,-2.02,9.46,-2.29,-0.11,0.3,0.01,o
4095.0,2512.0,2731.0,3667.0,3344.0,3510.0,2752.0,3483.0,-0.85,9.39,-1.5,-0.08,0.55,0.24,o
4095.0,2508.0,2722.0,3669.0,3355.0,3498.0,2749.0,3490.0,-0.35,9.73,-0.74,-0.11,0.53,0.06,o
4095.0,2512.0,2733.0,3637.0,3355.0,3495.0,2749.0,3494.0,0.45,9.31,-0.02,0.01,0.35,0.16,o
4095.0,2509.0,2728.0,3670.0,3345.0,3511.0,2743.0,3484.0,1.42,9.71,-0.11,-0.13,-0.08,0.04,o
4095.0,2512.0,2725.0,3663.0,3341.0,3520.0,2755.0,3500.0,0.75,9.6,-0.73,0.17,-0.61,-0.21,o
4095.0,2512.0,2727.0,3664.0,3353.0,3490.0,2759.0,3485.0,-0.4,9.47,-1.47,0.05,-0.68,-0.38,o
4095.0,2512.0,2736.0,3664.0,3349.0,3502.0,2747.0,3489.0,-0.59,9.59,-2.0,-0.11,-0.46,-0.28,o
4095.0,2512.0,2731.0,3659.0,3355.0,3521.0,2749.0,3489.0,-1.61,9.22,-1.59,-0.25,-0.07,-0.21,o
4095.0,2517.0,2731.0,3663.0,3359.0,3519.0,2749.0,3490.0,-1.87,9.98,-0.91,-0.34,0.18,-0.2,o
4095.0,2512.0,2730.0,3664.0,3358.0,3500.0,2741.0,3497.0,-2.6,10.12,-0.26,-0.27,0.47,0.13,o
4095.0,2512.0,2722.0,3674.0,3350.0,3509.0,2752.0,3493.0,-0.48,9.64,1.06,-0.17,0.4,0.43,o
4095.0,2507.0,2727.0,3665.0,3355.0,3515.0,2755.0,3495.0,-0.35,9.47,0.34,0.19,0.3,0.31,o
4095.0,2519.0,2724.0,3671.0,3344.0,3504.0,2749.0,3502.0,0.7,9.57,-0.76,0.23,0.18,0.17,o
4095.0,2512.0,2725.0,3686.0,3359.0,3520.0,2747.0,3493.0,0.66,9.74,-1.43,0.15,-0.18,-0.05,o
4095.0,2510.0,2729.0,3701.0,3356.0,3514.0,2747.0,3489.0,-1.11,9.53,-1.48,-0.18,-0.09,-0.03,o
4095.0,2508.0,2735.0,3691.0,3366.0,3522.0,2752.0,3490.0,-0.34,9.75,-0.49,-0.1,0.17,0.18,o
4095.0,2509.0,2725.0,3675.0,3358.0,3515.0,2751.0,3493.0,0.17,9.87,-0.25,-0.01,0.11,0.2,o
4095.0,2512.0,2721.0,3677.0,3346.0,3529.0,2750.0,3500.0,1.57,9.76,-0.93,0.2,0.1,0.19,o
4095.0,2512.0,2729.0,3687.0,3363.0,3513.0,2767.0,3504.0,1.53,9.3,-1.76,0.15,-0.05,-0.16,o
4095.0,2509.0,2733.0,3677.0,3371.0,3517.0,2753.0,3497.0,0.18,9.44,-2.03,-0.1,-0.41,-0.41,o
4095.0,2507.0,2720.0,3684.0,3347.0,3518.0,2762.0,3499.0,-0.92,9.68,-1.97,-0.28,-0.27,-0.36,o
4095.0,2521.0,2727.0,3698.0,3357.0,3519.0,2768.0,3504.0,-1.02,9.59,-0.85,-0.29,0.03,-0.14,o
4095.0,2512.0,2734.0,3685.0,3354.0,3517.0,2765.0,3507.0,-0.7,9.76,-0.05,-0.14,-0.12,0.04,o
4095.0,2512.0,2736.0,3694.0,3355.0,3527.0,2766.0,3503.0,-0.51,9.68,-0.4,0.01,-0.17,-0.01,o
4095.0,2509.0,2730.0,3649.0,3360.0,3527.0,2755.0,3499.0,-0.18,9.59,-0.73,0.12,-0.31,-0.15,o
4095.0,2510.0,2730.0,3667.0,3367.0,3518.0,2767.0,3504.0,-0.25,9.52,-0.62,-0.1,-0.12,0.02,o
4095.0,2512.0,2731.0,3679.0,3359.0,3506.0,2768.0,3506.0,-0.21,9.71,-0.66,-0.05,-0.01,-0.05,o
4095.0,2512.0,2723.0,3663.0,3359.0,3513.0,2767.0,3506.0,-0.26,9.77,-0.28,-0.09,0.35,-0.07,o
4095.0,2507.0,2726.0,3687.0,3366.0,3522.0,2768.0,3501.0,-2.09,9.64,-0.82,0.23,2.86,-0.39,o
4095.0,2512.0,2722.0,3697.0,3376.0,3530.0,2761.0,3507.0,0.27,9.68,-1.31,0.0,2.63,-0.38,o
4095.0,2512.0,2736.0,3700.0,3361.0,3531.0,2769.0,3515.0,0.07,9.64,-1.73,-0.08,1.74,-0.2,o
4095.0,2509.0,2725.0,3713.0,3362.0,3518.0,2759.0,3514.0,-0.66,9.52,-2.01,-0.09,1.42,-0.1,o
4095.0,2506.0,2726.0,3713.0,3360.0,3506.0,2767.0,3504.0,-1.06,9.4,-2.27,-0.13,1.14,-0.09,o
4095.0,2502.0,2725.0,3729.0,3366.0,3548.0,2785.0,3514.0,-0.58,9.43,-2.01,-0.12,0.76,-0.03,o
4095.0,2505.0,2734.0,3736.0,3354.0,3510.0,2767.0,3511.0,-0.54,9.49,-2.42,-0.12,0.15,0.02,o
4095.0,2509.0,2728.0,3702.0,3367.0,3515.0,2755.0,3508.0,-0.98,9.39,-2.44,-0.05,-0.86,0.18,o
4095.0,2512.0,2736.0,3699.0,3367.0,3521.0,2768.0,3515.0,-0.51,9.55,-2.9,-0.16,-3.45,0.69,o
4095.0,2503.0,2729.0,3673.0,3366.0,3523.0,2771.0,3519.0,-0.96,9.55,-1.87,-0.17,-2.27,0.64,o
4095.0,2501.0,2725.0,3647.0,3376.0,3527.0,2770.0,3525.0,1.11,9.49,-0.88,-0.27,-1.52,0.31,o
4095.0,2505.0,2727.0,3660.0,3371.0,3517.0,2775.0,3536.0,-0.19,9.63,-1.3,-0.13,-0.9,0.1,o
4095.0,2512.0,2728.0,3665.0,3365.0,3515.0,2770.0,3521.0,-0.68,9.55,-0.8,-0.08,0.06,-0.1,o
4095.0,2505.0,2731.0,3682.0,3376.0,3504.0,2773.0,3531.0,-0.62,9.54,-1.01,0.03,0.45,-0.08,o
4095.0,2501.0,2729.0,3685.0,3355.0,3533.0,2767.0,3520.0,-0.21,9.49,-1.0,-0.03,0.19,-0.07,o
4095.0,2496.0,2723.0,3670.0,3376.0,3522.0,2775.0,3519.0,-0.22,9.64,-0.86,0.03,0.14,-0.12,o
4095.0,2500.0,2732.0,3670.0,3383.0,3532.0,2773.0,3526.0,-0.13,9.55,-1.05,0.05,0.18,-0.14,o
4095.0,2499.0,2730.0,3667.0,3363.0,3522.0,2775.0,3532.0,-0.41,9.64,-1.34,0.02,0.05,-0.07,o
4095.0,2500.0,2730.0,3683.0,3376.0,3518.0,2781.0,3533.0,-0.37,9.61,-1.32,-0.03,0.06,0.01,o
4095.0,2497.0,2727.0,3666.0,3370.0,3526.0,2781.0,3533.0,0.04,9.67,-1.19,-0.04,0.09,-0.02,o
4095.0,2502.0,2736.0,3674.0,3359.0,3516.0,2771.0,3523.0,0.09,9.63,-1.87,-0.04,0.01,0.03,o
4095.0,2494.0,2735.0,3673.0,3376.0,3543.0,2781.0,3536.0,0.33,9.74,-1.21,-0.3,-0.17,0.08,o
4095.0,2501.0,2736.0,3689.0,3371.0,3531.0,2782.0,3526.0,-0.48,10.42,-1.05,-0.07,-0.13,0.08,o
4095.0,2499.0,2725.0,3674.0,3374.0,3533.0,2769.0,3543.0,0.21,9.83,-0.89,-0.05,0.03,0.22,o
4095.0,2497.0,2725.0,3675.0,3380.0,3534.0,2773.0,3535.0,0.8,9.38,0.18,-0.03,-0.15,0.16,o
4095.0,2497.0,2726.0,3681.0,3376.0,3545.0,2775.0,3539.0,0.64,9.16,-0.54,-0.01,-0.36,0.0,o
4095.0,2505.0,2730.0,3667.0,3376.0,3531.0,2797.0,3536.0,-0.06,9.11,-0.8,0.01,-0.41,-0.06,o
4095.0,2492.0,2727.0,3663.0,3361.0,3535.0,2783.0,3546.0,-0.42,9.56,-1.18,0.06,-0.33,-0.08,o
4095.0,2494.0,2727.0,3653.0,3385.0,3522.0,2772.0,3535.0,-0.52,9.55,-1.45,0.05,-0.09,-0.02,o
4095.0,2497.0,2735.0,3674.0,3378.0,3530.0,2777.0,3534.0,-0.23,9.51,-1.73,0.08,0.4,-0.03,o
4095.0,2498.0,2736.0,3668.0,3374.0,3519.0,2770.0,3531.0,0.37,10.39,-1.53,0.07,0.43,0.11,o
4095.0,2490.0,2730.0,3664.0,3378.0,3532.0,2768.0,3535.0,0.9,9.81,-1.59,0.02,0.39,0.11,o
4095.0,2496.0,2736.0,3666.0,3395.0,3537.0,2768.0,3538.0,0.86,9.72,-1.36,0.08,0.26,0.01,o
4095.0,2511.0,2730.0,3681.0,3374.0,3527.0,2784.0,3536.0,0.91,9.49,-1.47,0.05,0.12,0.02,o
4095.0,2496.0,2736.0,3696.0,3397.0,3527.0,2774.0,3532.0,0.47,9.17,-1.44,-0.16,0.14,0.01,o
4095.0,2507.0,2731.0,3664.0,3371.0,3511.0,2782.0,3541.0,1.24,9.5,-0.67,-0.16,0.09,0.0,o
4095.0,2498.0,2735.0,3680.0,3383.0,3537.0,2771.0,3542.0,0.59,9.91,-0.78,-0.18,-0.22,-0.06,o
4095.0,2493.0,2723.0,3679.0,3379.0,3522.0,2783.0,3537.0,0.43,10.48,-0.85,-0.15,-0.31,0.09,o
4095.0,2497.0,2727.0,3675.0,3377.0,3536.0,2785.0,3536.0,0.85,10.56,-2.11,-0.04,-0.18,0.37,o
4095.0,2492.0,2733.0,3682.0,3376.0,3531.0,2781.0,3551.0,1.23,9.88,-1.95,-0.15,-0.0,0.32,o
4095.0,2499.0,2727.0,3666.0,3374.0,3522.0,2773.0,3543.0,1.27,8.35,-1.29,0.15,0.43,0.05,o
4095.0,2501.0,2736.0,3683.0,3373.0,3530.0,2788.0,3539.0,1.19,8.34,-1.09,0.1,0.41,-0.28,o
4095.0,2495.0,2733.0,3690.0,3388.0,3525.0,2773.0,3523.0,1.02,9.28,-0.71,-0.01,0.23,-0.37,o
4095.0,2509.0,2730.0,3679.0,3384.0,3509.0,2771.0,3553.0,0.46,10.33,-0.02,-0.13,-0.19,-0.29,o
4095.0,2494.0,2731.0,3696.0,3375.0,3516.0,2778.0,3537.0,0.04,10.54,-0.73,-0.18,-0.45,0.03,o
4095.0,2495.0,2731.0,3691.0,3371.0,3523.0,2787.0,3537.0,0.46,10.44,-1.26,-0.12,-0.41,0.21,o
4095.0,2495.0,2727.0,3694.0,3388.0,3537.0,2773.0,3529.0,0.22,9.38,-1.35,-0.13,-0.3,0.3,o
4095.0,2487.0,2731.0,3694.0,3389.0,3529.0,2778.0,3538.0,0.91,8.8,-0.89,-0.14,-0.13,0.17,o
4095.0,2497.0,2736.0,3690.0,3390.0,3540.0,2785.0,3536.0,1.28,9.57,-0.62,-0.01,-0.11,-0.02,o
4095.0,2497.0,2723.0,3682.0,3367.0,3543.0,2789.0,3540.0,0.9,9.84,-0.77,0.01,0.09,-0.09,o
4095.0,2500.0,2734.0,3687.0,3374.0,3531.0,2788.0,3543.0,0.93,9.66,-0.44,0.12,1.58,-0.28,o
4095.0,2499.0,2735.0,3706.0,3386.0,3521.0,2774.0,3547.0,1.27,9.66,-0.84,0.15,1.4,-0.28,o
4095.0,2501.0,2735.0,3682.0,3375.0,3534.0,2804.0,3537.0,0.0,9.59,-0.99,0.12,1.39,-0.23,o
4095.0,2502.0,2733.0,3693.0,3377.0,3533.0,2778.0,3545.0,-1.0,9.55,-1.29,0.1,1.24,-0.23,o
4095.0,2503.0,2736.0,3682.0,3380.0,3528.0,2782.0,3537.0,-0.01,9.67,-1.72,-0.07,-0.64,0.06,o
4095.0,2495.0,2722.0,3702.0,3377.0,3536.0,2787.0,3541.0,-0.2,9.54,-1.38,-0.14,-1.42,0.29,o
4095.0,2491.0,2724.0,3691.0,3398.0,3538.0,2781.0,3535.0,1.02,9.62,-0.98,-0.32,-1.71,0.37,o
4095.0,2505.0,2736.0,3696.0,3375.0,3527.0,2802.0,3539.0,-0.81,9.43,-1.19,-0.18,-1.84,0.47,o
4095.0,2496.0,2736.0,3696.0,3376.0,3525.0,2784.0,3542.0,1.35,9.68,-0.79,-0.28,-2.56,0.36,o
4095.0,2503.0,2736.0,3696.0,3376.0,3525.0,2784.0,3536.0,0.51,10.26,-0.81,-0.18,-0.58,0.04,o
4095.0,2497.0,2723.0,3697.0,3377.0,3536.0,2791.0,3538.0,1.32,10.35,-0.35,-0.03,0.01,0.16,o
4095.0,2493.0,2731.0,3691.0,3395.0,3536.0,2781.0,3547.0,2.02,9.79,0.41,0.03,0.04,0.12,o
4095.0,2497.0,2731.0,3679.0,3389.0,3548.0,2777.0,3543.0,1.76,9.15,-0.35,0.03,-0.05,-0.03,o
4095.0,2493.0,2736.0,3692.0,3387.0,3537.0,2795.0,3543.0,1.14,8.87,-0.47,-0.06,-0.1,-0.12,o
4095.0,2497.0,2730.0,3701.0,3391.0,3539.0,2786.0,3561.0,0.51,9.15,-1.02,-0.05,-0.11,-0.14,o
4095.0,2511.0,2722.0,3699.0,3376.0,3536.0,2786.0,3563.0,0.48,9.83,-0.82,-0.1,0.19,-0.11,o
4095.0,2495.0,2723.0,3687.0,3378.0,3522.0,2802.0,3557.0,1.03,10.22,-0.84,0.0,0.31,0.07,o
4095.0,2501.0,2736.0,3695.0,3391.0,3537.0,2800.0,3549.0,1.76,10.0,-0.58,-0.16,0.14,0.21,o
4095.0,2498.0,2726.0,3700.0,3371.0,3568.0,2785.0,3548.0,2.0,9.51,0.38,-0.12,0.2,0.1,o
4095.0,2497.0,2732.0,3682.0,3383.0,3535.0,2790.0,3557.0,2.11,9.43,0.14,0.12,0.65,-0.2,o
4095.0,2499.0,2734.0,3696.0,3376.0,3523.0,2800.0,3566.0,1.15,9.57,-0.33,0.31,1.3,-0.29,o
4095.0,2501.0,2734.0,3693.0,3376.0,3529.0,2780.0,3550.0,1.14,9.5,-0.95,0.47,2.26,-0.62,o
4095.0,2497.0,2731.0,3680.0,3376.0,3530.0,2781.0,3557.0,0.37,9.68,-1.54,0.09,1.73,-0.56,o
4095.0,2512.0,2730.0,3679.0,3383.0,3572.0,2780.0,3550.0,0.14,9.77,-1.18,-0.03,1.81,-0.48,o
4095.0,2498.0,2720.0,3685.0,3381.0,3537.0,2790.0,3541.0,-0.69,9.46,-1.49,-0.01,1.61,-0.29,o
4095.0,2499.0,2725.0,3679.0,3370.0,3531.0,2779.0,3543.0,-0.43,9.45,-1.49,-0.03,0.48,-0.07,o
4095.0,2496.0,2733.0,3690.0,3376.0,3525.0,2781.0,3561.0,-0.4,9.51,-1.66,-0.02,-0.78,0.1,o
4095.0,2503.0,2733.0,3699.0,3373.0,3519.0,2789.0,3555.0,-0.38,9.53,-1.87,-0.16,-2.61,0.47,o
4095.0,2496.0,2725.0,3679.0,3383.0,3538.0,2795.0,3559.0,0.71,9.78,-0.52,-0.29,-1.32,0.26,o
4095.0,2494.0,2733.0,3678.0,3390.0,3536.0,2773.0,3567.0,-1.75,9.43,-0.97,-0.04,-0.94,0.31,o
4095.0,2506.0,2736.0,3694.0,3372.0,3517.0,2799.0,3549.0,1.42,9.58,-0.57,-0.23,-1.41,0.22,o
4095.0,2497.0,2730.0,3690.0,3376.0,3547.0,2793.0,3546.0,1.29,9.55,-0.04,-0.08,-0.42,-0.03,o
4095.0,2508.0,2735.0,3703.0,3391.0,3547.0,2773.0,3551.0,1.05,9.75,-0.26,0.07,0.81,-0.25,o
4095.0,2497.0,2730.0,3682.0,3379.0,3543.0,2791.0,3547.0,-0.8,9.62,-0.91,0.12,0.71,-0.21,o
4095.0,2493.0,2723.0,3670.0,3381.0,3544.0,2780.0,3558.0,0.37,9.64,-0.64,0.01,0.38,-0.14,o
