hall_1,hall_2,hall_3,flex_t,flex_i,flex_m,flex_r,flex_p,accel_x,accel_y,accel_z,gyro_x,gyro_y,gyro_z,sign
3809.0,958.0,2958.0,3307.0,2711.0,2270.0,2559.0,2225.0,-1.23,9.44,6.75,-0.0,-0.0,-0.17,s
3795.0,960.0,2960.0,3277.0,2704.0,2266.0,2559.0,2215.0,-1.6,9.35,6.78,0.1,-0.07,-0.19,s
3784.0,959.0,2959.0,3248.0,2704.0,2264.0,2559.0,2205.0,-1.24,9.66,6.24,0.01,-0.1,-0.17,s
3787.0,964.0,2971.0,3246.0,2705.0,2267.0,2559.0,2191.0,-1.37,9.58,6.07,-0.07,-0.09,-0.17,s
3787.0,970.0,2950.0,3232.0,2710.0,2267.0,2559.0,2169.0,-1.18,9.28,6.44,-0.08,0.03,-0.18,s
3803.0,969.0,2944.0,3229.0,2715.0,2272.0,2580.0,2169.0,-1.37,9.35,6.84,-0.03,-0.02,-0.19,s
3803.0,970.0,2935.0,3234.0,2715.0,2267.0,2559.0,2167.0,-1.38,9.38,6.97,0.06,0.05,-0.2,s
3791.0,956.0,2954.0,3238.0,2715.0,2275.0,2583.0,2178.0,-1.65,9.53,6.71,0.1,0.06,-0.18,s
3794.0,972.0,2935.0,3245.0,2722.0,2276.0,2559.0,2182.0,-1.64,9.69,6.4,0.1,0.03,-0.16,s
3806.0,958.0,2945.0,3248.0,2726.0,2271.0,2559.0,2188.0,-1.52,9.74,6.17,0.02,0.06,-0.15,s
3803.0,969.0,2941.0,3254.0,2726.0,2273.0,2559.0,2194.0,-1.29,9.46,6.58,0.01,0.03,-0.19,s
3805.0,963.0,2934.0,3259.0,2722.0,2271.0,2559.0,2223.0,-1.41,9.29,7.02,0.15,-0.01,-0.24,s
3817.0,955.0,2948.0,3266.0,2731.0,2275.0,2559.0,2211.0,-1.6,9.32,6.67,0.28,-0.04,-0.28,s
3792.0,961.0,2935.0,3266.0,2725.0,2273.0,2559.0,2220.0,-1.92,9.54,5.56,0.21,-0.05,-0.25,s
3801.0,963.0,2942.0,3258.0,2724.0,2279.0,2559.0,2219.0,-2.22,9.6,4.7,-0.03,-0.03,-0.17,s
3791.0,971.0,2933.0,3264.0,2730.0,2281.0,2559.0,2224.0,-1.98,9.39,5.42,-0.36,0.03,-0.02,s
3792.0,967.0,2935.0,3261.0,2721.0,2275.0,2559.0,2223.0,-1.47,9.18,6.66,-0.48,-0.03,0.01,s
3807.0,963.0,2938.0,3264.0,2730.0,2282.0,2559.0,2215.0,-1.43,9.3,7.56,-0.26,-0.03,-0.07,s
3793.0,961.0,2942.0,3257.0,2730.0,2279.0,2559.0,2219.0,-1.7,9.64,7.16,-0.13,-0.1,-0.07,s
3797.0,961.0,2938.0,3249.0,2727.0,2284.0,2547.0,2223.0,-1.54,9.73,7.09,-0.04,-0.0,-0.06,s
3801.0,957.0,2937.0,3248.0,2725.0,2277.0,2544.0,2218.0,-1.34,9.58,7.74,0.07,0.02,-0.1,s
3790.0,954.0,2941.0,3249.0,2727.0,2281.0,2559.0,2214.0,-1.07,9.21,7.76,0.43,0.04,-0.2,s
3811.0,959.0,2945.0,3245.0,2729.0,2287.0,2559.0,2210.0,-0.85,9.41,6.77,0.6,0.02,-0.31,s
3792.0,973.0,2943.0,3242.0,2728.0,2279.0,2559.0,2215.0,-1.51,9.39,6.01,0.46,0.16,-0.32,s
3791.0,962.0,2930.0,3234.0,2734.0,2287.0,2559.0,2211.0,-2.05,9.74,5.32,0.36,0.08,-0.24,s
3786.0,957.0,2929.0,3238.0,2736.0,2281.0,2559.0,2221.0,-2.03,9.77,5.1,0.18,0.02,-0.14,s
3799.0,970.0,2944.0,3248.0,2737.0,2277.0,2559.0,2220.0,-1.73,9.68,4.96,-0.01,0.07,-0.08,s
3777.0,961.0,2935.0,3249.0,2734.0,2279.0,2559.0,2224.0,-1.77,9.32,5.29,-0.14,0.01,-0.14,s
3781.0,961.0,2937.0,3261.0,2736.0,2279.0,2559.0,2224.0,-1.71,9.25,5.94,-0.29,-0.07,-0.12,s
3806.0,965.0,2939.0,3266.0,2736.0,2287.0,2559.0,2226.0,-1.82,9.32,6.18,-0.24,0.08,-0.08,s
3805.0,972.0,2950.0,3267.0,2736.0,2288.0,2559.0,2226.0,-1.85,9.5,6.09,-0.24,0.04,-0.02,s
3807.0,963.0,2944.0,3265.0,2739.0,2288.0,2559.0,2233.0,-1.78,9.62,5.94,-0.29,0.03,0.04,s
3808.0,951.0,2951.0,3274.0,2736.0,2285.0,2559.0,2235.0,-1.74,9.43,6.23,-0.31,0.02,0.09,s
3795.0,965.0,2941.0,3264.0,2736.0,2285.0,2559.0,2235.0,-1.6,9.56,5.82,-0.42,-0.04,0.13,s
3803.0,960.0,2942.0,3273.0,2737.0,2283.0,2559.0,2235.0,-0.87,9.44,6.9,-0.5,0.05,0.14,s
3803.0,955.0,2944.0,3267.0,2736.0,2283.0,2559.0,2236.0,-0.22,9.44,7.85,-0.54,0.05,0.01,s
3815.0,955.0,2939.0,3277.0,2735.0,2279.0,2551.0,2238.0,-0.66,9.39,8.18,-0.3,0.06,-0.11,s
3791.0,967.0,2939.0,3282.0,2739.0,2277.0,2549.0,2236.0,-0.51,9.18,9.06,-0.14,0.02,-0.11,s
3781.0,962.0,2932.0,3281.0,2736.0,2277.0,2553.0,2236.0,-0.3,9.33,8.95,0.16,-0.01,-0.2,s
3790.0,963.0,2928.0,3280.0,2736.0,2279.0,2557.0,2226.0,-0.41,9.4,8.17,0.39,0.06,-0.32,s
3797.0,963.0,2939.0,3287.0,2739.0,2283.0,2558.0,2234.0,-1.04,9.35,7.69,0.52,-0.03,-0.41,s
3780.0,963.0,2933.0,3281.0,2736.0,2287.0,2559.0,2239.0,-1.3,9.43,7.01,0.52,0.01,-0.4,s
3791.0,966.0,2931.0,3286.0,2741.0,2288.0,2559.0,2235.0,-1.42,9.36,6.47,0.49,0.1,-0.37,s
3792.0,960.0,2938.0,3284.0,2740.0,2288.0,2559.0,2231.0,-1.28,9.42,5.41,0.39,-0.06,-0.35,s
3803.0,963.0,2949.0,3274.0,2741.0,2288.0,2559.0,2235.0,-1.94,9.34,4.51,0.1,-0.14,-0.25,s
3791.0,966.0,2944.0,3255.0,2739.0,2287.0,2559.0,2233.0,-2.33,9.47,5.08,-0.27,-0.26,-0.11,s
3809.0,956.0,2933.0,3238.0,2736.0,2281.0,2559.0,2225.0,-1.7,9.44,6.36,-0.51,-0.32,0.03,s
3796.0,957.0,2941.0,3222.0,2736.0,2272.0,2547.0,2227.0,-0.85,9.12,7.63,-0.58,-0.12,0.01,s
3786.0,972.0,2938.0,3211.0,2741.0,2265.0,2550.0,2203.0,-1.05,8.96,7.78,-0.5,0.11,-0.19,s
3792.0,967.0,2950.0,3200.0,2739.0,2267.0,2554.0,2209.0,-1.28,9.19,7.46,-0.47,-0.09,-0.32,s
3782.0,960.0,2930.0,3191.0,2739.0,2258.0,2557.0,2202.0,-1.62,9.1,8.17,-0.42,-0.09,-0.3,s
3779.0,959.0,2939.0,3172.0,2737.0,2263.0,2557.0,2199.0,-1.92,9.25,8.35,-0.34,-0.01,-0.18,s
3783.0,953.0,2939.0,3168.0,2741.0,2258.0,2552.0,2194.0,-1.57,8.9,8.75,-0.23,-0.07,-0.15,s
3806.0,950.0,2949.0,3152.0,2743.0,2269.0,2559.0,2193.0,-1.6,8.89,8.67,-0.07,0.06,-0.09,s
3774.0,946.0,2940.0,3117.0,2737.0,2259.0,2559.0,2177.0,-1.28,8.9,8.43,0.07,0.03,-0.02,s
3790.0,953.0,2943.0,3101.0,2742.0,2268.0,2559.0,2174.0,-1.24,8.81,8.19,0.04,0.08,-0.03,s
3791.0,944.0,2937.0,3088.0,2740.0,2271.0,2586.0,2177.0,-1.37,8.88,8.29,0.15,0.04,-0.07,s
3775.0,944.0,2930.0,3088.0,2747.0,2273.0,2598.0,2190.0,-1.73,8.94,8.3,0.39,0.06,-0.04,s
3774.0,933.0,2939.0,3081.0,2744.0,2284.0,2608.0,2191.0,-1.56,8.77,7.89,0.61,-0.06,0.3,s
3797.0,943.0,2931.0,3109.0,2752.0,2273.0,2607.0,2208.0,-0.62,9.12,7.71,0.63,-0.08,-0.06,s
3792.0,944.0,2933.0,3122.0,2752.0,2263.0,2602.0,2201.0,-0.57,9.39,7.1,0.39,0.15,-0.05,s
3802.0,947.0,2914.0,3135.0,2752.0,2258.0,2559.0,2217.0,-0.67,9.19,6.67,0.67,0.1,-0.07,s
3808.0,944.0,2923.0,3135.0,2752.0,2245.0,2555.0,2194.0,-1.04,9.66,6.37,0.55,-0.07,-0.04,s
3792.0,958.0,2931.0,3181.0,2752.0,2236.0,2537.0,2190.0,-0.73,9.56,6.17,0.56,-0.01,-0.14,s
3818.0,976.0,2928.0,3193.0,2751.0,2242.0,2551.0,2177.0,-0.77,10.02,6.02,0.26,0.03,-0.03,s
3792.0,959.0,2922.0,3194.0,2749.0,2239.0,2559.0,2163.0,-0.94,9.59,6.19,0.48,0.05,-0.2,s
3808.0,971.0,2925.0,3195.0,2749.0,2247.0,2553.0,2161.0,-0.7,9.52,6.13,0.52,0.07,-0.27,s
3815.0,967.0,2928.0,3215.0,2752.0,2256.0,2559.0,2169.0,-1.22,10.23,5.05,0.15,0.14,-0.14,s
3814.0,955.0,2923.0,3219.0,2752.0,2261.0,2559.0,2190.0,-0.79,9.52,5.49,-0.12,-0.23,-0.12,s
3806.0,966.0,2932.0,3227.0,2753.0,2267.0,2559.0,2187.0,-0.81,9.9,5.38,-0.02,0.2,-0.14,s
3828.0,974.0,2939.0,3230.0,2752.0,2256.0,2556.0,2190.0,-0.96,9.71,5.83,-0.2,0.19,-0.02,s
3809.0,981.0,2928.0,3251.0,2750.0,2256.0,2543.0,2201.0,-1.07,10.18,5.58,-0.48,0.25,0.28,s
3824.0,969.0,2943.0,3242.0,2742.0,2256.0,2529.0,2198.0,-0.3,10.36,5.11,-0.98,0.06,0.44,s
3829.0,968.0,2934.0,3243.0,2735.0,2256.0,2534.0,2229.0,0.31,9.02,5.72,-1.25,-0.92,-0.19,s
3823.0,957.0,2943.0,3248.0,2733.0,2258.0,2530.0,2240.0,0.84,8.75,6.74,-0.63,-0.6,-0.61,s
3819.0,961.0,2938.0,3260.0,2728.0,2271.0,2544.0,2240.0,-0.88,9.27,7.71,-0.32,0.29,-0.54,s
3814.0,960.0,2941.0,3261.0,2727.0,2279.0,2550.0,2256.0,-0.78,9.26,7.27,-0.18,-0.1,-0.41,s
3831.0,964.0,2931.0,3270.0,2735.0,2278.0,2548.0,2255.0,0.12,8.97,7.14,-0.37,-0.48,-0.51,s
3838.0,976.0,2937.0,3279.0,2738.0,2286.0,2554.0,2249.0,-0.26,8.76,8.31,-0.43,-0.17,-0.49,s
3810.0,977.0,2930.0,3279.0,2736.0,2288.0,2559.0,2258.0,-1.48,8.96,9.4,-0.34,-0.22,-0.49,s
3815.0,968.0,2946.0,3280.0,2738.0,2290.0,2559.0,2257.0,-1.04,9.24,9.68,-0.09,-0.42,-0.52,s
3806.0,967.0,2928.0,3279.0,2736.0,2285.0,2559.0,2262.0,-2.25,9.13,10.65,0.2,-0.15,-0.44,s
3817.0,969.0,2941.0,3282.0,2736.0,2290.0,2559.0,2259.0,-2.08,9.14,10.05,0.6,-0.16,-0.31,s
3821.0,972.0,2937.0,3281.0,2734.0,2289.0,2559.0,2262.0,-1.67,8.83,9.18,0.87,-0.07,-0.24,s
3821.0,962.0,2953.0,3290.0,2736.0,2293.0,2559.0,2261.0,-1.3,8.69,7.86,0.99,0.14,-0.28,s
3826.0,976.0,2928.0,3280.0,2736.0,2292.0,2559.0,2271.0,-2.18,8.73,6.96,0.92,-0.07,-0.36,s
3815.0,970.0,2935.0,3275.0,2734.0,2288.0,2559.0,2271.0,-2.43,9.02,5.4,0.85,0.16,-0.28,s
3821.0,974.0,2928.0,3277.0,2735.0,2288.0,2559.0,2273.0,-2.94,9.28,4.79,0.53,0.65,0.05,s
3813.0,970.0,2941.0,3278.0,2735.0,2288.0,2559.0,2276.0,-3.17,9.49,4.56,0.22,0.16,0.39,s
3803.0,962.0,2929.0,3279.0,2736.0,2289.0,2559.0,2276.0,-1.07,9.44,4.03,-0.03,-0.44,0.64,s
3824.0,962.0,2935.0,3283.0,2738.0,2297.0,2559.0,2281.0,0.67,9.88,3.69,-0.25,0.12,0.61,s
3810.0,966.0,2935.0,3289.0,2736.0,2292.0,2559.0,2283.0,1.1,9.54,4.92,-0.62,0.22,0.44,s
3830.0,972.0,2946.0,3293.0,2736.0,2290.0,2559.0,2279.0,1.21,9.57,5.83,-0.68,-0.37,0.04,s
3808.0,976.0,2937.0,3289.0,2736.0,2288.0,2559.0,2274.0,0.66,9.36,6.92,-0.74,-0.3,-0.16,s
3824.0,973.0,2935.0,3294.0,2741.0,2289.0,2559.0,2279.0,0.33,9.37,7.88,-0.64,-0.07,-0.22,s
3824.0,961.0,2934.0,3297.0,2739.0,2293.0,2559.0,2279.0,0.78,9.08,8.64,-0.62,-0.45,-0.42,s
3825.0,976.0,2939.0,3302.0,2736.0,2290.0,2559.0,2282.0,-0.07,8.85,9.13,-0.42,-0.34,-0.64,s
3839.0,955.0,2937.0,3302.0,2737.0,2295.0,2559.0,2281.0,-1.07,9.15,9.75,-0.23,0.03,-0.47,s
3824.0,972.0,2928.0,3295.0,2737.0,2289.0,2559.0,2286.0,-1.32,9.15,10.43,0.2,0.17,-0.23,s
3825.0,962.0,2935.0,3301.0,2737.0,2298.0,2559.0,2283.0,-0.84,9.19,9.72,0.62,0.25,-0.06,s
3819.0,969.0,2933.0,3306.0,2737.0,2303.0,2559.0,2286.0,-0.4,9.2,8.21,0.89,0.45,-0.09,s
3828.0,969.0,2940.0,3312.0,2736.0,2299.0,2580.0,2288.0,-0.02,9.49,6.15,0.78,0.4,-0.19,s
3824.0,962.0,2925.0,3307.0,2731.0,2297.0,2559.0,2288.0,-0.42,9.26,5.13,0.66,0.56,-0.27,s
3836.0,959.0,2939.0,3312.0,2737.0,2304.0,2579.0,2282.0,-1.16,9.63,4.85,0.25,0.31,-0.17,s
3821.0,965.0,2928.0,3303.0,2723.0,2301.0,2583.0,2277.0,-1.14,9.64,4.91,-0.09,-0.09,-0.15,s
3814.0,970.0,2938.0,3225.0,2727.0,2289.0,2544.0,2226.0,-1.18,9.31,6.04,-0.49,-0.0,0.05,s
3835.0,957.0,2927.0,3091.0,2733.0,2279.0,2529.0,2154.0,-0.72,9.8,6.72,-0.37,0.09,-0.05,s
3872.0,949.0,2947.0,2862.0,2705.0,2295.0,2559.0,2118.0,-0.25,9.31,7.75,-0.44,-0.47,-0.35,s
3920.0,931.0,2954.0,2667.0,2699.0,2378.0,2608.0,2144.0,-0.54,9.39,7.72,-0.1,-0.24,-0.38,s
3935.0,917.0,2966.0,2624.0,2698.0,2428.0,2620.0,2145.0,-0.96,9.69,7.25,-0.11,-0.25,-0.21,s
3952.0,921.0,3024.0,2607.0,2706.0,2461.0,2637.0,2121.0,-0.77,9.22,7.19,0.02,-0.18,-0.17,s
3925.0,914.0,3070.0,2620.0,2711.0,2471.0,2657.0,2096.0,-0.69,9.37,7.1,-0.01,0.01,-0.08,s
3925.0,918.0,3107.0,2659.0,2721.0,2484.0,2673.0,2132.0,-0.49,9.16,7.42,0.16,0.11,-0.18,s
3942.0,929.0,3100.0,2686.0,2704.0,2463.0,2639.0,2169.0,-0.91,9.77,7.13,0.13,0.35,-0.2,s
3957.0,930.0,3071.0,2765.0,2666.0,2401.0,2599.0,2179.0,-1.03,9.56,7.03,0.11,0.62,-0.23,s
3968.0,939.0,3056.0,2853.0,2643.0,2368.0,2559.0,2200.0,-1.52,9.26,7.03,0.05,0.08,-0.2,s
4017.0,947.0,3040.0,2945.0,2618.0,2366.0,2556.0,2224.0,-0.99,9.85,6.67,0.06,-0.02,-0.23,s
4082.0,961.0,3024.0,3024.0,2612.0,2352.0,2580.0,2217.0,-1.11,9.4,6.96,0.03,0.34,-0.1,s
4086.0,944.0,3002.0,3089.0,2613.0,2352.0,2586.0,2224.0,-1.03,9.62,6.67,0.01,-0.09,-0.17,s
4095.0,937.0,3009.0,3112.0,2615.0,2347.0,2582.0,2224.0,-1.06,9.44,6.83,0.02,0.03,-0.17,s
4067.0,939.0,2994.0,3101.0,2619.0,2334.0,2559.0,2225.0,-1.08,9.61,6.69,-0.07,0.04,-0.13,s
4087.0,944.0,3016.0,3054.0,2631.0,2318.0,2553.0,2205.0,-1.12,9.24,7.11,-0.06,-0.19,-0.16,s
4085.0,954.0,3021.0,3024.0,2640.0,2311.0,2545.0,2177.0,-1.1,9.31,7.26,0.01,-0.06,-0.19,s
4094.0,943.0,3037.0,2991.0,2651.0,2317.0,2546.0,2169.0,-1.13,9.55,6.95,0.05,-0.05,-0.18,s
4078.0,944.0,3034.0,2953.0,2662.0,2337.0,2559.0,2142.0,-1.32,9.38,7.18,0.1,-0.15,-0.19,s
4076.0,945.0,3047.0,2911.0,2672.0,2375.0,2604.0,2142.0,-1.13,9.37,6.83,0.17,-0.34,-0.22,s
4063.0,941.0,3118.0,2893.0,2662.0,2415.0,2624.0,2153.0,-1.03,9.39,6.98,0.11,-0.33,-0.13,s
4079.0,928.0,3175.0,2864.0,2672.0,2441.0,2649.0,2160.0,-1.13,9.42,6.89,0.13,-0.25,-0.18,s
4061.0,916.0,3216.0,2832.0,2674.0,2457.0,2662.0,2146.0,-1.11,9.47,6.78,-0.05,-0.36,-0.06,s
4056.0,926.0,3234.0,2855.0,2687.0,2465.0,2672.0,2143.0,-1.14,9.92,6.4,0.04,-0.06,-0.18,s
4038.0,927.0,3246.0,2854.0,2686.0,2471.0,2672.0,2161.0,-0.86,9.63,6.89,0.03,-0.05,-0.2,s
4043.0,913.0,3251.0,2853.0,2689.0,2480.0,2672.0,2165.0,-0.74,9.39,7.07,0.0,-0.02,-0.2,s
4031.0,914.0,3279.0,2864.0,2701.0,2481.0,2677.0,2167.0,-1.05,9.49,6.72,0.02,0.05,-0.18,s
4057.0,923.0,3277.0,2864.0,2698.0,2483.0,2674.0,2165.0,-1.16,9.39,6.97,0.06,-0.05,-0.2,s
4034.0,923.0,3280.0,2868.0,2704.0,2486.0,2672.0,2165.0,-0.84,9.36,6.96,0.13,-0.21,-0.34,s
4019.0,916.0,3290.0,2872.0,2709.0,2489.0,2676.0,2165.0,-1.26,9.41,6.8,0.09,0.03,-0.23,s
4036.0,906.0,3305.0,2855.0,2711.0,2487.0,2677.0,2166.0,-1.45,9.39,6.75,-0.02,-0.09,-0.2,s
4016.0,919.0,3295.0,2875.0,2720.0,2493.0,2677.0,2169.0,-1.35,9.51,6.35,-0.09,-0.09,-0.16,s
4031.0,921.0,3303.0,2871.0,2722.0,2503.0,2688.0,2165.0,-1.37,9.53,6.96,-0.08,-0.06,-0.12,s
4001.0,919.0,3299.0,2854.0,2715.0,2499.0,2686.0,2141.0,-1.23,9.51,7.06,-0.12,-0.15,-0.04,s
4015.0,926.0,3308.0,2838.0,2717.0,2505.0,2685.0,2149.0,-0.74,9.4,7.2,-0.03,-0.04,-0.08,s
4013.0,931.0,3308.0,2842.0,2722.0,2501.0,2693.0,2173.0,-0.87,9.53,6.98,0.07,-0.05,-0.23,s
4017.0,925.0,3295.0,2848.0,2698.0,2478.0,2667.0,2187.0,-0.9,9.03,7.2,-0.02,0.07,-0.18,s
4051.0,931.0,3293.0,2905.0,2672.0,2425.0,2640.0,2209.0,-1.61,9.79,7.15,0.13,0.35,-0.18,s
4095.0,941.0,3271.0,2999.0,2657.0,2397.0,2614.0,2204.0,-1.5,9.17,6.85,0.13,0.27,-0.07,s
4095.0,944.0,3221.0,3081.0,2643.0,2375.0,2593.0,2214.0,-1.19,9.73,6.6,0.12,0.14,-0.16,s
4095.0,961.0,3166.0,3115.0,2645.0,2352.0,2587.0,2224.0,-1.11,9.07,6.66,-0.01,0.19,-0.19,s
4095.0,949.0,3160.0,3135.0,2649.0,2353.0,2592.0,2238.0,-1.31,9.63,6.56,-0.07,0.04,-0.14,s
4095.0,965.0,3152.0,3142.0,2647.0,2346.0,2592.0,2234.0,-1.02,9.2,7.0,-0.04,-0.05,-0.15,s
4095.0,969.0,3154.0,3152.0,2655.0,2353.0,2600.0,2238.0,-1.24,9.58,6.98,-0.01,-0.05,-0.12,s
4095.0,958.0,3145.0,3155.0,2653.0,2353.0,2599.0,2242.0,-1.15,9.46,6.93,0.04,-0.09,-0.15,s
4095.0,963.0,3155.0,3147.0,2658.0,2351.0,2594.0,2247.0,-1.05,9.4,6.68,-0.14,-0.16,-0.14,s
4095.0,954.0,3177.0,3135.0,2669.0,2352.0,2593.0,2228.0,-1.22,9.49,6.95,-0.14,-0.15,-0.14,s
4095.0,954.0,3184.0,3121.0,2663.0,2354.0,2624.0,2209.0,-1.18,9.46,7.21,-0.09,0.07,-0.12,s
4095.0,944.0,3195.0,3092.0,2666.0,2384.0,2646.0,2181.0,-1.07,9.44,7.03,-0.04,0.02,-0.15,s
4095.0,947.0,3219.0,3067.0,2663.0,2416.0,2646.0,2144.0,-0.91,9.23,7.23,-0.05,0.07,-0.13,s
4095.0,941.0,3245.0,3038.0,2668.0,2431.0,2660.0,2130.0,-1.13,9.41,6.99,0.01,-0.03,-0.15,s
4095.0,933.0,3254.0,3021.0,2657.0,2441.0,2669.0,2176.0,-1.02,9.31,7.15,0.02,-0.05,-0.12,s
4095.0,931.0,3273.0,3024.0,2646.0,2459.0,2672.0,2169.0,-0.82,9.69,7.04,-0.02,-0.09,-0.07,s
4080.0,934.0,3266.0,3010.0,2660.0,2485.0,2682.0,2171.0,-0.86,9.17,7.56,0.04,-0.17,-0.15,s
4071.0,913.0,3286.0,2993.0,2672.0,2506.0,2688.0,2172.0,-0.83,9.46,7.14,0.06,-0.07,-0.17,s
4062.0,927.0,3293.0,3001.0,2675.0,2514.0,2698.0,2181.0,-0.98,9.4,7.05,0.07,0.05,-0.14,s
4058.0,915.0,3290.0,2999.0,2683.0,2515.0,2699.0,2192.0,-0.81,9.42,7.0,0.03,-0.05,-0.18,s
4043.0,928.0,3274.0,2997.0,2676.0,2497.0,2672.0,2192.0,-0.82,9.31,7.1,-0.05,-0.02,-0.15,s
4095.0,927.0,3267.0,3043.0,2665.0,2452.0,2627.0,2214.0,-0.98,9.47,7.13,-0.07,0.02,-0.09,s
4095.0,937.0,3270.0,3095.0,2645.0,2427.0,2608.0,2214.0,-0.96,9.21,7.21,0.07,0.07,-0.18,s
4095.0,949.0,3255.0,3172.0,2639.0,2405.0,2601.0,2225.0,-1.0,9.4,7.12,0.02,0.0,-0.18,s
4095.0,959.0,3231.0,3232.0,2643.0,2387.0,2582.0,2237.0,-1.1,9.6,7.04,0.03,-0.05,-0.15,s
4095.0,951.0,3215.0,3248.0,2635.0,2384.0,2587.0,2245.0,-0.93,9.5,7.07,-0.09,0.0,-0.11,s
4095.0,951.0,3202.0,3248.0,2634.0,2391.0,2603.0,2246.0,-1.0,9.37,7.11,-0.06,-0.02,-0.19,s
4095.0,960.0,3214.0,3254.0,2641.0,2401.0,2610.0,2251.0,-1.05,9.32,7.3,-0.02,-0.01,-0.16,s
4095.0,960.0,3216.0,3248.0,2653.0,2409.0,2613.0,2247.0,-1.02,9.13,7.44,-0.01,-0.06,-0.16,s
4095.0,950.0,3217.0,3216.0,2661.0,2411.0,2618.0,2244.0,-0.97,9.39,7.23,-0.0,-0.07,-0.16,s
4095.0,954.0,3217.0,3174.0,2654.0,2399.0,2615.0,2221.0,-0.89,9.06,7.47,-0.01,-0.06,-0.21,s
4095.0,961.0,3235.0,3141.0,2670.0,2416.0,2635.0,2195.0,-0.85,9.15,7.37,0.09,-0.02,-0.32,s
4095.0,957.0,3248.0,3120.0,2682.0,2448.0,2640.0,2175.0,-1.05,9.37,7.13,0.17,0.26,-0.29,s
4095.0,944.0,3262.0,3094.0,2679.0,2469.0,2667.0,2160.0,-1.27,9.44,6.91,0.03,0.16,-0.2,s
4095.0,941.0,3223.0,3067.0,2669.0,2480.0,2672.0,2158.0,-1.2,9.4,7.1,-0.03,-0.12,-0.18,s
4095.0,938.0,3186.0,3058.0,2677.0,2501.0,2687.0,2150.0,-1.43,9.21,7.49,0.02,0.04,-0.14,s
4095.0,922.0,3184.0,3046.0,2678.0,2498.0,2704.0,2158.0,-1.3,9.35,7.33,0.04,0.01,-0.11,s
4095.0,924.0,3173.0,3045.0,2682.0,2505.0,2704.0,2162.0,-1.05,9.59,7.05,-0.04,-0.09,-0.15,s
4095.0,937.0,3165.0,3035.0,2686.0,2505.0,2709.0,2170.0,-1.24,9.49,7.33,-0.03,-0.03,-0.2,s
4095.0,925.0,3169.0,3050.0,2688.0,2500.0,2700.0,2171.0,-1.33,9.11,7.49,-0.01,-0.15,-0.24,s
4095.0,932.0,3174.0,3055.0,2686.0,2481.0,2683.0,2191.0,-0.95,9.05,7.4,0.07,-0.28,-0.24,s
4095.0,932.0,3177.0,3120.0,2663.0,2451.0,2624.0,2213.0,-1.42,9.37,7.41,0.08,-0.15,-0.21,s
4095.0,951.0,3210.0,3177.0,2638.0,2406.0,2559.0,2226.0,-1.66,9.39,7.18,0.05,0.1,-0.25,s
4095.0,957.0,3199.0,3246.0,2625.0,2368.0,2555.0,2247.0,-1.65,9.54,7.23,0.01,0.11,-0.18,s
4095.0,958.0,3169.0,3301.0,2621.0,2374.0,2593.0,2275.0,-1.37,9.32,7.12,-0.09,0.02,-0.1,s
4095.0,948.0,3124.0,3329.0,2629.0,2384.0,2614.0,2299.0,-1.23,9.15,7.2,-0.14,-0.02,-0.13,s
4095.0,958.0,3121.0,3344.0,2640.0,2399.0,2624.0,2303.0,-1.26,9.23,7.4,-0.11,0.06,-0.14,s
4095.0,951.0,3116.0,3344.0,2646.0,2405.0,2631.0,2307.0,-1.32,9.15,7.66,-0.07,0.04,-0.12,s
4095.0,955.0,3120.0,3343.0,2650.0,2414.0,2633.0,2307.0,-1.21,9.38,7.59,0.01,-0.02,-0.13,s
4095.0,955.0,3133.0,3326.0,2645.0,2389.0,2608.0,2283.0,-1.19,9.28,7.47,-0.05,0.01,-0.16,s
4095.0,957.0,3146.0,3280.0,2627.0,2373.0,2579.0,2242.0,-1.46,9.27,7.5,0.05,-0.03,-0.21,s
4095.0,968.0,3162.0,3243.0,2640.0,2353.0,2585.0,2202.0,-1.38,9.1,7.48,-0.05,-0.08,-0.13,s
4095.0,962.0,3184.0,3209.0,2653.0,2366.0,2603.0,2167.0,-1.38,9.31,7.47,0.02,-0.1,-0.12,s
4095.0,961.0,3174.0,3184.0,2659.0,2387.0,2611.0,2160.0,-0.9,9.06,7.64,-0.05,-0.01,-0.05,s
4095.0,948.0,3193.0,3152.0,2662.0,2407.0,2638.0,2160.0,-1.17,9.46,7.13,-0.06,0.03,-0.15,s
4095.0,944.0,3207.0,3136.0,2672.0,2411.0,2639.0,2157.0,-1.27,9.36,7.45,-0.05,-0.08,-0.2,s
4095.0,944.0,3201.0,3113.0,2669.0,2433.0,2659.0,2163.0,-1.08,9.11,7.79,-0.07,-0.05,-0.16,s
4095.0,944.0,3216.0,3095.0,2677.0,2448.0,2670.0,2159.0,-1.13,8.98,7.69,0.04,0.0,-0.16,s
4095.0,924.0,3218.0,3081.0,2675.0,2453.0,2672.0,2160.0,-1.13,9.23,7.34,0.04,-0.02,-0.16,s
4095.0,924.0,3230.0,3089.0,2689.0,2464.0,2687.0,2160.0,-1.17,9.26,7.69,-0.12,-0.15,-0.12,s
4095.0,929.0,3213.0,3105.0,2693.0,2473.0,2688.0,2174.0,-1.04,9.19,8.13,0.01,-0.1,-0.25,s
4095.0,935.0,3211.0,3142.0,2691.0,2466.0,2662.0,2193.0,-1.11,9.07,8.09,0.01,0.01,-0.34,s
4095.0,950.0,3203.0,3211.0,2672.0,2425.0,2553.0,2220.0,-1.45,9.02,7.93,0.13,0.11,-0.45,s
4095.0,960.0,3195.0,3279.0,2649.0,2406.0,2533.0,2224.0,-1.92,9.05,7.64,0.15,0.16,-0.17,s
4095.0,960.0,3145.0,3299.0,2624.0,2385.0,2543.0,2246.0,-1.73,9.22,7.24,0.26,0.2,-0.13,s
4095.0,945.0,3120.0,3337.0,2624.0,2379.0,2559.0,2261.0,-1.58,9.53,7.21,0.06,-0.17,0.03,s
4095.0,950.0,3088.0,3351.0,2624.0,2385.0,2603.0,2293.0,-0.95,9.26,7.4,0.01,-0.13,-0.03,s
4095.0,959.0,3054.0,3341.0,2630.0,2402.0,2618.0,2309.0,-1.18,9.09,7.71,0.01,0.14,-0.1,s
