hall_1,hall_2,hall_3,flex_t,flex_i,flex_m,flex_r,flex_p,accel_x,accel_y,accel_z,gyro_x,gyro_y,gyro_z,sign
3187.0,3152.0,3248.0,4095.0,3413.0,3408.0,2707.0,3026.0,1.86,10.24,-0.14,-0.07,-0.24,-0.09,t
3152.0,3114.0,3200.0,4095.0,3367.0,3361.0,2687.0,2999.0,2.73,9.07,0.1,-0.55,-0.1,0.2,t
3164.0,3120.0,3205.0,4095.0,3383.0,3379.0,2706.0,3019.0,2.21,8.44,0.75,-0.14,-0.01,-0.43,t
3181.0,3147.0,3242.0,4095.0,3400.0,3408.0,2746.0,3053.0,0.72,8.96,0.05,-0.21,-0.22,-0.5,t
3153.0,3121.0,3231.0,4095.0,3376.0,3383.0,2745.0,3039.0,1.19,8.77,0.25,-0.09,-0.47,-0.06,t
3110.0,3091.0,3177.0,4095.0,3315.0,3330.0,2711.0,2992.0,0.58,8.98,0.68,-0.31,-0.49,-0.25,t
3088.0,3045.0,3139.0,4095.0,3312.0,3327.0,2705.0,2955.0,1.87,9.99,0.61,0.29,-0.61,-0.08,t
3113.0,3047.0,3148.0,4095.0,3327.0,3324.0,2699.0,2911.0,2.35,9.31,1.3,-0.02,-0.38,-0.14,t
3200.0,3159.0,3236.0,4095.0,3443.0,3520.0,2781.0,3005.0,2.32,9.77,1.27,0.26,-0.01,-0.44,t
3231.0,3124.0,3220.0,4095.0,3488.0,3523.0,2739.0,2979.0,1.0,10.52,0.25,0.46,0.05,-0.5,t
3326.0,3232.0,3330.0,4095.0,3600.0,3621.0,2834.0,3089.0,0.68,9.55,-0.26,0.27,-0.03,-0.44,t
3221.0,3130.0,3225.0,4095.0,3487.0,3501.0,2739.0,2995.0,-0.04,8.75,-0.97,0.14,-0.12,0.01,t
3216.0,3100.0,3199.0,4095.0,3473.0,3458.0,2710.0,2973.0,-0.56,9.47,-2.03,-0.17,0.09,0.26,t
3215.0,3085.0,3177.0,4095.0,3484.0,3438.0,2695.0,2959.0,0.24,9.45,-0.99,-0.31,0.11,0.27,t
3255.0,3163.0,3259.0,4095.0,3519.0,3506.0,2782.0,3045.0,0.89,10.23,0.01,-0.31,-0.04,0.34,t
3273.0,3150.0,3249.0,4095.0,3543.0,3506.0,2774.0,3047.0,0.99,9.85,0.71,-0.28,-0.16,-0.04,t
3248.0,3277.0,3367.0,4095.0,3520.0,3634.0,2897.0,3166.0,0.94,9.79,0.83,0.04,-0.24,-0.06,t
3230.0,3243.0,3343.0,4095.0,3513.0,3661.0,2870.0,3177.0,0.85,9.17,-0.41,0.01,-0.01,-0.1,t
3136.0,3227.0,3304.0,4095.0,3375.0,3541.0,2870.0,3127.0,1.04,9.66,-0.85,-0.24,-0.17,0.04,t
3163.0,3220.0,3318.0,4095.0,3415.0,3575.0,3088.0,3142.0,1.49,9.48,0.04,-0.21,0.35,0.03,t
3183.0,3261.0,3344.0,4095.0,3435.0,3618.0,3123.0,3169.0,1.33,10.25,0.51,-0.08,0.06,-0.11,t
3099.0,3190.0,3274.0,4095.0,3353.0,3535.0,3108.0,3116.0,0.62,9.67,0.76,0.21,0.22,-0.31,t
3099.0,3191.0,3283.0,4095.0,3347.0,3542.0,3088.0,3119.0,0.15,9.06,0.84,0.36,-0.25,0.1,t
3089.0,3143.0,3233.0,4095.0,3327.0,3475.0,2800.0,3023.0,-0.39,8.77,1.51,1.35,-0.03,-0.01,t
3056.0,3127.0,3216.0,4095.0,3299.0,3443.0,2813.0,3003.0,-0.57,8.43,-1.03,1.98,0.4,0.88,t
3056.0,3139.0,3225.0,4095.0,3291.0,3421.0,2796.0,3000.0,5.03,10.81,-3.31,1.01,0.2,0.23,t
3020.0,3071.0,3169.0,4095.0,3229.0,3267.0,2688.0,2941.0,6.11,12.28,-3.95,-0.18,0.55,-2.18,t
3066.0,3030.0,3120.0,4069.0,3278.0,3182.0,2621.0,2912.0,-1.58,7.7,-2.58,-0.15,0.52,-0.8,t
3081.0,3061.0,3152.0,4080.0,3278.0,3199.0,2663.0,2954.0,1.06,9.18,-2.89,-0.46,-0.39,-0.2,t
3050.0,3020.0,3120.0,4095.0,3248.0,3196.0,2631.0,2957.0,-2.39,7.65,-1.48,-0.37,-0.07,-0.33,t
3047.0,2899.0,2979.0,4095.0,3205.0,3071.0,2515.0,2831.0,-1.09,10.19,-1.96,0.11,0.42,-0.25,t
3126.0,3022.0,3110.0,4095.0,3257.0,3202.0,2725.0,2962.0,-1.29,9.71,-2.87,0.74,0.57,0.27,t
3138.0,3158.0,3249.0,4095.0,3310.0,3323.0,2867.0,3093.0,-0.14,9.5,-2.99,-0.06,0.72,-0.02,t
3139.0,2999.0,3099.0,4095.0,3325.0,3184.0,2624.0,2974.0,-0.14,9.31,-2.78,-0.55,0.65,0.62,t
3151.0,3021.0,3118.0,4095.0,3376.0,3231.0,2666.0,2999.0,2.37,9.46,-1.52,-0.23,0.86,0.22,t
3198.0,3056.0,3152.0,4095.0,3463.0,3281.0,2681.0,3029.0,1.43,11.51,-2.15,-0.84,1.51,-0.99,t
3181.0,3045.0,3153.0,4095.0,3597.0,3280.0,2705.0,3002.0,-1.02,8.25,-0.29,-0.99,0.83,-0.06,t
3135.0,2994.0,3089.0,4003.0,3605.0,3237.0,2661.0,2930.0,-0.19,11.57,-1.4,-1.25,0.33,-0.5,t
3149.0,2996.0,3097.0,4095.0,3569.0,3314.0,2705.0,2960.0,-2.45,8.54,-0.29,-2.1,0.64,-0.31,t
3171.0,3040.0,3136.0,4095.0,3471.0,3338.0,2754.0,2987.0,0.74,8.92,1.17,-1.15,0.03,-0.08,t
3190.0,3029.0,3136.0,4095.0,3461.0,3349.0,2978.0,2998.0,0.22,9.4,1.76,-0.7,0.09,-0.02,t
3197.0,3067.0,3165.0,4095.0,3453.0,3444.0,2815.0,3056.0,0.3,8.84,1.65,-0.77,0.55,-0.23,t
3201.0,3098.0,3185.0,4095.0,3423.0,3546.0,2807.0,3121.0,-0.45,9.29,2.95,-0.64,-0.12,-0.18,t
3196.0,3126.0,3216.0,4095.0,3435.0,3567.0,2823.0,3093.0,-2.03,8.8,2.24,-0.96,0.38,0.28,t
3206.0,3315.0,3401.0,4095.0,3474.0,3847.0,3023.0,3418.0,-0.84,8.76,2.95,-1.57,1.0,0.26,t
3257.0,3338.0,3405.0,4095.0,3481.0,3867.0,3010.0,3578.0,-0.2,7.93,4.2,-1.06,0.52,0.29,t
3217.0,3207.0,3263.0,4095.0,3527.0,3703.0,2827.0,3447.0,-1.65,8.54,4.33,-0.98,0.52,-0.02,t
3222.0,3203.0,3278.0,4095.0,3563.0,3696.0,2762.0,3291.0,-0.57,7.85,5.28,-0.37,-0.15,0.46,t
3223.0,3151.0,3234.0,4095.0,3577.0,3583.0,2640.0,3095.0,-0.87,8.22,4.79,-0.51,0.36,0.32,t
3205.0,3141.0,3231.0,4095.0,3647.0,3479.0,2640.0,2995.0,0.21,8.16,5.13,-0.59,-0.36,0.47,t
3184.0,3138.0,3235.0,4095.0,3766.0,3353.0,2736.0,2975.0,0.78,7.55,5.41,-0.53,0.04,0.14,t
3143.0,3137.0,3219.0,4095.0,3952.0,3374.0,2768.0,3044.0,0.02,7.73,5.95,-0.45,-0.05,0.14,t
3107.0,3175.0,3254.0,4049.0,4095.0,3562.0,3031.0,3220.0,-0.45,7.5,5.68,-0.47,-0.18,0.1,t
3057.0,3156.0,3274.0,3805.0,4095.0,3659.0,3338.0,3347.0,0.61,7.28,5.99,-0.86,-0.34,-0.01,t
3031.0,3162.0,3281.0,3396.0,4095.0,3648.0,3301.0,3446.0,0.1,7.23,6.61,-0.16,-0.05,0.11,t
3015.0,3142.0,3275.0,3065.0,3949.0,3618.0,3259.0,3408.0,0.81,7.0,6.4,0.19,-0.39,0.3,t
3175.0,3097.0,3231.0,2896.0,3862.0,3707.0,3262.0,3378.0,0.05,7.33,5.53,0.04,-0.14,0.18,t
3248.0,3161.0,3305.0,2865.0,3878.0,3906.0,3466.0,3533.0,1.09,7.18,6.25,-0.05,-0.27,-0.09,t
3289.0,3127.0,3278.0,2858.0,3851.0,3775.0,3474.0,3541.0,0.95,7.37,5.78,0.17,-0.05,-0.06,t
3370.0,3108.0,3287.0,2751.0,3809.0,3583.0,3577.0,3671.0,0.72,6.99,5.8,0.2,-0.31,0.02,t
3422.0,3008.0,3218.0,2697.0,3696.0,3501.0,3558.0,3489.0,1.43,7.06,5.27,0.59,-0.39,0.02,t
3622.0,2933.0,3175.0,2706.0,3605.0,3570.0,3231.0,3210.0,1.29,8.17,5.43,0.09,0.28,0.23,t
3457.0,2933.0,3198.0,2647.0,3537.0,3494.0,3088.0,3169.0,1.22,8.38,5.03,0.4,0.52,0.1,t
3374.0,2939.0,3199.0,2661.0,3552.0,3376.0,2954.0,3143.0,1.19,7.44,5.75,0.13,0.2,-0.02,t
3408.0,2951.0,3212.0,2714.0,3582.0,3312.0,2832.0,3152.0,0.5,8.24,5.1,0.06,0.36,0.02,t
3708.0,2959.0,3205.0,2745.0,3559.0,3279.0,2799.0,3262.0,1.04,8.13,5.49,-0.03,-0.03,-0.05,t
3451.0,2964.0,3216.0,2814.0,3619.0,3204.0,2768.0,3193.0,0.26,8.02,5.02,-0.11,-0.33,-0.18,t
3189.0,2978.0,3216.0,2900.0,3726.0,3149.0,2767.0,3151.0,0.87,7.49,5.39,-0.02,-0.09,-0.06,t
3136.0,2969.0,3210.0,2966.0,3738.0,3117.0,2749.0,3164.0,0.72,8.15,4.79,-0.07,0.08,-0.28,t
3101.0,2978.0,3214.0,3005.0,3755.0,3090.0,2736.0,3135.0,1.05,7.8,5.54,0.07,-0.2,0.04,t
3093.0,2963.0,3189.0,3063.0,3759.0,3071.0,2722.0,3110.0,0.75,7.65,5.1,0.03,-0.01,-0.19,t
3071.0,2960.0,3184.0,3094.0,3723.0,3035.0,2700.0,3098.0,0.35,8.32,4.65,0.06,0.07,-0.16,t
3069.0,2975.0,3179.0,3191.0,3695.0,3044.0,2681.0,3083.0,0.92,7.56,5.29,-0.13,-0.08,0.01,t
3071.0,2975.0,3173.0,3227.0,3633.0,3046.0,2674.0,3088.0,1.47,7.91,5.09,-0.09,0.07,-0.14,t
3070.0,2975.0,3174.0,3299.0,3600.0,3047.0,2672.0,3090.0,0.91,7.81,5.77,0.15,-0.37,0.05,t
3071.0,2986.0,3161.0,3376.0,3583.0,3071.0,2687.0,3105.0,0.15,7.63,4.98,-0.16,0.02,-0.06,t
3068.0,2999.0,3165.0,3472.0,3622.0,3105.0,2694.0,3120.0,1.26,8.05,5.14,0.07,0.13,0.08,t
3068.0,3042.0,3171.0,3679.0,3652.0,3141.0,2723.0,3139.0,1.35,8.0,5.21,-0.15,-0.17,-0.07,t
3095.0,3059.0,3158.0,3868.0,3713.0,3191.0,2775.0,3145.0,0.71,7.61,5.24,-0.48,0.55,-0.47,t
3102.0,3056.0,3163.0,4069.0,3827.0,3207.0,2822.0,3136.0,1.3,8.24,6.45,-0.18,-0.06,-0.33,t
3127.0,3056.0,3162.0,4095.0,3994.0,3235.0,2885.0,3136.0,0.42,7.71,5.64,-0.01,0.26,-0.19,t
3145.0,3056.0,3155.0,4095.0,4058.0,3233.0,2882.0,3152.0,0.38,7.47,5.14,-0.04,0.03,-0.06,t
3152.0,3056.0,3174.0,4095.0,4082.0,3234.0,2926.0,3172.0,0.15,7.85,4.72,-0.19,0.26,-0.02,t
3194.0,3057.0,3181.0,4095.0,4095.0,3243.0,3023.0,3200.0,-0.12,7.1,5.74,-0.36,0.34,-0.08,t
3191.0,3066.0,3178.0,4095.0,4095.0,3275.0,3059.0,3214.0,-0.81,7.63,5.5,-0.14,0.18,-0.05,t
3184.0,3067.0,3182.0,4095.0,4095.0,3315.0,3382.0,3217.0,-1.47,7.22,5.63,-0.4,0.29,-0.07,t
3181.0,3059.0,3178.0,4095.0,4095.0,3354.0,3230.0,3216.0,0.92,7.58,6.02,-0.19,0.03,-0.05,t
3178.0,3063.0,3171.0,4095.0,4095.0,3376.0,2960.0,3218.0,-0.44,6.77,6.31,-0.37,-0.37,-0.15,t
3184.0,3071.0,3184.0,4095.0,4095.0,3414.0,3006.0,3209.0,-0.11,7.0,6.33,0.11,0.06,-0.06,t
3183.0,3086.0,3189.0,3731.0,4095.0,3567.0,2973.0,3166.0,1.11,7.37,6.34,-0.08,-0.52,-0.2,t
3195.0,3083.0,3195.0,3193.0,4095.0,3537.0,2967.0,3161.0,-1.15,7.51,6.02,0.57,0.01,0.24,t
3185.0,3069.0,3183.0,3235.0,4095.0,3520.0,2959.0,3167.0,0.6,7.52,5.93,0.08,0.02,0.12,t
3202.0,3062.0,3175.0,3300.0,3931.0,3437.0,2933.0,3170.0,-0.57,7.58,5.73,0.37,-0.23,0.16,t
3169.0,3056.0,3165.0,3583.0,3795.0,3303.0,2881.0,3173.0,2.35,7.72,6.09,0.27,-0.13,0.02,t
3170.0,3070.0,3181.0,3741.0,3715.0,3251.0,2883.0,3186.0,-0.07,7.37,5.7,0.05,-0.3,-0.01,t
3158.0,3062.0,3179.0,3811.0,3567.0,3228.0,2880.0,3189.0,0.24,7.86,4.71,0.19,-0.19,-0.14,t
3167.0,3093.0,3200.0,3919.0,3525.0,3232.0,2884.0,3216.0,0.71,7.85,5.61,0.06,0.01,-0.1,t
3171.0,3120.0,3231.0,3950.0,3501.0,3230.0,2892.0,3230.0,-0.39,7.72,5.36,0.1,-0.04,0.01,t
3159.0,3117.0,3239.0,3936.0,3478.0,3216.0,2879.0,3211.0,0.76,7.83,5.15,0.09,-0.21,-0.03,t
3170.0,3140.0,3248.0,3973.0,3483.0,3249.0,2897.0,3210.0,0.67,7.78,5.29,0.11,-0.54,0.07,t
3178.0,3147.0,3263.0,4095.0,3527.0,3285.0,2885.0,3166.0,0.4,7.79,5.04,-0.08,-0.16,0.07,t
3159.0,3135.0,3248.0,4095.0,3509.0,3309.0,3024.0,3153.0,1.28,7.89,5.24,0.05,-0.34,0.15,t
3174.0,3134.0,3243.0,4095.0,3413.0,3382.0,2939.0,3168.0,0.96,7.97,4.96,-0.01,-0.16,0.05,t
3178.0,3136.0,3237.0,4095.0,3381.0,3376.0,2793.0,3172.0,0.31,8.01,5.13,0.1,0.05,0.05,t
3175.0,3136.0,3243.0,4095.0,3357.0,3308.0,2736.0,3177.0,0.22,7.83,5.0,0.18,-0.31,0.3,t
3188.0,3151.0,3256.0,4095.0,3355.0,3286.0,2732.0,3170.0,1.44,7.99,4.64,0.4,-0.38,0.51,t
3183.0,3142.0,3251.0,4095.0,3344.0,3270.0,2779.0,3146.0,2.18,8.82,4.27,0.15,0.01,0.4,t
3179.0,3143.0,3248.0,4095.0,3378.0,3280.0,2832.0,3152.0,1.77,7.47,4.24,-0.48,-0.08,0.27,t
3166.0,3141.0,3247.0,3967.0,3455.0,3345.0,2957.0,3117.0,2.42,8.27,4.58,-0.28,0.54,0.5,t
3194.0,3138.0,3253.0,3798.0,3614.0,3410.0,3043.0,3092.0,1.43,6.51,6.65,0.0,-0.11,0.63,t
3184.0,3131.0,3238.0,3979.0,3637.0,3442.0,2982.0,3059.0,0.64,7.93,4.59,0.18,0.56,0.16,t
3181.0,3113.0,3215.0,4095.0,3657.0,3440.0,2971.0,3088.0,1.61,6.35,5.47,1.03,-0.74,0.6,t
3181.0,3150.0,3251.0,4095.0,3548.0,3378.0,2875.0,3167.0,3.76,6.38,4.48,3.06,-1.68,1.05,t
3175.0,3264.0,3362.0,4095.0,3454.0,3403.0,2994.0,3334.0,7.54,12.03,0.66,2.78,-0.37,0.5,t
3183.0,3247.0,3345.0,4095.0,3445.0,3310.0,2795.0,3264.0,4.13,9.31,0.68,1.04,-0.19,-0.09,t
3183.0,3198.0,3310.0,4095.0,3451.0,3248.0,2725.0,3233.0,4.19,9.48,-0.1,-0.38,-0.16,-0.16,t
3186.0,3182.0,3287.0,4095.0,3449.0,3251.0,2704.0,3229.0,4.15,8.88,0.5,0.76,-0.15,-0.06,t
3184.0,3241.0,3335.0,4095.0,3451.0,3321.0,2759.0,3267.0,4.86,10.18,-1.36,-0.11,-0.23,-0.19,t
3187.0,3226.0,3340.0,4095.0,3462.0,3373.0,2770.0,3203.0,3.58,8.16,0.92,0.11,-0.6,0.13,t
3175.0,3217.0,3322.0,4095.0,3487.0,3408.0,2838.0,3230.0,2.95,9.06,1.16,-0.54,0.57,-0.22,t
3175.0,3255.0,3361.0,4095.0,3558.0,3499.0,2967.0,3300.0,4.5,10.96,0.27,-0.25,0.44,-0.06,t
3171.0,3182.0,3268.0,4095.0,3633.0,3427.0,2949.0,3248.0,1.89,7.09,1.11,-0.1,0.22,0.01,t
3171.0,3092.0,3191.0,4095.0,3635.0,3359.0,2896.0,3190.0,4.7,9.53,-0.34,-0.45,0.47,-0.51,t
3165.0,3090.0,3194.0,4095.0,3653.0,3370.0,2923.0,3217.0,2.6,7.32,1.14,-0.67,0.34,-0.19,t
3180.0,3102.0,3205.0,4095.0,3602.0,3315.0,2795.0,3147.0,3.61,9.17,1.87,-0.67,0.55,-0.21,t
3179.0,2992.0,3103.0,4095.0,3583.0,3194.0,2619.0,2950.0,3.99,9.12,3.43,-0.83,-0.04,0.3,t
3179.0,2992.0,3100.0,4095.0,3599.0,3186.0,2587.0,2911.0,2.15,8.22,2.71,-1.42,0.69,-0.04,t
3177.0,3173.0,3277.0,4095.0,3583.0,3353.0,2753.0,3123.0,2.1,7.3,3.64,-1.52,0.6,-0.03,t
3171.0,3179.0,3287.0,4095.0,3562.0,3344.0,2784.0,3201.0,3.09,8.76,3.98,-1.42,0.51,-0.21,t
3175.0,3136.0,3247.0,4095.0,3550.0,3286.0,2761.0,3181.0,3.45,8.43,5.15,-1.17,0.33,-0.22,t
3171.0,3179.0,3287.0,4095.0,3566.0,3339.0,2813.0,3239.0,2.66,7.4,6.69,-0.54,-0.28,0.05,t
3171.0,3171.0,3283.0,4095.0,3615.0,3356.0,2789.0,3249.0,1.66,7.69,4.95,0.16,0.01,0.31,t
3179.0,3191.0,3310.0,4095.0,3638.0,3389.0,2836.0,3268.0,3.58,7.63,5.01,0.62,0.19,0.28,t
3178.0,3178.0,3278.0,4095.0,3668.0,3396.0,2926.0,3189.0,4.87,8.46,5.47,0.48,0.83,-0.22,t
3174.0,3186.0,3288.0,4095.0,3696.0,3439.0,3120.0,3228.0,3.73,7.01,6.41,0.04,1.5,-0.56,t
3174.0,3177.0,3275.0,4095.0,3698.0,3424.0,3138.0,3258.0,-0.35,7.99,4.73,1.13,1.57,-0.34,t
3171.0,3178.0,3290.0,4095.0,3670.0,3363.0,2941.0,3315.0,1.8,5.6,5.13,2.36,-0.0,0.08,t
3183.0,3277.0,3376.0,4095.0,3611.0,3408.0,2985.0,3478.0,1.26,10.03,2.52,1.79,-0.48,0.1,t
3181.0,3130.0,3232.0,4095.0,3583.0,3259.0,2855.0,3371.0,2.33,10.65,1.7,1.45,-0.61,-0.05,t
3180.0,3228.0,3327.0,4095.0,3605.0,3344.0,2960.0,3472.0,1.05,8.95,2.83,-0.01,-0.97,0.12,t
3184.0,3250.0,3374.0,4095.0,3631.0,3396.0,3003.0,3499.0,2.77,9.21,1.64,0.11,-1.89,0.71,t
3187.0,3248.0,3344.0,4095.0,3635.0,3383.0,2983.0,3423.0,3.68,8.0,1.23,-0.1,-3.29,0.88,t
3169.0,3183.0,3280.0,4095.0,3600.0,3329.0,2951.0,3151.0,3.47,9.75,0.15,-0.11,-2.14,-0.21,t
3152.0,3174.0,3277.0,4095.0,3598.0,3362.0,3215.0,3152.0,4.32,10.32,1.76,0.05,-1.28,-0.17,t
3136.0,3117.0,3223.0,4095.0,3632.0,3355.0,3615.0,3324.0,2.61,9.87,1.09,0.01,-0.16,-0.96,t
3134.0,3163.0,3274.0,4095.0,3761.0,3431.0,3966.0,3407.0,2.16,10.55,0.06,0.26,-0.06,-1.05,t
3126.0,3169.0,3290.0,4095.0,3786.0,3447.0,3940.0,3365.0,1.79,8.16,0.28,0.19,-0.98,-0.46,t
3130.0,3170.0,3280.0,4095.0,3777.0,3301.0,3247.0,3173.0,1.68,9.25,-0.16,0.68,-0.71,0.23,t
3136.0,3216.0,3329.0,4095.0,3781.0,3303.0,2931.0,3213.0,3.59,8.43,-0.03,-0.03,-0.75,0.53,t
3145.0,3225.0,3322.0,3867.0,3733.0,3272.0,2901.0,3163.0,4.28,10.35,-0.66,0.17,-1.03,0.08,t
3169.0,3237.0,3351.0,3469.0,3687.0,3281.0,2903.0,3126.0,2.41,9.48,-0.51,-0.31,-0.53,-0.49,t
3181.0,3227.0,3342.0,3511.0,3720.0,3291.0,2902.0,3120.0,0.49,8.68,0.35,-0.28,-0.14,-0.34,t
3182.0,3202.0,3313.0,3685.0,3743.0,3280.0,2873.0,3112.0,1.75,11.54,-0.59,0.12,-0.49,-0.15,t
3171.0,3206.0,3311.0,3891.0,3732.0,3309.0,2875.0,3191.0,0.04,9.17,-1.07,-0.3,-0.51,-1.08,t
3186.0,3225.0,3338.0,3995.0,3696.0,3349.0,3238.0,3261.0,1.18,9.45,-0.9,-1.33,-1.08,-1.21,t
3230.0,3251.0,3355.0,3953.0,3633.0,3373.0,2985.0,3285.0,1.22,8.5,1.8,-1.55,-1.3,-1.18,t
3101.0,3083.0,3186.0,3851.0,3459.0,3204.0,3280.0,3151.0,0.43,9.79,3.14,-0.31,-0.22,-0.19,t
2962.0,2995.0,3114.0,3837.0,3269.0,3089.0,2761.0,3020.0,0.39,11.04,2.25,-0.33,-0.06,-0.18,t
3062.0,3104.0,3205.0,4095.0,3379.0,3206.0,2815.0,3131.0,0.23,9.05,2.79,0.21,-0.58,0.06,t
3134.0,3175.0,3275.0,4095.0,3461.0,3264.0,2833.0,3181.0,-0.14,9.04,1.2,0.41,-0.09,0.49,t
3035.0,3071.0,3190.0,4095.0,3363.0,3186.0,2799.0,3059.0,1.34,10.1,0.08,1.11,-0.41,0.83,t
3134.0,3142.0,3252.0,4095.0,3470.0,3233.0,2672.0,3105.0,1.62,7.75,1.08,0.64,-0.34,0.46,t
3189.0,3179.0,3286.0,4095.0,3489.0,3279.0,2650.0,3143.0,3.55,12.23,-1.94,0.09,0.43,1.11,t
3184.0,3183.0,3279.0,4095.0,3487.0,3280.0,2642.0,3152.0,-1.19,7.0,0.88,-0.07,0.52,-0.17,t
3183.0,3177.0,3281.0,4095.0,3495.0,3287.0,2638.0,3149.0,0.81,9.55,-0.82,-0.46,0.52,0.96,t
3200.0,3194.0,3292.0,4095.0,3507.0,3339.0,2670.0,3197.0,1.52,8.97,-0.11,-0.39,0.29,0.43,t
3189.0,3191.0,3280.0,4095.0,3531.0,3373.0,2724.0,3328.0,2.21,9.5,1.21,-0.57,0.77,0.73,t
3187.0,3210.0,3293.0,4095.0,3568.0,3407.0,2789.0,3381.0,3.29,10.81,1.1,-0.77,0.73,0.7,t
3184.0,3185.0,3262.0,4095.0,3600.0,3440.0,2885.0,3387.0,2.77,7.69,3.1,-0.97,0.67,0.73,t
3178.0,3191.0,2979.0,4095.0,3632.0,3385.0,3071.0,3632.0,3.36,9.21,2.3,-1.3,1.45,-0.63,t
3179.0,3185.0,2855.0,4095.0,3649.0,3278.0,3026.0,3600.0,3.69,8.81,3.46,0.35,-0.02,0.38,t
3184.0,3181.0,2922.0,4095.0,3684.0,3312.0,2990.0,3515.0,2.16,7.94,2.29,-0.33,0.6,0.08,t
3167.0,3164.0,2954.0,4095.0,3681.0,3337.0,2940.0,3376.0,4.06,8.64,2.66,0.19,-0.13,0.73,t
3170.0,3152.0,3030.0,4095.0,3661.0,3306.0,2861.0,3293.0,2.9,7.81,2.74,-0.08,0.21,0.44,t
3174.0,3150.0,3071.0,4095.0,3630.0,3299.0,2815.0,3235.0,4.43,10.07,2.62,-0.26,0.22,0.49,t
3167.0,3136.0,3088.0,4095.0,3581.0,3285.0,2783.0,3197.0,2.51,7.37,4.13,0.1,0.06,0.13,t
3171.0,3133.0,3071.0,4095.0,3568.0,3285.0,2782.0,3202.0,3.76,9.13,2.22,-0.24,0.55,0.23,t
3166.0,3126.0,3081.0,4095.0,3583.0,3302.0,2796.0,3275.0,4.28,7.85,3.51,0.08,-0.12,0.56,t
3169.0,3136.0,3017.0,4095.0,3606.0,3301.0,2823.0,3489.0,5.02,8.09,3.03,-0.1,0.53,-0.82,t
3181.0,3149.0,3203.0,4095.0,3647.0,3311.0,2864.0,3263.0,3.25,8.36,2.71,0.28,0.06,0.19,t
3169.0,3149.0,3243.0,4095.0,3662.0,3338.0,2889.0,3143.0,4.3,7.65,3.24,-0.11,-0.06,-0.49,t
3165.0,3159.0,3246.0,4095.0,3627.0,3338.0,2853.0,3157.0,3.54,8.68,2.82,0.12,0.17,-0.2,t
3169.0,3156.0,3254.0,4095.0,3565.0,3302.0,2826.0,3184.0,3.16,8.03,3.12,0.06,0.18,-0.13,t
3178.0,3151.0,3253.0,3843.0,3495.0,3281.0,2789.0,3215.0,4.31,11.1,2.42,0.33,0.16,0.03,t
3192.0,3149.0,3254.0,3695.0,3492.0,3291.0,2771.0,3221.0,3.39,8.7,4.04,0.41,0.21,0.13,t
3191.0,3152.0,3255.0,3628.0,3506.0,3293.0,2805.0,3291.0,1.98,8.9,2.86,0.93,0.81,-0.17,t
3200.0,3155.0,3263.0,3757.0,3521.0,3305.0,2832.0,3336.0,3.03,9.19,2.24,1.23,0.9,0.49,t
3197.0,3159.0,3266.0,3982.0,3553.0,3326.0,2855.0,3366.0,4.14,9.58,1.1,1.45,1.67,-0.01,t
3206.0,3189.0,3299.0,4071.0,3582.0,3393.0,2945.0,3397.0,0.87,9.45,0.96,1.6,2.46,-0.64,t
3216.0,3191.0,3306.0,4095.0,3603.0,3408.0,2985.0,3407.0,2.93,10.37,0.09,1.28,1.08,-0.14,t
3206.0,3111.0,3218.0,4095.0,3649.0,3346.0,2938.0,3305.0,0.28,8.78,0.12,1.13,1.52,-0.64,t
3195.0,3056.0,3154.0,4095.0,3709.0,3334.0,2961.0,3187.0,2.04,8.44,0.08,0.39,0.74,0.13,t
3205.0,3057.0,3163.0,4095.0,3754.0,3379.0,3007.0,3155.0,2.69,9.05,0.51,1.5,1.18,-1.02,t
3207.0,3248.0,3359.0,4095.0,3760.0,3550.0,3162.0,3387.0,0.85,9.31,-0.88,1.15,0.07,-0.39,t
3202.0,3158.0,3271.0,4095.0,3713.0,3427.0,2965.0,3211.0,2.37,9.53,-0.97,1.61,-1.63,0.42,t
3200.0,3159.0,3262.0,4095.0,3713.0,3410.0,2946.0,3205.0,1.06,9.75,-1.66,1.67,-0.92,-0.14,t
3202.0,3131.0,3233.0,4095.0,3697.0,3365.0,2923.0,3203.0,2.44,9.39,-4.68,1.52,-1.32,0.65,t
3201.0,3175.0,3280.0,4095.0,3714.0,3441.0,3024.0,3244.0,1.23,7.45,-5.27,-0.01,-1.02,0.19,t
3200.0,3207.0,3298.0,4095.0,3738.0,3482.0,3147.0,3233.0,1.4,10.57,-6.51,-0.42,-0.49,0.92,t
3203.0,3221.0,3317.0,4095.0,3725.0,3517.0,3209.0,3226.0,3.59,6.85,-1.75,-1.15,-0.38,-0.3,t
3205.0,3216.0,3329.0,4095.0,3664.0,3450.0,2971.0,3121.0,1.78,12.1,-4.79,-0.36,0.01,0.56,t
3210.0,3195.0,3298.0,4095.0,3616.0,3339.0,2731.0,3088.0,1.97,8.15,-2.5,-0.75,-0.14,-0.16,t
3201.0,3198.0,3297.0,4095.0,3536.0,2538.0,2736.0,3090.0,0.56,8.5,-2.55,-1.33,-0.73,0.45,t
3199.0,3194.0,3298.0,4095.0,3522.0,3312.0,2768.0,3103.0,1.64,8.67,-1.41,-0.74,-0.86,0.27,t
3188.0,3200.0,3317.0,4095.0,3484.0,3359.0,2781.0,3102.0,0.23,8.24,-2.26,-0.31,-1.23,0.73,t
3184.0,3201.0,3312.0,4095.0,3456.0,3402.0,2799.0,3094.0,3.51,10.05,-2.91,-1.01,-1.03,-0.06,t
3171.0,3202.0,3312.0,4095.0,3451.0,3408.0,2766.0,3095.0,3.39,8.27,-1.54,-1.75,-1.32,-0.44,t
3137.0,3191.0,3290.0,4095.0,3440.0,3361.0,2686.0,3063.0,3.57,9.63,-1.19,-1.1,0.23,-1.51,t
3157.0,3202.0,3301.0,4095.0,3421.0,3310.0,2671.0,3120.0,0.77,8.55,0.61,-0.64,-1.49,-0.71,t
3170.0,3218.0,3323.0,4095.0,3450.0,3342.0,2704.0,3150.0,0.27,10.47,-0.13,0.32,-0.21,0.18,t
3194.0,3250.0,3345.0,4095.0,3509.0,3410.0,2781.0,3205.0,-0.24,8.84,0.11,0.01,-0.15,-0.41,t
3184.0,3244.0,3346.0,4095.0,3533.0,3479.0,2919.0,3262.0,0.31,9.77,-1.02,-0.6,-0.11,-0.73,t
3195.0,3248.0,3357.0,4095.0,3612.0,3610.0,3131.0,3341.0,0.27,7.33,0.21,-0.29,-0.78,0.37,t
3201.0,3239.0,3349.0,4095.0,3681.0,3726.0,3217.0,3413.0,1.54,11.17,-0.23,-0.22,-0.41,0.51,t
3227.0,3269.0,3312.0,4095.0,3819.0,3934.0,3270.0,3519.0,0.3,10.27,1.31,0.04,-0.89,0.07,t
3227.0,3255.0,3253.0,4095.0,3796.0,3871.0,3187.0,3481.0,0.31,9.65,-0.21,-0.29,-0.55,-0.09,t
3230.0,3252.0,3247.0,4095.0,3814.0,3856.0,3167.0,3499.0,0.85,10.2,-1.46,-0.34,-0.48,-0.0,t
3225.0,3261.0,3253.0,4095.0,3860.0,3888.0,3203.0,3535.0,0.07,9.53,-1.37,-1.05,-0.43,-0.44,t
3216.0,3248.0,3249.0,4095.0,3913.0,3853.0,3124.0,3424.0,0.33,9.56,2.19,-1.1,-0.56,-0.45,t
3215.0,3259.0,3278.0,4095.0,3927.0,3820.0,3056.0,3303.0,-0.98,10.27,4.0,0.38,-0.74,0.19,t
3206.0,3258.0,3295.0,4095.0,3920.0,3757.0,2975.0,3267.0,-0.37,10.27,2.03,0.26,0.06,-0.71,t
3204.0,3248.0,3286.0,4095.0,3918.0,3680.0,2899.0,3266.0,-0.21,9.74,0.72,0.49,-0.05,-0.56,t
3200.0,3252.0,3295.0,4095.0,3814.0,3599.0,2828.0,3287.0,0.05,9.02,0.38,0.43,0.64,-0.78,t
3201.0,3250.0,3291.0,4095.0,3723.0,3490.0,2737.0,3323.0,-0.82,9.94,0.2,0.71,0.2,-0.5,t
3207.0,3252.0,3291.0,4095.0,3647.0,3437.0,2714.0,3353.0,-3.45,11.29,-1.39,0.46,0.93,-0.05,t
3203.0,3237.0,3312.0,4095.0,3613.0,3437.0,2742.0,3369.0,-2.46,8.44,0.29,0.16,0.93,0.87,t
