hall_1,hall_2,hall_3,flex_t,flex_i,flex_m,flex_r,flex_p,accel_x,accel_y,accel_z,gyro_x,gyro_y,gyro_z,sign
3583.0,2891.0,2992.0,3030.0,4095.0,4095.0,2350.0,3449.0,0.45,9.04,1.61,0.0,-0.02,0.14,u
3382.0,2890.0,2999.0,3031.0,4095.0,4095.0,2340.0,3445.0,0.08,9.71,1.66,-0.17,0.11,0.06,u
3438.0,2897.0,3007.0,3038.0,4095.0,4095.0,2342.0,3441.0,-0.66,9.54,1.64,0.05,-0.49,0.29,u
3423.0,2886.0,2986.0,3060.0,4095.0,4095.0,2322.0,3408.0,1.67,9.23,2.34,-0.22,-0.53,0.23,u
3452.0,2894.0,2992.0,3088.0,4095.0,4095.0,2327.0,3414.0,0.17,9.41,2.54,0.21,0.56,-0.11,u
3470.0,2891.0,2995.0,3086.0,4095.0,4095.0,2333.0,3420.0,1.13,9.12,1.87,-0.15,-0.17,0.07,u
3203.0,2897.0,2998.0,3061.0,4095.0,4095.0,2339.0,3429.0,0.99,9.43,1.9,0.08,0.16,0.0,u
3501.0,2891.0,2997.0,3042.0,4095.0,4095.0,2350.0,3429.0,0.32,8.85,1.9,-0.07,-0.12,-0.03,u
3935.0,2893.0,2998.0,3031.0,4095.0,4095.0,2367.0,3418.0,0.69,9.41,1.81,0.04,0.08,-0.14,u
3927.0,2896.0,2999.0,3042.0,4095.0,4095.0,2373.0,3425.0,0.83,9.09,1.83,0.06,-0.06,0.07,u
3943.0,2895.0,2999.0,3023.0,4095.0,4095.0,2378.0,3421.0,0.84,9.82,1.65,0.05,0.04,-0.21,u
3917.0,2895.0,2993.0,3022.0,4095.0,4095.0,2381.0,3418.0,1.01,9.36,2.06,0.17,-0.09,0.08,u
3760.0,2894.0,2992.0,3023.0,4095.0,4095.0,2368.0,3432.0,0.77,8.87,1.44,-0.04,0.14,-0.09,u
3329.0,2897.0,2997.0,3009.0,4095.0,4095.0,2355.0,3438.0,0.79,9.6,1.3,-0.05,0.01,0.1,u
3299.0,2896.0,2992.0,3009.0,4095.0,4095.0,2354.0,3438.0,0.77,9.34,2.03,-0.01,0.02,-0.06,u
3345.0,2890.0,2996.0,3005.0,4095.0,4095.0,2365.0,3440.0,0.7,9.32,1.71,-0.01,-0.11,-0.12,u
3376.0,2891.0,2994.0,2994.0,4095.0,4095.0,2377.0,3424.0,0.5,9.71,1.71,0.11,-0.18,0.07,u
3376.0,2896.0,2995.0,3007.0,4095.0,4095.0,2372.0,3427.0,0.84,9.0,1.68,-0.05,0.04,-0.05,u
3383.0,2893.0,2996.0,3007.0,4095.0,4095.0,2370.0,3439.0,0.66,9.67,1.7,0.04,0.08,-0.05,u
3379.0,2888.0,2992.0,3007.0,4095.0,4095.0,2367.0,3430.0,0.67,9.5,1.63,0.1,-0.2,0.06,u
3381.0,2895.0,2998.0,2998.0,4095.0,4095.0,2359.0,3437.0,0.74,9.29,1.4,-0.05,0.07,-0.06,u
3366.0,2896.0,2992.0,2992.0,4095.0,4095.0,2354.0,3423.0,0.83,9.6,1.36,-0.02,-0.1,0.07,u
3354.0,2893.0,2999.0,2993.0,4095.0,4095.0,2353.0,3427.0,0.96,9.46,1.52,-0.04,0.09,-0.08,u
3357.0,2891.0,3002.0,2992.0,4095.0,4095.0,2352.0,3427.0,0.66,9.44,1.51,-0.02,0.14,-0.06,u
3376.0,2896.0,2996.0,2997.0,4095.0,4095.0,2355.0,3439.0,0.7,9.39,1.49,-0.16,0.07,-0.04,u
3298.0,2895.0,2993.0,2990.0,4095.0,4095.0,2357.0,3440.0,1.02,9.43,1.58,-0.07,-0.07,0.05,u
3201.0,2894.0,2992.0,2983.0,4095.0,4095.0,2359.0,3440.0,0.54,9.67,1.56,-0.05,-0.0,-0.01,u
3777.0,2896.0,2992.0,2960.0,4095.0,4095.0,2370.0,3408.0,0.81,9.8,1.63,0.04,-0.02,-0.2,u
3826.0,2897.0,2992.0,2962.0,4095.0,4095.0,2386.0,3408.0,0.65,9.36,1.6,0.04,-0.1,0.02,u
3824.0,2891.0,2994.0,2971.0,4095.0,4095.0,2399.0,3426.0,0.81,9.15,1.45,-0.11,0.1,-0.07,u
3670.0,2896.0,2995.0,2976.0,4095.0,4095.0,2395.0,3434.0,0.83,10.01,1.48,0.01,0.08,0.04,u
3665.0,2891.0,2999.0,2977.0,4095.0,4095.0,2401.0,3435.0,0.62,9.22,1.58,-0.04,-0.07,0.02,u
3650.0,2895.0,2997.0,2981.0,4095.0,4095.0,2392.0,3434.0,0.95,9.69,1.5,-0.05,0.12,-0.02,u
3340.0,2895.0,2992.0,2979.0,4095.0,4095.0,2377.0,3438.0,0.55,9.1,1.71,0.12,0.01,0.17,u
3199.0,2901.0,2995.0,2979.0,4095.0,4095.0,2369.0,3446.0,0.75,10.13,1.32,-0.02,0.31,-0.05,u
3474.0,2896.0,3005.0,2966.0,4095.0,4095.0,2375.0,3440.0,0.47,9.16,1.52,0.08,-0.09,-0.12,u
3503.0,2896.0,2990.0,2960.0,4095.0,4095.0,2393.0,3441.0,1.18,9.66,1.28,-0.12,-0.04,-0.12,u
3502.0,2895.0,2994.0,2962.0,4095.0,4095.0,2394.0,3447.0,0.47,9.06,1.4,0.02,0.17,-0.04,u
3491.0,2895.0,2997.0,2931.0,4095.0,4095.0,2384.0,3442.0,0.54,9.49,1.43,0.02,-0.02,-0.13,u
3488.0,2890.0,2998.0,2918.0,4095.0,4095.0,2381.0,3434.0,0.52,9.81,1.42,0.13,0.01,-0.01,u
3493.0,2896.0,2993.0,2928.0,4095.0,4095.0,2383.0,3439.0,0.59,9.17,1.29,-0.02,-0.08,-0.0,u
3446.0,2885.0,2992.0,2925.0,4095.0,4095.0,2374.0,3439.0,0.44,9.68,1.24,-0.03,0.08,-0.03,u
3363.0,2896.0,2995.0,2929.0,4095.0,4095.0,2378.0,3440.0,0.87,9.74,1.16,-0.02,-0.0,0.01,u
3362.0,2896.0,2997.0,2934.0,4095.0,4095.0,2379.0,3443.0,0.51,9.06,1.07,-0.17,0.02,-0.07,u
3354.0,2893.0,2992.0,2941.0,4095.0,4095.0,2384.0,3446.0,0.67,9.97,1.43,-0.04,-0.01,0.01,u
3347.0,2887.0,2992.0,2935.0,4095.0,4095.0,2381.0,3442.0,0.42,9.36,1.51,-0.05,-0.01,-0.03,u
3338.0,2886.0,2993.0,2934.0,4095.0,4095.0,2384.0,3440.0,0.57,9.69,1.31,0.01,0.06,-0.01,u
3233.0,2896.0,2992.0,2915.0,4095.0,4095.0,2381.0,3437.0,0.89,9.43,1.36,0.05,-0.0,0.11,u
3246.0,2894.0,2995.0,2902.0,4095.0,4095.0,2385.0,3438.0,0.61,9.78,1.17,-0.1,0.22,-0.14,u
3242.0,2891.0,2992.0,2911.0,4095.0,4095.0,2386.0,3439.0,0.76,9.35,1.42,0.07,-0.14,0.08,u
3229.0,2895.0,2995.0,2912.0,4095.0,4095.0,2387.0,3440.0,0.51,9.36,0.89,-0.2,0.02,-0.07,u
3231.0,2893.0,3003.0,2911.0,4095.0,4095.0,2384.0,3440.0,0.91,9.81,1.43,-0.05,-0.04,0.05,u
3227.0,2889.0,3002.0,2899.0,4095.0,4095.0,2384.0,3438.0,0.32,9.04,1.43,-0.12,-0.01,-0.08,u
3264.0,2887.0,2998.0,2903.0,4095.0,4095.0,2386.0,3438.0,0.87,10.01,1.62,0.06,0.0,0.1,u
3281.0,2896.0,2991.0,2898.0,4095.0,4095.0,2389.0,3440.0,0.73,9.13,1.31,-0.09,-0.01,-0.01,u
3280.0,2891.0,2995.0,2905.0,4095.0,4095.0,2389.0,3440.0,1.06,9.41,1.48,-0.02,0.01,0.01,u
3295.0,2889.0,2997.0,2912.0,4095.0,4095.0,2387.0,3440.0,0.58,9.5,1.39,-0.07,-0.08,-0.07,u
3314.0,2897.0,3007.0,2925.0,4095.0,4095.0,2390.0,3446.0,0.54,9.49,1.53,0.06,0.12,-0.02,u
3341.0,2897.0,2998.0,2928.0,4095.0,4095.0,2394.0,3445.0,0.72,9.67,1.11,-0.06,0.07,-0.04,u
3438.0,2895.0,2992.0,2928.0,4095.0,4095.0,2391.0,3447.0,1.0,9.57,1.32,0.05,-0.12,0.12,u
3739.0,2884.0,2997.0,2928.0,4095.0,4095.0,2390.0,3441.0,0.96,9.59,1.39,-0.09,-0.04,-0.1,u
3861.0,2891.0,2995.0,2926.0,4095.0,4095.0,2390.0,3440.0,0.6,9.7,1.43,0.06,0.12,-0.04,u
4092.0,2886.0,2992.0,2928.0,4095.0,4095.0,2393.0,3447.0,0.62,9.28,1.47,-0.09,0.07,-0.01,u
3903.0,2885.0,2992.0,2932.0,4095.0,4095.0,2393.0,3445.0,0.82,9.81,1.13,-0.1,0.02,-0.02,u
4095.0,2891.0,2992.0,2923.0,4095.0,4095.0,2390.0,3446.0,0.51,9.57,1.53,0.07,-0.03,0.04,u
4095.0,2890.0,2995.0,2928.0,4095.0,4095.0,2393.0,3444.0,0.79,9.07,1.67,-0.09,-0.09,-0.05,u
4095.0,2893.0,2999.0,2928.0,4095.0,4095.0,2398.0,3443.0,0.93,9.8,1.32,0.1,0.11,-0.04,u
4095.0,2886.0,3008.0,2927.0,4095.0,4095.0,2395.0,3449.0,0.43,9.34,1.18,-0.01,0.08,-0.03,u
3670.0,2896.0,3001.0,2915.0,4095.0,4095.0,2399.0,3449.0,0.66,9.88,1.04,-0.02,-0.01,0.02,u
3577.0,2895.0,2992.0,2913.0,4095.0,4095.0,2400.0,3440.0,0.6,9.56,1.37,0.07,-0.08,0.05,u
3298.0,2894.0,2993.0,2927.0,4095.0,4095.0,2403.0,3440.0,0.68,9.5,1.04,-0.07,0.07,-0.08,u
3248.0,2893.0,2994.0,2925.0,4095.0,4095.0,2403.0,3439.0,0.8,10.06,1.25,0.12,0.13,0.01,u
3259.0,2896.0,2999.0,2927.0,4095.0,4095.0,2404.0,3439.0,0.67,9.37,1.29,-0.05,-0.1,-0.06,u
3265.0,2890.0,3004.0,2929.0,4095.0,4095.0,2406.0,3440.0,0.58,9.57,1.17,-0.02,0.15,-0.07,u
3305.0,2894.0,3002.0,2928.0,4095.0,4095.0,2404.0,3440.0,0.43,9.53,1.41,0.01,-0.02,-0.01,u
3312.0,2896.0,2993.0,2931.0,4095.0,4095.0,2406.0,3447.0,0.7,9.38,1.17,-0.06,-0.02,-0.02,u
3354.0,2896.0,2998.0,2934.0,4095.0,4095.0,2403.0,3441.0,0.9,9.66,1.29,-0.03,0.11,-0.05,u
3227.0,2896.0,2992.0,2928.0,4095.0,4095.0,2407.0,3440.0,0.43,9.25,1.26,-0.03,-0.07,0.01,u
3222.0,2895.0,2995.0,2923.0,4095.0,4095.0,2401.0,3443.0,0.7,9.42,1.49,-0.1,-0.04,-0.01,u
3422.0,2902.0,2992.0,2925.0,4095.0,4095.0,2403.0,3439.0,0.22,9.46,1.28,0.09,-0.04,0.05,u
3678.0,2896.0,2997.0,2910.0,4095.0,4095.0,2403.0,3396.0,0.63,9.6,1.09,-0.07,-0.01,-0.14,u
3696.0,2889.0,2999.0,2910.0,4095.0,4095.0,2398.0,3383.0,1.01,9.25,1.28,0.06,-0.08,0.04,u
3675.0,2892.0,2994.0,2920.0,4095.0,4095.0,2401.0,3393.0,0.61,10.02,0.96,-0.13,0.09,-0.08,u
3676.0,2895.0,2999.0,2924.0,4095.0,4095.0,2400.0,3405.0,0.83,9.46,1.53,0.04,0.01,0.04,u
3610.0,2895.0,2992.0,2928.0,4095.0,4095.0,2385.0,3419.0,0.42,9.14,1.31,-0.15,0.19,-0.0,u
3669.0,2892.0,2998.0,2919.0,4095.0,4095.0,2394.0,3419.0,1.05,10.29,1.11,0.1,-0.17,-0.04,u
3728.0,2892.0,2998.0,2883.0,4095.0,4095.0,2391.0,3387.0,0.24,8.95,1.27,-0.01,-0.11,-0.05,u
3723.0,2887.0,2992.0,2878.0,4095.0,4095.0,2400.0,3383.0,0.49,10.35,1.07,0.0,0.15,-0.05,u
3719.0,2890.0,2991.0,2889.0,4095.0,4095.0,2415.0,3403.0,0.73,9.12,1.48,0.08,-0.14,0.1,u
3715.0,2894.0,2995.0,2897.0,4095.0,4095.0,2411.0,3413.0,0.64,9.3,1.12,-0.03,0.2,-0.07,u
3716.0,2886.0,2997.0,2910.0,4095.0,4095.0,2401.0,3422.0,0.89,9.43,1.01,0.08,0.08,0.07,u
3710.0,2895.0,2998.0,2918.0,4095.0,4095.0,2403.0,3431.0,0.42,9.19,0.68,-0.25,0.0,-0.06,u
3706.0,2895.0,2992.0,2911.0,4095.0,4095.0,2400.0,3421.0,0.8,9.95,1.0,-0.12,-0.04,0.01,u
3709.0,2896.0,2995.0,2903.0,4095.0,4095.0,2411.0,3363.0,0.17,8.65,1.59,-0.14,-0.12,-0.02,u
3702.0,2880.0,2992.0,2919.0,4095.0,4095.0,2409.0,3351.0,0.54,9.73,1.42,-0.14,0.0,-0.04,u
3711.0,2883.0,2993.0,2947.0,4095.0,4095.0,2401.0,3362.0,0.62,9.53,1.53,0.03,-0.04,0.06,u
3707.0,2895.0,3001.0,3011.0,4095.0,4095.0,2407.0,3349.0,0.68,9.31,1.22,-0.19,0.01,-0.02,u
3705.0,2893.0,2996.0,3238.0,4095.0,4095.0,2416.0,3330.0,1.11,9.67,1.42,0.11,-0.09,0.15,u
3701.0,2885.0,2997.0,3162.0,4095.0,4095.0,2417.0,3343.0,0.52,8.67,1.32,-0.17,-0.03,-0.08,u
3701.0,2885.0,2992.0,2970.0,4095.0,4095.0,2384.0,3340.0,0.39,10.66,1.36,-0.11,0.13,-0.16,u
3701.0,2896.0,2997.0,2928.0,4095.0,4095.0,2374.0,3337.0,0.45,9.19,1.9,-0.0,-0.27,0.16,u
3699.0,2886.0,2994.0,2926.0,4095.0,4095.0,2378.0,3328.0,0.69,9.41,1.47,-0.07,0.17,-0.12,u
3695.0,2891.0,2994.0,2912.0,4095.0,4095.0,2386.0,3298.0,0.51,9.7,1.35,0.29,0.16,0.09,u
3582.0,2883.0,2993.0,2919.0,4095.0,4095.0,2389.0,3316.0,1.15,9.3,1.33,-0.08,0.15,0.09,u
3457.0,2889.0,2997.0,2941.0,4095.0,4095.0,2387.0,3347.0,1.06,9.91,1.02,-0.03,0.01,-0.02,u
3473.0,2885.0,2995.0,2976.0,4095.0,4095.0,2389.0,3345.0,0.68,8.86,1.6,-0.08,-0.18,0.01,u
3487.0,2896.0,2994.0,2974.0,4095.0,4095.0,2401.0,3330.0,0.82,9.73,1.56,0.1,0.15,-0.06,u
3520.0,2891.0,2991.0,2927.0,4095.0,4095.0,2417.0,3283.0,0.27,10.17,1.41,0.43,0.15,0.18,u
3529.0,2895.0,2993.0,2969.0,4095.0,4095.0,2447.0,3218.0,0.37,8.51,1.14,0.17,-0.16,0.19,u
3533.0,2893.0,2994.0,3158.0,4095.0,4095.0,2462.0,3200.0,0.88,10.3,0.17,0.13,0.23,0.02,u
3531.0,2887.0,2992.0,3145.0,4095.0,4095.0,2471.0,3216.0,1.45,9.1,0.53,-0.02,-0.27,0.1,u
3530.0,2891.0,2990.0,3018.0,4095.0,4095.0,2470.0,3233.0,2.15,9.79,0.64,-0.03,-0.01,-0.24,u
3523.0,2886.0,2992.0,2951.0,4095.0,4095.0,2466.0,3247.0,0.14,9.52,1.05,0.27,0.1,-0.06,u
3525.0,2891.0,2992.0,2944.0,4095.0,4095.0,2467.0,3265.0,0.44,10.24,0.68,-0.24,-0.01,-0.14,u
3520.0,2887.0,2991.0,2993.0,4095.0,4095.0,2466.0,3289.0,0.11,9.54,0.75,0.19,0.03,0.13,u
3524.0,2893.0,2989.0,3054.0,4095.0,4095.0,2448.0,3280.0,0.8,9.31,0.72,-0.18,-0.08,0.02,u
3502.0,2875.0,2983.0,3151.0,4095.0,4095.0,2403.0,3281.0,1.57,10.32,0.85,0.2,0.0,0.07,u
3499.0,2877.0,2973.0,3203.0,4095.0,4095.0,2383.0,3301.0,0.81,8.9,0.88,-0.17,-0.02,0.03,u
3494.0,2880.0,2977.0,3190.0,4095.0,4095.0,2365.0,3294.0,1.15,10.31,0.78,-0.07,0.08,-0.04,u
3492.0,2875.0,2967.0,3143.0,4095.0,4095.0,2371.0,3280.0,0.91,9.31,0.99,-0.01,-0.06,0.05,u
3495.0,2873.0,2977.0,3099.0,4095.0,4095.0,2373.0,3261.0,0.92,9.59,0.66,-0.25,0.1,-0.11,u
3492.0,2873.0,2976.0,3088.0,4095.0,4095.0,2373.0,3263.0,1.21,9.57,1.03,0.02,-0.09,0.12,u
3498.0,2880.0,2973.0,3088.0,4095.0,4095.0,2370.0,3292.0,0.6,9.28,0.91,-0.24,0.23,-0.14,u
3498.0,2875.0,2979.0,3120.0,4095.0,4095.0,2382.0,3315.0,1.41,9.79,0.95,0.14,-0.08,0.04,u
3502.0,2870.0,2977.0,3138.0,4095.0,4095.0,2386.0,3315.0,0.69,9.25,0.85,-0.12,-0.04,-0.04,u
3503.0,2875.0,2977.0,3082.0,4095.0,4095.0,2391.0,3320.0,1.12,9.99,0.83,0.1,0.04,-0.08,u
3504.0,2881.0,2970.0,2997.0,4095.0,4095.0,2390.0,3273.0,0.16,8.53,0.72,-0.11,0.03,-0.01,u
3505.0,2875.0,2977.0,3013.0,4095.0,4095.0,2422.0,3267.0,1.2,9.98,0.85,-0.12,0.08,0.02,u
3499.0,2874.0,2965.0,3097.0,4095.0,4095.0,2462.0,3498.0,1.46,9.84,1.06,0.13,-0.18,0.08,u
3505.0,2886.0,2960.0,3149.0,4095.0,4095.0,2493.0,3666.0,0.54,8.9,1.15,-0.0,-0.05,0.02,u
3487.0,2883.0,2958.0,3147.0,4095.0,4095.0,2493.0,3607.0,1.08,10.21,0.31,0.01,0.18,-0.05,u
3487.0,2885.0,2960.0,3152.0,4095.0,4095.0,2496.0,3532.0,0.96,9.02,0.8,-0.08,-0.1,0.02,u
3495.0,2883.0,2961.0,3161.0,4095.0,4095.0,2503.0,3518.0,1.16,9.98,0.62,-0.09,0.2,-0.12,u
3504.0,2883.0,2960.0,3197.0,4095.0,4095.0,2507.0,3475.0,1.08,9.92,0.79,0.02,-0.01,-0.02,u
3503.0,2880.0,2951.0,3121.0,4095.0,4095.0,2507.0,3445.0,0.68,9.24,1.14,0.07,-0.14,0.01,u
3499.0,2893.0,2960.0,3053.0,4095.0,4095.0,2475.0,3405.0,1.18,10.11,0.51,-0.17,0.18,-0.12,u
3490.0,2893.0,2959.0,3025.0,4095.0,4095.0,2458.0,3357.0,1.19,9.68,1.02,0.07,-0.12,0.15,u
3477.0,2881.0,2962.0,3006.0,4095.0,4095.0,2465.0,3391.0,0.82,9.44,0.95,-0.19,0.17,-0.1,u
3487.0,2885.0,2977.0,3010.0,4095.0,4095.0,2454.0,3299.0,1.75,10.11,0.75,0.2,0.19,0.05,u
3481.0,2881.0,2978.0,3027.0,4095.0,4095.0,2477.0,3237.0,0.35,8.95,0.64,-0.15,0.06,-0.01,u
3485.0,2880.0,2974.0,2994.0,4095.0,4095.0,2483.0,3246.0,1.11,9.79,0.52,-0.11,-0.11,-0.05,u
3479.0,2879.0,2981.0,2969.0,4095.0,4095.0,2469.0,3246.0,1.25,9.35,0.87,-0.03,-0.19,0.03,u
3483.0,2883.0,2971.0,2969.0,4095.0,4095.0,2462.0,3261.0,1.14,9.87,0.8,-0.03,0.09,-0.11,u
3485.0,2880.0,2975.0,2997.0,4095.0,4095.0,2448.0,3285.0,0.97,9.47,0.98,0.12,-0.04,0.02,u
3490.0,2877.0,2973.0,3015.0,4095.0,4095.0,2438.0,3312.0,1.38,10.05,0.79,-0.05,0.04,-0.12,u
3486.0,2886.0,2971.0,2976.0,4095.0,4095.0,2438.0,3308.0,0.94,9.74,0.67,0.24,0.11,-0.04,u
3489.0,2875.0,2971.0,2907.0,4095.0,4095.0,2436.0,3312.0,0.41,9.34,0.34,-0.19,0.14,-0.09,u
3485.0,2869.0,2982.0,2880.0,4095.0,4095.0,2422.0,3301.0,1.4,10.24,0.68,0.14,-0.21,0.08,u
3485.0,2875.0,2980.0,2851.0,4095.0,4095.0,2428.0,3301.0,0.44,8.96,0.75,-0.26,0.11,-0.07,u
3485.0,2879.0,2978.0,2825.0,4095.0,4095.0,2437.0,3295.0,2.06,10.23,0.35,-0.03,0.0,0.02,u
3486.0,2871.0,2979.0,2832.0,4095.0,4095.0,2438.0,3307.0,0.93,9.18,1.06,-0.02,0.1,-0.09,u
3488.0,2874.0,2977.0,2817.0,4095.0,4095.0,2445.0,3308.0,0.45,9.96,0.61,-0.2,0.17,-0.11,u
3471.0,2874.0,2974.0,2815.0,4095.0,4095.0,2448.0,3314.0,0.83,9.28,1.23,-0.06,-0.06,0.08,u
3602.0,2880.0,2971.0,2811.0,4095.0,4095.0,2451.0,3317.0,1.31,9.69,0.75,0.0,0.07,-0.09,u
3697.0,2878.0,2969.0,2799.0,4095.0,4095.0,2453.0,3307.0,0.84,9.54,0.83,0.12,-0.36,0.12,u
4030.0,2881.0,2982.0,2771.0,4095.0,4095.0,2479.0,3271.0,0.8,9.49,0.76,-0.12,-0.06,-0.2,u
3696.0,2874.0,2983.0,2786.0,4095.0,4095.0,2482.0,3291.0,1.1,10.09,0.89,0.14,0.2,-0.0,u
3376.0,2879.0,2983.0,2799.0,4095.0,4095.0,2470.0,3312.0,0.91,9.37,0.79,0.12,0.07,-0.03,u
3327.0,2882.0,2976.0,2801.0,4095.0,4095.0,2470.0,3325.0,1.06,9.85,0.17,-0.12,0.29,-0.21,u
3354.0,2886.0,2992.0,2807.0,4095.0,4095.0,2480.0,3341.0,0.74,9.46,0.83,0.09,-0.22,0.08,u
3391.0,2889.0,2992.0,2805.0,4095.0,4095.0,2478.0,3344.0,0.64,9.25,0.8,-0.08,-0.02,-0.13,u
3392.0,2894.0,2987.0,2797.0,4095.0,4095.0,2465.0,3342.0,0.69,9.68,0.57,0.05,0.0,-0.06,u
3386.0,2890.0,2992.0,2800.0,4095.0,4095.0,2454.0,3355.0,0.73,9.87,0.34,0.09,0.03,0.02,u
3345.0,2891.0,2992.0,2794.0,4095.0,4095.0,2455.0,3351.0,0.4,8.52,0.45,-0.33,-0.06,-0.04,u
3316.0,2894.0,2991.0,2798.0,4095.0,4095.0,2450.0,3344.0,1.17,10.52,0.29,0.02,0.28,-0.11,u
3184.0,2884.0,2986.0,2795.0,4095.0,4095.0,2443.0,3335.0,0.59,9.26,0.79,-0.09,-0.06,0.06,u
3191.0,2882.0,2987.0,2807.0,4095.0,4095.0,2445.0,3344.0,0.11,9.03,0.69,-0.28,-0.0,-0.04,u
3209.0,2890.0,2988.0,2806.0,4095.0,4095.0,2449.0,3343.0,0.28,10.44,0.31,-0.24,0.11,-0.01,u
3207.0,2879.0,2990.0,2817.0,4095.0,4095.0,2448.0,3356.0,0.76,9.43,1.32,-0.06,-0.25,0.2,u
3205.0,2886.0,2990.0,2829.0,4095.0,4095.0,2450.0,3349.0,1.61,9.47,0.6,-0.15,0.11,-0.11,u
3201.0,2883.0,2992.0,2836.0,4095.0,4095.0,2438.0,3323.0,1.32,10.32,0.95,0.2,0.01,0.08,u
3203.0,2880.0,2981.0,2848.0,4095.0,4095.0,2441.0,3312.0,0.7,8.77,1.16,-0.3,0.15,-0.17,u
3189.0,2883.0,2991.0,2870.0,4095.0,4095.0,2441.0,3283.0,0.81,10.15,0.78,0.02,0.31,-0.06,u
3185.0,2891.0,2985.0,2880.0,4095.0,4095.0,2443.0,3315.0,0.27,8.87,0.91,-0.09,-0.1,0.05,u
3216.0,2884.0,2992.0,2881.0,4095.0,4095.0,2431.0,3402.0,1.18,10.06,0.8,0.08,-0.03,-0.02,u
3285.0,2882.0,2975.0,2867.0,4095.0,4095.0,2435.0,3520.0,0.54,8.61,0.84,0.04,-0.15,0.05,u
3278.0,2884.0,2986.0,2855.0,4095.0,4095.0,2429.0,3568.0,1.48,10.63,0.81,0.2,-0.12,0.08,u
3280.0,2882.0,2972.0,2853.0,4095.0,4095.0,2432.0,3568.0,0.56,9.16,0.96,0.04,-0.02,0.01,u
3280.0,2885.0,2976.0,2853.0,4095.0,4095.0,2426.0,3547.0,0.88,10.11,0.43,-0.12,0.06,-0.06,u
3279.0,2878.0,2973.0,2837.0,4095.0,4095.0,2419.0,3503.0,1.1,9.31,0.94,0.1,-0.08,0.06,u
3275.0,2882.0,2971.0,2837.0,4095.0,4095.0,2417.0,3425.0,0.89,9.57,0.51,-0.11,0.13,-0.08,u
3310.0,2893.0,2992.0,2855.0,4095.0,4095.0,2427.0,3357.0,1.25,9.7,1.02,0.21,-0.07,0.03,u
3322.0,2898.0,2994.0,2859.0,4095.0,4095.0,2433.0,3331.0,0.44,9.05,0.44,-0.09,0.16,-0.14,u
3328.0,2903.0,3007.0,2826.0,4095.0,4095.0,2433.0,3268.0,1.27,10.28,0.61,0.32,-0.14,0.13,u
3311.0,2918.0,3012.0,2795.0,4095.0,4095.0,2439.0,3244.0,1.07,9.39,0.42,0.01,-0.07,0.02,u
3312.0,2918.0,3015.0,2784.0,4095.0,4095.0,2442.0,3261.0,1.07,9.97,0.07,-0.09,0.09,-0.05,u
3310.0,2914.0,3009.0,2788.0,4095.0,4095.0,2447.0,3295.0,0.99,9.53,0.8,0.07,-0.17,0.15,u
3317.0,2913.0,3005.0,2763.0,4095.0,4095.0,2448.0,3316.0,1.16,9.11,0.47,-0.09,0.04,-0.09,u
3350.0,2915.0,3005.0,2749.0,4095.0,4095.0,2445.0,3356.0,0.79,9.96,0.43,0.03,0.07,-0.02,u
3354.0,2915.0,3007.0,2739.0,4095.0,4095.0,2457.0,3345.0,1.11,8.86,0.37,-0.06,-0.1,-0.01,u
3413.0,2911.0,3011.0,2741.0,4095.0,4095.0,2448.0,3353.0,0.78,10.01,0.42,-0.16,0.14,-0.09,u
3867.0,2918.0,3003.0,2730.0,4095.0,4095.0,2449.0,3349.0,0.6,9.31,0.87,0.16,-0.16,0.08,u
4095.0,2918.0,3007.0,2736.0,4095.0,4095.0,2441.0,3325.0,0.77,9.45,0.53,-0.03,0.1,-0.09,u
4095.0,2914.0,3004.0,2736.0,4095.0,4095.0,2443.0,3309.0,1.66,9.59,0.03,-0.02,0.04,0.01,u
4095.0,2921.0,3007.0,2737.0,4095.0,4095.0,2443.0,3312.0,1.04,9.4,0.63,-0.06,-0.02,0.06,u
4095.0,2909.0,3008.0,2736.0,4095.0,4095.0,2448.0,3311.0,1.08,9.78,0.44,-0.03,0.11,-0.04,u
4027.0,2913.0,3011.0,2747.0,4095.0,4095.0,2448.0,3317.0,1.14,9.46,0.52,0.04,-0.01,0.0,u
3899.0,2917.0,3005.0,2751.0,4095.0,4095.0,2454.0,3318.0,0.83,9.2,0.5,-0.15,-0.05,-0.03,u
3628.0,2909.0,3009.0,2749.0,4095.0,4095.0,2454.0,3285.0,1.26,10.39,0.35,0.06,0.11,-0.03,u
3487.0,2907.0,3004.0,2755.0,4095.0,4095.0,2453.0,3269.0,0.85,9.43,0.34,-0.11,0.03,-0.07,u
3458.0,2901.0,3007.0,2756.0,4095.0,4095.0,2451.0,3282.0,1.32,9.71,0.23,-0.28,0.11,-0.18,u
3499.0,2907.0,3002.0,2757.0,4095.0,4095.0,2443.0,3315.0,0.78,9.38,1.16,-0.06,-0.06,-0.13,u
3526.0,2903.0,2994.0,2767.0,4095.0,4095.0,2443.0,3312.0,0.04,8.67,0.74,-0.3,-0.06,-0.17,u
3497.0,2907.0,3006.0,2769.0,4095.0,4095.0,2438.0,3312.0,0.79,10.59,0.59,0.02,0.12,-0.01,u
3425.0,2903.0,2992.0,2768.0,4095.0,4095.0,2444.0,3315.0,0.4,9.08,0.91,-0.03,-0.04,0.02,u
3278.0,2907.0,2998.0,2773.0,4095.0,4095.0,2448.0,3318.0,1.01,9.4,0.46,-0.07,0.05,-0.04,u
3241.0,2912.0,2997.0,2771.0,4095.0,4095.0,2448.0,3313.0,1.07,9.77,0.84,0.15,-0.08,0.08,u
3248.0,2902.0,2997.0,2767.0,4095.0,4095.0,2449.0,3310.0,0.44,8.91,0.84,-0.12,-0.03,-0.06,u
3239.0,2903.0,3005.0,2763.0,4095.0,4095.0,2450.0,3309.0,1.18,10.17,0.81,0.09,-0.05,0.07,u
3248.0,2909.0,2998.0,2761.0,4095.0,4095.0,2448.0,3321.0,0.73,9.32,0.64,0.02,0.05,-0.05,u
3237.0,2911.0,2998.0,2779.0,4095.0,4095.0,2436.0,3315.0,0.9,10.28,0.22,0.12,0.11,-0.06,u
3256.0,2905.0,2992.0,2815.0,4095.0,4095.0,2438.0,3233.0,0.56,9.36,0.62,-0.03,-0.02,-0.08,u
3254.0,2911.0,2997.0,2818.0,4095.0,4095.0,2445.0,3238.0,0.41,9.56,0.52,-0.13,0.08,-0.09,u
3247.0,2909.0,2990.0,2801.0,4095.0,4095.0,2447.0,3253.0,0.7,9.61,0.75,0.2,-0.09,0.07,u
3250.0,2910.0,2994.0,2815.0,4095.0,4095.0,2452.0,3269.0,0.44,9.66,0.17,-0.17,0.11,-0.09,u
3261.0,2910.0,2997.0,2829.0,4095.0,4095.0,2451.0,3278.0,0.67,9.78,0.24,0.05,-0.01,0.0,u
3245.0,2907.0,2998.0,2832.0,4095.0,4095.0,2453.0,3280.0,0.77,9.42,0.36,-0.04,0.0,-0.03,u
3243.0,2909.0,2997.0,2832.0,4095.0,4095.0,2451.0,3280.0,0.72,9.79,0.26,-0.02,0.1,-0.05,u
3198.0,2911.0,2999.0,2833.0,4095.0,4095.0,2452.0,3283.0,0.62,9.4,0.68,0.11,-0.13,0.11,u
3194.0,2914.0,3001.0,2837.0,4095.0,4095.0,2454.0,3294.0,0.41,9.89,0.23,-0.11,0.14,-0.07,u
3191.0,2907.0,2992.0,2838.0,4095.0,4095.0,2455.0,3302.0,1.04,9.54,0.39,0.0,-0.04,0.04,u
3206.0,2910.0,2993.0,2848.0,4095.0,4095.0,2462.0,3311.0,0.54,9.49,0.36,-0.23,0.01,-0.08,u
3195.0,2911.0,2999.0,2841.0,4095.0,4095.0,2459.0,3306.0,0.87,10.03,0.67,0.14,0.02,0.04,u
3189.0,2905.0,3002.0,2835.0,4095.0,4095.0,2458.0,3298.0,0.53,9.1,0.27,0.01,0.08,-0.21,u
3167.0,2907.0,2995.0,2838.0,4095.0,4095.0,2455.0,3295.0,0.94,9.82,0.15,0.05,-0.04,0.01,u
3165.0,2903.0,3004.0,2841.0,4095.0,4095.0,2458.0,3298.0,0.68,9.37,0.53,-0.07,0.04,-0.06,u
3154.0,2911.0,2997.0,2842.0,4095.0,4095.0,2459.0,3306.0,0.58,10.09,0.3,-0.08,0.04,-0.03,u
3156.0,2914.0,2998.0,2848.0,4095.0,4095.0,2459.0,3312.0,0.5,9.41,0.57,-0.01,-0.1,0.06,u
3162.0,2908.0,2992.0,2853.0,4095.0,4095.0,2462.0,3315.0,0.61,9.97,0.24,-0.08,0.07,-0.04,u
3156.0,2901.0,2992.0,2849.0,4095.0,4095.0,2461.0,3318.0,0.9,9.59,0.64,0.07,-0.09,0.08,u
3151.0,2911.0,3004.0,2769.0,4095.0,4095.0,2443.0,3317.0,0.91,9.35,0.16,0.12,0.06,-0.16,u
3145.0,2912.0,3003.0,2754.0,4095.0,4095.0,2446.0,3305.0,0.76,10.0,0.17,0.15,0.07,-0.06,u
3146.0,2911.0,2998.0,2793.0,4095.0,4095.0,2449.0,3313.0,0.56,9.73,-0.2,-0.09,-0.0,-0.0,u
3173.0,2903.0,2997.0,2800.0,4095.0,4095.0,2461.0,3334.0,0.53,9.29,0.14,-0.15,-0.1,0.16,u
3154.0,2913.0,2997.0,2791.0,4095.0,4095.0,2463.0,3341.0,0.72,9.96,0.16,-0.27,0.15,-0.07,u
3235.0,2903.0,2993.0,2785.0,4095.0,4095.0,2466.0,3351.0,0.73,9.62,0.71,-0.02,-0.19,0.05,u
3638.0,2903.0,2995.0,2797.0,4095.0,4095.0,2470.0,3404.0,0.15,9.13,0.83,-0.4,0.11,-0.16,u
3407.0,2902.0,2994.0,2793.0,4095.0,4095.0,2479.0,3414.0,1.16,9.77,0.41,-0.03,0.08,0.01,u
3753.0,2907.0,2995.0,2753.0,4095.0,4095.0,2480.0,3401.0,0.18,9.03,0.62,0.02,-0.06,-0.06,u
4095.0,2901.0,2993.0,2736.0,4095.0,4095.0,2480.0,3354.0,0.59,10.62,0.64,0.1,-0.07,-0.05,u
4095.0,2909.0,3001.0,2747.0,4095.0,4095.0,2494.0,3361.0,0.77,9.16,0.74,-0.05,0.05,-0.04,u
4095.0,2906.0,3001.0,2766.0,4095.0,4095.0,2500.0,3378.0,1.14,9.94,0.25,0.06,0.06,-0.08,u
4095.0,2898.0,2995.0,2768.0,4095.0,4095.0,2495.0,3381.0,0.69,9.42,0.6,-0.08,-0.14,0.01,u
